yyyy-MM-dd	HH:mm:ss.fff	gyrX	gyrY	gyrZ	accX	accY	accZ	magX	magY	magZ	Marker	Energy	Angle	Classification
2026-02-12	16:38:34.610	-2.345	-4.655	-0.385	0.995032	0.186416	0.157136	-0.234	0.126	0.489	0	138	161	3
2026-02-12	16:38:34.630	-1.785	-3.85	-1.61	0.990884	0.182268	0.160064	-0.2325	0.123	0.489	0	138	161	3
2026-02-12	16:38:34.650	-0.91	-3.115	-2.485	0.98942	0.179584	0.165432	-0.2295	0.123	0.492	0	138	161	3
2026-02-12	16:38:34.670	-0.245	-2.52	-3.22	0.994056	0.170556	0.170068	-0.228	0.1245	0.4935	0	138	161	3
2026-02-12	16:38:34.690	1.47	-1.435	-3.43	0.9943	0.152012	0.177632	-0.228	0.1245	0.4935	0	138	161	3
2026-02-12	16:38:34.710	2.625	-0.49	-3.15	0.99674	0.144692	0.182756	-0.2355	0.1305	0.4935	0	138	161	3
2026-02-12	16:38:34.730	3.36	0.56	-2.66	0.996252	0.1403	0.184952	-0.231	0.126	0.501	0	138	161	3
2026-02-12	16:38:34.750	4.165	1.435	-2.24	0.989664	0.136152	0.18422	-0.231	0.1245	0.501	0	138	161	3
2026-02-12	16:38:34.770	5.04	1.925	-2.205	0.991616	0.14396	0.180072	-0.2295	0.12	0.4905	0	138	161	3
2026-02-12	16:38:34.790	5.565	2.03	-2.73	0.994788	0.152012	0.16958	-0.228	0.1185	0.492	0	138	161	3
2026-02-12	16:38:34.810	5.11	1.925	-3.465	0.99796	0.156404	0.16348	-0.2295	0.12	0.495	0	128	161	3
2026-02-12	16:38:34.830	3.395	1.925	-3.99	1.002596	0.167628	0.15982	-0.2295	0.1245	0.4935	0	128	161	3
2026-02-12	16:38:34.850	1.785	2.24	-4.235	0.998936	0.162504	0.155428	-0.228	0.1275	0.492	0	128	161	3
2026-02-12	16:38:34.870	1.26	2.59	-4.585	0.992592	0.16104	0.146644	-0.2295	0.123	0.495	0	128	161	3
2026-02-12	16:38:34.890	1.925	2.87	-4.795	0.993812	0.160552	0.145912	-0.2295	0.1185	0.4965	0	128	161	3
2026-02-12	16:38:34.910	3.255	3.15	-4.97	0.989664	0.16348	0.144936	-0.2295	0.117	0.4935	0	128	161	3
2026-02-12	16:38:34.930	4.235	3.43	-4.97	0.987712	0.160308	0.142984	-0.234	0.114	0.4905	0	128	161	3
2026-02-12	16:38:34.950	4.83	3.64	-4.655	0.983564	0.16104	0.13786	-0.2325	0.1155	0.492	0	128	161	3
2026-02-12	16:38:34.970	5.46	3.71	-3.99	0.986736	0.161772	0.13176	-0.2265	0.12	0.495	0	128	161	3
2026-02-12	16:38:34.990	6.195	3.64	-3.36	0.981856	0.15982	0.129076	-0.2385	0.12	0.4965	0	128	161	3
2026-02-12	16:38:35.010	6.79	3.325	-2.66	0.981124	0.159088	0.129808	-0.2355	0.114	0.498	0	117	160	3
2026-02-12	16:38:35.030	7.14	2.765	-2.03	0.983076	0.16592	0.128344	-0.2355	0.117	0.5025	0	117	160	3
2026-02-12	16:38:35.050	6.685	1.995	-1.435	0.987224	0.1647	0.130296	-0.2355	0.1125	0.4995	0	117	160	3
2026-02-12	16:38:35.070	5.74	1.085	-0.875	0.983076	0.168116	0.12444	-0.2415	0.1215	0.498	0	117	160	3
2026-02-12	16:38:35.090	4.305	0.035	-0.315	0.983564	0.16714	0.131272	-0.2355	0.114	0.4905	0	117	160	3
2026-02-12	16:38:35.110	3.5	-0.7	0.035	0.9882	0.162504	0.135176	-0.2325	0.1215	0.486	0	117	160	3
2026-02-12	16:38:35.130	4.095	-1.26	0.63	0.991128	0.163724	0.138836	-0.237	0.12	0.489	0	117	160	3
2026-02-12	16:38:35.150	4.9	-1.715	1.365	0.996984	0.167628	0.160064	-0.237	0.1215	0.495	0	117	160	3
2026-02-12	16:38:35.170	5.18	-1.715	1.925	0.986492	0.171044	0.165676	-0.2325	0.1275	0.489	0	117	160	3
2026-02-12	16:38:35.190	5.845	-1.4	1.995	0.987468	0.171044	0.166896	-0.2265	0.117	0.4875	0	117	160	3
2026-02-12	16:38:35.210	6.3	-0.735	1.995	0.986736	0.173972	0.171532	-0.24	0.12	0.486	0	105	157	2
2026-02-12	16:38:35.230	5.565	0.07	1.855	0.98454	0.183	0.175192	-0.24	0.12	0.486	0	105	157	2
2026-02-12	16:38:35.250	3.605	0.805	1.925	0.987468	0.188124	0.170312	-0.2355	0.123	0.4875	0	105	157	2
2026-02-12	16:38:35.270	1.19	1.4	2.24	0.991616	0.182756	0.16592	-0.2325	0.12	0.489	0	105	157	2
2026-02-12	16:38:35.290	-0.035	1.785	2.765	0.994544	0.176168	0.15616	-0.2295	0.1185	0.489	0	105	157	2
2026-02-12	16:38:35.310	-0.14	1.855	3.36	1.000644	0.174948	0.147864	-0.228	0.1215	0.492	0	105	157	2
2026-02-12	16:38:35.330	0.035	1.96	3.78	0.998204	0.178608	0.141764	-0.2325	0.12	0.4935	0	105	157	2
2026-02-12	16:38:35.350	-0.07	2.065	4.025	0.992104	0.173728	0.136152	-0.2355	0.1275	0.492	0	105	157	2
2026-02-12	16:38:35.370	0.07	1.785	3.955	0.987468	0.173972	0.130296	-0.2235	0.1305	0.489	0	105	157	2
2026-02-12	16:38:35.390	0.49	1.225	3.78	0.987712	0.169092	0.1281	-0.234	0.129	0.4935	0	105	157	2
2026-02-12	16:38:35.410	0.98	0.455	3.57	0.992592	0.17324	0.12688	-0.2325	0.129	0.4845	0	93	155	2
2026-02-12	16:38:35.430	0.735	-0.14	3.85	0.996984	0.17446	0.129564	-0.2295	0.12	0.4875	0	93	155	2
2026-02-12	16:38:35.450	0.175	-0.315	4.27	0.992104	0.17934	0.132248	-0.228	0.1215	0.4785	0	93	155	2
2026-02-12	16:38:35.470	-0.175	-0.56	4.865	0.989664	0.171288	0.130296	-0.231	0.126	0.4785	0	93	155	2
2026-02-12	16:38:35.490	0.56	-1.015	5.425	0.990396	0.169824	0.130296	-0.2325	0.1275	0.4905	0	93	155	2
2026-02-12	16:38:35.510	1.575	-1.54	5.95	0.99552	0.172996	0.133712	-0.228	0.129	0.486	0	93	155	2
2026-02-12	16:38:35.530	1.855	-1.82	6.475	1.004792	0.176656	0.13298	-0.225	0.1275	0.483	0	93	155	2
2026-02-12	16:38:35.550	1.995	-1.96	7.105	1.007964	0.17812	0.143228	-0.2295	0.129	0.4845	0	93	155	2
2026-02-12	16:38:35.570	2.835	-1.96	7.665	1.009916	0.168604	0.148352	-0.2325	0.1305	0.4875	0	93	155	2
2026-02-12	16:38:35.590	5.075	-1.645	7.945	1.006012	0.169092	0.144448	-0.2295	0.1275	0.4905	0	93	155	2
2026-02-12	16:38:33.610	59.5	13.16	-28.875	1.030656	0.292068	0.133468	-0.2325	0.1455	0.507	0	166	154	3
2026-02-12	16:38:33.630	28.945	16.625	-31.815	1.014552	0.297192	0.132004	-0.2325	0.141	0.4995	0	166	154	3
2026-02-12	16:38:33.650	0.035	19.355	-31.185	0.995764	0.228872	0.118584	-0.2325	0.141	0.489	0	166	154	3
2026-02-12	16:38:33.670	-15.68	19.88	-29.435	0.97356	0.171288	0.117364	-0.2295	0.138	0.4905	0	166	154	3
2026-02-12	16:38:33.690	-19.6	17.99	-26.495	0.96014	0.131516	0.111752	-0.228	0.1275	0.4965	0	166	154	3
2026-02-12	16:38:33.710	-14.7	15.155	-21.945	0.951112	0.125904	0.115168	-0.2325	0.123	0.492	0	166	154	3
2026-02-12	16:38:33.730	-5.075	12.25	-17.745	0.954528	0.127368	0.108824	-0.234	0.117	0.4845	0	166	154	3
2026-02-12	16:38:33.750	2.555	9.835	-13.405	0.964532	0.155184	0.104188	-0.237	0.111	0.477	0	166	154	3
2026-02-12	16:38:33.770	4.935	8.54	-9.45	0.963312	0.170312	0.101992	-0.24	0.111	0.4725	0	166	154	3
2026-02-12	16:38:33.790	3.92	7.945	-6.615	0.965508	0.175192	0.09467199	-0.237	0.1185	0.474	0	166	154	3
2026-02-12	16:38:33.810	2.59	7.035	-4.585	0.970144	0.166652	0.10126	-0.237	0.117	0.4785	0	162	160	3
2026-02-12	16:38:33.830	2.8	5.425	-3.71	0.97844	0.163968	0.102724	-0.2355	0.1155	0.477	0	162	160	3
2026-02-12	16:38:33.850	4.095	3.185	-3.675	0.983808	0.160796	0.100528	-0.2355	0.117	0.474	0	162	160	3
2026-02-12	16:38:33.870	5.04	0.105	-4.095	0.991616	0.171532	0.10614	-0.234	0.1125	0.4755	0	162	160	3
2026-02-12	16:38:33.890	4.2	-2.73	-5.215	0.986492	0.176168	0.107116	-0.2325	0.1125	0.474	0	162	160	3
2026-02-12	16:38:33.910	2.17	-4.9	-6.65	0.983564	0.176412	0.114924	-0.2415	0.1065	0.4785	0	162	160	3
2026-02-12	16:38:33.930	-0.49	-7.105	-8.295	0.982832	0.17202	0.11834	-0.2385	0.1155	0.477	0	162	160	3
2026-02-12	16:38:33.950	-3.01	-9.135	-9.52	0.98332	0.171776	0.128832	-0.231	0.1125	0.4815	0	162	160	3
2026-02-12	16:38:33.970	-5.985	-10.64	-10.115	0.982344	0.173728	0.137128	-0.2385	0.114	0.48	0	162	160	3
2026-02-12	16:38:33.990	-8.54	-11.76	-10.15	0.982588	0.166896	0.138104	-0.2325	0.1065	0.477	0	162	160	3
2026-02-12	16:38:34.010	-10.395	-12.74	-9.45	0.978196	0.159332	0.146156	-0.2355	0.108	0.4815	0	158	156	3
2026-02-12	16:38:34.030	-10.675	-13.23	-8.715	0.982832	0.158112	0.153232	-0.234	0.1065	0.483	0	158	156	3
2026-02-12	16:38:34.050	-10.325	-13.79	-7.385	0.983808	0.152012	0.156892	-0.234	0.105	0.4845	0	158	156	3
2026-02-12	16:38:34.070	-9.695	-14.105	-5.635	0.986248	0.15494	0.165676	-0.234	0.09	0.486	0	158	156	3
2026-02-12	16:38:34.090	-8.925	-14.105	-3.57	0.977708	0.152256	0.17324	-0.234	0.105	0.489	0	158	156	3
2026-02-12	16:38:34.110	-6.405	-13.09	-1.365	0.99796	0.1159	0.240096	-0.24	0.0945	0.4965	0	158	156	3
2026-02-12	16:38:34.130	4.725	-9.45	1.05	0.975512	0.055388	0.298656	-0.228	0.096	0.4935	0	158	156	3
2026-02-12	16:38:34.150	36.645	-4.165	5.32	0.986248	0.075396	0.310368	-0.2355	0.1035	0.489	0	158	156	3
2026-02-12	16:38:34.170	45.99	-1.155	7.525	0.997472	0.187636	0.278892	-0.2355	0.1035	0.489	0	158	156	3
2026-02-12	16:38:34.190	34.93	1.085	9.24	0.987956	0.278648	0.245464	-0.2355	0.1035	0.489	0	158	156	3
2026-02-12	16:38:34.210	12.635	3.045	9.31	0.981856	0.26108	0.218624	-0.2355	0.1005	0.495	0	153	155	3
2026-02-12	16:38:34.230	-6.37	3.78	8.26	0.988932	0.26474	0.200812	-0.234	0.105	0.4995	0	153	155	3
2026-02-12	16:38:34.250	-25.06	4.34	6.58	0.98454	0.220332	0.174948	-0.234	0.1095	0.492	0	153	155	3
2026-02-12	16:38:34.270	-34.545	4.095	5.74	0.984052	0.171044	0.145668	-0.2355	0.102	0.498	0	153	155	3
2026-02-12	16:38:34.290	-33.215	3.29	5.915	0.980636	0.147864	0.13176	-0.231	0.117	0.492	0	153	155	3
2026-02-12	16:38:34.310	-25.34	2.66	6.335	0.979416	0.145912	0.136396	-0.234	0.1185	0.4935	0	153	155	3
2026-02-12	16:38:34.330	-15.12	2.38	7.21	0.98332	0.137372	0.140056	-0.2325	0.108	0.4905	0	153	155	3
2026-02-12	16:38:34.350	-5.39	2.135	7.665	0.986248	0.160064	0.144692	-0.24	0.108	0.4935	0	153	155	3
2026-02-12	16:38:34.370	0.14	2.135	7.91	0.97966	0.175924	0.1403	-0.24	0.108	0.4965	0	153	155	3
2026-02-12	16:38:34.390	1.82	2.345	8.4	0.980392	0.18056	0.138104	-0.237	0.1095	0.4935	0	153	155	3
2026-02-12	16:38:34.410	2.275	1.925	8.82	0.978684	0.181292	0.13664	-0.2325	0.111	0.4905	0	147	159	3
2026-02-12	16:38:34.430	2.765	1.015	8.89	0.973072	0.18178	0.136396	-0.2325	0.111	0.4905	0	147	159	3
2026-02-12	16:38:34.450	2.975	0	8.82	0.976488	0.190808	0.12932	-0.2325	0.117	0.489	0	147	159	3
2026-02-12	16:38:34.470	2.765	-0.84	8.435	0.9821	0.193736	0.123952	-0.2325	0.1215	0.483	0	147	159	3
2026-02-12	16:38:34.490	1.925	-1.54	7.84	0.990884	0.193248	0.129076	-0.2355	0.1185	0.483	0	147	159	3
2026-02-12	16:38:34.510	0.735	-2.38	7.105	0.989908	0.198372	0.138104	-0.237	0.1155	0.492	0	147	159	3
2026-02-12	16:38:34.530	-0.455	-3.29	6.02	0.988932	0.191784	0.138104	-0.237	0.117	0.4965	0	147	159	3
2026-02-12	16:38:34.550	-1.33	-4.13	4.55	0.989176	0.19398	0.142008	-0.2385	0.126	0.4965	0	147	159	3
2026-02-12	16:38:34.570	-2.135	-4.69	2.905	0.991372	0.191784	0.140544	-0.2325	0.126	0.4965	0	147	159	3
2026-02-12	16:38:34.590	-2.38	-4.935	1.155	0.992836	0.190808	0.14884	-0.231	0.1245	0.495	0	147	159	3
2026-02-12	16:38:34.610	-2.345	-4.655	-0.385	0.995032	0.186416	0.157136	-0.234	0.126	0.489	0	138	161	3
2026-02-12	16:38:34.630	-1.785	-3.85	-1.61	0.990884	0.182268	0.160064	-0.2325	0.123	0.489	0	138	161	3
2026-02-12	16:38:34.650	-0.91	-3.115	-2.485	0.98942	0.179584	0.165432	-0.2295	0.123	0.492	0	138	161	3
2026-02-12	16:38:34.670	-0.245	-2.52	-3.22	0.994056	0.170556	0.170068	-0.228	0.1245	0.4935	0	138	161	3
2026-02-12	16:38:34.690	1.47	-1.435	-3.43	0.9943	0.152012	0.177632	-0.228	0.1245	0.4935	0	138	161	3
2026-02-12	16:38:34.710	2.625	-0.49	-3.15	0.99674	0.144692	0.182756	-0.2355	0.1305	0.4935	0	138	161	3
2026-02-12	16:38:34.730	3.36	0.56	-2.66	0.996252	0.1403	0.184952	-0.231	0.126	0.501	0	138	161	3
2026-02-12	16:38:34.750	4.165	1.435	-2.24	0.989664	0.136152	0.18422	-0.231	0.1245	0.501	0	138	161	3
2026-02-12	16:38:34.770	5.04	1.925	-2.205	0.991616	0.14396	0.180072	-0.2295	0.12	0.4905	0	138	161	3
2026-02-12	16:38:34.790	5.565	2.03	-2.73	0.994788	0.152012	0.16958	-0.228	0.1185	0.492	0	138	161	3
2026-02-12	16:38:34.810	5.11	1.925	-3.465	0.99796	0.156404	0.16348	-0.2295	0.12	0.495	0	128	161	3
2026-02-12	16:38:34.830	3.395	1.925	-3.99	1.002596	0.167628	0.15982	-0.2295	0.1245	0.4935	0	128	161	3
2026-02-12	16:38:34.850	1.785	2.24	-4.235	0.998936	0.162504	0.155428	-0.228	0.1275	0.492	0	128	161	3
2026-02-12	16:38:34.870	1.26	2.59	-4.585	0.992592	0.16104	0.146644	-0.2295	0.123	0.495	0	128	161	3
2026-02-12	16:38:34.890	1.925	2.87	-4.795	0.993812	0.160552	0.145912	-0.2295	0.1185	0.4965	0	128	161	3
2026-02-12	16:38:34.910	3.255	3.15	-4.97	0.989664	0.16348	0.144936	-0.2295	0.117	0.4935	0	128	161	3
2026-02-12	16:38:34.930	4.235	3.43	-4.97	0.987712	0.160308	0.142984	-0.234	0.114	0.4905	0	128	161	3
2026-02-12	16:38:34.950	4.83	3.64	-4.655	0.983564	0.16104	0.13786	-0.2325	0.1155	0.492	0	128	161	3
2026-02-12	16:38:34.970	5.46	3.71	-3.99	0.986736	0.161772	0.13176	-0.2265	0.12	0.495	0	128	161	3
2026-02-12	16:38:34.990	6.195	3.64	-3.36	0.981856	0.15982	0.129076	-0.2385	0.12	0.4965	0	128	161	3
2026-02-12	16:38:49.010	-3.815	-24.045	-11.27	0.839604	0.523868	0.154696	-0.222	0.024	0.327	0	384	133	3
2026-02-12	16:38:49.030	-4.305	-23.695	-12.845	0.836188	0.502884	0.164944	-0.2205	0.0255	0.3285	0	384	133	3
2026-02-12	16:38:49.050	-4.62	-23.205	-12.985	0.833992	0.488732	0.18178	-0.2205	0.0285	0.3315	0	384	133	3
2026-02-12	16:38:49.070	-5.53	-22.54	-11.55	0.829356	0.465552	0.194224	-0.2205	0.0255	0.333	0	384	133	3
2026-02-12	16:38:49.090	-8.855	-20.965	-7.035	0.82716	0.444568	0.198616	-0.2145	0.021	0.3345	0	384	133	3
2026-02-12	16:38:49.110	-11.865	-19.915	-2.555	0.831064	0.428952	0.205936	-0.216	0.0255	0.342	0	384	133	3
2026-02-12	16:38:49.130	-15.645	-18.97	2.87	0.833748	0.406748	0.206424	-0.2145	0.0225	0.351	0	384	133	3
2026-02-12	16:38:49.150	-19.6	-17.92	8.75	0.83814	0.383812	0.217404	-0.2205	0.0285	0.3375	0	384	133	3
2026-02-12	16:38:49.170	-23.38	-16.695	15.12	0.839848	0.355752	0.220088	-0.2205	0.0315	0.351	0	384	133	3
2026-02-12	16:38:49.190	-26.425	-15.19	21.84	0.84546	0.327936	0.224724	-0.228	0.0285	0.351	0	384	133	3
2026-02-12	16:38:49.210	-28.7	-13.58	29.085	0.86254	0.311832	0.225212	-0.219	0.033	0.348	0	362	113	3
2026-02-12	16:38:49.230	-30.065	-11.585	37.1	0.901092	0.293044	0.226676	-0.219	0.0345	0.3555	0	362	113	3
2026-02-12	16:38:49.250	-29.785	-9.065	45.115	0.980148	0.262788	0.209108	-0.228	0.0405	0.3495	0	362	113	3
2026-02-12	16:38:49.270	-26.145	-5.18	52.745	1.043832	0.2135	0.19154	-0.2295	0.0375	0.36	0	362	113	3
2026-02-12	16:38:49.290	-18.13	0.21	60.235	1.067744	0.153232	0.170556	-0.228	0.051	0.354	0	362	113	3
2026-02-12	16:38:49.310	-4.795	5.985	66.605	1.055056	0.11468	0.1342	-0.2235	0.0555	0.357	0	362	113	3
2026-02-12	16:38:49.330	9.03	9.73	71.89	1.070428	0.086132	0.119072	-0.231	0.0765	0.351	0	362	113	3
2026-02-12	16:38:49.350	22.855	13.3	78.61	1.154364	0.05978	0.097112	-0.225	0.087	0.3495	0	362	113	3
2026-02-12	16:38:49.370	36.19	14	88.515	1.414956	0.038064	0.039284	-0.225	0.093	0.3495	0	362	113	3
2026-02-12	16:38:49.390	43.435	15.575	100.975	1.5738	0.112484	0.02928	-0.2265	0.1095	0.3525	0	362	113	3
2026-02-12	16:38:49.410	41.405	22.015	107.905	1.368352	0.18666	0.068564	-0.222	0.126	0.348	0	340	117	3
2026-02-12	16:38:49.430	41.93	24.955	104.86	0.9882	0.156648	0.09638	-0.219	0.1395	0.3465	0	340	117	3
2026-02-12	16:38:49.450	52.605	19.705	92.855	0.77836	0.138104	0.120536	-0.2205	0.147	0.3495	0	340	117	3
2026-02-12	16:38:49.470	55.72	10.045	78.435	0.808616	0.078812	0.140056	-0.2145	0.153	0.3435	0	340	117	3
2026-02-12	16:38:49.490	49.77	0.42	68.565	0.978684	0.066612	0.15982	-0.2205	0.1695	0.339	0	340	117	3
2026-02-12	16:38:49.510	41.475	-5.53	66.185	1.138748	0.150304	0.199836	-0.2175	0.1725	0.3345	0	340	117	3
2026-02-12	16:38:49.530	28.735	-5.355	71.295	1.131184	0.235704	0.187636	-0.2025	0.18	0.339	0	340	117	3
2026-02-12	16:38:49.550	20.055	-3.885	77.945	1.036268	0.26962	0.149816	-0.204	0.1845	0.339	0	340	117	3
2026-02-12	16:38:49.570	16.275	-3.325	80.78	0.915732	0.264496	0.151524	-0.1995	0.1935	0.339	0	340	117	3
2026-02-12	16:38:49.590	12.565	-4.06	82.32	0.823988	0.21472	0.183732	-0.1965	0.213	0.3375	0	340	117	3
2026-02-12	16:38:49.610	15.47	-6.265	80.43	0.761768	0.199104	0.221796	-0.1875	0.219	0.3405	0	320	125	3
2026-02-12	16:38:49.630	24.535	-12.285	74.41	0.731756	0.202032	0.24034	-0.1875	0.219	0.3405	0	320	125	3
2026-02-12	16:38:49.650	29.19	-16.415	68.705	0.754936	0.232044	0.227896	-0.1815	0.237	0.3405	0	320	125	3
2026-02-12	16:38:49.670	27.72	-19.67	62.125	0.79788	0.24888	0.235216	-0.18	0.255	0.339	0	320	125	3
2026-02-12	16:38:49.690	23.625	-21.385	54.565	0.843264	0.250344	0.23668	-0.177	0.255	0.339	0	320	125	3
2026-02-12	16:38:49.710	20.475	-22.26	46.69	0.857172	0.23546	0.241316	-0.168	0.264	0.3465	0	320	125	3
2026-02-12	16:38:49.730	21.07	-23.485	38.57	0.845216	0.22326	0.233508	-0.165	0.2745	0.348	0	320	125	3
2026-02-12	16:38:49.750	25.69	-26.285	30.135	0.845216	0.231556	0.236436	-0.165	0.276	0.3435	0	320	125	3
2026-02-12	16:38:49.770	26.32	-30.625	21.875	0.892064	0.25254	0.25742	-0.1665	0.2745	0.3435	0	320	125	3
2026-02-12	16:38:49.790	20.335	-34.51	13.265	0.96624	0.264984	0.275964	-0.1665	0.2745	0.3465	0	320	125	3
2026-02-12	16:38:49.810	12.425	-35.945	3.045	1.008452	0.25742	0.262056	-0.165	0.276	0.351	0	302	142	3
2026-02-12	16:38:49.830	6.685	-37.31	-9.38	1.074576	0.22692	0.223992	-0.168	0.273	0.3585	0	302	142	3
2026-02-12	16:38:49.850	-7.77	-41.23	-18.55	1.42618	0.242048	0.329888	-0.171	0.2775	0.3615	0	302	142	3
2026-02-12	16:38:49.870	-34.51	-34.335	-25.725	1.678964	0.27084	0.40016	-0.1695	0.279	0.3645	0	302	142	3
2026-02-12	16:38:49.890	-65.59	-12.11	-34.825	1.802672	0.220088	0.326472	-0.1695	0.273	0.369	0	302	142	3
2026-02-12	16:38:49.910	-72.45	14.945	-51.03	1.725812	0.14274	0.093696	-0.1695	0.273	0.369	0	302	142	3
2026-02-12	16:38:49.930	-59.29	35.385	-68.705	1.429108	0.063196	-0.062708	-0.189	0.261	0.381	0	302	142	3
2026-02-12	16:38:49.950	-39.095	46.725	-90.965	1.098976	0.002196	-0.103212	-0.1905	0.2505	0.378	0	302	142	3
2026-02-12	16:38:49.970	-17.465	46.095	-117.18	0.867664	-0.034892	-0.085644	-0.1935	0.2415	0.378	0	302	142	3
2026-02-12	16:38:49.990	-0.245	36.75	-143.36	0.830332	-0.038796	0.015616	-0.1995	0.231	0.3705	0	302	142	3
2026-02-12	16:38:50.010	11.305	27.58	-164.535	0.902068	0.00244	0.074176	-0.21	0.207	0.3525	0	289	157	3
2026-02-12	16:38:50.030	20.93	21.42	-179.55	0.996252	0.062708	0.09394	-0.2085	0.1935	0.3525	0	289	157	3
2026-02-12	16:38:50.050	24.71	17.22	-187.04	1.137284	0.111264	0.065392	-0.213	0.1665	0.3465	0	289	157	3
2026-02-12	16:38:50.070	18.97	17.5	-185.01	1.275144	0.137616	0.005856	-0.2205	0.1425	0.3405	0	289	157	3
2026-02-12	16:38:50.090	8.155	22.4	-174.86	1.298812	0.136396	-0.076372	-0.2235	0.1185	0.3405	0	289	157	3
2026-02-12	16:38:50.110	-2.31	28.315	-159.075	1.24318	0.11956	-0.149816	-0.228	0.0945	0.3345	0	289	157	3
2026-02-12	16:38:50.130	-10.395	31.99	-140.875	1.148752	0.093696	-0.17202	-0.2295	0.072	0.3285	0	289	157	3
2026-02-12	16:38:50.150	-13.72	32.55	-117.425	1.0553	0.091744	-0.144936	-0.225	0.048	0.3255	0	289	157	3
2026-02-12	16:38:50.170	-10.36	31.115	-96.495	0.97112	0.110776	-0.114924	-0.222	0.036	0.324	0	289	157	3
2026-02-12	16:38:50.190	-8.295	27.09	-81.76	0.898164	0.101748	-0.101016	-0.2265	0.0105	0.3135	0	289	157	3
2026-02-12	16:38:50.210	-5.32	20.475	-68.145	0.845948	0.156404	-0.091744	-0.2235	0	0.303	0	283	143	3
2026-02-12	16:38:50.230	-4.69	12.18	-55.79	0.823744	0.203496	-0.088572	-0.222	-0.0045	0.2985	0	283	143	3
2026-02-12	16:38:50.250	-7.595	3.57	-43.68	0.826916	0.285968	-0.087108	-0.2205	-0.024	0.3075	0	283	143	3
2026-02-12	16:38:50.270	-19.46	-3.395	-33.46	0.843752	0.359656	-0.068076	-0.2145	-0.0225	0.3	0	283	143	3
2026-02-12	16:38:50.290	-37.905	-7.735	-25.025	0.836188	0.386008	-0.045872	-0.2115	-0.024	0.294	0	283	143	3
2026-02-12	16:38:50.310	-53.095	-11.69	-18.83	0.836188	0.401868	-0.035868	-0.216	-0.03	0.306	0	283	143	3
2026-02-12	16:38:50.330	-61.075	-15.19	-14.42	0.83692	0.403576	-0.033672	-0.216	-0.0285	0.309	0	283	143	3
2026-02-12	16:38:50.350	-62.23	-18.34	-10.955	0.83326	0.367708	-0.03416	-0.2175	-0.024	0.297	0	283	143	3
2026-02-12	16:38:50.370	-58.1	-21.77	-7.315	0.827648	0.360144	-0.0244	-0.21	-0.0285	0.303	0	283	143	3
2026-02-12	16:38:50.390	-51.975	-25.2	-3.15	0.825452	0.360144	-0.013176	-0.219	-0.0285	0.2925	0	283	143	3
2026-02-12	16:38:50.410	-43.295	-27.685	1.19	0.823988	0.3782	0.01342	-0.2235	-0.0225	0.2955	0	279	104	3
2026-02-12	16:38:50.430	-30.765	-29.435	9.45	0.823988	0.403332	0.039284	-0.219	-0.015	0.3015	0	279	104	3
2026-02-12	16:38:50.450	-25.445	-29.575	16.17	0.823256	0.404796	0.04392	-0.2205	-0.018	0.306	0	279	104	3
2026-02-12	16:38:50.470	-21.7	-29.61	23.345	0.821792	0.388448	0.052704	-0.222	-0.0165	0.3105	0	279	104	3
2026-02-12	16:38:50.490	-18.48	-29.645	30.905	0.83326	0.369416	0.049776	-0.2235	-0.0105	0.3135	0	279	104	3
2026-02-12	16:38:50.510	-15.68	-29.715	38.85	0.83448	0.351604	0.050752	-0.2235	-0.0045	0.318	0	279	104	3
2026-02-12	16:38:50.530	-15.4	-30.59	47.495	0.835456	0.340136	0.061488	-0.219	0	0.324	0	279	104	3
2026-02-12	16:38:50.550	-17.045	-32.095	55.825	0.81984	0.3294	0.080032	-0.2235	0.0015	0.3285	0	279	104	3
2026-02-12	16:38:50.570	-19.25	-34.02	63.63	0.82838	0.31598	0.097112	-0.231	0.0105	0.3285	0	279	104	3
2026-02-12	16:38:50.590	-22.47	-36.33	71.295	0.858392	0.298412	0.119804	-0.2325	0.021	0.327	0	279	104	3
2026-02-12	16:38:50.610	-27.58	-37.695	78.995	0.902312	0.281332	0.132492	-0.222	0.0315	0.336	0	277	72	2
2026-02-12	16:38:50.630	-32.445	-38.22	86.905	0.967948	0.256444	0.152012	-0.2325	0.0375	0.3405	0	277	72	2
2026-02-12	16:38:50.650	-34.755	-37.695	95.165	1.037244	0.24034	0.15738	-0.228	0.057	0.3465	0	277	72	2
2026-02-12	16:38:50.670	-33.215	-35.91	103.355	1.113128	0.214476	0.160552	-0.2385	0.066	0.3555	0	277	72	2
2026-02-12	16:38:50.690	-25.2	-32.095	111.58	1.173884	0.199592	0.184708	-0.24	0.0825	0.36	0	277	72	2
2026-02-12	16:38:50.710	-15.995	-26.215	115.92	1.181692	0.190076	0.217892	-0.24	0.0825	0.36	0	277	72	2
2026-02-12	16:38:50.730	-8.89	-20.055	114.905	1.169248	0.186904	0.229848	-0.231	0.108	0.369	0	277	72	2
2026-02-12	16:38:50.750	-0.49	-13.23	110.11	1.158512	0.138348	0.19276	-0.2295	0.1395	0.3795	0	277	72	2
2026-02-12	16:38:50.770	10.78	-9.03	106.225	1.2993	0.09394	0.163236	-0.2265	0.153	0.3825	0	277	72	2
2026-02-12	16:38:50.790	25.06	-4.62	104.475	1.490108	0.094916	0.123708	-0.2205	0.171	0.3855	0	277	72	2
2026-02-12	16:38:50.810	41.65	2.135	101.815	1.550864	0.115412	0.136884	-0.216	0.1875	0.3825	0	272	67	3
2026-02-12	16:38:50.830	59.605	12.04	94.115	1.317356	0.142984	0.134688	-0.2115	0.201	0.3825	0	272	67	3
2026-02-12	16:38:50.850	80.115	14.77	78.54	1.048224	0.16104	0.13054	-0.2085	0.213	0.3795	0	272	67	3
2026-02-12	16:38:50.870	96.46	10.08	57.26	0.877668	0.167628	0.174704	-0.207	0.2235	0.3705	0	272	67	3
2026-02-12	16:38:50.890	98.35	1.715	35.315	0.889136	0.123708	0.237656	-0.204	0.228	0.3645	0	272	67	3
2026-02-12	16:38:50.910	89.6	-3.92	15.61	0.971852	0.119804	0.272792	-0.198	0.231	0.363	0	272	67	3
2026-02-12	16:38:50.930	75.46	-4.55	4.2	1.002352	0.155672	0.259128	-0.198	0.2325	0.36	0	272	67	3
2026-02-12	16:38:50.950	62.44	-1.365	1.575	0.9699	0.199104	0.193248	-0.201	0.225	0.3555	0	272	67	3
2026-02-12	16:38:50.970	50.715	2.1	5.53	0.883768	0.229604	0.168848	-0.2055	0.2205	0.357	0	272	67	3
2026-02-12	16:38:50.990	46.06	3.43	11.06	0.830576	0.236436	0.204472	-0.2055	0.2205	0.357	0	272	67	3
2026-02-12	16:38:51.010	41.615	4.83	16.31	0.774456	0.211792	0.248636	-0.189	0.234	0.3495	0	268	86	3
2026-02-12	16:38:51.030	37.52	5.145	20.23	0.734196	0.202764	0.255956	-0.1905	0.2295	0.3495	0	268	86	3
2026-02-12	16:38:51.050	34.965	3.675	21.735	0.72468	0.213988	0.250832	-0.1935	0.234	0.339	0	268	86	3
2026-02-12	16:38:51.070	29.715	0.595	21.735	0.746396	0.220088	0.244976	-0.1875	0.234	0.3465	0	268	86	3
2026-02-12	16:38:51.090	21.455	-2.94	20.79	0.792024	0.22204	0.252052	-0.189	0.2385	0.336	0	268	86	3
2026-02-12	16:38:51.110	11.9	-6.02	18.935	0.85522	0.213256	0.274012	-0.1845	0.2445	0.339	0	268	86	3
2026-02-12	16:38:51.130	4.13	-8.015	16.38	0.908412	0.209108	0.284992	-0.1845	0.2385	0.3255	0	268	86	3
2026-02-12	16:38:51.150	0	-9.065	13.125	0.920856	0.185684	0.286456	-0.183	0.2475	0.342	0	268	86	3
2026-02-12	16:38:51.170	1.015	-10.255	8.26	0.907436	0.175436	0.272792	-0.183	0.2475	0.342	0	268	86	3
2026-02-12	16:38:51.190	4.2	-12.04	0.63	0.851072	0.174216	0.249612	-0.1815	0.2505	0.342	0	268	86	3
2026-02-12	16:38:51.210	4.375	-15.785	-7.315	0.823012	0.178852	0.231312	-0.183	0.252	0.3405	0	263	120	3
2026-02-12	16:38:51.230	-3.01	-22.47	-18.515	0.859612	0.188612	0.235704	-0.1905	0.246	0.3405	0	263	120	3
2026-02-12	16:38:51.250	-13.895	-28.105	-29.33	0.925492	0.193492	0.245708	-0.195	0.243	0.342	0	263	120	3
2026-02-12	16:38:51.270	-23.03	-32.025	-36.61	1.038464	0.164944	0.222528	-0.198	0.2325	0.351	0	263	120	3
2026-02-12	16:38:51.290	-34.44	-37.1	-39.41	1.317356	0.18178	0.279868	-0.192	0.237	0.357	0	263	120	3
2026-02-12	16:38:51.310	-52.64	-33.565	-37.24	1.5189	0.218136	0.319396	-0.204	0.2355	0.3585	0	263	120	3
2026-02-12	16:38:51.330	-71.505	-20.51	-33.46	1.602104	0.21472	0.317688	-0.2025	0.2235	0.369	0	263	120	3
2026-02-12	16:38:51.350	-81.725	-2.905	-31.29	1.599664	0.213012	0.226676	-0.207	0.2265	0.3765	0	263	120	3
2026-02-12	16:38:51.370	-81.165	15.295	-32.69	1.574044	0.156648	0.098332	-0.2055	0.228	0.384	0	263	120	3
2026-02-12	16:38:51.390	-64.855	34.685	-40.46	1.36274	0.106384	-0.023424	-0.207	0.2115	0.3825	0	263	120	3
2026-02-12	16:38:51.410	-44.065	47.46	-53.97	1.115812	0.05612	-0.11224	-0.2055	0.21	0.3855	0	258	150	3
2026-02-12	16:38:51.430	-22.995	49.56	-71.715	0.944036	0.00854	-0.1159	-0.2145	0.207	0.378	0	258	150	3
2026-02-12	16:38:51.450	-3.675	43.61	-90.055	0.91378	-0.000244	-0.048556	-0.213	0.201	0.369	0	258	150	3
2026-02-12	16:38:51.470	11.025	36.47	-107.975	0.935008	0.0183	0.026352	-0.2205	0.189	0.3705	0	258	150	3
2026-02-12	16:38:51.490	20.195	30.345	-122.57	0.980392	0.05368	0.08418	-0.225	0.1725	0.351	0	258	150	3
2026-02-12	16:38:51.510	22.33	24.185	-131.775	1.160708	0.133224	0.05856	-0.225	0.15	0.3465	0	258	150	3
2026-02-12	16:38:51.530	15.435	25.025	-128.8	1.213656	0.161772	0.012444	-0.228	0.1335	0.345	0	258	150	3
2026-02-12	16:38:51.550	4.62	28.035	-121.59	1.219756	0.173484	-0.043432	-0.237	0.111	0.3375	0	258	150	3
2026-02-12	16:38:51.570	-6.965	32.83	-111.965	1.14314	0.163724	-0.097356	-0.2385	0.0975	0.3285	0	258	150	3
2026-02-12	16:38:51.590	-15.47	35.735	-101.29	1.06994	0.127368	-0.123952	-0.228	0.0825	0.324	0	258	150	3
2026-02-12	16:38:51.610	-17.43	35.91	-89.88	1.013576	0.096136	-0.126392	-0.2295	0.0675	0.3225	0	256	150	3
2026-02-12	16:38:51.630	-13.475	33.005	-79.66	0.993324	0.063928	-0.125416	-0.231	0.048	0.315	0	256	150	3
2026-02-12	16:38:51.650	-4.655	27.965	-70.665	0.953552	0.104432	-0.115656	-0.2265	0.0375	0.3105	0	256	150	3
2026-02-12	16:38:51.670	1.12	20.3	-61.88	0.921588	0.122976	-0.093696	-0.228	0.036	0.3075	0	256	150	3
2026-02-12	16:38:51.690	3.185	11.865	-53.48	0.883524	0.160552	-0.0671	-0.228	0.027	0.3015	0	256	150	3
2026-02-12	16:38:51.710	2.835	3.745	-45.43	0.868152	0.198128	-0.045628	-0.2265	0.021	0.3	0	256	150	3
2026-02-12	16:38:51.730	-2.94	-3.15	-36.68	0.84668	0.220576	-0.052948	-0.228	0.012	0.3075	0	256	150	3
2026-02-12	16:38:51.750	-11.305	-9.24	-27.37	0.82228	0.260592	-0.060512	-0.228	0.003	0.306	0	256	150	3
2026-02-12	16:38:51.770	-23.905	-15.33	-15.12	0.793976	0.274012	-0.0427	-0.228	0.003	0.2955	0	256	150	3
2026-02-12	16:38:51.790	-35	-20.09	-2.975	0.783972	0.287676	-0.00854	-0.228	0.003	0.2955	0	256	150	3
2026-02-12	16:38:51.810	-40.25	-22.505	5.985	0.804224	0.301584	0.005368	-0.2265	0.003	0.294	0	254	117	3
2026-02-12	16:38:51.830	-41.895	-24.115	15.015	0.81374	0.304024	0.012932	-0.225	0.003	0.2985	0	254	117	3
2026-02-12	16:38:51.850	-40.215	-25.515	24.535	0.83692	0.305	0.02196	-0.222	0.006	0.3075	0	254	117	3
2026-02-12	16:38:51.870	-36.47	-26.775	34.265	0.856684	0.31598	0.03782	-0.228	0.0135	0.3075	0	254	117	3
2026-02-12	16:38:51.890	-31.955	-27.545	43.855	0.872056	0.32086	0.056852	-0.231	0.021	0.3075	0	254	117	3
2026-02-12	16:38:51.910	-27.405	-27.685	52.57	0.88816	0.315004	0.084668	-0.2265	0.027	0.312	0	254	117	3
2026-02-12	16:38:51.930	-22.995	-27.09	60.025	0.890356	0.310368	0.099552	-0.225	0.0315	0.318	0	254	117	3
2026-02-12	16:38:51.950	-19.67	-26.425	66.815	0.908656	0.302316	0.113216	-0.228	0.0405	0.3225	0	254	117	3
2026-02-12	16:38:51.970	-17.78	-25.69	72.975	0.92476	0.295484	0.122732	-0.234	0.054	0.3255	0	254	117	3
2026-02-12	16:38:51.990	-16.415	-25.165	78.295	0.953308	0.286212	0.137616	-0.2355	0.0615	0.3345	0	254	117	3
2026-02-12	16:38:52.010	-15.575	-23.87	84.105	1.005768	0.269864	0.165432	-0.2385	0.0645	0.3405	0	252	84	3
2026-02-12	16:38:52.030	-13.93	-22.33	87.08	1.020896	0.2562	0.16714	-0.2355	0.0765	0.3435	0	252	84	3
2026-02-12	16:38:52.050	-7.91	-19.775	91.385	1.062864	0.225456	0.178852	-0.2325	0.09	0.3465	0	252	84	3
2026-02-12	16:38:52.070	-1.015	-17.92	92.155	1.100928	0.2074	0.184952	-0.2325	0.09	0.3465	0	252	84	3
2026-02-12	16:38:52.090	7.945	-15.435	91.35	1.143628	0.185196	0.19398	-0.231	0.129	0.3555	0	252	84	3
2026-02-12	16:38:52.110	20.3	-11.76	87.745	1.133624	0.174948	0.186904	-0.2235	0.135	0.3645	0	252	84	3
2026-02-12	16:38:52.130	31.22	-8.365	83.16	1.1163	0.182024	0.193004	-0.2235	0.1515	0.357	0	252	84	3
2026-02-12	16:38:52.150	37.17	-5.845	78.155	1.176568	0.18544	0.181292	-0.2265	0.162	0.366	0	252	84	3
2026-02-12	16:38:52.170	40.04	-3.85	74.97	1.333216	0.170556	0.176168	-0.2175	0.1695	0.3585	0	252	84	3
2026-02-12	16:38:52.190	42.105	-0.28	74.76	1.463512	0.138836	0.14762	-0.2085	0.1845	0.3615	0	252	84	3
2026-02-12	16:38:52.210	48.44	3.465	75.915	1.473272	0.153964	0.130052	-0.2175	0.2025	0.363	0	248	78	3
2026-02-12	16:38:52.230	57.575	7.49	74.935	1.271728	0.177388	0.160308	-0.2085	0.207	0.357	0	248	78	3
2026-02-12	16:38:52.250	67.165	7.105	68.425	1.006012	0.213744	0.17934	-0.204	0.2115	0.357	0	248	78	3
2026-02-12	16:38:52.270	70.7	2.52	56.385	0.794952	0.1952	0.210816	-0.201	0.2205	0.348	0	248	78	3
2026-02-12	16:38:52.290	65.065	-4.795	42.035	0.727608	0.215452	0.25132	-0.2025	0.222	0.3465	0	248	78	3
2026-02-12	16:38:52.310	41.405	-12.145	26.775	0.822524	0.21228	0.262788	-0.198	0.2295	0.351	0	248	78	3
2026-02-12	16:38:52.330	14.77	-13.16	19.145	0.962092	0.205204	0.2623	-0.1905	0.2355	0.3555	0	248	78	3
2026-02-12	16:38:52.350	1.995	-8.995	18.585	1.013576	0.16592	0.233996	-0.186	0.2385	0.3495	0	248	78	3
2026-02-12	16:38:52.370	1.575	-4.445	20.195	1.016016	0.12566	0.214964	-0.1935	0.24	0.3435	0	248	78	3
2026-02-12	16:38:52.390	11.375	-0.7	21.7	0.953064	0.105408	0.218868	-0.1935	0.237	0.348	0	248	78	3
2026-02-12	16:38:52.410	24.57	0.91	21.63	0.881572	0.081252	0.245464	-0.192	0.2385	0.348	0	244	96	3
2026-02-12	16:38:52.430	35.875	0.63	18.27	0.833016	0.072956	0.261812	-0.1785	0.252	0.3495	0	244	96	3
2026-02-12	16:38:52.450	39.235	-0.525	13.16	0.813496	0.089304	0.259372	-0.189	0.252	0.351	0	244	96	3
2026-02-12	16:38:52.470	34.37	-2.485	8.645	0.823988	0.092964	0.258884	-0.1845	0.2475	0.345	0	244	96	3
2026-02-12	16:38:52.490	25.83	-4.27	5.285	0.844484	0.0915	0.25742	-0.1905	0.252	0.333	0	244	96	3
2026-02-12	16:38:52.510	17.885	-5.775	3.325	0.864248	0.072224	0.257664	-0.1845	0.2505	0.3405	0	244	96	3
2026-02-12	16:38:52.530	12.005	-7.525	2.485	0.884256	0.049044	0.259372	-0.1755	0.2505	0.3375	0	244	96	3
2026-02-12	16:38:52.550	8.54	-9.24	2.275	0.894748	0.03294	0.267912	-0.1875	0.252	0.345	0	244	96	3
2026-02-12	16:38:52.570	7.665	-11.165	2.45	0.876204	0.038308	0.268156	-0.18	0.258	0.3435	0	244	96	3
2026-02-12	16:38:52.590	4.725	-14.84	2.31	0.82472	0.057828	0.255468	-0.1845	0.252	0.345	0	244	96	3
2026-02-12	16:38:52.610	-2.695	-18.095	1.715	0.78934	0.099064	0.249856	-0.1845	0.2505	0.345	0	239	129	3
2026-02-12	16:38:52.630	-14.525	-21.42	1.05	0.782264	0.123708	0.24888	-0.1905	0.252	0.3435	0	239	129	3
2026-02-12	16:38:52.650	-27.16	-25.165	0.035	0.84302	0.135176	0.245464	-0.1875	0.258	0.3495	0	239	129	3
2026-02-12	16:38:52.670	-37.835	-27.65	-2.065	0.94306	0.134932	0.23058	-0.18	0.258	0.357	0	239	129	3
2026-02-12	16:38:52.690	-43.085	-28	-6.475	1.030656	0.099552	0.207644	-0.183	0.2565	0.3645	0	239	129	3
2026-02-12	16:38:52.710	-42.35	-29.295	-10.57	1.25782	0.083692	0.234484	-0.186	0.252	0.3705	0	239	129	3
2026-02-12	16:38:52.730	-44.835	-26.46	-11.48	1.530612	0.119072	0.281088	-0.186	0.252	0.372	0	239	129	3
2026-02-12	16:38:52.750	-48.195	-14.525	-15.47	1.65188	0.11224	0.299632	-0.186	0.258	0.378	0	239	129	3
2026-02-12	16:38:52.770	-42.7	2.45	-21.525	1.670912	0.096868	0.23058	-0.1875	0.2565	0.384	0	239	129	3
2026-02-12	16:38:52.790	-28.98	20.51	-31.78	1.560136	0.048068	0.08052	-0.192	0.2505	0.3855	0	239	129	3
2026-02-12	16:38:52.810	-7.805	35.035	-46.445	1.351272	0.012932	-0.054412	-0.192	0.246	0.381	0	235	159	3
2026-02-12	16:38:52.830	13.125	41.79	-65.065	1.1163	-0.009516	-0.132736	-0.1935	0.2355	0.3735	0	235	159	3
2026-02-12	16:38:52.850	28.49	35.28	-89.985	0.922076	-0.00244	-0.045872	-0.198	0.2235	0.3735	0	235	159	3
2026-02-12	16:38:52.870	31.92	22.855	-113.085	0.894992	0.05124	0.081252	-0.1965	0.2175	0.369	0	235	159	3
2026-02-12	16:38:52.890	26.39	15.61	-127.715	0.926224	0.098088	0.13908	-0.195	0.2055	0.357	0	235	159	3
2026-02-12	16:38:52.910	16.135	11.06	-135.8	0.98088	0.143472	0.127124	-0.204	0.1905	0.3525	0	235	159	3
2026-02-12	16:38:52.930	-3.08	8.82	-135.45	1.03578	0.18056	0.079544	-0.2145	0.171	0.3495	0	235	159	3
2026-02-12	16:38:52.950	-26.425	10.01	-127.89	1.091656	0.17934	0.023912	-0.219	0.15	0.3435	0	235	159	3
2026-02-12	16:38:52.970	-46.62	14.735	-115.15	1.12972	0.17812	-0.027328	-0.222	0.141	0.3495	0	235	159	3
2026-02-12	16:38:52.990	-55.475	22.12	-101.185	1.099464	0.151524	-0.064904	-0.225	0.1275	0.3465	0	235	159	3
2026-02-12	16:38:53.010	-55.195	28.14	-85.925	1.044076	0.127612	-0.093452	-0.2325	0.1065	0.3375	0	234	162	3
2026-02-12	16:38:53.030	-43.82	31.43	-72.345	0.997716	0.125172	-0.104188	-0.231	0.0945	0.336	0	234	162	3
2026-02-12	16:38:53.050	-25.375	31.5	-62.755	0.948428	0.11712	-0.101748	-0.225	0.09	0.333	0	234	162	3
2026-02-12	16:38:53.070	-7.56	28.07	-56.07	0.93696	0.156648	-0.09394	-0.228	0.081	0.33	0	234	162	3
2026-02-12	16:38:53.090	4.795	23.1	-50.82	0.93086	0.200568	-0.066856	-0.2265	0.0765	0.3255	0	234	162	3
2026-02-12	16:38:53.110	6.825	17.955	-47.18	0.928664	0.264496	-0.04148	-0.222	0.0705	0.3195	0	234	162	3
2026-02-12	16:38:53.130	-5.565	11.865	-43.435	0.914512	0.345748	-0.01708	-0.225	0.063	0.318	0	234	162	3
2026-02-12	16:38:53.150	-16.625	8.75	-40.74	0.900116	0.376248	-0.022204	-0.225	0.063	0.318	0	234	162	3
2026-02-12	16:38:53.170	-25.83	5.39	-37.38	0.90768	0.396988	-0.023912	-0.228	0.0525	0.3045	0	234	162	3
2026-02-12	16:38:53.190	-29.75	2.38	-33.6	0.923296	0.408212	-0.013908	-0.228	0.042	0.3045	0	234	162	3
2026-02-12	16:38:53.210	-28.385	0.07	-30.765	0.93452	0.401624	-0.008296	-0.222	0.039	0.306	0	234	133	3
2026-02-12	16:38:53.230	-22.96	-2.205	-28.105	0.92476	0.38918	-0.002196	-0.231	0.036	0.3075	0	234	133	3
2026-02-12	16:38:53.250	-13.86	-4.585	-25.34	0.900848	0.397476	0.016348	-0.225	0.0285	0.3	0	234	133	3
2026-02-12	16:38:53.270	-5.985	-7.42	-22.645	0.872056	0.417728	0.04392	-0.2265	0.0375	0.3195	0	234	133	3
2026-02-12	16:38:53.290	-0.805	-10.045	-19.845	0.83936	0.433832	0.070516	-0.2175	0.0255	0.306	0	234	133	3
2026-02-12	16:38:53.310	1.365	-12.425	-16.52	0.816912	0.455548	0.087596	-0.222	0.0285	0.3105	0	234	133	3
2026-02-12	16:38:53.330	-1.89	-14.35	-12.81	0.797636	0.446032	0.10492	-0.225	0.0255	0.3105	0	234	133	3
2026-02-12	16:38:53.350	-7.245	-15.89	-9.03	0.795196	0.448228	0.12688	-0.219	0.0225	0.3165	0	234	133	3
2026-02-12	16:38:53.370	-13.055	-16.765	-5.145	0.796172	0.42944	0.1403	-0.225	0.0195	0.312	0	234	133	3
2026-02-12	16:38:53.390	-17.78	-17.255	-0.49	0.793244	0.397476	0.158112	-0.2295	0.0285	0.3135	0	234	133	3
2026-02-12	16:38:53.410	-19.88	-17.36	4.095	0.80398	0.364536	0.178364	-0.2295	0.027	0.3195	0	234	102	3
2026-02-12	16:38:53.430	-19.495	-16.73	8.505	0.81374	0.335012	0.18544	-0.2325	0.027	0.327	0	234	102	3
2026-02-12	16:38:53.450	-18.235	-15.75	14.175	0.82228	0.320372	0.187148	-0.237	0.0285	0.3285	0	234	102	3
2026-02-12	16:38:53.470	-17.08	-14.7	21.14	0.84058	0.29402	0.193248	-0.237	0.0285	0.3285	0	234	102	3
2026-02-12	16:38:53.490	-15.365	-12.81	29.365	0.866688	0.277428	0.20008	-0.2295	0.024	0.321	0	234	102	3
2026-02-12	16:38:53.510	-13.335	-10.15	38.115	0.90036	0.248636	0.202764	-0.234	0.033	0.327	0	234	102	3
2026-02-12	16:38:53.530	-8.995	-6.16	46.725	0.914268	0.225212	0.181536	-0.234	0.0375	0.333	0	234	102	3
2026-02-12	16:38:53.550	-3.22	-2.975	54.985	0.944524	0.216184	0.177876	-0.2325	0.048	0.3375	0	234	102	3
2026-02-12	16:38:53.570	0.77	0.175	62.755	0.948672	0.21106	0.18422	-0.237	0.0555	0.336	0	234	102	3
2026-02-12	16:38:53.590	2.905	2.485	69.965	0.998204	0.185684	0.17202	-0.228	0.0555	0.3345	0	234	102	3
2026-02-12	16:38:53.610	4.69	1.68	80.535	1.211704	0.14762	0.144204	-0.2265	0.075	0.333	0	234	94	3
2026-02-12	16:38:53.630	7.35	1.89	96.285	1.39324	0.152744	0.133224	-0.228	0.084	0.3405	0	234	94	3
2026-02-12	16:38:53.650	13.195	4.55	110.67	1.4152	0.17324	0.15006	-0.2265	0.0945	0.345	0	234	94	3
2026-02-12	16:38:53.670	33.11	7.595	118.51	1.121424	0.179828	0.1647	-0.225	0.111	0.3375	0	234	94	3
2026-02-12	16:38:53.690	49.07	2.94	115.185	0.969412	0.198616	0.218136	-0.2235	0.126	0.3345	0	234	94	3
2026-02-12	16:38:53.710	56.77	-2.73	106.47	0.89914	0.18056	0.264008	-0.219	0.1515	0.342	0	234	94	3
2026-02-12	16:38:53.730	52.43	-9.52	97.65	0.934032	0.182512	0.267668	-0.216	0.168	0.348	0	234	94	3
2026-02-12	16:38:53.750	40.04	-15.05	91.49	1.025288	0.223504	0.258152	-0.2115	0.183	0.339	0	234	94	3
2026-02-12	16:38:53.770	22.89	-16.905	89.6	1.070184	0.243024	0.2318	-0.21	0.195	0.339	0	234	94	3
2026-02-12	16:38:53.790	7.245	-17.78	91.105	1.064084	0.254736	0.246928	-0.2115	0.201	0.342	0	234	94	3
2026-02-12	16:38:53.810	-2.87	-17.92	92.155	1.021384	0.260836	0.277672	-0.2055	0.21	0.3435	0	232	110	3
2026-02-12	16:38:53.830	-6.615	-16.485	93.765	0.933544	0.232532	0.307684	-0.1965	0.222	0.3525	0	232	110	3
2026-02-12	16:38:53.850	-2.415	-15.715	92.12	0.866444	0.216184	0.320372	-0.1875	0.2355	0.3525	0	232	110	3
2026-02-12	16:38:53.870	7.28	-15.715	87.325	0.820816	0.215452	0.316956	-0.1875	0.2475	0.348	0	232	110	3
2026-02-12	16:38:53.890	16.87	-16.66	80.045	0.824232	0.2318	0.31476	-0.183	0.255	0.351	0	232	110	3
2026-02-12	16:38:53.910	20.72	-16.94	70.805	0.844972	0.249124	0.301828	-0.171	0.267	0.3525	0	232	110	3
2026-02-12	16:38:53.930	17.465	-16.73	56.665	0.884988	0.249368	0.284748	-0.171	0.2805	0.354	0	232	110	3
2026-02-12	16:38:53.950	10.71	-16.695	41.825	0.925004	0.249368	0.281576	-0.174	0.2865	0.357	0	232	110	3
2026-02-12	16:38:53.970	7.175	-16.24	29.89	0.934276	0.239852	0.288408	-0.162	0.285	0.36	0	232	110	3
2026-02-12	16:38:53.990	8.085	-15.68	17.885	0.885232	0.22082	0.288164	-0.153	0.3045	0.3645	0	232	110	3
2026-02-12	16:38:54.010	11.935	-16.8	5.915	0.825452	0.216184	0.268644	-0.1605	0.3045	0.3615	0	228	142	3
2026-02-12	16:38:54.030	12.74	-19.845	-5.215	0.803004	0.236924	0.251808	-0.1575	0.3	0.366	0	228	142	3
2026-02-12	16:38:54.050	9.275	-24.045	-16.1	0.87108	0.238876	0.241804	-0.1605	0.3045	0.363	0	228	142	3
2026-02-12	16:38:54.070	1.645	-26.74	-26.67	0.953064	0.2318	0.231068	-0.1605	0.2985	0.3645	0	228	142	3
2026-02-12	16:38:54.090	-6.93	-27.65	-36.785	1.000156	0.204228	0.209596	-0.165	0.297	0.372	0	228	142	3
2026-02-12	16:38:54.110	-12.565	-30.765	-45.395	1.191208	0.164944	0.204472	-0.1695	0.3	0.3765	0	228	142	3
2026-02-12	16:38:54.130	-24.045	-34.02	-49.07	1.535248	0.193736	0.270596	-0.1725	0.2955	0.378	0	228	142	3
2026-02-12	16:38:54.150	-41.125	-26.11	-48.265	1.77876	0.212524	0.334768	-0.1755	0.282	0.3825	0	228	142	3
2026-02-12	16:38:54.170	-52.64	-8.785	-50.54	1.83122	0.19764	0.287432	-0.177	0.2745	0.3885	0	228	142	3
2026-02-12	16:38:54.190	-50.855	11.41	-56.105	1.706048	0.152256	0.112484	-0.1815	0.2715	0.3975	0	228	142	3
2026-02-12	16:38:54.210	-28.21	35.035	-75.11	1.311256	0.087108	-0.08174	-0.183	0.2655	0.402	0	223	173	3
2026-02-12	16:38:54.230	-10.535	39.725	-96.145	1.08092	0.042212	-0.1281	-0.1935	0.258	0.393	0	223	173	3
2026-02-12	16:38:54.250	2.415	34.65	-119.735	0.973804	0.00976	-0.085888	-0.2055	0.243	0.3855	0	223	173	3
2026-02-12	16:38:54.270	5.915	26.635	-141.715	0.942084	0.010736	-0.017324	-0.2085	0.234	0.387	0	223	173	3
2026-02-12	16:38:54.290	-5.215	18.9	-158.69	0.96014	0.09882	0.040992	-0.216	0.2145	0.378	0	223	173	3
2026-02-12	16:38:54.310	-28.595	15.575	-168.14	0.999424	0.16348	0.06734399	-0.2265	0.1845	0.369	0	223	173	3
2026-02-12	16:38:54.330	-59.745	16.695	-169.015	1.053104	0.218624	0.016104	-0.228	0.1695	0.3795	0	223	173	3
2026-02-12	16:38:54.350	-84.84	20.02	-162.085	1.132404	0.184952	-0.016592	-0.2325	0.147	0.372	0	223	173	3
2026-02-12	16:38:54.370	-94.745	24.29	-149.835	1.179252	0.142008	-0.042212	-0.2445	0.123	0.378	0	223	173	3
2026-02-12	16:38:54.390	-92.75	30.59	-133	1.09922	0.065636	-0.08295999	-0.2445	0.1035	0.36	0	223	173	3
2026-02-12	16:38:54.410	-75.74	33.285	-112.945	1.017724	0.005124	-0.121756	-0.2415	0.075	0.3585	0	223	171	3
2026-02-12	16:38:54.430	-47.32	32.585	-92.05	0.934032	-0.014396	-0.147132	-0.2475	0.0615	0.354	0	223	171	3
2026-02-12	16:38:54.450	-17.885	28.7	-72.835	0.854244	0.02562	-0.14152	-0.243	0.051	0.357	0	223	171	3
2026-02-12	16:38:54.470	3.08	20.055	-52.745	0.82106	0.103944	-0.097844	-0.246	0.033	0.3495	0	223	171	3
2026-02-12	16:38:54.490	8.995	11.025	-35.455	0.788852	0.206668	-0.055144	-0.24	0.03	0.342	0	223	171	3
2026-02-12	16:38:54.510	7.77	3.395	-25.13	0.792024	0.24278	-0.026352	-0.234	0.024	0.3345	0	223	171	3
2026-02-12	16:38:54.530	7.77	-2.59	-16.415	0.787632	0.318908	0.000732	-0.2385	0.021	0.3345	0	223	171	3
2026-02-12	16:38:54.550	-4.76	-7.945	-8.61	0.804224	0.374052	0.01464	-0.24	0.021	0.336	0	223	171	3
2026-02-12	16:38:54.570	-21.21	-12.04	-1.785	0.81862	0.368684	0.041236	-0.2385	0.015	0.3375	0	223	171	3
2026-02-12	16:38:54.590	-28.84	-14.7	2.94	0.87108	0.424072	0.06832	-0.24	0.0075	0.339	0	223	171	3
2026-02-12	16:38:54.610	-33.775	-14.49	5.53	0.909388	0.486536	0.080276	-0.2415	0.0135	0.3405	0	226	138	3
2026-02-12	16:38:54.630	-32.13	-11.515	6.51	0.927932	0.514108	0.07808	-0.2415	0.018	0.3405	0	226	138	3
2026-02-12	16:38:54.650	-23.835	-7.665	6.02	0.909632	0.486536	0.07442	-0.24	0.0165	0.3405	0	226	138	3
2026-02-12	16:38:54.670	-8.085	-5.005	4.865	0.887184	0.47946	0.095404	-0.2415	0.0195	0.3375	0	226	138	3
2026-02-12	16:38:54.690	7.665	-3.745	2.765	0.855708	0.473116	0.109068	-0.2475	0.0315	0.3465	0	226	138	3
2026-02-12	16:38:54.710	19.74	-3.36	0.91	0.82472	0.476044	0.113216	-0.2505	0.015	0.3435	0	226	138	3
2026-02-12	16:38:54.730	27.615	-4.06	0	0.799344	0.472872	0.109068	-0.2415	0.0285	0.3465	0	226	138	3
2026-02-12	16:38:54.750	28.42	-6.23	2.485	0.786412	0.462868	0.10736	-0.2415	0.0285	0.3465	0	226	138	3
2026-02-12	16:38:54.770	24.64	-8.085	6.335	0.79056	0.446276	0.11346	-0.243	0.027	0.3465	0	226	138	3
2026-02-12	16:38:54.790	18.445	-9.73	12.04	0.793732	0.438224	0.127856	-0.249	0.0225	0.3435	0	226	138	3
2026-02-12	16:38:54.810	10.08	-10.71	19.005	0.800076	0.412848	0.132004	-0.252	0.0255	0.3525	0	230	106	3
2026-02-12	16:38:54.830	1.68	-11.235	26.705	0.80642	0.38674	0.140788	-0.246	0.0285	0.3585	0	230	106	3
2026-02-12	16:38:54.850	-4.97	-11.27	34.825	0.830088	0.354288	0.14274	-0.237	0.0225	0.357	0	230	106	3
2026-02-12	16:38:54.870	-9.87	-10.815	43.47	0.871812	0.325252	0.159088	-0.2385	0.0315	0.36	0	230	106	3
2026-02-12	16:38:54.890	-11.34	-9.66	52.185	0.925736	0.289872	0.165676	-0.243	0.0435	0.3585	0	230	106	3
2026-02-12	16:38:54.910	-9.66	-7.56	61.005	0.992348	0.256444	0.166896	-0.243	0.048	0.357	0	230	106	3
2026-02-12	16:38:54.930	-5.845	-5.145	69.51	1.068964	0.236924	0.168116	-0.2445	0.0555	0.36	0	230	106	3
2026-02-12	16:38:54.950	-1.26	-1.75	76.825	1.0858	0.2257	0.168848	-0.2475	0.0675	0.3645	0	230	106	3
2026-02-12	16:38:54.970	2.905	1.05	81.935	1.09434	0.216916	0.19276	-0.2505	0.078	0.3675	0	230	106	3
2026-02-12	16:38:54.990	5.425	4.48	84.14	1.109712	0.2013	0.20618	-0.2505	0.087	0.3645	0	230	106	3
2026-02-12	16:38:55.010	11.9	7.84	86.73	1.235616	0.145668	0.164944	-0.2505	0.093	0.3615	0	233	98	3
2026-02-12	16:38:55.030	24.255	8.925	92.82	1.459364	0.11468	0.125904	-0.2505	0.093	0.3615	0	233	98	3
2026-02-12	16:38:55.050	34.79	10.815	100.695	1.505236	0.150548	0.15128	-0.24	0.1335	0.366	0	233	98	3
2026-02-12	16:38:55.070	42.98	16.24	106.715	1.234884	0.203252	0.200812	-0.243	0.1365	0.357	0	233	98	3
2026-02-12	16:38:55.090	49.525	17.115	105.805	0.92354	0.236192	0.219844	-0.234	0.1545	0.357	0	233	98	3
2026-02-12	16:38:55.110	54.53	14.105	97.545	0.701744	0.245708	0.226432	-0.243	0.177	0.351	0	233	98	3
2026-02-12	16:38:55.130	51.065	7.84	86.415	0.667584	0.229604	0.230336	-0.228	0.1875	0.342	0	233	98	3
2026-02-12	16:38:55.150	41.65	1.015	76.09	0.775676	0.219112	0.242048	-0.225	0.198	0.354	0	233	98	3
2026-02-12	16:38:55.170	30.66	-2.835	68.915	0.942572	0.22692	0.256932	-0.213	0.2115	0.348	0	233	98	3
2026-02-12	16:38:55.190	20.58	-2.73	66.64	1.0919	0.2257	0.255956	-0.2265	0.216	0.345	0	233	98	3
2026-02-12	16:38:55.210	15.19	-0.245	68.6	1.160464	0.215696	0.237168	-0.222	0.231	0.3465	0	235	112	3
2026-02-12	16:38:55.230	19.775	2.695	70.665	1.12484	0.227896	0.222772	-0.2085	0.237	0.3525	0	235	112	3
2026-02-12	16:38:55.250	26.46	4.34	71.89	1.003084	0.213256	0.231556	-0.204	0.237	0.351	0	235	112	3
2026-02-12	16:38:55.270	37.66	1.33	66.29	0.881572	0.237168	0.278404	-0.201	0.2445	0.3435	0	235	112	3
2026-02-12	16:38:55.290	38.955	-3.01	55.09	0.797392	0.263032	0.34038	-0.2025	0.252	0.336	0	235	112	3
2026-02-12	16:38:55.310	30.38	-6.825	43.96	0.77714	0.28548	0.33672	-0.1905	0.2685	0.3465	0	235	112	3
2026-02-12	16:38:55.330	16.345	-9.905	32.235	0.795196	0.307196	0.324764	-0.1875	0.279	0.3345	0	235	112	3
2026-02-12	16:38:55.350	0.945	-11.305	20.79	0.834236	0.28548	0.318176	-0.1935	0.2775	0.3345	0	235	112	3
2026-02-12	16:38:55.370	-10.85	-11.06	10.22	0.867908	0.247904	0.299144	-0.1785	0.2805	0.3465	0	235	112	3
2026-02-12	16:38:55.390	-17.57	-10.465	0.77	0.8906	0.208864	0.292312	-0.1875	0.2775	0.3405	0	235	112	3
2026-02-12	16:38:55.410	-18.235	-9.625	-7.42	0.887672	0.182756	0.298656	-0.189	0.285	0.3465	0	236	142	3
2026-02-12	16:38:55.430	-12.985	-8.925	-14.945	0.862784	0.161772	0.293288	-0.1935	0.2835	0.3435	0	236	142	3
2026-02-12	16:38:55.450	-4.235	-9.555	-21.91	0.818376	0.151768	0.27694	-0.1875	0.291	0.3435	0	236	142	3
2026-02-12	16:38:55.470	2.94	-12.285	-28.21	0.80398	0.172508	0.26108	-0.192	0.282	0.3495	0	236	142	3
2026-02-12	16:38:55.490	2.38	-16.275	-33.145	0.815936	0.1891	0.246196	-0.1935	0.276	0.345	0	236	142	3
2026-02-12	16:38:55.510	-2.94	-20.965	-36.785	0.874252	0.197396	0.2379	-0.198	0.2745	0.3465	0	236	142	3
2026-02-12	16:38:55.530	-10.85	-25.165	-40.18	0.975512	0.203984	0.221796	-0.1965	0.267	0.348	0	236	142	3
2026-02-12	16:38:55.550	-20.23	-28	-46.97	1.066768	0.165188	0.18788	-0.201	0.2625	0.357	0	236	142	3
2026-02-12	16:38:55.570	-21.875	-30.555	-51.975	1.183156	0.125172	0.191296	-0.2055	0.2565	0.357	0	236	142	3
2026-02-12	16:38:55.590	-24.605	-32.515	-56.56	1.358104	0.142496	0.226432	-0.2145	0.2475	0.3615	0	236	142	3
2026-02-12	16:38:55.610	-31.57	-29.4	-57.645	1.540128	0.144448	0.259372	-0.216	0.2415	0.3705	0	234	174	3
2026-02-12	16:38:55.630	-38.115	-20.965	-56.21	1.731912	0.135664	0.239852	-0.219	0.234	0.3765	0	234	174	3
2026-02-12	16:38:55.650	-38.955	-5.81	-54.6	1.800232	0.146888	0.156404	-0.2265	0.2295	0.3795	0	234	174	3
2026-02-12	16:38:55.670	-36.925	12.53	-56.035	1.59942	0.138104	0.03538	-0.2325	0.2295	0.3825	0	234	174	3
2026-02-12	16:38:55.690	-29.365	26.495	-62.685	1.292712	0.113948	-0.051484	-0.234	0.2205	0.3795	0	234	174	3
2026-02-12	16:38:55.710	-19.565	31.955	-76.02	1.003084	0.07686	-0.072956	-0.231	0.204	0.375	0	234	174	3
2026-02-12	16:38:55.730	-10.92	28.21	-92.05	0.858148	0.043188	-0.03782	-0.2385	0.1935	0.3675	0	234	174	3
2026-02-12	16:38:55.750	-2.73	20.825	-107.765	0.882792	0.028304	0.019276	-0.2445	0.18	0.3615	0	234	174	3
2026-02-12	16:38:55.770	3.92	15.575	-120.225	0.919148	0.050752	0.070272	-0.246	0.1635	0.3555	0	234	174	3
2026-02-12	16:38:55.790	7.595	12.74	-128.205	0.965752	0.085156	0.088572	-0.2505	0.15	0.351	0	234	174	3
2026-02-12	16:38:55.810	7.56	12.285	-128.94	1.039196	0.114924	0.035868	-0.2535	0.132	0.351	0	235	183	3
2026-02-12	16:38:55.830	3.815	13.615	-121.835	1.129232	0.15006	-0.013908	-0.255	0.123	0.351	0	235	183	3
2026-02-12	16:38:55.850	-2.975	18.34	-111.37	1.148752	0.125172	-0.066124	-0.258	0.105	0.3465	0	235	183	3
2026-02-12	16:38:55.870	-7.91	24.465	-98.525	1.07848	0.089548	-0.105408	-0.258	0.0795	0.339	0	235	183	3
2026-02-12	16:38:55.890	-6.37	27.86	-84.28	0.986736	0.051972	-0.123464	-0.261	0.0675	0.336	0	235	183	3
2026-02-12	16:38:55.910	2.03	27.195	-69.09	0.911096	0.042944	-0.128344	-0.264	0.0585	0.3285	0	235	183	3
2026-02-12	16:38:55.930	12.635	23.345	-54.215	0.850584	0.066368	-0.104188	-0.2655	0.042	0.3195	0	235	183	3
2026-02-12	16:38:55.950	19.215	17.64	-39.725	0.826428	0.087108	-0.07905599	-0.2595	0.027	0.312	0	235	183	3
2026-02-12	16:38:55.970	22.89	10.815	-24.745	0.82106	0.130784	-0.054656	-0.2535	0.0255	0.3075	0	235	183	3
2026-02-12	16:38:55.990	22.155	4.515	-9.31	0.8357	0.17934	-0.037332	-0.2565	0.0285	0.309	0	235	183	3
2026-02-12	16:38:56.010	12.215	-2.31	9.905	0.854488	0.227408	-0.028792	-0.258	0.0285	0.309	0	237	155	3
2026-02-12	16:38:56.030	3.15	-5.53	20.44	0.870836	0.24522	-0.036844	-0.258	0.0255	0.3135	0	237	155	3
2026-02-12	16:38:56.050	-7.315	-8.68	32.515	0.88328	0.27938	-0.047336	-0.258	0.0255	0.315	0	237	155	3
2026-02-12	16:38:56.070	-14.175	-11.41	42.21	0.893284	0.311588	-0.048556	-0.2595	0.027	0.312	0	237	155	3
2026-02-12	16:38:56.090	-21.315	-15.61	52.92	0.894748	0.349652	-0.047336	-0.261	0.0375	0.315	0	237	155	3
2026-02-12	16:38:56.110	-26.39	-19.425	58.52	0.909632	0.381372	-0.027816	-0.2625	0.0495	0.3165	0	237	155	3
2026-02-12	16:38:56.130	-28.245	-23.17	62.055	0.934032	0.38796	-0.000244	-0.2685	0.048	0.324	0	237	155	3
2026-02-12	16:38:56.150	-25.445	-26.74	63.56	0.944768	0.404796	0.030256	-0.2655	0.0675	0.3255	0	237	155	3
2026-02-12	16:38:56.170	-20.51	-29.68	64.12	0.945256	0.427244	0.05246	-0.2625	0.0765	0.3285	0	237	155	3
2026-02-12	16:38:56.190	-14.945	-31.535	63.595	0.9333	0.454084	0.070272	-0.273	0.0825	0.3345	0	237	155	3
2026-02-12	16:38:56.210	-10.605	-31.85	62.37	0.926224	0.462136	0.09516	-0.267	0.099	0.333	0	239	112	2
2026-02-12	16:38:56.230	-8.12	-30.94	60.62	0.920368	0.4575	0.12078	-0.273	0.1125	0.345	0	239	112	2
2026-02-12	16:38:56.250	-6.825	-28.91	58.905	0.923052	0.44408	0.12932	-0.27	0.105	0.3495	0	239	112	2
2026-02-12	16:38:56.270	-6.405	-26.075	57.4	0.924028	0.417484	0.139568	-0.2595	0.1275	0.3585	0	239	112	2
2026-02-12	16:38:56.290	-7.21	-23.205	56.315	0.932568	0.3965	0.149084	-0.2655	0.135	0.36	0	239	112	2
2026-02-12	16:38:56.310	-9.135	-20.125	55.65	0.937448	0.377468	0.160064	-0.261	0.135	0.3705	0	239	112	2
2026-02-12	16:38:56.330	-12.075	-16.73	54.95	0.962336	0.360876	0.175192	-0.2565	0.159	0.3735	0	239	112	2
2026-02-12	16:38:56.350	-14.21	-11.48	53.76	0.988932	0.312564	0.181292	-0.261	0.162	0.375	0	239	112	2
2026-02-12	16:38:56.370	-10.605	-5.74	52.395	1.028948	0.25864	0.173972	-0.261	0.162	0.375	0	239	112	2
2026-02-12	16:38:56.390	-2.135	-0.63	51.94	1.038464	0.219844	0.155672	-0.258	0.1725	0.3765	0	239	112	2
2026-02-12	16:38:56.410	10.955	3.815	51.695	1.066768	0.152256	0.142496	-0.2565	0.183	0.378	0	240	88	2
2026-02-12	16:38:56.430	29.715	8.645	53.13	1.065792	0.107116	0.124684	-0.255	0.195	0.387	0	240	88	2
2026-02-12	16:38:56.450	49.315	12.565	53.97	1.074576	0.0976	0.103212	-0.249	0.207	0.3825	0	240	88	2
2026-02-12	16:38:56.470	62.545	15.855	54.81	1.05652	0.091988	0.10492	-0.2505	0.213	0.378	0	240	88	2
2026-02-12	16:38:56.490	69.58	18.55	55.02	1.05164	0.097844	0.112972	-0.2505	0.213	0.3705	0	240	88	2
2026-02-12	16:38:56.510	71.12	21.14	54.46	1.098976	0.084912	0.072956	-0.24	0.2385	0.366	0	240	88	2
2026-02-12	16:38:56.530	66.955	22.155	55.965	1.27124	0.063196	0.044164	-0.24	0.2385	0.36	0	240	88	2
2026-02-12	16:38:56.550	57.89	23.135	60.27	1.455704	0.096624	0.018544	-0.237	0.243	0.3585	0	240	88	2
2026-02-12	16:38:56.570	48.16	27.23	62.23	1.408856	0.13054	0.046116	-0.2385	0.243	0.354	0	240	88	2
2026-02-12	16:38:56.590	41.685	28.63	56.875	1.141676	0.088572	0.066368	-0.234	0.252	0.3405	0	240	88	2
2026-02-12	16:38:56.610	44.45	23.065	45.85	0.905728	0.07905599	0.10492	-0.2205	0.258	0.339	0	238	85	3
2026-02-12	16:38:56.630	35.56	7.77	23.87	0.837896	0.06222	0.208864	-0.2115	0.2685	0.3345	0	238	85	3
2026-02-12	16:38:56.650	22.575	-0.105	10.745	0.909144	0.081984	0.22936	-0.2085	0.27	0.3315	0	238	85	3
2026-02-12	16:38:56.670	11.445	-3.71	3.85	0.9943	0.104432	0.232776	-0.207	0.273	0.3255	0	238	85	3
2026-02-12	16:38:56.690	2.975	-2.59	4.445	0.998936	0.105408	0.19764	-0.2115	0.2745	0.3255	0	238	85	3
2026-02-12	16:38:56.710	0.42	-0.63	7.84	0.964776	0.130052	0.189344	-0.21	0.276	0.324	0	238	85	3
2026-02-12	16:38:56.730	2.24	1.435	12.04	0.896212	0.136152	0.213012	-0.207	0.2775	0.3225	0	238	85	3
2026-02-12	16:38:56.750	7.28	2.765	15.75	0.831796	0.138592	0.246928	-0.204	0.282	0.327	0	238	85	3
2026-02-12	16:38:56.770	15.19	3.15	16.94	0.78202	0.126392	0.27206	-0.2025	0.285	0.327	0	238	85	3
2026-02-12	16:38:56.790	22.645	2.52	14.77	0.755424	0.127124	0.281576	-0.2055	0.288	0.3255	0	238	85	3
2026-02-12	16:38:56.810	25.34	1.33	11.025	0.742248	0.118584	0.280356	-0.2085	0.2895	0.3195	0	236	98	3
2026-02-12	16:38:56.830	24.57	-0.56	6.965	0.752496	0.117608	0.27206	-0.207	0.2835	0.3195	0	236	98	3
2026-02-12	16:38:56.850	24.29	-2.625	3.745	0.791292	0.14152	0.265472	-0.21	0.2835	0.324	0	236	98	3
2026-02-12	16:38:56.870	22.89	-4.48	2.415	0.8235	0.146156	0.274012	-0.2085	0.288	0.3225	0	236	98	3
2026-02-12	16:38:56.890	19.285	-7.07	2.485	0.843508	0.149572	0.2806	-0.204	0.294	0.3225	0	236	98	3
2026-02-12	16:38:56.910	15.295	-10.255	3.36	0.813984	0.162748	0.259372	-0.204	0.2985	0.324	0	236	98	3
2026-02-12	16:38:56.930	11.935	-14.49	4.34	0.783728	0.166652	0.242048	-0.21	0.2925	0.324	0	236	98	3
2026-02-12	16:38:56.950	7.28	-20.475	5.11	0.793488	0.187148	0.242536	-0.219	0.297	0.3285	0	236	98	3
2026-02-12	16:38:56.970	-0.28	-26.635	4.27	0.862052	0.207156	0.258152	-0.207	0.3	0.3315	0	236	98	3
2026-02-12	16:38:56.990	-10.115	-30.765	0.875	0.921832	0.210816	0.260104	-0.2085	0.2985	0.333	0	236	98	3
2026-02-12	16:38:57.010	-18.76	-34.195	-5.075	1.018944	0.189588	0.229848	-0.2085	0.297	0.339	0	233	128	3
2026-02-12	16:38:57.030	-31.605	-39.55	-8.435	1.33346	0.191052	0.275964	-0.213	0.2985	0.345	0	233	128	3
2026-02-12	16:38:57.050	-50.33	-38.36	-7.385	1.71166	0.224968	0.354532	-0.2145	0.3015	0.3525	0	233	128	3
2026-02-12	16:38:57.070	-69.3	-22.61	-7.875	1.903444	0.195932	0.372588	-0.2145	0.3	0.36	0	233	128	3
2026-02-12	16:38:57.090	-69.86	0.21	-15.575	1.87392	0.141764	0.240096	-0.2205	0.3045	0.366	0	233	128	3
2026-02-12	16:38:57.110	-52.29	22.645	-29.155	1.619428	0.107116	0.054168	-0.228	0.309	0.375	0	233	128	3
2026-02-12	16:38:57.130	-26.425	38.465	-49.91	1.280268	0.037576	-0.0549	-0.2235	0.306	0.384	0	233	128	3
2026-02-12	16:38:57.150	-3.185	42.105	-77.175	1.007232	0.00488	-0.092476	-0.2235	0.3	0.3855	0	233	128	3
2026-02-12	16:38:57.170	14.42	29.68	-118.475	0.858636	-0.025864	0.037332	-0.2295	0.297	0.3825	0	233	128	3
2026-02-12	16:38:57.190	17.605	20.58	-139.055	0.887916	-0.00488	0.11468	-0.2295	0.297	0.3825	0	233	128	3
2026-02-12	16:38:57.210	18.55	14.63	-152.355	0.963068	0.091988	0.15738	-0.2505	0.2475	0.3705	0	233	154	3
2026-02-12	16:38:57.230	12.25	13.545	-156.275	1.033096	0.152744	0.149572	-0.27	0.2205	0.3615	0	233	154	3
2026-02-12	16:38:57.250	3.955	16.03	-151.27	1.08702	0.182268	0.096624	-0.2745	0.198	0.3675	0	233	154	3
2026-02-12	16:38:57.270	-6.475	20.685	-139.615	1.106296	0.22204	0.017812	-0.2865	0.168	0.36	0	233	154	3
2026-02-12	16:38:57.290	-19.25	26.46	-123.865	1.113616	0.211548	-0.042944	-0.285	0.1485	0.3525	0	233	154	3
2026-02-12	16:38:57.310	-30.835	31.99	-107.03	1.064084	0.16714	-0.06588	-0.297	0.126	0.3525	0	233	154	3
2026-02-12	16:38:57.330	-34.02	35.945	-90.3	0.998448	0.114924	-0.072712	-0.288	0.1155	0.3495	0	233	154	3
2026-02-12	16:38:57.350	-27.79	35.84	-76.265	0.981124	0.122244	-0.066856	-0.288	0.093	0.3465	0	233	154	3
2026-02-12	16:38:57.370	-20.475	33.775	-64.54	0.95648	0.11712	-0.060756	-0.294	0.084	0.345	0	233	154	3
2026-02-12	16:38:57.390	-10.255	29.995	-54.565	0.930372	0.139568	-0.040016	-0.288	0.0675	0.3375	0	233	154	3
2026-02-12	16:38:57.410	-0.91	25.025	-47.53	0.902068	0.176412	-0.0366	-0.2895	0.0585	0.3375	0	236	150	3
2026-02-12	16:38:57.430	5.215	18.34	-42.28	0.880352	0.239608	-0.036844	-0.2865	0.045	0.3225	0	236	150	3
2026-02-12	16:38:57.450	2.03	11.48	-38.745	0.881816	0.28548	-0.040748	-0.2865	0.045	0.3225	0	236	150	3
2026-02-12	16:38:57.470	-7.7	6.65	-35.7	0.867908	0.315004	-0.033184	-0.288	0.0345	0.3225	0	236	150	3
2026-02-12	16:38:57.490	-18.48	2.135	-32.62	0.859368	0.334768	-0.022936	-0.2895	0.0255	0.3225	0	236	150	3
2026-02-12	16:38:57.510	-26.285	-1.575	-28.49	0.843508	0.344528	-0.00976	-0.288	0.021	0.3195	0	236	150	3
2026-02-12	16:38:57.530	-30.45	-5.145	-23.59	0.838872	0.34282	0.003172	-0.288	0.012	0.3195	0	236	150	3
2026-02-12	16:38:57.550	-29.19	-8.19	-18.165	0.836432	0.354044	0.016104	-0.2895	0.006	0.321	0	236	150	3
2026-02-12	16:38:57.570	-25.025	-10.535	-11.165	0.828136	0.349164	0.03294	-0.2835	0.0075	0.324	0	236	150	3
2026-02-12	16:38:57.590	-18.13	-12.425	-3.43	0.823744	0.366244	0.04392	-0.279	0.0105	0.3285	0	236	150	3
2026-02-12	16:38:57.610	-11.62	-13.79	4.445	0.812764	0.384788	0.060512	-0.2835	0.009	0.318	0	239	122	3
2026-02-12	16:38:57.630	-6.86	-14.525	12.215	0.805932	0.39406	0.072468	-0.285	0.009	0.33	0	239	122	3
2026-02-12	16:38:57.650	-4.165	-15.19	19.81	0.795196	0.393572	0.078568	-0.2805	0.0135	0.3345	0	239	122	3
2026-02-12	16:38:57.670	-2.66	-16.205	27.02	0.792268	0.380152	0.082472	-0.288	0.018	0.336	0	239	122	3
2026-02-12	16:38:57.690	-1.89	-17.43	34.335	0.796172	0.374296	0.100284	-0.2865	0.015	0.33	0	239	122	3
2026-02-12	16:38:57.710	-2.835	-18.76	45.955	0.81862	0.355996	0.132492	-0.2865	0.018	0.3375	0	239	122	3
2026-02-12	16:38:57.730	-5.425	-18.69	53.935	0.83082	0.343796	0.149328	-0.2835	0.0255	0.3405	0	239	122	3
2026-02-12	16:38:57.750	-8.89	-18.34	61.635	0.85766	0.323056	0.161772	-0.282	0.0405	0.345	0	239	122	3
2026-02-12	16:38:57.770	-12.425	-17.045	68.6	0.880352	0.296948	0.175192	-0.2835	0.051	0.3495	0	239	122	3
2026-02-12	16:38:57.790	-14.56	-15.47	74.795	0.93574	0.273036	0.177876	-0.2865	0.0555	0.3525	0	239	122	3
2026-02-12	16:38:57.810	-14.175	-13.195	80.29	0.997472	0.24156	0.16958	-0.291	0.0675	0.36	0	240	98	3
2026-02-12	16:38:57.830	-10.64	-10.15	84.805	1.0309	0.215208	0.157868	-0.2895	0.084	0.3615	0	240	98	3
2026-02-12	16:38:57.850	-6.16	-7.105	88.2	1.05286	0.1952	0.170312	-0.2835	0.0975	0.363	0	240	98	3
2026-02-12	16:38:57.870	-1.68	-3.71	89.145	1.074088	0.187636	0.189832	-0.285	0.114	0.3615	0	240	98	3
2026-02-12	16:38:57.890	0.91	-0.07	87.71	1.08824	0.16958	0.194468	-0.2835	0.126	0.3585	0	240	98	3
2026-02-12	16:38:57.910	4.725	1.96	86.87	1.2322	0.137128	0.152256	-0.282	0.138	0.3615	0	240	98	3
2026-02-12	16:38:57.930	11.025	1.54	92.155	1.504992	0.107604	0.109556	-0.282	0.147	0.3615	0	240	98	3
2026-02-12	16:38:57.950	21.105	3.675	100.24	1.599664	0.134688	0.100528	-0.279	0.162	0.366	0	240	98	3
2026-02-12	16:38:57.970	38.01	8.855	103.04	1.291492	0.152988	0.114436	-0.273	0.18	0.3705	0	240	98	3
2026-02-12	16:38:57.990	62.195	4.025	96.6	0.940864	0.177144	0.157136	-0.2715	0.189	0.3705	0	240	98	3
2026-02-12	16:38:58.010	73.64	-6.335	85.925	0.798612	0.208376	0.258152	-0.255	0.2145	0.36	0	239	98	3
2026-02-12	16:38:58.030	66.92	-17.36	74.62	0.825452	0.212036	0.328912	-0.249	0.222	0.357	0	239	98	3
2026-02-12	16:38:58.050	49.28	-25.305	67.13	0.932568	0.261324	0.370148	-0.243	0.246	0.3585	0	239	98	3
2026-02-12	16:38:58.070	22.75	-26.495	64.12	1.013576	0.2867	0.348432	-0.252	0.2475	0.354	0	239	98	3
2026-02-12	16:38:58.090	1.015	-23.975	63.525	1.038464	0.29036	0.286944	-0.243	0.252	0.3585	0	239	98	3
2026-02-12	16:38:58.110	-11.655	-20.93	63.455	1.02602	0.264252	0.267668	-0.237	0.264	0.363	0	239	98	3
2026-02-12	16:38:58.130	-16.625	-17.08	62.79	0.957944	0.21228	0.293776	-0.2325	0.273	0.366	0	239	98	3
2026-02-12	16:38:58.150	-6.86	-14.665	60.235	0.883768	0.164456	0.320616	-0.225	0.276	0.3705	0	239	98	3
2026-02-12	16:38:58.170	11.06	-13.615	55.685	0.812276	0.162748	0.356728	-0.219	0.288	0.381	0	239	98	3
2026-02-12	16:38:58.190	26.39	-14.07	47.845	0.781044	0.2013	0.386496	-0.219	0.288	0.381	0	239	98	3
2026-02-12	16:38:58.210	30.415	-14.63	37.66	0.793732	0.238388	0.367464	-0.216	0.2955	0.378	0	238	123	3
2026-02-12	16:38:58.230	24.605	-14.245	26.25	0.81008	0.25376	0.33062	-0.21	0.306	0.378	0	238	123	3
2026-02-12	16:38:58.250	6.615	-13.965	9.17	0.87352	0.242536	0.3294	-0.2085	0.3105	0.3795	0	238	123	3
2026-02-12	16:38:58.270	-2.905	-13.405	-0.28	0.917928	0.210328	0.349408	-0.201	0.312	0.3765	0	238	123	3
2026-02-12	16:38:58.290	-7.28	-12.53	-7.735	0.921344	0.183732	0.349652	-0.207	0.3105	0.384	0	238	123	3
2026-02-12	16:38:58.310	-5.635	-11.69	-13.51	0.887428	0.16226	0.345504	-0.198	0.309	0.3885	0	238	123	3
2026-02-12	16:38:58.330	0.77	-11.62	-19.04	0.833504	0.165676	0.304512	-0.204	0.3105	0.3855	0	238	123	3
2026-02-12	16:38:58.350	5.915	-12.915	-23.975	0.806664	0.170556	0.2684	-0.2145	0.306	0.39	0	238	123	3
2026-02-12	16:38:58.370	6.755	-16.1	-29.12	0.84668	0.168848	0.241804	-0.2115	0.3015	0.399	0	238	123	3
2026-02-12	16:38:58.390	5.845	-18.795	-34.51	0.939644	0.154452	0.23546	-0.2205	0.306	0.3945	0	238	123	3
2026-02-12	16:38:58.410	6.58	-20.51	-39.725	1.03944	0.104188	0.216428	-0.216	0.2895	0.396	0	236	164	3
2026-02-12	16:38:58.430	9.8	-23.38	-42.595	1.249036	0.059048	0.207644	-0.2205	0.288	0.3975	0	236	164	3
2026-02-12	16:38:58.450	6.37	-25.935	-39.62	1.621868	0.065392	0.224968	-0.2295	0.279	0.399	0	236	164	3
2026-02-12	16:38:58.470	-2.135	-18.83	-36.26	1.864648	0.107116	0.260104	-0.237	0.267	0.405	0	236	164	3
2026-02-12	16:38:58.490	-15.085	-2.31	-33.355	1.873188	0.108824	0.207888	-0.234	0.267	0.4035	0	236	164	3
2026-02-12	16:38:58.510	-22.33	18.585	-40.215	1.507188	0.063684	0.044164	-0.2355	0.2535	0.405	0	236	164	3
2026-02-12	16:38:58.530	-17.64	26.74	-56.595	1.122156	0.029524	-0.063684	-0.234	0.2565	0.4035	0	236	164	3
2026-02-12	16:38:58.550	-13.44	22.82	-76.895	0.913048	0.014884	-0.05978	-0.2385	0.2445	0.399	0	236	164	3
2026-02-12	16:38:58.570	-10.71	14.875	-99.05	0.837164	0.007564	-0.004148	-0.24	0.2295	0.399	0	236	164	3
2026-02-12	16:38:58.590	-10.535	6.65	-117.985	0.848632	0.027816	0.059048	-0.2445	0.2235	0.3975	0	236	164	3
2026-02-12	16:38:58.610	-13.825	0.56	-131.11	0.929396	0.093696	0.077836	-0.249	0.2085	0.39	0	235	189	3
2026-02-12	16:38:58.630	-24.745	-2.065	-137.2	1.057252	0.116388	0.07686	-0.2535	0.183	0.387	0	235	189	3
2026-02-12	16:38:58.650	-37.66	0.525	-135.065	1.16876	0.132248	0.048312	-0.2655	0.159	0.387	0	235	189	3
2026-02-12	16:38:58.670	-47.425	8.96	-126.63	1.1834	0.128832	-0.005856	-0.2715	0.141	0.387	0	235	189	3
2026-02-12	16:38:58.690	-51.59	18.585	-114.065	1.113128	0.122732	-0.053192	-0.27	0.1215	0.384	0	235	189	3
2026-02-12	16:38:58.710	-48.265	26.04	-99.715	1.032364	0.127856	-0.084912	-0.273	0.1035	0.3825	0	235	189	3
2026-02-12	16:38:58.730	-40.46	30.45	-85.155	0.967704	0.139568	-0.085888	-0.273	0.0915	0.378	0	235	189	3
2026-02-12	16:38:58.750	-31.22	31.885	-72.66	0.911584	0.162504	-0.068076	-0.273	0.081	0.372	0	235	189	3
2026-02-12	16:38:58.770	-22.33	29.75	-62.86	0.891088	0.172264	-0.03782	-0.273	0.069	0.3645	0	235	189	3
2026-02-12	16:38:58.790	-15.61	23.66	-49.105	0.908656	0.188612	0.012688	-0.273	0.0585	0.3585	0	235	189	3
2026-02-12	16:38:58.810	-14.14	20.23	-41.3	0.902312	0.223748	0.011712	-0.2745	0.0555	0.3555	0	238	174	3
2026-02-12	16:38:58.830	-15.015	16.695	-34.44	0.89548	0.261812	-0.00244	-0.2775	0.048	0.3465	0	238	174	3
2026-02-12	16:38:58.850	-15.855	13.335	-28.385	0.893772	0.290116	-0.008052	-0.2745	0.0405	0.3465	0	238	174	3
2026-02-12	16:38:58.870	-18.865	10.5	-23.24	0.877912	0.299876	-0.00122	-0.2745	0.036	0.348	0	238	174	3
2026-02-12	16:38:58.890	-24.43	7.49	-18.13	0.877912	0.30134	0.007808	-0.273	0.03	0.345	0	238	174	3
2026-02-12	16:38:58.910	-30.065	4.865	-13.265	0.887184	0.294752	0.015616	-0.2715	0.0315	0.345	0	238	174	3
2026-02-12	16:38:58.930	-34.16	2.52	-8.645	0.87352	0.285968	0.021228	-0.2715	0.0345	0.339	0	238	174	3
2026-02-12	16:38:58.950	-35.14	0.315	-3.395	0.859612	0.278892	0.02684	-0.2745	0.0315	0.3375	0	238	174	3
2026-02-12	16:38:58.970	-33.985	-2.38	2.345	0.847656	0.271816	0.033184	-0.276	0.027	0.3375	0	238	174	3
2026-02-12	16:38:58.990	-31.675	-5.04	8.645	0.864736	0.264252	0.047336	-0.2745	0.03	0.333	0	238	174	3
2026-02-12	16:38:59.010	-28.14	-6.44	15.435	0.882548	0.261324	0.05368	-0.27	0.0345	0.3375	0	240	137	3
2026-02-12	16:38:59.030	-23.24	-7.21	22.855	0.870836	0.25498	0.054656	-0.27	0.039	0.3405	0	240	137	3
2026-02-12	16:38:59.050	-15.12	-9.1	34.44	0.863028	0.250832	0.061488	-0.2715	0.0405	0.3405	0	240	137	3
2026-02-12	16:38:59.070	-10.92	-10.57	42.07	0.88572	0.249124	0.079544	-0.2715	0.0405	0.3405	0	240	137	3
2026-02-12	16:38:59.090	-7.14	-11.13	49.7	0.899872	0.241072	0.080276	-0.2685	0.06	0.3405	0	240	137	3
2026-02-12	16:38:59.110	-3.955	-11.515	57.505	0.912316	0.2318	0.081496	-0.279	0.0645	0.348	0	240	137	3
2026-02-12	16:38:59.130	-0.98	-12.11	65.415	0.945744	0.224236	0.090524	-0.2745	0.0735	0.351	0	240	137	3
2026-02-12	16:38:59.150	2.275	-12.53	72.94	0.997228	0.216672	0.101992	-0.2685	0.087	0.351	0	240	137	3
2026-02-12	16:38:59.170	5.88	-11.97	79.73	1.057984	0.20252	0.112484	-0.2685	0.09	0.3615	0	240	137	3
2026-02-12	16:38:59.190	10.395	-10.395	85.365	1.07482	0.20008	0.114192	-0.279	0.108	0.3645	0	240	137	3
2026-02-12	16:38:59.210	12.81	-9.065	89.005	1.07726	0.20496	0.143228	-0.285	0.1245	0.3585	0	238	107	3
2026-02-12	16:38:59.230	12.67	-7.77	89.81	1.073112	0.211792	0.167872	-0.273	0.126	0.363	0	238	107	3
2026-02-12	16:38:59.250	12.215	-6.86	89.145	1.171688	0.179828	0.175924	-0.2655	0.147	0.363	0	238	107	3
2026-02-12	16:38:59.270	16.205	-5.915	90.335	1.350296	0.135908	0.159576	-0.267	0.162	0.366	0	238	107	3
2026-02-12	16:38:59.290	27.335	-4.585	94.08	1.546228	0.114436	0.121268	-0.261	0.171	0.3645	0	238	107	3
2026-02-12	16:38:59.310	45.465	0.63	98	1.461072	0.134932	0.14152	-0.252	0.1845	0.3675	0	238	107	3
2026-02-12	16:38:59.330	67.9	3.29	94.605	0.979172	0.174216	0.185928	-0.252	0.1845	0.3675	0	238	107	3
2026-02-12	16:38:59.350	85.89	-1.435	82.81	0.77958	0.205448	0.23912	-0.2445	0.204	0.3615	0	238	107	3
2026-02-12	16:38:59.370	88.095	-9.415	69.965	0.720044	0.230824	0.303292	-0.237	0.2325	0.354	0	238	107	3
2026-02-12	16:38:59.390	75.25	-16.38	57.575	0.798124	0.255712	0.346724	-0.2385	0.24	0.354	0	238	107	3
2026-02-12	16:38:59.410	54.04	-19.04	48.02	0.927444	0.286456	0.368928	-0.237	0.2475	0.357	0	234	103	3
2026-02-12	16:38:59.430	30.555	-16.135	43.435	1.00406	0.278892	0.334768	-0.228	0.2505	0.3615	0	234	103	3
2026-02-12	16:38:59.450	14.63	-12.11	41.335	1.028704	0.251076	0.283528	-0.2325	0.252	0.3615	0	234	103	3
2026-02-12	16:38:59.470	9.52	-8.855	40.355	1.014308	0.220088	0.262056	-0.219	0.261	0.36	0	234	103	3
2026-02-12	16:38:59.490	13.3	-6.405	39.935	0.963556	0.186416	0.277672	-0.2205	0.2625	0.351	0	234	103	3
2026-02-12	16:38:59.510	24.395	-5.95	38.08	0.906704	0.176412	0.320616	-0.219	0.273	0.363	0	234	103	3
2026-02-12	16:38:59.530	35.595	-6.265	32.585	0.845216	0.20252	0.346968	-0.213	0.2745	0.357	0	234	103	3
2026-02-12	16:38:59.550	39.13	-8.015	24.885	0.809348	0.232044	0.34404	-0.2085	0.2865	0.348	0	234	103	3
2026-02-12	16:38:59.570	32.41	-10.43	16.205	0.796416	0.252296	0.32452	-0.216	0.2775	0.3555	0	234	103	3
2026-02-12	16:38:59.590	15.47	-13.265	5.04	0.820328	0.247416	0.323544	-0.204	0.282	0.351	0	234	103	3
2026-02-12	16:38:59.610	-0.945	-15.05	-4.55	0.857904	0.208376	0.324032	-0.21	0.285	0.3555	0	230	129	3
2026-02-12	16:38:59.630	-8.645	-16.065	-9.695	0.879132	0.178608	0.320372	-0.213	0.2835	0.357	0	230	129	3
2026-02-12	16:38:59.650	-12.74	-16.765	-12.845	0.881328	0.171044	0.31842	-0.2055	0.2835	0.357	0	230	129	3
2026-02-12	16:38:59.670	-13.58	-16.975	-14.735	0.838872	0.160064	0.308416	-0.21	0.282	0.3615	0	230	129	3
2026-02-12	16:38:59.690	-11.69	-17.85	-16.345	0.785924	0.160064	0.2867	-0.2145	0.276	0.3735	0	230	129	3
2026-02-12	16:38:59.710	-9.555	-20.02	-18.095	0.751032	0.16592	0.266204	-0.2145	0.2775	0.3765	0	230	129	3
2026-02-12	16:38:59.730	-9.52	-23.66	-20.16	0.782752	0.179096	0.241804	-0.2205	0.282	0.372	0	230	129	3
2026-02-12	16:38:59.750	-13.3	-28.175	-22.855	0.874496	0.180072	0.237412	-0.219	0.2775	0.378	0	230	129	3
2026-02-12	16:38:59.770	-18.795	-32.375	-25.445	0.983564	0.175192	0.202764	-0.2175	0.2715	0.3855	0	230	129	3
2026-02-12	16:38:59.790	-31.115	-39.865	-24.885	1.3176	0.189588	0.28304	-0.222	0.264	0.39	0	230	129	3
2026-02-12	16:38:59.810	-54.46	-39.55	-19.355	1.612352	0.233508	0.350628	-0.2265	0.264	0.399	0	225	169	3
2026-02-12	16:38:59.830	-75.88	-25.165	-18.235	1.789008	0.240584	0.342332	-0.2265	0.267	0.411	0	225	169	3
2026-02-12	16:38:59.850	-82.075	2.695	-22.47	1.739964	0.171776	0.180804	-0.228	0.2625	0.42	0	225	169	3
2026-02-12	16:38:59.870	-64.855	26.74	-34.965	1.482788	0.107848	-0.063684	-0.2295	0.2625	0.423	0	225	169	3
2026-02-12	16:38:59.890	-47.985	38.955	-50.925	1.247816	0.07076	-0.153964	-0.225	0.264	0.423	0	225	169	3
2026-02-12	16:38:59.910	-34.825	42	-72.415	1.061644	-0.010004	-0.131028	-0.2295	0.2505	0.4215	0	225	169	3
2026-02-12	16:38:59.930	-16.8	37.87	-95.095	0.989176	-0.040016	-0.083204	-0.237	0.2295	0.4185	0	225	169	3
2026-02-12	16:38:59.950	2.38	32.76	-116.725	0.924028	-0.018544	-0.029036	-0.243	0.219	0.4095	0	225	169	3
2026-02-12	16:38:59.970	19.04	25.2	-135.205	0.95282	0.015616	0.000976	-0.252	0.2115	0.4035	0	225	169	3
2026-02-12	16:38:59.990	32.48	18.095	-147.91	1.00894	0.081496	-0.005124	-0.2565	0.177	0.399	0	225	169	3
2026-02-12	16:39:00.010	35.245	10.57	-152.18	1.086776	0.128832	-0.027816	-0.2565	0.177	0.399	0	225	183	3
2026-02-12	16:39:00.030	28.77	7.56	-148.085	1.1468	0.136152	-0.053436	-0.2565	0.1575	0.3945	0	225	183	3
2026-02-12	16:39:00.050	14.455	7.84	-137.235	1.140212	0.161528	-0.085888	-0.2595	0.126	0.39	0	225	183	3
2026-02-12	16:39:00.070	-3.64	10.08	-122.185	1.079456	0.174948	-0.113948	-0.267	0.108	0.3855	0	225	183	3
2026-02-12	16:39:00.090	-19.845	12.53	-105.035	0.99186	0.162016	-0.151036	-0.2715	0.09	0.384	0	225	183	3
2026-02-12	16:39:00.110	-26.005	12.81	-87.64	0.916952	0.15616	-0.145912	-0.2745	0.069	0.381	0	225	183	3
2026-02-12	16:39:00.130	-27.895	8.33	-62.615	0.823256	0.149816	-0.109312	-0.276	0.06	0.3795	0	225	183	3
2026-02-12	16:39:00.150	-20.755	2.45	-49.49	0.810812	0.174948	-0.082228	-0.276	0.06	0.3795	0	225	183	3
2026-02-12	16:39:00.170	-13.055	-4.235	-37.485	0.807884	0.252296	-0.06588	-0.273	0.042	0.3795	0	225	183	3
2026-02-12	16:39:00.190	-12.67	-10.71	-27.16	0.809104	0.300852	-0.036844	-0.2715	0.0285	0.3675	0	225	183	3
2026-02-12	16:39:00.210	-20.16	-15.89	-18.69	0.806176	0.364292	-0.0061	-0.2715	0.03	0.378	0	229	153	3
2026-02-12	16:39:00.230	-33.285	-19.355	-11.795	0.81374	0.418216	0.019276	-0.2745	0.024	0.3795	0	229	153	3
2026-02-12	16:39:00.250	-48.055	-20.755	-6.79	0.830576	0.418948	0.022936	-0.2625	0.012	0.384	0	229	153	3
2026-02-12	16:39:00.270	-53.375	-20.615	-3.71	0.84912	0.426024	0.022936	-0.2625	0.0105	0.384	0	229	153	3
2026-02-12	16:39:00.290	-53.41	-19.285	-1.05	0.861808	0.39772	0.02684	-0.2685	0.0195	0.387	0	229	153	3
2026-02-12	16:39:00.310	-47.95	-17.92	1.68	0.872544	0.3904	0.034648	-0.2655	0.0195	0.3915	0	229	153	3
2026-02-12	16:39:00.330	-37.345	-16.695	4.375	0.87962	0.386252	0.061976	-0.2595	0.0105	0.393	0	229	153	3
2026-02-12	16:39:00.350	-23.8	-15.26	6.755	0.892064	0.393084	0.08295999	-0.273	0.0195	0.396	0	229	153	3
2026-02-12	16:39:00.370	-12.46	-13.51	9.03	0.884256	0.401868	0.093452	-0.2625	0.0195	0.399	0	229	153	3
2026-02-12	16:39:00.390	-3.71	-11.235	12.285	0.86986	0.405284	0.103212	-0.2595	0.015	0.396	0	229	153	3
2026-02-12	16:39:00.410	1.435	-9.065	16.275	0.858392	0.400892	0.108092	-0.2595	0.015	0.396	0	233	112	3
2026-02-12	16:39:00.430	2.625	-7.77	20.65	0.84424	0.397476	0.114436	-0.267	0.018	0.4005	0	233	112	3
2026-02-12	16:39:00.450	1.925	-7.035	25.795	0.8418	0.386008	0.126636	-0.27	0.0285	0.402	0	233	112	3
2026-02-12	16:39:00.470	-0.07	-6.475	31.675	0.8418	0.370636	0.138348	-0.267	0.0345	0.4005	0	233	112	3
2026-02-12	16:39:00.490	-3.815	-5.705	37.87	0.84912	0.361852	0.148596	-0.27	0.0405	0.4095	0	233	112	3
2026-02-12	16:39:00.510	-8.12	-4.34	44.45	0.865956	0.337208	0.166652	-0.2655	0.048	0.417	0	233	112	3
2026-02-12	16:39:00.530	-12.04	-2.1	51.485	0.880352	0.325252	0.164944	-0.2595	0.051	0.411	0	233	112	3
2026-02-12	16:39:00.550	-15.96	0.805	58.625	0.910608	0.308172	0.167628	-0.2625	0.0585	0.408	0	233	112	3
2026-02-12	16:39:00.570	-16.8	3.955	65.24	0.945256	0.28914	0.159332	-0.2625	0.066	0.411	0	233	112	3
2026-02-12	16:39:00.590	-13.51	7.28	71.4	0.973804	0.25254	0.146644	-0.2655	0.0735	0.414	0	233	112	3
2026-02-12	16:39:00.610	-6.475	10.01	76.51	1.005768	0.225456	0.152256	-0.2685	0.0795	0.417	0	236	91	3
2026-02-12	16:39:00.630	3.325	12.88	79.52	1.018212	0.204472	0.155916	-0.264	0.09	0.4215	0	236	91	3
2026-02-12	16:39:00.650	14.385	15.19	79.905	1.048956	0.193492	0.158356	-0.261	0.1005	0.411	0	236	91	3
2026-02-12	16:39:00.670	29.12	17.36	77.07	1.129232	0.179828	0.135176	-0.2625	0.126	0.4125	0	236	91	3
2026-02-12	16:39:00.690	34.51	15.715	76.65	1.336388	0.176656	0.130296	-0.2625	0.1335	0.411	0	236	91	3
2026-02-12	16:39:00.710	34.055	15.33	79.625	1.507676	0.16592	0.117608	-0.2595	0.1485	0.405	0	236	91	3
2026-02-12	16:39:00.730	35.245	14.735	85.295	1.628456	0.172264	0.135176	-0.255	0.162	0.402	0	236	91	3
2026-02-12	16:39:00.750	38.29	17.675	89.46	1.433012	0.225944	0.179828	-0.252	0.171	0.4005	0	236	91	3
2026-02-12	16:39:00.770	41.335	18.9	87.29	1.046028	0.23912	0.20862	-0.243	0.1845	0.396	0	236	91	3
2026-02-12	16:39:00.790	43.995	13.65	77.49	0.738832	0.243024	0.227896	-0.2385	0.2025	0.3945	0	236	91	3
2026-02-12	16:39:00.810	40.25	3.955	64.26	0.653676	0.243024	0.258152	-0.2415	0.21	0.393	0	236	96	3
2026-02-12	16:39:00.830	24.78	-4.97	51.485	0.720532	0.240584	0.295972	-0.237	0.219	0.39	0	236	96	3
2026-02-12	16:39:00.850	5.18	-8.575	41.58	0.851316	0.243268	0.321348	-0.2325	0.2295	0.3915	0	236	96	3
2026-02-12	16:39:00.870	-13.09	-6.58	36.365	0.961848	0.238876	0.278404	-0.2325	0.2355	0.3915	0	236	96	3
2026-02-12	16:39:00.890	-23.52	-2.45	34.86	1.035048	0.22082	0.223016	-0.2295	0.24	0.39	0	236	96	3
2026-02-12	16:39:00.910	-22.645	2.24	35.595	1.047492	0.187392	0.201056	-0.222	0.246	0.393	0	236	96	3
2026-02-12	16:39:00.930	-7.63	6.195	34.125	1.014796	0.136396	0.232288	-0.222	0.2475	0.3915	0	236	96	3
2026-02-12	16:39:00.950	16.87	7.105	28.805	0.922076	0.140788	0.300608	-0.2265	0.2445	0.3915	0	236	96	3
2026-02-12	16:39:00.970	30.45	5.355	21	0.856684	0.16592	0.33062	-0.216	0.2595	0.3885	0	236	96	3
2026-02-12	16:39:00.990	32.55	2.695	11.2	0.808616	0.200568	0.334524	-0.213	0.255	0.39	0	236	96	3
2026-02-12	16:39:01.010	25.865	0.315	0.42	0.7869	0.221796	0.305976	-0.219	0.2625	0.3855	0	236	121	3
2026-02-12	16:39:01.030	14.105	-1.54	-9.835	0.793976	0.223992	0.27816	-0.2175	0.267	0.3855	0	236	121	3
2026-02-12	16:39:01.050	0.525	-2.8	-17.745	0.8113	0.196664	0.268888	-0.213	0.264	0.39	0	236	121	3
2026-02-12	16:39:01.070	-8.47	-4.095	-22.75	0.837164	0.175924	0.273524	-0.2145	0.264	0.3855	0	236	121	3
2026-02-12	16:39:01.090	-13.16	-5.565	-24.885	0.854244	0.15372	0.274012	-0.219	0.2505	0.384	0	236	121	3
2026-02-12	16:39:01.110	-13.825	-7.42	-24.64	0.86742	0.138836	0.271084	-0.2115	0.246	0.384	0	236	121	3
2026-02-12	16:39:01.130	-12.285	-9.625	-22.785	0.858636	0.145424	0.272792	-0.2145	0.2445	0.39	0	236	121	3
2026-02-12	16:39:01.150	-10.36	-12.145	-20.16	0.83082	0.151524	0.261324	-0.219	0.246	0.3855	0	236	121	3
2026-02-12	16:39:01.170	-9.485	-15.295	-17.5	0.796416	0.16226	0.24766	-0.2205	0.237	0.3975	0	236	121	3
2026-02-12	16:39:01.190	-11.34	-18.795	-15.085	0.739808	0.17812	0.232044	-0.2175	0.2385	0.3975	0	236	121	3
2026-02-12	16:39:01.210	-18.305	-25.865	-12.04	0.760792	0.187392	0.210572	-0.216	0.2415	0.399	0	234	156	3
2026-02-12	16:39:01.230	-23.135	-29.96	-10.36	0.846192	0.187148	0.194468	-0.216	0.2415	0.399	0	234	156	3
2026-02-12	16:39:01.250	-25.375	-32.55	-9.59	0.92842	0.169824	0.160796	-0.2205	0.231	0.4155	0	234	156	3
2026-02-12	16:39:01.270	-21.56	-34.09	-10.535	0.996984	0.151524	0.152744	-0.2265	0.2295	0.4155	0	234	156	3
2026-02-12	16:39:01.290	-12.11	-36.225	-11.9	1.204628	0.125416	0.155672	-0.2265	0.222	0.4275	0	234	156	3
2026-02-12	16:39:01.310	-5.46	-35.805	-10.815	1.4457	0.158112	0.187148	-0.222	0.2265	0.4335	0	234	156	3
2026-02-12	16:39:01.330	-7.105	-29.995	-10.92	1.557696	0.209352	0.243756	-0.222	0.2265	0.4365	0	234	156	3
2026-02-12	16:39:01.350	-12.46	-20.16	-11.69	1.589172	0.202764	0.239364	-0.228	0.228	0.4395	0	234	156	3
2026-02-12	16:39:01.370	-14	-10.36	-18.165	1.591612	0.218136	0.1342	-0.2235	0.216	0.45	0	234	156	3
2026-02-12	16:39:01.390	-16.135	0.56	-30.45	1.508896	0.182512	-0.004392	-0.2265	0.225	0.447	0	234	156	3
2026-02-12	16:39:01.410	-14.63	8.155	-46.795	1.348588	0.127368	-0.068076	-0.234	0.216	0.444	0	232	178	3
2026-02-12	16:39:01.430	-11.76	10.71	-66.605	1.169736	0.040016	-0.064904	-0.231	0.2055	0.441	0	232	178	3
2026-02-12	16:39:01.450	0.77	8.82	-86.905	1.006988	0.013664	-0.0305	-0.2265	0.2025	0.4455	0	232	178	3
2026-02-12	16:39:01.470	18.865	1.68	-113.085	0.899628	0.041236	0.01464	-0.228	0.1875	0.447	0	232	178	3
2026-02-12	16:39:01.490	32.76	-6.02	-133.91	0.863272	0.089548	0.050264	-0.228	0.1875	0.447	0	232	178	3
2026-02-12	16:39:01.510	34.93	-10.36	-143.955	0.90402	0.132736	0.064904	-0.234	0.162	0.4425	0	232	178	3
2026-02-12	16:39:01.530	28.56	-11.375	-146.265	0.981368	0.134688	0.050508	-0.2445	0.126	0.441	0	232	178	3
2026-02-12	16:39:01.550	15.505	-9.485	-138.425	1.119716	0.149084	0.017812	-0.252	0.105	0.4395	0	232	178	3
2026-02-12	16:39:01.570	-3.57	-3.5	-120.785	1.2261	0.163968	-0.01098	-0.2535	0.0825	0.4365	0	232	178	3
2026-02-12	16:39:01.590	-15.19	5.46	-98.175	1.233176	0.168848	-0.053436	-0.2565	0.0645	0.4365	0	232	178	3
2026-02-12	16:39:01.610	-14.56	12.39	-72.485	1.158268	0.18666	-0.085156	-0.258	0.057	0.4365	0	232	169	3
2026-02-12	16:39:01.630	-4.795	15.855	-49	1.00406	0.162992	-0.076372	-0.255	0.048	0.4305	0	232	169	3
2026-02-12	16:39:01.650	12.005	14.525	-32.34	0.84912	0.172752	-0.049288	-0.249	0.036	0.423	0	232	169	3
2026-02-12	16:39:01.670	28.63	11.06	-23.555	0.7442	0.17934	0.000488	-0.252	0.0315	0.423	0	232	169	3
2026-02-12	16:39:01.690	38.99	7.105	-18.515	0.695156	0.212768	0.029036	-0.255	0.03	0.429	0	232	169	3
2026-02-12	16:39:01.710	36.54	3.85	-17.01	0.689056	0.233996	0.022204	-0.249	0.0255	0.4275	0	232	169	3
2026-02-12	16:39:01.730	24.675	1.015	-17.57	0.74176	0.3416	-0.01342	-0.2475	0.024	0.423	0	232	169	3
2026-02-12	16:39:01.750	-3.325	0.175	-16.135	0.843508	0.405528	-0.037088	-0.2505	0.024	0.4305	0	232	169	3
2026-02-12	16:39:01.770	-15.89	0.455	-11.305	0.904752	0.394548	-0.00976	-0.2535	0.024	0.432	0	232	169	3
2026-02-12	16:39:01.790	-21	1.26	-3.745	0.92964	0.3721	0.022448	-0.2505	0.024	0.429	0	232	169	3
2026-02-12	16:39:01.810	-15.19	2.275	4.655	0.928176	0.362828	0.04636	-0.246	0.021	0.4275	0	233	136	3
2026-02-12	16:39:01.830	-2.415	4.235	12.6	0.90158	0.381372	0.039284	-0.2475	0.0195	0.4245	0	233	136	3
2026-02-12	16:39:01.850	11.865	6.79	18.865	0.876692	0.397232	0.02196	-0.246	0.024	0.4245	0	233	136	3
2026-02-12	16:39:01.870	19.32	8.75	24.92	0.84912	0.404796	0.005612	-0.243	0.0225	0.4245	0	233	136	3
2026-02-12	16:39:01.890	19.425	9.835	31.045	0.832284	0.421876	0.007808	-0.2475	0.024	0.4245	0	233	136	3
2026-02-12	16:39:01.910	16.94	9.555	36.26	0.828624	0.427976	0.032696	-0.246	0.0315	0.423	0	233	136	3
2026-02-12	16:39:01.930	13.37	8.68	41.3	0.829356	0.422364	0.055632	-0.2475	0.039	0.4245	0	233	136	3
2026-02-12	16:39:01.950	10.465	7.42	46.13	0.834724	0.402356	0.056852	-0.2505	0.045	0.426	0	233	136	3
2026-02-12	16:39:01.970	8.54	5.81	50.715	0.837896	0.386984	0.059536	-0.249	0.048	0.4185	0	233	136	3
2026-02-12	16:39:01.990	5.355	4.235	55.44	0.858636	0.383812	0.061488	-0.2505	0.0555	0.417	0	233	136	3
2026-02-12	16:39:02.010	-4.2	3.08	63.28	0.893528	0.36234	0.07442	-0.255	0.0645	0.423	0	235	102	3
2026-02-12	16:39:02.030	-12.495	2.695	68.95	0.936228	0.33062	0.079788	-0.2565	0.066	0.423	0	235	102	3
2026-02-12	16:39:02.050	-18.69	2.695	74.83	0.992104	0.308904	0.089792	-0.2535	0.087	0.4245	0	235	102	3
2026-02-12	16:39:02.070	-21.595	3.5	80.08	1.033096	0.276696	0.085156	-0.2535	0.09	0.42	0	235	102	3
2026-02-12	16:39:02.090	-20.685	4.41	83.965	1.069208	0.250344	0.0793	-0.2475	0.108	0.4215	0	235	102	3
2026-02-12	16:39:02.110	-16.975	5.6	86.52	1.100196	0.216428	0.101748	-0.2445	0.126	0.4275	0	235	102	3
2026-02-12	16:39:02.130	-9.17	7.945	85.855	1.125816	0.197396	0.09076799	-0.2445	0.1305	0.42	0	235	102	3
2026-02-12	16:39:02.150	-0.595	10.955	83.02	1.13704	0.1342	0.065636	-0.24	0.1485	0.426	0	235	102	3
2026-02-12	16:39:02.170	8.365	14	80.99	1.125084	0.121268	0.054168	-0.2295	0.156	0.4095	0	235	102	3
2026-02-12	16:39:02.190	15.575	16.45	78.225	1.149972	0.104676	0.07076	-0.2415	0.177	0.4215	0	235	102	3
2026-02-12	16:39:02.210	19.845	19.285	76.195	1.201212	0.061976	0.055876	-0.231	0.186	0.4155	0	234	82	3
2026-02-12	16:39:02.230	26.425	19.635	78.295	1.40178	0.011956	0.015616	-0.231	0.186	0.417	0	234	82	3
2026-02-12	16:39:02.250	36.925	19.67	84.875	1.578192	0.039772	-0.010736	-0.2235	0.207	0.411	0	234	82	3
2026-02-12	16:39:02.270	45.955	22.295	88.795	1.470832	0.125416	0.038796	-0.222	0.2115	0.405	0	234	82	3
2026-02-12	16:39:02.290	52.71	21.49	80.955	0.932324	0.144936	0.123952	-0.228	0.2295	0.4035	0	234	82	3
2026-02-12	16:39:02.310	57.12	14.7	67.165	0.685396	0.133468	0.190564	-0.2145	0.237	0.4005	0	234	82	3
2026-02-12	16:39:02.330	52.92	5.32	51.66	0.712968	0.083692	0.214476	-0.2025	0.2535	0.3945	0	234	82	3
2026-02-12	16:39:02.350	43.05	-1.75	40.25	0.88572	0.127368	0.20252	-0.2055	0.264	0.39	0	234	82	3
2026-02-12	16:39:02.370	30.8	-2.135	35.875	0.996496	0.155916	0.176656	-0.1935	0.27	0.3915	0	234	82	3
2026-02-12	16:39:02.390	18.69	0.21	37.765	1.01992	0.199348	0.1525	-0.192	0.27	0.384	0	234	82	3
2026-02-12	16:39:02.410	12.425	3.78	41.58	0.965264	0.201788	0.148352	-0.1935	0.2715	0.381	0	233	78	3
2026-02-12	16:39:02.430	15.435	5.39	43.015	0.88328	0.179096	0.177388	-0.1935	0.2805	0.384	0	233	78	3
2026-02-12	16:39:02.450	24.08	5.425	41.335	0.817156	0.150548	0.204716	-0.1875	0.279	0.378	0	233	78	3
2026-02-12	16:39:02.470	38.08	3.395	35.84	0.76982	0.162504	0.228384	-0.1815	0.291	0.39	0	233	78	3
2026-02-12	16:39:02.490	47.25	-0.14	28.245	0.733708	0.159576	0.22692	-0.1845	0.285	0.3735	0	233	78	3
2026-02-12	16:39:02.510	49.805	-5.25	20.335	0.74542	0.171288	0.219356	-0.177	0.306	0.3705	0	233	78	3
2026-02-12	16:39:02.530	44.835	-10.43	13.125	0.786168	0.198616	0.228384	-0.168	0.2985	0.366	0	233	78	3
2026-02-12	16:39:02.550	32.41	-15.295	7.21	0.839604	0.208864	0.247172	-0.174	0.297	0.366	0	233	78	3
2026-02-12	16:39:02.570	19.845	-18.9	4.375	0.867176	0.203008	0.256444	-0.174	0.297	0.366	0	233	78	3
2026-02-12	16:39:02.590	12.775	-21.245	3.605	0.847168	0.18666	0.260592	-0.1725	0.2955	0.3615	0	233	78	3
2026-02-12	16:39:02.610	9.065	-24.36	3.115	0.8052	0.170312	0.260104	-0.1725	0.297	0.3615	0	232	95	3
2026-02-12	16:39:02.630	7.945	-28.525	2.625	0.780556	0.171044	0.252296	-0.174	0.303	0.369	0	232	95	3
2026-02-12	16:39:02.650	5.425	-33.565	1.54	0.81374	0.200324	0.265228	-0.174	0.3015	0.3765	0	232	95	3
2026-02-12	16:39:02.670	-0.245	-37.625	-0.77	0.880352	0.190808	0.26596	-0.171	0.3	0.381	0	232	95	3
2026-02-12	16:39:02.690	-5.495	-39.9	-4.9	0.936472	0.182756	0.24522	-0.165	0.3	0.3855	0	232	95	3
2026-02-12	16:39:02.710	-10.255	-43.05	-10.92	1.061888	0.143472	0.217892	-0.1665	0.3015	0.393	0	232	95	3
2026-02-12	16:39:02.730	-19.95	-49.455	-13.195	1.447652	0.149816	0.29646	-0.1725	0.3	0.396	0	232	95	3
2026-02-12	16:39:02.750	-37.765	-46.41	-11.655	1.780956	0.202276	0.358924	-0.174	0.294	0.405	0	232	95	3
2026-02-12	16:39:02.770	-60.025	-29.61	-13.72	1.857328	0.153232	0.337208	-0.174	0.297	0.411	0	232	95	3
2026-02-12	16:39:02.790	-67.55	-10.57	-22.54	1.87636	0.12078	0.21228	-0.177	0.2955	0.42	0	232	95	3
2026-02-12	16:39:02.810	-59.85	10.85	-37.03	1.63602	0.050752	0.01708	-0.18	0.291	0.429	0	232	124	3
2026-02-12	16:39:02.830	-34.055	29.575	-71.085	1.14924	-0.054168	-0.15616	-0.1815	0.2925	0.429	0	232	124	3
2026-02-12	16:39:02.850	-14.98	26.74	-97.51	0.9394	-0.103944	-0.10126	-0.1815	0.2925	0.429	0	232	124	3
2026-02-12	16:39:02.870	-0.28	18.305	-120.925	0.887184	-0.133468	-0.01586	-0.1875	0.264	0.423	0	232	124	3
2026-02-12	16:39:02.890	14.98	10.955	-140.35	0.897188	-0.061244	0.044896	-0.204	0.246	0.4215	0	232	124	3
2026-02-12	16:39:02.910	24.465	5.67	-152.845	0.963068	0.022692	0.081496	-0.2115	0.231	0.4125	0	232	124	3
2026-02-12	16:39:02.930	22.855	3.885	-155.75	1.041392	0.072956	0.072712	-0.2115	0.222	0.411	0	232	124	3
2026-02-12	16:39:02.950	17.535	6.195	-152.46	1.076284	0.123952	0.017568	-0.216	0.198	0.414	0	232	124	3
2026-02-12	16:39:02.970	7.42	10.535	-144.48	1.082384	0.126636	-0.06588	-0.228	0.1725	0.411	0	232	124	3
2026-02-12	16:39:02.990	-5.39	15.015	-132.23	1.070672	0.119804	-0.121268	-0.2325	0.1545	0.4065	0	232	124	3
2026-02-12	16:39:03.010	-18.48	19.845	-116.9	1.024068	0.07686	-0.15372	-0.234	0.1395	0.4035	0	236	134	3
2026-02-12	16:39:03.030	-23.835	22.435	-100.345	0.962824	0.063684	-0.148108	-0.24	0.1185	0.399	0	236	134	3
2026-02-12	16:39:03.050	-21.21	21.175	-84.805	0.928664	0.09028	-0.122732	-0.24	0.1035	0.393	0	236	134	3
2026-02-12	16:39:03.070	-16.065	17.465	-69.755	0.930372	0.157624	-0.09028	-0.2385	0.0975	0.3855	0	236	134	3
2026-02-12	16:39:03.090	-12.32	12.425	-54.11	0.920856	0.197884	-0.061244	-0.2385	0.0945	0.384	0	236	134	3
2026-02-12	16:39:03.110	-10.71	7.7	-41.93	0.902312	0.26474	-0.054168	-0.2385	0.0945	0.384	0	236	134	3
2026-02-12	16:39:03.130	-14.84	4.2	-35.525	0.878888	0.31354	-0.06832	-0.2385	0.069	0.3825	0	236	134	3
2026-02-12	16:39:03.150	-25.515	1.12	-31.395	0.852292	0.363072	-0.081252	-0.234	0.0645	0.3825	0	236	134	3
2026-02-12	16:39:03.170	-37.24	-2.03	-28.77	0.830576	0.400892	-0.076128	-0.243	0.0555	0.3855	0	236	134	3
2026-02-12	16:39:03.190	-45.99	-5.285	-26.6	0.81374	0.432124	-0.04636	-0.246	0.057	0.384	0	236	134	3
2026-02-12	16:39:03.210	-52.115	-8.4	-24.78	0.816668	0.447496	-0.01708	-0.2385	0.0555	0.3855	0	242	109	3
2026-02-12	16:39:03.230	-53.55	-10.395	-22.26	0.824964	0.468236	0.004636	-0.2355	0.0525	0.3825	0	242	109	3
2026-02-12	16:39:03.250	-50.995	-11.025	-19.6	0.826916	0.475312	0.021472	-0.2385	0.045	0.387	0	242	109	3
2026-02-12	16:39:03.270	-44.765	-10.22	-17.08	0.831308	0.47458	0.019276	-0.243	0.0465	0.3795	0	242	109	3
2026-02-12	16:39:03.290	-37.52	-8.89	-13.755	0.838384	0.45384	0.01342	-0.231	0.045	0.384	0	242	109	3
2026-02-12	16:39:03.310	-29.75	-7.455	-9.31	0.857172	0.459208	0.016348	-0.237	0.036	0.381	0	242	109	3
2026-02-12	16:39:03.330	-24.115	-5.845	-4.795	0.860832	0.449692	0.02196	-0.2385	0.042	0.39	0	242	109	3
2026-02-12	16:39:03.350	-19.25	-4.41	-0.56	0.84546	0.434564	0.030988	-0.2385	0.039	0.39	0	242	109	3
2026-02-12	16:39:03.370	-14.035	-3.29	5.25	0.844728	0.395768	0.051972	-0.2385	0.039	0.39	0	242	109	3
2026-02-12	16:39:03.390	-10.78	-2.66	9.52	0.867176	0.357704	0.07076	-0.237	0.0405	0.3855	0	242	109	3
2026-02-12	16:39:03.410	-7.91	-1.225	15.365	0.867176	0.304268	0.080032	-0.234	0.0435	0.384	0	247	76	3
2026-02-12	16:39:03.430	-5.11	0.28	23.135	0.866932	0.243512	0.074664	-0.231	0.0495	0.3855	0	247	76	3
2026-02-12	16:39:03.450	-0.805	1.47	32.55	0.877424	0.216184	0.080032	-0.2295	0.048	0.384	0	247	76	3
2026-02-12	16:39:03.470	2.275	2.59	42.735	0.909144	0.219356	0.100772	-0.231	0.051	0.3885	0	247	76	3
2026-02-12	16:39:03.490	3.675	4.41	52.43	0.936472	0.214476	0.116876	-0.231	0.0615	0.393	0	247	76	3
2026-02-12	16:39:03.510	3.43	6.65	60.865	0.965752	0.20496	0.1281	-0.2385	0.075	0.3975	0	247	76	3
2026-02-12	16:39:03.530	0.665	9.94	67.55	0.956724	0.203008	0.13786	-0.2385	0.0735	0.3885	0	247	76	3
2026-02-12	16:39:03.550	-5.81	13.58	71.365	0.9272	0.19764	0.155428	-0.234	0.0825	0.3915	0	247	76	3
2026-02-12	16:39:03.570	-13.545	17.465	72.45	0.891088	0.160796	0.152988	-0.234	0.0945	0.3915	0	247	76	3
2026-02-12	16:39:03.590	-14.105	18.935	74.2	1.015284	0.105408	0.107116	-0.2265	0.105	0.3765	0	247	76	3
2026-02-12	16:39:03.610	-6.3	17.22	82.95	1.31394	0.075884	0.053924	-0.2325	0.1185	0.3825	0	249	61	3
2026-02-12	16:39:03.630	4.235	14.035	103.88	1.542324	0.128832	0.057828	-0.219	0.132	0.387	0	249	61	3
2026-02-12	16:39:03.650	17.535	14.245	117.67	1.364692	0.17934	0.125172	-0.2175	0.1455	0.384	0	249	61	3
2026-02-12	16:39:03.670	31.675	8.015	119.735	1.088972	0.211792	0.199836	-0.2115	0.165	0.3795	0	249	61	3
2026-02-12	16:39:03.690	45.255	-2.275	110.67	0.902556	0.229604	0.296216	-0.207	0.177	0.378	0	249	61	3
2026-02-12	16:39:03.710	45.955	-12.25	96.005	0.852536	0.1769	0.342576	-0.204	0.1935	0.3765	0	249	61	3
2026-02-12	16:39:03.730	34.895	-21.91	83.09	0.903776	0.159576	0.339892	-0.2025	0.21	0.3735	0	249	61	3
2026-02-12	16:39:03.750	17.675	-26.95	74.27	0.967704	0.219844	0.342088	-0.2025	0.2205	0.3735	0	249	61	3
2026-02-12	16:39:03.770	-3.325	-26.705	69.65	0.987224	0.254736	0.291336	-0.1935	0.2235	0.381	0	249	61	3
2026-02-12	16:39:03.790	-17.815	-23.765	66.71	0.97112	0.244976	0.247416	-0.1845	0.228	0.3855	0	249	61	3
2026-02-12	16:39:03.810	-19.565	-19.32	64.26	0.91744	0.223748	0.244488	-0.186	0.2415	0.3915	0	249	74	3
2026-02-12	16:39:03.830	-13.16	-14.77	62.02	0.873764	0.16714	0.243756	-0.189	0.2505	0.396	0	249	74	3
2026-02-12	16:39:03.850	4.2	-11.725	58.485	0.846924	0.13176	0.250832	-0.1815	0.2595	0.3945	0	249	74	3
2026-02-12	16:39:03.870	26.705	-10.85	53.725	0.851804	0.13054	0.266204	-0.177	0.267	0.396	0	249	74	3
2026-02-12	16:39:03.890	45.745	-11.725	47.81	0.874252	0.177144	0.293288	-0.1755	0.2715	0.3975	0	249	74	3
2026-02-12	16:39:03.910	54.215	-13.58	38.675	0.899384	0.22692	0.302072	-0.174	0.2745	0.399	0	249	74	3
2026-02-12	16:39:03.930	49.525	-15.365	33.39	0.91378	0.25498	0.299388	-0.165	0.288	0.4035	0	249	74	3
2026-02-12	16:39:03.950	39.935	-17.255	28.49	0.93452	0.271816	0.305244	-0.1605	0.2925	0.3945	0	249	74	3
2026-02-12	16:39:03.970	28.035	-18.725	23.205	0.923296	0.260348	0.328912	-0.1575	0.2955	0.393	0	249	74	3
2026-02-12	16:39:03.990	20.335	-19.985	17.29	0.861808	0.233752	0.3233	-0.153	0.3	0.393	0	249	74	3
2026-02-12	16:39:04.010	17.01	-22.12	10.92	0.794708	0.216916	0.29646	-0.1605	0.3	0.3975	0	246	112	3
2026-02-12	16:39:04.030	15.19	-25.48	3.955	0.780312	0.21594	0.28182	-0.1575	0.3	0.3945	0	246	112	3
2026-02-12	16:39:04.050	10.99	-29.05	-2.905	0.868396	0.221796	0.2745	-0.159	0.297	0.3945	0	246	112	3
2026-02-12	16:39:04.070	5.845	-30.065	-9.975	0.977708	0.212036	0.25864	-0.156	0.2985	0.4005	0	246	112	3
2026-02-12	16:39:04.090	0.98	-29.855	-16.695	1.100684	0.175192	0.227408	-0.153	0.2955	0.4005	0	246	112	3
2026-02-12	16:39:04.110	-4.795	-31.22	-19.985	1.343708	0.139324	0.26108	-0.1545	0.291	0.402	0	246	112	3
2026-02-12	16:39:04.130	-14.42	-28.735	-22.295	1.569408	0.174704	0.2989	-0.1545	0.294	0.4125	0	246	112	3
2026-02-12	16:39:04.150	-27.965	-17.465	-23.975	1.649684	0.1586	0.297192	-0.156	0.2955	0.414	0	246	112	3
2026-02-12	16:39:04.170	-33.11	0.42	-32.025	1.583316	0.111508	0.149328	-0.162	0.2925	0.4155	0	246	112	3
2026-02-12	16:39:04.190	-26.11	16.275	-44.975	1.379576	0.045872	0.0061	-0.162	0.2925	0.4155	0	246	112	3
2026-02-12	16:39:04.210	-16.8	21.98	-60.865	1.186572	0.022204	-0.036356	-0.168	0.2745	0.4215	0	242	152	3
2026-02-12	16:39:04.230	-8.925	20.265	-78.12	1.044564	0.007564	0.000732	-0.1755	0.273	0.417	0	242	152	3
2026-02-12	16:39:04.250	-5.355	14.42	-93.94	1.001376	0.032208	0.057584	-0.1755	0.264	0.42	0	242	152	3
2026-02-12	16:39:04.270	-4.165	10.325	-106.19	0.997716	0.03294	0.09467199	-0.1755	0.2535	0.411	0	242	152	3
2026-02-12	16:39:04.290	-3.71	8.085	-113.155	0.992836	0.080764	0.080276	-0.186	0.237	0.411	0	242	152	3
2026-02-12	16:39:04.310	-10.43	6.86	-114.905	0.996008	0.129808	0.040504	-0.1935	0.2235	0.411	0	242	152	3
2026-02-12	16:39:04.330	-23.065	7.91	-112.595	0.994788	0.160308	0.015372	-0.207	0.204	0.4125	0	242	152	3
2026-02-12	16:39:04.350	-38.64	11.06	-107.17	1.007232	0.157624	-0.005856	-0.198	0.195	0.408	0	242	152	3
2026-02-12	16:39:04.370	-50.54	16.695	-99.61	0.999424	0.132004	-0.041724	-0.2085	0.177	0.408	0	242	152	3
2026-02-12	16:39:04.390	-54.495	22.225	-90.93	0.981124	0.076372	-0.062464	-0.21	0.1635	0.402	0	242	152	3
2026-02-12	16:39:04.410	-51.485	26.285	-81.025	0.972828	0.030012	-0.06222	-0.216	0.156	0.3945	0	239	161	3
2026-02-12	16:39:04.430	-31.92	29.75	-68.145	0.971852	0.012688	-0.05612	-0.2205	0.1485	0.387	0	239	161	3
2026-02-12	16:39:04.450	-1.54	31.85	-54.53	0.944768	0.018056	-0.068076	-0.2205	0.1485	0.387	0	239	161	3
2026-02-12	16:39:04.470	20.825	30.66	-42.875	0.924028	0.08052	-0.074664	-0.219	0.132	0.381	0	239	161	3
2026-02-12	16:39:04.490	30.66	27.615	-31.605	0.89182	0.137616	-0.08052	-0.219	0.114	0.3765	0	239	161	3
2026-02-12	16:39:04.510	31.045	23.065	-22.435	0.887184	0.185928	-0.072224	-0.219	0.1065	0.375	0	239	161	3
2026-02-12	16:39:04.530	21.28	17.5	-14.945	0.901092	0.230824	-0.054168	-0.2175	0.102	0.372	0	239	161	3
2026-02-12	16:39:04.550	4.2	12.075	-9.485	0.922808	0.253272	-0.035136	-0.2175	0.105	0.369	0	239	161	3
2026-02-12	16:39:04.570	-15.19	7.07	-5.6	0.91988	0.267424	-0.01464	-0.222	0.1065	0.366	0	239	161	3
2026-02-12	16:39:04.590	-32.375	1.995	-3.395	0.926468	0.262056	-0.00488	-0.216	0.105	0.3645	0	239	161	3
2026-02-12	16:39:04.610	-46.2	-2.835	-1.855	0.945988	0.254004	0.004148	-0.2145	0.108	0.3615	0	237	134	3
2026-02-12	16:39:04.630	-55.79	-6.79	-0.35	0.965508	0.259616	0.007808	-0.2205	0.1125	0.36	0	237	134	3
2026-02-12	16:39:04.650	-62.545	-9.345	1.365	0.982588	0.24522	0.005124	-0.216	0.1095	0.36	0	237	134	3
2026-02-12	16:39:04.670	-64.995	-11.27	3.395	0.976	0.247172	0.010004	-0.222	0.1155	0.369	0	237	134	3
2026-02-12	16:39:04.690	-65.065	-13.02	5.285	0.95892	0.224724	0.00854	-0.2175	0.108	0.3705	0	237	134	3
2026-02-12	16:39:04.710	-56.42	-15.505	8.855	0.94062	0.21594	0.0305	-0.219	0.108	0.3735	0	237	134	3
2026-02-12	16:39:04.730	-49.245	-17.29	12.145	0.935008	0.210816	0.047336	-0.2205	0.111	0.3765	0	237	134	3
2026-02-12	16:39:04.750	-41.37	-18.935	16.205	0.92964	0.215208	0.060512	-0.2175	0.1185	0.381	0	237	134	3
2026-02-12	16:39:04.770	-33.705	-20.615	21.105	0.927932	0.216916	0.070516	-0.216	0.126	0.3825	0	237	134	3
2026-02-12	16:39:04.790	-28.77	-22.225	26.81	0.945988	0.224236	0.085156	-0.216	0.129	0.3855	0	237	134	3
2026-02-12	16:39:04.810	-26.46	-23.03	33.075	0.966728	0.227652	0.099796	-0.213	0.132	0.387	0	232	99	3
2026-02-12	16:39:04.830	-25.165	-23.065	39.305	0.964776	0.226188	0.096624	-0.2175	0.1395	0.3915	0	232	99	3
2026-02-12	16:39:04.850	-24.92	-23.24	45.465	0.99186	0.22326	0.114436	-0.213	0.141	0.396	0	232	99	3
2026-02-12	16:39:04.870	-23.135	-22.225	50.47	1.0187	0.205204	0.119072	-0.2115	0.144	0.402	0	232	99	3
2026-02-12	16:39:04.890	-17.185	-20.545	54.39	1.046272	0.161528	0.108336	-0.216	0.15	0.4095	0	232	99	3
2026-02-12	16:39:04.910	-4.27	-18.27	58.38	1.06872	0.120048	0.101748	-0.2145	0.159	0.4095	0	232	99	3
2026-02-12	16:39:04.930	12.425	-15.785	61.74	1.093608	0.100284	0.101504	-0.2055	0.168	0.4125	0	232	99	3
2026-02-12	16:39:04.950	28.98	-13.02	63.945	1.119228	0.106384	0.111264	-0.201	0.1755	0.417	0	232	99	3
2026-02-12	16:39:04.970	40.985	-8.26	64.645	1.108492	0.124196	0.139568	-0.2025	0.183	0.414	0	232	99	3
2026-02-12	16:39:04.990	42.63	-2.485	63.945	1.0736	0.147132	0.169092	-0.2025	0.1875	0.4095	0	232	99	3
2026-02-12	16:39:05.010	37.24	2.17	62.965	1.120936	0.118096	0.16104	-0.2025	0.195	0.414	0	225	81	3
2026-02-12	16:39:05.030	35.91	5.495	65.065	1.337852	0.058804	0.144692	-0.192	0.216	0.4185	0	225	81	3
2026-02-12	16:39:05.050	46.445	10.36	70.49	1.54818	0.039284	0.105408	-0.189	0.2235	0.4125	0	225	81	3
2026-02-12	16:39:05.070	65.45	16.345	75.32	1.548668	0.083692	0.088816	-0.18	0.222	0.417	0	225	81	3
2026-02-12	16:39:05.090	88.235	23.975	75.81	1.120204	0.111996	0.100528	-0.183	0.243	0.3975	0	225	81	3
2026-02-12	16:39:05.110	114.17	21.07	67.97	0.776652	0.142252	0.130052	-0.177	0.2565	0.39	0	225	81	3
2026-02-12	16:39:05.130	124.565	11.69	57.05	0.607316	0.125416	0.17446	-0.1635	0.255	0.384	0	225	81	3
2026-02-12	16:39:05.150	117.11	0.245	44.94	0.624884	0.192028	0.247172	-0.1695	0.264	0.372	0	225	81	3
2026-02-12	16:39:05.170	87.78	-8.995	36.155	0.744932	0.253272	0.297192	-0.1575	0.261	0.3675	0	225	81	3
2026-02-12	16:39:05.190	48.23	-12.845	33.04	0.886696	0.282308	0.321592	-0.156	0.258	0.372	0	225	81	3
2026-02-12	16:39:05.210	14.28	-11.2	33.25	0.998936	0.282552	0.31354	-0.1545	0.273	0.363	0	217	86	3
2026-02-12	16:39:05.230	-8.68	-5.985	35.315	1.034804	0.20984	0.27084	-0.1545	0.2715	0.3675	0	217	86	3
2026-02-12	16:39:05.250	-10.64	0.28	38.78	0.993812	0.134688	0.22936	-0.156	0.27	0.372	0	217	86	3
2026-02-12	16:39:05.270	2.03	1.645	40.215	0.941596	0.11468	0.24766	-0.156	0.27	0.372	0	217	86	3
2026-02-12	16:39:05.290	19.25	1.015	37.45	0.902556	0.136396	0.285724	-0.153	0.291	0.3825	0	217	86	3
2026-02-12	16:39:05.310	31.325	-0.105	31.15	0.8662	0.148352	0.29646	-0.135	0.288	0.3795	0	217	86	3
2026-02-12	16:39:05.330	33.81	-1.925	22.575	0.849852	0.166896	0.292068	-0.132	0.2955	0.366	0	217	86	3
2026-02-12	16:39:05.350	27.405	-3.745	13.51	0.831064	0.1769	0.27572	-0.1335	0.294	0.3645	0	217	86	3
2026-02-12	16:39:05.370	17.885	-5.6	5.81	0.830088	0.170312	0.272792	-0.135	0.3015	0.366	0	217	86	3
2026-02-12	16:39:05.390	9.415	-7.595	0.385	0.850096	0.14274	0.275232	-0.132	0.3015	0.3645	0	217	86	3
2026-02-12	16:39:05.410	6.09	-9.03	-2.835	0.867176	0.111996	0.27572	-0.1395	0.294	0.3645	0	212	114	3
2026-02-12	16:39:05.430	6.055	-10.535	-3.745	0.862784	0.097112	0.267912	-0.132	0.303	0.366	0	212	114	3
2026-02-12	16:39:05.450	6.545	-12.6	-3.5	0.866688	0.102724	0.270596	-0.126	0.3	0.3615	0	212	114	3
2026-02-12	16:39:05.470	6.02	-14.105	-3.22	0.846192	0.106872	0.26718	-0.1275	0.3015	0.3615	0	212	114	3
2026-02-12	16:39:05.490	3.78	-16.03	-2.94	0.816424	0.113704	0.250832	-0.138	0.3045	0.378	0	212	114	3
2026-02-12	16:39:05.510	-3.815	-19.95	-2.555	0.812764	0.131272	0.246928	-0.132	0.297	0.366	0	212	114	3
2026-02-12	16:39:05.530	-14.56	-24.815	-2.66	0.865468	0.136884	0.24156	-0.132	0.297	0.366	0	212	114	3
2026-02-12	16:39:05.550	-21.385	-28.14	-4.06	0.94184	0.124928	0.230092	-0.1335	0.3	0.3705	0	212	114	3
2026-02-12	16:39:05.570	-24.535	-30.59	-7.42	0.982832	0.13176	0.221552	-0.132	0.303	0.3765	0	212	114	3
2026-02-12	16:39:05.590	-25.55	-33.25	-13.475	1.052372	0.108824	0.194224	-0.129	0.3015	0.3855	0	212	114	3
2026-02-12	16:39:05.610	-29.33	-38.71	-18.13	1.359568	0.11468	0.26352	-0.1335	0.2985	0.3945	0	208	151	3
2026-02-12	16:39:05.630	-42	-36.4	-20.685	1.615524	0.17324	0.323544	-0.135	0.3	0.399	0	208	151	3
2026-02-12	16:39:05.650	-58.59	-22.365	-23.38	1.664812	0.156648	0.317932	-0.1395	0.2985	0.4065	0	208	151	3
2026-02-12	16:39:05.670	-64.505	-6.265	-29.89	1.68482	0.093452	0.193492	-0.1365	0.2895	0.4095	0	208	151	3
2026-02-12	16:39:05.690	-51.975	10.85	-40.88	1.563552	0.009028	0.02196	-0.1335	0.288	0.4155	0	208	151	3
2026-02-12	16:39:05.710	-29.54	23.485	-56.42	1.37494	-0.061732	-0.106384	-0.141	0.285	0.4185	0	208	151	3
2026-02-12	16:39:05.730	-5.565	28.595	-75.285	1.15168	-0.133468	-0.133712	-0.1425	0.2775	0.4155	0	208	151	3
2026-02-12	16:39:05.750	16.45	22.085	-93.31	1.014308	-0.131272	-0.05246	-0.144	0.273	0.414	0	208	151	3
2026-02-12	16:39:05.770	29.715	12.285	-109.06	0.962092	-0.039284	0.061732	-0.153	0.261	0.4095	0	208	151	3
2026-02-12	16:39:05.790	32.165	3.185	-127.365	0.970632	0.088816	0.142252	-0.1575	0.252	0.4065	0	208	151	3
2026-02-12	16:39:05.810	19.74	0.035	-132.16	1.015528	0.147376	0.103212	-0.1635	0.2385	0.4035	0	208	169	3
2026-02-12	16:39:05.830	-2.135	0.07	-131.32	1.037244	0.157868	0.02806	-0.171	0.2145	0.402	0	208	169	3
2026-02-12	16:39:05.850	-26.355	3.115	-125.44	1.03578	0.130784	-0.038064	-0.177	0.2025	0.402	0	208	169	3
2026-02-12	16:39:05.870	-45.535	8.26	-115.22	1.02602	0.09394	-0.083936	-0.1845	0.1905	0.4005	0	208	169	3
2026-02-12	16:39:05.890	-52.955	13.615	-103.425	1.001376	0.080276	-0.098332	-0.1905	0.1755	0.3945	0	208	169	3
2026-02-12	16:39:05.910	-54.215	17.78	-89.53	0.970632	0.0549	-0.0793	-0.1905	0.165	0.3975	0	208	169	3
2026-02-12	16:39:05.930	-46.235	20.09	-75.04	0.927932	0.100528	-0.054168	-0.189	0.1515	0.402	0	208	169	3
2026-02-12	16:39:05.950	-31.605	19.775	-62.79	0.9028	0.141764	-0.03416	-0.189	0.141	0.3945	0	208	169	3
2026-02-12	16:39:05.970	-21.245	17.57	-52.29	0.882304	0.224968	-0.024156	-0.1905	0.1335	0.3885	0	208	169	3
2026-02-12	16:39:05.990	-20.055	14.84	-43.645	0.868396	0.287188	-0.015616	-0.192	0.1275	0.3885	0	208	169	3
2026-02-12	16:39:06.010	-25.9	12.6	-36.96	0.856196	0.341356	-0.002928	-0.198	0.1245	0.39	0	211	152	3
2026-02-12	16:39:06.030	-39.725	10.325	-32.655	0.877912	0.365756	-0.000244	-0.2025	0.1215	0.3885	0	211	152	3
2026-02-12	16:39:06.050	-49.91	8.505	-30.17	0.88572	0.38552	0.005612	-0.1965	0.1215	0.387	0	211	152	3
2026-02-12	16:39:06.070	-53.13	6.405	-28.455	0.897432	0.399672	0.009272	-0.1935	0.1215	0.3885	0	211	152	3
2026-02-12	16:39:06.090	-49.735	4.515	-27.44	0.891332	0.396988	0.016104	-0.201	0.117	0.387	0	211	152	3
2026-02-12	16:39:06.110	-42.7	2.1	-26.11	0.903776	0.415532	0.036844	-0.1995	0.111	0.3915	0	211	152	3
2026-02-12	16:39:06.130	-37.975	0.49	-25.27	0.916952	0.428952	0.053192	-0.2055	0.105	0.3885	0	211	152	3
2026-02-12	16:39:06.150	-35.21	0	-23.905	0.92476	0.446032	0.05734	-0.198	0.108	0.396	0	211	152	3
2026-02-12	16:39:06.170	-33.6	0.105	-23.275	0.90768	0.426756	0.056608	-0.207	0.099	0.393	0	211	152	3
2026-02-12	16:39:06.190	-30.38	0.35	-22.085	0.900116	0.410164	0.06344	-0.201	0.105	0.393	0	211	152	3
2026-02-12	16:39:06.210	-25.41	0.595	-20.615	0.889868	0.384788	0.059536	-0.1995	0.0945	0.3825	0	215	119	3
2026-02-12	16:39:06.230	-19.67	0.42	-18.48	0.885964	0.35868	0.05856	-0.1995	0.0945	0.393	0	215	119	3
2026-02-12	16:39:06.250	-13.51	0	-15.575	0.873032	0.348432	0.060268	-0.204	0.0915	0.4035	0	215	119	3
2026-02-12	16:39:06.270	-9.03	-0.91	-11.34	0.865224	0.337696	0.066368	-0.1995	0.0945	0.399	0	215	119	3
2026-02-12	16:39:06.290	-7.105	-2.135	-5.845	0.85766	0.320616	0.077348	-0.1965	0.0945	0.3945	0	215	119	3
2026-02-12	16:39:06.310	-6.685	-3.815	0.805	0.858148	0.30012	0.089304	-0.201	0.093	0.396	0	215	119	3
2026-02-12	16:39:06.330	-6.44	-5.95	12.81	0.880352	0.274988	0.11102	-0.198	0.09	0.405	0	215	119	3
2026-02-12	16:39:06.350	-6.02	-6.615	21.945	0.896944	0.257176	0.113216	-0.2025	0.0915	0.4065	0	215	119	3
2026-02-12	16:39:06.370	-5.775	-7.175	31.955	0.930128	0.238632	0.128832	-0.207	0.0945	0.4095	0	215	119	3
2026-02-12	16:39:06.390	-6.02	-6.86	42.28	0.964532	0.219844	0.156892	-0.201	0.096	0.4095	0	215	119	3
2026-02-12	16:39:06.410	-5.81	-5.075	52.15	0.98576	0.19154	0.16592	-0.2025	0.111	0.4125	0	218	95	3
2026-02-12	16:39:06.430	-2.835	-2.415	61.11	0.999424	0.159332	0.163724	-0.1995	0.099	0.4095	0	218	95	3
2026-02-12	16:39:06.450	2.345	0.28	68.845	1.046272	0.142984	0.159332	-0.195	0.1155	0.411	0	218	95	3
2026-02-12	16:39:06.470	9.275	3.92	74.795	1.049444	0.13786	0.155672	-0.21	0.1305	0.4065	0	218	95	3
2026-02-12	16:39:06.490	14.28	7.455	78.82	1.0187	0.141764	0.16226	-0.201	0.138	0.4125	0	218	95	3
2026-02-12	16:39:06.510	16.52	9.45	81.55	1.057252	0.130052	0.159332	-0.1875	0.1455	0.4095	0	218	95	3
2026-02-12	16:39:06.530	20.23	9.765	85.855	1.215364	0.128344	0.14762	-0.195	0.156	0.411	0	218	95	3
2026-02-12	16:39:06.550	25.165	11.445	92.225	1.310768	0.117608	0.138348	-0.192	0.165	0.411	0	218	95	3
2026-02-12	16:39:06.570	33.495	14.315	96.775	1.225124	0.116632	0.13786	-0.1875	0.183	0.4095	0	218	95	3
2026-02-12	16:39:06.590	54.39	11.585	96.285	1.070184	0.126148	0.14152	-0.1845	0.192	0.399	0	218	95	3
2026-02-12	16:39:06.610	76.02	3.08	92.015	0.99674	0.150792	0.167872	-0.1845	0.192	0.399	0	218	93	3
2026-02-12	16:39:06.630	81.41	-5.915	87.955	1.031632	0.168604	0.213256	-0.177	0.21	0.4005	0	218	93	3
2026-02-12	16:39:06.650	75.46	-13.405	86.765	1.053836	0.21716	0.260104	-0.168	0.2295	0.396	0	218	93	3
2026-02-12	16:39:06.670	58.835	-18.795	89.635	1.020896	0.265228	0.269864	-0.165	0.237	0.3885	0	218	93	3
2026-02-12	16:39:06.690	36.96	-21.945	94.43	0.938668	0.324764	0.285724	-0.1575	0.249	0.384	0	218	93	3
2026-02-12	16:39:06.710	12.81	-23.94	98.42	0.830576	0.322812	0.282308	-0.147	0.2655	0.387	0	218	93	3
2026-02-12	16:39:06.730	-8.715	-26.74	101.22	0.772992	0.310124	0.2989	-0.141	0.276	0.3975	0	218	93	3
2026-02-12	16:39:06.750	-25.76	-29.435	102.9	0.747616	0.270352	0.337696	-0.1365	0.2835	0.4035	0	218	93	3
2026-02-12	16:39:06.770	-31.115	-31.185	102.55	0.773968	0.23912	0.349652	-0.129	0.294	0.405	0	218	93	3
2026-02-12	16:39:06.790	-26.39	-31.885	100.905	0.818132	0.203008	0.337696	-0.1215	0.3045	0.414	0	218	93	3
2026-02-12	16:39:06.810	-13.055	-32.2	98.42	0.885232	0.202276	0.317932	-0.111	0.3165	0.4185	0	215	114	3
2026-02-12	16:39:06.830	2.03	-31.745	95.515	0.929152	0.199836	0.294996	-0.1005	0.3225	0.42	0	215	114	3
2026-02-12	16:39:06.850	16.59	-31.01	90.265	0.965508	0.216428	0.29158	-0.093	0.3315	0.42	0	215	114	3
2026-02-12	16:39:06.870	33.215	-30.59	76.265	0.976244	0.24522	0.30012	-0.09	0.342	0.4155	0	215	114	3
2026-02-12	16:39:06.890	39.935	-30.835	63.595	0.935008	0.273036	0.303536	-0.09	0.342	0.4155	0	215	114	3
2026-02-12	16:39:06.910	43.96	-33.495	47.145	0.939644	0.283528	0.313052	-0.0645	0.366	0.4305	0	215	114	3
2026-02-12	16:39:06.930	44.765	-35.525	27.09	0.939156	0.290604	0.294996	-0.06	0.366	0.4275	0	215	114	3
2026-02-12	16:39:06.950	38.64	-40.215	5.635	1.086044	0.28792	0.295728	-0.0525	0.3675	0.4245	0	215	114	3
2026-02-12	16:39:06.970	12.04	-45.675	-13.23	1.570872	0.349408	0.446032	-0.051	0.3705	0.426	0	215	114	3
2026-02-12	16:39:06.990	-35.14	-35.945	-28.07	1.904176	0.388692	0.501176	-0.0495	0.369	0.432	0	215	114	3
2026-02-12	16:39:07.010	-70.84	-9.17	-45.08	1.752652	0.198616	0.33062	-0.0555	0.3735	0.438	0	212	153	3
2026-02-12	16:39:07.030	-69.93	11.725	-66.57	1.472784	0.010248	0.046116	-0.0615	0.3705	0.441	0	212	153	3
2026-02-12	16:39:07.050	-47.88	22.995	-85.47	1.2078	-0.207888	-0.084668	-0.066	0.36	0.4485	0	212	153	3
2026-02-12	16:39:07.070	-12.705	23.94	-102.76	0.9943	-0.287188	-0.068076	-0.078	0.3555	0.4575	0	212	153	3
2026-02-12	16:39:07.090	17.85	17.36	-118.86	0.907192	-0.258396	0.052216	-0.0915	0.342	0.4605	0	212	153	3
2026-02-12	16:39:07.110	33.04	9.205	-129.605	0.976732	-0.13298	0.208376	-0.099	0.336	0.4575	0	212	153	3
2026-02-12	16:39:07.130	40.845	7.91	-132.23	1.08824	0.084912	0.187148	-0.1035	0.327	0.456	0	212	153	3
2026-02-12	16:39:07.150	34.965	10.71	-135.52	1.141432	0.186172	0.037332	-0.105	0.315	0.4545	0	212	153	3
2026-02-12	16:39:07.170	5.18	14.105	-137.34	1.118252	0.190808	-0.013664	-0.135	0.2805	0.465	0	212	153	3
2026-02-12	16:39:07.190	-38.22	18.795	-137.235	1.087752	0.106384	-0.051972	-0.1455	0.2655	0.4605	0	212	153	3
2026-02-12	16:39:07.210	-65.415	22.96	-134.47	1.06384	0.07564	-0.058072	-0.1605	0.2445	0.4635	0	214	175	3
2026-02-12	16:39:07.230	-80.815	25.62	-128.59	1.096292	0.049288	-0.05856	-0.168	0.2295	0.4695	0	214	175	3
2026-02-12	16:39:07.250	-84.35	28.525	-120.47	1.068964	0.020496	-0.040748	-0.177	0.21	0.468	0	214	175	3
2026-02-12	16:39:07.270	-72.975	29.89	-111.23	1.037	0.027084	-0.02318	-0.189	0.1875	0.4695	0	214	175	3
2026-02-12	16:39:07.290	-53.515	29.785	-101.255	1.000156	0.063684	-0.013664	-0.1905	0.1635	0.468	0	214	175	3
2026-02-12	16:39:07.310	-33.635	27.65	-90.685	0.977708	0.132004	-0.036844	-0.183	0.1575	0.4695	0	214	175	3
2026-02-12	16:39:07.330	-22.995	23.73	-81.375	0.976732	0.194468	-0.054168	-0.201	0.135	0.4605	0	214	175	3
2026-02-12	16:39:07.350	-22.96	19.74	-73.045	0.97844	0.273036	-0.038796	-0.189	0.12	0.465	0	214	175	3
2026-02-12	16:39:07.370	-34.755	16.695	-66.535	0.978196	0.268644	-0.022204	-0.195	0.1065	0.456	0	214	175	3
2026-02-12	16:39:07.390	-41.09	15.155	-61.74	0.965752	0.31232	-0.013664	-0.1965	0.093	0.4515	0	214	175	3
2026-02-12	16:39:07.410	-47.705	12.32	-56	0.937692	0.271084	-0.013908	-0.189	0.078	0.4575	0	219	159	3
2026-02-12	16:39:07.430	-44.38	10.115	-51.59	0.924272	0.280356	-0.005612	-0.189	0.0675	0.453	0	219	159	3
2026-02-12	16:39:07.450	-38.99	7.875	-46.795	0.91012	0.27084	0.000732	-0.1935	0.0525	0.441	0	219	159	3
2026-02-12	16:39:07.470	-31.885	5.915	-41.615	0.89792	0.295728	0.000244	-0.1995	0.048	0.4335	0	219	159	3
2026-02-12	16:39:07.490	-27.79	4.375	-35.665	0.887916	0.277916	0.00854	-0.1965	0.0465	0.4335	0	219	159	3
2026-02-12	16:39:07.510	-22.645	3.115	-28.77	0.88328	0.304268	0.019276	-0.195	0.036	0.435	0	219	159	3
2026-02-12	16:39:07.530	-19.845	1.96	-20.93	0.881816	0.279624	0.03172	-0.198	0.033	0.4305	0	219	159	3
2026-02-12	16:39:07.550	-15.47	0.875	-12.74	0.862296	0.265472	0.028792	-0.2025	0.033	0.432	0	219	159	3
2026-02-12	16:39:07.570	-10.08	-1.05	-4.305	0.8601	0.25376	0.035624	-0.198	0.03	0.426	0	219	159	3
2026-02-12	16:39:07.590	-5.495	-3.64	4.48	0.867664	0.243268	0.060512	-0.192	0.0225	0.429	0	219	159	3
2026-02-12	16:39:07.610	-2.45	-5.705	14.245	0.890112	0.201788	0.082472	-0.195	0.0225	0.4185	0	223	124	3
2026-02-12	16:39:07.630	1.61	-6.195	25.515	0.902556	0.155916	0.099796	-0.1935	0.033	0.4215	0	223	124	3
2026-02-12	16:39:07.650	9.31	-5.81	37.24	0.903288	0.15128	0.09516	-0.207	0.027	0.423	0	223	124	3
2026-02-12	16:39:07.670	17.815	-5.075	50.365	0.924516	0.172752	0.098332	-0.201	0.0345	0.426	0	223	124	3
2026-02-12	16:39:07.690	20.475	-4.41	61.74	0.961848	0.181048	0.125172	-0.201	0.0345	0.426	0	223	124	3
2026-02-12	16:39:07.710	17.36	-2.555	68.6	0.992836	0.183976	0.135908	-0.198	0.0435	0.42	0	223	124	3
2026-02-12	16:39:07.730	10.36	0.105	73.36	0.995764	0.181048	0.142984	-0.195	0.06	0.417	0	223	124	3
2026-02-12	16:39:07.750	1.05	2.73	76.335	0.971852	0.174948	0.16104	-0.195	0.066	0.4215	0	223	124	3
2026-02-12	16:39:07.770	-7.175	4.935	78.33	0.987956	0.16104	0.177144	-0.198	0.0765	0.4215	0	223	124	3
2026-02-12	16:39:07.790	-8.26	5.32	82.18	1.167296	0.117608	0.136884	-0.201	0.093	0.4185	0	223	124	3
2026-02-12	16:39:07.810	-1.26	4.06	93.03	1.433744	0.10004	0.098088	-0.1995	0.1035	0.42	0	223	100	3
2026-02-12	16:39:07.830	9.625	3.675	108.08	1.520364	0.119316	0.08418	-0.1995	0.114	0.4185	0	223	100	3
2026-02-12	16:39:07.850	24.395	6.125	117.005	1.225368	0.127856	0.11102	-0.1965	0.132	0.417	0	223	100	3
2026-02-12	16:39:07.870	47.775	0.56	119.245	0.973316	0.163236	0.137128	-0.192	0.1455	0.4215	0	223	100	3
2026-02-12	16:39:07.890	67.69	-9.695	113.785	0.818376	0.195688	0.203252	-0.1905	0.1605	0.42	0	223	100	3
2026-02-12	16:39:07.910	70.77	-22.12	105.385	0.848144	0.18666	0.28914	-0.1875	0.18	0.4185	0	223	100	3
2026-02-12	16:39:07.930	59.01	-31.745	98.98	0.9394	0.210816	0.32818	-0.18	0.1935	0.4185	0	223	100	3
2026-02-12	16:39:07.950	26.6	-36.12	96.005	1.037	0.29158	0.354776	-0.1755	0.1995	0.4185	0	223	100	3
2026-02-12	16:39:07.970	3.885	-33.985	96.74	1.003816	0.329644	0.296704	-0.1755	0.1995	0.4185	0	223	100	3
2026-02-12	16:39:07.990	-15.225	-32.83	96.81	0.945988	0.307928	0.271328	-0.1605	0.234	0.4335	0	223	100	3
2026-02-12	16:39:08.010	-28.77	-31.5	96.39	0.902068	0.266204	0.310612	-0.162	0.2505	0.4425	0	222	104	3
2026-02-12	16:39:08.030	-30.205	-29.995	93.73	0.892064	0.186416	0.358924	-0.1485	0.2535	0.4455	0	222	104	3
2026-02-12	16:39:08.050	-15.12	-28.14	87.325	0.884744	0.155184	0.375516	-0.1455	0.258	0.4485	0	222	104	3
2026-02-12	16:39:08.070	7.21	-27.16	80.745	0.887672	0.144204	0.362096	-0.1395	0.2655	0.453	0	222	104	3
2026-02-12	16:39:08.090	29.855	-26.67	72.38	0.900116	0.177876	0.360632	-0.129	0.279	0.453	0	222	104	3
2026-02-12	16:39:08.110	42.84	-26.285	62.72	0.936472	0.215208	0.3477	-0.1215	0.291	0.456	0	222	104	3
2026-02-12	16:39:08.130	48.405	-25.235	51.345	0.944524	0.241072	0.353312	-0.12	0.297	0.453	0	222	104	3
2026-02-12	16:39:08.150	49.035	-24.115	39.41	0.935984	0.265472	0.365512	-0.1185	0.3075	0.444	0	222	104	3
2026-02-12	16:39:08.170	46.585	-23.24	28.35	0.89914	0.284504	0.360632	-0.1185	0.309	0.4425	0	222	104	3
2026-02-12	16:39:08.190	41.93	-23.87	18.025	0.896456	0.282552	0.34404	-0.114	0.312	0.4455	0	222	104	3
2026-02-12	16:39:08.210	31.01	-25.55	3.745	0.93574	0.284016	0.339404	-0.111	0.315	0.444	0	219	139	3
2026-02-12	16:39:08.230	20.09	-26.39	-14	0.98088	0.22692	0.299876	-0.1125	0.315	0.4455	0	219	139	3
2026-02-12	16:39:08.250	14.595	-28.805	-29.19	1.142408	0.21594	0.288896	-0.1155	0.321	0.447	0	219	139	3
2026-02-12	16:39:08.270	-4.165	-32.34	-39.9	1.521096	0.22204	0.381128	-0.1155	0.3195	0.45	0	219	139	3
2026-02-12	16:39:08.290	-32.76	-23.1	-46.375	1.732156	0.282552	0.421144	-0.1125	0.306	0.447	0	219	139	3
2026-02-12	16:39:08.310	-56.735	-3.255	-56	1.703364	0.227652	0.302804	-0.1305	0.303	0.447	0	219	139	3
2026-02-12	16:39:08.330	-58.695	15.435	-70.77	1.553792	0.138348	0.084424	-0.1335	0.2985	0.45	0	219	139	3
2026-02-12	16:39:08.350	-47.18	28.875	-88.375	1.350296	0.075396	-0.024156	-0.138	0.288	0.453	0	219	139	3
2026-02-12	16:39:08.370	-36.085	34.16	-108.115	1.16022	0.033672	-0.036356	-0.1425	0.279	0.4485	0	219	139	3
2026-02-12	16:39:08.390	-26.67	31.325	-128.59	1.042368	-0.034404	-0.00732	-0.156	0.261	0.4455	0	219	139	3
2026-02-12	16:39:08.410	-18.2	24.185	-144.9	1.057984	-0.05002	0.047824	-0.168	0.249	0.438	0	218	177	3
2026-02-12	16:39:08.430	-7.665	19.46	-156.065	1.100684	0.005612	0.072956	-0.1755	0.2385	0.4335	0	218	177	3
2026-02-12	16:39:08.450	3.815	17.22	-162.96	1.126792	0.078568	0.065148	-0.195	0.2145	0.4335	0	218	177	3
2026-02-12	16:39:08.470	9.1	17.57	-164.78	1.11752	0.128832	0.013176	-0.1995	0.1935	0.423	0	218	177	3
2026-02-12	16:39:08.490	6.65	18.41	-160.3	1.145824	0.13298	-0.046848	-0.204	0.168	0.429	0	218	177	3
2026-02-12	16:39:08.510	-1.75	21.21	-153.125	1.124108	0.10858	-0.08174	-0.2145	0.144	0.4215	0	218	177	3
2026-02-12	16:39:08.530	-10.22	24.64	-143.71	1.06506	0.06954	-0.087352	-0.2205	0.1095	0.4095	0	218	177	3
2026-02-12	16:39:08.550	-16.66	27.195	-131.32	0.991616	0.053192	-0.080764	-0.222	0.0945	0.399	0	218	177	3
2026-02-12	16:39:08.570	-18.2	27.755	-116.655	0.947208	0.076616	-0.099796	-0.225	0.0795	0.3975	0	218	177	3
2026-02-12	16:39:08.590	-14.385	25.41	-100.765	0.96136	0.133956	-0.086132	-0.2295	0.0615	0.393	0	218	177	3
2026-02-12	16:39:08.610	-13.23	22.26	-84.525	0.994544	0.156404	-0.048068	-0.2295	0.048	0.384	0	221	177	3
2026-02-12	16:39:08.630	-11.865	20.23	-69.825	0.978928	0.19154	-0.04392	-0.222	0.0405	0.3825	0	221	177	3
2026-02-12	16:39:08.650	-8.925	17.395	-58.52	0.945012	0.210572	-0.050996	-0.2265	0.03	0.3795	0	221	177	3
2026-02-12	16:39:08.670	-5.215	13.65	-50.12	0.89548	0.248636	-0.05856	-0.2295	0.0285	0.381	0	221	177	3
2026-02-12	16:39:08.690	-6.37	8.995	-43.12	0.85034	0.290116	-0.052216	-0.234	0.0135	0.378	0	221	177	3
2026-02-12	16:39:08.710	-12.53	3.57	-36.54	0.815448	0.291336	-0.04392	-0.234	0.009	0.3735	0	221	177	3
2026-02-12	16:39:08.730	-21.14	-2.835	-30.135	0.800076	0.329644	-0.019764	-0.228	0.0015	0.366	0	221	177	3
2026-02-12	16:39:08.750	-33.845	-9.73	-21.735	0.804712	0.364536	0.001952	-0.231	-0.003	0.3705	0	221	177	3
2026-02-12	16:39:08.770	-44.625	-15.33	-12.075	0.809348	0.377956	0.016592	-0.231	-0.003	0.3705	0	221	177	3
2026-02-12	16:39:08.790	-49.77	-18.655	-3.605	0.820328	0.371856	0.020984	-0.228	-0.0075	0.3675	0	221	177	3
2026-02-12	16:39:08.810	-51.695	-21.385	5.46	0.828136	0.368196	0.032208	-0.2235	-0.0075	0.369	0	224	141	3
2026-02-12	16:39:08.830	-51.31	-24.01	14.91	0.837896	0.366976	0.055876	-0.225	-0.0075	0.372	0	224	141	3
2026-02-12	16:39:08.850	-51.1	-25.76	24.36	0.842044	0.37576	0.090524	-0.231	-0.0075	0.375	0	224	141	3
2026-02-12	16:39:08.870	-52.29	-26.075	32.585	0.862784	0.367708	0.13542	-0.2295	-0.003	0.3795	0	224	141	3
2026-02-12	16:39:08.890	-51.87	-23.8	38.57	0.85888	0.342576	0.141032	-0.2235	0.0015	0.381	0	224	141	3
2026-02-12	16:39:08.910	-48.93	-20.65	43.12	0.846436	0.30256	0.11834	-0.225	0.0105	0.3795	0	224	141	3
2026-02-12	16:39:08.930	-44.45	-18.935	47.495	0.846192	0.271328	0.095648	-0.2265	0.0135	0.381	0	224	141	3
2026-02-12	16:39:08.950	-40.32	-18.585	52.395	0.872544	0.24644	0.09882	-0.231	0.021	0.384	0	224	141	3
2026-02-12	16:39:08.970	-35.665	-18.375	58.03	0.924028	0.2318	0.133956	-0.2325	0.0315	0.387	0	224	141	3
2026-02-12	16:39:08.990	-31.78	-17.255	64.505	0.957212	0.2196	0.165432	-0.2295	0.0375	0.3915	0	224	141	3
2026-02-12	16:39:09.010	-26.285	-15.4	71.505	0.96746	0.19764	0.166408	-0.2295	0.0465	0.3945	0	227	109	3
2026-02-12	16:39:09.030	-12.18	-13.825	81.55	1.016504	0.143716	0.161528	-0.2295	0.0555	0.396	0	227	109	3
2026-02-12	16:39:09.050	0.42	-11.935	86.625	1.035536	0.142008	0.164944	-0.2295	0.075	0.399	0	227	109	3
2026-02-12	16:39:09.070	9.135	-9.38	89.495	1.013576	0.14884	0.18178	-0.2295	0.0825	0.402	0	227	109	3
2026-02-12	16:39:09.090	12.565	-6.93	90.37	1.007232	0.155428	0.197884	-0.231	0.0975	0.4035	0	227	109	3
2026-02-12	16:39:09.110	11.445	-4.445	89.95	1.085068	0.131028	0.194956	-0.228	0.117	0.4095	0	227	109	3
2026-02-12	16:39:09.130	11.97	-1.54	91.875	1.263676	0.079788	0.171044	-0.2325	0.117	0.411	0	227	109	3
2026-02-12	16:39:09.150	18.655	2.275	98.56	1.447896	0.052216	0.123708	-0.228	0.138	0.408	0	227	109	3
2026-02-12	16:39:09.170	35.875	6.58	105.595	1.524024	0.0854	0.083692	-0.2205	0.1485	0.408	0	227	109	3
2026-02-12	16:39:09.190	56.28	12.635	109.13	1.286124	0.127612	0.061244	-0.2205	0.168	0.4095	0	227	109	3
2026-02-12	16:39:09.210	74.69	9.73	106.295	1.037244	0.143716	0.107116	-0.2175	0.177	0.4035	0	228	101	3
2026-02-12	16:39:09.230	86.59	0.56	96.95	0.90646	0.213256	0.233508	-0.213	0.195	0.4005	0	228	101	3
2026-02-12	16:39:09.250	79.625	-8.82	85.05	0.914512	0.19032	0.342088	-0.2085	0.207	0.396	0	228	101	3
2026-02-12	16:39:09.270	63.49	-15.855	75.11	0.972096	0.210816	0.36478	-0.201	0.2175	0.3915	0	228	101	3
2026-02-12	16:39:09.290	38.22	-18.34	69.23	1.01626	0.260348	0.329644	-0.195	0.2265	0.393	0	228	101	3
2026-02-12	16:39:09.310	16.835	-16.485	67.9	0.964288	0.269864	0.258152	-0.195	0.2265	0.393	0	228	101	3
2026-02-12	16:39:09.330	9.275	-14.84	67.025	0.909632	0.244	0.245464	-0.1875	0.24	0.396	0	228	101	3
2026-02-12	16:39:09.350	8.54	-13.195	66.045	0.862296	0.201056	0.259372	-0.186	0.255	0.3915	0	228	101	3
2026-02-12	16:39:09.370	16.03	-11.445	63.21	0.814472	0.170312	0.282796	-0.18	0.267	0.402	0	228	101	3
2026-02-12	16:39:09.390	30.03	-10.36	58.17	0.790072	0.164212	0.290848	-0.168	0.2775	0.402	0	228	101	3
2026-02-12	16:39:09.410	45.255	-10.5	51.275	0.791048	0.189588	0.287676	-0.171	0.276	0.396	0	227	118	3
2026-02-12	16:39:09.430	53.165	-11.585	43.365	0.826428	0.222772	0.279624	-0.1635	0.294	0.396	0	227	118	3
2026-02-12	16:39:09.450	53.165	-12.845	34.65	0.87718	0.243024	0.289384	-0.153	0.291	0.39	0	227	118	3
2026-02-12	16:39:09.470	47.425	-13.72	25.725	0.914024	0.253028	0.306464	-0.1575	0.294	0.393	0	227	118	3
2026-02-12	16:39:09.490	39.06	-14.525	17.675	0.931836	0.23912	0.323544	-0.1545	0.3045	0.387	0	227	118	3
2026-02-12	16:39:09.510	34.335	-15.61	10.325	0.928664	0.225212	0.323544	-0.162	0.2985	0.3915	0	227	118	3
2026-02-12	16:39:09.530	33.215	-17.115	2.66	0.88816	0.190076	0.31354	-0.156	0.3	0.387	0	227	118	3
2026-02-12	16:39:09.550	33.11	-19.425	-2.555	0.844484	0.178608	0.300364	-0.153	0.303	0.384	0	227	118	3
2026-02-12	16:39:09.570	26.915	-24.29	-7.175	0.84546	0.159088	0.284016	-0.153	0.303	0.384	0	227	118	3
2026-02-12	16:39:09.590	22.715	-27.3	-9.905	0.923052	0.166896	0.277428	-0.153	0.3015	0.3855	0	227	118	3
2026-02-12	16:39:09.610	13.93	-29.085	-13.09	0.99186	0.132492	0.249612	-0.1545	0.2955	0.393	0	225	154	3
2026-02-12	16:39:09.630	4.62	-32.2	-15.925	1.131428	0.094184	0.238632	-0.156	0.2895	0.396	0	225	154	3
2026-02-12	16:39:09.650	-13.51	-37.625	-15.82	1.480592	0.118828	0.333792	-0.159	0.291	0.3975	0	225	154	3
2026-02-12	16:39:09.670	-38.815	-32.725	-16.415	1.724348	0.150792	0.412604	-0.1605	0.2925	0.402	0	225	154	3
2026-02-12	16:39:09.690	-54.845	-15.085	-20.265	1.642364	0.06222	0.345016	-0.162	0.288	0.4125	0	225	154	3
2026-02-12	16:39:09.710	-46.235	0.21	-31.745	1.436916	-0.007808	0.168116	-0.1635	0.288	0.417	0	225	154	3
2026-02-12	16:39:09.730	-28.875	7.805	-46.48	1.281	-0.037576	0.055632	-0.165	0.288	0.4155	0	225	154	3
2026-02-12	16:39:09.750	-16.45	11.2	-64.89	1.138992	-0.046604	0.060512	-0.174	0.2775	0.414	0	225	154	3
2026-02-12	16:39:09.770	-9.205	10.955	-84.735	1.061644	-0.017324	0.118828	-0.18	0.267	0.4095	0	225	154	3
2026-02-12	16:39:09.790	-8.085	9.625	-101.15	1.054812	0.038308	0.172508	-0.1785	0.2625	0.411	0	225	154	3
2026-02-12	16:39:09.810	-11.9	10.115	-112.665	1.063352	0.08686399	0.176412	-0.1875	0.2535	0.4035	0	223	185	3
2026-02-12	16:39:09.830	-17.955	13.545	-121.24	1.03944	0.127124	0.1281	-0.195	0.231	0.4125	0	223	185	3
2026-02-12	16:39:09.850	-28.14	17.5	-124.32	1.005524	0.136884	0.07686	-0.198	0.2175	0.417	0	223	185	3
2026-02-12	16:39:09.870	-39.55	20.65	-122.22	0.976976	0.12688	0.058804	-0.21	0.195	0.411	0	223	185	3
2026-02-12	16:39:09.890	-49.07	23.765	-116.27	0.96502	0.159576	0.055632	-0.219	0.177	0.4005	0	223	185	3
2026-02-12	16:39:09.910	-56.28	26.775	-108.325	1.030168	0.14762	0.06344	-0.222	0.162	0.3975	0	223	185	3
2026-02-12	16:39:09.930	-54.11	31.01	-99.645	1.111664	0.149084	0.059536	-0.225	0.15	0.39	0	223	185	3
2026-02-12	16:39:09.950	-43.05	35.595	-91.35	1.148508	0.16592	0.029524	-0.225	0.132	0.3825	0	223	185	3
