yyyy-MM-dd	HH:mm:ss.fff	gyrX	gyrY	gyrZ	accX	accY	accZ	magX	magY	magZ	Marker	Energy	Angle	Classification
2026-02-12	15:44:11.010	-39.515	41.475	54.705	0.918172	-0.147132	0.360388	0.033	0.6225	-0.0105	0	155	163	3
2026-02-12	15:44:11.030	-37.31	43.155	50.12	0.892308	-0.142252	0.365268	0.0375	0.636	-0.009	0	155	163	3
2026-02-12	15:44:11.050	-37.38	41.58	43.855	0.874984	-0.122	0.337208	0.0375	0.6525	-0.012	0	155	163	3
2026-02-12	15:44:11.070	-39.725	37.52	35.385	0.871812	-0.138836	0.328668	0.042	0.657	-0.021	0	155	163	3
2026-02-12	15:44:11.090	-37.275	32.97	25.34	0.864004	-0.169092	0.347456	0.0465	0.6675	-0.0285	0	155	163	3
2026-02-12	15:44:11.110	-27.335	28.805	14.42	0.864248	-0.181292	0.384056	0.0465	0.666	-0.0345	0	155	163	3
2026-02-12	15:44:11.130	-16.135	24.885	3.465	0.850584	-0.170556	0.397964	0.048	0.6675	-0.027	0	155	163	3
2026-02-12	15:44:11.150	-8.47	19.81	-7.63	0.836676	-0.153232	0.389912	0.048	0.669	-0.0285	0	155	163	3
2026-02-12	15:44:11.170	-3.85	14.07	-19.32	0.8235	-0.149328	0.3904	0.0465	0.669	-0.027	0	155	163	3
2026-02-12	15:44:11.190	0.77	8.435	-31.08	0.813008	-0.1525	0.403088	0.045	0.6705	-0.0315	0	155	163	3
2026-02-12	15:44:11.210	6.755	2.275	-44.52	0.787144	-0.139812	0.410652	0.0465	0.666	-0.0375	0	151	202	3
2026-02-12	15:44:11.230	9.38	-3.885	-57.54	0.774944	-0.12932	0.407236	0.051	0.66	-0.039	0	151	202	3
2026-02-12	15:44:11.250	8.96	-8.365	-67.865	0.762012	-0.1342	0.401868	0.0405	0.6435	-0.0405	0	151	202	3
2026-02-12	15:44:11.270	7.98	-12.915	-77.7	0.76616	-0.139324	0.383812	0.039	0.6375	-0.036	0	151	202	3
2026-02-12	15:44:11.290	6.125	-18.34	-86.835	0.778116	-0.157624	0.360388	0.033	0.627	-0.0405	0	151	202	3
2026-02-12	15:44:11.310	5.915	-24.325	-94.675	0.793488	-0.168604	0.332572	0.039	0.612	-0.036	0	151	202	3
2026-02-12	15:44:11.330	7.14	-33.705	-103.81	0.924028	-0.17934	0.338184	0.0375	0.5925	-0.03	0	151	202	3
2026-02-12	15:44:11.350	13.16	-39.375	-115.5	1.030412	-0.247904	0.42212	0.039	0.588	-0.033	0	151	202	3
2026-02-12	15:44:11.370	23.695	-39.935	-120.085	1.047492	-0.285968	0.463844	0.03	0.57	-0.015	0	151	202	3
2026-02-12	15:44:11.390	35.49	-38.675	-120.33	1.04798	-0.273524	0.463356	0.0345	0.558	-0.015	0	151	202	3
2026-02-12	15:44:11.410	41.37	-33.915	-116.515	1.014308	-0.263032	0.442372	0.0345	0.5355	-0.0105	0	149	247	3
2026-02-12	15:44:11.430	39.305	-25.41	-103.74	0.94306	-0.248636	0.376492	0.03	0.525	-0.006	0	149	247	3
2026-02-12	15:44:11.450	30.975	-22.575	-91.805	0.915244	-0.230092	0.337696	0.03	0.525	-0.006	0	149	247	3
2026-02-12	15:44:11.470	23.94	-21.35	-77.91	0.901092	-0.22082	0.320372	0.03	0.48	0.006	0	149	247	3
2026-02-12	15:44:11.490	21.42	-22.155	-64.47	0.921832	-0.21228	0.326228	0.0375	0.4725	0.0015	0	149	247	3
2026-02-12	15:44:11.510	20.3	-23.17	-51.695	0.964776	-0.194468	0.351116	0.036	0.4695	0.0105	0	149	247	3
2026-02-12	15:44:11.530	13.44	-23.345	-39.445	0.994544	-0.182024	0.36966	0.0255	0.45	0.0105	0	149	247	3
2026-02-12	15:44:11.550	-2.835	-23.065	-28.245	0.99308	-0.180804	0.375028	0.0495	0.444	0.0105	0	149	247	3
2026-02-12	15:44:11.570	-24.745	-22.26	-18.305	0.980148	-0.20374	0.36722	0.0405	0.4455	0.027	0	149	247	3
2026-02-12	15:44:11.590	-42.105	-21.84	-9.66	0.960384	-0.217648	0.363316	0.0435	0.441	0.027	0	149	247	3
2026-02-12	15:44:11.610	-55.895	-22.33	-2.765	0.941352	-0.233996	0.356972	0.0435	0.4365	0.0255	0	148	285	3
2026-02-12	15:44:11.630	-64.085	-23.065	3.465	0.93696	-0.264984	0.360876	0.0435	0.435	0.0285	0	148	285	3
2026-02-12	15:44:11.650	-61.425	-23.765	12.285	0.931348	-0.298412	0.360876	0.0465	0.4335	0.0315	0	148	285	3
2026-02-12	15:44:11.670	-54.25	-23.45	18.515	0.904264	-0.317688	0.35258	0.0465	0.4425	0.0255	0	148	285	3
2026-02-12	15:44:11.690	-41.195	-23.065	24.815	0.899628	-0.334036	0.344772	0.0435	0.438	0.0285	0	148	285	3
2026-02-12	15:44:11.710	-22.33	-22.435	30.8	0.914756	-0.334036	0.352824	0.0375	0.4455	0.03	0	148	285	3
2026-02-12	15:44:11.730	-1.54	-21.175	36.12	0.966972	-0.30622	0.39284	0.0375	0.444	0.0435	0	148	285	3
2026-02-12	15:44:11.750	18.9	-17.115	39.13	0.984784	-0.181536	0.49898	0.0345	0.4605	0.036	0	148	285	3
2026-02-12	15:44:11.770	34.23	-21.7	44.345	1.093608	0.254004	0.565836	0.042	0.462	0.0315	0	148	285	3
2026-02-12	15:44:11.790	46.165	-16.45	45.535	1.080676	0.265228	0.55632	0.033	0.462	0.0465	0	148	285	3
2026-02-12	15:44:11.810	44.485	-10.885	34.79	0.990884	0.289628	0.49532	0.0315	0.4665	0.0465	0	146	315	3
2026-02-12	15:44:11.830	28.77	5.705	11.515	0.891576	0.080032	0.417484	0.03	0.477	0.048	0	146	315	3
2026-02-12	15:44:11.850	31.92	24.15	-8.155	0.9394	-0.121268	0.41236	0.0285	0.477	0.051	0	146	315	3
2026-02-12	15:44:11.870	43.715	26.705	-8.715	0.95526	-0.079544	0.37576	0.027	0.4725	0.0525	0	146	315	3
2026-02-12	15:44:11.890	21.735	28.42	-2.17	0.977952	-0.095648	0.353068	0.0285	0.486	0.0435	0	146	315	3
2026-02-12	15:44:11.910	-16.73	30.205	2.485	0.965752	-0.0671	0.323544	0.039	0.48	0.0315	0	146	315	3
2026-02-12	15:44:11.930	-47.18	28.98	6.65	0.97844	-0.128832	0.286212	0.0315	0.48	0.036	0	146	315	3
2026-02-12	15:44:11.950	-57.085	20.37	13.685	0.981124	-0.091988	0.269132	0.03	0.474	0.0285	0	146	315	3
2026-02-12	15:44:11.970	-71.435	16.94	16.1	0.966972	-0.11956	0.249856	0.024	0.48	0.027	0	146	315	3
2026-02-12	15:44:11.990	-91	15.82	18.06	0.957212	-0.200812	0.22692	0.027	0.489	0.033	0	146	315	3
2026-02-12	15:44:10.010	-26.355	7.21	-44.485	0.928908	-0.515328	0.0488	0.0225	0.6	0.0495	0	207	170	3
2026-02-12	15:44:10.030	-20.825	8.155	-45.045	0.908412	-0.467504	0.04636	0.018	0.5985	0.048	0	207	170	3
2026-02-12	15:44:10.050	-22.75	8.435	-45.815	0.917928	-0.462868	0.050752	0.0225	0.588	0.048	0	207	170	3
2026-02-12	15:44:10.070	-23.38	9.555	-47.565	0.928176	-0.480924	0.06466	0.015	0.5925	0.0525	0	207	170	3
2026-02-12	15:44:10.090	-24.85	11.13	-48.93	0.914756	-0.474092	0.064904	0.0255	0.5745	0.051	0	207	170	3
2026-02-12	15:44:10.110	-33.88	12.425	-49.42	0.90646	-0.452864	0.064172	0.0255	0.576	0.048	0	207	170	3
2026-02-12	15:44:10.130	-52.43	14.07	-49.175	0.908656	-0.467748	0.063684	0.0255	0.57	0.048	0	207	170	3
2026-02-12	15:44:10.150	-73.99	16.31	-45.815	0.93574	-0.501908	0.061976	0.0255	0.564	0.051	0	207	170	3
2026-02-12	15:44:10.170	-77.315	18.97	-42.805	0.94672	-0.55632	0.054168	0.0195	0.5505	0.036	0	207	170	3
2026-02-12	15:44:10.190	-66.99	21.42	-38.605	0.939644	-0.565592	0.038796	0.0225	0.537	0.042	0	207	170	3
2026-02-12	15:44:10.210	-54.11	22.435	-34.09	0.931348	-0.547536	0.02196	0.0255	0.5325	0.0255	0	198	142	3
2026-02-12	15:44:10.230	-42.21	21.735	-29.715	0.933056	-0.538996	0.020984	0.0225	0.525	0.0285	0	198	142	3
2026-02-12	15:44:10.250	-30.485	19.88	-25.97	0.954528	-0.530944	0.035136	0.0315	0.5205	0.0225	0	198	142	3
2026-02-12	15:44:10.270	-17.99	17.71	-22.715	0.964532	-0.51972	0.05368	0.021	0.519	0.0165	0	198	142	3
2026-02-12	15:44:10.290	-5.88	15.575	-20.02	0.966484	-0.492148	0.069296	0.021	0.519	0.0165	0	198	142	3
2026-02-12	15:44:10.310	3.36	13.125	-18.795	0.967704	-0.465308	0.068808	0.027	0.5085	0.0165	0	198	142	3
2026-02-12	15:44:10.330	13.09	10.36	-18.935	0.975268	-0.464576	0.07686	0.027	0.51	0.018	0	198	142	3
2026-02-12	15:44:10.350	25.2	8.015	-19.845	0.966484	-0.458476	0.081252	0.027	0.51	0.012	0	198	142	3
2026-02-12	15:44:10.370	46.83	4.76	-21.105	0.919392	-0.454816	0.088328	0.027	0.5085	0.0045	0	198	142	3
2026-02-12	15:44:10.390	65.345	2.45	-22.05	0.904264	-0.466528	0.109312	0.024	0.501	0.009	0	198	142	3
2026-02-12	15:44:10.410	87.71	0.77	-22.505	0.902312	-0.472384	0.12932	0.033	0.4935	0.0135	0	186	120	3
2026-02-12	15:44:10.430	105.49	-1.085	-21.63	0.908656	-0.454816	0.1464	0.0255	0.4935	0.0135	0	186	120	3
2026-02-12	15:44:10.450	119.84	-1.925	-19.775	0.915488	-0.451644	0.1647	0.03	0.495	0.0195	0	186	120	3
2026-02-12	15:44:10.470	134.61	-1.785	-17.36	0.92964	-0.449448	0.180316	0.024	0.486	0.0105	0	186	120	3
2026-02-12	15:44:10.490	146.37	-0.735	-13.79	0.945744	-0.431392	0.19398	0.0285	0.4845	0.027	0	186	120	3
2026-02-12	15:44:10.510	152.6	0.56	-9.52	0.951356	-0.399672	0.198616	0.03	0.4785	0.027	0	186	120	3
2026-02-12	15:44:10.530	148.785	2.03	-4.97	0.968436	-0.363804	0.217404	0.024	0.477	0.027	0	186	120	3
2026-02-12	15:44:10.550	136.325	4.025	-0.28	0.964532	-0.346968	0.226432	0.024	0.483	0.0345	0	186	120	3
2026-02-12	15:44:10.570	115.85	6.3	5.775	0.955748	-0.31476	0.236436	0.027	0.48	0.042	0	186	120	3
2026-02-12	15:44:10.590	93.975	7.875	11.76	0.941352	-0.297192	0.242048	0.0285	0.4725	0.042	0	186	120	3
2026-02-12	15:44:10.610	77.035	8.435	16.59	0.927688	-0.291092	0.240828	0.033	0.4845	0.0435	0	173	116	3
2026-02-12	15:44:10.630	62.44	8.54	21.385	0.931836	-0.296216	0.238876	0.0345	0.486	0.045	0	173	116	3
2026-02-12	15:44:10.650	52.64	8.54	25.935	0.935008	-0.312076	0.240584	0.024	0.4875	0.039	0	173	116	3
2026-02-12	15:44:10.670	50.925	8.68	30.205	0.940864	-0.323056	0.239852	0.03	0.4965	0.042	0	173	116	3
2026-02-12	15:44:10.690	54.355	8.645	33.67	0.946964	-0.321348	0.236924	0.0375	0.5025	0.0405	0	173	116	3
2026-02-12	15:44:10.710	58.415	8.785	36.575	0.959652	-0.310612	0.235948	0.021	0.51	0.0435	0	173	116	3
2026-02-12	15:44:10.730	61.18	8.785	38.85	0.977464	-0.302804	0.228384	0.024	0.522	0.051	0	173	116	3
2026-02-12	15:44:10.750	63.77	9.205	40.565	1.022848	-0.300608	0.2379	0.0285	0.5205	0.0435	0	173	116	3
2026-02-12	15:44:10.770	68.495	10.745	42.105	1.070916	-0.292556	0.242536	0.03	0.5235	0.0375	0	173	116	3
2026-02-12	15:44:10.790	73.08	14.035	44.66	1.036268	-0.256932	0.241804	0.027	0.5265	0.039	0	173	116	3
2026-02-12	15:44:10.810	69.23	16.415	48.86	1.011624	-0.205204	0.284992	0.027	0.5265	0.039	0	163	132	3
2026-02-12	15:44:10.830	67.095	18.83	51.555	0.982344	-0.198372	0.26718	0.027	0.555	0.0315	0	163	132	3
2026-02-12	15:44:10.850	63.42	21.84	54.53	0.993568	-0.19642	0.2745	0.03	0.555	0.0375	0	163	132	3
2026-02-12	15:44:10.870	58.66	26.355	57.19	1.015284	-0.170312	0.281088	0.027	0.5715	0.033	0	163	132	3
2026-02-12	15:44:10.890	47.95	30.17	60.41	0.998936	-0.132004	0.262056	0.0225	0.579	0.0255	0	163	132	3
2026-02-12	15:44:10.910	31.36	32.725	62.615	0.984052	-0.116876	0.261812	0.024	0.5865	0.0225	0	163	132	3
2026-02-12	15:44:10.930	15.54	36.96	63.315	0.99186	-0.121756	0.300364	0.024	0.597	0.0255	0	163	132	3
2026-02-12	15:44:10.950	4.34	41.3	63.385	0.98698	-0.116876	0.316224	0.024	0.6045	0.015	0	163	132	3
2026-02-12	15:44:10.970	-9.415	41.615	63.07	0.964044	-0.088084	0.300364	0.024	0.6075	0.0105	0	163	132	3
2026-02-12	15:44:10.990	-26.775	40.04	60.69	0.938424	-0.097844	0.293776	0.0285	0.6165	-0.0015	0	163	132	3
2026-02-12	15:44:11.010	-39.515	41.475	54.705	0.918172	-0.147132	0.360388	0.033	0.6225	-0.0105	0	155	163	3
2026-02-12	15:44:11.030	-37.31	43.155	50.12	0.892308	-0.142252	0.365268	0.0375	0.636	-0.009	0	155	163	3
2026-02-12	15:44:11.050	-37.38	41.58	43.855	0.874984	-0.122	0.337208	0.0375	0.6525	-0.012	0	155	163	3
2026-02-12	15:44:11.070	-39.725	37.52	35.385	0.871812	-0.138836	0.328668	0.042	0.657	-0.021	0	155	163	3
2026-02-12	15:44:11.090	-37.275	32.97	25.34	0.864004	-0.169092	0.347456	0.0465	0.6675	-0.0285	0	155	163	3
2026-02-12	15:44:11.110	-27.335	28.805	14.42	0.864248	-0.181292	0.384056	0.0465	0.666	-0.0345	0	155	163	3
2026-02-12	15:44:11.130	-16.135	24.885	3.465	0.850584	-0.170556	0.397964	0.048	0.6675	-0.027	0	155	163	3
2026-02-12	15:44:11.150	-8.47	19.81	-7.63	0.836676	-0.153232	0.389912	0.048	0.669	-0.0285	0	155	163	3
2026-02-12	15:44:11.170	-3.85	14.07	-19.32	0.8235	-0.149328	0.3904	0.0465	0.669	-0.027	0	155	163	3
2026-02-12	15:44:11.190	0.77	8.435	-31.08	0.813008	-0.1525	0.403088	0.045	0.6705	-0.0315	0	155	163	3
2026-02-12	15:44:11.210	6.755	2.275	-44.52	0.787144	-0.139812	0.410652	0.0465	0.666	-0.0375	0	151	202	3
2026-02-12	15:44:11.230	9.38	-3.885	-57.54	0.774944	-0.12932	0.407236	0.051	0.66	-0.039	0	151	202	3
2026-02-12	15:44:11.250	8.96	-8.365	-67.865	0.762012	-0.1342	0.401868	0.0405	0.6435	-0.0405	0	151	202	3
2026-02-12	15:44:11.270	7.98	-12.915	-77.7	0.76616	-0.139324	0.383812	0.039	0.6375	-0.036	0	151	202	3
2026-02-12	15:44:11.290	6.125	-18.34	-86.835	0.778116	-0.157624	0.360388	0.033	0.627	-0.0405	0	151	202	3
2026-02-12	15:44:11.310	5.915	-24.325	-94.675	0.793488	-0.168604	0.332572	0.039	0.612	-0.036	0	151	202	3
2026-02-12	15:44:11.330	7.14	-33.705	-103.81	0.924028	-0.17934	0.338184	0.0375	0.5925	-0.03	0	151	202	3
2026-02-12	15:44:11.350	13.16	-39.375	-115.5	1.030412	-0.247904	0.42212	0.039	0.588	-0.033	0	151	202	3
2026-02-12	15:44:11.370	23.695	-39.935	-120.085	1.047492	-0.285968	0.463844	0.03	0.57	-0.015	0	151	202	3
2026-02-12	15:44:11.390	35.49	-38.675	-120.33	1.04798	-0.273524	0.463356	0.0345	0.558	-0.015	0	151	202	3
2026-02-12	15:44:11.410	41.37	-33.915	-116.515	1.014308	-0.263032	0.442372	0.0345	0.5355	-0.0105	0	149	247	3
2026-02-12	15:44:11.430	39.305	-25.41	-103.74	0.94306	-0.248636	0.376492	0.03	0.525	-0.006	0	149	247	3
2026-02-12	15:44:11.450	30.975	-22.575	-91.805	0.915244	-0.230092	0.337696	0.03	0.525	-0.006	0	149	247	3
2026-02-12	15:44:11.470	23.94	-21.35	-77.91	0.901092	-0.22082	0.320372	0.03	0.48	0.006	0	149	247	3
2026-02-12	15:44:11.490	21.42	-22.155	-64.47	0.921832	-0.21228	0.326228	0.0375	0.4725	0.0015	0	149	247	3
2026-02-12	15:44:11.510	20.3	-23.17	-51.695	0.964776	-0.194468	0.351116	0.036	0.4695	0.0105	0	149	247	3
2026-02-12	15:44:11.530	13.44	-23.345	-39.445	0.994544	-0.182024	0.36966	0.0255	0.45	0.0105	0	149	247	3
2026-02-12	15:44:11.550	-2.835	-23.065	-28.245	0.99308	-0.180804	0.375028	0.0495	0.444	0.0105	0	149	247	3
2026-02-12	15:44:11.570	-24.745	-22.26	-18.305	0.980148	-0.20374	0.36722	0.0405	0.4455	0.027	0	149	247	3
2026-02-12	15:44:11.590	-42.105	-21.84	-9.66	0.960384	-0.217648	0.363316	0.0435	0.441	0.027	0	149	247	3
2026-02-12	15:44:11.610	-55.895	-22.33	-2.765	0.941352	-0.233996	0.356972	0.0435	0.4365	0.0255	0	148	285	3
2026-02-12	15:44:11.630	-64.085	-23.065	3.465	0.93696	-0.264984	0.360876	0.0435	0.435	0.0285	0	148	285	3
2026-02-12	15:44:11.650	-61.425	-23.765	12.285	0.931348	-0.298412	0.360876	0.0465	0.4335	0.0315	0	148	285	3
2026-02-12	15:44:11.670	-54.25	-23.45	18.515	0.904264	-0.317688	0.35258	0.0465	0.4425	0.0255	0	148	285	3
2026-02-12	15:44:11.690	-41.195	-23.065	24.815	0.899628	-0.334036	0.344772	0.0435	0.438	0.0285	0	148	285	3
2026-02-12	15:44:11.710	-22.33	-22.435	30.8	0.914756	-0.334036	0.352824	0.0375	0.4455	0.03	0	148	285	3
2026-02-12	15:44:11.730	-1.54	-21.175	36.12	0.966972	-0.30622	0.39284	0.0375	0.444	0.0435	0	148	285	3
2026-02-12	15:44:11.750	18.9	-17.115	39.13	0.984784	-0.181536	0.49898	0.0345	0.4605	0.036	0	148	285	3
2026-02-12	15:44:11.770	34.23	-21.7	44.345	1.093608	0.254004	0.565836	0.042	0.462	0.0315	0	148	285	3
2026-02-12	15:44:11.790	46.165	-16.45	45.535	1.080676	0.265228	0.55632	0.033	0.462	0.0465	0	148	285	3
2026-02-12	15:44:11.810	44.485	-10.885	34.79	0.990884	0.289628	0.49532	0.0315	0.4665	0.0465	0	146	315	3
2026-02-12	15:44:11.830	28.77	5.705	11.515	0.891576	0.080032	0.417484	0.03	0.477	0.048	0	146	315	3
2026-02-12	15:44:11.850	31.92	24.15	-8.155	0.9394	-0.121268	0.41236	0.0285	0.477	0.051	0	146	315	3
2026-02-12	15:44:11.870	43.715	26.705	-8.715	0.95526	-0.079544	0.37576	0.027	0.4725	0.0525	0	146	315	3
2026-02-12	15:44:11.890	21.735	28.42	-2.17	0.977952	-0.095648	0.353068	0.0285	0.486	0.0435	0	146	315	3
2026-02-12	15:44:11.910	-16.73	30.205	2.485	0.965752	-0.0671	0.323544	0.039	0.48	0.0315	0	146	315	3
2026-02-12	15:44:11.930	-47.18	28.98	6.65	0.97844	-0.128832	0.286212	0.0315	0.48	0.036	0	146	315	3
2026-02-12	15:44:11.950	-57.085	20.37	13.685	0.981124	-0.091988	0.269132	0.03	0.474	0.0285	0	146	315	3
2026-02-12	15:44:11.970	-71.435	16.94	16.1	0.966972	-0.11956	0.249856	0.024	0.48	0.027	0	146	315	3
2026-02-12	15:44:11.990	-91	15.82	18.06	0.957212	-0.200812	0.22692	0.027	0.489	0.033	0	146	315	3
2026-02-12	15:44:10.010	-26.355	7.21	-44.485	0.928908	-0.515328	0.0488	0.0225	0.6	0.0495	0	207	170	3
2026-02-12	15:44:10.030	-20.825	8.155	-45.045	0.908412	-0.467504	0.04636	0.018	0.5985	0.048	0	207	170	3
2026-02-12	15:44:10.050	-22.75	8.435	-45.815	0.917928	-0.462868	0.050752	0.0225	0.588	0.048	0	207	170	3
2026-02-12	15:44:10.070	-23.38	9.555	-47.565	0.928176	-0.480924	0.06466	0.015	0.5925	0.0525	0	207	170	3
2026-02-12	15:44:10.090	-24.85	11.13	-48.93	0.914756	-0.474092	0.064904	0.0255	0.5745	0.051	0	207	170	3
2026-02-12	15:44:10.110	-33.88	12.425	-49.42	0.90646	-0.452864	0.064172	0.0255	0.576	0.048	0	207	170	3
2026-02-12	15:44:10.130	-52.43	14.07	-49.175	0.908656	-0.467748	0.063684	0.0255	0.57	0.048	0	207	170	3
2026-02-12	15:44:10.150	-73.99	16.31	-45.815	0.93574	-0.501908	0.061976	0.0255	0.564	0.051	0	207	170	3
2026-02-12	15:44:10.170	-77.315	18.97	-42.805	0.94672	-0.55632	0.054168	0.0195	0.5505	0.036	0	207	170	3
2026-02-12	15:44:10.190	-66.99	21.42	-38.605	0.939644	-0.565592	0.038796	0.0225	0.537	0.042	0	207	170	3
2026-02-12	15:44:10.210	-54.11	22.435	-34.09	0.931348	-0.547536	0.02196	0.0255	0.5325	0.0255	0	198	142	3
2026-02-12	15:44:10.230	-42.21	21.735	-29.715	0.933056	-0.538996	0.020984	0.0225	0.525	0.0285	0	198	142	3
2026-02-12	15:44:10.250	-30.485	19.88	-25.97	0.954528	-0.530944	0.035136	0.0315	0.5205	0.0225	0	198	142	3
2026-02-12	15:44:10.270	-17.99	17.71	-22.715	0.964532	-0.51972	0.05368	0.021	0.519	0.0165	0	198	142	3
2026-02-12	15:44:10.290	-5.88	15.575	-20.02	0.966484	-0.492148	0.069296	0.021	0.519	0.0165	0	198	142	3
2026-02-12	15:44:10.310	3.36	13.125	-18.795	0.967704	-0.465308	0.068808	0.027	0.5085	0.0165	0	198	142	3
2026-02-12	15:44:10.330	13.09	10.36	-18.935	0.975268	-0.464576	0.07686	0.027	0.51	0.018	0	198	142	3
2026-02-12	15:44:10.350	25.2	8.015	-19.845	0.966484	-0.458476	0.081252	0.027	0.51	0.012	0	198	142	3
2026-02-12	15:44:10.370	46.83	4.76	-21.105	0.919392	-0.454816	0.088328	0.027	0.5085	0.0045	0	198	142	3
2026-02-12	15:44:10.390	65.345	2.45	-22.05	0.904264	-0.466528	0.109312	0.024	0.501	0.009	0	198	142	3
2026-02-12	15:44:10.410	87.71	0.77	-22.505	0.902312	-0.472384	0.12932	0.033	0.4935	0.0135	0	186	120	3
2026-02-12	15:44:10.430	105.49	-1.085	-21.63	0.908656	-0.454816	0.1464	0.0255	0.4935	0.0135	0	186	120	3
2026-02-12	15:44:10.450	119.84	-1.925	-19.775	0.915488	-0.451644	0.1647	0.03	0.495	0.0195	0	186	120	3
2026-02-12	15:44:10.470	134.61	-1.785	-17.36	0.92964	-0.449448	0.180316	0.024	0.486	0.0105	0	186	120	3
2026-02-12	15:44:10.490	146.37	-0.735	-13.79	0.945744	-0.431392	0.19398	0.0285	0.4845	0.027	0	186	120	3
2026-02-12	15:44:10.510	152.6	0.56	-9.52	0.951356	-0.399672	0.198616	0.03	0.4785	0.027	0	186	120	3
2026-02-12	15:44:10.530	148.785	2.03	-4.97	0.968436	-0.363804	0.217404	0.024	0.477	0.027	0	186	120	3
2026-02-12	15:44:10.550	136.325	4.025	-0.28	0.964532	-0.346968	0.226432	0.024	0.483	0.0345	0	186	120	3
2026-02-12	15:44:10.570	115.85	6.3	5.775	0.955748	-0.31476	0.236436	0.027	0.48	0.042	0	186	120	3
2026-02-12	15:44:10.590	93.975	7.875	11.76	0.941352	-0.297192	0.242048	0.0285	0.4725	0.042	0	186	120	3
2026-02-12	15:44:10.610	77.035	8.435	16.59	0.927688	-0.291092	0.240828	0.033	0.4845	0.0435	0	173	116	3
2026-02-12	15:44:10.630	62.44	8.54	21.385	0.931836	-0.296216	0.238876	0.0345	0.486	0.045	0	173	116	3
2026-02-12	15:44:10.650	52.64	8.54	25.935	0.935008	-0.312076	0.240584	0.024	0.4875	0.039	0	173	116	3
2026-02-12	15:44:10.670	50.925	8.68	30.205	0.940864	-0.323056	0.239852	0.03	0.4965	0.042	0	173	116	3
2026-02-12	15:44:10.690	54.355	8.645	33.67	0.946964	-0.321348	0.236924	0.0375	0.5025	0.0405	0	173	116	3
2026-02-12	15:44:10.710	58.415	8.785	36.575	0.959652	-0.310612	0.235948	0.021	0.51	0.0435	0	173	116	3
2026-02-12	15:44:10.730	61.18	8.785	38.85	0.977464	-0.302804	0.228384	0.024	0.522	0.051	0	173	116	3
2026-02-12	15:44:10.750	63.77	9.205	40.565	1.022848	-0.300608	0.2379	0.0285	0.5205	0.0435	0	173	116	3
2026-02-12	15:44:10.770	68.495	10.745	42.105	1.070916	-0.292556	0.242536	0.03	0.5235	0.0375	0	173	116	3
2026-02-12	15:44:10.790	73.08	14.035	44.66	1.036268	-0.256932	0.241804	0.027	0.5265	0.039	0	173	116	3
2026-02-12	15:44:10.810	69.23	16.415	48.86	1.011624	-0.205204	0.284992	0.027	0.5265	0.039	0	163	132	3
2026-02-12	15:44:10.830	67.095	18.83	51.555	0.982344	-0.198372	0.26718	0.027	0.555	0.0315	0	163	132	3
2026-02-12	15:44:10.850	63.42	21.84	54.53	0.993568	-0.19642	0.2745	0.03	0.555	0.0375	0	163	132	3
2026-02-12	15:44:10.870	58.66	26.355	57.19	1.015284	-0.170312	0.281088	0.027	0.5715	0.033	0	163	132	3
2026-02-12	15:44:10.890	47.95	30.17	60.41	0.998936	-0.132004	0.262056	0.0225	0.579	0.0255	0	163	132	3
2026-02-12	15:44:10.910	31.36	32.725	62.615	0.984052	-0.116876	0.261812	0.024	0.5865	0.0225	0	163	132	3
2026-02-12	15:44:10.930	15.54	36.96	63.315	0.99186	-0.121756	0.300364	0.024	0.597	0.0255	0	163	132	3
2026-02-12	15:44:10.950	4.34	41.3	63.385	0.98698	-0.116876	0.316224	0.024	0.6045	0.015	0	163	132	3
2026-02-12	15:44:10.970	-9.415	41.615	63.07	0.964044	-0.088084	0.300364	0.024	0.6075	0.0105	0	163	132	3
2026-02-12	15:44:10.990	-26.775	40.04	60.69	0.938424	-0.097844	0.293776	0.0285	0.6165	-0.0015	0	163	132	3
2026-02-12	15:44:11.010	-39.515	41.475	54.705	0.918172	-0.147132	0.360388	0.033	0.6225	-0.0105	0	155	163	3
2026-02-12	15:44:11.030	-37.31	43.155	50.12	0.892308	-0.142252	0.365268	0.0375	0.636	-0.009	0	155	163	3
2026-02-12	15:44:11.050	-37.38	41.58	43.855	0.874984	-0.122	0.337208	0.0375	0.6525	-0.012	0	155	163	3
2026-02-12	15:44:11.070	-39.725	37.52	35.385	0.871812	-0.138836	0.328668	0.042	0.657	-0.021	0	155	163	3
2026-02-12	15:44:11.090	-37.275	32.97	25.34	0.864004	-0.169092	0.347456	0.0465	0.6675	-0.0285	0	155	163	3
2026-02-12	15:44:11.110	-27.335	28.805	14.42	0.864248	-0.181292	0.384056	0.0465	0.666	-0.0345	0	155	163	3
2026-02-12	15:44:11.130	-16.135	24.885	3.465	0.850584	-0.170556	0.397964	0.048	0.6675	-0.027	0	155	163	3
2026-02-12	15:44:11.150	-8.47	19.81	-7.63	0.836676	-0.153232	0.389912	0.048	0.669	-0.0285	0	155	163	3
2026-02-12	15:44:11.170	-3.85	14.07	-19.32	0.8235	-0.149328	0.3904	0.0465	0.669	-0.027	0	155	163	3
2026-02-12	15:44:11.190	0.77	8.435	-31.08	0.813008	-0.1525	0.403088	0.045	0.6705	-0.0315	0	155	163	3
2026-02-12	15:44:11.210	6.755	2.275	-44.52	0.787144	-0.139812	0.410652	0.0465	0.666	-0.0375	0	151	202	3
2026-02-12	15:44:11.230	9.38	-3.885	-57.54	0.774944	-0.12932	0.407236	0.051	0.66	-0.039	0	151	202	3
2026-02-12	15:44:11.250	8.96	-8.365	-67.865	0.762012	-0.1342	0.401868	0.0405	0.6435	-0.0405	0	151	202	3
2026-02-12	15:44:11.270	7.98	-12.915	-77.7	0.76616	-0.139324	0.383812	0.039	0.6375	-0.036	0	151	202	3
2026-02-12	15:44:11.290	6.125	-18.34	-86.835	0.778116	-0.157624	0.360388	0.033	0.627	-0.0405	0	151	202	3
2026-02-12	15:44:11.310	5.915	-24.325	-94.675	0.793488	-0.168604	0.332572	0.039	0.612	-0.036	0	151	202	3
2026-02-12	15:44:11.330	7.14	-33.705	-103.81	0.924028	-0.17934	0.338184	0.0375	0.5925	-0.03	0	151	202	3
2026-02-12	15:44:11.350	13.16	-39.375	-115.5	1.030412	-0.247904	0.42212	0.039	0.588	-0.033	0	151	202	3
2026-02-12	15:44:11.370	23.695	-39.935	-120.085	1.047492	-0.285968	0.463844	0.03	0.57	-0.015	0	151	202	3
2026-02-12	15:44:11.390	35.49	-38.675	-120.33	1.04798	-0.273524	0.463356	0.0345	0.558	-0.015	0	151	202	3
2026-02-12	15:44:11.410	41.37	-33.915	-116.515	1.014308	-0.263032	0.442372	0.0345	0.5355	-0.0105	0	149	247	3
2026-02-12	15:44:11.430	39.305	-25.41	-103.74	0.94306	-0.248636	0.376492	0.03	0.525	-0.006	0	149	247	3
2026-02-12	15:44:11.450	30.975	-22.575	-91.805	0.915244	-0.230092	0.337696	0.03	0.525	-0.006	0	149	247	3
2026-02-12	15:44:11.470	23.94	-21.35	-77.91	0.901092	-0.22082	0.320372	0.03	0.48	0.006	0	149	247	3
2026-02-12	15:44:11.490	21.42	-22.155	-64.47	0.921832	-0.21228	0.326228	0.0375	0.4725	0.0015	0	149	247	3
2026-02-12	15:44:11.510	20.3	-23.17	-51.695	0.964776	-0.194468	0.351116	0.036	0.4695	0.0105	0	149	247	3
2026-02-12	15:44:11.530	13.44	-23.345	-39.445	0.994544	-0.182024	0.36966	0.0255	0.45	0.0105	0	149	247	3
2026-02-12	15:44:11.550	-2.835	-23.065	-28.245	0.99308	-0.180804	0.375028	0.0495	0.444	0.0105	0	149	247	3
2026-02-12	15:44:11.570	-24.745	-22.26	-18.305	0.980148	-0.20374	0.36722	0.0405	0.4455	0.027	0	149	247	3
2026-02-12	15:44:11.590	-42.105	-21.84	-9.66	0.960384	-0.217648	0.363316	0.0435	0.441	0.027	0	149	247	3
2026-02-12	15:44:11.610	-55.895	-22.33	-2.765	0.941352	-0.233996	0.356972	0.0435	0.4365	0.0255	0	148	285	3
2026-02-12	15:44:11.630	-64.085	-23.065	3.465	0.93696	-0.264984	0.360876	0.0435	0.435	0.0285	0	148	285	3
2026-02-12	15:44:11.650	-61.425	-23.765	12.285	0.931348	-0.298412	0.360876	0.0465	0.4335	0.0315	0	148	285	3
2026-02-12	15:44:11.670	-54.25	-23.45	18.515	0.904264	-0.317688	0.35258	0.0465	0.4425	0.0255	0	148	285	3
2026-02-12	15:44:11.690	-41.195	-23.065	24.815	0.899628	-0.334036	0.344772	0.0435	0.438	0.0285	0	148	285	3
2026-02-12	15:44:11.710	-22.33	-22.435	30.8	0.914756	-0.334036	0.352824	0.0375	0.4455	0.03	0	148	285	3
2026-02-12	15:44:11.730	-1.54	-21.175	36.12	0.966972	-0.30622	0.39284	0.0375	0.444	0.0435	0	148	285	3
2026-02-12	15:44:11.750	18.9	-17.115	39.13	0.984784	-0.181536	0.49898	0.0345	0.4605	0.036	0	148	285	3
2026-02-12	15:44:11.770	34.23	-21.7	44.345	1.093608	0.254004	0.565836	0.042	0.462	0.0315	0	148	285	3
2026-02-12	15:44:11.790	46.165	-16.45	45.535	1.080676	0.265228	0.55632	0.033	0.462	0.0465	0	148	285	3
2026-02-12	15:44:11.810	44.485	-10.885	34.79	0.990884	0.289628	0.49532	0.0315	0.4665	0.0465	0	146	315	3
2026-02-12	15:44:11.830	28.77	5.705	11.515	0.891576	0.080032	0.417484	0.03	0.477	0.048	0	146	315	3
2026-02-12	15:44:11.850	31.92	24.15	-8.155	0.9394	-0.121268	0.41236	0.0285	0.477	0.051	0	146	315	3
2026-02-12	15:44:11.870	43.715	26.705	-8.715	0.95526	-0.079544	0.37576	0.027	0.4725	0.0525	0	146	315	3
2026-02-12	15:44:11.890	21.735	28.42	-2.17	0.977952	-0.095648	0.353068	0.0285	0.486	0.0435	0	146	315	3
2026-02-12	15:44:11.910	-16.73	30.205	2.485	0.965752	-0.0671	0.323544	0.039	0.48	0.0315	0	146	315	3
2026-02-12	15:44:11.930	-47.18	28.98	6.65	0.97844	-0.128832	0.286212	0.0315	0.48	0.036	0	146	315	3
2026-02-12	15:44:11.950	-57.085	20.37	13.685	0.981124	-0.091988	0.269132	0.03	0.474	0.0285	0	146	315	3
2026-02-12	15:44:11.970	-71.435	16.94	16.1	0.966972	-0.11956	0.249856	0.024	0.48	0.027	0	146	315	3
2026-02-12	15:44:11.990	-91	15.82	18.06	0.957212	-0.200812	0.22692	0.027	0.489	0.033	0	146	315	3
2026-02-12	15:44:10.010	-26.355	7.21	-44.485	0.928908	-0.515328	0.0488	0.0225	0.6	0.0495	0	207	170	3
2026-02-12	15:44:10.030	-20.825	8.155	-45.045	0.908412	-0.467504	0.04636	0.018	0.5985	0.048	0	207	170	3
2026-02-12	15:44:10.050	-22.75	8.435	-45.815	0.917928	-0.462868	0.050752	0.0225	0.588	0.048	0	207	170	3
2026-02-12	15:44:10.070	-23.38	9.555	-47.565	0.928176	-0.480924	0.06466	0.015	0.5925	0.0525	0	207	170	3
2026-02-12	15:44:10.090	-24.85	11.13	-48.93	0.914756	-0.474092	0.064904	0.0255	0.5745	0.051	0	207	170	3
2026-02-12	15:44:10.110	-33.88	12.425	-49.42	0.90646	-0.452864	0.064172	0.0255	0.576	0.048	0	207	170	3
2026-02-12	15:44:10.130	-52.43	14.07	-49.175	0.908656	-0.467748	0.063684	0.0255	0.57	0.048	0	207	170	3
2026-02-12	15:44:10.150	-73.99	16.31	-45.815	0.93574	-0.501908	0.061976	0.0255	0.564	0.051	0	207	170	3
2026-02-12	15:44:10.170	-77.315	18.97	-42.805	0.94672	-0.55632	0.054168	0.0195	0.5505	0.036	0	207	170	3
2026-02-12	15:44:10.190	-66.99	21.42	-38.605	0.939644	-0.565592	0.038796	0.0225	0.537	0.042	0	207	170	3
2026-02-12	15:44:10.210	-54.11	22.435	-34.09	0.931348	-0.547536	0.02196	0.0255	0.5325	0.0255	0	198	142	3
2026-02-12	15:44:10.230	-42.21	21.735	-29.715	0.933056	-0.538996	0.020984	0.0225	0.525	0.0285	0	198	142	3
2026-02-12	15:44:10.250	-30.485	19.88	-25.97	0.954528	-0.530944	0.035136	0.0315	0.5205	0.0225	0	198	142	3
2026-02-12	15:44:10.270	-17.99	17.71	-22.715	0.964532	-0.51972	0.05368	0.021	0.519	0.0165	0	198	142	3
2026-02-12	15:44:10.290	-5.88	15.575	-20.02	0.966484	-0.492148	0.069296	0.021	0.519	0.0165	0	198	142	3
2026-02-12	15:44:10.310	3.36	13.125	-18.795	0.967704	-0.465308	0.068808	0.027	0.5085	0.0165	0	198	142	3
2026-02-12	15:44:10.330	13.09	10.36	-18.935	0.975268	-0.464576	0.07686	0.027	0.51	0.018	0	198	142	3
2026-02-12	15:44:10.350	25.2	8.015	-19.845	0.966484	-0.458476	0.081252	0.027	0.51	0.012	0	198	142	3
2026-02-12	15:44:10.370	46.83	4.76	-21.105	0.919392	-0.454816	0.088328	0.027	0.5085	0.0045	0	198	142	3
2026-02-12	15:44:10.390	65.345	2.45	-22.05	0.904264	-0.466528	0.109312	0.024	0.501	0.009	0	198	142	3
2026-02-12	15:44:10.410	87.71	0.77	-22.505	0.902312	-0.472384	0.12932	0.033	0.4935	0.0135	0	186	120	3
2026-02-12	15:44:10.430	105.49	-1.085	-21.63	0.908656	-0.454816	0.1464	0.0255	0.4935	0.0135	0	186	120	3
2026-02-12	15:44:10.450	119.84	-1.925	-19.775	0.915488	-0.451644	0.1647	0.03	0.495	0.0195	0	186	120	3
2026-02-12	15:44:10.470	134.61	-1.785	-17.36	0.92964	-0.449448	0.180316	0.024	0.486	0.0105	0	186	120	3
2026-02-12	15:44:10.490	146.37	-0.735	-13.79	0.945744	-0.431392	0.19398	0.0285	0.4845	0.027	0	186	120	3
2026-02-12	15:44:10.510	152.6	0.56	-9.52	0.951356	-0.399672	0.198616	0.03	0.4785	0.027	0	186	120	3
2026-02-12	15:44:10.530	148.785	2.03	-4.97	0.968436	-0.363804	0.217404	0.024	0.477	0.027	0	186	120	3
2026-02-12	15:44:10.550	136.325	4.025	-0.28	0.964532	-0.346968	0.226432	0.024	0.483	0.0345	0	186	120	3
2026-02-12	15:44:10.570	115.85	6.3	5.775	0.955748	-0.31476	0.236436	0.027	0.48	0.042	0	186	120	3
2026-02-12	15:44:10.590	93.975	7.875	11.76	0.941352	-0.297192	0.242048	0.0285	0.4725	0.042	0	186	120	3
2026-02-12	15:44:10.610	77.035	8.435	16.59	0.927688	-0.291092	0.240828	0.033	0.4845	0.0435	0	173	116	3
2026-02-12	15:44:10.630	62.44	8.54	21.385	0.931836	-0.296216	0.238876	0.0345	0.486	0.045	0	173	116	3
2026-02-12	15:44:10.650	52.64	8.54	25.935	0.935008	-0.312076	0.240584	0.024	0.4875	0.039	0	173	116	3
2026-02-12	15:44:10.670	50.925	8.68	30.205	0.940864	-0.323056	0.239852	0.03	0.4965	0.042	0	173	116	3
2026-02-12	15:44:10.690	54.355	8.645	33.67	0.946964	-0.321348	0.236924	0.0375	0.5025	0.0405	0	173	116	3
2026-02-12	15:44:10.710	58.415	8.785	36.575	0.959652	-0.310612	0.235948	0.021	0.51	0.0435	0	173	116	3
2026-02-12	15:44:10.730	61.18	8.785	38.85	0.977464	-0.302804	0.228384	0.024	0.522	0.051	0	173	116	3
2026-02-12	15:44:10.750	63.77	9.205	40.565	1.022848	-0.300608	0.2379	0.0285	0.5205	0.0435	0	173	116	3
2026-02-12	15:44:10.770	68.495	10.745	42.105	1.070916	-0.292556	0.242536	0.03	0.5235	0.0375	0	173	116	3
2026-02-12	15:44:10.790	73.08	14.035	44.66	1.036268	-0.256932	0.241804	0.027	0.5265	0.039	0	173	116	3
2026-02-12	15:44:22.810	-15.4	-58.275	-62.195	0.947696	-0.01586	0.283528	0.033	0.552	0.075	0	225	277	3
2026-02-12	15:44:22.830	-43.365	-61.95	-56.105	0.894992	0.0671	0.281576	0.033	0.552	0.075	0	225	277	3
2026-02-12	15:44:22.850	-68.6	-64.155	-53.865	0.893284	0.017324	0.294264	0.0345	0.5385	0.0855	0	225	277	3
2026-02-12	15:44:22.870	-83.475	-63.245	-51.73	0.903288	-0.064416	0.311588	0.039	0.522	0.1035	0	225	277	3
2026-02-12	15:44:22.890	-87.675	-59.465	-49.35	0.923052	-0.158356	0.31964	0.042	0.516	0.1095	0	225	277	3
2026-02-12	15:44:22.910	-81.655	-55.65	-46.935	0.929884	-0.234972	0.326472	0.042	0.5085	0.117	0	225	277	3
2026-02-12	15:44:22.930	-63.665	-52.325	-44.03	0.907924	-0.286212	0.344284	0.045	0.495	0.126	0	225	277	3
2026-02-12	15:44:22.950	-32.865	-50.925	-40.705	0.865468	-0.306952	0.365268	0.048	0.4845	0.129	0	225	277	3
2026-02-12	15:44:22.970	3.85	-50.33	-36.26	0.854976	-0.291092	0.412848	0.051	0.474	0.135	0	225	277	3
2026-02-12	15:44:22.990	39.9	-46.69	-29.12	0.833748	-0.275476	0.454816	0.054	0.465	0.147	0	225	277	3
2026-02-12	15:44:23.010	68.53	-42.525	-19.705	0.800564	-0.203496	0.468236	0.0555	0.4665	0.1515	0	220	295	3
2026-02-12	15:44:23.030	80.99	-37.59	-7.455	0.764208	-0.116876	0.465796	0.0555	0.4695	0.153	0	220	295	3
2026-02-12	15:44:23.050	76.545	-32.76	2.765	0.76616	-0.077104	0.472628	0.0585	0.468	0.162	0	220	295	3
2026-02-12	15:44:23.070	64.54	-28.455	8.995	0.793488	-0.035868	0.466284	0.063	0.477	0.1725	0	220	295	3
2026-02-12	15:44:23.090	43.4	-23.31	14.7	0.790316	-0.01098	0.457012	0.066	0.489	0.177	0	220	295	3
2026-02-12	15:44:23.110	18.9	-17.185	20.895	0.790804	-0.021472	0.429928	0.066	0.4905	0.18	0	220	295	3
2026-02-12	15:44:23.130	0.98	-11.2	25.795	0.858636	-0.061976	0.40138	0.069	0.4935	0.183	0	220	295	3
2026-02-12	15:44:23.150	-5.145	-6.055	25.9	1.010404	-0.092232	0.379664	0.0675	0.4965	0.183	0	220	295	3
2026-02-12	15:44:23.170	-4.865	0.56	20.825	1.169492	-0.157136	0.438712	0.066	0.501	0.1845	0	220	295	3
2026-02-12	15:44:23.190	-3.045	15.75	21.385	1.234152	-0.220088	0.48922	0.0645	0.504	0.1875	0	220	295	3
2026-02-12	15:44:23.210	-4.62	33.845	29.19	1.30418	-0.207156	0.416996	0.06	0.507	0.1875	0	216	321	2
2026-02-12	15:44:23.230	-17.395	51.45	37.59	1.33468	-0.141276	0.272548	0.0615	0.5115	0.189	0	216	321	2
2026-02-12	15:44:23.250	-64.505	67.795	50.26	1.335656	-0.110288	0.118584	0.0555	0.51	0.174	0	216	321	2
2026-02-12	15:44:23.270	-91.455	70.735	61.11	1.325408	-0.143228	0.118096	0.054	0.5115	0.165	0	216	321	2
2026-02-12	15:44:23.290	-103.81	72.31	74.025	1.34444	-0.210816	0.232532	0.0555	0.519	0.15	0	216	321	2
2026-02-12	15:44:23.310	-114.975	78.19	89.775	1.297592	-0.190808	0.325008	0.048	0.528	0.1365	0	216	321	2
2026-02-12	15:44:23.330	-140.14	76.265	103.6	1.230736	-0.095648	0.29158	0.0405	0.5355	0.1245	0	216	321	2
2026-02-12	15:44:23.350	-169.19	72.415	112.28	1.157048	-0.080764	0.179584	0.042	0.549	0.108	0	216	321	2
2026-02-12	15:44:23.370	-187.25	64.75	117.355	1.095072	-0.09076799	0.055388	0.0345	0.561	0.096	0	216	321	2
2026-02-12	15:44:23.390	-191.975	50.75	121.905	1.021628	-0.147132	-0.011468	0.033	0.5715	0.0945	0	216	321	2
2026-02-12	15:44:23.410	-178.36	33.67	126.21	0.956968	-0.23302	-0.022692	0.036	0.588	0.093	0	214	329	3
2026-02-12	15:44:23.430	-148.96	16.03	128.66	0.916464	-0.279868	-0.016592	0.0375	0.6045	0.084	0	214	329	3
2026-02-12	15:44:23.450	-97.475	-1.645	126	0.923296	-0.336476	-0.009272	0.0435	0.6105	0.075	0	214	329	3
2026-02-12	15:44:23.470	-35.595	-12.425	119.63	0.960872	-0.39528	0.002928	0.0435	0.6105	0.075	0	214	329	3
2026-02-12	15:44:23.490	15.365	-14.455	112.91	1.041392	-0.427488	0.015616	0.051	0.6345	0.084	0	214	329	3
2026-02-12	15:44:23.510	50.68	-12.67	106.575	0.997472	-0.415288	0.022936	0.057	0.6675	0.0945	0	214	329	3
2026-02-12	15:44:23.530	72.765	-11.865	98.77	0.963312	-0.428464	0.061244	0.06	0.6825	0.0945	0	214	329	3
2026-02-12	15:44:23.550	94.815	-9.625	88.095	0.97722	-0.473848	0.14396	0.066	0.6945	0.096	0	214	329	3
2026-02-12	15:44:23.570	125.58	-4.935	79.66	1.053592	-0.538996	0.189344	0.075	0.705	0.0975	0	214	329	3
2026-02-12	15:44:23.590	157.22	0.07	74.865	1.048224	-0.474336	0.20496	0.081	0.7215	0.09	0	214	329	3
2026-02-12	15:44:23.610	167.055	3.85	72.345	0.962092	-0.380884	0.19276	0.0795	0.7395	0.0765	0	216	300	3
2026-02-12	15:44:23.630	154.595	4.025	69.545	0.877668	-0.305	0.17934	0.084	0.7515	0.066	0	216	300	3
2026-02-12	15:44:23.650	129.255	1.435	64.4	0.807884	-0.2623	0.174948	0.0915	0.7605	0.054	0	216	300	3
2026-02-12	15:44:23.670	93.94	-5.285	55.51	0.779336	-0.271328	0.194956	0.0915	0.7665	0.0495	0	216	300	3
2026-02-12	15:44:23.690	65.555	-12.075	46.27	0.762012	-0.301096	0.240096	0.099	0.7755	0.0405	0	216	300	3
2026-02-12	15:44:23.710	52.15	-15.96	38.36	0.7625	-0.313052	0.272792	0.108	0.7845	0.03	0	216	300	3
2026-02-12	15:44:23.730	43.4	-17.92	29.68	0.760792	-0.321348	0.29036	0.1095	0.7845	0.024	0	216	300	3
2026-02-12	15:44:23.750	35.105	-18.515	20.335	0.76006	-0.325008	0.292068	0.111	0.7905	0.0225	0	216	300	3
2026-02-12	15:44:23.770	26.425	-19.25	10.885	0.760304	-0.338184	0.279136	0.12	0.798	0.03	0	216	300	3
2026-02-12	15:44:23.790	20.65	-20.44	1.05	0.776652	-0.348188	0.27084	0.123	0.798	0.0345	0	216	300	3
2026-02-12	15:44:23.810	18.515	-21.7	-8.82	0.784948	-0.345748	0.263276	0.1215	0.7965	0.0375	0	219	265	3
2026-02-12	15:44:23.830	19.005	-23.625	-19.18	0.794464	-0.33794	0.264252	0.12	0.7965	0.033	0	219	265	3
2026-02-12	15:44:23.850	21.245	-26.775	-30.73	0.807884	-0.325008	0.26352	0.1155	0.7965	0.03	0	219	265	3
2026-02-12	15:44:23.870	22.75	-30.835	-43.785	0.823012	-0.314272	0.261568	0.117	0.7965	0.03	0	219	265	3
2026-02-12	15:44:23.890	26.565	-37.555	-64.96	0.900848	-0.324764	0.2806	0.1245	0.7845	0.0345	0	219	265	3
2026-02-12	15:44:23.910	29.89	-40.635	-77.735	0.947208	-0.326472	0.299876	0.117	0.7785	0.0375	0	219	265	3
2026-02-12	15:44:23.930	31.395	-42.805	-88.655	0.98698	-0.305	0.309636	0.1035	0.768	0.0435	0	219	265	3
2026-02-12	15:44:23.950	30.835	-45.395	-99.855	1.081408	-0.276452	0.304024	0.0915	0.7575	0.048	0	219	265	3
2026-02-12	15:44:23.970	24.92	-47.04	-113.225	1.217072	-0.23058	0.283284	0.0855	0.75	0.0465	0	219	265	3
2026-02-12	15:44:23.990	10.535	-47.6	-128.03	1.3298	-0.215696	0.250344	0.084	0.735	0.0495	0	219	265	3
2026-02-12	15:44:24.010	-11.235	-46.69	-141.68	1.328336	-0.259616	0.22692	0.0825	0.723	0.054	0	222	249	3
2026-02-12	15:44:24.030	-17.22	-46.34	-144.41	1.242692	-0.2806	0.22082	0.075	0.7065	0.0585	0	222	249	3
2026-02-12	15:44:24.050	-19.74	-46.48	-143.15	1.128988	-0.263032	0.232532	0.063	0.681	0.066	0	222	249	3
2026-02-12	15:44:24.070	-24.185	-45.255	-136.115	1.010648	-0.239364	0.236192	0.0555	0.6585	0.072	0	222	249	3
2026-02-12	15:44:24.090	-28.875	-44.905	-122.045	0.913292	-0.205936	0.239852	0.0525	0.6465	0.075	0	222	249	3
2026-02-12	15:44:24.110	-28.91	-45.36	-108.22	0.915732	-0.179828	0.236924	0.0525	0.6465	0.075	0	222	249	3
2026-02-12	15:44:24.130	-24.395	-44.94	-100.695	1.028216	-0.16104	0.250588	0.051	0.6225	0.0855	0	222	249	3
2026-02-12	15:44:24.150	-25.69	-40.425	-94.605	1.10288	-0.148596	0.25986	0.0525	0.597	0.1035	0	222	249	3
2026-02-12	15:44:24.170	-37.73	-33.88	-88.2	1.121668	-0.13542	0.229848	0.054	0.5835	0.111	0	222	249	3
2026-02-12	15:44:24.190	-60.445	-27.44	-81.13	1.094096	-0.144692	0.182024	0.0465	0.5685	0.1095	0	222	249	3
2026-02-12	15:44:24.210	-84.35	-21.245	-73.15	1.029436	-0.152012	0.129564	0.0465	0.552	0.1095	0	222	246	3
2026-02-12	15:44:24.230	-100.17	-17.395	-65.1	0.961604	-0.11468	0.126148	0.0495	0.5325	0.1185	0	222	246	3
2026-02-12	15:44:24.250	-113.295	-15.435	-58.275	0.932324	-0.092964	0.149572	0.048	0.522	0.1185	0	222	246	3
2026-02-12	15:44:24.270	-125.335	-14.56	-52.71	0.898164	-0.09882	0.173484	0.0495	0.5085	0.117	0	222	246	3
2026-02-12	15:44:24.290	-132.58	-14.035	-46.165	0.859124	-0.123464	0.186904	0.051	0.4995	0.1185	0	222	246	3
2026-02-12	15:44:24.310	-136.36	-14.105	-39.025	0.845216	-0.118584	0.183488	0.048	0.4995	0.114	0	222	246	3
2026-02-12	15:44:24.330	-141.015	-12.18	-34.51	0.858636	-0.126636	0.166408	0.0525	0.489	0.114	0	222	246	3
2026-02-12	15:44:24.350	-145.425	-10.85	-33.04	0.892552	-0.133956	0.145668	0.057	0.474	0.111	0	222	246	3
2026-02-12	15:44:24.370	-147.7	-8.785	-31.745	0.873276	-0.17446	0.152988	0.0585	0.4665	0.108	0	222	246	3
2026-02-12	15:44:24.390	-138.39	-7.21	-29.68	0.84668	-0.220088	0.187148	0.0615	0.459	0.1005	0	222	246	3
2026-02-12	15:44:24.410	-121.17	-7.35	-27.545	0.847656	-0.211792	0.22448	0.06	0.4485	0.1005	0	219	240	3
2026-02-12	15:44:24.430	-105.385	-8.61	-26.32	0.807884	-0.224236	0.226188	0.0615	0.438	0.1005	0	219	240	3
2026-02-12	15:44:24.450	-89.215	-12.95	-26.11	0.79666	-0.245952	0.226676	0.063	0.4275	0.093	0	219	240	3
2026-02-12	15:44:24.470	-67.69	-18.48	-25.48	0.81984	-0.280356	0.277672	0.063	0.423	0.09	0	219	240	3
2026-02-12	15:44:24.490	-43.05	-22.61	-22.26	0.793976	-0.2623	0.309392	0.0645	0.4215	0.0945	0	219	240	3
2026-02-12	15:44:24.510	-24.255	-29.365	-19.39	0.77348	-0.233996	0.325008	0.0645	0.42	0.096	0	219	240	3
2026-02-12	15:44:24.530	-2.415	-43.505	-20.615	0.860344	-0.227652	0.32696	0.0705	0.42	0.0975	0	219	240	3
2026-02-12	15:44:24.550	17.01	-54.845	-27.335	1.031388	-0.2867	0.406748	0.0705	0.4155	0.1065	0	219	240	3
2026-02-12	15:44:24.570	60.935	-53.48	-34.965	1.166076	-0.46116	0.632448	0.0735	0.4095	0.1125	0	219	240	3
2026-02-12	15:44:24.590	128.065	-35.735	-29.47	1.306376	-0.495564	0.698816	0.0795	0.4095	0.1155	0	219	240	3
2026-02-12	15:44:24.610	162.4	-17.955	-11.55	1.372988	-0.277916	0.522648	0.0855	0.414	0.129	0	215	241	3
2026-02-12	15:44:24.630	135.8	1.575	5.145	1.372012	-0.13176	0.33428	0.0825	0.4155	0.1395	0	215	241	3
2026-02-12	15:44:24.650	83.23	19.985	19.39	1.350784	-0.13664	0.200324	0.0825	0.4155	0.147	0	215	241	3
2026-02-12	15:44:24.670	46.34	31.22	36.61	1.292956	-0.138348	0.134932	0.081	0.423	0.1515	0	215	241	3
2026-02-12	15:44:24.690	28.91	34.965	57.925	1.165588	-0.052704	0.10004	0.0765	0.4305	0.1485	0	215	241	3
2026-02-12	15:44:24.710	13.965	33.845	77.875	1.063596	0.044408	0.129076	0.0765	0.4335	0.1455	0	215	241	3
2026-02-12	15:44:24.730	-18.515	30.17	91.7	1.004792	0.060268	0.187148	0.0795	0.45	0.1425	0	215	241	3
2026-02-12	15:44:24.750	-58.765	26.635	99.33	1.012112	-0.029036	0.20862	0.0795	0.45	0.1425	0	215	241	3
2026-02-12	15:44:24.770	-92.575	27.475	107.59	0.994788	-0.119072	0.17446	0.0705	0.4665	0.1335	0	215	241	3
2026-02-12	15:44:24.790	-119.56	28.07	118.615	0.975512	-0.201056	0.129076	0.063	0.4905	0.123	0	215	241	3
2026-02-12	15:44:24.810	-131.46	26.075	126.525	1.02114	-0.255468	0.084424	0.0615	0.5025	0.1185	0	214	249	3
2026-02-12	15:44:24.830	-132.055	23.45	130.83	1.078724	-0.27206	0.034892	0.06	0.516	0.114	0	214	249	3
2026-02-12	15:44:24.850	-124.32	21.665	133.455	1.07238	-0.263764	-0.004392	0.057	0.537	0.1095	0	214	249	3
2026-02-12	15:44:24.870	-105.665	18.445	133.63	1.048956	-0.27084	-0.03538	0.0555	0.5535	0.105	0	214	249	3
2026-02-12	15:44:24.890	-74.55	14.035	130.025	1.16388	-0.333792	-0.06734399	0.0555	0.5625	0.102	0	214	249	3
2026-02-12	15:44:24.910	-38.22	13.125	125.72	1.249524	-0.32086	-0.08295999	0.057	0.5805	0.105	0	214	249	3
2026-02-12	15:44:24.930	-10.605	15.855	122.01	1.16144	-0.282796	-0.08662	0.06	0.594	0.108	0	214	249	3
2026-02-12	15:44:24.950	12.915	12.985	114.73	1.078236	-0.276452	-0.08052	0.06	0.606	0.108	0	214	249	3
2026-02-12	15:44:24.970	32.55	8.505	104.195	1.070184	-0.291824	-0.056852	0.063	0.6285	0.105	0	214	249	3
2026-02-12	15:44:24.990	44.8	7.735	96.04	1.00772	-0.290604	-0.02928	0.0675	0.654	0.102	0	214	249	3
2026-02-12	15:44:25.010	50.925	5.74	88.48	0.935496	-0.285724	-0.0061	0.0705	0.663	0.102	0	215	229	3
2026-02-12	15:44:25.030	53.165	1.785	79.835	0.913048	-0.294752	0.016348	0.072	0.678	0.096	0	215	229	3
2026-02-12	15:44:25.050	56.14	-2.24	69.3	0.915732	-0.312808	0.044652	0.0765	0.6915	0.0915	0	215	229	3
2026-02-12	15:44:25.070	59.85	-4.445	57.855	0.897188	-0.320372	0.052948	0.081	0.7035	0.09	0	215	229	3
2026-02-12	15:44:25.090	63.21	-6.16	46.865	0.853512	-0.321592	0.050508	0.087	0.7125	0.09	0	215	229	3
2026-02-12	15:44:25.110	64.225	-8.54	35.98	0.851072	-0.308904	0.046604	0.0885	0.717	0.093	0	215	229	3
2026-02-12	15:44:25.130	63.91	-12.285	23.415	0.913048	-0.302072	0.059292	0.087	0.7185	0.0915	0	215	229	3
2026-02-12	15:44:25.150	62.09	-14.455	9.975	0.904996	-0.297924	0.079788	0.0975	0.7275	0.096	0	215	229	3
2026-02-12	15:44:25.170	57.96	-17.115	-10.465	0.875716	-0.296704	0.099796	0.0885	0.732	0.09	0	215	229	3
2026-02-12	15:44:25.190	56.21	-18.935	-23.975	0.89182	-0.305732	0.11346	0.087	0.735	0.0855	0	215	229	3
2026-02-12	15:44:25.210	56.735	-19.705	-36.26	0.9089	-0.315004	0.132004	0.0885	0.7365	0.0825	0	216	187	3
2026-02-12	15:44:25.230	58.73	-19.39	-46.27	0.889136	-0.311832	0.142984	0.09	0.729	0.078	0	216	187	3
2026-02-12	15:44:25.250	62.37	-19.285	-54.11	0.871812	-0.306708	0.151036	0.084	0.726	0.0765	0	216	187	3
2026-02-12	15:44:25.270	67.69	-18.935	-59.395	0.8662	-0.296948	0.166652	0.0795	0.717	0.075	0	216	187	3
2026-02-12	15:44:25.290	74.585	-17.5	-63.035	0.910852	-0.27328	0.196176	0.078	0.7065	0.0735	0	216	187	3
2026-02-12	15:44:25.310	73.675	-13.93	-67.795	0.992592	-0.223016	0.202276	0.0765	0.702	0.0765	0	216	187	3
2026-02-12	15:44:25.330	63.945	-9.52	-73.92	1.052616	-0.218136	0.206668	0.072	0.6915	0.0735	0	216	187	3
2026-02-12	15:44:25.350	52.5	-6.3	-77.805	1.030168	-0.217648	0.204716	0.066	0.6855	0.069	0	216	187	3
2026-02-12	15:44:25.370	37.905	-4.795	-77.945	0.994544	-0.193248	0.20374	0.0735	0.6825	0.0705	0	216	187	3
2026-02-12	15:44:25.390	18.62	-4.62	-77.42	1.0065	-0.141764	0.207888	0.0735	0.6825	0.0705	0	216	187	3
2026-02-12	15:44:25.410	-2.275	-4.445	-78.855	1.03822	-0.132492	0.226188	0.0615	0.6675	0.0675	0	215	159	3
2026-02-12	15:44:25.430	-25.585	-5.04	-79.73	1.034804	-0.148596	0.244	0.0495	0.6495	0.066	0	215	159	3
2026-02-12	15:44:25.450	-45.535	-7.35	-79.485	1.047492	-0.193248	0.27084	0.051	0.6375	0.0675	0	215	159	3
2026-02-12	15:44:25.470	-56.175	-9.205	-77.105	1.014552	-0.218624	0.302316	0.0525	0.621	0.0675	0	215	159	3
2026-02-12	15:44:25.490	-62.16	-10.08	-73.465	0.966484	-0.209108	0.313296	0.051	0.609	0.0705	0	215	159	3
2026-02-12	15:44:25.510	-68.18	-9.625	-70.105	0.917928	-0.208376	0.291092	0.051	0.6015	0.075	0	215	159	3
2026-02-12	15:44:25.530	-72.59	-8.575	-67.235	0.914512	-0.198616	0.256444	0.051	0.585	0.075	0	215	159	3
2026-02-12	15:44:25.550	-75.39	-7.21	-64.68	0.888648	-0.192516	0.226188	0.051	0.5745	0.075	0	215	159	3
2026-02-12	15:44:25.570	-78.82	-7.175	-63.315	0.861564	-0.179584	0.198616	0.0525	0.573	0.0765	0	215	159	3
2026-02-12	15:44:25.590	-84.77	-8.435	-66.255	0.874984	-0.209596	0.191296	0.0525	0.567	0.0735	0	215	159	3
2026-02-12	15:44:25.610	-88.48	-10.64	-70.91	0.901824	-0.242048	0.211548	0.048	0.5565	0.081	0	210	160	3
2026-02-12	15:44:25.630	-88.235	-13.16	-74.9	0.9211	-0.262056	0.245708	0.045	0.537	0.0825	0	210	160	3
2026-02-12	15:44:25.650	-85.19	-15.61	-78.33	0.91988	-0.272792	0.262788	0.0435	0.5235	0.075	0	210	160	3
2026-02-12	15:44:25.670	-81.165	-18.48	-81.76	0.893528	-0.276696	0.273036	0.048	0.5145	0.0795	0	210	160	3
2026-02-12	15:44:25.690	-75.705	-21.945	-85.12	0.874252	-0.296704	0.291092	0.0525	0.4995	0.084	0	210	160	3
2026-02-12	15:44:25.710	-67.725	-25.83	-87.85	0.875716	-0.309392	0.309392	0.051	0.483	0.084	0	210	160	3
2026-02-12	15:44:25.730	-57.365	-30.485	-90.09	0.890844	-0.325984	0.316712	0.054	0.4695	0.0855	0	210	160	3
2026-02-12	15:44:25.750	-43.61	-34.685	-91.455	0.909144	-0.35258	0.332572	0.057	0.4575	0.087	0	210	160	3
2026-02-12	15:44:25.770	-24.185	-37.835	-91.175	0.960628	-0.382592	0.362096	0.057	0.4515	0.0885	0	210	160	3
2026-02-12	15:44:25.790	-4.025	-40.565	-89.39	1.062864	-0.365024	0.37576	0.0705	0.435	0.09	0	210	160	3
2026-02-12	15:44:25.810	13.51	-45.43	-87.64	1.286124	-0.389424	0.429684	0.0705	0.4215	0.099	0	204	182	3
2026-02-12	15:44:25.830	38.71	-44.17	-88.9	1.55306	-0.496296	0.564372	0.072	0.411	0.108	0	204	182	3
2026-02-12	15:44:25.850	74.095	-28.875	-79.03	1.562576	-0.565592	0.650016	0.0825	0.3975	0.1185	0	204	182	3
2026-02-12	15:44:25.870	100.485	-11.34	-49.91	1.375428	-0.45994	0.518256	0.09	0.393	0.12	0	204	182	3
2026-02-12	15:44:25.890	98.035	1.68	-13.125	1.156316	-0.31232	0.326472	0.09	0.393	0.126	0	204	182	3
2026-02-12	15:44:25.910	78.785	10.29	24.01	1.015284	-0.271328	0.224236	0.0945	0.3945	0.135	0	204	182	3
2026-02-12	15:44:25.930	68.95	15.47	58.485	0.974292	-0.219356	0.176412	0.096	0.3975	0.138	0	204	182	3
2026-02-12	15:44:25.950	64.995	17.675	88.48	0.977708	-0.08906	0.145912	0.093	0.4035	0.1425	0	204	182	3
2026-02-12	15:44:25.970	47.81	21.175	111.93	0.987224	0.06832	0.103212	0.0915	0.4185	0.1455	0	204	182	3
2026-02-12	15:44:25.990	9.345	32.13	125.615	0.921344	0.156892	0.096136	0.09	0.4305	0.1455	0	204	182	3
2026-02-12	15:44:26.010	-40.74	32.025	130.9	0.911584	0.05002	0.044408	0.0795	0.447	0.138	0	200	215	3
2026-02-12	15:44:26.030	-43.26	31.08	130.165	0.956236	-0.00854	0.055876	0.069	0.465	0.1305	0	200	215	3
2026-02-12	15:44:26.050	-39.06	30.8	130.935	0.97844	-0.063928	0.04636	0.069	0.4845	0.126	0	200	215	3
2026-02-12	15:44:26.070	-36.96	30.415	130.97	1.002596	-0.085644	0.055388	0.0615	0.5145	0.12	0	200	215	3
2026-02-12	15:44:26.090	-36.855	31.85	131.11	1.115568	-0.16958	0.057828	0.0525	0.5325	0.111	0	200	215	3
2026-02-12	15:44:26.110	-33.285	34.755	133.875	1.194868	-0.180072	0.040748	0.051	0.543	0.1095	0	200	215	3
2026-02-12	15:44:26.130	-26.95	36.75	135.24	1.189256	-0.123952	0.022448	0.0525	0.555	0.1095	0	200	215	3
2026-02-12	15:44:26.150	-21.84	36.82	130.865	1.19194	-0.087596	0.007564	0.0525	0.576	0.1065	0	200	215	3
2026-02-12	15:44:26.170	-20.755	35.315	121.03	1.189988	-0.063928	-0.04026	0.0495	0.5985	0.105	0	200	215	3
2026-02-12	15:44:26.190	-29.575	32.655	110.95	1.126792	-0.0671	-0.08052	0.048	0.615	0.0915	0	200	215	3
2026-02-12	15:44:26.210	-40.04	27.23	101.395	1.034804	-0.138836	-0.091256	0.048	0.624	0.0855	0	201	217	3
2026-02-12	15:44:26.230	-37.31	19.355	90.335	1.006256	-0.253028	-0.03294	0.063	0.633	0.087	0	201	217	3
2026-02-12	15:44:26.250	-23.03	14.7	79.065	1.0126	-0.298168	0.019032	0.0645	0.645	0.0855	0	201	217	3
2026-02-12	15:44:26.270	-8.645	13.44	70.28	0.928664	-0.294996	0.033916	0.066	0.666	0.09	0	201	217	3
2026-02-12	15:44:26.290	6.86	9.94	61.95	0.854732	-0.298168	0.028792	0.066	0.675	0.087	0	201	217	3
2026-02-12	15:44:26.310	21.945	5.39	52.885	0.873276	-0.316224	0.033428	0.0675	0.6855	0.0795	0	201	217	3
2026-02-12	15:44:26.330	34.37	1.295	42.49	0.921344	-0.333548	0.043676	0.0675	0.6945	0.078	0	201	217	3
2026-02-12	15:44:26.350	39.515	-0.7	34.615	0.878644	-0.344284	0.055632	0.072	0.702	0.075	0	201	217	3
2026-02-12	15:44:26.370	36.995	-4.55	29.015	0.847656	-0.355264	0.055632	0.0765	0.7095	0.075	0	201	217	3
2026-02-12	15:44:26.390	30.765	-9.135	23.765	0.844972	-0.364048	0.060756	0.081	0.711	0.0735	0	201	217	3
2026-02-12	15:44:26.410	32.795	-12.67	17.15	0.9089	-0.364292	0.09857599	0.084	0.711	0.0705	0	204	186	3
2026-02-12	15:44:26.430	42.665	-13.055	9.17	0.915	-0.330864	0.137128	0.075	0.717	0.078	0	204	186	3
2026-02-12	15:44:26.450	43.47	-15.26	0.14	0.93818	-0.431148	0.133712	0.0795	0.717	0.0795	0	204	186	3
2026-02-12	15:44:26.470	50.19	-16.45	-4.375	0.9638	-0.453596	0.158112	0.0825	0.7185	0.075	0	204	186	3
2026-02-12	15:44:26.490	60.2	-15.225	-8.4	0.962336	-0.428464	0.180316	0.087	0.7215	0.0735	0	204	186	3
2026-02-12	15:44:26.510	65.45	-13.16	-13.02	0.94916	-0.374784	0.174216	0.087	0.723	0.075	0	204	186	3
2026-02-12	15:44:26.530	62.055	-12.32	-19.285	0.95892	-0.308904	0.17324	0.0825	0.726	0.069	0	204	186	3
2026-02-12	15:44:26.550	51.66	-12.845	-27.755	0.977708	-0.303292	0.161284	0.081	0.723	0.0645	0	204	186	3
2026-02-12	15:44:26.570	43.19	-14.28	-37.73	1.010892	-0.310368	0.153964	0.081	0.7155	0.0645	0	204	186	3
2026-02-12	15:44:26.590	40.635	-14.595	-48.895	1.048956	-0.303536	0.163968	0.0795	0.711	0.0645	0	204	186	3
2026-02-12	15:44:26.610	38.85	-13.3	-59.885	1.085312	-0.306952	0.195932	0.0765	0.7065	0.063	0	206	157	3
2026-02-12	15:44:26.630	39.48	-9.625	-69.755	1.116544	-0.29524	0.24644	0.075	0.7035	0.0585	0	206	157	3
2026-02-12	15:44:26.650	38.64	-2.625	-78.085	1.057496	-0.286212	0.27206	0.0705	0.6945	0.0675	0	206	157	3
2026-02-12	15:44:26.670	35.665	3.36	-79.765	0.988932	-0.280356	0.25986	0.0705	0.6945	0.0675	0	206	157	3
2026-02-12	15:44:26.690	32.725	7	-76.055	0.88206	-0.22204	0.224968	0.069	0.678	0.0585	0	206	157	3
2026-02-12	15:44:26.710	20.72	7.35	-70.385	0.786412	-0.16714	0.181048	0.0615	0.663	0.054	0	206	157	3
2026-02-12	15:44:26.730	1.89	3.01	-67.025	0.783728	-0.135176	0.142252	0.054	0.6525	0.057	0	206	157	3
2026-02-12	15:44:26.750	-16.73	-3.185	-68.495	0.910608	-0.139568	0.147376	0.0525	0.6405	0.0525	0	206	157	3
2026-02-12	15:44:26.770	-32.445	-6.195	-72.59	0.976976	-0.161284	0.186172	0.054	0.6375	0.0495	0	206	157	3
2026-02-12	15:44:26.790	-44.065	-6.72	-75.18	0.976732	-0.187148	0.230092	0.048	0.6225	0.0495	0	206	157	3
2026-02-12	15:44:26.810	-50.05	-8.155	-76.615	1.022604	-0.216916	0.260104	0.0435	0.6075	0.054	0	206	150	3
2026-02-12	15:44:26.830	-54.32	-7.56	-76.055	1.04676	-0.216916	0.272304	0.042	0.606	0.057	0	206	150	3
2026-02-12	15:44:26.850	-64.015	-4.165	-72.38	0.980148	-0.183976	0.2562	0.048	0.5985	0.0585	0	206	150	3
2026-02-12	15:44:26.870	-79.38	-2.765	-65.345	0.916464	-0.173728	0.214964	0.045	0.585	0.0555	0	206	150	3
2026-02-12	15:44:26.890	-86.415	-4.025	-58.38	0.87718	-0.17812	0.182756	0.042	0.573	0.06	0	206	150	3
2026-02-12	15:44:26.910	-84.105	-6.825	-54.25	0.85034	-0.183488	0.18666	0.045	0.5595	0.066	0	206	150	3
2026-02-12	15:44:26.930	-79.45	-10.08	-51.765	0.840092	-0.19886	0.203008	0.048	0.5505	0.069	0	206	150	3
2026-02-12	15:44:26.950	-75.075	-13.405	-50.785	0.85034	-0.22204	0.221064	0.048	0.54	0.0675	0	206	150	3
2026-02-12	15:44:26.970	-70.21	-16.135	-52.08	0.873276	-0.234484	0.238144	0.045	0.5295	0.0615	0	206	150	3
2026-02-12	15:44:26.990	-65.625	-17.745	-55.755	0.873276	-0.246684	0.251564	0.042	0.5205	0.0645	0	206	150	3
2026-02-12	15:44:27.010	-58.765	-18.69	-60.655	0.884988	-0.277916	0.277672	0.0465	0.51	0.0705	0	202	161	3
2026-02-12	15:44:27.030	-48.09	-19.425	-65.065	0.879864	-0.285236	0.285724	0.0495	0.5025	0.0675	0	202	161	3
2026-02-12	15:44:27.050	-40.775	-21.245	-68.775	0.869372	-0.259128	0.271572	0.048	0.4995	0.066	0	202	161	3
2026-02-12	15:44:27.070	-36.995	-24.57	-72.87	0.879132	-0.259128	0.26962	0.0405	0.492	0.075	0	202	161	3
2026-02-12	15:44:27.090	-26.25	-29.54	-77.56	0.909388	-0.309148	0.322568	0.048	0.474	0.081	0	202	161	3
2026-02-12	15:44:27.110	-14.595	-31.85	-77.49	0.924516	-0.311588	0.356728	0.0555	0.465	0.084	0	202	161	3
2026-02-12	15:44:27.130	-4.76	-33.53	-74.83	0.92232	-0.298412	0.367708	0.06	0.45	0.087	0	202	161	3
2026-02-12	15:44:27.150	4.725	-37.24	-72.03	0.97844	-0.286456	0.377712	0.06	0.4365	0.087	0	202	161	3
2026-02-12	15:44:27.170	16.695	-40.215	-72.59	1.131916	-0.307196	0.437492	0.066	0.4305	0.09	0	202	161	3
2026-02-12	15:44:27.190	32.41	-36.155	-73.255	1.203164	-0.354776	0.521184	0.0735	0.426	0.093	0	202	161	3
2026-02-12	15:44:27.210	50.54	-29.225	-68.635	1.264896	-0.37698	0.53558	0.0795	0.4155	0.099	0	197	188	3
2026-02-12	15:44:27.230	65.205	-22.575	-59.29	1.356152	-0.349896	0.489708	0.084	0.411	0.1095	0	197	188	3
2026-02-12	15:44:27.250	65.485	-13.58	-46.06	1.413736	-0.304756	0.426268	0.087	0.4125	0.1155	0	197	188	3
2026-02-12	15:44:27.270	53.515	-2.38	-25.305	1.334192	-0.276452	0.363072	0.0795	0.402	0.1185	0	197	188	3
2026-02-12	15:44:27.290	43.225	6.685	10.5	1.161196	-0.28182	0.32208	0.0765	0.399	0.129	0	197	188	3
2026-02-12	15:44:27.310	49.77	11.06	48.65	1.046272	-0.232044	0.325008	0.0795	0.402	0.1275	0	197	188	3
2026-02-12	15:44:27.330	54.775	13.09	74.445	1.021628	-0.136152	0.307684	0.0795	0.4095	0.1275	0	197	188	3
2026-02-12	15:44:27.350	40.915	17.29	94.29	0.961604	-0.043188	0.257908	0.0705	0.42	0.1275	0	197	188	3
2026-02-12	15:44:27.370	10.255	20.23	106.89	1.002108	0.000488	0.2013	0.0675	0.4335	0.126	0	197	188	3
2026-02-12	15:44:27.390	-9.415	36.295	116.48	0.978928	-0.121512	0.175192	0.0675	0.4485	0.123	0	197	188	3
2026-02-12	15:44:27.410	3.815	39.305	126.42	1.01016	-0.225212	0.14152	0.066	0.4605	0.12	0	193	225	3
2026-02-12	15:44:27.430	30.8	41.23	134.505	1.054568	-0.150548	0.108092	0.057	0.48	0.1155	0	193	225	3
2026-02-12	15:44:27.450	38.115	46.725	137.48	1.095804	-0.101504	0.064172	0.051	0.501	0.108	0	193	225	3
2026-02-12	15:44:27.470	36.715	52.255	136.675	1.15534	-0.10248	0.040504	0.051	0.51	0.105	0	193	225	3
2026-02-12	15:44:27.490	37.24	57.435	134.365	1.222196	-0.143228	0.017812	0.0465	0.5295	0.0885	0	193	225	3
2026-02-12	15:44:27.510	39.2	63.385	131.635	1.232444	-0.14762	-0.007076	0.048	0.5535	0.09	0	193	225	3
2026-02-12	15:44:27.530	36.4	67.515	127.82	1.170956	-0.128588	-0.00854	0.0495	0.573	0.081	0	193	225	3
2026-02-12	15:44:27.550	27.02	66.535	122.605	1.188768	-0.1342	-0.011224	0.048	0.6015	0.0675	0	193	225	3
2026-02-12	15:44:27.570	13.895	62.16	116.025	1.237812	-0.166408	-0.026596	0.045	0.618	0.06	0	193	225	3
2026-02-12	15:44:27.590	0.56	57.89	112	1.141188	-0.173728	-0.016104	0.051	0.6345	0.0525	0	193	225	3
2026-02-12	15:44:27.610	-10.22	50.575	108.675	1.03578	-0.180804	0.008052	0.06	0.6495	0.048	0	192	231	3
2026-02-12	15:44:27.630	-16.345	42.035	102.55	0.947452	-0.203008	0.029768	0.063	0.6675	0.045	0	192	231	3
2026-02-12	15:44:27.650	-17.71	32.9	93.8	0.88084	-0.27084	0.049044	0.063	0.684	0.0345	0	192	231	3
2026-02-12	15:44:27.670	-6.86	23.275	83.545	0.920856	-0.331108	0.085156	0.0645	0.69	0.0285	0	192	231	3
2026-02-12	15:44:27.690	9.73	16.52	73.465	0.928908	-0.337208	0.117608	0.066	0.705	0.0285	0	192	231	3
2026-02-12	15:44:27.710	23.52	12.25	64.925	0.873764	-0.332328	0.120292	0.0735	0.717	0.0315	0	192	231	3
2026-02-12	15:44:27.730	41.23	4.235	51.45	0.901336	-0.296704	0.11712	0.0765	0.7215	0.0315	0	192	231	3
2026-02-12	15:44:27.750	43.575	0.84	41.615	0.891088	-0.261568	0.106872	0.081	0.732	0.0255	0	192	231	3
2026-02-12	15:44:27.770	41.02	-2.835	30.94	0.871568	-0.252784	0.091744	0.084	0.7365	0.021	0	192	231	3
2026-02-12	15:44:27.790	38.535	-7.105	19.32	0.868884	-0.241316	0.106628	0.087	0.7365	0.018	0	192	231	3
2026-02-12	15:44:27.810	35.07	-11.235	5.81	0.869372	-0.245464	0.150304	0.093	0.741	0.018	0	192	206	3
2026-02-12	15:44:27.830	29.435	-13.65	-6.51	0.839116	-0.264496	0.192516	0.0885	0.7395	0.018	0	192	206	3
2026-02-12	15:44:27.850	23.94	-15.225	-15.365	0.789096	-0.267668	0.207156	0.0825	0.741	0.0195	0	192	206	3
2026-02-12	15:44:27.870	22.155	-17.29	-23.03	0.767136	-0.268888	0.19398	0.084	0.741	0.0165	0	192	206	3
2026-02-12	15:44:27.890	25.34	-20.685	-30.835	0.800076	-0.271084	0.205692	0.0885	0.7395	0.0135	0	192	206	3
2026-02-12	15:44:27.910	31.325	-23.695	-37.975	0.83692	-0.2684	0.238388	0.081	0.735	0.0225	0	192	206	3
2026-02-12	15:44:27.930	40.32	-26.355	-47.88	0.942084	-0.255712	0.272304	0.0795	0.729	0.024	0	192	206	3
2026-02-12	15:44:27.950	47.775	-26.95	-59.045	1.050664	-0.235704	0.302316	0.0795	0.729	0.024	0	192	206	3
2026-02-12	15:44:27.970	47.6	-24.815	-65.38	1.0431	-0.212524	0.33184	0.0765	0.7155	0.024	0	192	206	3
2026-02-12	15:44:27.990	41.79	-21.49	-67.34	0.978928	-0.187148	0.334036	0.072	0.7035	0.0255	0	192	206	3
2026-02-12	15:44:28.010	30.59	-19.285	-67.13	0.973804	-0.140544	0.341844	0.0645	0.696	0.024	0	192	187	3
2026-02-12	15:44:28.030	14.42	-16.135	-68.6	0.980636	-0.113948	0.357216	0.057	0.684	0.027	0	192	187	3
2026-02-12	15:44:28.050	-4.025	-12.705	-70.84	0.971852	-0.123464	0.3843	0.0555	0.6765	0.03	0	192	187	3
2026-02-12	15:44:28.070	-19.81	-9.03	-72.66	0.977708	-0.132736	0.437736	0.054	0.663	0.0285	0	192	187	3
2026-02-12	15:44:28.090	-40.285	-6.58	-73.92	0.964044	-0.11346	0.434808	0.0525	0.657	0.0285	0	192	187	3
2026-02-12	15:44:28.110	-69.895	-5.425	-76.195	0.96624	-0.163968	0.407968	0.0555	0.6555	0.0315	0	192	187	3
2026-02-12	15:44:28.130	-86.31	-2.205	-78.82	0.944036	-0.166896	0.390888	0.0435	0.642	0.0285	0	192	187	3
2026-02-12	15:44:28.150	-96.18	1.855	-81.725	0.91988	-0.15128	0.369416	0.0375	0.633	0.033	0	192	187	3
2026-02-12	15:44:28.170	-104.895	5.81	-82.565	0.888648	-0.16592	0.361608	0.039	0.621	0.033	0	192	187	3
2026-02-12	15:44:28.190	-107.765	7.875	-81.795	0.865224	-0.196664	0.345748	0.0405	0.603	0.033	0	192	187	3
2026-02-12	15:44:28.210	-107.695	8.085	-80.71	0.85034	-0.210084	0.31842	0.0375	0.5925	0.033	0	192	201	3
2026-02-12	15:44:28.230	-107.1	7	-80.815	0.856196	-0.220576	0.291092	0.0345	0.579	0.033	0	192	201	3
2026-02-12	15:44:28.250	-105.77	5.04	-82.11	0.88572	-0.233752	0.271816	0.0375	0.5655	0.033	0	192	201	3
2026-02-12	15:44:28.270	-102.41	2.59	-83.44	0.897432	-0.241804	0.26108	0.039	0.5535	0.0285	0	192	201	3
2026-02-12	15:44:28.290	-98.14	-0.7	-85.295	0.901824	-0.247172	0.24766	0.0435	0.54	0.0255	0	192	201	3
2026-02-12	15:44:28.310	-91.49	-4.165	-87.64	0.909144	-0.276696	0.267424	0.0495	0.5325	0.0285	0	192	201	3
2026-02-12	15:44:28.330	-82.25	-7.595	-89.495	0.896212	-0.275964	0.283772	0.0405	0.5145	0.0225	0	192	201	3
2026-02-12	15:44:28.350	-76.93	-12.985	-90.825	0.854488	-0.25864	0.266692	0.0315	0.5055	0.0285	0	192	201	3
2026-02-12	15:44:28.370	-73.22	-24.255	-93.8	0.835944	-0.305	0.254736	0.0435	0.5025	0.0225	0	192	201	3
2026-02-12	15:44:28.390	-64.155	-33.04	-96.565	0.91256	-0.386008	0.275232	0.0465	0.4845	0.027	0	192	201	3
2026-02-12	15:44:28.410	-49.175	-42.77	-98.77	1.099952	-0.45018	0.30866	0.051	0.4635	0.0345	0	191	230	3
2026-02-12	15:44:28.430	-22.435	-51.205	-103.6	1.41764	-0.536312	0.409188	0.0555	0.4515	0.039	0	191	230	3
2026-02-12	15:44:28.450	16.835	-48.615	-104.125	1.592832	-0.63196	0.526796	0.0615	0.4305	0.045	0	191	230	3
2026-02-12	15:44:28.470	54.25	-39.34	-88.165	1.515728	-0.65148	0.559004	0.0615	0.4155	0.0495	0	191	230	3
2026-02-12	15:44:28.490	85.82	-26.915	-61.915	1.328824	-0.538996	0.495076	0.0675	0.411	0.0585	0	191	230	3
2026-02-12	15:44:28.510	93.345	-18.655	-28.56	1.104588	-0.390888	0.37576	0.072	0.402	0.0735	0	191	230	3
2026-02-12	15:44:28.530	88.06	-15.575	5.425	0.974536	-0.348676	0.321104	0.0705	0.3975	0.0795	0	191	230	3
2026-02-12	15:44:28.550	86.66	-14.98	35.7	0.935008	-0.283528	0.305	0.0705	0.3945	0.078	0	191	230	3
2026-02-12	15:44:28.570	78.295	-14.7	63.665	0.894504	-0.149084	0.30134	0.069	0.408	0.096	0	191	230	3
2026-02-12	15:44:28.590	57.4	-10.465	82.495	0.876204	-0.06466	0.261812	0.069	0.417	0.0975	0	191	230	3
2026-02-12	15:44:28.610	35	-5.95	90.51	0.949648	-0.108092	0.226188	0.0675	0.432	0.1035	0	191	260	3
2026-02-12	15:44:28.630	9.1	0.105	99.96	0.9638	-0.153476	0.182268	0.063	0.4455	0.105	0	191	260	3
2026-02-12	15:44:28.650	-22.225	4.76	108.885	0.906948	-0.169824	0.1281	0.0615	0.4605	0.1035	0	191	260	3
2026-02-12	15:44:28.670	-44.45	4.55	116.83	0.915	-0.206912	0.087108	0.06	0.4785	0.1005	0	191	260	3
2026-02-12	15:44:28.690	-53.235	1.505	122.535	0.99796	-0.232044	0.077836	0.0525	0.492	0.0945	0	191	260	3
2026-02-12	15:44:28.710	-50.995	-1.855	127.4	1.070428	-0.233752	0.082716	0.0465	0.507	0.096	0	191	260	3
2026-02-12	15:44:28.730	-42.245	-3.185	131.775	1.111176	-0.218624	0.084424	0.0495	0.5175	0.099	0	191	260	3
2026-02-12	15:44:28.750	-29.295	-2.835	133.98	1.174128	-0.213744	0.05856	0.045	0.5265	0.1065	0	191	260	3
2026-02-12	15:44:28.770	-17.57	-2.625	134.855	1.170956	-0.18422	0.003416	0.045	0.546	0.108	0	191	260	3
2026-02-12	15:44:28.790	-3.605	-3.57	132.51	1.123864	-0.186904	-0.046604	0.045	0.567	0.1035	0	191	260	3
2026-02-12	15:44:28.810	16.695	-4.585	126.49	1.131672	-0.255468	-0.048068	0.0495	0.5835	0.102	0	193	264	3
2026-02-12	15:44:28.830	35.91	-2.765	120.19	1.131916	-0.273768	-0.043432	0.054	0.6105	0.099	0	193	264	3
2026-02-12	15:44:28.850	47.565	0.07	113.435	1.050908	-0.277672	-0.060268	0.0495	0.6255	0.1005	0	193	264	3
2026-02-12	15:44:28.870	54.74	0.56	105.56	0.993324	-0.281576	-0.061488	0.051	0.645	0.102	0	193	264	3
2026-02-12	15:44:28.890	62.93	1.47	95.935	0.970876	-0.295972	-0.039772	0.06	0.666	0.1005	0	193	264	3
2026-02-12	15:44:28.910	72.905	4.2	85.12	1.054812	-0.308172	-0.016104	0.063	0.6795	0.099	0	193	264	3
2026-02-12	15:44:28.930	76.02	10.465	75.53	0.995764	-0.288408	-0.011712	0.069	0.6945	0.096	0	193	264	3
2026-02-12	15:44:28.950	72.765	14.07	66.955	0.933544	-0.273524	-0.011224	0.075	0.7065	0.093	0	193	264	3
2026-02-12	15:44:28.970	66.22	14.805	57.54	0.893528	-0.26352	-0.00732	0.066	0.7035	0.0915	0	193	264	3
2026-02-12	15:44:28.990	59.395	13.895	47.075	0.909144	-0.273036	0.0122	0.0735	0.714	0.0885	0	193	264	3
2026-02-12	15:44:29.010	47.705	13.37	30.975	0.892308	-0.267424	0.038064	0.0795	0.7245	0.084	0	196	227	3
2026-02-12	15:44:29.030	38.92	11.375	20.825	0.884256	-0.259616	0.030256	0.075	0.729	0.0765	0	196	227	3
2026-02-12	15:44:29.050	31.64	6.195	9.905	0.950624	-0.249612	0.014396	0.0855	0.7365	0.0675	0	196	227	3
2026-02-12	15:44:29.070	23.1	0.56	-2.415	1.023824	-0.241072	-0.028304	0.087	0.7395	0.063	0	196	227	3
2026-02-12	15:44:29.090	13.09	-5.04	-14.28	1.023824	-0.223504	-0.033428	0.081	0.7395	0.069	0	196	227	3
2026-02-12	15:44:29.110	7.28	-11.76	-25.34	1.011624	-0.238388	0.022692	0.0825	0.738	0.066	0	196	227	3
2026-02-12	15:44:29.130	9.17	-17.185	-34.65	1.011624	-0.254004	0.115656	0.081	0.7335	0.057	0	196	227	3
2026-02-12	15:44:29.150	12.04	-19.005	-42.945	1.009428	-0.256444	0.169336	0.0825	0.7305	0.0585	0	196	227	3
2026-02-12	15:44:29.170	16.975	-19.075	-51.87	1.013576	-0.273768	0.182268	0.0705	0.7395	0.069	0	196	227	3
2026-02-12	15:44:29.190	28.875	-17.605	-59.01	0.999668	-0.32574	0.231312	0.0795	0.717	0.0765	0	196	227	3
2026-02-12	15:44:29.210	55.23	-9.905	-61.915	0.952576	-0.340624	0.307196	0.0675	0.7185	0.069	0	198	179	3
2026-02-12	15:44:29.230	80.01	0.455	-60.795	0.852292	-0.154696	0.29158	0.0675	0.7185	0.069	0	198	179	3
2026-02-12	15:44:29.250	71.61	4.935	-59.745	0.8357	-0.137128	0.266692	0.0645	0.7065	0.0645	0	198	179	3
2026-02-12	15:44:29.270	56.035	6.37	-59.955	0.870348	-0.16348	0.26718	0.0585	0.6885	0.06	0	198	179	3
2026-02-12	15:44:29.290	42.315	5.775	-63.28	0.91866	-0.158844	0.31842	0.0525	0.684	0.057	0	198	179	3
2026-02-12	15:44:29.310	31.36	5.32	-68.88	0.983076	-0.156404	0.386984	0.0495	0.6795	0.0495	0	198	179	3
2026-02-12	15:44:29.330	20.055	4.025	-73.99	1.050908	-0.143716	0.438712	0.0525	0.6705	0.0465	0	198	179	3
2026-02-12	15:44:29.350	2.765	3.01	-77.91	1.076528	-0.134932	0.463844	0.0495	0.66	0.048	0	198	179	3
2026-02-12	15:44:29.370	-19.95	3.045	-80.535	1.067988	-0.14152	0.448228	0.0435	0.6525	0.048	0	198	179	3
2026-02-12	15:44:29.390	-45.92	3.15	-81.375	1.003572	-0.148352	0.394548	0.0405	0.633	0.0495	0	198	179	3
2026-02-12	15:44:29.410	-70.91	2.94	-81.025	0.935252	-0.15494	0.32818	0.048	0.63	0.0495	0	198	166	3
2026-02-12	15:44:29.430	-92.435	0.98	-81.305	0.864004	-0.1525	0.263276	0.036	0.6105	0.0525	0	198	166	3
2026-02-12	15:44:29.450	-105.805	-1.855	-82.46	0.837896	-0.175192	0.224968	0.0405	0.5985	0.0525	0	198	166	3
2026-02-12	15:44:29.470	-108.815	-3.255	-84.14	0.834724	-0.207644	0.207644	0.042	0.5775	0.0525	0	198	166	3
2026-02-12	15:44:29.490	-103.95	-4.34	-86.065	0.837896	-0.245708	0.193004	0.0375	0.564	0.054	0	198	166	3
2026-02-12	15:44:29.510	-93.31	-5.74	-88.55	0.859612	-0.271084	0.191296	0.0405	0.5535	0.0525	0	198	166	3
2026-02-12	15:44:29.530	-79.73	-7.455	-91.7	0.884256	-0.291336	0.208132	0.039	0.5415	0.051	0	198	166	3
2026-02-12	15:44:29.550	-64.82	-9.8	-94.71	0.901336	-0.304268	0.226432	0.0345	0.525	0.0525	0	198	166	3
2026-02-12	15:44:29.570	-53.095	-14.14	-97.79	0.927932	-0.29402	0.249368	0.0375	0.513	0.054	0	198	166	3
2026-02-12	15:44:29.590	-46.095	-18.165	-100.625	0.924516	-0.297924	0.271328	0.048	0.51	0.054	0	198	166	3
2026-02-12	15:44:29.610	-39.69	-22.68	-101.92	0.908656	-0.289628	0.296216	0.042	0.4935	0.051	0	197	185	3
2026-02-12	15:44:29.630	-34.825	-27.825	-101.71	0.887184	-0.269132	0.29768	0.042	0.4665	0.054	0	197	185	3
2026-02-12	15:44:29.650	-29.995	-36.435	-100.905	0.83692	-0.294508	0.301828	0.042	0.456	0.0585	0	197	185	3
2026-02-12	15:44:29.670	-18.62	-41.02	-99.225	0.826916	-0.34892	0.345992	0.0495	0.444	0.0615	0	197	185	3
2026-02-12	15:44:29.690	7.21	-43.96	-95.725	0.885476	-0.3965	0.405284	0.0585	0.426	0.066	0	197	185	3
2026-02-12	15:44:29.710	44.45	-44.905	-91.42	1.042124	-0.41846	0.461648	0.066	0.414	0.0705	0	197	185	3
2026-02-12	15:44:29.730	89.565	-40.915	-87.85	1.243668	-0.438956	0.563396	0.072	0.405	0.084	0	197	185	3
2026-02-12	15:44:29.750	133.805	-29.19	-76.72	1.348588	-0.421632	0.596092	0.078	0.396	0.0975	0	197	185	3
2026-02-12	15:44:29.770	155.54	-16.1	-56.805	1.402756	-0.327204	0.572912	0.081	0.3915	0.108	0	197	185	3
2026-02-12	15:44:29.790	148.225	-1.925	-33.425	1.381284	-0.23424	0.512888	0.0795	0.3915	0.114	0	197	185	3
2026-02-12	15:44:29.810	113.61	9.275	-6.685	1.29564	-0.14884	0.41846	0.093	0.3825	0.1245	0	196	221	3
2026-02-12	15:44:29.830	70.455	17.045	23.38	1.215608	-0.169824	0.380884	0.0885	0.3915	0.129	0	196	221	3
2026-02-12	15:44:29.850	70.98	30.205	64.05	1.130696	-0.282308	0.319884	0.084	0.39	0.135	0	196	221	3
2026-02-12	15:44:29.870	110.95	35.49	100.625	1.078236	-0.126148	0.301828	0.084	0.39	0.135	0	196	221	3
2026-02-12	15:44:29.890	113.155	40.18	119.105	1.075796	-0.050996	0.306464	0.0795	0.4065	0.138	0	196	221	3
2026-02-12	15:44:29.910	91	46.725	130.13	1.059936	-0.040992	0.30012	0.0675	0.4395	0.1365	0	196	221	3
2026-02-12	15:44:29.930	64.085	52.78	137.165	1.020164	-0.042944	0.293532	0.06	0.4665	0.135	0	196	221	3
2026-02-12	15:44:29.950	34.51	56.105	140.735	1.018212	-0.031476	0.274256	0.06	0.4845	0.1335	0	196	221	3
2026-02-12	15:44:29.970	-6.825	57.05	141.995	1.030412	-0.036356	0.23546	0.0525	0.5025	0.1215	0	196	221	3
2026-02-12	15:44:29.990	-51.275	56.21	142.94	1.069696	-0.06344	0.18666	0.0495	0.525	0.1155	0	196	221	3
2026-02-12	15:44:30.010	-97.02	51.765	144.76	1.13216	-0.099552	0.133224	0.054	0.5355	0.1155	0	196	258	3
2026-02-12	15:44:30.030	-108.29	52.99	146.685	1.195112	-0.22692	0.087596	0.0495	0.558	0.1035	0	196	258	3
2026-02-12	15:44:30.050	-80.325	59.885	149.835	1.21512	-0.317444	0.030256	0.0465	0.573	0.096	0	196	258	3
2026-02-12	15:44:30.070	-29.085	63.875	148.75	1.234152	-0.24888	0.01464	0.051	0.5925	0.099	0	196	258	3
2026-02-12	15:44:30.090	-4.13	65.66	143.045	1.217316	-0.20008	0.004636	0.0495	0.6135	0.0885	0	196	258	3
2026-02-12	15:44:30.110	-1.995	63.875	135.87	1.20414	-0.169824	0.00976	0.0525	0.6405	0.0735	0	196	258	3
2026-02-12	15:44:30.130	-8.715	60.375	127.645	1.133868	-0.127124	0.021472	0.0525	0.657	0.066	0	196	258	3
2026-02-12	15:44:30.150	-21.14	55.055	118.16	1.018456	-0.081008	0.037332	0.054	0.678	0.057	0	196	258	3
2026-02-12	15:44:30.170	-37.975	47.355	105.525	0.927688	-0.094916	0.057828	0.0645	0.6945	0.0495	0	196	258	3
2026-02-12	15:44:30.190	-47.075	39.165	91	0.933788	-0.186904	0.073688	0.072	0.7035	0.0465	0	196	258	3
2026-02-12	15:44:30.210	-45.36	31.71	77.21	0.916952	-0.261812	0.092232	0.0735	0.708	0.0465	0	198	260	3
2026-02-12	15:44:30.230	-36.505	25.34	65.695	0.875716	-0.318908	0.094916	0.0705	0.726	0.0405	0	198	260	3
2026-02-12	15:44:30.250	-21.805	18.095	54.67	0.843996	-0.331108	0.085644	0.081	0.7395	0.0405	0	198	260	3
2026-02-12	15:44:30.270	-1.155	11.025	42.28	0.892308	-0.337696	0.095648	0.0855	0.735	0.0495	0	198	260	3
2026-02-12	15:44:30.290	30.555	3.43	23.695	0.899872	-0.302072	0.099064	0.0915	0.744	0.045	0	198	260	3
2026-02-12	15:44:30.310	43.19	-1.96	12.845	0.864736	-0.27572	0.09516	0.0885	0.747	0.042	0	198	260	3
2026-02-12	15:44:30.330	47.67	-8.47	1.89	0.835456	-0.248148	0.094916	0.09	0.75	0.042	0	198	260	3
2026-02-12	15:44:30.350	45.045	-14.63	-9.8	0.80276	-0.233264	0.097844	0.0915	0.753	0.0405	0	198	260	3
2026-02-12	15:44:30.370	38.675	-21.665	-22.575	0.814716	-0.229604	0.115412	0.0885	0.7545	0.033	0	198	260	3
2026-02-12	15:44:30.390	33.04	-28.07	-36.295	0.853268	-0.24644	0.15738	0.0855	0.7515	0.033	0	198	260	3
2026-02-12	15:44:30.410	29.61	-31.885	-49.14	0.839604	-0.254736	0.19276	0.0855	0.747	0.0345	0	201	231	3
2026-02-12	15:44:30.430	29.855	-34.86	-62.125	0.835212	-0.262056	0.216184	0.087	0.7455	0.036	0	201	231	3
2026-02-12	15:44:30.450	32.76	-36.89	-75.775	0.847412	-0.260592	0.223992	0.084	0.735	0.042	0	201	231	3
2026-02-12	15:44:30.470	37.45	-38.465	-89.67	0.897188	-0.272304	0.238876	0.0765	0.7215	0.042	0	201	231	3
2026-02-12	15:44:30.490	44.905	-38.29	-104.055	0.950136	-0.285968	0.260348	0.0735	0.714	0.0405	0	201	231	3
2026-02-12	15:44:30.510	53.375	-37.17	-113.96	0.962336	-0.295728	0.274988	0.0735	0.714	0.0405	0	201	231	3
2026-02-12	15:44:30.530	66.36	-35.7	-117.95	0.997228	-0.319396	0.32574	0.066	0.696	0.048	0	201	231	3
2026-02-12	15:44:30.550	86.275	-32.83	-118.37	1.064328	-0.304756	0.376248	0.0585	0.6675	0.054	0	201	231	3
2026-02-12	15:44:30.570	100.555	-29.68	-118.23	1.118008	-0.252052	0.40748	0.0495	0.6525	0.0555	0	201	231	3
2026-02-12	15:44:30.590	102.655	-23.905	-117.005	1.125572	-0.22326	0.430172	0.0405	0.636	0.054	0	201	231	3
2026-02-12	15:44:30.610	96.95	-18.445	-111.65	1.135332	-0.191052	0.45506	0.0405	0.615	0.051	0	203	213	3
2026-02-12	15:44:30.630	79.94	-13.895	-102.69	1.083116	-0.116632	0.444324	0.039	0.597	0.0585	0	203	213	3
2026-02-12	15:44:30.650	45.115	-11.2	-90.86	0.982588	-0.026596	0.4026	0.036	0.588	0.0645	0	203	213	3
2026-02-12	15:44:30.670	-2.87	-12.04	-79.8	0.9333	0.026352	0.36356	0.03	0.5715	0.0555	0	203	213	3
2026-02-12	15:44:30.690	-50.89	-14.945	-71.645	0.955992	0.05368	0.345992	0.033	0.5685	0.0495	0	203	213	3
2026-02-12	15:44:30.710	-100.1	-19.285	-63.63	0.967704	0.022692	0.347212	0.03	0.561	0.057	0	203	213	3
2026-02-12	15:44:30.730	-136.325	-22.435	-55.965	0.9516	-0.046604	0.36356	0.0345	0.546	0.0585	0	203	213	3
2026-02-12	15:44:30.750	-155.4	-21.91	-49.98	0.935984	-0.122488	0.360632	0.039	0.5325	0.063	0	203	213	3
2026-02-12	15:44:30.770	-166.46	-18.69	-43.26	0.917196	-0.193004	0.335012	0.0405	0.522	0.0675	0	203	213	3
2026-02-12	15:44:30.790	-169.295	-13.825	-35.455	0.898408	-0.241072	0.298656	0.0405	0.507	0.069	0	203	213	3
2026-02-12	15:44:30.810	-166.215	-9.905	-28.385	0.887428	-0.269132	0.25742	0.0405	0.4995	0.0645	0	204	226	3
2026-02-12	15:44:30.830	-155.96	-8.05	-23.52	0.871568	-0.29402	0.24034	0.0435	0.4965	0.063	0	204	226	3
2026-02-12	15:44:30.850	-134.435	-7.91	-19.67	0.853512	-0.307196	0.260104	0.0435	0.4965	0.0675	0	204	226	3
2026-02-12	15:44:30.870	-105.595	-9.66	-16.205	0.85766	-0.295484	0.299632	0.0375	0.495	0.063	0	204	226	3
2026-02-12	15:44:30.890	-80.185	-10.745	-13.09	0.838872	-0.259128	0.350872	0.0525	0.4935	0.057	0	204	226	3
2026-02-12	15:44:30.910	-63.245	-11.06	-10.5	0.8052	-0.226188	0.368928	0.0435	0.4785	0.0615	0	204	226	3
2026-02-12	15:44:30.930	-49.595	-15.54	-11.55	0.794952	-0.202276	0.369172	0.0435	0.483	0.0525	0	204	226	3
2026-02-12	15:44:30.950	-36.225	-19.215	-13.58	0.824476	-0.262056	0.438468	0.0405	0.4815	0.057	0	204	226	3
2026-02-12	15:44:30.970	-8.785	-18.9	-9.625	0.84424	-0.277916	0.519476	0.042	0.4815	0.06	0	204	226	3
2026-02-12	15:44:30.990	12.915	-18.48	0	0.877424	-0.156404	0.468724	0.045	0.477	0.063	0	204	226	3
2026-02-12	15:44:31.010	11.655	-23.24	1.785	0.986736	-0.025864	0.383812	0.0465	0.4755	0.069	0	204	254	3
2026-02-12	15:44:31.030	-11.48	-30.905	-6.51	1.049444	-0.063196	0.328668	0.0495	0.477	0.072	0	204	254	3
2026-02-12	15:44:31.050	-18.655	-42.105	-21.21	1.16266	-0.20252	0.35624	0.0525	0.477	0.075	0	204	254	3
2026-02-12	15:44:31.070	-1.82	-51.52	-38.85	1.345172	-0.329156	0.488	0.054	0.477	0.078	0	204	254	3
2026-02-12	15:44:31.090	23.205	-48.44	-47.845	1.435696	-0.437004	0.586332	0.0435	0.4605	0.078	0	204	254	3
2026-02-12	15:44:31.110	47.88	-38.325	-46.97	1.363228	-0.393084	0.571692	0.0435	0.468	0.0975	0	204	254	3
2026-02-12	15:44:31.130	48.055	-24.71	-36.4	1.154852	-0.308416	0.432612	0.054	0.4515	0.1005	0	204	254	3
2026-02-12	15:44:31.150	39.06	-16.485	-19.215	0.943792	-0.293532	0.335012	0.054	0.4515	0.1005	0	204	254	3
2026-02-12	15:44:31.170	49.56	-14.525	-4.41	0.854732	-0.283284	0.30012	0.0555	0.447	0.1065	0	204	254	3
2026-02-12	15:44:31.190	69.405	-14.455	7.525	0.823744	-0.213744	0.272792	0.057	0.444	0.114	0	204	254	3
2026-02-12	15:44:31.210	76.055	-12.005	17.885	0.805688	-0.159576	0.243512	0.057	0.447	0.1185	0	204	289	3
2026-02-12	15:44:31.230	69.86	-7.385	27.265	0.845216	-0.177632	0.225212	0.057	0.453	0.1245	0	204	289	3
2026-02-12	15:44:31.250	55.3	-0.42	36.365	0.871812	-0.178852	0.211304	0.057	0.456	0.126	0	204	289	3
2026-02-12	15:44:31.270	34.405	7.455	45.43	0.904508	-0.181292	0.171776	0.057	0.4575	0.126	0	204	289	3
2026-02-12	15:44:31.290	13.58	15.155	54.285	0.956724	-0.18056	0.120048	0.054	0.471	0.126	0	204	289	3
2026-02-12	15:44:31.310	-2.59	20.86	63.77	1.011136	-0.160308	0.072468	0.051	0.4725	0.132	0	204	289	3
2026-02-12	15:44:31.330	-15.47	24.675	73.885	1.0309	-0.153232	0.056852	0.054	0.4815	0.129	0	204	289	3
2026-02-12	15:44:31.350	-23.24	27.93	85.155	1.080676	-0.159576	0.0427	0.0495	0.495	0.12	0	204	289	3
2026-02-12	15:44:31.370	-27.44	31.185	93.24	1.200724	-0.147864	0.030988	0.0465	0.5055	0.1125	0	204	289	3
2026-02-12	15:44:31.390	-36.05	35.98	99.295	1.212436	-0.140544	0.041968	0.0405	0.525	0.1065	0	204	289	3
2026-02-12	15:44:31.410	-45.64	37.59	104.125	1.185596	-0.170068	0.053192	0.0345	0.543	0.1035	0	204	298	3
2026-02-12	15:44:31.430	-50.365	37.03	106.575	1.156316	-0.209108	0.05856	0.036	0.5535	0.1005	0	204	298	3
2026-02-12	15:44:31.450	-50.75	36.89	106.855	1.144848	-0.253272	0.057828	0.036	0.5655	0.099	0	204	298	3
2026-02-12	15:44:31.470	-44.555	36.155	105.735	1.177544	-0.283772	0.06466	0.0315	0.582	0.093	0	204	298	3
2026-02-12	15:44:31.490	-35.595	35.665	105.07	1.090436	-0.27694	0.052216	0.0315	0.588	0.0915	0	204	298	3
2026-02-12	15:44:31.510	-24.08	31.885	102.34	0.993568	-0.257176	0.043432	0.0405	0.606	0.0885	0	204	298	3
2026-02-12	15:44:31.530	-26.95	23.835	96.46	0.941108	-0.171776	0.068076	0.0375	0.6195	0.0765	0	204	298	3
2026-02-12	15:44:31.550	-66.36	14.175	88.865	0.983808	-0.199348	0.117608	0.036	0.633	0.0705	0	204	298	3
2026-02-12	15:44:31.570	-105.14	7.385	80.57	0.943792	-0.323788	0.077348	0.0405	0.651	0.072	0	204	298	3
2026-02-12	15:44:31.590	-100.52	2.765	76.195	0.88206	-0.322812	0.04148	0.0435	0.6615	0.078	0	204	298	3
2026-02-12	15:44:31.610	-90.615	-1.295	70	0.837896	-0.344284	0.016592	0.045	0.6735	0.084	0	206	267	3
2026-02-12	15:44:31.630	-72.695	-3.885	60.62	0.837652	-0.418704	0.005368	0.048	0.681	0.0855	0	206	267	3
2026-02-12	15:44:31.650	-43.19	-3.99	51.415	0.836676	-0.456768	0.005124	0.054	0.69	0.09	0	206	267	3
2026-02-12	15:44:31.670	-9.905	-2.94	42.49	0.830088	-0.453352	0.005368	0.054	0.6975	0.096	0	206	267	3
2026-02-12	15:44:31.690	18.655	-1.61	32.41	0.812764	-0.422608	0.003904	0.054	0.7005	0.099	0	206	267	3
2026-02-12	15:44:31.710	36.715	-1.085	20.125	0.835456	-0.385764	0.031232	0.051	0.7035	0.0915	0	206	267	3
2026-02-12	15:44:31.730	44.415	0.98	7.945	0.843508	-0.362096	0.058316	0.063	0.705	0.0975	0	206	267	3
2026-02-12	15:44:31.750	45.43	3.01	-2.625	0.808616	-0.327448	0.074176	0.054	0.711	0.0885	0	206	267	3
2026-02-12	15:44:31.770	44.03	2.695	-14.875	0.80886	-0.3294	0.084668	0.0525	0.711	0.09	0	206	267	3
2026-02-12	15:44:31.790	45.605	2.625	-26.495	0.800076	-0.35136	0.116632	0.0525	0.711	0.09	0	206	267	3
2026-02-12	15:44:31.810	49.84	2.835	-34.825	0.775676	-0.332816	0.129808	0.0555	0.7095	0.0825	0	208	217	3
2026-02-12	15:44:31.830	54.215	2.625	-44.52	0.819596	-0.315492	0.13908	0.0525	0.705	0.075	0	208	217	3
2026-02-12	15:44:31.850	56.945	3.43	-57.225	0.919636	-0.301584	0.147376	0.0495	0.696	0.0735	0	208	217	3
2026-02-12	15:44:31.870	58.59	5.11	-72.975	1.06872	-0.313296	0.178608	0.048	0.687	0.069	0	208	217	3
2026-02-12	15:44:31.890	55.58	9.45	-87.605	1.142408	-0.303292	0.20374	0.042	0.6765	0.0615	0	208	217	3
2026-02-12	15:44:31.910	44.765	14.07	-95.235	1.09922	-0.277184	0.192028	0.042	0.669	0.0585	0	208	217	3
2026-02-12	15:44:31.930	27.825	15.295	-94.745	1.009916	-0.237656	0.168116	0.036	0.6705	0.0645	0	208	217	3
2026-02-12	15:44:31.950	11.27	13.79	-91.805	0.947452	-0.19154	0.166652	0.0285	0.6465	0.06	0	208	217	3
2026-02-12	15:44:31.970	-4.2	10.185	-89.53	0.941596	-0.139812	0.176656	0.0285	0.63	0.048	0	208	217	3
2026-02-12	15:44:31.990	-21.875	1.435	-87.605	0.9455	-0.156892	0.205936	0.0345	0.624	0.0525	0	208	217	3
2026-02-12	15:44:32.010	-30.835	-9.135	-84.525	0.970632	-0.216672	0.262544	0.0285	0.612	0.0555	0	208	182	3
2026-02-12	15:44:32.030	-26.005	-14.665	-83.09	1.007964	-0.249612	0.295484	0.024	0.591	0.051	0	208	182	3
2026-02-12	15:44:32.050	-18.34	-16.24	-82.775	1.038464	-0.240584	0.2989	0.024	0.576	0.051	0	208	182	3
2026-02-12	15:44:32.070	-18.06	-14.875	-82.74	1.016748	-0.226676	0.279136	0.024	0.567	0.057	0	208	182	3
2026-02-12	15:44:32.090	-24.045	-12.25	-82.285	0.969168	-0.216428	0.255468	0.027	0.558	0.0615	0	208	182	3
2026-02-12	15:44:32.110	-31.675	-10.185	-82.04	0.91378	-0.212768	0.222772	0.0255	0.5445	0.0615	0	208	182	3
2026-02-12	15:44:32.130	-37.94	-9.66	-82.81	0.861564	-0.219356	0.2013	0.024	0.534	0.0585	0	208	182	3
2026-02-12	15:44:32.150	-39.76	-11.34	-84.105	0.85888	-0.244488	0.199592	0.018	0.528	0.066	0	208	182	3
2026-02-12	15:44:32.170	-35.98	-13.65	-84.7	0.913292	-0.261568	0.220088	0.0315	0.5145	0.06	0	208	182	3
2026-02-12	15:44:32.190	-31.465	-14.07	-84.035	0.945988	-0.267424	0.227408	0.021	0.4995	0.0645	0	208	182	3
2026-02-12	15:44:32.210	-20.09	-15.855	-79.59	0.924272	-0.274744	0.247416	0.027	0.4815	0.0675	0	205	175	3
2026-02-12	15:44:32.230	-11.375	-19.425	-76.825	0.926712	-0.267912	0.266204	0.033	0.471	0.0675	0	205	175	3
2026-02-12	15:44:32.250	-4.375	-22.995	-74.865	0.946964	-0.267668	0.298168	0.042	0.4515	0.066	0	205	175	3
2026-02-12	15:44:32.270	-1.155	-26.075	-71.75	0.91622	-0.253272	0.310612	0.039	0.4395	0.0705	0	205	175	3
2026-02-12	15:44:32.290	-2.24	-31.115	-67.34	0.874496	-0.225456	0.30256	0.039	0.432	0.0765	0	205	175	3
2026-02-12	15:44:32.310	-5.915	-37.975	-63.56	0.871568	-0.227408	0.313052	0.0465	0.4215	0.0795	0	205	175	3
2026-02-12	15:44:32.330	-4.165	-44.17	-60.55	0.902068	-0.26596	0.348188	0.051	0.417	0.0825	0	205	175	3
2026-02-12	15:44:32.350	2.59	-47.88	-56.28	0.899628	-0.286944	0.372588	0.048	0.4095	0.087	0	205	175	3
2026-02-12	15:44:32.370	13.335	-50.26	-50.435	0.892308	-0.301584	0.376004	0.054	0.3945	0.099	0	205	175	3
2026-02-12	15:44:32.390	28.84	-53.27	-45.675	0.971608	-0.298656	0.381616	0.0555	0.3975	0.102	0	205	175	3
2026-02-12	15:44:32.410	50.96	-53.27	-42.175	1.076284	-0.330864	0.427976	0.0615	0.393	0.111	0	200	193	3
2026-02-12	15:44:32.430	92.05	-42	-35.63	1.165832	-0.471408	0.529724	0.0615	0.393	0.111	0	200	193	3
2026-02-12	15:44:32.450	137.41	-25.585	-19.985	1.290028	-0.470188	0.5124	0.066	0.384	0.129	0	200	193	3
2026-02-12	15:44:32.470	159.355	-4.62	2.205	1.41154	-0.281576	0.390888	0.072	0.3795	0.1515	0	200	193	3
2026-02-12	15:44:32.490	131.565	19.075	24.465	1.451312	-0.10492	0.235704	0.0735	0.3885	0.162	0	200	193	3
2026-02-12	15:44:32.510	73.5	39.375	43.785	1.438624	-0.04148	0.123464	0.0705	0.3945	0.1695	0	200	193	3
2026-02-12	15:44:32.530	22.155	51.975	61.81	1.369572	-0.05368	0.060024	0.066	0.4035	0.171	0	200	193	3
2026-02-12	15:44:32.550	-4.97	55.02	80.955	1.305156	-0.03294	0.07198	0.0615	0.4095	0.1725	0	200	193	3
2026-02-12	15:44:32.570	-29.19	54.95	99.925	1.171444	0.016104	0.119804	0.051	0.4215	0.156	0	200	193	3
2026-02-12	15:44:32.590	-60.62	49.84	114.835	1.046516	0.013664	0.169092	0.0525	0.432	0.1455	0	200	193	3
2026-02-12	15:44:32.610	-92.75	40.495	126.105	0.993568	-0.01952	0.192516	0.039	0.444	0.129	0	196	220	3
2026-02-12	15:44:32.630	-133.07	31.71	137.655	0.9882	-0.130784	0.182512	0.0285	0.4665	0.126	0	196	220	3
2026-02-12	15:44:32.650	-158.9	23.905	149.52	0.94062	-0.256444	0.144448	0.024	0.483	0.1185	0	196	220	3
2026-02-12	15:44:32.670	-156.975	14.91	154.735	0.941108	-0.310124	0.094916	0.018	0.51	0.1095	0	196	220	3
2026-02-12	15:44:32.690	-139.58	8.715	155.68	1.012356	-0.358192	0.045384	0.0135	0.525	0.1035	0	196	220	3
2026-02-12	15:44:32.710	-106.33	6.825	154.035	1.103368	-0.358192	-0.032696	0.0165	0.5415	0.1005	0	196	220	3
2026-02-12	15:44:32.730	-69.37	7.035	150.745	1.105808	-0.290848	-0.08686399	0.0195	0.561	0.099	0	196	220	3
2026-02-12	15:44:32.750	-32.41	7.035	146.125	1.055544	-0.288164	-0.131028	0.018	0.5715	0.0975	0	196	220	3
2026-02-12	15:44:32.770	6.615	3.465	137.865	1.104588	-0.310124	-0.160552	0.0255	0.594	0.1065	0	196	220	3
2026-02-12	15:44:32.790	43.645	2.31	127.75	1.060912	-0.343064	-0.144936	0.0195	0.618	0.1005	0	196	220	3
2026-02-12	15:44:32.810	72.345	1.715	117.11	1.005768	-0.362828	-0.088572	0.024	0.6345	0.1035	0	196	217	3
2026-02-12	15:44:32.830	97.37	2.66	104.23	0.984052	-0.393816	-0.043188	0.0285	0.6555	0.0915	0	196	217	3
2026-02-12	15:44:32.850	121.59	3.115	84.525	0.876448	-0.357704	0.004392	0.0285	0.675	0.1035	0	196	217	3
2026-02-12	15:44:32.870	125.93	1.365	71.12	0.81252	-0.359412	0.033672	0.033	0.6885	0.0975	0	196	217	3
2026-02-12	15:44:32.890	125.335	-0.945	57.89	0.815692	-0.382104	0.049288	0.0405	0.7065	0.087	0	196	217	3
2026-02-12	15:44:32.910	122.185	-3.43	45.5	0.83448	-0.366732	0.066856	0.0375	0.714	0.0825	0	196	217	3
2026-02-12	15:44:32.930	113.365	-5.95	34.65	0.811788	-0.363804	0.07076	0.0375	0.7185	0.075	0	196	217	3
2026-02-12	15:44:32.950	105.245	-9.8	25.41	0.792268	-0.378932	0.078324	0.0405	0.729	0.069	0	196	217	3
2026-02-12	15:44:32.970	101.01	-13.37	16.415	0.829356	-0.390888	0.104432	0.039	0.7365	0.069	0	196	217	3
2026-02-12	15:44:32.990	99.4	-13.51	7.07	0.932568	-0.383568	0.132492	0.0435	0.7395	0.0555	0	196	217	3
2026-02-12	15:44:33.010	91.735	-9.905	-0.805	0.903288	-0.338184	0.141276	0.0495	0.741	0.0495	0	200	182	3
2026-02-12	15:44:33.030	79.24	-7.84	-8.68	0.8601	-0.323544	0.13786	0.042	0.744	0.0525	0	200	182	3
2026-02-12	15:44:33.050	63.875	-7.35	-18.06	0.840824	-0.303292	0.14274	0.045	0.738	0.0525	0	200	182	3
2026-02-12	15:44:33.070	50.855	-6.65	-26.11	0.863028	-0.277916	0.158356	0.045	0.738	0.0525	0	200	182	3
2026-02-12	15:44:33.090	40.18	-5.145	-31.5	0.85644	-0.2562	0.17568	0.0405	0.735	0.0465	0	200	182	3
2026-02-12	15:44:33.110	30.38	-4.06	-36.82	0.842044	-0.250588	0.19642	0.036	0.7305	0.0435	0	200	182	3
2026-02-12	15:44:33.130	26.145	-3.955	-41.72	0.85888	-0.268888	0.228872	0.039	0.726	0.0405	0	200	182	3
2026-02-12	15:44:33.150	29.96	-4.025	-46.165	0.932568	-0.278892	0.257664	0.033	0.7185	0.039	0	200	182	3
2026-02-12	15:44:33.170	36.435	-5.04	-51.345	1.0309	-0.235948	0.254736	0.0225	0.714	0.0405	0	200	182	3
2026-02-12	15:44:33.190	34.93	-6.79	-58.695	1.077748	-0.209596	0.26108	0.021	0.7155	0.0405	0	200	182	3
2026-02-12	15:44:33.210	28.84	-7.63	-65.625	1.089216	-0.210328	0.290604	0.018	0.6975	0.036	0	203	158	3
2026-02-12	15:44:33.230	21.665	-9.45	-70.945	1.107516	-0.1891	0.325984	0.018	0.69	0.033	0	203	158	3
2026-02-12	15:44:33.250	10.29	-8.4	-73.255	1.032852	-0.179584	0.342332	0.018	0.6825	0.0345	0	203	158	3
2026-02-12	15:44:33.270	0.595	-8.89	-73.08	0.974048	-0.175192	0.364048	0.009	0.672	0.033	0	203	158	3
2026-02-12	15:44:33.290	-6.65	-12.67	-70.945	0.955504	-0.157868	0.378444	0.012	0.66	0.0375	0	203	158	3
2026-02-12	15:44:33.310	-13.02	-17.745	-69.72	0.941352	-0.148352	0.380396	0.0075	0.6435	0.0435	0	203	158	3
2026-02-12	15:44:33.330	-15.68	-22.925	-69.16	0.92598	-0.16714	0.38064	0	0.63	0.045	0	203	158	3
2026-02-12	15:44:33.350	-16.135	-27.09	-69.44	0.933056	-0.159088	0.381372	0.0045	0.618	0.0465	0	203	158	3
2026-02-12	15:44:33.370	-22.085	-27.93	-70.63	0.912804	-0.127368	0.368684	0.0045	0.609	0.0525	0	203	158	3
2026-02-12	15:44:33.390	-37.345	-25.585	-72.905	0.863516	-0.11224	0.32574	0	0.603	0.06	0	203	158	3
2026-02-12	15:44:33.410	-53.795	-22.855	-78.085	0.842532	-0.122244	0.271328	-0.003	0.5925	0.057	0	204	167	3
2026-02-12	15:44:33.430	-69.72	-20.755	-85.225	0.842288	-0.142008	0.2379	0	0.5775	0.0615	0	204	167	3
2026-02-12	15:44:33.450	-80.745	-16.485	-91.42	0.909876	-0.19764	0.223016	0.003	0.5685	0.063	0	204	167	3
2026-02-12	15:44:33.470	-72.205	0.77	-94.92	0.859856	-0.255712	0.25864	0.003	0.5475	0.069	0	204	167	3
2026-02-12	15:44:33.490	-33.88	-2.52	-102.655	0.882792	-0.175436	0.339892	0	0.5295	0.069	0	204	167	3
2026-02-12	15:44:33.510	-35.63	-1.4	-107.065	0.8601	-0.13664	0.311588	0	0.5145	0.066	0	204	167	3
2026-02-12	15:44:33.530	-55.615	-5.18	-109.69	0.839604	-0.18788	0.296948	0	0.4935	0.0615	0	204	167	3
2026-02-12	15:44:33.550	-81.865	-14.035	-110.53	0.849364	-0.239364	0.309392	0.003	0.477	0.0615	0	204	167	3
2026-02-12	15:44:33.570	-105.42	-25.235	-111.02	0.8235	-0.269376	0.342332	0.006	0.456	0.06	0	204	167	3
2026-02-12	15:44:33.590	-125.3	-38.29	-111.16	0.872056	-0.267424	0.426512	0.0075	0.4395	0.0555	0	204	167	3
2026-02-12	15:44:33.610	-137.2	-43.26	-109.06	0.935984	-0.344528	0.513132	0.009	0.435	0.054	0	203	200	3
2026-02-12	15:44:33.630	-130.76	-42.735	-102.55	0.9333	-0.398208	0.536068	0.024	0.411	0.0615	0	203	200	3
2026-02-12	15:44:33.650	-110.075	-41.37	-93.905	0.93574	-0.431148	0.504104	0.027	0.4035	0.06	0	203	200	3
2026-02-12	15:44:33.670	-76.335	-38.99	-84.91	1.026752	-0.46726	0.48678	0.039	0.378	0.063	0	203	200	3
2026-02-12	15:44:33.690	-16.485	-33.145	-72.73	1.148508	-0.47214	0.503128	0.0375	0.3675	0.0645	0	203	200	3
2026-02-12	15:44:33.710	43.4	-25.97	-57.015	1.23708	-0.457256	0.482144	0.0375	0.3675	0.0645	0	203	200	3
2026-02-12	15:44:33.730	83.65	-18.375	-41.405	1.331752	-0.425292	0.464088	0.042	0.3555	0.0675	0	203	200	3
2026-02-12	15:44:33.750	96.005	-9.94	-23.31	1.413248	-0.330376	0.408944	0.051	0.339	0.078	0	203	200	3
2026-02-12	15:44:33.770	72.66	-2.87	-2.45	1.355664	-0.218136	0.337452	0.0555	0.339	0.09	0	203	200	3
2026-02-12	15:44:33.790	30.38	0.035	20.055	1.205116	-0.194468	0.305244	0.0585	0.3405	0.09	0	203	200	3
2026-02-12	15:44:33.810	2.94	-1.47	43.4	1.072868	-0.235948	0.315004	0.0555	0.3345	0.096	0	203	247	3
2026-02-12	15:44:33.830	0.42	-5.425	64.82	1.029192	-0.203496	0.341844	0.0525	0.3315	0.105	0	203	247	3
2026-02-12	15:44:33.850	-2.03	-7.07	82.95	1.029192	-0.1708	0.344528	0.0525	0.3495	0.0945	0	203	247	3
2026-02-12	15:44:33.870	-11.655	-6.755	99.855	1.014796	-0.185928	0.320616	0.048	0.3585	0.093	0	203	247	3
2026-02-12	15:44:33.890	-20.055	-6.93	116.34	0.999668	-0.214964	0.273036	0.036	0.3585	0.0885	0	203	247	3
2026-02-12	15:44:33.910	-22.855	-5.565	134.295	1.04676	-0.237412	0.205204	0.0255	0.378	0.0885	0	203	247	3
2026-02-12	15:44:33.930	-21.105	-3.465	150.045	1.103124	-0.233264	0.144448	0.018	0.396	0.0885	0	203	247	3
2026-02-12	15:44:33.950	-18.13	-1.505	161.56	1.09068	-0.20984	0.10126	0.015	0.426	0.09	0	203	247	3
2026-02-12	15:44:33.970	-12.215	-0.945	169.54	1.087996	-0.193736	0.06344	0.012	0.453	0.0855	0	203	247	3
2026-02-12	15:44:33.990	-3.255	-1.225	171.71	1.176812	-0.193736	0.042944	0.0015	0.4815	0.081	0	203	247	3
2026-02-12	15:44:34.010	3.465	1.155	170.625	1.192916	-0.18422	0.039772	-0.003	0.5115	0.078	0	203	277	3
2026-02-12	15:44:34.030	10.605	3.99	168.175	1.141188	-0.200812	0.051728	-0.003	0.528	0.078	0	203	277	3
2026-02-12	15:44:34.050	24.115	6.335	162.05	1.148264	-0.269864	0.08174	-0.009	0.5475	0.0735	0	203	277	3
2026-02-12	15:44:34.070	43.365	11.725	153.23	1.214632	-0.292312	0.10614	0.003	0.5745	0.0735	0	203	277	3
2026-02-12	15:44:34.090	52.955	20.09	142.73	1.131428	-0.271816	0.101992	-0.0045	0.6045	0.0645	0	203	277	3
2026-02-12	15:44:34.110	57.015	25.76	131.46	1.025532	-0.280844	0.074908	0.003	0.6255	0.0675	0	203	277	3
2026-02-12	15:44:34.130	64.26	27.3	111.51	1.042124	-0.28304	0.054412	0.003	0.6255	0.0675	0	203	277	3
2026-02-12	15:44:34.150	63.42	28.07	98.175	0.947452	-0.26718	0.044408	0.0045	0.654	0.06	0	203	277	3
2026-02-12	15:44:34.170	58.415	25.305	85.715	0.865712	-0.266204	0.054412	0.012	0.687	0.0495	0	203	277	3
2026-02-12	15:44:34.190	50.925	20.79	74.13	0.820328	-0.284992	0.06466	0.0225	0.7005	0.042	0	203	277	3
2026-02-12	15:44:34.210	47.67	15.68	62.475	0.860588	-0.297436	0.088816	0.0285	0.714	0.036	0	203	265	3
2026-02-12	15:44:34.230	47.285	12.67	50.435	0.876204	-0.301584	0.107116	0.03	0.723	0.03	0	203	265	3
2026-02-12	15:44:34.250	45.885	11.655	40.075	0.836432	-0.3111	0.09394	0.0315	0.7245	0.0285	0	203	265	3
2026-02-12	15:44:34.270	45.465	8.61	29.855	0.831796	-0.315248	0.08784	0.0375	0.732	0.0165	0	203	265	3
2026-02-12	15:44:34.290	47.11	5.145	18.55	0.832772	-0.318176	0.101504	0.036	0.741	0.0195	0	203	265	3
2026-02-12	15:44:34.310	49.63	1.995	6.545	0.8418	-0.312076	0.12566	0.0405	0.7335	0.0165	0	203	265	3
2026-02-12	15:44:34.330	52.78	-1.435	-8.47	0.865956	-0.310612	0.154208	0.033	0.7425	0.0105	0	203	265	3
2026-02-12	15:44:34.350	58.38	-4.165	-21.35	0.848388	-0.315004	0.190564	0.036	0.738	0.006	0	203	265	3
2026-02-12	15:44:34.370	65.59	-6.3	-30.485	0.848388	-0.30988	0.217404	0.0375	0.735	0	0	203	265	3
2026-02-12	15:44:34.390	72.625	-9.415	-40.635	0.890112	-0.281576	0.225212	0.0315	0.726	-0.006	0	203	265	3
2026-02-12	15:44:34.410	75.67	-13.895	-54.32	0.969656	-0.264252	0.236192	0.0285	0.72	-0.015	0	202	232	3
2026-02-12	15:44:34.430	76.58	-17.43	-68.705	1.020896	-0.290848	0.27084	0.0285	0.7155	-0.012	0	202	232	3
2026-02-12	15:44:34.450	79.94	-20.09	-78.96	1.035292	-0.294264	0.315492	0.0285	0.7065	-0.0075	0	202	232	3
2026-02-12	15:44:34.470	82.355	-21.735	-84.7	1.01138	-0.262056	0.349408	0.0225	0.699	-0.012	0	202	232	3
2026-02-12	15:44:34.490	77.875	-21.91	-87.43	0.956236	-0.21106	0.364292	0.027	0.687	-0.021	0	202	232	3
2026-02-12	15:44:34.510	66.15	-22.54	-87.92	0.926468	-0.17202	0.371124	0.0195	0.6675	-0.0165	0	202	232	3
2026-02-12	15:44:34.530	51.38	-24.115	-85.715	0.914268	-0.154452	0.368928	0.0075	0.6585	-0.018	0	202	232	3
2026-02-12	15:44:34.550	35.245	-25.445	-80.395	0.899384	-0.17202	0.388448	0.0075	0.6435	-0.009	0	202	232	3
2026-02-12	15:44:34.570	27.79	-26.565	-74.06	0.930372	-0.193492	0.437248	0.0045	0.6255	-0.006	0	202	232	3
2026-02-12	15:44:34.590	25.935	-25.97	-68.53	0.952576	-0.173728	0.458476	0.0015	0.606	-0.0045	0	202	232	3
2026-02-12	15:44:34.610	19.95	-24.92	-63.735	0.980636	-0.142984	0.458476	0.0015	0.6	-0.0045	0	201	222	3
2026-02-12	15:44:34.630	8.05	-22.75	-60.025	1.00528	-0.131272	0.439932	0	0.591	-0.003	0	201	222	3
2026-02-12	15:44:34.650	-6.615	-19.46	-56.175	0.982588	-0.118828	0.429684	0	0.5805	-0.0015	0	201	222	3
2026-02-12	15:44:34.670	-21.525	-16.17	-52.64	0.9394	-0.107604	0.405284	-0.0015	0.5775	0	0	201	222	3
2026-02-12	15:44:34.690	-37.24	-14.35	-50.26	0.912072	-0.104676	0.3843	0	0.567	0.006	0	201	222	3
2026-02-12	15:44:34.710	-51.24	-13.405	-48.965	0.919636	-0.125172	0.370148	0.0015	0.561	0.012	0	201	222	3
2026-02-12	15:44:34.730	-60.13	-12.81	-47.145	0.92842	-0.139324	0.368196	-0.003	0.558	0.012	0	201	222	3
2026-02-12	15:44:34.750	-66.43	-12.18	-44.59	0.916708	-0.153476	0.361852	-0.0015	0.552	0.0165	0	201	222	3
2026-02-12	15:44:34.770	-74.2	-12.25	-40.88	0.900848	-0.154208	0.3355	-0.0015	0.552	0.0165	0	201	222	3
2026-02-12	15:44:34.790	-76.65	-12.215	-39.34	0.898896	-0.162992	0.33428	-0.0015	0.537	0.0135	0	201	222	3
2026-02-12	15:44:34.810	-77.98	-12.495	-38.395	0.891088	-0.162992	0.319884	0	0.522	0.0135	0	198	243	3
2026-02-12	15:44:34.830	-79.66	-13.09	-37.45	0.85156	-0.16592	0.315736	0	0.5175	0.0165	0	198	243	3
2026-02-12	15:44:34.850	-78.82	-14.665	-37.03	0.833504	-0.173972	0.313296	0	0.5145	0.015	0	198	243	3
2026-02-12	15:44:34.870	-76.545	-16.94	-38.325	0.863028	-0.176656	0.30378	0.0015	0.5115	0.0195	0	198	243	3
2026-02-12	15:44:34.890	-76.79	-18.62	-40.845	0.87718	-0.170556	0.288164	0	0.5085	0.0255	0	198	243	3
2026-02-12	15:44:34.910	-78.75	-20.02	-43.015	0.85888	-0.179096	0.279624	0.0015	0.501	0.018	0	198	243	3
2026-02-12	15:44:34.930	-77.035	-22.54	-46.06	0.860588	-0.190564	0.285968	0.0015	0.4875	0.0225	0	198	243	3
2026-02-12	15:44:34.950	-72.66	-24.675	-50.225	0.85766	-0.209108	0.30134	0.003	0.477	0.027	0	198	243	3
2026-02-12	15:44:34.970	-64.05	-26.915	-55.195	0.851804	-0.223016	0.323788	0.003	0.4755	0.03	0	198	243	3
2026-02-12	15:44:34.990	-55.545	-29.26	-59.115	0.828624	-0.21716	0.330864	0.003	0.4755	0.03	0	198	243	3
2026-02-12	15:44:35.010	-50.085	-31.5	-61.355	0.82716	-0.21716	0.323056	0.0105	0.4605	0.0285	0	193	271	2
2026-02-12	15:44:35.030	-45.255	-34.545	-62.44	0.836676	-0.205936	0.317688	0.015	0.4425	0.033	0	193	271	2
2026-02-12	15:44:35.050	-43.68	-38.325	-63.84	0.87352	-0.193492	0.310612	0.0135	0.432	0.0405	0	193	271	2
2026-02-12	15:44:35.070	-44.905	-42.245	-65.975	0.918172	-0.213744	0.298656	0.0165	0.4215	0.0435	0	193	271	2
2026-02-12	15:44:35.090	-40.495	-49.07	-69.51	1.012356	-0.255956	0.312076	0.0195	0.417	0.045	0	193	271	2
2026-02-12	15:44:35.110	-24.85	-55.685	-74.83	1.148996	-0.336232	0.412604	0.03	0.405	0.036	0	193	271	2
2026-02-12	15:44:35.130	11.83	-55.615	-80.29	1.302228	-0.468236	0.58926	0.0315	0.3945	0.0585	0	193	271	2
2026-02-12	15:44:35.150	61.985	-46.935	-76.23	1.430084	-0.50752	0.673928	0.0315	0.39	0.0585	0	193	271	2
2026-02-12	15:44:35.170	103.32	-29.4	-60.515	1.387384	-0.39772	0.61854	0.045	0.3855	0.0735	0	193	271	2
2026-02-12	15:44:35.190	115.815	-8.61	-31.605	1.266604	-0.271328	0.470676	0.0405	0.3645	0.0825	0	193	271	2
2026-02-12	15:44:35.210	103.53	8.295	-0.21	1.161928	-0.216428	0.380884	0.0465	0.3675	0.093	0	186	298	3
2026-02-12	15:44:35.230	94.325	18.9	22.785	1.128256	-0.183976	0.349652	0.054	0.3735	0.1005	0	186	298	3
2026-02-12	15:44:35.250	88.235	24.99	42.665	1.1102	-0.079788	0.3294	0.048	0.3765	0.102	0	186	298	3
2026-02-12	15:44:35.270	64.47	30.135	57.33	1.092632	0.011712	0.316224	0.0435	0.3795	0.1065	0	186	298	3
2026-02-12	15:44:35.290	20.475	38.15	67.865	1.070184	-0.01342	0.299876	0.0435	0.39	0.102	0	186	298	3
2026-02-12	15:44:35.310	-21.42	44.485	78.225	1.0187	-0.05734	0.268156	0.039	0.399	0.1005	0	186	298	3
2026-02-12	15:44:35.330	-58.065	47.425	89.95	0.949404	-0.105652	0.249124	0.027	0.402	0.099	0	186	298	3
2026-02-12	15:44:35.350	-82.075	47.6	102.865	0.942816	-0.171532	0.229604	0.039	0.4185	0.081	0	186	298	3
2026-02-12	15:44:35.370	-87.36	45.43	116.725	0.999424	-0.210084	0.210328	0.027	0.4305	0.069	0	186	298	3
2026-02-12	15:44:35.390	-81.69	43.925	128.975	1.063596	-0.217648	0.198372	0.024	0.4515	0.063	0	186	298	3
2026-02-12	15:44:35.410	-73.43	44.87	141.365	1.089948	-0.2501	0.172996	0.0255	0.474	0.0525	0	182	318	3
2026-02-12	15:44:35.430	-58.135	46.375	145.18	1.167052	-0.308416	0.180316	0.018	0.492	0.045	0	182	318	3
2026-02-12	15:44:35.450	-34.3	50.05	144.725	1.281732	-0.316956	0.186904	0.0135	0.516	0.036	0	182	318	3
2026-02-12	15:44:35.470	-17.395	55.51	142.975	1.248792	-0.267424	0.161528	0.012	0.5415	0.0285	0	182	318	3
2026-02-12	15:44:35.490	-9.59	57.82	140.385	1.126304	-0.238144	0.125416	0.0075	0.57	0.0165	0	182	318	3
2026-02-12	15:44:35.510	-4.27	54.775	135.17	1.02358	-0.224236	0.099796	0.0075	0.582	0.009	0	182	318	3
2026-02-12	15:44:35.530	-0.315	49.945	127.085	0.913292	-0.227408	0.090524	0.018	0.5955	0.018	0	182	318	3
2026-02-12	15:44:35.550	5.145	43.645	116.41	0.851316	-0.253028	0.090524	0.0135	0.618	0	0	182	318	3
2026-02-12	15:44:35.570	12.81	36.855	104.3	0.847656	-0.288652	0.09467199	0.0225	0.6315	-0.0015	0	182	318	3
2026-02-12	15:44:35.590	24.08	30.345	92.225	0.903776	-0.300364	0.109312	0.021	0.6465	-0.0105	0	182	318	3
2026-02-12	15:44:35.610	33.6	24.78	79.59	0.843996	-0.27206	0.108336	0.027	0.6615	-0.0105	0	181	308	3
2026-02-12	15:44:35.630	38.29	18.655	66.885	0.788364	-0.246684	0.08906	0.027	0.6615	-0.0105	0	181	308	3
2026-02-12	15:44:35.650	38.78	12.985	55.405	0.789584	-0.236924	0.088084	0.0405	0.6765	-0.018	0	181	308	3
2026-02-12	15:44:35.670	38.885	7.245	42.525	0.85888	-0.238388	0.114924	0.0465	0.696	-0.024	0	181	308	3
2026-02-12	15:44:35.690	35.315	3.885	30.59	0.838384	-0.225944	0.14152	0.039	0.7035	-0.024	0	181	308	3
2026-02-12	15:44:35.710	31.675	-0.455	17.885	0.808128	-0.229848	0.15738	0.0435	0.7065	-0.027	0	181	308	3
2026-02-12	15:44:35.730	31.64	-5.32	3.43	0.811788	-0.254492	0.179828	0.0465	0.7065	-0.027	0	181	308	3
2026-02-12	15:44:35.750	37.8	-9.905	-10.01	0.849364	-0.280112	0.21228	0.051	0.7125	-0.03	0	181	308	3
2026-02-12	15:44:35.770	47.88	-13.72	-20.09	0.859856	-0.268644	0.24156	0.042	0.7065	-0.033	0	181	308	3
2026-02-12	15:44:35.790	56.84	-16.695	-27.825	0.844484	-0.251076	0.25864	0.042	0.699	-0.0315	0	181	308	3
2026-02-12	15:44:35.810	66.745	-18.865	-35.175	0.8601	-0.253516	0.297924	0.033	0.684	-0.036	0	182	278	3
2026-02-12	15:44:35.830	83.44	-17.115	-43.995	0.957944	-0.241804	0.363072	0.0465	0.69	-0.0315	0	182	278	3
2026-02-12	15:44:35.850	92.505	-12.6	-53.76	1.075796	-0.141032	0.353068	0.0435	0.681	-0.039	0	182	278	3
2026-02-12	15:44:35.870	72.8	-14.77	-68.005	1.17608	-0.038552	0.29158	0.039	0.6645	-0.0405	0	182	278	3
2026-02-12	15:44:35.890	34.265	-17.36	-85.785	1.182424	-0.053192	0.277672	0.0315	0.654	-0.0375	0	182	278	3
2026-02-12	15:44:35.910	0.28	-20.79	-100.52	1.149728	-0.106628	0.327936	0.0285	0.6465	-0.0345	0	182	278	3
2026-02-12	15:44:35.930	-16.765	-22.47	-110.88	1.098732	-0.128344	0.41236	0.024	0.633	-0.0315	0	182	278	3
2026-02-12	15:44:35.950	-31.15	-23.31	-113.505	0.98088	-0.117364	0.467016	0.0195	0.6255	-0.0315	0	182	278	3
2026-02-12	15:44:35.970	-46.41	-27.58	-112.14	0.899872	-0.120292	0.510204	0.021	0.6045	-0.03	0	182	278	3
2026-02-12	15:44:35.990	-55.23	-32.48	-110.6	0.862052	-0.158356	0.530944	0.015	0.591	-0.0195	0	182	278	3
2026-02-12	15:44:36.010	-48.545	-37.66	-108.71	0.831552	-0.187148	0.502152	0.015	0.591	-0.0195	0	183	264	3
2026-02-12	15:44:36.030	-40.425	-39.41	-109.13	0.856928	-0.174216	0.470432	0.006	0.549	-0.015	0	183	264	3
2026-02-12	15:44:36.050	-35.77	-37.8	-112.735	0.877424	-0.152744	0.382836	0.006	0.549	-0.015	0	183	264	3
2026-02-12	15:44:36.070	-40.74	-35.735	-117.705	0.893528	-0.153232	0.324764	0.0075	0.528	-0.006	0	183	264	3
2026-02-12	15:44:36.090	-49.385	-33.95	-123.9	0.913292	-0.170312	0.276208	0.009	0.498	0	0	183	264	3
2026-02-12	15:44:36.110	-57.225	-33.04	-129.22	0.950868	-0.198128	0.256932	0.0165	0.48	0.003	0	183	264	3
2026-02-12	15:44:36.130	-60.375	-33.075	-132.16	1.005524	-0.242292	0.294752	0.024	0.4635	0.0075	0	183	264	3
2026-02-12	15:44:36.150	-56.98	-33.425	-130.55	1.025288	-0.300364	0.35624	0.0255	0.4575	0.006	0	183	264	3
2026-02-12	15:44:36.170	-48.86	-33.285	-123.06	1.00772	-0.325984	0.41114	0.0195	0.432	0.006	0	183	264	3
2026-02-12	15:44:36.190	-39.76	-32.13	-110.18	0.97112	-0.330864	0.446032	0.0285	0.414	0.0105	0	183	264	3
2026-02-12	15:44:36.210	-29.61	-30.625	-92.225	0.926224	-0.315736	0.45872	0.039	0.399	0.015	0	184	279	3
2026-02-12	15:44:36.230	-16.135	-29.435	-72.87	0.89548	-0.275476	0.466528	0.045	0.39	0.018	0	184	279	3
2026-02-12	15:44:36.250	-4.585	-30.24	-50.365	0.885232	-0.207644	0.462136	0.0525	0.3645	0.0195	0	184	279	3
2026-02-12	15:44:36.270	-4.27	-32.445	-30.38	0.864248	-0.178852	0.451888	0.0525	0.3645	0.0195	0	184	279	3
2026-02-12	15:44:36.290	-11.095	-34.79	-16.765	0.851804	-0.186416	0.43676	0.0555	0.36	0.024	0	184	279	3
2026-02-12	15:44:36.310	-19.215	-36.47	-5.6	0.862052	-0.20618	0.424072	0.057	0.354	0.0285	0	184	279	3
2026-02-12	15:44:36.330	-22.82	-35.91	4.165	0.868152	-0.20862	0.424072	0.057	0.3525	0.036	0	184	279	3
2026-02-12	15:44:36.350	-24.5	-34.51	13.055	0.86742	-0.196908	0.431392	0.057	0.3525	0.0405	0	184	279	3
2026-02-12	15:44:36.370	-26.95	-31.045	20.825	0.86742	-0.190564	0.43554	0.0585	0.354	0.039	0	184	279	3
2026-02-12	15:44:36.390	-27.44	-27.335	27.93	0.871324	-0.199592	0.44164	0.0495	0.3525	0.051	0	184	279	3
2026-02-12	15:44:36.410	-22.995	-23.135	35.105	0.90646	-0.187148	0.465308	0.0585	0.36	0.0405	0	184	311	3
2026-02-12	15:44:36.430	-18.865	-18.34	41.405	0.951844	-0.150304	0.46848	0.0465	0.3645	0.048	0	184	311	3
2026-02-12	15:44:36.450	-22.75	-15.54	45.815	0.95404	-0.120292	0.4331	0.057	0.375	0.045	0	184	311	3
2026-02-12	15:44:36.470	-30.275	-18.725	45.57	1.016504	-0.141276	0.387716	0.0465	0.375	0.0495	0	184	311	3
2026-02-12	15:44:36.490	-28.805	-25.445	38.745	1.178276	-0.18666	0.421144	0.0465	0.3855	0.0525	0	184	311	3
2026-02-12	15:44:36.510	-19.25	-24.675	32.095	1.30418	-0.252784	0.501176	0.0435	0.399	0.057	0	184	311	3
2026-02-12	15:44:36.530	-13.51	-16.24	32.585	1.252208	-0.26718	0.472872	0.042	0.399	0.0615	0	184	311	3
2026-02-12	15:44:36.550	-10.64	-12.355	36.19	1.225124	-0.228628	0.351116	0.042	0.3975	0.0675	0	184	311	3
2026-02-12	15:44:36.570	-14.84	-10.675	40.95	1.178764	-0.198128	0.260348	0.042	0.399	0.0705	0	184	311	3
2026-02-12	15:44:36.590	-17.78	-8.715	46.97	1.181936	-0.172996	0.2135	0.0405	0.4095	0.063	0	184	311	3
2026-02-12	15:44:36.610	-18.725	-6.475	52.71	1.14558	-0.113704	0.168116	0.0345	0.4095	0.063	0	182	340	3
2026-02-12	15:44:36.630	-21.77	-4.9	59.745	1.057252	-0.107848	0.114192	0.036	0.4245	0.0615	0	182	340	3
2026-02-12	15:44:36.650	-22.855	-6.125	66.5	1.033584	-0.123952	0.071492	0.033	0.435	0.0585	0	182	340	3
2026-02-12	15:44:36.670	-26.775	-6.965	71.785	1.054568	-0.127612	0.032208	0.0315	0.438	0.0585	0	182	340	3
2026-02-12	15:44:36.690	-44.555	-5.67	80.955	1.009184	-0.15006	-0.034892	0.0315	0.438	0.0585	0	182	340	3
2026-02-12	15:44:36.710	-50.085	-6.3	88.62	1.017236	-0.192028	-0.048556	0.0285	0.4545	0.057	0	182	340	3
2026-02-12	15:44:36.730	-37.66	-5.985	95.2	1.113372	-0.221308	-0.046848	0.03	0.477	0.0585	0	182	340	3
2026-02-12	15:44:36.750	-17.29	-3.675	100.835	1.079944	-0.199836	-0.047336	0.027	0.495	0.0585	0	182	340	3
2026-02-12	15:44:36.770	-1.82	-5.18	105.28	1.020164	-0.180804	-0.073932	0.0255	0.513	0.054	0	182	340	3
2026-02-12	15:44:36.790	7.665	-9.38	106.96	1.00528	-0.173484	-0.095892	0.033	0.519	0.0525	0	182	340	3
2026-02-12	15:44:36.810	18.69	-12.145	104.79	1.04432	-0.202032	-0.072468	0.021	0.5265	0.0555	0	182	326	3
2026-02-12	15:44:36.830	29.995	-10.535	98.805	1.120204	-0.199592	-0.04758	0.018	0.5475	0.0705	0	182	326	3
2026-02-12	15:44:36.850	29.995	-4.935	91.315	1.052616	-0.20618	-0.022692	0.027	0.555	0.0735	0	182	326	3
2026-02-12	15:44:36.870	29.295	-2.205	83.09	0.987712	-0.248392	-0.015128	0.0225	0.5835	0.0705	0	182	326	3
2026-02-12	15:44:36.890	36.715	0.35	70	0.975024	-0.290116	0.006344	0.03	0.591	0.066	0	182	326	3
2026-02-12	15:44:36.910	47.39	5.74	56.63	0.999424	-0.330376	0.02318	0.03	0.591	0.066	0	182	326	3
2026-02-12	15:44:36.930	52.5	10.955	48.93	0.942816	-0.31964	0.016836	0.027	0.603	0.0615	0	182	326	3
2026-02-12	15:44:36.950	49.28	11.235	43.05	0.898164	-0.28792	0.004392	0.0255	0.624	0.0585	0	182	326	3
2026-02-12	15:44:36.970	35.525	8.785	37.485	0.860344	-0.286944	0.009516	0.027	0.6285	0.057	0	182	326	3
2026-02-12	15:44:36.990	24.185	5.145	31.36	0.852536	-0.320616	0.030012	0.027	0.63	0.0555	0	182	326	3
2026-02-12	15:44:37.010	23.275	1.785	24.85	0.874008	-0.338916	0.06344	0.0255	0.633	0.0555	0	185	269	2
2026-02-12	15:44:37.030	25.76	-0.21	19.145	0.87596	-0.342576	0.0854	0.0315	0.6405	0.0525	0	185	269	2
2026-02-12	15:44:37.050	28	-1.995	13.895	0.868884	-0.358924	0.097356	0.0225	0.6435	0.0495	0	185	269	2
2026-02-12	15:44:37.070	33.39	-4.095	8.05	0.874496	-0.376492	0.097844	0.027	0.636	0.057	0	185	269	2
2026-02-12	15:44:37.090	43.4	-6.51	1.05	0.892796	-0.394304	0.115168	0.027	0.6405	0.045	0	185	269	2
2026-02-12	15:44:37.110	63.91	-8.715	-8.575	0.88694	-0.392108	0.154208	0.033	0.636	0.051	0	185	269	2
2026-02-12	15:44:37.130	80.185	-7.98	-14.49	0.916952	-0.379176	0.202032	0.03	0.639	0.0495	0	185	269	2
2026-02-12	15:44:37.150	97.16	-5.285	-21.49	0.962336	-0.363804	0.221796	0.03	0.639	0.045	0	185	269	2
2026-02-12	15:44:37.170	111.895	-2.835	-28.875	0.987224	-0.3416	0.232776	0.033	0.633	0.0405	0	185	269	2
2026-02-12	15:44:37.190	120.435	-2.45	-34.965	0.977952	-0.31842	0.24156	0.033	0.63	0.0405	0	185	269	2
2026-02-12	15:44:37.210	125.335	-3.43	-40.32	1.009428	-0.299388	0.252052	0.0315	0.6285	0.042	0	188	213	3
2026-02-12	15:44:37.230	125.93	-4.69	-46.27	1.05408	-0.256932	0.269132	0.0255	0.621	0.0405	0	188	213	3
2026-02-12	15:44:37.250	116.935	-6.37	-50.96	1.070184	-0.194468	0.25986	0.0285	0.6255	0.0315	0	188	213	3
2026-02-12	15:44:37.270	96.46	-10.01	-55.335	1.089216	-0.138592	0.264008	0.027	0.609	0.036	0	188	213	3
2026-02-12	15:44:37.290	71.96	-10.745	-59.605	1.09434	-0.131272	0.303536	0.0285	0.603	0.0315	0	188	213	3
2026-02-12	15:44:37.310	49	-8.295	-61.495	1.044808	-0.133224	0.366732	0.021	0.5865	0.0405	0	188	213	3
2026-02-12	15:44:37.330	14.735	-1.505	-59.15	0.91134	-0.077592	0.36966	0.021	0.5865	0.0405	0	188	213	3
2026-02-12	15:44:37.350	-14.805	0.56	-56	0.831308	-0.050996	0.319152	0.0195	0.5745	0.036	0	188	213	3
2026-02-12	15:44:37.370	-41.055	1.085	-54.25	0.825452	-0.08686399	0.269864	0.0195	0.5625	0.027	0	188	213	3
2026-02-12	15:44:37.390	-55.895	0.21	-55.44	0.91378	-0.111264	0.237656	0.024	0.5535	0.021	0	188	213	3
2026-02-12	15:44:37.410	-66.885	0.21	-57.855	0.990152	-0.117852	0.220088	0.027	0.5445	0.024	0	190	193	3
2026-02-12	15:44:37.430	-82.285	2.485	-59.29	0.992592	-0.110532	0.1952	0.0255	0.543	0.0285	0	190	193	3
2026-02-12	15:44:37.450	-94.885	4.375	-60.9	0.987224	-0.129076	0.169336	0.021	0.531	0.0315	0	190	193	3
2026-02-12	15:44:37.470	-101.78	5.25	-63.035	0.977708	-0.152256	0.172996	0.03	0.5205	0.0225	0	190	193	3
2026-02-12	15:44:37.490	-102.515	6.125	-64.54	0.966484	-0.187392	0.189588	0.03	0.513	0.024	0	190	193	3
2026-02-12	15:44:37.510	-99.75	6.055	-65.52	0.960872	-0.211304	0.210328	0.036	0.5055	0.0135	0	190	193	3
2026-02-12	15:44:37.530	-94.955	6.3	-65.24	0.926224	-0.229848	0.221308	0.0285	0.495	0.0075	0	190	193	3
2026-02-12	15:44:37.550	-87.185	5.495	-63.245	0.872788	-0.232044	0.208376	0.0285	0.495	0.0075	0	190	193	3
2026-02-12	15:44:37.570	-78.26	2.485	-61.46	0.85156	-0.213988	0.204716	0.0345	0.4845	0.003	0	190	193	3
2026-02-12	15:44:37.590	-71.855	-1.015	-61.075	0.839604	-0.202032	0.201544	0.0405	0.471	-0.0015	0	190	193	3
2026-02-12	15:44:37.610	-66.22	-5.285	-62.055	0.856684	-0.214476	0.205204	0.039	0.465	-0.003	0	190	197	3
2026-02-12	15:44:37.630	-59.99	-9.87	-63.56	0.858392	-0.2257	0.221308	0.0405	0.462	-0.0045	0	190	197	3
2026-02-12	15:44:37.650	-53.69	-13.265	-65.065	0.83448	-0.24034	0.253028	0.0495	0.45	0.0045	0	190	197	3
2026-02-12	15:44:37.670	-46.095	-16.555	-66.535	0.833992	-0.24644	0.274256	0.045	0.4395	-0.006	0	190	197	3
2026-02-12	15:44:37.690	-37.415	-19.67	-68.145	0.841556	-0.263764	0.296216	0.0465	0.444	-0.009	0	190	197	3
2026-02-12	15:44:37.710	-26.985	-22.89	-68.67	0.850096	-0.271084	0.30622	0.0465	0.42	-0.003	0	190	197	3
2026-02-12	15:44:37.730	-16.31	-26.46	-68.11	0.869128	-0.263032	0.320372	0.0585	0.42	0	0	190	197	3
2026-02-12	15:44:37.750	-6.615	-30.31	-66.815	0.893528	-0.251808	0.340136	0.0585	0.405	0.003	0	190	197	3
2026-02-12	15:44:37.770	0.455	-34.16	-65.73	0.941596	-0.251076	0.370636	0.0585	0.393	0.0045	0	190	197	3
2026-02-12	15:44:37.790	6.125	-35.7	-64.05	0.9699	-0.259616	0.401136	0.066	0.381	0.0075	0	190	197	3
2026-02-12	15:44:37.810	11.025	-35.875	-59.99	0.954284	-0.259372	0.420656	0.0705	0.3765	0.015	0	186	213	3
2026-02-12	15:44:37.830	14.455	-36.365	-54.88	0.964532	-0.248636	0.412116	0.0705	0.366	0.024	0	186	213	3
2026-02-12	15:44:37.850	17.955	-38.36	-50.19	1.05042	-0.251076	0.429196	0.0735	0.3615	0.027	0	186	213	3
2026-02-12	15:44:37.870	25.48	-38.045	-46.06	1.13826	-0.269864	0.484096	0.0795	0.3615	0.036	0	186	213	3
2026-02-12	15:44:37.890	40.46	-34.16	-40.775	1.210484	-0.316224	0.576328	0.0855	0.351	0.0315	0	186	213	3
2026-02-12	15:44:37.910	60.025	-23.24	-31.22	1.220732	-0.34038	0.618296	0.0885	0.3495	0.045	0	186	213	3
2026-02-12	15:44:37.930	72.415	-10.325	-15.61	1.21878	-0.276696	0.542656	0.0855	0.3435	0.0585	0	186	213	3
2026-02-12	15:44:37.950	62.79	-2.065	3.325	1.215608	-0.185196	0.4148	0.084	0.339	0.0525	0	186	213	3
2026-02-12	15:44:37.970	30.94	7.595	30.59	1.18706	-0.188856	0.320616	0.0915	0.342	0.066	0	186	213	3
2026-02-12	15:44:37.990	30.59	12.46	49.56	1.151436	-0.187148	0.2989	0.093	0.3435	0.0705	0	186	213	3
2026-02-12	15:44:38.010	36.365	15.505	68.425	1.124352	-0.126148	0.2745	0.0885	0.348	0.0705	0	182	247	3
2026-02-12	15:44:38.030	28.07	18.025	84.385	1.102636	-0.084424	0.246684	0.081	0.3585	0.069	0	182	247	3
2026-02-12	15:44:38.050	9.45	19.32	95.13	1.086532	-0.064904	0.207644	0.0795	0.3675	0.072	0	182	247	3
2026-02-12	15:44:38.070	-16.52	19.355	101.92	1.060424	-0.051972	0.166408	0.0765	0.3765	0.06	0	182	247	3
2026-02-12	15:44:38.090	-45.01	20.86	107.52	1.025044	-0.085644	0.115412	0.06	0.3945	0.066	0	182	247	3
2026-02-12	15:44:38.110	-61.67	28.035	113.505	1.006012	-0.186904	0.087352	0.0675	0.4095	0.0525	0	182	247	3
2026-02-12	15:44:38.130	-51.275	33.88	118.65	1.050176	-0.293532	0.082716	0.0645	0.42	0.042	0	182	247	3
2026-02-12	15:44:38.150	-21.875	36.645	121.1	1.076284	-0.324764	0.07076	0.048	0.438	0.045	0	182	247	3
2026-02-12	15:44:38.170	13.86	38.185	119.84	1.05408	-0.26962	0.035868	0.057	0.468	0.0345	0	182	247	3
2026-02-12	15:44:38.190	36.26	38.08	113.925	1.078236	-0.252296	0.030744	0.057	0.468	0.0345	0	182	247	3
2026-02-12	15:44:38.210	46.62	38.5	106.54	1.162416	-0.277428	0.021228	0.054	0.4845	0.0255	0	181	265	3
2026-02-12	15:44:38.230	46.375	40.18	100.45	1.105076	-0.231556	0.018056	0.0465	0.507	0.018	0	181	265	3
2026-02-12	15:44:38.250	37.73	39.375	95.515	1.022604	-0.222772	0.024156	0.045	0.525	0.015	0	181	265	3
2026-02-12	15:44:38.270	28.35	36.12	90.79	0.967704	-0.241072	0.032696	0.048	0.537	0.012	0	181	265	3
2026-02-12	15:44:38.290	23.73	32.305	85.68	0.918904	-0.2806	0.044408	0.048	0.543	0.0105	0	181	265	3
2026-02-12	15:44:38.310	28.035	27.72	79.485	0.980392	-0.317932	0.071736	0.0435	0.5505	0.0045	0	181	265	3
2026-02-12	15:44:38.330	34.545	25.795	73.535	1.023336	-0.3233	0.077348	0.0465	0.5685	-0.0015	0	181	265	3
2026-02-12	15:44:38.350	37.8	25.305	69.37	0.952576	-0.318176	0.058072	0.0435	0.576	-0.0015	0	181	265	3
2026-02-12	15:44:38.370	41.3	21.77	64.785	0.925492	-0.303292	0.041724	0.0495	0.5865	-0.0105	0	181	265	3
2026-02-12	15:44:38.390	43.75	16.625	56.875	0.925492	-0.288408	0.028548	0.0555	0.594	-0.0135	0	181	265	3
2026-02-12	15:44:38.410	44.835	10.64	47.985	0.937448	-0.289628	0.04514	0.0555	0.594	-0.015	0	181	245	3
2026-02-12	15:44:38.430	46.27	5.495	40.845	0.93696	-0.282064	0.078568	0.0525	0.6075	-0.0135	0	181	245	3
2026-02-12	15:44:38.450	47.425	0.42	34.02	0.92354	-0.261324	0.119072	0.0525	0.6195	-0.0195	0	181	245	3
2026-02-12	15:44:38.470	47.075	-4.165	26.845	0.950624	-0.261812	0.171288	0.0555	0.618	-0.027	0	181	245	3
2026-02-12	15:44:38.490	48.055	-7.105	21.455	0.930372	-0.28304	0.186172	0.057	0.6135	-0.024	0	181	245	3
2026-02-12	15:44:38.510	53.2	-11.235	17.22	0.884012	-0.26596	0.209596	0.048	0.6105	-0.024	0	181	245	3
2026-02-12	15:44:38.530	62.72	-15.75	12.775	0.862052	-0.27328	0.253028	0.048	0.6195	-0.015	0	181	245	3
2026-02-12	15:44:38.550	79.625	-18.515	7.595	0.88328	-0.275476	0.293776	0.0555	0.621	-0.0165	0	181	245	3
2026-02-12	15:44:38.570	98.56	-20.615	0.875	0.985516	-0.261568	0.304024	0.051	0.6225	-0.0195	0	181	245	3
2026-02-12	15:44:38.590	110.04	-22.05	-7.84	1.089704	-0.235704	0.296216	0.0555	0.627	-0.0135	0	181	245	3
2026-02-12	15:44:38.610	107.31	-23.975	-22.19	1.145092	-0.177632	0.299876	0.0555	0.627	-0.0135	0	181	215	3
2026-02-12	15:44:38.630	95.025	-24.36	-30.485	1.118008	-0.144936	0.318908	0.0525	0.6165	-0.0105	0	181	215	3
2026-02-12	15:44:38.650	80.465	-23.835	-35.735	1.02358	-0.115168	0.354044	0.054	0.6075	-0.0045	0	181	215	3
2026-02-12	15:44:38.670	66.185	-23.135	-37.555	0.906704	-0.064904	0.386496	0.0525	0.6045	-0.003	0	181	215	3
2026-02-12	15:44:38.690	50.015	-23.45	-36.085	0.810812	-0.030256	0.407724	0.0495	0.6015	-0.0045	0	181	215	3
2026-02-12	15:44:38.710	34.58	-25.375	-34.055	0.774212	-0.01952	0.410408	0.0525	0.591	0	0	181	215	3
2026-02-12	15:44:38.730	21.98	-29.33	-33.25	0.821304	-0.031476	0.414068	0.048	0.5865	-0.0015	0	181	215	3
2026-02-12	15:44:38.750	13.23	-31.15	-33.74	0.90646	-0.051972	0.41846	0.0555	0.5775	0.003	0	181	215	3
2026-02-12	15:44:38.770	7.77	-30.24	-35.665	1.041392	-0.05978	0.410408	0.0435	0.576	0.0045	0	181	215	3
2026-02-12	15:44:38.790	-2.765	-27.055	-39.13	1.11264	-0.05612	0.378932	0.0495	0.573	0.006	0	181	215	3
2026-02-12	15:44:38.810	-24.22	-20.685	-41.755	1.025288	-0.088572	0.32574	0.0435	0.564	0.015	0	181	214	3
2026-02-12	15:44:38.830	-35.525	-18.76	-43.68	0.930616	-0.112484	0.293776	0.0435	0.564	0.015	0	181	214	3
2026-02-12	15:44:38.850	-41.335	-20.125	-47.005	0.9089	-0.114436	0.29768	0.0465	0.5535	0.015	0	181	214	3
2026-02-12	15:44:38.870	-50.33	-21.385	-51.1	0.862784	-0.125416	0.297436	0.048	0.543	0.0195	0	181	214	3
2026-02-12	15:44:38.890	-57.26	-23.66	-54.705	0.826428	-0.137372	0.291336	0.0465	0.5355	0.027	0	181	214	3
2026-02-12	15:44:38.910	-61.285	-26.495	-58.695	0.811056	-0.137616	0.287432	0.048	0.531	0.03	0	181	214	3
2026-02-12	15:44:38.930	-64.995	-28.84	-63.805	0.79788	-0.143228	0.27206	0.0525	0.528	0.0345	0	181	214	3
2026-02-12	15:44:38.950	-68.775	-30.8	-70	0.8052	-0.159088	0.262788	0.054	0.5145	0.0465	0	181	214	3
2026-02-12	15:44:38.970	-71.47	-32.165	-76.615	0.829112	-0.175436	0.241804	0.045	0.507	0.042	0	181	214	3
2026-02-12	15:44:38.990	-71.785	-33.775	-83.335	0.865468	-0.194712	0.223748	0.0525	0.504	0.0315	0	181	214	3
2026-02-12	15:44:39.010	-68.005	-36.33	-89.25	0.873276	-0.21228	0.220576	0.057	0.495	0.0375	0	181	235	3
2026-02-12	15:44:39.030	-53.62	-40.705	-95.41	0.87596	-0.244976	0.263032	0.054	0.471	0.039	0	181	235	3
2026-02-12	15:44:39.050	-31.255	-44.66	-99.82	0.896944	-0.263032	0.310124	0.06	0.4605	0.0465	0	181	235	3
2026-02-12	15:44:39.070	-15.33	-47.18	-101.325	0.904264	-0.242292	0.313784	0.066	0.4455	0.057	0	181	235	3
2026-02-12	15:44:39.090	-2.905	-49.945	-101.71	0.915488	-0.235948	0.31232	0.0675	0.429	0.06	0	181	235	3
2026-02-12	15:44:39.110	9.765	-53.305	-101.36	0.942572	-0.240096	0.332084	0.072	0.4185	0.0615	0	181	235	3
2026-02-12	15:44:39.130	22.645	-55.37	-99.575	0.976	-0.239364	0.3721	0.078	0.4035	0.066	0	181	235	3
2026-02-12	15:44:39.150	31.745	-54.915	-95.865	0.989664	-0.232532	0.402356	0.0795	0.396	0.081	0	181	235	3
2026-02-12	15:44:39.170	36.47	-53.865	-89.67	1.002596	-0.216916	0.411872	0.099	0.378	0.084	0	181	235	3
2026-02-12	15:44:39.190	37.625	-53.375	-83.02	1.03212	-0.1952	0.420656	0.1065	0.3705	0.099	0	181	235	3
2026-02-12	15:44:39.210	37.87	-52.29	-75.985	1.092876	-0.212036	0.435784	0.114	0.3615	0.105	0	179	259	3
2026-02-12	15:44:39.230	44.065	-49.07	-67.585	1.155828	-0.239608	0.492392	0.1125	0.3495	0.111	0	179	259	3
2026-02-12	15:44:39.250	62.51	-32.025	-44.975	1.208288	-0.266204	0.582916	0.1125	0.3495	0.111	0	179	259	3
2026-02-12	15:44:39.270	70.315	-13.86	-25.27	1.194868	-0.212036	0.556564	0.1215	0.348	0.1245	0	179	259	3
2026-02-12	15:44:39.290	60.235	2.73	-4.935	1.281732	-0.111508	0.42456	0.132	0.3465	0.1425	0	179	259	3
2026-02-12	15:44:39.310	23.52	15.855	15.82	1.348832	-0.025376	0.25254	0.135	0.348	0.147	0	179	259	3
2026-02-12	15:44:39.330	-20.475	25.725	39.2	1.288564	-0.032452	0.1403	0.1365	0.351	0.1485	0	179	259	3
2026-02-12	15:44:39.350	-43.365	28.7	63.91	1.240008	-0.068808	0.127856	0.1335	0.345	0.1365	0	179	259	3
2026-02-12	15:44:39.370	-46.585	28.77	88.69	1.225124	-0.046116	0.159332	0.126	0.3495	0.1305	0	179	259	3
2026-02-12	15:44:39.390	-54.705	26.635	112.63	1.1712	0.024888	0.18666	0.1245	0.357	0.1335	0	179	259	3
2026-02-12	15:44:39.410	-68.46	25.655	133.455	1.104832	0	0.202032	0.1215	0.3645	0.1245	0	179	283	3
2026-02-12	15:44:39.430	-73.255	25.83	151.41	1.053836	-0.105652	0.197396	0.111	0.384	0.12	0	179	283	3
2026-02-12	15:44:39.450	-66.22	21.56	168.56	1.054812	-0.19276	0.181048	0.105	0.3975	0.114	0	179	283	3
2026-02-12	15:44:39.470	-61.145	18.76	177.835	1.082872	-0.190808	0.142496	0.105	0.3975	0.114	0	179	283	3
2026-02-12	15:44:39.490	-59.43	20.755	178.185	1.037976	-0.20984	0.092476	0.0915	0.4245	0.105	0	179	283	3
2026-02-12	15:44:39.510	-39.795	24.185	173.215	1.042368	-0.288164	0.03538	0.072	0.465	0.0975	0	179	283	3
2026-02-12	15:44:39.530	-6.685	28.63	165.41	1.076284	-0.290116	-0.014152	0.066	0.477	0.0975	0	179	283	3
2026-02-12	15:44:39.550	16.03	33.46	156.275	1.068232	-0.285968	-0.037088	0.0645	0.5055	0.0975	0	179	283	3
2026-02-12	15:44:39.570	22.19	38.465	150.29	1.126304	-0.474336	-0.021716	0.0675	0.5205	0.0915	0	179	283	3
2026-02-12	15:44:39.590	43.645	51.45	151.235	1.179252	-0.675392	-0.015372	0.06	0.549	0.0825	0	179	283	3
2026-02-12	15:44:39.610	87.815	69.405	152.565	1.095316	-0.61122	-0.02928	0.0585	0.558	0.081	0	180	277	3
2026-02-12	15:44:39.630	108.745	71.33	150.15	1.037976	-0.40382	-0.037332	0.0555	0.5925	0.072	0	180	277	3
2026-02-12	15:44:39.650	93.03	67.41	145.845	0.97356	-0.299876	-0.046848	0.0615	0.612	0.069	0	180	277	3
2026-02-12	15:44:39.670	63.805	56.735	137.69	0.85034	-0.312564	-0.007564	0.066	0.63	0.0615	0	180	277	3
2026-02-12	15:44:39.690	51.66	44.065	128.695	0.794708	-0.393084	0.08662	0.0675	0.6465	0.051	0	180	277	3
2026-02-12	15:44:39.710	47.215	35.49	119.14	0.839604	-0.380152	0.167628	0.0735	0.672	0.0375	0	180	277	3
2026-02-12	15:44:39.730	27.93	29.085	107.905	0.841312	-0.366	0.204228	0.081	0.6885	0.033	0	180	277	3
2026-02-12	15:44:39.750	-4.55	20.72	97.335	0.752984	-0.38308	0.191296	0.087	0.6975	0.0315	0	180	277	3
2026-02-12	15:44:39.770	-31.92	9.8	86.555	0.715652	-0.386008	0.164212	0.09	0.7125	0.024	0	180	277	3
2026-02-12	15:44:39.790	-46.9	1.575	73.15	0.784948	-0.408456	0.15494	0.093	0.723	0.0315	0	180	277	3
2026-02-12	15:44:39.810	-51.31	-5.145	57.26	0.813984	-0.405284	0.148596	0.108	0.732	0.033	0	185	240	3
2026-02-12	15:44:39.830	-48.65	-8.75	42.14	0.762012	-0.425048	0.138104	0.1005	0.7425	0.027	0	185	240	3
2026-02-12	15:44:39.850	-34.615	-13.37	27.09	0.73688	-0.432124	0.115412	0.1125	0.7485	0.039	0	185	240	3
2026-02-12	15:44:39.870	-11.445	-18.34	11.165	0.759572	-0.4392	0.116876	0.12	0.756	0.0435	0	185	240	3
2026-02-12	15:44:39.890	29.995	-22.785	-12.67	0.806664	-0.449448	0.1769	0.12	0.756	0.0435	0	185	240	3
2026-02-12	15:44:39.910	54.18	-23.275	-25.865	0.825452	-0.425536	0.231068	0.117	0.753	0.048	0	185	240	3
2026-02-12	15:44:39.930	70.525	-23.625	-38.675	0.863272	-0.379664	0.253272	0.1125	0.7485	0.054	0	185	240	3
2026-02-12	15:44:39.950	79.205	-25.795	-53.585	0.958676	-0.335988	0.259372	0.111	0.747	0.051	0	185	240	3
2026-02-12	15:44:39.970	82.11	-29.155	-70	1.03944	-0.306708	0.27938	0.111	0.747	0.048	0	185	240	3
2026-02-12	15:44:39.990	80.22	-31.85	-84.98	1.030656	-0.285724	0.30988	0.102	0.735	0.042	0	185	240	3
2026-02-12	15:44:40.010	76.755	-33.705	-96.81	0.965264	-0.289628	0.37576	0.102	0.735	0.042	0	191	211	3
2026-02-12	15:44:40.030	75.005	-34.755	-99.82	0.939888	-0.250832	0.401868	0.102	0.7125	0.0375	0	191	211	3
2026-02-12	15:44:40.050	68.775	-36.085	-101.955	0.926712	-0.215696	0.415532	0.0825	0.702	0.036	0	191	211	3
2026-02-12	15:44:40.070	58.975	-36.715	-101.885	0.894016	-0.193248	0.386008	0.084	0.702	0.0435	0	191	211	3
2026-02-12	15:44:40.090	49.245	-40.39	-100.765	0.938424	-0.195932	0.363072	0.069	0.6735	0.036	0	191	211	3
2026-02-12	15:44:40.110	42.14	-43.365	-99.505	1.0126	-0.194712	0.37332	0.0705	0.663	0.0375	0	191	211	3
2026-02-12	15:44:40.130	37.52	-42.875	-98.35	1.092876	-0.18544	0.398208	0.069	0.6465	0.048	0	191	211	3
2026-02-12	15:44:40.150	28.455	-38.745	-96.565	1.10654	-0.162992	0.402844	0.069	0.6315	0.0585	0	191	211	3
2026-02-12	15:44:40.170	13.475	-33.215	-94.29	1.087996	-0.149328	0.37942	0.072	0.6255	0.06	0	191	211	3
