yyyy-MM-dd	HH:mm:ss.fff	gyrX	gyrY	gyrZ	accX	accY	accZ	magX	magY	magZ	Marker	Energy	Angle	Classification
2026-02-12	15:44:11.010	-50.295	23.275	-51.87	1.0614	0.025132	0.213988	-0.312	0.081	0.417	0	354	262	3
2026-02-12	15:44:11.030	-47.215	26.845	-49.35	1.03578	0.02318	0.199348	-0.321	0.0735	0.4125	0	354	262	3
2026-02-12	15:44:11.050	-43.015	28.035	-46.025	1.018944	0.031964	0.178364	-0.321	0.063	0.411	0	354	262	3
2026-02-12	15:44:11.070	-37.8	27.335	-39.69	1.037	0.044408	0.171776	-0.318	0.0555	0.4065	0	354	262	3
2026-02-12	15:44:11.090	-32.9	26.635	-32.025	1.046028	0.053436	0.163724	-0.318	0.054	0.4035	0	354	262	3
2026-02-12	15:44:11.110	-26.845	26.11	-25.515	1.023092	0.060268	0.143228	-0.3195	0.039	0.3945	0	354	262	3
2026-02-12	15:44:11.130	-21.07	24.045	-18.655	1.007964	0.077348	0.130296	-0.3285	0.0285	0.39	0	354	262	3
2026-02-12	15:44:11.150	-16.87	21.315	-11.725	1.023336	0.091744	0.125904	-0.333	0.027	0.3855	0	354	262	3
2026-02-12	15:44:11.170	-13.51	19.53	-4.865	1.033828	0.10004	0.121024	-0.318	0.0315	0.3825	0	354	262	3
2026-02-12	15:44:11.190	-9.275	18.585	1.365	1.01382	0.102968	0.113704	-0.327	0.0285	0.372	0	354	262	3
2026-02-12	15:44:11.210	-5.005	16.975	6.895	0.99674	0.1159	0.108824	-0.33	0.0225	0.3825	0	369	251	2
2026-02-12	15:44:11.230	-3.815	14.84	11.55	0.996984	0.130296	0.110044	-0.324	0.0255	0.3765	0	369	251	2
2026-02-12	15:44:11.250	-5.04	13.86	15.26	0.979416	0.146156	0.116876	-0.3255	0.033	0.3795	0	369	251	2
2026-02-12	15:44:11.270	-7.98	13.055	18.025	0.970632	0.146644	0.11346	-0.333	0.024	0.3705	0	369	251	2
2026-02-12	15:44:11.290	-11.445	12.425	19.985	0.97722	0.152744	0.119072	-0.333	0.039	0.3765	0	369	251	2
2026-02-12	15:44:11.310	-15.96	12.845	21.525	0.974292	0.150304	0.117364	-0.3315	0.0345	0.369	0	369	251	2
2026-02-12	15:44:11.330	-18.34	12.005	22.365	1.070672	0.146888	0.086376	-0.3225	0.045	0.3645	0	369	251	2
2026-02-12	15:44:11.350	-7.35	12.46	23.17	1.168272	0.14762	0.034648	-0.324	0.045	0.3735	0	369	251	2
2026-02-12	15:44:11.370	5.495	15.54	21.315	1.089216	0.15128	0.013664	-0.324	0.045	0.369	0	369	251	2
2026-02-12	15:44:11.390	16.73	12.88	16.87	1.063352	0.15738	-0.004636	-0.3255	0.0465	0.363	0	369	251	2
2026-02-12	15:44:11.410	30.065	10.185	10.955	0.98454	0.15982	-0.014396	-0.3285	0.048	0.36	0	366	226	2
2026-02-12	15:44:11.430	43.82	3.5	2.94	0.948672	0.162992	-0.01098	-0.3255	0.0495	0.3585	0	366	226	2
2026-02-12	15:44:11.450	53.76	-3.64	-5.04	0.912804	0.164456	0.026108	-0.324	0.0525	0.3585	0	366	226	2
2026-02-12	15:44:11.470	53.165	-10.64	-11.97	0.901824	0.192272	0.07124799	-0.327	0.0555	0.357	0	366	226	2
2026-02-12	15:44:11.490	42.21	-17.29	-16.905	0.925248	0.207888	0.115168	-0.3285	0.057	0.3585	0	366	226	2
2026-02-12	15:44:11.510	29.505	-22.155	-20.02	0.973804	0.179096	0.11346	-0.327	0.0555	0.363	0	366	226	2
2026-02-12	15:44:11.530	47.775	-25.165	-25.305	1.00284	0.126392	0.103944	-0.3255	0.0585	0.3645	0	366	226	2
2026-02-12	15:44:11.550	89.67	-27.51	-33.53	0.982588	0.184708	0.049776	-0.327	0.048	0.3645	0	366	226	2
2026-02-12	15:44:11.570	118.23	-32.655	-40.81	0.998204	0.248148	0.058316	-0.3315	0.045	0.3645	0	366	226	2
2026-02-12	15:44:11.590	111.825	-38.57	-41.72	0.969656	0.343308	0.020496	-0.327	0.0405	0.3645	0	366	226	2
2026-02-12	15:44:11.610	68.005	-49.315	-42.84	0.937448	0.38674	-0.005856	-0.3255	0.0375	0.3825	0	351	192	2
2026-02-12	15:44:11.630	20.195	-59.745	-38.885	0.926712	0.37454	0.0061	-0.3255	0.0375	0.3825	0	351	192	2
2026-02-12	15:44:11.650	-16.8	-67.69	-33.075	0.954772	0.362096	0.063196	-0.3285	0.036	0.3915	0	351	192	2
2026-02-12	15:44:11.670	-51.765	-68.355	-25.41	1.1834	-0.034404	0.536556	-0.3285	0.03	0.408	0	351	192	2
2026-02-12	15:44:11.690	103.88	-23.765	-21.105	0.935252	-0.75762	1.096048	-0.3225	0.0195	0.417	0	351	192	2
2026-02-12	15:44:11.710	232.715	2.415	-8.05	1.17486	-0.32452	0.938424	-0.321	0.0165	0.426	0	351	192	2
2026-02-12	15:44:11.730	219.17	31.78	18.515	1.000156	0.065148	0.552416	-0.318	0.024	0.4275	0	351	192	2
2026-02-12	15:44:11.750	197.225	38.5	31.605	0.91988	0.311588	0.257176	-0.3165	0.0345	0.42	0	351	192	2
2026-02-12	15:44:11.770	146.23	38.36	41.3	0.851804	0.61732	0.084668	-0.3165	0.042	0.4125	0	351	192	2
2026-02-12	15:44:11.790	28.21	19.25	49.21	1.0797	0.635864	0.088572	-0.3165	0.0495	0.405	0	351	192	2
2026-02-12	15:44:11.810	-89.565	3.115	48.44	1.160952	0.589016	0.144204	-0.3165	0.0615	0.4005	0	333	182	3
2026-02-12	15:44:11.830	-191.45	0.735	46.375	1.039684	0.451644	0.134932	-0.3165	0.069	0.405	0	333	182	3
2026-02-12	15:44:11.850	-262.71	-3.675	44.8	1.0248	0.351116	0.085888	-0.315	0.072	0.411	0	333	182	3
2026-02-12	15:44:11.870	-304.78	-4.865	42.35	1.0126	0.285968	0.047824	-0.3165	0.072	0.4125	0	333	182	3
2026-02-12	15:44:11.890	-332.955	-5.215	34.195	0.979416	0.171532	0.023668	-0.3195	0.0705	0.4095	0	333	182	3
2026-02-12	15:44:11.910	-319.725	-5.04	29.47	0.972584	0.035624	0.042456	-0.3195	0.063	0.423	0	333	182	3
2026-02-12	15:44:11.930	-255.955	-3.045	24.78	0.987468	-0.089548	0.10614	-0.312	0.0495	0.4245	0	333	182	3
2026-02-12	15:44:11.950	-174.93	0.28	21.315	1.01138	-0.025864	0.155184	-0.315	0.0495	0.4275	0	333	182	3
2026-02-12	15:44:11.970	-115.43	5.67	18.235	1.002108	-0.000976	0.165188	-0.3135	0.0405	0.429	0	333	182	3
2026-02-12	15:44:11.990	-65.59	10.115	12.985	0.985516	0.003904	0.131028	-0.318	0.0345	0.4275	0	333	182	3
2026-02-12	15:44:10.010	-26.74	2.52	92.75	-0.224724	0.243756	0.379176	0.123	-0.4215	0.2325	0	191	215	3
2026-02-12	15:44:10.030	-3.535	5.6	116.97	-0.171532	0.176656	0.325252	0.0855	-0.42	0.2295	0	191	215	3
2026-02-12	15:44:10.050	11.235	5.635	144.13	-0.095648	0.187636	0.22448	0.0735	-0.405	0.2325	0	191	215	3
2026-02-12	15:44:10.070	3.675	0.14	172.375	0.000488	0.249124	0.091744	0.0525	-0.4095	0.225	0	191	215	3
2026-02-12	15:44:10.090	-0.84	-10.255	196.105	0.128832	0.323544	0.023668	0.0315	-0.402	0.2325	0	191	215	3
2026-02-12	15:44:10.110	26.145	-20.86	213.36	0.27816	0.460672	0.078324	0.0015	-0.408	0.237	0	191	215	3
2026-02-12	15:44:10.130	64.015	-27.93	229.67	0.454572	0.742248	0.163236	-0.0285	-0.3825	0.2415	0	191	215	3
2026-02-12	15:44:10.150	67.165	-30.45	240.87	0.60878	1.036512	0.23058	-0.066	-0.378	0.252	0	191	215	3
2026-02-12	15:44:10.170	33.985	-31.43	247.975	0.67832	1.054812	0.30378	-0.099	-0.366	0.261	0	191	215	3
2026-02-12	15:44:10.190	13.93	-35	248.36	0.76494	0.915488	0.318664	-0.1245	-0.339	0.2715	0	191	215	3
2026-02-12	15:44:10.210	19.11	-38.675	244.02	0.867908	0.732488	0.287432	-0.1545	-0.3255	0.2835	0	201	256	2
2026-02-12	15:44:10.230	26.88	-39.83	241.395	0.977464	0.738344	0.277428	-0.189	-0.309	0.2865	0	201	256	2
2026-02-12	15:44:10.250	25.9	-37.275	240.45	1.053592	0.754692	0.313784	-0.207	-0.2745	0.288	0	201	256	2
2026-02-12	15:44:10.270	-17.185	-33.635	240.66	1.164856	0.798856	0.35502	-0.234	-0.2505	0.294	0	201	256	2
2026-02-12	15:44:10.290	-45.885	-33.53	240.31	1.162904	0.704428	0.3538	-0.2595	-0.219	0.3	0	201	256	2
2026-02-12	15:44:10.310	-65.24	-36.575	241.92	1.194136	0.609512	0.332084	-0.288	-0.177	0.306	0	201	256	2
2026-02-12	15:44:10.330	-85.225	-42.735	244.02	1.24074	0.55266	0.266204	-0.297	-0.1485	0.309	0	201	256	2
2026-02-12	15:44:10.350	-105.035	-52.92	243.005	1.282708	0.526552	0.204228	-0.309	-0.111	0.318	0	201	256	2
2026-02-12	15:44:10.370	-132.265	-66.045	239.68	1.3054	0.523136	0.222772	-0.3165	-0.0915	0.3225	0	201	256	2
2026-02-12	15:44:10.390	-180.25	-79.275	233.205	1.331264	0.534116	0.256444	-0.327	-0.0585	0.324	0	201	256	2
2026-02-12	15:44:10.410	-235.76	-89.39	221.06	1.308572	0.471652	0.267912	-0.327	-0.03	0.333	0	229	271	3
2026-02-12	15:44:10.430	-278.6	-96.81	202.965	1.253672	0.350384	0.240584	-0.333	0.0015	0.3465	0	229	271	3
2026-02-12	15:44:10.450	-297.36	-103.67	179.935	1.236348	0.205692	0.221552	-0.33	0.03	0.3525	0	229	271	3
2026-02-12	15:44:10.470	-287.315	-105.91	154.875	1.222196	0.059048	0.215208	-0.33	0.054	0.375	0	229	271	3
2026-02-12	15:44:10.490	-251.16	-102.585	128.345	1.183888	-0.034648	0.214476	-0.324	0.0675	0.396	0	229	271	3
2026-02-12	15:44:10.510	-201.53	-98.84	100.555	1.160952	-0.117852	0.222772	-0.3195	0.087	0.4215	0	229	271	3
2026-02-12	15:44:10.530	-125.93	-89.075	69.44	1.13704	-0.201788	0.26596	-0.3105	0.09	0.438	0	229	271	3
2026-02-12	15:44:10.550	-43.68	-73.64	43.155	1.089704	-0.25376	0.28426	-0.3105	0.09	0.438	0	229	271	3
2026-02-12	15:44:10.570	32.515	-60.655	23.59	1.046516	-0.216916	0.258396	-0.3	0.096	0.4605	0	229	271	3
2026-02-12	15:44:10.590	101.815	-49.455	6.65	1.025776	-0.130052	0.235948	-0.288	0.1095	0.4845	0	229	271	3
2026-02-12	15:44:10.610	157.08	-39.515	-6.195	1.0126	-0.05612	0.223016	-0.2865	0.117	0.4875	0	274	272	3
2026-02-12	15:44:10.630	194.355	-29.68	-16.205	1.00528	0.0183	0.229604	-0.2865	0.1215	0.489	0	274	272	3
2026-02-12	15:44:10.650	210	-20.895	-22.82	1.002596	0.07564	0.244488	-0.2775	0.135	0.486	0	274	272	3
2026-02-12	15:44:10.670	208.985	-12.53	-27.86	1.005524	0.122732	0.244	-0.276	0.141	0.48	0	274	272	3
2026-02-12	15:44:10.690	198.555	-5.53	-32.515	0.996984	0.165676	0.231068	-0.2835	0.1425	0.474	0	274	272	3
2026-02-12	15:44:10.710	178.01	-0.42	-35.525	0.997228	0.185196	0.240584	-0.282	0.153	0.4695	0	274	272	3
2026-02-12	15:44:10.730	150.535	3.85	-36.645	1.005524	0.193004	0.243756	-0.2775	0.162	0.459	0	274	272	3
2026-02-12	15:44:10.750	121.94	6.825	-37.485	1.017236	0.190076	0.250588	-0.2865	0.1635	0.4515	0	274	272	3
2026-02-12	15:44:10.770	92.75	8.085	-38.605	1.02846	0.191784	0.25986	-0.291	0.1635	0.447	0	274	272	3
2026-02-12	15:44:10.790	64.47	8.715	-39.55	1.025532	0.169336	0.288164	-0.2895	0.1635	0.441	0	274	272	3
2026-02-12	15:44:10.810	29.61	10.85	-40.425	1.014552	0.105164	0.317688	-0.291	0.162	0.4395	0	321	266	3
2026-02-12	15:44:10.830	14.42	12.53	-42.805	1.00772	0.086376	0.297924	-0.291	0.162	0.4395	0	321	266	3
2026-02-12	15:44:10.850	4.62	12.915	-46.095	1.009428	0.072956	0.27816	-0.2985	0.147	0.4275	0	321	266	3
2026-02-12	15:44:10.870	-3.465	12.25	-49.245	1.016016	0.076128	0.263764	-0.291	0.1365	0.426	0	321	266	3
2026-02-12	15:44:10.890	-13.58	11.62	-51.8	1.016992	0.079788	0.264008	-0.3	0.1365	0.429	0	321	266	3
2026-02-12	15:44:10.910	-25.55	11.235	-53.55	1.056276	0.074176	0.267668	-0.2985	0.1245	0.426	0	321	266	3
2026-02-12	15:44:10.930	-35.56	13.055	-54.985	1.081896	0.058072	0.255224	-0.315	0.111	0.435	0	321	266	3
2026-02-12	15:44:10.950	-41.3	16.485	-55.79	1.07116	0.05368	0.231556	-0.312	0.1095	0.429	0	321	266	3
2026-02-12	15:44:10.970	-45.43	19.25	-55.65	1.044808	0.059292	0.207644	-0.3075	0.1005	0.4215	0	321	266	3
2026-02-12	15:44:10.990	-49.035	20.755	-54.18	1.0553	0.0488	0.203984	-0.3075	0.087	0.4185	0	321	266	3
2026-02-12	15:44:11.010	-50.295	23.275	-51.87	1.0614	0.025132	0.213988	-0.312	0.081	0.417	0	354	262	3
2026-02-12	15:44:11.030	-47.215	26.845	-49.35	1.03578	0.02318	0.199348	-0.321	0.0735	0.4125	0	354	262	3
2026-02-12	15:44:11.050	-43.015	28.035	-46.025	1.018944	0.031964	0.178364	-0.321	0.063	0.411	0	354	262	3
2026-02-12	15:44:11.070	-37.8	27.335	-39.69	1.037	0.044408	0.171776	-0.318	0.0555	0.4065	0	354	262	3
2026-02-12	15:44:11.090	-32.9	26.635	-32.025	1.046028	0.053436	0.163724	-0.318	0.054	0.4035	0	354	262	3
2026-02-12	15:44:11.110	-26.845	26.11	-25.515	1.023092	0.060268	0.143228	-0.3195	0.039	0.3945	0	354	262	3
2026-02-12	15:44:11.130	-21.07	24.045	-18.655	1.007964	0.077348	0.130296	-0.3285	0.0285	0.39	0	354	262	3
2026-02-12	15:44:11.150	-16.87	21.315	-11.725	1.023336	0.091744	0.125904	-0.333	0.027	0.3855	0	354	262	3
2026-02-12	15:44:11.170	-13.51	19.53	-4.865	1.033828	0.10004	0.121024	-0.318	0.0315	0.3825	0	354	262	3
2026-02-12	15:44:11.190	-9.275	18.585	1.365	1.01382	0.102968	0.113704	-0.327	0.0285	0.372	0	354	262	3
2026-02-12	15:44:11.210	-5.005	16.975	6.895	0.99674	0.1159	0.108824	-0.33	0.0225	0.3825	0	369	251	2
2026-02-12	15:44:11.230	-3.815	14.84	11.55	0.996984	0.130296	0.110044	-0.324	0.0255	0.3765	0	369	251	2
2026-02-12	15:44:11.250	-5.04	13.86	15.26	0.979416	0.146156	0.116876	-0.3255	0.033	0.3795	0	369	251	2
2026-02-12	15:44:11.270	-7.98	13.055	18.025	0.970632	0.146644	0.11346	-0.333	0.024	0.3705	0	369	251	2
2026-02-12	15:44:11.290	-11.445	12.425	19.985	0.97722	0.152744	0.119072	-0.333	0.039	0.3765	0	369	251	2
2026-02-12	15:44:11.310	-15.96	12.845	21.525	0.974292	0.150304	0.117364	-0.3315	0.0345	0.369	0	369	251	2
2026-02-12	15:44:11.330	-18.34	12.005	22.365	1.070672	0.146888	0.086376	-0.3225	0.045	0.3645	0	369	251	2
2026-02-12	15:44:11.350	-7.35	12.46	23.17	1.168272	0.14762	0.034648	-0.324	0.045	0.3735	0	369	251	2
2026-02-12	15:44:11.370	5.495	15.54	21.315	1.089216	0.15128	0.013664	-0.324	0.045	0.369	0	369	251	2
2026-02-12	15:44:11.390	16.73	12.88	16.87	1.063352	0.15738	-0.004636	-0.3255	0.0465	0.363	0	369	251	2
2026-02-12	15:44:11.410	30.065	10.185	10.955	0.98454	0.15982	-0.014396	-0.3285	0.048	0.36	0	366	226	2
2026-02-12	15:44:11.430	43.82	3.5	2.94	0.948672	0.162992	-0.01098	-0.3255	0.0495	0.3585	0	366	226	2
2026-02-12	15:44:11.450	53.76	-3.64	-5.04	0.912804	0.164456	0.026108	-0.324	0.0525	0.3585	0	366	226	2
2026-02-12	15:44:11.470	53.165	-10.64	-11.97	0.901824	0.192272	0.07124799	-0.327	0.0555	0.357	0	366	226	2
2026-02-12	15:44:11.490	42.21	-17.29	-16.905	0.925248	0.207888	0.115168	-0.3285	0.057	0.3585	0	366	226	2
2026-02-12	15:44:11.510	29.505	-22.155	-20.02	0.973804	0.179096	0.11346	-0.327	0.0555	0.363	0	366	226	2
2026-02-12	15:44:11.530	47.775	-25.165	-25.305	1.00284	0.126392	0.103944	-0.3255	0.0585	0.3645	0	366	226	2
2026-02-12	15:44:11.550	89.67	-27.51	-33.53	0.982588	0.184708	0.049776	-0.327	0.048	0.3645	0	366	226	2
2026-02-12	15:44:11.570	118.23	-32.655	-40.81	0.998204	0.248148	0.058316	-0.3315	0.045	0.3645	0	366	226	2
2026-02-12	15:44:11.590	111.825	-38.57	-41.72	0.969656	0.343308	0.020496	-0.327	0.0405	0.3645	0	366	226	2
2026-02-12	15:44:11.610	68.005	-49.315	-42.84	0.937448	0.38674	-0.005856	-0.3255	0.0375	0.3825	0	351	192	2
2026-02-12	15:44:11.630	20.195	-59.745	-38.885	0.926712	0.37454	0.0061	-0.3255	0.0375	0.3825	0	351	192	2
2026-02-12	15:44:11.650	-16.8	-67.69	-33.075	0.954772	0.362096	0.063196	-0.3285	0.036	0.3915	0	351	192	2
2026-02-12	15:44:11.670	-51.765	-68.355	-25.41	1.1834	-0.034404	0.536556	-0.3285	0.03	0.408	0	351	192	2
2026-02-12	15:44:11.690	103.88	-23.765	-21.105	0.935252	-0.75762	1.096048	-0.3225	0.0195	0.417	0	351	192	2
2026-02-12	15:44:11.710	232.715	2.415	-8.05	1.17486	-0.32452	0.938424	-0.321	0.0165	0.426	0	351	192	2
2026-02-12	15:44:11.730	219.17	31.78	18.515	1.000156	0.065148	0.552416	-0.318	0.024	0.4275	0	351	192	2
2026-02-12	15:44:11.750	197.225	38.5	31.605	0.91988	0.311588	0.257176	-0.3165	0.0345	0.42	0	351	192	2
2026-02-12	15:44:11.770	146.23	38.36	41.3	0.851804	0.61732	0.084668	-0.3165	0.042	0.4125	0	351	192	2
2026-02-12	15:44:11.790	28.21	19.25	49.21	1.0797	0.635864	0.088572	-0.3165	0.0495	0.405	0	351	192	2
2026-02-12	15:44:11.810	-89.565	3.115	48.44	1.160952	0.589016	0.144204	-0.3165	0.0615	0.4005	0	333	182	3
2026-02-12	15:44:11.830	-191.45	0.735	46.375	1.039684	0.451644	0.134932	-0.3165	0.069	0.405	0	333	182	3
2026-02-12	15:44:11.850	-262.71	-3.675	44.8	1.0248	0.351116	0.085888	-0.315	0.072	0.411	0	333	182	3
2026-02-12	15:44:11.870	-304.78	-4.865	42.35	1.0126	0.285968	0.047824	-0.3165	0.072	0.4125	0	333	182	3
2026-02-12	15:44:11.890	-332.955	-5.215	34.195	0.979416	0.171532	0.023668	-0.3195	0.0705	0.4095	0	333	182	3
2026-02-12	15:44:11.910	-319.725	-5.04	29.47	0.972584	0.035624	0.042456	-0.3195	0.063	0.423	0	333	182	3
2026-02-12	15:44:11.930	-255.955	-3.045	24.78	0.987468	-0.089548	0.10614	-0.312	0.0495	0.4245	0	333	182	3
2026-02-12	15:44:11.950	-174.93	0.28	21.315	1.01138	-0.025864	0.155184	-0.315	0.0495	0.4275	0	333	182	3
2026-02-12	15:44:11.970	-115.43	5.67	18.235	1.002108	-0.000976	0.165188	-0.3135	0.0405	0.429	0	333	182	3
2026-02-12	15:44:11.990	-65.59	10.115	12.985	0.985516	0.003904	0.131028	-0.318	0.0345	0.4275	0	333	182	3
2026-02-12	15:44:10.010	-26.74	2.52	92.75	-0.224724	0.243756	0.379176	0.123	-0.4215	0.2325	0	191	215	3
2026-02-12	15:44:10.030	-3.535	5.6	116.97	-0.171532	0.176656	0.325252	0.0855	-0.42	0.2295	0	191	215	3
2026-02-12	15:44:10.050	11.235	5.635	144.13	-0.095648	0.187636	0.22448	0.0735	-0.405	0.2325	0	191	215	3
2026-02-12	15:44:10.070	3.675	0.14	172.375	0.000488	0.249124	0.091744	0.0525	-0.4095	0.225	0	191	215	3
2026-02-12	15:44:10.090	-0.84	-10.255	196.105	0.128832	0.323544	0.023668	0.0315	-0.402	0.2325	0	191	215	3
2026-02-12	15:44:10.110	26.145	-20.86	213.36	0.27816	0.460672	0.078324	0.0015	-0.408	0.237	0	191	215	3
2026-02-12	15:44:10.130	64.015	-27.93	229.67	0.454572	0.742248	0.163236	-0.0285	-0.3825	0.2415	0	191	215	3
2026-02-12	15:44:10.150	67.165	-30.45	240.87	0.60878	1.036512	0.23058	-0.066	-0.378	0.252	0	191	215	3
2026-02-12	15:44:10.170	33.985	-31.43	247.975	0.67832	1.054812	0.30378	-0.099	-0.366	0.261	0	191	215	3
2026-02-12	15:44:10.190	13.93	-35	248.36	0.76494	0.915488	0.318664	-0.1245	-0.339	0.2715	0	191	215	3
2026-02-12	15:44:10.210	19.11	-38.675	244.02	0.867908	0.732488	0.287432	-0.1545	-0.3255	0.2835	0	201	256	2
2026-02-12	15:44:10.230	26.88	-39.83	241.395	0.977464	0.738344	0.277428	-0.189	-0.309	0.2865	0	201	256	2
2026-02-12	15:44:10.250	25.9	-37.275	240.45	1.053592	0.754692	0.313784	-0.207	-0.2745	0.288	0	201	256	2
2026-02-12	15:44:10.270	-17.185	-33.635	240.66	1.164856	0.798856	0.35502	-0.234	-0.2505	0.294	0	201	256	2
2026-02-12	15:44:10.290	-45.885	-33.53	240.31	1.162904	0.704428	0.3538	-0.2595	-0.219	0.3	0	201	256	2
2026-02-12	15:44:10.310	-65.24	-36.575	241.92	1.194136	0.609512	0.332084	-0.288	-0.177	0.306	0	201	256	2
2026-02-12	15:44:10.330	-85.225	-42.735	244.02	1.24074	0.55266	0.266204	-0.297	-0.1485	0.309	0	201	256	2
2026-02-12	15:44:10.350	-105.035	-52.92	243.005	1.282708	0.526552	0.204228	-0.309	-0.111	0.318	0	201	256	2
2026-02-12	15:44:10.370	-132.265	-66.045	239.68	1.3054	0.523136	0.222772	-0.3165	-0.0915	0.3225	0	201	256	2
2026-02-12	15:44:10.390	-180.25	-79.275	233.205	1.331264	0.534116	0.256444	-0.327	-0.0585	0.324	0	201	256	2
2026-02-12	15:44:10.410	-235.76	-89.39	221.06	1.308572	0.471652	0.267912	-0.327	-0.03	0.333	0	229	271	3
2026-02-12	15:44:10.430	-278.6	-96.81	202.965	1.253672	0.350384	0.240584	-0.333	0.0015	0.3465	0	229	271	3
2026-02-12	15:44:10.450	-297.36	-103.67	179.935	1.236348	0.205692	0.221552	-0.33	0.03	0.3525	0	229	271	3
2026-02-12	15:44:10.470	-287.315	-105.91	154.875	1.222196	0.059048	0.215208	-0.33	0.054	0.375	0	229	271	3
2026-02-12	15:44:10.490	-251.16	-102.585	128.345	1.183888	-0.034648	0.214476	-0.324	0.0675	0.396	0	229	271	3
2026-02-12	15:44:10.510	-201.53	-98.84	100.555	1.160952	-0.117852	0.222772	-0.3195	0.087	0.4215	0	229	271	3
2026-02-12	15:44:10.530	-125.93	-89.075	69.44	1.13704	-0.201788	0.26596	-0.3105	0.09	0.438	0	229	271	3
2026-02-12	15:44:10.550	-43.68	-73.64	43.155	1.089704	-0.25376	0.28426	-0.3105	0.09	0.438	0	229	271	3
2026-02-12	15:44:10.570	32.515	-60.655	23.59	1.046516	-0.216916	0.258396	-0.3	0.096	0.4605	0	229	271	3
2026-02-12	15:44:10.590	101.815	-49.455	6.65	1.025776	-0.130052	0.235948	-0.288	0.1095	0.4845	0	229	271	3
2026-02-12	15:44:10.610	157.08	-39.515	-6.195	1.0126	-0.05612	0.223016	-0.2865	0.117	0.4875	0	274	272	3
2026-02-12	15:44:10.630	194.355	-29.68	-16.205	1.00528	0.0183	0.229604	-0.2865	0.1215	0.489	0	274	272	3
2026-02-12	15:44:10.650	210	-20.895	-22.82	1.002596	0.07564	0.244488	-0.2775	0.135	0.486	0	274	272	3
2026-02-12	15:44:10.670	208.985	-12.53	-27.86	1.005524	0.122732	0.244	-0.276	0.141	0.48	0	274	272	3
2026-02-12	15:44:10.690	198.555	-5.53	-32.515	0.996984	0.165676	0.231068	-0.2835	0.1425	0.474	0	274	272	3
2026-02-12	15:44:10.710	178.01	-0.42	-35.525	0.997228	0.185196	0.240584	-0.282	0.153	0.4695	0	274	272	3
2026-02-12	15:44:10.730	150.535	3.85	-36.645	1.005524	0.193004	0.243756	-0.2775	0.162	0.459	0	274	272	3
2026-02-12	15:44:10.750	121.94	6.825	-37.485	1.017236	0.190076	0.250588	-0.2865	0.1635	0.4515	0	274	272	3
2026-02-12	15:44:10.770	92.75	8.085	-38.605	1.02846	0.191784	0.25986	-0.291	0.1635	0.447	0	274	272	3
2026-02-12	15:44:10.790	64.47	8.715	-39.55	1.025532	0.169336	0.288164	-0.2895	0.1635	0.441	0	274	272	3
2026-02-12	15:44:10.810	29.61	10.85	-40.425	1.014552	0.105164	0.317688	-0.291	0.162	0.4395	0	321	266	3
2026-02-12	15:44:10.830	14.42	12.53	-42.805	1.00772	0.086376	0.297924	-0.291	0.162	0.4395	0	321	266	3
2026-02-12	15:44:10.850	4.62	12.915	-46.095	1.009428	0.072956	0.27816	-0.2985	0.147	0.4275	0	321	266	3
2026-02-12	15:44:10.870	-3.465	12.25	-49.245	1.016016	0.076128	0.263764	-0.291	0.1365	0.426	0	321	266	3
2026-02-12	15:44:10.890	-13.58	11.62	-51.8	1.016992	0.079788	0.264008	-0.3	0.1365	0.429	0	321	266	3
2026-02-12	15:44:10.910	-25.55	11.235	-53.55	1.056276	0.074176	0.267668	-0.2985	0.1245	0.426	0	321	266	3
2026-02-12	15:44:10.930	-35.56	13.055	-54.985	1.081896	0.058072	0.255224	-0.315	0.111	0.435	0	321	266	3
2026-02-12	15:44:10.950	-41.3	16.485	-55.79	1.07116	0.05368	0.231556	-0.312	0.1095	0.429	0	321	266	3
2026-02-12	15:44:10.970	-45.43	19.25	-55.65	1.044808	0.059292	0.207644	-0.3075	0.1005	0.4215	0	321	266	3
2026-02-12	15:44:10.990	-49.035	20.755	-54.18	1.0553	0.0488	0.203984	-0.3075	0.087	0.4185	0	321	266	3
2026-02-12	15:44:11.010	-50.295	23.275	-51.87	1.0614	0.025132	0.213988	-0.312	0.081	0.417	0	354	262	3
2026-02-12	15:44:11.030	-47.215	26.845	-49.35	1.03578	0.02318	0.199348	-0.321	0.0735	0.4125	0	354	262	3
2026-02-12	15:44:11.050	-43.015	28.035	-46.025	1.018944	0.031964	0.178364	-0.321	0.063	0.411	0	354	262	3
2026-02-12	15:44:11.070	-37.8	27.335	-39.69	1.037	0.044408	0.171776	-0.318	0.0555	0.4065	0	354	262	3
2026-02-12	15:44:11.090	-32.9	26.635	-32.025	1.046028	0.053436	0.163724	-0.318	0.054	0.4035	0	354	262	3
2026-02-12	15:44:11.110	-26.845	26.11	-25.515	1.023092	0.060268	0.143228	-0.3195	0.039	0.3945	0	354	262	3
2026-02-12	15:44:11.130	-21.07	24.045	-18.655	1.007964	0.077348	0.130296	-0.3285	0.0285	0.39	0	354	262	3
2026-02-12	15:44:11.150	-16.87	21.315	-11.725	1.023336	0.091744	0.125904	-0.333	0.027	0.3855	0	354	262	3
2026-02-12	15:44:11.170	-13.51	19.53	-4.865	1.033828	0.10004	0.121024	-0.318	0.0315	0.3825	0	354	262	3
2026-02-12	15:44:11.190	-9.275	18.585	1.365	1.01382	0.102968	0.113704	-0.327	0.0285	0.372	0	354	262	3
2026-02-12	15:44:11.210	-5.005	16.975	6.895	0.99674	0.1159	0.108824	-0.33	0.0225	0.3825	0	369	251	2
2026-02-12	15:44:11.230	-3.815	14.84	11.55	0.996984	0.130296	0.110044	-0.324	0.0255	0.3765	0	369	251	2
2026-02-12	15:44:11.250	-5.04	13.86	15.26	0.979416	0.146156	0.116876	-0.3255	0.033	0.3795	0	369	251	2
2026-02-12	15:44:11.270	-7.98	13.055	18.025	0.970632	0.146644	0.11346	-0.333	0.024	0.3705	0	369	251	2
2026-02-12	15:44:11.290	-11.445	12.425	19.985	0.97722	0.152744	0.119072	-0.333	0.039	0.3765	0	369	251	2
2026-02-12	15:44:11.310	-15.96	12.845	21.525	0.974292	0.150304	0.117364	-0.3315	0.0345	0.369	0	369	251	2
2026-02-12	15:44:11.330	-18.34	12.005	22.365	1.070672	0.146888	0.086376	-0.3225	0.045	0.3645	0	369	251	2
2026-02-12	15:44:11.350	-7.35	12.46	23.17	1.168272	0.14762	0.034648	-0.324	0.045	0.3735	0	369	251	2
2026-02-12	15:44:11.370	5.495	15.54	21.315	1.089216	0.15128	0.013664	-0.324	0.045	0.369	0	369	251	2
2026-02-12	15:44:11.390	16.73	12.88	16.87	1.063352	0.15738	-0.004636	-0.3255	0.0465	0.363	0	369	251	2
2026-02-12	15:44:11.410	30.065	10.185	10.955	0.98454	0.15982	-0.014396	-0.3285	0.048	0.36	0	366	226	2
2026-02-12	15:44:11.430	43.82	3.5	2.94	0.948672	0.162992	-0.01098	-0.3255	0.0495	0.3585	0	366	226	2
2026-02-12	15:44:11.450	53.76	-3.64	-5.04	0.912804	0.164456	0.026108	-0.324	0.0525	0.3585	0	366	226	2
2026-02-12	15:44:11.470	53.165	-10.64	-11.97	0.901824	0.192272	0.07124799	-0.327	0.0555	0.357	0	366	226	2
2026-02-12	15:44:11.490	42.21	-17.29	-16.905	0.925248	0.207888	0.115168	-0.3285	0.057	0.3585	0	366	226	2
2026-02-12	15:44:11.510	29.505	-22.155	-20.02	0.973804	0.179096	0.11346	-0.327	0.0555	0.363	0	366	226	2
2026-02-12	15:44:11.530	47.775	-25.165	-25.305	1.00284	0.126392	0.103944	-0.3255	0.0585	0.3645	0	366	226	2
2026-02-12	15:44:11.550	89.67	-27.51	-33.53	0.982588	0.184708	0.049776	-0.327	0.048	0.3645	0	366	226	2
2026-02-12	15:44:11.570	118.23	-32.655	-40.81	0.998204	0.248148	0.058316	-0.3315	0.045	0.3645	0	366	226	2
2026-02-12	15:44:11.590	111.825	-38.57	-41.72	0.969656	0.343308	0.020496	-0.327	0.0405	0.3645	0	366	226	2
2026-02-12	15:44:11.610	68.005	-49.315	-42.84	0.937448	0.38674	-0.005856	-0.3255	0.0375	0.3825	0	351	192	2
2026-02-12	15:44:11.630	20.195	-59.745	-38.885	0.926712	0.37454	0.0061	-0.3255	0.0375	0.3825	0	351	192	2
2026-02-12	15:44:11.650	-16.8	-67.69	-33.075	0.954772	0.362096	0.063196	-0.3285	0.036	0.3915	0	351	192	2
2026-02-12	15:44:11.670	-51.765	-68.355	-25.41	1.1834	-0.034404	0.536556	-0.3285	0.03	0.408	0	351	192	2
2026-02-12	15:44:11.690	103.88	-23.765	-21.105	0.935252	-0.75762	1.096048	-0.3225	0.0195	0.417	0	351	192	2
2026-02-12	15:44:11.710	232.715	2.415	-8.05	1.17486	-0.32452	0.938424	-0.321	0.0165	0.426	0	351	192	2
2026-02-12	15:44:11.730	219.17	31.78	18.515	1.000156	0.065148	0.552416	-0.318	0.024	0.4275	0	351	192	2
2026-02-12	15:44:11.750	197.225	38.5	31.605	0.91988	0.311588	0.257176	-0.3165	0.0345	0.42	0	351	192	2
2026-02-12	15:44:11.770	146.23	38.36	41.3	0.851804	0.61732	0.084668	-0.3165	0.042	0.4125	0	351	192	2
2026-02-12	15:44:11.790	28.21	19.25	49.21	1.0797	0.635864	0.088572	-0.3165	0.0495	0.405	0	351	192	2
2026-02-12	15:44:11.810	-89.565	3.115	48.44	1.160952	0.589016	0.144204	-0.3165	0.0615	0.4005	0	333	182	3
2026-02-12	15:44:11.830	-191.45	0.735	46.375	1.039684	0.451644	0.134932	-0.3165	0.069	0.405	0	333	182	3
2026-02-12	15:44:11.850	-262.71	-3.675	44.8	1.0248	0.351116	0.085888	-0.315	0.072	0.411	0	333	182	3
2026-02-12	15:44:11.870	-304.78	-4.865	42.35	1.0126	0.285968	0.047824	-0.3165	0.072	0.4125	0	333	182	3
2026-02-12	15:44:11.890	-332.955	-5.215	34.195	0.979416	0.171532	0.023668	-0.3195	0.0705	0.4095	0	333	182	3
2026-02-12	15:44:11.910	-319.725	-5.04	29.47	0.972584	0.035624	0.042456	-0.3195	0.063	0.423	0	333	182	3
2026-02-12	15:44:11.930	-255.955	-3.045	24.78	0.987468	-0.089548	0.10614	-0.312	0.0495	0.4245	0	333	182	3
2026-02-12	15:44:11.950	-174.93	0.28	21.315	1.01138	-0.025864	0.155184	-0.315	0.0495	0.4275	0	333	182	3
2026-02-12	15:44:11.970	-115.43	5.67	18.235	1.002108	-0.000976	0.165188	-0.3135	0.0405	0.429	0	333	182	3
2026-02-12	15:44:11.990	-65.59	10.115	12.985	0.985516	0.003904	0.131028	-0.318	0.0345	0.4275	0	333	182	3
2026-02-12	15:44:10.010	-26.74	2.52	92.75	-0.224724	0.243756	0.379176	0.123	-0.4215	0.2325	0	191	215	3
2026-02-12	15:44:10.030	-3.535	5.6	116.97	-0.171532	0.176656	0.325252	0.0855	-0.42	0.2295	0	191	215	3
2026-02-12	15:44:10.050	11.235	5.635	144.13	-0.095648	0.187636	0.22448	0.0735	-0.405	0.2325	0	191	215	3
2026-02-12	15:44:10.070	3.675	0.14	172.375	0.000488	0.249124	0.091744	0.0525	-0.4095	0.225	0	191	215	3
2026-02-12	15:44:10.090	-0.84	-10.255	196.105	0.128832	0.323544	0.023668	0.0315	-0.402	0.2325	0	191	215	3
2026-02-12	15:44:10.110	26.145	-20.86	213.36	0.27816	0.460672	0.078324	0.0015	-0.408	0.237	0	191	215	3
2026-02-12	15:44:10.130	64.015	-27.93	229.67	0.454572	0.742248	0.163236	-0.0285	-0.3825	0.2415	0	191	215	3
2026-02-12	15:44:10.150	67.165	-30.45	240.87	0.60878	1.036512	0.23058	-0.066	-0.378	0.252	0	191	215	3
2026-02-12	15:44:10.170	33.985	-31.43	247.975	0.67832	1.054812	0.30378	-0.099	-0.366	0.261	0	191	215	3
2026-02-12	15:44:10.190	13.93	-35	248.36	0.76494	0.915488	0.318664	-0.1245	-0.339	0.2715	0	191	215	3
2026-02-12	15:44:10.210	19.11	-38.675	244.02	0.867908	0.732488	0.287432	-0.1545	-0.3255	0.2835	0	201	256	2
2026-02-12	15:44:10.230	26.88	-39.83	241.395	0.977464	0.738344	0.277428	-0.189	-0.309	0.2865	0	201	256	2
2026-02-12	15:44:10.250	25.9	-37.275	240.45	1.053592	0.754692	0.313784	-0.207	-0.2745	0.288	0	201	256	2
2026-02-12	15:44:10.270	-17.185	-33.635	240.66	1.164856	0.798856	0.35502	-0.234	-0.2505	0.294	0	201	256	2
2026-02-12	15:44:10.290	-45.885	-33.53	240.31	1.162904	0.704428	0.3538	-0.2595	-0.219	0.3	0	201	256	2
2026-02-12	15:44:10.310	-65.24	-36.575	241.92	1.194136	0.609512	0.332084	-0.288	-0.177	0.306	0	201	256	2
2026-02-12	15:44:10.330	-85.225	-42.735	244.02	1.24074	0.55266	0.266204	-0.297	-0.1485	0.309	0	201	256	2
2026-02-12	15:44:10.350	-105.035	-52.92	243.005	1.282708	0.526552	0.204228	-0.309	-0.111	0.318	0	201	256	2
2026-02-12	15:44:10.370	-132.265	-66.045	239.68	1.3054	0.523136	0.222772	-0.3165	-0.0915	0.3225	0	201	256	2
2026-02-12	15:44:10.390	-180.25	-79.275	233.205	1.331264	0.534116	0.256444	-0.327	-0.0585	0.324	0	201	256	2
2026-02-12	15:44:10.410	-235.76	-89.39	221.06	1.308572	0.471652	0.267912	-0.327	-0.03	0.333	0	229	271	3
2026-02-12	15:44:10.430	-278.6	-96.81	202.965	1.253672	0.350384	0.240584	-0.333	0.0015	0.3465	0	229	271	3
2026-02-12	15:44:10.450	-297.36	-103.67	179.935	1.236348	0.205692	0.221552	-0.33	0.03	0.3525	0	229	271	3
2026-02-12	15:44:10.470	-287.315	-105.91	154.875	1.222196	0.059048	0.215208	-0.33	0.054	0.375	0	229	271	3
2026-02-12	15:44:10.490	-251.16	-102.585	128.345	1.183888	-0.034648	0.214476	-0.324	0.0675	0.396	0	229	271	3
2026-02-12	15:44:10.510	-201.53	-98.84	100.555	1.160952	-0.117852	0.222772	-0.3195	0.087	0.4215	0	229	271	3
2026-02-12	15:44:10.530	-125.93	-89.075	69.44	1.13704	-0.201788	0.26596	-0.3105	0.09	0.438	0	229	271	3
2026-02-12	15:44:10.550	-43.68	-73.64	43.155	1.089704	-0.25376	0.28426	-0.3105	0.09	0.438	0	229	271	3
2026-02-12	15:44:10.570	32.515	-60.655	23.59	1.046516	-0.216916	0.258396	-0.3	0.096	0.4605	0	229	271	3
2026-02-12	15:44:10.590	101.815	-49.455	6.65	1.025776	-0.130052	0.235948	-0.288	0.1095	0.4845	0	229	271	3
2026-02-12	15:44:10.610	157.08	-39.515	-6.195	1.0126	-0.05612	0.223016	-0.2865	0.117	0.4875	0	274	272	3
2026-02-12	15:44:10.630	194.355	-29.68	-16.205	1.00528	0.0183	0.229604	-0.2865	0.1215	0.489	0	274	272	3
2026-02-12	15:44:10.650	210	-20.895	-22.82	1.002596	0.07564	0.244488	-0.2775	0.135	0.486	0	274	272	3
2026-02-12	15:44:10.670	208.985	-12.53	-27.86	1.005524	0.122732	0.244	-0.276	0.141	0.48	0	274	272	3
2026-02-12	15:44:10.690	198.555	-5.53	-32.515	0.996984	0.165676	0.231068	-0.2835	0.1425	0.474	0	274	272	3
2026-02-12	15:44:10.710	178.01	-0.42	-35.525	0.997228	0.185196	0.240584	-0.282	0.153	0.4695	0	274	272	3
2026-02-12	15:44:10.730	150.535	3.85	-36.645	1.005524	0.193004	0.243756	-0.2775	0.162	0.459	0	274	272	3
2026-02-12	15:44:10.750	121.94	6.825	-37.485	1.017236	0.190076	0.250588	-0.2865	0.1635	0.4515	0	274	272	3
2026-02-12	15:44:10.770	92.75	8.085	-38.605	1.02846	0.191784	0.25986	-0.291	0.1635	0.447	0	274	272	3
2026-02-12	15:44:10.790	64.47	8.715	-39.55	1.025532	0.169336	0.288164	-0.2895	0.1635	0.441	0	274	272	3
2026-02-12	15:44:10.810	29.61	10.85	-40.425	1.014552	0.105164	0.317688	-0.291	0.162	0.4395	0	321	266	3
2026-02-12	15:44:10.830	14.42	12.53	-42.805	1.00772	0.086376	0.297924	-0.291	0.162	0.4395	0	321	266	3
2026-02-12	15:44:10.850	4.62	12.915	-46.095	1.009428	0.072956	0.27816	-0.2985	0.147	0.4275	0	321	266	3
2026-02-12	15:44:10.870	-3.465	12.25	-49.245	1.016016	0.076128	0.263764	-0.291	0.1365	0.426	0	321	266	3
2026-02-12	15:44:10.890	-13.58	11.62	-51.8	1.016992	0.079788	0.264008	-0.3	0.1365	0.429	0	321	266	3
2026-02-12	15:44:10.910	-25.55	11.235	-53.55	1.056276	0.074176	0.267668	-0.2985	0.1245	0.426	0	321	266	3
2026-02-12	15:44:10.930	-35.56	13.055	-54.985	1.081896	0.058072	0.255224	-0.315	0.111	0.435	0	321	266	3
2026-02-12	15:44:10.950	-41.3	16.485	-55.79	1.07116	0.05368	0.231556	-0.312	0.1095	0.429	0	321	266	3
2026-02-12	15:44:10.970	-45.43	19.25	-55.65	1.044808	0.059292	0.207644	-0.3075	0.1005	0.4215	0	321	266	3
2026-02-12	15:44:10.990	-49.035	20.755	-54.18	1.0553	0.0488	0.203984	-0.3075	0.087	0.4185	0	321	266	3
2026-02-12	15:44:11.010	-50.295	23.275	-51.87	1.0614	0.025132	0.213988	-0.312	0.081	0.417	0	354	262	3
2026-02-12	15:44:11.030	-47.215	26.845	-49.35	1.03578	0.02318	0.199348	-0.321	0.0735	0.4125	0	354	262	3
2026-02-12	15:44:11.050	-43.015	28.035	-46.025	1.018944	0.031964	0.178364	-0.321	0.063	0.411	0	354	262	3
2026-02-12	15:44:11.070	-37.8	27.335	-39.69	1.037	0.044408	0.171776	-0.318	0.0555	0.4065	0	354	262	3
2026-02-12	15:44:11.090	-32.9	26.635	-32.025	1.046028	0.053436	0.163724	-0.318	0.054	0.4035	0	354	262	3
2026-02-12	15:44:11.110	-26.845	26.11	-25.515	1.023092	0.060268	0.143228	-0.3195	0.039	0.3945	0	354	262	3
2026-02-12	15:44:11.130	-21.07	24.045	-18.655	1.007964	0.077348	0.130296	-0.3285	0.0285	0.39	0	354	262	3
2026-02-12	15:44:11.150	-16.87	21.315	-11.725	1.023336	0.091744	0.125904	-0.333	0.027	0.3855	0	354	262	3
2026-02-12	15:44:11.170	-13.51	19.53	-4.865	1.033828	0.10004	0.121024	-0.318	0.0315	0.3825	0	354	262	3
2026-02-12	15:44:11.190	-9.275	18.585	1.365	1.01382	0.102968	0.113704	-0.327	0.0285	0.372	0	354	262	3
2026-02-12	15:44:11.210	-5.005	16.975	6.895	0.99674	0.1159	0.108824	-0.33	0.0225	0.3825	0	369	251	2
2026-02-12	15:44:11.230	-3.815	14.84	11.55	0.996984	0.130296	0.110044	-0.324	0.0255	0.3765	0	369	251	2
2026-02-12	15:44:11.250	-5.04	13.86	15.26	0.979416	0.146156	0.116876	-0.3255	0.033	0.3795	0	369	251	2
2026-02-12	15:44:11.270	-7.98	13.055	18.025	0.970632	0.146644	0.11346	-0.333	0.024	0.3705	0	369	251	2
2026-02-12	15:44:11.290	-11.445	12.425	19.985	0.97722	0.152744	0.119072	-0.333	0.039	0.3765	0	369	251	2
2026-02-12	15:44:11.310	-15.96	12.845	21.525	0.974292	0.150304	0.117364	-0.3315	0.0345	0.369	0	369	251	2
2026-02-12	15:44:11.330	-18.34	12.005	22.365	1.070672	0.146888	0.086376	-0.3225	0.045	0.3645	0	369	251	2
2026-02-12	15:44:11.350	-7.35	12.46	23.17	1.168272	0.14762	0.034648	-0.324	0.045	0.3735	0	369	251	2
2026-02-12	15:44:11.370	5.495	15.54	21.315	1.089216	0.15128	0.013664	-0.324	0.045	0.369	0	369	251	2
2026-02-12	15:44:11.390	16.73	12.88	16.87	1.063352	0.15738	-0.004636	-0.3255	0.0465	0.363	0	369	251	2
2026-02-12	15:44:11.410	30.065	10.185	10.955	0.98454	0.15982	-0.014396	-0.3285	0.048	0.36	0	366	226	2
2026-02-12	15:44:11.430	43.82	3.5	2.94	0.948672	0.162992	-0.01098	-0.3255	0.0495	0.3585	0	366	226	2
2026-02-12	15:44:11.450	53.76	-3.64	-5.04	0.912804	0.164456	0.026108	-0.324	0.0525	0.3585	0	366	226	2
2026-02-12	15:44:11.470	53.165	-10.64	-11.97	0.901824	0.192272	0.07124799	-0.327	0.0555	0.357	0	366	226	2
2026-02-12	15:44:11.490	42.21	-17.29	-16.905	0.925248	0.207888	0.115168	-0.3285	0.057	0.3585	0	366	226	2
2026-02-12	15:44:11.510	29.505	-22.155	-20.02	0.973804	0.179096	0.11346	-0.327	0.0555	0.363	0	366	226	2
2026-02-12	15:44:11.530	47.775	-25.165	-25.305	1.00284	0.126392	0.103944	-0.3255	0.0585	0.3645	0	366	226	2
2026-02-12	15:44:11.550	89.67	-27.51	-33.53	0.982588	0.184708	0.049776	-0.327	0.048	0.3645	0	366	226	2
2026-02-12	15:44:11.570	118.23	-32.655	-40.81	0.998204	0.248148	0.058316	-0.3315	0.045	0.3645	0	366	226	2
2026-02-12	15:44:11.590	111.825	-38.57	-41.72	0.969656	0.343308	0.020496	-0.327	0.0405	0.3645	0	366	226	2
2026-02-12	15:44:11.610	68.005	-49.315	-42.84	0.937448	0.38674	-0.005856	-0.3255	0.0375	0.3825	0	351	192	2
2026-02-12	15:44:11.630	20.195	-59.745	-38.885	0.926712	0.37454	0.0061	-0.3255	0.0375	0.3825	0	351	192	2
2026-02-12	15:44:11.650	-16.8	-67.69	-33.075	0.954772	0.362096	0.063196	-0.3285	0.036	0.3915	0	351	192	2
2026-02-12	15:44:11.670	-51.765	-68.355	-25.41	1.1834	-0.034404	0.536556	-0.3285	0.03	0.408	0	351	192	2
2026-02-12	15:44:11.690	103.88	-23.765	-21.105	0.935252	-0.75762	1.096048	-0.3225	0.0195	0.417	0	351	192	2
2026-02-12	15:44:11.710	232.715	2.415	-8.05	1.17486	-0.32452	0.938424	-0.321	0.0165	0.426	0	351	192	2
2026-02-12	15:44:11.730	219.17	31.78	18.515	1.000156	0.065148	0.552416	-0.318	0.024	0.4275	0	351	192	2
2026-02-12	15:44:11.750	197.225	38.5	31.605	0.91988	0.311588	0.257176	-0.3165	0.0345	0.42	0	351	192	2
2026-02-12	15:44:11.770	146.23	38.36	41.3	0.851804	0.61732	0.084668	-0.3165	0.042	0.4125	0	351	192	2
2026-02-12	15:44:11.790	28.21	19.25	49.21	1.0797	0.635864	0.088572	-0.3165	0.0495	0.405	0	351	192	2
2026-02-12	15:44:11.810	-89.565	3.115	48.44	1.160952	0.589016	0.144204	-0.3165	0.0615	0.4005	0	333	182	3
2026-02-12	15:44:11.830	-191.45	0.735	46.375	1.039684	0.451644	0.134932	-0.3165	0.069	0.405	0	333	182	3
2026-02-12	15:44:11.850	-262.71	-3.675	44.8	1.0248	0.351116	0.085888	-0.315	0.072	0.411	0	333	182	3
2026-02-12	15:44:11.870	-304.78	-4.865	42.35	1.0126	0.285968	0.047824	-0.3165	0.072	0.4125	0	333	182	3
2026-02-12	15:44:11.890	-332.955	-5.215	34.195	0.979416	0.171532	0.023668	-0.3195	0.0705	0.4095	0	333	182	3
2026-02-12	15:44:11.910	-319.725	-5.04	29.47	0.972584	0.035624	0.042456	-0.3195	0.063	0.423	0	333	182	3
2026-02-12	15:44:11.930	-255.955	-3.045	24.78	0.987468	-0.089548	0.10614	-0.312	0.0495	0.4245	0	333	182	3
2026-02-12	15:44:11.950	-174.93	0.28	21.315	1.01138	-0.025864	0.155184	-0.315	0.0495	0.4275	0	333	182	3
2026-02-12	15:44:11.970	-115.43	5.67	18.235	1.002108	-0.000976	0.165188	-0.3135	0.0405	0.429	0	333	182	3
2026-02-12	15:44:11.990	-65.59	10.115	12.985	0.985516	0.003904	0.131028	-0.318	0.0345	0.4275	0	333	182	3
2026-02-12	15:44:10.010	-26.74	2.52	92.75	-0.224724	0.243756	0.379176	0.123	-0.4215	0.2325	0	191	215	3
2026-02-12	15:44:10.030	-3.535	5.6	116.97	-0.171532	0.176656	0.325252	0.0855	-0.42	0.2295	0	191	215	3
2026-02-12	15:44:10.050	11.235	5.635	144.13	-0.095648	0.187636	0.22448	0.0735	-0.405	0.2325	0	191	215	3
2026-02-12	15:44:10.070	3.675	0.14	172.375	0.000488	0.249124	0.091744	0.0525	-0.4095	0.225	0	191	215	3
2026-02-12	15:44:10.090	-0.84	-10.255	196.105	0.128832	0.323544	0.023668	0.0315	-0.402	0.2325	0	191	215	3
2026-02-12	15:44:10.110	26.145	-20.86	213.36	0.27816	0.460672	0.078324	0.0015	-0.408	0.237	0	191	215	3
2026-02-12	15:44:10.130	64.015	-27.93	229.67	0.454572	0.742248	0.163236	-0.0285	-0.3825	0.2415	0	191	215	3
2026-02-12	15:44:10.150	67.165	-30.45	240.87	0.60878	1.036512	0.23058	-0.066	-0.378	0.252	0	191	215	3
2026-02-12	15:44:10.170	33.985	-31.43	247.975	0.67832	1.054812	0.30378	-0.099	-0.366	0.261	0	191	215	3
2026-02-12	15:44:10.190	13.93	-35	248.36	0.76494	0.915488	0.318664	-0.1245	-0.339	0.2715	0	191	215	3
2026-02-12	15:44:10.210	19.11	-38.675	244.02	0.867908	0.732488	0.287432	-0.1545	-0.3255	0.2835	0	201	256	2
2026-02-12	15:44:10.230	26.88	-39.83	241.395	0.977464	0.738344	0.277428	-0.189	-0.309	0.2865	0	201	256	2
2026-02-12	15:44:10.250	25.9	-37.275	240.45	1.053592	0.754692	0.313784	-0.207	-0.2745	0.288	0	201	256	2
2026-02-12	15:44:10.270	-17.185	-33.635	240.66	1.164856	0.798856	0.35502	-0.234	-0.2505	0.294	0	201	256	2
2026-02-12	15:44:10.290	-45.885	-33.53	240.31	1.162904	0.704428	0.3538	-0.2595	-0.219	0.3	0	201	256	2
2026-02-12	15:44:10.310	-65.24	-36.575	241.92	1.194136	0.609512	0.332084	-0.288	-0.177	0.306	0	201	256	2
2026-02-12	15:44:10.330	-85.225	-42.735	244.02	1.24074	0.55266	0.266204	-0.297	-0.1485	0.309	0	201	256	2
2026-02-12	15:44:10.350	-105.035	-52.92	243.005	1.282708	0.526552	0.204228	-0.309	-0.111	0.318	0	201	256	2
2026-02-12	15:44:10.370	-132.265	-66.045	239.68	1.3054	0.523136	0.222772	-0.3165	-0.0915	0.3225	0	201	256	2
2026-02-12	15:44:10.390	-180.25	-79.275	233.205	1.331264	0.534116	0.256444	-0.327	-0.0585	0.324	0	201	256	2
2026-02-12	15:44:10.410	-235.76	-89.39	221.06	1.308572	0.471652	0.267912	-0.327	-0.03	0.333	0	229	271	3
2026-02-12	15:44:10.430	-278.6	-96.81	202.965	1.253672	0.350384	0.240584	-0.333	0.0015	0.3465	0	229	271	3
2026-02-12	15:44:10.450	-297.36	-103.67	179.935	1.236348	0.205692	0.221552	-0.33	0.03	0.3525	0	229	271	3
2026-02-12	15:44:10.470	-287.315	-105.91	154.875	1.222196	0.059048	0.215208	-0.33	0.054	0.375	0	229	271	3
2026-02-12	15:44:10.490	-251.16	-102.585	128.345	1.183888	-0.034648	0.214476	-0.324	0.0675	0.396	0	229	271	3
2026-02-12	15:44:10.510	-201.53	-98.84	100.555	1.160952	-0.117852	0.222772	-0.3195	0.087	0.4215	0	229	271	3
2026-02-12	15:44:10.530	-125.93	-89.075	69.44	1.13704	-0.201788	0.26596	-0.3105	0.09	0.438	0	229	271	3
2026-02-12	15:44:10.550	-43.68	-73.64	43.155	1.089704	-0.25376	0.28426	-0.3105	0.09	0.438	0	229	271	3
2026-02-12	15:44:10.570	32.515	-60.655	23.59	1.046516	-0.216916	0.258396	-0.3	0.096	0.4605	0	229	271	3
2026-02-12	15:44:10.590	101.815	-49.455	6.65	1.025776	-0.130052	0.235948	-0.288	0.1095	0.4845	0	229	271	3
2026-02-12	15:44:10.610	157.08	-39.515	-6.195	1.0126	-0.05612	0.223016	-0.2865	0.117	0.4875	0	274	272	3
2026-02-12	15:44:10.630	194.355	-29.68	-16.205	1.00528	0.0183	0.229604	-0.2865	0.1215	0.489	0	274	272	3
2026-02-12	15:44:10.650	210	-20.895	-22.82	1.002596	0.07564	0.244488	-0.2775	0.135	0.486	0	274	272	3
2026-02-12	15:44:10.670	208.985	-12.53	-27.86	1.005524	0.122732	0.244	-0.276	0.141	0.48	0	274	272	3
2026-02-12	15:44:10.690	198.555	-5.53	-32.515	0.996984	0.165676	0.231068	-0.2835	0.1425	0.474	0	274	272	3
2026-02-12	15:44:10.710	178.01	-0.42	-35.525	0.997228	0.185196	0.240584	-0.282	0.153	0.4695	0	274	272	3
2026-02-12	15:44:10.730	150.535	3.85	-36.645	1.005524	0.193004	0.243756	-0.2775	0.162	0.459	0	274	272	3
2026-02-12	15:44:10.750	121.94	6.825	-37.485	1.017236	0.190076	0.250588	-0.2865	0.1635	0.4515	0	274	272	3
2026-02-12	15:44:10.770	92.75	8.085	-38.605	1.02846	0.191784	0.25986	-0.291	0.1635	0.447	0	274	272	3
2026-02-12	15:44:10.790	64.47	8.715	-39.55	1.025532	0.169336	0.288164	-0.2895	0.1635	0.441	0	274	272	3
2026-02-12	15:44:10.810	29.61	10.85	-40.425	1.014552	0.105164	0.317688	-0.291	0.162	0.4395	0	321	266	3
2026-02-12	15:44:10.830	14.42	12.53	-42.805	1.00772	0.086376	0.297924	-0.291	0.162	0.4395	0	321	266	3
2026-02-12	15:44:10.850	4.62	12.915	-46.095	1.009428	0.072956	0.27816	-0.2985	0.147	0.4275	0	321	266	3
2026-02-12	15:44:10.870	-3.465	12.25	-49.245	1.016016	0.076128	0.263764	-0.291	0.1365	0.426	0	321	266	3
2026-02-12	15:44:10.890	-13.58	11.62	-51.8	1.016992	0.079788	0.264008	-0.3	0.1365	0.429	0	321	266	3
2026-02-12	15:44:10.910	-25.55	11.235	-53.55	1.056276	0.074176	0.267668	-0.2985	0.1245	0.426	0	321	266	3
2026-02-12	15:44:10.930	-35.56	13.055	-54.985	1.081896	0.058072	0.255224	-0.315	0.111	0.435	0	321	266	3
2026-02-12	15:44:10.950	-41.3	16.485	-55.79	1.07116	0.05368	0.231556	-0.312	0.1095	0.429	0	321	266	3
2026-02-12	15:44:10.970	-45.43	19.25	-55.65	1.044808	0.059292	0.207644	-0.3075	0.1005	0.4215	0	321	266	3
2026-02-12	15:44:10.990	-49.035	20.755	-54.18	1.0553	0.0488	0.203984	-0.3075	0.087	0.4185	0	321	266	3
2026-02-12	15:44:11.010	-50.295	23.275	-51.87	1.0614	0.025132	0.213988	-0.312	0.081	0.417	0	354	262	3
2026-02-12	15:44:11.030	-47.215	26.845	-49.35	1.03578	0.02318	0.199348	-0.321	0.0735	0.4125	0	354	262	3
2026-02-12	15:44:11.050	-43.015	28.035	-46.025	1.018944	0.031964	0.178364	-0.321	0.063	0.411	0	354	262	3
2026-02-12	15:44:11.070	-37.8	27.335	-39.69	1.037	0.044408	0.171776	-0.318	0.0555	0.4065	0	354	262	3
2026-02-12	15:44:11.090	-32.9	26.635	-32.025	1.046028	0.053436	0.163724	-0.318	0.054	0.4035	0	354	262	3
2026-02-12	15:44:11.110	-26.845	26.11	-25.515	1.023092	0.060268	0.143228	-0.3195	0.039	0.3945	0	354	262	3
2026-02-12	15:44:11.130	-21.07	24.045	-18.655	1.007964	0.077348	0.130296	-0.3285	0.0285	0.39	0	354	262	3
2026-02-12	15:44:11.150	-16.87	21.315	-11.725	1.023336	0.091744	0.125904	-0.333	0.027	0.3855	0	354	262	3
2026-02-12	15:44:11.170	-13.51	19.53	-4.865	1.033828	0.10004	0.121024	-0.318	0.0315	0.3825	0	354	262	3
2026-02-12	15:44:11.190	-9.275	18.585	1.365	1.01382	0.102968	0.113704	-0.327	0.0285	0.372	0	354	262	3
2026-02-12	15:44:11.210	-5.005	16.975	6.895	0.99674	0.1159	0.108824	-0.33	0.0225	0.3825	0	369	251	2
2026-02-12	15:44:11.230	-3.815	14.84	11.55	0.996984	0.130296	0.110044	-0.324	0.0255	0.3765	0	369	251	2
2026-02-12	15:44:11.250	-5.04	13.86	15.26	0.979416	0.146156	0.116876	-0.3255	0.033	0.3795	0	369	251	2
2026-02-12	15:44:11.270	-7.98	13.055	18.025	0.970632	0.146644	0.11346	-0.333	0.024	0.3705	0	369	251	2
2026-02-12	15:44:11.290	-11.445	12.425	19.985	0.97722	0.152744	0.119072	-0.333	0.039	0.3765	0	369	251	2
2026-02-12	15:44:11.310	-15.96	12.845	21.525	0.974292	0.150304	0.117364	-0.3315	0.0345	0.369	0	369	251	2
2026-02-12	15:44:11.330	-18.34	12.005	22.365	1.070672	0.146888	0.086376	-0.3225	0.045	0.3645	0	369	251	2
2026-02-12	15:44:11.350	-7.35	12.46	23.17	1.168272	0.14762	0.034648	-0.324	0.045	0.3735	0	369	251	2
2026-02-12	15:44:11.370	5.495	15.54	21.315	1.089216	0.15128	0.013664	-0.324	0.045	0.369	0	369	251	2
2026-02-12	15:44:11.390	16.73	12.88	16.87	1.063352	0.15738	-0.004636	-0.3255	0.0465	0.363	0	369	251	2
2026-02-12	15:44:11.410	30.065	10.185	10.955	0.98454	0.15982	-0.014396	-0.3285	0.048	0.36	0	366	226	2
2026-02-12	15:44:11.430	43.82	3.5	2.94	0.948672	0.162992	-0.01098	-0.3255	0.0495	0.3585	0	366	226	2
2026-02-12	15:44:11.450	53.76	-3.64	-5.04	0.912804	0.164456	0.026108	-0.324	0.0525	0.3585	0	366	226	2
2026-02-12	15:44:11.470	53.165	-10.64	-11.97	0.901824	0.192272	0.07124799	-0.327	0.0555	0.357	0	366	226	2
2026-02-12	15:44:11.490	42.21	-17.29	-16.905	0.925248	0.207888	0.115168	-0.3285	0.057	0.3585	0	366	226	2
2026-02-12	15:44:11.510	29.505	-22.155	-20.02	0.973804	0.179096	0.11346	-0.327	0.0555	0.363	0	366	226	2
2026-02-12	15:44:11.530	47.775	-25.165	-25.305	1.00284	0.126392	0.103944	-0.3255	0.0585	0.3645	0	366	226	2
2026-02-12	15:44:11.550	89.67	-27.51	-33.53	0.982588	0.184708	0.049776	-0.327	0.048	0.3645	0	366	226	2
2026-02-12	15:44:11.570	118.23	-32.655	-40.81	0.998204	0.248148	0.058316	-0.3315	0.045	0.3645	0	366	226	2
2026-02-12	15:44:11.590	111.825	-38.57	-41.72	0.969656	0.343308	0.020496	-0.327	0.0405	0.3645	0	366	226	2
2026-02-12	15:44:11.610	68.005	-49.315	-42.84	0.937448	0.38674	-0.005856	-0.3255	0.0375	0.3825	0	351	192	2
2026-02-12	15:44:11.630	20.195	-59.745	-38.885	0.926712	0.37454	0.0061	-0.3255	0.0375	0.3825	0	351	192	2
2026-02-12	15:44:11.650	-16.8	-67.69	-33.075	0.954772	0.362096	0.063196	-0.3285	0.036	0.3915	0	351	192	2
2026-02-12	15:44:11.670	-51.765	-68.355	-25.41	1.1834	-0.034404	0.536556	-0.3285	0.03	0.408	0	351	192	2
2026-02-12	15:44:11.690	103.88	-23.765	-21.105	0.935252	-0.75762	1.096048	-0.3225	0.0195	0.417	0	351	192	2
2026-02-12	15:44:11.710	232.715	2.415	-8.05	1.17486	-0.32452	0.938424	-0.321	0.0165	0.426	0	351	192	2
2026-02-12	15:44:11.730	219.17	31.78	18.515	1.000156	0.065148	0.552416	-0.318	0.024	0.4275	0	351	192	2
2026-02-12	15:44:11.750	197.225	38.5	31.605	0.91988	0.311588	0.257176	-0.3165	0.0345	0.42	0	351	192	2
2026-02-12	15:44:11.770	146.23	38.36	41.3	0.851804	0.61732	0.084668	-0.3165	0.042	0.4125	0	351	192	2
2026-02-12	15:44:11.790	28.21	19.25	49.21	1.0797	0.635864	0.088572	-0.3165	0.0495	0.405	0	351	192	2
2026-02-12	15:44:11.810	-89.565	3.115	48.44	1.160952	0.589016	0.144204	-0.3165	0.0615	0.4005	0	333	182	3
2026-02-12	15:44:11.830	-191.45	0.735	46.375	1.039684	0.451644	0.134932	-0.3165	0.069	0.405	0	333	182	3
2026-02-12	15:44:11.850	-262.71	-3.675	44.8	1.0248	0.351116	0.085888	-0.315	0.072	0.411	0	333	182	3
2026-02-12	15:44:11.870	-304.78	-4.865	42.35	1.0126	0.285968	0.047824	-0.3165	0.072	0.4125	0	333	182	3
2026-02-12	15:44:11.890	-332.955	-5.215	34.195	0.979416	0.171532	0.023668	-0.3195	0.0705	0.4095	0	333	182	3
2026-02-12	15:44:11.910	-319.725	-5.04	29.47	0.972584	0.035624	0.042456	-0.3195	0.063	0.423	0	333	182	3
2026-02-12	15:44:11.930	-255.955	-3.045	24.78	0.987468	-0.089548	0.10614	-0.312	0.0495	0.4245	0	333	182	3
2026-02-12	15:44:11.950	-174.93	0.28	21.315	1.01138	-0.025864	0.155184	-0.315	0.0495	0.4275	0	333	182	3
2026-02-12	15:44:11.970	-115.43	5.67	18.235	1.002108	-0.000976	0.165188	-0.3135	0.0405	0.429	0	333	182	3
2026-02-12	15:44:11.990	-65.59	10.115	12.985	0.985516	0.003904	0.131028	-0.318	0.0345	0.4275	0	333	182	3
2026-02-12	15:44:10.010	-26.74	2.52	92.75	-0.224724	0.243756	0.379176	0.123	-0.4215	0.2325	0	191	215	3
2026-02-12	15:44:10.030	-3.535	5.6	116.97	-0.171532	0.176656	0.325252	0.0855	-0.42	0.2295	0	191	215	3
2026-02-12	15:44:10.050	11.235	5.635	144.13	-0.095648	0.187636	0.22448	0.0735	-0.405	0.2325	0	191	215	3
2026-02-12	15:44:10.070	3.675	0.14	172.375	0.000488	0.249124	0.091744	0.0525	-0.4095	0.225	0	191	215	3
2026-02-12	15:44:10.090	-0.84	-10.255	196.105	0.128832	0.323544	0.023668	0.0315	-0.402	0.2325	0	191	215	3
2026-02-12	15:44:10.110	26.145	-20.86	213.36	0.27816	0.460672	0.078324	0.0015	-0.408	0.237	0	191	215	3
2026-02-12	15:44:10.130	64.015	-27.93	229.67	0.454572	0.742248	0.163236	-0.0285	-0.3825	0.2415	0	191	215	3
2026-02-12	15:44:10.150	67.165	-30.45	240.87	0.60878	1.036512	0.23058	-0.066	-0.378	0.252	0	191	215	3
2026-02-12	15:44:10.170	33.985	-31.43	247.975	0.67832	1.054812	0.30378	-0.099	-0.366	0.261	0	191	215	3
2026-02-12	15:44:10.190	13.93	-35	248.36	0.76494	0.915488	0.318664	-0.1245	-0.339	0.2715	0	191	215	3
2026-02-12	15:44:10.210	19.11	-38.675	244.02	0.867908	0.732488	0.287432	-0.1545	-0.3255	0.2835	0	201	256	2
2026-02-12	15:44:10.230	26.88	-39.83	241.395	0.977464	0.738344	0.277428	-0.189	-0.309	0.2865	0	201	256	2
2026-02-12	15:44:10.250	25.9	-37.275	240.45	1.053592	0.754692	0.313784	-0.207	-0.2745	0.288	0	201	256	2
2026-02-12	15:44:10.270	-17.185	-33.635	240.66	1.164856	0.798856	0.35502	-0.234	-0.2505	0.294	0	201	256	2
2026-02-12	15:44:10.290	-45.885	-33.53	240.31	1.162904	0.704428	0.3538	-0.2595	-0.219	0.3	0	201	256	2
2026-02-12	15:44:10.310	-65.24	-36.575	241.92	1.194136	0.609512	0.332084	-0.288	-0.177	0.306	0	201	256	2
2026-02-12	15:44:10.330	-85.225	-42.735	244.02	1.24074	0.55266	0.266204	-0.297	-0.1485	0.309	0	201	256	2
2026-02-12	15:44:10.350	-105.035	-52.92	243.005	1.282708	0.526552	0.204228	-0.309	-0.111	0.318	0	201	256	2
2026-02-12	15:44:10.370	-132.265	-66.045	239.68	1.3054	0.523136	0.222772	-0.3165	-0.0915	0.3225	0	201	256	2
2026-02-12	15:44:10.390	-180.25	-79.275	233.205	1.331264	0.534116	0.256444	-0.327	-0.0585	0.324	0	201	256	2
2026-02-12	15:44:10.410	-235.76	-89.39	221.06	1.308572	0.471652	0.267912	-0.327	-0.03	0.333	0	229	271	3
2026-02-12	15:44:10.430	-278.6	-96.81	202.965	1.253672	0.350384	0.240584	-0.333	0.0015	0.3465	0	229	271	3
2026-02-12	15:44:10.450	-297.36	-103.67	179.935	1.236348	0.205692	0.221552	-0.33	0.03	0.3525	0	229	271	3
2026-02-12	15:44:10.470	-287.315	-105.91	154.875	1.222196	0.059048	0.215208	-0.33	0.054	0.375	0	229	271	3
2026-02-12	15:44:10.490	-251.16	-102.585	128.345	1.183888	-0.034648	0.214476	-0.324	0.0675	0.396	0	229	271	3
2026-02-12	15:44:10.510	-201.53	-98.84	100.555	1.160952	-0.117852	0.222772	-0.3195	0.087	0.4215	0	229	271	3
2026-02-12	15:44:10.530	-125.93	-89.075	69.44	1.13704	-0.201788	0.26596	-0.3105	0.09	0.438	0	229	271	3
2026-02-12	15:44:10.550	-43.68	-73.64	43.155	1.089704	-0.25376	0.28426	-0.3105	0.09	0.438	0	229	271	3
2026-02-12	15:44:10.570	32.515	-60.655	23.59	1.046516	-0.216916	0.258396	-0.3	0.096	0.4605	0	229	271	3
2026-02-12	15:44:10.590	101.815	-49.455	6.65	1.025776	-0.130052	0.235948	-0.288	0.1095	0.4845	0	229	271	3
2026-02-12	15:44:10.610	157.08	-39.515	-6.195	1.0126	-0.05612	0.223016	-0.2865	0.117	0.4875	0	274	272	3
2026-02-12	15:44:10.630	194.355	-29.68	-16.205	1.00528	0.0183	0.229604	-0.2865	0.1215	0.489	0	274	272	3
2026-02-12	15:44:10.650	210	-20.895	-22.82	1.002596	0.07564	0.244488	-0.2775	0.135	0.486	0	274	272	3
2026-02-12	15:44:10.670	208.985	-12.53	-27.86	1.005524	0.122732	0.244	-0.276	0.141	0.48	0	274	272	3
2026-02-12	15:44:10.690	198.555	-5.53	-32.515	0.996984	0.165676	0.231068	-0.2835	0.1425	0.474	0	274	272	3
2026-02-12	15:44:10.710	178.01	-0.42	-35.525	0.997228	0.185196	0.240584	-0.282	0.153	0.4695	0	274	272	3
2026-02-12	15:44:10.730	150.535	3.85	-36.645	1.005524	0.193004	0.243756	-0.2775	0.162	0.459	0	274	272	3
2026-02-12	15:44:10.750	121.94	6.825	-37.485	1.017236	0.190076	0.250588	-0.2865	0.1635	0.4515	0	274	272	3
2026-02-12	15:44:10.770	92.75	8.085	-38.605	1.02846	0.191784	0.25986	-0.291	0.1635	0.447	0	274	272	3
2026-02-12	15:44:10.790	64.47	8.715	-39.55	1.025532	0.169336	0.288164	-0.2895	0.1635	0.441	0	274	272	3
2026-02-12	15:44:10.810	29.61	10.85	-40.425	1.014552	0.105164	0.317688	-0.291	0.162	0.4395	0	321	266	3
2026-02-12	15:44:10.830	14.42	12.53	-42.805	1.00772	0.086376	0.297924	-0.291	0.162	0.4395	0	321	266	3
2026-02-12	15:44:10.850	4.62	12.915	-46.095	1.009428	0.072956	0.27816	-0.2985	0.147	0.4275	0	321	266	3
2026-02-12	15:44:10.870	-3.465	12.25	-49.245	1.016016	0.076128	0.263764	-0.291	0.1365	0.426	0	321	266	3
2026-02-12	15:44:10.890	-13.58	11.62	-51.8	1.016992	0.079788	0.264008	-0.3	0.1365	0.429	0	321	266	3
2026-02-12	15:44:10.910	-25.55	11.235	-53.55	1.056276	0.074176	0.267668	-0.2985	0.1245	0.426	0	321	266	3
2026-02-12	15:44:10.930	-35.56	13.055	-54.985	1.081896	0.058072	0.255224	-0.315	0.111	0.435	0	321	266	3
2026-02-12	15:44:10.950	-41.3	16.485	-55.79	1.07116	0.05368	0.231556	-0.312	0.1095	0.429	0	321	266	3
2026-02-12	15:44:10.970	-45.43	19.25	-55.65	1.044808	0.059292	0.207644	-0.3075	0.1005	0.4215	0	321	266	3
2026-02-12	15:44:10.990	-49.035	20.755	-54.18	1.0553	0.0488	0.203984	-0.3075	0.087	0.4185	0	321	266	3
2026-02-12	15:44:11.010	-50.295	23.275	-51.87	1.0614	0.025132	0.213988	-0.312	0.081	0.417	0	354	262	3
2026-02-12	15:44:11.030	-47.215	26.845	-49.35	1.03578	0.02318	0.199348	-0.321	0.0735	0.4125	0	354	262	3
2026-02-12	15:44:11.050	-43.015	28.035	-46.025	1.018944	0.031964	0.178364	-0.321	0.063	0.411	0	354	262	3
2026-02-12	15:44:11.070	-37.8	27.335	-39.69	1.037	0.044408	0.171776	-0.318	0.0555	0.4065	0	354	262	3
2026-02-12	15:44:11.090	-32.9	26.635	-32.025	1.046028	0.053436	0.163724	-0.318	0.054	0.4035	0	354	262	3
2026-02-12	15:44:11.110	-26.845	26.11	-25.515	1.023092	0.060268	0.143228	-0.3195	0.039	0.3945	0	354	262	3
2026-02-12	15:44:11.130	-21.07	24.045	-18.655	1.007964	0.077348	0.130296	-0.3285	0.0285	0.39	0	354	262	3
2026-02-12	15:44:11.150	-16.87	21.315	-11.725	1.023336	0.091744	0.125904	-0.333	0.027	0.3855	0	354	262	3
2026-02-12	15:44:11.170	-13.51	19.53	-4.865	1.033828	0.10004	0.121024	-0.318	0.0315	0.3825	0	354	262	3
2026-02-12	15:44:11.190	-9.275	18.585	1.365	1.01382	0.102968	0.113704	-0.327	0.0285	0.372	0	354	262	3
2026-02-12	15:44:27.210	-1.085	24.675	27.23	-0.581696	1.351516	-0.142496	0.231	-0.36	0.411	0	344	112	3
2026-02-12	15:44:27.230	-7.98	31.57	23.66	-0.621956	1.471076	-0.239364	0.2205	-0.3645	0.405	0	344	112	3
2026-02-12	15:44:27.250	-26.495	29.54	20.265	-0.522648	1.465464	-0.242048	0.219	-0.366	0.4125	0	344	112	3
2026-02-12	15:44:27.270	-42.21	29.855	17.745	-0.36966	1.320284	-0.18788	0.207	-0.366	0.405	0	344	112	3
2026-02-12	15:44:27.290	-45.815	37.66	14.805	-0.25376	1.10898	-0.129564	0.2085	-0.3645	0.4005	0	344	112	3
2026-02-12	15:44:27.310	-38.64	47.495	11.69	-0.194712	0.935496	-0.125172	0.2115	-0.378	0.396	0	344	112	3
2026-02-12	15:44:27.330	-30.065	57.05	10.325	-0.232776	0.884988	-0.155916	0.2055	-0.3765	0.396	0	344	112	3
2026-02-12	15:44:27.350	-36.575	62.825	8.75	-0.274256	0.876448	-0.197396	0.2025	-0.3705	0.3945	0	344	112	3
2026-02-12	15:44:27.370	-56.63	63.385	7.105	-0.28304	0.85644	-0.223748	0.2085	-0.369	0.384	0	344	112	3
2026-02-12	15:44:27.390	-79.975	60.095	6.895	-0.290116	0.756644	-0.183	0.195	-0.3705	0.381	0	344	112	3
2026-02-12	15:44:27.410	-85.82	56.665	7	-0.287432	0.668804	-0.12322	0.1935	-0.3765	0.372	0	328	80	3
2026-02-12	15:44:27.430	-71.785	56.56	6.23	-0.317688	0.678564	-0.098332	0.192	-0.381	0.3555	0	328	80	3
2026-02-12	15:44:27.450	-55.79	56.595	4.34	-0.342576	0.742004	-0.055144	0.192	-0.3795	0.3465	0	328	80	3
2026-02-12	15:44:27.470	-45.255	56.035	2.17	-0.358436	0.807396	-0.00366	0.189	-0.378	0.345	0	328	80	3
2026-02-12	15:44:27.490	-40.46	55.79	-0.91	-0.371368	0.804224	0.031476	0.1875	-0.3795	0.339	0	328	80	3
2026-02-12	15:44:27.510	-32.865	55.265	-4.27	-0.405284	0.786412	0.056364	0.1875	-0.3825	0.3345	0	328	80	3
2026-02-12	15:44:27.530	-24.92	53.62	-7.21	-0.421632	0.809348	0.085156	0.192	-0.384	0.342	0	328	80	3
2026-02-12	15:44:27.550	-21.7	51.94	-9.905	-0.4453	0.842776	0.120048	0.183	-0.3885	0.3315	0	328	80	3
2026-02-12	15:44:27.570	-22.785	49.595	-12.32	-0.489708	0.876936	0.129076	0.18	-0.387	0.3165	0	328	80	3
2026-02-12	15:44:27.590	-27.125	45.01	-15.12	-0.498248	0.874252	0.125904	0.1845	-0.3825	0.327	0	328	80	3
2026-02-12	15:44:27.610	-29.015	41.125	-18.375	-0.482144	0.856196	0.14762	0.186	-0.3825	0.327	0	315	45	3
2026-02-12	15:44:27.630	-30.625	36.54	-20.545	-0.448716	0.786412	0.152256	0.192	-0.393	0.3165	0	315	45	3
2026-02-12	15:44:27.650	-28	32.515	-21.63	-0.496296	0.78812	0.145424	0.192	-0.3795	0.318	0	315	45	3
2026-02-12	15:44:27.670	-27.23	24.955	-23.17	-0.546804	0.763964	0.156404	0.192	-0.3795	0.318	0	315	45	3
2026-02-12	15:44:27.690	-25.865	19.635	-24.185	-0.569008	0.774212	0.15982	0.1965	-0.381	0.3105	0	315	45	3
2026-02-12	15:44:27.710	-23.485	14.665	-25.34	-0.5673	0.759572	0.187148	0.2025	-0.384	0.3045	0	315	45	3
2026-02-12	15:44:27.730	-18.83	11.585	-25.76	-0.597312	0.75152	0.224724	0.204	-0.381	0.3045	0	315	45	3
2026-02-12	15:44:27.750	-14.7	9.625	-27.475	-0.632204	0.80398	0.22326	0.2055	-0.375	0.3015	0	315	45	3
2026-02-12	15:44:27.770	-14.385	7	-28.595	-0.668804	0.814716	0.20984	0.2115	-0.378	0.297	0	315	45	3
2026-02-12	15:44:27.790	-12.705	4.13	-30.765	-0.690276	0.790072	0.21228	0.2145	-0.3765	0.297	0	315	45	3
2026-02-12	15:44:27.810	-5.285	1.855	-32.235	-0.692716	0.824232	0.241804	0.2175	-0.375	0.294	0	303	41	3
2026-02-12	15:44:27.830	-1.54	-1.26	-34.965	-0.598532	0.858148	0.311588	0.219	-0.3765	0.2925	0	303	41	3
2026-02-12	15:44:27.850	-7.665	-0.735	-38.01	-0.518988	0.833992	0.334768	0.2235	-0.3795	0.294	0	303	41	3
2026-02-12	15:44:27.870	-14.49	2.31	-40.04	-0.498736	0.7503	0.293044	0.2325	-0.381	0.2925	0	303	41	3
2026-02-12	15:44:27.890	-16.485	2.59	-39.655	-0.523868	0.654164	0.240828	0.2385	-0.378	0.291	0	303	41	3
2026-02-12	15:44:27.910	-6.44	-1.155	-37.695	-0.55998	0.58438	0.189588	0.2475	-0.375	0.291	0	303	41	3
2026-02-12	15:44:27.930	14.455	-7.455	-32.83	-0.668072	0.686128	0.12322	0.252	-0.372	0.2925	0	303	41	3
2026-02-12	15:44:27.950	29.68	-16.415	-25.76	-0.730536	0.746884	0.079788	0.255	-0.369	0.294	0	303	41	3
2026-02-12	15:44:27.970	36.925	-25.27	-20.65	-0.69906	0.693692	0.067588	0.264	-0.3675	0.294	0	303	41	3
2026-02-12	15:44:27.990	40.845	-30.31	-15.645	-0.68198	0.590236	0.06222	0.2655	-0.363	0.294	0	303	41	3
2026-02-12	15:44:28.010	46.515	-33.425	-11.165	-0.7381	0.53314	0.040504	0.267	-0.363	0.2925	0	293	66	3
2026-02-12	15:44:28.030	52.605	-39.235	-4.97	-0.804956	0.559004	0.00366	0.2685	-0.3675	0.3015	0	293	66	3
2026-02-12	15:44:28.050	60.515	-46.76	0.07	-0.853024	0.580476	0.00366	0.2685	-0.366	0.3165	0	293	66	3
2026-02-12	15:44:28.070	67.97	-54.915	2.345	-0.887184	0.639524	0.06588	0.2625	-0.3675	0.321	0	293	66	3
2026-02-12	15:44:28.090	69.405	-63.105	2.66	-0.863516	0.716384	0.135908	0.264	-0.3705	0.324	0	293	66	3
2026-02-12	15:44:28.110	61.145	-69.055	1.96	-0.808128	0.712968	0.16348	0.2625	-0.363	0.333	0	293	66	3
2026-02-12	15:44:28.130	54.705	-71.435	1.295	-0.762988	0.642208	0.149328	0.27	-0.366	0.333	0	293	66	3
2026-02-12	15:44:28.150	55.65	-74.41	0.84	-0.705892	0.560224	0.122732	0.27	-0.3675	0.333	0	293	66	3
2026-02-12	15:44:28.170	64.89	-77.455	1.26	-0.6893	0.478484	0.08418	0.264	-0.369	0.339	0	293	66	3
2026-02-12	15:44:28.190	76.685	-84	4.025	-0.655384	0.48434	0.101748	0.264	-0.366	0.345	0	293	66	3
2026-02-12	15:44:28.210	83.72	-87.605	6.79	-0.632936	0.530456	0.150304	0.2685	-0.3645	0.348	0	283	88	3
2026-02-12	15:44:28.230	83.685	-86.485	8.19	-0.638792	0.531188	0.140056	0.2745	-0.363	0.3645	0	283	88	3
2026-02-12	15:44:28.250	88.235	-83.09	9.975	-0.627324	0.52948	0.122488	0.2685	-0.366	0.366	0	283	88	3
2026-02-12	15:44:28.270	99.225	-77.28	13.09	-0.59414	0.621956	0.125904	0.267	-0.351	0.372	0	283	88	3
2026-02-12	15:44:28.290	101.955	-67.375	13.93	-0.578524	0.726144	0.162748	0.2715	-0.3555	0.39	0	283	88	3
2026-02-12	15:44:28.310	90.16	-55.09	12.67	-0.5368	0.821304	0.165188	0.2775	-0.354	0.4005	0	283	88	3
2026-02-12	15:44:28.330	63.245	-42.105	13.825	-0.516304	0.895968	0.1403	0.279	-0.3585	0.4035	0	283	88	3
2026-02-12	15:44:28.350	30.59	-27.51	15.05	-0.51362	0.82594	0.066368	0.279	-0.3495	0.408	0	283	88	3
2026-02-12	15:44:28.370	16.87	-17.01	20.93	-0.58926	0.843508	0.038796	0.279	-0.3495	0.4035	0	283	88	3
2026-02-12	15:44:28.390	11.165	-9.485	25.62	-0.566324	0.97112	0.02196	0.279	-0.3555	0.4095	0	283	88	3
2026-02-12	15:44:28.410	5.25	-1.96	32.025	-0.58316	1.137772	-0.0549	0.273	-0.3555	0.408	0	275	99	3
2026-02-12	15:44:28.430	6.265	12.6	32.55	-0.7137	1.286612	-0.082228	0.264	-0.3555	0.4125	0	275	99	3
2026-02-12	15:44:28.450	5.39	25.83	33.565	-0.761524	1.458388	-0.117608	0.264	-0.354	0.414	0	275	99	3
2026-02-12	15:44:28.470	-23.73	40.565	28.49	-0.5856	1.51158	-0.247172	0.2625	-0.3525	0.423	0	275	99	3
2026-02-12	15:44:28.490	-42.98	52.465	23.485	-0.489708	1.339316	-0.203496	0.2535	-0.3555	0.42	0	275	99	3
2026-02-12	15:44:28.510	-57.855	59.99	20.895	-0.373564	1.175348	-0.126148	0.24	-0.3615	0.4125	0	275	99	3
2026-02-12	15:44:28.530	-68.075	66.01	20.58	-0.310368	0.978684	-0.112972	0.237	-0.366	0.411	0	275	99	3
2026-02-12	15:44:28.550	-59.99	71.33	21.63	-0.29768	0.870348	-0.1403	0.2355	-0.3645	0.405	0	275	99	3
2026-02-12	15:44:28.570	-44.31	73.71	23.03	-0.313052	0.896456	-0.152744	0.2295	-0.369	0.3945	0	275	99	3
2026-02-12	15:44:28.590	-44.065	74.41	23.24	-0.309636	0.867176	-0.15372	0.222	-0.372	0.39	0	275	99	3
2026-02-12	15:44:28.610	-53.305	75.25	24.15	-0.32086	0.850828	-0.165676	0.2175	-0.3705	0.384	0	270	81	3
2026-02-12	15:44:28.630	-68.845	73.64	25.165	-0.343552	0.861564	-0.194712	0.213	-0.3765	0.384	0	270	81	3
2026-02-12	15:44:28.650	-84.735	67.9	25.27	-0.324276	0.850096	-0.194224	0.204	-0.384	0.381	0	270	81	3
2026-02-12	15:44:28.670	-96.775	59.92	23.975	-0.310368	0.820084	-0.157624	0.1965	-0.3885	0.3675	0	270	81	3
2026-02-12	15:44:28.690	-98.945	53.13	22.82	-0.287188	0.776896	-0.043432	0.186	-0.39	0.3525	0	270	81	3
2026-02-12	15:44:28.710	-98.245	49.175	27.335	-0.29768	0.828136	0.09028	0.1815	-0.3945	0.342	0	270	81	3
2026-02-12	15:44:28.730	-95.655	38.815	27.79	-0.277428	0.878644	0.084912	0.183	-0.3975	0.3375	0	270	81	3
2026-02-12	15:44:28.750	-84	34.615	25.48	-0.433588	0.822524	0.044408	0.183	-0.3975	0.3375	0	270	81	3
2026-02-12	15:44:28.770	-70.875	32.13	20.79	-0.433832	0.806908	0.047824	0.177	-0.3945	0.318	0	270	81	3
2026-02-12	15:44:28.790	-54.11	31.99	14.63	-0.433588	0.787632	0.066368	0.171	-0.393	0.2985	0	270	81	3
2026-02-12	15:44:28.810	-43.505	32.83	10.535	-0.439444	0.777628	0.149816	0.1695	-0.3945	0.294	0	270	48	3
2026-02-12	15:44:28.830	-38.465	33.6	6.825	-0.43066	0.745908	0.203496	0.168	-0.3915	0.288	0	270	48	3
2026-02-12	15:44:28.850	-34.65	34.23	4.41	-0.450912	0.731024	0.22082	0.1665	-0.39	0.2835	0	270	48	3
2026-02-12	15:44:28.870	-26.25	36.12	1.225	-0.451156	0.712724	0.239608	0.165	-0.3945	0.276	0	270	48	3
2026-02-12	15:44:28.890	-18.445	37.975	-2.485	-0.434808	0.723216	0.27328	0.1605	-0.3945	0.2745	0	270	48	3
2026-02-12	15:44:28.910	-14.875	38.815	-6.545	-0.483852	0.737612	0.263764	0.162	-0.3945	0.273	0	270	48	3
2026-02-12	15:44:28.930	-15.82	37.73	-9.38	-0.488732	0.74298	0.29402	0.1635	-0.3915	0.267	0	270	48	3
2026-02-12	15:44:28.950	-15.015	36.96	-14.175	-0.475556	0.742004	0.3294	0.1665	-0.3915	0.2655	0	270	48	3
2026-02-12	15:44:28.970	-14.21	33.705	-19.04	-0.53192	0.798612	0.316956	0.168	-0.393	0.267	0	270	48	3
2026-02-12	15:44:28.990	-16.205	31.465	-24.675	-0.514108	0.795928	0.322568	0.1725	-0.3945	0.264	0	270	48	3
2026-02-12	15:44:29.010	-16.38	26.075	-31.325	-0.518988	0.793244	0.368684	0.1785	-0.399	0.2595	0	270	46	2
2026-02-12	15:44:29.030	-18.9	23.1	-34.405	-0.530944	0.786168	0.373564	0.1785	-0.399	0.2595	0	270	46	2
2026-02-12	15:44:29.050	-16.975	20.93	-36.785	-0.57096	0.781776	0.365268	0.195	-0.39	0.2595	0	270	46	2
2026-02-12	15:44:29.070	-8.96	17.745	-38.01	-0.604144	0.842288	0.3416	0.2055	-0.3855	0.249	0	270	46	2
2026-02-12	15:44:29.090	-2.73	13.58	-38.045	-0.633424	0.831796	0.329888	0.2055	-0.3885	0.255	0	270	46	2
2026-02-12	15:44:29.110	3.43	10.78	-35.945	-0.642208	0.842532	0.36234	0.2055	-0.39	0.2565	0	270	46	2
2026-02-12	15:44:29.130	7.595	9.94	-33.88	-0.630252	0.859612	0.35624	0.2115	-0.3855	0.261	0	270	46	2
2026-02-12	15:44:29.150	8.96	11.165	-31.99	-0.665632	0.876692	0.2928	0.2205	-0.3915	0.258	0	270	46	2
2026-02-12	15:44:29.170	9.765	7.84	-31.535	-0.675148	0.880596	0.247172	0.228	-0.3825	0.252	0	270	46	2
2026-02-12	15:44:29.190	9.275	0.98	-30.94	-0.630008	0.793488	0.230092	0.231	-0.384	0.2595	0	270	46	2
2026-02-12	15:44:29.210	10.675	-5.67	-29.085	-0.60146	0.70028	0.177388	0.2355	-0.3795	0.2595	0	268	85	3
2026-02-12	15:44:29.230	17.465	-14.175	-28.35	-0.579744	0.608048	0.117852	0.24	-0.372	0.27	0	268	85	3
2026-02-12	15:44:29.250	33.81	-25.445	-28.735	-0.577304	0.477508	0.098332	0.231	-0.375	0.267	0	268	85	3
2026-02-12	15:44:29.270	96.215	-40.705	-29.785	-0.633668	0.23302	0.069296	0.2475	-0.3825	0.2715	0	268	85	3
2026-02-12	15:44:29.290	217.595	-49.805	-23.065	-0.721752	0.303048	-0.0061	0.2475	-0.3825	0.2715	0	268	85	3
2026-02-12	15:44:29.310	284.62	-50.785	-2.52	-0.777628	0.709064	-0.077348	0.2535	-0.381	0.2985	0	268	85	3
2026-02-12	15:44:29.330	261.345	-50.855	18.55	-0.804712	0.91134	-0.162504	0.2505	-0.3705	0.342	0	268	85	3
2026-02-12	15:44:29.350	181.86	-57.68	32.375	-0.810324	0.991128	-0.177876	0.258	-0.375	0.3645	0	268	85	3
2026-02-12	15:44:29.370	109.585	-66.045	31.78	-0.789584	0.827404	-0.1098	0.255	-0.3645	0.3945	0	268	85	3
2026-02-12	15:44:29.390	85.12	-68.985	24.57	-0.691496	0.787388	0.003172	0.2475	-0.36	0.4035	0	268	85	3
2026-02-12	15:44:29.410	70.735	-66.64	18.34	-0.668316	0.780556	0.0488	0.243	-0.363	0.4245	0	267	115	3
2026-02-12	15:44:29.430	55.545	-66.01	14.07	-0.651236	0.73078	0.044652	0.2415	-0.363	0.42	0	267	115	3
2026-02-12	15:44:29.450	38.29	-65.73	11.69	-0.650016	0.685884	0.056852	0.252	-0.351	0.4275	0	267	115	3
2026-02-12	15:44:29.470	27.895	-65.275	9.1	-0.624884	0.57462	0.022204	0.2445	-0.3555	0.435	0	267	115	3
2026-02-12	15:44:29.490	34.265	-61.74	7.21	-0.647576	0.532896	0.016592	0.2385	-0.363	0.4305	0	267	115	3
2026-02-12	15:44:29.510	44.415	-56.665	6.58	-0.627568	0.474092	0.040992	0.2475	-0.357	0.435	0	267	115	3
2026-02-12	15:44:29.530	58.975	-51.38	9.835	-0.644648	0.536068	0.032208	0.2595	-0.3465	0.4455	0	267	115	3
2026-02-12	15:44:29.550	62.51	-41.44	13.44	-0.63806	0.65392	-0.011956	0.2595	-0.3525	0.4425	0	267	115	3
2026-02-12	15:44:29.570	56.455	-35.21	13.825	-0.630252	0.7015	-0.042944	0.2565	-0.3495	0.45	0	267	115	3
2026-02-12	15:44:29.590	55.3	-29.575	12.075	-0.608292	0.685152	-0.063196	0.252	-0.345	0.4605	0	267	115	3
2026-02-12	15:44:29.610	63.455	-24.955	11.06	-0.586088	0.718092	-0.095892	0.252	-0.342	0.465	0	265	110	3
2026-02-12	15:44:29.630	70.525	-20.895	10.5	-0.550464	0.786412	-0.081496	0.255	-0.3375	0.474	0	265	110	3
2026-02-12	15:44:29.650	62.615	-17.08	14.945	-0.47824	0.762988	-0.0061	0.255	-0.3315	0.4845	0	265	110	3
2026-02-12	15:44:29.670	58.905	-14.105	24.22	-0.47092	0.831308	-0.016348	0.2535	-0.327	0.4875	0	265	110	3
2026-02-12	15:44:29.690	64.26	-7.315	27.93	-0.476288	1.037244	-0.0976	0.2505	-0.321	0.4905	0	265	110	3
2026-02-12	15:44:29.710	61.285	4.69	27.16	-0.55388	1.073112	-0.149328	0.2505	-0.3195	0.501	0	265	110	3
2026-02-12	15:44:29.730	53.445	21.175	23.24	-0.61122	1.240008	-0.293044	0.2445	-0.321	0.5085	0	265	110	3
2026-02-12	15:44:29.750	32.69	30.765	16.835	-0.641476	1.41642	-0.40382	0.234	-0.315	0.5145	0	265	110	3
2026-02-12	15:44:29.770	-8.645	30.94	12.635	-0.613172	1.393484	-0.468968	0.228	-0.318	0.5235	0	265	110	3
2026-02-12	15:44:29.790	-40.53	29.505	10.71	-0.545096	1.372744	-0.483852	0.231	-0.321	0.522	0	265	110	3
2026-02-12	15:44:29.810	-67.13	29.96	8.19	-0.425536	1.261236	-0.4331	0.228	-0.3225	0.5145	0	264	69	3
2026-02-12	15:44:29.830	-69.195	35.035	2.45	-0.378444	1.176568	-0.38186	0.222	-0.327	0.5145	0	264	69	3
2026-02-12	15:44:29.850	-74.725	42.77	-2.135	-0.352336	1.05408	-0.366976	0.216	-0.339	0.504	0	264	69	3
2026-02-12	15:44:29.870	-84.84	47.95	-3.71	-0.3294	0.965752	-0.397476	0.2145	-0.336	0.492	0	264	69	3
2026-02-12	15:44:29.890	-86.975	50.89	-2.135	-0.296216	0.812764	-0.410408	0.2145	-0.3345	0.4875	0	264	69	3
2026-02-12	15:44:29.910	-79.695	49.665	3.64	-0.280844	0.774944	-0.360876	0.2115	-0.3405	0.4785	0	264	69	3
2026-02-12	15:44:29.930	-70.875	47.285	8.61	-0.308172	0.791048	-0.368684	0.207	-0.348	0.471	0	264	69	3
2026-02-12	15:44:29.950	-68.46	43.89	10.465	-0.293532	0.81496	-0.349896	0.201	-0.354	0.462	0	264	69	3
2026-02-12	15:44:29.970	-70.84	40.39	11.025	-0.30256	0.820816	-0.299144	0.1995	-0.3615	0.4545	0	264	69	3
2026-02-12	15:44:29.990	-76.965	37.94	10.815	-0.308172	0.812032	-0.244976	0.195	-0.363	0.4515	0	264	69	3
2026-02-12	15:44:30.010	-74.095	37.275	9.1	-0.314272	0.748104	-0.171044	0.192	-0.3645	0.45	0	266	6	3
2026-02-12	15:44:30.030	-63.91	37.73	7.105	-0.330132	0.741028	-0.172996	0.1875	-0.369	0.4335	0	266	6	3
2026-02-12	15:44:30.050	-50.33	37.94	5.005	-0.338184	0.76494	-0.132248	0.1875	-0.3735	0.414	0	266	6	3
2026-02-12	15:44:30.070	-41.93	38.745	2.975	-0.359168	0.806908	-0.0915	0.1905	-0.375	0.4125	0	266	6	3
2026-02-12	15:44:30.090	-43.995	39.13	-0.315	-0.38308	0.829356	-0.05368	0.189	-0.3765	0.414	0	266	6	3
2026-02-12	15:44:30.110	-43.085	40.46	-2.275	-0.410408	0.823012	-0.04148	0.189	-0.3765	0.414	0	266	6	3
2026-02-12	15:44:30.130	-39.025	41.51	-4.445	-0.420656	0.858148	-0.000244	0.1785	-0.378	0.4005	0	266	6	3
2026-02-12	15:44:30.150	-42.245	42.98	-6.545	-0.390156	0.914024	0.024644	0.174	-0.3795	0.3975	0	266	6	3
2026-02-12	15:44:30.170	-54.775	46.83	-10.395	-0.384788	0.88938	0.060268	0.1755	-0.3855	0.384	0	266	6	3
2026-02-12	15:44:30.190	-62.125	48.58	-9.415	-0.4087	0.772504	0.056364	0.1785	-0.3855	0.3825	0	266	6	3
2026-02-12	15:44:30.210	-50.19	50.47	-8.68	-0.440664	0.759328	0.044164	0.1785	-0.3735	0.372	0	270	67	2
2026-02-12	15:44:30.230	-38.08	48.895	-8.435	-0.460428	0.787632	0.048556	0.177	-0.3885	0.3645	0	270	67	2
2026-02-12	15:44:30.250	-31.5	45.395	-8.225	-0.4758	0.811056	0.072224	0.177	-0.3975	0.3645	0	270	67	2
2026-02-12	15:44:30.270	-28.525	41.23	-8.54	-0.521672	0.813984	0.076372	0.1755	-0.3885	0.36	0	270	67	2
2026-02-12	15:44:30.290	-25.13	37.135	-8.645	-0.523136	0.806664	0.123708	0.18	-0.393	0.3555	0	270	67	2
2026-02-12	15:44:30.310	-18.235	33.565	-9.835	-0.53436	0.810812	0.134932	0.1755	-0.3885	0.3555	0	270	67	2
2026-02-12	15:44:30.330	-11.235	31.675	-12.67	-0.544852	0.856684	0.138348	0.177	-0.3945	0.36	0	270	67	2
2026-02-12	15:44:30.350	-15.855	31.71	-17.29	-0.553148	0.869372	0.176168	0.186	-0.384	0.3555	0	270	67	2
2026-02-12	15:44:30.370	-28.105	32.48	-21.63	-0.531432	0.85522	0.210572	0.186	-0.384	0.3555	0	270	67	2
2026-02-12	15:44:30.390	-33.46	32.76	-22.855	-0.594384	0.826184	0.190808	0.1875	-0.387	0.348	0	270	67	2
2026-02-12	15:44:30.410	-33.495	35.945	-25.095	-0.590968	0.799588	0.206668	0.1935	-0.387	0.3405	0	271	74	2
2026-02-12	15:44:30.430	-27.72	33.425	-27.195	-0.561932	0.840092	0.182756	0.1965	-0.3885	0.3375	0	271	74	2
2026-02-12	15:44:30.450	-24.57	29.75	-31.115	-0.564616	0.848144	0.15494	0.195	-0.3915	0.336	0	271	74	2
2026-02-12	15:44:30.470	-26.075	20.895	-33.46	-0.582184	0.829356	0.144448	0.1875	-0.3915	0.336	0	271	74	2
2026-02-12	15:44:30.490	-24.115	10.465	-34.58	-0.60268	0.782752	0.155428	0.2085	-0.384	0.3315	0	271	74	2
2026-02-12	15:44:30.510	-20.79	-3.185	-34.58	-0.583892	0.730292	0.188368	0.2085	-0.384	0.3225	0	271	74	2
2026-02-12	15:44:30.530	-17.92	-16.1	-32.795	-0.568276	0.702964	0.233752	0.2175	-0.3885	0.3225	0	271	74	2
2026-02-12	15:44:30.550	-9.8	-25.34	-32.305	-0.585844	0.720044	0.255468	0.216	-0.39	0.324	0	271	74	2
2026-02-12	15:44:30.570	0.805	-28.525	-32.55	-0.685152	0.742492	0.194956	0.219	-0.3825	0.318	0	271	74	2
2026-02-12	15:44:30.590	9.205	-32.48	-29.05	-0.748104	0.68442	0.08686399	0.231	-0.384	0.315	0	271	74	2
2026-02-12	15:44:30.610	21.105	-37.45	-22.435	-0.775676	0.578768	0.019276	0.225	-0.387	0.321	0	269	36	2
2026-02-12	15:44:30.630	41.615	-40.88	-13.195	-0.793732	0.589016	-0.03538	0.231	-0.3945	0.3195	0	269	36	2
2026-02-12	15:44:30.650	43.4	-43.995	-9.065	-0.782264	0.611708	-0.05124	0.2265	-0.3915	0.321	0	269	36	2
2026-02-12	15:44:30.670	43.015	-45.745	-3.64	-0.782752	0.545828	-0.037088	0.2325	-0.3885	0.3285	0	269	36	2
2026-02-12	15:44:30.690	56.56	-47.075	1.645	-0.791536	0.542412	-0.02928	0.24	-0.39	0.3345	0	269	36	2
2026-02-12	15:44:30.710	75.285	-50.82	6.125	-0.759572	0.615368	-0.009516	0.2355	-0.381	0.3405	0	269	36	2
2026-02-12	15:44:30.730	88.795	-53.375	7.7	-0.721508	0.68442	0.03416	0.2325	-0.3765	0.3495	0	269	36	2
2026-02-12	15:44:30.750	89.565	-54.495	8.015	-0.675148	0.705892	0.088816	0.24	-0.381	0.3585	0	269	36	2
2026-02-12	15:44:30.770	80.045	-53.62	8.12	-0.670268	0.666852	0.096136	0.2415	-0.378	0.3735	0	269	36	2
2026-02-12	15:44:30.790	71.75	-52.745	9.135	-0.689056	0.610976	0.061488	0.2385	-0.3765	0.3825	0	269	36	2
2026-02-12	15:44:30.810	72.52	-54.005	10.955	-0.688812	0.577548	0.024888	0.237	-0.378	0.3855	0	265	1	2
2026-02-12	15:44:30.830	76.475	-57.365	14.035	-0.668072	0.616588	0.007076	0.234	-0.3795	0.3945	0	265	1	2
2026-02-12	15:44:30.850	77.35	-61.04	17.815	-0.65392	0.605852	-0.0122	0.237	-0.3765	0.4035	0	265	1	2
2026-02-12	15:44:30.870	76.195	-64.12	22.12	-0.624884	0.627812	-0.007076	0.2385	-0.372	0.4125	0	265	1	2
2026-02-12	15:44:30.890	70.7	-64.75	27.65	-0.57218	0.674904	0.018544	0.2355	-0.3735	0.4185	0	265	1	2
2026-02-12	15:44:30.910	70.77	-62.51	32.34	-0.527772	0.681736	0.066856	0.2355	-0.3765	0.4215	0	265	1	2
2026-02-12	15:44:30.930	73.99	-55.93	37.905	-0.508984	0.71126	0.049776	0.24	-0.3705	0.4365	0	265	1	2
2026-02-12	15:44:30.950	82.25	-50.855	46.795	-0.443348	0.573644	-0.11468	0.237	-0.366	0.4485	0	265	1	2
2026-02-12	15:44:30.970	119.035	-52.57	60.76	-0.475556	0.790072	-0.2684	0.234	-0.3585	0.45	0	265	1	2
2026-02-12	15:44:30.990	125.93	-54.285	72.345	-0.4819	1.125816	-0.2318	0.2265	-0.354	0.4695	0	265	1	2
2026-02-12	15:44:31.010	89.915	-56.805	79.66	-0.455548	1.313208	-0.166896	0.222	-0.354	0.4875	0	260	15	2
2026-02-12	15:44:31.030	51.765	-52.08	78.68	-0.434076	1.385188	-0.141764	0.216	-0.3405	0.4905	0	260	15	2
2026-02-12	15:44:31.050	40.845	-38.045	71.925	-0.4697	1.21512	-0.215696	0.213	-0.3435	0.4965	0	260	15	2
2026-02-12	15:44:31.070	73.43	-9.66	65.485	-0.61122	1.372744	-0.299144	0.2055	-0.3435	0.4995	0	260	15	2
2026-02-12	15:44:31.090	81.515	15.575	51.835	-0.577792	1.551596	-0.444812	0.198	-0.345	0.4995	0	260	15	2
2026-02-12	15:44:31.110	54.145	27.93	33.565	-0.46604	1.514752	-0.514352	0.186	-0.3405	0.516	0	260	15	2
2026-02-12	15:44:31.130	9.87	33.215	19.25	-0.341356	1.369572	-0.460184	0.183	-0.336	0.531	0	260	15	2
2026-02-12	15:44:31.150	-34.23	39.13	9.03	-0.187636	1.18462	-0.352824	0.183	-0.3375	0.5325	0	260	15	2
2026-02-12	15:44:31.170	-65.45	52.885	-2.905	-0.043676	0.90158	-0.26352	0.177	-0.336	0.531	0	260	15	2
2026-02-12	15:44:31.190	-65.065	62.685	-6.755	-0.05246	0.77226	-0.285236	0.18	-0.3375	0.5115	0	260	15	2
2026-02-12	15:44:31.210	-60.27	70.245	-8.785	-0.084424	0.714432	-0.363804	0.165	-0.3495	0.5115	0	260	15	3
2026-02-12	15:44:31.230	-58.45	74.2	-8.61	-0.128344	0.69784	-0.400404	0.162	-0.3555	0.504	0	260	15	3
2026-02-12	15:44:31.250	-65.24	72.52	-6.93	-0.167872	0.762988	-0.408944	0.1575	-0.36	0.492	0	260	15	3
2026-02-12	15:44:31.270	-84.63	68.95	-6.475	-0.1769	0.732488	-0.352824	0.1455	-0.366	0.4845	0	260	15	3
2026-02-12	15:44:31.290	-89.565	68.18	-6.825	-0.2135	0.706868	-0.292556	0.1455	-0.3765	0.474	0	260	15	3
2026-02-12	15:44:31.310	-76.755	66.815	-6.86	-0.23912	0.70516	-0.240828	0.15	-0.3765	0.468	0	260	15	3
2026-02-12	15:44:31.330	-57.54	65.065	-6.65	-0.261812	0.762012	-0.190076	0.141	-0.3795	0.456	0	260	15	3
2026-02-12	15:44:31.350	-43.995	62.09	-8.12	-0.274744	0.854488	-0.1403	0.1365	-0.378	0.45	0	260	15	3
2026-02-12	15:44:31.370	-40.565	60.62	-10.885	-0.316224	0.896212	-0.111264	0.141	-0.384	0.4365	0	260	15	3
2026-02-12	15:44:31.390	-38.325	58.065	-14.21	-0.364292	0.880108	-0.094428	0.138	-0.384	0.4335	0	260	15	3
2026-02-12	15:44:31.410	-32.48	53.305	-17.15	-0.378932	0.886452	-0.074908	0.132	-0.3855	0.4335	0	265	73	3
2026-02-12	15:44:31.430	-27.125	48.335	-21.735	-0.393572	0.922808	-0.052216	0.1395	-0.384	0.4275	0	265	73	3
2026-02-12	15:44:31.450	-24.325	43.855	-26.53	-0.418948	0.938424	-0.037332	0.138	-0.3885	0.4275	0	265	73	3
2026-02-12	15:44:31.470	-26.88	37.45	-28.42	-0.408456	0.939644	-0.023912	0.1335	-0.387	0.423	0	265	73	3
2026-02-12	15:44:31.490	-28.875	29.715	-27.44	-0.388204	0.883768	-0.021716	0.138	-0.393	0.417	0	265	73	3
2026-02-12	15:44:31.510	-22.995	23.1	-26.88	-0.396988	0.779824	-0.0366	0.15	-0.399	0.4125	0	265	73	3
2026-02-12	15:44:31.530	-0.07	16.59	-25.375	-0.398208	0.700768	-0.03294	0.15	-0.3945	0.408	0	265	73	3
2026-02-12	15:44:31.550	30.065	10.535	-20.895	-0.412604	0.690764	0.00732	0.153	-0.3945	0.4125	0	265	73	3
2026-02-12	15:44:31.570	59.99	6.055	-15.89	-0.413092	0.826184	0.008052	0.156	-0.3885	0.42	0	265	73	3
2026-02-12	15:44:31.590	68.25	1.61	-13.93	-0.399916	0.976732	-0.00122	0.1545	-0.387	0.4305	0	265	73	3
2026-02-12	15:44:31.610	54.075	-1.89	-15.225	-0.411384	1.044564	-0.0061	0.1575	-0.387	0.438	0	270	107	3
2026-02-12	15:44:31.630	30.31	-4.83	-18.235	-0.437492	1.0065	0	0.1575	-0.3825	0.4365	0	270	107	3
2026-02-12	15:44:31.650	10.99	-5.67	-21.21	-0.449204	0.976244	0.017568	0.165	-0.3825	0.4425	0	270	107	3
2026-02-12	15:44:31.670	-1.225	-4.725	-24.5	-0.455304	0.936472	0.020252	0.177	-0.381	0.441	0	270	107	3
2026-02-12	15:44:31.690	-9.275	-3.675	-27.125	-0.460428	0.907924	0.010492	0.1725	-0.3795	0.4455	0	270	107	3
2026-02-12	15:44:31.710	-20.825	-3.15	-29.225	-0.459696	0.87474	0.026596	0.1725	-0.3795	0.4455	0	270	107	3
2026-02-12	15:44:31.730	-24.815	-2.905	-30.065	-0.455548	0.84058	0.019764	0.18	-0.378	0.4365	0	270	107	3
2026-02-12	15:44:31.750	-24.745	-3.955	-30.87	-0.45384	0.818376	0.022204	0.1845	-0.378	0.432	0	270	107	3
2026-02-12	15:44:31.770	-22.645	-6.055	-31.71	-0.44652	0.787876	0.056364	0.1875	-0.381	0.438	0	270	107	3
2026-02-12	15:44:31.790	-19.6	-8.085	-32.27	-0.415288	0.783728	0.089304	0.1995	-0.381	0.4365	0	270	107	3
2026-02-12	15:44:31.810	-14	-7.805	-32.445	-0.420168	0.74786	0.10858	0.204	-0.378	0.4275	0	271	103	3
2026-02-12	15:44:31.830	-1.54	-5.775	-31.5	-0.481168	0.7381	0.08295999	0.2055	-0.3795	0.4185	0	271	103	3
2026-02-12	15:44:31.850	18.06	-3.185	-28.98	-0.600484	0.800564	0.005612	0.21	-0.3825	0.4185	0	271	103	3
2026-02-12	15:44:31.870	40.39	-1.015	-23.31	-0.731024	0.942572	-0.077592	0.2145	-0.384	0.4215	0	271	103	3
2026-02-12	15:44:31.890	48.615	-1.96	-17.115	-0.774212	1.141676	-0.127856	0.219	-0.381	0.423	0	271	103	3
2026-02-12	15:44:31.910	28.35	-6.16	-14.175	-0.718092	1.097268	-0.13054	0.2235	-0.3735	0.429	0	271	103	3
2026-02-12	15:44:31.930	-3.115	-10.325	-12.74	-0.670756	0.849608	-0.126148	0.225	-0.369	0.4365	0	271	103	3
2026-02-12	15:44:31.950	-23.1	-16.17	-11.305	-0.643184	0.632692	-0.156892	0.228	-0.3705	0.435	0	271	103	3
2026-02-12	15:44:31.970	-19.18	-25.55	-4.83	-0.663924	0.504348	-0.203008	0.231	-0.372	0.432	0	271	103	3
2026-02-12	15:44:31.990	1.645	-35.91	4.62	-0.707844	0.466772	-0.198128	0.231	-0.372	0.432	0	271	103	3
2026-02-12	15:44:32.010	28.805	-41.02	13.335	-0.680272	0.513864	-0.142496	0.225	-0.3765	0.4305	0	269	84	3
2026-02-12	15:44:32.030	57.505	-39.76	19.6	-0.651724	0.641232	-0.089304	0.2235	-0.3735	0.429	0	269	84	3
2026-02-12	15:44:32.050	74.935	-37.66	21.665	-0.627812	0.756888	-0.06466	0.228	-0.3795	0.435	0	269	84	3
2026-02-12	15:44:32.070	77.035	-35.665	22.4	-0.59414	0.835212	-0.066368	0.228	-0.3645	0.4485	0	269	84	3
2026-02-12	15:44:32.090	64.75	-33.915	21.665	-0.579012	0.854732	-0.082716	0.225	-0.3675	0.45	0	269	84	3
2026-02-12	15:44:32.110	48.615	-33.32	19.845	-0.561444	0.784704	-0.0976	0.2325	-0.3585	0.4545	0	269	84	3
2026-02-12	15:44:32.130	37.31	-33.74	19.39	-0.539728	0.717848	-0.114192	0.2175	-0.363	0.462	0	269	84	3
2026-02-12	15:44:32.150	32.97	-34.195	21.315	-0.530456	0.668804	-0.11102	0.2235	-0.366	0.4605	0	269	84	3
2026-02-12	15:44:32.170	33.915	-34.125	25.165	-0.523868	0.64782	-0.121756	0.219	-0.369	0.4695	0	269	84	3
2026-02-12	15:44:32.190	41.965	-33.355	29.05	-0.533872	0.660996	-0.148596	0.21	-0.36	0.477	0	269	84	3
2026-02-12	15:44:32.210	51.66	-32.27	32.48	-0.545096	0.676856	-0.123952	0.2055	-0.36	0.4755	0	265	77	3
2026-02-12	15:44:32.230	61.775	-28.595	37.87	-0.536312	0.72224	-0.07198	0.207	-0.3585	0.4785	0	265	77	3
2026-02-12	15:44:32.250	65.24	-22.05	43.05	-0.509472	0.831308	-0.05246	0.213	-0.3585	0.4845	0	265	77	3
2026-02-12	15:44:32.270	59.535	-15.435	44.625	-0.497028	0.882304	-0.084912	0.1935	-0.3555	0.5025	0	265	77	3
2026-02-12	15:44:32.290	46.41	-10.185	45.15	-0.514596	0.925736	-0.115656	0.198	-0.351	0.51	0	265	77	3
2026-02-12	15:44:32.310	30.555	-8.785	46.41	-0.55266	0.964532	-0.161772	0.183	-0.3435	0.5145	0	265	77	3
2026-02-12	15:44:32.330	12.04	-9.73	49.595	-0.543388	1.007476	-0.223748	0.1785	-0.342	0.519	0	265	77	3
2026-02-12	15:44:32.350	-5.145	-12.6	53.27	-0.50142	1.061644	-0.276696	0.1725	-0.348	0.513	0	265	77	3
2026-02-12	15:44:32.370	-23.275	-15.26	54.25	-0.453596	1.101904	-0.301828	0.171	-0.3435	0.516	0	265	77	3
2026-02-12	15:44:32.390	-42.035	-15.26	49.77	-0.413824	1.142164	-0.283772	0.1635	-0.354	0.5175	0	265	77	3
2026-02-12	15:44:32.410	-46.9	-9.555	42	-0.412116	1.062132	-0.32574	0.159	-0.3495	0.5145	0	258	87	2
2026-02-12	15:44:32.430	-35.315	-2.59	38.43	-0.416752	1.16388	-0.402356	0.153	-0.3585	0.501	0	258	87	2
2026-02-12	15:44:32.450	-32.69	2.8	30.625	-0.336232	1.217072	-0.445544	0.129	-0.357	0.51	0	258	87	2
2026-02-12	15:44:32.470	-32.83	8.19	21.7	-0.291092	1.250988	-0.41968	0.1455	-0.36	0.4965	0	258	87	2
2026-02-12	15:44:32.490	-32.655	12.25	16.555	-0.232044	1.373232	-0.342576	0.1335	-0.36	0.492	0	258	87	2
2026-02-12	15:44:32.510	-55.09	18.9	10.5	-0.133468	1.400804	-0.270108	0.1275	-0.372	0.489	0	258	87	2
2026-02-12	15:44:32.530	-69.685	30.03	2.59	-0.080276	1.22976	-0.227652	0.123	-0.3735	0.48	0	258	87	2
2026-02-12	15:44:32.550	-70.665	41.72	-7.49	-0.088328	1.043344	-0.234484	0.1185	-0.3765	0.468	0	258	87	2
2026-02-12	15:44:32.570	-73.885	50.085	-13.72	-0.088816	0.897432	-0.238876	0.1185	-0.381	0.4575	0	258	87	2
2026-02-12	15:44:32.590	-79.66	56.105	-16.24	-0.121024	0.836676	-0.24278	0.117	-0.387	0.4485	0	258	87	2
2026-02-12	15:44:32.610	-94.325	58.345	-15.785	-0.133224	0.81984	-0.250588	0.1155	-0.3885	0.441	0	253	119	3
2026-02-12	15:44:32.630	-107.065	58.94	-14.77	-0.143472	0.781288	-0.229604	0.114	-0.3915	0.4245	0	253	119	3
2026-02-12	15:44:32.650	-104.72	58.765	-16.135	-0.154696	0.737856	-0.176168	0.1095	-0.402	0.402	0	253	119	3
2026-02-12	15:44:32.670	-89.495	58.765	-17.36	-0.171776	0.686372	-0.092232	0.1125	-0.405	0.3885	0	253	119	3
2026-02-12	15:44:32.690	-64.19	61.565	-17.64	-0.20008	0.644404	-0.027328	0.114	-0.4065	0.384	0	253	119	3
2026-02-12	15:44:32.710	-35.945	66.15	-15.855	-0.26474	0.652456	-0.039528	0.111	-0.408	0.378	0	253	119	3
2026-02-12	15:44:32.730	-13.09	67.76	-14.315	-0.323544	0.731756	-0.045628	0.1125	-0.405	0.3675	0	253	119	3
2026-02-12	15:44:32.750	-7.945	64.26	-14.14	-0.316712	0.820328	0.011224	0.111	-0.4035	0.363	0	253	119	3
2026-02-12	15:44:32.770	-12.25	62.65	-15.96	-0.355996	0.854732	0.06734399	0.1065	-0.4065	0.363	0	253	119	3
2026-02-12	15:44:32.790	-18.515	58.905	-17.675	-0.402356	0.931836	0.036112	0.1065	-0.411	0.3645	0	253	119	3
2026-02-12	15:44:32.810	-26.46	52.395	-19.215	-0.38918	0.941596	0.041724	0.1095	-0.411	0.3645	0	253	142	3
2026-02-12	15:44:32.830	-36.855	46.55	-20.86	-0.378688	0.8845	0.091744	0.1125	-0.411	0.3585	0	253	142	3
2026-02-12	15:44:32.850	-37.38	44.87	-23.94	-0.396988	0.786412	0.163724	0.114	-0.4125	0.351	0	253	142	3
2026-02-12	15:44:32.870	-30.275	45.57	-24.255	-0.4026	0.775188	0.19276	0.117	-0.411	0.3465	0	253	142	3
2026-02-12	15:44:32.890	-25.97	46.795	-24.08	-0.45018	0.788608	0.165676	0.1185	-0.4095	0.339	0	253	142	3
2026-02-12	15:44:32.910	-22.575	47.95	-25.06	-0.499956	0.79666	0.15494	0.126	-0.4155	0.3375	0	253	142	3
2026-02-12	15:44:32.930	-21.875	43.4	-25.585	-0.492392	0.823012	0.146156	0.1275	-0.417	0.3345	0	253	142	3
2026-02-12	15:44:32.950	-22.19	37.52	-26.6	-0.494832	0.826184	0.152256	0.1215	-0.414	0.3345	0	253	142	3
2026-02-12	15:44:32.970	-19.18	31.99	-28.21	-0.499468	0.822524	0.165188	0.126	-0.411	0.333	0	253	142	3
2026-02-12	15:44:32.990	-12.39	27.58	-30.625	-0.515816	0.846192	0.169336	0.126	-0.414	0.3255	0	253	142	3
2026-02-12	15:44:33.010	-5.25	23.695	-31.57	-0.544608	0.881328	0.178852	0.132	-0.417	0.324	0	255	121	2
2026-02-12	15:44:33.030	-3.745	19.565	-31.885	-0.53314	0.915	0.20374	0.141	-0.4155	0.3285	0	255	121	2
2026-02-12	15:44:33.050	-7.07	18.83	-33.005	-0.519232	0.850828	0.213988	0.1425	-0.414	0.3345	0	255	121	2
2026-02-12	15:44:33.070	-6.79	19.6	-33.635	-0.523624	0.8174	0.205204	0.1425	-0.414	0.3345	0	255	121	2
2026-02-12	15:44:33.090	-6.3	18.655	-34.125	-0.532652	0.86254	0.19398	0.153	-0.4155	0.3225	0	255	121	2
2026-02-12	15:44:33.110	-9.73	16.065	-34.93	-0.539728	0.85034	0.223016	0.1545	-0.4215	0.3255	0	255	121	2
2026-02-12	15:44:33.130	-13.93	13.79	-34.755	-0.557784	0.792512	0.233996	0.1605	-0.4155	0.3255	0	255	121	2
2026-02-12	15:44:33.150	-11.235	12.04	-32.515	-0.605364	0.76738	0.193248	0.168	-0.417	0.324	0	255	121	2
2026-02-12	15:44:33.170	-2.8	8.225	-28.735	-0.662704	0.812276	0.101748	0.1695	-0.423	0.315	0	255	121	2
2026-02-12	15:44:33.190	2.485	1.05	-24.115	-0.721752	0.891576	0.032208	0.1665	-0.417	0.324	0	255	121	2
2026-02-12	15:44:33.210	-2.1	-9.275	-19.355	-0.762988	0.868152	-0.019032	0.168	-0.432	0.321	0	256	67	3
2026-02-12	15:44:33.230	-5.11	-19.285	-15.26	-0.80276	0.807396	-0.060512	0.174	-0.414	0.321	0	256	67	3
2026-02-12	15:44:33.250	-7.105	-30.695	-15.155	-0.815936	0.736636	-0.09467199	0.177	-0.4305	0.321	0	256	67	3
2026-02-12	15:44:33.270	-2.765	-40.635	-18.2	-0.809348	0.64416	-0.08662	0.1755	-0.42	0.321	0	256	67	3
2026-02-12	15:44:33.290	5.985	-48.72	-20.685	-0.815204	0.635864	-0.066612	0.1725	-0.4275	0.327	0	256	67	3
2026-02-12	15:44:33.310	11.025	-59.57	-20.37	-0.79788	0.579988	-0.011468	0.1905	-0.435	0.321	0	256	67	3
2026-02-12	15:44:33.330	22.925	-66.745	-15.085	-0.782752	0.511424	0.018788	0.1905	-0.435	0.321	0	256	67	3
2026-02-12	15:44:33.350	45.57	-70.49	-9.765	-0.752008	0.49288	0.029524	0.1905	-0.435	0.321	0	256	67	3
2026-02-12	15:44:33.370	68.495	-77.14	-5.32	-0.7076	0.5246	0.044408	0.195	-0.4245	0.3345	0	256	67	3
2026-02-12	15:44:33.390	82.915	-83.58	-1.155	-0.673196	0.589748	0.085644	0.1965	-0.429	0.348	0	256	67	3
2026-02-12	15:44:33.410	87.465	-86.59	1.155	-0.695156	0.66978	0.110288	0.2025	-0.426	0.3615	0	258	21	3
2026-02-12	15:44:33.430	79.17	-88.34	-0.21	-0.725412	0.743224	0.110776	0.1995	-0.426	0.366	0	258	21	3
2026-02-12	15:44:33.450	66.15	-84.105	-0.84	-0.75884	0.682468	0.081008	0.213	-0.4185	0.375	0	258	21	3
2026-02-12	15:44:33.470	59.5	-82.81	-2.975	-0.707844	0.686616	0.03782	0.219	-0.417	0.3915	0	258	21	3
2026-02-12	15:44:33.490	52.535	-86.45	-3.08	-0.668804	0.692716	0.04514	0.219	-0.4155	0.396	0	258	21	3
2026-02-12	15:44:33.510	48.055	-90.23	-2.59	-0.639768	0.666364	0.054656	0.2295	-0.414	0.396	0	258	21	3
2026-02-12	15:44:33.530	47.005	-93.8	-0.56	-0.610244	0.643916	0.085644	0.2265	-0.408	0.4125	0	258	21	3
2026-02-12	15:44:33.550	51.905	-95.865	2.17	-0.571204	0.664656	0.116632	0.2325	-0.4095	0.408	0	258	21	3
2026-02-12	15:44:33.570	58.45	-91.945	4.9	-0.542656	0.689056	0.14274	0.2385	-0.4065	0.4215	0	258	21	3
2026-02-12	15:44:33.590	54.18	-81.725	10.325	-0.560712	0.769088	0.121756	0.249	-0.4125	0.429	0	258	21	3
2026-02-12	15:44:33.610	38.22	-74.445	15.96	-0.587796	0.87718	0.115168	0.252	-0.405	0.4275	0	258	7	3
2026-02-12	15:44:33.630	22.96	-67.9	19.145	-0.530212	0.921832	0.129808	0.261	-0.399	0.432	0	258	7	3
2026-02-12	15:44:33.650	12.775	-59.045	21.63	-0.488	0.916952	0.169824	0.2595	-0.4005	0.4335	0	258	7	3
2026-02-12	15:44:33.670	4.025	-47.215	25.095	-0.488488	0.999668	0.16348	0.2535	-0.4005	0.4245	0	258	7	3
2026-02-12	15:44:33.690	-2.66	-32.515	27.265	-0.487268	1.112884	0.1159	0.2565	-0.4005	0.4245	0	258	7	3
2026-02-12	15:44:33.710	-2.205	-18.305	28.035	-0.48678	1.125084	0.085644	0.2565	-0.402	0.423	0	258	7	3
2026-02-12	15:44:33.730	10.465	-3.99	30.485	-0.5368	1.176324	0.014884	0.2595	-0.399	0.4185	0	258	7	3
2026-02-12	15:44:33.750	22.33	8.365	31.185	-0.5307	1.290272	-0.041236	0.2625	-0.399	0.4215	0	258	7	3
2026-02-12	15:44:33.770	19.845	18.865	28.28	-0.502396	1.426668	-0.020008	0.255	-0.405	0.4275	0	258	7	3
2026-02-12	15:44:33.790	-3.115	19.74	24.01	-0.336232	1.409344	0.00122	0.252	-0.4065	0.432	0	258	7	3
2026-02-12	15:44:33.810	-25.69	25.865	21.84	-0.25742	1.20902	0.006344	0.246	-0.4065	0.426	0	256	27	3
2026-02-12	15:44:33.830	-36.4	36.925	19.25	-0.208132	0.988932	0.004148	0.2385	-0.402	0.4215	0	256	27	3
2026-02-12	15:44:33.850	-32.795	52.675	19.74	-0.219112	0.938424	-0.030988	0.24	-0.4005	0.4215	0	256	27	3
2026-02-12	15:44:33.870	-35.42	64.12	20.825	-0.248636	0.944524	-0.096624	0.2415	-0.405	0.417	0	256	27	3
2026-02-12	15:44:33.890	-46.97	73.36	18.55	-0.25132	0.916708	-0.107848	0.231	-0.4155	0.417	0	256	27	3
2026-02-12	15:44:33.910	-56.455	75.845	19.565	-0.190808	0.892064	-0.102236	0.222	-0.4185	0.414	0	256	27	3
2026-02-12	15:44:33.930	-55.615	75.11	20.965	-0.19154	0.851316	-0.082716	0.2235	-0.4215	0.405	0	256	27	3
2026-02-12	15:44:33.950	-54.635	78.225	21.175	-0.23668	0.81618	-0.066856	0.207	-0.4155	0.3975	0	256	27	3
2026-02-12	15:44:33.970	-49.42	80.36	17.85	-0.21838	0.775188	-0.045872	0.2055	-0.4185	0.393	0	256	27	3
2026-02-12	15:44:33.990	-40.46	83.335	14.49	-0.251076	0.754204	-0.032208	0.204	-0.4215	0.3855	0	256	27	3
2026-02-12	15:44:34.010	-33.635	84.385	12.285	-0.311832	0.786412	-0.006588	0.1995	-0.4215	0.384	0	256	29	3
2026-02-12	15:44:34.030	-30.415	82.18	10.045	-0.320372	0.778604	0.010736	0.195	-0.4215	0.3855	0	256	29	3
2026-02-12	15:44:34.050	-26.74	81.235	7.525	-0.354288	0.7747	0.053924	0.192	-0.4275	0.3825	0	256	29	3
2026-02-12	15:44:34.070	-24.01	79.905	5.74	-0.392352	0.781776	0.063196	0.186	-0.432	0.3795	0	256	29	3
2026-02-12	15:44:34.090	-10.15	78.295	2.87	-0.497028	0.818864	0.052948	0.1815	-0.432	0.3795	0	256	29	3
2026-02-12	15:44:34.110	-0.455	73.885	-0.105	-0.537776	0.839604	0.0488	0.1815	-0.4335	0.3765	0	256	29	3
2026-02-12	15:44:34.130	-5.11	64.155	-5.32	-0.548756	0.8296	0.073688	0.183	-0.432	0.3765	0	256	29	3
2026-02-12	15:44:34.150	-13.86	58.555	-9.8	-0.54046	0.829112	0.135664	0.183	-0.432	0.3765	0	256	29	3
2026-02-12	15:44:34.170	-18.41	53.55	-13.685	-0.508984	0.76494	0.180072	0.1755	-0.4275	0.375	0	256	29	3
2026-02-12	15:44:34.190	-18.025	51.205	-17.045	-0.540948	0.709796	0.180804	0.18	-0.429	0.3705	0	256	29	3
2026-02-12	15:44:34.210	-13.02	45.08	-21.105	-0.515084	0.72956	0.177876	0.1845	-0.4305	0.375	0	256	26	3
2026-02-12	15:44:34.230	-1.295	40.88	-26.11	-0.559004	0.696376	0.132248	0.1905	-0.429	0.3825	0	256	26	3
2026-02-12	15:44:34.250	6.79	30.38	-27.545	-0.567056	0.743956	0.134688	0.1845	-0.429	0.3705	0	256	26	3
2026-02-12	15:44:34.270	4.2	21.315	-26.985	-0.571448	0.78934	0.178608	0.192	-0.4305	0.3765	0	256	26	3
2026-02-12	15:44:34.290	-1.96	14.14	-28.21	-0.55998	0.857416	0.224236	0.1965	-0.4305	0.3765	0	256	26	3
2026-02-12	15:44:34.310	-3.85	10.99	-32.095	-0.587308	0.856196	0.221064	0.198	-0.4245	0.375	0	256	26	3
2026-02-12	15:44:34.330	-4.13	7.315	-35.175	-0.61366	0.830576	0.225212	0.204	-0.4245	0.3765	0	256	26	3
2026-02-12	15:44:34.350	-6.72	1.33	-36.645	-0.596092	0.847656	0.266692	0.2145	-0.429	0.378	0	256	26	3
2026-02-12	15:44:34.370	-13.09	-1.54	-38.29	-0.591456	0.858148	0.29402	0.222	-0.432	0.3765	0	256	26	3
2026-02-12	15:44:34.390	-7.07	-0.84	-39.165	-0.676368	0.77836	0.181292	0.2295	-0.417	0.372	0	256	26	3
2026-02-12	15:44:34.410	28.245	-1.715	-34.23	-0.808616	0.79422	0.05124	0.2295	-0.417	0.372	0	254	41	3
2026-02-12	15:44:34.430	53.83	-6.51	-27.195	-0.774456	0.996252	0.10004	0.2385	-0.4185	0.3765	0	254	41	3
2026-02-12	15:44:34.450	45.185	-9.065	-24.64	-0.664168	1.111664	0.164456	0.246	-0.414	0.3855	0	254	41	3
2026-02-12	15:44:34.470	19.11	-5.95	-24.255	-0.613416	0.989664	0.114436	0.2505	-0.4125	0.3915	0	254	41	3
2026-02-12	15:44:34.490	-1.54	-3.115	-23.415	-0.59292	0.772504	-0.009272	0.261	-0.4125	0.3915	0	254	41	3
2026-02-12	15:44:34.510	-5.95	-3.885	-20.37	-0.586576	0.6283	-0.097844	0.2655	-0.4125	0.3855	0	254	41	3
2026-02-12	15:44:34.530	1.575	-8.19	-15.61	-0.609756	0.567788	-0.110288	0.267	-0.4155	0.381	0	254	41	3
2026-02-12	15:44:34.550	7.7	-14.84	-10.185	-0.631716	0.569008	-0.120292	0.2715	-0.408	0.3885	0	254	41	3
2026-02-12	15:44:34.570	16.835	-19.25	-5.145	-0.645868	0.60268	-0.123708	0.2625	-0.411	0.3855	0	254	41	3
2026-02-12	15:44:34.590	27.265	-21.77	-0.91	-0.665144	0.638304	-0.11712	0.2625	-0.4035	0.3855	0	254	41	3
2026-02-12	15:44:34.610	39.165	-22.575	2.24	-0.679296	0.68564	-0.123708	0.276	-0.411	0.3885	0	252	55	3
2026-02-12	15:44:34.630	47.74	-24.675	5.04	-0.676612	0.743956	-0.064416	0.2775	-0.408	0.39	0	252	55	3
2026-02-12	15:44:34.650	47.565	-27.3	8.225	-0.667096	0.757376	-0.015128	0.2715	-0.4095	0.3945	0	252	55	3
2026-02-12	15:44:34.670	43.19	-29.47	10.535	-0.642452	0.762256	-0.027572	0.2745	-0.405	0.4035	0	252	55	3
2026-02-12	15:44:34.690	44.205	-29.785	9.73	-0.6405	0.735904	-0.045872	0.273	-0.402	0.408	0	252	55	3
2026-02-12	15:44:34.710	43.61	-31.71	9.625	-0.650992	0.732976	-0.039284	0.2685	-0.402	0.4155	0	252	55	3
2026-02-12	15:44:34.730	39.375	-34.16	10.29	-0.64538	0.701256	-0.037332	0.2715	-0.4035	0.42	0	252	55	3
2026-02-12	15:44:34.750	36.82	-35	11.795	-0.63806	0.65758	-0.032696	0.2715	-0.399	0.426	0	252	55	3
2026-02-12	15:44:34.770	40.32	-34.335	13.685	-0.640256	0.639768	-0.045384	0.2715	-0.396	0.432	0	252	55	3
2026-02-12	15:44:34.790	49	-33.6	15.47	-0.64294	0.659044	-0.04636	0.273	-0.3975	0.432	0	252	55	3
2026-02-12	15:44:34.810	54.915	-33.04	16.73	-0.65148	0.700036	-0.013664	0.267	-0.396	0.4305	0	247	48	3
2026-02-12	15:44:34.830	53.025	-32.13	17.36	-0.659776	0.726144	0.004636	0.267	-0.39	0.438	0	247	48	3
2026-02-12	15:44:34.850	47.25	-31.745	17.5	-0.660996	0.711504	-0.020008	0.2685	-0.3915	0.4515	0	247	48	3
2026-02-12	15:44:34.870	48.51	-30.8	17.85	-0.665144	0.683932	-0.040504	0.27	-0.39	0.4575	0	247	48	3
2026-02-12	15:44:34.890	55.44	-30.66	19.18	-0.655628	0.686128	-0.023424	0.2655	-0.3855	0.4575	0	247	48	3
2026-02-12	15:44:34.910	59.815	-30.625	20.615	-0.643184	0.714188	0.0061	0.264	-0.384	0.4605	0	247	48	3
2026-02-12	15:44:34.930	54.39	-28.84	22.33	-0.631716	0.76372	0.028548	0.2625	-0.3825	0.4665	0	247	48	3
2026-02-12	15:44:34.950	41.16	-25.865	22.33	-0.61	0.774456	0.029524	0.258	-0.384	0.4695	0	247	48	3
2026-02-12	15:44:34.970	34.265	-21.56	22.015	-0.605852	0.732976	0.02562	0.2535	-0.375	0.483	0	247	48	3
2026-02-12	15:44:34.990	30.52	-18.27	22.61	-0.60878	0.760792	0.027816	0.2505	-0.3855	0.4905	0	247	48	3
2026-02-12	15:44:35.010	20.44	-16.695	23.87	-0.600484	0.782264	-0.013176	0.2475	-0.375	0.4845	0	239	31	3
2026-02-12	15:44:35.030	7.805	-16.94	25.83	-0.617076	0.791048	-0.08174	0.249	-0.3765	0.4995	0	239	31	3
2026-02-12	15:44:35.050	-1.995	-20.72	29.19	-0.635864	0.836432	-0.119804	0.252	-0.3765	0.495	0	239	31	3
2026-02-12	15:44:35.070	-5.32	-24.57	33.11	-0.614148	0.91256	-0.132004	0.243	-0.375	0.4935	0	239	31	3
2026-02-12	15:44:35.090	0.7	-23.59	36.715	-0.600728	1.047248	-0.148352	0.24	-0.3705	0.4875	0	239	31	3
2026-02-12	15:44:35.110	9.03	-17.885	38.08	-0.59658	1.247572	-0.196664	0.2355	-0.3765	0.4935	0	239	31	3
2026-02-12	15:44:35.130	4.305	-12.285	35.455	-0.524356	1.401048	-0.220088	0.231	-0.378	0.498	0	239	31	3
2026-02-12	15:44:35.150	-12.285	-4.935	26.775	-0.435784	1.306376	-0.211792	0.2265	-0.378	0.4905	0	239	31	3
2026-02-12	15:44:35.170	-20.195	2.065	18.375	-0.383324	1.194136	-0.254248	0.222	-0.3825	0.486	0	239	31	3
2026-02-12	15:44:35.190	-19.81	4.62	13.86	-0.325252	1.16144	-0.216672	0.222	-0.384	0.4845	0	239	31	3
2026-02-12	15:44:35.210	-23.24	8.925	9.555	-0.226188	1.122644	-0.167384	0.222	-0.3825	0.4815	0	230	5	3
2026-02-12	15:44:35.230	-19.145	14.21	3.465	-0.215452	1.034316	-0.206912	0.2175	-0.3795	0.4875	0	230	5	3
2026-02-12	15:44:35.250	-13.335	18.69	-2.205	-0.225212	0.941352	-0.217648	0.207	-0.3825	0.477	0	230	5	3
2026-02-12	15:44:35.270	-13.335	21.42	-7.245	-0.2257	0.841556	-0.221308	0.207	-0.399	0.474	0	230	5	3
2026-02-12	15:44:35.290	-18.025	23.66	-9.94	-0.239608	0.775432	-0.221308	0.21	-0.3885	0.474	0	230	5	3
2026-02-12	15:44:35.310	-24.08	25.48	-9.275	-0.256932	0.750544	-0.218624	0.2085	-0.393	0.48	0	230	5	3
2026-02-12	15:44:35.330	-25.62	25.41	-6.965	-0.300608	0.763476	-0.20862	0.2055	-0.3825	0.471	0	230	5	3
2026-02-12	15:44:35.350	-24.465	21.56	-5.915	-0.321592	0.762012	-0.174948	0.2085	-0.393	0.468	0	230	5	3
2026-02-12	15:44:35.370	-19.355	18.41	-6.755	-0.352824	0.751764	-0.134688	0.2025	-0.3885	0.465	0	230	5	3
2026-02-12	15:44:35.390	-12.81	16.66	-9.275	-0.362096	0.750544	-0.10736	0.213	-0.3975	0.4695	0	230	5	3
2026-02-12	15:44:35.410	-7.595	16.31	-11.655	-0.386984	0.796904	-0.091256	0.2085	-0.4005	0.468	0	225	32	3
2026-02-12	15:44:35.430	-7.84	15.225	-15.12	-0.416264	0.809104	-0.077592	0.207	-0.3945	0.462	0	225	32	3
2026-02-12	15:44:35.450	-9.065	14.49	-19.81	-0.442128	0.772992	-0.049288	0.201	-0.393	0.462	0	225	32	3
2026-02-12	15:44:35.470	-3.57	14.595	-22.435	-0.494344	0.763964	-0.000244	0.216	-0.3915	0.4635	0	225	32	3
2026-02-12	15:44:35.490	1.295	14.63	-23.135	-0.508984	0.795196	0.04514	0.216	-0.393	0.4605	0	225	32	3
2026-02-12	15:44:35.510	0.385	14.735	-24.71	-0.506056	0.837652	0.060756	0.219	-0.396	0.4605	0	225	32	3
2026-02-12	15:44:35.530	-1.47	16.065	-27.65	-0.526308	0.81862	0.065636	0.2205	-0.3915	0.4635	0	225	32	3
2026-02-12	15:44:35.550	-0.665	16.835	-31.01	-0.545828	0.785192	0.071004	0.2205	-0.387	0.459	0	225	32	3
2026-02-12	15:44:35.570	3.5	14.77	-32.34	-0.543876	0.7503	0.09076799	0.2235	-0.387	0.459	0	225	32	3
2026-02-12	15:44:35.590	5.67	11.62	-31.5	-0.553636	0.754204	0.094184	0.228	-0.3855	0.4635	0	225	32	3
2026-02-12	15:44:35.610	5.74	6.37	-29.295	-0.53924	0.784704	0.07124799	0.234	-0.387	0.468	0	222	55	3
2026-02-12	15:44:35.630	6.755	0.28	-26.075	-0.532408	0.822036	0.03294	0.2355	-0.384	0.4665	0	222	55	3
2026-02-12	15:44:35.650	9.38	-5.53	-23.24	-0.522404	0.857904	0.044896	0.2415	-0.3795	0.4665	0	222	55	3
2026-02-12	15:44:35.670	11.165	-9.66	-20.93	-0.524844	0.88694	0.091256	0.249	-0.3795	0.4695	0	222	55	3
2026-02-12	15:44:35.690	11.06	-11.06	-18.445	-0.531676	0.918904	0.097844	0.249	-0.378	0.4695	0	222	55	3
2026-02-12	15:44:35.710	8.015	-11.62	-17.43	-0.549488	0.960628	0.077348	0.249	-0.3765	0.48	0	222	55	3
2026-02-12	15:44:35.730	-0.98	-13.16	-18.305	-0.543144	0.9455	0.059292	0.2505	-0.378	0.4875	0	222	55	3
2026-02-12	15:44:35.750	-10.71	-15.925	-20.65	-0.553148	0.889624	0.057096	0.2505	-0.378	0.4875	0	222	55	3
2026-02-12	15:44:35.770	-17.535	-21.175	-21.035	-0.537288	0.845948	0.064416	0.2565	-0.378	0.4785	0	222	55	3
2026-02-12	15:44:35.790	-23.205	-25.795	-22.12	-0.53558	0.823256	0.07442	0.267	-0.378	0.4665	0	222	55	3
2026-02-12	15:44:35.810	-23.38	-28.77	-25.69	-0.587064	0.78812	0.03172	0.27	-0.3735	0.465	0	219	48	3
2026-02-12	15:44:35.830	-16.415	-32.34	-30.94	-0.667584	0.788364	-0.016348	0.276	-0.3705	0.462	0	219	48	3
2026-02-12	15:44:35.850	-3.99	-37.205	-34.72	-0.776164	0.774212	-0.10248	0.2865	-0.372	0.4575	0	219	48	3
2026-02-12	15:44:35.870	18.165	-42.315	-32.2	-0.898896	0.845216	-0.156892	0.2895	-0.3735	0.4515	0	219	48	3
2026-02-12	15:44:35.890	26.39	-52.115	-22.68	-0.849852	0.926224	-0.162992	0.2955	-0.372	0.45	0	219	48	3
2026-02-12	15:44:35.910	18.41	-56.665	-14.945	-0.774212	0.86498	-0.13664	0.2985	-0.366	0.4485	0	219	48	3
2026-02-12	15:44:35.930	10.185	-54.355	-12.145	-0.739564	0.736636	-0.099064	0.303	-0.3645	0.447	0	219	48	3
2026-02-12	15:44:35.950	9.1	-49.945	-12.53	-0.709796	0.668804	-0.066856	0.3135	-0.3615	0.45	0	219	48	3
2026-02-12	15:44:35.970	7.945	-45.43	-12.915	-0.691252	0.630252	-0.031476	0.3165	-0.3615	0.4485	0	219	48	3
2026-02-12	15:44:35.990	4.55	-41.195	-12.075	-0.664412	0.585356	-0.003416	0.315	-0.3615	0.4485	0	219	48	3
2026-02-12	15:44:36.010	3.78	-32.41	-8.855	-0.636352	0.478728	0.0427	0.315	-0.36	0.4485	0	215	35	3
2026-02-12	15:44:36.030	13.895	-25.165	-4.865	-0.641232	0.470676	0.065148	0.315	-0.36	0.4485	0	215	35	3
2026-02-12	15:44:36.050	24.535	-20.09	0.84	-0.647332	0.51484	0.031476	0.327	-0.357	0.444	0	215	35	3
2026-02-12	15:44:36.070	30.555	-17.08	5.495	-0.66124	0.570716	-0.027572	0.324	-0.3555	0.447	0	215	35	3
2026-02-12	15:44:36.090	41.86	-14.945	7.49	-0.708332	0.544852	-0.066856	0.336	-0.357	0.441	0	215	35	3
2026-02-12	15:44:36.110	58.24	-17.605	9.1	-0.742248	0.594628	-0.07905599	0.3285	-0.3525	0.447	0	215	35	3
2026-02-12	15:44:36.130	68.565	-23.17	11.655	-0.740784	0.682712	-0.078568	0.3285	-0.357	0.4575	0	215	35	3
2026-02-12	15:44:36.150	66.185	-28.35	13.685	-0.720776	0.748592	-0.045628	0.3285	-0.348	0.4725	0	215	35	3
2026-02-12	15:44:36.170	57.785	-31.78	15.68	-0.685396	0.77714	-0.005856	0.321	-0.339	0.4695	0	215	35	3
2026-02-12	15:44:36.190	51.17	-32.69	16.8	-0.658556	0.816668	0.005124	0.3345	-0.3375	0.4785	0	215	35	3
2026-02-12	15:44:36.210	46.165	-31.78	16.31	-0.621468	0.797148	-0.008296	0.3255	-0.345	0.489	0	213	29	3
2026-02-12	15:44:36.230	39.2	-29.015	18.165	-0.591456	0.824476	0.034648	0.3375	-0.336	0.48	0	213	29	3
2026-02-12	15:44:36.250	27.02	-25.34	17.885	-0.596336	0.804956	0.083692	0.3375	-0.3315	0.477	0	213	29	3
2026-02-12	15:44:36.270	21.7	-15.61	21.91	-0.55022	0.712968	0.067588	0.3285	-0.33	0.495	0	213	29	3
2026-02-12	15:44:36.290	24.045	-7.98	28.91	-0.5612	0.668804	-0.011468	0.3285	-0.33	0.495	0	213	29	3
2026-02-12	15:44:36.310	27.755	-6.16	32.48	-0.5673	0.691984	-0.017812	0.324	-0.327	0.4935	0	213	29	3
2026-02-12	15:44:36.330	26.705	-1.575	37.345	-0.582916	0.780312	0.013664	0.315	-0.327	0.498	0	213	29	3
2026-02-12	15:44:36.350	22.61	-0.63	38.605	-0.57828	0.803004	0.000976	0.312	-0.333	0.504	0	213	29	3
2026-02-12	15:44:36.370	16.485	3.99	38.605	-0.555344	0.80276	0.109068	0.312	-0.3345	0.5055	0	213	29	3
2026-02-12	15:44:36.390	12.25	9.03	40.95	-0.539972	0.820084	0.091256	0.3045	-0.3375	0.504	0	213	29	3
2026-02-12	15:44:36.410	7	17.15	40.285	-0.58072	0.869128	0.058072	0.3045	-0.336	0.513	0	209	22	2
2026-02-12	15:44:36.430	-4.375	22.015	41.37	-0.587308	0.996984	0.02562	0.3	-0.333	0.51	0	209	22	2
2026-02-12	15:44:36.450	-24.675	26.635	38.57	-0.579256	1.02358	-0.015128	0.294	-0.342	0.5055	0	209	22	2
2026-02-12	15:44:36.470	-36.645	32.305	35.63	-0.621468	1.023824	-0.068076	0.285	-0.3375	0.5145	0	209	22	2
2026-02-12	15:44:36.490	-42.105	35.14	33.565	-0.632204	1.083848	-0.113216	0.2745	-0.3465	0.5055	0	209	22	2
2026-02-12	15:44:36.510	-43.82	36.575	30.485	-0.635864	1.107272	-0.147864	0.276	-0.345	0.504	0	209	22	2
2026-02-12	15:44:36.530	-43.785	36.995	25.27	-0.600972	1.18218	-0.163724	0.2655	-0.351	0.501	0	209	22	2
2026-02-12	15:44:36.550	-45.185	36.33	18.095	-0.467504	1.140944	-0.213012	0.2565	-0.357	0.492	0	209	22	2
2026-02-12	15:44:36.570	-39.585	36.47	17.955	-0.382592	1.159244	-0.15982	0.252	-0.354	0.4935	0	209	22	2
2026-02-12	15:44:36.590	-39.69	38.71	19.25	-0.2989	1.136796	-0.108824	0.243	-0.3585	0.489	0	209	22	2
2026-02-12	15:44:36.610	-40.775	44.765	18.235	-0.231556	1.016748	-0.113216	0.234	-0.3675	0.477	0	205	22	3
2026-02-12	15:44:36.630	-36.54	51.8	15.89	-0.198128	0.905484	-0.168848	0.2295	-0.3705	0.474	0	205	22	3
2026-02-12	15:44:36.650	-31.955	56.875	13.23	-0.209596	0.86254	-0.194712	0.2265	-0.372	0.4755	0	205	22	3
2026-02-12	15:44:36.670	-36.785	57.785	11.095	-0.239364	0.858148	-0.184708	0.2235	-0.375	0.4695	0	205	22	3
2026-02-12	15:44:36.690	-49.07	56.945	8.68	-0.247172	0.831552	-0.168604	0.219	-0.3765	0.465	0	205	22	3
2026-02-12	15:44:36.710	-58.17	56.77	6.195	-0.260836	0.767868	-0.149084	0.2115	-0.3765	0.465	0	205	22	3
2026-02-12	15:44:36.730	-57.89	57.155	5.67	-0.279624	0.753472	-0.139812	0.2055	-0.378	0.462	0	205	22	3
2026-02-12	15:44:36.750	-49.14	56.28	5.845	-0.312076	0.797148	-0.121512	0.2055	-0.384	0.4545	0	205	22	3
2026-02-12	15:44:36.770	-41.685	53.76	5.11	-0.318664	0.809104	-0.084912	0.201	-0.39	0.45	0	205	22	3
2026-02-12	15:44:36.790	-35.385	51.38	3.15	-0.326472	0.811788	-0.044652	0.195	-0.396	0.4425	0	205	22	3
2026-02-12	15:44:36.810	-27.51	48.895	0.175	-0.356972	0.80154	-0.014396	0.1905	-0.396	0.435	0	205	36	3
2026-02-12	15:44:36.830	-18.9	45.85	-2.765	-0.409432	0.83082	-0.006588	0.1875	-0.396	0.4335	0	205	36	3
2026-02-12	15:44:36.850	-15.855	41.58	-5.6	-0.4209	0.866688	0.009028	0.1845	-0.3915	0.438	0	205	36	3
2026-02-12	15:44:36.870	-15.435	37.31	-9.205	-0.420412	0.866688	0.048556	0.1905	-0.396	0.432	0	205	36	3
2026-02-12	15:44:36.890	-12.775	34.02	-12.04	-0.446032	0.871568	0.071736	0.1875	-0.39	0.435	0	205	36	3
2026-02-12	15:44:36.910	-9.59	30.24	-14.98	-0.47946	0.890356	0.075396	0.1815	-0.3945	0.4335	0	205	36	3
2026-02-12	15:44:36.930	-9.8	24.185	-16.345	-0.466528	0.892064	0.08906	0.1935	-0.3885	0.441	0	205	36	3
2026-02-12	15:44:36.950	-10.64	18.515	-18.445	-0.462624	0.870836	0.108336	0.189	-0.393	0.435	0	205	36	3
2026-02-12	15:44:36.970	-9.415	14.28	-20.86	-0.45384	0.852536	0.127856	0.1965	-0.4005	0.438	0	205	36	3
2026-02-12	15:44:36.990	-7.665	10.535	-22.4	-0.464576	0.822524	0.136396	0.195	-0.3945	0.435	0	205	36	3
2026-02-12	15:44:37.010	-5.285	7.105	-23.73	-0.46848	0.800564	0.148108	0.1965	-0.393	0.429	0	205	42	3
2026-02-12	15:44:37.030	-5.11	3.185	-24.745	-0.463844	0.832528	0.142252	0.1995	-0.3945	0.4275	0	205	42	3
2026-02-12	15:44:37.050	-8.12	-0.315	-26.005	-0.466772	0.850096	0.13908	0.201	-0.396	0.4305	0	205	42	3
2026-02-12	15:44:37.070	-11.025	-3.71	-28.07	-0.47336	0.807884	0.133956	0.207	-0.396	0.435	0	205	42	3
2026-02-12	15:44:37.090	-5.355	-7.315	-29.75	-0.51118	0.763232	0.141276	0.2115	-0.3915	0.438	0	205	42	3
2026-02-12	15:44:37.110	1.715	-9.66	-30.345	-0.515084	0.799832	0.163724	0.2115	-0.3915	0.438	0	205	42	3
2026-02-12	15:44:37.130	6.65	-10.36	-31.045	-0.53924	0.886696	0.190564	0.225	-0.3915	0.429	0	205	42	3
2026-02-12	15:44:37.150	1.085	-10.78	-32.375	-0.529724	0.94672	0.226188	0.228	-0.393	0.423	0	205	42	3
2026-02-12	15:44:37.170	-9.275	-8.085	-34.72	-0.531676	0.925248	0.225212	0.234	-0.39	0.432	0	205	42	3
2026-02-12	15:44:37.190	-13.055	-3.57	-37.45	-0.562176	0.860588	0.189588	0.2445	-0.387	0.438	0	205	42	3
2026-02-12	15:44:37.210	-6.3	-1.12	-39.515	-0.6222	0.855464	0.131272	0.2385	-0.3795	0.426	0	204	19	3
2026-02-12	15:44:37.230	-2.1	-3.71	-39.235	-0.650016	0.863028	0.101748	0.2475	-0.387	0.4215	0	204	19	3
2026-02-12	15:44:37.250	1.26	-5.95	-35.7	-0.665632	0.864004	0.083204	0.2565	-0.387	0.4245	0	204	19	3
2026-02-12	15:44:37.270	7.28	-6.93	-31.08	-0.672708	0.857172	0.05978	0.264	-0.378	0.429	0	204	19	3
2026-02-12	15:44:37.290	14.14	-7.49	-26.04	-0.681492	0.862052	0.054412	0.264	-0.378	0.4215	0	204	19	3
2026-02-12	15:44:37.310	16.205	-6.65	-21.84	-0.675392	0.83448	0.067832	0.2775	-0.3735	0.429	0	204	19	3
2026-02-12	15:44:37.330	10.5	-5.04	-20.055	-0.624884	0.788608	0.051728	0.2715	-0.3735	0.429	0	204	19	3
2026-02-12	15:44:37.350	-3.92	-3.92	-21.35	-0.60024	0.643916	-0.007076	0.2715	-0.3735	0.4335	0	204	19	3
2026-02-12	15:44:37.370	-8.785	-7.525	-21.42	-0.62342	0.492148	-0.051972	0.2715	-0.3735	0.4335	0	204	19	3
2026-02-12	15:44:37.390	1.925	-14.875	-16.87	-0.66978	0.447008	-0.0854	0.276	-0.3675	0.4305	0	204	19	3
2026-02-12	15:44:37.410	19.74	-22.925	-8.855	-0.72102	0.452132	-0.08686399	0.2865	-0.363	0.426	0	202	9	3
2026-02-12	15:44:37.430	42.805	-29.435	-1.26	-0.735904	0.531676	-0.061488	0.2895	-0.363	0.426	0	202	9	3
2026-02-12	15:44:37.450	66.885	-31.36	3.99	-0.74542	0.654164	-0.052216	0.291	-0.3675	0.4305	0	202	9	3
2026-02-12	15:44:37.470	81.725	-31.15	6.09	-0.756156	0.795196	-0.045628	0.297	-0.3615	0.4425	0	202	9	3
2026-02-12	15:44:37.490	79.765	-31.115	5.46	-0.742736	0.851072	-0.03538	0.297	-0.3555	0.4515	0	202	9	3
2026-02-12	15:44:37.510	69.09	-29.925	4.2	-0.71126	0.788608	0.002196	0.294	-0.354	0.456	0	202	9	3
2026-02-12	15:44:37.530	58.415	-28.665	4.13	-0.68076	0.762744	0.031964	0.297	-0.3495	0.4635	0	202	9	3
2026-02-12	15:44:37.550	45.99	-27.335	4.585	-0.656848	0.728584	0.0244	0.297	-0.3435	0.468	0	202	9	3
2026-02-12	15:44:37.570	33.95	-27.44	5.985	-0.645136	0.669292	-0.008296	0.294	-0.336	0.4695	0	202	9	3
2026-02-12	15:44:37.590	30.415	-29.26	8.295	-0.647576	0.637572	-0.011224	0.2985	-0.333	0.474	0	202	9	3
2026-02-12	15:44:37.610	33.005	-32.025	12.005	-0.640744	0.616588	0.001708	0.3015	-0.3345	0.4755	0	201	21	3
2026-02-12	15:44:37.630	49.7	-31.325	17.955	-0.629276	0.608048	-0.037576	0.3015	-0.3405	0.477	0	201	21	3
2026-02-12	15:44:37.650	61.32	-29.575	21.595	-0.613172	0.671732	-0.037576	0.2985	-0.339	0.477	0	201	21	3
2026-02-12	15:44:37.670	63.49	-27.51	23.59	-0.595848	0.731268	-0.011712	0.2955	-0.333	0.483	0	201	21	3
2026-02-12	15:44:37.690	58.24	-24.325	25.165	-0.60024	0.766404	0.027084	0.2955	-0.3255	0.492	0	201	21	3
2026-02-12	15:44:37.710	49.77	-19.845	26.67	-0.608536	0.756156	0.02806	0.297	-0.3255	0.4995	0	201	21	3
2026-02-12	15:44:37.730	44.415	-15.645	28.21	-0.623908	0.74298	0.025864	0.297	-0.3255	0.4995	0	201	21	3
2026-02-12	15:44:37.750	40.6	-13.09	29.505	-0.630252	0.782996	0.016836	0.2895	-0.318	0.5025	0	201	21	3
2026-02-12	15:44:37.770	32.795	-11.585	30.345	-0.638792	0.852536	0.013664	0.288	-0.3105	0.5115	0	201	21	3
2026-02-12	15:44:37.790	22.12	-8.925	29.995	-0.667096	0.866444	-0.007808	0.288	-0.309	0.519	0	201	21	3
2026-02-12	15:44:37.810	12.565	-6.16	29.75	-0.660996	0.915488	-0.0122	0.285	-0.315	0.519	0	198	19	3
2026-02-12	15:44:37.830	-2.415	-3.71	28.21	-0.61122	0.928176	0.003904	0.282	-0.312	0.516	0	198	19	3
2026-02-12	15:44:37.850	-12.53	1.33	24.745	-0.631716	0.935984	0.002684	0.2775	-0.3135	0.516	0	198	19	3
2026-02-12	15:44:37.870	-16.87	3.745	22.54	-0.66124	1.040904	-0.049288	0.2745	-0.3195	0.5175	0	198	19	3
2026-02-12	15:44:37.890	-19.355	2.1	21.735	-0.67344	1.1407	-0.184708	0.2715	-0.3165	0.516	0	198	19	3
2026-02-12	15:44:37.910	-20.125	-5.005	21.455	-0.571204	1.227076	-0.238876	0.2715	-0.3165	0.513	0	198	19	3
2026-02-12	15:44:37.930	-23.52	-9.73	21.35	-0.46726	1.175592	-0.207644	0.264	-0.3225	0.51	0	198	19	3
2026-02-12	15:44:37.950	-25.06	-12.46	22.575	-0.362828	1.168028	-0.138348	0.264	-0.3285	0.507	0	198	19	3
2026-02-12	15:44:37.970	-25.585	-10.045	20.965	-0.260836	1.147776	-0.130296	0.2535	-0.3345	0.504	0	198	19	3
2026-02-12	15:44:37.990	-21.7	-2.73	17.57	-0.195444	1.06018	-0.169824	0.2625	-0.3345	0.489	0	198	19	3
2026-02-12	15:44:38.010	-12.915	6.335	14.91	-0.157868	0.964044	-0.213012	0.252	-0.339	0.498	0	195	3	3
2026-02-12	15:44:38.030	-7.49	16.625	13.3	-0.188612	0.87962	-0.240584	0.249	-0.333	0.498	0	195	3	3
2026-02-12	15:44:38.050	-9.87	25.725	13.09	-0.217648	0.878156	-0.2623	0.2535	-0.333	0.4965	0	195	3	3
2026-02-12	15:44:38.070	-21.49	33.53	12.46	-0.23546	0.913048	-0.26474	0.249	-0.339	0.498	0	195	3	3
2026-02-12	15:44:38.090	-33.88	40.67	9.345	-0.243756	0.933788	-0.227408	0.234	-0.339	0.489	0	195	3	3
2026-02-12	15:44:38.110	-43.33	47.005	3.675	-0.23912	0.911096	-0.163236	0.246	-0.3285	0.4875	0	195	3	3
2026-02-12	15:44:38.130	-47.67	52.955	-2.17	-0.260348	0.861076	-0.115656	0.237	-0.3345	0.486	0	195	3	3
2026-02-12	15:44:38.150	-50.05	56.245	-5.705	-0.285724	0.831064	-0.10248	0.2295	-0.3465	0.4845	0	195	3	3
2026-02-12	15:44:38.170	-45.64	58.24	-7.98	-0.312564	0.790072	-0.075396	0.2235	-0.348	0.4875	0	195	3	3
2026-02-12	15:44:38.190	-39.025	57.75	-8.96	-0.33306	0.794952	-0.041236	0.2205	-0.348	0.483	0	195	3	3
2026-02-12	15:44:38.210	-34.79	56.875	-11.165	-0.377224	0.836676	-0.021716	0.219	-0.3495	0.48	0	196	26	3
2026-02-12	15:44:38.230	-34.23	56.105	-13.755	-0.41968	0.8235	-0.023668	0.222	-0.3525	0.4665	0	196	26	3
2026-02-12	15:44:38.250	-31.815	53.48	-16.17	-0.43432	0.791536	-0.001464	0.222	-0.357	0.468	0	196	26	3
2026-02-12	15:44:38.270	-26.18	50.19	-17.955	-0.445788	0.79666	0.033916	0.216	-0.348	0.4695	0	196	26	3
2026-02-12	15:44:38.290	-22.645	46.9	-19.355	-0.454084	0.806908	0.062952	0.2145	-0.3585	0.4575	0	196	26	3
2026-02-12	15:44:38.310	-21.49	44.45	-20.825	-0.46238	0.798856	0.0854	0.219	-0.3525	0.456	0	196	26	3
2026-02-12	15:44:38.330	-21.455	42.84	-21.98	-0.477264	0.814716	0.10614	0.225	-0.36	0.4545	0	196	26	3
2026-02-12	15:44:38.350	-26.355	39.585	-23.45	-0.494588	0.838384	0.116632	0.213	-0.36	0.459	0	196	26	3
2026-02-12	15:44:38.370	-31.29	36.365	-26.32	-0.498004	0.81984	0.124196	0.219	-0.36	0.453	0	196	26	3
2026-02-12	15:44:38.390	-28.63	35.665	-29.575	-0.521672	0.820084	0.130784	0.2175	-0.36	0.465	0	196	26	3
2026-02-12	15:44:38.410	-26.215	34.02	-31.815	-0.52582	0.821548	0.140056	0.222	-0.366	0.4455	0	198	41	2
2026-02-12	15:44:38.430	-24.22	33.95	-34.3	-0.546316	0.809348	0.148352	0.2205	-0.3615	0.45	0	198	41	2
2026-02-12	15:44:38.450	-24.64	33.67	-37.31	-0.552904	0.850828	0.151036	0.2205	-0.3615	0.45	0	198	41	2
2026-02-12	15:44:38.470	-31.045	33.495	-39.865	-0.547292	0.850096	0.159332	0.231	-0.36	0.444	0	198	41	2
2026-02-12	15:44:38.490	-36.575	35.49	-42.455	-0.557784	0.808616	0.126636	0.24	-0.3585	0.4395	0	198	41	2
2026-02-12	15:44:38.510	-38.78	35.28	-45.71	-0.558028	0.788852	0.110288	0.2415	-0.3585	0.4395	0	198	41	2
2026-02-12	15:44:38.530	-41.51	32.585	-49.35	-0.544852	0.776652	0.130296	0.2415	-0.3585	0.4365	0	198	41	2
2026-02-12	15:44:38.550	-41.86	31.045	-52.535	-0.586332	0.726144	0.114436	0.246	-0.357	0.4305	0	198	41	2
2026-02-12	15:44:38.570	-30.52	30.1	-53.445	-0.714432	0.720288	0.038308	0.2565	-0.3555	0.4275	0	198	41	2
2026-02-12	15:44:38.590	-12.145	24.43	-52.325	-0.807152	0.834968	-0.000488	0.2655	-0.3555	0.4275	0	198	41	2
2026-02-12	15:44:38.610	-1.015	17.535	-47.67	-0.84302	0.89548	0.023424	0.2685	-0.3525	0.426	0	199	26	3
2026-02-12	15:44:38.630	3.605	13.755	-40.6	-0.876936	0.959408	0.05612	0.2745	-0.345	0.426	0	199	26	3
2026-02-12	15:44:38.650	-1.225	11.305	-34.265	-0.854	0.961604	0.03416	0.2805	-0.345	0.4275	0	199	26	3
2026-02-12	15:44:38.670	-13.055	9.065	-30.87	-0.774944	0.840336	-0.003904	0.2865	-0.342	0.4305	0	199	26	3
2026-02-12	15:44:38.690	-24.29	4.725	-30.415	-0.700768	0.682224	-0.042212	0.2895	-0.342	0.4335	0	199	26	3
2026-02-12	15:44:38.710	-25.76	-7.035	-26.215	-0.672464	0.47092	-0.09076799	0.2835	-0.348	0.435	0	199	26	3
2026-02-12	15:44:38.730	-14.735	-20.895	-18.83	-0.70028	0.45262	-0.104432	0.2835	-0.348	0.435	0	199	26	3
2026-02-12	15:44:38.750	-3.955	-38.99	-8.925	-0.706868	0.460184	-0.081252	0.291	-0.348	0.414	0	199	26	3
2026-02-12	15:44:38.770	18.97	-51.485	1.26	-0.738344	0.448716	-0.029036	0.303	-0.345	0.4155	0	199	26	3
2026-02-12	15:44:38.790	51.205	-59.85	11.795	-0.733952	0.586332	-0.018544	0.2985	-0.345	0.4125	0	199	26	3
2026-02-12	15:44:38.810	66.745	-63.35	20.58	-0.712236	0.688568	0.02684	0.2985	-0.339	0.4155	0	201	7	3
2026-02-12	15:44:38.830	71.925	-60.655	25.13	-0.676124	0.788608	0.074176	0.3	-0.342	0.42	0	201	7	3
2026-02-12	15:44:38.850	68.705	-53.27	24.99	-0.666364	0.807396	0.083448	0.3015	-0.342	0.4275	0	201	7	3
2026-02-12	15:44:38.870	53.9	-48.685	24.43	-0.67222	0.753472	0.07076	0.3	-0.339	0.432	0	201	7	3
2026-02-12	15:44:38.890	38.29	-46.9	25.06	-0.642696	0.650992	0.062708	0.3	-0.342	0.435	0	201	7	3
2026-02-12	15:44:38.910	31.885	-43.4	25.76	-0.609756	0.562908	0.05612	0.297	-0.3435	0.4335	0	201	7	3
2026-02-12	15:44:38.930	33.74	-37.765	26.81	-0.610732	0.53436	0.035868	0.2925	-0.336	0.435	0	201	7	3
2026-02-12	15:44:38.950	40.005	-33.74	28.42	-0.621712	0.555588	0.0122	0.291	-0.3315	0.441	0	201	7	3
2026-02-12	15:44:38.970	45.745	-29.47	30.065	-0.623908	0.562664	0.028792	0.2925	-0.3345	0.444	0	201	7	3
2026-02-12	15:44:38.990	54.11	-23.17	31.255	-0.621956	0.597556	0.063928	0.291	-0.339	0.4455	0	201	7	3
2026-02-12	15:44:39.010	58.94	-17.605	31.885	-0.605852	0.64538	0.060756	0.288	-0.3345	0.456	0	203	5	3
2026-02-12	15:44:39.030	59.92	-11.865	30.38	-0.589016	0.656848	0.069784	0.2835	-0.3345	0.468	0	203	5	3
2026-02-12	15:44:39.050	55.895	-4.725	27.93	-0.57096	0.669536	0.10858	0.2805	-0.327	0.465	0	203	5	3
2026-02-12	15:44:39.070	49.91	3.01	26.425	-0.554124	0.6832	0.119072	0.264	-0.33	0.471	0	203	5	3
2026-02-12	15:44:39.090	46.62	10.57	26.705	-0.562908	0.691984	0.131272	0.27	-0.3255	0.4785	0	203	5	3
2026-02-12	15:44:39.110	43.995	17.01	29.085	-0.553148	0.759572	0.122976	0.2715	-0.33	0.4875	0	203	5	3
2026-02-12	15:44:39.130	36.68	23.17	31.255	-0.57828	0.829356	0.07564	0.2595	-0.3195	0.4965	0	203	5	3
2026-02-12	15:44:39.150	27.335	26.145	33.775	-0.638792	0.885476	0.040748	0.2535	-0.3195	0.501	0	203	5	3
2026-02-12	15:44:39.170	16.205	24.185	37.59	-0.70272	1.006988	0.03172	0.2475	-0.321	0.507	0	203	5	3
2026-02-12	15:44:39.190	0.875	19.46	40.355	-0.708332	1.108736	-0.00854	0.2385	-0.3225	0.5085	0	203	5	3
2026-02-12	15:44:39.210	-8.54	18.83	40.775	-0.675392	1.133136	-0.041724	0.243	-0.318	0.5085	0	204	15	3
2026-02-12	15:44:39.230	-8.785	23.52	36.785	-0.641476	1.167784	-0.109556	0.2325	-0.33	0.504	0	204	15	3
2026-02-12	15:44:39.250	-7.7	31.43	29.12	-0.606584	1.202432	-0.280356	0.2325	-0.33	0.504	0	204	15	3
2026-02-12	15:44:39.270	-10.605	28.105	25.655	-0.513864	1.27978	-0.366976	0.216	-0.324	0.507	0	204	15	3
2026-02-12	15:44:39.290	-18.48	23.485	20.965	-0.421876	1.159	-0.371856	0.2025	-0.324	0.51	0	204	15	3
2026-02-12	15:44:39.310	-17.885	20.51	18.375	-0.387716	1.10288	-0.367952	0.2025	-0.3285	0.5055	0	204	15	3
2026-02-12	15:44:39.330	-12.005	17.92	18.935	-0.33062	1.141676	-0.319396	0.1995	-0.3315	0.507	0	204	15	3
2026-02-12	15:44:39.350	-5.67	18.76	17.85	-0.308172	1.173884	-0.275476	0.198	-0.333	0.507	0	204	15	3
2026-02-12	15:44:39.370	-9.205	23.8	12.6	-0.293044	1.101416	-0.25498	0.1905	-0.3345	0.5025	0	204	15	3
2026-02-12	15:44:39.390	-20.615	31.5	5.425	-0.273036	1.023336	-0.25742	0.1875	-0.333	0.5025	0	204	15	3
2026-02-12	15:44:39.410	-36.995	38.92	0.385	-0.25376	0.9333	-0.269132	0.1905	-0.33	0.504	0	207	1	3
2026-02-12	15:44:39.430	-52.185	45.43	-1.96	-0.237168	0.84058	-0.2806	0.186	-0.333	0.501	0	207	1	3
2026-02-12	15:44:39.450	-61.39	48.895	-2.345	-0.220576	0.808128	-0.256444	0.174	-0.336	0.492	0	207	1	3
2026-02-12	15:44:39.470	-65.8	50.82	-0.875	-0.237412	0.796904	-0.249612	0.1815	-0.339	0.492	0	207	1	3
2026-02-12	15:44:39.490	-65.345	50.54	-0.875	-0.247172	0.795684	-0.226188	0.1755	-0.345	0.477	0	207	1	3
2026-02-12	15:44:39.510	-57.785	50.82	-2.905	-0.274744	0.791536	-0.175436	0.171	-0.3465	0.471	0	207	1	3
2026-02-12	15:44:39.530	-46.375	50.855	-5.6	-0.317688	0.803736	-0.133224	0.1665	-0.3525	0.465	0	207	1	3
2026-02-12	15:44:39.550	-40.39	49.77	-7.245	-0.346724	0.803492	-0.10736	0.1605	-0.36	0.462	0	207	1	3
2026-02-12	15:44:39.570	-34.195	49.175	-9.31	-0.38674	0.76738	-0.059048	0.1545	-0.3615	0.4575	0	207	1	3
2026-02-12	15:44:39.590	-29.085	47.845	-12.285	-0.406748	0.803492	-0.011224	0.156	-0.3645	0.4485	0	207	1	3
2026-02-12	15:44:39.610	-31.395	47.005	-14.735	-0.396988	0.814716	0.005612	0.159	-0.363	0.4455	0	213	42	3
2026-02-12	15:44:39.630	-34.335	46.83	-15.575	-0.419924	0.817644	0.00854	0.1605	-0.3645	0.447	0	213	42	3
2026-02-12	15:44:39.650	-35.35	45.465	-14.77	-0.438956	0.80154	0.014396	0.1545	-0.369	0.438	0	213	42	3
2026-02-12	15:44:39.670	-32.34	43.12	-13.65	-0.482632	0.809836	0.02684	0.1485	-0.369	0.432	0	213	42	3
2026-02-12	15:44:39.690	-30.38	38.395	-14.315	-0.46482	0.821792	0.071736	0.153	-0.3675	0.4305	0	213	42	3
2026-02-12	15:44:39.710	-31.78	34.93	-14.91	-0.465552	0.806908	0.10492	0.1515	-0.3675	0.4275	0	213	42	3
2026-02-12	15:44:39.730	-32.305	32.865	-16.8	-0.498736	0.803004	0.092964	0.153	-0.3675	0.4245	0	213	42	3
2026-02-12	15:44:39.750	-33.32	28.42	-18.655	-0.509472	0.815204	0.079788	0.156	-0.372	0.4185	0	213	42	3
2026-02-12	15:44:39.770	-34.65	22.015	-20.65	-0.49532	0.816424	0.114192	0.159	-0.3765	0.4155	0	213	42	3
2026-02-12	15:44:39.790	-32.55	15.295	-22.855	-0.5063	0.808616	0.160552	0.1635	-0.3795	0.4125	0	213	42	3
2026-02-12	15:44:39.810	-29.47	11.305	-23.555	-0.535336	0.841068	0.1525	0.171	-0.3735	0.4035	0	218	59	3
2026-02-12	15:44:39.830	-28.315	5.845	-25.095	-0.537288	0.870592	0.154208	0.159	-0.3765	0.405	0	218	59	3
2026-02-12	15:44:39.850	-27.44	1.295	-26.915	-0.53436	0.865224	0.191784	0.171	-0.3735	0.396	0	218	59	3
2026-02-12	15:44:39.870	-27.545	-1.155	-29.19	-0.530944	0.8784	0.233996	0.168	-0.375	0.39	0	218	59	3
2026-02-12	15:44:39.890	-29.645	-1.715	-31.325	-0.551928	0.848876	0.227164	0.174	-0.3735	0.3915	0	218	59	3
2026-02-12	15:44:39.910	-29.54	-2.415	-32.76	-0.601704	0.8418	0.205692	0.1845	-0.3765	0.3795	0	218	59	3
2026-02-12	15:44:39.930	-25.2	-3.92	-33.635	-0.652456	0.842532	0.171532	0.189	-0.3705	0.3825	0	218	59	3
2026-02-12	15:44:39.950	-15.12	-5.18	-33.495	-0.719068	0.876936	0.128344	0.1935	-0.372	0.3735	0	218	59	3
2026-02-12	15:44:39.970	-3.71	-7.595	-32.025	-0.748836	0.90524	0.111996	0.1875	-0.3795	0.3765	0	218	59	3
2026-02-12	15:44:39.990	1.4	-11.34	-30.94	-0.719556	0.964288	0.107848	0.201	-0.3705	0.375	0	218	59	3
2026-02-12	15:44:40.010	-14.735	-18.2	-28.91	-0.64172	0.848632	0.089792	0.201	-0.3705	0.375	0	222	37	3
2026-02-12	15:44:40.030	-21.7	-20.265	-27.79	-0.636352	0.741028	0.060268	0.2055	-0.3735	0.3735	0	222	37	3
2026-02-12	15:44:40.050	-20.545	-26.775	-24.85	-0.6466	0.600972	-0.033428	0.216	-0.372	0.375	0	222	37	3
2026-02-12	15:44:40.070	-14.035	-33.705	-20.93	-0.662216	0.544608	-0.05612	0.2205	-0.3675	0.3765	0	222	37	3
2026-02-12	15:44:40.090	-2.765	-39.55	-15.155	-0.68564	0.511912	-0.022448	0.213	-0.3705	0.3555	0	222	37	3
2026-02-12	15:44:40.110	13.16	-41.72	-9.8	-0.70882	0.524356	0.020008	0.2265	-0.372	0.3645	0	222	37	3
2026-02-12	15:44:40.130	32.83	-40.67	-5.53	-0.730048	0.55754	0.069052	0.2325	-0.3735	0.3585	0	222	37	3
