yyyy-MM-dd	HH:mm:ss.fff	gyrX	gyrY	gyrZ	accX	accY	accZ	magX	magY	magZ	Marker	Energy	Angle	Classification
2026-02-12	16:42:57.010	15.575	33.46	215.985	1.125572	-0.3294	0.00854	0.0735	0.6825	-0.1455	0	857	264	5
2026-02-12	16:42:57.030	31.675	22.995	200.585	1.073112	-0.28182	0.026108	0.0945	0.714	-0.138	0	857	264	5
2026-02-12	16:42:57.050	40.32	14.385	186.165	0.967704	-0.23912	0.044164	0.1095	0.732	-0.1425	0	857	264	5
2026-02-12	16:42:57.070	43.505	7	169.015	0.922808	-0.227652	0.054168	0.117	0.7425	-0.1455	0	857	264	5
2026-02-12	16:42:57.090	45.43	-0.315	151.55	0.846192	-0.206424	0.06734399	0.1275	0.762	-0.15	0	857	264	5
2026-02-12	16:42:57.110	45.5	-6.965	132.51	0.804712	-0.204716	0.064904	0.1365	0.777	-0.1545	0	857	264	5
2026-02-12	16:42:57.130	43.26	-11.62	114.66	0.747372	-0.187148	0.099308	0.147	0.789	-0.1575	0	857	264	5
2026-02-12	16:42:57.150	41.51	-17.78	86.695	0.648308	-0.161284	0.130052	0.153	0.7935	-0.159	0	857	264	5
2026-02-12	16:42:57.170	40.6	-21.525	66.08	0.607316	-0.174216	0.156892	0.153	0.7935	-0.159	0	857	264	5
2026-02-12	16:42:57.190	40.075	-25.445	45.15	0.558028	-0.143472	0.196908	0.177	0.8085	-0.1725	0	857	264	5
2026-02-12	16:42:57.210	34.615	-30.065	21.595	0.526308	-0.144936	0.211304	0.1845	0.819	-0.1635	0	823	241	5
2026-02-12	16:42:57.230	28.245	-33.775	-2.205	0.520208	-0.150304	0.218624	0.1875	0.816	-0.1605	0	823	241	5
2026-02-12	16:42:57.250	20.58	-35.805	-27.545	0.50874	-0.15006	0.244244	0.1725	0.8115	-0.162	0	823	241	5
2026-02-12	16:42:57.270	11.55	-39.2	-53.83	0.541436	-0.169824	0.282064	0.168	0.81	-0.1665	0	823	241	5
2026-02-12	16:42:57.290	3.815	-40.635	-80.605	0.537044	-0.18178	0.313052	0.1635	0.8085	-0.1635	0	823	241	5
2026-02-12	16:42:57.310	-0.105	-43.75	-108.64	0.604876	-0.211792	0.33062	0.153	0.807	-0.156	0	823	241	5
2026-02-12	16:42:57.330	-5.145	-46.585	-137.445	0.659776	-0.21716	0.340624	0.147	0.795	-0.153	0	823	241	5
2026-02-12	16:42:57.350	-9.8	-48.79	-166.32	0.742248	-0.236436	0.3416	0.135	0.777	-0.147	0	823	241	5
2026-02-12	16:42:57.370	-25.025	-50.505	-209.335	0.938668	-0.273524	0.335744	0.123	0.7695	-0.141	0	823	241	5
2026-02-12	16:42:57.390	-36.89	-46.095	-233.905	1.062864	-0.266692	0.343796	0.099	0.7275	-0.1275	0	823	241	5
2026-02-12	16:42:57.410	-47.53	-41.16	-257.04	1.220488	-0.301584	0.395524	0.0855	0.7005	-0.1155	0	781	225	3
2026-02-12	16:42:57.430	-58.8	-35.245	-273.945	1.391532	-0.37698	0.439688	0.0735	0.678	-0.114	0	781	225	3
2026-02-12	16:42:57.450	-68.53	-29.575	-285.495	1.529636	-0.354288	0.468236	0.069	0.639	-0.12	0	781	225	3
2026-02-12	16:42:57.470	-98	-21.07	-289.065	1.692628	-0.460184	0.368684	0.045	0.603	-0.114	0	781	225	3
2026-02-12	16:42:57.490	-127.19	-7.315	-284.445	1.571604	-0.397232	0.459208	0.045	0.5685	-0.12	0	781	225	3
2026-02-12	16:42:57.510	-145.565	-2.555	-270.165	1.580388	-0.567544	0.3416	0.0435	0.5445	-0.1185	0	781	225	3
2026-02-12	16:42:57.530	-126.77	0.175	-248.955	1.544764	-0.459696	0.347944	0.042	0.5055	-0.1155	0	781	225	3
2026-02-12	16:42:57.550	-111.09	6.23	-225.4	1.408612	-0.599752	0.316468	0.048	0.4755	-0.1155	0	781	225	3
2026-02-12	16:42:57.570	-66.815	6.405	-189.84	1.262456	-0.59902	0.27328	0.057	0.4515	-0.1215	0	781	225	3
2026-02-12	16:42:57.590	-18.375	-1.05	-148.855	1.136308	-0.548512	0.18788	0.0615	0.4395	-0.126	0	781	225	3
2026-02-12	16:42:57.610	9.8	-10.325	-117.25	1.091168	-0.497272	0.164944	0.084	0.4035	-0.1275	0	735	236	3
2026-02-12	16:42:57.630	24.605	-16.765	-90.02	1.07726	-0.439688	0.196176	0.084	0.3915	-0.117	0	735	236	3
2026-02-12	16:42:57.650	22.05	-20.685	-66.605	1.045784	-0.446764	0.214476	0.084	0.375	-0.117	0	735	236	3
2026-02-12	16:42:57.670	14.665	-20.895	-48.51	1.010892	-0.411872	0.244244	0.102	0.3675	-0.12	0	735	236	3
2026-02-12	16:42:57.690	-2.24	-17.92	-34.265	0.955504	-0.430416	0.271328	0.102	0.354	-0.108	0	735	236	3
2026-02-12	16:42:57.710	-18.27	-14.77	-23.485	0.9089	-0.469212	0.278404	0.096	0.354	-0.1035	0	735	236	3
2026-02-12	16:42:57.730	-25.62	-12.005	-15.015	0.871568	-0.489708	0.296704	0.1005	0.354	-0.108	0	735	236	3
2026-02-12	16:42:57.750	-27.09	-10.255	-6.965	0.854244	-0.518012	0.310368	0.1065	0.3525	-0.1065	0	735	236	3
2026-02-12	16:42:57.770	-21.56	-9.17	2.17	0.844728	-0.532652	0.310124	0.102	0.3495	-0.1095	0	735	236	3
2026-02-12	16:42:57.790	-4.725	-9.66	15.365	0.862052	-0.521184	0.306708	0.096	0.348	-0.117	0	735	236	3
2026-02-12	16:42:55.810	97.895	69.475	513.8	2.769888	-0.605364	0.329888	0.075	0.6345	-0.1725	0	794	302	3
2026-02-12	16:42:55.830	93.485	90.37	508.165	2.1655	-0.71126	0.374784	0.102	0.693	-0.1875	0	794	302	3
2026-02-12	16:42:55.850	121.695	97.51	483.7	1.982988	-0.455304	0.363316	0.138	0.7395	-0.198	0	794	302	3
2026-02-12	16:42:55.870	126.84	118.825	435.715	1.203164	-0.176168	0.31476	0.1605	0.7575	-0.204	0	794	302	3
2026-02-12	16:42:55.890	108.745	122.08	393.995	1.025532	-0.115656	0.186416	0.2565	0.828	-0.2385	0	794	302	3
2026-02-12	16:42:55.910	99.575	121.975	353.185	0.775432	-0.081984	0.161284	0.3135	0.843	-0.261	0	794	302	3
2026-02-12	16:42:55.930	99.61	115.815	302.05	0.675636	-0.015372	0.223016	0.36	0.8445	-0.2715	0	794	302	3
2026-02-12	16:42:55.950	87.71	106.925	250.285	0.726632	0.161772	0.17324	0.4065	0.843	-0.285	0	794	302	3
2026-02-12	16:42:55.970	67.305	103.005	230.02	0.363316	0.295972	0.099308	0.4455	0.8385	-0.297	0	794	302	3
2026-02-12	16:42:55.990	47.565	85.365	184.03	0.267912	0.49044	-0.016836	0.477	0.837	-0.2985	0	794	302	3
2026-02-12	16:42:56.010	12.39	67.165	131.215	0.082716	0.66978	-0.137372	0.4935	0.831	-0.303	0	813	300	5
2026-02-12	16:42:56.030	-16.24	42.07	70.14	-0.030988	0.72956	-0.17324	0.5145	0.828	-0.309	0	813	300	5
2026-02-12	16:42:56.050	-27.72	12.425	4.55	0.000976	0.659044	-0.092964	0.525	0.8325	-0.3075	0	813	300	5
2026-02-12	16:42:56.070	-31.01	-19.39	-76.475	0.087596	0.558516	0.041236	0.5295	0.8355	-0.306	0	813	300	5
2026-02-12	16:42:56.090	-39.655	-46.795	-150.535	0.18178	0.414068	0.095892	0.5295	0.8355	-0.306	0	813	300	5
2026-02-12	16:42:56.110	-48.44	-64.82	-203.875	0.262788	0.24156	0.10248	0.498	0.84	-0.2925	0	813	300	5
2026-02-12	16:42:56.130	-56.385	-84.14	-250.39	0.383324	0.123464	0.103944	0.48	0.846	-0.297	0	813	300	5
2026-02-12	16:42:56.150	-68.635	-100.205	-292.88	0.540216	0.00122	0.087596	0.438	0.852	-0.291	0	813	300	5
2026-02-12	16:42:56.170	-66.43	-111.195	-333.025	0.708576	-0.150792	0.11102	0.402	0.8475	-0.2685	0	813	300	5
2026-02-12	16:42:56.190	-48.195	-125.02	-370.335	0.978196	-0.453596	0.150792	0.345	0.8475	-0.2655	0	813	300	5
2026-02-12	16:42:56.210	-13.79	-140.77	-398.86	1.243668	-0.673196	0.179828	0.3255	0.843	-0.261	0	833	272	5
2026-02-12	16:42:56.230	20.335	-164.71	-424.06	1.365424	-0.379176	0.204472	0.279	0.825	-0.249	0	833	272	5
2026-02-12	16:42:56.250	13.195	-189.665	-451.08	1.8361	-0.205692	0.172508	0.222	0.792	-0.2385	0	833	272	5
2026-02-12	16:42:56.270	-12.285	-203.035	-472.29	2.297016	-0.200568	0.19032	0.1695	0.7515	-0.225	0	833	272	5
2026-02-12	16:42:56.290	-63.245	-205.065	-497.63	3.114172	-0.205692	0.34282	0.1455	0.729	-0.213	0	833	272	5
2026-02-12	16:42:56.310	-131.005	-176.89	-499.415	3.490176	-0.365024	0.564128	0.1455	0.729	-0.213	0	833	272	5
2026-02-12	16:42:56.330	-211.225	-121.625	-480.9	3.466508	-1.067988	0.299388	0.0645	0.561	-0.1515	0	833	272	5
2026-02-12	16:42:56.350	-221.06	-40.355	-445.165	2.589816	-0.738344	0.183488	0.0555	0.4965	-0.1335	0	833	272	5
2026-02-12	16:42:56.370	-222.145	-27.79	-387.275	2.517104	-0.887184	0.147132	0.0675	0.4545	-0.126	0	833	272	5
2026-02-12	16:42:56.390	-181.86	-4.025	-326.935	1.888804	-1.000156	0.31476	0.075	0.399	-0.1425	0	833	272	5
2026-02-12	16:42:56.410	-119.315	-4.06	-257.985	1.510116	-0.88816	0.310124	0.105	0.384	-0.147	0	854	244	5
2026-02-12	16:42:56.430	-42.875	-20.055	-192.57	1.358348	-0.665876	0.269376	0.1125	0.3735	-0.153	0	854	244	5
2026-02-12	16:42:56.450	46.55	-44.45	-138.915	1.327604	-0.60756	0.267912	0.126	0.3465	-0.156	0	854	244	5
2026-02-12	16:42:56.470	94.605	-58.415	-98.665	1.269044	-0.428708	0.338672	0.132	0.327	-0.1545	0	854	244	5
2026-02-12	16:42:56.490	102.27	-63.42	-69.335	1.10288	-0.61976	0.312808	0.141	0.3165	-0.1455	0	854	244	5
2026-02-12	16:42:56.510	83.09	-60.48	-36.96	1.01138	-0.573888	0.444812	0.15	0.309	-0.135	0	854	244	5
2026-02-12	16:42:56.530	38.99	-43.645	-27.58	0.881328	-0.708088	0.504592	0.159	0.291	-0.1035	0	854	244	5
2026-02-12	16:42:56.550	6.895	-29.785	-20.3	0.763476	-0.676856	0.494832	0.147	0.276	-0.09	0	854	244	5
2026-02-12	16:42:56.570	-14.77	-16.275	-15.82	0.69418	-0.652212	0.451888	0.159	0.282	-0.0795	0	854	244	5
2026-02-12	16:42:56.590	-16.03	-5.95	-10.85	0.658068	-0.610732	0.408212	0.147	0.279	-0.0855	0	854	244	5
2026-02-12	16:42:56.610	-3.29	1.68	-2.835	0.666852	-0.567056	0.354776	0.156	0.2925	-0.084	0	872	244	5
2026-02-12	16:42:56.630	13.265	7.735	10.885	0.703696	-0.602192	0.299144	0.15	0.2805	-0.087	0	872	244	5
2026-02-12	16:42:56.650	43.295	10.01	26.67	0.787144	-0.604876	0.261324	0.15	0.279	-0.0885	0	872	244	5
2026-02-12	16:42:56.670	74.935	12.285	45.36	0.891088	-0.586332	0.249368	0.1515	0.282	-0.0855	0	872	244	5
2026-02-12	16:42:56.690	100.94	16.205	66.71	0.995032	-0.559248	0.257664	0.147	0.288	-0.0765	0	872	244	5
2026-02-12	16:42:56.710	121.94	23.59	93.135	1.142408	-0.491172	0.267424	0.1425	0.288	-0.069	0	872	244	5
2026-02-12	16:42:56.730	131.425	34.895	118.23	1.269776	-0.411872	0.2745	0.144	0.288	-0.066	0	872	244	5
2026-02-12	16:42:56.750	129.15	45.08	137.2	1.374452	-0.349164	0.290604	0.111	0.3045	-0.0555	0	872	244	5
2026-02-12	16:42:56.770	115.08	56.98	155.435	1.4518	-0.294508	0.301584	0.102	0.3255	-0.042	0	872	244	5
2026-02-12	16:42:56.790	91.28	67.9	173.915	1.539152	-0.253516	0.317444	0.0915	0.339	-0.0435	0	872	244	5
2026-02-12	16:42:56.810	60.83	78.4	192.15	1.619916	-0.229604	0.313784	0.072	0.3555	-0.039	0	874	260	5
2026-02-12	16:42:56.830	25.41	87.815	208.81	1.680184	-0.212524	0.289872	0.063	0.372	-0.051	0	874	260	5
2026-02-12	16:42:56.850	-9.275	93.135	223.44	1.694336	-0.213744	0.265716	0.063	0.4005	-0.054	0	874	260	5
2026-02-12	16:42:56.870	-37.065	93.17	235.69	1.685064	-0.223504	0.210572	0.0525	0.4215	-0.063	0	874	260	5
2026-02-12	16:42:56.890	-59.885	90.965	247.625	1.67994	-0.305	0.133224	0.042	0.4515	-0.081	0	874	260	5
2026-02-12	16:42:56.910	-69.09	83.895	255.29	1.63236	-0.312076	0.12322	0.042	0.48	-0.1005	0	874	260	5
2026-02-12	16:42:56.930	-64.12	74.34	254.94	1.538176	-0.393572	0.075396	0.0435	0.498	-0.1095	0	874	260	5
2026-02-12	16:42:56.950	-42.315	61.74	248.36	1.407392	-0.357216	0.04636	0.0435	0.498	-0.1095	0	874	260	5
2026-02-12	16:42:56.970	-14.98	48.755	239.68	1.345904	-0.380396	0	0.0585	0.624	-0.129	0	874	260	5
2026-02-12	16:42:56.990	7.14	42	228.62	1.242936	-0.267912	0.015616	0.0645	0.6525	-0.1365	0	874	260	5
2026-02-12	16:42:57.010	15.575	33.46	215.985	1.125572	-0.3294	0.00854	0.0735	0.6825	-0.1455	0	857	264	5
2026-02-12	16:42:57.030	31.675	22.995	200.585	1.073112	-0.28182	0.026108	0.0945	0.714	-0.138	0	857	264	5
2026-02-12	16:42:57.050	40.32	14.385	186.165	0.967704	-0.23912	0.044164	0.1095	0.732	-0.1425	0	857	264	5
2026-02-12	16:42:57.070	43.505	7	169.015	0.922808	-0.227652	0.054168	0.117	0.7425	-0.1455	0	857	264	5
2026-02-12	16:42:57.090	45.43	-0.315	151.55	0.846192	-0.206424	0.06734399	0.1275	0.762	-0.15	0	857	264	5
2026-02-12	16:42:57.110	45.5	-6.965	132.51	0.804712	-0.204716	0.064904	0.1365	0.777	-0.1545	0	857	264	5
2026-02-12	16:42:57.130	43.26	-11.62	114.66	0.747372	-0.187148	0.099308	0.147	0.789	-0.1575	0	857	264	5
2026-02-12	16:42:57.150	41.51	-17.78	86.695	0.648308	-0.161284	0.130052	0.153	0.7935	-0.159	0	857	264	5
2026-02-12	16:42:57.170	40.6	-21.525	66.08	0.607316	-0.174216	0.156892	0.153	0.7935	-0.159	0	857	264	5
2026-02-12	16:42:57.190	40.075	-25.445	45.15	0.558028	-0.143472	0.196908	0.177	0.8085	-0.1725	0	857	264	5
2026-02-12	16:42:57.210	34.615	-30.065	21.595	0.526308	-0.144936	0.211304	0.1845	0.819	-0.1635	0	823	241	5
2026-02-12	16:42:57.230	28.245	-33.775	-2.205	0.520208	-0.150304	0.218624	0.1875	0.816	-0.1605	0	823	241	5
2026-02-12	16:42:57.250	20.58	-35.805	-27.545	0.50874	-0.15006	0.244244	0.1725	0.8115	-0.162	0	823	241	5
2026-02-12	16:42:57.270	11.55	-39.2	-53.83	0.541436	-0.169824	0.282064	0.168	0.81	-0.1665	0	823	241	5
2026-02-12	16:42:57.290	3.815	-40.635	-80.605	0.537044	-0.18178	0.313052	0.1635	0.8085	-0.1635	0	823	241	5
2026-02-12	16:42:57.310	-0.105	-43.75	-108.64	0.604876	-0.211792	0.33062	0.153	0.807	-0.156	0	823	241	5
2026-02-12	16:42:57.330	-5.145	-46.585	-137.445	0.659776	-0.21716	0.340624	0.147	0.795	-0.153	0	823	241	5
2026-02-12	16:42:57.350	-9.8	-48.79	-166.32	0.742248	-0.236436	0.3416	0.135	0.777	-0.147	0	823	241	5
2026-02-12	16:42:57.370	-25.025	-50.505	-209.335	0.938668	-0.273524	0.335744	0.123	0.7695	-0.141	0	823	241	5
2026-02-12	16:42:57.390	-36.89	-46.095	-233.905	1.062864	-0.266692	0.343796	0.099	0.7275	-0.1275	0	823	241	5
2026-02-12	16:42:57.410	-47.53	-41.16	-257.04	1.220488	-0.301584	0.395524	0.0855	0.7005	-0.1155	0	781	225	3
2026-02-12	16:42:57.430	-58.8	-35.245	-273.945	1.391532	-0.37698	0.439688	0.0735	0.678	-0.114	0	781	225	3
2026-02-12	16:42:57.450	-68.53	-29.575	-285.495	1.529636	-0.354288	0.468236	0.069	0.639	-0.12	0	781	225	3
2026-02-12	16:42:57.470	-98	-21.07	-289.065	1.692628	-0.460184	0.368684	0.045	0.603	-0.114	0	781	225	3
2026-02-12	16:42:57.490	-127.19	-7.315	-284.445	1.571604	-0.397232	0.459208	0.045	0.5685	-0.12	0	781	225	3
2026-02-12	16:42:57.510	-145.565	-2.555	-270.165	1.580388	-0.567544	0.3416	0.0435	0.5445	-0.1185	0	781	225	3
2026-02-12	16:42:57.530	-126.77	0.175	-248.955	1.544764	-0.459696	0.347944	0.042	0.5055	-0.1155	0	781	225	3
2026-02-12	16:42:57.550	-111.09	6.23	-225.4	1.408612	-0.599752	0.316468	0.048	0.4755	-0.1155	0	781	225	3
2026-02-12	16:42:57.570	-66.815	6.405	-189.84	1.262456	-0.59902	0.27328	0.057	0.4515	-0.1215	0	781	225	3
2026-02-12	16:42:57.590	-18.375	-1.05	-148.855	1.136308	-0.548512	0.18788	0.0615	0.4395	-0.126	0	781	225	3
2026-02-12	16:42:57.610	9.8	-10.325	-117.25	1.091168	-0.497272	0.164944	0.084	0.4035	-0.1275	0	735	236	3
2026-02-12	16:42:57.630	24.605	-16.765	-90.02	1.07726	-0.439688	0.196176	0.084	0.3915	-0.117	0	735	236	3
2026-02-12	16:42:57.650	22.05	-20.685	-66.605	1.045784	-0.446764	0.214476	0.084	0.375	-0.117	0	735	236	3
2026-02-12	16:42:57.670	14.665	-20.895	-48.51	1.010892	-0.411872	0.244244	0.102	0.3675	-0.12	0	735	236	3
2026-02-12	16:42:57.690	-2.24	-17.92	-34.265	0.955504	-0.430416	0.271328	0.102	0.354	-0.108	0	735	236	3
2026-02-12	16:42:57.710	-18.27	-14.77	-23.485	0.9089	-0.469212	0.278404	0.096	0.354	-0.1035	0	735	236	3
2026-02-12	16:42:57.730	-25.62	-12.005	-15.015	0.871568	-0.489708	0.296704	0.1005	0.354	-0.108	0	735	236	3
2026-02-12	16:42:57.750	-27.09	-10.255	-6.965	0.854244	-0.518012	0.310368	0.1065	0.3525	-0.1065	0	735	236	3
2026-02-12	16:42:57.770	-21.56	-9.17	2.17	0.844728	-0.532652	0.310124	0.102	0.3495	-0.1095	0	735	236	3
2026-02-12	16:42:57.790	-4.725	-9.66	15.365	0.862052	-0.521184	0.306708	0.096	0.348	-0.117	0	735	236	3
2026-02-12	16:42:55.810	97.895	69.475	513.8	2.769888	-0.605364	0.329888	0.075	0.6345	-0.1725	0	794	302	3
2026-02-12	16:42:55.830	93.485	90.37	508.165	2.1655	-0.71126	0.374784	0.102	0.693	-0.1875	0	794	302	3
2026-02-12	16:42:55.850	121.695	97.51	483.7	1.982988	-0.455304	0.363316	0.138	0.7395	-0.198	0	794	302	3
2026-02-12	16:42:55.870	126.84	118.825	435.715	1.203164	-0.176168	0.31476	0.1605	0.7575	-0.204	0	794	302	3
2026-02-12	16:42:55.890	108.745	122.08	393.995	1.025532	-0.115656	0.186416	0.2565	0.828	-0.2385	0	794	302	3
2026-02-12	16:42:55.910	99.575	121.975	353.185	0.775432	-0.081984	0.161284	0.3135	0.843	-0.261	0	794	302	3
2026-02-12	16:42:55.930	99.61	115.815	302.05	0.675636	-0.015372	0.223016	0.36	0.8445	-0.2715	0	794	302	3
2026-02-12	16:42:55.950	87.71	106.925	250.285	0.726632	0.161772	0.17324	0.4065	0.843	-0.285	0	794	302	3
2026-02-12	16:42:55.970	67.305	103.005	230.02	0.363316	0.295972	0.099308	0.4455	0.8385	-0.297	0	794	302	3
2026-02-12	16:42:55.990	47.565	85.365	184.03	0.267912	0.49044	-0.016836	0.477	0.837	-0.2985	0	794	302	3
2026-02-12	16:42:56.010	12.39	67.165	131.215	0.082716	0.66978	-0.137372	0.4935	0.831	-0.303	0	813	300	5
2026-02-12	16:42:56.030	-16.24	42.07	70.14	-0.030988	0.72956	-0.17324	0.5145	0.828	-0.309	0	813	300	5
2026-02-12	16:42:56.050	-27.72	12.425	4.55	0.000976	0.659044	-0.092964	0.525	0.8325	-0.3075	0	813	300	5
2026-02-12	16:42:56.070	-31.01	-19.39	-76.475	0.087596	0.558516	0.041236	0.5295	0.8355	-0.306	0	813	300	5
2026-02-12	16:42:56.090	-39.655	-46.795	-150.535	0.18178	0.414068	0.095892	0.5295	0.8355	-0.306	0	813	300	5
2026-02-12	16:42:56.110	-48.44	-64.82	-203.875	0.262788	0.24156	0.10248	0.498	0.84	-0.2925	0	813	300	5
2026-02-12	16:42:56.130	-56.385	-84.14	-250.39	0.383324	0.123464	0.103944	0.48	0.846	-0.297	0	813	300	5
2026-02-12	16:42:56.150	-68.635	-100.205	-292.88	0.540216	0.00122	0.087596	0.438	0.852	-0.291	0	813	300	5
2026-02-12	16:42:56.170	-66.43	-111.195	-333.025	0.708576	-0.150792	0.11102	0.402	0.8475	-0.2685	0	813	300	5
2026-02-12	16:42:56.190	-48.195	-125.02	-370.335	0.978196	-0.453596	0.150792	0.345	0.8475	-0.2655	0	813	300	5
2026-02-12	16:42:56.210	-13.79	-140.77	-398.86	1.243668	-0.673196	0.179828	0.3255	0.843	-0.261	0	833	272	5
2026-02-12	16:42:56.230	20.335	-164.71	-424.06	1.365424	-0.379176	0.204472	0.279	0.825	-0.249	0	833	272	5
2026-02-12	16:42:56.250	13.195	-189.665	-451.08	1.8361	-0.205692	0.172508	0.222	0.792	-0.2385	0	833	272	5
2026-02-12	16:42:56.270	-12.285	-203.035	-472.29	2.297016	-0.200568	0.19032	0.1695	0.7515	-0.225	0	833	272	5
2026-02-12	16:42:56.290	-63.245	-205.065	-497.63	3.114172	-0.205692	0.34282	0.1455	0.729	-0.213	0	833	272	5
2026-02-12	16:42:56.310	-131.005	-176.89	-499.415	3.490176	-0.365024	0.564128	0.1455	0.729	-0.213	0	833	272	5
2026-02-12	16:42:56.330	-211.225	-121.625	-480.9	3.466508	-1.067988	0.299388	0.0645	0.561	-0.1515	0	833	272	5
2026-02-12	16:42:56.350	-221.06	-40.355	-445.165	2.589816	-0.738344	0.183488	0.0555	0.4965	-0.1335	0	833	272	5
2026-02-12	16:42:56.370	-222.145	-27.79	-387.275	2.517104	-0.887184	0.147132	0.0675	0.4545	-0.126	0	833	272	5
2026-02-12	16:42:56.390	-181.86	-4.025	-326.935	1.888804	-1.000156	0.31476	0.075	0.399	-0.1425	0	833	272	5
2026-02-12	16:42:56.410	-119.315	-4.06	-257.985	1.510116	-0.88816	0.310124	0.105	0.384	-0.147	0	854	244	5
2026-02-12	16:42:56.430	-42.875	-20.055	-192.57	1.358348	-0.665876	0.269376	0.1125	0.3735	-0.153	0	854	244	5
2026-02-12	16:42:56.450	46.55	-44.45	-138.915	1.327604	-0.60756	0.267912	0.126	0.3465	-0.156	0	854	244	5
2026-02-12	16:42:56.470	94.605	-58.415	-98.665	1.269044	-0.428708	0.338672	0.132	0.327	-0.1545	0	854	244	5
2026-02-12	16:42:56.490	102.27	-63.42	-69.335	1.10288	-0.61976	0.312808	0.141	0.3165	-0.1455	0	854	244	5
2026-02-12	16:42:56.510	83.09	-60.48	-36.96	1.01138	-0.573888	0.444812	0.15	0.309	-0.135	0	854	244	5
2026-02-12	16:42:56.530	38.99	-43.645	-27.58	0.881328	-0.708088	0.504592	0.159	0.291	-0.1035	0	854	244	5
2026-02-12	16:42:56.550	6.895	-29.785	-20.3	0.763476	-0.676856	0.494832	0.147	0.276	-0.09	0	854	244	5
2026-02-12	16:42:56.570	-14.77	-16.275	-15.82	0.69418	-0.652212	0.451888	0.159	0.282	-0.0795	0	854	244	5
2026-02-12	16:42:56.590	-16.03	-5.95	-10.85	0.658068	-0.610732	0.408212	0.147	0.279	-0.0855	0	854	244	5
2026-02-12	16:42:56.610	-3.29	1.68	-2.835	0.666852	-0.567056	0.354776	0.156	0.2925	-0.084	0	872	244	5
2026-02-12	16:42:56.630	13.265	7.735	10.885	0.703696	-0.602192	0.299144	0.15	0.2805	-0.087	0	872	244	5
2026-02-12	16:42:56.650	43.295	10.01	26.67	0.787144	-0.604876	0.261324	0.15	0.279	-0.0885	0	872	244	5
2026-02-12	16:42:56.670	74.935	12.285	45.36	0.891088	-0.586332	0.249368	0.1515	0.282	-0.0855	0	872	244	5
2026-02-12	16:42:56.690	100.94	16.205	66.71	0.995032	-0.559248	0.257664	0.147	0.288	-0.0765	0	872	244	5
2026-02-12	16:42:56.710	121.94	23.59	93.135	1.142408	-0.491172	0.267424	0.1425	0.288	-0.069	0	872	244	5
2026-02-12	16:42:56.730	131.425	34.895	118.23	1.269776	-0.411872	0.2745	0.144	0.288	-0.066	0	872	244	5
2026-02-12	16:42:56.750	129.15	45.08	137.2	1.374452	-0.349164	0.290604	0.111	0.3045	-0.0555	0	872	244	5
2026-02-12	16:42:56.770	115.08	56.98	155.435	1.4518	-0.294508	0.301584	0.102	0.3255	-0.042	0	872	244	5
2026-02-12	16:42:56.790	91.28	67.9	173.915	1.539152	-0.253516	0.317444	0.0915	0.339	-0.0435	0	872	244	5
2026-02-12	16:42:56.810	60.83	78.4	192.15	1.619916	-0.229604	0.313784	0.072	0.3555	-0.039	0	874	260	5
2026-02-12	16:42:56.830	25.41	87.815	208.81	1.680184	-0.212524	0.289872	0.063	0.372	-0.051	0	874	260	5
2026-02-12	16:42:56.850	-9.275	93.135	223.44	1.694336	-0.213744	0.265716	0.063	0.4005	-0.054	0	874	260	5
2026-02-12	16:42:56.870	-37.065	93.17	235.69	1.685064	-0.223504	0.210572	0.0525	0.4215	-0.063	0	874	260	5
2026-02-12	16:42:56.890	-59.885	90.965	247.625	1.67994	-0.305	0.133224	0.042	0.4515	-0.081	0	874	260	5
2026-02-12	16:42:56.910	-69.09	83.895	255.29	1.63236	-0.312076	0.12322	0.042	0.48	-0.1005	0	874	260	5
2026-02-12	16:42:56.930	-64.12	74.34	254.94	1.538176	-0.393572	0.075396	0.0435	0.498	-0.1095	0	874	260	5
2026-02-12	16:42:56.950	-42.315	61.74	248.36	1.407392	-0.357216	0.04636	0.0435	0.498	-0.1095	0	874	260	5
2026-02-12	16:42:56.970	-14.98	48.755	239.68	1.345904	-0.380396	0	0.0585	0.624	-0.129	0	874	260	5
2026-02-12	16:42:56.990	7.14	42	228.62	1.242936	-0.267912	0.015616	0.0645	0.6525	-0.1365	0	874	260	5
2026-02-12	16:42:57.010	15.575	33.46	215.985	1.125572	-0.3294	0.00854	0.0735	0.6825	-0.1455	0	857	264	5
2026-02-12	16:42:57.030	31.675	22.995	200.585	1.073112	-0.28182	0.026108	0.0945	0.714	-0.138	0	857	264	5
2026-02-12	16:42:57.050	40.32	14.385	186.165	0.967704	-0.23912	0.044164	0.1095	0.732	-0.1425	0	857	264	5
2026-02-12	16:42:57.070	43.505	7	169.015	0.922808	-0.227652	0.054168	0.117	0.7425	-0.1455	0	857	264	5
2026-02-12	16:42:57.090	45.43	-0.315	151.55	0.846192	-0.206424	0.06734399	0.1275	0.762	-0.15	0	857	264	5
2026-02-12	16:42:57.110	45.5	-6.965	132.51	0.804712	-0.204716	0.064904	0.1365	0.777	-0.1545	0	857	264	5
2026-02-12	16:42:57.130	43.26	-11.62	114.66	0.747372	-0.187148	0.099308	0.147	0.789	-0.1575	0	857	264	5
2026-02-12	16:42:57.150	41.51	-17.78	86.695	0.648308	-0.161284	0.130052	0.153	0.7935	-0.159	0	857	264	5
2026-02-12	16:42:57.170	40.6	-21.525	66.08	0.607316	-0.174216	0.156892	0.153	0.7935	-0.159	0	857	264	5
2026-02-12	16:42:57.190	40.075	-25.445	45.15	0.558028	-0.143472	0.196908	0.177	0.8085	-0.1725	0	857	264	5
2026-02-12	16:42:57.210	34.615	-30.065	21.595	0.526308	-0.144936	0.211304	0.1845	0.819	-0.1635	0	823	241	5
2026-02-12	16:42:57.230	28.245	-33.775	-2.205	0.520208	-0.150304	0.218624	0.1875	0.816	-0.1605	0	823	241	5
2026-02-12	16:42:57.250	20.58	-35.805	-27.545	0.50874	-0.15006	0.244244	0.1725	0.8115	-0.162	0	823	241	5
2026-02-12	16:42:57.270	11.55	-39.2	-53.83	0.541436	-0.169824	0.282064	0.168	0.81	-0.1665	0	823	241	5
2026-02-12	16:42:57.290	3.815	-40.635	-80.605	0.537044	-0.18178	0.313052	0.1635	0.8085	-0.1635	0	823	241	5
2026-02-12	16:42:57.310	-0.105	-43.75	-108.64	0.604876	-0.211792	0.33062	0.153	0.807	-0.156	0	823	241	5
2026-02-12	16:42:57.330	-5.145	-46.585	-137.445	0.659776	-0.21716	0.340624	0.147	0.795	-0.153	0	823	241	5
2026-02-12	16:42:57.350	-9.8	-48.79	-166.32	0.742248	-0.236436	0.3416	0.135	0.777	-0.147	0	823	241	5
2026-02-12	16:42:57.370	-25.025	-50.505	-209.335	0.938668	-0.273524	0.335744	0.123	0.7695	-0.141	0	823	241	5
2026-02-12	16:42:57.390	-36.89	-46.095	-233.905	1.062864	-0.266692	0.343796	0.099	0.7275	-0.1275	0	823	241	5
2026-02-12	16:42:57.410	-47.53	-41.16	-257.04	1.220488	-0.301584	0.395524	0.0855	0.7005	-0.1155	0	781	225	3
2026-02-12	16:42:57.430	-58.8	-35.245	-273.945	1.391532	-0.37698	0.439688	0.0735	0.678	-0.114	0	781	225	3
2026-02-12	16:42:57.450	-68.53	-29.575	-285.495	1.529636	-0.354288	0.468236	0.069	0.639	-0.12	0	781	225	3
2026-02-12	16:42:57.470	-98	-21.07	-289.065	1.692628	-0.460184	0.368684	0.045	0.603	-0.114	0	781	225	3
2026-02-12	16:42:57.490	-127.19	-7.315	-284.445	1.571604	-0.397232	0.459208	0.045	0.5685	-0.12	0	781	225	3
2026-02-12	16:42:57.510	-145.565	-2.555	-270.165	1.580388	-0.567544	0.3416	0.0435	0.5445	-0.1185	0	781	225	3
2026-02-12	16:42:57.530	-126.77	0.175	-248.955	1.544764	-0.459696	0.347944	0.042	0.5055	-0.1155	0	781	225	3
2026-02-12	16:42:57.550	-111.09	6.23	-225.4	1.408612	-0.599752	0.316468	0.048	0.4755	-0.1155	0	781	225	3
2026-02-12	16:42:57.570	-66.815	6.405	-189.84	1.262456	-0.59902	0.27328	0.057	0.4515	-0.1215	0	781	225	3
2026-02-12	16:42:57.590	-18.375	-1.05	-148.855	1.136308	-0.548512	0.18788	0.0615	0.4395	-0.126	0	781	225	3
2026-02-12	16:42:57.610	9.8	-10.325	-117.25	1.091168	-0.497272	0.164944	0.084	0.4035	-0.1275	0	735	236	3
2026-02-12	16:42:57.630	24.605	-16.765	-90.02	1.07726	-0.439688	0.196176	0.084	0.3915	-0.117	0	735	236	3
2026-02-12	16:42:57.650	22.05	-20.685	-66.605	1.045784	-0.446764	0.214476	0.084	0.375	-0.117	0	735	236	3
2026-02-12	16:42:57.670	14.665	-20.895	-48.51	1.010892	-0.411872	0.244244	0.102	0.3675	-0.12	0	735	236	3
2026-02-12	16:42:57.690	-2.24	-17.92	-34.265	0.955504	-0.430416	0.271328	0.102	0.354	-0.108	0	735	236	3
2026-02-12	16:42:57.710	-18.27	-14.77	-23.485	0.9089	-0.469212	0.278404	0.096	0.354	-0.1035	0	735	236	3
2026-02-12	16:42:57.730	-25.62	-12.005	-15.015	0.871568	-0.489708	0.296704	0.1005	0.354	-0.108	0	735	236	3
2026-02-12	16:42:57.750	-27.09	-10.255	-6.965	0.854244	-0.518012	0.310368	0.1065	0.3525	-0.1065	0	735	236	3
2026-02-12	16:42:57.770	-21.56	-9.17	2.17	0.844728	-0.532652	0.310124	0.102	0.3495	-0.1095	0	735	236	3
2026-02-12	16:42:57.790	-4.725	-9.66	15.365	0.862052	-0.521184	0.306708	0.096	0.348	-0.117	0	735	236	3
2026-02-12	16:42:55.810	97.895	69.475	513.8	2.769888	-0.605364	0.329888	0.075	0.6345	-0.1725	0	794	302	3
2026-02-12	16:42:55.830	93.485	90.37	508.165	2.1655	-0.71126	0.374784	0.102	0.693	-0.1875	0	794	302	3
2026-02-12	16:42:55.850	121.695	97.51	483.7	1.982988	-0.455304	0.363316	0.138	0.7395	-0.198	0	794	302	3
2026-02-12	16:42:55.870	126.84	118.825	435.715	1.203164	-0.176168	0.31476	0.1605	0.7575	-0.204	0	794	302	3
2026-02-12	16:42:55.890	108.745	122.08	393.995	1.025532	-0.115656	0.186416	0.2565	0.828	-0.2385	0	794	302	3
2026-02-12	16:42:55.910	99.575	121.975	353.185	0.775432	-0.081984	0.161284	0.3135	0.843	-0.261	0	794	302	3
2026-02-12	16:42:55.930	99.61	115.815	302.05	0.675636	-0.015372	0.223016	0.36	0.8445	-0.2715	0	794	302	3
2026-02-12	16:42:55.950	87.71	106.925	250.285	0.726632	0.161772	0.17324	0.4065	0.843	-0.285	0	794	302	3
2026-02-12	16:42:55.970	67.305	103.005	230.02	0.363316	0.295972	0.099308	0.4455	0.8385	-0.297	0	794	302	3
2026-02-12	16:42:55.990	47.565	85.365	184.03	0.267912	0.49044	-0.016836	0.477	0.837	-0.2985	0	794	302	3
2026-02-12	16:42:56.010	12.39	67.165	131.215	0.082716	0.66978	-0.137372	0.4935	0.831	-0.303	0	813	300	5
2026-02-12	16:42:56.030	-16.24	42.07	70.14	-0.030988	0.72956	-0.17324	0.5145	0.828	-0.309	0	813	300	5
2026-02-12	16:42:56.050	-27.72	12.425	4.55	0.000976	0.659044	-0.092964	0.525	0.8325	-0.3075	0	813	300	5
2026-02-12	16:42:56.070	-31.01	-19.39	-76.475	0.087596	0.558516	0.041236	0.5295	0.8355	-0.306	0	813	300	5
2026-02-12	16:42:56.090	-39.655	-46.795	-150.535	0.18178	0.414068	0.095892	0.5295	0.8355	-0.306	0	813	300	5
2026-02-12	16:42:56.110	-48.44	-64.82	-203.875	0.262788	0.24156	0.10248	0.498	0.84	-0.2925	0	813	300	5
2026-02-12	16:42:56.130	-56.385	-84.14	-250.39	0.383324	0.123464	0.103944	0.48	0.846	-0.297	0	813	300	5
2026-02-12	16:42:56.150	-68.635	-100.205	-292.88	0.540216	0.00122	0.087596	0.438	0.852	-0.291	0	813	300	5
2026-02-12	16:42:56.170	-66.43	-111.195	-333.025	0.708576	-0.150792	0.11102	0.402	0.8475	-0.2685	0	813	300	5
2026-02-12	16:42:56.190	-48.195	-125.02	-370.335	0.978196	-0.453596	0.150792	0.345	0.8475	-0.2655	0	813	300	5
2026-02-12	16:42:56.210	-13.79	-140.77	-398.86	1.243668	-0.673196	0.179828	0.3255	0.843	-0.261	0	833	272	5
2026-02-12	16:42:56.230	20.335	-164.71	-424.06	1.365424	-0.379176	0.204472	0.279	0.825	-0.249	0	833	272	5
2026-02-12	16:42:56.250	13.195	-189.665	-451.08	1.8361	-0.205692	0.172508	0.222	0.792	-0.2385	0	833	272	5
2026-02-12	16:42:56.270	-12.285	-203.035	-472.29	2.297016	-0.200568	0.19032	0.1695	0.7515	-0.225	0	833	272	5
2026-02-12	16:42:56.290	-63.245	-205.065	-497.63	3.114172	-0.205692	0.34282	0.1455	0.729	-0.213	0	833	272	5
2026-02-12	16:42:56.310	-131.005	-176.89	-499.415	3.490176	-0.365024	0.564128	0.1455	0.729	-0.213	0	833	272	5
2026-02-12	16:42:56.330	-211.225	-121.625	-480.9	3.466508	-1.067988	0.299388	0.0645	0.561	-0.1515	0	833	272	5
2026-02-12	16:42:56.350	-221.06	-40.355	-445.165	2.589816	-0.738344	0.183488	0.0555	0.4965	-0.1335	0	833	272	5
2026-02-12	16:42:56.370	-222.145	-27.79	-387.275	2.517104	-0.887184	0.147132	0.0675	0.4545	-0.126	0	833	272	5
2026-02-12	16:42:56.390	-181.86	-4.025	-326.935	1.888804	-1.000156	0.31476	0.075	0.399	-0.1425	0	833	272	5
2026-02-12	16:42:56.410	-119.315	-4.06	-257.985	1.510116	-0.88816	0.310124	0.105	0.384	-0.147	0	854	244	5
2026-02-12	16:42:56.430	-42.875	-20.055	-192.57	1.358348	-0.665876	0.269376	0.1125	0.3735	-0.153	0	854	244	5
2026-02-12	16:42:56.450	46.55	-44.45	-138.915	1.327604	-0.60756	0.267912	0.126	0.3465	-0.156	0	854	244	5
2026-02-12	16:42:56.470	94.605	-58.415	-98.665	1.269044	-0.428708	0.338672	0.132	0.327	-0.1545	0	854	244	5
2026-02-12	16:42:56.490	102.27	-63.42	-69.335	1.10288	-0.61976	0.312808	0.141	0.3165	-0.1455	0	854	244	5
2026-02-12	16:42:56.510	83.09	-60.48	-36.96	1.01138	-0.573888	0.444812	0.15	0.309	-0.135	0	854	244	5
2026-02-12	16:42:56.530	38.99	-43.645	-27.58	0.881328	-0.708088	0.504592	0.159	0.291	-0.1035	0	854	244	5
2026-02-12	16:42:56.550	6.895	-29.785	-20.3	0.763476	-0.676856	0.494832	0.147	0.276	-0.09	0	854	244	5
2026-02-12	16:42:56.570	-14.77	-16.275	-15.82	0.69418	-0.652212	0.451888	0.159	0.282	-0.0795	0	854	244	5
2026-02-12	16:42:56.590	-16.03	-5.95	-10.85	0.658068	-0.610732	0.408212	0.147	0.279	-0.0855	0	854	244	5
2026-02-12	16:42:56.610	-3.29	1.68	-2.835	0.666852	-0.567056	0.354776	0.156	0.2925	-0.084	0	872	244	5
2026-02-12	16:42:56.630	13.265	7.735	10.885	0.703696	-0.602192	0.299144	0.15	0.2805	-0.087	0	872	244	5
2026-02-12	16:42:56.650	43.295	10.01	26.67	0.787144	-0.604876	0.261324	0.15	0.279	-0.0885	0	872	244	5
2026-02-12	16:42:56.670	74.935	12.285	45.36	0.891088	-0.586332	0.249368	0.1515	0.282	-0.0855	0	872	244	5
2026-02-12	16:42:56.690	100.94	16.205	66.71	0.995032	-0.559248	0.257664	0.147	0.288	-0.0765	0	872	244	5
2026-02-12	16:42:56.710	121.94	23.59	93.135	1.142408	-0.491172	0.267424	0.1425	0.288	-0.069	0	872	244	5
2026-02-12	16:42:56.730	131.425	34.895	118.23	1.269776	-0.411872	0.2745	0.144	0.288	-0.066	0	872	244	5
2026-02-12	16:42:56.750	129.15	45.08	137.2	1.374452	-0.349164	0.290604	0.111	0.3045	-0.0555	0	872	244	5
2026-02-12	16:42:56.770	115.08	56.98	155.435	1.4518	-0.294508	0.301584	0.102	0.3255	-0.042	0	872	244	5
2026-02-12	16:42:56.790	91.28	67.9	173.915	1.539152	-0.253516	0.317444	0.0915	0.339	-0.0435	0	872	244	5
2026-02-12	16:42:56.810	60.83	78.4	192.15	1.619916	-0.229604	0.313784	0.072	0.3555	-0.039	0	874	260	5
2026-02-12	16:42:56.830	25.41	87.815	208.81	1.680184	-0.212524	0.289872	0.063	0.372	-0.051	0	874	260	5
2026-02-12	16:42:56.850	-9.275	93.135	223.44	1.694336	-0.213744	0.265716	0.063	0.4005	-0.054	0	874	260	5
2026-02-12	16:42:56.870	-37.065	93.17	235.69	1.685064	-0.223504	0.210572	0.0525	0.4215	-0.063	0	874	260	5
2026-02-12	16:42:56.890	-59.885	90.965	247.625	1.67994	-0.305	0.133224	0.042	0.4515	-0.081	0	874	260	5
2026-02-12	16:42:56.910	-69.09	83.895	255.29	1.63236	-0.312076	0.12322	0.042	0.48	-0.1005	0	874	260	5
2026-02-12	16:42:56.930	-64.12	74.34	254.94	1.538176	-0.393572	0.075396	0.0435	0.498	-0.1095	0	874	260	5
2026-02-12	16:42:56.950	-42.315	61.74	248.36	1.407392	-0.357216	0.04636	0.0435	0.498	-0.1095	0	874	260	5
2026-02-12	16:42:56.970	-14.98	48.755	239.68	1.345904	-0.380396	0	0.0585	0.624	-0.129	0	874	260	5
2026-02-12	16:42:56.990	7.14	42	228.62	1.242936	-0.267912	0.015616	0.0645	0.6525	-0.1365	0	874	260	5
2026-02-12	16:42:57.010	15.575	33.46	215.985	1.125572	-0.3294	0.00854	0.0735	0.6825	-0.1455	0	857	264	5
2026-02-12	16:42:57.030	31.675	22.995	200.585	1.073112	-0.28182	0.026108	0.0945	0.714	-0.138	0	857	264	5
2026-02-12	16:42:57.050	40.32	14.385	186.165	0.967704	-0.23912	0.044164	0.1095	0.732	-0.1425	0	857	264	5
2026-02-12	16:42:57.070	43.505	7	169.015	0.922808	-0.227652	0.054168	0.117	0.7425	-0.1455	0	857	264	5
2026-02-12	16:42:57.090	45.43	-0.315	151.55	0.846192	-0.206424	0.06734399	0.1275	0.762	-0.15	0	857	264	5
2026-02-12	16:42:57.110	45.5	-6.965	132.51	0.804712	-0.204716	0.064904	0.1365	0.777	-0.1545	0	857	264	5
2026-02-12	16:42:57.130	43.26	-11.62	114.66	0.747372	-0.187148	0.099308	0.147	0.789	-0.1575	0	857	264	5
2026-02-12	16:42:57.150	41.51	-17.78	86.695	0.648308	-0.161284	0.130052	0.153	0.7935	-0.159	0	857	264	5
2026-02-12	16:42:57.170	40.6	-21.525	66.08	0.607316	-0.174216	0.156892	0.153	0.7935	-0.159	0	857	264	5
2026-02-12	16:42:57.190	40.075	-25.445	45.15	0.558028	-0.143472	0.196908	0.177	0.8085	-0.1725	0	857	264	5
2026-02-12	16:42:57.210	34.615	-30.065	21.595	0.526308	-0.144936	0.211304	0.1845	0.819	-0.1635	0	823	241	5
2026-02-12	16:42:57.230	28.245	-33.775	-2.205	0.520208	-0.150304	0.218624	0.1875	0.816	-0.1605	0	823	241	5
2026-02-12	16:42:57.250	20.58	-35.805	-27.545	0.50874	-0.15006	0.244244	0.1725	0.8115	-0.162	0	823	241	5
2026-02-12	16:42:57.270	11.55	-39.2	-53.83	0.541436	-0.169824	0.282064	0.168	0.81	-0.1665	0	823	241	5
2026-02-12	16:42:57.290	3.815	-40.635	-80.605	0.537044	-0.18178	0.313052	0.1635	0.8085	-0.1635	0	823	241	5
2026-02-12	16:42:57.310	-0.105	-43.75	-108.64	0.604876	-0.211792	0.33062	0.153	0.807	-0.156	0	823	241	5
2026-02-12	16:42:57.330	-5.145	-46.585	-137.445	0.659776	-0.21716	0.340624	0.147	0.795	-0.153	0	823	241	5
2026-02-12	16:42:57.350	-9.8	-48.79	-166.32	0.742248	-0.236436	0.3416	0.135	0.777	-0.147	0	823	241	5
2026-02-12	16:42:57.370	-25.025	-50.505	-209.335	0.938668	-0.273524	0.335744	0.123	0.7695	-0.141	0	823	241	5
2026-02-12	16:42:57.390	-36.89	-46.095	-233.905	1.062864	-0.266692	0.343796	0.099	0.7275	-0.1275	0	823	241	5
2026-02-12	16:42:57.410	-47.53	-41.16	-257.04	1.220488	-0.301584	0.395524	0.0855	0.7005	-0.1155	0	781	225	3
2026-02-12	16:42:57.430	-58.8	-35.245	-273.945	1.391532	-0.37698	0.439688	0.0735	0.678	-0.114	0	781	225	3
2026-02-12	16:42:57.450	-68.53	-29.575	-285.495	1.529636	-0.354288	0.468236	0.069	0.639	-0.12	0	781	225	3
2026-02-12	16:42:57.470	-98	-21.07	-289.065	1.692628	-0.460184	0.368684	0.045	0.603	-0.114	0	781	225	3
2026-02-12	16:42:57.490	-127.19	-7.315	-284.445	1.571604	-0.397232	0.459208	0.045	0.5685	-0.12	0	781	225	3
2026-02-12	16:42:57.510	-145.565	-2.555	-270.165	1.580388	-0.567544	0.3416	0.0435	0.5445	-0.1185	0	781	225	3
2026-02-12	16:42:57.530	-126.77	0.175	-248.955	1.544764	-0.459696	0.347944	0.042	0.5055	-0.1155	0	781	225	3
2026-02-12	16:42:57.550	-111.09	6.23	-225.4	1.408612	-0.599752	0.316468	0.048	0.4755	-0.1155	0	781	225	3
2026-02-12	16:42:57.570	-66.815	6.405	-189.84	1.262456	-0.59902	0.27328	0.057	0.4515	-0.1215	0	781	225	3
2026-02-12	16:42:57.590	-18.375	-1.05	-148.855	1.136308	-0.548512	0.18788	0.0615	0.4395	-0.126	0	781	225	3
2026-02-12	16:43:31.610	-10.92	-12.88	-37.03	0.793732	-0.224968	0.326716	0.033	0.5145	0.1215	0	349	37	3
2026-02-12	16:43:31.630	-31.08	-11.34	-38.045	0.806908	-0.270108	0.348188	0.0315	0.5055	0.129	0	349	37	3
2026-02-12	16:43:31.650	-44.835	-9.975	-37.66	0.818864	-0.30988	0.341112	0.0345	0.51	0.1245	0	349	37	3
2026-02-12	16:43:31.670	-48.825	-10.115	-34.685	0.816424	-0.336476	0.323544	0.033	0.501	0.1245	0	349	37	3
2026-02-12	16:43:31.690	-46.69	-11.095	-30.03	0.81496	-0.354776	0.317444	0.0345	0.489	0.123	0	349	37	3
2026-02-12	16:43:31.710	-40.075	-12.425	-24.29	0.804956	-0.3599	0.313784	0.0375	0.4845	0.123	0	349	37	3
2026-02-12	16:43:31.730	-33.985	-14.07	-18.9	0.803492	-0.342088	0.303536	0.0345	0.4815	0.12	0	349	37	3
2026-02-12	16:43:31.750	-30.31	-16.17	-14.525	0.8235	-0.341112	0.293288	0.036	0.477	0.12	0	349	37	3
2026-02-12	16:43:31.770	-26.355	-18.13	-10.675	0.859368	-0.32818	0.2806	0.0345	0.4695	0.1245	0	349	37	3
2026-02-12	16:43:31.790	-23.03	-19.6	-5.495	0.914512	-0.289628	0.241804	0.033	0.4665	0.1245	0	349	37	3
2026-02-12	16:43:31.810	-24.675	-22.4	-0.385	1.066768	-0.25742	0.185196	0.039	0.4695	0.123	0	324	76	3
2026-02-12	16:43:31.830	-25.305	-25.585	0.63	1.286368	-0.268888	0.18666	0.048	0.4665	0.1305	0	324	76	3
2026-02-12	16:43:31.850	-18.025	-26.635	-0.21	1.596004	-0.3355	0.200568	0.0345	0.465	0.135	0	324	76	3
2026-02-12	16:43:31.870	-4.235	-18.935	-2.52	1.776564	-0.35624	0.1952	0.033	0.462	0.1365	0	324	76	3
2026-02-12	16:43:31.890	7.14	-5.285	0.175	1.783396	-0.336476	0.124684	0.039	0.462	0.141	0	324	76	3
2026-02-12	16:43:31.910	8.925	10.395	9.1	1.533784	-0.186904	-0.023668	0.042	0.4635	0.1425	0	324	76	3
2026-02-12	16:43:31.930	0.42	17.535	23.345	1.274412	-0.075884	-0.149328	0.036	0.468	0.1455	0	324	76	3
2026-02-12	16:43:31.950	-8.4	14.49	41.195	0.951356	0.00854	-0.177632	0.033	0.471	0.144	0	324	76	3
2026-02-12	16:43:31.970	-11.585	-0.77	59.15	0.743712	0.095648	-0.110776	0.0315	0.474	0.1365	0	324	76	3
2026-02-12	16:43:31.990	-8.33	-19.075	72.415	0.698084	0.056364	-0.011224	0.0285	0.48	0.132	0	324	76	3
2026-02-12	16:43:32.010	6.335	-33.285	79.835	0.819108	-0.038552	0.112728	0.027	0.4815	0.132	0	306	109	3
2026-02-12	16:43:32.030	15.505	-29.33	78.645	0.910608	-0.152012	0.081984	0.027	0.4815	0.132	0	306	109	3
2026-02-12	16:43:32.050	28.035	-20.825	72.345	0.974292	-0.124196	-0.009272	0.0345	0.5265	0.144	0	306	109	3
2026-02-12	16:43:32.070	35.245	-11.34	63.84	0.97112	-0.162992	-0.117608	0.0285	0.543	0.156	0	306	109	3
2026-02-12	16:43:32.090	48.79	-5.845	52.57	0.987712	-0.090036	-0.162748	0.0315	0.5445	0.1515	0	306	109	3
2026-02-12	16:43:32.110	56.63	1.995	40.145	0.985272	-0.123708	-0.166652	0.033	0.5505	0.1455	0	306	109	3
2026-02-12	16:43:32.130	62.16	7.385	28.875	1.018944	0.00244	-0.114924	0.0345	0.561	0.147	0	306	109	3
2026-02-12	16:43:32.150	46.69	10.045	20.16	1.01626	0.0061	-0.074664	0.036	0.5625	0.147	0	306	109	3
2026-02-12	16:43:32.170	29.715	9.66	17.745	1.017968	-0.09272	-0.069052	0.0315	0.567	0.1425	0	306	109	3
2026-02-12	16:43:32.190	11.375	8.785	15.75	1.0004	-0.08052	-0.077592	0.03	0.5775	0.138	0	306	109	3
2026-02-12	16:43:32.210	-5.215	7.175	14.49	0.987712	-0.149572	-0.124196	0.03	0.579	0.1365	0	297	102	3
2026-02-12	16:43:32.230	-1.33	1.295	12.005	0.984052	-0.176656	-0.127612	0.0285	0.579	0.1365	0	297	102	3
2026-02-12	16:43:32.250	6.3	-1.295	10.5	0.995764	-0.209596	-0.104188	0.039	0.5745	0.1275	0	297	102	3
2026-02-12	16:43:32.270	15.61	-2.66	9.59	0.9882	-0.209108	-0.092232	0.033	0.5835	0.132	0	297	102	3
2026-02-12	16:43:32.290	23.905	-3.57	7.63	0.990396	-0.182268	-0.08418	0.033	0.5865	0.1335	0	297	102	3
2026-02-12	16:43:32.310	27.475	-3.78	4.55	0.991128	-0.172996	-0.074664	0.036	0.5865	0.1335	0	297	102	3
2026-02-12	16:43:32.330	26.81	-3.5	0.42	0.993812	-0.185684	-0.054412	0.0375	0.585	0.132	0	297	102	3
2026-02-12	16:43:32.350	21.28	-1.925	-3.64	0.99552	-0.217648	-0.031232	0.0375	0.588	0.1335	0	297	102	3
2026-02-12	16:43:32.370	16.31	-0.595	-6.16	0.984784	-0.250832	-0.021228	0.0375	0.591	0.132	0	297	102	3
2026-02-12	16:43:32.390	14.595	0.42	-7.49	0.96746	-0.267912	-0.0183	0.036	0.588	0.129	0	297	102	3
2026-02-12	16:43:32.410	15.54	0.455	-8.82	0.971852	-0.27938	-0.001952	0.0375	0.5895	0.132	0	289	68	2
2026-02-12	16:43:32.430	19.32	0.525	-10.465	0.984296	-0.29036	0.012932	0.0405	0.591	0.135	0	289	68	2
2026-02-12	16:43:32.450	22.225	1.82	-12.32	0.996984	-0.29768	0.034892	0.042	0.588	0.1335	0	289	68	2
2026-02-12	16:43:32.470	21.945	3.395	-14.105	0.99308	-0.292312	0.048312	0.048	0.5925	0.1305	0	289	68	2
2026-02-12	16:43:32.490	17.745	5.88	-16.17	1.002352	-0.279868	0.058316	0.0375	0.5835	0.12	0	289	68	2
2026-02-12	16:43:32.510	12.6	7.77	-17.675	0.994544	-0.264984	0.061	0.039	0.585	0.123	0	289	68	2
2026-02-12	16:43:32.530	5.53	9.73	-19.6	1.018212	-0.262056	0.057828	0.0435	0.585	0.1305	0	289	68	2
2026-02-12	16:43:32.550	-4.235	12.915	-20.65	1.02968	-0.24156	0.056364	0.0465	0.582	0.1275	0	289	68	2
2026-02-12	16:43:32.570	-12.495	15.82	-21.875	1.03456	-0.21472	0.057584	0.0465	0.579	0.12	0	289	68	2
2026-02-12	16:43:32.590	-18.9	18.095	-23.275	1.050176	-0.195688	0.054168	0.0375	0.573	0.12	0	289	68	2
2026-02-12	16:43:32.610	-22.47	19.775	-24.605	1.051884	-0.173972	0.060268	0.0345	0.567	0.117	0	278	40	2
2026-02-12	16:43:32.630	-26.075	21.84	-25.13	1.01016	-0.160064	0.06222	0.036	0.5625	0.111	0	278	40	2
2026-02-12	16:43:32.650	-29.855	25.34	-24.08	0.948916	-0.13054	0.068076	0.033	0.561	0.108	0	278	40	2
2026-02-12	16:43:32.670	-26.565	26.46	-21.315	0.94184	-0.101992	0.059536	0.033	0.561	0.108	0	278	40	2
2026-02-12	16:43:32.690	-23.52	28.77	-18.9	0.96258	-0.056608	0.070516	0.0345	0.555	0.0975	0	278	40	2
2026-02-12	16:43:32.710	-26.67	31.255	-19.81	1.078236	-0.09467199	0.039284	0.0315	0.552	0.0945	0	278	40	2
2026-02-12	16:43:32.730	-29.995	32.48	-24.815	1.199748	-0.093208	0.021716	0.0315	0.549	0.093	0	278	40	2
2026-02-12	16:43:32.750	-43.785	35.805	-29.365	1.12118	-0.096624	0.033672	0.0345	0.543	0.093	0	278	40	2
2026-02-12	16:43:32.770	-59.15	33.985	-30.59	0.98942	-0.08174	0.048312	0.0345	0.534	0.0885	0	278	40	2
2026-02-12	16:43:32.790	-72.835	25.41	-30.03	0.962824	-0.12322	0.088816	0.0315	0.522	0.081	0	278	40	2
2026-02-12	16:43:32.810	-81.585	14.875	-28.91	0.969412	-0.17934	0.1403	0.0255	0.5175	0.078	0	265	32	2
2026-02-12	16:43:32.830	-77.98	3.57	-30.03	0.967704	-0.253028	0.183244	0.03	0.513	0.0795	0	265	32	2
2026-02-12	16:43:32.850	-62.93	-5.53	-34.16	0.91012	-0.327692	0.213012	0.036	0.5085	0.078	0	265	32	2
2026-02-12	16:43:32.870	-22.47	-14.385	-42	0.72224	-0.378932	0.227896	0.036	0.51	0.072	0	265	32	2
2026-02-12	16:43:32.890	9.31	-19.425	-45.36	0.616588	-0.342088	0.223016	0.033	0.486	0.0765	0	265	32	2
2026-02-12	16:43:32.910	36.75	-23.94	-47.46	0.580964	-0.29646	0.216916	0.0345	0.486	0.078	0	265	32	2
2026-02-12	16:43:32.930	51.8	-26.705	-48.37	0.587064	-0.264252	0.222284	0.0405	0.4845	0.078	0	265	32	2
2026-02-12	16:43:32.950	53.27	-27.44	-48.195	0.625128	-0.235704	0.240828	0.042	0.4755	0.0795	0	265	32	2
2026-02-12	16:43:32.970	41.93	-26.355	-46.97	0.674172	-0.208864	0.24644	0.0405	0.471	0.0885	0	265	32	2
2026-02-12	16:43:32.990	21.455	-24.815	-45.325	0.732	-0.204228	0.24888	0.0465	0.4665	0.096	0	265	32	2
2026-02-12	16:43:33.010	-2.45	-24.22	-43.365	0.782264	-0.21472	0.23912	0.051	0.4635	0.1005	0	252	48	2
2026-02-12	16:43:33.030	-23.765	-24.605	-40.6	0.820084	-0.242536	0.2318	0.057	0.459	0.108	0	252	48	2
2026-02-12	16:43:33.050	-35.385	-26.075	-36.61	0.833748	-0.28792	0.252052	0.0615	0.45	0.108	0	252	48	2
2026-02-12	16:43:33.070	-40.11	-27.79	-27.965	0.89304	-0.308172	0.244732	0.063	0.4455	0.1065	0	252	48	2
2026-02-12	16:43:33.090	-33.46	-31.605	-18.865	1.158512	-0.351848	0.218868	0.0645	0.444	0.108	0	252	48	2
2026-02-12	16:43:33.110	-8.96	-34.3	-15.505	1.600884	-0.447252	0.24766	0.0705	0.435	0.1035	0	252	48	2
2026-02-12	16:43:33.130	26.46	-26.18	-13.65	1.858792	-0.430172	0.253272	0.069	0.4335	0.105	0	252	48	2
2026-02-12	16:43:33.150	53.515	-11.655	-6.405	1.960052	-0.351848	0.169092	0.072	0.4335	0.108	0	252	48	2
2026-02-12	16:43:33.170	64.89	5.425	8.015	1.806576	-0.184464	0.028548	0.075	0.4335	0.1155	0	252	48	2
2026-02-12	16:43:33.190	60.55	17.29	26.6	1.507676	-0.031476	-0.114924	0.072	0.4335	0.123	0	252	48	2
2026-02-12	16:43:33.210	44.345	16.835	47.25	1.202432	0.166408	-0.130296	0.0735	0.4365	0.123	0	245	79	3
2026-02-12	16:43:33.230	20.65	6.3	66.29	0.96014	0.245464	0	0.078	0.444	0.123	0	245	79	3
2026-02-12	16:43:33.250	3.78	-6.755	75.81	0.864004	0.149572	0.138592	0.0765	0.45	0.1275	0	245	79	3
2026-02-12	16:43:33.270	-5.67	-11.655	79.135	0.84302	0.011712	0.203984	0.069	0.462	0.1275	0	245	79	3
2026-02-12	16:43:33.290	-9.205	-1.75	75.495	0.819352	-0.070516	0.083936	0.066	0.471	0.126	0	245	79	3
2026-02-12	16:43:33.310	-4.585	7.14	65.695	0.817888	-0.087596	-0.043188	0.066	0.471	0.126	0	245	79	3
2026-02-12	16:43:33.330	10.045	12.6	53.69	0.8235	-0.09272	-0.143228	0.0675	0.483	0.126	0	245	79	3
2026-02-12	16:43:33.350	33.6	15.435	43.54	0.82716	-0.070516	-0.150792	0.0675	0.498	0.1245	0	245	79	3
2026-02-12	16:43:33.370	51.73	14.245	36.365	0.911584	-0.020008	-0.135908	0.063	0.501	0.1215	0	245	79	3
2026-02-12	16:43:33.390	52.99	14.735	32.76	0.975024	-0.027084	-0.119804	0.066	0.501	0.1185	0	245	79	3
2026-02-12	16:43:33.410	46.795	14.7	31.5	0.998448	-0.026108	-0.1159	0.0705	0.513	0.1185	0	247	90	3
2026-02-12	16:43:33.430	36.47	13.58	31.36	1.027484	-0.044652	-0.125416	0.072	0.5235	0.117	0	247	90	3
2026-02-12	16:43:33.450	26.46	11.97	32.375	1.01992	-0.066124	-0.14518	0.0705	0.525	0.114	0	247	90	3
2026-02-12	16:43:33.470	21.665	8.365	31.99	1.047004	-0.092476	-0.163724	0.0675	0.5325	0.1095	0	247	90	3
2026-02-12	16:43:33.490	22.82	4.935	31.71	1.072624	-0.137372	-0.159088	0.066	0.534	0.1065	0	247	90	3
2026-02-12	16:43:33.510	28.735	2.03	31.08	1.070184	-0.163236	-0.131516	0.0645	0.5355	0.108	0	247	90	3
2026-02-12	16:43:33.530	29.54	0.77	31.71	1.048468	-0.168604	-0.11102	0.0675	0.543	0.1095	0	247	90	3
2026-02-12	16:43:33.550	29.54	-1.295	31.99	1.019676	-0.163968	-0.097844	0.0705	0.5475	0.108	0	247	90	3
2026-02-12	16:43:33.570	28.315	-3.01	31.325	0.997716	-0.184952	-0.083204	0.072	0.555	0.1095	0	247	90	3
2026-02-12	16:43:33.590	25.48	-5.04	30.905	0.990884	-0.204716	-0.05978	0.0705	0.564	0.111	0	247	90	3
2026-02-12	16:43:33.610	19.915	-5.635	30.73	0.986248	-0.256688	-0.046116	0.0705	0.573	0.111	0	252	66	3
2026-02-12	16:43:33.630	17.92	-6.23	29.82	0.987956	-0.2989	-0.027084	0.072	0.5745	0.111	0	252	66	3
2026-02-12	16:43:33.650	19.915	-6.545	29.715	0.99064	-0.29646	-0.010004	0.0735	0.582	0.1125	0	252	66	3
2026-02-12	16:43:33.670	20.51	-6.09	29.68	0.97112	-0.305976	-0.004392	0.075	0.5895	0.1155	0	252	66	3
2026-02-12	16:43:33.690	23.31	-5.985	29.05	0.96014	-0.316224	0.00366	0.072	0.594	0.117	0	252	66	3
2026-02-12	16:43:33.710	26.565	-6.965	27.65	0.954528	-0.31598	0.017324	0.0765	0.5925	0.1215	0	252	66	3
2026-02-12	16:43:33.730	28.385	-8.085	23.8	0.97112	-0.301096	0.050996	0.081	0.591	0.123	0	252	66	3
2026-02-12	16:43:33.750	27.615	-7.385	18.41	0.987712	-0.305244	0.07905599	0.0825	0.6015	0.1215	0	252	66	3
2026-02-12	16:43:33.770	27.405	-5.705	12.005	0.978196	-0.278404	0.100284	0.084	0.609	0.1245	0	252	66	3
2026-02-12	16:43:33.790	26.04	-4.095	5.74	0.981612	-0.248636	0.109556	0.081	0.6135	0.12	0	252	66	3
2026-02-12	16:43:33.810	22.26	-2.17	-0.805	0.987956	-0.2379	0.113704	0.0795	0.6165	0.1185	0	255	37	3
2026-02-12	16:43:33.830	17.955	0.035	-8.33	1.007232	-0.188856	0.117608	0.078	0.615	0.123	0	255	37	3
2026-02-12	16:43:33.850	11.48	3.15	-16.66	1.026264	-0.147132	0.118828	0.0795	0.612	0.1245	0	255	37	3
2026-02-12	16:43:33.870	2.94	6.79	-25.725	1.064328	-0.107604	0.097844	0.084	0.612	0.126	0	255	37	3
2026-02-12	16:43:33.890	-8.295	10.57	-33.005	1.06628	-0.096868	0.073932	0.0825	0.609	0.1245	0	255	37	3
2026-02-12	16:43:33.910	-21.385	14.105	-37.24	1.021628	-0.064416	0.07198	0.081	0.606	0.123	0	255	37	3
2026-02-12	16:43:33.930	-36.61	17.78	-42.315	0.966972	-0.051728	0.062952	0.0825	0.603	0.123	0	255	37	3
2026-02-12	16:43:33.950	-40.425	18.445	-44.205	0.96746	-0.07564	0.067588	0.0765	0.594	0.1185	0	255	37	3
2026-02-12	16:43:33.970	-37.31	20.58	-47.425	0.955992	-0.093208	0.09516	0.0705	0.585	0.1095	0	255	37	3
2026-02-12	16:43:33.990	-27.405	22.54	-50.925	0.96014	-0.140544	0.097356	0.069	0.5805	0.108	0	255	37	3
2026-02-12	16:43:34.010	-15.855	25.13	-57.505	1.0797	-0.10004	0.062708	0.072	0.5715	0.111	0	253	29	3
2026-02-12	16:43:34.030	-23.275	30.8	-69.265	1.209996	-0.060512	0.009028	0.072	0.5625	0.102	0	253	29	3
2026-02-12	16:43:34.050	-41.825	35.245	-82.46	1.198528	-0.042212	-0.001464	0.0705	0.5535	0.0945	0	253	29	3
2026-02-12	16:43:34.070	-74.76	35.35	-92.05	1.086776	-0.038064	0.005368	0.0705	0.54	0.096	0	253	29	3
2026-02-12	16:43:34.090	-119.07	29.75	-94.815	0.98576	-0.123952	0.045872	0.069	0.5205	0.087	0	253	29	3
2026-02-12	16:43:34.110	-145.915	20.615	-91.805	0.900116	-0.235948	0.106384	0.0675	0.504	0.0795	0	253	29	3
2026-02-12	16:43:34.130	-144.76	5.985	-84.84	0.849608	-0.38308	0.203252	0.0675	0.4965	0.078	0	253	29	3
2026-02-12	16:43:34.150	-85.155	-9.345	-72.765	0.760304	-0.538996	0.284992	0.075	0.4845	0.0735	0	253	29	3
2026-02-12	16:43:34.170	-36.015	-13.545	-64.54	0.715652	-0.519964	0.22936	0.0765	0.4695	0.0735	0	253	29	3
2026-02-12	16:43:34.190	2.415	-16.695	-56.805	0.724924	-0.43554	0.16348	0.0765	0.456	0.072	0	253	29	3
2026-02-12	16:43:34.210	26.32	-19.11	-50.085	0.722484	-0.36966	0.163236	0.0825	0.444	0.069	0	247	38	3
2026-02-12	16:43:34.230	36.225	-21.14	-44.765	0.722484	-0.338672	0.206668	0.0885	0.4425	0.0735	0	247	38	3
2026-02-12	16:43:34.250	32.55	-22.855	-39.55	0.74664	-0.27816	0.276208	0.093	0.438	0.078	0	247	38	3
2026-02-12	16:43:34.270	9.135	-21.98	-33.075	0.767136	-0.283528	0.310856	0.0915	0.432	0.0855	0	247	38	3
2026-02-12	16:43:34.290	-14.42	-22.155	-27.405	0.809592	-0.290604	0.307928	0.093	0.4305	0.0945	0	247	38	3
2026-02-12	16:43:34.310	-30.45	-22.855	-21.77	0.815448	-0.323788	0.27816	0.096	0.4275	0.0915	0	247	38	3
2026-02-12	16:43:34.330	-37.17	-25.83	-16.835	0.830576	-0.349164	0.262544	0.096	0.423	0.0885	0	247	38	3
2026-02-12	16:43:34.350	-30.135	-29.435	-10.15	0.822768	-0.370392	0.259372	0.0945	0.4185	0.0885	0	247	38	3
2026-02-12	16:43:34.370	-10.185	-33.95	-0.42	0.93086	-0.366	0.259616	0.096	0.4155	0.0885	0	247	38	3
2026-02-12	16:43:34.390	15.505	-36.995	6.475	1.247328	-0.330864	0.256688	0.1035	0.414	0.09	0	247	38	3
2026-02-12	16:43:34.410	45.92	-34.09	8.96	1.664324	-0.325496	0.273768	0.102	0.4155	0.0945	0	243	68	3
2026-02-12	16:43:34.430	67.76	-19.565	11.2	1.870504	-0.284504	0.219112	0.0945	0.4215	0.1035	0	243	68	3
2026-02-12	16:43:34.450	64.995	0.875	16.38	1.89222	-0.181536	0.098332	0.096	0.4215	0.114	0	243	68	3
2026-02-12	16:43:34.470	39.83	19.425	25.62	1.762656	-0.095648	-0.0488	0.096	0.423	0.1215	0	243	68	3
2026-02-12	16:43:34.490	21.175	27.79	38.395	1.46278	0.016592	-0.099796	0.0975	0.432	0.117	0	243	68	3
2026-02-12	16:43:34.510	10.325	20.65	54.53	1.14924	0.113948	-0.03782	0.0975	0.4335	0.1095	0	243	68	3
2026-02-12	16:43:34.530	6.055	6.055	69.23	0.937936	0.067832	0.062708	0.09	0.438	0.108	0	243	68	3
2026-02-12	16:43:34.550	8.995	-3.99	77.595	0.896456	-0.028792	0.132492	0.087	0.447	0.108	0	243	68	3
2026-02-12	16:43:34.570	18.095	-2.87	80.255	0.973316	-0.070272	0.08295999	0.084	0.456	0.1125	0	243	68	3
2026-02-12	16:43:34.590	20.965	4.34	76.02	0.948672	-0.038064	-0.02928	0.0795	0.4695	0.1185	0	243	68	3
2026-02-12	16:43:34.610	27.545	10.08	67.655	0.873764	-0.01708	-0.09028	0.078	0.4785	0.114	0	244	93	3
2026-02-12	16:43:34.630	35.21	11.76	59.64	0.81618	-0.050264	-0.123464	0.0735	0.486	0.1095	0	244	93	3
2026-02-12	16:43:34.650	48.79	9.975	51.8	0.850584	0.021716	-0.123464	0.075	0.501	0.108	0	244	93	3
2026-02-12	16:43:34.670	54.005	8.54	47.145	0.881328	0.01098	-0.123464	0.0735	0.5115	0.1065	0	244	93	3
2026-02-12	16:43:34.690	58.45	6.895	43.435	0.930616	0	-0.117852	0.0645	0.5145	0.108	0	244	93	3
2026-02-12	16:43:34.710	57.925	5.81	40.215	0.994544	-0.029036	-0.122976	0.063	0.5205	0.108	0	244	93	3
2026-02-12	16:43:34.730	50.61	5.215	37.695	1.0492	-0.057096	-0.14762	0.063	0.528	0.1095	0	244	93	3
2026-02-12	16:43:34.750	44.17	4.34	35.63	1.068964	-0.09857599	-0.151036	0.0675	0.5355	0.108	0	244	93	3
2026-02-12	16:43:34.770	42	2.765	35.14	1.05774	-0.101016	-0.132248	0.0675	0.5445	0.105	0	244	93	3
2026-02-12	16:43:34.790	40.215	-0.595	35.805	1.020408	-0.148596	-0.112972	0.066	0.546	0.1095	0	244	93	3
2026-02-12	16:43:34.810	41.16	-3.36	35.56	0.989664	-0.178852	-0.095404	0.06	0.5535	0.111	0	250	84	3
2026-02-12	16:43:34.830	41.65	-6.44	34.02	0.98332	-0.180804	-0.07564	0.0555	0.5685	0.1095	0	250	84	3
2026-02-12	16:43:34.850	38.15	-8.505	32.235	0.970144	-0.2257	-0.05734	0.0585	0.579	0.105	0	250	84	3
2026-02-12	16:43:34.870	38.22	-9.87	29.05	0.954284	-0.234972	-0.022692	0.063	0.5805	0.102	0	250	84	3
2026-02-12	16:43:34.890	37.45	-10.64	25.725	0.948916	-0.240096	-0.011468	0.0645	0.585	0.102	0	250	84	3
2026-02-12	16:43:34.910	36.47	-10.29	21.805	0.935984	-0.256444	0.00366	0.063	0.591	0.105	0	250	84	3
2026-02-12	16:43:34.930	37.065	-9.905	17.395	0.944524	-0.277428	-0.002196	0.063	0.5895	0.111	0	250	84	3
2026-02-12	16:43:34.950	37.59	-9.205	12.145	0.9516	-0.26718	0.011468	0.063	0.591	0.1125	0	250	84	3
2026-02-12	16:43:34.970	35.77	-8.61	7.455	0.959652	-0.268644	0.030744	0.0675	0.6	0.108	0	250	84	3
2026-02-12	16:43:34.990	34.405	-6.825	1.61	0.973072	-0.256932	0.058072	0.0645	0.6075	0.108	0	250	84	3
2026-02-12	16:43:35.010	30.59	-4.165	-3.815	0.99552	-0.233508	0.058072	0.057	0.606	0.1095	0	254	54	3
2026-02-12	16:43:35.030	22.54	-1.82	-8.505	1.018944	-0.211792	0.058804	0.057	0.6045	0.111	0	254	54	3
2026-02-12	16:43:35.050	13.895	-0.035	-12.6	1.023824	-0.202764	0.068076	0.063	0.606	0.1125	0	254	54	3
2026-02-12	16:43:35.070	6.965	1.365	-16.31	1.014064	-0.156648	0.072224	0.069	0.609	0.1125	0	254	54	3
2026-02-12	16:43:35.090	-1.505	3.395	-21.525	1.01016	-0.13054	0.057584	0.069	0.606	0.1125	0	254	54	3
2026-02-12	16:43:35.110	-9.66	5.6	-28.175	1.013088	-0.083692	0.059048	0.0645	0.603	0.1155	0	254	54	3
2026-02-12	16:43:35.130	-22.015	8.715	-34.51	0.994056	-0.0854	0.055876	0.066	0.6	0.1125	0	254	54	3
2026-02-12	16:43:35.150	-36.295	12.635	-40.005	0.957456	-0.082716	0.070028	0.072	0.591	0.1095	0	254	54	3
2026-02-12	16:43:35.170	-45.36	15.855	-42.945	0.914024	-0.096136	0.061732	0.069	0.5835	0.1065	0	254	54	3
2026-02-12	16:43:35.190	-45.115	18.41	-44.17	0.854976	-0.043676	0.061976	0.06	0.5775	0.1035	0	254	54	3
2026-02-12	16:43:35.210	-45.08	19.67	-46.095	0.992592	-0.09076799	0.045872	0.0585	0.573	0.102	0	252	36	3
2026-02-12	16:43:35.230	-43.26	19.74	-51.695	1.213168	-0.087596	0.015372	0.0585	0.564	0.099	0	252	36	3
2026-02-12	16:43:35.250	-53.025	21.245	-59.745	1.30052	-0.166164	0.0122	0.0555	0.5535	0.0915	0	252	36	3
2026-02-12	16:43:35.270	-50.295	19.495	-64.05	1.1895	-0.110532	0.070028	0.054	0.543	0.0885	0	252	36	3
2026-02-12	16:43:35.290	-56.42	14.63	-61.425	0.994056	-0.129076	0.09882	0.06	0.5295	0.087	0	252	36	3
2026-02-12	16:43:35.310	-61.46	6.23	-55.265	0.876936	-0.163236	0.116388	0.0585	0.519	0.084	0	252	36	3
2026-02-12	16:43:35.330	-57.575	-4.41	-47.355	0.88938	-0.174216	0.146156	0.0525	0.513	0.0885	0	252	36	3
2026-02-12	16:43:35.350	-48.3	-13.37	-41.055	0.976244	-0.28182	0.207644	0.0495	0.5055	0.087	0	252	36	3
2026-02-12	16:43:35.370	-30.835	-17.255	-37.24	1.013088	-0.306708	0.265716	0.054	0.4935	0.0855	0	252	36	3
2026-02-12	16:43:35.390	-16.45	-16.555	-35.63	0.990152	-0.285236	0.27572	0.0585	0.4905	0.0885	0	252	36	3
2026-02-12	16:43:35.410	-8.89	-14.595	-35.84	0.912804	-0.237168	0.271816	0.0585	0.495	0.0885	0	247	39	3
2026-02-12	16:43:35.430	-12.25	-12.39	-36.75	0.782264	-0.214964	0.288164	0.063	0.4815	0.0915	0	247	39	3
2026-02-12	16:43:35.450	-22.015	-11.445	-37.135	0.752252	-0.210572	0.30866	0.0675	0.4725	0.0885	0	247	39	3
2026-02-12	16:43:35.470	-34.685	-10.185	-36.26	0.754448	-0.22204	0.330132	0.0675	0.4635	0.09	0	247	39	3
2026-02-12	16:43:35.490	-45.22	-8.75	-32.935	0.753228	-0.274988	0.311344	0.0645	0.462	0.096	0	247	39	3
2026-02-12	16:43:35.510	-45.29	-8.68	-27.72	0.753716	-0.298412	0.294264	0.0705	0.462	0.0945	0	247	39	3
2026-02-12	16:43:35.530	-40.425	-10.045	-21.84	0.765672	-0.311588	0.287676	0.0705	0.4575	0.093	0	247	39	3
2026-02-12	16:43:35.550	-33.39	-11.655	-16.38	0.766648	-0.313296	0.277672	0.069	0.4485	0.0915	0	247	39	3
2026-02-12	16:43:35.570	-25.165	-14.245	-11.725	0.76738	-0.27694	0.276696	0.0705	0.447	0.09	0	247	39	3
2026-02-12	16:43:35.590	-20.44	-17.115	-8.155	0.78812	-0.274256	0.266448	0.0675	0.4455	0.0915	0	247	39	3
2026-02-12	16:43:35.610	-16.31	-20.405	-5.285	0.837408	-0.278404	0.271084	0.072	0.4395	0.093	0	240	71	3
2026-02-12	16:43:35.630	-7.35	-25.095	-2.1	1.034804	-0.283772	0.240828	0.0765	0.4395	0.0945	0	240	71	3
2026-02-12	16:43:35.650	10.15	-30.03	-1.505	1.432524	-0.358924	0.2501	0.0765	0.4395	0.0945	0	240	71	3
2026-02-12	16:43:35.670	37.975	-25.305	-1.19	1.685552	-0.353312	0.255224	0.078	0.444	0.1005	0	240	71	3
2026-02-12	16:43:35.690	53.235	-9.555	2.765	1.666032	-0.249368	0.19398	0.0825	0.4455	0.108	0	240	71	3
2026-02-12	16:43:35.710	47.67	6.79	12.32	1.499136	-0.140056	0.060756	0.0855	0.4455	0.1095	0	240	71	3
2026-02-12	16:43:35.730	29.085	18.27	23.17	1.343708	-0.08784	-0.06588	0.0855	0.4515	0.1095	0	240	71	3
2026-02-12	16:43:35.750	10.885	20.09	37.1	1.21146	0.03416	-0.108336	0.078	0.4485	0.1035	0	240	71	3
2026-02-12	16:43:35.770	-7.735	13.93	51.975	1.079212	0.103944	-0.08174	0.0765	0.45	0.1035	0	240	71	3
2026-02-12	16:43:35.790	-18.025	2.66	60.515	1.016016	0.056852	-0.026352	0.0765	0.4575	0.111	0	240	71	3
2026-02-12	16:43:35.810	-20.23	-5.495	62.615	0.987468	-0.021716	0.036356	0.075	0.462	0.1065	0	237	105	3
2026-02-12	16:43:35.830	-18.62	-6.51	62.195	0.959896	-0.105652	0.053924	0.0765	0.465	0.099	0	237	105	3
2026-02-12	16:43:35.850	-10.5	-1.82	57.75	0.905972	-0.124928	-0.014396	0.0795	0.474	0.105	0	237	105	3
2026-02-12	16:43:35.870	13.685	0.455	48.825	0.861808	-0.099552	-0.103212	0.0765	0.4815	0.099	0	237	105	3
2026-02-12	16:43:35.890	36.505	0.35	41.93	0.867664	-0.10492	-0.14152	0.0705	0.495	0.096	0	237	105	3
2026-02-12	16:43:35.910	58.87	-0.91	36.365	0.903044	-0.033428	-0.132736	0.066	0.504	0.0975	0	237	105	3
2026-02-12	16:43:35.930	59.745	-1.155	34.93	0.918416	-0.038796	-0.11468	0.0645	0.5085	0.099	0	237	105	3
2026-02-12	16:43:35.950	56.35	-1.855	33.775	0.937448	-0.005368	-0.086376	0.0645	0.5145	0.1005	0	237	105	3
2026-02-12	16:43:35.970	47.145	-1.47	30.625	0.97966	-0.013176	-0.08295999	0.063	0.519	0.099	0	237	105	3
2026-02-12	16:43:35.990	35.245	-1.995	27.79	1.016016	-0.054168	-0.100528	0.069	0.5205	0.099	0	237	105	3
2026-02-12	16:43:36.010	24.395	-2.415	22.61	1.046516	-0.1403	-0.10614	0.075	0.522	0.1005	0	238	102	3
2026-02-12	16:43:36.030	24.08	-2.905	20.545	1.053104	-0.1891	-0.099552	0.0735	0.525	0.0945	0	238	102	3
2026-02-12	16:43:36.050	31.08	-3.78	19.04	1.03456	-0.219112	-0.098088	0.0735	0.5295	0.0885	0	238	102	3
2026-02-12	16:43:36.070	46.095	-7.315	20.055	1.03212	-0.177388	-0.089792	0.054	0.5325	0.105	0	238	102	3
2026-02-12	16:43:36.090	47.74	-9.765	20.895	1.003572	-0.17202	-0.074908	0.0615	0.5355	0.1035	0	238	102	3
2026-02-12	16:43:36.110	44.975	-13.02	21.42	0.976244	-0.177876	-0.055144	0.0675	0.5445	0.1005	0	238	102	3
2026-02-12	16:43:36.130	39.97	-15.785	20.93	0.964044	-0.199104	-0.021228	0.066	0.5505	0.1005	0	238	102	3
2026-02-12	16:43:36.150	34.685	-17.29	20.02	0.948916	-0.227408	0.003904	0.066	0.5535	0.1065	0	238	102	3
2026-02-12	16:43:36.170	32.865	-17.22	18.865	0.944036	-0.258396	0.018788	0.066	0.5535	0.1125	0	238	102	3
2026-02-12	16:43:36.190	35	-16.03	16.94	0.94184	-0.27938	0.027816	0.069	0.558	0.117	0	238	102	3
2026-02-12	16:43:36.210	38.955	-14.385	14.14	0.939156	-0.289872	0.030744	0.0735	0.561	0.1185	0	238	72	3
2026-02-12	16:43:36.230	42.525	-12.565	10.535	0.945744	-0.283284	0.035868	0.075	0.561	0.117	0	238	72	3
2026-02-12	16:43:36.250	43.365	-10.29	5.74	0.954772	-0.266448	0.042212	0.0735	0.5625	0.117	0	238	72	3
2026-02-12	16:43:36.270	38.605	-6.685	-1.365	0.963556	-0.25132	0.054412	0.066	0.576	0.12	0	238	72	3
2026-02-12	16:43:36.290	27.825	-2.59	-8.925	0.971608	-0.228872	0.05978	0.066	0.576	0.12	0	238	72	3
2026-02-12	16:43:36.310	16.03	0.035	-15.4	0.990152	-0.2379	0.063196	0.072	0.5775	0.1215	0	238	72	3
2026-02-12	16:43:36.330	5.145	2.59	-21.665	1.017968	-0.254736	0.056852	0.0735	0.5775	0.1215	0	238	72	3
2026-02-12	16:43:36.350	-2.24	5.145	-26.845	1.044076	-0.236924	0.056608	0.0735	0.573	0.12	0	238	72	3
2026-02-12	16:43:36.370	-8.785	8.295	-30.275	1.031632	-0.238632	0.053924	0.0765	0.5685	0.123	0	238	72	3
2026-02-12	16:43:36.390	-11.445	10.36	-32.795	1.01626	-0.201544	0.041236	0.075	0.5625	0.1215	0	238	72	3
2026-02-12	16:43:36.410	-15.47	11.655	-34.51	1.0126	-0.156892	0.044408	0.075	0.555	0.12	0	235	47	3
2026-02-12	16:43:36.430	-22.33	13.09	-35.63	1.014552	-0.1403	0.058316	0.0735	0.552	0.117	0	235	47	3
2026-02-12	16:43:36.450	-29.225	15.575	-35.42	1.002352	-0.116876	0.061976	0.072	0.552	0.1125	0	235	47	3
2026-02-12	16:43:36.470	-35.63	18.445	-34.23	0.970876	-0.13542	0.055144	0.069	0.546	0.117	0	235	47	3
2026-02-12	16:43:36.490	-30.59	19.915	-32.9	0.984052	-0.111264	0.054168	0.069	0.531	0.1095	0	235	47	3
2026-02-12	16:43:36.510	-24.22	21.945	-35.35	1.191696	-0.090524	0.030256	0.072	0.531	0.105	0	235	47	3
2026-02-12	16:43:36.530	-31.57	24.57	-42.35	1.395436	-0.164456	-0.018544	0.069	0.525	0.102	0	235	47	3
2026-02-12	16:43:36.550	-35.805	28.175	-47.04	1.330776	-0.127124	0.02318	0.0675	0.516	0.1005	0	235	47	3
2026-02-12	16:43:36.570	-43.715	28.595	-46.27	1.043588	-0.118096	0.06734399	0.0645	0.51	0.0975	0	235	47	3
2026-02-12	16:43:36.590	-55.265	22.295	-38.78	0.845216	-0.136152	0.081984	0.0645	0.5025	0.099	0	235	47	3
2026-02-12	16:43:36.610	-57.54	11.27	-28.735	0.8357	-0.113216	0.0915	0.069	0.495	0.0945	0	228	38	3
2026-02-12	16:43:36.630	-54.845	-0.42	-19.88	0.926712	-0.138348	0.137372	0.069	0.489	0.0885	0	228	38	3
2026-02-12	16:43:36.650	-48.055	-6.51	-15.12	0.976488	-0.256444	0.18666	0.0705	0.4815	0.0855	0	228	38	3
2026-02-12	16:43:36.670	-31.885	-7.945	-14.63	0.954772	-0.20984	0.212036	0.0705	0.477	0.0825	0	228	38	3
2026-02-12	16:43:36.690	-24.43	-5.67	-16.485	0.87352	-0.194224	0.206912	0.0705	0.4725	0.0915	0	228	38	3
2026-02-12	16:43:36.710	-19.845	-5.075	-21.14	0.772748	-0.154452	0.215452	0.0675	0.462	0.096	0	228	38	3
2026-02-12	16:43:36.730	-19.04	-5.565	-23.765	0.737368	-0.159088	0.24156	0.0735	0.4665	0.1005	0	228	38	3
2026-02-12	16:43:36.750	-21.35	-6.16	-24.5	0.735172	-0.199348	0.2562	0.0765	0.468	0.099	0	228	38	3
2026-02-12	16:43:36.770	-21.49	-7.175	-23.59	0.761524	-0.193492	0.256932	0.0735	0.4635	0.096	0	228	38	3
2026-02-12	16:43:36.790	-23.87	-7.105	-21.42	0.807152	-0.195444	0.255468	0.0735	0.4575	0.096	0	228	38	3
2026-02-12	16:43:36.810	-25.305	-6.755	-18.515	0.830088	-0.202032	0.253272	0.078	0.453	0.096	0	220	51	2
2026-02-12	16:43:36.830	-27.44	-6.79	-15.4	0.839604	-0.193248	0.247172	0.0825	0.4515	0.1005	0	220	51	2
2026-02-12	16:43:36.850	-31.78	-7.7	-12.67	0.840092	-0.19398	0.249124	0.084	0.4515	0.099	0	220	51	2
2026-02-12	16:43:36.870	-36.12	-9.275	-10.85	0.842288	-0.19642	0.248392	0.087	0.4485	0.099	0	220	51	2
2026-02-12	16:43:36.890	-39.725	-11.655	-10.43	0.852536	-0.19886	0.245708	0.087	0.444	0.102	0	220	51	2
2026-02-12	16:43:36.910	-42.28	-14.525	-11.025	0.87352	-0.220576	0.234484	0.0765	0.441	0.096	0	220	51	2
2026-02-12	16:43:36.930	-38.78	-18.13	-10.99	0.853268	-0.23058	0.222284	0.0765	0.441	0.096	0	220	51	2
2026-02-12	16:43:36.950	-32.725	-22.295	-8.365	0.848632	-0.231068	0.194224	0.081	0.444	0.096	0	220	51	2
2026-02-12	16:43:36.970	-21.595	-27.895	-4.62	0.930372	-0.232532	0.172752	0.084	0.4395	0.1005	0	220	51	2
2026-02-12	16:43:36.990	-5.67	-33.95	-2.765	1.153876	-0.283528	0.204472	0.0885	0.429	0.105	0	220	51	2
2026-02-12	16:43:37.010	19.285	-34.93	-3.43	1.462536	-0.371368	0.254248	0.093	0.4305	0.1035	0	213	84	3
2026-02-12	16:43:37.030	49.525	-26.355	-6.3	1.798524	-0.401136	0.269376	0.096	0.435	0.1095	0	213	84	3
2026-02-12	16:43:37.050	64.785	-5.04	-7.07	1.835612	-0.3172	0.160064	0.099	0.438	0.1155	0	213	84	3
2026-02-12	16:43:37.070	52.535	18.235	-0.735	1.60552	-0.157136	-0.00244	0.096	0.438	0.12	0	213	84	3
2026-02-12	16:43:37.090	24.01	32.095	10.71	1.311744	-0.066856	-0.109312	0.0945	0.438	0.1215	0	213	84	3
2026-02-12	16:43:37.110	-5.74	32.935	26.25	1.02236	0.077592	-0.121512	0.102	0.444	0.114	0	213	84	3
2026-02-12	16:43:37.130	-32.06	14.385	46.69	0.840092	0.103212	-0.052216	0.0945	0.4395	0.1125	0	213	84	3
2026-02-12	16:43:37.150	-34.335	-7.665	57.645	0.835212	-0.008784	0.069784	0.0915	0.444	0.1095	0	213	84	3
2026-02-12	16:43:37.170	-26.81	-14.035	60.305	0.886696	-0.120536	0.122976	0.0885	0.45	0.1125	0	213	84	3
2026-02-12	16:43:37.190	-14.56	-8.33	60.095	0.900848	-0.173972	0.077592	0.09	0.4575	0.114	0	213	84	3
2026-02-12	16:43:37.210	1.855	-0.07	56.735	0.893284	-0.152744	-0.029524	0.0885	0.468	0.1125	0	211	106	3
2026-02-12	16:43:37.230	25.48	5.04	49.245	0.879376	-0.074176	-0.118584	0.087	0.474	0.1155	0	211	106	3
2026-02-12	16:43:37.250	43.75	6.335	40.32	0.90158	-0.075884	-0.121268	0.0855	0.4755	0.1155	0	211	106	3
2026-02-12	16:43:37.270	52.955	5.39	32.9	0.938912	-0.08174	-0.0793	0.084	0.483	0.114	0	211	106	3
2026-02-12	16:43:37.290	53.2	3.43	29.645	0.990152	-0.096624	-0.044652	0.084	0.489	0.1125	0	211	106	3
2026-02-12	16:43:37.310	49.245	2.31	27.405	1.009184	-0.101016	-0.033428	0.081	0.486	0.1245	0	211	106	3
2026-02-12	16:43:37.330	45.465	0.63	24.57	1.031144	-0.13054	-0.047092	0.078	0.492	0.1185	0	211	106	3
2026-02-12	16:43:37.350	39.13	-1.995	21.735	1.03944	-0.193736	-0.065392	0.0795	0.4935	0.12	0	211	106	3
2026-02-12	16:43:37.370	37.73	-2.59	20.615	1.00894	-0.24278	-0.075396	0.0825	0.4995	0.1215	0	211	106	3
2026-02-12	16:43:37.390	39.2	-3.045	20.51	0.979172	-0.24278	-0.066368	0.0855	0.507	0.1245	0	211	106	3
2026-02-12	16:43:37.410	40.285	-4.2	22.295	0.967704	-0.262544	-0.061244	0.0825	0.516	0.1245	0	214	97	3
2026-02-12	16:43:37.430	42.63	-6.37	23.765	0.989176	-0.261812	-0.041968	0.078	0.525	0.129	0	214	97	3
2026-02-12	16:43:37.450	43.4	-7.665	25.165	0.989908	-0.263764	-0.027328	0.0765	0.5235	0.135	0	214	97	3
2026-02-12	16:43:37.470	44.73	-8.54	26.495	0.977708	-0.262056	-0.018544	0.081	0.525	0.135	0	214	97	3
2026-02-12	16:43:37.490	41.79	-7.49	27.475	0.966728	-0.280112	-0.016104	0.0855	0.5295	0.135	0	214	97	3
2026-02-12	16:43:37.510	37.87	-5.425	27.44	0.954528	-0.281332	-0.018056	0.0825	0.5385	0.1395	0	214	97	3
2026-02-12	16:43:37.530	34.615	-3.01	26.46	0.945988	-0.282308	-0.011712	0.081	0.5505	0.1365	0	214	97	3
2026-02-12	16:43:37.550	31.85	-0.875	24.255	0.936716	-0.26962	0.00122	0.081	0.549	0.141	0	214	97	3
2026-02-12	16:43:37.570	24.885	1.96	18.97	0.9211	-0.26596	0.022936	0.081	0.549	0.141	0	214	97	3
2026-02-12	16:43:37.590	19.81	4.025	13.44	0.931104	-0.2745	0.023424	0.078	0.555	0.141	0	214	97	3
2026-02-12	16:43:37.610	16.065	5.775	7.385	0.948672	-0.25742	0.03538	0.078	0.564	0.144	0	215	70	2
2026-02-12	16:43:37.630	11.935	7.98	1.365	0.975512	-0.264008	0.042944	0.081	0.5655	0.1425	0	215	70	2
2026-02-12	16:43:37.650	9.03	9.94	-3.64	1.001132	-0.243512	0.042456	0.0765	0.567	0.138	0	215	70	2
2026-02-12	16:43:37.670	5.845	11.27	-8.12	1.025532	-0.206668	0.045384	0.0795	0.567	0.1365	0	215	70	2
2026-02-12	16:43:37.690	1.365	12.39	-11.62	1.032852	-0.1525	0.037332	0.0855	0.5685	0.132	0	215	70	2
2026-02-12	16:43:37.710	-6.23	13.44	-15.19	1.03212	-0.083204	0.0183	0.084	0.573	0.1305	0	215	70	2
2026-02-12	16:43:37.730	-18.725	13.93	-18.865	1.018456	-0.066368	-0.005612	0.0795	0.573	0.138	0	215	70	2
2026-02-12	16:43:37.750	-28.735	12.915	-22.54	1.006744	-0.054168	0.00854	0.0795	0.5655	0.135	0	215	70	2
2026-02-12	16:43:37.770	-34.405	11.235	-25.83	0.981856	-0.07442	0.042212	0.075	0.5685	0.129	0	215	70	2
2026-02-12	16:43:37.790	-29.575	9.975	-29.575	0.9516	-0.1037	0.064172	0.0765	0.561	0.126	0	215	70	2
2026-02-12	16:43:37.810	-17.29	10.43	-33.95	0.985516	-0.107604	0.081984	0.081	0.555	0.1215	0	212	48	3
2026-02-12	16:43:37.830	-7.56	12.355	-41.195	1.1712	-0.145424	0.051484	0.081	0.5505	0.1215	0	212	48	3
2026-02-12	16:43:37.850	-7.84	16.52	-53.48	1.357128	-0.135664	0.047824	0.078	0.5385	0.123	0	212	48	3
2026-02-12	16:43:37.870	-24.325	23.94	-63.385	1.242204	-0.175192	0.066612	0.0765	0.5295	0.1215	0	212	48	3
2026-02-12	16:43:37.890	-35.875	25.025	-65.905	1.0187	-0.110532	0.114192	0.072	0.525	0.12	0	212	48	3
2026-02-12	16:43:37.910	-56.98	20.16	-60.305	0.831796	-0.157624	0.150548	0.066	0.5205	0.12	0	212	48	3
2026-02-12	16:43:37.930	-68.32	9.765	-51.975	0.798124	-0.177144	0.183976	0.075	0.5025	0.1065	0	212	48	3
2026-02-12	16:43:37.950	-70.14	-3.43	-43.575	0.845216	-0.274988	0.241316	0.081	0.4965	0.111	0	212	48	3
2026-02-12	16:43:37.970	-56.945	-12.565	-38.22	0.918904	-0.406504	0.307684	0.084	0.486	0.1095	0	212	48	3
2026-02-12	16:43:37.990	-16.905	-14.28	-35.455	0.950624	-0.416996	0.30012	0.0735	0.489	0.1155	0	212	48	3
2026-02-12	16:43:38.010	6.65	-12.005	-34.825	0.87474	-0.349652	0.2623	0.0765	0.483	0.114	0	208	48	3
2026-02-12	16:43:38.030	21.35	-10.395	-34.16	0.788608	-0.2745	0.25742	0.0825	0.4755	0.111	0	208	48	3
2026-02-12	16:43:38.050	23.03	-9.66	-33.425	0.746884	-0.212768	0.288652	0.087	0.4725	0.1125	0	208	48	3
2026-02-12	16:43:38.070	8.995	-8.26	-31.78	0.754448	-0.197396	0.327448	0.09	0.471	0.1185	0	208	48	3
2026-02-12	16:43:38.090	-14.035	-5.565	-28.035	0.771284	-0.203008	0.344528	0.0915	0.4695	0.1245	0	208	48	3
2026-02-12	16:43:38.110	-36.155	-2.765	-22.89	0.780068	-0.22448	0.312076	0.096	0.4665	0.123	0	208	48	3
2026-02-12	16:43:38.130	-48.37	-1.225	-17.465	0.781288	-0.255468	0.266936	0.099	0.465	0.1185	0	208	48	3
2026-02-12	16:43:38.150	-52.57	-1.295	-11.76	0.789828	-0.26474	0.248148	0.0915	0.4455	0.1155	0	208	48	3
2026-02-12	16:43:38.170	-53.27	-2.73	-6.125	0.79788	-0.285968	0.249124	0.099	0.4485	0.12	0	208	48	3
2026-02-12	16:43:38.190	-49.42	-5.32	-2.45	0.79544	-0.275232	0.242048	0.0945	0.453	0.111	0	208	48	3
2026-02-12	16:43:38.210	-44.87	-11.62	-1.435	0.856196	-0.27938	0.237412	0.0945	0.453	0.111	0	204	78	3
2026-02-12	16:43:38.230	-39.55	-15.54	-1.96	0.899628	-0.285236	0.235216	0.099	0.4485	0.1095	0	204	78	3
2026-02-12	16:43:38.250	-33.53	-18.27	-1.715	0.946476	-0.268888	0.203984	0.099	0.444	0.111	0	204	78	3
2026-02-12	16:43:38.270	-26.495	-22.505	-1.785	1.10654	-0.253028	0.161284	0.099	0.444	0.114	0	204	78	3
2026-02-12	16:43:38.290	-17.36	-26.74	-3.955	1.362984	-0.287676	0.16714	0.1005	0.441	0.114	0	204	78	3
2026-02-12	16:43:38.310	2.87	-26.565	-6.02	1.6043	-0.274744	0.175436	0.102	0.444	0.117	0	204	78	3
2026-02-12	16:43:38.330	15.225	-17.57	-5.495	1.708732	-0.261568	0.163724	0.1065	0.447	0.12	0	204	78	3
2026-02-12	16:43:38.350	19.145	-5.985	-1.4	1.712392	-0.223748	0.093696	0.1065	0.4485	0.1215	0	204	78	3
2026-02-12	16:43:38.370	14.035	6.685	5.04	1.542812	-0.123952	-0.005612	0.1095	0.4455	0.126	0	204	78	3
2026-02-12	16:43:38.390	0.735	11.76	16.59	1.30174	-0.034892	-0.068076	0.105	0.4455	0.123	0	204	78	3
2026-02-12	16:43:38.410	-15.54	3.745	34.58	1.037976	0.01952	-0.026108	0.108	0.447	0.1215	0	204	112	3
2026-02-12	16:43:38.430	-23.415	-11.025	50.155	0.878156	-0.013908	0.049532	0.108	0.4455	0.117	0	204	112	3
2026-02-12	16:43:38.450	-19.215	-21.245	56.525	0.848388	-0.081496	0.117852	0.108	0.4515	0.1125	0	204	112	3
2026-02-12	16:43:38.470	-6.93	-24.29	58.205	0.85522	-0.135664	0.148596	0.1095	0.462	0.1215	0	204	112	3
2026-02-12	16:43:38.490	11.34	-20.02	55.02	0.852536	-0.160308	0.099552	0.1095	0.4665	0.1275	0	204	112	3
2026-02-12	16:43:38.510	29.47	-12.6	49.07	0.830332	-0.148596	0.0183	0.105	0.4725	0.126	0	204	112	3
2026-02-12	16:43:38.530	44.695	-5.81	42	0.817156	-0.131028	-0.050264	0.1035	0.4785	0.129	0	204	112	3
2026-02-12	16:43:38.550	56.805	-1.365	34.895	0.84424	-0.102236	-0.06954	0.105	0.4875	0.132	0	204	112	3
2026-02-12	16:43:38.570	59.01	1.75	30.03	0.905484	-0.10858	-0.040016	0.093	0.489	0.129	0	204	112	3
2026-02-12	16:43:38.590	52.43	4.585	28.105	0.9577	-0.113948	-0.0061	0.105	0.4935	0.126	0	204	112	3
2026-02-12	16:43:38.610	39.06	7	28.385	0.997228	-0.14518	0.002684	0.105	0.492	0.126	0	208	120	3
2026-02-12	16:43:38.630	19.845	9.17	30.065	1.034072	-0.21106	-0.040016	0.102	0.4995	0.132	0	208	120	3
2026-02-12	16:43:38.650	14.805	8.575	31.36	1.053836	-0.254004	-0.060512	0.099	0.504	0.129	0	208	120	3
2026-02-12	16:43:38.670	13.475	7.7	33.32	1.03578	-0.26718	-0.071736	0.099	0.5115	0.129	0	208	120	3
2026-02-12	16:43:38.690	15.47	5.985	35.875	1.014552	-0.324032	-0.076616	0.1005	0.516	0.126	0	208	120	3
2026-02-12	16:43:38.710	23.52	3.815	37.1	0.993812	-0.295484	-0.062464	0.099	0.5205	0.123	0	208	120	3
2026-02-12	16:43:38.730	27.16	1.575	38.08	0.972828	-0.323788	-0.059292	0.0975	0.5295	0.1215	0	208	120	3
2026-02-12	16:43:38.750	34.475	-1.015	36.68	0.965996	-0.311344	-0.0549	0.096	0.537	0.1185	0	208	120	3
2026-02-12	16:43:38.770	38.955	-3.605	34.3	0.959896	-0.32696	-0.060268	0.0975	0.5445	0.1185	0	208	120	3
2026-02-12	16:43:38.790	43.47	-5.25	30.94	0.946476	-0.31354	-0.050752	0.093	0.5535	0.1245	0	208	120	3
2026-02-12	16:43:38.810	47.81	-6.545	26.775	0.933056	-0.304024	-0.0366	0.0975	0.552	0.132	0	213	99	3
2026-02-12	16:43:38.830	50.155	-6.965	21.875	0.928664	-0.295484	-0.015616	0.1035	0.5535	0.1275	0	213	99	3
2026-02-12	16:43:38.850	50.295	-4.06	13.475	0.922808	-0.26962	0.020984	0.1035	0.5535	0.1275	0	213	99	3
2026-02-12	16:43:38.870	46.2	-0.07	7.105	0.940864	-0.24766	0.020496	0.105	0.5595	0.126	0	213	99	3
2026-02-12	16:43:38.890	38.43	4.48	0.63	0.955504	-0.231068	0.01464	0.099	0.57	0.1305	0	213	99	3
2026-02-12	16:43:38.910	27.265	8.365	-5.74	0.976	-0.208376	0.016836	0.0945	0.5715	0.1335	0	213	99	3
2026-02-12	16:43:38.930	16.205	11.76	-11.515	0.996252	-0.17446	0.032452	0.0945	0.567	0.1275	0	213	99	3
2026-02-12	16:43:38.950	3.185	14.875	-15.855	0.9882	-0.160064	0.028304	0.093	0.5655	0.123	0	213	99	3
2026-02-12	16:43:38.970	-9.94	16.8	-19.775	0.980148	-0.141276	0.01342	0.0975	0.5745	0.129	0	213	99	3
2026-02-12	16:43:38.990	-22.225	17.5	-24.15	0.986004	-0.127368	0.019764	0.0945	0.573	0.126	0	213	99	3
2026-02-12	16:43:39.010	-31.535	17.85	-28.84	0.997472	-0.129076	0.031476	0.0915	0.573	0.1215	0	214	70	3
2026-02-12	16:43:39.030	-35.945	18.2	-32.9	0.984784	-0.120292	0.054412	0.099	0.561	0.1245	0	214	70	3
2026-02-12	16:43:39.050	-35.63	18.025	-36.645	0.924272	-0.139812	0.072956	0.093	0.558	0.1215	0	214	70	3
2026-02-12	16:43:39.070	-26.88	17.605	-39.515	0.872544	-0.158112	0.089792	0.09	0.555	0.12	0	214	70	3
2026-02-12	16:43:39.090	-13.195	15.47	-42.14	0.977464	-0.14274	0.063684	0.087	0.549	0.1185	0	214	70	3
2026-02-12	16:43:39.110	-5.495	13.51	-51.905	1.230736	-0.152988	0.047824	0.0885	0.5415	0.114	0	214	70	3
2026-02-12	16:43:39.130	-7.98	15.645	-64.855	1.269288	-0.163968	0.091256	0.087	0.534	0.1095	0	214	70	3
2026-02-12	16:43:39.150	-15.855	18.305	-71.925	1.138504	-0.128588	0.160064	0.0825	0.5265	0.111	0	214	70	3
2026-02-12	16:43:39.170	-34.055	19.04	-71.365	0.96746	-0.150792	0.16226	0.0825	0.525	0.1125	0	214	70	3
2026-02-12	16:43:39.190	-51.275	15.89	-65.415	0.868884	-0.181048	0.162504	0.0795	0.5115	0.105	0	214	70	3
2026-02-12	16:43:39.210	-57.505	7.21	-55.86	0.903288	-0.175192	0.199592	0.0885	0.492	0.096	0	211	55	3
2026-02-12	16:43:39.230	-60.2	-0.385	-47.565	0.962824	-0.216916	0.231556	0.087	0.4935	0.0975	0	211	55	3
2026-02-12	16:43:39.250	-57.995	-3.955	-42.525	0.969412	-0.265716	0.255224	0.0975	0.48	0.09	0	211	55	3
2026-02-12	16:43:39.270	-47.95	-5.145	-37.03	0.862784	-0.271084	0.257908	0.0975	0.4725	0.0915	0	211	55	3
2026-02-12	16:43:39.290	-41.965	-6.09	-34.685	0.792756	-0.274256	0.243024	0.099	0.465	0.093	0	211	55	3
2026-02-12	16:43:39.310	-38.045	-7.35	-33.11	0.754448	-0.296216	0.258152	0.0975	0.4545	0.093	0	211	55	3
2026-02-12	16:43:39.330	-34.44	-8.33	-31.57	0.752008	-0.326228	0.28182	0.0945	0.4515	0.093	0	211	55	3
2026-02-12	16:43:39.350	-29.435	-9.135	-28.63	0.769332	-0.361364	0.2867	0.0975	0.4485	0.0915	0	211	55	3
2026-02-12	16:43:39.370	-21.84	-10.395	-23.31	0.787632	-0.345748	0.28914	0.099	0.4485	0.087	0	211	55	3
2026-02-12	16:43:39.390	-15.225	-11.76	-16.52	0.799344	-0.325252	0.282796	0.111	0.435	0.09	0	211	55	3
2026-02-12	16:43:39.410	-10.605	-13.755	-10.465	0.805932	-0.303292	0.280844	0.102	0.435	0.0915	0	207	72	3
2026-02-12	16:43:39.430	-9.415	-15.645	-5.46	0.808372	-0.28914	0.278404	0.099	0.438	0.093	0	207	72	3
2026-02-12	16:43:39.450	-10.745	-17.85	-2.1	0.825208	-0.284992	0.27816	0.09	0.447	0.0975	0	207	72	3
2026-02-12	16:43:39.470	-12.74	-20.475	-0.385	0.85034	-0.298412	0.288896	0.105	0.438	0.0975	0	207	72	3
2026-02-12	16:43:39.490	-8.47	-24.045	1.82	0.875716	-0.286212	0.291092	0.105	0.438	0.0975	0	207	72	3
2026-02-12	16:43:39.510	-0.7	-26.6	4.025	0.888648	-0.278404	0.256444	0.1035	0.4365	0.102	0	207	72	3
2026-02-12	16:43:39.530	9.205	-30.905	5.985	0.99552	-0.281088	0.213744	0.105	0.4365	0.1095	0	207	72	3
2026-02-12	16:43:39.550	23.205	-37.135	5.005	1.305156	-0.334768	0.228384	0.105	0.438	0.111	0	207	72	3
2026-02-12	16:43:39.570	46.655	-37.835	2.31	1.687504	-0.382104	0.270352	0.105	0.4425	0.117	0	207	72	3
2026-02-12	16:43:39.590	68.46	-25.76	1.295	1.823412	-0.315004	0.260348	0.1065	0.444	0.123	0	207	72	3
2026-02-12	16:43:39.610	71.19	-7.175	5.355	1.748504	-0.21106	0.179096	0.114	0.4395	0.1305	0	204	108	3
2026-02-12	16:43:39.630	57.015	11.025	13.475	1.463756	-0.09857599	0.0366	0.1035	0.4365	0.138	0	204	108	3
2026-02-12	16:43:39.650	31.64	21.945	25.55	1.205848	0.040748	-0.05246	0.1035	0.4455	0.1425	0	204	108	3
2026-02-12	16:43:39.670	-3.29	22.365	42.14	0.978928	0.088084	-0.087352	0.1065	0.4575	0.135	0	204	108	3
2026-02-12	16:43:39.690	-26.6	8.47	57.54	0.843264	0.083448	-0.028792	0.1035	0.4575	0.1335	0	204	108	3
2026-02-12	16:43:39.710	-31.08	-5.46	64.925	0.821548	-0.021472	0.089304	0.1035	0.4575	0.1335	0	204	108	3
2026-02-12	16:43:39.730	-15.855	-8.365	64.61	0.874252	-0.162504	0.141032	0.099	0.4695	0.1335	0	204	108	3
2026-02-12	16:43:39.750	11.445	-4.095	61.285	0.902556	-0.21716	0.107604	0.0975	0.4815	0.1305	0	204	108	3
2026-02-12	16:43:39.770	37.205	2.065	55.405	0.890844	-0.208376	0.038796	0.093	0.4845	0.129	0	204	108	3
2026-02-12	16:43:39.790	59.29	6.265	49.07	0.893528	-0.197396	-0.022448	0.087	0.4875	0.1335	0	204	108	3
2026-02-12	16:43:39.810	74.97	7.42	43.995	0.933056	-0.156892	-0.044408	0.0945	0.501	0.1305	0	206	129	3
2026-02-12	16:43:39.830	75.565	7.665	41.335	0.999912	-0.132736	-0.030256	0.087	0.516	0.1395	0	206	129	3
2026-02-12	16:43:39.850	65.135	9.8	41.195	1.018944	-0.108824	-0.008296	0.0795	0.519	0.1365	0	206	129	3
2026-02-12	16:43:39.870	49.105	12.145	41.895	1.019676	-0.12078	-0.005368	0.0675	0.5265	0.129	0	206	129	3
2026-02-12	16:43:39.890	30.695	13.265	42.56	1.017968	-0.173484	-0.014396	0.0855	0.5385	0.1275	0	206	129	3
2026-02-12	16:43:39.910	15.855	12.67	42.595	1.024312	-0.238876	-0.049044	0.0795	0.5415	0.126	0	206	129	3
2026-02-12	16:43:39.930	12.53	11.865	40.845	1.01138	-0.272304	-0.074176	0.078	0.5505	0.123	0	206	129	3
2026-02-12	16:43:39.950	17.185	10.64	37.87	1.00162	-0.276208	-0.087596	0.0795	0.5595	0.1215	0	206	129	3
2026-02-12	16:43:39.970	21.525	9.03	33.915	0.985516	-0.272548	-0.092964	0.0855	0.5655	0.123	0	206	129	3
2026-02-12	16:43:39.990	22.54	6.895	28.945	0.963068	-0.251564	-0.091256	0.09	0.5715	0.126	0	206	129	3
2026-02-12	16:43:40.010	16.38	3.64	23.87	0.930616	-0.265228	-0.099308	0.081	0.5685	0.1155	0	210	117	3
2026-02-12	16:43:40.030	8.26	-1.715	18.515	0.918904	-0.30256	-0.09394	0.0795	0.579	0.1185	0	210	117	3
2026-02-12	16:43:40.050	6.685	-6.265	12.075	0.914512	-0.29158	-0.061976	0.0825	0.5835	0.1215	0	210	117	3
2026-02-12	16:43:40.070	14.56	-8.225	4.025	0.907436	-0.278648	-0.008784	0.0825	0.585	0.123	0	210	117	3
2026-02-12	16:43:40.090	21.945	-10.465	-1.68	0.902068	-0.318908	0.010248	0.0675	0.597	0.1245	0	210	117	3
2026-02-12	16:43:40.110	28.035	-11.655	-6.475	0.899872	-0.330864	0.01708	0.072	0.5865	0.132	0	210	117	3
2026-02-12	16:43:40.130	26.46	-11.41	-12.425	0.91622	-0.319152	0.019032	0.0735	0.588	0.1275	0	210	117	3
2026-02-12	16:43:40.150	20.51	-9.975	-16.38	0.952332	-0.307684	0.043188	0.0765	0.5865	0.1275	0	210	117	3
2026-02-12	16:43:40.170	14.28	-7.91	-19.075	0.958676	-0.309392	0.063928	0.0825	0.582	0.126	0	210	117	3
2026-02-12	16:43:40.190	8.505	-6.65	-20.825	0.97722	-0.306952	0.091744	0.0825	0.582	0.126	0	210	117	3
2026-02-12	16:43:40.210	1.785	-4.445	-20.265	0.969168	-0.312564	0.103456	0.0795	0.585	0.129	0	213	87	3
2026-02-12	16:43:40.230	-3.255	-3.64	-19.355	0.973072	-0.279136	0.110776	0.09	0.582	0.126	0	213	87	3
2026-02-12	16:43:40.250	-7.77	-1.4	-22.225	0.976488	-0.205448	0.102968	0.0795	0.5805	0.138	0	213	87	3
2026-02-12	16:43:40.270	-17.605	2.135	-29.19	0.993568	-0.15616	0.077348	0.081	0.5865	0.135	0	213	87	3
2026-02-12	16:43:40.290	-30.66	4.725	-36.785	1.009916	-0.146644	0.09857599	0.078	0.567	0.132	0	213	87	3
2026-02-12	16:43:40.310	-43.575	7.21	-43.54	0.99186	-0.187636	0.139568	0.0795	0.5685	0.1275	0	213	87	3
2026-02-12	16:43:40.330	-47.285	10.36	-47.705	0.967704	-0.199836	0.153476	0.0795	0.5595	0.123	0	213	87	3
2026-02-12	16:43:40.350	-42.21	13.37	-48.65	0.954284	-0.194712	0.133712	0.0795	0.5595	0.123	0	213	87	3
2026-02-12	16:43:40.370	-27.02	15.295	-47.705	0.96014	-0.205448	0.148352	0.0735	0.546	0.12	0	213	87	3
2026-02-12	16:43:40.390	-10.535	18.655	-45.29	0.96014	-0.140788	0.169092	0.0735	0.5325	0.1185	0	213	87	3
2026-02-12	16:43:40.410	-10.15	24.15	-44.59	1.10044	-0.172996	0.113216	0.078	0.531	0.12	0	212	70	3
2026-02-12	16:43:40.430	-18.97	26.95	-50.61	1.418128	-0.093452	0.057828	0.072	0.5175	0.12	0	212	70	3
2026-02-12	16:43:40.450	-48.685	32.76	-59.08	1.439844	-0.155184	0.033184	0.084	0.5115	0.102	0	212	70	3
2026-02-12	16:43:40.470	-68.32	36.085	-60.97	1.084824	-0.096624	0.05246	0.075	0.507	0.108	0	212	70	3
2026-02-12	16:43:40.490	-88.375	26.95	-57.82	0.812276	-0.132492	0.10492	0.063	0.489	0.108	0	212	70	3
2026-02-12	16:43:40.510	-97.09	13.23	-49.98	0.712724	-0.22204	0.185928	0.0765	0.4785	0.096	0	212	70	3
2026-02-12	16:43:40.530	-86.31	-3.15	-37.66	0.769332	-0.314272	0.247172	0.0705	0.474	0.0885	0	212	70	3
2026-02-12	16:43:40.550	-44.905	-16.345	-25.305	0.894992	-0.38674	0.270596	0.069	0.471	0.093	0	212	70	3
2026-02-12	16:43:40.570	2.135	-20.195	-19.6	0.92232	-0.370636	0.220576	0.078	0.465	0.09	0	212	70	3
2026-02-12	16:43:40.590	27.37	-19.88	-17.85	0.86132	-0.314272	0.172508	0.0825	0.4575	0.0915	0	212	70	3
2026-02-12	16:43:40.610	38.675	-19.11	-16.555	0.794464	-0.230824	0.184708	0.0825	0.459	0.0975	0	209	74	3
2026-02-12	16:43:40.630	31.955	-18.06	-16.275	0.768356	-0.184464	0.226676	0.0855	0.4605	0.102	0	209	74	3
2026-02-12	16:43:40.650	12.285	-16.52	-15.75	0.76738	-0.201788	0.271328	0.081	0.459	0.108	0	209	74	3
2026-02-12	16:43:40.670	-10.64	-15.05	-14.84	0.787388	-0.237168	0.29158	0.081	0.453	0.1035	0	209	74	3
2026-02-12	16:43:40.690	-28.49	-13.615	-12.74	0.81252	-0.255468	0.302804	0.084	0.456	0.105	0	209	74	3
2026-02-12	16:43:40.710	-37.87	-12.565	-9.485	0.819352	-0.290116	0.292556	0.093	0.453	0.1065	0	209	74	3
2026-02-12	16:43:40.730	-38.605	-12.74	-5.635	0.836188	-0.318176	0.287188	0.093	0.4455	0.1065	0	209	74	3
2026-02-12	16:43:40.750	-34.72	-13.79	-1.26	0.829844	-0.333304	0.303048	0.0945	0.4545	0.1095	0	209	74	3
2026-02-12	16:43:40.770	-26.53	-16.345	4.69	0.817644	-0.320616	0.321592	0.087	0.45	0.1065	0	209	74	3
2026-02-12	16:43:40.790	-23.275	-18.69	7.14	0.81984	-0.313784	0.3172	0.0885	0.444	0.1065	0	209	74	3
2026-02-12	16:43:40.810	-20.195	-21.245	8.715	0.851316	-0.308172	0.316956	0.0915	0.4395	0.105	0	206	102	3
2026-02-12	16:43:40.830	-14.63	-23.275	10.815	0.87474	-0.310124	0.31476	0.093	0.4395	0.1035	0	206	102	3
2026-02-12	16:43:40.850	-7.14	-24.78	14.56	0.920612	-0.274988	0.2928	0.0915	0.4425	0.111	0	206	102	3
2026-02-12	16:43:40.870	-1.33	-25.865	19.565	0.97966	-0.247904	0.26596	0.093	0.447	0.1125	0	206	102	3
2026-02-12	16:43:40.890	2.03	-26.775	23.1	1.154364	-0.251564	0.24034	0.0885	0.4455	0.1245	0	206	102	3
2026-02-12	16:43:40.910	11.375	-26.11	23.975	1.423008	-0.347944	0.231068	0.087	0.444	0.126	0	206	102	3
2026-02-12	16:43:40.930	43.715	-21.105	24.78	1.69458	-0.41724	0.2013	0.09	0.45	0.123	0	206	102	3
2026-02-12	16:43:40.950	80.885	-10.29	22.82	1.85684	-0.3233	0.175192	0.0945	0.459	0.132	0	206	102	3
2026-02-12	16:43:40.970	91.28	11.865	21.035	1.715808	-0.197884	0.07442	0.0855	0.4635	0.1305	0	206	102	3
2026-02-12	16:43:40.990	62.685	30.765	27.44	1.327848	-0.06466	-0.099552	0.0855	0.4635	0.1305	0	206	102	3
2026-02-12	16:43:41.010	26.565	32.585	37.065	1.01992	0.06466	-0.130052	0.0855	0.4695	0.1335	0	206	136	3
2026-02-12	16:43:41.030	-12.495	24.15	47.25	0.825452	0.112484	-0.109556	0.084	0.483	0.132	0	206	136	3
2026-02-12	16:43:41.050	-33.39	9.135	52.15	0.772748	0.071492	-0.051728	0.084	0.4905	0.1275	0	206	136	3
2026-02-12	16:43:41.070	-40.985	-4.795	50.645	0.820328	-0.042944	0.037576	0.0795	0.489	0.126	0	206	136	3
2026-02-12	16:43:41.090	-42	-8.365	45.92	0.860588	-0.180804	0.080764	0.0735	0.4935	0.1245	0	206	136	3
2026-02-12	16:43:41.110	-30.52	-4.06	40.425	0.885476	-0.244	0.059048	0.0705	0.504	0.123	0	206	136	3
2026-02-12	16:43:41.130	-13.055	3.15	35.245	0.88816	-0.238632	-0.017324	0.0675	0.5025	0.1215	0	206	136	3
2026-02-12	16:43:41.150	7.665	7.14	31.045	0.904996	-0.249124	-0.08174	0.075	0.51	0.12	0	206	136	3
2026-02-12	16:43:41.170	28.49	9.835	26.845	0.897188	-0.224236	-0.106384	0.0675	0.51	0.117	0	206	136	3
2026-02-12	16:43:41.190	40.04	8.785	22.225	0.9089	-0.167628	-0.06222	0.0675	0.5145	0.1215	0	206	136	3
2026-02-12	16:43:41.210	32.865	7.07	21.35	0.9272	-0.200324	-0.019764	0.069	0.5175	0.117	0	211	139	3
2026-02-12	16:43:41.230	23.485	5.915	21.21	0.964044	-0.205936	-0.005612	0.0645	0.525	0.1095	0	211	139	3
2026-02-12	16:43:41.250	10.185	4.9	21.49	0.98332	-0.279624	-0.030256	0.06	0.5295	0.108	0	211	139	3
2026-02-12	16:43:41.270	6.93	2.31	21.945	0.983564	-0.32208	-0.0305	0.066	0.5385	0.111	0	211	139	3
2026-02-12	16:43:41.290	9.52	-0.42	23.135	0.96502	-0.36722	-0.029036	0.063	0.537	0.111	0	211	139	3
2026-02-12	16:43:41.310	18.9	-2.765	23.59	0.946964	-0.394304	-0.022448	0.0675	0.537	0.1125	0	211	139	3
2026-02-12	16:43:41.330	33.005	-5.39	23.415	0.967216	-0.386252	-0.020008	0.0615	0.5355	0.1185	0	211	139	3
2026-02-12	16:43:41.350	41.79	-7.07	23.17	0.97722	-0.392108	-0.006832	0.0705	0.5505	0.1155	0	211	139	3
2026-02-12	16:43:41.370	47.565	-7.525	22.26	0.97112	-0.380152	0.000488	0.063	0.5535	0.1095	0	211	139	3
2026-02-12	16:43:41.390	48.79	-7.14	20.86	0.953796	-0.352092	0.013664	0.0615	0.564	0.111	0	211	139	3
2026-02-12	16:43:41.410	43.19	-5.53	18.095	0.94306	-0.3477	0.029768	0.063	0.567	0.1095	0	217	113	3
2026-02-12	16:43:41.430	37.555	-3.71	16.52	0.938668	-0.345016	0.041968	0.0615	0.5715	0.111	0	217	113	3
2026-02-12	16:43:41.450	31.955	-1.575	14.875	0.935496	-0.337452	0.057096	0.063	0.5775	0.114	0	217	113	3
2026-02-12	16:43:41.470	27.195	0.735	12.32	0.94184	-0.345016	0.066856	0.0645	0.579	0.1155	0	217	113	3
2026-02-12	16:43:41.490	24.22	3.85	8.47	0.948916	-0.299388	0.07198	0.0795	0.588	0.12	0	217	113	3
2026-02-12	16:43:41.510	19.18	7.035	2.66	0.961116	-0.26596	0.063684	0.063	0.5805	0.1215	0	217	113	3
2026-02-12	16:43:41.530	11.48	10.465	-3.605	0.973804	-0.224236	0.056852	0.0645	0.591	0.1155	0	217	113	3
2026-02-12	16:43:41.550	0.7	13.93	-10.185	0.9577	-0.18788	0.045384	0.063	0.591	0.114	0	217	113	3
2026-02-12	16:43:41.570	-12.46	16.625	-17.325	0.946964	-0.14396	0.037332	0.06	0.579	0.111	0	217	113	3
2026-02-12	16:43:41.590	-27.055	19.005	-25.13	0.96258	-0.105164	0.027084	0.072	0.582	0.108	0	217	113	3
2026-02-12	16:43:41.610	-44.87	22.47	-34.16	0.9455	-0.098088	0.02562	0.063	0.5775	0.1065	0	220	85	3
2026-02-12	16:43:41.630	-58.59	24.85	-40.005	0.890356	-0.127124	0.035136	0.063	0.5775	0.1065	0	220	85	3
2026-02-12	16:43:41.650	-60.515	24.5	-41.58	0.837652	-0.1525	0.040748	0.063	0.567	0.102	0	220	85	3
2026-02-12	16:43:41.670	-53.165	22.855	-41.055	0.8052	-0.157868	0.051728	0.0645	0.5565	0.0975	0	220	85	3
2026-02-12	16:43:41.690	-36.925	20.755	-40.46	0.83692	-0.147864	0.059536	0.06	0.5565	0.0975	0	220	85	3
2026-02-12	16:43:41.710	-24.71	19.32	-45.01	1.081896	-0.136152	0.016836	0.0615	0.546	0.093	0	220	85	3
2026-02-12	16:43:41.730	-26.495	18.34	-58.66	1.405196	-0.17934	-0.00244	0.0615	0.5415	0.075	0	220	85	3
2026-02-12	16:43:41.750	-38.01	21.315	-72.485	1.443748	-0.18544	0.069052	0.0525	0.522	0.0795	0	220	85	3
2026-02-12	16:43:41.770	-52.01	21.525	-81.305	1.24196	-0.1708	0.126148	0.0495	0.5115	0.081	0	220	85	3
2026-02-12	16:43:41.790	-72.94	18.27	-79.94	0.976732	-0.229848	0.163968	0.057	0.5055	0.078	0	220	85	3
2026-02-12	16:43:41.810	-79.17	8.26	-73.115	0.819596	-0.266204	0.194956	0.054	0.495	0.0765	0	219	70	3
2026-02-12	16:43:41.830	-62.79	-9.135	-60.34	0.831064	-0.316468	0.246928	0.0585	0.474	0.063	0	219	70	3
2026-02-12	16:43:41.850	-31.99	-19.845	-50.995	0.89792	-0.418704	0.30378	0.0615	0.4695	0.066	0	219	70	3
2026-02-12	16:43:41.870	-0.84	-20.685	-45.325	0.89914	-0.409676	0.29158	0.0645	0.4605	0.072	0	219	70	3
2026-02-12	16:43:41.890	22.575	-18.305	-40.88	0.857416	-0.327692	0.24766	0.0645	0.456	0.075	0	219	70	3
2026-02-12	16:43:41.910	31.605	-16.66	-38.5	0.823012	-0.246684	0.220576	0.066	0.45	0.075	0	219	70	3
2026-02-12	16:43:41.930	25.83	-15.4	-38.57	0.80886	-0.204716	0.247904	0.0735	0.4545	0.084	0	219	70	3
2026-02-12	16:43:41.950	6.965	-13.685	-38.71	0.817644	-0.18544	0.309148	0.069	0.4455	0.09	0	219	70	3
2026-02-12	16:43:41.970	-19.285	-11.2	-36.96	0.825696	-0.21594	0.343552	0.0825	0.438	0.0795	0	219	70	3
2026-02-12	16:43:41.990	-39.97	-9.135	-32.69	0.815204	-0.264252	0.325496	0.0705	0.4305	0.0825	0	219	70	3
2026-02-12	16:43:42.010	-50.155	-8.925	-24.57	0.803248	-0.305	0.29158	0.0705	0.4305	0.0825	0	217	82	3
2026-02-12	16:43:42.030	-47.705	-10.255	-18.375	0.797392	-0.322568	0.2867	0.075	0.426	0.0765	0	217	82	3
2026-02-12	16:43:42.050	-33.075	-14.315	-6.965	0.800076	-0.332084	0.293532	0.075	0.42	0.09	0	217	82	3
2026-02-12	16:43:42.070	-23.695	-16.73	-1.155	0.8052	-0.294996	0.296948	0.078	0.42	0.0855	0	217	82	3
2026-02-12	16:43:42.090	-19.635	-18.935	1.785	0.816668	-0.277672	0.296948	0.081	0.42	0.081	0	217	82	3
2026-02-12	16:43:42.110	-16.31	-21.315	2.975	0.83326	-0.27206	0.293532	0.081	0.426	0.0945	0	217	82	3
2026-02-12	16:43:42.130	-13.545	-23.31	3.99	0.877424	-0.246196	0.275476	0.084	0.4245	0.0915	0	217	82	3
2026-02-12	16:43:42.150	-13.475	-25.55	6.685	0.951844	-0.24034	0.24156	0.0765	0.4215	0.0885	0	217	82	3
2026-02-12	16:43:42.170	-6.37	-28.875	7.945	1.129964	-0.241316	0.212524	0.081	0.432	0.096	0	217	82	3
2026-02-12	16:43:42.190	9.45	-31.92	5.915	1.455704	-0.294508	0.222528	0.0765	0.4335	0.102	0	217	82	3
2026-02-12	16:43:42.210	34.51	-29.26	1.05	1.836588	-0.345748	0.213744	0.0885	0.423	0.1095	0	215	117	3
2026-02-12	16:43:42.230	53.305	-14.21	0.595	1.921256	-0.320616	0.169336	0.0945	0.426	0.117	0	215	117	3
2026-02-12	16:43:42.250	51.38	4.83	9.03	1.672376	-0.169336	0.0549	0.084	0.432	0.114	0	215	117	3
2026-02-12	16:43:42.270	20.3	18.69	31.78	1.217316	0.0427	-0.127856	0.084	0.432	0.114	0	215	117	3
2026-02-12	16:43:42.290	0.385	13.23	46.655	0.961604	0.188368	-0.108824	0.0855	0.4395	0.117	0	215	117	3
2026-02-12	16:43:42.310	-19.53	0.805	56	0.820816	0.141764	-0.022448	0.0885	0.447	0.1215	0	215	117	3
2026-02-12	16:43:42.330	-25.655	-11.025	56.07	0.802028	0.031964	0.106872	0.0855	0.4485	0.111	0	215	117	3
2026-02-12	16:43:42.350	-26.425	-12.88	53.025	0.844972	-0.07564	0.160796	0.0765	0.459	0.1125	0	215	117	3
2026-02-12	16:43:42.370	-22.96	-6.335	50.155	0.882792	-0.162504	0.087596	0.0615	0.4575	0.1185	0	215	117	3
2026-02-12	16:43:42.390	-10.185	1.295	44.275	0.866688	-0.1342	-0.016348	0.0795	0.4725	0.123	0	215	117	3
2026-02-12	16:43:42.410	9.17	6.405	36.155	0.83936	-0.107604	-0.081252	0.072	0.477	0.111	0	219	138	3
2026-02-12	16:43:42.430	33.46	7.63	28.07	0.842776	-0.072956	-0.104676	0.06	0.483	0.1155	0	219	138	3
2026-02-12	16:43:42.450	43.68	6.79	22.47	0.884988	-0.078568	-0.081252	0.066	0.48	0.1185	0	219	138	3
2026-02-12	16:43:42.470	40.425	6.79	19.25	0.953308	-0.084668	-0.059048	0.0705	0.4965	0.1155	0	219	138	3
2026-02-12	16:43:42.490	29.715	7.805	18.13	1.005768	-0.136396	-0.058316	0.069	0.4995	0.1155	0	219	138	3
2026-02-12	16:43:42.510	24.36	7.21	18.935	1.044564	-0.185928	-0.077348	0.069	0.5025	0.1155	0	219	138	3
2026-02-12	16:43:42.530	22.33	6.195	20.685	1.093608	-0.22936	-0.099552	0.063	0.5085	0.1095	0	219	138	3
2026-02-12	16:43:42.550	21.525	4.235	23.905	1.114836	-0.259616	-0.115168	0.057	0.5085	0.1155	0	219	138	3
2026-02-12	16:43:42.570	23.905	2.73	26.67	1.080432	-0.255468	-0.101016	0.06	0.5175	0.1185	0	219	138	3
2026-02-12	16:43:42.590	22.645	0.77	30.065	1.0309	-0.2623	-0.067832	0.0645	0.5205	0.1095	0	219	138	3
2026-02-12	16:43:42.610	17.85	-1.645	33.005	1.001376	-0.300852	-0.0488	0.0615	0.525	0.1095	0	225	121	3
2026-02-12	16:43:42.630	16.695	-4.48	34.72	0.968192	-0.30744	-0.034892	0.069	0.528	0.117	0	225	121	3
2026-02-12	16:43:42.650	14.84	-6.125	36.505	0.94428	-0.355996	-0.028304	0.0555	0.534	0.114	0	225	121	3
2026-02-12	16:43:42.670	20.055	-7.49	35.56	0.943304	-0.366732	-0.003904	0.063	0.549	0.1155	0	225	121	3
2026-02-12	16:43:42.690	34.545	-6.44	31.71	0.930616	-0.396256	0.012688	0.0645	0.5505	0.12	0	225	121	3
2026-02-12	16:43:42.710	43.05	-4.41	28.07	0.92842	-0.378688	0.022448	0.063	0.5535	0.1245	0	225	121	3
2026-02-12	16:43:42.730	48.72	-1.435	24.36	0.927444	-0.359168	0.031476	0.0615	0.558	0.129	0	225	121	3
2026-02-12	16:43:42.750	49.805	1.925	20.72	0.916708	-0.336964	0.024156	0.0675	0.5745	0.12	0	225	121	3
2026-02-12	16:43:42.770	45.92	4.095	17.5	0.931592	-0.329644	0.007076	0.0585	0.573	0.1155	0	225	121	3
2026-02-12	16:43:42.790	40.88	4.375	14.56	0.947452	-0.313784	0.004636	0.0585	0.576	0.1125	0	225	121	3
2026-02-12	16:43:42.810	36.54	3.08	11.865	0.992836	-0.290116	0.012444	0.057	0.5805	0.1155	0	230	87	3
2026-02-12	16:43:42.830	34.37	2.275	9.87	0.999424	-0.261812	0.01464	0.0615	0.597	0.114	0	230	87	3
2026-02-12	16:43:42.850	33.075	1.54	8.89	0.966728	-0.196664	-0.005612	0.0675	0.5955	0.114	0	230	87	3
2026-02-12	16:43:42.870	27.86	1.365	5.53	0.955748	-0.131028	-0.021228	0.0645	0.597	0.111	0	230	87	3
2026-02-12	16:43:42.890	17.955	1.19	0.14	0.980148	-0.082472	-0.02684	0.066	0.594	0.1185	0	230	87	3
2026-02-12	16:43:42.910	-2.205	2.205	-10.605	1.003084	-0.054168	-0.000976	0.066	0.594	0.1185	0	230	87	3
2026-02-12	16:43:42.930	-12.915	3.465	-17.99	0.989664	-0.068808	0.038308	0.0645	0.603	0.117	0	230	87	3
2026-02-12	16:43:42.950	-15.12	4.655	-25.27	0.97722	-0.090524	0.065148	0.072	0.6	0.117	0	230	87	3
2026-02-12	16:43:42.970	-11.2	6.615	-31.29	0.963068	-0.117364	0.078812	0.0705	0.5925	0.1125	0	230	87	3
2026-02-12	16:43:42.990	-3.045	8.82	-37.87	1.006012	-0.11102	0.06588	0.066	0.5895	0.1125	0	230	87	3
2026-02-12	16:43:43.010	1.12	9.87	-48.79	1.246596	-0.137372	0.047336	0.0705	0.582	0.114	0	231	59	3
2026-02-12	16:43:43.030	-4.025	11.655	-63.49	1.466684	-0.177144	0.0549	0.0675	0.5775	0.111	0	231	59	3
2026-02-12	16:43:43.050	-12.18	15.645	-73.29	1.273192	-0.200324	0.120292	0.0645	0.573	0.1035	0	231	59	3
2026-02-12	16:43:43.070	-21.035	15.225	-71.61	0.977464	-0.15494	0.188124	0.0585	0.552	0.108	0	231	59	3
2026-02-12	16:43:43.090	-34.3	10.57	-61.775	0.777872	-0.172264	0.181536	0.057	0.54	0.099	0	231	59	3
2026-02-12	16:43:43.110	-42.35	-0.49	-45.22	0.80276	-0.19154	0.186904	0.054	0.5325	0.102	0	231	59	3
2026-02-12	16:43:43.130	-46.62	-7.63	-32.165	0.864736	-0.220088	0.207156	0.054	0.5325	0.102	0	231	59	3
2026-02-12	16:43:43.150	-45.465	-9.275	-28.98	0.87962	-0.27938	0.188124	0.0555	0.5175	0.1005	0	231	59	3
2026-02-12	16:43:43.170	-39.095	-9.695	-30.905	0.878644	-0.312564	0.169824	0.0615	0.519	0.1065	0	231	59	3
2026-02-12	16:43:43.190	-30.905	-9.17	-34.65	0.851804	-0.315492	0.188856	0.066	0.504	0.102	0	231	59	3
2026-02-12	16:43:43.210	-27.79	-7.805	-38.29	0.82716	-0.299388	0.21594	0.072	0.4995	0.1065	0	229	55	3
2026-02-12	16:43:43.230	-29.435	-6.58	-40.6	0.80886	-0.284992	0.242292	0.0675	0.501	0.1095	0	229	55	3
2026-02-12	16:43:43.250	-37.205	-6.09	-41.23	0.794708	-0.281088	0.241072	0.066	0.507	0.1125	0	229	55	3
2026-02-12	16:43:43.270	-47.845	-6.44	-40.18	0.798368	-0.285968	0.232776	0.0615	0.4965	0.108	0	229	55	3
2026-02-12	16:43:43.290	-55.09	-8.015	-37.135	0.789096	-0.301828	0.21716	0.0585	0.4815	0.1095	0	229	55	3
2026-02-12	16:43:43.310	-54.915	-11.2	-32.55	0.77714	-0.307196	0.223016	0.0615	0.474	0.111	0	229	55	3
2026-02-12	16:43:43.330	-49.315	-15.995	-24.78	0.78202	-0.32086	0.226432	0.0735	0.474	0.105	0	229	55	3
2026-02-12	16:43:43.350	-44.03	-18.725	-20.545	0.799832	-0.324276	0.242536	0.0705	0.4725	0.105	0	229	55	3
2026-02-12	16:43:43.370	-37.87	-21.665	-17.43	0.8174	-0.327692	0.259128	0.0825	0.459	0.1065	0	229	55	3
2026-02-12	16:43:43.390	-32.305	-24.99	-15.435	0.851316	-0.322812	0.26108	0.078	0.4665	0.108	0	229	55	3
2026-02-12	16:43:43.410	-27.37	-28.07	-14.35	0.90768	-0.317444	0.255224	0.0705	0.4635	0.108	0	225	79	3
2026-02-12	16:43:43.430	-21.875	-30.87	-12.74	0.973804	-0.315492	0.2501	0.075	0.459	0.114	0	225	79	3
2026-02-12	16:43:43.450	-13.895	-34.79	-9.135	1.09922	-0.3355	0.227408	0.084	0.4605	0.111	0	225	79	3
2026-02-12	16:43:43.470	0.035	-38.85	-4.795	1.292468	-0.364292	0.205448	0.084	0.4605	0.1215	0	225	79	3
2026-02-12	16:43:43.490	19.39	-38.885	-0.245	1.488644	-0.348432	0.199836	0.087	0.4515	0.123	0	225	79	3
2026-02-12	16:43:43.510	41.58	-31.92	4.83	1.613328	-0.260836	0.1464	0.0885	0.456	0.1395	0	225	79	3
2026-02-12	16:43:43.530	49.42	-18.375	10.675	1.575752	-0.139812	0.050996	0.0885	0.4575	0.135	0	225	79	3
2026-02-12	16:43:43.550	35.63	0.42	19.145	1.325652	0.003172	-0.074908	0.0975	0.459	0.1515	0	225	79	3
2026-02-12	16:43:43.570	13.51	7.035	23.625	1.16388	0.016348	-0.10126	0.09	0.468	0.15	0	225	79	3
2026-02-12	16:43:43.590	-5.005	7.56	28.07	1.034804	-0.001464	-0.082472	0.0915	0.4725	0.1425	0	225	79	3
2026-02-12	16:43:43.610	-14.14	2.205	30.66	1.000644	-0.021472	-0.027328	0.087	0.477	0.1485	0	224	105	3
2026-02-12	16:43:43.630	-17.535	-1.12	30.485	1.005768	-0.10248	0.026596	0.0885	0.4695	0.144	0	224	105	3
2026-02-12	16:43:43.650	-12.74	-0.91	30.135	0.999668	-0.189344	0.028304	0.0765	0.4845	0.147	0	224	105	3
2026-02-12	16:43:43.670	-0.35	1.68	31.465	0.953308	-0.196908	-0.027328	0.081	0.4905	0.1485	0	224	105	3
2026-02-12	16:43:43.690	17.29	4.55	33.215	0.89182	-0.15982	-0.094916	0.075	0.504	0.1485	0	224	105	3
2026-02-12	16:43:43.710	36.26	5.705	33.355	0.867908	-0.10614	-0.122976	0.078	0.495	0.1485	0	224	105	3
2026-02-12	16:43:43.730	45.92	5.53	32.55	0.889136	-0.0793	-0.104188	0.081	0.501	0.144	0	224	105	3
2026-02-12	16:43:43.750	42.175	6.055	30.485	0.925492	-0.0915	-0.060756	0.0765	0.501	0.15	0	224	105	3
2026-02-12	16:43:43.770	33.11	7.35	28.21	0.94062	-0.138348	-0.042944	0.081	0.5055	0.1425	0	224	105	3
2026-02-12	16:43:43.790	27.265	7.945	27.685	0.942572	-0.183976	-0.065636	0.0765	0.5205	0.1395	0	224	105	3
2026-02-12	16:43:43.810	26.775	7.525	28.84	0.969412	-0.2257	-0.100284	0.084	0.531	0.144	0	224	102	3
2026-02-12	16:43:43.830	34.09	5.95	29.575	1.002352	-0.261568	-0.131028	0.0705	0.5295	0.1455	0	224	102	3
2026-02-12	16:43:43.850	48.195	3.605	29.68	1.0309	-0.238388	-0.119804	0.0705	0.549	0.147	0	224	102	3
2026-02-12	16:43:43.870	53.305	3.15	30.38	1.036512	-0.246928	-0.10248	0.0735	0.54	0.1395	0	224	102	3
2026-02-12	16:43:43.890	50.89	3.99	31.255	1.01992	-0.249612	-0.107604	0.0645	0.543	0.1395	0	224	102	3
2026-02-12	16:43:43.910	45.78	4.305	32.655	0.985028	-0.248148	-0.116144	0.0735	0.561	0.138	0	224	102	3
2026-02-12	16:43:43.930	41.825	3.535	34.23	0.982344	-0.26596	-0.12566	0.078	0.564	0.141	0	224	102	3
2026-02-12	16:43:43.950	38.43	2.065	35.28	0.980392	-0.2562	-0.117608	0.072	0.5715	0.138	0	224	102	3
2026-02-12	16:43:43.970	33.81	0.805	35.315	0.949648	-0.289628	-0.09272	0.0675	0.57	0.129	0	224	102	3
2026-02-12	16:43:43.990	31.01	-0.14	34.37	0.914268	-0.294752	-0.07124799	0.0705	0.591	0.1365	0	224	102	3
2026-02-12	16:43:44.010	29.61	0	32.13	0.894992	-0.311832	-0.05856	0.072	0.5865	0.135	0	224	69	3
2026-02-12	16:43:44.030	30.94	0.28	28.21	0.91378	-0.306464	-0.043432	0.066	0.6015	0.1305	0	224	69	3
2026-02-12	16:43:44.050	31.745	0.91	23.345	0.919392	-0.315492	-0.020252	0.0795	0.6105	0.129	0	224	69	3
2026-02-12	16:43:44.070	33.6	1.61	17.85	0.924028	-0.304756	0.008052	0.0705	0.6075	0.135	0	224	69	3
2026-02-12	16:43:44.090	33.145	3.185	12.565	0.947208	-0.31232	0.03172	0.0765	0.6165	0.1365	0	224	69	3
2026-02-12	16:43:44.110	31.99	5.25	8.715	0.94794	-0.276452	0.03904	0.0855	0.609	0.129	0	224	69	3
2026-02-12	16:43:44.130	26.04	6.79	5.04	0.967704	-0.241072	0.03172	0.069	0.618	0.132	0	224	69	3
2026-02-12	16:43:44.150	16.8	7.945	0.42	0.986492	-0.204716	0.036112	0.081	0.6285	0.1275	0	224	69	3
2026-02-12	16:43:44.170	5.25	8.575	-4.585	1.00284	-0.154208	0.043676	0.0765	0.6345	0.12	0	224	69	3
2026-02-12	16:43:44.190	-17.57	10.64	-15.33	0.981124	-0.09028	0.021228	0.081	0.624	0.1275	0	224	69	3
2026-02-12	16:43:44.210	-32.515	11.235	-25.445	0.939644	-0.07564	0.016104	0.0705	0.621	0.1185	0	221	36	3
2026-02-12	16:43:44.230	-47.53	12.705	-36.96	0.886696	-0.103944	0.035136	0.066	0.6195	0.12	0	221	36	3
2026-02-12	16:43:44.250	-64.12	16.905	-47.95	0.84424	-0.143228	0.04514	0.0735	0.6165	0.123	0	221	36	3
2026-02-12	16:43:44.270	-65.45	21.385	-57.925	0.829844	-0.12444	0.03294	0.069	0.6075	0.1185	0	221	36	3
2026-02-12	16:43:44.290	-53.165	23.065	-65.31	0.911584	-0.109556	0.02074	0.0735	0.597	0.114	0	221	36	3
2026-02-12	16:43:44.310	-34.965	20.65	-73.115	1.1529	-0.135664	0.013664	0.0645	0.582	0.111	0	221	36	3
2026-02-12	16:43:44.330	-24.22	18.935	-84.245	1.379576	-0.23912	0.030744	0.063	0.573	0.1095	0	221	36	3
2026-02-12	16:43:44.350	-22.75	20.23	-90.405	1.36518	-0.192028	0.071492	0.066	0.5505	0.1065	0	221	36	3
2026-02-12	16:43:44.370	-25.935	18.83	-85.12	1.15656	-0.118828	0.097112	0.063	0.5445	0.1065	0	221	36	3
2026-02-12	16:43:44.390	-37.73	10.745	-68.18	0.9699	-0.166652	0.111508	0.063	0.531	0.093	0	221	36	3
2026-02-12	16:43:44.410	-40.74	-4.095	-47.145	0.952332	-0.151768	0.162992	0.063	0.531	0.093	0	216	22	3
2026-02-12	16:43:44.430	-38.29	-12.88	-31.29	1.008696	-0.205692	0.214476	0.0495	0.516	0.093	0	216	22	3
2026-02-12	16:43:44.450	-28.77	-16.905	-20.3	1.0309	-0.256932	0.246196	0.054	0.5025	0.096	0	216	22	3
2026-02-12	16:43:44.470	-21.98	-15.61	-14.385	1.009672	-0.26718	0.233996	0.0615	0.504	0.105	0	216	22	3
2026-02-12	16:43:44.490	-17.29	-12.32	-12.565	0.924516	-0.23668	0.21838	0.069	0.4995	0.102	0	216	22	3
2026-02-12	16:43:44.510	-18.69	-9.205	-13.02	0.826672	-0.200324	0.216916	0.0645	0.495	0.1035	0	216	22	3
2026-02-12	16:43:44.530	-24.29	-7.21	-14.49	0.746396	-0.214964	0.243024	0.069	0.4995	0.114	0	216	22	3
2026-02-12	16:43:44.550	-29.645	-6.16	-16.94	0.707356	-0.239364	0.280112	0.066	0.4965	0.117	0	216	22	3
2026-02-12	16:43:44.570	-34.055	-4.515	-17.605	0.696864	-0.277184	0.299632	0.063	0.483	0.1035	0	216	22	3
2026-02-12	16:43:44.590	-33.81	-3.395	-16.24	0.706136	-0.284992	0.288408	0.0705	0.489	0.1125	0	216	22	3
2026-02-12	16:43:44.610	-30.66	-3.185	-13.615	0.785436	-0.307196	0.264008	0.0675	0.4905	0.1095	0	211	40	3
2026-02-12	16:43:44.630	-25.235	-3.325	-11.62	0.86498	-0.305732	0.259128	0.0675	0.4905	0.1095	0	211	40	3
2026-02-12	16:43:44.650	-24.255	-3.15	-9.8	0.889136	-0.296704	0.263764	0.0615	0.4845	0.1125	0	211	40	3
2026-02-12	16:43:44.670	-26.145	-3.36	-8.085	0.874252	-0.269864	0.2745	0.072	0.477	0.1095	0	211	40	3
2026-02-12	16:43:44.690	-31.745	-5.39	-6.265	0.85522	-0.26474	0.253272	0.0675	0.483	0.111	0	211	40	3
2026-02-12	16:43:44.710	-34.335	-9.415	-4.55	0.873032	-0.277916	0.232532	0.072	0.48	0.1005	0	211	40	3
2026-02-12	16:43:44.730	-31.255	-14.14	-3.08	0.915488	-0.269376	0.220332	0.0615	0.4695	0.1005	0	211	40	3
2026-02-12	16:43:44.750	-23.94	-19.285	-0.595	0.996252	-0.25986	0.195932	0.0705	0.465	0.1125	0	211	40	3
2026-02-12	16:43:44.770	-10.465	-25.48	1.96	1.16998	-0.24888	0.177388	0.069	0.4725	0.1095	0	211	40	3
2026-02-12	16:43:44.790	10.325	-30.87	1.995	1.434476	-0.264496	0.1769	0.075	0.4785	0.1065	0	211	40	3
2026-02-12	16:43:44.810	32.55	-29.05	0	1.700924	-0.250588	0.169092	0.0675	0.4785	0.114	0	208	79	3
2026-02-12	16:43:44.830	43.855	-12.215	3.815	1.721176	-0.105408	0.095892	0.0675	0.4785	0.114	0	208	79	3
2026-02-12	16:43:44.850	31.01	2.03	8.82	1.435696	0.03172	0.011224	0.075	0.4755	0.126	0	208	79	3
2026-02-12	16:43:44.870	-0.455	8.68	17.955	1.150948	0.080276	-0.070516	0.0645	0.474	0.135	0	208	79	3
2026-02-12	16:43:44.890	-22.33	5.6	28.21	0.924516	0.111996	-0.0732	0.069	0.4725	0.132	0	208	79	3
2026-02-12	16:43:44.910	-25.27	-4.865	34.405	0.844484	0.083936	-0.030012	0.054	0.4785	0.1155	0	208	79	3
2026-02-12	16:43:44.930	-16.17	-13.965	35.945	0.883768	0.001464	0.035624	0.066	0.486	0.123	0	208	79	3
2026-02-12	16:43:44.950	-4.795	-16.345	34.335	0.947208	-0.066124	0.049288	0.066	0.4905	0.126	0	208	79	3
2026-02-12	16:43:44.970	8.435	-11.69	30.835	0.985272	-0.111264	0.007564	0.063	0.4995	0.1275	0	208	79	3
2026-02-12	16:43:44.990	24.71	-4.235	24.78	0.987956	-0.04758	-0.068076	0.0585	0.498	0.1305	0	208	79	3
2026-02-12	16:43:45.010	31.71	3.255	18.2	0.953552	0.021228	-0.12932	0.0615	0.498	0.1275	0	209	100	3
2026-02-12	16:43:45.030	26.285	8.155	11.48	0.925736	0.022692	-0.131028	0.06	0.504	0.1305	0	209	100	3
2026-02-12	16:43:45.050	14.595	9.66	7.805	0.918904	-0.00244	-0.101992	0.0585	0.5115	0.135	0	209	100	3
2026-02-12	16:43:45.070	4.48	8.925	7.63	0.9333	-0.017324	-0.078812	0.0615	0.507	0.1335	0	209	100	3
2026-02-12	16:43:45.090	-2.835	7.735	8.54	0.942084	-0.06222	-0.075396	0.0585	0.5145	0.1305	0	209	100	3
2026-02-12	16:43:45.110	-4.655	6.58	9.45	0.964532	-0.11224	-0.086132	0.066	0.5085	0.1215	0	209	100	3
2026-02-12	16:43:45.130	-1.19	5.495	10.29	0.97478	-0.15616	-0.098088	0.054	0.5145	0.1185	0	209	100	3
2026-02-12	16:43:45.150	7.245	3.78	11.305	0.98088	-0.181048	-0.106628	0.0495	0.513	0.1125	0	209	100	3
2026-02-12	16:43:45.170	17.08	1.54	12.145	0.97722	-0.185684	-0.090524	0.0525	0.519	0.1215	0	209	100	3
2026-02-12	16:43:45.190	25.375	-0.735	12.495	0.983808	-0.175436	-0.077348	0.06	0.519	0.123	0	209	100	3
2026-02-12	16:43:45.210	28.525	-2.03	12.53	0.990396	-0.199104	-0.066124	0.057	0.5205	0.12	0	212	85	3
2026-02-12	16:43:45.230	28.805	-2.835	12.635	0.999424	-0.223504	-0.061732	0.051	0.528	0.12	0	212	85	3
2026-02-12	16:43:45.250	29.505	-3.22	12.425	1.002596	-0.245464	-0.0549	0.051	0.528	0.12	0	212	85	3
2026-02-12	16:43:45.270	31.08	-4.2	12.74	1.01382	-0.256932	-0.037576	0.051	0.528	0.12	0	212	85	3
2026-02-12	16:43:45.290	33.18	-4.2	12.005	1.01016	-0.267912	-0.017568	0.0585	0.5265	0.12	0	212	85	3
2026-02-12	16:43:45.310	34.195	-3.255	11.41	0.989908	-0.284504	0.003172	0.051	0.534	0.1245	0	212	85	3
2026-02-12	16:43:45.330	35.525	-1.575	10.955	0.965752	-0.279624	0.024644	0.0585	0.5415	0.1185	0	212	85	3
2026-02-12	16:43:45.350	34.335	0.595	9.87	0.940376	-0.277184	0.030256	0.048	0.5415	0.1305	0	212	85	3
2026-02-12	16:43:45.370	32.585	2.835	8.155	0.942328	-0.273768	0.034404	0.0525	0.54	0.1245	0	212	85	3
2026-02-12	16:43:45.390	30.415	4.48	5.67	0.947208	-0.271328	0.038308	0.045	0.5445	0.126	0	212	85	3
2026-02-12	16:43:45.410	28.455	6.02	2.73	0.948916	-0.258396	0.045384	0.057	0.5535	0.1215	0	214	55	3
2026-02-12	16:43:45.430	25.13	7.49	-0.91	0.954284	-0.250344	0.047824	0.0615	0.5505	0.1155	0	214	55	3
2026-02-12	16:43:45.450	20.65	9.345	-4.795	0.951112	-0.2318	0.038308	0.054	0.5535	0.1155	0	214	55	3
2026-02-12	16:43:45.470	13.895	9.975	-9.87	0.96014	-0.19764	0.034892	0.0465	0.558	0.117	0	214	55	3
2026-02-12	16:43:45.490	9.695	10.185	-12.11	0.962336	-0.182756	0.038064	0.0525	0.552	0.12	0	214	55	3
2026-02-12	16:43:45.510	7.56	10.57	-14.385	0.980392	-0.152744	0.03172	0.048	0.555	0.111	0	214	55	3
2026-02-12	16:43:45.530	4.76	11.305	-16.1	0.9821	-0.114436	0.02684	0.0465	0.5505	0.117	0	214	55	3
2026-02-12	16:43:45.550	-0.77	12.005	-16.905	0.972584	-0.09394	0.027084	0.054	0.546	0.1065	0	214	55	3
2026-02-12	16:43:45.570	-8.68	13.615	-17.045	0.999912	-0.070028	0.059292	0.0435	0.546	0.1095	0	214	55	3
2026-02-12	16:43:45.590	-20.265	17.57	-14.7	1.038464	-0.051972	0.083204	0.051	0.546	0.111	0	214	55	3
2026-02-12	16:43:45.610	-33.74	24.045	-9.695	1.060668	-0.030988	0.08662	0.0555	0.5385	0.108	0	211	36	3
2026-02-12	16:43:45.630	-53.515	30.59	-5.39	1.157536	-0.036112	0.061488	0.0495	0.5355	0.099	0	211	36	3
2026-02-12	16:43:45.650	-75.18	35.035	-5.425	1.326872	-0.070516	0.041724	0.0465	0.5355	0.0915	0	211	36	3
2026-02-12	16:43:45.670	-92.61	39.515	-5.215	1.163636	-0.11102	0.066856	0.048	0.534	0.093	0	211	36	3
2026-02-12	16:43:45.690	-98.175	35.77	-2.45	0.900604	-0.103456	0.114436	0.051	0.534	0.096	0	211	36	3
2026-02-12	16:43:45.710	-95.585	26.425	-0.595	0.879132	-0.165676	0.144204	0.045	0.5325	0.0765	0	211	36	3
2026-02-12	16:43:45.730	-84.245	16.59	-0.91	0.938668	-0.240584	0.173484	0.0465	0.5175	0.0885	0	211	36	3
2026-02-12	16:43:45.750	-64.05	8.435	-3.325	0.96258	-0.263276	0.207888	0.045	0.522	0.072	0	211	36	3
2026-02-12	16:43:45.770	-40.495	3.64	-8.96	0.924028	-0.275476	0.231312	0.0435	0.5265	0.075	0	211	36	3
2026-02-12	16:43:45.790	-19.95	0.7	-15.89	0.85278	-0.30744	0.225944	0.0465	0.525	0.075	0	211	36	3
2026-02-12	16:43:45.810	-0.28	-2.275	-21.455	0.771284	-0.306708	0.230092	0.051	0.519	0.0705	0	207	38	3
2026-02-12	16:43:45.830	15.645	-5.845	-24.64	0.717116	-0.299632	0.262544	0.0465	0.5265	0.0675	0	207	38	3
2026-02-12	16:43:45.850	25.83	-8.75	-25.795	0.711992	-0.298168	0.294996	0.042	0.507	0.075	0	207	38	3
2026-02-12	16:43:45.870	29.995	-9.485	-25.2	0.704428	-0.290116	0.299632	0.048	0.5055	0.078	0	207	38	3
2026-02-12	16:43:45.890	24.5	-9.59	-23.59	0.720532	-0.260836	0.292068	0.0555	0.5055	0.081	0	207	38	3
2026-02-12	16:43:45.910	15.19	-9.1	-22.19	0.746884	-0.239364	0.286456	0.0555	0.5055	0.081	0	207	38	3
2026-02-12	16:43:45.930	7.945	-8.155	-21.035	0.751764	-0.233508	0.288652	0.0525	0.4965	0.09	0	207	38	3
2026-02-12	16:43:45.950	-2.03	-8.155	-18.76	0.778604	-0.207888	0.29524	0.0495	0.4995	0.0795	0	207	38	3
2026-02-12	16:43:45.970	-15.505	-8.33	-15.82	0.803492	-0.213012	0.26474	0.054	0.4905	0.081	0	207	38	3
2026-02-12	16:43:45.990	-31.43	-10.885	-12.355	0.827892	-0.229848	0.220332	0.051	0.5055	0.081	0	207	38	3
2026-02-12	16:43:46.010	-43.085	-14.91	-11.235	0.842776	-0.256932	0.214964	0.057	0.4875	0.087	0	202	69	3
2026-02-12	16:43:46.030	-46.97	-19.39	-11.9	0.850096	-0.298656	0.231556	0.054	0.486	0.0885	0	202	69	3
2026-02-12	16:43:46.050	-40.145	-24.325	-11.795	0.831796	-0.354532	0.226188	0.06	0.495	0.087	0	202	69	3
2026-02-12	16:43:46.070	-20.615	-30.345	-13.125	0.978684	-0.3782	0.203496	0.0615	0.4845	0.0885	0	202	69	3
2026-02-12	16:43:46.090	7.91	-34.02	-17.5	1.285148	-0.425292	0.196176	0.06	0.483	0.087	0	202	69	3
2026-02-12	16:43:46.110	53.48	-25.585	-25.375	1.793644	-0.424316	0.168116	0.06	0.483	0.0855	0	202	69	3
2026-02-12	16:43:46.130	62.685	-7.7	-22.015	1.947364	-0.244	0.144204	0.06	0.471	0.1035	0	202	69	3
2026-02-12	16:43:46.150	36.995	10.605	-9.45	1.717272	-0.2196	-0.018788	0.0705	0.477	0.1005	0	202	69	3
2026-02-12	16:43:46.170	18.095	20.16	11.13	1.302472	-0.097356	-0.107116	0.069	0.48	0.111	0	202	69	3
2026-02-12	16:43:46.190	10.745	13.3	29.575	1.02724	0.075396	-0.131272	0.069	0.471	0.1065	0	202	69	3
2026-02-12	16:43:46.210	0.63	-3.955	47.88	0.86498	0.104432	-0.113948	0.0705	0.477	0.1035	0	202	102	3
2026-02-12	16:43:46.230	1.82	-21.665	57.505	0.902068	0.037576	-0.030988	0.057	0.4815	0.099	0	202	102	3
2026-02-12	16:43:46.250	8.19	-26.67	59.815	0.953064	-0.02074	0.032208	0.066	0.4935	0.1065	0	202	102	3
2026-02-12	16:43:46.270	10.745	-19.88	57.365	0.95526	-0.019276	0.004148	0.063	0.4965	0.102	0	202	102	3
2026-02-12	16:43:46.290	8.855	-9.45	51.135	0.931836	0.037576	-0.07686	0.06	0.5115	0.1065	0	202	102	3
2026-02-12	16:43:46.310	6.02	-2.415	41.335	0.888892	0.064172	-0.135664	0.06	0.51	0.108	0	202	102	3
2026-02-12	16:43:46.330	4.41	1.61	25.445	0.865224	0.044408	-0.138348	0.06	0.51	0.111	0	202	102	3
2026-02-12	16:43:46.350	3.92	0.56	18.655	0.897676	0.01708	-0.119072	0.0675	0.519	0.1125	0	202	102	3
2026-02-12	16:43:46.370	6.615	-1.54	14.385	0.925736	0.003416	-0.10126	0.0645	0.528	0.111	0	202	102	3
2026-02-12	16:43:46.390	8.33	-3.885	10.605	0.974536	-0.022448	-0.079788	0.051	0.5175	0.111	0	202	102	3
2026-02-12	16:43:46.410	7.035	-5.39	7.805	1.015284	-0.089304	-0.077836	0.0555	0.5325	0.1095	0	208	100	3
2026-02-12	16:43:46.430	7.98	-6.405	5.635	1.03578	-0.121024	-0.076372	0.051	0.5355	0.1125	0	208	100	3
2026-02-12	16:43:46.450	11.305	-7.385	3.36	1.037244	-0.148596	-0.076616	0.063	0.5415	0.114	0	208	100	3
2026-02-12	16:43:46.470	18.55	-8.645	0.77	1.022848	-0.16104	-0.052704	0.057	0.5325	0.1095	0	208	100	3
2026-02-12	16:43:46.490	24.92	-10.675	-0.245	1.029924	-0.1952	-0.026596	0.0585	0.5325	0.1215	0	208	100	3
2026-02-12	16:43:46.510	29.05	-11.935	0.105	1.05286	-0.223748	-0.014396	0.057	0.5325	0.117	0	208	100	3
2026-02-12	16:43:46.530	30.555	-11.655	1.855	1.043588	-0.252052	0.002196	0.0555	0.5325	0.114	0	208	100	3
2026-02-12	16:43:46.550	32.235	-11.13	4.76	1.024556	-0.266692	0.026108	0.0555	0.5325	0.114	0	208	100	3
2026-02-12	16:43:46.570	33.425	-9.765	8.19	1.023336	-0.258152	0.036112	0.06	0.537	0.1185	0	208	100	3
2026-02-12	16:43:46.590	31.535	-6.79	11.13	0.995032	-0.249612	0.032696	0.0645	0.5535	0.114	0	208	100	3
2026-02-12	16:43:46.610	24.605	-3.535	13.51	0.972828	-0.242048	0.031964	0.0555	0.543	0.1245	0	214	74	3
2026-02-12	16:43:46.630	15.61	-0.07	13.895	0.9699	-0.242536	0.054168	0.0675	0.5475	0.1185	0	214	74	3
2026-02-12	16:43:46.650	7.315	4.095	12.53	0.957944	-0.23668	0.068564	0.072	0.555	0.123	0	214	74	3
2026-02-12	16:43:46.670	-2.135	7.875	10.85	0.93208	-0.259616	0.043676	0.063	0.5505	0.1275	0	214	74	3
2026-02-12	16:43:46.690	-10.99	9.625	8.26	0.8967	-0.282064	0.03172	0.0555	0.552	0.114	0	214	74	3
2026-02-12	16:43:46.710	-14.105	9.905	3.92	0.882304	-0.320372	0.031964	0.06	0.5595	0.1155	0	214	74	3
2026-02-12	16:43:46.730	-8.61	9.625	-0.455	0.874496	-0.348676	0.038552	0.057	0.558	0.1155	0	214	74	3
2026-02-12	16:43:46.750	6.58	10.36	-7.07	0.913292	-0.349652	0.0305	0.0555	0.558	0.1155	0	214	74	3
2026-02-12	16:43:46.770	15.82	12.18	-12.18	0.958676	-0.314272	0.04514	0.0555	0.558	0.1155	0	214	74	3
2026-02-12	16:43:46.790	19.705	15.47	-16.94	1.006012	-0.276208	0.051484	0.0675	0.558	0.114	0	214	74	3
2026-02-12	16:43:46.810	15.995	19.285	-20.86	1.035536	-0.20496	0.048068	0.0615	0.552	0.1095	0	217	51	3
2026-02-12	16:43:46.830	3.745	23.275	-23.975	1.04798	-0.155672	0.04392	0.0705	0.5505	0.105	0	217	51	3
2026-02-12	16:43:46.850	-14.35	26.53	-24.64	1.035292	-0.136396	0.052948	0.06	0.5445	0.1095	0	217	51	3
2026-02-12	16:43:46.870	-30.065	28.42	-22.75	1.03334	-0.133468	0.04026	0.0615	0.54	0.105	0	217	51	3
2026-02-12	16:43:46.890	-38.22	29.12	-18.76	1.004792	-0.122976	0.015372	0.0645	0.537	0.099	0	217	51	3
2026-02-12	16:43:46.910	-36.645	27.37	-14.7	0.985516	-0.091988	0.015128	0.0525	0.531	0.0945	0	217	51	3
2026-02-12	16:43:46.930	-31.15	24.185	-12.355	0.98088	-0.071492	0.012932	0.0555	0.534	0.09	0	217	51	3
2026-02-12	16:43:46.950	-23.24	21.77	-12.81	1.018944	-0.045628	0.028548	0.063	0.5325	0.081	0	217	51	3
2026-02-12	16:43:46.970	-15.61	21.805	-22.12	1.223904	-0.028792	0.019276	0.0675	0.5265	0.075	0	217	51	3
2026-02-12	16:43:46.990	-20.23	25.41	-33.705	1.291004	-0.033428	0.016348	0.063	0.5205	0.081	0	217	51	3
2026-02-12	16:43:47.010	-30.135	29.19	-42.735	1.18706	-0.0488	0.050508	0.063	0.513	0.0765	0	215	40	3
2026-02-12	16:43:47.030	-38.71	27.615	-45.115	0.998448	-0.077592	0.064172	0.0495	0.495	0.066	0	215	40	3
2026-02-12	16:43:47.050	-43.75	20.265	-41.37	0.887916	-0.10126	0.084668	0.06	0.501	0.063	0	215	40	3
2026-02-12	16:43:47.070	-41.79	9.73	-36.645	0.871324	-0.106384	0.118828	0.0585	0.4935	0.0645	0	215	40	3
2026-02-12	16:43:47.090	-38.815	0.28	-33.635	0.90768	-0.162992	0.177632	0.0525	0.483	0.0615	0	215	40	3
2026-02-12	16:43:47.110	-33.81	-4.13	-33.6	0.936716	-0.214232	0.233508	0.0525	0.4785	0.0675	0	215	40	3
2026-02-12	16:43:47.130	-29.015	-4.55	-35	0.927932	-0.249856	0.253028	0.057	0.4755	0.066	0	215	40	3
2026-02-12	16:43:47.150	-23.31	-3.57	-36.855	0.858392	-0.265228	0.260104	0.0585	0.4725	0.0615	0	215	40	3
2026-02-12	16:43:47.170	-16.87	-3.675	-39.69	0.755912	-0.25132	0.251808	0.06	0.4695	0.0585	0	215	40	3
2026-02-12	16:43:47.190	-12.81	-5.495	-42.21	0.697352	-0.261324	0.245952	0.06	0.4695	0.0585	0	215	40	3
2026-02-12	16:43:47.210	-11.55	-7.56	-42.455	0.7015	-0.281576	0.257176	0.072	0.4545	0.0675	0	211	47	3
2026-02-12	16:43:47.230	-10.605	-9.135	-40.18	0.724924	-0.299632	0.270352	0.0735	0.453	0.066	0	211	47	3
2026-02-12	16:43:47.250	-10.01	-10.08	-35.595	0.769088	-0.313052	0.27938	0.075	0.453	0.0675	0	211	47	3
2026-02-12	16:43:47.270	-9.52	-10.64	-30.45	0.794952	-0.285968	0.273036	0.0765	0.4455	0.066	0	211	47	3
2026-02-12	16:43:47.290	-12.355	-10.99	-25.305	0.80886	-0.264984	0.275476	0.078	0.4335	0.0615	0	211	47	3
2026-02-12	16:43:47.310	-18.27	-11.795	-20.475	0.820084	-0.264252	0.2745	0.078	0.435	0.075	0	211	47	3
2026-02-12	16:43:47.330	-25.34	-12.775	-15.82	0.825452	-0.256688	0.279136	0.078	0.4245	0.063	0	211	47	3
2026-02-12	16:43:47.350	-32.27	-14.7	-11.27	0.870104	-0.2806	0.283772	0.081	0.4275	0.0675	0	211	47	3
2026-02-12	16:43:47.370	-32.48	-15.89	-6.44	0.894504	-0.280844	0.290116	0.0855	0.429	0.0675	0	211	47	3
2026-02-12	16:43:47.390	-25.13	-18.165	1.54	0.958188	-0.2867	0.256932	0.087	0.426	0.063	0	211	47	3
2026-02-12	16:43:47.410	-14.07	-21.77	5.355	1.14314	-0.275232	0.22692	0.087	0.426	0.063	0	208	81	2
2026-02-12	16:43:47.430	1.365	-24.185	5.46	1.426912	-0.293532	0.231068	0.084	0.4215	0.0645	0	208	81	2
2026-02-12	16:43:47.450	21.91	-22.925	3.885	1.75802	-0.29402	0.244732	0.084	0.4275	0.0675	0	208	81	2
2026-02-12	16:43:47.470	32.865	-11.76	6.51	1.831464	-0.2562	0.224236	0.0885	0.423	0.069	0	208	81	2
2026-02-12	16:43:47.490	29.225	0.455	17.43	1.61284	-0.16836	0.141276	0.0885	0.4245	0.072	0	208	81	2
2026-02-12	16:43:47.510	24.01	3.22	31.815	1.356396	-0.05612	0.083204	0.09	0.4305	0.0795	0	208	81	2
2026-02-12	16:43:47.530	19.845	-1.855	48.265	1.14192	0.015616	0.101504	0.087	0.4245	0.072	0	208	81	2
2026-02-12	16:43:47.550	17.395	-10.045	61.6	1.017724	0.060024	0.13786	0.084	0.435	0.072	0	208	81	2
2026-02-12	16:43:47.570	14.805	-13.93	65.45	0.991616	0.0122	0.161772	0.0855	0.441	0.0795	0	208	81	2
2026-02-12	16:43:47.590	13.16	-9.975	60.62	1.021384	-0.01098	0.145912	0.0825	0.444	0.084	0	208	81	2
2026-02-12	16:43:47.610	6.405	4.865	48.405	0.956236	-0.050508	0.060024	0.0765	0.4425	0.081	0	209	116	3
2026-02-12	16:43:47.630	8.68	12.915	39.27	0.871812	-0.06832	-0.001464	0.081	0.4665	0.084	0	209	116	3
2026-02-12	16:43:47.650	20.23	16.345	32.445	0.810568	-0.07515199	-0.02684	0.0765	0.477	0.0825	0	209	116	3
2026-02-12	16:43:47.670	33.705	15.785	29.505	0.808616	-0.073932	-0.031232	0.072	0.474	0.087	0	209	116	3
2026-02-12	16:43:47.690	39.62	14.035	29.785	0.840092	-0.062952	-0.02562	0.0735	0.471	0.0825	0	209	116	3
2026-02-12	16:43:47.710	38.43	13.055	31.535	0.863516	-0.057096	-0.03416	0.072	0.48	0.0825	0	209	116	3
2026-02-12	16:43:47.730	33.355	12.18	32.375	0.882548	-0.070028	-0.0549	0.0765	0.483	0.0855	0	209	116	3
2026-02-12	16:43:47.750	27.895	11.585	31.57	0.938668	-0.099064	-0.072712	0.066	0.486	0.0825	0	209	116	3
2026-02-12	16:43:47.770	24.325	11.235	30.24	0.998204	-0.15494	-0.08295999	0.069	0.4935	0.0825	0	209	116	3
2026-02-12	16:43:47.790	25.025	11.2	29.33	1.02236	-0.193248	-0.08686399	0.069	0.4965	0.0795	0	209	116	3
2026-02-12	16:43:47.810	30.66	9.03	30.065	1.02846	-0.234972	-0.087108	0.072	0.495	0.078	0	213	121	3
2026-02-12	16:43:47.830	38.85	4.48	31.885	1.0187	-0.259128	-0.084912	0.0765	0.498	0.0795	0	213	121	3
2026-02-12	16:43:47.850	45.185	-0.35	33.53	1.065792	-0.27206	-0.05856	0.0615	0.504	0.0855	0	213	121	3
2026-02-12	16:43:47.870	47.985	-2.765	35.56	1.093852	-0.267668	-0.041236	0.06	0.513	0.087	0	213	121	3
2026-02-12	16:43:47.890	47.705	-2.415	37.59	1.080432	-0.26474	-0.031476	0.069	0.522	0.0855	0	213	121	3
2026-02-12	16:43:47.910	42.945	-1.155	38.465	1.069696	-0.267912	-0.028792	0.063	0.528	0.0915	0	213	121	3
2026-02-12	16:43:47.930	38.255	0.315	38.535	1.067012	-0.275232	-0.008784	0.072	0.534	0.0915	0	213	121	3
2026-02-12	16:43:47.950	32.935	1.4	38.535	1.037244	-0.290116	0.009028	0.0705	0.5415	0.09	0	213	121	3
2026-02-12	16:43:47.970	28.385	1.785	37.87	1.015528	-0.305488	0.020496	0.069	0.54	0.0855	0	213	121	3
2026-02-12	16:43:47.990	25.795	1.295	35.77	1.003084	-0.31232	0.037088	0.0735	0.549	0.087	0	213	121	3
2026-02-12	16:43:48.010	26.355	0.175	31.605	0.976244	-0.322812	0.066124	0.078	0.5595	0.0885	0	218	98	3
2026-02-12	16:43:48.030	29.295	-1.26	28.21	0.94428	-0.340868	0.091988	0.078	0.5595	0.0885	0	218	98	3
2026-02-12	16:43:48.050	33.985	-2.065	26.705	0.91378	-0.332572	0.09467199	0.078	0.5595	0.0885	0	218	98	3
2026-02-12	16:43:48.070	39.445	-2.45	24.92	0.90768	-0.30378	0.100284	0.072	0.573	0.096	0	218	98	3
2026-02-12	16:43:48.090	42.42	-1.155	21.84	0.9089	-0.240584	0.1098	0.0705	0.588	0.0975	0	218	98	3
2026-02-12	16:43:48.110	38.08	1.61	16.555	0.918172	-0.168116	0.122732	0.066	0.588	0.09	0	218	98	3
2026-02-12	16:43:48.130	24.5	6.055	9.24	0.902556	-0.10858	0.123952	0.078	0.591	0.0975	0	218	98	3
2026-02-12	16:43:48.150	6.055	10.08	0.805	0.870836	-0.07564	0.115168	0.0735	0.597	0.0885	0	218	98	3
2026-02-12	16:43:48.170	-9.975	12.53	-7.945	0.858392	-0.086376	0.133712	0.072	0.5895	0.096	0	218	98	3
2026-02-12	16:43:48.190	-20.125	14.84	-14.98	0.855708	-0.117852	0.138836	0.069	0.588	0.096	0	218	98	3
2026-02-12	16:43:48.210	-25.06	17.325	-20.615	0.864492	-0.139324	0.127368	0.0705	0.585	0.093	0	219	78	3
2026-02-12	16:43:48.230	-24.08	19.39	-24.15	0.849608	-0.1464	0.128588	0.0765	0.582	0.087	0	219	78	3
2026-02-12	16:43:48.250	-12.88	19.39	-27.335	0.899872	-0.145424	0.13298	0.078	0.582	0.084	0	219	78	3
2026-02-12	16:43:48.270	-12.355	17.71	-33.215	1.166076	-0.138836	0.090524	0.0735	0.579	0.0795	0	219	78	3
