yyyy-MM-dd	HH:mm:ss.fff	gyrX	gyrY	gyrZ	accX	accY	accZ	magX	magY	magZ	Marker	Energy	Angle	Classification
2026-02-12	14:38:00.410	5.285	0.105	4.2	0.96258	-0.308904	-0.040748	0.0315	0.648	0.0045	0	411	65	2
2026-02-12	14:38:00.430	5.635	0.665	4.585	0.959652	-0.305244	-0.032696	0.033	0.651	0.0075	0	411	65	2
2026-02-12	14:38:00.450	6.545	0.455	5.075	0.964776	-0.295484	-0.020984	0.042	0.66	0.009	0	411	65	2
2026-02-12	14:38:00.470	5.495	-0.63	6.055	0.961604	-0.300852	-0.030744	0.0285	0.657	0.009	0	411	65	2
2026-02-12	14:38:00.490	5.32	-1.505	7.49	0.961116	-0.299388	-0.033184	0.027	0.6525	0	0	411	65	2
2026-02-12	14:38:00.510	6.02	-3.045	8.715	0.958432	-0.312808	-0.028792	0.027	0.6525	0	0	411	65	2
2026-02-12	14:38:00.530	7.945	-5.11	9.17	0.957212	-0.314028	-0.025376	0.036	0.6495	0.0045	0	411	65	2
2026-02-12	14:38:00.550	8.68	-7.315	10.15	0.958676	-0.305244	-0.021716	0.0345	0.651	0.006	0	411	65	2
2026-02-12	14:38:00.570	13.16	-10.325	11.2	0.962336	-0.331108	-0.024644	0.0345	0.654	0.0075	0	411	65	2
2026-02-12	14:38:00.590	18.13	-12.6	10.465	0.958188	-0.327692	-0.019032	0.039	0.66	0.015	0	411	65	2
2026-02-12	14:38:00.610	21.84	-14.56	9.8	0.955016	-0.338184	-0.028792	0.03	0.6585	0.018	0	355	55	2
2026-02-12	14:38:00.630	23.52	-16.975	10.29	0.959408	-0.325252	-0.029036	0.0315	0.657	0.0165	0	355	55	2
2026-02-12	14:38:00.650	24.325	-20.79	11.515	0.971608	-0.312076	0.00244	0.03	0.663	0.018	0	355	55	2
2026-02-12	14:38:00.670	34.65	-24.99	10.745	0.986004	-0.304268	-0.033916	0.0345	0.666	0.0345	0	355	55	2
2026-02-12	14:38:00.690	41.65	-29.505	8.19	0.98088	-0.328912	-0.015128	0.0285	0.669	0.0315	0	355	55	2
2026-02-12	14:38:00.710	46.025	-36.505	3.255	1.01992	-0.318664	-0.011956	0.0195	0.66	0.042	0	355	55	2
2026-02-12	14:38:00.730	48.44	-40.53	-0.805	1.113128	-0.293776	0.012444	0.0195	0.66	0.042	0	355	55	2
2026-02-12	14:38:00.750	59.045	-37.205	-6.055	1.197308	-0.244732	0.1342	0.0225	0.657	0.051	0	355	55	2
2026-02-12	14:38:00.770	92.75	-24.605	-19.145	1.284172	-0.180072	0.213012	0.024	0.666	0.063	0	355	55	2
2026-02-12	14:38:00.790	131.18	-6.055	-23.24	1.346148	-0.426268	0.077104	0.0165	0.6615	0.0705	0	355	55	2
2026-02-12	14:38:00.810	148.12	10.01	-17.745	1.347124	-0.424072	0.047092	0.009	0.6585	0.0675	0	306	45	3
2026-02-12	14:38:00.830	146.3	19.705	-10.36	1.307352	-0.36112	0.00366	0.009	0.651	0.081	0	306	45	3
2026-02-12	14:38:00.850	136.675	24.99	-4.725	1.239764	-0.293288	-0.066368	0.0165	0.651	0.09	0	306	45	3
2026-02-12	14:38:00.870	108.395	20.475	6.16	1.017236	-0.321348	-0.22814	0.0045	0.654	0.0855	0	306	45	3
2026-02-12	14:38:00.890	109.165	9.66	7.315	0.964532	-0.368684	-0.295484	0.003	0.66	0.0915	0	306	45	3
2026-02-12	14:38:00.910	126.7	-3.29	7	0.913536	-0.376248	-0.324276	0.003	0.663	0.1005	0	306	45	3
2026-02-12	14:38:00.930	150.36	-16.835	6.755	0.860344	-0.370392	-0.315736	0	0.6615	0.1035	0	306	45	3
2026-02-12	14:38:00.950	176.295	-28.77	6.405	0.817888	-0.34648	-0.284504	-0.0045	0.6645	0.105	0	306	45	3
2026-02-12	14:38:00.970	203.21	-38.185	6.09	0.784948	-0.353312	-0.238632	-0.0075	0.6615	0.102	0	306	45	3
2026-02-12	14:38:00.990	236.04	-46.55	5.81	0.770308	-0.368196	-0.23424	-0.0075	0.666	0.114	0	306	45	3
2026-02-12	14:38:01.010	280.77	-52.885	4.025	0.775676	-0.352092	-0.222528	-0.0075	0.6645	0.1305	0	271	47	3
2026-02-12	14:38:01.030	317.975	-57.33	1.295	0.764696	-0.293532	-0.20008	-0.012	0.666	0.141	0	271	47	3
2026-02-12	14:38:01.050	330.295	-60.025	-3.045	0.758596	-0.23668	-0.169336	-0.0165	0.672	0.162	0	271	47	3
2026-02-12	14:38:01.070	330.89	-60.06	-8.015	0.753716	-0.233996	-0.127124	-0.0165	0.678	0.174	0	271	47	3
2026-02-12	14:38:01.090	326.62	-62.615	-13.37	0.778604	-0.22326	-0.080032	-0.015	0.6855	0.18	0	271	47	3
2026-02-12	14:38:01.110	318.57	-65.135	-19.25	0.798124	-0.247904	-0.023424	-0.0135	0.693	0.189	0	271	47	3
2026-02-12	14:38:01.130	312.2	-67.795	-23.205	0.848632	-0.260592	0.033916	-0.006	0.696	0.1965	0	271	47	3
2026-02-12	14:38:01.150	310.87	-69.93	-26.215	0.935008	-0.284016	0.081252	-0.003	0.705	0.2025	0	271	47	3
2026-02-12	14:38:01.170	317.1	-70.42	-28.84	1.019676	-0.335744	0.145668	-0.0075	0.711	0.2085	0	271	47	3
2026-02-12	14:38:01.190	333.48	-67.095	-26.95	1.04676	-0.40504	0.212768	0	0.7065	0.2175	0	271	47	3
2026-02-12	14:38:01.210	366.73	-62.02	-18.865	1.086776	-0.47214	0.291824	0	0.723	0.228	0	248	56	3
2026-02-12	14:38:01.230	421.47	-52.99	-3.36	1.122156	-0.50996	0.37332	0.006	0.729	0.2265	0	248	56	3
2026-02-12	14:38:01.250	489.895	-29.68	35.21	1.114592	-0.315492	0.354044	0.006	0.729	0.2265	0	248	56	3
2026-02-12	14:38:01.270	533.82	-1.75	50.225	1.092388	-0.197884	0.209352	0.0075	0.7515	0.216	0	248	56	3
2026-02-12	14:38:01.290	547.05	25.235	37.695	1.039196	0.880596	0.406016	0.0135	0.7875	0.195	0	248	56	3
2026-02-12	14:38:01.310	357.175	51.485	34.72	1.064328	0.868396	0.465308	0.0165	0.798	0.1665	0	248	56	3
2026-02-12	14:38:01.330	156.73	66.045	49.175	1.034804	0.43188	0.278648	0.0165	0.8025	0.144	0	248	56	3
2026-02-12	14:38:01.350	54.985	67.445	50.68	1.026264	0.300852	0.18666	0.018	0.8145	0.1305	0	248	56	3
2026-02-12	14:38:01.370	-15.12	67.865	47.81	0.960628	0.170556	0.180316	0.0165	0.8205	0.1215	0	248	56	3
2026-02-12	14:38:01.390	-64.645	63.245	44.275	0.901824	0.043188	0.218624	0.0315	0.8385	0.1065	0	248	56	3
2026-02-12	14:37:59.410	-56.245	17.255	-3.99	0.929396	-0.311344	-0.227408	0.027	0.663	0.0555	0	757	85	3
2026-02-12	14:37:59.430	-44.485	20.335	-7.875	0.922564	-0.360632	-0.194712	0.03	0.6645	0.054	0	757	85	3
2026-02-12	14:37:59.450	-42.175	22.645	-5.845	0.95892	-0.301828	-0.092232	0.027	0.666	0.051	0	757	85	3
2026-02-12	14:37:59.470	-63.385	24.92	-1.015	0.962092	-0.2684	-0.108092	0.0255	0.6645	0.0495	0	757	85	3
2026-02-12	14:37:59.490	-47.32	22.435	-3.395	0.940132	-0.35014	-0.1403	0.0285	0.666	0.0465	0	757	85	3
2026-02-12	14:37:59.510	-25.55	22.085	-6.09	0.948428	-0.343308	-0.08686399	0.024	0.666	0.0405	0	757	85	3
2026-02-12	14:37:59.530	-19.145	22.085	-4.655	0.977952	-0.2684	-0.094916	0.0225	0.6675	0.0345	0	757	85	3
2026-02-12	14:37:59.550	-14.525	21.77	-4.55	0.984784	-0.251808	-0.059536	0.027	0.663	0.03	0	757	85	3
2026-02-12	14:37:59.570	-16.31	20.685	-5.145	0.968436	-0.283772	-0.074176	0.03	0.6615	0.0195	0	757	85	3
2026-02-12	14:37:59.590	-10.115	19.25	-6.72	0.963556	-0.309148	-0.080032	0.033	0.6675	0.015	0	757	85	3
2026-02-12	14:37:59.610	0.175	15.54	-7.77	0.95892	-0.298168	-0.07076	0.039	0.672	0.0135	0	686	106	3
2026-02-12	14:37:59.630	12.74	11.235	-8.155	0.964288	-0.276452	-0.040748	0.033	0.6705	0.009	0	686	106	3
2026-02-12	14:37:59.650	19.915	6.055	-8.12	0.946476	-0.3172	-0.079788	0.0285	0.663	0.0045	0	686	106	3
2026-02-12	14:37:59.670	25.41	2.38	-5.985	0.961848	-0.281088	-0.061732	0.0345	0.66	0.0045	0	686	106	3
2026-02-12	14:37:59.690	33.705	0.385	-3.92	0.965264	-0.2684	-0.062464	0.036	0.6615	0.006	0	686	106	3
2026-02-12	14:37:59.710	37.625	0.28	-2.135	0.974048	-0.26596	-0.072468	0.033	0.657	0.0075	0	686	106	3
2026-02-12	14:37:59.730	22.085	3.36	-0.63	0.967216	-0.284992	-0.080276	0.0315	0.6615	0.006	0	686	106	3
2026-02-12	14:37:59.750	18.025	5.285	-1.61	0.971364	-0.293776	-0.058316	0.0315	0.654	0.0045	0	686	106	3
2026-02-12	14:37:59.770	23.065	5.53	-3.185	0.965508	-0.293288	-0.052216	0.0345	0.651	0.003	0	686	106	3
2026-02-12	14:37:59.790	27.335	4.69	-4.305	0.963312	-0.288408	-0.051972	0.033	0.6495	0.003	0	686	106	3
2026-02-12	14:37:59.810	23.24	4.55	-4.235	0.970632	-0.262544	-0.0549	0.033	0.6435	0.003	0	613	106	3
2026-02-12	14:37:59.830	16.17	4.76	-3.605	0.97844	-0.233752	-0.025864	0.036	0.6495	0.006	0	613	106	3
2026-02-12	14:37:59.850	11.515	3.71	-3.605	0.9699	-0.27572	-0.017324	0.039	0.648	0.0045	0	613	106	3
2026-02-12	14:37:59.870	10.255	2.17	-3.43	0.964776	-0.287188	-0.037088	0.039	0.645	0	0	613	106	3
2026-02-12	14:37:59.890	10.71	2.31	-3.185	0.97356	-0.278648	-0.025376	0.036	0.645	0.0015	0	613	106	3
2026-02-12	14:37:59.910	9.765	2.415	-3.045	0.97112	-0.263276	-0.026352	0.039	0.6435	0.003	0	613	106	3
2026-02-12	14:37:59.930	6.16	2.52	-2.24	0.974048	-0.25986	-0.022692	0.0465	0.6465	0	0	613	106	3
2026-02-12	14:37:59.950	4.83	2.625	-1.995	0.969656	-0.264984	-0.022692	0.045	0.633	0.0015	0	613	106	3
2026-02-12	14:37:59.970	4.305	0.77	-2.03	0.970388	-0.26718	-0.02196	0.039	0.6345	0	0	613	106	3
2026-02-12	14:37:59.990	5.705	-0.665	-2.31	0.97356	-0.273768	-0.030744	0.033	0.6405	-0.0015	0	613	106	3
2026-02-12	14:38:00.010	6.335	-1.75	-2.17	0.967704	-0.278404	-0.050752	0.033	0.645	-0.003	0	542	94	2
2026-02-12	14:38:00.030	4.55	-1.435	-1.19	0.976732	-0.264252	-0.031232	0.036	0.642	-0.0015	0	542	94	2
2026-02-12	14:38:00.050	3.64	-1.61	-0.49	0.97356	-0.266936	-0.018788	0.0345	0.6405	0.006	0	542	94	2
2026-02-12	14:38:00.070	2.59	-2.135	0.525	0.965752	-0.277672	-0.0305	0.03	0.6435	0.0045	0	542	94	2
2026-02-12	14:38:00.090	3.955	-2.03	1.435	0.97478	-0.273036	-0.025376	0.0345	0.642	0	0	542	94	2
2026-02-12	14:38:00.110	4.305	-2.1	2.205	0.971852	-0.269132	-0.029036	0.0375	0.6405	0.0045	0	542	94	2
2026-02-12	14:38:00.130	2.03	-2.415	3.99	0.970876	-0.274256	-0.030012	0.0375	0.642	0.009	0	542	94	2
2026-02-12	14:38:00.150	2.94	-2.695	4.795	0.969168	-0.279136	-0.026352	0.036	0.6405	0.0045	0	542	94	2
2026-02-12	14:38:00.170	2.52	-3.57	5.11	0.9638	-0.278404	-0.043188	0.0315	0.642	0.003	0	542	94	2
2026-02-12	14:38:00.190	0.035	-3.01	5.25	0.9699	-0.27816	-0.040748	0.033	0.642	0.006	0	542	94	2
2026-02-12	14:38:00.210	-2.485	-2.38	4.865	0.968924	-0.28304	-0.033428	0.0345	0.6435	0.003	0	474	78	2
2026-02-12	14:38:00.230	-3.045	-2.345	4.2	0.962824	-0.302072	-0.045872	0.033	0.645	0.0015	0	474	78	2
2026-02-12	14:38:00.250	-0.84	-1.435	3.92	0.968192	-0.284748	-0.032452	0.033	0.6405	0.0045	0	474	78	2
2026-02-12	14:38:00.270	0.49	-1.26	3.43	0.9638	-0.292068	-0.024644	0.0315	0.639	0.009	0	474	78	2
2026-02-12	14:38:00.290	2.835	-1.4	3.255	0.962824	-0.301584	-0.04514	0.0315	0.639	0.009	0	474	78	2
2026-02-12	14:38:00.310	4.34	-1.12	4.06	0.96868	-0.28182	-0.034648	0.0285	0.6495	-0.003	0	474	78	2
2026-02-12	14:38:00.330	4.13	-1.26	4.69	0.965752	-0.292068	-0.039772	0.0315	0.6465	0.0045	0	474	78	2
2026-02-12	14:38:00.350	3.605	-1.645	4.97	0.961116	-0.294752	-0.041236	0.036	0.6435	0.006	0	474	78	2
2026-02-12	14:38:00.370	3.71	-1.365	4.585	0.963556	-0.300852	-0.038552	0.0345	0.645	0.003	0	474	78	2
2026-02-12	14:38:00.390	4.165	-0.875	4.27	0.967216	-0.28548	-0.035624	0.0315	0.645	0.0045	0	474	78	2
2026-02-12	14:38:00.410	5.285	0.105	4.2	0.96258	-0.308904	-0.040748	0.0315	0.648	0.0045	0	411	65	2
2026-02-12	14:38:00.430	5.635	0.665	4.585	0.959652	-0.305244	-0.032696	0.033	0.651	0.0075	0	411	65	2
2026-02-12	14:38:00.450	6.545	0.455	5.075	0.964776	-0.295484	-0.020984	0.042	0.66	0.009	0	411	65	2
2026-02-12	14:38:00.470	5.495	-0.63	6.055	0.961604	-0.300852	-0.030744	0.0285	0.657	0.009	0	411	65	2
2026-02-12	14:38:00.490	5.32	-1.505	7.49	0.961116	-0.299388	-0.033184	0.027	0.6525	0	0	411	65	2
2026-02-12	14:38:00.510	6.02	-3.045	8.715	0.958432	-0.312808	-0.028792	0.027	0.6525	0	0	411	65	2
2026-02-12	14:38:00.530	7.945	-5.11	9.17	0.957212	-0.314028	-0.025376	0.036	0.6495	0.0045	0	411	65	2
2026-02-12	14:38:00.550	8.68	-7.315	10.15	0.958676	-0.305244	-0.021716	0.0345	0.651	0.006	0	411	65	2
2026-02-12	14:38:00.570	13.16	-10.325	11.2	0.962336	-0.331108	-0.024644	0.0345	0.654	0.0075	0	411	65	2
2026-02-12	14:38:00.590	18.13	-12.6	10.465	0.958188	-0.327692	-0.019032	0.039	0.66	0.015	0	411	65	2
2026-02-12	14:38:00.610	21.84	-14.56	9.8	0.955016	-0.338184	-0.028792	0.03	0.6585	0.018	0	355	55	2
2026-02-12	14:38:00.630	23.52	-16.975	10.29	0.959408	-0.325252	-0.029036	0.0315	0.657	0.0165	0	355	55	2
2026-02-12	14:38:00.650	24.325	-20.79	11.515	0.971608	-0.312076	0.00244	0.03	0.663	0.018	0	355	55	2
2026-02-12	14:38:00.670	34.65	-24.99	10.745	0.986004	-0.304268	-0.033916	0.0345	0.666	0.0345	0	355	55	2
2026-02-12	14:38:00.690	41.65	-29.505	8.19	0.98088	-0.328912	-0.015128	0.0285	0.669	0.0315	0	355	55	2
2026-02-12	14:38:00.710	46.025	-36.505	3.255	1.01992	-0.318664	-0.011956	0.0195	0.66	0.042	0	355	55	2
2026-02-12	14:38:00.730	48.44	-40.53	-0.805	1.113128	-0.293776	0.012444	0.0195	0.66	0.042	0	355	55	2
2026-02-12	14:38:00.750	59.045	-37.205	-6.055	1.197308	-0.244732	0.1342	0.0225	0.657	0.051	0	355	55	2
2026-02-12	14:38:00.770	92.75	-24.605	-19.145	1.284172	-0.180072	0.213012	0.024	0.666	0.063	0	355	55	2
2026-02-12	14:38:00.790	131.18	-6.055	-23.24	1.346148	-0.426268	0.077104	0.0165	0.6615	0.0705	0	355	55	2
2026-02-12	14:38:00.810	148.12	10.01	-17.745	1.347124	-0.424072	0.047092	0.009	0.6585	0.0675	0	306	45	3
2026-02-12	14:38:00.830	146.3	19.705	-10.36	1.307352	-0.36112	0.00366	0.009	0.651	0.081	0	306	45	3
2026-02-12	14:38:00.850	136.675	24.99	-4.725	1.239764	-0.293288	-0.066368	0.0165	0.651	0.09	0	306	45	3
2026-02-12	14:38:00.870	108.395	20.475	6.16	1.017236	-0.321348	-0.22814	0.0045	0.654	0.0855	0	306	45	3
2026-02-12	14:38:00.890	109.165	9.66	7.315	0.964532	-0.368684	-0.295484	0.003	0.66	0.0915	0	306	45	3
2026-02-12	14:38:00.910	126.7	-3.29	7	0.913536	-0.376248	-0.324276	0.003	0.663	0.1005	0	306	45	3
2026-02-12	14:38:00.930	150.36	-16.835	6.755	0.860344	-0.370392	-0.315736	0	0.6615	0.1035	0	306	45	3
2026-02-12	14:38:00.950	176.295	-28.77	6.405	0.817888	-0.34648	-0.284504	-0.0045	0.6645	0.105	0	306	45	3
2026-02-12	14:38:00.970	203.21	-38.185	6.09	0.784948	-0.353312	-0.238632	-0.0075	0.6615	0.102	0	306	45	3
2026-02-12	14:38:00.990	236.04	-46.55	5.81	0.770308	-0.368196	-0.23424	-0.0075	0.666	0.114	0	306	45	3
2026-02-12	14:38:11.010	16.905	22.82	65.835	0.506544	-0.459696	-0.15616	0.153	0.954	0.357	0	421	155	3
2026-02-12	14:38:11.030	36.12	14.945	61.32	0.488976	-0.412116	-0.143716	0.1575	0.963	0.354	0	421	155	3
2026-02-12	14:38:11.050	44.87	7.56	55.755	0.4697	-0.406016	-0.080764	0.168	0.9735	0.351	0	421	155	3
2026-02-12	14:38:11.070	48.65	3.29	49.56	0.44774	-0.412116	-0.004148	0.1695	0.9885	0.348	0	421	155	3
2026-02-12	14:38:11.090	43.925	2.485	40.985	0.449204	-0.466528	0.06466	0.18	0.993	0.348	0	421	155	3
2026-02-12	14:38:11.110	27.895	3.15	34.3	0.440176	-0.511912	0.148596	0.177	1.0005	0.339	0	421	155	3
2026-02-12	14:38:11.130	-4.97	7.77	27.65	0.462868	-0.657824	0.21106	0.1905	1.008	0.327	0	421	155	3
2026-02-12	14:38:11.150	-25.235	10.605	21	0.488732	-0.769576	0.142984	0.192	1.002	0.3375	0	421	155	3
2026-02-12	14:38:11.170	-35.63	7.385	15.19	0.54046	-0.864248	0.028548	0.1965	1.008	0.339	0	421	155	3
2026-02-12	14:38:11.190	-46.235	-3.885	6.055	0.758352	-1.030412	-0.097356	0.1905	1.002	0.333	0	421	155	3
2026-02-12	14:38:11.210	-40.495	-11.935	3.815	0.893772	-1.2566	-0.061488	0.1905	0.999	0.339	0	423	146	3
2026-02-12	14:38:11.230	-7.77	-16.975	1.085	0.96136	-1.136796	0.046848	0.1905	0.996	0.345	0	423	146	3
2026-02-12	14:38:11.250	10.64	-20.72	-12.775	0.974292	-0.637816	0.037576	0.198	1.0065	0.351	0	423	146	3
2026-02-12	14:38:11.270	-15.645	-25.9	-21.455	1.083848	-0.639524	-0.016836	0.195	0.9945	0.3525	0	423	146	3
2026-02-12	14:38:11.290	-20.23	-32.69	-26.845	1.097268	-0.75274	-0.122488	0.1965	1.002	0.357	0	423	146	3
2026-02-12	14:38:11.310	15.4	-44.065	-37.205	0.910852	-0.598044	-0.261568	0.1905	0.996	0.3645	0	423	146	3
2026-02-12	14:38:11.330	46.69	-57.12	-44.625	0.796904	-0.381372	-0.254736	0.1935	0.9885	0.3675	0	423	146	3
2026-02-12	14:38:11.350	48.055	-67.655	-47.95	0.76982	-0.253028	-0.161772	0.192	0.987	0.36	0	423	146	3
2026-02-12	14:38:11.370	39.83	-71.855	-50.295	0.748104	-0.238876	-0.048068	0.1905	0.9825	0.3645	0	423	146	3
2026-02-12	14:38:11.390	30.135	-72.555	-51.275	0.74176	-0.208132	-0.020496	0.1905	0.9855	0.366	0	423	146	3
2026-02-12	14:38:11.410	7	-70.84	-51.31	0.774456	-0.314516	-0.147376	0.186	0.975	0.3675	0	419	122	3
2026-02-12	14:38:11.430	-10.29	-67.9	-53.235	0.840092	-0.533628	-0.266936	0.186	0.975	0.3675	0	419	122	3
2026-02-12	14:38:11.450	-14.805	-64.645	-52.78	0.845704	-0.640012	-0.311344	0.195	0.978	0.378	0	419	122	3
2026-02-12	14:38:11.470	-21.315	-59.78	-51.905	0.8845	-0.764208	-0.388204	0.1965	0.9705	0.3915	0	419	122	3
2026-02-12	14:38:11.490	-14.49	-52.885	-52.745	0.886208	-0.821792	-0.43798	0.189	0.96	0.4005	0	419	122	3
2026-02-12	14:38:11.510	4.865	-46.515	-57.12	0.874496	-0.772992	-0.444812	0.1905	0.9495	0.4035	0	419	122	3
2026-02-12	14:38:11.530	17.85	-41.16	-62.3	0.917684	-0.744688	-0.406016	0.189	0.942	0.414	0	419	122	3
2026-02-12	14:38:11.550	26.32	-35.21	-66.99	0.998204	-0.698084	-0.336964	0.195	0.9435	0.417	0	419	122	3
2026-02-12	14:38:11.570	22.715	-28.07	-69.825	1.087508	-0.719556	-0.368928	0.1815	0.9315	0.4155	0	419	122	3
2026-02-12	14:38:11.590	22.225	-22.54	-72.1	1.16876	-0.684664	-0.416508	0.177	0.9315	0.414	0	419	122	3
2026-02-12	14:38:11.610	24.395	-19.495	-75.565	1.210728	-0.586576	-0.432612	0.1815	0.921	0.4215	0	412	126	3
2026-02-12	14:38:11.630	25.095	-14.84	-82.95	1.154608	-0.3782	-0.402112	0.174	0.9195	0.4185	0	412	126	3
2026-02-12	14:38:11.650	14.56	-11.725	-86.1	1.054568	-0.269864	-0.223016	0.1665	0.918	0.417	0	412	126	3
2026-02-12	14:38:11.670	-8.4	-5.53	-84.245	0.937692	-0.176412	-0.080032	0.1635	0.903	0.42	0	412	126	3
2026-02-12	14:38:11.690	-40.46	4.9	-74.865	0.842288	-0.176168	0.015128	0.1485	0.897	0.4125	0	412	126	3
2026-02-12	14:38:11.710	-69.16	19.04	-58.835	0.7686	-0.327448	0.012932	0.144	0.8895	0.423	0	412	126	3
2026-02-12	14:38:11.730	-72.135	31.01	-37.52	0.707112	-0.426756	-0.063196	0.1395	0.87	0.429	0	412	126	3
2026-02-12	14:38:11.750	-58.345	38.57	-15.61	0.604876	-0.426024	-0.141276	0.1305	0.864	0.417	0	412	126	3
2026-02-12	14:38:11.770	-33.985	40.985	1.645	0.55144	-0.353068	-0.256688	0.129	0.852	0.4215	0	412	126	3
2026-02-12	14:38:11.790	4.725	39.865	10.465	0.63196	-0.221552	-0.371612	0.1245	0.8565	0.4185	0	412	126	3
2026-02-12	14:38:11.810	35.07	40.565	9.345	0.8235	-0.0915	-0.421632	0.117	0.8535	0.4125	0	404	153	3
2026-02-12	14:38:11.830	39.62	44.24	7.105	0.859856	-0.0183	-0.372344	0.111	0.858	0.405	0	404	153	3
2026-02-12	14:38:11.850	23.66	45.85	11.83	0.998204	-0.0183	-0.293044	0.1065	0.864	0.396	0	404	153	3
2026-02-12	14:38:11.870	-21.945	49.105	33.075	1.403732	-0.019276	-0.223748	0.099	0.864	0.3885	0	404	153	3
2026-02-12	14:38:11.890	-57.96	52.64	52.36	1.515484	-0.031232	-0.233752	0.0945	0.87	0.381	0	404	153	3
2026-02-12	14:38:11.910	-94.115	54.425	67.515	1.45546	-0.140788	-0.168116	0.102	0.87	0.372	0	404	153	3
2026-02-12	14:38:11.930	-124.145	57.05	79.66	1.384944	-0.351848	-0.007808	0.102	0.879	0.3795	0	404	153	3
2026-02-12	14:38:11.950	-130.41	61.67	89.39	1.239032	-0.467748	0.07515199	0.1125	0.87	0.378	0	404	153	3
2026-02-12	14:38:11.970	-120.785	63.42	97.09	1.045052	-0.450668	-0.05978	0.105	0.8655	0.378	0	404	153	3
2026-02-12	14:38:11.990	-111.545	60.62	102.515	0.837408	-0.586088	-0.238388	0.105	0.876	0.381	0	404	153	3
2026-02-12	14:38:12.010	-73.57	50.89	103.32	0.66368	-0.66978	-0.35014	0.0975	0.885	0.3855	0	398	176	3
2026-02-12	14:38:12.030	-19.88	36.435	100.065	0.568276	-0.643428	-0.352824	0.0915	0.8895	0.378	0	398	176	3
2026-02-12	14:38:12.050	15.155	22.715	96.075	0.54778	-0.577304	-0.28182	0.1065	0.8955	0.369	0	398	176	3
2026-02-12	14:38:12.070	20.16	8.96	93.24	0.570228	-0.543144	-0.140056	0.108	0.912	0.3735	0	398	176	3
2026-02-12	14:38:12.090	21.945	4.935	93.205	0.597556	-0.5185	-0.029524	0.123	0.924	0.372	0	398	176	3
2026-02-12	14:38:12.110	35.105	5.46	92.715	0.619272	-0.452376	0.060512	0.129	0.942	0.363	0	398	176	3
2026-02-12	14:38:12.130	53.515	7.385	87.29	0.63074	-0.323544	0.061732	0.1395	0.954	0.363	0	398	176	3
2026-02-12	14:38:12.150	63.245	11.375	78.295	0.581208	-0.259616	0.02074	0.147	0.9675	0.3645	0	398	176	3
2026-02-12	14:38:12.170	52.675	12.46	69.475	0.545096	-0.343796	-0.042944	0.162	0.984	0.3405	0	398	176	3
2026-02-12	14:38:12.190	38.045	11.235	63.245	0.534848	-0.496784	-0.083936	0.165	1.0005	0.333	0	398	176	3
2026-02-12	14:38:12.210	32.83	8.12	57.295	0.532652	-0.60024	-0.06954	0.174	0.9885	0.342	0	394	180	3
2026-02-12	14:38:12.230	33.355	4.76	48.125	0.531432	-0.655872	-0.01952	0.1845	1.0125	0.33	0	394	180	3
2026-02-12	14:38:12.250	36.47	1.96	36.96	0.516792	-0.640744	0.038552	0.1905	1.0155	0.3255	0	394	180	3
2026-02-12	14:38:12.270	20.93	1.89	27.93	0.50508	-0.63318	0.081252	0.195	1.0275	0.321	0	394	180	3
2026-02-12	14:38:12.290	-6.09	2.94	19.775	0.456768	-0.665632	0.08686399	0.1935	1.0365	0.321	0	394	180	3
2026-02-12	14:38:12.310	-28.42	2.415	12.985	0.415532	-0.790316	0.052704	0.204	1.0305	0.315	0	394	180	3
2026-02-12	14:38:12.330	-34.475	-1.68	10.115	0.392596	-1.003816	-0.0488	0.1995	1.0275	0.3225	0	394	180	3
2026-02-12	14:38:12.350	-19.88	-8.785	6.09	0.403576	-1.070428	-0.128588	0.204	1.032	0.324	0	394	180	3
2026-02-12	14:38:12.370	1.015	-17.815	1.89	0.419192	-1.046272	-0.120536	0.2055	1.0425	0.3345	0	394	180	3
2026-02-12	14:38:12.390	8.365	-29.435	3.5	0.557784	-1.095804	-0.022204	0.2055	1.026	0.327	0	394	180	3
2026-02-12	14:38:12.410	1.575	-36.015	12.18	0.780312	-1.401048	-0.004392	0.207	1.032	0.3345	0	393	159	3
2026-02-12	14:38:12.430	27.755	-39.375	13.265	0.95648	-1.313696	-0.096868	0.21	1.0395	0.342	0	393	159	3
2026-02-12	14:38:12.450	62.685	-38.045	0.385	1.199016	-0.852292	0.061976	0.216	1.0425	0.333	0	393	159	3
2026-02-12	14:38:12.470	32.55	-32.305	-0.35	1.140944	-0.861808	-0.162992	0.228	1.047	0.33	0	393	159	3
2026-02-12	14:38:12.490	45.15	-37.625	-10.99	0.970388	-0.656604	-0.263032	0.2355	1.0515	0.336	0	393	159	3
2026-02-12	14:38:12.510	47.95	-44.52	-23.695	0.782996	-0.569008	-0.144936	0.228	1.0515	0.342	0	393	159	3
2026-02-12	14:38:12.530	40.075	-52.255	-29.61	0.691008	-0.571448	-0.045628	0.2265	1.053	0.327	0	393	159	3
2026-02-12	14:38:12.550	44.135	-55.93	-37.24	0.702232	-0.45994	0.035624	0.2325	1.0575	0.33	0	393	159	3
2026-02-12	14:38:12.570	35.07	-54.075	-52.78	0.751764	-0.344772	0.004148	0.228	1.0515	0.33	0	393	159	3
2026-02-12	14:38:12.590	21.665	-54.95	-62.335	0.80886	-0.371856	-0.13176	0.228	1.0455	0.3315	0	393	159	3
2026-02-12	14:38:12.610	7.21	-58.94	-71.05	0.851804	-0.464576	-0.266936	0.228	1.0425	0.3345	0	394	134	3
2026-02-12	14:38:12.630	-2.03	-62.58	-77.21	0.884256	-0.559248	-0.32452	0.225	1.0395	0.3375	0	394	134	3
2026-02-12	14:38:12.650	-4.55	-65.205	-79.345	0.857172	-0.616588	-0.338672	0.2145	1.032	0.345	0	394	134	3
2026-02-12	14:38:12.670	0.175	-64.995	-79.31	0.780068	-0.649528	-0.266204	0.2025	1.0215	0.3525	0	394	134	3
2026-02-12	14:38:12.690	17.29	-62.755	-77.14	0.686616	-0.653432	-0.209596	0.201	1.0125	0.3555	0	394	134	3
2026-02-12	14:38:12.710	31.395	-60.655	-71.225	0.657336	-0.68198	-0.208864	0.204	1.0095	0.357	0	394	134	3
2026-02-12	14:38:12.730	47.635	-59.43	-62.405	0.65392	-0.576328	-0.234972	0.207	1.002	0.366	0	394	134	3
2026-02-12	14:38:12.750	49.315	-61.215	-58.135	0.621224	-0.486048	-0.250344	0.1995	1.0005	0.366	0	394	134	3
2026-02-12	14:38:12.770	42.595	-63.875	-55.545	0.587064	-0.42944	-0.229848	0.192	0.996	0.3615	0	394	134	3
2026-02-12	14:38:12.790	35.595	-63.595	-55.755	0.592188	-0.355996	-0.12078	0.192	0.996	0.3615	0	394	134	3
2026-02-12	14:38:12.810	26.915	-56.945	-58.17	0.605364	-0.386496	-0.040504	0.186	0.9945	0.3705	0	393	129	3
2026-02-12	14:38:12.830	31.815	-49.28	-60.235	0.580964	-0.371124	-0.072956	0.183	0.99	0.3735	0	393	129	3
2026-02-12	14:38:12.850	39.935	-44.905	-61.635	0.60146	-0.4087	-0.179584	0.186	0.987	0.3735	0	393	129	3
2026-02-12	14:38:12.870	49.49	-43.505	-61.705	0.670024	-0.440176	-0.261324	0.1845	0.978	0.372	0	393	129	3
2026-02-12	14:38:12.890	42.28	-41.86	-57.05	0.770796	-0.462624	-0.323544	0.1845	0.9735	0.3705	0	393	129	3
2026-02-12	14:38:12.910	33.81	-38.22	-51.275	0.815448	-0.459452	-0.295728	0.1785	0.975	0.3705	0	393	129	3
2026-02-12	14:38:12.930	34.02	-33.075	-47.425	0.826916	-0.461892	-0.270352	0.1755	0.981	0.3705	0	393	129	3
2026-02-12	14:38:12.950	35.665	-27.965	-44.52	0.8418	-0.453108	-0.299876	0.1755	0.981	0.372	0	393	129	3
2026-02-12	14:38:12.970	33.95	-22.225	-42.245	0.798612	-0.441152	-0.293532	0.168	0.9765	0.372	0	393	129	3
2026-02-12	14:38:12.990	29.855	-17.255	-41.475	0.753716	-0.44164	-0.256444	0.165	0.975	0.372	0	393	129	3
2026-02-12	14:38:13.010	26.425	-10.85	-43.295	0.7808	-0.509716	-0.237168	0.1635	0.9765	0.3705	0	387	144	2
2026-02-12	14:38:13.030	28.49	-2.905	-45.5	0.821792	-0.587552	-0.291824	0.159	0.969	0.3645	0	387	144	2
2026-02-12	14:38:13.050	34.125	2.24	-46.2	0.856196	-0.593408	-0.393084	0.156	0.963	0.3645	0	387	144	2
2026-02-12	14:38:13.070	32.025	8.295	-45.36	0.929396	-0.53924	-0.375028	0.156	0.966	0.366	0	387	144	2
2026-02-12	14:38:13.090	19.74	16.59	-41.965	0.996496	-0.5368	-0.289628	0.1515	0.963	0.354	0	387	144	2
2026-02-12	14:38:13.110	13.895	24.465	-36.26	1.026996	-0.573644	-0.248636	0.1365	0.9675	0.351	0	387	144	2
2026-02-12	14:38:13.130	14.595	31.43	-28.7	1.044076	-0.635864	-0.298412	0.141	0.9645	0.348	0	387	144	2
2026-02-12	14:38:13.150	22.89	35.595	-19.285	1.123376	-0.707356	-0.400404	0.138	0.957	0.3405	0	387	144	2
2026-02-12	14:38:13.170	27.86	37.38	-7.56	1.030656	-0.646356	-0.413824	0.1335	0.954	0.3315	0	387	144	2
2026-02-12	14:38:13.190	38.36	30.87	1.365	0.990884	-0.51484	-0.374052	0.129	0.9525	0.3285	0	387	144	2
2026-02-12	14:38:13.210	46.34	23.38	8.12	1.027484	-0.416752	-0.34892	0.1245	0.9585	0.321	0	375	175	3
2026-02-12	14:38:13.230	52.815	16.24	13.825	1.072624	-0.301096	-0.271816	0.1245	0.9645	0.312	0	375	175	3
2026-02-12	14:38:13.250	53.935	10.5	18.865	1.102636	-0.193492	-0.16226	0.126	0.966	0.306	0	375	175	3
2026-02-12	14:38:13.270	42.735	6.335	25.935	1.12972	-0.138592	-0.14396	0.1245	0.972	0.297	0	375	175	3
2026-02-12	14:38:13.290	28.7	-1.015	33.075	1.1468	-0.122732	-0.25376	0.129	0.9825	0.2895	0	375	175	3
2026-02-12	14:38:13.310	16.03	-9.17	37.66	1.136308	-0.233752	-0.288896	0.135	0.987	0.2895	0	375	175	3
2026-02-12	14:38:13.330	6.58	-13.93	44.765	1.090436	-0.420412	-0.236436	0.153	0.999	0.2805	0	375	175	3
2026-02-12	14:38:13.350	3.605	-16.1	53.445	1.00894	-0.57828	-0.211548	0.1515	1.002	0.2865	0	375	175	3
2026-02-12	14:38:13.370	22.12	-16.975	62.545	0.89304	-0.615856	-0.209352	0.1575	1.005	0.2895	0	375	175	3
2026-02-12	14:38:13.390	51.66	-16.415	68.215	0.77348	-0.550952	-0.18788	0.1695	1.0095	0.288	0	375	175	3
2026-02-12	14:38:13.410	73.78	-15.68	70.525	0.666364	-0.478728	-0.18422	0.1755	1.023	0.285	0	361	205	3
2026-02-12	14:38:13.430	81.76	-16.695	70.63	0.609024	-0.43676	-0.210816	0.183	1.035	0.2775	0	361	205	3
2026-02-12	14:38:13.450	82.46	-18.935	67.095	0.592188	-0.38308	-0.224968	0.195	1.0425	0.2685	0	361	205	3
2026-02-12	14:38:13.470	81.2	-21.735	60.305	0.610976	-0.349164	-0.22692	0.2025	1.053	0.258	0	361	205	3
2026-02-12	14:38:13.490	83.16	-24.885	51.59	0.630984	-0.347212	-0.223748	0.213	1.065	0.2505	0	361	205	3
2026-02-12	14:38:13.510	86.135	-29.435	40.075	0.653432	-0.351116	-0.196176	0.2295	1.074	0.24	0	361	205	3
2026-02-12	14:38:13.530	78.12	-33.53	28.63	0.688568	-0.318908	-0.169824	0.237	1.0785	0.2325	0	361	205	3
2026-02-12	14:38:13.550	63.91	-36.155	19.775	0.686372	-0.373076	-0.148596	0.24	1.0845	0.225	0	361	205	3
2026-02-12	14:38:13.570	62.895	-39.41	11.27	0.66734	-0.417972	-0.10736	0.243	1.0935	0.2175	0	361	205	3
2026-02-12	14:38:13.590	70.07	-42.175	2.94	0.672952	-0.425536	-0.038064	0.2445	1.0965	0.2145	0	361	205	3
2026-02-12	14:38:13.610	74.655	-42.735	-4.2	0.684176	-0.374784	0.03538	0.249	1.0995	0.204	0	347	217	3
2026-02-12	14:38:13.630	63.245	-38.22	-8.295	0.711016	-0.367464	0.09394	0.249	1.101	0.195	0	347	217	3
2026-02-12	14:38:13.650	45.395	-32.025	-10.01	0.7259	-0.44042	0.024644	0.249	1.098	0.1875	0	347	217	3
2026-02-12	14:38:13.670	28.77	-27.37	-7.42	0.767868	-0.663436	-0.038064	0.2505	1.0935	0.18	0	347	217	3
2026-02-12	14:38:13.690	20.755	-25.305	3.71	0.813008	-0.891088	-0.099064	0.249	1.095	0.183	0	347	217	3
2026-02-12	14:38:13.710	25.375	-25.27	19.915	0.828624	-0.985028	-0.13908	0.2505	1.0995	0.183	0	347	217	3
2026-02-12	14:38:13.730	38.57	-27.125	34.055	0.782996	-0.942816	-0.177388	0.252	1.098	0.1755	0	347	217	3
2026-02-12	14:38:13.750	44.205	-29.785	46.83	0.737856	-0.793732	-0.172264	0.2595	1.1025	0.171	0	347	217	3
2026-02-12	14:38:13.770	25.795	-29.89	49.525	0.767136	-0.782508	-0.12932	0.267	1.107	0.1695	0	347	217	3
2026-02-12	14:38:13.790	4.025	-28.77	47.95	0.833748	-0.88084	-0.110044	0.273	1.1055	0.168	0	347	217	3
2026-02-12	14:38:13.810	-8.61	-28.35	46.97	1.007476	-1.092876	-0.173728	0.282	1.1145	0.168	0	335	204	3
2026-02-12	14:38:13.830	3.08	-29.855	46.41	1.175348	-1.05164	-0.33916	0.2955	1.119	0.168	0	335	204	3
2026-02-12	14:38:13.850	29.33	-36.05	41.65	1.276852	-0.968436	-0.405528	0.3	1.1175	0.1695	0	335	204	3
2026-02-12	14:38:13.870	53.76	-43.995	38.815	1.22122	-0.691252	-0.355264	0.306	1.125	0.1665	0	335	204	3
2026-02-12	14:38:13.890	74.27	-53.27	29.295	1.098488	-0.298168	-0.200324	0.3165	1.131	0.1605	0	335	204	3
2026-02-12	14:38:13.910	82.845	-56.105	6.965	0.944524	0.122976	-0.000976	0.318	1.1295	0.1515	0	335	204	3
2026-02-12	14:38:13.930	60.655	-52.815	-19.495	0.78202	0.111996	0.091256	0.321	1.1265	0.147	0	335	204	3
2026-02-12	14:38:13.950	36.435	-53.41	-43.785	0.700768	-0.16714	-0.027084	0.315	1.1265	0.141	0	335	204	3
2026-02-12	14:38:13.970	25.865	-56.245	-66.115	0.701012	-0.597068	-0.234972	0.3045	1.1235	0.1365	0	335	204	3
2026-02-12	14:38:13.990	23.205	-62.125	-68.915	0.757864	-0.798856	-0.31964	0.2985	1.119	0.135	0	335	204	3
2026-02-12	14:38:14.010	30.135	-68.425	-67.41	0.776652	-0.862296	-0.374784	0.2865	1.1175	0.135	0	329	191	3
2026-02-12	14:38:14.030	40.635	-72.31	-63.735	0.759084	-0.813252	-0.395036	0.2745	1.11	0.135	0	329	191	3
2026-02-12	14:38:14.050	47.985	-73.395	-62.3	0.732	-0.624884	-0.316712	0.2655	1.101	0.1365	0	329	191	3
2026-02-12	14:38:14.070	47.53	-71.19	-64.785	0.726632	-0.47458	-0.209108	0.2565	1.0965	0.1335	0	329	191	3
2026-02-12	14:38:14.090	40.705	-66.185	-69.58	0.706136	-0.408944	-0.136152	0.246	1.095	0.1305	0	329	191	3
2026-02-12	14:38:14.110	37.415	-61.285	-75.565	0.701256	-0.354044	-0.127368	0.237	1.089	0.1335	0	329	191	3
2026-02-12	14:38:14.130	35.91	-57.61	-80.71	0.715896	-0.335012	-0.147864	0.2235	1.08	0.1365	0	329	191	3
2026-02-12	14:38:14.150	30.45	-55.055	-83.195	0.771284	-0.314272	-0.197396	0.207	1.071	0.1365	0	329	191	3
2026-02-12	14:38:14.170	15.855	-50.785	-82.845	0.804224	-0.318176	-0.208864	0.1935	1.0605	0.1365	0	329	191	3
2026-02-12	14:38:14.190	-12.25	-42.455	-76.3	0.843996	-0.413824	-0.20496	0.1875	1.053	0.1395	0	329	191	3
2026-02-12	14:38:14.210	-24.29	-35.805	-68.95	0.859368	-0.494344	-0.213012	0.1785	1.0485	0.141	0	326	190	3
2026-02-12	14:38:14.230	-26.285	-28.14	-61.04	0.8479	-0.55876	-0.23912	0.165	1.0425	0.15	0	326	190	3
2026-02-12	14:38:14.250	-15.12	-20.93	-53.445	0.815448	-0.609756	-0.272304	0.159	1.035	0.156	0	326	190	3
2026-02-12	14:38:14.270	6.72	-15.47	-46.13	0.789584	-0.61488	-0.290848	0.15	1.023	0.159	0	326	190	3
2026-02-12	14:38:14.290	26.005	-10.185	-40.46	0.81008	-0.507032	-0.286212	0.141	1.02	0.1635	0	326	190	3
2026-02-12	14:38:14.310	21.875	-2.8	-37.205	0.873764	-0.405528	-0.308904	0.1365	1.0155	0.162	0	326	190	3
2026-02-12	14:38:14.330	0.805	5.81	-36.015	0.9394	-0.394548	-0.370148	0.1305	1.008	0.1635	0	326	190	3
2026-02-12	14:38:14.350	-18.83	13.685	-36.68	0.995276	-0.429684	-0.402844	0.1215	1.005	0.1635	0	326	190	3
2026-02-12	14:38:14.370	-26.075	19.635	-39.69	1.099708	-0.427976	-0.381128	0.117	0.996	0.162	0	326	190	3
2026-02-12	14:38:14.390	-31.115	26.215	-41.72	1.254648	-0.506544	-0.355996	0.117	0.9885	0.1545	0	326	190	3
2026-02-12	14:38:14.410	-31.5	33.81	-39.97	1.328824	-0.609268	-0.41968	0.117	0.9885	0.1485	0	323	202	3
2026-02-12	14:38:14.430	-18.83	35.805	-37.45	1.371768	-0.561932	-0.426756	0.1065	0.9795	0.1545	0	323	202	3
2026-02-12	14:38:14.450	-5.32	34.58	-33.635	1.4152	-0.386496	-0.345016	0.096	0.972	0.156	0	323	202	3
2026-02-12	14:38:14.470	0.42	38.71	-29.575	1.3603	-0.080032	-0.190076	0.0945	0.9675	0.1515	0	323	202	3
2026-02-12	14:38:14.490	-15.61	46.06	-24.745	1.216096	0.036112	-0.192028	0.093	0.963	0.1455	0	323	202	3
2026-02-12	14:38:14.510	-39.095	44.975	-13.685	1.172664	-0.075884	-0.260592	0.087	0.963	0.141	0	323	202	3
2026-02-12	14:38:14.530	-45.36	39.27	1.155	1.142896	-0.048068	-0.149084	0.0885	0.957	0.138	0	323	202	3
2026-02-12	14:38:14.550	-47.705	35.245	18.165	1.16388	-0.11834	-0.064904	0.09	0.957	0.1365	0	323	202	3
2026-02-12	14:38:14.570	-44.835	30.73	36.61	1.21634	-0.17812	-0.0488	0.09	0.963	0.138	0	323	202	3
2026-02-12	14:38:14.590	-37.205	25.935	53.62	1.243668	-0.237412	-0.033184	0.0885	0.9705	0.1365	0	323	202	3
2026-02-12	14:38:14.610	-26.53	24.01	65.975	1.253672	-0.202276	0.00366	0.0855	0.975	0.138	0	321	219	3
2026-02-12	14:38:14.630	-31.325	27.685	75.11	1.186572	-0.15982	-0.109312	0.0975	0.9795	0.138	0	321	219	3
2026-02-12	14:38:14.650	-41.195	29.575	78.785	1.045052	-0.279624	-0.206912	0.102	0.9885	0.141	0	321	219	3
2026-02-12	14:38:14.670	-37.59	25.655	79.415	0.916464	-0.357948	-0.208132	0.1185	1.0035	0.141	0	321	219	3
2026-02-12	14:38:14.690	-20.965	18.935	81.27	0.835944	-0.341112	-0.168604	0.1305	1.014	0.1425	0	321	219	3
2026-02-12	14:38:14.710	-6.965	13.895	82.6	0.790316	-0.288164	-0.092476	0.138	1.026	0.144	0	321	219	3
2026-02-12	14:38:14.730	-6.3	12.985	86.1	0.742248	-0.290604	-0.02806	0.1485	1.0365	0.141	0	321	219	3
2026-02-12	14:38:14.750	-9.24	14.56	89.285	0.713212	-0.34404	0.013176	0.1605	1.0425	0.1425	0	321	219	3
2026-02-12	14:38:14.770	-4.76	16.765	89.425	0.670512	-0.416996	-0.007808	0.168	1.05	0.1425	0	321	219	3
2026-02-12	14:38:14.790	14.77	17.57	86.87	0.610244	-0.405284	-0.05124	0.1815	1.0605	0.141	0	321	219	3
2026-02-12	14:38:14.810	34.37	16.94	81.305	0.551684	-0.334036	-0.097356	0.1995	1.0695	0.138	0	321	214	3
2026-02-12	14:38:14.830	39.095	14.735	75.18	0.520452	-0.331352	-0.117852	0.204	1.0725	0.1365	0	321	214	3
2026-02-12	14:38:14.850	35.805	10.43	67.97	0.482876	-0.395036	-0.095892	0.2175	1.0845	0.1305	0	321	214	3
2026-02-12	14:38:14.870	34.58	7.7	60.48	0.494832	-0.49044	-0.043676	0.231	1.092	0.1245	0	321	214	3
2026-02-12	14:38:14.890	34.09	5.775	54.915	0.480436	-0.52216	0.003904	0.2505	1.1025	0.117	0	321	214	3
2026-02-12	14:38:14.910	29.4	4.725	49.735	0.4514	-0.570716	0.049776	0.2565	1.11	0.1095	0	321	214	3
2026-02-12	14:38:14.930	18.585	2.73	44.94	0.412604	-0.64904	0.061976	0.2595	1.113	0.1035	0	321	214	3
2026-02-12	14:38:14.950	9.345	0.49	39.9	0.379908	-0.748836	0.068808	0.2685	1.1085	0.105	0	321	214	3
2026-02-12	14:38:14.970	9.065	-3.395	34.265	0.39284	-0.787632	0.05246	0.273	1.1115	0.102	0	321	214	3
2026-02-12	14:38:14.990	0.49	-9.17	26.565	0.471652	-0.7808	0.051972	0.273	1.1175	0.102	0	321	214	3
2026-02-12	14:38:15.010	-17.255	-14.455	19.635	0.582184	-0.874252	0.073932	0.285	1.1235	0.108	0	322	185	3
2026-02-12	14:38:15.030	-26.88	-20.545	12.46	0.685396	-0.955504	0.06588	0.288	1.1295	0.1155	0	322	185	3
2026-02-12	14:38:15.050	-19.67	-26.46	2.765	0.822036	-1.003084	0.071492	0.282	1.1325	0.12	0	322	185	3
2026-02-12	14:38:15.070	-8.855	-29.925	-15.505	1.11386	-0.695156	0.010248	0.2895	1.1235	0.1155	0	322	185	3
2026-02-12	14:38:15.090	-54.53	-40.145	-23.555	1.464732	-0.975756	-0.163968	0.2895	1.1235	0.1155	0	322	185	3
2026-02-12	14:38:15.110	-11.83	-50.75	-28.7	1.325408	-0.76494	-0.346968	0.2835	1.122	0.129	0	322	185	3
2026-02-12	14:38:15.130	32.865	-62.93	-41.545	1.041636	-0.425536	-0.330132	0.2745	1.122	0.1455	0	322	185	3
2026-02-12	14:38:15.150	31.605	-71.89	-51.695	0.903532	-0.346968	-0.203252	0.267	1.1235	0.1455	0	322	185	3
2026-02-12	14:38:15.170	19.53	-75.04	-60.235	0.79666	-0.358192	-0.120536	0.2565	1.122	0.147	0	322	185	3
2026-02-12	14:38:15.190	8.575	-70.525	-66.78	0.73322	-0.453108	-0.142984	0.252	1.1175	0.147	0	322	185	3
2026-02-12	14:38:15.210	7.035	-67.095	-71.505	0.72346	-0.50996	-0.270596	0.2445	1.107	0.153	0	328	153	3
2026-02-12	14:38:15.230	13.125	-67.585	-75.46	0.803004	-0.55754	-0.41724	0.231	1.098	0.1605	0	328	153	3
2026-02-12	14:38:15.250	21.105	-70.455	-78.155	0.890112	-0.542412	-0.48678	0.2265	1.095	0.1605	0	328	153	3
2026-02-12	14:38:15.270	19.985	-71.68	-80.15	0.919392	-0.542412	-0.471164	0.21	1.089	0.171	0	328	153	3
2026-02-12	14:38:15.290	20.44	-70.21	-80.465	0.88206	-0.518744	-0.406504	0.1995	1.08	0.1695	0	328	153	3
2026-02-12	14:38:15.310	31.465	-63.525	-81.795	0.750056	-0.349896	-0.25132	0.1995	1.08	0.1695	0	328	153	3
2026-02-12	14:38:15.330	31.71	-58.45	-83.125	0.664656	-0.287432	-0.21716	0.183	1.0665	0.171	0	328	153	3
2026-02-12	14:38:15.350	31.01	-53.305	-84.245	0.604876	-0.295484	-0.20008	0.1605	1.053	0.1755	0	328	153	3
2026-02-12	14:38:15.370	33.88	-48.44	-83.72	0.579256	-0.280356	-0.189344	0.15	1.044	0.1815	0	328	153	3
2026-02-12	14:38:15.390	23.8	-44.03	-80.15	0.579012	-0.306708	-0.224968	0.138	1.0305	0.186	0	328	153	3
2026-02-12	14:38:15.410	10.605	-39.585	-74.725	0.59536	-0.367708	-0.272304	0.126	1.0245	0.186	0	334	153	3
2026-02-12	14:38:15.430	4.025	-35.735	-68.53	0.624396	-0.407968	-0.280356	0.117	1.017	0.1875	0	334	153	3
2026-02-12	14:38:15.450	6.055	-33.6	-61.46	0.661972	-0.406504	-0.307196	0.1125	1.005	0.192	0	334	153	3
2026-02-12	14:38:15.470	10.92	-31.71	-54.845	0.74542	-0.370148	-0.317688	0.114	0.999	0.192	0	334	153	3
2026-02-12	14:38:15.490	13.79	-27.93	-49.42	0.847412	-0.34282	-0.339892	0.1035	0.999	0.1965	0	334	153	3
2026-02-12	14:38:15.510	10.64	-22.82	-45.255	0.94428	-0.320128	-0.373564	0.096	0.993	0.1995	0	334	153	3
2026-02-12	14:38:15.530	-5.53	-13.65	-40.67	1.05408	-0.33672	-0.356728	0.0915	0.987	0.1995	0	334	153	3
2026-02-12	14:38:15.550	-20.44	-3.185	-38.08	1.08458	-0.418948	-0.378444	0.084	0.978	0.2025	0	334	153	3
2026-02-12	14:38:15.570	-27.58	9.52	-35.385	1.091412	-0.42944	-0.430416	0.0735	0.9705	0.207	0	334	153	3
2026-02-12	14:38:15.590	-31.465	21.77	-32.655	1.092388	-0.410408	-0.4453	0.072	0.963	0.2085	0	334	153	3
2026-02-12	14:38:15.610	-35.35	33.285	-29.33	1.1712	-0.393328	-0.430416	0.0705	0.96	0.21	0	338	183	3
2026-02-12	14:38:15.630	-38.5	45.15	-25.235	1.259284	-0.438712	-0.465064	0.0705	0.96	0.207	0	338	183	3
2026-02-12	14:38:15.650	-30.065	54.075	-20.58	1.362984	-0.458232	-0.50996	0.069	0.9525	0.2025	0	338	183	3
2026-02-12	14:38:15.670	-15.82	58.555	-13.405	1.413492	-0.439688	-0.523624	0.063	0.948	0.1965	0	338	183	3
2026-02-12	14:38:15.690	3.99	57.505	-3.5	1.406904	-0.269376	-0.46482	0.066	0.9465	0.1935	0	338	183	3
2026-02-12	14:38:15.710	6.055	53.13	8.295	1.280756	-0.094184	-0.366976	0.057	0.9465	0.1935	0	338	183	3
2026-02-12	14:38:15.730	-7.21	47.25	21.7	1.15778	-0.017812	-0.239852	0.0615	0.945	0.186	0	338	183	3
2026-02-12	14:38:15.750	-34.195	43.61	47.67	1.108004	-0.14396	-0.086132	0.0615	0.9495	0.1785	0	338	183	3
2026-02-12	14:38:15.770	-41.055	45.115	64.68	1.08214	-0.225456	-0.0671	0.063	0.957	0.171	0	338	183	3
2026-02-12	14:38:15.790	-36.575	46.76	78.855	1.043344	-0.301096	-0.110776	0.069	0.9675	0.1635	0	338	183	3
2026-02-12	14:38:15.810	-26.46	47.04	89.25	0.998692	-0.348188	-0.1769	0.075	0.975	0.1635	0	339	225	3
2026-02-12	14:38:15.830	-24.675	45.255	96.32	0.978684	-0.361608	-0.249856	0.0885	0.9885	0.1605	0	339	225	3
2026-02-12	14:38:15.850	-25.69	41.72	99.155	0.958676	-0.36234	-0.34038	0.1005	1.002	0.156	0	339	225	3
2026-02-12	14:38:15.870	-7.595	36.155	96.32	0.912316	-0.345748	-0.321836	0.108	1.014	0.1515	0	339	225	3
2026-02-12	14:38:15.890	21.245	30.59	88.9	0.870836	-0.307928	-0.247172	0.1125	1.0215	0.1515	0	339	225	3
2026-02-12	14:38:15.910	32.445	28.35	81.76	0.828136	-0.293044	-0.155184	0.1365	1.0335	0.144	0	339	225	3
2026-02-12	14:38:15.930	28.7	28.49	78.12	0.793732	-0.277184	-0.063684	0.147	1.056	0.1365	0	339	225	3
2026-02-12	14:38:15.950	20.965	29.82	77.21	0.762012	-0.276452	-0.000732	0.1515	1.047	0.141	0	339	225	3
2026-02-12	14:38:15.970	15.575	31.92	75.565	0.692472	-0.304756	-0.011712	0.168	1.071	0.1275	0	339	225	3
2026-02-12	14:38:15.990	20.825	31.395	72.485	0.640012	-0.3782	-0.050752	0.1785	1.074	0.12	0	339	225	3
2026-02-12	14:38:16.010	32.69	29.225	70.595	0.601704	-0.42822	-0.08686399	0.192	1.083	0.114	0	338	244	3
2026-02-12	14:38:16.030	49.665	24.78	67.445	0.55266	-0.407724	-0.095404	0.2025	1.092	0.1095	0	338	244	3
2026-02-12	14:38:16.050	64.75	20.79	61.705	0.488488	-0.366244	-0.076372	0.2145	1.0935	0.0975	0	338	244	3
2026-02-12	14:38:16.070	64.19	17.01	54.075	0.456768	-0.371856	-0.03172	0.2265	1.0935	0.081	0	338	244	3
2026-02-12	14:38:16.090	50.61	14.98	47.67	0.3965	-0.460428	0.01708	0.237	1.1025	0.0705	0	338	244	3
2026-02-12	14:38:16.110	31.045	13.72	43.015	0.312808	-0.578768	0.032208	0.2385	1.1085	0.0705	0	338	244	3
2026-02-12	14:38:16.130	7.63	9.485	40.25	0.29524	-0.713456	0.03782	0.2415	1.1115	0.0615	0	338	244	3
2026-02-12	14:38:16.150	-5.215	3.045	33.705	0.324032	-0.82838	0.087352	0.2565	1.1085	0.054	0	338	244	3
2026-02-12	14:38:16.170	6.37	-3.885	26.425	0.430416	-0.852048	0.124196	0.2595	1.1115	0.0555	0	338	244	3
2026-02-12	14:38:16.190	7.14	-11.34	13.965	0.630008	-0.807884	0.124684	0.264	1.113	0.066	0	338	244	3
2026-02-12	14:38:16.210	-15.575	-14	4.76	0.881328	-1.0309	0.153232	0.264	1.116	0.0615	0	337	221	3
2026-02-12	14:38:16.230	-16.275	-12.67	4.235	1.059692	-1.095804	0.219356	0.267	1.1205	0.06	0	337	221	3
2026-02-12	14:38:16.250	-15.75	-15.085	-8.015	1.154608	-0.769332	0.097844	0.2715	1.122	0.0615	0	337	221	3
2026-02-12	14:38:16.270	-48.895	-16.765	-13.09	1.291004	-0.733708	-0.01708	0.2685	1.1175	0.069	0	337	221	3
2026-02-12	14:38:16.290	-67.515	-22.225	-12.88	1.356884	-0.852048	-0.230336	0.264	1.1205	0.081	0	337	221	3
2026-02-12	14:38:16.310	-30.415	-32.34	-27.545	1.178276	-0.797148	-0.354532	0.2625	1.122	0.09	0	337	221	3
2026-02-12	14:38:16.330	13.02	-43.26	-39.025	0.935252	-0.701012	-0.314516	0.261	1.1175	0.0945	0	337	221	3
2026-02-12	14:38:16.350	39.655	-53.34	-44.555	0.819352	-0.5429	-0.222772	0.2565	1.1145	0.1005	0	337	221	3
2026-02-12	14:38:16.370	52.325	-57.715	-48.475	0.74908	-0.366244	-0.147376	0.2475	1.113	0.096	0	337	221	3
2026-02-12	14:38:16.390	42.665	-56.875	-55.475	0.715164	-0.259616	-0.111508	0.237	1.1025	0.09	0	337	221	3
2026-02-12	14:38:16.410	13.3	-54.32	-64.435	0.732244	-0.304268	-0.14884	0.234	1.098	0.096	0	341	179	3
2026-02-12	14:38:16.430	-5.355	-52.36	-70.105	0.787876	-0.449936	-0.219112	0.234	1.098	0.096	0	341	179	3
2026-02-12	14:38:16.450	-8.96	-50.89	-69.65	0.762988	-0.4941	-0.257176	0.2145	1.0905	0.1035	0	341	179	3
2026-02-12	14:38:16.470	-7.595	-48.125	-66.85	0.704184	-0.464088	-0.212524	0.1875	1.08	0.111	0	341	179	3
2026-02-12	14:38:16.490	-5.32	-43.61	-63.7	0.649528	-0.396744	-0.135908	0.1755	1.0665	0.117	0	341	179	3
2026-02-12	14:38:16.510	-8.4	-38.325	-62.86	0.620736	-0.337452	-0.130784	0.1665	1.056	0.1275	0	341	179	3
2026-02-12	14:38:16.530	-25.165	-32.305	-62.3	0.60024	-0.350384	-0.153964	0.162	1.053	0.129	0	341	179	3
2026-02-12	14:38:16.550	-35.63	-27.23	-61.705	0.580964	-0.449204	-0.187148	0.156	1.0515	0.129	0	341	179	3
2026-02-12	14:38:16.570	-27.615	-25.375	-58.94	0.612196	-0.552904	-0.203252	0.1545	1.047	0.132	0	341	179	3
2026-02-12	14:38:16.590	-12.215	-25.095	-53.83	0.691008	-0.636596	-0.227652	0.138	1.038	0.144	0	341	179	3
2026-02-12	14:38:16.610	5.88	-26.18	-47.985	0.736636	-0.639768	-0.273524	0.138	1.0305	0.144	0	344	157	3
2026-02-12	14:38:16.630	22.365	-28.56	-42.385	0.705404	-0.518744	-0.31598	0.129	1.023	0.1545	0	344	157	3
2026-02-12	14:38:16.650	30.765	-31.99	-37.905	0.738344	-0.313784	-0.238632	0.129	1.023	0.1545	0	344	157	3
2026-02-12	14:38:16.670	18.025	-29.75	-35.665	0.80764	-0.295728	-0.227652	0.1215	1.014	0.153	0	344	157	3
2026-02-12	14:38:16.690	7.28	-26.005	-33.6	0.832528	-0.350872	-0.244244	0.111	1.0065	0.153	0	344	157	3
2026-02-12	14:38:16.710	4.445	-21.805	-32.095	0.85034	-0.402356	-0.222528	0.108	1.0035	0.156	0	344	157	3
2026-02-12	14:38:16.730	11.34	-16.59	-31.605	0.906216	-0.479948	-0.218136	0.105	0.9975	0.159	0	344	157	3
2026-02-12	14:38:16.750	28.42	-11.445	-33.425	1.01382	-0.477996	-0.253516	0.1035	0.999	0.162	0	344	157	3
2026-02-12	14:38:16.770	31.955	-6.545	-34.475	1.113616	-0.425048	-0.334524	0.102	0.987	0.159	0	344	157	3
2026-02-12	14:38:16.790	8.575	-2.59	-33.95	1.1285	-0.412116	-0.404064	0.0975	0.9945	0.1605	0	344	157	3
2026-02-12	14:38:16.810	-31.43	2.66	-29.68	1.1407	-0.563396	-0.428708	0.093	0.9795	0.1515	0	343	164	3
2026-02-12	14:38:16.830	-46.865	9.38	-27.93	1.160952	-0.603168	-0.407724	0.084	0.9825	0.1545	0	343	164	3
2026-02-12	14:38:16.850	-32.095	16.45	-32.935	1.174616	-0.51728	-0.340624	0.0825	0.9705	0.1665	0	343	164	3
2026-02-12	14:38:16.870	-18.865	28.07	-38.675	1.23952	-0.477996	-0.334768	0.0735	0.969	0.1545	0	343	164	3
2026-02-12	14:38:16.890	-21.385	32.795	-37.31	1.249524	-0.517524	-0.42822	0.0735	0.966	0.1575	0	343	164	3
2026-02-12	14:38:16.910	-14.91	30.905	-32.76	1.284904	-0.489464	-0.472872	0.0735	0.9585	0.159	0	343	164	3
2026-02-12	14:38:16.930	-5.04	25.585	-23.555	1.30174	-0.38186	-0.45872	0.0675	0.9525	0.1545	0	343	164	3
2026-02-12	14:38:16.950	-6.545	19.95	-10.605	1.302228	-0.262056	-0.420412	0.0615	0.9525	0.153	0	343	164	3
2026-02-12	14:38:16.970	-14.455	17.57	5.075	1.221952	-0.157624	-0.3294	0.0675	0.9465	0.1515	0	343	164	3
2026-02-12	14:38:16.990	-23.205	15.68	24.535	1.136552	-0.143228	-0.144204	0.075	0.951	0.1485	0	343	164	3
2026-02-12	14:38:17.010	-37.065	17.395	46.935	1.1224	-0.201544	-0.011956	0.0735	0.945	0.1575	0	340	194	3
2026-02-12	14:38:17.030	-46.935	24.29	67.515	1.16876	-0.229604	0.03416	0.066	0.9525	0.144	0	340	194	3
2026-02-12	14:38:17.050	-52.22	33.075	85.435	1.203896	-0.302072	0.075396	0.0855	0.9615	0.1455	0	340	194	3
2026-02-12	14:38:17.070	-54.635	43.295	100.345	1.230248	-0.378688	0.035624	0.096	0.978	0.153	0	340	194	3
2026-02-12	14:38:17.090	-33.95	47.53	105.07	1.13948	-0.312076	-0.247904	0.108	0.9885	0.1515	0	340	194	3
2026-02-12	14:38:17.110	-2.485	42.945	97.09	0.969656	-0.241072	-0.313296	0.117	1.0005	0.147	0	340	194	3
2026-02-12	14:38:17.130	22.54	35.035	87.92	0.809836	-0.220332	-0.283284	0.1335	1.0215	0.144	0	340	194	3
2026-02-12	14:38:17.150	22.89	27.37	84.28	0.696864	-0.209596	-0.22448	0.141	1.032	0.141	0	340	194	3
2026-02-12	14:38:17.170	8.33	21.56	84.56	0.629276	-0.299144	-0.14396	0.144	1.0335	0.138	0	340	194	3
2026-02-12	14:38:17.190	6.825	18.515	85.295	0.587064	-0.388936	-0.066856	0.1605	1.0455	0.132	0	340	194	3
2026-02-12	14:38:17.210	28.735	16.485	83.86	0.55144	-0.37088	-0.03782	0.1755	1.0485	0.129	0	338	212	3
2026-02-12	14:38:17.230	52.885	15.75	79.345	0.520452	-0.31842	-0.056364	0.1785	1.068	0.1275	0	338	212	3
2026-02-12	14:38:17.250	68.705	16.1	72.52	0.497272	-0.240584	-0.046848	0.2025	1.068	0.1155	0	338	212	3
2026-02-12	14:38:17.270	68.18	16.625	65.275	0.480436	-0.217892	-0.053192	0.21	1.0815	0.108	0	338	212	3
2026-02-12	14:38:17.290	54.775	16.905	56.735	0.46238	-0.252296	-0.059536	0.2295	1.08	0.093	0	338	212	3
2026-02-12	14:38:17.310	28.98	14.84	44.135	0.464088	-0.365512	-0.091988	0.2325	1.083	0.09	0	338	212	3
2026-02-12	14:38:17.330	20.055	12.11	36.225	0.454816	-0.50264	-0.050752	0.24	1.0875	0.081	0	338	212	3
2026-02-12	14:38:17.350	12.95	10.29	29.995	0.407968	-0.60878	0.0549	0.2505	1.0935	0.0735	0	338	212	3
2026-02-12	14:38:17.370	0	8.435	24.535	0.4026	-0.623908	0.21716	0.255	1.095	0.075	0	338	212	3
2026-02-12	14:38:17.390	-28.21	12.18	19.39	0.522648	-0.779092	0.293532	0.252	1.101	0.069	0	338	212	3
2026-02-12	14:38:17.410	-50.015	16.975	15.015	0.59658	-0.91134	0.127612	0.258	1.095	0.072	0	337	198	3
2026-02-12	14:38:17.430	-57.995	17.395	8.82	0.702232	-1.037976	-0.08418	0.2685	1.113	0.0765	0	337	198	3
2026-02-12	14:38:17.450	-48.51	9.905	6.37	0.807152	-1.262944	-0.122732	0.264	1.101	0.0795	0	337	198	3
2026-02-12	14:38:17.470	-6.895	-1.54	-2.8	0.9333	-0.988932	-0.114436	0.27	1.1085	0.0945	0	337	198	3
2026-02-12	14:38:17.490	-11.48	-14.77	-18.83	1.126304	-0.846924	-0.028548	0.276	1.11	0.0915	0	337	198	3
2026-02-12	14:38:17.510	-44.1	-20.93	-16.03	1.33102	-0.933788	-0.050752	0.2685	1.1055	0.0945	0	337	198	3
2026-02-12	14:38:17.530	-9.94	-27.125	-23.87	1.141188	-0.671	-0.18178	0.261	1.1085	0.102	0	337	198	3
2026-02-12	14:38:17.550	35.7	-37.835	-44.065	0.802272	-0.455304	-0.190808	0.255	1.104	0.1035	0	337	198	3
2026-02-12	14:38:17.570	47.915	-46.83	-55.51	0.7442	-0.35502	-0.09076799	0.2475	1.0935	0.1035	0	337	198	3
2026-02-12	14:38:17.590	41.125	-52.535	-63.805	0.774456	-0.256688	-0.030256	0.2475	1.0875	0.102	0	337	198	3
2026-02-12	14:38:17.610	15.75	-52.08	-70.245	0.809836	-0.231556	-0.049776	0.2355	1.089	0.1005	0	342	165	3
2026-02-12	14:38:17.630	-20.125	-46.795	-77.875	0.844972	-0.300608	-0.162992	0.2295	1.077	0.1005	0	342	165	3
2026-02-12	14:38:17.650	-37.73	-45.325	-83.79	0.945256	-0.340868	-0.282796	0.219	1.0695	0.114	0	342	165	3
2026-02-12	14:38:17.670	-53.34	-42.665	-88.83	0.98698	-0.462624	-0.368684	0.1965	1.071	0.111	0	342	165	3
2026-02-12	14:38:17.690	-50.89	-40.39	-89.11	0.911828	-0.602924	-0.377712	0.1815	1.059	0.126	0	342	165	3
2026-02-12	14:38:17.710	-28.945	-38.64	-88.76	0.793976	-0.598288	-0.321104	0.18	1.038	0.147	0	342	165	3
2026-02-12	14:38:17.730	-7.49	-35.665	-86.625	0.6832	-0.523868	-0.277916	0.1665	1.0395	0.1455	0	342	165	3
2026-02-12	14:38:17.750	8.47	-32.865	-81.69	0.58926	-0.368928	-0.248636	0.1485	1.026	0.15	0	342	165	3
2026-02-12	14:38:17.770	9.485	-29.785	-77.42	0.549488	-0.285968	-0.22936	0.144	1.0155	0.1515	0	342	165	3
2026-02-12	14:38:17.790	4.69	-26.74	-74.55	0.607804	-0.325984	-0.23546	0.141	1.0065	0.1545	0	342	165	3
2026-02-12	14:38:17.810	1.68	-22.995	-70.175	0.650016	-0.41236	-0.229116	0.126	0.9945	0.162	0	348	151	3
2026-02-12	14:38:17.830	10.745	-21.455	-64.155	0.696864	-0.449448	-0.241804	0.1185	0.987	0.1515	0	348	151	3
2026-02-12	14:38:17.850	28.385	-21.455	-55.895	0.753472	-0.431392	-0.23668	0.105	0.9735	0.1605	0	348	151	3
2026-02-12	14:38:17.870	41.44	-21.91	-45.675	0.831308	-0.386252	-0.254004	0.099	0.978	0.162	0	348	151	3
2026-02-12	14:38:17.890	46.655	-21.525	-36.995	0.884012	-0.268156	-0.251076	0.102	0.9735	0.162	0	348	151	3
2026-02-12	14:38:17.910	39.83	-19.81	-30.415	0.96136	-0.177876	-0.25254	0.093	0.96	0.159	0	348	151	3
2026-02-12	14:38:17.930	15.995	-14.91	-28.105	1.047004	-0.124196	-0.254736	0.0915	0.96	0.165	0	348	151	3
2026-02-12	14:38:17.950	-25.13	-5.215	-30.8	1.085312	-0.210572	-0.266204	0.0915	0.9555	0.1575	0	348	151	3
2026-02-12	14:38:17.970	-49.84	9.66	-35.875	1.10166	-0.405772	-0.303048	0.0915	0.954	0.1545	0	348	151	3
2026-02-12	14:38:17.990	-43.435	23.1	-37.8	1.203408	-0.52948	-0.355752	0.0915	0.954	0.1545	0	348	151	3
2026-02-12	14:38:18.010	-31.955	33.635	-35.07	1.230004	-0.606828	-0.39772	0.081	0.945	0.1665	0	351	165	3
2026-02-12	14:38:18.030	-18.305	40.18	-29.365	1.21512	-0.563152	-0.449936	0.075	0.93	0.1665	0	351	165	3
2026-02-12	14:38:18.050	-7.315	42.595	-22.96	1.34322	-0.426756	-0.483364	0.0735	0.924	0.1575	0	351	165	3
2026-02-12	14:38:18.070	-9.695	44.905	-16.205	1.400316	-0.342088	-0.46604	0.072	0.927	0.1605	0	351	165	3
2026-02-12	14:38:18.090	-9.345	44.03	-7.735	1.382504	-0.243512	-0.379664	0.0705	0.9225	0.1515	0	351	165	3
2026-02-12	14:38:18.110	-4.865	39.83	4.935	1.382504	-0.1891	-0.276208	0.0585	0.921	0.1335	0	351	165	3
2026-02-12	14:38:18.130	0.595	35.945	19.18	1.314672	-0.10492	-0.179096	0.0705	0.9195	0.144	0	351	165	3
2026-02-12	14:38:18.150	-4.305	31.955	33.775	1.178032	-0.0427	-0.050264	0.0675	0.915	0.138	0	351	165	3
2026-02-12	14:38:18.170	-20.23	30.135	50.995	1.137528	-0.11956	0.078324	0.0735	0.9225	0.1335	0	351	165	3
2026-02-12	14:38:18.190	-29.82	33.005	68.18	1.122888	-0.17812	0.097356	0.084	0.936	0.129	0	351	165	3
2026-02-12	14:38:18.210	-33.285	36.295	82.705	1.064328	-0.248148	0.030988	0.087	0.9465	0.126	0	352	192	3
2026-02-12	14:38:18.230	-30.31	37.38	94.045	1.018456	-0.26718	-0.064416	0.0855	0.951	0.123	0	352	192	3
2026-02-12	14:38:18.250	-29.96	36.26	100.24	0.969412	-0.258396	-0.156648	0.0975	0.9645	0.1245	0	352	192	3
2026-02-12	14:38:18.270	-31.045	32.13	101.57	0.931592	-0.244488	-0.218868	0.108	0.978	0.1215	0	352	192	3
2026-02-12	14:38:18.290	-21.945	26.635	97.405	0.883524	-0.220332	-0.2074	0.1305	0.9855	0.1155	0	352	192	3
2026-02-12	14:38:18.310	-8.4	23.065	89.81	0.82106	-0.204228	-0.111508	0.1365	1.005	0.1215	0	352	192	3
2026-02-12	14:38:18.330	4.865	24.395	82.565	0.764452	-0.19642	-0.004636	0.1515	1.008	0.1185	0	352	192	3
2026-02-12	14:38:18.350	1.505	29.295	79.345	0.711748	-0.258152	0.042212	0.165	1.0245	0.114	0	352	192	3
2026-02-12	14:38:18.370	1.61	33.18	78.68	0.653188	-0.289628	0.049532	0.1845	1.0395	0.1095	0	352	192	3
2026-02-12	14:38:18.390	3.815	35.07	78.015	0.583648	-0.346968	-0.006344	0.1905	1.0365	0.1065	0	352	192	3
2026-02-12	14:38:18.410	8.4	31.99	77.175	0.5673	-0.396012	-0.092476	0.1965	1.0455	0.1035	0	351	195	3
2026-02-12	14:38:18.430	14.245	27.44	75.075	0.53924	-0.466528	-0.134932	0.2025	1.0545	0.1005	0	351	195	3
2026-02-12	14:38:18.450	26.355	21.77	70.315	0.538996	-0.51362	-0.129564	0.219	1.0605	0.1005	0	351	195	3
2026-02-12	14:38:18.470	41.86	16.38	64.26	0.52216	-0.487756	-0.094428	0.225	1.0635	0.087	0	351	195	3
2026-02-12	14:38:18.490	50.365	12.915	55.09	0.506056	-0.549488	-0.04636	0.24	1.077	0.084	0	351	195	3
2026-02-12	14:38:18.510	53.34	7.49	43.085	0.492636	-0.518988	0.088084	0.255	1.0785	0.0765	0	351	195	3
2026-02-12	14:38:18.530	35.175	6.58	36.365	0.479704	-0.565592	0.2013	0.261	1.0785	0.0645	0	351	195	3
2026-02-12	14:38:18.550	8.715	9.66	30.205	0.517036	-0.621468	0.27084	0.267	1.08	0.054	0	351	195	3
2026-02-12	14:38:18.570	-17.85	12.985	22.435	0.551684	-0.716384	0.180072	0.2715	1.083	0.0555	0	351	195	3
2026-02-12	14:38:18.590	-37.905	10.22	15.855	0.591212	-0.854732	0.050752	0.2775	1.0875	0.0555	0	351	195	3
2026-02-12	14:38:18.610	-45.36	2.275	9.94	0.65026	-0.975756	-0.010736	0.2805	1.0905	0.06	0	351	168	3
2026-02-12	14:38:18.630	-36.505	-11.27	4.55	0.7564	-1.071892	-0.047824	0.282	1.095	0.069	0	351	168	3
2026-02-12	14:38:18.650	-3.115	-22.085	0.175	0.907436	-1.021384	0.098332	0.2835	1.101	0.075	0	351	168	3
2026-02-12	14:38:18.670	-11.375	-24.64	-19.215	1.019676	-0.705404	0.13908	0.2805	1.095	0.081	0	351	168	3
2026-02-12	14:38:18.690	-48.65	-22.61	-29.435	1.223904	-0.723948	0.007808	0.2835	1.095	0.0795	0	351	168	3
2026-02-12	14:38:18.710	-31.605	-31.57	-33.705	1.194624	-0.617564	-0.177632	0.279	1.0905	0.084	0	351	168	3
2026-02-12	14:38:18.730	-4.235	-40.565	-43.26	0.938424	-0.604632	-0.303292	0.2715	1.083	0.093	0	351	168	3
2026-02-12	14:38:18.750	21.735	-53.97	-48.475	0.883036	-0.492392	-0.227652	0.261	1.0785	0.1005	0	351	168	3
2026-02-12	14:38:18.770	30.31	-61.25	-53.515	0.846192	-0.382348	-0.131028	0.249	1.074	0.1005	0	351	168	3
2026-02-12	14:38:18.790	21.56	-61.67	-59.815	0.823012	-0.29524	-0.077348	0.2385	1.0725	0.1005	0	351	168	3
2026-02-12	14:38:18.810	0.42	-57.365	-64.12	0.862052	-0.344528	-0.100284	0.2325	1.0695	0.108	0	353	131	3
2026-02-12	14:38:18.830	-11.62	-51.1	-69.125	0.889136	-0.436516	-0.168116	0.225	1.0635	0.1095	0	353	131	3
2026-02-12	14:38:18.850	-8.89	-46.095	-70.245	0.88816	-0.5307	-0.33062	0.2175	1.0605	0.1095	0	353	131	3
2026-02-12	14:38:18.870	-2.555	-46.865	-66.955	0.843264	-0.51606	-0.380396	0.21	1.05	0.117	0	353	131	3
2026-02-12	14:38:18.890	4.83	-47.915	-63.665	0.757864	-0.426756	-0.325252	0.1965	1.0395	0.126	0	353	131	3
2026-02-12	14:38:18.910	1.855	-46.795	-62.755	0.71248	-0.349408	-0.231556	0.186	1.032	0.129	0	353	131	3
2026-02-12	14:38:18.930	-8.75	-43.435	-62.685	0.672464	-0.297436	-0.176412	0.1755	1.0245	0.1335	0	353	131	3
2026-02-12	14:38:18.950	-20.58	-38.36	-63.49	0.651968	-0.34526	-0.190564	0.1725	1.0245	0.1365	0	353	131	3
2026-02-12	14:38:18.970	-15.05	-34.195	-64.435	0.623176	-0.411872	-0.207888	0.165	1.0155	0.1425	0	353	131	3
2026-02-12	14:38:18.990	3.71	-32.27	-63.385	0.631228	-0.419192	-0.205204	0.15	1.0065	0.147	0	353	131	3
2026-02-12	14:38:19.010	16.94	-30.625	-58.8	0.649772	-0.381372	-0.183732	0.144	0.999	0.1485	0	353	120	3
2026-02-12	14:38:19.030	18.795	-27.965	-48.44	0.748104	-0.324276	-0.167628	0.1425	0.9945	0.15	0	353	120	3
2026-02-12	14:38:19.050	8.435	-25.55	-40.285	0.791048	-0.296948	-0.210572	0.1365	0.9825	0.1605	0	353	120	3
2026-02-12	14:38:19.070	0.63	-23.975	-33.74	0.83814	-0.249856	-0.239364	0.1305	0.984	0.1575	0	353	120	3
2026-02-12	14:38:19.090	-8.82	-22.05	-31.43	0.936716	-0.222284	-0.257908	0.1275	0.981	0.1575	0	353	120	3
2026-02-12	14:38:19.110	-22.19	-17.01	-33.285	0.997472	-0.216184	-0.270352	0.1245	0.9765	0.1665	0	353	120	3
2026-02-12	14:38:19.130	-39.515	-8.47	-38.29	1.047004	-0.260592	-0.239364	0.1185	0.972	0.1725	0	353	120	3
2026-02-12	14:38:19.150	-60.165	2.345	-41.055	1.081896	-0.410164	-0.263764	0.1125	0.963	0.1755	0	353	120	3
2026-02-12	14:38:19.170	-66.255	13.545	-40.705	1.095072	-0.551684	-0.332572	0.1125	0.957	0.18	0	353	120	3
2026-02-12	14:38:19.190	-59.255	23.905	-38.15	1.142652	-0.573644	-0.388936	0.108	0.9465	0.183	0	353	120	3
2026-02-12	14:38:19.210	-55.09	34.23	-34.055	1.193404	-0.586332	-0.44164	0.1035	0.942	0.1845	0	350	138	3
2026-02-12	14:38:19.230	-45.955	41.93	-31.08	1.211216	-0.549976	-0.472872	0.102	0.939	0.1845	0	350	138	3
2026-02-12	14:38:19.250	-26.495	47.81	-31.01	1.321992	-0.435052	-0.410652	0.1005	0.9345	0.183	0	350	138	3
2026-02-12	14:38:19.270	-19.495	50.61	-25.97	1.38592	-0.36234	-0.358192	0.096	0.9255	0.18	0	350	138	3
2026-02-12	14:38:19.290	-11.34	51.065	-14.7	1.421544	-0.217404	-0.318908	0.09	0.9165	0.174	0	350	138	3
2026-02-12	14:38:19.310	-7.595	49.14	-2.485	1.305156	-0.078324	-0.275476	0.0885	0.9195	0.1695	0	350	138	3
2026-02-12	14:38:19.330	-15.96	44.66	10.43	1.174616	-0.036356	-0.18422	0.09	0.9195	0.1635	0	350	138	3
2026-02-12	14:38:19.350	-35.28	39.305	27.58	1.078236	-0.05124	-0.066368	0.0885	0.9195	0.1545	0	350	138	3
2026-02-12	14:38:19.370	-53.165	36.575	46.515	1.045784	-0.170556	0.013664	0.0915	0.9255	0.15	0	350	138	3
2026-02-12	14:38:19.390	-55.405	35.98	64.61	1.015772	-0.298412	-0.014152	0.099	0.9285	0.15	0	350	138	3
2026-02-12	14:38:19.410	-48.93	35.28	81.55	1.018456	-0.35868	-0.101504	0.102	0.927	0.153	0	346	171	3
2026-02-12	14:38:19.430	-49.175	33.705	95.06	1.02602	-0.3965	-0.218868	0.108	0.936	0.1545	0	346	171	3
2026-02-12	14:38:19.450	-50.295	30.485	104.685	0.988932	-0.416996	-0.284748	0.12	0.951	0.1545	0	346	171	3
2026-02-12	14:38:19.470	-5.075	20.86	106.365	0.938912	-0.401624	-0.26108	0.129	0.963	0.156	0	346	171	3
2026-02-12	14:38:19.490	46.2	16.485	97.23	0.926468	-0.227652	-0.1586	0.1425	0.978	0.1545	0	346	171	3
2026-02-12	14:38:19.510	66.71	17.57	85.05	0.855708	-0.130784	-0.077592	0.159	0.9915	0.1485	0	346	171	3
2026-02-12	14:38:19.530	52.5	21.525	77.105	0.793244	-0.131028	0.009516	0.165	1.002	0.141	0	346	171	3
2026-02-12	14:38:19.550	26.04	25.83	75.18	0.728584	-0.187148	0.05002	0.1815	1.0095	0.1305	0	346	171	3
2026-02-12	14:38:19.570	8.05	27.895	75.355	0.699304	-0.270352	0.0305	0.1905	1.014	0.123	0	346	171	3
2026-02-12	14:38:19.590	2.52	28.14	74.725	0.674172	-0.390156	-0.02928	0.192	1.02	0.1215	0	346	171	3
2026-02-12	14:38:19.610	17.08	24.92	74.375	0.659532	-0.477508	-0.14152	0.2055	1.026	0.12	0	341	184	3
2026-02-12	14:38:19.630	44.52	18.2	74.445	0.629764	-0.476044	-0.190564	0.2175	1.035	0.111	0	341	184	3
2026-02-12	14:38:19.650	68.565	12.495	72.065	0.5978	-0.393816	-0.132004	0.2295	1.0425	0.105	0	341	184	3
2026-02-12	14:38:19.670	75.53	8.995	66.71	0.550708	-0.31598	-0.100528	0.2385	1.05	0.0945	0	341	184	3
2026-02-12	14:38:19.690	55.51	6.79	57.085	0.522892	-0.382348	-0.002196	0.2505	1.056	0.087	0	341	184	3
2026-02-12	14:38:19.710	42.385	6.86	50.715	0.497028	-0.54046	0.106384	0.2655	1.059	0.078	0	341	184	3
2026-02-12	14:38:19.730	36.645	7.84	43.295	0.419924	-0.563152	0.200568	0.27	1.0635	0.066	0	341	184	3
2026-02-12	14:38:19.750	10.255	12.285	35.14	0.382836	-0.64782	0.2135	0.2775	1.0665	0.0645	0	341	184	3
2026-02-12	14:38:19.770	-13.825	13.65	26.565	0.411384	-0.714432	0.128344	0.2835	1.0635	0.066	0	341	184	3
2026-02-12	14:38:19.790	-28.455	8.12	18.095	0.509228	-0.858636	0.048068	0.2835	1.065	0.063	0	341	184	3
2026-02-12	14:38:19.810	-32.795	-0.665	14.805	0.601948	-0.960872	0.006588	0.288	1.074	0.066	0	337	166	3
2026-02-12	14:38:19.830	-28.315	-9.625	12.005	0.726144	-1.036756	0.018056	0.2895	1.0785	0.0735	0	337	166	3
2026-02-12	14:38:19.850	-14.98	-16.59	9.205	0.860588	-0.941352	0.0793	0.291	1.077	0.0795	0	337	166	3
2026-02-12	14:38:19.870	-10.22	-18.62	-3.395	0.909144	-0.710284	0.05368	0.2925	1.074	0.084	0	337	166	3
2026-02-12	14:38:19.890	-38.325	-23.205	-19.74	0.995032	-0.62952	0.080276	0.285	1.0695	0.084	0	337	166	3
2026-02-12	14:38:19.910	-42.35	-36.505	-25.06	1.123132	-0.64416	-0.026596	0.282	1.0695	0.084	0	337	166	3
2026-02-12	14:38:19.930	-21.7	-42.175	-35.665	0.9516	-0.526796	-0.087352	0.2835	1.0665	0.096	0	337	166	3
2026-02-12	14:38:19.950	-4.585	-50.33	-48.685	0.805688	-0.416752	-0.11224	0.276	1.065	0.1065	0	337	166	3
2026-02-12	14:38:19.970	8.575	-60.97	-59.115	0.795928	-0.360144	-0.041724	0.267	1.0635	0.108	0	337	166	3
2026-02-12	14:38:19.990	8.435	-65.59	-64.575	0.809348	-0.450668	0.005124	0.261	1.056	0.1155	0	337	166	3
2026-02-12	14:38:20.010	3.465	-64.89	-66.43	0.835212	-0.425048	-0.042212	0.249	1.047	0.1185	0	336	129	3
2026-02-12	14:38:20.030	-16.345	-63.56	-68.215	0.88328	-0.45384	-0.227164	0.2355	1.0425	0.1215	0	336	129	3
2026-02-12	14:38:20.050	-31.29	-64.4	-71.26	0.931104	-0.708332	-0.420168	0.2295	1.0425	0.132	0	336	129	3
2026-02-12	14:38:20.070	-13.44	-66.64	-72.94	0.979416	-0.782508	-0.43554	0.222	1.038	0.138	0	336	129	3
2026-02-12	14:38:20.090	-0.385	-64.4	-75.32	1.001132	-0.746884	-0.4392	0.21	1.0305	0.144	0	336	129	3
2026-02-12	14:38:20.110	6.335	-56.84	-78.645	0.957944	-0.737612	-0.472628	0.204	1.0155	0.153	0	336	129	3
2026-02-12	14:38:20.130	29.96	-49.175	-86.17	0.911828	-0.701744	-0.464088	0.2025	1.005	0.1545	0	336	129	3
2026-02-12	14:38:20.150	44.73	-44.24	-91.455	0.960384	-0.649284	-0.432124	0.189	1.0005	0.162	0	336	129	3
2026-02-12	14:38:20.170	50.505	-39.095	-94.99	1.013088	-0.582428	-0.468968	0.1725	0.993	0.1665	0	336	129	3
2026-02-12	14:38:20.190	53.62	-36.68	-97.72	1.02724	-0.477264	-0.465064	0.1605	0.9825	0.1635	0	336	129	3
2026-02-12	14:38:20.210	50.68	-34.895	-99.225	1.037732	-0.315492	-0.376736	0.15	0.966	0.159	0	336	124	3
2026-02-12	14:38:20.230	32.445	-29.96	-99.155	0.999424	-0.16958	-0.314272	0.144	0.954	0.1605	0	336	124	3
2026-02-12	14:38:20.250	6.79	-23.38	-99.085	0.935984	-0.08174	-0.272548	0.1335	0.9465	0.1605	0	336	124	3
2026-02-12	14:38:20.270	-10.36	-15.82	-98.595	0.896456	-0.122976	-0.169824	0.123	0.939	0.159	0	336	124	3
2026-02-12	14:38:20.290	-17.605	-6.335	-92.68	0.878644	-0.181048	-0.10126	0.12	0.921	0.1635	0	336	124	3
2026-02-12	14:38:20.310	-38.605	5.915	-78.715	0.882304	-0.223504	-0.088816	0.111	0.906	0.162	0	336	124	3
2026-02-12	14:38:20.330	-66.36	19.005	-56.91	0.814716	-0.34892	-0.16836	0.1035	0.9045	0.1605	0	336	124	3
2026-02-12	14:38:20.350	-54.845	29.085	-22.225	0.681004	-0.333792	-0.165188	0.102	0.8955	0.162	0	336	124	3
2026-02-12	14:38:20.370	-36.715	34.965	-1.75	0.689056	-0.235948	-0.202032	0.0975	0.8865	0.168	0	336	124	3
2026-02-12	14:38:20.390	-29.155	41.09	11.865	0.783484	-0.069784	-0.321592	0.096	0.8805	0.1695	0	336	124	3
2026-02-12	14:38:20.410	-44.555	48.055	18.725	0.858148	-0.031964	-0.335256	0.1005	0.882	0.162	0	336	151	3
2026-02-12	14:38:20.430	-58.065	51.135	23.66	0.890356	-0.250588	-0.286456	0.096	0.8805	0.1635	0	336	151	3
2026-02-12	14:38:20.450	-33.88	49.035	31.85	1.00894	-0.200324	-0.216184	0.0945	0.8835	0.1605	0	336	151	3
2026-02-12	14:38:20.470	-12.53	46.97	43.12	1.177544	-0.05978	-0.25498	0.1005	0.891	0.153	0	336	151	3
2026-02-12	14:38:20.490	-19.285	45.185	55.23	1.29564	-0.02074	-0.22814	0.102	0.897	0.1485	0	336	151	3
2026-02-12	14:38:20.510	-46.48	42.175	68.88	1.349564	-0.119804	-0.174216	0.105	0.9015	0.1455	0	336	151	3
2026-02-12	14:38:20.530	-60.795	39.34	81.935	1.346392	-0.28914	-0.081984	0.114	0.909	0.1455	0	336	151	3
2026-02-12	14:38:20.550	-46.55	36.12	89.915	1.334192	-0.303048	-0.040016	0.1185	0.915	0.1455	0	336	151	3
2026-02-12	14:38:20.570	-34.44	34.755	99.05	1.27612	-0.304268	-0.0793	0.129	0.9285	0.15	0	336	151	3
2026-02-12	14:38:20.590	-45.78	32.025	105.35	1.146312	-0.290848	-0.171776	0.138	0.939	0.147	0	336	151	3
2026-02-12	14:38:20.610	-59.92	26.81	107.345	1.029924	-0.440908	-0.19276	0.15	0.9555	0.147	0	336	176	3
2026-02-12	14:38:20.630	-39.2	22.015	104.755	0.970144	-0.513132	-0.066124	0.1575	0.9675	0.1515	0	336	176	3
2026-02-12	14:38:20.650	9.765	22.82	92.575	0.888404	-0.33306	-0.017568	0.1665	0.978	0.1515	0	336	176	3
2026-02-12	14:38:20.670	42.42	27.545	78.785	0.763964	-0.140544	-0.03538	0.18	0.9855	0.1485	0	336	176	3
2026-02-12	14:38:20.690	31.85	31.5	69.37	0.65514	-0.088084	-0.06588	0.192	0.993	0.1425	0	336	176	3
2026-02-12	14:38:20.710	-3.255	32.445	64.365	0.5734	-0.188856	-0.090036	0.201	1.002	0.138	0	336	176	3
2026-02-12	14:38:20.730	-30.765	29.785	64.715	0.533628	-0.391132	-0.111752	0.21	1.0125	0.1305	0	336	176	3
2026-02-12	14:38:20.750	-28	25.165	67.62	0.543388	-0.534116	-0.130296	0.213	1.02	0.126	0	336	176	3
2026-02-12	14:38:20.770	-1.47	21.14	70.42	0.555832	-0.604632	-0.134688	0.219	1.0245	0.132	0	336	176	3
2026-02-12	14:38:20.790	64.225	15.085	69.86	0.538264	-0.487268	-0.082228	0.225	1.029	0.138	0	336	176	3
2026-02-12	14:38:20.810	81.55	13.93	63.21	0.528504	-0.341356	-0.023668	0.2325	1.0305	0.1305	0	336	177	3
2026-02-12	14:38:20.830	62.755	14.56	53.795	0.52704	-0.385276	-0.007076	0.243	1.0365	0.114	0	336	177	3
2026-02-12	14:38:20.850	33.145	13.93	46.095	0.468724	-0.476776	-0.008052	0.261	1.041	0.102	0	336	177	3
2026-02-12	14:38:20.870	11.2	12.985	35.875	0.44164	-0.612684	0.034892	0.2685	1.0425	0.0975	0	336	177	3
2026-02-12	14:38:20.890	-3.465	11.41	29.925	0.426024	-0.694668	0.133468	0.2685	1.047	0.0975	0	336	177	3
2026-02-12	14:38:20.910	-22.47	10.745	20.44	0.481168	-0.819352	0.180316	0.273	1.053	0.1005	0	336	177	3
2026-02-12	14:38:20.930	-35.91	8.225	16.765	0.528748	-0.995276	0.023912	0.273	1.0575	0.1065	0	336	177	3
2026-02-12	14:38:20.950	-36.47	-0.805	14.7	0.558272	-1.087752	-0.161284	0.2745	1.059	0.111	0	336	177	3
2026-02-12	14:38:20.970	-19.46	-18.62	12.075	0.745908	-1.223172	-0.1464	0.2775	1.0575	0.111	0	336	177	3
2026-02-12	14:38:20.990	9.52	-30.625	5.705	1.003328	-0.997472	0.029768	0.273	1.0545	0.1095	0	336	177	3
2026-02-12	14:38:21.010	7.49	-32.165	-17.71	1.160708	-0.74176	0.082228	0.2745	1.056	0.1095	0	338	155	3
2026-02-12	14:38:21.030	0.105	-36.015	-27.055	1.370548	-0.650504	-0.006832	0.273	1.056	0.1155	0	338	155	3
2026-02-12	14:38:21.050	6.265	-41.545	-36.33	1.164612	-0.504348	-0.181292	0.267	1.0515	0.123	0	338	155	3
2026-02-12	14:38:21.070	20.125	-47.845	-52.395	0.931592	-0.406504	-0.192516	0.2595	1.0485	0.1215	0	338	155	3
2026-02-12	14:38:21.090	17.5	-53.69	-60.76	0.911584	-0.429928	-0.109556	0.2595	1.0485	0.1215	0	338	155	3
2026-02-12	14:38:21.110	5.775	-52.43	-64.365	0.893528	-0.546804	-0.083204	0.252	1.041	0.1275	0	338	155	3
2026-02-12	14:38:21.130	12.145	-50.05	-66.15	0.862784	-0.599752	-0.101992	0.2385	1.032	0.1335	0	338	155	3
2026-02-12	14:38:21.150	28.035	-49.56	-67.48	0.813984	-0.565836	-0.203252	0.2295	1.026	0.138	0	338	155	3
2026-02-12	14:38:21.170	45.325	-51.8	-70.7	0.768112	-0.507764	-0.280112	0.2235	1.0215	0.141	0	338	155	3
2026-02-12	14:38:21.190	51.45	-56.28	-75.18	0.748348	-0.40138	-0.28304	0.213	1.0095	0.1335	0	338	155	3
2026-02-12	14:38:21.210	38.815	-58.275	-78.61	0.717604	-0.325008	-0.247172	0.213	1.0185	0.1335	0	343	131	3
2026-02-12	14:38:21.230	17.43	-56.455	-81.515	0.649528	-0.2989	-0.162748	0.1965	1.0035	0.1365	0	343	131	3
2026-02-12	14:38:21.250	2.45	-52.255	-83.44	0.598532	-0.371612	-0.130296	0.192	0.9915	0.141	0	343	131	3
2026-02-12	14:38:21.270	5.18	-49.315	-82.915	0.58926	-0.408456	-0.133224	0.18	0.981	0.147	0	343	131	3
2026-02-12	14:38:21.290	8.995	-46.27	-79.625	0.615856	-0.435052	-0.150304	0.1605	0.9765	0.1515	0	343	131	3
2026-02-12	14:38:21.310	11.34	-44.03	-75.285	0.628056	-0.417728	-0.208132	0.15	0.966	0.156	0	343	131	3
2026-02-12	14:38:21.330	15.155	-43.47	-70.35	0.638792	-0.358924	-0.239364	0.147	0.954	0.1575	0	343	131	3
2026-02-12	14:38:21.350	16.31	-43.225	-64.68	0.699548	-0.29524	-0.232288	0.138	0.948	0.1665	0	343	131	3
2026-02-12	14:38:21.370	13.72	-40.705	-60.27	0.78446	-0.249124	-0.205936	0.1335	0.948	0.174	0	343	131	3
2026-02-12	14:38:21.390	5.005	-35.63	-56.875	0.855708	-0.201788	-0.213744	0.1305	0.939	0.1725	0	343	131	3
2026-02-12	14:38:21.410	-9.52	-27.755	-56.98	0.916952	-0.25864	-0.235704	0.1215	0.9315	0.177	0	345	129	3
2026-02-12	14:38:21.430	-15.96	-15.96	-59.22	0.996008	-0.37332	-0.219844	0.1215	0.924	0.1785	0	345	129	3
2026-02-12	14:38:21.450	-15.925	-3.255	-55.79	1.099464	-0.427244	-0.28914	0.1155	0.9135	0.1845	0	345	129	3
2026-02-12	14:38:21.470	-7.875	6.65	-51.135	1.175348	-0.432124	-0.342088	0.108	0.9075	0.1815	0	345	129	3
2026-02-12	14:38:21.490	-9.59	13.405	-47.075	1.201212	-0.385276	-0.372344	0.1005	0.8955	0.1845	0	345	129	3
2026-02-12	14:38:21.510	-27.65	20.755	-39.165	1.168272	-0.434564	-0.4026	0.0945	0.8895	0.189	0	345	129	3
2026-02-12	14:38:21.530	-34.545	26.88	-31.045	1.21512	-0.454816	-0.41602	0.0885	0.8835	0.1875	0	345	129	3
2026-02-12	14:38:21.550	-31.185	32.2	-22.085	1.354932	-0.476776	-0.430416	0.0885	0.873	0.183	0	345	129	3
2026-02-12	14:38:21.570	-16.17	35.175	-16.765	1.420812	-0.376736	-0.39406	0.084	0.8685	0.18	0	345	129	3
2026-02-12	14:38:21.590	2.905	35.14	-13.195	1.553792	-0.24522	-0.322568	0.078	0.867	0.1815	0	345	129	3
2026-02-12	14:38:21.610	4.445	35.385	-1.295	1.580632	-0.162748	-0.294752	0.0825	0.879	0.1755	0	345	152	3
2026-02-12	14:38:21.630	-7.875	34.3	13.895	1.480104	-0.117364	-0.284504	0.0915	0.864	0.1665	0	345	152	3
2026-02-12	14:38:21.650	-14.455	29.75	26.11	1.299544	-0.091988	-0.25254	0.087	0.873	0.168	0	345	152	3
2026-02-12	14:38:21.670	-13.265	18.83	42.49	1.145336	-0.070028	-0.170556	0.0825	0.8685	0.1605	0	345	152	3
2026-02-12	14:38:21.690	-23.45	12.425	60.55	1.081408	-0.087596	-0.1037	0.087	0.879	0.162	0	345	152	3
2026-02-12	14:38:21.710	-41.545	15.47	77	1.05164	-0.224724	-0.049776	0.09	0.8925	0.1635	0	345	152	3
2026-02-12	14:38:21.730	-62.615	20.23	95.69	1.024312	-0.321592	-0.079788	0.0915	0.9	0.1665	0	345	152	3
2026-02-12	14:38:21.750	-74.795	23.345	113.225	1.002108	-0.45262	-0.183244	0.105	0.9135	0.1725	0	345	152	3
2026-02-12	14:38:21.770	-42	25.795	121.03	1.023336	-0.58194	-0.241804	0.1185	0.93	0.177	0	345	152	3
2026-02-12	14:38:21.790	40.985	27.055	112.07	0.961116	-0.341844	-0.168116	0.1215	0.9405	0.1815	0	345	152	3
2026-02-12	14:38:21.810	102.935	27.405	90.09	0.81862	-0.013664	-0.170312	0.1305	0.9525	0.177	0	346	181	3
2026-02-12	14:38:21.830	115.64	30.94	70.14	0.668804	0.09857599	-0.171776	0.144	0.9675	0.174	0	346	181	3
2026-02-12	14:38:21.850	81.375	31.465	62.65	0.582916	0.05978	-0.11224	0.1545	0.978	0.147	0	346	181	3
2026-02-12	14:38:21.870	20.545	27.72	66.045	0.561444	-0.181536	-0.0915	0.1545	0.9885	0.132	0	346	181	3
2026-02-12	14:38:21.890	-2.24	20.16	76.685	0.620492	-0.4758	-0.044896	0.1545	0.999	0.123	0	346	181	3
2026-02-12	14:38:21.910	33.88	15.89	88.725	0.659776	-0.497028	0.061732	0.165	1.0065	0.126	0	346	181	3
2026-02-12	14:38:21.930	73.535	18.69	89.6	0.679784	-0.286212	0.059536	0.18	1.0155	0.1215	0	346	181	3
2026-02-12	14:38:21.950	84.28	22.75	84.315	0.624884	-0.130052	0.007808	0.189	1.026	0.1125	0	346	181	3
2026-02-12	14:38:21.970	63.91	24.5	74.865	0.572668	-0.152988	-0.025376	0.2025	1.041	0.105	0	346	181	3
2026-02-12	14:38:21.990	34.93	24.43	62.405	0.556564	-0.287676	-0.055632	0.213	1.044	0.0945	0	346	181	3
2026-02-12	14:38:22.010	14.175	21.07	52.325	0.557052	-0.504104	-0.040504	0.213	1.041	0.0885	0	346	183	3
2026-02-12	14:38:22.030	10.99	17.395	48.475	0.582184	-0.576816	0.00244	0.213	1.041	0.0885	0	346	183	3
2026-02-12	14:38:22.050	15.75	14.28	45.255	0.568032	-0.668072	0.042212	0.2445	1.053	0.0765	0	346	183	3
2026-02-12	14:38:22.070	21.525	12.18	39.655	0.539728	-0.570228	0.07515199	0.252	1.065	0.0795	0	346	183	3
2026-02-12	14:38:22.090	4.515	10.92	31.99	0.540948	-0.55266	0.120536	0.2505	1.0635	0.0825	0	346	183	3
2026-02-12	14:38:22.110	-22.155	11.2	19.495	0.586576	-0.65026	0.127612	0.2475	1.062	0.069	0	346	183	3
2026-02-12	14:38:22.130	-33.565	12.075	7.98	0.60756	-0.808616	0.08686399	0.2505	1.065	0.0705	0	346	183	3
2026-02-12	14:38:22.150	-32.235	10.01	1.61	0.60756	-0.905972	0.043676	0.2535	1.071	0.078	0	346	183	3
2026-02-12	14:38:22.170	-32.2	4.165	-1.715	0.568032	-0.893772	0.006344	0.2625	1.0725	0.084	0	346	183	3
2026-02-12	14:38:22.190	-31.36	-3.78	-5.04	0.587552	-0.862052	0.03172	0.2655	1.077	0.087	0	346	183	3
2026-02-12	14:38:22.210	-38.15	-8.715	-5.67	0.715896	-0.979904	0.101748	0.258	1.08	0.09	0	349	153	3
2026-02-12	14:38:22.230	-47.495	-10.115	2.45	0.912804	-1.24562	0.114192	0.2505	1.08	0.0945	0	349	153	3
2026-02-12	14:38:22.250	-36.12	-6.265	10.5	1.054812	-1.277096	0.05368	0.255	1.0755	0.0945	0	349	153	3
2026-02-12	14:38:22.270	-10.57	-7.735	5.67	1.125816	-0.96624	-0.142984	0.2565	1.077	0.1095	0	349	153	3
2026-02-12	14:38:22.290	-21.7	-10.64	1.575	1.110688	-0.832772	-0.10736	0.267	1.0875	0.111	0	349	153	3
2026-02-12	14:38:22.310	-48.405	-12.11	-1.295	0.875228	-0.793976	-0.226676	0.2595	1.089	0.1155	0	349	153	3
2026-02-12	14:38:22.330	-37.975	-22.47	-15.575	0.82838	-0.724192	-0.038796	0.2505	1.08	0.12	0	349	153	3
2026-02-12	14:38:22.350	-22.435	-27.825	-31.36	0.802516	-0.520452	0.15128	0.2505	1.083	0.129	0	349	153	3
2026-02-12	14:38:22.370	-24.85	-25.515	-41.44	0.779336	-0.269132	0.15006	0.2445	1.0845	0.144	0	349	153	3
2026-02-12	14:38:22.390	-42.455	-18.305	-51.135	0.75518	-0.132248	0.077836	0.24	1.0815	0.15	0	349	153	3
2026-02-12	14:38:22.410	-58.765	-12.145	-64.085	0.786168	-0.2196	-0.060024	0.234	1.074	0.153	0	355	113	3
2026-02-12	14:38:22.430	-67.725	-10.01	-77.98	0.981368	-0.47336	-0.1708	0.2265	1.0695	0.1575	0	355	113	3
2026-02-12	14:38:22.450	-58.59	-11.165	-76.125	1.010892	-0.739564	-0.280844	0.216	1.0665	0.1695	0	355	113	3
2026-02-12	14:38:22.470	-29.645	-15.085	-71.295	0.95648	-0.821304	-0.4453	0.207	1.0635	0.174	0	355	113	3
2026-02-12	14:38:22.490	4.06	-20.02	-66.01	0.877424	-0.746396	-0.422852	0.1965	1.059	0.192	0	355	113	3
2026-02-12	14:38:22.510	14.98	-22.26	-57.925	0.749568	-0.597556	-0.246196	0.1815	1.0485	0.1875	0	355	113	3
2026-02-12	14:38:22.530	7.595	-19.81	-50.47	0.678076	-0.558028	-0.08295999	0.1815	1.047	0.183	0	355	113	3
2026-02-12	14:38:22.550	13.37	-11.725	-45.22	0.58194	-0.5368	-0.013176	0.1755	1.0395	0.1905	0	355	113	3
2026-02-12	14:38:22.570	14	-4.55	-40.635	0.492636	-0.468968	-0.130052	0.168	1.0365	0.189	0	355	113	3
2026-02-12	14:38:22.590	12.95	-2.52	-37.59	0.445544	-0.421388	-0.141764	0.156	1.029	0.1845	0	355	113	3
2026-02-12	14:38:22.610	17.92	-3.745	-34.58	0.463356	-0.360876	-0.11712	0.15	1.0245	0.1845	0	361	96	3
2026-02-12	14:38:22.630	17.85	-4.095	-31.185	0.464332	-0.379664	-0.155916	0.1485	1.026	0.183	0	361	96	3
2026-02-12	14:38:22.650	17.78	-7.56	-26.53	0.521916	-0.42456	-0.222772	0.1485	1.029	0.18	0	361	96	3
2026-02-12	14:38:22.670	17.15	-12.985	-19.88	0.626836	-0.497028	-0.212036	0.1395	1.0215	0.183	0	361	96	3
2026-02-12	14:38:22.690	19.32	-15.96	-12.845	0.733464	-0.546072	-0.203496	0.135	1.023	0.1785	0	361	96	3
2026-02-12	14:38:22.710	26.11	-17.185	-5.845	0.827648	-0.533384	-0.24766	0.138	1.0275	0.177	0	361	96	3
2026-02-12	14:38:22.730	30.065	-18.655	-0.385	0.88572	-0.494344	-0.277428	0.138	1.011	0.1755	0	361	96	3
2026-02-12	14:38:22.750	30.52	-19.74	2.66	0.894992	-0.486292	-0.249856	0.1365	1.0245	0.1785	0	361	96	3
2026-02-12	14:38:22.770	30.555	-19.67	1.225	0.843996	-0.46116	-0.232044	0.147	1.0275	0.18	0	361	96	3
2026-02-12	14:38:22.790	29.785	-18.025	-5.46	0.766648	-0.420656	-0.20252	0.147	1.0275	0.18	0	361	96	3
2026-02-12	14:38:22.810	29.925	-14.98	-14.63	0.724192	-0.40138	-0.136396	0.144	1.026	0.1725	0	362	105	3
2026-02-12	14:38:22.830	23.17	-11.06	-22.54	0.725656	-0.458232	-0.088328	0.1365	1.02	0.1665	0	362	105	3
2026-02-12	14:38:22.850	6.58	-6.65	-25.165	0.74298	-0.607072	-0.127368	0.132	1.017	0.168	0	362	105	3
2026-02-12	14:38:22.870	1.4	-2.8	-24.22	0.748592	-0.702476	-0.243268	0.1395	1.017	0.174	0	362	105	3
2026-02-12	14:38:22.890	16.17	-0.665	-24.395	0.773968	-0.701256	-0.280356	0.12	1.0215	0.168	0	362	105	3
2026-02-12	14:38:22.910	37.345	0.63	-26.32	0.804956	-0.57218	-0.242292	0.1215	1.0155	0.162	0	362	105	3
2026-02-12	14:38:22.930	41.545	2.695	-29.33	0.863516	-0.509228	-0.18422	0.1245	1.008	0.159	0	362	105	3
2026-02-12	14:38:22.950	36.295	5.355	-31.71	0.931836	-0.5185	-0.189832	0.1125	1.0155	0.1545	0	362	105	3
2026-02-12	14:38:22.970	28.315	9.345	-33.74	0.961848	-0.49776	-0.146644	0.12	0.9975	0.15	0	362	105	3
2026-02-12	14:38:22.990	10.64	15.715	-35.35	0.991372	-0.576328	-0.102236	0.111	1.0005	0.144	0	362	105	3
2026-02-12	14:38:23.010	-0.805	21.735	-36.925	1.060912	-0.68564	-0.200568	0.111	1.0005	0.144	0	358	127	3
2026-02-12	14:38:23.030	-5.11	26.215	-36.925	1.135576	-0.810812	-0.301584	0.099	0.9915	0.135	0	358	127	3
2026-02-12	14:38:23.050	2.975	29.12	-33.11	1.053836	-0.79422	-0.345748	0.087	0.984	0.126	0	358	127	3
2026-02-12	14:38:23.070	26.25	25.97	-31.745	1.066036	-0.624152	-0.329644	0.0855	0.975	0.129	0	358	127	3
2026-02-12	14:38:23.090	29.61	20.825	-27.965	1.086044	-0.553636	-0.327204	0.081	0.978	0.1245	0	358	127	3
2026-02-12	14:38:23.110	33.425	14.175	-21.595	1.058472	-0.4819	-0.292312	0.0885	0.975	0.108	0	358	127	3
2026-02-12	14:38:23.130	41.125	6.3	-11.2	0.99064	-0.372832	-0.167872	0.075	0.972	0.105	0	358	127	3
2026-02-12	14:38:23.150	45.43	-2.975	0.245	0.95648	-0.238876	-0.108336	0.0825	0.963	0.0945	0	358	127	3
2026-02-12	14:38:23.170	51.38	-11.305	11.69	1.029436	-0.11834	-0.046604	0.0735	0.9675	0.1005	0	358	127	3
2026-02-12	14:38:23.190	50.47	-16.94	25.445	1.031388	-0.118828	-0.05124	0.0735	0.975	0.081	0	358	127	3
2026-02-12	14:38:23.210	41.86	-21.595	37.555	1.032608	-0.183732	-0.068564	0.0735	0.9645	0.0885	0	348	151	3
2026-02-12	14:38:23.230	25.165	-19.95	45.255	1.080188	-0.309148	-0.060268	0.0735	0.9645	0.0885	0	348	151	3
2026-02-12	14:38:23.250	12.705	-15.155	49.945	1.006012	-0.432612	-0.153964	0.0795	0.9765	0.0825	0	348	151	3
2026-02-12	14:38:23.270	11.13	-14.07	54.11	0.9028	-0.526064	-0.216916	0.087	0.99	0.0765	0	348	151	3
2026-02-12	14:38:23.290	21.945	-17.185	59.255	0.814228	-0.59292	-0.246684	0.0915	0.99	0.081	0	348	151	3
2026-02-12	14:38:23.310	38.535	-21.91	63.525	0.776652	-0.618296	-0.242536	0.102	0.999	0.078	0	348	151	3
2026-02-12	14:38:23.330	54.355	-25.375	65.765	0.752008	-0.550708	-0.189832	0.114	0.996	0.081	0	348	151	3
2026-02-12	14:38:23.350	67.165	-26.565	64.925	0.731024	-0.483364	-0.13176	0.114	1.008	0.078	0	348	151	3
2026-02-12	14:38:23.370	77.42	-27.65	61.775	0.709796	-0.41358	-0.127368	0.1155	1.017	0.0645	0	348	151	3
2026-02-12	14:38:23.390	82.67	-29.295	57.19	0.69662	-0.338428	-0.154452	0.123	1.0245	0.0645	0	348	151	3
2026-02-12	14:38:23.410	78.68	-30.59	48.58	0.693936	-0.292068	-0.148596	0.141	1.0305	0.0495	0	337	163	3
2026-02-12	14:38:23.430	65.975	-31.605	36.26	0.686616	-0.32086	-0.10736	0.144	1.029	0.051	0	337	163	3
2026-02-12	14:38:23.450	62.125	-32.445	25.06	0.655384	-0.403088	-0.081984	0.144	1.029	0.051	0	337	163	3
2026-02-12	14:38:23.470	66.745	-33.88	16.94	0.627568	-0.407968	-0.079788	0.144	1.026	0.0435	0	337	163	3
2026-02-12	14:38:23.490	69.475	-34.615	8.855	0.60756	-0.353556	-0.050264	0.1455	1.0245	0.0375	0	337	163	3
2026-02-12	14:38:23.510	60.13	-34.3	1.015	0.6039	-0.338672	0.01464	0.15	1.0245	0.0345	0	337	163	3
2026-02-12	14:38:23.530	42.42	-32.655	-4.655	0.622932	-0.403576	0.044164	0.147	1.0335	0.036	0	337	163	3
2026-02-12	14:38:23.550	29.12	-30.555	-6.475	0.69296	-0.537288	0.070028	0.1515	1.032	0.0315	0	337	163	3
2026-02-12	14:38:23.570	22.54	-26.18	-4.725	0.794464	-0.69418	0.074664	0.1455	1.023	0.036	0	337	163	3
2026-02-12	14:38:23.590	20.055	-21.42	1.225	0.914756	-0.81862	0.052704	0.144	1.0215	0.0315	0	337	163	3
2026-02-12	14:38:23.610	23.625	-17.535	11.725	0.976	-0.879376	-0.021472	0.1425	1.023	0.033	0	325	157	3
2026-02-12	14:38:23.630	23.695	-17.85	21.98	0.903288	-0.80764	-0.1647	0.1365	1.02	0.039	0	325	157	3
2026-02-12	14:38:23.650	9.555	-22.89	28.315	0.746396	-0.793976	-0.276208	0.1455	1.0215	0.039	0	325	157	3
2026-02-12	14:38:23.670	8.365	-37.17	33.075	0.60756	-0.8479	-0.20252	0.1455	1.0215	0.039	0	325	157	3
2026-02-12	14:38:23.690	20.825	-42.105	28.525	0.67344	-0.84058	-0.139324	0.1455	1.0335	0.039	0	325	157	3
2026-02-12	14:38:23.710	21.7	-44.45	20.09	0.91134	-0.915732	-0.179096	0.159	1.0305	0.0375	0	325	157	3
2026-02-12	14:38:23.730	23.765	-45.85	15.295	1.131184	-0.879864	-0.225456	0.156	1.029	0.051	0	325	157	3
2026-02-12	14:38:23.750	15.225	-49.665	22.82	1.347368	-0.98332	-0.337452	0.1665	1.0365	0.0435	0	325	157	3
2026-02-12	14:38:23.770	40.285	-52.745	37.135	1.315648	-0.808372	-0.485804	0.153	1.0335	0.0495	0	325	157	3
2026-02-12	14:38:23.790	84.945	-55.09	34.965	1.135576	-0.218868	-0.325496	0.1605	1.035	0.0465	0	325	157	3
2026-02-12	14:38:23.810	68.845	-52.325	21.315	1.040416	-0.012444	-0.074664	0.165	1.0425	0.0525	0	316	147	3
2026-02-12	14:38:23.830	51.87	-39.48	1.225	0.853756	-0.024644	0.03172	0.1575	1.035	0.042	0	316	147	3
2026-02-12	14:38:23.850	42.875	-36.96	-16.73	0.740052	-0.110776	-0.100772	0.1605	1.038	0.045	0	316	147	3
2026-02-12	14:38:23.870	29.715	-35.105	-35.455	0.715408	-0.367464	-0.25254	0.1545	1.0365	0.045	0	316	147	3
2026-02-12	14:38:23.890	25.27	-39.725	-53.305	0.781532	-0.601948	-0.339404	0.1545	1.0365	0.045	0	316	147	3
2026-02-12	14:38:23.910	22.75	-42.7	-57.295	0.818864	-0.691252	-0.316224	0.147	1.017	0.0465	0	316	147	3
2026-02-12	14:38:23.930	19.88	-43.505	-56.91	0.809836	-0.739076	-0.283284	0.141	1.0125	0.039	0	316	147	3
2026-02-12	14:38:23.950	22.925	-44.065	-54.355	0.75884	-0.671488	-0.264008	0.129	1.011	0.048	0	316	147	3
2026-02-12	14:38:23.970	33.705	-45.5	-53.865	0.71492	-0.543632	-0.224236	0.1215	1.002	0.0495	0	316	147	3
2026-02-12	14:38:23.990	41.265	-48.405	-55.86	0.693204	-0.431636	-0.199836	0.111	0.9915	0.0555	0	316	147	3
2026-02-12	14:38:24.010	38.57	-51.52	-59.64	0.689056	-0.4026	-0.178608	0.1125	0.984	0.057	0	312	153	3
2026-02-12	14:38:24.030	32.095	-54.67	-63.49	0.736148	-0.479704	-0.182756	0.102	0.9735	0.063	0	312	153	3
2026-02-12	14:38:24.050	33.95	-55.02	-65.835	0.755668	-0.56364	-0.169336	0.0885	0.9705	0.0675	0	312	153	3
2026-02-12	14:38:24.070	40.215	-53.445	-65.1	0.758596	-0.573644	-0.188612	0.0915	0.957	0.0705	0	312	153	3
2026-02-12	14:38:24.090	45.885	-50.995	-61.11	0.784704	-0.513864	-0.258152	0.0915	0.957	0.0705	0	312	153	3
2026-02-12	14:38:24.110	40.215	-47.985	-58.17	0.814716	-0.427488	-0.260592	0.0915	0.957	0.0705	0	312	153	3
2026-02-12	14:38:24.130	26.005	-42.455	-55.825	0.811788	-0.385032	-0.264008	0.0525	0.93	0.0765	0	312	153	3
2026-02-12	14:38:24.150	12.74	-36.015	-54.67	0.833016	-0.368196	-0.25864	0.0495	0.921	0.0855	0	312	153	3
2026-02-12	14:38:24.170	0.42	-27.055	-53.585	0.854244	-0.453596	-0.21228	0.051	0.9105	0.0855	0	312	153	3
2026-02-12	14:38:24.190	-6.65	-16.625	-50.96	0.852536	-0.528504	-0.205692	0.0465	0.894	0.087	0	312	153	3
2026-02-12	14:38:24.210	-4.9	-6.16	-47.005	0.853268	-0.555344	-0.207644	0.0435	0.8955	0.0975	0	308	168	2
2026-02-12	14:38:24.230	-3.465	2.73	-42.84	0.852292	-0.510936	-0.229116	0.036	0.885	0.099	0	308	168	2
2026-02-12	14:38:24.250	-1.19	9.905	-41.545	0.843508	-0.460184	-0.253516	0.036	0.8775	0.0975	0	308	168	2
2026-02-12	14:38:24.270	-2.17	15.75	-44.415	0.889624	-0.398452	-0.306464	0.036	0.8775	0.0975	0	308	168	2
2026-02-12	14:38:24.290	-10.255	17.36	-47.53	0.939888	-0.41602	-0.326472	0.0285	0.8625	0.093	0	308	168	2
2026-02-12	14:38:24.310	-15.855	17.675	-51.205	0.978684	-0.432856	-0.312076	0.018	0.852	0.0915	0	308	168	2
2026-02-12	14:38:24.330	-16.17	17.185	-54.005	1.042124	-0.49044	-0.303536	0.0165	0.855	0.0945	0	308	168	2
2026-02-12	14:38:24.350	-6.51	17.01	-55.685	1.127036	-0.577304	-0.323544	0.015	0.8385	0.0795	0	308	168	2
2026-02-12	14:38:24.370	11.97	15.12	-55.545	1.239032	-0.69296	-0.357704	0.0195	0.8385	0.0765	0	308	168	2
2026-02-12	14:38:24.390	30.695	13.055	-53.97	1.35664	-0.743956	-0.403332	0.018	0.822	0.0795	0	308	168	2
2026-02-12	14:38:24.410	46.76	12.915	-50.54	1.446432	-0.653676	-0.407236	0.0135	0.816	0.087	0	302	191	3
2026-02-12	14:38:24.430	59.57	14.42	-44.38	1.443748	-0.432612	-0.294264	0.0135	0.8085	0.0735	0	302	191	3
2026-02-12	14:38:24.450	42.945	15.12	-20.37	1.382748	-0.16592	-0.256932	0.0105	0.801	0.069	0	302	191	3
2026-02-12	14:38:24.470	26.705	15.505	-5.11	1.233664	-0.093208	-0.25376	0.012	0.7905	0.063	0	302	191	3
2026-02-12	14:38:24.490	17.465	11.76	8.33	1.109224	-0.007808	-0.173728	0.012	0.783	0.057	0	302	191	3
2026-02-12	14:38:24.510	10.22	9.975	20.265	1.096292	0.00366	-0.066368	0.006	0.7845	0.054	0	302	191	3
2026-02-12	14:38:24.530	0.84	12.775	32.62	1.112396	-0.153232	-0.032696	0.0015	0.7845	0.0525	0	302	191	3
2026-02-12	14:38:24.550	1.155	16.065	44.45	1.105564	-0.187636	-0.072468	0.009	0.7905	0.0495	0	302	191	3
2026-02-12	14:38:24.570	3.71	17.99	54.705	1.128256	-0.207888	-0.13054	0.012	0.804	0.0465	0	302	191	3
2026-02-12	14:38:24.590	-0.84	19.74	65.38	1.15534	-0.166164	-0.105164	0.0195	0.801	0.042	0	302	191	3
2026-02-12	14:38:24.610	-15.47	22.82	73.71	1.085556	-0.19154	-0.118828	0.0165	0.819	0.045	0	297	209	3
2026-02-12	14:38:24.630	-7.385	19.775	82.495	1.016504	-0.297436	-0.13054	0.0165	0.819	0.045	0	297	209	3
2026-02-12	14:38:24.650	9.485	15.925	85.54	0.949404	-0.301584	-0.121512	0.027	0.8325	0.039	0	297	209	3
2026-02-12	14:38:24.670	25.795	13.195	87.08	0.863516	-0.268156	-0.046116	0.045	0.855	0.0285	0	297	209	3
2026-02-12	14:38:24.690	32.27	12.32	88.375	0.765184	-0.243512	-0.007076	0.0525	0.873	0.0255	0	297	209	3
2026-02-12	14:38:24.710	30.905	11.9	88.27	0.658312	-0.276452	-0.048312	0.054	0.882	0.0255	0	297	209	3
2026-02-12	14:38:24.730	36.26	8.015	87.99	0.633668	-0.397476	-0.107604	0.063	0.8925	0.024	0	297	209	3
2026-02-12	14:38:24.750	50.61	1.96	87.43	0.618296	-0.482144	-0.132248	0.0705	0.9045	0.024	0	297	209	3
2026-02-12	14:38:24.770	71.61	-2.835	87.36	0.60268	-0.431392	-0.118584	0.072	0.909	0.0105	0	297	209	3
2026-02-12	14:38:24.790	86.45	-5.075	83.86	0.594628	-0.321104	-0.071492	0.0795	0.915	0.006	0	297	209	3
2026-02-12	14:38:24.810	83.09	-5.495	73.01	0.567056	-0.197884	0.01464	0.0795	0.915	0.006	0	294	202	3
2026-02-12	14:38:24.830	67.83	-2.59	62.755	0.565836	-0.224724	0.09857599	0.0885	0.9285	-0.0015	0	294	202	3
2026-02-12	14:38:24.850	42.07	2.835	54.46	0.549976	-0.389668	0.128832	0.105	0.9405	-0.012	0	294	202	3
2026-02-12	14:38:24.870	23.625	6.615	49.525	0.536312	-0.537044	0.083204	0.111	0.9435	-0.0165	0	294	202	3
2026-02-12	14:38:24.890	20.755	7.315	44.59	0.479704	-0.584136	0.038064	0.114	0.9525	-0.0225	0	294	202	3
2026-02-12	14:38:24.910	16.45	4.235	38.885	0.449448	-0.6405	0.055144	0.1215	0.9585	-0.027	0	294	202	3
2026-02-12	14:38:24.930	8.12	0.105	33.81	0.4453	-0.726876	0.118096	0.129	0.957	-0.0255	0	294	202	3
2026-02-12	14:38:24.950	2.17	-2.485	30.205	0.492636	-0.806664	0.151768	0.132	0.957	-0.0255	0	294	202	3
2026-02-12	14:38:24.970	-1.47	-3.115	26.635	0.53924	-0.86498	0.16226	0.144	0.966	-0.03	0	294	202	3
2026-02-12	14:38:24.990	-3.815	-4.095	19.355	0.584868	-0.860588	0.137616	0.144	0.966	-0.03	0	294	202	3
2026-02-12	14:38:25.010	-10.885	-8.715	9.905	0.608292	-0.825696	0.104432	0.141	0.969	-0.0255	0	295	165	2
2026-02-12	14:38:25.030	-28.42	-17.395	1.12	0.64904	-0.888648	0.025864	0.1395	0.975	-0.0195	0	295	165	2
2026-02-12	14:38:25.050	-40.775	-28.56	-1.26	0.787632	-1.10166	0.011224	0.138	0.9795	-0.015	0	295	165	2
2026-02-12	14:38:25.070	-21.455	-37.03	-2.485	0.85888	-1.215364	-0.038796	0.132	0.9795	-0.009	0	295	165	2
2026-02-12	14:38:25.090	10.325	-43.05	-12.355	0.922808	-0.904508	-0.017324	0.132	0.975	-0.0075	0	295	165	2
2026-02-12	14:38:25.110	2.695	-49.455	-23.065	0.981368	-0.819108	-0.154696	0.1305	0.9795	-0.0045	0	295	165	2
2026-02-12	14:38:25.130	-12.215	-60.9	-23.275	0.998936	-0.636596	-0.244976	0.126	0.9825	0.0045	0	295	165	2
2026-02-12	14:38:25.150	-7	-72.555	-28.84	0.955504	-0.522404	-0.309148	0.1185	0.9765	0.012	0	295	165	2
2026-02-12	14:38:25.170	1.33	-80.885	-38.92	0.920612	-0.436028	-0.218136	0.1125	0.975	0.0165	0	295	165	2
2026-02-12	14:38:25.190	20.265	-83.3	-51.975	0.899628	-0.242536	-0.104432	0.111	0.975	0.0255	0	295	165	2
2026-02-12	14:38:25.210	10.675	-79.905	-67.48	0.89548	-0.251076	-0.110044	0.111	0.975	0.0255	0	302	125	3
2026-02-12	14:38:25.230	-8.54	-76.755	-79.485	0.955504	-0.451156	-0.222772	0.1005	0.96	0.039	0	302	125	3
2026-02-12	14:38:25.250	-8.4	-74.76	-89.88	1.008208	-0.65148	-0.406016	0.0825	0.942	0.063	0	302	125	3
2026-02-12	14:38:25.270	-3.29	-73.185	-92.05	0.950624	-0.75152	-0.556808	0.069	0.93	0.081	0	302	125	3
2026-02-12	14:38:25.290	2.17	-72.66	-88.795	0.8357	-0.790316	-0.577304	0.0615	0.915	0.0915	0	302	125	3
2026-02-12	14:38:25.310	13.545	-72.345	-83.335	0.72468	-0.704916	-0.453596	0.0555	0.9075	0.1005	0	302	125	3
2026-02-12	14:38:25.330	21.07	-69.51	-78.26	0.659532	-0.542168	-0.298412	0.051	0.8955	0.1035	0	302	125	3
2026-02-12	14:38:25.350	30.38	-63.035	-76.405	0.609024	-0.402112	-0.207156	0.0465	0.8835	0.1125	0	302	125	3
2026-02-12	14:38:25.370	40.11	-56.035	-77.105	0.587796	-0.315004	-0.15128	0.0375	0.8715	0.123	0	302	125	3
2026-02-12	14:38:25.390	48.195	-49.315	-77.63	0.588284	-0.287188	-0.120048	0.0315	0.864	0.1215	0	302	125	3
2026-02-12	14:38:25.410	56.35	-41.405	-77.385	0.618052	-0.29768	-0.130784	0.024	0.855	0.1365	0	311	124	3
2026-02-12	14:38:25.430	56.385	-33.67	-73.185	0.654896	-0.32086	-0.163236	0.0165	0.843	0.1365	0	311	124	3
2026-02-12	14:38:25.450	49.28	-29.155	-66.955	0.71492	-0.327936	-0.199104	0.0105	0.8205	0.1395	0	311	124	3
2026-02-12	14:38:25.470	40.04	-24.5	-61.845	0.811788	-0.308904	-0.24644	0.006	0.8055	0.135	0	311	124	3
2026-02-12	14:38:25.490	29.435	-18.34	-57.225	0.865712	-0.284992	-0.287188	0	0.798	0.135	0	311	124	3
2026-02-12	14:38:25.510	21.735	-13.335	-53.06	0.934032	-0.268888	-0.309636	-0.0015	0.7905	0.1395	0	311	124	3
2026-02-12	14:38:25.530	10.605	-7.175	-51.555	0.997228	-0.278648	-0.331352	0	0.7845	0.138	0	311	124	3
2026-02-12	14:38:25.550	-5.705	0.945	-52.99	1.028704	-0.281088	-0.322324	-0.003	0.7725	0.141	0	311	124	3
2026-02-12	14:38:25.570	-26.705	10.815	-54.285	1.007964	-0.369904	-0.320128	-0.0045	0.762	0.141	0	311	124	3
2026-02-12	14:38:25.590	-35.665	19.04	-54.285	1.018944	-0.485316	-0.331596	-0.003	0.7605	0.1395	0	311	124	3
2026-02-12	14:38:25.610	-31.43	27.09	-51.415	1.079944	-0.5551	-0.350384	0	0.7545	0.1395	0	319	151	3
2026-02-12	14:38:25.630	-21.91	37.03	-43.855	1.138504	-0.562176	-0.412116	-0.0165	0.744	0.138	0	319	151	3
2026-02-12	14:38:25.650	-15.61	42.945	-35.105	1.206092	-0.509716	-0.488488	-0.0165	0.744	0.138	0	319	151	3
2026-02-12	14:38:25.670	-16.345	45.885	-30.835	1.276852	-0.493856	-0.493612	-0.0135	0.7365	0.1275	0	319	151	3
2026-02-12	14:38:25.690	-8.19	44.765	-25.06	1.332972	-0.407724	-0.427976	-0.0105	0.723	0.114	0	319	151	3
2026-02-12	14:38:25.710	4.13	42.98	-17.57	1.350052	-0.259128	-0.34892	-0.0075	0.714	0.105	0	319	151	3
2026-02-12	14:38:25.730	12.005	39.305	-6.895	1.30418	-0.129564	-0.284016	-0.006	0.7125	0.0945	0	319	151	3
2026-02-12	14:38:25.750	10.955	33.635	8.82	1.18706	-0.061732	-0.181292	-0.009	0.711	0.09	0	319	151	3
2026-02-12	14:38:25.770	1.085	27.72	26.845	1.114348	-0.066856	-0.02806	-0.0105	0.711	0.087	0	319	151	3
2026-02-12	14:38:25.790	-15.33	25.795	45.325	1.116544	-0.087108	0.08174	-0.0105	0.714	0.078	0	319	151	3
2026-02-12	14:38:25.810	-25.515	28.385	62.755	1.129964	-0.180804	0.05734	-0.009	0.7155	0.0765	0	325	189	3
2026-02-12	14:38:25.830	-28.315	31.955	75.88	1.128744	-0.264008	-0.018056	-0.003	0.7335	0.069	0	325	189	3
2026-02-12	14:38:25.850	-27.335	34.79	89.67	1.109712	-0.335256	-0.0915	0.0045	0.7485	0.0675	0	325	189	3
2026-02-12	14:38:25.870	-24.535	36.26	97.02	1.045784	-0.307928	-0.141276	0.0015	0.7605	0.063	0	325	189	3
2026-02-12	14:38:25.890	-19.145	33.81	94.745	0.966972	-0.269132	-0.222284	0.0075	0.7845	0.0555	0	325	189	3
2026-02-12	14:38:25.910	-0.595	28.595	87.815	0.870836	-0.234972	-0.206912	0.0105	0.8025	0.048	0	325	189	3
2026-02-12	14:38:25.930	12.775	24.01	78.61	0.832772	-0.220576	-0.1159	0.0105	0.8085	0.0405	0	325	189	3
2026-02-12	14:38:25.950	7.98	23.03	73.255	0.760792	-0.237412	-0.045384	0.024	0.819	0.033	0	325	189	3
2026-02-12	14:38:25.970	-3.36	23.975	72.135	0.698572	-0.3111	-0.009516	0.0285	0.837	0.03	0	325	189	3
2026-02-12	14:38:25.990	-6.125	25.095	74.165	0.673196	-0.415776	0.016592	0.0345	0.849	0.03	0	325	189	3
2026-02-12	14:38:26.010	6.825	23.625	76.895	0.630984	-0.456768	-0.032452	0.0435	0.8565	0.0285	0	329	200	3
2026-02-12	14:38:26.030	20.3	21.035	77.105	0.619516	-0.434076	-0.053436	0.036	0.867	0.033	0	329	200	3
2026-02-12	14:38:26.050	35.98	16.45	77.035	0.5917	-0.445544	-0.107848	0.0495	0.882	0.0165	0	329	200	3
2026-02-12	14:38:26.070	52.535	8.47	72.205	0.556076	-0.40138	-0.100528	0.0645	0.885	0.0135	0	329	200	3
2026-02-12	14:38:26.090	61.74	-0.175	64.085	0.540704	-0.340136	-0.056852	0.0675	0.8925	0.009	0	329	200	3
2026-02-12	14:38:26.110	56.595	-4.48	55.65	0.531676	-0.316468	-0.034404	0.0705	0.903	0	0	329	200	3
2026-02-12	14:38:26.130	41.79	-5.285	45.395	0.545584	-0.374052	0.006344	0.0705	0.9045	-0.003	0	329	200	3
2026-02-12	14:38:26.150	27.79	-4.48	38.22	0.526064	-0.465796	0.053436	0.0765	0.909	-0.0075	0	329	200	3
2026-02-12	14:38:26.170	20.16	-2.73	33.18	0.488	-0.535824	0.096624	0.084	0.9165	-0.0135	0	329	200	3
2026-02-12	14:38:26.190	14.735	-1.05	28.21	0.468968	-0.484584	0.149328	0.084	0.9225	-0.0135	0	329	200	3
2026-02-12	14:38:26.210	-8.75	2.275	21.91	0.500932	-0.513376	0.145424	0.0855	0.9255	-0.012	0	331	179	3
2026-02-12	14:38:26.230	-36.61	6.3	15.4	0.55144	-0.694912	0.060268	0.09	0.9255	-0.0105	0	331	179	3
2026-02-12	14:38:26.250	-50.33	7.7	9.73	0.58682	-0.873032	-0.027084	0.093	0.9315	-0.0075	0	331	179	3
2026-02-12	14:38:26.270	-48.335	5.915	4.795	0.644892	-0.977952	0.001952	0.096	0.942	-0.006	0	331	179	3
2026-02-12	14:38:26.290	-37.52	2.345	5.04	0.753716	-1.041636	0.074908	0.1005	0.924	0.0015	0	331	179	3
2026-02-12	14:38:26.310	-32.27	-1.19	9.415	0.870104	-1.051152	0.020008	0.1005	0.924	0.0015	0	331	179	3
2026-02-12	14:38:26.330	-30.975	-7.84	9.555	0.931104	-1.136796	-0.164456	0.099	0.9345	0.0045	0	331	179	3
2026-02-12	14:38:26.350	4.165	-18.095	-2.8	1.0858	-0.976732	-0.048556	0.0975	0.9465	0.012	0	331	179	3
2026-02-12	14:38:26.370	0.035	-15.89	-13.16	1.11874	-0.827892	0.027572	0.1005	0.9495	0.0135	0	331	179	3
2026-02-12	14:38:26.390	-24.605	-14.735	-15.295	1.089948	-0.975268	-0.110776	0.099	0.951	0.012	0	331	179	3
2026-02-12	14:38:26.410	-7.98	-19.25	-24.22	1.009428	-0.80886	-0.156648	0.09	0.9465	0.0135	0	334	140	3
2026-02-12	14:38:26.430	2.975	-27.755	-31.78	0.917684	-0.678564	-0.138836	0.087	0.9435	0.0165	0	334	140	3
2026-02-12	14:38:26.450	10.08	-34.93	-40.215	0.828624	-0.564372	-0.10248	0.087	0.945	0.018	0	334	140	3
2026-02-12	14:38:26.470	19.215	-40.81	-46.13	0.786168	-0.35746	-0.08052	0.0825	0.933	0.0195	0	334	140	3
2026-02-12	14:38:26.490	23.835	-45.255	-53.06	0.802516	-0.17568	-0.042456	0.0795	0.9315	0.027	0	334	140	3
2026-02-12	14:38:26.510	6.09	-46.165	-66.01	0.914512	-0.207156	-0.03904	0.0735	0.9165	0.0345	0	334	140	3
2026-02-12	14:38:26.530	-18.935	-41.545	-78.89	1.010892	-0.41236	-0.146156	0.0675	0.912	0.0315	0	334	140	3
2026-02-12	14:38:26.550	-22.295	-40.25	-83.125	1.065548	-0.628544	-0.3721	0.0525	0.9015	0.039	0	334	140	3
2026-02-12	14:38:26.570	-8.05	-42.385	-80.5	0.979416	-0.727364	-0.50752	0.0405	0.8865	0.048	0	334	140	3
2026-02-12	14:38:26.590	5.04	-43.82	-79.31	0.863272	-0.748348	-0.493612	0.036	0.8715	0.054	0	334	140	3
2026-02-12	14:38:26.610	13.72	-45.99	-74.55	0.757864	-0.583648	-0.336232	0.027	0.8565	0.0645	0	338	117	3
2026-02-12	14:38:26.630	16.905	-43.26	-71.295	0.68564	-0.428464	-0.190076	0.018	0.843	0.066	0	338	117	3
2026-02-12	14:38:26.650	18.585	-36.96	-70.945	0.637572	-0.319884	-0.110776	0.0165	0.8385	0.066	0	338	117	3
2026-02-12	14:38:26.670	19.25	-28.875	-71.855	0.581696	-0.28914	-0.088328	0.018	0.8265	0.0735	0	338	117	3
2026-02-12	14:38:26.690	22.225	-22.82	-71.89	0.565836	-0.279868	-0.091256	0.018	0.8175	0.0765	0	338	117	3
2026-02-12	14:38:26.710	25.13	-18.27	-70.455	0.61122	-0.311588	-0.113948	0.009	0.813	0.0735	0	338	117	3
2026-02-12	14:38:26.730	26.705	-13.265	-66.92	0.629032	-0.292312	-0.129808	0.0015	0.7905	0.0855	0	338	117	3
2026-02-12	14:38:26.750	26.46	-12.11	-59.29	0.664656	-0.217648	-0.128588	0	0.78	0.084	0	338	117	3
2026-02-12	14:38:26.770	16.38	-11.935	-51.765	0.72834	-0.170556	-0.116876	-0.006	0.7635	0.081	0	338	117	3
2026-02-12	14:38:26.790	4.235	-10.395	-46.515	0.847168	-0.1708	-0.1098	-0.006	0.7545	0.081	0	338	117	3
2026-02-12	14:38:26.810	-13.09	-4.025	-43.925	0.892064	-0.218624	-0.126392	-0.006	0.747	0.0825	0	341	121	3
2026-02-12	14:38:26.830	-29.96	3.255	-41.895	0.923784	-0.327936	-0.183732	-0.006	0.7395	0.081	0	341	121	3
2026-02-12	14:38:26.850	-36.54	9.065	-40.845	0.977464	-0.426268	-0.241804	-0.0045	0.735	0.0795	0	341	121	3
2026-02-12	14:38:26.870	-44.94	14.735	-39.34	1.033828	-0.589016	-0.335256	-0.003	0.7335	0.0795	0	341	121	3
2026-02-12	14:38:26.890	-42.875	19.775	-37.31	1.037488	-0.62952	-0.371856	-0.0075	0.72	0.0855	0	341	121	3
2026-02-12	14:38:26.910	-25.13	20.055	-35.07	1.072624	-0.571448	-0.358924	-0.003	0.723	0.081	0	341	121	3
2026-02-12	14:38:26.930	-9.66	21.14	-32.69	1.1346	-0.508496	-0.29768	-0.0075	0.7185	0.075	0	341	121	3
2026-02-12	14:38:26.950	-0.35	22.015	-33.075	1.241228	-0.355508	-0.303292	-0.012	0.7035	0.069	0	341	121	3
2026-02-12	14:38:26.970	-14.49	20.825	-28.56	1.361032	-0.474336	-0.392352	-0.0105	0.7005	0.0615	0	341	121	3
2026-02-12	14:38:26.990	-7.525	23.31	-24.255	1.503528	-0.564616	-0.34892	-0.0105	0.696	0.0585	0	341	121	3
2026-02-12	14:38:27.010	15.4	26.39	-23.24	1.610888	-0.401624	-0.257664	-0.009	0.69	0.0585	0	343	141	3
2026-02-12	14:38:27.030	18.165	26.985	-20.545	1.606496	-0.153964	-0.224236	-0.006	0.6825	0.0555	0	343	141	3
2026-02-12	14:38:27.050	15.75	26.005	-15.925	1.394948	0.014396	-0.235948	-0.003	0.678	0.0495	0	343	141	3
2026-02-12	14:38:27.070	10.85	20.93	-8.12	1.105808	0.19764	-0.120292	0	0.6765	0.0435	0	343	141	3
2026-02-12	14:38:27.090	-4.13	9.52	9.205	1.034316	0.214964	0.059536	-0.0075	0.675	0.0465	0	343	141	3
2026-02-12	14:38:27.110	-40.46	5.075	36.155	1.085068	0.008052	0.16104	0.003	0.681	0.0345	0	343	141	3
2026-02-12	14:38:27.130	-72.555	9.45	56.7	1.10532	-0.160064	0.08174	-0.0045	0.6855	0.0315	0	343	141	3
2026-02-12	14:38:27.150	-87.43	16.45	73.22	1.0858	-0.34648	0.002684	-0.0015	0.6915	0.03	0	343	141	3
2026-02-12	14:38:27.170	-98.035	20.825	97.37	1.009916	-0.412848	-0.09467199	0.003	0.711	0.0315	0	343	141	3
2026-02-12	14:38:27.190	-100.695	19.145	116.165	0.901336	-0.420412	-0.21838	0.0075	0.723	0.03	0	343	141	3
2026-02-12	14:38:27.210	-59.325	15.26	120.225	0.849608	-0.467992	-0.143472	0.0135	0.75	0.0225	0	347	158	3
2026-02-12	14:38:27.230	22.61	12.635	107.52	0.776408	-0.199348	-0.09028	0.018	0.7695	0.015	0	347	158	3
2026-02-12	14:38:27.250	83.51	12.6	87.955	0.700768	0.027084	-0.054168	0.0255	0.786	0.0135	0	347	158	3
2026-02-12	14:38:27.270	78.925	16.485	82.04	0.666852	0.025864	-0.027328	0.033	0.804	0.0075	0	347	158	3
2026-02-12	14:38:27.290	28	18.305	85.295	0.663436	-0.06344	-0.048068	0.036	0.81	0.0045	0	347	158	3
2026-02-12	14:38:27.310	-14.35	17.045	87.01	0.644892	-0.178852	-0.066856	0.039	0.804	0	0	347	158	3
2026-02-12	14:38:27.330	-30.065	15.785	87.57	0.677832	-0.302316	-0.056852	0.048	0.8295	-0.006	0	347	158	3
2026-02-12	14:38:27.350	-23.52	14.945	86.52	0.696376	-0.3782	-0.058316	0.0495	0.84	0.0015	0	347	158	3
2026-02-12	14:38:27.370	-4.305	15.015	82.705	0.693204	-0.41358	-0.049532	0.0465	0.8565	0	0	347	158	3
2026-02-12	14:38:27.390	21.35	15.26	72.73	0.645868	-0.432124	-0.044652	0.06	0.867	-0.003	0	347	158	3
2026-02-12	14:38:27.410	33.32	15.54	62.405	0.586332	-0.454328	-0.077348	0.0645	0.8745	-0.0105	0	351	153	2
2026-02-12	14:38:27.430	29.575	15.68	52.78	0.553392	-0.583892	-0.116388	0.0735	0.8865	-0.018	0	351	153	2
2026-02-12	14:38:27.450	39.06	12.075	44.24	0.527528	-0.642208	-0.096868	0.081	0.8895	-0.0165	0	351	153	2
2026-02-12	14:38:27.470	40.005	9.695	34.72	0.482144	-0.593652	0.016348	0.0825	0.894	-0.024	0	351	153	2
2026-02-12	14:38:27.490	10.465	9.905	27.895	0.431636	-0.578768	0.204472	0.09	0.903	-0.0285	0	351	153	2
2026-02-12	14:38:27.510	-31.465	13.125	22.015	0.43188	-0.743468	0.214476	0.0975	0.9075	-0.027	0	351	153	2
2026-02-12	14:38:27.530	-44.87	15.575	17.78	0.484096	-0.867176	0.109068	0.105	0.912	-0.027	0	351	153	2
2026-02-12	14:38:27.550	-42.84	15.26	13.93	0.571692	-0.94062	0.027084	0.0975	0.9135	-0.0225	0	351	153	2
2026-02-12	14:38:27.570	-46.13	10.5	15.19	0.691008	-1.071648	-0.02074	0.099	0.9105	-0.027	0	351	153	2
2026-02-12	14:38:27.590	-39.025	1.89	16.765	0.799588	-1.229028	-0.053436	0.1005	0.918	-0.0285	0	351	153	2
2026-02-12	14:38:27.610	14	-14.315	6.79	0.887428	-0.922564	-0.087352	0.1035	0.918	-0.021	0	356	128	3
2026-02-12	14:38:27.630	35.805	-21.595	-4.2	1.150704	-0.67222	0.128588	0.0975	0.9165	-0.024	0	356	128	3
2026-02-12	14:38:27.650	-1.19	-17.78	-8.015	1.16022	-0.745908	0.11346	0.0975	0.9135	-0.0255	0	356	128	3
2026-02-12	14:38:27.670	-8.96	-16.17	-16.73	1.14558	-0.761768	-0.068076	0.1005	0.9135	-0.0255	0	356	128	3
2026-02-12	14:38:27.690	1.82	-20.93	-23.975	1.065792	-0.751276	-0.255468	0.0975	0.9135	-0.024	0	356	128	3
2026-02-12	14:38:27.710	19.88	-28.805	-34.265	0.935008	-0.646356	-0.338672	0.0975	0.9105	-0.021	0	356	128	3
2026-02-12	14:38:27.730	41.475	-40.285	-45.045	0.848388	-0.43676	-0.252052	0.09	0.903	-0.0195	0	356	128	3
2026-02-12	14:38:27.750	40.11	-48.265	-56.77	0.877424	-0.27938	-0.119316	0.0855	0.903	-0.027	0	356	128	3
2026-02-12	14:38:27.770	24.92	-49.98	-67.095	0.932568	-0.246928	-0.044652	0.0885	0.8865	-0.018	0	356	128	3
2026-02-12	14:38:27.790	6.79	-47.775	-75.285	0.947208	-0.309636	-0.10004	0.069	0.873	-0.0195	0	356	128	3
2026-02-12	14:38:27.810	-1.715	-43.68	-86.345	0.930372	-0.464576	-0.283772	0.0675	0.8595	-0.015	0	362	105	3
2026-02-12	14:38:27.830	9.555	-44.94	-92.19	0.864248	-0.610976	-0.411872	0.0645	0.8505	-0.0075	0	362	105	3
2026-02-12	14:38:27.850	23.975	-49.7	-88.9	0.71492	-0.627568	-0.349408	0.054	0.8355	-0.0015	0	362	105	3
2026-02-12	14:38:27.870	39.235	-52.395	-79.835	0.628788	-0.5063	-0.223748	0.036	0.8115	0.006	0	362	105	3
2026-02-12	14:38:27.890	51.345	-51.24	-71.96	0.570228	-0.319884	-0.1281	0.0315	0.795	0.0135	0	362	105	3
2026-02-12	14:38:27.910	53.69	-47.285	-69.37	0.5246	-0.152744	-0.07442	0.0315	0.7785	0.018	0	362	105	3
2026-02-12	14:38:27.930	41.44	-42.735	-69.265	0.532164	-0.146888	-0.063684	0.03	0.7725	0.0165	0	362	105	3
2026-02-12	14:38:27.950	26.915	-37.205	-69.16	0.579744	-0.22082	-0.073444	0.0225	0.765	0.0315	0	362	105	3
2026-02-12	14:38:27.970	15.05	-33.565	-66.92	0.681004	-0.29036	-0.122	0.0225	0.7545	0.027	0	362	105	3
2026-02-12	14:38:27.990	5.075	-30.275	-61.11	0.770064	-0.3843	-0.202276	0.015	0.7395	0.0315	0	362	105	3
2026-02-12	14:38:28.010	3.395	-27.16	-53.515	0.837896	-0.43066	-0.270596	0.0165	0.7335	0.0375	0	367	106	3
2026-02-12	14:38:28.030	6.265	-24.815	-45.29	0.884744	-0.404552	-0.249124	0.012	0.732	0.0405	0	367	106	3
2026-02-12	14:38:28.050	3.99	-21.245	-31.36	0.917928	-0.34526	-0.217892	0.015	0.714	0.045	0	367	106	3
2026-02-12	14:38:28.070	2.17	-18.375	-25.445	0.925492	-0.323056	-0.201056	0.009	0.711	0.051	0	367	106	3
2026-02-12	14:38:28.090	-2.415	-14.07	-23.52	0.931836	-0.305732	-0.198616	0.0015	0.702	0.057	0	367	106	3
2026-02-12	14:38:28.110	-12.46	-8.435	-24.745	0.97112	-0.309148	-0.190808	0	0.696	0.0585	0	367	106	3
2026-02-12	14:38:28.130	-24.045	-0.21	-27.58	0.976488	-0.396744	-0.207888	0.0015	0.6975	0.063	0	367	106	3
2026-02-12	14:38:28.150	-22.12	7.105	-30.345	1.02236	-0.432612	-0.238876	0	0.6915	0.0585	0	367	106	3
2026-02-12	14:38:28.170	-18.27	15.61	-30.24	1.036756	-0.48678	-0.285724	0.0045	0.687	0.057	0	367	106	3
2026-02-12	14:38:28.190	-13.475	21.21	-28.28	1.0431	-0.437736	-0.318908	0.003	0.684	0.051	0	367	106	3
2026-02-12	14:38:28.210	-17.36	26.67	-30.1	1.135088	-0.426024	-0.299388	0.006	0.681	0.0495	0	367	125	3
2026-02-12	14:38:28.230	-23.17	32.62	-30.87	1.232688	-0.361364	-0.289628	0.003	0.6735	0.048	0	367	125	3
2026-02-12	14:38:28.250	-31.29	37.17	-32.935	1.400316	-0.443836	-0.36722	0.0105	0.672	0.045	0	367	125	3
2026-02-12	14:38:28.270	-21.595	38.745	-30.975	1.574044	-0.400404	-0.412116	0.015	0.657	0.0345	0	367	125	3
2026-02-12	14:38:28.290	-17.64	37.52	-23.975	1.610644	-0.259616	-0.291092	0.018	0.648	0.027	0	367	125	3
2026-02-12	14:38:28.310	-28.245	35.42	-10.36	1.508164	-0.10492	-0.164212	0.0195	0.642	0.0165	0	367	125	3
2026-02-12	14:38:28.330	-40.88	31.115	4.515	1.256844	-0.056608	-0.102968	0.0195	0.648	0.0105	0	367	125	3
2026-02-12	14:38:28.350	-48.405	23.485	20.545	1.087508	-0.045872	-0.012688	0.024	0.654	0.0105	0	367	125	3
2026-02-12	14:38:28.370	-58.03	17.395	39.235	1.043588	-0.113704	0.063928	0.0225	0.651	0.009	0	367	125	3
2026-02-12	14:38:28.390	-65.31	16.38	56.21	1.01748	-0.190564	0.03416	0.0315	0.6555	0.009	0	367	125	3
2026-02-12	14:38:28.410	-67.375	17.745	69.685	0.987468	-0.274744	-0.007564	0.0225	0.6705	0.0045	0	364	149	3
2026-02-12	14:38:28.430	-62.965	16.695	83.09	0.97722	-0.409188	-0.1037	0.0315	0.6885	0	0	364	149	3
2026-02-12	14:38:28.450	-52.15	17.15	93.905	0.939644	-0.399428	-0.162748	0.0345	0.693	-0.0045	0	364	149	3
2026-02-12	14:38:28.470	-39.655	17.99	96.845	0.867176	-0.362828	-0.183	0.039	0.7035	-0.0045	0	364	149	3
2026-02-12	14:38:28.490	-11.095	15.295	90.86	0.898164	-0.233996	-0.174216	0.0405	0.726	-0.0075	0	364	149	3
2026-02-12	14:38:28.510	8.645	13.58	81.585	0.906216	-0.153964	-0.101992	0.042	0.741	-0.012	0	364	149	3
2026-02-12	14:38:28.530	21.42	14.56	71.505	0.871324	-0.111752	0.003416	0.0435	0.759	-0.0105	0	364	149	3
2026-02-12	14:38:28.550	16.695	17.185	65.555	0.815936	-0.133468	0.049044	0.048	0.762	-0.0045	0	364	149	3
2026-02-12	14:38:28.570	3.115	20.02	63.49	0.755668	-0.119072	0.060024	0.0525	0.7635	-0.0075	0	364	149	3
2026-02-12	14:38:28.590	-18.9	19.74	63.805	0.706136	-0.16958	0.000244	0.0525	0.783	-0.015	0	364	149	3
2026-02-12	14:38:28.610	-29.995	15.19	63.91	0.660264	-0.305976	-0.081984	0.06	0.777	-0.015	0	359	154	3
2026-02-12	14:38:28.630	-25.13	7.315	66.185	0.636596	-0.391376	-0.1403	0.0675	0.792	-0.015	0	359	154	3
2026-02-12	14:38:28.650	-6.37	-1.645	70.28	0.616344	-0.451156	-0.177632	0.069	0.7995	-0.009	0	359	154	3
2026-02-12	14:38:28.670	27.93	-9.065	72.905	0.591212	-0.376004	-0.161528	0.0765	0.822	-0.0135	0	359	154	3
2026-02-12	14:38:28.690	52.71	-13.125	73.885	0.55266	-0.300608	-0.132736	0.078	0.8145	-0.009	0	359	154	3
2026-02-12	14:38:28.710	58.205	-9.205	69.65	0.604144	-0.325496	-0.074664	0.081	0.8355	-0.0075	0	359	154	3
2026-02-12	14:38:28.730	46.41	-0.245	64.575	0.635864	-0.43188	-0.0427	0.087	0.837	-0.015	0	359	154	3
2026-02-12	14:38:28.750	28.14	10.325	57.435	0.658068	-0.52094	0.019276	0.0975	0.8415	-0.018	0	359	154	3
2026-02-12	14:38:28.770	1.925	20.895	47.705	0.66368	-0.573644	0.035624	0.102	0.8445	-0.012	0	359	154	3
2026-02-12	14:38:28.790	-30.905	31.465	35.56	0.641476	-0.667096	0.02562	0.0915	0.8505	-0.021	0	359	154	3
2026-02-12	14:38:28.810	-57.435	37.135	26.67	0.597556	-0.812276	0.00854	0.0945	0.858	-0.024	0	354	141	3
2026-02-12	14:38:28.830	-64.505	37.695	23.065	0.518744	-0.886208	0.002928	0.099	0.8565	-0.024	0	354	141	3
2026-02-12	14:38:28.850	-68.495	31.15	24.465	0.48922	-0.9272	-0.00854	0.105	0.8715	-0.0195	0	354	141	3
2026-02-12	14:38:28.870	-68.845	20.475	30.73	0.516548	-1.090192	-0.0244	0.1125	0.885	-0.0255	0	354	141	3
2026-02-12	14:38:28.890	-42.35	8.505	36.925	0.60268	-1.20658	-0.012444	0.1185	0.882	-0.0285	0	354	141	3
2026-02-12	14:38:28.910	7.14	-1.435	35.875	0.707844	-1.040904	0.017568	0.123	0.8895	-0.0225	0	354	141	3
2026-02-12	14:38:28.930	31.325	-10.71	9.345	0.8479	-0.477508	0.090524	0.12	0.8955	-0.024	0	354	141	3
2026-02-12	14:38:28.950	-39.795	-4.515	-3.71	1.039928	-0.758596	0.059292	0.114	0.8955	-0.0225	0	354	141	3
2026-02-12	14:38:28.970	-70.77	2.52	-6.615	1.055788	-0.97844	-0.096136	0.117	0.8925	-0.0195	0	354	141	3
2026-02-12	14:38:28.990	-55.545	-1.68	-13.195	1.011136	-0.940376	-0.248148	0.1245	0.891	-0.0165	0	354	141	3
2026-02-12	14:38:29.010	-25.655	-7.245	-19.32	0.927688	-0.884012	-0.241072	0.1185	0.897	-0.015	0	350	118	3
2026-02-12	14:38:29.030	-1.855	-13.965	-22.96	0.85156	-0.72712	-0.186172	0.1155	0.8925	-0.009	0	350	118	3
2026-02-12	14:38:29.050	8.225	-18.305	-28.7	0.811056	-0.514596	-0.146644	0.114	0.888	-0.0075	0	350	118	3
2026-02-12	14:38:29.070	4.795	-18.48	-37.065	0.83448	-0.435052	-0.1403	0.105	0.891	-0.006	0	350	118	3
2026-02-12	14:38:29.090	-0.21	-17.43	-45.08	0.856684	-0.431148	-0.160064	0.099	0.8835	-0.0045	0	350	118	3
2026-02-12	14:38:29.110	-3.395	-16.94	-51.87	0.924028	-0.479216	-0.201544	0.0975	0.873	0.0015	0	350	118	3
2026-02-12	14:38:29.130	-2.8	-15.225	-57.085	0.967948	-0.554612	-0.266448	0.1035	0.8595	0.009	0	350	118	3
2026-02-12	14:38:29.150	3.115	-13.02	-58.03	0.867664	-0.488732	-0.337208	0.0915	0.8625	0.0015	0	350	118	3
2026-02-12	14:38:29.170	-0.875	-12.74	-57.435	0.785192	-0.414068	-0.315248	0.0855	0.849	0	0	350	118	3
2026-02-12	14:38:29.190	-4.55	-12.635	-59.15	0.698084	-0.368196	-0.22692	0.081	0.8355	0	0	350	118	3
2026-02-12	14:38:29.210	-5.635	-7.245	-63.7	0.710284	-0.440664	0.013176	0.0825	0.84	0.009	0	349	109	3
2026-02-12	14:38:29.230	4.445	7.84	-64.225	0.551684	-0.455548	0.014884	0.0825	0.8235	0.0045	0	349	109	3
2026-02-12	14:38:29.250	14.28	9.87	-59.815	0.583404	-0.373076	-0.146888	0.0735	0.8085	0.009	0	349	109	3
2026-02-12	14:38:29.270	15.89	8.225	-58.87	0.56608	-0.256932	-0.1891	0.0735	0.804	0.006	0	349	109	3
2026-02-12	14:38:29.290	3.955	3.08	-56.35	0.579012	-0.2074	-0.158356	0.057	0.7995	0.006	0	349	109	3
2026-02-12	14:38:29.310	-19.845	-2.345	-51.31	0.637572	-0.259372	-0.149816	0.0735	0.7815	0.003	0	349	109	3
2026-02-12	14:38:29.330	-44.52	-5.075	-43.26	0.705648	-0.386252	-0.159332	0.072	0.771	0.0015	0	349	109	3
2026-02-12	14:38:29.350	-48.685	-6.825	-34.23	0.74298	-0.532652	-0.17934	0.06	0.768	0.0075	0	349	109	3
2026-02-12	14:38:29.370	-26.635	-10.675	-19.04	0.735904	-0.61366	-0.23424	0.0615	0.7665	0.0075	0	349	109	3
2026-02-12	14:38:29.390	-13.615	-13.755	-8.82	0.773236	-0.610244	-0.25132	0.06	0.765	0.009	0	349	109	3
2026-02-12	14:38:29.410	-5.215	-14.63	-1.33	0.837896	-0.536556	-0.201788	0.06	0.7635	0.0105	0	345	116	2
2026-02-12	14:38:29.430	-6.615	-11.865	3.29	0.863028	-0.505568	-0.143716	0.0555	0.7695	0.0195	0	345	116	2
2026-02-12	14:38:29.450	-11.935	-6.755	5.635	0.871568	-0.494588	-0.11102	0.051	0.7635	0.0225	0	345	116	2
2026-02-12	14:38:29.470	-18.9	0.665	6.475	0.877912	-0.496052	-0.078568	0.0555	0.7575	0.0195	0	345	116	2
2026-02-12	14:38:29.490	-22.89	9.205	5.635	0.842044	-0.497516	-0.0793	0.057	0.7695	0.024	0	345	116	2
2026-02-12	14:38:29.510	-26.285	16.59	3.815	0.834236	-0.526064	-0.116144	0.0495	0.7665	0.024	0	345	116	2
2026-02-12	14:38:29.530	-29.75	21.7	2.73	0.860832	-0.584868	-0.149572	0.051	0.762	0.0255	0	345	116	2
2026-02-12	14:38:29.550	-27.16	26.32	2.8	0.884256	-0.5551	-0.124684	0.0585	0.777	0.0165	0	345	116	2
2026-02-12	14:38:29.570	-22.855	30.31	2.38	0.893772	-0.47092	-0.143716	0.0585	0.768	0.0135	0	345	116	2
2026-02-12	14:38:29.590	-24.29	32.235	-0.735	0.95648	-0.394304	-0.25986	0.06	0.765	0.0135	0	345	116	2
2026-02-12	14:38:29.610	-29.26	33.635	-4.9	0.973804	-0.339404	-0.254492	0.06	0.765	0.0135	0	337	128	2
2026-02-12	14:38:29.630	-33.6	35.175	-9.625	0.936716	-0.3233	-0.179828	0.0585	0.762	0.003	0	337	128	2
2026-02-12	14:38:29.650	-45.395	38.15	-12.075	0.973804	-0.335012	-0.091012	0.0585	0.7695	0	0	337	128	2
2026-02-12	14:38:29.670	-72.8	44.1	-8.4	1.045784	-0.476044	-0.127612	0.0615	0.7695	0	0	337	128	2
2026-02-12	14:38:29.690	-85.295	50.82	-0.63	1.08946	-0.55388	-0.194468	0.0585	0.771	-0.0045	0	337	128	2
2026-02-12	14:38:29.710	-84	55.615	4.935	1.10044	-0.580232	-0.260104	0.0615	0.7725	-0.012	0	337	128	2
2026-02-12	14:38:29.730	-67.375	57.015	6.37	1.091656	-0.593164	-0.326716	0.0615	0.774	-0.0195	0	337	128	2
2026-02-12	14:38:29.750	-41.86	52.08	8.54	1.131672	-0.609512	-0.324032	0.0705	0.78	-0.018	0	337	128	2
2026-02-12	14:38:29.770	-34.895	46.06	16.835	1.07726	-0.574864	-0.260836	0.069	0.777	-0.024	0	337	128	2
2026-02-12	14:38:29.790	-27.405	42.28	22.715	0.944036	-0.421144	-0.133712	0.0735	0.7785	-0.021	0	337	128	2
2026-02-12	14:38:29.810	-11.445	36.26	31.465	0.997228	-0.209108	0.10004	0.081	0.789	-0.0345	0	325	140	3
2026-02-12	14:38:29.830	-19.39	37.73	39.935	1.108736	-0.044164	0.167384	0.0765	0.7935	-0.0375	0	325	140	3
2026-02-12	14:38:29.850	-51.45	45.85	38.78	1.074332	0.058072	0.134932	0.087	0.798	-0.033	0	325	140	3
2026-02-12	14:38:29.870	-83.755	51.275	36.12	1.089216	-0.010736	-0.008296	0.0885	0.8025	-0.0315	0	325	140	3
2026-02-12	14:38:29.890	-122.85	56.175	33.005	1.107516	-0.156892	-0.131516	0.0915	0.81	-0.042	0	325	140	3
2026-02-12	14:38:29.910	-150.22	57.785	36.225	1.050908	-0.443592	-0.24766	0.0945	0.825	-0.048	0	325	140	3
2026-02-12	14:38:29.930	-146.265	54.88	43.82	0.942328	-0.648308	-0.303536	0.1065	0.8295	-0.0405	0	325	140	3
2026-02-12	14:38:29.950	-114.8	49.77	53.725	0.838628	-0.788852	-0.31842	0.1125	0.846	-0.039	0	325	140	3
2026-02-12	14:38:29.970	-68.705	43.4	62.335	0.701988	-0.703696	-0.227896	0.12	0.858	-0.0375	0	325	140	3
2026-02-12	14:38:29.990	-30.8	40.81	63.875	0.613172	-0.520696	-0.095404	0.123	0.879	-0.042	0	325	140	3
2026-02-12	14:38:30.010	-17.535	43.995	57.89	0.549244	-0.36722	0.0061	0.123	0.879	-0.042	0	315	143	3
2026-02-12	14:38:30.030	-29.82	47.075	47.81	0.549732	-0.350628	0.03782	0.123	0.879	-0.042	0	315	143	3
2026-02-12	14:38:30.050	-41.125	48.475	39.865	0.560956	-0.380152	-0.008052	0.153	0.8925	-0.0555	0	315	143	3
2026-02-12	14:38:30.070	-50.68	48.545	31.885	0.54412	-0.415044	-0.06954	0.153	0.909	-0.054	0	315	143	3
2026-02-12	14:38:30.090	-55.755	45.22	24.36	0.542168	-0.46604	-0.07564	0.156	0.9105	-0.051	0	315	143	3
2026-02-12	14:38:30.110	-56.945	39.62	17.29	0.559736	-0.509228	-0.029524	0.1605	0.918	-0.0555	0	315	143	3
2026-02-12	14:38:30.130	-54.215	34.125	11.095	0.565104	-0.56974	0.001952	0.1695	0.915	-0.048	0	315	143	3
2026-02-12	14:38:30.150	-50.47	28.56	6.265	0.5734	-0.603168	0.062464	0.1695	0.9345	-0.0525	0	315	143	3
2026-02-12	14:38:30.170	-53.725	23.1	3.71	0.610244	-0.66734	0.098088	0.1815	0.9315	-0.0465	0	315	143	3
2026-02-12	14:38:30.190	-54.775	17.115	2.205	0.669048	-0.723216	0.093208	0.1635	0.9345	-0.0465	0	315	143	3
2026-02-12	14:38:30.210	-54.005	11.095	0.945	0.707844	-0.700524	0.042212	0.1785	0.933	-0.039	0	308	133	3
2026-02-12	14:38:30.230	-61.67	5.95	-0.105	0.754448	-0.768356	-0.01708	0.1725	0.933	-0.0375	0	308	133	3
2026-02-12	14:38:30.250	-70.21	-2.065	2.52	0.83082	-0.922564	-0.10248	0.18	0.9315	-0.0345	0	308	133	3
2026-02-12	14:38:30.270	-60.48	-5.46	6.615	0.900116	-1.032364	-0.058072	0.177	0.942	-0.0345	0	308	133	3
2026-02-12	14:38:30.290	-48.09	-5.11	14.84	0.917196	-1.092632	-0.0061	0.1695	0.951	-0.0165	0	308	133	3
2026-02-12	14:38:30.310	-33.215	-4.69	26.985	0.933544	-1.1285	-0.01098	0.1665	0.951	-0.006	0	308	133	3
2026-02-12	14:38:30.330	-13.125	-3.08	38.64	0.974048	-1.088972	-0.05002	0.174	0.9525	-0.0045	0	308	133	3
2026-02-12	14:38:30.350	-1.995	-0.245	48.44	1.046516	-1.023824	-0.080276	0.174	0.9525	-0.006	0	308	133	3
2026-02-12	14:38:30.370	5.25	1.785	55.685	1.09922	-0.92842	-0.088084	0.1815	0.9615	-0.006	0	308	133	3
2026-02-12	14:38:30.390	25.55	2.415	57.435	1.066036	-0.618784	-0.09394	0.1815	0.9615	-0.0045	0	308	133	3
2026-02-12	14:38:30.410	51.31	5.88	49.385	0.940132	-0.210572	-0.040016	0.1845	0.9735	-0.0015	0	306	111	3
2026-02-12	14:38:30.430	46.305	8.47	36.715	0.857416	-0.004148	-0.047092	0.186	0.966	-0.012	0	306	111	3
2026-02-12	14:38:30.450	15.26	5.985	22.61	0.91988	0.026108	0.016836	0.204	0.9675	-0.0135	0	306	111	3
2026-02-12	14:38:30.470	-26.81	11.515	-5.425	0.92354	-0.152988	0.042212	0.207	0.9705	-0.0165	0	306	111	3
2026-02-12	14:38:30.490	-47.74	18.165	-16.555	0.9272	-0.46116	-0.134932	0.198	0.9795	-0.0165	0	306	111	3
2026-02-12	14:38:30.510	-41.755	16.52	-19.67	0.926956	-0.515328	-0.317688	0.207	0.963	-0.009	0	306	111	3
2026-02-12	14:38:30.530	-24.15	8.33	-23.485	0.922808	-0.416996	-0.372588	0.189	0.9675	-0.003	0	306	111	3
2026-02-12	14:38:30.550	-27.335	2.66	-26.46	0.923784	-0.384056	-0.277428	0.1965	0.9705	-0.009	0	306	111	3
2026-02-12	14:38:30.570	-43.015	4.2	-24.815	0.900848	-0.40382	-0.144692	0.192	0.957	-0.006	0	306	111	3
2026-02-12	14:38:30.590	-58.17	10.22	-22.575	0.93086	-0.425292	-0.053436	0.1875	0.9795	0.003	0	306	111	3
2026-02-12	14:38:30.610	-67.48	21.245	-22.855	0.899872	-0.32696	-0.062952	0.183	0.9615	0.003	0	309	98	3
2026-02-12	14:38:30.630	-74.445	29.155	-29.33	0.87718	-0.260592	-0.17568	0.186	0.9615	0.009	0	309	98	3
2026-02-12	14:38:30.650	-82.81	30.135	-38.115	0.846192	-0.217404	-0.262544	0.1785	0.969	0.009	0	309	98	3
2026-02-12	14:38:30.670	-104.16	28.105	-41.195	0.857904	-0.391132	-0.290116	0.1785	0.9645	0.0195	0	309	98	3
2026-02-12	14:38:30.690	-138.495	29.26	-32.095	0.81984	-0.714676	-0.242292	0.1815	0.96	0.0255	0	309	98	3
2026-02-12	14:38:30.710	-138.005	32.375	-24.71	0.751764	-0.832772	-0.274256	0.171	0.966	0.036	0	309	98	3
2026-02-12	14:38:30.730	-112	33.11	-17.08	0.68442	-0.82106	-0.300852	0.1605	0.96	0.0405	0	309	98	3
2026-02-12	14:38:30.750	-82.495	32.655	-10.255	0.636352	-0.7869	-0.274256	0.1695	0.963	0.0495	0	309	98	3
2026-02-12	14:38:30.770	-62.37	31.85	-3.115	0.638548	-0.741516	-0.219356	0.168	0.972	0.054	0	309	98	3
2026-02-12	14:38:30.790	-52.5	33.215	0.77	0.635864	-0.681492	-0.173728	0.168	0.972	0.066	0	309	98	3
2026-02-12	14:38:30.810	-45.01	33.32	3.5	0.683444	-0.64294	-0.169824	0.177	0.975	0.0615	0	312	108	3
2026-02-12	14:38:30.830	-38.43	32.235	5.285	0.736392	-0.582184	-0.16958	0.1695	0.9765	0.0645	0	312	108	3
2026-02-12	14:38:30.850	-35.595	30.59	6.16	0.77836	-0.535336	-0.160552	0.1725	0.975	0.06	0	312	108	3
2026-02-12	14:38:30.870	-33.425	30.1	5.6	0.866688	-0.489708	-0.158112	0.174	0.9765	0.0615	0	312	108	3
2026-02-12	14:38:30.890	-38.29	33.215	3.745	0.898408	-0.480924	-0.202032	0.174	0.9765	0.0555	0	312	108	3
2026-02-12	14:38:30.910	-49.595	38.22	0.84	0.847656	-0.5612	-0.289384	0.18	0.972	0.0585	0	312	108	3
2026-02-12	14:38:30.930	-53.06	40.635	-1.75	0.777872	-0.524112	-0.290604	0.18	0.975	0.063	0	312	108	3
2026-02-12	14:38:30.950	-57.995	42.56	-4.585	0.75274	-0.500932	-0.264252	0.1665	0.969	0.0675	0	312	108	3
2026-02-12	14:38:30.970	-62.265	45.01	-7.385	0.821548	-0.480192	-0.1952	0.168	0.9765	0.063	0	312	108	3
2026-02-12	14:38:30.990	-65.52	49.63	-8.12	0.945744	-0.49166	-0.10614	0.177	0.981	0.0705	0	312	108	3
2026-02-12	14:38:31.010	-73.465	55.86	-5.425	1.109468	-0.50996	-0.124684	0.1725	0.9705	0.069	0	312	132	3
2026-02-12	14:38:31.030	-76.51	63.7	-0.525	1.17608	-0.574864	-0.257176	0.174	0.981	0.072	0	312	132	3
2026-02-12	14:38:31.050	-70.805	69.125	2.765	1.21146	-0.60756	-0.347456	0.174	0.9735	0.072	0	312	132	3
2026-02-12	14:38:31.070	-64.995	68.18	7.91	1.197552	-0.564128	-0.333304	0.1785	0.978	0.069	0	312	132	3
2026-02-12	14:38:31.090	-61.705	61.81	13.3	1.128256	-0.420168	-0.274988	0.18	0.969	0.075	0	312	132	3
2026-02-12	14:38:31.110	-55.965	50.575	20.265	0.9821	-0.233508	-0.038552	0.18	0.9885	0.081	0	312	132	3
2026-02-12	14:38:31.130	-60.62	46.935	29.26	1.03578	-0.172996	0.172752	0.1845	0.981	0.066	0	312	132	3
2026-02-12	14:38:31.150	-67.13	51.345	38.08	1.056032	-0.207156	0.208864	0.1905	0.9855	0.078	0	312	132	3
2026-02-12	14:38:31.170	-62.93	58.66	41.825	1.09556	-0.10004	0.2257	0.2055	0.9825	0.072	0	312	132	3
2026-02-12	14:38:31.190	-80.395	69.125	38.185	1.126548	-0.070516	0.137372	0.2025	0.99	0.084	0	312	132	3
2026-02-12	14:38:31.210	-113.995	76.965	33.25	1.103124	-0.297924	-0.077592	0.204	0.9915	0.09	0	310	147	3
2026-02-12	14:38:31.230	-125.3	76.65	34.23	1.00894	-0.493856	-0.230824	0.21	0.9975	0.0855	0	310	147	3
2026-02-12	14:38:31.250	-108.01	70.35	40.67	0.911584	-0.594384	-0.2867	0.2205	1.0065	0.087	0	310	147	3
2026-02-12	14:38:31.270	-86.45	63	46.69	0.803736	-0.60146	-0.22936	0.234	1.0125	0.0975	0	310	147	3
2026-02-12	14:38:31.290	-63.56	57.33	49.175	0.7198	-0.537776	-0.117608	0.234	1.0125	0.0975	0	310	147	3
2026-02-12	14:38:31.310	-55.195	56.455	49.28	0.661972	-0.44164	-0.049532	0.2415	1.017	0.1005	0	310	147	3
2026-02-12	14:38:31.330	-58.485	57.435	46.935	0.621712	-0.431636	-0.036112	0.2505	1.0215	0.105	0	310	147	3
2026-02-12	14:38:31.350	-58.52	58.415	41.65	0.568276	-0.442128	-0.045872	0.2535	1.032	0.111	0	310	147	3
2026-02-12	14:38:31.370	-55.545	57.715	35.63	0.528016	-0.489464	-0.074908	0.258	1.041	0.12	0	310	147	3
2026-02-12	14:38:31.390	-50.47	54.705	29.26	0.515572	-0.510936	-0.078324	0.2685	1.0365	0.117	0	310	147	3
2026-02-12	14:38:31.410	-48.65	50.89	22.75	0.515084	-0.53924	-0.03904	0.2715	1.0335	0.1065	0	307	142	3
2026-02-12	14:38:31.430	-47.845	47.355	17.78	0.523136	-0.560468	0.016836	0.2715	1.0365	0.1215	0	307	142	3
2026-02-12	14:38:31.450	-52.92	45.115	12.18	0.544608	-0.553392	0.080276	0.2715	1.0425	0.123	0	307	142	3
2026-02-12	14:38:31.470	-73.22	44.415	7.84	0.645868	-0.6344	0.103944	0.2715	1.0425	0.123	0	307	142	3
2026-02-12	14:38:31.490	-82.425	44.03	7.455	0.726388	-0.77226	0.091988	0.27	1.044	0.132	0	307	142	3
2026-02-12	14:38:31.510	-85.295	42.28	9.555	0.754448	-0.812276	0.041236	0.276	1.047	0.1365	0	307	142	3
