yyyy-MM-dd	HH:mm:ss.fff	gyrX	gyrY	gyrZ	accX	accY	accZ	magX	magY	magZ	Marker	Energy	Angle	Classification
2026-02-12	14:38:00.410	1.015	-14.105	2.38	1.00284	0.12566	-0.047336	-0.261	0.012	0.2385	0	384	42	2
2026-02-12	14:38:00.430	1.82	-15.365	2.45	0.998204	0.12322	-0.054656	-0.2685	0.0135	0.246	0	384	42	2
2026-02-12	14:38:00.450	1.26	-17.325	2.135	1.003084	0.131516	-0.040504	-0.2685	0.012	0.2475	0	384	42	2
2026-02-12	14:38:00.470	-1.085	-20.195	2.03	1.000644	0.132004	-0.05368	-0.2745	0.0105	0.252	0	384	42	2
2026-02-12	14:38:00.490	-2.52	-22.295	1.855	0.998204	0.128588	-0.077104	-0.273	0.015	0.252	0	384	42	2
2026-02-12	14:38:00.510	-1.645	-24.115	1.645	0.998204	0.126148	-0.073444	-0.267	0.0195	0.255	0	384	42	2
2026-02-12	14:38:00.530	-1.365	-26.46	1.75	0.99552	0.126392	-0.067588	-0.2775	0.0165	0.2595	0	384	42	2
2026-02-12	14:38:00.550	-2.59	-31.22	1.085	0.999668	0.131272	-0.083692	-0.282	0.018	0.2595	0	384	42	2
2026-02-12	14:38:00.570	-6.895	-36.19	1.61	0.995276	0.124684	-0.09467199	-0.2775	0.0165	0.27	0	384	42	2
2026-02-12	14:38:00.590	-14.35	-40.95	2.73	0.998448	0.130296	-0.081252	-0.276	0.018	0.2775	0	384	42	2
2026-02-12	14:38:00.610	-23.625	-47.145	5.53	0.994788	0.15494	-0.098332	-0.2775	0.018	0.282	0	332	40	2
2026-02-12	14:38:00.630	-28.455	-50.33	7.98	0.99674	0.138348	-0.151768	-0.276	0.018	0.288	0	332	40	2
2026-02-12	14:38:00.650	-23.555	-50.855	9.485	0.993812	0.127368	-0.163236	-0.282	0.024	0.291	0	332	40	2
2026-02-12	14:38:00.670	-18.48	-52.15	11.795	0.998204	0.136884	-0.143716	-0.2865	0.0255	0.303	0	332	40	2
2026-02-12	14:38:00.690	-24.01	-56.175	15.61	0.992592	0.15372	-0.154696	-0.2865	0.0255	0.312	0	332	40	2
2026-02-12	14:38:00.710	-35.98	-61.285	18.06	0.989908	0.150792	-0.167384	-0.294	0.0285	0.324	0	332	40	2
2026-02-12	14:38:00.730	-36.435	-64.925	16.345	1.00528	0.123708	-0.183	-0.2955	0.036	0.333	0	332	40	2
2026-02-12	14:38:00.750	-31.29	-68.285	14.35	1.029436	0.091744	-0.150548	-0.291	0.039	0.342	0	332	40	2
2026-02-12	14:38:00.770	-43.75	-72.205	16.03	1.05164	0.147132	-0.109068	-0.2925	0.042	0.354	0	332	40	2
2026-02-12	14:38:00.790	-72.975	-73.71	15.89	1.053348	0.185928	-0.13786	-0.2985	0.0435	0.363	0	332	40	2
2026-02-12	14:38:00.810	-111.265	-80.325	15.225	1.051396	0.16226	-0.315248	-0.3	0.042	0.3705	0	288	50	2
2026-02-12	14:38:00.830	-158.34	-88.165	17.08	1.19072	0.0976	0.040748	-0.3	0.042	0.3705	0	288	50	2
2026-02-12	14:38:00.850	-224.07	-75.6	29.05	1.265628	0.17202	0.288408	-0.297	0.051	0.384	0	288	50	2
2026-02-12	14:38:00.870	-303.24	-54.985	38.115	1.2932	0.385764	0.5002	-0.2955	0.066	0.4035	0	288	50	2
2026-02-12	14:38:00.890	-341.18	-28.98	31.99	1.263188	0.498492	0.417484	-0.2955	0.0705	0.4095	0	288	50	2
2026-02-12	14:38:00.910	-291.725	-2.905	10.185	1.18462	0.48678	0.0671	-0.291	0.0735	0.4095	0	288	50	2
2026-02-12	14:38:00.930	-218.19	7.105	-8.085	1.08824	0.31354	-0.340136	-0.2835	0.0705	0.405	0	288	50	2
2026-02-12	14:38:00.950	-107.345	5.6	-8.225	1.138504	0.025132	-0.222528	-0.285	0.0675	0.402	0	288	50	2
2026-02-12	14:38:00.970	0.49	13.405	-4.795	1.150216	0.35258	0.066856	-0.282	0.0705	0.4035	0	288	50	2
2026-02-12	14:38:00.990	53.865	32.795	-6.405	1.115324	0.305244	0.169824	-0.276	0.0705	0.4005	0	288	50	2
2026-02-12	14:38:01.010	76.895	56.77	-8.155	1.073112	0.284016	0.095404	-0.273	0.0675	0.393	0	256	51	3
2026-02-12	14:38:01.030	68.46	74.025	-5.635	1.078724	0.314516	-0.018788	-0.273	0.0645	0.387	0	256	51	3
2026-02-12	14:38:01.050	47.075	84.525	-6.755	1.053348	0.346236	-0.071492	-0.27	0.0585	0.381	0	256	51	3
2026-02-12	14:38:01.070	19.285	88.76	-9.59	1.02724	0.357948	-0.114192	-0.2655	0.0555	0.369	0	256	51	3
2026-02-12	14:38:01.090	6.545	89.88	-18.76	1.0187	0.296216	-0.160796	-0.2685	0.06	0.36	0	256	51	3
2026-02-12	14:38:01.110	16.485	90.545	-26.67	1.003816	0.287676	-0.169336	-0.2685	0.06	0.36	0	256	51	3
2026-02-12	14:38:01.130	16.87	90.16	-32.095	1.008452	0.340624	-0.138836	-0.267	0.0495	0.3285	0	256	51	3
2026-02-12	14:38:01.150	4.2	90.37	-35.42	1.03578	0.394548	-0.084424	-0.264	0.051	0.3105	0	256	51	3
2026-02-12	14:38:01.170	-13.615	92.015	-35.35	1.067744	0.380884	-0.031476	-0.273	0.0405	0.3015	0	256	51	3
2026-02-12	14:38:01.190	-18.62	95.34	-34.02	1.059204	0.348188	-0.003904	-0.2595	0.039	0.288	0	256	51	3
2026-02-12	14:38:01.210	-14.91	97.965	-32.585	1.046516	0.32208	0.006588	-0.249	0.036	0.2625	0	235	47	3
2026-02-12	14:38:01.230	-13.23	99.575	-29.015	1.026752	0.282552	-0.006588	-0.252	0.036	0.261	0	235	47	3
2026-02-12	14:38:01.250	-11.585	100.275	-24.605	0.96136	0.2501	-0.039528	-0.2445	0.027	0.2415	0	235	47	3
2026-02-12	14:38:01.270	-8.05	98.595	-21.21	0.890112	0.211548	-0.091988	-0.24	0.024	0.228	0	235	47	3
2026-02-12	14:38:01.290	-0.315	94.185	-19.18	0.82716	0.186172	-0.142008	-0.2385	0.012	0.213	0	235	47	3
2026-02-12	14:38:01.310	11.27	87.43	-18.55	0.79666	0.174948	-0.178608	-0.2295	0.018	0.198	0	235	47	3
2026-02-12	14:38:01.330	24.255	79.31	-18.865	0.794708	0.176656	-0.196664	-0.2235	0.009	0.18	0	235	47	3
2026-02-12	14:38:01.350	38.92	69.055	-19.005	0.822036	0.17934	-0.204228	-0.207	0.006	0.1695	0	235	47	3
2026-02-12	14:38:01.370	51.1	59.605	-17.78	0.841068	0.187636	-0.21228	-0.207	0.006	0.1695	0	235	47	3
2026-02-12	14:38:01.390	57.505	52.15	-15.33	0.857172	0.198128	-0.214232	-0.2055	-0.0045	0.156	0	235	47	3
2026-02-12	14:37:59.410	-7.21	26.845	3.08	1.032852	0.18666	-0.07442	-0.2865	0.033	0.282	0	708	88	2
2026-02-12	14:37:59.430	-6.055	30.905	4.025	1.01626	0.165188	-0.134932	-0.291	0.027	0.2865	0	708	88	2
2026-02-12	14:37:59.450	8.505	35.42	3.36	1.006012	0.122976	-0.14152	-0.279	0.036	0.276	0	708	88	2
2026-02-12	14:37:59.470	24.255	39.55	1.505	0.998692	0.117608	-0.123952	-0.285	0.036	0.2715	0	708	88	2
2026-02-12	14:37:59.490	42.875	44.17	-3.115	1.023092	0.0976	-0.064416	-0.285	0.036	0.2715	0	708	88	2
2026-02-12	14:37:59.510	53.655	42.49	-8.4	0.99308	0.117364	-0.021716	-0.279	0.0315	0.2625	0	708	88	2
2026-02-12	14:37:59.530	51.485	39.13	-4.48	1.002352	0.18178	0.019276	-0.2745	0.0255	0.2535	0	708	88	2
2026-02-12	14:37:59.550	43.26	32.34	-0.175	0.989176	0.199836	0.034892	-0.273	0.0225	0.246	0	708	88	2
2026-02-12	14:37:59.570	29.645	23.38	1.96	0.9943	0.172264	0.02806	-0.2685	0.0225	0.243	0	708	88	2
2026-02-12	14:37:59.590	21.14	16.485	1.995	1.0004	0.1586	0.010492	-0.264	0.0195	0.24	0	708	88	2
2026-02-12	14:37:59.610	13.055	11.235	2.1	0.996008	0.14152	-0.017568	-0.267	0.018	0.234	0	640	103	2
2026-02-12	14:37:59.630	8.365	9.38	0.98	1.007964	0.109556	-0.046116	-0.27	0.021	0.2325	0	640	103	2
2026-02-12	14:37:59.650	12.425	11.305	-0.875	1.004548	0.119316	-0.060756	-0.2745	0.0165	0.237	0	640	103	2
2026-02-12	14:37:59.670	13.16	12.215	-1.085	0.995276	0.16714	-0.060756	-0.27	0.0135	0.228	0	640	103	2
2026-02-12	14:37:59.690	9.905	14.665	-0.91	1.003816	0.1342	-0.073688	-0.267	0.024	0.231	0	640	103	2
2026-02-12	14:37:59.710	15.505	19.845	-1.4	1.003572	0.121512	-0.061488	-0.276	0.0135	0.2295	0	640	103	2
2026-02-12	14:37:59.730	24.85	22.05	-1.505	1.001864	0.128588	-0.003416	-0.264	0.0135	0.231	0	640	103	2
2026-02-12	14:37:59.750	25.27	18.025	-0.525	0.997472	0.182756	0.049044	-0.264	0.0105	0.225	0	640	103	2
2026-02-12	14:37:59.770	15.26	12.355	0.455	0.991616	0.177388	0.011712	-0.2655	0.0105	0.225	0	640	103	2
2026-02-12	14:37:59.790	8.645	9.765	-0.385	1.002596	0.131272	-0.011956	-0.2655	0.009	0.225	0	640	103	2
2026-02-12	14:37:59.810	12.705	8.715	-1.89	1.000644	0.1342	0.016836	-0.267	0.009	0.222	0	572	95	2
2026-02-12	14:37:59.830	15.715	6.16	-1.54	0.998692	0.1647	0.007564	-0.267	0.0105	0.2205	0	572	95	2
2026-02-12	14:37:59.850	12.845	3.36	-0.49	1.000644	0.1586	0.00854	-0.264	0.009	0.216	0	572	95	2
2026-02-12	14:37:59.870	6.335	0.91	0.56	1.000644	0.150792	0.019276	-0.2625	0.006	0.2145	0	572	95	2
2026-02-12	14:37:59.890	5.495	-1.4	0.455	1.00284	0.119316	0.014884	-0.2565	0.0075	0.222	0	572	95	2
2026-02-12	14:37:59.910	8.68	-1.19	-0.175	1.0065	0.129808	-0.004636	-0.2565	0.009	0.2205	0	572	95	2
2026-02-12	14:37:59.930	9.625	-0.875	-0.385	0.998204	0.147132	-0.005124	-0.258	0.006	0.2205	0	572	95	2
2026-02-12	14:37:59.950	9.38	-1.225	-0.56	1.003084	0.144692	0.015372	-0.2565	0.0045	0.222	0	572	95	2
2026-02-12	14:37:59.970	7.735	-2.38	-0.28	0.99796	0.169092	0.009516	-0.2595	0.0075	0.219	0	572	95	2
2026-02-12	14:37:59.990	4.48	-3.395	0.315	1.000888	0.15494	-0.018788	-0.2625	0.0015	0.2145	0	572	95	2
2026-02-12	14:38:00.010	2.8	-2.73	0.07	1.002108	0.140788	-0.002684	-0.264	-0.0045	0.213	0	505	75	2
2026-02-12	14:38:00.030	2.31	-3.43	-0.175	0.998692	0.141764	0.002684	-0.264	-0.0045	0.213	0	505	75	2
2026-02-12	14:38:00.050	0.105	-5.04	-0.14	1.004304	0.139324	0.004392	-0.27	0.0075	0.2175	0	505	75	2
2026-02-12	14:38:00.070	-1.96	-6.265	0.21	1.000644	0.144936	-0.006588	-0.264	0.0075	0.2265	0	505	75	2
2026-02-12	14:38:00.090	-2.625	-6.3	-0.035	1.006256	0.13664	-0.024156	-0.264	0.0015	0.228	0	505	75	2
2026-02-12	14:38:00.110	-0.665	-4.76	-0.035	1.005036	0.144204	-0.02318	-0.264	0.0015	0.2265	0	505	75	2
2026-02-12	14:38:00.130	-1.575	-4.2	0.525	1.004304	0.15982	-0.015616	-0.264	0	0.225	0	505	75	2
2026-02-12	14:38:00.150	-6.195	-4.9	0.98	0.998936	0.161772	-0.022936	-0.2685	0.0015	0.2265	0	505	75	2
2026-02-12	14:38:00.170	-11.935	-6.44	1.4	1.001132	0.150548	-0.016836	-0.2655	0.006	0.2265	0	505	75	2
2026-02-12	14:38:00.190	-13.79	-7.035	1.505	1.003816	0.13176	-0.00732	-0.2715	0.0105	0.225	0	505	75	2
2026-02-12	14:38:00.210	-10.01	-6.09	1.155	1.0065	0.123708	-0.02928	-0.2625	0.009	0.231	0	442	55	2
2026-02-12	14:38:00.230	-3.675	-4.235	1.295	1.003328	0.134688	-0.03172	-0.267	0.0105	0.222	0	442	55	2
2026-02-12	14:38:00.250	-2.485	-3.745	1.89	0.998204	0.15372	-0.031232	-0.264	0.009	0.225	0	442	55	2
2026-02-12	14:38:00.270	-6.79	-4.55	1.995	0.99918	0.138348	-0.029036	-0.264	0.009	0.2295	0	442	55	2
2026-02-12	14:38:00.290	-7.77	-6.02	1.54	0.999668	0.122732	-0.011956	-0.2685	0.012	0.2295	0	442	55	2
2026-02-12	14:38:00.310	-3.57	-7.98	1.47	1.00528	0.136152	-0.008296	-0.264	0.0135	0.2325	0	442	55	2
2026-02-12	14:38:00.330	0.91	-9.17	1.785	0.99918	0.150792	-0.033672	-0.2655	0.012	0.234	0	442	55	2
2026-02-12	14:38:00.350	1.47	-9.8	2.45	1.003328	0.132004	-0.042456	-0.2655	0.006	0.237	0	442	55	2
2026-02-12	14:38:00.370	0.455	-11.13	2.94	1.00162	0.14152	-0.017568	-0.2745	0.006	0.228	0	442	55	2
2026-02-12	14:38:00.390	-0.35	-13.265	2.765	1.001376	0.133956	-0.03294	-0.2715	0.0135	0.234	0	442	55	2
2026-02-12	14:38:00.410	1.015	-14.105	2.38	1.00284	0.12566	-0.047336	-0.261	0.012	0.2385	0	384	42	2
2026-02-12	14:38:00.430	1.82	-15.365	2.45	0.998204	0.12322	-0.054656	-0.2685	0.0135	0.246	0	384	42	2
2026-02-12	14:38:00.450	1.26	-17.325	2.135	1.003084	0.131516	-0.040504	-0.2685	0.012	0.2475	0	384	42	2
2026-02-12	14:38:00.470	-1.085	-20.195	2.03	1.000644	0.132004	-0.05368	-0.2745	0.0105	0.252	0	384	42	2
2026-02-12	14:38:00.490	-2.52	-22.295	1.855	0.998204	0.128588	-0.077104	-0.273	0.015	0.252	0	384	42	2
2026-02-12	14:38:00.510	-1.645	-24.115	1.645	0.998204	0.126148	-0.073444	-0.267	0.0195	0.255	0	384	42	2
2026-02-12	14:38:00.530	-1.365	-26.46	1.75	0.99552	0.126392	-0.067588	-0.2775	0.0165	0.2595	0	384	42	2
2026-02-12	14:38:00.550	-2.59	-31.22	1.085	0.999668	0.131272	-0.083692	-0.282	0.018	0.2595	0	384	42	2
2026-02-12	14:38:00.570	-6.895	-36.19	1.61	0.995276	0.124684	-0.09467199	-0.2775	0.0165	0.27	0	384	42	2
2026-02-12	14:38:00.590	-14.35	-40.95	2.73	0.998448	0.130296	-0.081252	-0.276	0.018	0.2775	0	384	42	2
2026-02-12	14:38:00.610	-23.625	-47.145	5.53	0.994788	0.15494	-0.098332	-0.2775	0.018	0.282	0	332	40	2
2026-02-12	14:38:00.630	-28.455	-50.33	7.98	0.99674	0.138348	-0.151768	-0.276	0.018	0.288	0	332	40	2
2026-02-12	14:38:00.650	-23.555	-50.855	9.485	0.993812	0.127368	-0.163236	-0.282	0.024	0.291	0	332	40	2
2026-02-12	14:38:00.670	-18.48	-52.15	11.795	0.998204	0.136884	-0.143716	-0.2865	0.0255	0.303	0	332	40	2
2026-02-12	14:38:00.690	-24.01	-56.175	15.61	0.992592	0.15372	-0.154696	-0.2865	0.0255	0.312	0	332	40	2
2026-02-12	14:38:00.710	-35.98	-61.285	18.06	0.989908	0.150792	-0.167384	-0.294	0.0285	0.324	0	332	40	2
2026-02-12	14:38:00.730	-36.435	-64.925	16.345	1.00528	0.123708	-0.183	-0.2955	0.036	0.333	0	332	40	2
2026-02-12	14:38:00.750	-31.29	-68.285	14.35	1.029436	0.091744	-0.150548	-0.291	0.039	0.342	0	332	40	2
2026-02-12	14:38:00.770	-43.75	-72.205	16.03	1.05164	0.147132	-0.109068	-0.2925	0.042	0.354	0	332	40	2
2026-02-12	14:38:00.790	-72.975	-73.71	15.89	1.053348	0.185928	-0.13786	-0.2985	0.0435	0.363	0	332	40	2
2026-02-12	14:38:00.810	-111.265	-80.325	15.225	1.051396	0.16226	-0.315248	-0.3	0.042	0.3705	0	288	50	2
2026-02-12	14:38:00.830	-158.34	-88.165	17.08	1.19072	0.0976	0.040748	-0.3	0.042	0.3705	0	288	50	2
2026-02-12	14:38:00.850	-224.07	-75.6	29.05	1.265628	0.17202	0.288408	-0.297	0.051	0.384	0	288	50	2
2026-02-12	14:38:00.870	-303.24	-54.985	38.115	1.2932	0.385764	0.5002	-0.2955	0.066	0.4035	0	288	50	2
2026-02-12	14:38:00.890	-341.18	-28.98	31.99	1.263188	0.498492	0.417484	-0.2955	0.0705	0.4095	0	288	50	2
2026-02-12	14:38:00.910	-291.725	-2.905	10.185	1.18462	0.48678	0.0671	-0.291	0.0735	0.4095	0	288	50	2
2026-02-12	14:38:00.930	-218.19	7.105	-8.085	1.08824	0.31354	-0.340136	-0.2835	0.0705	0.405	0	288	50	2
2026-02-12	14:38:00.950	-107.345	5.6	-8.225	1.138504	0.025132	-0.222528	-0.285	0.0675	0.402	0	288	50	2
2026-02-12	14:38:00.970	0.49	13.405	-4.795	1.150216	0.35258	0.066856	-0.282	0.0705	0.4035	0	288	50	2
2026-02-12	14:38:00.990	53.865	32.795	-6.405	1.115324	0.305244	0.169824	-0.276	0.0705	0.4005	0	288	50	2
2026-02-12	14:38:01.010	76.895	56.77	-8.155	1.073112	0.284016	0.095404	-0.273	0.0675	0.393	0	256	51	3
2026-02-12	14:38:01.030	68.46	74.025	-5.635	1.078724	0.314516	-0.018788	-0.273	0.0645	0.387	0	256	51	3
2026-02-12	14:38:01.050	47.075	84.525	-6.755	1.053348	0.346236	-0.071492	-0.27	0.0585	0.381	0	256	51	3
2026-02-12	14:38:01.070	19.285	88.76	-9.59	1.02724	0.357948	-0.114192	-0.2655	0.0555	0.369	0	256	51	3
2026-02-12	14:38:01.090	6.545	89.88	-18.76	1.0187	0.296216	-0.160796	-0.2685	0.06	0.36	0	256	51	3
2026-02-12	14:38:01.110	16.485	90.545	-26.67	1.003816	0.287676	-0.169336	-0.2685	0.06	0.36	0	256	51	3
2026-02-12	14:38:01.130	16.87	90.16	-32.095	1.008452	0.340624	-0.138836	-0.267	0.0495	0.3285	0	256	51	3
2026-02-12	14:38:01.150	4.2	90.37	-35.42	1.03578	0.394548	-0.084424	-0.264	0.051	0.3105	0	256	51	3
2026-02-12	14:38:01.170	-13.615	92.015	-35.35	1.067744	0.380884	-0.031476	-0.273	0.0405	0.3015	0	256	51	3
2026-02-12	14:38:01.190	-18.62	95.34	-34.02	1.059204	0.348188	-0.003904	-0.2595	0.039	0.288	0	256	51	3
2026-02-12	14:38:01.210	-14.91	97.965	-32.585	1.046516	0.32208	0.006588	-0.249	0.036	0.2625	0	235	47	3
2026-02-12	14:38:01.230	-13.23	99.575	-29.015	1.026752	0.282552	-0.006588	-0.252	0.036	0.261	0	235	47	3
2026-02-12	14:38:01.250	-11.585	100.275	-24.605	0.96136	0.2501	-0.039528	-0.2445	0.027	0.2415	0	235	47	3
2026-02-12	14:38:01.270	-8.05	98.595	-21.21	0.890112	0.211548	-0.091988	-0.24	0.024	0.228	0	235	47	3
2026-02-12	14:38:01.290	-0.315	94.185	-19.18	0.82716	0.186172	-0.142008	-0.2385	0.012	0.213	0	235	47	3
2026-02-12	14:38:01.310	11.27	87.43	-18.55	0.79666	0.174948	-0.178608	-0.2295	0.018	0.198	0	235	47	3
2026-02-12	14:38:01.330	24.255	79.31	-18.865	0.794708	0.176656	-0.196664	-0.2235	0.009	0.18	0	235	47	3
2026-02-12	14:38:01.350	38.92	69.055	-19.005	0.822036	0.17934	-0.204228	-0.207	0.006	0.1695	0	235	47	3
2026-02-12	14:38:01.370	51.1	59.605	-17.78	0.841068	0.187636	-0.21228	-0.207	0.006	0.1695	0	235	47	3
2026-02-12	14:38:01.390	57.505	52.15	-15.33	0.857172	0.198128	-0.214232	-0.2055	-0.0045	0.156	0	235	47	3
2026-02-12	14:37:59.410	-7.21	26.845	3.08	1.032852	0.18666	-0.07442	-0.2865	0.033	0.282	0	708	88	2
2026-02-12	14:37:59.430	-6.055	30.905	4.025	1.01626	0.165188	-0.134932	-0.291	0.027	0.2865	0	708	88	2
2026-02-12	14:37:59.450	8.505	35.42	3.36	1.006012	0.122976	-0.14152	-0.279	0.036	0.276	0	708	88	2
2026-02-12	14:37:59.470	24.255	39.55	1.505	0.998692	0.117608	-0.123952	-0.285	0.036	0.2715	0	708	88	2
2026-02-12	14:37:59.490	42.875	44.17	-3.115	1.023092	0.0976	-0.064416	-0.285	0.036	0.2715	0	708	88	2
2026-02-12	14:37:59.510	53.655	42.49	-8.4	0.99308	0.117364	-0.021716	-0.279	0.0315	0.2625	0	708	88	2
2026-02-12	14:37:59.530	51.485	39.13	-4.48	1.002352	0.18178	0.019276	-0.2745	0.0255	0.2535	0	708	88	2
2026-02-12	14:37:59.550	43.26	32.34	-0.175	0.989176	0.199836	0.034892	-0.273	0.0225	0.246	0	708	88	2
2026-02-12	14:37:59.570	29.645	23.38	1.96	0.9943	0.172264	0.02806	-0.2685	0.0225	0.243	0	708	88	2
2026-02-12	14:37:59.590	21.14	16.485	1.995	1.0004	0.1586	0.010492	-0.264	0.0195	0.24	0	708	88	2
2026-02-12	14:38:11.610	-72.415	2.1	-40.95	0.554368	0.62586	0.24034	-0.1575	-0.144	0.135	0	356	108	3
2026-02-12	14:38:11.630	-56.98	-4.27	-32.375	0.445056	0.473848	0.265716	-0.1515	-0.147	0.132	0	356	108	3
2026-02-12	14:38:11.650	-25.725	-6.23	-25.76	0.37332	0.392596	0.27572	-0.15	-0.1425	0.129	0	356	108	3
2026-02-12	14:38:11.670	-2.205	-7.07	-27.195	0.21838	0.430416	0.271572	-0.156	-0.144	0.1275	0	356	108	3
2026-02-12	14:38:11.690	-6.23	-12.565	-31.85	0.113704	0.36478	0.215208	-0.15	-0.1515	0.1245	0	356	108	3
2026-02-12	14:38:11.710	-10.22	-21.665	-32.48	0.048068	0.310124	0.128588	-0.1425	-0.153	0.1245	0	356	108	3
2026-02-12	14:38:11.730	-24.43	-32.13	-29.33	0.063684	0.2684	0.095648	-0.1455	-0.153	0.1245	0	356	108	3
2026-02-12	14:38:11.750	-40.81	-38.29	-21.525	0.177388	0.18788	0.069784	-0.1515	-0.1575	0.1335	0	356	108	3
2026-02-12	14:38:11.770	-43.645	-42.875	-7.56	0.465064	0.0976	0.070516	-0.1485	-0.159	0.129	0	356	108	3
2026-02-12	14:38:11.790	-7.105	-43.015	9.975	0.733952	0.107604	0.062708	-0.1575	-0.15	0.126	0	356	108	3
2026-02-12	14:38:11.810	89.88	-37.1	23.905	1.167784	0.465796	0.179584	-0.153	-0.153	0.1395	0	378	69	3
2026-02-12	14:38:11.830	179.165	-23.555	16.73	1.349076	0.915	-0.0549	-0.159	-0.1515	0.15	0	378	69	3
2026-02-12	14:38:11.850	121.205	-30.17	12.88	1.364448	0.765916	-0.329888	-0.165	-0.171	0.1635	0	378	69	3
2026-02-12	14:38:11.870	21.21	-48.685	27.405	1.343708	0.65514	-0.163236	-0.162	-0.1695	0.1725	0	378	69	3
2026-02-12	14:38:11.890	-3.255	-50.995	38.745	1.061156	0.681248	-0.00488	-0.1665	-0.1725	0.1905	0	378	69	3
2026-02-12	14:38:11.910	-4.76	-50.785	38.255	0.976	0.756644	0.002196	-0.1785	-0.1695	0.1965	0	378	69	3
2026-02-12	14:38:11.930	-15.12	-49.315	40.25	0.881084	0.70882	-0.063928	-0.183	-0.165	0.198	0	378	69	3
2026-02-12	14:38:11.950	-29.82	-50.47	46.095	0.766648	0.657092	-0.143472	-0.1845	-0.168	0.204	0	378	69	3
2026-02-12	14:38:11.970	-35.07	-53.655	48.545	0.765672	0.616588	-0.140056	-0.1875	-0.159	0.2085	0	378	69	3
2026-02-12	14:38:11.990	-23.275	-54.04	53.69	0.770308	0.5063	-0.051728	-0.192	-0.15	0.2145	0	378	69	3
2026-02-12	14:38:12.010	-8.575	-51.485	56.28	0.720288	0.44896	-0.071004	-0.192	-0.15	0.2145	0	394	35	3
2026-02-12	14:38:12.030	0.07	-49.7	59.465	0.69174	0.349164	-0.117852	-0.222	-0.1275	0.225	0	394	35	3
2026-02-12	14:38:12.050	12.635	-47.285	63.875	0.692228	0.333304	-0.142984	-0.2325	-0.1215	0.2325	0	394	35	3
2026-02-12	14:38:12.070	20.755	-44.625	67.48	0.669292	0.409676	-0.105164	-0.231	-0.108	0.2385	0	394	35	3
2026-02-12	14:38:12.090	14.385	-42.805	66.605	0.664656	0.43188	-0.080764	-0.234	-0.1035	0.2535	0	394	35	3
2026-02-12	14:38:12.110	7.14	-40.53	61.425	0.727364	0.393572	-0.07442	-0.243	-0.084	0.261	0	394	35	3
2026-02-12	14:38:12.130	7.07	-37.275	55.86	0.778848	0.334768	-0.06954	-0.2505	-0.0795	0.2625	0	394	35	3
2026-02-12	14:38:12.150	9.205	-33.88	50.645	0.812032	0.300852	-0.0427	-0.2535	-0.075	0.2745	0	394	35	3
2026-02-12	14:38:12.170	13.685	-29.61	45.36	0.861808	0.297924	-0.066856	-0.2535	-0.0675	0.273	0	394	35	3
2026-02-12	14:38:12.190	24.185	-23.695	40.495	0.913536	0.27572	-0.112972	-0.2625	-0.0615	0.2955	0	394	35	3
2026-02-12	14:38:12.210	43.015	-17.955	37.31	0.9638	0.327936	-0.207644	-0.2685	-0.051	0.2925	0	399	30	3
2026-02-12	14:38:12.230	59.465	-12.985	35.455	1.002596	0.485072	-0.24766	-0.2655	-0.039	0.2925	0	399	30	3
2026-02-12	14:38:12.250	52.15	-7.49	29.995	0.988688	0.654408	-0.234728	-0.2745	-0.0465	0.3045	0	399	30	3
2026-02-12	14:38:12.270	31.185	-3.5	22.61	0.948916	0.643184	-0.215208	-0.2745	-0.0465	0.3045	0	399	30	3
2026-02-12	14:38:12.290	21.525	1.155	20.3	0.921344	0.570716	-0.210572	-0.2745	-0.042	0.306	0	399	30	3
2026-02-12	14:38:12.310	18.97	5.6	22.295	0.91988	0.485804	-0.20984	-0.2715	-0.0345	0.303	0	399	30	3
2026-02-12	14:38:12.330	21.35	9.415	27.79	0.924516	0.373564	-0.20496	-0.2715	-0.0255	0.303	0	399	30	3
2026-02-12	14:38:12.350	28.175	13.37	35.735	0.973316	0.341112	-0.211792	-0.273	-0.021	0.306	0	399	30	3
2026-02-12	14:38:12.370	31.465	17.465	43.295	1.1895	0.350384	-0.207156	-0.279	-0.0195	0.303	0	399	30	3
2026-02-12	14:38:12.390	32.34	23.625	46.515	1.43228	0.3172	-0.218136	-0.282	-0.012	0.3015	0	399	30	3
2026-02-12	14:38:12.410	35.35	30.59	46.55	1.546228	0.280112	-0.25132	-0.2775	-0.009	0.303	0	395	52	3
2026-02-12	14:38:12.430	42.945	37.275	43.645	1.587464	0.260592	-0.259372	-0.2805	-0.0045	0.297	0	395	52	3
2026-02-12	14:38:12.450	57.435	44.59	36.47	1.556232	0.277672	-0.247904	-0.2835	0.0015	0.2925	0	395	52	3
2026-02-12	14:38:12.470	64.12	50.68	26.635	1.485472	0.261812	-0.1952	-0.2775	0.0015	0.2865	0	395	52	3
2026-02-12	14:38:12.490	59.64	53.76	15.96	1.297836	0.215208	-0.121268	-0.282	0.009	0.2805	0	395	52	3
2026-02-12	14:38:12.510	56.35	50.61	2.03	1.116788	0.0976	-0.133956	-0.2715	0.0075	0.2775	0	395	52	3
2026-02-12	14:38:12.530	75.775	37.905	-25.34	1.041148	0.148352	-0.07124799	-0.2685	0.009	0.2805	0	395	52	3
2026-02-12	14:38:12.550	68.565	30.31	-45.955	1.083604	0.27694	-0.019764	-0.273	0.006	0.2715	0	395	52	3
2026-02-12	14:38:12.570	48.37	29.015	-64.715	1.10166	0.34526	-0.048312	-0.273	-0.0075	0.2625	0	395	52	3
2026-02-12	14:38:12.590	29.295	30.555	-81.97	1.059204	0.341112	-0.128832	-0.2685	-0.0195	0.2595	0	395	52	3
2026-02-12	14:38:12.610	23.03	30.94	-97.65	0.992348	0.27938	-0.176412	-0.2685	-0.03	0.258	0	387	83	3
2026-02-12	14:38:12.630	35.28	32.48	-109.585	0.9333	0.271084	-0.125904	-0.2595	-0.0465	0.2505	0	387	83	3
2026-02-12	14:38:12.650	46.48	36.54	-116.2	0.887184	0.292312	-0.002196	-0.249	-0.063	0.2445	0	387	83	3
2026-02-12	14:38:12.670	37.065	45.01	-115.01	0.869128	0.29036	0.158356	-0.2415	-0.084	0.2445	0	387	83	3
2026-02-12	14:38:12.690	-15.925	55.16	-104.37	0.856684	0.245708	0.204472	-0.2325	-0.105	0.24	0	387	83	3
2026-02-12	14:38:12.710	-63.945	59.115	-87.08	0.805444	-0.024644	0.01708	-0.222	-0.117	0.228	0	387	83	3
2026-02-12	14:38:12.730	-67.165	58.38	-63.91	0.682224	-0.115412	-0.0915	-0.21	-0.12	0.2145	0	387	83	3
2026-02-12	14:38:12.750	-33.845	53.69	-49.105	0.640012	0.066856	-0.10736	-0.201	-0.1305	0.195	0	387	83	3
2026-02-12	14:38:12.770	12.215	49.455	-45.43	0.630496	0.223992	-0.074908	-0.192	-0.1395	0.18	0	387	83	3
2026-02-12	14:38:12.790	44.73	47.075	-48.335	0.651968	0.443836	0.006832	-0.1845	-0.1455	0.18	0	387	83	3
2026-02-12	14:38:12.810	38.78	44.695	-52.99	0.624152	0.464576	0.024888	-0.1845	-0.15	0.1815	0	377	94	3
2026-02-12	14:38:12.830	13.335	41.335	-50.995	0.582184	0.302316	0.018056	-0.168	-0.174	0.186	0	377	94	3
2026-02-12	14:38:12.850	2.765	37.975	-43.61	0.535092	0.12932	0.006588	-0.1635	-0.177	0.1755	0	377	94	3
2026-02-12	14:38:12.870	23.205	35.28	-33.81	0.510448	0.202032	0.03294	-0.159	-0.183	0.1665	0	377	94	3
2026-02-12	14:38:12.890	42.21	33.005	-25.27	0.461404	0.3477	0.093208	-0.1575	-0.186	0.165	0	377	94	3
2026-02-12	14:38:12.910	43.61	31.325	-16.695	0.438224	0.389912	0.0671	-0.1455	-0.186	0.1635	0	377	94	3
2026-02-12	14:38:12.930	48.86	29.61	-7.77	0.437736	0.427488	0.0732	-0.138	-0.1935	0.1635	0	377	94	3
2026-02-12	14:38:12.950	53.55	24.395	2.065	0.459452	0.439688	0.088084	-0.1365	-0.1935	0.1755	0	377	94	3
2026-02-12	14:38:12.970	60.48	19.005	13.055	0.481412	0.434076	0.104676	-0.132	-0.204	0.171	0	377	94	3
2026-02-12	14:38:12.990	68.88	13.3	23.45	0.52582	0.49654	0.15494	-0.147	-0.198	0.174	0	377	94	3
2026-02-12	14:38:13.010	71.015	6.265	31.045	0.618052	0.666364	0.288408	-0.141	-0.204	0.18	0	367	77	3
2026-02-12	14:38:13.030	66.675	3.64	30.73	0.712968	0.92354	0.4514	-0.141	-0.2025	0.183	0	367	77	3
2026-02-12	14:38:13.050	57.645	-0.525	20.02	0.854244	1.056276	0.330132	-0.144	-0.207	0.192	0	367	77	3
2026-02-12	14:38:13.070	77.735	-10.5	-14.14	0.971608	1.165588	0.005612	-0.1455	-0.2115	0.198	0	367	77	3
2026-02-12	14:38:13.090	59.885	-18.725	-31.045	0.92476	1.008452	-0.01952	-0.1515	-0.2205	0.21	0	367	77	3
2026-02-12	14:38:13.110	34.3	-23.765	-41.23	0.854488	0.814228	0.061	-0.1485	-0.225	0.219	0	367	77	3
2026-02-12	14:38:13.130	18.865	-19.145	-43.68	0.862052	0.693448	0.155428	-0.141	-0.234	0.228	0	367	77	3
2026-02-12	14:38:13.150	22.05	-6.755	-37.03	0.857172	0.554612	0.039284	-0.1335	-0.24	0.234	0	367	77	3
2026-02-12	14:38:13.170	54.705	1.89	-33.04	0.882548	0.698572	-0.034892	-0.132	-0.2385	0.237	0	367	77	3
2026-02-12	14:38:13.190	59.395	6.685	-28.21	1.017724	0.660264	-0.025864	-0.126	-0.2565	0.246	0	367	77	3
2026-02-12	14:38:13.210	54.18	11.34	-24.29	1.204384	0.606096	-0.12444	-0.123	-0.261	0.2505	0	363	40	3
2026-02-12	14:38:13.230	49.875	15.855	-23.87	1.253428	0.640256	-0.197152	-0.117	-0.2565	0.249	0	363	40	3
2026-02-12	14:38:13.250	29.61	19.04	-26.075	1.197552	0.496052	-0.171044	-0.1125	-0.267	0.2625	0	363	40	3
2026-02-12	14:38:13.270	12.11	21.735	-21.665	1.07116	0.243268	-0.119316	-0.108	-0.2655	0.2625	0	363	40	3
2026-02-12	14:38:13.290	25.48	31.115	-11.55	0.916708	0.171776	-0.115168	-0.108	-0.2685	0.2535	0	363	40	3
2026-02-12	14:38:13.310	43.015	37.31	3.29	0.847412	0.245952	-0.12322	-0.096	-0.273	0.261	0	363	40	3
2026-02-12	14:38:13.330	53.41	39.76	21.735	0.833504	0.384056	-0.139812	-0.099	-0.282	0.261	0	363	40	3
2026-02-12	14:38:13.350	67.06	39.725	31.675	0.858392	0.589016	-0.17934	-0.102	-0.2775	0.264	0	363	40	3
2026-02-12	14:38:13.370	71.12	37.765	32.2	0.931104	0.700524	-0.177632	-0.105	-0.2775	0.2715	0	363	40	3
2026-02-12	14:38:13.390	68.075	37.275	28.35	0.876204	0.653432	-0.151036	-0.105	-0.273	0.2775	0	363	40	3
2026-02-12	14:38:13.410	63.84	34.545	24.395	0.823744	0.480924	-0.13176	-0.105	-0.2685	0.2805	0	361	24	3
2026-02-12	14:38:13.430	61.565	32.515	27.02	0.798856	0.373808	-0.057828	-0.1095	-0.27	0.285	0	361	24	3
2026-02-12	14:38:13.450	64.82	31.045	32.55	0.7869	0.262788	-0.034648	-0.1095	-0.27	0.294	0	361	24	3
2026-02-12	14:38:13.470	72.905	29.505	39.97	0.77104	0.274256	-0.083204	-0.1125	-0.267	0.297	0	361	24	3
2026-02-12	14:38:13.490	76.755	24.43	46.2	0.87352	0.423584	-0.144448	-0.1185	-0.2625	0.303	0	361	24	3
2026-02-12	14:38:13.510	75.88	19.845	46.655	0.854976	0.47946	-0.196176	-0.1245	-0.2595	0.312	0	361	24	3
2026-02-12	14:38:13.530	85.05	16.52	41.335	0.83814	0.48312	-0.181536	-0.1335	-0.2595	0.3165	0	361	24	3
2026-02-12	14:38:13.550	96.005	16.17	33.67	0.816668	0.543388	-0.144448	-0.1395	-0.2535	0.3285	0	361	24	3
2026-02-12	14:38:13.570	92.68	17.01	24.57	0.782996	0.594384	-0.148108	-0.141	-0.2505	0.339	0	361	24	3
2026-02-12	14:38:13.590	78.4	17.395	14	0.7808	0.634156	-0.149328	-0.135	-0.24	0.3435	0	361	24	3
2026-02-12	14:38:13.610	45.85	18.41	1.33	0.794708	0.628544	-0.13054	-0.135	-0.24	0.3435	0	356	35	3
2026-02-12	14:38:13.630	22.645	20.23	-1.365	0.777628	0.568276	-0.094916	-0.138	-0.2445	0.354	0	356	35	3
2026-02-12	14:38:13.650	4.165	24.01	1.715	0.767868	0.44042	-0.044164	-0.144	-0.249	0.3615	0	356	35	3
2026-02-12	14:38:13.670	17.43	32.445	8.61	0.752252	0.419436	-0.043432	-0.147	-0.246	0.3585	0	356	35	3
2026-02-12	14:38:13.690	41.895	39.48	14.63	0.760304	0.54168	-0.091744	-0.144	-0.2475	0.363	0	356	35	3
2026-02-12	14:38:13.710	46.34	41.895	19.53	0.829356	0.700036	-0.154452	-0.144	-0.2505	0.3615	0	356	35	3
2026-02-12	14:38:13.730	36.68	38.745	21.385	0.905728	0.769088	-0.164456	-0.1485	-0.246	0.3555	0	356	35	3
2026-02-12	14:38:13.750	28.595	35	16.52	0.972828	0.808128	-0.114192	-0.15	-0.2385	0.3555	0	356	35	3
2026-02-12	14:38:13.770	22.295	32.41	11.2	1.046272	0.734196	-0.10736	-0.1515	-0.2355	0.36	0	356	35	3
2026-02-12	14:38:13.790	17.395	31.92	7.49	1.152168	0.66978	-0.101504	-0.1515	-0.2385	0.363	0	356	35	3
2026-02-12	14:38:13.810	17.115	29.435	5.95	1.252208	0.578036	-0.09857599	-0.153	-0.24	0.363	0	347	56	3
2026-02-12	14:38:13.830	17.5	26.005	4.445	1.263676	0.541192	-0.07905599	-0.156	-0.24	0.3615	0	347	56	3
2026-02-12	14:38:13.850	21.595	23.03	-0.665	1.241472	0.460184	-0.143472	-0.1575	-0.243	0.357	0	347	56	3
2026-02-12	14:38:13.870	23.38	18.655	-8.75	1.134356	0.425292	-0.183	-0.1605	-0.2445	0.354	0	347	56	3
2026-02-12	14:38:13.890	14.245	14.07	-23.485	1.077016	0.318908	-0.119072	-0.1605	-0.2445	0.354	0	347	56	3
2026-02-12	14:38:13.910	13.51	14.91	-37.485	1.109956	0.26352	0.045628	-0.1575	-0.246	0.363	0	347	56	3
2026-02-12	14:38:13.930	8.225	21.14	-52.045	1.201456	0.206424	0.097844	-0.1425	-0.249	0.36	0	347	56	3
2026-02-12	14:38:13.950	8.82	30.52	-62.79	1.212192	0.058804	-0.00488	-0.138	-0.258	0.36	0	347	56	3
2026-02-12	14:38:13.970	25.9	40.145	-66.5	1.18462	0.054656	-0.08686399	-0.1395	-0.267	0.351	0	347	56	3
2026-02-12	14:38:13.990	53.2	49	-69.16	1.170712	0.172996	-0.087596	-0.123	-0.264	0.3555	0	347	56	3
2026-02-12	14:38:14.010	76.09	57.05	-73.395	1.078968	0.42456	-0.09272	-0.1185	-0.2775	0.36	0	337	72	3
2026-02-12	14:38:14.030	63.56	57.435	-77.7	0.957212	0.637084	-0.111752	-0.108	-0.282	0.3525	0	337	72	3
2026-02-12	14:38:14.050	26.425	49.245	-84.84	0.865956	0.676124	-0.108092	-0.0945	-0.294	0.3585	0	337	72	3
2026-02-12	14:38:14.070	8.645	37.555	-93.52	0.7991	0.492636	-0.09028	-0.078	-0.3015	0.363	0	337	72	3
2026-02-12	14:38:14.090	40.46	29.645	-98.21	0.703696	0.419924	-0.083692	-0.066	-0.306	0.357	0	337	72	3
2026-02-12	14:38:14.110	53.585	24.535	-95.445	0.638548	0.476532	-0.06734399	-0.0555	-0.318	0.3585	0	337	72	3
2026-02-12	14:38:14.130	16.555	16.73	-86.45	0.60024	0.469456	-0.028548	-0.039	-0.324	0.369	0	337	72	3
2026-02-12	14:38:14.150	-23.66	10.745	-74.69	0.554124	0.428464	-0.01098	-0.027	-0.3255	0.3645	0	337	72	3
2026-02-12	14:38:14.170	-31.605	9.835	-64.085	0.52704	0.440176	0.012444	-0.018	-0.3435	0.36	0	337	72	3
2026-02-12	14:38:14.190	-32.2	9.52	-54.495	0.47702	0.502884	0.0732	-0.012	-0.339	0.3585	0	337	72	3
2026-02-12	14:38:14.210	-33.495	10.395	-46.13	0.441884	0.572912	0.1281	0	-0.3465	0.3495	0	328	74	3
2026-02-12	14:38:14.230	-20.65	13.825	-41.755	0.370148	0.60878	0.164456	0.003	-0.3525	0.351	0	328	74	3
2026-02-12	14:38:14.250	2.24	19.53	-41.895	0.312808	0.755668	0.13176	0.0195	-0.357	0.339	0	328	74	3
2026-02-12	14:38:14.270	14.77	21.455	-44.17	0.323056	0.883036	0.073688	0.027	-0.348	0.339	0	328	74	3
2026-02-12	14:38:14.290	13.755	17.92	-45.99	0.334768	0.999912	0.036844	0.03	-0.363	0.336	0	328	74	3
2026-02-12	14:38:14.310	-3.885	7.595	-47.04	0.3721	0.961604	0.029036	0.033	-0.36	0.339	0	328	74	3
2026-02-12	14:38:14.330	-18.97	-2.415	-43.82	0.480924	0.837408	0.103944	0.0465	-0.369	0.342	0	328	74	3
2026-02-12	14:38:14.350	-15.505	-5.04	-34.44	0.58316	0.694912	0.168116	0.0495	-0.369	0.3375	0	328	74	3
2026-02-12	14:38:14.370	3.71	-2.24	-21.21	0.690764	0.746152	0.204716	0.057	-0.363	0.336	0	328	74	3
2026-02-12	14:38:14.390	18.62	6.79	-10.78	0.912804	1.08824	0.302072	0.0525	-0.3645	0.33	0	328	74	3
2026-02-12	14:38:14.410	29.12	19.705	-14.14	1.160708	0.994544	0.0549	0.0735	-0.366	0.3345	0	325	57	3
2026-02-12	14:38:14.430	63.77	15.68	-8.715	1.086532	0.751764	-0.250588	0.0675	-0.3675	0.339	0	325	57	3
2026-02-12	14:38:14.450	84.28	5.6	10.955	0.956724	0.617808	-0.337696	0.063	-0.3705	0.351	0	325	57	3
2026-02-12	14:38:14.470	76.86	-11.865	31.115	0.902068	0.710772	-0.222528	0.063	-0.369	0.3675	0	325	57	3
2026-02-12	14:38:14.490	60.865	-21.665	43.085	0.78446	0.76494	-0.066612	0.0585	-0.3705	0.378	0	325	57	3
2026-02-12	14:38:14.510	34.965	-31.29	50.225	0.763964	0.696864	0.009516	0.0525	-0.369	0.384	0	325	57	3
2026-02-12	14:38:14.530	19.18	-36.225	54.95	0.75152	0.588284	-0.051728	0.045	-0.3615	0.3945	0	325	57	3
2026-02-12	14:38:14.550	18.235	-38.78	57.855	0.826916	0.53924	-0.205692	0.0375	-0.36	0.4005	0	325	57	3
2026-02-12	14:38:14.570	13.755	-43.365	63.875	0.853512	0.549488	-0.325984	0.024	-0.36	0.405	0	325	57	3
2026-02-12	14:38:14.590	4.865	-51.03	72.065	0.844728	0.51484	-0.373564	0.009	-0.3525	0.4095	0	325	57	3
2026-02-12	14:38:14.610	-2.1	-55.86	80.675	0.905484	0.609268	-0.295728	0	-0.3465	0.4155	0	325	46	3
2026-02-12	14:38:14.630	-15.085	-54.985	88.655	0.959896	0.647088	-0.226432	-0.009	-0.342	0.4185	0	325	46	3
2026-02-12	14:38:14.650	-15.89	-51.555	91.665	0.889624	0.641964	-0.299876	-0.021	-0.336	0.42	0	325	46	3
2026-02-12	14:38:14.670	-6.825	-47.075	89.775	0.752984	0.590236	-0.298656	-0.0345	-0.327	0.4245	0	325	46	3
2026-02-12	14:38:14.690	-6.405	-44.345	85.96	0.656116	0.520452	-0.259128	-0.0405	-0.324	0.4275	0	325	46	3
2026-02-12	14:38:14.710	-4.935	-43.295	82.67	0.598776	0.474824	-0.268644	-0.0675	-0.309	0.426	0	325	46	3
2026-02-12	14:38:14.730	-6.195	-41.615	80.71	0.557784	0.449936	-0.251076	-0.078	-0.312	0.432	0	325	46	3
2026-02-12	14:38:14.750	-9.31	-39.62	79.17	0.562664	0.373076	-0.234728	-0.084	-0.3015	0.4335	0	325	46	3
2026-02-12	14:38:14.770	-5.25	-34.475	78.855	0.580476	0.353556	-0.235704	-0.09	-0.288	0.435	0	325	46	3
2026-02-12	14:38:14.790	-0.665	-30.065	78.155	0.615856	0.31964	-0.25132	-0.0945	-0.2865	0.438	0	325	46	3
2026-02-12	14:38:14.810	6.02	-24.78	75.845	0.704428	0.354532	-0.245464	-0.1095	-0.285	0.444	0	326	68	3
2026-02-12	14:38:14.830	9.345	-20.37	70.98	0.81008	0.33794	-0.2745	-0.123	-0.276	0.45	0	326	68	3
2026-02-12	14:38:14.850	12.495	-14.07	65.1	0.855464	0.340868	-0.279136	-0.1335	-0.2655	0.4515	0	326	68	3
2026-02-12	14:38:14.870	20.09	-7.105	56.91	0.885476	0.326716	-0.266204	-0.1395	-0.255	0.4545	0	326	68	3
2026-02-12	14:38:14.890	30.45	-0.385	48.72	0.928908	0.34038	-0.282308	-0.1455	-0.2475	0.4605	0	326	68	3
2026-02-12	14:38:14.910	32.2	7.035	44.59	0.944524	0.392108	-0.287676	-0.153	-0.2415	0.459	0	326	68	3
2026-02-12	14:38:14.930	28.735	12.845	41.3	0.971852	0.40504	-0.329156	-0.1575	-0.2355	0.4605	0	326	68	3
2026-02-12	14:38:14.950	28.84	21.35	39.41	1.055788	0.425536	-0.410896	-0.1605	-0.234	0.4635	0	326	68	3
2026-02-12	14:38:14.970	32.41	28.35	37.38	1.139724	0.472628	-0.40992	-0.1605	-0.234	0.4635	0	326	68	3
2026-02-12	14:38:14.990	36.61	36.015	32.34	1.231712	0.462868	-0.409676	-0.18	-0.21	0.468	0	326	68	3
2026-02-12	14:38:15.010	41.055	44.415	26.705	1.292468	0.39772	-0.411384	-0.1845	-0.2115	0.4665	0	325	114	3
2026-02-12	14:38:15.030	44.485	52.605	21.315	1.346392	0.30744	-0.414556	-0.1875	-0.2025	0.465	0	325	114	3
2026-02-12	14:38:15.050	49.455	60.375	18.2	1.418128	0.266204	-0.43188	-0.198	-0.2055	0.462	0	325	114	3
2026-02-12	14:38:15.070	52.29	64.19	15.33	1.377136	0.258396	-0.40382	-0.1965	-0.198	0.465	0	325	114	3
2026-02-12	14:38:15.090	44.17	60.235	9.8	1.337852	0.220088	-0.299388	-0.201	-0.1935	0.456	0	325	114	3
2026-02-12	14:38:15.110	28.735	55.265	0.035	1.288076	0.172264	-0.149816	-0.21	-0.1965	0.453	0	325	114	3
2026-02-12	14:38:15.130	15.82	53.375	-12.705	1.218292	0.148108	-0.027328	-0.2085	-0.1905	0.4515	0	325	114	3
2026-02-12	14:38:15.150	17.01	54.88	-30.45	1.128744	0.239852	-0.003416	-0.216	-0.189	0.453	0	325	114	3
2026-02-12	14:38:15.170	7.175	54.39	-49.21	1.104344	0.291824	0.008784	-0.216	-0.1905	0.432	0	325	114	3
2026-02-12	14:38:15.190	-6.51	54.355	-65.8	1.117764	0.379908	0.057096	-0.2055	-0.201	0.4365	0	325	114	3
2026-02-12	14:38:15.210	-35.105	53.34	-79.94	1.120936	0.346724	-0.062952	-0.195	-0.207	0.42	0	325	161	3
2026-02-12	14:38:15.230	-47.46	51.415	-87.36	1.135576	0.160796	-0.102724	-0.195	-0.207	0.42	0	325	161	3
2026-02-12	14:38:15.250	-29.54	51.485	-88.41	1.103612	0.150548	-0.133956	-0.1815	-0.2265	0.402	0	325	161	3
2026-02-12	14:38:15.270	-3.255	52.29	-85.89	1.01016	0.170312	-0.172996	-0.1635	-0.252	0.3825	0	325	161	3
2026-02-12	14:38:15.290	16.1	51.03	-82.88	0.879132	0.249612	-0.115168	-0.153	-0.261	0.375	0	325	161	3
2026-02-12	14:38:15.310	22.26	49.42	-82.985	0.7625	0.296948	-0.041724	-0.144	-0.27	0.3675	0	325	161	3
2026-02-12	14:38:15.330	21.56	48.93	-84.35	0.699548	0.331352	0.025376	-0.132	-0.2775	0.366	0	325	161	3
2026-02-12	14:38:15.350	9.275	49.805	-85.89	0.60024	0.374296	0.077836	-0.123	-0.279	0.3675	0	325	161	3
2026-02-12	14:38:15.370	-12.915	50.33	-85.015	0.54534	0.353556	0.046848	-0.1215	-0.291	0.363	0	325	161	3
2026-02-12	14:38:15.390	-26.95	47.075	-82.145	0.467992	0.334768	-0.012932	-0.099	-0.2985	0.351	0	325	161	3
2026-02-12	14:38:15.410	-32.725	40.005	-77.77	0.425048	0.353556	-0.044164	-0.096	-0.3075	0.3435	0	326	171	3
2026-02-12	14:38:15.430	-38.15	31.115	-71.435	0.442372	0.32574	-0.029768	-0.087	-0.321	0.3375	0	326	171	3
2026-02-12	14:38:15.450	-35.56	23.835	-64.715	0.477264	0.325984	0.023668	-0.0705	-0.3165	0.3285	0	326	171	3
2026-02-12	14:38:15.470	-17.745	20.615	-57.75	0.498248	0.31964	0.1037	-0.0675	-0.3285	0.315	0	326	171	3
2026-02-12	14:38:15.490	16.835	21.35	-44.065	0.4941	0.466284	0.240828	-0.048	-0.336	0.3105	0	326	171	3
2026-02-12	14:38:15.510	28.21	24.29	-33.985	0.45262	0.551196	0.273768	-0.0405	-0.3405	0.312	0	326	171	3
2026-02-12	14:38:15.530	44.065	26.215	-27.44	0.42578	0.648064	0.260104	-0.0345	-0.339	0.312	0	326	171	3
2026-02-12	14:38:15.550	60.235	22.015	-24.955	0.417728	0.818376	0.132004	-0.0315	-0.342	0.3135	0	326	171	3
2026-02-12	14:38:15.570	60.585	10.745	-21.21	0.406016	0.994056	0.058316	-0.027	-0.351	0.3195	0	326	171	3
2026-02-12	14:38:15.590	39.725	-7.07	-18.305	0.45872	1.01382	0.054412	-0.024	-0.3465	0.33	0	326	171	3
2026-02-12	14:38:15.610	18.97	-23.065	-14.455	0.647088	1.031144	0.226676	-0.018	-0.3465	0.339	0	330	138	3
2026-02-12	14:38:15.630	-11.2	-27.335	-11.235	0.803492	0.807152	0.32574	-0.018	-0.354	0.3405	0	330	138	3
2026-02-12	14:38:15.650	15.785	-23.38	-1.435	0.91988	0.403088	0.028548	-0.0165	-0.3585	0.3405	0	330	138	3
2026-02-12	14:38:15.670	91	-19.915	13.51	1.204628	0.672708	0.04758	-0.009	-0.3585	0.345	0	330	138	3
2026-02-12	14:38:15.690	76.72	-25.27	32.83	1.327848	0.856196	0.05612	-0.0105	-0.357	0.3615	0	330	138	3
2026-02-12	14:38:15.710	33.95	-34.44	35.665	1.110932	0.935008	-0.087596	-0.018	-0.354	0.3765	0	330	138	3
2026-02-12	14:38:15.730	-8.435	-44.765	29.75	0.867908	0.740052	-0.149328	-0.021	-0.348	0.381	0	330	138	3
2026-02-12	14:38:15.750	-30.52	-51.695	27.23	0.71492	0.475556	-0.110044	-0.027	-0.3435	0.384	0	330	138	3
2026-02-12	14:38:15.770	-32.97	-54.11	34.685	0.704672	0.432124	-0.12322	-0.0315	-0.3435	0.384	0	330	138	3
2026-02-12	14:38:15.790	-29.4	-56.035	43.47	0.838628	0.476044	-0.177388	-0.03	-0.339	0.3825	0	330	138	3
2026-02-12	14:38:15.810	-24.08	-55.86	49.875	0.947452	0.55632	-0.183732	-0.048	-0.339	0.3915	0	338	91	3
2026-02-12	14:38:15.830	-25.34	-55.545	53.025	1.002596	0.57462	-0.173972	-0.0585	-0.3405	0.3885	0	338	91	3
2026-02-12	14:38:15.850	-25.34	-52.815	56.105	1.034316	0.4697	-0.1525	-0.069	-0.336	0.3855	0	338	91	3
2026-02-12	14:38:15.870	-12.46	-45.185	60.34	0.97478	0.393084	-0.132248	-0.0705	-0.327	0.39	0	338	91	3
2026-02-12	14:38:15.890	5.285	-37.45	64.33	0.869128	0.409432	-0.175924	-0.0795	-0.321	0.3915	0	338	91	3
2026-02-12	14:38:15.910	11.235	-34.02	68.32	0.770552	0.435784	-0.23058	-0.0915	-0.3045	0.3975	0	338	91	3
2026-02-12	14:38:15.930	5.075	-34.65	70.77	0.683932	0.445788	-0.243756	-0.0945	-0.3045	0.4035	0	338	91	3
2026-02-12	14:38:15.950	-1.61	-36.995	69.615	0.619516	0.43432	-0.227896	-0.1035	-0.3045	0.408	0	338	91	3
2026-02-12	14:38:15.970	0.07	-38.43	65.17	0.602924	0.445056	-0.157136	-0.111	-0.294	0.4065	0	338	91	3
2026-02-12	14:38:15.990	2.345	-38.185	58.52	0.605608	0.432124	-0.129564	-0.1185	-0.282	0.4095	0	338	91	3
2026-02-12	14:38:16.010	3.01	-35.595	51.1	0.645136	0.388204	-0.131028	-0.1275	-0.279	0.4125	0	345	73	3
2026-02-12	14:38:16.030	2.31	-29.645	49.07	0.694424	0.336476	-0.130052	-0.1275	-0.279	0.4125	0	345	73	3
2026-02-12	14:38:16.050	8.435	-23.415	49.28	0.707112	0.33916	-0.144448	-0.1275	-0.279	0.4125	0	345	73	3
2026-02-12	14:38:16.070	12.88	-19.25	50.645	0.744932	0.304268	-0.18788	-0.1455	-0.2625	0.4305	0	345	73	3
2026-02-12	14:38:16.090	17.36	-15.75	54.215	0.864004	0.30378	-0.186172	-0.1515	-0.261	0.438	0	345	73	3
2026-02-12	14:38:16.110	24.92	-8.75	58.31	1.014796	0.41358	-0.207644	-0.1575	-0.246	0.438	0	345	73	3
2026-02-12	14:38:16.130	30.135	0.14	56.56	1.144116	0.604388	-0.244244	-0.162	-0.237	0.441	0	345	73	3
2026-02-12	14:38:16.150	20.3	6.965	47.53	1.28832	0.713212	-0.250832	-0.1665	-0.2325	0.45	0	345	73	3
2026-02-12	14:38:16.170	4.935	13.195	35.315	1.386652	0.641232	-0.24522	-0.1755	-0.2265	0.45	0	345	73	3
2026-02-12	14:38:16.190	1.19	20.125	23.555	1.426668	0.534848	-0.238632	-0.1875	-0.213	0.45	0	345	73	3
2026-02-12	14:38:16.210	2.38	26.565	15.47	1.434964	0.381128	-0.280356	-0.1815	-0.219	0.447	0	347	88	3
2026-02-12	14:38:16.230	14.14	33.88	11.165	1.466928	0.36844	-0.333304	-0.1875	-0.21	0.441	0	347	88	3
2026-02-12	14:38:16.250	25.165	39.55	7.665	1.495232	0.411384	-0.327448	-0.1905	-0.213	0.438	0	347	88	3
2026-02-12	14:38:16.270	20.93	42.49	4.34	1.534516	0.313052	-0.288408	-0.195	-0.21	0.435	0	347	88	3
2026-02-12	14:38:16.290	16.835	45.64	1.715	1.429352	0.108824	-0.20984	-0.1935	-0.21	0.435	0	347	88	3
2026-02-12	14:38:16.310	21.56	46.305	-2.31	1.175104	0.011224	-0.106872	-0.1935	-0.204	0.4275	0	347	88	3
2026-02-12	14:38:16.330	26.46	43.82	-13.615	1.04066	0.099064	-0.02318	-0.1935	-0.198	0.42	0	347	88	3
2026-02-12	14:38:16.350	41.51	42.42	-34.16	1.019188	0.227164	0.021228	-0.192	-0.2055	0.4185	0	347	88	3
2026-02-12	14:38:16.370	63.77	44.415	-55.545	0.992104	0.376736	0.025376	-0.1905	-0.21	0.4185	0	347	88	3
2026-02-12	14:38:16.390	68.81	45.85	-75.075	0.927444	0.517036	-0.032696	-0.186	-0.21	0.4245	0	347	88	3
2026-02-12	14:38:16.410	60.2	44.24	-94.255	0.85766	0.525088	-0.105896	-0.1785	-0.222	0.429	0	349	114	3
2026-02-12	14:38:16.430	41.93	39.2	-108.43	0.804468	0.51362	-0.131272	-0.1695	-0.237	0.4275	0	349	114	3
2026-02-12	14:38:16.450	3.01	31.85	-113.12	0.772504	0.365024	-0.138592	-0.156	-0.2475	0.4245	0	349	114	3
2026-02-12	14:38:16.470	-28.84	25.13	-109.375	0.709796	0.188368	-0.129076	-0.141	-0.2565	0.417	0	349	114	3
2026-02-12	14:38:16.490	-30.765	22.575	-103.355	0.662216	0.188856	-0.09394	-0.129	-0.2685	0.4125	0	349	114	3
2026-02-12	14:38:16.510	-32.795	19.6	-96.635	0.620248	0.244732	-0.030744	-0.12	-0.279	0.408	0	349	114	3
2026-02-12	14:38:16.530	-41.02	16.555	-91.035	0.613416	0.277184	0.029036	-0.114	-0.285	0.405	0	349	114	3
2026-02-12	14:38:16.550	-43.96	17.745	-87.43	0.615124	0.285968	0.08662	-0.105	-0.288	0.3945	0	349	114	3
2026-02-12	14:38:16.570	-31.255	21.77	-81.27	0.679784	0.322324	0.078568	-0.105	-0.288	0.3945	0	349	114	3
2026-02-12	14:38:16.590	-21.035	24.22	-75.355	0.679784	0.411872	0.060024	-0.0855	-0.303	0.3825	0	349	114	3
2026-02-12	14:38:16.610	-22.715	23.415	-68.53	0.66124	0.48556	0.045872	-0.06	-0.321	0.372	0	351	121	3
2026-02-12	14:38:16.630	-34.895	18.69	-61.39	0.62952	0.385032	0.003904	-0.0465	-0.324	0.366	0	351	121	3
2026-02-12	14:38:16.650	-31.185	15.54	-53.375	0.600972	0.367464	0.005856	-0.0285	-0.33	0.351	0	351	121	3
2026-02-12	14:38:16.670	-15.05	13.16	-46.2	0.584136	0.476044	0.07564	-0.0165	-0.3375	0.345	0	351	121	3
2026-02-12	14:38:16.690	-8.61	12.635	-40.005	0.527528	0.593408	0.151524	-0.0135	-0.336	0.3465	0	351	121	3
2026-02-12	14:38:16.710	-16.1	11.41	-34.895	0.44896	0.598776	0.13786	-0.0135	-0.336	0.3465	0	351	121	3
2026-02-12	14:38:16.730	-9.345	9.905	-29.82	0.341112	0.576572	0.123708	-0.006	-0.342	0.3405	0	351	121	3
2026-02-12	14:38:16.750	12.215	6.895	-22.05	0.3233	0.664412	0.122	0.003	-0.3465	0.3375	0	351	121	3
2026-02-12	14:38:16.770	28.385	2.555	-12.705	0.414556	0.866688	0.108092	0.003	-0.348	0.3405	0	351	121	3
2026-02-12	14:38:16.790	33.11	-2.87	-8.085	0.483852	0.985516	0.069784	0.003	-0.3495	0.339	0	351	121	3
2026-02-12	14:38:16.810	29.89	-7.665	-4.375	0.59658	0.962336	0.121268	0.0045	-0.3465	0.342	0	352	98	3
2026-02-12	14:38:16.830	30.485	-5.32	0.455	0.767136	1.050908	0.245952	0.0105	-0.3465	0.345	0	352	98	3
2026-02-12	14:38:16.850	16.835	4.305	0.945	0.950136	0.919392	0.29768	0.0105	-0.3465	0.345	0	352	98	3
2026-02-12	14:38:16.870	27.965	2.905	3.535	1.037488	0.558272	-0.073444	0.006	-0.3525	0.36	0	352	98	3
2026-02-12	14:38:16.890	60.55	-5.635	14.63	1.183644	0.619272	-0.087108	0.0075	-0.345	0.36	0	352	98	3
2026-02-12	14:38:16.910	72.205	-9.59	26.11	1.2322	0.924028	0.019764	0.012	-0.3465	0.375	0	352	98	3
2026-02-12	14:38:16.930	62.405	-8.505	28.805	1.04676	0.9455	-0.060756	0.003	-0.342	0.39	0	352	98	3
2026-02-12	14:38:16.950	25.27	-9.1	36.96	0.87962	0.74664	-0.044896	0.003	-0.351	0.396	0	352	98	3
2026-02-12	14:38:16.970	8.295	-8.54	44.625	0.754692	0.6283	-0.062708	-0.009	-0.342	0.4005	0	352	98	3
2026-02-12	14:38:16.990	1.645	-10.08	49.175	0.737124	0.534116	-0.166896	-0.0105	-0.3345	0.4065	0	352	98	3
2026-02-12	14:38:17.010	-2.415	-14.91	55.3	0.837408	0.504348	-0.226432	-0.021	-0.336	0.405	0	355	63	3
2026-02-12	14:38:17.030	-4.83	-19.425	62.965	0.941352	0.549488	-0.21838	-0.0375	-0.33	0.4035	0	355	63	3
2026-02-12	14:38:17.050	-12.04	-24.99	69.405	1.028704	0.621712	-0.214232	-0.0375	-0.321	0.411	0	355	63	3
2026-02-12	14:38:17.070	-20.825	-28.84	73.465	1.038464	0.654408	-0.212768	-0.0555	-0.3225	0.408	0	355	63	3
2026-02-12	14:38:17.090	-22.365	-30.765	75.215	0.941108	0.571936	-0.199104	-0.069	-0.315	0.405	0	355	63	3
2026-02-12	14:38:17.110	-16.555	-30.45	80.85	0.718336	0.414556	-0.117852	-0.069	-0.315	0.405	0	355	63	3
2026-02-12	14:38:17.130	-12.53	-29.75	86.345	0.584136	0.323788	-0.09516	-0.081	-0.3045	0.3975	0	355	63	3
2026-02-12	14:38:17.150	-4.865	-29.015	89.6	0.555588	0.292068	-0.094184	-0.096	-0.291	0.408	0	355	63	3
2026-02-12	14:38:17.170	3.92	-30.555	89.95	0.59414	0.333304	-0.144204	-0.102	-0.282	0.4095	0	355	63	3
2026-02-12	14:38:17.190	4.27	-33.215	86.94	0.62708	0.399672	-0.142496	-0.117	-0.2715	0.4185	0	355	63	3
2026-02-12	14:38:17.210	-6.545	-35.805	81.515	0.637328	0.402356	-0.11346	-0.1185	-0.261	0.4185	0	357	53	3
2026-02-12	14:38:17.230	-16.975	-38.43	74.305	0.66368	0.305244	-0.114192	-0.135	-0.261	0.4275	0	357	53	3
2026-02-12	14:38:17.250	-15.575	-37.24	67.375	0.700768	0.282308	-0.091988	-0.1365	-0.2445	0.423	0	357	53	3
2026-02-12	14:38:17.270	-11.445	-34.09	62.195	0.765916	0.232776	-0.108824	-0.147	-0.234	0.426	0	357	53	3
2026-02-12	14:38:17.290	-2.555	-27.545	59.535	0.809104	0.253028	-0.136884	-0.1455	-0.234	0.435	0	357	53	3
2026-02-12	14:38:17.310	5.53	-20.125	57.75	0.8113	0.281332	-0.167628	-0.159	-0.2205	0.441	0	357	53	3
2026-02-12	14:38:17.330	13.16	-14.105	54.915	0.877424	0.400404	-0.190076	-0.1605	-0.2175	0.4395	0	357	53	3
2026-02-12	14:38:17.350	11.095	-7.595	50.47	0.97844	0.496784	-0.230336	-0.174	-0.2085	0.45	0	357	53	3
2026-02-12	14:38:17.370	3.85	-2.38	37.975	1.247084	0.579744	-0.2745	-0.18	-0.195	0.4455	0	357	53	3
2026-02-12	14:38:17.390	-10.92	0.525	30.135	1.341024	0.510936	-0.268644	-0.1845	-0.192	0.4455	0	357	53	3
2026-02-12	14:38:17.410	-10.64	6.755	25.06	1.362008	0.390644	-0.260104	-0.189	-0.192	0.4425	0	355	68	3
2026-02-12	14:38:17.430	3.255	13.37	18.97	1.428376	0.35258	-0.28548	-0.1935	-0.186	0.4395	0	355	68	3
2026-02-12	14:38:17.450	13.16	20.615	15.12	1.495232	0.292312	-0.227408	-0.1965	-0.1785	0.441	0	355	68	3
2026-02-12	14:38:17.470	20.72	30.03	12.04	1.485228	0.255468	-0.179584	-0.195	-0.18	0.4365	0	355	68	3
2026-02-12	14:38:17.490	21.875	37.975	7.805	1.460828	0.240584	-0.15128	-0.1965	-0.177	0.4365	0	355	68	3
2026-02-12	14:38:17.510	12.215	43.435	2.135	1.399584	0.18666	-0.099064	-0.201	-0.171	0.438	0	355	68	3
2026-02-12	14:38:17.530	-1.715	44.765	-6.265	1.279292	0.140544	-0.080276	-0.201	-0.165	0.432	0	355	68	3
2026-02-12	14:38:17.550	-11.48	40.705	-18.27	1.098244	0.088328	-0.039528	-0.1995	-0.171	0.4245	0	355	68	3
2026-02-12	14:38:17.570	-1.575	35.14	-35.665	1.045296	0.136884	0.010492	-0.1965	-0.18	0.4185	0	355	68	3
2026-02-12	14:38:17.590	17.745	31.745	-57.75	1.059204	0.294264	-0.004148	-0.192	-0.1755	0.4125	0	355	68	3
2026-02-12	14:38:17.610	7.56	25.935	-77.49	1.034804	0.597556	-0.03294	-0.186	-0.183	0.411	0	355	92	3
2026-02-12	14:38:17.630	-88.095	5.495	-102.76	1.127524	0.800808	-0.06954	-0.18	-0.198	0.408	0	355	92	3
2026-02-12	14:38:17.650	-165.795	-1.26	-133.07	1.252452	0.64294	-0.0671	-0.174	-0.2025	0.4035	0	355	92	3
2026-02-12	14:38:17.670	-184.345	9.03	-148.155	1.204872	0.247172	-0.127856	-0.1515	-0.2325	0.3825	0	355	92	3
2026-02-12	14:38:17.690	-158.585	24.605	-146.65	0.98454	0.108336	-0.183244	-0.141	-0.24	0.366	0	355	92	3
2026-02-12	14:38:17.710	-132.37	33.32	-134.4	0.740296	0.07686	-0.108092	-0.1185	-0.2565	0.3345	0	355	92	3
2026-02-12	14:38:17.730	-107.87	35.525	-116.9	0.574376	0.02318	-0.074664	-0.0945	-0.276	0.312	0	355	92	3
2026-02-12	14:38:17.750	-85.435	37.485	-98.49	0.503372	0.08174	0.07198	-0.0795	-0.2865	0.2925	0	355	92	3
2026-02-12	14:38:17.770	-78.575	38.99	-80.605	0.501908	-0.02196	0.17202	-0.0675	-0.285	0.2745	0	355	92	3
2026-02-12	14:38:17.790	-45.675	40.46	-65.485	0.497272	-0.019032	0.165188	-0.0525	-0.2895	0.261	0	355	92	3
2026-02-12	14:38:17.810	10.22	41.44	-54.32	0.528504	0.21106	0.143716	-0.0405	-0.2955	0.2535	0	355	98	3
2026-02-12	14:38:17.830	42.385	41.93	-46.165	0.50386	0.485072	0.13176	-0.033	-0.2955	0.243	0	355	98	3
2026-02-12	14:38:17.850	29.925	36.19	-41.65	0.4819	0.576816	0.081984	-0.0225	-0.297	0.246	0	355	98	3
2026-02-12	14:38:17.870	-1.155	26.04	-37.73	0.474824	0.560956	0.082472	-0.0105	-0.306	0.252	0	355	98	3
2026-02-12	14:38:17.890	-20.895	16.485	-33.88	0.48434	0.53314	0.111264	-0.006	-0.3135	0.249	0	355	98	3
2026-02-12	14:38:17.910	-12.53	11.06	-25.305	0.437004	0.591944	0.25742	-0.006	-0.3165	0.249	0	355	98	3
2026-02-12	14:38:17.930	-2.065	10.22	-22.12	0.32208	0.759084	0.365512	0.003	-0.3105	0.246	0	355	98	3
2026-02-12	14:38:17.950	1.785	4.62	-21.525	0.236192	0.795196	0.408944	0.006	-0.3195	0.2385	0	355	98	3
2026-02-12	14:38:17.970	11.76	-1.75	-22.155	0.278648	0.809348	0.424072	0.009	-0.3195	0.2355	0	355	98	3
2026-02-12	14:38:17.990	15.155	-7.035	-19.39	0.425292	0.853268	0.500932	0.0225	-0.3135	0.246	0	355	98	3
2026-02-12	14:38:18.010	2.905	-6.265	-13.265	0.589992	0.875472	0.553636	0.015	-0.3195	0.243	0	361	66	3
2026-02-12	14:38:18.030	-12.775	-0.35	-0.595	0.648308	0.564128	0.426268	0.018	-0.3135	0.243	0	361	66	3
2026-02-12	14:38:18.050	32.165	-2.38	12.215	0.831064	0.316956	0.106628	0.018	-0.3195	0.243	0	361	66	3
2026-02-12	14:38:18.070	142.73	-11.48	24.85	1.179496	0.583404	0.010004	0.0135	-0.315	0.255	0	361	66	3
2026-02-12	14:38:18.090	166.74	-18.76	33.81	1.47986	1.084824	0.06344	0.012	-0.3135	0.2655	0	361	66	3
2026-02-12	14:38:18.110	110.495	-31.395	31.08	1.390556	1.123376	-0.164456	0.0165	-0.3195	0.2955	0	361	66	3
2026-02-12	14:38:18.130	33.285	-41.055	36.225	1.167052	0.696864	-0.12322	-0.0015	-0.327	0.3075	0	361	66	3
2026-02-12	14:38:18.150	-1.12	-42.49	43.155	0.950868	0.492148	-0.019276	-0.009	-0.321	0.324	0	361	66	3
2026-02-12	14:38:18.170	7.49	-39.165	49.945	0.796904	0.471408	-0.065148	-0.006	-0.324	0.318	0	361	66	3
2026-02-12	14:38:18.190	21.735	-35.735	58.38	0.74664	0.516792	-0.142008	-0.006	-0.324	0.318	0	361	66	3
2026-02-12	14:38:18.210	21	-35.35	67.62	0.780068	0.5917	-0.20496	-0.0165	-0.312	0.33	0	371	15	3
2026-02-12	14:38:18.230	14.105	-38.22	74.2	0.799588	0.622932	-0.234972	-0.036	-0.303	0.342	0	371	15	3
2026-02-12	14:38:18.250	11.795	-42.875	75.075	0.802272	0.587064	-0.22692	-0.045	-0.306	0.3405	0	371	15	3
2026-02-12	14:38:18.270	11.06	-44.73	76.23	0.758352	0.501664	-0.155916	-0.06	-0.294	0.354	0	371	15	3
2026-02-12	14:38:18.290	10.675	-43.05	79.03	0.685884	0.419192	-0.132736	-0.066	-0.2835	0.3555	0	371	15	3
2026-02-12	14:38:18.310	7.77	-40.355	82.145	0.628544	0.416508	-0.159332	-0.0885	-0.279	0.36	0	371	15	3
2026-02-12	14:38:18.330	0.805	-38.535	83.93	0.601948	0.400892	-0.15982	-0.09	-0.2685	0.3615	0	371	15	3
2026-02-12	14:38:18.350	-3.85	-38.885	82.495	0.623664	0.39406	-0.153476	-0.108	-0.261	0.372	0	371	15	3
2026-02-12	14:38:18.370	-5.04	-40.355	77.805	0.697352	0.388448	-0.148596	-0.111	-0.2475	0.3795	0	371	15	3
2026-02-12	14:38:18.390	-3.92	-40.11	71.015	0.746152	0.350628	-0.15738	-0.117	-0.246	0.384	0	371	15	3
2026-02-12	14:38:18.410	-0.14	-37.31	63.77	0.762744	0.316468	-0.136152	-0.129	-0.234	0.384	0	381	2	3
2026-02-12	14:38:18.430	0.315	-34.37	57.085	0.792024	0.223992	-0.112728	-0.135	-0.228	0.39	0	381	2	3
2026-02-12	14:38:18.450	9.765	-28.98	52.745	0.888404	0.132492	-0.148352	-0.1425	-0.2205	0.3975	0	381	2	3
2026-02-12	14:38:18.470	21.385	-23.31	54.355	0.91866	0.185684	-0.137616	-0.1485	-0.2145	0.396	0	381	2	3
2026-02-12	14:38:18.490	27.125	-17.185	55.86	0.950624	0.27328	-0.125172	-0.159	-0.2055	0.402	0	381	2	3
2026-02-12	14:38:18.510	35	-10.745	52.255	1.055544	0.406992	-0.12444	-0.1605	-0.1965	0.4095	0	381	2	3
2026-02-12	14:38:18.530	41.755	-3.99	44.59	1.190964	0.5856	-0.217404	-0.159	-0.1905	0.417	0	381	2	3
2026-02-12	14:38:18.550	30.625	1.435	37.275	1.207556	0.6588	-0.303536	-0.162	-0.183	0.4215	0	381	2	3
2026-02-12	14:38:18.570	7.91	4.2	32.06	1.223172	0.548268	-0.33916	-0.165	-0.171	0.4245	0	381	2	3
2026-02-12	14:38:18.590	-1.82	8.89	28.56	1.293444	0.413092	-0.301584	-0.171	-0.1695	0.4275	0	381	2	3
2026-02-12	14:38:18.610	3.71	16.905	26.495	1.396656	0.31232	-0.25986	-0.1755	-0.168	0.4245	0	386	27	3
2026-02-12	14:38:18.630	17.43	27.23	24.01	1.467416	0.208376	-0.181048	-0.1815	-0.1635	0.4275	0	386	27	3
2026-02-12	14:38:18.650	38.15	39.76	20.09	1.472296	0.222528	-0.165188	-0.1875	-0.1605	0.429	0	386	27	3
2026-02-12	14:38:18.670	51.065	49.385	14.035	1.488644	0.260348	-0.240096	-0.1875	-0.1605	0.423	0	386	27	3
2026-02-12	14:38:18.690	46.585	52.815	7.105	1.446676	0.23302	-0.251564	-0.1875	-0.162	0.423	0	386	27	3
2026-02-12	14:38:18.710	35.315	50.05	-3.605	1.262212	0.02562	-0.142984	-0.1875	-0.1545	0.4185	0	386	27	3
2026-02-12	14:38:18.730	40.145	45.325	-16.695	1.093364	0.000488	-0.012932	-0.189	-0.153	0.414	0	386	27	3
2026-02-12	14:38:18.750	55.265	42.665	-33.495	1.102636	0.116388	0.035868	-0.1875	-0.1575	0.396	0	386	27	3
2026-02-12	14:38:18.770	65.695	42.735	-52.395	1.123132	0.345504	0.06954	-0.189	-0.1605	0.408	0	386	27	3
2026-02-12	14:38:18.790	56.735	44.8	-72.59	1.0919	0.553148	0.072224	-0.1755	-0.1725	0.411	0	386	27	3
2026-02-12	14:38:18.810	26.985	44.345	-96.67	1.026996	0.630984	-0.023668	-0.1665	-0.18	0.408	0	388	63	3
2026-02-12	14:38:18.830	-4.2	40.53	-116.795	0.955992	0.474092	-0.137616	-0.1605	-0.195	0.4035	0	388	63	3
2026-02-12	14:38:18.850	-25.655	34.93	-124.25	0.8784	0.379176	-0.201544	-0.156	-0.195	0.399	0	388	63	3
2026-02-12	14:38:18.870	-43.295	25.62	-121.695	0.761524	0.276208	-0.180072	-0.1455	-0.201	0.3945	0	388	63	3
2026-02-12	14:38:18.890	-65.065	16.94	-110.215	0.715408	0.120536	-0.136396	-0.1305	-0.213	0.3915	0	388	63	3
2026-02-12	14:38:18.910	-74.13	10.64	-95.165	0.724436	0.061	-0.10736	-0.117	-0.231	0.3825	0	388	63	3
2026-02-12	14:38:18.930	-61.005	9.94	-83.37	0.720776	0.13908	-0.021472	-0.1035	-0.243	0.3675	0	388	63	3
2026-02-12	14:38:18.950	-49.875	13.3	-76.86	0.725412	0.20252	0.09857599	-0.09	-0.249	0.3555	0	388	63	3
2026-02-12	14:38:18.970	-43.575	20.405	-73.92	0.699548	0.239608	0.184708	-0.084	-0.2595	0.348	0	388	63	3
2026-02-12	14:38:18.990	-26.355	29.75	-74.62	0.639524	0.26108	0.08052	-0.0825	-0.264	0.3465	0	388	63	3
2026-02-12	14:38:19.010	-11.69	28.7	-72.135	0.55876	0.358436	0.001708	-0.0825	-0.264	0.3465	0	388	81	3
2026-02-12	14:38:19.030	-18.2	19.11	-67.97	0.507032	0.460916	-0.027816	-0.048	-0.2745	0.333	0	388	81	3
2026-02-12	14:38:19.050	-40.81	7.63	-62.65	0.482144	0.478484	0.003904	-0.039	-0.285	0.321	0	388	81	3
2026-02-12	14:38:19.070	-54.95	-1.645	-57.855	0.522404	0.433344	0.032452	-0.027	-0.294	0.3195	0	388	81	3
2026-02-12	14:38:19.090	-44.24	-5.95	-50.925	0.509716	0.424316	0.080276	-0.0165	-0.2835	0.3075	0	388	81	3
2026-02-12	14:38:19.110	-24.57	-8.575	-41.65	0.5002	0.52826	0.165676	-0.009	-0.2955	0.2955	0	388	81	3
2026-02-12	14:38:19.130	-12.915	-10.5	-33.81	0.454328	0.690764	0.23302	-0.0045	-0.297	0.3015	0	388	81	3
2026-02-12	14:38:19.150	-8.575	-14.07	-29.05	0.38186	0.743224	0.19764	-0.006	-0.3015	0.306	0	388	81	3
2026-02-12	14:38:19.170	1.4	-20.825	-25.62	0.407724	0.764696	0.133956	0.003	-0.2985	0.297	0	388	81	3
2026-02-12	14:38:19.190	14.14	-30.485	-21.91	0.534116	0.796416	0.129564	0.0015	-0.306	0.3015	0	388	81	3
2026-02-12	14:38:19.210	18.935	-35.455	-14.875	0.74176	0.893772	0.244732	0.003	-0.3	0.303	0	388	67	3
2026-02-12	14:38:19.230	2.975	-31.325	-9.38	0.958432	1.041392	0.416508	0.0075	-0.3075	0.3075	0	388	67	3
2026-02-12	14:38:19.250	14.945	-23.8	-3.325	1.056764	0.525576	0.078568	0.0105	-0.303	0.306	0	388	67	3
2026-02-12	14:38:19.270	86.345	-23.765	11.935	1.165832	0.420168	-0.124928	0.0105	-0.303	0.306	0	388	67	3
2026-02-12	14:38:19.290	95.62	-30.135	29.715	1.275632	0.774944	-0.00976	0.0075	-0.3015	0.324	0	388	67	3
2026-02-12	14:38:19.310	67.55	-34.16	30.66	1.109224	1.009184	-0.014152	0.0045	-0.3045	0.348	0	388	67	3
2026-02-12	14:38:19.330	16.03	-39.62	25.62	0.878644	0.726876	-0.119804	-0.003	-0.303	0.3555	0	388	67	3
2026-02-12	14:38:19.350	-16.52	-42.84	25.725	0.737368	0.431148	-0.119072	-0.006	-0.2955	0.36	0	388	67	3
2026-02-12	14:38:19.370	-10.43	-39.375	31.5	0.682468	0.364048	-0.099796	-0.0075	-0.291	0.3615	0	388	67	3
2026-02-12	14:38:19.390	8.435	-34.125	39.83	0.774212	0.479704	-0.148352	-0.015	-0.288	0.363	0	388	67	3
2026-02-12	14:38:19.410	17.045	-31.605	46.83	0.848876	0.614148	-0.163724	-0.021	-0.288	0.366	0	388	39	3
2026-02-12	14:38:19.430	8.33	-33.81	51.485	0.914512	0.608292	-0.19886	-0.0225	-0.2895	0.369	0	388	39	3
2026-02-12	14:38:19.450	1.05	-37.17	54.32	0.967704	0.522892	-0.224236	-0.0255	-0.2835	0.3765	0	388	39	3
2026-02-12	14:38:19.470	9.065	-37.695	58.59	0.97966	0.410652	-0.226188	-0.0375	-0.276	0.378	0	388	39	3
2026-02-12	14:38:19.490	25.025	-34.125	65.59	0.878888	0.471408	-0.173484	-0.0495	-0.273	0.3825	0	388	39	3
2026-02-12	14:38:19.510	23.87	-31.675	70.035	0.774212	0.543388	-0.156892	-0.06	-0.267	0.3885	0	388	39	3
2026-02-12	14:38:19.530	0.175	-34.02	70.945	0.657336	0.47702	-0.213988	-0.063	-0.2625	0.4035	0	388	39	3
2026-02-12	14:38:19.550	-9.135	-36.33	72.52	0.617808	0.427244	-0.2074	-0.0675	-0.2535	0.405	0	388	39	3
2026-02-12	14:38:19.570	-13.58	-38.605	73.605	0.633912	0.367952	-0.208132	-0.0825	-0.243	0.405	0	388	39	3
2026-02-12	14:38:19.590	-9.52	-38.605	72.94	0.683932	0.321836	-0.17324	-0.096	-0.237	0.4065	0	388	39	3
2026-02-12	14:38:19.610	-5.775	-35.875	71.085	0.723948	0.315492	-0.130052	-0.105	-0.234	0.4095	0	386	38	3
2026-02-12	14:38:19.630	-1.855	-31.465	66.08	0.778604	0.290116	-0.129564	-0.1155	-0.228	0.4125	0	386	38	3
2026-02-12	14:38:19.650	4.585	-27.335	60.55	0.82472	0.16836	-0.179828	-0.12	-0.2175	0.4155	0	386	38	3
2026-02-12	14:38:19.670	21.595	-21.42	58.31	0.865224	0.153476	-0.175924	-0.123	-0.2085	0.4185	0	386	38	3
2026-02-12	14:38:19.690	42.63	-13.93	56.98	0.894992	0.207644	-0.178608	-0.126	-0.201	0.4275	0	386	38	3
2026-02-12	14:38:19.710	62.055	-5.67	55.02	0.951112	0.325252	-0.183	-0.129	-0.1935	0.435	0	386	38	3
2026-02-12	14:38:19.730	71.085	1.89	51.975	1.014308	0.476532	-0.255712	-0.132	-0.186	0.444	0	386	38	3
2026-02-12	14:38:19.750	64.995	6.825	49.805	1.044808	0.577792	-0.343064	-0.138	-0.18	0.4515	0	386	38	3
2026-02-12	14:38:19.770	40.67	10.115	48.195	1.0736	0.670268	-0.351116	-0.147	-0.1725	0.456	0	386	38	3
2026-02-12	14:38:19.790	7.28	17.57	43.575	1.17486	0.493856	-0.350628	-0.1485	-0.1575	0.459	0	386	38	3
2026-02-12	14:38:19.810	7.14	27.51	39.48	1.254648	0.324764	-0.33672	-0.1485	-0.1515	0.459	0	380	65	3
2026-02-12	14:38:19.830	24.29	35.28	37.135	1.2932	0.1891	-0.299144	-0.156	-0.1455	0.4425	0	380	65	3
2026-02-12	14:38:19.850	44.275	42.98	35.945	1.37738	0.124196	-0.278892	-0.1635	-0.144	0.45	0	380	65	3
2026-02-12	14:38:19.870	54.6	47.74	33.67	1.39812	0.108824	-0.275476	-0.1725	-0.1425	0.4575	0	380	65	3
2026-02-12	14:38:19.890	48.09	47.285	27.895	1.38714	0.106384	-0.198616	-0.18	-0.132	0.4425	0	380	65	3
2026-02-12	14:38:19.910	40.285	44.345	14.42	1.335656	0.08686399	-0.121024	-0.171	-0.1305	0.453	0	380	65	3
2026-02-12	14:38:19.930	42.14	40.74	-7.63	1.276852	0.139324	-0.127612	-0.1815	-0.1305	0.4485	0	380	65	3
2026-02-12	14:38:19.950	49.525	40.775	-33.39	1.145092	0.282308	-0.096868	-0.177	-0.126	0.444	0	380	65	3
2026-02-12	14:38:19.970	40.635	39.375	-64.47	1.042124	0.439444	-0.071004	-0.177	-0.1275	0.441	0	380	65	3
2026-02-12	14:38:19.990	21.455	35.21	-98.035	1.021384	0.337696	-0.168116	-0.1755	-0.129	0.441	0	380	65	3
2026-02-12	14:38:20.010	12.32	36.05	-124.075	1.04066	0.221552	-0.194712	-0.174	-0.1305	0.441	0	374	104	3
2026-02-12	14:38:20.030	15.925	39.62	-126.455	1.034072	0.298168	-0.15494	-0.162	-0.1425	0.4395	0	374	104	3
2026-02-12	14:38:20.050	5.32	41.475	-125.895	1.106784	0.530456	-0.060756	-0.1455	-0.168	0.4335	0	374	104	3
2026-02-12	14:38:20.070	-61.81	33.11	-118.02	1.212192	0.287676	-0.10614	-0.1395	-0.1815	0.429	0	374	104	3
2026-02-12	14:38:20.090	-64.295	30.625	-104.72	1.220732	0.21716	-0.098332	-0.1215	-0.195	0.417	0	374	104	3
2026-02-12	14:38:20.110	-29.47	35.945	-96.705	1.224636	0.350384	0.088572	-0.1125	-0.2085	0.4005	0	374	104	3
2026-02-12	14:38:20.130	-1.82	46.655	-91.14	1.174372	0.428708	0.186416	-0.105	-0.222	0.399	0	374	104	3
2026-02-12	14:38:20.150	22.715	56.105	-84.56	1.078724	0.544852	0.115656	-0.0945	-0.231	0.3885	0	374	104	3
2026-02-12	14:38:20.170	37.275	56.7	-79.87	0.902068	0.751276	0.005124	-0.078	-0.2445	0.3795	0	374	104	3
2026-02-12	14:38:20.190	17.045	45.99	-72.1	0.770796	0.68198	-0.024156	-0.084	-0.24	0.3825	0	374	104	3
2026-02-12	14:38:20.210	-14.98	32.935	-61.005	0.647088	0.567544	-0.00122	-0.0585	-0.2535	0.384	0	366	121	3
2026-02-12	14:38:20.230	-40.005	22.015	-50.015	0.515816	0.51362	0.033428	-0.063	-0.2595	0.378	0	366	121	3
2026-02-12	14:38:20.250	-55.125	13.265	-41.09	0.375028	0.465308	0.034892	-0.0435	-0.261	0.375	0	366	121	3
2026-02-12	14:38:20.270	-55.3	6.475	-36.085	0.252784	0.406992	0.059536	-0.039	-0.2625	0.363	0	366	121	3
2026-02-12	14:38:20.290	-43.75	1.33	-34.23	0.106384	0.407724	0.166896	-0.0375	-0.27	0.36	0	366	121	3
2026-02-12	14:38:20.310	-39.025	-3.64	-35.14	-0.000488	0.42944	0.208864	-0.03	-0.267	0.357	0	366	121	3
2026-02-12	14:38:20.330	-28.105	-12.425	-37.065	-0.05246	0.371856	0.095648	-0.0285	-0.27	0.351	0	366	121	3
2026-02-12	14:38:20.350	-25.55	-26.6	-31.605	0.016348	0.317444	0.018788	-0.0225	-0.27	0.3435	0	366	121	3
2026-02-12	14:38:20.370	-39.865	-40.95	-21.595	0.235216	0.38674	0.107604	-0.0195	-0.2745	0.3375	0	366	121	3
2026-02-12	14:38:20.390	-55.685	-47.74	-12.005	0.479704	0.3355	0.16714	-0.0225	-0.2805	0.3345	0	366	121	3
2026-02-12	14:38:20.410	-21.63	-44.625	0.42	0.89426	0.118584	0.070028	-0.021	-0.2775	0.33	0	363	101	3
2026-02-12	14:38:20.430	82.565	-31.325	13.825	1.230492	0.380396	0.00366	-0.021	-0.27	0.3345	0	363	101	3
2026-02-12	14:38:20.450	126.14	-23.975	16.485	1.317112	0.692472	0.099308	-0.021	-0.27	0.3465	0	363	101	3
2026-02-12	14:38:20.470	61.53	-30.24	18.76	1.322724	0.472872	-0.132736	-0.018	-0.2715	0.3615	0	363	101	3
2026-02-12	14:38:20.490	39.06	-32.935	30.03	1.200724	0.539728	-0.20374	-0.0225	-0.27	0.375	0	363	101	3
2026-02-12	14:38:20.510	25.165	-36.505	39.69	1.075796	0.742736	-0.144204	-0.033	-0.2655	0.3825	0	363	101	3
2026-02-12	14:38:20.530	1.96	-41.265	45.255	1.019676	0.849608	-0.145668	-0.039	-0.2625	0.387	0	363	101	3
2026-02-12	14:38:20.550	-22.05	-45.5	47.635	1.030412	0.815448	-0.19642	-0.036	-0.261	0.4005	0	363	101	3
2026-02-12	14:38:20.570	-40.81	-50.995	50.19	1.019432	0.599264	-0.253516	-0.039	-0.264	0.393	0	363	101	3
2026-02-12	14:38:20.590	-27.405	-53.865	53.27	0.986004	0.59048	-0.24034	-0.0495	-0.258	0.39	0	363	101	3
2026-02-12	14:38:20.610	-19.88	-53.9	60.165	0.893528	0.541192	-0.154208	-0.0495	-0.258	0.39	0	367	76	3
2026-02-12	14:38:20.630	-15.47	-50.855	64.225	0.826672	0.5063	-0.130784	-0.063	-0.246	0.396	0	367	76	3
2026-02-12	14:38:20.650	-18.655	-48.65	67.48	0.762988	0.480924	-0.192272	-0.0735	-0.234	0.402	0	367	76	3
2026-02-12	14:38:20.670	-31.15	-50.26	69.37	0.706136	0.366732	-0.24034	-0.075	-0.2295	0.4035	0	367	76	3
2026-02-12	14:38:20.690	-34.685	-52.955	70.98	0.682956	0.243512	-0.219112	-0.087	-0.222	0.4065	0	367	76	3
2026-02-12	14:38:20.710	-24.08	-52.64	73.36	0.682956	0.239364	-0.120048	-0.0945	-0.216	0.408	0	367	76	3
2026-02-12	14:38:20.730	-15.575	-47.32	73.255	0.68808	0.299632	-0.025864	-0.1005	-0.2115	0.4125	0	367	76	3
2026-02-12	14:38:20.750	-16.45	-40.775	69.09	0.701744	0.311344	-0.048556	-0.105	-0.2055	0.4125	0	367	76	3
2026-02-12	14:38:20.770	-12.6	-35.28	62.93	0.718336	0.241316	-0.156648	-0.1065	-0.195	0.414	0	367	76	3
2026-02-12	14:38:20.790	-1.26	-31.01	58.485	0.756156	0.226188	-0.2074	-0.114	-0.1875	0.42	0	367	76	3
2026-02-12	14:38:20.810	9.555	-27.545	54.6	0.798124	0.235948	-0.215208	-0.1215	-0.1815	0.426	0	371	76	3
2026-02-12	14:38:20.830	18.06	-23.555	51.275	0.864492	0.267424	-0.223748	-0.1305	-0.174	0.4305	0	371	76	3
2026-02-12	14:38:20.850	18.655	-17.43	50.54	0.98454	0.331108	-0.21716	-0.138	-0.1665	0.435	0	371	76	3
2026-02-12	14:38:20.870	28.98	-3.08	48.16	1.084336	0.38186	-0.208376	-0.1395	-0.165	0.438	0	371	76	3
2026-02-12	14:38:20.890	41.475	11.76	44.345	1.144116	0.527284	-0.247416	-0.1395	-0.165	0.438	0	371	76	3
2026-02-12	14:38:20.910	27.545	20.545	41.51	1.221708	0.55876	-0.292068	-0.15	-0.1455	0.441	0	371	76	3
2026-02-12	14:38:20.930	11.83	28.105	37.45	1.325408	0.507764	-0.293776	-0.156	-0.144	0.435	0	371	76	3
2026-02-12	14:38:20.950	2.8	34.3	32.725	1.382504	0.343796	-0.292556	-0.162	-0.1365	0.4455	0	371	76	3
2026-02-12	14:38:20.970	13.965	41.23	28.665	1.506212	0.284016	-0.306952	-0.1635	-0.1335	0.4485	0	371	76	3
2026-02-12	14:38:20.990	33.46	47.81	24.745	1.5311	0.282064	-0.311832	-0.165	-0.1305	0.438	0	371	76	3
2026-02-12	14:38:21.010	38.115	48.825	17.675	1.497184	0.2623	-0.244488	-0.171	-0.117	0.435	0	373	98	3
2026-02-12	14:38:21.030	25.69	42.28	6.685	1.38104	0.146888	-0.142984	-0.18	-0.12	0.4275	0	373	98	3
2026-02-12	14:38:21.050	9.835	34.055	-4.725	1.22488	0.020984	-0.088084	-0.168	-0.1155	0.4275	0	373	98	3
2026-02-12	14:38:21.070	5.95	29.26	-18.48	1.169492	-0.000488	-0.019764	-0.1785	-0.1215	0.4185	0	373	98	3
2026-02-12	14:38:21.090	16.52	29.715	-37.73	1.178764	0.150792	0.027816	-0.174	-0.117	0.417	0	373	98	3
2026-02-12	14:38:21.110	14.805	31.85	-58.625	1.203408	0.301828	0.019276	-0.174	-0.117	0.4155	0	373	98	3
2026-02-12	14:38:21.130	-0.98	35.315	-83.615	1.126548	0.37332	-0.101992	-0.171	-0.1245	0.4155	0	373	98	3
2026-02-12	14:38:21.150	5.32	34.405	-109.655	1.045052	0.341356	-0.181536	-0.1695	-0.132	0.4185	0	373	98	3
2026-02-12	14:38:21.170	14.595	31.64	-123.9	0.970388	0.35868	-0.119316	-0.1575	-0.1515	0.4005	0	373	98	3
2026-02-12	14:38:21.190	2.17	28.035	-127.82	0.88816	0.290604	-0.112484	-0.1455	-0.174	0.399	0	373	98	3
2026-02-12	14:38:21.210	-21.385	25.025	-120.19	0.794464	0.153232	-0.093696	-0.1395	-0.1875	0.3975	0	372	119	3
2026-02-12	14:38:21.230	-47.495	23.765	-106.96	0.696376	0.129076	-0.072468	-0.129	-0.1995	0.396	0	372	119	3
2026-02-12	14:38:21.250	-65.24	24.29	-98.49	0.587064	0.177632	-0.037332	-0.1155	-0.21	0.3885	0	372	119	3
2026-02-12	14:38:21.270	-76.125	21.07	-95.235	0.567788	0.265472	0.046604	-0.099	-0.219	0.3705	0	372	119	3
2026-02-12	14:38:21.290	-75.74	22.19	-93.135	0.600728	0.211792	0.100528	-0.087	-0.225	0.3585	0	372	119	3
2026-02-12	14:38:21.310	-46.9	30.03	-91.35	0.560712	0.293776	0.045872	-0.0855	-0.2475	0.348	0	372	119	3
2026-02-12	14:38:21.330	-32.06	31.08	-89.6	0.51484	0.345992	-0.067588	-0.0705	-0.2475	0.3405	0	372	119	3
2026-02-12	14:38:21.350	-30.59	25.69	-84.875	0.456036	0.43432	-0.094916	-0.057	-0.252	0.339	0	372	119	3
2026-02-12	14:38:21.370	-42.525	15.89	-76.79	0.471164	0.426756	-0.049776	-0.051	-0.261	0.321	0	372	119	3
2026-02-12	14:38:21.390	-47.005	8.225	-67.13	0.523136	0.4453	0.043432	-0.0375	-0.2685	0.324	0	372	119	3
2026-02-12	14:38:21.410	-32.375	6.79	-51.415	0.496784	0.548512	0.169336	-0.021	-0.276	0.3165	0	371	117	3
2026-02-12	14:38:21.430	-23.31	7.385	-40.53	0.407968	0.60634	0.242536	-0.018	-0.276	0.3105	0	371	117	3
2026-02-12	14:38:21.450	-4.655	8.54	-33.04	0.309636	0.654652	0.28914	-0.015	-0.2805	0.3015	0	371	117	3
2026-02-12	14:38:21.470	21.665	6.44	-26.25	0.339648	0.77958	0.304756	-0.0165	-0.285	0.3015	0	371	117	3
2026-02-12	14:38:21.490	29.4	-1.225	-21.49	0.410408	0.861808	0.254736	-0.009	-0.282	0.3075	0	371	117	3
2026-02-12	14:38:21.510	14.56	-9.555	-16.555	0.5917	0.95038	0.307684	-0.0015	-0.2805	0.3105	0	371	117	3
2026-02-12	14:38:21.530	-12.6	-6.16	-9.59	0.838628	0.860832	0.39162	-0.006	-0.2835	0.3045	0	371	117	3
2026-02-12	14:38:21.550	36.995	-4.48	-4.235	1.097756	0.403088	0.034404	-0.0045	-0.288	0.306	0	371	117	3
2026-02-12	14:38:21.570	140.07	0.035	6.335	1.36274	0.603168	-0.00732	-0.0015	-0.2895	0.318	0	371	117	3
2026-02-12	14:38:21.590	140.105	-3.745	27.3	1.470588	0.727608	0.016104	-0.0015	-0.288	0.3315	0	371	117	3
2026-02-12	14:38:21.610	123.41	-2.205	37.415	1.262456	1.104832	0.012444	-0.006	-0.285	0.3555	0	373	82	3
2026-02-12	14:38:21.630	60.375	-9.87	41.51	1.026752	0.904508	-0.056852	-0.015	-0.2835	0.3735	0	373	82	3
2026-02-12	14:38:21.650	18.27	-19.25	46.445	0.90646	0.642452	-0.12444	-0.0225	-0.288	0.3765	0	373	82	3
2026-02-12	14:38:21.670	15.82	-23.835	50.435	0.829112	0.50264	-0.17202	-0.03	-0.2865	0.384	0	373	82	3
2026-02-12	14:38:21.690	21.385	-27.195	56	0.899628	0.465308	-0.229848	-0.0375	-0.2835	0.39	0	373	82	3
2026-02-12	14:38:21.710	21.525	-29.505	61.95	0.936472	0.48068	-0.227652	-0.0375	-0.276	0.393	0	373	82	3
2026-02-12	14:38:21.730	20.44	-31.185	66.815	0.94428	0.48922	-0.171532	-0.045	-0.27	0.396	0	373	82	3
2026-02-12	14:38:21.750	12.495	-30.66	68.18	0.944768	0.532652	-0.110044	-0.06	-0.264	0.4005	0	373	82	3
2026-02-12	14:38:21.770	-2.135	-29.155	67.585	0.88572	0.491904	-0.08052	-0.066	-0.2535	0.405	0	373	82	3
2026-02-12	14:38:21.790	-12.11	-26.46	66.57	0.80032	0.432124	-0.069296	-0.0705	-0.249	0.4095	0	373	82	3
2026-02-12	14:38:21.810	-12.775	-23.66	65.59	0.694668	0.28548	-0.131272	-0.0825	-0.246	0.411	0	377	52	3
2026-02-12	14:38:21.830	8.61	-22.05	66.43	0.603168	0.200812	-0.179584	-0.087	-0.2385	0.411	0	377	52	3
2026-02-12	14:38:21.850	34.16	-20.685	68.6	0.560224	0.26352	-0.193736	-0.093	-0.231	0.4185	0	377	52	3
2026-02-12	14:38:21.870	45.36	-18.305	68.565	0.50386	0.427488	-0.188124	-0.1035	-0.2265	0.4275	0	377	52	3
2026-02-12	14:38:21.890	37.24	-18.69	62.825	0.457744	0.550708	-0.202276	-0.1095	-0.2175	0.435	0	377	52	3
2026-02-12	14:38:21.910	20.475	-23.345	52.99	0.469212	0.582428	-0.21106	-0.117	-0.2085	0.438	0	377	52	3
2026-02-12	14:38:21.930	0.77	-29.33	42.77	0.533872	0.529236	-0.187636	-0.1245	-0.2085	0.4455	0	377	52	3
2026-02-12	14:38:21.950	-20.72	-31.78	31.85	0.694668	0.41602	-0.148108	-0.1305	-0.21	0.453	0	377	52	3
2026-02-12	14:38:21.970	-22.715	-27.685	29.015	0.767624	0.283772	-0.098088	-0.1305	-0.21	0.453	0	377	52	3
2026-02-12	14:38:21.990	-11.97	-21.875	26.985	0.827404	0.208376	-0.126148	-0.1365	-0.1935	0.4455	0	377	52	3
2026-02-12	14:38:22.010	5.845	-18.025	25.235	0.925248	0.204228	-0.196908	-0.1395	-0.1875	0.4545	0	379	55	3
2026-02-12	14:38:22.030	23.625	-14.875	23.695	1.022116	0.307684	-0.238632	-0.1365	-0.183	0.453	0	379	55	3
2026-02-12	14:38:22.050	30.555	-12.145	19.74	1.090924	0.485072	-0.239364	-0.141	-0.186	0.459	0	379	55	3
2026-02-12	14:38:22.070	16.45	-11.025	12.95	1.115568	0.63074	-0.203496	-0.135	-0.1725	0.462	0	379	55	3
2026-02-12	14:38:22.090	-10.43	-10.64	5.775	1.098	0.633424	-0.2257	-0.1485	-0.1785	0.4725	0	379	55	3
2026-02-12	14:38:22.110	-22.435	-8.715	1.96	1.07848	0.47824	-0.254004	-0.147	-0.18	0.4605	0	379	55	3
2026-02-12	14:38:22.130	-9.45	-2.45	5.6	1.046028	0.411628	-0.26108	-0.1395	-0.171	0.4695	0	379	55	3
2026-02-12	14:38:22.150	6.125	5.95	15.12	1.006744	0.4331	-0.251808	-0.144	-0.174	0.4695	0	379	55	3
2026-02-12	14:38:22.170	6.405	12.355	26.11	0.98332	0.458232	-0.253272	-0.15	-0.171	0.468	0	379	55	3
2026-02-12	14:38:22.190	-1.26	16.03	36.05	1.016504	0.394304	-0.2684	-0.1485	-0.171	0.4605	0	379	55	3
2026-02-12	14:38:22.210	-1.82	20.37	48.44	1.091168	0.300608	-0.286456	-0.156	-0.1725	0.4665	0	377	83	3
2026-02-12	14:38:22.230	13.23	24.745	57.82	1.210972	0.331596	-0.270108	-0.156	-0.1725	0.4665	0	377	83	3
2026-02-12	14:38:22.250	30.345	30.94	58.345	1.35908	0.435296	-0.252052	-0.165	-0.162	0.459	0	377	83	3
2026-02-12	14:38:22.270	38.115	42.14	53.69	1.441796	0.560224	-0.196664	-0.1755	-0.1515	0.4515	0	377	83	3
2026-02-12	14:38:22.290	31.815	50.4	43.155	1.491572	0.530456	-0.266692	-0.1785	-0.141	0.4605	0	377	83	3
2026-02-12	14:38:22.310	23.695	52.5	28.91	1.432524	0.420412	-0.297192	-0.177	-0.132	0.459	0	377	83	3
2026-02-12	14:38:22.330	7.42	44.905	16.52	1.29686	0.249612	-0.293044	-0.186	-0.132	0.45	0	377	83	3
2026-02-12	14:38:22.350	-8.47	31.22	6.65	1.195112	0.111752	-0.20374	-0.201	-0.1245	0.444	0	377	83	3
2026-02-12	14:38:22.370	-7.49	20.65	-5.845	1.138016	0.134688	-0.064172	-0.192	-0.1215	0.441	0	377	83	3
2026-02-12	14:38:22.390	-3.255	15.085	-21.28	1.117032	0.20252	0.035624	-0.198	-0.1275	0.4455	0	377	83	3
2026-02-12	14:38:22.410	-1.505	14.805	-38.115	1.108004	0.280356	0.038796	-0.198	-0.123	0.435	0	372	118	3
2026-02-12	14:38:22.430	-2.625	18.375	-55.79	1.045052	0.405528	0.0244	-0.2055	-0.132	0.4305	0	372	118	3
2026-02-12	14:38:22.450	-5.11	20.72	-75.145	0.976	0.370392	-0.019032	-0.201	-0.147	0.429	0	372	118	3
2026-02-12	14:38:22.470	1.435	21.175	-90.93	0.887672	0.349652	-0.08418	-0.183	-0.153	0.429	0	372	118	3
2026-02-12	14:38:22.490	-1.33	17.29	-102.34	0.755424	0.352336	-0.132736	-0.1845	-0.1575	0.429	0	372	118	3
2026-02-12	14:38:22.510	-28.175	13.125	-100.275	0.716628	0.356728	-0.128344	-0.174	-0.1665	0.426	0	372	118	3
2026-02-12	14:38:22.530	-82.32	8.295	-92.645	0.700768	0.327204	-0.09467199	-0.159	-0.189	0.4185	0	372	118	3
2026-02-12	14:38:22.550	-138.67	5.18	-86.275	0.665876	0.323544	-0.086376	-0.1515	-0.207	0.4065	0	372	118	3
2026-02-12	14:38:22.570	-182.805	2.94	-83.3	0.63318	0.274988	-0.08662	-0.1425	-0.213	0.39	0	372	118	3
2026-02-12	14:38:22.590	-194.355	1.155	-81.48	0.603656	0.121024	-0.116876	-0.132	-0.2265	0.369	0	372	118	3
2026-02-12	14:38:22.610	-159.355	5.74	-78.645	0.59658	-0.024156	-0.015372	-0.123	-0.243	0.345	0	366	133	3
2026-02-12	14:38:22.630	-94.71	15.785	-74.06	0.558516	0.083936	0.068808	-0.114	-0.2475	0.327	0	366	133	3
2026-02-12	14:38:22.650	-56.525	21.805	-66.71	0.520452	0.125172	0.061488	-0.1065	-0.258	0.3135	0	366	133	3
2026-02-12	14:38:22.670	-33.005	24.885	-56.595	0.535336	0.14152	0.048556	-0.0975	-0.2685	0.306	0	366	133	3
2026-02-12	14:38:22.690	-5.6	26.355	-44.31	0.560224	0.153232	0.026108	-0.09	-0.27	0.2955	0	366	133	3
2026-02-12	14:38:22.710	22.645	25.585	-30.03	0.592676	0.2135	0.035624	-0.0825	-0.27	0.2925	0	366	133	3
2026-02-12	14:38:22.730	42.14	24.22	-15.785	0.624396	0.305244	0.101504	-0.075	-0.273	0.2955	0	366	133	3
2026-02-12	14:38:22.750	55.16	23.205	-1.855	0.672708	0.4331	0.134444	-0.075	-0.276	0.297	0	366	133	3
2026-02-12	14:38:22.770	65.73	23.8	9.73	0.680272	0.540704	0.126636	-0.0735	-0.2775	0.3	0	366	133	3
2026-02-12	14:38:22.790	67.62	22.365	15.96	0.650016	0.568276	0.104188	-0.087	-0.276	0.315	0	366	133	3
2026-02-12	14:38:22.810	60.865	17.29	19.18	0.6039	0.574132	0.09272	-0.078	-0.2685	0.312	0	361	116	2
2026-02-12	14:38:22.830	52.64	9.765	20.65	0.575596	0.539728	0.106384	-0.0765	-0.2835	0.3225	0	361	116	2
2026-02-12	14:38:22.850	45.29	3.745	25.025	0.580476	0.52704	0.146156	-0.0795	-0.279	0.3285	0	361	116	2
2026-02-12	14:38:22.870	42.42	-1.19	28.245	0.625372	0.562176	0.200568	-0.087	-0.2745	0.3375	0	361	116	2
2026-02-12	14:38:22.890	46.62	-3.115	28.875	0.728584	0.732488	0.249856	-0.093	-0.273	0.342	0	361	116	2
2026-02-12	14:38:22.910	51.065	-4.55	18.305	0.781776	0.877912	0.19642	-0.093	-0.267	0.345	0	361	116	2
2026-02-12	14:38:22.930	51.345	-3.955	5.74	0.838628	0.910852	0.182512	-0.09	-0.2595	0.354	0	361	116	2
2026-02-12	14:38:22.950	52.57	-3.885	-7	0.89792	0.930128	0.167384	-0.093	-0.2685	0.36	0	361	116	2
2026-02-12	14:38:22.970	57.365	-2.765	-20.93	0.904264	0.948672	0.09272	-0.0945	-0.2715	0.366	0	361	116	2
2026-02-12	14:38:22.990	54.53	-3.465	-31.36	0.908168	0.943548	0.08784	-0.0945	-0.2685	0.372	0	361	116	2
2026-02-12	14:38:23.010	38.99	-3.99	-36.365	1.030412	0.942572	0.201788	-0.0945	-0.27	0.3765	0	357	72	3
2026-02-12	14:38:23.030	23.31	2.345	-36.12	1.084092	0.96136	0.030256	-0.093	-0.27	0.3825	0	357	72	3
2026-02-12	14:38:23.050	7.63	4.97	-34.16	1.133868	0.807884	0.070516	-0.093	-0.27	0.3825	0	357	72	3
2026-02-12	14:38:23.070	-9.1	3.605	-27.02	1.262456	0.45384	0.006588	-0.072	-0.282	0.3945	0	357	72	3
2026-02-12	14:38:23.090	24.815	5.32	-22.855	1.277096	0.356484	-0.089548	-0.0735	-0.282	0.384	0	357	72	3
2026-02-12	14:38:23.110	38.535	5.775	-19.39	1.15778	0.43676	-0.028548	-0.0735	-0.288	0.3945	0	357	72	3
2026-02-12	14:38:23.130	14.315	6.58	-18.48	1.037488	0.382836	0.054412	-0.063	-0.288	0.396	0	357	72	3
2026-02-12	14:38:23.150	-0.595	12.11	-15.505	0.92842	0.254736	0.054656	-0.0645	-0.291	0.4065	0	357	72	3
2026-02-12	14:38:23.170	4.2	19.25	-5.32	0.797636	0.119072	0.036844	-0.063	-0.297	0.399	0	357	72	3
2026-02-12	14:38:23.190	23.275	22.225	9.275	0.690032	0.156404	-0.046116	-0.066	-0.2925	0.408	0	357	72	3
2026-02-12	14:38:23.210	45.955	22.785	24.185	0.679296	0.236924	-0.143472	-0.069	-0.2865	0.3975	0	356	30	3
2026-02-12	14:38:23.230	78.61	20.23	36.995	0.793976	0.410652	-0.197152	-0.078	-0.291	0.4005	0	356	30	3
2026-02-12	14:38:23.250	93.52	17.465	45.57	0.881084	0.615612	-0.243756	-0.0675	-0.2895	0.4185	0	356	30	3
2026-02-12	14:38:23.270	77.315	12.74	48.265	0.878888	0.710772	-0.235216	-0.069	-0.2775	0.423	0	356	30	3
2026-02-12	14:38:23.290	45.22	7.665	46.41	0.864248	0.525332	-0.13054	-0.084	-0.264	0.435	0	356	30	3
2026-02-12	14:38:23.310	40.005	9.59	45.5	0.868152	0.2989	-0.08052	-0.084	-0.264	0.435	0	356	30	3
2026-02-12	14:38:23.330	60.725	14.175	47.635	0.856928	0.19032	-0.1098	-0.0915	-0.258	0.4395	0	356	30	3
2026-02-12	14:38:23.350	90.16	18.095	50.05	0.85888	0.255224	-0.166408	-0.1065	-0.2475	0.45	0	356	30	3
2026-02-12	14:38:23.370	103.88	17.605	50.54	0.88938	0.351848	-0.233508	-0.111	-0.237	0.4665	0	356	30	3
2026-02-12	14:38:23.390	101.255	16.87	48.405	0.979904	0.454816	-0.213256	-0.111	-0.231	0.4785	0	356	30	3
2026-02-12	14:38:23.410	91.7	18.55	41.545	0.91988	0.437736	-0.156404	-0.117	-0.237	0.4755	0	356	21	3
2026-02-12	14:38:23.430	91.56	21.175	31.64	0.893284	0.42334	-0.130784	-0.1305	-0.216	0.4905	0	356	21	3
2026-02-12	14:38:23.450	94.815	25.585	22.505	0.851804	0.452864	-0.10736	-0.1365	-0.2055	0.4965	0	356	21	3
2026-02-12	14:38:23.470	92.82	28.875	14.035	0.818132	0.518744	-0.104676	-0.141	-0.1965	0.498	0	356	21	3
2026-02-12	14:38:23.490	80.115	29.575	6.3	0.786656	0.56364	-0.12444	-0.141	-0.192	0.51	0	356	21	3
2026-02-12	14:38:23.510	62.125	28.21	0.315	0.765184	0.553148	-0.163724	-0.1485	-0.1845	0.519	0	356	21	3
2026-02-12	14:38:23.530	51.73	26.565	-3.85	0.769576	0.577548	-0.180316	-0.1425	-0.1905	0.528	0	356	21	3
2026-02-12	14:38:23.550	50.61	25.515	-8.855	0.765428	0.68808	-0.188368	-0.1425	-0.189	0.5265	0	356	21	3
2026-02-12	14:38:23.570	26.04	22.82	-16.205	0.74054	0.728096	-0.130296	-0.1515	-0.1815	0.5295	0	356	21	3
2026-02-12	14:38:23.590	1.155	21.91	-16.38	0.790804	0.663924	-0.129564	-0.1515	-0.1815	0.528	0	356	21	3
2026-02-12	14:38:23.610	-12.985	23.205	-11.235	0.865468	0.576328	-0.14762	-0.1515	-0.18	0.5235	0	351	41	3
2026-02-12	14:38:23.630	-16.275	27.825	-2.415	0.935252	0.520208	-0.12322	-0.1515	-0.18	0.519	0	351	41	3
2026-02-12	14:38:23.650	-10.08	32.9	4.27	0.99186	0.4209	-0.082472	-0.1515	-0.1815	0.5145	0	351	41	3
2026-02-12	14:38:23.670	11.27	35.245	8.26	1.199748	0.404064	-0.066124	-0.1515	-0.1815	0.51	0	351	41	3
2026-02-12	14:38:23.690	45.115	44.905	5.88	1.337852	0.429928	-0.026352	-0.153	-0.183	0.507	0	351	41	3
2026-02-12	14:38:23.710	80.92	63.07	-2.065	1.338584	0.326228	-0.033916	-0.1545	-0.1815	0.507	0	351	41	3
2026-02-12	14:38:23.730	139.09	81.41	-10.99	1.20048	0.32208	-0.08295999	-0.1575	-0.1785	0.507	0	351	41	3
2026-02-12	14:38:23.750	185.535	84.98	-16.065	1.044808	0.325984	-0.181536	-0.162	-0.1755	0.51	0	351	41	3
2026-02-12	14:38:23.770	191.415	77.595	-20.79	0.968924	0.59414	-0.174704	-0.1635	-0.1695	0.5235	0	351	41	3
2026-02-12	14:38:23.790	146.37	60.41	-27.125	1.010648	0.563152	-0.146888	-0.168	-0.1635	0.5295	0	351	41	3
2026-02-12	14:38:23.810	96.635	44.38	-31.605	1.067012	0.421144	-0.01952	-0.171	-0.156	0.531	0	343	64	3
2026-02-12	14:38:23.830	56.945	28.7	-39.27	1.167052	0.229116	0.111264	-0.1695	-0.1515	0.5355	0	343	64	3
2026-02-12	14:38:23.850	37.345	20.195	-48.65	1.338096	0.121756	0.173972	-0.168	-0.15	0.5355	0	343	64	3
2026-02-12	14:38:23.870	36.015	24.43	-52.395	1.36396	0.05368	0.111264	-0.1605	-0.147	0.5385	0	343	64	3
2026-02-12	14:38:23.890	55.755	36.995	-54.32	1.225612	0.21838	0.029036	-0.1695	-0.1545	0.5445	0	343	64	3
2026-02-12	14:38:23.910	71.015	47.285	-57.96	1.03822	0.49776	-0.058804	-0.162	-0.159	0.5385	0	343	64	3
2026-02-12	14:38:23.930	66.605	48.825	-69.93	0.840336	0.708332	-0.15494	-0.1575	-0.171	0.5445	0	343	64	3
2026-02-12	14:38:23.950	38.255	40.495	-82.215	0.757132	0.70394	-0.187392	-0.1485	-0.171	0.5385	0	343	64	3
2026-02-12	14:38:23.970	14.07	30.59	-93.275	0.714432	0.587064	-0.122244	-0.147	-0.1755	0.543	0	343	64	3
2026-02-12	14:38:23.990	-4.305	24.955	-92.855	0.7137	0.435296	-0.020008	-0.1455	-0.1785	0.5415	0	343	64	3
2026-02-12	14:38:24.010	-13.055	25.445	-86.065	0.72468	0.398208	0.076372	-0.1395	-0.1875	0.5385	0	333	71	3
2026-02-12	14:38:24.030	-20.055	30.87	-74.795	0.733708	0.32452	0.122	-0.1335	-0.1995	0.531	0	333	71	3
2026-02-12	14:38:24.050	-14.63	37.94	-64.225	0.721264	0.304268	0.070516	-0.1245	-0.2115	0.522	0	333	71	3
2026-02-12	14:38:24.070	3.08	43.4	-55.545	0.683688	0.336232	0.040992	-0.117	-0.2175	0.519	0	333	71	3
2026-02-12	14:38:24.090	25.865	45.255	-49.595	0.658312	0.501176	0.026352	-0.117	-0.222	0.5145	0	333	71	3
2026-02-12	14:38:24.110	28.42	39.41	-44.17	0.580232	0.730292	-0.00244	-0.117	-0.225	0.5115	0	333	71	3
2026-02-12	14:38:24.130	13.545	30.905	-44.1	0.545828	0.78568	-0.014152	-0.1125	-0.2355	0.51	0	333	71	3
2026-02-12	14:38:24.150	6.09	21.945	-44.66	0.477264	0.734196	-0.01708	-0.1035	-0.2385	0.513	0	333	71	3
2026-02-12	14:38:24.170	4.865	14.35	-44.1	0.422364	0.72956	0.018788	-0.0975	-0.2415	0.5115	0	333	71	3
2026-02-12	14:38:24.190	-0.35	9.03	-41.3	0.424316	0.734928	0.066612	-0.0945	-0.2505	0.5085	0	333	71	3
2026-02-12	14:38:24.210	-5.845	5.67	-38.99	0.39894	0.75152	0.092232	-0.0945	-0.252	0.51	0	326	60	3
2026-02-12	14:38:24.230	-7.455	2.87	-37.765	0.403088	0.793	0.072224	-0.084	-0.2505	0.504	0	326	60	3
2026-02-12	14:38:24.250	-2.485	-1.225	-37.24	0.421144	0.76982	0.068076	-0.078	-0.2625	0.501	0	326	60	3
2026-02-12	14:38:24.270	6.02	-5.495	-33.705	0.475068	0.761036	0.084668	-0.078	-0.2625	0.4965	0	326	60	3
2026-02-12	14:38:24.290	9.8	-8.715	-24.955	0.544852	0.780312	0.115656	-0.072	-0.27	0.501	0	326	60	3
2026-02-12	14:38:24.310	7.385	-9.73	-13.195	0.588772	0.811544	0.121268	-0.0675	-0.2655	0.495	0	326	60	3
2026-02-12	14:38:24.330	7.175	-10.99	-4.06	0.715652	0.857904	0.19032	-0.0735	-0.264	0.504	0	326	60	3
2026-02-12	14:38:24.350	16.275	-5.565	-1.4	0.926468	1.110444	0.276696	-0.063	-0.27	0.507	0	326	60	3
2026-02-12	14:38:24.370	31.01	11.025	-9.73	1.142164	1.098976	0.146888	-0.0675	-0.267	0.507	0	326	60	3
2026-02-12	14:38:24.390	53.445	17.745	-7.665	1.105808	0.713944	-0.11956	-0.069	-0.2655	0.513	0	326	60	3
2026-02-12	14:38:24.410	65.905	17.92	9.38	0.987224	0.732488	-0.055876	-0.066	-0.267	0.519	0	323	36	3
2026-02-12	14:38:24.430	49.385	13.265	25.41	0.904508	0.768356	0.000488	-0.0675	-0.2595	0.528	0	323	36	3
2026-02-12	14:38:24.450	36.54	12.635	37.275	0.808128	0.746152	0.043188	-0.069	-0.2505	0.5325	0	323	36	3
2026-02-12	14:38:24.470	25.445	12.495	47.32	0.76006	0.683688	0.035624	-0.069	-0.246	0.5325	0	323	36	3
2026-02-12	14:38:24.490	19.53	11.725	54.915	0.75518	0.515084	-0.040016	-0.0825	-0.2385	0.534	0	323	36	3
2026-02-12	14:38:24.510	28.385	11.13	63.595	0.843264	0.423584	-0.117852	-0.096	-0.2325	0.534	0	323	36	3
2026-02-12	14:38:24.530	43.75	8.75	73.465	0.92842	0.502884	-0.16104	-0.1035	-0.225	0.5385	0	323	36	3
2026-02-12	14:38:24.550	38.535	2.275	79.73	0.964044	0.638548	-0.191052	-0.1065	-0.2205	0.5445	0	323	36	3
2026-02-12	14:38:24.570	17.64	-6.825	80.01	0.975512	0.666364	-0.242048	-0.108	-0.219	0.555	0	323	36	3
2026-02-12	14:38:24.590	-0.84	-14.91	80.115	0.962824	0.576572	-0.2928	-0.12	-0.2055	0.555	0	323	36	3
2026-02-12	14:38:24.610	-7.98	-18.865	81.725	0.875472	0.502396	-0.253272	-0.1245	-0.1905	0.5565	0	322	21	3
2026-02-12	14:38:24.630	-5.285	-21.805	83.44	0.756888	0.504592	-0.206668	-0.1395	-0.1815	0.561	0	322	21	3
2026-02-12	14:38:24.650	-4.165	-26.46	84.525	0.660996	0.466772	-0.185684	-0.1395	-0.1815	0.561	0	322	21	3
2026-02-12	14:38:24.670	-10.99	-29.4	85.33	0.614392	0.402844	-0.172752	-0.1455	-0.1665	0.5625	0	322	21	3
2026-02-12	14:38:24.690	-4.725	-30.59	85.785	0.601216	0.337452	-0.144692	-0.1575	-0.1455	0.5685	0	322	21	3
2026-02-12	14:38:24.710	3.885	-28.28	85.715	0.608292	0.381616	-0.076616	-0.162	-0.1365	0.573	0	322	21	3
2026-02-12	14:38:24.730	5.985	-25.27	83.02	0.672464	0.376492	-0.071004	-0.171	-0.126	0.5745	0	322	21	3
2026-02-12	14:38:24.750	11.97	-21.14	77.035	0.70272	0.388936	-0.095648	-0.171	-0.1125	0.5775	0	322	21	3
2026-02-12	14:38:24.770	11.83	-20.37	69.825	0.710528	0.35258	-0.142252	-0.1695	-0.105	0.5865	0	322	21	3
2026-02-12	14:38:24.790	12.74	-20.755	62.79	0.731756	0.307928	-0.172996	-0.174	-0.0945	0.5925	0	322	21	3
2026-02-12	14:38:24.810	13.265	-21.245	57.085	0.804468	0.306464	-0.161772	-0.1755	-0.084	0.5925	0	320	33	3
2026-02-12	14:38:24.830	9.66	-19.985	52.885	0.856684	0.329888	-0.141764	-0.174	-0.0735	0.594	0	320	33	3
2026-02-12	14:38:24.850	8.68	-18.34	46.97	0.904508	0.321836	-0.161772	-0.177	-0.0675	0.597	0	320	33	3
2026-02-12	14:38:24.870	19.425	-15.75	40.425	0.934276	0.317932	-0.181292	-0.183	-0.0645	0.6015	0	320	33	3
2026-02-12	14:38:24.890	26.95	-10.01	33.845	0.975756	0.428464	-0.149328	-0.1815	-0.057	0.6075	0	320	33	3
2026-02-12	14:38:24.910	17.115	-2.555	23.31	1.030168	0.498492	-0.18666	-0.183	-0.0555	0.612	0	320	33	3
2026-02-12	14:38:24.930	9.38	3.955	14.945	1.037976	0.47214	-0.26962	-0.183	-0.0555	0.612	0	320	33	3
2026-02-12	14:38:24.950	10.08	8.82	12.04	1.090924	0.4636	-0.297192	-0.1905	-0.039	0.6135	0	320	33	3
2026-02-12	14:38:24.970	11.375	14.805	12.32	1.139724	0.390156	-0.32696	-0.1845	-0.0405	0.6135	0	320	33	3
2026-02-12	14:38:24.990	16.52	21.525	14.525	1.158756	0.357704	-0.324032	-0.1875	-0.0315	0.606	0	320	33	3
2026-02-12	14:38:25.010	25.27	25.62	16.415	1.209264	0.29646	-0.318176	-0.1905	-0.0345	0.609	0	317	65	2
2026-02-12	14:38:25.030	34.195	30.03	19.705	1.236592	0.274988	-0.29036	-0.189	-0.0315	0.609	0	317	65	2
2026-02-12	14:38:25.050	39.725	33.46	22.05	1.2749	0.304756	-0.272548	-0.2025	-0.021	0.609	0	317	65	2
2026-02-12	14:38:25.070	37.625	35.735	22.75	1.296616	0.321836	-0.212768	-0.198	-0.015	0.597	0	317	65	2
2026-02-12	14:38:25.090	32.375	38.71	20.335	1.350052	0.339892	-0.184952	-0.2025	-0.0135	0.6015	0	317	65	2
2026-02-12	14:38:25.110	23.03	43.085	16.695	1.3908	0.36356	-0.191784	-0.21	0.0015	0.597	0	317	65	2
2026-02-12	14:38:25.130	6.615	45.43	12.495	1.328092	0.210572	-0.191296	-0.2145	-0.006	0.594	0	317	65	2
2026-02-12	14:38:25.150	0.385	43.365	4.97	1.21878	0.023668	-0.149328	-0.2145	-0.003	0.588	0	317	65	2
2026-02-12	14:38:25.170	13.685	33.775	-12.81	1.181936	-0.020984	0.044652	-0.216	0.003	0.582	0	317	65	2
2026-02-12	14:38:25.190	41.965	31.535	-36.54	1.201944	0.111996	0.317688	-0.216	0.006	0.5805	0	317	65	2
2026-02-12	14:38:25.210	58.66	38.045	-56.525	1.238056	0.213256	0.256444	-0.2295	0.003	0.57	0	314	99	3
2026-02-12	14:38:25.230	52.78	44.345	-71.75	1.20292	0.30622	0.072712	-0.2265	-0.0045	0.5745	0	314	99	3
2026-02-12	14:38:25.250	23.135	45.92	-80.36	1.149484	0.310368	-0.058804	-0.2205	-0.0105	0.567	0	314	99	3
2026-02-12	14:38:25.270	-5.215	42.455	-85.645	1.1163	0.2623	-0.104188	-0.222	-0.0165	0.5595	0	314	99	3
2026-02-12	14:38:25.290	-9.975	38.605	-90.545	1.009184	0.17202	-0.094916	-0.2265	-0.036	0.5445	0	314	99	3
2026-02-12	14:38:25.310	2.205	35.63	-92.89	0.89304	0.127856	-0.083936	-0.2205	-0.051	0.552	0	314	99	3
2026-02-12	14:38:25.330	18.55	36.26	-89.04	0.76982	0.11102	-0.030988	-0.219	-0.0525	0.537	0	314	99	3
2026-02-12	14:38:25.350	28.875	40.32	-81.445	0.676368	0.173972	0.006344	-0.219	-0.0705	0.5355	0	314	99	3
2026-02-12	14:38:25.370	28.945	44.24	-76.475	0.59658	0.233996	0.036112	-0.2055	-0.072	0.537	0	314	99	3
2026-02-12	14:38:25.390	26.145	45.955	-77.035	0.5429	0.260348	0.044164	-0.213	-0.0885	0.5205	0	314	99	3
2026-02-12	14:38:25.410	21.735	45.045	-77.49	0.509228	0.274988	0.036356	-0.204	-0.099	0.5205	0	314	105	3
2026-02-12	14:38:25.430	15.785	41.755	-75.285	0.502152	0.270596	-0.001708	-0.2115	-0.102	0.519	0	314	105	3
2026-02-12	14:38:25.450	9.87	34.615	-66.85	0.523868	0.365512	-0.016104	-0.198	-0.117	0.5175	0	314	105	3
2026-02-12	14:38:25.470	3.29	28.945	-61.39	0.51728	0.417728	-0.035624	-0.1935	-0.1215	0.51	0	314	105	3
2026-02-12	14:38:25.490	0.175	22.365	-57.785	0.533384	0.506056	-0.022936	-0.1875	-0.1305	0.5025	0	314	105	3
2026-02-12	14:38:25.510	-1.54	16.8	-54.95	0.559736	0.545828	0.000244	-0.1845	-0.1425	0.504	0	314	105	3
2026-02-12	14:38:25.530	0.42	12.67	-49.21	0.574864	0.600972	0.07076	-0.1845	-0.1545	0.4995	0	314	105	3
2026-02-12	14:38:25.550	8.68	8.925	-43.715	0.537288	0.701744	0.192516	-0.183	-0.1575	0.492	0	314	105	3
2026-02-12	14:38:25.570	10.5	5.635	-39.375	0.482632	0.76616	0.232532	-0.18	-0.1575	0.4935	0	314	105	3
2026-02-12	14:38:25.590	9.8	0.21	-35	0.485316	0.810324	0.210084	-0.1755	-0.1635	0.4965	0	314	105	3
2026-02-12	14:38:25.610	10.5	-6.79	-29.47	0.53436	0.842532	0.142496	-0.1695	-0.168	0.495	0	316	84	2
2026-02-12	14:38:25.630	13.72	-11.795	-24.395	0.6893	0.92598	0.179096	-0.1635	-0.171	0.4965	0	316	84	2
2026-02-12	14:38:25.650	-0.035	-13.09	-21.35	0.925248	1.038708	0.4026	-0.165	-0.171	0.4995	0	316	84	2
2026-02-12	14:38:25.670	-7.49	-6.475	-18.9	0.978684	0.517036	0.214476	-0.165	-0.177	0.498	0	316	84	2
2026-02-12	14:38:25.690	56.385	8.855	-2.905	1.082628	0.446276	-0.072712	-0.162	-0.1785	0.504	0	316	84	2
2026-02-12	14:38:25.710	85.295	7.385	23.52	1.142164	0.51362	-0.056364	-0.165	-0.177	0.51	0	316	84	2
2026-02-12	14:38:25.730	74.165	-0.945	36.645	1.067256	0.882548	0.017324	-0.165	-0.177	0.51	0	316	84	2
2026-02-12	14:38:25.750	28.385	-13.405	32.025	0.906216	0.83326	-0.052216	-0.165	-0.162	0.5175	0	316	84	2
2026-02-12	14:38:25.770	-14.245	-24.57	28.245	0.818132	0.5002	-0.065636	-0.1665	-0.1485	0.528	0	316	84	2
2026-02-12	14:38:25.790	-19.635	-28.385	29.96	0.800076	0.407236	-0.071736	-0.1695	-0.1485	0.534	0	316	84	2
2026-02-12	14:38:25.810	-11.865	-29.4	35.595	0.828136	0.469212	-0.101016	-0.171	-0.1425	0.5325	0	323	48	3
2026-02-12	14:38:25.830	-10.36	-30.205	41.16	0.937448	0.548512	-0.13786	-0.1725	-0.1395	0.5355	0	323	48	3
2026-02-12	14:38:25.850	-18.655	-31.01	44.73	1.018944	0.553636	-0.199348	-0.1725	-0.138	0.5385	0	323	48	3
2026-02-12	14:38:25.870	-25.9	-29.785	50.015	1.03944	0.495076	-0.267668	-0.1755	-0.1335	0.5415	0	323	48	3
2026-02-12	14:38:25.890	-18.935	-27.825	55.65	0.970144	0.425048	-0.279868	-0.1815	-0.1305	0.5445	0	323	48	3
2026-02-12	14:38:25.910	-3.92	-25.48	62.16	0.837652	0.426756	-0.19886	-0.1815	-0.1275	0.546	0	323	48	3
2026-02-12	14:38:25.930	0.945	-24.955	67.97	0.752984	0.456524	-0.13176	-0.1815	-0.12	0.555	0	323	48	3
2026-02-12	14:38:25.950	-3.43	-24.535	72.555	0.675148	0.465064	-0.088328	-0.183	-0.1095	0.558	0	323	48	3
2026-02-12	14:38:25.970	-15.995	-26.32	75.88	0.607804	0.413336	-0.110288	-0.186	-0.102	0.558	0	323	48	3
2026-02-12	14:38:25.990	-17.5	-31.115	74.515	0.641964	0.366488	-0.114924	-0.189	-0.099	0.5595	0	323	48	3
2026-02-12	14:38:26.010	-18.445	-33.495	68.95	0.659776	0.357704	-0.084668	-0.189	-0.099	0.5595	0	328	37	3
2026-02-12	14:38:26.030	-23.38	-34.335	63.385	0.709064	0.303292	-0.04758	-0.1905	-0.0615	0.5715	0	328	37	3
2026-02-12	14:38:26.050	-24.115	-31.85	57.33	0.766404	0.245464	-0.026596	-0.201	-0.063	0.5745	0	328	37	3
2026-02-12	14:38:26.070	-17.01	-26.425	50.89	0.81496	0.185928	-0.044896	-0.1995	-0.0555	0.573	0	328	37	3
2026-02-12	14:38:26.090	-5.18	-20.16	45.325	0.832528	0.188124	-0.09028	-0.2025	-0.048	0.579	0	328	37	3
2026-02-12	14:38:26.110	4.095	-16.485	40.18	0.877424	0.19276	-0.13298	-0.195	-0.0375	0.579	0	328	37	3
2026-02-12	14:38:26.130	23.135	-13.195	34.965	0.92354	0.248392	-0.135908	-0.204	-0.042	0.5865	0	328	37	3
2026-02-12	14:38:26.150	39.2	-6.86	29.96	0.915976	0.403088	-0.09028	-0.192	-0.03	0.5835	0	328	37	3
2026-02-12	14:38:26.170	35.56	-0.91	23.555	0.889868	0.530944	-0.07442	-0.195	-0.021	0.594	0	328	37	3
2026-02-12	14:38:26.190	18.06	0.315	15.855	0.926956	0.6649	-0.091012	-0.2025	-0.0195	0.588	0	328	37	3
2026-02-12	14:38:26.210	-9.975	-0.525	10.01	0.998936	0.66002	-0.14518	-0.1995	-0.0135	0.5985	0	329	46	3
2026-02-12	14:38:26.230	-27.265	0.105	7.035	1.044564	0.526064	-0.20008	-0.207	-0.009	0.594	0	329	46	3
2026-02-12	14:38:26.250	-14.315	1.715	5.985	1.113616	0.483852	-0.214476	-0.2055	-0.012	0.5895	0	329	46	3
2026-02-12	14:38:26.270	1.295	9.45	9.205	1.145336	0.445544	-0.179096	-0.2055	-0.012	0.5895	0	329	46	3
2026-02-12	14:38:26.290	-2.31	15.82	15.61	1.193404	0.374296	-0.15372	-0.201	-0.0105	0.5865	0	329	46	3
2026-02-12	14:38:26.310	-11.375	20.685	24.465	1.2383	0.301828	-0.154696	-0.2025	-0.003	0.588	0	329	46	3
2026-02-12	14:38:26.330	-15.33	23.275	31.78	1.34078	0.293288	-0.103944	-0.21	-0.0015	0.585	0	329	46	3
2026-02-12	14:38:26.350	-19.215	24.955	37.555	1.453508	0.32696	-0.099796	-0.213	-0.003	0.585	0	329	46	3
2026-02-12	14:38:26.370	-14.49	27.125	38.675	1.488644	0.44408	-0.171532	-0.207	-0.0015	0.579	0	329	46	3
2026-02-12	14:38:26.390	-9.835	26.355	30.1	1.461316	0.490928	-0.229604	-0.2115	0.0015	0.573	0	329	46	3
2026-02-12	14:38:26.410	-6.02	23.52	19.915	1.380064	0.394792	-0.194224	-0.219	0.0015	0.567	0	327	66	3
2026-02-12	14:38:26.430	-8.12	20.44	8.47	1.241472	0.275232	-0.10858	-0.2175	0.015	0.567	0	327	66	3
2026-02-12	14:38:26.450	-9.765	20.09	-4.585	1.11142	0.104188	0.014152	-0.216	0.0075	0.558	0	327	66	3
2026-02-12	14:38:26.470	-2.555	21.665	-20.51	1.065792	0.052948	0.103212	-0.222	0.0075	0.564	0	327	66	3
2026-02-12	14:38:26.490	10.465	26.145	-40.145	1.118984	0.149084	0.122488	-0.2295	0.003	0.564	0	327	66	3
2026-02-12	14:38:26.510	21.07	32.305	-58.87	1.130452	0.27572	0.066612	-0.2175	0.0045	0.5505	0	327	66	3
2026-02-12	14:38:26.530	5.95	39.83	-80.675	1.084824	0.416264	0.009272	-0.231	-0.003	0.5505	0	327	66	3
2026-02-12	14:38:26.550	-14.28	42.84	-90.72	1.082872	0.407236	0.0122	-0.222	-0.015	0.546	0	327	66	3
2026-02-12	14:38:26.570	-19.005	44.8	-99.75	1.043344	0.355508	-0.012688	-0.219	-0.03	0.5355	0	327	66	3
2026-02-12	14:38:26.590	-18.27	44.38	-103.88	0.939644	0.304024	-0.062464	-0.2235	-0.045	0.525	0	327	66	3
2026-02-12	14:38:26.610	-23.8	41.265	-101.045	0.813008	0.254248	-0.052948	-0.2205	-0.0615	0.519	0	324	75	3
2026-02-12	14:38:26.630	-24.71	39.445	-97.965	0.732	0.305732	-0.006832	-0.2145	-0.072	0.5115	0	324	75	3
2026-02-12	14:38:26.650	-31.045	36.575	-96.53	0.668804	0.331596	0.072712	-0.2085	-0.09	0.4995	0	324	75	3
2026-02-12	14:38:26.670	-50.435	35.945	-91.91	0.639768	0.259128	0.161772	-0.2055	-0.105	0.501	0	324	75	3
2026-02-12	14:38:26.690	-67.27	34.125	-85.82	0.614636	0.196664	0.1281	-0.1995	-0.12	0.495	0	324	75	3
2026-02-12	14:38:26.710	-58.87	30.87	-80.22	0.543632	0.152256	0.032696	-0.195	-0.1365	0.4815	0	324	75	3
2026-02-12	14:38:26.730	-30.555	24.535	-77.42	0.470676	0.214964	-0.020252	-0.1875	-0.144	0.4725	0	324	75	3
2026-02-12	14:38:26.750	-10.185	16.87	-72.52	0.45506	0.371368	0.004392	-0.1845	-0.153	0.465	0	324	75	3
2026-02-12	14:38:26.770	-16.38	6.755	-66.71	0.439932	0.452132	0.0183	-0.174	-0.168	0.462	0	324	75	3
2026-02-12	14:38:26.790	-40.355	-2.345	-59.29	0.443348	0.486292	0.07808	-0.165	-0.1755	0.456	0	324	75	3
2026-02-12	14:38:26.810	-55.545	-4.865	-51.31	0.43188	0.512888	0.182512	-0.171	-0.1755	0.453	0	321	62	3
2026-02-12	14:38:26.830	-49.875	-4.305	-45.255	0.470188	0.620004	0.264496	-0.1635	-0.183	0.45	0	321	62	3
2026-02-12	14:38:26.850	-39.235	-2.52	-41.475	0.42212	0.71858	0.370636	-0.153	-0.1965	0.4425	0	321	62	3
2026-02-12	14:38:26.870	-34.755	-4.655	-33.32	0.485072	0.730292	0.4209	-0.15	-0.207	0.4365	0	321	62	3
2026-02-12	14:38:26.890	-25.865	-9.59	-26.635	0.522648	0.661972	0.394548	-0.147	-0.21	0.4335	0	321	62	3
2026-02-12	14:38:26.910	-6.475	-13.965	-22.61	0.593164	0.725412	0.346724	-0.138	-0.2145	0.432	0	321	62	3
2026-02-12	14:38:26.930	4.795	-15.715	-21.105	0.708332	0.910608	0.409432	-0.1335	-0.216	0.435	0	321	62	3
2026-02-12	14:38:26.950	-1.225	-14.42	-18.515	0.881328	1.046028	0.549	-0.1335	-0.213	0.4425	0	321	62	3
2026-02-12	14:38:26.970	-9.59	-8.47	-12.285	0.963556	0.9089	0.511668	-0.132	-0.216	0.441	0	321	62	3
2026-02-12	14:38:26.990	13.79	-9.975	-2.065	1.077504	0.693204	0.257176	-0.126	-0.216	0.438	0	321	62	3
2026-02-12	14:38:27.010	52.535	-13.93	9.555	1.1834	0.719312	0.139568	-0.126	-0.2205	0.441	0	323	14	3
2026-02-12	14:38:27.030	72.205	-14	14.35	1.204628	0.87718	0.078568	-0.126	-0.222	0.4485	0	323	14	3
2026-02-12	14:38:27.050	58.87	-20.335	25.97	1.095072	0.820816	0.00366	-0.1275	-0.2175	0.459	0	323	14	3
2026-02-12	14:38:27.070	8.4	-29.96	34.79	0.761036	0.64904	0.000488	-0.1305	-0.216	0.4665	0	323	14	3
2026-02-12	14:38:27.090	-12.6	-39.97	37.415	0.668316	0.521184	-0.052948	-0.1335	-0.2085	0.474	0	323	14	3
2026-02-12	14:38:27.110	-23.38	-50.295	46.41	0.683688	0.46116	-0.06588	-0.1365	-0.1965	0.477	0	323	14	3
2026-02-12	14:38:27.130	-26.39	-59.29	57.61	0.735416	0.442128	-0.090524	-0.141	-0.1935	0.4755	0	323	14	3
2026-02-12	14:38:27.150	-15.61	-66.01	67.095	0.82228	0.440664	-0.13908	-0.144	-0.1845	0.477	0	323	14	3
2026-02-12	14:38:27.170	-2.03	-70.315	74.515	0.902068	0.471896	-0.160796	-0.15	-0.177	0.492	0	323	14	3
2026-02-12	14:38:27.190	4.41	-70.98	80.64	0.913048	0.512644	-0.153964	-0.15	-0.1665	0.504	0	323	14	3
2026-02-12	14:38:27.210	4.83	-65.975	86.03	0.820572	0.469456	-0.100284	-0.1665	-0.159	0.5115	0	329	31	3
2026-02-12	14:38:27.230	8.19	-59.675	87.71	0.702476	0.400892	-0.067588	-0.1575	-0.1455	0.519	0	329	31	3
2026-02-12	14:38:27.250	12.215	-55.825	87.535	0.626836	0.336964	-0.069296	-0.159	-0.1395	0.528	0	329	31	3
2026-02-12	14:38:27.270	15.925	-53.025	87.22	0.584136	0.311832	-0.087352	-0.165	-0.123	0.54	0	329	31	3
2026-02-12	14:38:27.290	18.34	-51.38	87.01	0.572912	0.346724	-0.088328	-0.1725	-0.1185	0.549	0	329	31	3
2026-02-12	14:38:27.310	18.13	-49.805	84.315	0.588528	0.41724	-0.089548	-0.1845	-0.1065	0.552	0	329	31	3
2026-02-12	14:38:27.330	6.895	-47.215	77.385	0.654164	0.470676	-0.069784	-0.171	-0.0915	0.558	0	329	31	3
2026-02-12	14:38:27.350	-8.225	-41.93	68.32	0.73688	0.47458	-0.077348	-0.1695	-0.0825	0.564	0	329	31	3
2026-02-12	14:38:27.370	-23.835	-38.29	61.075	0.78446	0.372832	-0.130052	-0.1695	-0.0735	0.5715	0	329	31	3
2026-02-12	14:38:27.390	-28.245	-37.31	55.055	0.858392	0.258152	-0.184464	-0.186	-0.0585	0.582	0	329	31	3
2026-02-12	14:38:27.410	-13.685	-35.035	51.625	0.965752	0.212036	-0.189344	-0.1755	-0.045	0.582	0	333	34	3
2026-02-12	14:38:27.430	12.95	-26.18	49.945	1.041392	0.250588	-0.133468	-0.174	-0.048	0.5805	0	333	34	3
2026-02-12	14:38:27.450	39.27	-16.135	44.24	1.102148	0.380152	-0.096136	-0.1785	-0.042	0.591	0	333	34	3
2026-02-12	14:38:27.470	46.97	-7.875	35.84	1.126792	0.55144	-0.118584	-0.171	-0.036	0.5955	0	333	34	3
2026-02-12	14:38:27.490	20.02	-3.255	29.54	1.1651	0.605608	-0.150548	-0.18	-0.0255	0.594	0	333	34	3
2026-02-12	14:38:27.510	-7.42	0.56	24.045	1.162172	0.536312	-0.201056	-0.177	-0.0135	0.606	0	333	34	3
2026-02-12	14:38:27.530	-15.295	5.145	19.46	1.139968	0.410408	-0.230336	-0.1755	-0.0105	0.6045	0	333	34	3
2026-02-12	14:38:27.550	-5.495	10.465	16.59	1.16266	0.310856	-0.232288	-0.1815	-0.012	0.6015	0	333	34	3
2026-02-12	14:38:27.570	11.97	16.1	15.4	1.268312	0.244244	-0.232044	-0.1845	-0.0105	0.5955	0	333	34	3
2026-02-12	14:38:27.590	25.41	24.325	16.73	1.307108	0.195688	-0.192028	-0.18	-0.006	0.6015	0	333	34	3
2026-02-12	14:38:27.610	39.27	34.475	12.985	1.383724	0.17446	-0.146156	-0.18	-0.006	0.6015	0	336	4	3
2026-02-12	14:38:27.630	43.89	41.125	8.575	1.408612	0.336476	-0.17324	-0.183	0	0.6	0	336	4	3
2026-02-12	14:38:27.650	37.975	43.925	-0.805	1.403488	0.442372	-0.20008	-0.192	0.009	0.5955	0	336	4	3
2026-02-12	14:38:27.670	24.64	42.42	-10.78	1.349808	0.392108	-0.152012	-0.1995	0.006	0.591	0	336	4	3
2026-02-12	14:38:27.690	8.05	37.17	-20.65	1.27856	0.255956	-0.083692	-0.2025	0.0075	0.585	0	336	4	3
2026-02-12	14:38:27.710	-5.39	29.54	-32.55	1.198772	0.099552	-0.04392	-0.1995	0.006	0.579	0	336	4	3
2026-02-12	14:38:27.730	-2.485	25.095	-47.495	1.154852	0.01952	-0.00244	-0.1995	0.0015	0.579	0	336	4	3
2026-02-12	14:38:27.750	15.47	24.64	-65.695	1.137772	0.054168	-0.002196	-0.1995	0	0.5715	0	336	4	3
2026-02-12	14:38:27.770	29.995	27.545	-82.18	1.127524	0.127856	-0.0122	-0.1965	-0.0075	0.564	0	336	4	3
2026-02-12	14:38:27.790	14.665	28.35	-94.15	1.118008	0.332816	0.007076	-0.1965	-0.0135	0.57	0	336	4	3
2026-02-12	14:38:27.810	-45.395	27.335	-102.235	1.096536	0.399428	0.036844	-0.198	-0.0255	0.5685	0	337	32	3
2026-02-12	14:38:27.830	-94.815	31.01	-106.715	1.10654	0.286456	0.018788	-0.192	-0.042	0.5535	0	337	32	3
2026-02-12	14:38:27.850	-93.135	42	-110.53	1.039684	0.181292	0.031964	-0.1905	-0.0615	0.5415	0	337	32	3
2026-02-12	14:38:27.870	-84.77	57.75	-106.365	0.86254	0.01708	-0.007808	-0.195	-0.072	0.5385	0	337	32	3
2026-02-12	14:38:27.890	-56.735	62.265	-94.64	0.633668	-0.023912	-0.102968	-0.195	-0.072	0.5385	0	337	32	3
2026-02-12	14:38:27.910	-21	52.92	-84.42	0.489464	0.16958	-0.112728	-0.18	-0.1185	0.5055	0	337	32	3
2026-02-12	14:38:27.930	3.465	45.255	-76.895	0.412116	0.265716	-0.053924	-0.1785	-0.1275	0.495	0	337	32	3
2026-02-12	14:38:27.950	20.23	40.005	-69.65	0.394548	0.482388	-0.006588	-0.171	-0.138	0.486	0	337	32	3
2026-02-12	14:38:27.970	16.065	33.425	-67.13	0.4331	0.644892	0.098332	-0.162	-0.147	0.486	0	337	32	3
2026-02-12	14:38:27.990	-11.62	27.475	-64.925	0.498248	0.71492	0.191784	-0.1605	-0.1545	0.486	0	337	32	3
2026-02-12	14:38:28.010	-56.07	18.48	-58.31	0.521916	0.495076	0.181536	-0.162	-0.1545	0.4875	0	338	46	3
2026-02-12	14:38:28.030	-66.15	16.205	-51.38	0.513864	0.316712	0.16836	-0.1545	-0.162	0.4785	0	338	46	3
2026-02-12	14:38:28.050	-52.29	16.695	-40.81	0.518988	0.285968	0.242536	-0.147	-0.1725	0.468	0	338	46	3
2026-02-12	14:38:28.070	-31.045	20.79	-30.31	0.495076	0.360144	0.324032	-0.141	-0.1785	0.465	0	338	46	3
2026-02-12	14:38:28.090	-11.935	25.585	-19.95	0.467748	0.44164	0.368928	-0.129	-0.1875	0.456	0	338	46	3
2026-02-12	14:38:28.110	16.59	30.8	-14.455	0.37454	0.56852	0.372588	-0.132	-0.195	0.4485	0	338	46	3
2026-02-12	14:38:28.130	49.385	25.83	-15.785	0.299144	0.7442	0.353556	-0.1365	-0.1965	0.4485	0	338	46	3
2026-02-12	14:38:28.150	58.94	15.05	-17.255	0.354532	0.842532	0.310124	-0.132	-0.1935	0.4485	0	338	46	3
2026-02-12	14:38:28.170	52.885	3.22	-18.725	0.456036	0.850828	0.316224	-0.126	-0.195	0.456	0	338	46	3
2026-02-12	14:38:28.190	36.89	-6.265	-20.055	0.622444	0.948672	0.330864	-0.1395	-0.1875	0.456	0	338	46	3
2026-02-12	14:38:28.210	5.39	-2.415	-23.135	0.905728	1.19682	0.704428	-0.1305	-0.192	0.462	0	344	15	3
2026-02-12	14:38:28.230	-3.36	14.84	-26.705	1.029192	0.936472	0.422608	-0.1215	-0.1905	0.4605	0	344	15	3
2026-02-12	14:38:28.250	51.94	11.27	-34.125	1.19438	0.803736	-0.031232	-0.1185	-0.2025	0.4545	0	344	15	3
2026-02-12	14:38:28.270	71.61	4.515	-23.73	1.3237	0.792024	-0.022448	-0.1275	-0.1995	0.465	0	344	15	3
2026-02-12	14:38:28.290	74.41	-1.085	-12.81	1.202188	0.865468	-0.055632	-0.1215	-0.204	0.474	0	344	15	3
2026-02-12	14:38:28.310	53.2	-7.245	5.11	0.957212	0.833016	0.066612	-0.1215	-0.195	0.4785	0	344	15	3
2026-02-12	14:38:28.330	8.715	-11.235	18.27	0.764208	0.6283	0.192272	-0.129	-0.201	0.489	0	344	15	3
2026-02-12	14:38:28.350	-2.555	-18.27	27.265	0.676612	0.443592	0.11346	-0.12	-0.192	0.483	0	344	15	3
2026-02-12	14:38:28.370	15.645	-24.255	36.05	0.693936	0.434564	0.022936	-0.1155	-0.1845	0.4875	0	344	15	3
2026-02-12	14:38:28.390	29.68	-31.64	43.995	0.805444	0.486292	-0.06222	-0.126	-0.18	0.495	0	344	15	3
2026-02-12	14:38:28.410	32.795	-42.07	55.51	0.947208	0.590724	-0.156648	-0.129	-0.1725	0.495	0	353	33	3
2026-02-12	14:38:28.430	19.18	-44.555	60.865	0.992348	0.705404	-0.114924	-0.1305	-0.1665	0.5055	0	353	33	3
2026-02-12	14:38:28.450	6.265	-44.17	58.765	0.952088	0.659532	-0.04392	-0.1335	-0.1545	0.5205	0	353	33	3
2026-02-12	14:38:28.470	7.91	-40.6	54.495	0.862784	0.652212	-0.015372	-0.135	-0.1485	0.525	0	353	33	3
2026-02-12	14:38:28.490	2.03	-37.275	51.38	0.759816	0.56608	-0.036356	-0.1425	-0.132	0.525	0	353	33	3
2026-02-12	14:38:28.510	-7.7	-34.58	52.5	0.670024	0.476044	-0.08662	-0.1455	-0.138	0.534	0	353	33	3
2026-02-12	14:38:28.530	-8.82	-33.04	56.245	0.58804	0.435052	-0.113704	-0.1425	-0.129	0.537	0	353	33	3
2026-02-12	14:38:28.550	-4.025	-32.305	58.94	0.521428	0.416996	-0.126148	-0.15	-0.1185	0.546	0	353	33	3
2026-02-12	14:38:28.570	3.78	-31.78	60.515	0.477264	0.437004	-0.107116	-0.1515	-0.1155	0.5505	0	353	33	3
2026-02-12	14:38:28.590	4.795	-31.99	61.915	0.520696	0.457744	-0.09467199	-0.156	-0.114	0.555	0	353	33	3
2026-02-12	14:38:28.610	-1.015	-30.66	63.35	0.52948	0.446032	-0.095648	-0.1515	-0.102	0.558	0	362	51	3
2026-02-12	14:38:28.630	-7.455	-29.82	62.86	0.52948	0.416508	-0.05612	-0.1545	-0.0915	0.5565	0	362	51	3
2026-02-12	14:38:28.650	-7.49	-29.225	60.48	0.578036	0.378688	-0.028548	-0.1635	-0.0795	0.5685	0	362	51	3
2026-02-12	14:38:28.670	-3.255	-29.155	58.1	0.71248	0.326472	-0.053436	-0.1545	-0.0735	0.564	0	362	51	3
2026-02-12	14:38:28.690	10.92	-28.35	56.875	0.898164	0.30256	-0.138348	-0.1545	-0.0735	0.564	0	362	51	3
2026-02-12	14:38:28.710	29.68	-27.405	56.105	0.996984	0.376736	-0.173484	-0.159	-0.0645	0.57	0	362	51	3
2026-02-12	14:38:28.730	34.685	-25.9	54.705	1.073112	0.500688	-0.104676	-0.162	-0.051	0.5805	0	362	51	3
2026-02-12	14:38:28.750	27.37	-25.27	51.45	1.188036	0.612928	-0.083204	-0.162	-0.0405	0.591	0	362	51	3
2026-02-12	14:38:28.770	17.395	-20.895	47.005	1.265384	0.755668	-0.101016	-0.1635	-0.027	0.597	0	362	51	3
2026-02-12	14:38:28.790	0.315	-15.82	43.085	1.13948	0.77592	-0.173972	-0.165	-0.0195	0.5985	0	362	51	3
2026-02-12	14:38:28.810	-10.78	-13.44	38.325	0.98088	0.707112	-0.201544	-0.1665	-0.0165	0.6045	0	366	32	3
2026-02-12	14:38:28.830	-16.1	-11.06	34.965	0.872788	0.627568	-0.190564	-0.165	-0.009	0.603	0	366	32	3
2026-02-12	14:38:28.850	-25.725	-6.195	34.44	0.86864	0.539972	-0.172752	-0.1665	-0.003	0.6045	0	366	32	3
2026-02-12	14:38:28.870	-34.09	0.455	35.105	0.960628	0.431148	-0.184464	-0.171	-0.0045	0.612	0	366	32	3
2026-02-12	14:38:28.890	-31.115	7.665	35.21	1.131184	0.366976	-0.219844	-0.168	-0.0075	0.606	0	366	32	3
2026-02-12	14:38:28.910	-19.6	15.505	33.81	1.311012	0.304024	-0.270596	-0.1665	-0.006	0.6015	0	366	32	3
2026-02-12	14:38:28.930	-1.085	25.235	33.005	1.389824	0.318908	-0.259616	-0.171	-0.0015	0.6	0	366	32	3
2026-02-12	14:38:28.950	7.945	35.525	31.29	1.369816	0.367708	-0.21106	-0.1725	0	0.6015	0	366	32	3
2026-02-12	14:38:28.970	-3.605	35.875	27.265	1.311988	0.332572	-0.155672	-0.1725	0	0.6015	0	366	32	3
2026-02-12	14:38:28.990	-14.56	32.13	20.685	1.262944	0.200812	-0.03538	-0.1785	0.018	0.591	0	366	32	3
2026-02-12	14:38:29.010	-14.525	26.215	11.585	1.190232	0.154452	0.022936	-0.1815	0.018	0.5895	0	366	7	3
2026-02-12	14:38:29.030	-14.385	19.39	0.735	1.120692	0.118096	-0.005856	-0.1845	0.018	0.585	0	366	7	3
2026-02-12	14:38:29.050	-5.81	13.755	-10.36	1.108004	0.182756	-0.014396	-0.183	0.015	0.5745	0	366	7	3
2026-02-12	14:38:29.070	0.385	10.29	-23.52	1.125816	0.274012	0.029768	-0.186	0.0165	0.5715	0	366	7	3
2026-02-12	14:38:29.090	1.435	11.83	-39.55	1.155828	0.37454	0.010248	-0.1845	0.015	0.5775	0	366	7	3
2026-02-12	14:38:29.110	1.19	17.29	-57.05	1.07848	0.399428	-0.050508	-0.1815	0.0075	0.5775	0	366	7	3
2026-02-12	14:38:29.130	-1.96	20.09	-73.15	0.96258	0.418704	-0.077348	-0.1845	0	0.5745	0	366	7	3
2026-02-12	14:38:29.150	-1.575	21.21	-87.605	0.86132	0.410896	-0.064172	-0.186	-0.003	0.5715	0	366	7	3
2026-02-12	14:38:29.170	1.085	21.98	-97.72	0.789584	0.325008	-0.020252	-0.1845	-0.015	0.5685	0	366	7	3
2026-02-12	14:38:29.190	-3.22	22.33	-99.575	0.722728	0.309392	0.02928	-0.1845	-0.0315	0.564	0	366	7	3
2026-02-12	14:38:29.210	-42.77	22.295	-93.275	0.687348	0.263276	0.031232	-0.1815	-0.0375	0.5595	0	364	37	2
2026-02-12	14:38:29.230	-78.015	22.26	-84.77	0.658556	0.201544	-0.024888	-0.1755	-0.0405	0.5595	0	364	37	2
2026-02-12	14:38:29.250	-79.835	22.505	-76.195	0.572668	0.197152	-0.064172	-0.1725	-0.0705	0.549	0	364	37	2
2026-02-12	14:38:29.270	-60.69	19.18	-69.405	0.52094	0.261812	-0.046604	-0.177	-0.09	0.537	0	364	37	2
2026-02-12	14:38:29.290	-43.26	14.455	-65.555	0.496052	0.335988	-0.007076	-0.1635	-0.1005	0.522	0	364	37	2
2026-02-12	14:38:29.310	-40.81	8.33	-60.655	0.509716	0.370392	0.022448	-0.1575	-0.108	0.5145	0	364	37	2
2026-02-12	14:38:29.330	-39.725	2.66	-56.7	0.537776	0.365024	0.037576	-0.1605	-0.126	0.516	0	364	37	2
2026-02-12	14:38:29.350	-39.375	-2.625	-52.01	0.587064	0.324276	0.063196	-0.159	-0.132	0.5115	0	364	37	2
2026-02-12	14:38:29.370	-36.785	-5.53	-43.4	0.611708	0.262544	0.09467199	-0.147	-0.1365	0.5055	0	364	37	2
2026-02-12	14:38:29.390	-27.265	-7.42	-31.885	0.643428	0.260348	0.13054	-0.147	-0.141	0.51	0	364	37	2
2026-02-12	14:38:29.410	-11.9	-8.05	-19.845	0.677588	0.3538	0.155428	-0.1455	-0.153	0.504	0	359	42	2
2026-02-12	14:38:29.430	-1.645	-7.35	-7.56	0.638304	0.480924	0.129808	-0.144	-0.1515	0.5085	0	359	42	2
2026-02-12	14:38:29.450	3.36	-7.56	3.605	0.591212	0.566812	0.076616	-0.138	-0.1485	0.504	0	359	42	2
2026-02-12	14:38:29.470	2.94	-12.075	13.545	0.582184	0.591944	0.06734399	-0.138	-0.153	0.507	0	359	42	2
2026-02-12	14:38:29.490	6.37	-20.965	24.22	0.60024	0.619516	0.125172	-0.141	-0.147	0.498	0	359	42	2
2026-02-12	14:38:29.510	19.775	-21.315	25.34	0.613416	0.688812	0.148108	-0.144	-0.1425	0.504	0	359	42	2
2026-02-12	14:38:29.530	34.755	-18.095	26.635	0.604632	0.85522	0.139812	-0.15	-0.1365	0.5115	0	359	42	2
2026-02-12	14:38:29.550	32.375	-21.035	22.785	0.621224	1.003328	0.09028	-0.1455	-0.1335	0.519	0	359	42	2
2026-02-12	14:38:29.570	13.685	-31.465	10.99	0.657824	1.0858	-0.007808	-0.1395	-0.135	0.525	0	359	42	2
2026-02-12	14:38:29.590	-16.8	-48.965	-6.475	0.762988	1.116788	-0.085156	-0.15	-0.1365	0.5265	0	359	42	2
2026-02-12	14:38:29.610	-57.155	-61.355	-21.175	0.760304	0.96014	-0.072468	-0.1455	-0.1275	0.5415	0	353	26	3
2026-02-12	14:38:29.630	-78.435	-67.235	-27.615	0.735172	0.775432	0.0183	-0.141	-0.129	0.5415	0	353	26	3
2026-02-12	14:38:29.650	-72.24	-67.865	-31.15	0.801784	0.638548	0.073932	-0.129	-0.1395	0.534	0	353	26	3
2026-02-12	14:38:29.670	-44.45	-60.2	-26.565	0.905728	0.64172	0.103944	-0.1215	-0.15	0.5325	0	353	26	3
2026-02-12	14:38:29.690	-30.45	-49.735	-17.5	1.040416	0.710284	0.06832	-0.126	-0.1575	0.5445	0	353	26	3
2026-02-12	14:38:29.710	-33.705	-41.545	-5.635	1.223416	0.52338	-0.005612	-0.1215	-0.1605	0.549	0	353	26	3
2026-02-12	14:38:29.730	-13.37	-36.96	9.87	1.295396	0.423096	-0.155672	-0.1245	-0.1605	0.552	0	353	26	3
2026-02-12	14:38:29.750	16.135	-35.595	14.42	1.164612	0.663436	-0.158844	-0.114	-0.1635	0.5565	0	353	26	3
2026-02-12	14:38:29.770	8.19	-38.955	10.185	0.952332	0.552904	-0.116876	-0.114	-0.1635	0.5565	0	353	26	3
2026-02-12	14:38:29.790	-23.03	-42.7	13.44	0.833748	0.465796	-0.071492	-0.1155	-0.159	0.5625	0	353	26	3
2026-02-12	14:38:29.810	-54.81	-46.97	19.53	0.776896	0.383568	-0.08418	-0.117	-0.153	0.567	0	349	11	3
2026-02-12	14:38:29.830	-87.85	-50.26	29.505	0.762012	0.372344	-0.129808	-0.114	-0.156	0.5655	0	349	11	3
2026-02-12	14:38:29.850	-113.26	-55.65	37.065	0.742248	0.404064	-0.221796	-0.108	-0.162	0.564	0	349	11	3
2026-02-12	14:38:29.870	-110.565	-62.685	37.625	0.77348	0.450912	-0.331352	-0.108	-0.1635	0.558	0	349	11	3
2026-02-12	14:38:29.890	-85.855	-69.685	34.965	0.817888	0.527284	-0.379664	-0.1065	-0.162	0.5475	0	349	11	3
2026-02-12	14:38:29.910	-69.93	-71.365	35.84	0.839116	0.555344	-0.299876	-0.108	-0.162	0.549	0	349	11	3
2026-02-12	14:38:29.930	-70.455	-68.67	40.145	0.846436	0.507764	-0.229116	-0.111	-0.162	0.5535	0	349	11	3
2026-02-12	14:38:29.950	-72.065	-64.435	44.17	0.860588	0.465552	-0.191296	-0.1035	-0.162	0.5535	0	349	11	3
2026-02-12	14:38:29.970	-71.82	-60.13	47.285	0.854732	0.437736	-0.158112	-0.1005	-0.1635	0.555	0	349	11	3
2026-02-12	14:38:29.990	-68.565	-57.68	47.285	0.82838	0.44408	-0.17568	-0.105	-0.1605	0.552	0	349	11	3
2026-02-12	14:38:30.010	-59.535	-59.29	41.72	0.79422	0.487756	-0.209596	-0.1095	-0.159	0.546	0	344	25	3
2026-02-12	14:38:30.030	-59.92	-65.1	35.91	0.762012	0.416508	-0.243268	-0.1095	-0.159	0.546	0	344	25	3
2026-02-12	14:38:30.050	-59.36	-71.89	33.775	0.764452	0.357948	-0.244976	-0.1095	-0.159	0.546	0	344	25	3
2026-02-12	14:38:30.070	-63.105	-77.56	34.3	0.819108	0.34404	-0.193736	-0.108	-0.159	0.561	0	344	25	3
2026-02-12	14:38:30.090	-69.16	-77.245	36.435	0.875716	0.304512	-0.1281	-0.1065	-0.162	0.5595	0	344	25	3
2026-02-12	14:38:30.110	-59.185	-69.23	36.365	0.891332	0.306708	-0.083448	-0.105	-0.1725	0.564	0	344	25	3
2026-02-12	14:38:30.130	-46.375	-55.79	35.28	0.874252	0.354288	-0.086132	-0.1035	-0.1635	0.5655	0	344	25	3
2026-02-12	14:38:30.150	-45.08	-44.1	35.805	0.901092	0.431392	-0.121024	-0.1005	-0.1575	0.5715	0	344	25	3
2026-02-12	14:38:30.170	-35.805	-32.445	34.44	1.001132	0.47336	-0.162016	-0.1005	-0.1575	0.5685	0	344	25	3
2026-02-12	14:38:30.190	-22.225	-18.41	29.995	0.975268	0.4758	-0.227164	-0.102	-0.15	0.567	0	344	25	3
2026-02-12	14:38:30.210	-5.81	-7.665	24.675	0.983808	0.532164	-0.238144	-0.1065	-0.1545	0.567	0	336	59	2
2026-02-12	14:38:30.230	-3.71	1.645	20.02	1.028216	0.557296	-0.21472	-0.1125	-0.1545	0.5655	0	336	59	2
2026-02-12	14:38:30.250	-6.79	14.56	18.62	1.090924	0.494832	-0.157136	-0.114	-0.147	0.57	0	336	59	2
2026-02-12	14:38:30.270	4.445	32.655	14.91	1.000156	0.513864	-0.116144	-0.1125	-0.147	0.5685	0	336	59	2
2026-02-12	14:38:30.290	29.05	51.66	1.575	0.946476	0.613904	-0.172508	-0.1095	-0.147	0.5595	0	336	59	2
2026-02-12	14:38:30.310	41.09	64.365	-12.46	0.960384	0.74176	-0.226432	-0.1065	-0.147	0.555	0	336	59	2
2026-02-12	14:38:30.330	31.29	68.32	-21.42	0.97478	0.836188	-0.263764	-0.129	-0.141	0.549	0	336	59	2
2026-02-12	14:38:30.350	2.415	65.555	-30.17	0.963556	0.828624	-0.293532	-0.1335	-0.135	0.5475	0	336	59	2
2026-02-12	14:38:30.370	-25.025	56.175	-32.655	0.974536	0.630252	-0.29402	-0.126	-0.141	0.5445	0	336	59	2
2026-02-12	14:38:30.390	-27.265	38.85	-30.66	0.946232	0.46848	-0.277916	-0.138	-0.15	0.531	0	336	59	2
2026-02-12	14:38:30.410	-26.25	19.6	-29.96	0.828624	0.452132	-0.215208	-0.1335	-0.1545	0.5295	0	324	95	3
2026-02-12	14:38:30.430	-41.475	0.105	-25.795	0.850828	0.391864	-0.105408	-0.129	-0.1545	0.519	0	324	95	3
2026-02-12	14:38:30.450	-65.835	-16.485	-23.59	0.970876	0.30744	0.008784	-0.1245	-0.1605	0.513	0	324	95	3
2026-02-12	14:38:30.470	-87.99	-23.835	-22.715	1.00284	0.245708	0.050264	-0.1155	-0.1635	0.5175	0	324	95	3
2026-02-12	14:38:30.490	-98.945	-29.295	-26.18	1.036756	0.112484	-0.052948	-0.126	-0.1695	0.507	0	324	95	3
2026-02-12	14:38:30.510	-83.615	-31.15	-35.07	1.040416	0.127368	-0.20496	-0.1215	-0.177	0.4995	0	324	95	3
2026-02-12	14:38:30.530	-51.31	-31.885	-45.815	0.989908	0.314272	-0.2806	-0.1065	-0.1875	0.501	0	324	95	3
2026-02-12	14:38:30.550	-26.145	-33.95	-60.445	0.928176	0.567056	-0.235216	-0.1035	-0.198	0.495	0	324	95	3
2026-02-12	14:38:30.570	-40.18	-34.405	-79.03	0.870104	0.772504	-0.140056	-0.102	-0.189	0.495	0	324	95	3
2026-02-12	14:38:30.590	-68.005	-32.48	-89.6	0.82838	0.814228	-0.13298	-0.0885	-0.2025	0.4905	0	324	95	3
2026-02-12	14:38:30.610	-102.41	-31.815	-95.515	0.801052	0.731268	-0.14884	-0.0705	-0.2205	0.4875	0	311	121	3
2026-02-12	14:38:30.630	-124.18	-29.89	-94.29	0.753228	0.599264	-0.154208	-0.0615	-0.2325	0.4785	0	311	121	3
2026-02-12	14:38:30.650	-134.435	-29.82	-86.415	0.721752	0.497272	-0.14884	-0.054	-0.2445	0.465	0	311	121	3
2026-02-12	14:38:30.670	-129.255	-29.54	-73.885	0.691252	0.40382	-0.124196	-0.042	-0.2565	0.453	0	311	121	3
2026-02-12	14:38:30.690	-109.095	-31.185	-59.08	0.674904	0.323056	-0.1037	-0.0345	-0.2655	0.447	0	311	121	3
2026-02-12	14:38:30.710	-86.87	-34.195	-41.51	0.651236	0.296704	-0.042944	-0.024	-0.279	0.4395	0	311	121	3
2026-02-12	14:38:30.730	-71.68	-36.82	-22.435	0.634156	0.261812	0.039528	-0.0225	-0.2625	0.4275	0	311	121	3
2026-02-12	14:38:30.750	-55.51	-38.605	-5.04	0.628056	0.312564	0.13054	-0.0105	-0.2685	0.4125	0	311	121	3
2026-02-12	14:38:30.770	-35.595	-37.905	7.245	0.600484	0.426756	0.131516	-0.0165	-0.279	0.408	0	311	121	3
2026-02-12	14:38:30.790	-25.55	-40.005	16.24	0.554856	0.51362	0.052216	-0.0135	-0.2775	0.4095	0	311	121	3
2026-02-12	14:38:30.810	-21.525	-44.94	22.33	0.53558	0.587064	0.03904	-0.015	-0.276	0.4095	0	301	127	3
2026-02-12	14:38:30.830	-10.29	-46.27	24.675	0.593652	0.809592	0.063928	-0.018	-0.273	0.4125	0	301	127	3
2026-02-12	14:38:30.850	-18.165	-48.58	19.46	0.653188	1.03212	0.090036	-0.018	-0.273	0.4125	0	301	127	3
2026-02-12	14:38:30.870	-53.69	-56.14	10.185	0.750056	1.170956	0.053436	-0.0225	-0.273	0.417	0	301	127	3
2026-02-12	14:38:30.890	-72.345	-58.485	-13.16	0.846436	1.180228	-0.084424	-0.0255	-0.27	0.417	0	301	127	3
2026-02-12	14:38:30.910	-80.22	-65.415	-32.305	0.914512	0.82228	-0.15006	-0.0225	-0.2685	0.4095	0	301	127	3
2026-02-12	14:38:30.930	-69.72	-62.23	-28.035	0.770064	0.48556	-0.030744	-0.0165	-0.2745	0.402	0	301	127	3
2026-02-12	14:38:30.950	-32.62	-52.605	-24.255	0.754936	0.548756	0.13176	-0.0135	-0.279	0.3975	0	301	127	3
2026-02-12	14:38:30.970	-13.055	-44.87	-23.87	0.743712	0.785436	0.140544	-0.0135	-0.2805	0.3975	0	301	127	3
2026-02-12	14:38:30.990	-17.15	-42.49	-24.745	0.8357	0.859612	0.006344	-0.003	-0.282	0.3975	0	301	127	3
2026-02-12	14:38:31.010	-22.575	-43.54	-20.615	1.028704	0.981612	-0.129808	0	-0.285	0.4005	0	295	109	3
2026-02-12	14:38:31.030	-36.54	-47.985	-22.715	1.197308	1.05652	-0.261568	0	-0.285	0.4005	0	295	109	3
2026-02-12	14:38:31.050	-66.045	-59.955	-23.695	1.142896	0.764208	-0.407968	0	-0.285	0.3975	0	295	109	3
2026-02-12	14:38:31.070	-85.715	-72.59	-12.04	1.008452	0.410896	-0.277184	0.0045	-0.288	0.396	0	295	109	3
2026-02-12	14:38:31.090	-80.885	-71.995	-3.57	0.804712	0.124196	-0.09076799	0.0105	-0.2895	0.39	0	295	109	3
2026-02-12	14:38:31.110	-53.41	-69.58	17.15	0.643672	0.172508	-0.07515199	0.012	-0.2895	0.3855	0	295	109	3
2026-02-12	14:38:31.130	-56.175	-77.105	35.7	0.643672	0.233996	-0.197396	0.006	-0.291	0.3765	0	295	109	3
2026-02-12	14:38:31.150	-46.06	-86.415	53.305	0.74786	0.539728	-0.16592	0.009	-0.2805	0.3765	0	295	109	3
2026-02-12	14:38:31.170	-52.325	-95.025	63.56	0.855952	0.757376	-0.195932	0.0015	-0.285	0.3795	0	295	109	3
2026-02-12	14:38:31.190	-66.92	-98.56	64.19	0.792024	0.759328	-0.204716	-0.0135	-0.2775	0.378	0	295	109	3
2026-02-12	14:38:31.210	-70.595	-100.8	64.505	0.826916	0.776408	-0.172508	-0.021	-0.273	0.3765	0	295	99	3
2026-02-12	14:38:31.230	-68.25	-100.135	65.59	0.661728	0.667584	-0.189344	-0.0195	-0.273	0.3795	0	295	99	3
2026-02-12	14:38:31.250	-65.31	-96.565	65.975	0.62952	0.61366	-0.225944	-0.036	-0.264	0.3705	0	295	99	3
2026-02-12	14:38:31.270	-66.71	-93.66	66.85	0.59048	0.56242	-0.253028	-0.039	-0.2655	0.372	0	295	99	3
2026-02-12	14:38:31.290	-68.74	-94.22	68.53	0.618296	0.567056	-0.273768	-0.048	-0.2625	0.372	0	295	99	3
2026-02-12	14:38:31.310	-73.815	-93.31	70.315	0.646112	0.51728	-0.256688	-0.054	-0.252	0.369	0	295	99	3
2026-02-12	14:38:31.330	-74.025	-90.755	71.26	0.675148	0.486536	-0.24034	-0.0615	-0.243	0.366	0	295	99	3
2026-02-12	14:38:31.350	-75.67	-86.765	72.24	0.731756	0.455792	-0.228384	-0.072	-0.2415	0.3675	0	295	99	3
2026-02-12	14:38:31.370	-73.115	-78.855	73.255	0.804712	0.379664	-0.21594	-0.0765	-0.243	0.372	0	295	99	3
2026-02-12	14:38:31.390	-57.575	-67.13	72.905	0.863272	0.396988	-0.208132	-0.0765	-0.243	0.372	0	295	99	3
2026-02-12	14:38:31.410	-40.565	-57.19	68.705	0.897432	0.493612	-0.250832	-0.0945	-0.2175	0.369	0	296	111	2
2026-02-12	14:38:31.430	-29.61	-47.95	61.005	0.917928	0.540704	-0.2867	-0.102	-0.21	0.375	0	296	111	2
2026-02-12	14:38:31.450	-32.515	-38.395	54.74	0.955504	0.537044	-0.280844	-0.1155	-0.1965	0.3795	0	296	111	2
2026-02-12	14:38:31.470	-44.73	-26.775	51.17	0.933544	0.499224	-0.228384	-0.123	-0.1935	0.378	0	296	111	2
2026-02-12	14:38:31.490	-52.115	-16.24	48.265	0.921588	0.463356	-0.201056	-0.1245	-0.195	0.3705	0	296	111	2
2026-02-12	14:38:31.510	-47.215	-4.34	45.08	0.91622	0.43554	-0.20984	-0.1275	-0.183	0.3735	0	296	111	2
2026-02-12	14:38:31.530	-34.51	6.615	42.175	0.950624	0.455304	-0.226188	-0.1365	-0.1785	0.375	0	296	111	2
2026-02-12	14:38:31.550	-31.78	15.61	41.265	0.990396	0.467016	-0.211304	-0.1335	-0.171	0.3705	0	296	111	2
2026-02-12	14:38:31.570	-35.525	21.315	40.81	1.011136	0.422364	-0.205692	-0.1395	-0.168	0.3705	0	296	111	2
2026-02-12	14:38:31.590	-29.085	23.8	37.135	1.0919	0.47946	-0.22692	-0.147	-0.159	0.357	0	296	111	2
