yyyy-MM-dd	HH:mm:ss.fff	gyrX	gyrY	gyrZ	accX	accY	accZ	magX	magY	magZ	Marker	Energy	Angle	Classification
2026-02-11	16:32:06.210	-3.29	2.485	-2.03	-0.193004	-0.184464	0.960872	-1.113	0.6615	0.0525	0	81	992	1
2026-02-11	16:32:06.230	3.43	2.45	0.49	-0.21106	-0.08784	0.982344	-1.113	0.6615	0.0525	0	81	992	1
2026-02-11	16:32:06.250	-0.525	0.875	0.98	-0.20008	-0.099552	1.002596	-1.11	0.6615	0.051	0	81	992	1
2026-02-11	16:32:06.270	-4.62	0.385	2.205	-0.201788	-0.134444	0.97234	-1.113	0.6645	0.0525	0	81	992	1
2026-02-11	16:32:06.290	-3.185	-0.7	2.835	-0.201544	-0.19276	0.950624	-1.1145	0.669	0.0525	0	81	992	1
2026-02-11	16:32:06.310	4.795	-1.295	3.43	-0.203252	-0.196908	0.964288	-1.1145	0.6705	0.0525	0	81	992	1
2026-02-11	16:32:06.330	10.29	-2.765	4.305	-0.204472	-0.174216	0.970388	-1.119	0.669	0.0555	0	81	992	1
2026-02-11	16:32:06.350	13.51	-4.725	4.935	-0.209352	-0.15006	0.974048	-1.116	0.6645	0.048	0	81	992	1
2026-02-11	16:32:06.370	16.73	-5.81	4.165	-0.209108	-0.121512	0.954284	-1.107	0.6645	0.0525	0	81	992	1
2026-02-11	16:32:06.390	16.765	-4.41	1.085	-0.197152	-0.053192	1.064084	-1.1055	0.6675	0.0555	0	81	992	1
2026-02-11	16:32:06.410	-1.33	-0.105	-1.225	-0.195932	-0.068076	1.024312	-1.1055	0.6615	0.0555	0	71	994	1
2026-02-11	16:32:06.430	-11.165	1.54	-2.415	-0.20008	-0.111752	0.937936	-1.104	0.6645	0.0585	0	71	994	1
2026-02-11	16:32:06.450	-9.31	2.485	-4.2	-0.194468	-0.130052	0.985272	-1.104	0.6585	0.0585	0	71	994	1
2026-02-11	16:32:06.470	-11.27	3.675	-4.83	-0.201544	-0.098332	0.982588	-1.1025	0.6645	0.0525	0	71	994	1
2026-02-11	16:32:06.490	-13.895	3.29	-4.9	-0.199104	-0.142984	0.968436	-1.104	0.666	0.0555	0	71	994	1
2026-02-11	16:32:06.510	-9.975	1.505	-2.94	-0.199104	-0.1952	0.953796	-1.104	0.666	0.0555	0	71	994	1
2026-02-11	16:32:06.530	-2.275	1.33	-0.7	-0.197884	-0.185684	0.950624	-1.1055	0.663	0.0525	0	71	994	1
2026-02-11	16:32:06.550	3.955	1.89	-0.035	-0.20252	-0.147376	0.979904	-1.107	0.66	0.048	0	71	994	1
2026-02-11	16:32:06.570	4.585	1.715	-0.245	-0.213256	-0.099552	0.9882	-1.104	0.6645	0.0495	0	71	994	1
2026-02-11	16:32:06.590	1.33	1.12	-0.7	-0.209596	-0.122732	0.980392	-1.1055	0.663	0.048	0	71	994	1
2026-02-11	16:32:06.610	-0.63	1.015	-1.295	-0.204716	-0.131272	0.978196	-1.107	0.6555	0.0465	0	65	995	1
2026-02-11	16:32:06.630	-1.155	1.225	-2.03	-0.205204	-0.139812	0.97844	-1.1055	0.6555	0.0495	0	65	995	1
2026-02-11	16:32:06.650	-1.925	1.785	-2.555	-0.209352	-0.119804	0.983076	-1.098	0.6585	0.048	0	65	995	1
2026-02-11	16:32:06.670	-4.025	1.645	-2.59	-0.205204	-0.13176	0.980148	-1.104	0.663	0.054	0	65	995	1
2026-02-11	16:32:06.690	-5.11	0.805	-1.96	-0.21106	-0.143228	0.970876	-1.107	0.6585	0.0555	0	65	995	1
2026-02-11	16:32:06.710	-4.095	-0.28	-0.945	-0.20984	-0.167384	0.964288	-1.1025	0.663	0.051	0	65	995	1
2026-02-11	16:32:06.730	-0.105	-1.435	-0.035	-0.210572	-0.17324	0.9577	-1.104	0.6525	0.057	0	65	995	1
2026-02-11	16:32:06.750	4.375	-1.435	0.175	-0.203984	-0.153476	0.97722	-1.116	0.6615	0.057	0	65	995	1
2026-02-11	16:32:06.770	5.145	-1.19	0.35	-0.203252	-0.122732	0.981368	-1.0995	0.6615	0.0525	0	65	995	1
2026-02-11	16:32:06.790	1.785	-0.945	0.035	-0.206668	-0.13786	0.979904	-1.104	0.657	0.051	0	65	995	1
2026-02-11	16:32:06.810	0.49	-1.19	-0.175	-0.213012	-0.139568	0.975756	-1.104	0.657	0.0525	0	60	997	1
2026-02-11	16:32:06.830	0.49	-1.505	-0.595	-0.2074	-0.137372	0.97844	-1.101	0.657	0.051	0	60	997	1
2026-02-11	16:32:06.850	0.49	-1.295	-0.735	-0.203252	-0.155916	0.97966	-1.104	0.6585	0.0465	0	60	997	1
2026-02-11	16:32:06.870	0.07	-1.295	-0.525	-0.20984	-0.132736	0.956968	-1.1115	0.6585	0.048	0	60	997	1
2026-02-11	16:32:06.890	0.175	-2.065	-0.805	-0.20374	-0.123952	0.987468	-1.1115	0.657	0.0495	0	60	997	1
2026-02-11	16:32:06.910	-1.365	-3.045	-0.595	-0.200568	-0.12078	0.979172	-1.11	0.6585	0.0465	0	60	997	1
2026-02-11	16:32:06.930	-2.205	-2.8	-0.385	-0.197884	-0.15738	0.976488	-1.1115	0.66	0.057	0	60	997	1
2026-02-11	16:32:06.950	-1.015	-1.715	-0.105	-0.197884	-0.161772	0.973804	-1.1085	0.6645	0.06	0	60	997	1
2026-02-11	16:32:06.970	0.7	-0.805	-0.07	-0.203496	-0.13298	0.97966	-1.11	0.6555	0.0495	0	60	997	1
2026-02-11	16:32:06.990	0.455	-0.455	-0.245	-0.20252	-0.127612	0.98454	-1.1115	0.6615	0.051	0	60	997	1
2026-02-11	16:32:07.010	-0.315	-0.56	-0.385	-0.205448	-0.134444	0.973804	-1.1145	0.6585	0.0495	0	56	997	1
2026-02-11	16:32:07.030	0.07	-0.455	-0.63	-0.205936	-0.140788	0.977952	-1.113	0.657	0.051	0	56	997	1
2026-02-11	16:32:07.050	1.47	-0.105	-0.91	-0.203984	-0.129076	0.982832	-1.116	0.66	0.048	0	56	997	1
2026-02-11	16:32:07.070	1.295	0.35	-1.365	-0.202276	-0.126392	0.981368	-1.1145	0.657	0.0525	0	56	997	1
2026-02-11	16:32:07.090	0.245	0.245	-1.61	-0.205204	-0.127612	0.992592	-1.1175	0.6555	0.0435	0	56	997	1
2026-02-11	16:32:07.110	-2.45	-0.14	-1.61	-0.202032	-0.12444	1.00894	-1.1175	0.6525	0.0405	0	56	997	1
2026-02-11	16:32:07.130	-4.305	-0.455	-1.295	-0.199104	-0.127612	0.998936	-1.1205	0.654	0.0465	0	56	997	1
2026-02-11	16:32:07.150	-4.06	-0.105	-1.155	-0.20374	-0.138348	0.973316	-1.119	0.663	0.045	0	56	997	1
2026-02-11	16:32:07.170	-0.98	0	-0.595	-0.198372	-0.17446	0.953552	-1.1145	0.6585	0.039	0	56	997	1
2026-02-11	16:32:07.190	2.03	-0.07	0.49	-0.191052	-0.189588	0.955016	-1.1205	0.654	0.0285	0	56	997	1
2026-02-11	16:32:05.210	-0.63	-0.35	-0.105	-0.200324	-0.141764	0.973804	-1.1175	0.666	0.06	0	187	969	1
2026-02-11	16:32:05.230	-0.14	-0.42	-0.105	-0.200568	-0.144936	0.979172	-1.1145	0.6705	0.057	0	187	969	1
2026-02-11	16:32:05.250	-0.245	-0.42	-0.07	-0.199592	-0.134932	0.974536	-1.107	0.6705	0.0615	0	187	969	1
2026-02-11	16:32:05.270	-0.63	-0.245	-0.035	-0.204228	-0.137128	0.979416	-1.1205	0.672	0.0555	0	187	969	1
2026-02-11	16:32:05.290	-1.085	-0.385	-0.07	-0.19886	-0.140544	0.97356	-1.1085	0.6735	0.0585	0	187	969	1
2026-02-11	16:32:05.310	-0.735	-0.49	-0.175	-0.199348	-0.144692	0.979904	-1.1115	0.6645	0.051	0	187	969	1
2026-02-11	16:32:05.330	-0.665	-0.385	-0.105	-0.203252	-0.133956	0.979416	-1.1205	0.6705	0.0585	0	187	969	1
2026-02-11	16:32:05.350	-0.7	-0.315	0	-0.198128	-0.143716	0.974048	-1.119	0.666	0.0585	0	187	969	1
2026-02-11	16:32:05.370	-0.21	-0.455	-0.035	-0.200324	-0.139568	0.980636	-1.116	0.666	0.0555	0	187	969	1
2026-02-11	16:32:05.390	-0.595	-0.245	-0.175	-0.200812	-0.146156	0.977952	-1.1175	0.666	0.0555	0	187	969	1
2026-02-11	16:32:05.410	-0.875	-0.175	-0.175	-0.199836	-0.146888	0.972584	-1.119	0.666	0.06	0	157	977	1
2026-02-11	16:32:05.430	-0.28	-0.28	-0.175	-0.199592	-0.143716	0.976	-1.1175	0.666	0.0645	0	157	977	1
2026-02-11	16:32:05.450	-0.035	-0.315	-0.28	-0.202032	-0.134688	0.979172	-1.1115	0.669	0.0615	0	157	977	1
2026-02-11	16:32:05.470	-0.63	-0.245	-0.21	-0.203496	-0.1403	0.976244	-1.1265	0.6735	0.057	0	157	977	1
2026-02-11	16:32:05.490	-0.84	-0.21	-0.14	-0.2013	-0.1403	0.979904	-1.116	0.6615	0.054	0	157	977	1
2026-02-11	16:32:05.510	-0.595	-0.21	-0.07	-0.202276	-0.146888	0.978684	-1.1175	0.6645	0.063	0	157	977	1
2026-02-11	16:32:05.530	-0.56	-0.35	0	-0.203252	-0.143472	0.976488	-1.116	0.672	0.0585	0	157	977	1
2026-02-11	16:32:05.550	-0.35	-0.315	-0.035	-0.198372	-0.142252	0.977464	-1.113	0.663	0.0615	0	157	977	1
2026-02-11	16:32:05.570	-0.455	-0.21	-0.07	-0.199104	-0.143472	0.98088	-1.1115	0.6705	0.0585	0	157	977	1
2026-02-11	16:32:05.590	-0.525	-0.28	-0.07	-0.202032	-0.139324	0.976244	-1.11	0.6705	0.0555	0	157	977	1
2026-02-11	16:32:05.610	-0.455	-0.105	-0.105	-0.200568	-0.14274	0.976488	-1.119	0.666	0.06	0	131	983	1
2026-02-11	16:32:05.630	-0.35	-0.07	0	-0.201788	-0.136396	0.977708	-1.116	0.666	0.0525	0	131	983	1
2026-02-11	16:32:05.650	-0.595	0.175	0.245	-0.202276	-0.137616	0.979172	-1.1175	0.6675	0.06	0	131	983	1
2026-02-11	16:32:05.670	-0.98	0.35	0.42	-0.19642	-0.134932	0.979172	-1.1145	0.666	0.057	0	131	983	1
2026-02-11	16:32:05.690	-1.575	0.525	0.455	-0.202276	-0.137372	0.97722	-1.113	0.6645	0.0555	0	131	983	1
2026-02-11	16:32:05.710	-1.925	0.35	0.735	-0.203008	-0.135176	0.975268	-1.1115	0.6645	0.06	0	131	983	1
2026-02-11	16:32:05.730	-2.345	0	0.84	-0.203252	-0.145424	0.976732	-1.1085	0.663	0.0645	0	131	983	1
2026-02-11	16:32:05.750	-2.1	-0.28	0.98	-0.203008	-0.149816	0.97356	-1.113	0.672	0.0555	0	131	983	1
2026-02-11	16:32:05.770	-0.63	-0.175	0.91	-0.202764	-0.1464	0.976976	-1.11	0.675	0.0525	0	131	983	1
2026-02-11	16:32:05.790	-0.35	-0.385	0.945	-0.202764	-0.138592	0.976488	-1.1145	0.6735	0.0555	0	131	983	1
2026-02-11	16:32:05.810	-1.12	-0.945	1.12	-0.202276	-0.132736	0.976732	-1.1175	0.6675	0.06	0	110	987	1
2026-02-11	16:32:05.830	-0.875	-1.435	1.05	-0.2013	-0.153232	0.971608	-1.1085	0.6735	0.0465	0	110	987	1
2026-02-11	16:32:05.850	0.385	-1.4	0.98	-0.204716	-0.155184	0.967216	-1.116	0.672	0.057	0	110	987	1
2026-02-11	16:32:05.870	1.995	-1.47	0.805	-0.199592	-0.135664	0.976488	-1.1145	0.675	0.0585	0	110	987	1
2026-02-11	16:32:05.890	1.89	-1.68	0.805	-0.205936	-0.12078	0.981124	-1.1145	0.6705	0.057	0	110	987	1
2026-02-11	16:32:05.910	0.245	-2.065	0.7	-0.196908	-0.13298	0.976	-1.1115	0.666	0.0585	0	110	987	1
2026-02-11	16:32:05.930	-0.665	-2.24	0.735	-0.199592	-0.148596	0.975268	-1.116	0.672	0.0555	0	110	987	1
2026-02-11	16:32:05.950	0.7	-2.1	0.91	-0.199836	-0.147864	0.97234	-1.116	0.669	0.054	0	110	987	1
2026-02-11	16:32:05.970	2.065	-2.065	0.945	-0.20618	-0.136396	0.975024	-1.1145	0.6735	0.054	0	110	987	1
2026-02-11	16:32:05.990	2.24	-2.38	0.525	-0.192516	-0.136152	0.978928	-1.113	0.672	0.057	0	110	987	1
2026-02-11	16:32:06.010	0.875	-1.68	0.105	-0.196908	-0.123464	0.992104	-1.119	0.6675	0.057	0	94	990	1
2026-02-11	16:32:06.030	-1.295	-0.42	-0.28	-0.192028	-0.158844	0.978196	-1.125	0.6705	0.057	0	94	990	1
2026-02-11	16:32:06.050	-0.07	0.245	0	-0.198372	-0.185684	0.973316	-1.113	0.6645	0.0555	0	94	990	1
2026-02-11	16:32:06.070	4.235	-0.315	-0.42	-0.198372	-0.158112	0.957944	-1.116	0.672	0.0555	0	94	990	1
2026-02-11	16:32:06.090	7.525	0.14	-1.575	-0.200812	-0.150548	0.980148	-1.1115	0.6675	0.066	0	94	990	1
2026-02-11	16:32:06.110	7.175	0.875	-2.8	-0.2013	-0.0732	0.992348	-1.104	0.672	0.0645	0	94	990	1
2026-02-11	16:32:06.130	0.91	2.275	-4.585	-0.199104	-0.05124	1.003328	-1.107	0.666	0.0585	0	94	990	1
2026-02-11	16:32:06.150	-8.33	2.38	-4.97	-0.196176	-0.078568	0.997716	-1.0965	0.657	0.0585	0	94	990	1
2026-02-11	16:32:06.170	-14.245	2.695	-5.04	-0.194956	-0.144936	0.973804	-1.107	0.66	0.066	0	94	990	1
2026-02-11	16:32:06.190	-13.335	2.695	-4.515	-0.194712	-0.202032	0.945256	-1.104	0.6675	0.0585	0	94	990	1
2026-02-11	16:32:06.210	-3.29	2.485	-2.03	-0.193004	-0.184464	0.960872	-1.113	0.6615	0.0525	0	81	992	1
2026-02-11	16:32:06.230	3.43	2.45	0.49	-0.21106	-0.08784	0.982344	-1.113	0.6615	0.0525	0	81	992	1
2026-02-11	16:32:06.250	-0.525	0.875	0.98	-0.20008	-0.099552	1.002596	-1.11	0.6615	0.051	0	81	992	1
2026-02-11	16:32:06.270	-4.62	0.385	2.205	-0.201788	-0.134444	0.97234	-1.113	0.6645	0.0525	0	81	992	1
2026-02-11	16:32:06.290	-3.185	-0.7	2.835	-0.201544	-0.19276	0.950624	-1.1145	0.669	0.0525	0	81	992	1
2026-02-11	16:32:06.310	4.795	-1.295	3.43	-0.203252	-0.196908	0.964288	-1.1145	0.6705	0.0525	0	81	992	1
2026-02-11	16:32:06.330	10.29	-2.765	4.305	-0.204472	-0.174216	0.970388	-1.119	0.669	0.0555	0	81	992	1
2026-02-11	16:32:06.350	13.51	-4.725	4.935	-0.209352	-0.15006	0.974048	-1.116	0.6645	0.048	0	81	992	1
2026-02-11	16:32:06.370	16.73	-5.81	4.165	-0.209108	-0.121512	0.954284	-1.107	0.6645	0.0525	0	81	992	1
2026-02-11	16:32:06.390	16.765	-4.41	1.085	-0.197152	-0.053192	1.064084	-1.1055	0.6675	0.0555	0	81	992	1
2026-02-11	16:32:06.410	-1.33	-0.105	-1.225	-0.195932	-0.068076	1.024312	-1.1055	0.6615	0.0555	0	71	994	1
2026-02-11	16:32:06.430	-11.165	1.54	-2.415	-0.20008	-0.111752	0.937936	-1.104	0.6645	0.0585	0	71	994	1
2026-02-11	16:32:06.450	-9.31	2.485	-4.2	-0.194468	-0.130052	0.985272	-1.104	0.6585	0.0585	0	71	994	1
2026-02-11	16:32:06.470	-11.27	3.675	-4.83	-0.201544	-0.098332	0.982588	-1.1025	0.6645	0.0525	0	71	994	1
2026-02-11	16:32:06.490	-13.895	3.29	-4.9	-0.199104	-0.142984	0.968436	-1.104	0.666	0.0555	0	71	994	1
2026-02-11	16:32:06.510	-9.975	1.505	-2.94	-0.199104	-0.1952	0.953796	-1.104	0.666	0.0555	0	71	994	1
2026-02-11	16:32:06.530	-2.275	1.33	-0.7	-0.197884	-0.185684	0.950624	-1.1055	0.663	0.0525	0	71	994	1
2026-02-11	16:32:06.550	3.955	1.89	-0.035	-0.20252	-0.147376	0.979904	-1.107	0.66	0.048	0	71	994	1
2026-02-11	16:32:06.570	4.585	1.715	-0.245	-0.213256	-0.099552	0.9882	-1.104	0.6645	0.0495	0	71	994	1
2026-02-11	16:32:06.590	1.33	1.12	-0.7	-0.209596	-0.122732	0.980392	-1.1055	0.663	0.048	0	71	994	1
2026-02-11	16:32:06.610	-0.63	1.015	-1.295	-0.204716	-0.131272	0.978196	-1.107	0.6555	0.0465	0	65	995	1
2026-02-11	16:32:06.630	-1.155	1.225	-2.03	-0.205204	-0.139812	0.97844	-1.1055	0.6555	0.0495	0	65	995	1
2026-02-11	16:32:06.650	-1.925	1.785	-2.555	-0.209352	-0.119804	0.983076	-1.098	0.6585	0.048	0	65	995	1
2026-02-11	16:32:06.670	-4.025	1.645	-2.59	-0.205204	-0.13176	0.980148	-1.104	0.663	0.054	0	65	995	1
2026-02-11	16:32:06.690	-5.11	0.805	-1.96	-0.21106	-0.143228	0.970876	-1.107	0.6585	0.0555	0	65	995	1
2026-02-11	16:32:06.710	-4.095	-0.28	-0.945	-0.20984	-0.167384	0.964288	-1.1025	0.663	0.051	0	65	995	1
2026-02-11	16:32:06.730	-0.105	-1.435	-0.035	-0.210572	-0.17324	0.9577	-1.104	0.6525	0.057	0	65	995	1
2026-02-11	16:32:06.750	4.375	-1.435	0.175	-0.203984	-0.153476	0.97722	-1.116	0.6615	0.057	0	65	995	1
2026-02-11	16:32:06.770	5.145	-1.19	0.35	-0.203252	-0.122732	0.981368	-1.0995	0.6615	0.0525	0	65	995	1
2026-02-11	16:32:06.790	1.785	-0.945	0.035	-0.206668	-0.13786	0.979904	-1.104	0.657	0.051	0	65	995	1
2026-02-11	16:32:06.810	0.49	-1.19	-0.175	-0.213012	-0.139568	0.975756	-1.104	0.657	0.0525	0	60	997	1
2026-02-11	16:32:06.830	0.49	-1.505	-0.595	-0.2074	-0.137372	0.97844	-1.101	0.657	0.051	0	60	997	1
2026-02-11	16:32:06.850	0.49	-1.295	-0.735	-0.203252	-0.155916	0.97966	-1.104	0.6585	0.0465	0	60	997	1
2026-02-11	16:32:06.870	0.07	-1.295	-0.525	-0.20984	-0.132736	0.956968	-1.1115	0.6585	0.048	0	60	997	1
2026-02-11	16:32:06.890	0.175	-2.065	-0.805	-0.20374	-0.123952	0.987468	-1.1115	0.657	0.0495	0	60	997	1
2026-02-11	16:32:06.910	-1.365	-3.045	-0.595	-0.200568	-0.12078	0.979172	-1.11	0.6585	0.0465	0	60	997	1
2026-02-11	16:32:06.930	-2.205	-2.8	-0.385	-0.197884	-0.15738	0.976488	-1.1115	0.66	0.057	0	60	997	1
2026-02-11	16:32:06.950	-1.015	-1.715	-0.105	-0.197884	-0.161772	0.973804	-1.1085	0.6645	0.06	0	60	997	1
2026-02-11	16:32:06.970	0.7	-0.805	-0.07	-0.203496	-0.13298	0.97966	-1.11	0.6555	0.0495	0	60	997	1
2026-02-11	16:32:06.990	0.455	-0.455	-0.245	-0.20252	-0.127612	0.98454	-1.1115	0.6615	0.051	0	60	997	1
2026-02-11	16:32:07.010	-0.315	-0.56	-0.385	-0.205448	-0.134444	0.973804	-1.1145	0.6585	0.0495	0	56	997	1
2026-02-11	16:32:07.030	0.07	-0.455	-0.63	-0.205936	-0.140788	0.977952	-1.113	0.657	0.051	0	56	997	1
2026-02-11	16:32:07.050	1.47	-0.105	-0.91	-0.203984	-0.129076	0.982832	-1.116	0.66	0.048	0	56	997	1
2026-02-11	16:32:07.070	1.295	0.35	-1.365	-0.202276	-0.126392	0.981368	-1.1145	0.657	0.0525	0	56	997	1
2026-02-11	16:32:07.090	0.245	0.245	-1.61	-0.205204	-0.127612	0.992592	-1.1175	0.6555	0.0435	0	56	997	1
2026-02-11	16:32:07.110	-2.45	-0.14	-1.61	-0.202032	-0.12444	1.00894	-1.1175	0.6525	0.0405	0	56	997	1
2026-02-11	16:32:07.130	-4.305	-0.455	-1.295	-0.199104	-0.127612	0.998936	-1.1205	0.654	0.0465	0	56	997	1
2026-02-11	16:32:07.150	-4.06	-0.105	-1.155	-0.20374	-0.138348	0.973316	-1.119	0.663	0.045	0	56	997	1
2026-02-11	16:32:07.170	-0.98	0	-0.595	-0.198372	-0.17446	0.953552	-1.1145	0.6585	0.039	0	56	997	1
2026-02-11	16:32:07.190	2.03	-0.07	0.49	-0.191052	-0.189588	0.955016	-1.1205	0.654	0.0285	0	56	997	1
2026-02-11	16:32:05.210	-0.63	-0.35	-0.105	-0.200324	-0.141764	0.973804	-1.1175	0.666	0.06	0	187	969	1
2026-02-11	16:32:05.230	-0.14	-0.42	-0.105	-0.200568	-0.144936	0.979172	-1.1145	0.6705	0.057	0	187	969	1
2026-02-11	16:32:05.250	-0.245	-0.42	-0.07	-0.199592	-0.134932	0.974536	-1.107	0.6705	0.0615	0	187	969	1
2026-02-11	16:32:05.270	-0.63	-0.245	-0.035	-0.204228	-0.137128	0.979416	-1.1205	0.672	0.0555	0	187	969	1
2026-02-11	16:32:05.290	-1.085	-0.385	-0.07	-0.19886	-0.140544	0.97356	-1.1085	0.6735	0.0585	0	187	969	1
2026-02-11	16:32:05.310	-0.735	-0.49	-0.175	-0.199348	-0.144692	0.979904	-1.1115	0.6645	0.051	0	187	969	1
2026-02-11	16:32:05.330	-0.665	-0.385	-0.105	-0.203252	-0.133956	0.979416	-1.1205	0.6705	0.0585	0	187	969	1
2026-02-11	16:32:05.350	-0.7	-0.315	0	-0.198128	-0.143716	0.974048	-1.119	0.666	0.0585	0	187	969	1
2026-02-11	16:32:05.370	-0.21	-0.455	-0.035	-0.200324	-0.139568	0.980636	-1.116	0.666	0.0555	0	187	969	1
2026-02-11	16:32:05.390	-0.595	-0.245	-0.175	-0.200812	-0.146156	0.977952	-1.1175	0.666	0.0555	0	187	969	1
2026-02-11	16:32:05.410	-0.875	-0.175	-0.175	-0.199836	-0.146888	0.972584	-1.119	0.666	0.06	0	157	977	1
2026-02-11	16:32:05.430	-0.28	-0.28	-0.175	-0.199592	-0.143716	0.976	-1.1175	0.666	0.0645	0	157	977	1
2026-02-11	16:32:05.450	-0.035	-0.315	-0.28	-0.202032	-0.134688	0.979172	-1.1115	0.669	0.0615	0	157	977	1
2026-02-11	16:32:05.470	-0.63	-0.245	-0.21	-0.203496	-0.1403	0.976244	-1.1265	0.6735	0.057	0	157	977	1
2026-02-11	16:32:05.490	-0.84	-0.21	-0.14	-0.2013	-0.1403	0.979904	-1.116	0.6615	0.054	0	157	977	1
2026-02-11	16:32:05.510	-0.595	-0.21	-0.07	-0.202276	-0.146888	0.978684	-1.1175	0.6645	0.063	0	157	977	1
2026-02-11	16:32:05.530	-0.56	-0.35	0	-0.203252	-0.143472	0.976488	-1.116	0.672	0.0585	0	157	977	1
2026-02-11	16:32:05.550	-0.35	-0.315	-0.035	-0.198372	-0.142252	0.977464	-1.113	0.663	0.0615	0	157	977	1
2026-02-11	16:32:05.570	-0.455	-0.21	-0.07	-0.199104	-0.143472	0.98088	-1.1115	0.6705	0.0585	0	157	977	1
2026-02-11	16:32:05.590	-0.525	-0.28	-0.07	-0.202032	-0.139324	0.976244	-1.11	0.6705	0.0555	0	157	977	1
2026-02-11	16:32:05.610	-0.455	-0.105	-0.105	-0.200568	-0.14274	0.976488	-1.119	0.666	0.06	0	131	983	1
2026-02-11	16:32:05.630	-0.35	-0.07	0	-0.201788	-0.136396	0.977708	-1.116	0.666	0.0525	0	131	983	1
2026-02-11	16:32:05.650	-0.595	0.175	0.245	-0.202276	-0.137616	0.979172	-1.1175	0.6675	0.06	0	131	983	1
2026-02-11	16:32:05.670	-0.98	0.35	0.42	-0.19642	-0.134932	0.979172	-1.1145	0.666	0.057	0	131	983	1
2026-02-11	16:32:05.690	-1.575	0.525	0.455	-0.202276	-0.137372	0.97722	-1.113	0.6645	0.0555	0	131	983	1
2026-02-11	16:32:05.710	-1.925	0.35	0.735	-0.203008	-0.135176	0.975268	-1.1115	0.6645	0.06	0	131	983	1
2026-02-11	16:32:05.730	-2.345	0	0.84	-0.203252	-0.145424	0.976732	-1.1085	0.663	0.0645	0	131	983	1
2026-02-11	16:32:05.750	-2.1	-0.28	0.98	-0.203008	-0.149816	0.97356	-1.113	0.672	0.0555	0	131	983	1
2026-02-11	16:32:05.770	-0.63	-0.175	0.91	-0.202764	-0.1464	0.976976	-1.11	0.675	0.0525	0	131	983	1
2026-02-11	16:32:05.790	-0.35	-0.385	0.945	-0.202764	-0.138592	0.976488	-1.1145	0.6735	0.0555	0	131	983	1
2026-02-11	16:32:05.810	-1.12	-0.945	1.12	-0.202276	-0.132736	0.976732	-1.1175	0.6675	0.06	0	110	987	1
2026-02-11	16:32:05.830	-0.875	-1.435	1.05	-0.2013	-0.153232	0.971608	-1.1085	0.6735	0.0465	0	110	987	1
2026-02-11	16:32:05.850	0.385	-1.4	0.98	-0.204716	-0.155184	0.967216	-1.116	0.672	0.057	0	110	987	1
2026-02-11	16:32:05.870	1.995	-1.47	0.805	-0.199592	-0.135664	0.976488	-1.1145	0.675	0.0585	0	110	987	1
2026-02-11	16:32:05.890	1.89	-1.68	0.805	-0.205936	-0.12078	0.981124	-1.1145	0.6705	0.057	0	110	987	1
2026-02-11	16:32:05.910	0.245	-2.065	0.7	-0.196908	-0.13298	0.976	-1.1115	0.666	0.0585	0	110	987	1
2026-02-11	16:32:05.930	-0.665	-2.24	0.735	-0.199592	-0.148596	0.975268	-1.116	0.672	0.0555	0	110	987	1
2026-02-11	16:32:05.950	0.7	-2.1	0.91	-0.199836	-0.147864	0.97234	-1.116	0.669	0.054	0	110	987	1
2026-02-11	16:32:05.970	2.065	-2.065	0.945	-0.20618	-0.136396	0.975024	-1.1145	0.6735	0.054	0	110	987	1
2026-02-11	16:32:05.990	2.24	-2.38	0.525	-0.192516	-0.136152	0.978928	-1.113	0.672	0.057	0	110	987	1
2026-02-11	16:32:06.010	0.875	-1.68	0.105	-0.196908	-0.123464	0.992104	-1.119	0.6675	0.057	0	94	990	1
2026-02-11	16:32:06.030	-1.295	-0.42	-0.28	-0.192028	-0.158844	0.978196	-1.125	0.6705	0.057	0	94	990	1
2026-02-11	16:32:06.050	-0.07	0.245	0	-0.198372	-0.185684	0.973316	-1.113	0.6645	0.0555	0	94	990	1
2026-02-11	16:32:06.070	4.235	-0.315	-0.42	-0.198372	-0.158112	0.957944	-1.116	0.672	0.0555	0	94	990	1
2026-02-11	16:32:06.090	7.525	0.14	-1.575	-0.200812	-0.150548	0.980148	-1.1115	0.6675	0.066	0	94	990	1
2026-02-11	16:32:06.110	7.175	0.875	-2.8	-0.2013	-0.0732	0.992348	-1.104	0.672	0.0645	0	94	990	1
2026-02-11	16:32:06.130	0.91	2.275	-4.585	-0.199104	-0.05124	1.003328	-1.107	0.666	0.0585	0	94	990	1
2026-02-11	16:32:06.150	-8.33	2.38	-4.97	-0.196176	-0.078568	0.997716	-1.0965	0.657	0.0585	0	94	990	1
2026-02-11	16:32:06.170	-14.245	2.695	-5.04	-0.194956	-0.144936	0.973804	-1.107	0.66	0.066	0	94	990	1
2026-02-11	16:32:06.190	-13.335	2.695	-4.515	-0.194712	-0.202032	0.945256	-1.104	0.6675	0.0585	0	94	990	1
2026-02-11	16:32:06.210	-3.29	2.485	-2.03	-0.193004	-0.184464	0.960872	-1.113	0.6615	0.0525	0	81	992	1
2026-02-11	16:32:06.230	3.43	2.45	0.49	-0.21106	-0.08784	0.982344	-1.113	0.6615	0.0525	0	81	992	1
2026-02-11	16:32:06.250	-0.525	0.875	0.98	-0.20008	-0.099552	1.002596	-1.11	0.6615	0.051	0	81	992	1
2026-02-11	16:32:06.270	-4.62	0.385	2.205	-0.201788	-0.134444	0.97234	-1.113	0.6645	0.0525	0	81	992	1
2026-02-11	16:32:06.290	-3.185	-0.7	2.835	-0.201544	-0.19276	0.950624	-1.1145	0.669	0.0525	0	81	992	1
2026-02-11	16:32:06.310	4.795	-1.295	3.43	-0.203252	-0.196908	0.964288	-1.1145	0.6705	0.0525	0	81	992	1
2026-02-11	16:32:06.330	10.29	-2.765	4.305	-0.204472	-0.174216	0.970388	-1.119	0.669	0.0555	0	81	992	1
2026-02-11	16:32:06.350	13.51	-4.725	4.935	-0.209352	-0.15006	0.974048	-1.116	0.6645	0.048	0	81	992	1
2026-02-11	16:32:06.370	16.73	-5.81	4.165	-0.209108	-0.121512	0.954284	-1.107	0.6645	0.0525	0	81	992	1
2026-02-11	16:32:06.390	16.765	-4.41	1.085	-0.197152	-0.053192	1.064084	-1.1055	0.6675	0.0555	0	81	992	1
2026-02-11	16:32:06.410	-1.33	-0.105	-1.225	-0.195932	-0.068076	1.024312	-1.1055	0.6615	0.0555	0	71	994	1
2026-02-11	16:32:06.430	-11.165	1.54	-2.415	-0.20008	-0.111752	0.937936	-1.104	0.6645	0.0585	0	71	994	1
2026-02-11	16:32:06.450	-9.31	2.485	-4.2	-0.194468	-0.130052	0.985272	-1.104	0.6585	0.0585	0	71	994	1
2026-02-11	16:32:06.470	-11.27	3.675	-4.83	-0.201544	-0.098332	0.982588	-1.1025	0.6645	0.0525	0	71	994	1
2026-02-11	16:32:06.490	-13.895	3.29	-4.9	-0.199104	-0.142984	0.968436	-1.104	0.666	0.0555	0	71	994	1
2026-02-11	16:32:06.510	-9.975	1.505	-2.94	-0.199104	-0.1952	0.953796	-1.104	0.666	0.0555	0	71	994	1
2026-02-11	16:32:06.530	-2.275	1.33	-0.7	-0.197884	-0.185684	0.950624	-1.1055	0.663	0.0525	0	71	994	1
2026-02-11	16:32:06.550	3.955	1.89	-0.035	-0.20252	-0.147376	0.979904	-1.107	0.66	0.048	0	71	994	1
2026-02-11	16:32:06.570	4.585	1.715	-0.245	-0.213256	-0.099552	0.9882	-1.104	0.6645	0.0495	0	71	994	1
2026-02-11	16:32:06.590	1.33	1.12	-0.7	-0.209596	-0.122732	0.980392	-1.1055	0.663	0.048	0	71	994	1
2026-02-11	16:32:06.610	-0.63	1.015	-1.295	-0.204716	-0.131272	0.978196	-1.107	0.6555	0.0465	0	65	995	1
2026-02-11	16:32:06.630	-1.155	1.225	-2.03	-0.205204	-0.139812	0.97844	-1.1055	0.6555	0.0495	0	65	995	1
2026-02-11	16:32:06.650	-1.925	1.785	-2.555	-0.209352	-0.119804	0.983076	-1.098	0.6585	0.048	0	65	995	1
2026-02-11	16:32:06.670	-4.025	1.645	-2.59	-0.205204	-0.13176	0.980148	-1.104	0.663	0.054	0	65	995	1
2026-02-11	16:32:06.690	-5.11	0.805	-1.96	-0.21106	-0.143228	0.970876	-1.107	0.6585	0.0555	0	65	995	1
2026-02-11	16:32:06.710	-4.095	-0.28	-0.945	-0.20984	-0.167384	0.964288	-1.1025	0.663	0.051	0	65	995	1
2026-02-11	16:32:06.730	-0.105	-1.435	-0.035	-0.210572	-0.17324	0.9577	-1.104	0.6525	0.057	0	65	995	1
2026-02-11	16:32:06.750	4.375	-1.435	0.175	-0.203984	-0.153476	0.97722	-1.116	0.6615	0.057	0	65	995	1
2026-02-11	16:32:06.770	5.145	-1.19	0.35	-0.203252	-0.122732	0.981368	-1.0995	0.6615	0.0525	0	65	995	1
2026-02-11	16:32:06.790	1.785	-0.945	0.035	-0.206668	-0.13786	0.979904	-1.104	0.657	0.051	0	65	995	1
2026-02-11	16:32:06.810	0.49	-1.19	-0.175	-0.213012	-0.139568	0.975756	-1.104	0.657	0.0525	0	60	997	1
2026-02-11	16:32:06.830	0.49	-1.505	-0.595	-0.2074	-0.137372	0.97844	-1.101	0.657	0.051	0	60	997	1
2026-02-11	16:32:06.850	0.49	-1.295	-0.735	-0.203252	-0.155916	0.97966	-1.104	0.6585	0.0465	0	60	997	1
2026-02-11	16:32:06.870	0.07	-1.295	-0.525	-0.20984	-0.132736	0.956968	-1.1115	0.6585	0.048	0	60	997	1
2026-02-11	16:32:06.890	0.175	-2.065	-0.805	-0.20374	-0.123952	0.987468	-1.1115	0.657	0.0495	0	60	997	1
2026-02-11	16:32:06.910	-1.365	-3.045	-0.595	-0.200568	-0.12078	0.979172	-1.11	0.6585	0.0465	0	60	997	1
2026-02-11	16:32:06.930	-2.205	-2.8	-0.385	-0.197884	-0.15738	0.976488	-1.1115	0.66	0.057	0	60	997	1
2026-02-11	16:32:06.950	-1.015	-1.715	-0.105	-0.197884	-0.161772	0.973804	-1.1085	0.6645	0.06	0	60	997	1
2026-02-11	16:32:06.970	0.7	-0.805	-0.07	-0.203496	-0.13298	0.97966	-1.11	0.6555	0.0495	0	60	997	1
2026-02-11	16:32:06.990	0.455	-0.455	-0.245	-0.20252	-0.127612	0.98454	-1.1115	0.6615	0.051	0	60	997	1
2026-02-11	16:32:07.010	-0.315	-0.56	-0.385	-0.205448	-0.134444	0.973804	-1.1145	0.6585	0.0495	0	56	997	1
2026-02-11	16:32:07.030	0.07	-0.455	-0.63	-0.205936	-0.140788	0.977952	-1.113	0.657	0.051	0	56	997	1
2026-02-11	16:32:07.050	1.47	-0.105	-0.91	-0.203984	-0.129076	0.982832	-1.116	0.66	0.048	0	56	997	1
2026-02-11	16:32:07.070	1.295	0.35	-1.365	-0.202276	-0.126392	0.981368	-1.1145	0.657	0.0525	0	56	997	1
2026-02-11	16:32:07.090	0.245	0.245	-1.61	-0.205204	-0.127612	0.992592	-1.1175	0.6555	0.0435	0	56	997	1
2026-02-11	16:32:07.110	-2.45	-0.14	-1.61	-0.202032	-0.12444	1.00894	-1.1175	0.6525	0.0405	0	56	997	1
2026-02-11	16:32:07.130	-4.305	-0.455	-1.295	-0.199104	-0.127612	0.998936	-1.1205	0.654	0.0465	0	56	997	1
2026-02-11	16:32:07.150	-4.06	-0.105	-1.155	-0.20374	-0.138348	0.973316	-1.119	0.663	0.045	0	56	997	1
2026-02-11	16:32:07.170	-0.98	0	-0.595	-0.198372	-0.17446	0.953552	-1.1145	0.6585	0.039	0	56	997	1
2026-02-11	16:32:07.190	2.03	-0.07	0.49	-0.191052	-0.189588	0.955016	-1.1205	0.654	0.0285	0	56	997	1
2026-02-11	16:32:05.210	-0.63	-0.35	-0.105	-0.200324	-0.141764	0.973804	-1.1175	0.666	0.06	0	187	969	1
2026-02-11	16:32:05.230	-0.14	-0.42	-0.105	-0.200568	-0.144936	0.979172	-1.1145	0.6705	0.057	0	187	969	1
2026-02-11	16:32:05.250	-0.245	-0.42	-0.07	-0.199592	-0.134932	0.974536	-1.107	0.6705	0.0615	0	187	969	1
2026-02-11	16:32:05.270	-0.63	-0.245	-0.035	-0.204228	-0.137128	0.979416	-1.1205	0.672	0.0555	0	187	969	1
2026-02-11	16:32:05.290	-1.085	-0.385	-0.07	-0.19886	-0.140544	0.97356	-1.1085	0.6735	0.0585	0	187	969	1
2026-02-11	16:32:05.310	-0.735	-0.49	-0.175	-0.199348	-0.144692	0.979904	-1.1115	0.6645	0.051	0	187	969	1
2026-02-11	16:32:05.330	-0.665	-0.385	-0.105	-0.203252	-0.133956	0.979416	-1.1205	0.6705	0.0585	0	187	969	1
2026-02-11	16:32:05.350	-0.7	-0.315	0	-0.198128	-0.143716	0.974048	-1.119	0.666	0.0585	0	187	969	1
2026-02-11	16:32:05.370	-0.21	-0.455	-0.035	-0.200324	-0.139568	0.980636	-1.116	0.666	0.0555	0	187	969	1
2026-02-11	16:32:05.390	-0.595	-0.245	-0.175	-0.200812	-0.146156	0.977952	-1.1175	0.666	0.0555	0	187	969	1
2026-02-11	16:32:05.410	-0.875	-0.175	-0.175	-0.199836	-0.146888	0.972584	-1.119	0.666	0.06	0	157	977	1
2026-02-11	16:32:05.430	-0.28	-0.28	-0.175	-0.199592	-0.143716	0.976	-1.1175	0.666	0.0645	0	157	977	1
2026-02-11	16:32:05.450	-0.035	-0.315	-0.28	-0.202032	-0.134688	0.979172	-1.1115	0.669	0.0615	0	157	977	1
2026-02-11	16:32:05.470	-0.63	-0.245	-0.21	-0.203496	-0.1403	0.976244	-1.1265	0.6735	0.057	0	157	977	1
2026-02-11	16:32:05.490	-0.84	-0.21	-0.14	-0.2013	-0.1403	0.979904	-1.116	0.6615	0.054	0	157	977	1
2026-02-11	16:32:05.510	-0.595	-0.21	-0.07	-0.202276	-0.146888	0.978684	-1.1175	0.6645	0.063	0	157	977	1
2026-02-11	16:32:05.530	-0.56	-0.35	0	-0.203252	-0.143472	0.976488	-1.116	0.672	0.0585	0	157	977	1
2026-02-11	16:32:05.550	-0.35	-0.315	-0.035	-0.198372	-0.142252	0.977464	-1.113	0.663	0.0615	0	157	977	1
2026-02-11	16:32:05.570	-0.455	-0.21	-0.07	-0.199104	-0.143472	0.98088	-1.1115	0.6705	0.0585	0	157	977	1
2026-02-11	16:32:05.590	-0.525	-0.28	-0.07	-0.202032	-0.139324	0.976244	-1.11	0.6705	0.0555	0	157	977	1
2026-02-11	16:32:05.610	-0.455	-0.105	-0.105	-0.200568	-0.14274	0.976488	-1.119	0.666	0.06	0	131	983	1
2026-02-11	16:32:05.630	-0.35	-0.07	0	-0.201788	-0.136396	0.977708	-1.116	0.666	0.0525	0	131	983	1
2026-02-11	16:32:05.650	-0.595	0.175	0.245	-0.202276	-0.137616	0.979172	-1.1175	0.6675	0.06	0	131	983	1
2026-02-11	16:32:05.670	-0.98	0.35	0.42	-0.19642	-0.134932	0.979172	-1.1145	0.666	0.057	0	131	983	1
2026-02-11	16:32:05.690	-1.575	0.525	0.455	-0.202276	-0.137372	0.97722	-1.113	0.6645	0.0555	0	131	983	1
2026-02-11	16:32:05.710	-1.925	0.35	0.735	-0.203008	-0.135176	0.975268	-1.1115	0.6645	0.06	0	131	983	1
2026-02-11	16:32:05.730	-2.345	0	0.84	-0.203252	-0.145424	0.976732	-1.1085	0.663	0.0645	0	131	983	1
2026-02-11	16:32:05.750	-2.1	-0.28	0.98	-0.203008	-0.149816	0.97356	-1.113	0.672	0.0555	0	131	983	1
2026-02-11	16:32:05.770	-0.63	-0.175	0.91	-0.202764	-0.1464	0.976976	-1.11	0.675	0.0525	0	131	983	1
2026-02-11	16:32:05.790	-0.35	-0.385	0.945	-0.202764	-0.138592	0.976488	-1.1145	0.6735	0.0555	0	131	983	1
2026-02-11	16:32:05.810	-1.12	-0.945	1.12	-0.202276	-0.132736	0.976732	-1.1175	0.6675	0.06	0	110	987	1
2026-02-11	16:32:05.830	-0.875	-1.435	1.05	-0.2013	-0.153232	0.971608	-1.1085	0.6735	0.0465	0	110	987	1
2026-02-11	16:32:05.850	0.385	-1.4	0.98	-0.204716	-0.155184	0.967216	-1.116	0.672	0.057	0	110	987	1
2026-02-11	16:32:05.870	1.995	-1.47	0.805	-0.199592	-0.135664	0.976488	-1.1145	0.675	0.0585	0	110	987	1
2026-02-11	16:32:05.890	1.89	-1.68	0.805	-0.205936	-0.12078	0.981124	-1.1145	0.6705	0.057	0	110	987	1
2026-02-11	16:32:05.910	0.245	-2.065	0.7	-0.196908	-0.13298	0.976	-1.1115	0.666	0.0585	0	110	987	1
2026-02-11	16:32:05.930	-0.665	-2.24	0.735	-0.199592	-0.148596	0.975268	-1.116	0.672	0.0555	0	110	987	1
2026-02-11	16:32:05.950	0.7	-2.1	0.91	-0.199836	-0.147864	0.97234	-1.116	0.669	0.054	0	110	987	1
2026-02-11	16:32:05.970	2.065	-2.065	0.945	-0.20618	-0.136396	0.975024	-1.1145	0.6735	0.054	0	110	987	1
2026-02-11	16:32:05.990	2.24	-2.38	0.525	-0.192516	-0.136152	0.978928	-1.113	0.672	0.057	0	110	987	1
2026-02-11	16:32:06.010	0.875	-1.68	0.105	-0.196908	-0.123464	0.992104	-1.119	0.6675	0.057	0	94	990	1
2026-02-11	16:32:06.030	-1.295	-0.42	-0.28	-0.192028	-0.158844	0.978196	-1.125	0.6705	0.057	0	94	990	1
2026-02-11	16:32:06.050	-0.07	0.245	0	-0.198372	-0.185684	0.973316	-1.113	0.6645	0.0555	0	94	990	1
2026-02-11	16:32:06.070	4.235	-0.315	-0.42	-0.198372	-0.158112	0.957944	-1.116	0.672	0.0555	0	94	990	1
2026-02-11	16:32:06.090	7.525	0.14	-1.575	-0.200812	-0.150548	0.980148	-1.1115	0.6675	0.066	0	94	990	1
2026-02-11	16:32:06.110	7.175	0.875	-2.8	-0.2013	-0.0732	0.992348	-1.104	0.672	0.0645	0	94	990	1
2026-02-11	16:32:06.130	0.91	2.275	-4.585	-0.199104	-0.05124	1.003328	-1.107	0.666	0.0585	0	94	990	1
2026-02-11	16:32:06.150	-8.33	2.38	-4.97	-0.196176	-0.078568	0.997716	-1.0965	0.657	0.0585	0	94	990	1
2026-02-11	16:32:06.170	-14.245	2.695	-5.04	-0.194956	-0.144936	0.973804	-1.107	0.66	0.066	0	94	990	1
2026-02-11	16:32:06.190	-13.335	2.695	-4.515	-0.194712	-0.202032	0.945256	-1.104	0.6675	0.0585	0	94	990	1
2026-02-11	16:32:06.210	-3.29	2.485	-2.03	-0.193004	-0.184464	0.960872	-1.113	0.6615	0.0525	0	81	992	1
2026-02-11	16:32:06.230	3.43	2.45	0.49	-0.21106	-0.08784	0.982344	-1.113	0.6615	0.0525	0	81	992	1
2026-02-11	16:32:06.250	-0.525	0.875	0.98	-0.20008	-0.099552	1.002596	-1.11	0.6615	0.051	0	81	992	1
2026-02-11	16:32:06.270	-4.62	0.385	2.205	-0.201788	-0.134444	0.97234	-1.113	0.6645	0.0525	0	81	992	1
2026-02-11	16:32:06.290	-3.185	-0.7	2.835	-0.201544	-0.19276	0.950624	-1.1145	0.669	0.0525	0	81	992	1
2026-02-11	16:32:06.310	4.795	-1.295	3.43	-0.203252	-0.196908	0.964288	-1.1145	0.6705	0.0525	0	81	992	1
2026-02-11	16:32:06.330	10.29	-2.765	4.305	-0.204472	-0.174216	0.970388	-1.119	0.669	0.0555	0	81	992	1
2026-02-11	16:32:06.350	13.51	-4.725	4.935	-0.209352	-0.15006	0.974048	-1.116	0.6645	0.048	0	81	992	1
2026-02-11	16:32:06.370	16.73	-5.81	4.165	-0.209108	-0.121512	0.954284	-1.107	0.6645	0.0525	0	81	992	1
2026-02-11	16:32:06.390	16.765	-4.41	1.085	-0.197152	-0.053192	1.064084	-1.1055	0.6675	0.0555	0	81	992	1
2026-02-11	16:32:06.410	-1.33	-0.105	-1.225	-0.195932	-0.068076	1.024312	-1.1055	0.6615	0.0555	0	71	994	1
2026-02-11	16:32:06.430	-11.165	1.54	-2.415	-0.20008	-0.111752	0.937936	-1.104	0.6645	0.0585	0	71	994	1
2026-02-11	16:32:06.450	-9.31	2.485	-4.2	-0.194468	-0.130052	0.985272	-1.104	0.6585	0.0585	0	71	994	1
2026-02-11	16:32:06.470	-11.27	3.675	-4.83	-0.201544	-0.098332	0.982588	-1.1025	0.6645	0.0525	0	71	994	1
2026-02-11	16:32:06.490	-13.895	3.29	-4.9	-0.199104	-0.142984	0.968436	-1.104	0.666	0.0555	0	71	994	1
2026-02-11	16:32:06.510	-9.975	1.505	-2.94	-0.199104	-0.1952	0.953796	-1.104	0.666	0.0555	0	71	994	1
2026-02-11	16:32:06.530	-2.275	1.33	-0.7	-0.197884	-0.185684	0.950624	-1.1055	0.663	0.0525	0	71	994	1
2026-02-11	16:32:06.550	3.955	1.89	-0.035	-0.20252	-0.147376	0.979904	-1.107	0.66	0.048	0	71	994	1
2026-02-11	16:32:06.570	4.585	1.715	-0.245	-0.213256	-0.099552	0.9882	-1.104	0.6645	0.0495	0	71	994	1
2026-02-11	16:32:06.590	1.33	1.12	-0.7	-0.209596	-0.122732	0.980392	-1.1055	0.663	0.048	0	71	994	1
2026-02-11	16:32:06.610	-0.63	1.015	-1.295	-0.204716	-0.131272	0.978196	-1.107	0.6555	0.0465	0	65	995	1
2026-02-11	16:32:06.630	-1.155	1.225	-2.03	-0.205204	-0.139812	0.97844	-1.1055	0.6555	0.0495	0	65	995	1
2026-02-11	16:32:06.650	-1.925	1.785	-2.555	-0.209352	-0.119804	0.983076	-1.098	0.6585	0.048	0	65	995	1
2026-02-11	16:32:06.670	-4.025	1.645	-2.59	-0.205204	-0.13176	0.980148	-1.104	0.663	0.054	0	65	995	1
2026-02-11	16:32:06.690	-5.11	0.805	-1.96	-0.21106	-0.143228	0.970876	-1.107	0.6585	0.0555	0	65	995	1
2026-02-11	16:32:06.710	-4.095	-0.28	-0.945	-0.20984	-0.167384	0.964288	-1.1025	0.663	0.051	0	65	995	1
2026-02-11	16:32:06.730	-0.105	-1.435	-0.035	-0.210572	-0.17324	0.9577	-1.104	0.6525	0.057	0	65	995	1
2026-02-11	16:32:06.750	4.375	-1.435	0.175	-0.203984	-0.153476	0.97722	-1.116	0.6615	0.057	0	65	995	1
2026-02-11	16:32:06.770	5.145	-1.19	0.35	-0.203252	-0.122732	0.981368	-1.0995	0.6615	0.0525	0	65	995	1
2026-02-11	16:32:06.790	1.785	-0.945	0.035	-0.206668	-0.13786	0.979904	-1.104	0.657	0.051	0	65	995	1
2026-02-11	16:32:06.810	0.49	-1.19	-0.175	-0.213012	-0.139568	0.975756	-1.104	0.657	0.0525	0	60	997	1
2026-02-11	16:32:06.830	0.49	-1.505	-0.595	-0.2074	-0.137372	0.97844	-1.101	0.657	0.051	0	60	997	1
2026-02-11	16:32:06.850	0.49	-1.295	-0.735	-0.203252	-0.155916	0.97966	-1.104	0.6585	0.0465	0	60	997	1
2026-02-11	16:32:06.870	0.07	-1.295	-0.525	-0.20984	-0.132736	0.956968	-1.1115	0.6585	0.048	0	60	997	1
2026-02-11	16:32:06.890	0.175	-2.065	-0.805	-0.20374	-0.123952	0.987468	-1.1115	0.657	0.0495	0	60	997	1
2026-02-11	16:32:06.910	-1.365	-3.045	-0.595	-0.200568	-0.12078	0.979172	-1.11	0.6585	0.0465	0	60	997	1
2026-02-11	16:32:06.930	-2.205	-2.8	-0.385	-0.197884	-0.15738	0.976488	-1.1115	0.66	0.057	0	60	997	1
2026-02-11	16:32:06.950	-1.015	-1.715	-0.105	-0.197884	-0.161772	0.973804	-1.1085	0.6645	0.06	0	60	997	1
2026-02-11	16:32:06.970	0.7	-0.805	-0.07	-0.203496	-0.13298	0.97966	-1.11	0.6555	0.0495	0	60	997	1
2026-02-11	16:32:06.990	0.455	-0.455	-0.245	-0.20252	-0.127612	0.98454	-1.1115	0.6615	0.051	0	60	997	1
2026-02-11	16:32:07.010	-0.315	-0.56	-0.385	-0.205448	-0.134444	0.973804	-1.1145	0.6585	0.0495	0	56	997	1
2026-02-11	16:32:07.030	0.07	-0.455	-0.63	-0.205936	-0.140788	0.977952	-1.113	0.657	0.051	0	56	997	1
2026-02-11	16:32:07.050	1.47	-0.105	-0.91	-0.203984	-0.129076	0.982832	-1.116	0.66	0.048	0	56	997	1
2026-02-11	16:32:07.070	1.295	0.35	-1.365	-0.202276	-0.126392	0.981368	-1.1145	0.657	0.0525	0	56	997	1
2026-02-11	16:32:07.090	0.245	0.245	-1.61	-0.205204	-0.127612	0.992592	-1.1175	0.6555	0.0435	0	56	997	1
2026-02-11	16:32:07.110	-2.45	-0.14	-1.61	-0.202032	-0.12444	1.00894	-1.1175	0.6525	0.0405	0	56	997	1
2026-02-11	16:32:07.130	-4.305	-0.455	-1.295	-0.199104	-0.127612	0.998936	-1.1205	0.654	0.0465	0	56	997	1
2026-02-11	16:32:07.150	-4.06	-0.105	-1.155	-0.20374	-0.138348	0.973316	-1.119	0.663	0.045	0	56	997	1
2026-02-11	16:32:07.170	-0.98	0	-0.595	-0.198372	-0.17446	0.953552	-1.1145	0.6585	0.039	0	56	997	1
2026-02-11	16:32:07.190	2.03	-0.07	0.49	-0.191052	-0.189588	0.955016	-1.1205	0.654	0.0285	0	56	997	1
2026-02-11	16:32:05.210	-0.63	-0.35	-0.105	-0.200324	-0.141764	0.973804	-1.1175	0.666	0.06	0	187	969	1
2026-02-11	16:32:05.230	-0.14	-0.42	-0.105	-0.200568	-0.144936	0.979172	-1.1145	0.6705	0.057	0	187	969	1
2026-02-11	16:32:05.250	-0.245	-0.42	-0.07	-0.199592	-0.134932	0.974536	-1.107	0.6705	0.0615	0	187	969	1
2026-02-11	16:32:05.270	-0.63	-0.245	-0.035	-0.204228	-0.137128	0.979416	-1.1205	0.672	0.0555	0	187	969	1
2026-02-11	16:32:05.290	-1.085	-0.385	-0.07	-0.19886	-0.140544	0.97356	-1.1085	0.6735	0.0585	0	187	969	1
2026-02-11	16:32:05.310	-0.735	-0.49	-0.175	-0.199348	-0.144692	0.979904	-1.1115	0.6645	0.051	0	187	969	1
2026-02-11	16:32:05.330	-0.665	-0.385	-0.105	-0.203252	-0.133956	0.979416	-1.1205	0.6705	0.0585	0	187	969	1
2026-02-11	16:32:05.350	-0.7	-0.315	0	-0.198128	-0.143716	0.974048	-1.119	0.666	0.0585	0	187	969	1
2026-02-11	16:32:05.370	-0.21	-0.455	-0.035	-0.200324	-0.139568	0.980636	-1.116	0.666	0.0555	0	187	969	1
2026-02-11	16:32:05.390	-0.595	-0.245	-0.175	-0.200812	-0.146156	0.977952	-1.1175	0.666	0.0555	0	187	969	1
2026-02-11	16:32:05.410	-0.875	-0.175	-0.175	-0.199836	-0.146888	0.972584	-1.119	0.666	0.06	0	157	977	1
2026-02-11	16:32:05.430	-0.28	-0.28	-0.175	-0.199592	-0.143716	0.976	-1.1175	0.666	0.0645	0	157	977	1
2026-02-11	16:32:05.450	-0.035	-0.315	-0.28	-0.202032	-0.134688	0.979172	-1.1115	0.669	0.0615	0	157	977	1
2026-02-11	16:32:05.470	-0.63	-0.245	-0.21	-0.203496	-0.1403	0.976244	-1.1265	0.6735	0.057	0	157	977	1
2026-02-11	16:32:05.490	-0.84	-0.21	-0.14	-0.2013	-0.1403	0.979904	-1.116	0.6615	0.054	0	157	977	1
2026-02-11	16:32:05.510	-0.595	-0.21	-0.07	-0.202276	-0.146888	0.978684	-1.1175	0.6645	0.063	0	157	977	1
2026-02-11	16:32:05.530	-0.56	-0.35	0	-0.203252	-0.143472	0.976488	-1.116	0.672	0.0585	0	157	977	1
2026-02-11	16:32:05.550	-0.35	-0.315	-0.035	-0.198372	-0.142252	0.977464	-1.113	0.663	0.0615	0	157	977	1
2026-02-11	16:32:05.570	-0.455	-0.21	-0.07	-0.199104	-0.143472	0.98088	-1.1115	0.6705	0.0585	0	157	977	1
2026-02-11	16:32:05.590	-0.525	-0.28	-0.07	-0.202032	-0.139324	0.976244	-1.11	0.6705	0.0555	0	157	977	1
2026-02-11	16:32:19.610	-7.14	0.665	-2.94	-0.22326	-0.23302	0.913292	-1.221	0.6195	-0.045	0	373	835	1
2026-02-11	16:32:19.630	-8.085	0	-1.925	-0.2257	-0.240828	0.930616	-1.221	0.6195	-0.045	0	373	835	1
2026-02-11	16:32:19.650	-6.895	-0.42	-0.98	-0.224724	-0.247172	0.957456	-1.218	0.6135	-0.045	0	373	835	1
2026-02-11	16:32:19.670	-5.11	0.035	0.21	-0.2196	-0.224236	0.96258	-1.224	0.618	-0.0405	0	373	835	1
2026-02-11	16:32:19.690	1.96	1.68	0.455	-0.259372	-0.272304	0.903044	-1.23	0.6225	-0.036	0	373	835	1
2026-02-11	16:32:19.710	13.755	-0.35	-0.91	-0.258152	-0.20862	0.983076	-1.23	0.621	-0.045	0	373	835	1
2026-02-11	16:32:19.730	10.185	-0.7	-3.71	-0.232776	-0.145668	0.995032	-1.2255	0.615	-0.0435	0	373	835	1
2026-02-11	16:32:19.750	1.155	1.435	-4.76	-0.225212	-0.144448	0.981612	-1.2315	0.6105	-0.039	0	373	835	1
2026-02-11	16:32:19.770	-6.16	3.325	-6.23	-0.226676	-0.194956	0.963068	-1.2405	0.606	-0.036	0	373	835	1
2026-02-11	16:32:19.790	-8.33	4.48	-7.035	-0.233264	-0.23058	0.957212	-1.239	0.606	-0.0375	0	373	835	1
2026-02-11	16:32:19.810	-5.67	4.48	-7.595	-0.243024	-0.24888	0.947696	-1.236	0.603	-0.036	0	343	872	1
2026-02-11	16:32:19.830	-2.24	3.815	-7.98	-0.240828	-0.237656	0.94062	-1.2375	0.6045	-0.042	0	343	872	1
2026-02-11	16:32:19.850	1.26	3.5	-7.805	-0.241072	-0.240828	0.94306	-1.2375	0.606	-0.048	0	343	872	1
2026-02-11	16:32:19.870	4.585	2.905	-8.05	-0.245464	-0.230092	0.947208	-1.2375	0.6015	-0.0465	0	343	872	1
2026-02-11	16:32:19.890	8.085	1.89	-8.82	-0.240096	-0.225456	0.958188	-1.2375	0.594	-0.0495	0	343	872	1
2026-02-11	16:32:19.910	8.225	1.96	-10.29	-0.24766	-0.188612	0.962336	-1.236	0.5895	-0.051	0	343	872	1
2026-02-11	16:32:19.930	5.635	2.135	-13.09	-0.23424	-0.213988	0.968436	-1.2375	0.5865	-0.0495	0	343	872	1
2026-02-11	16:32:19.950	3.85	4.34	-13.44	-0.237412	-0.194224	0.964044	-1.236	0.5805	-0.0555	0	343	872	1
2026-02-11	16:32:19.970	2.52	6.195	-12.81	-0.231312	-0.202032	0.96624	-1.236	0.579	-0.063	0	343	872	1
2026-02-11	16:32:19.990	2.135	8.12	-11.095	-0.222772	-0.244488	0.970388	-1.2435	0.573	-0.0555	0	343	872	1
2026-02-11	16:32:20.010	0.56	10.71	-5.285	-0.229116	-0.235948	0.973072	-1.242	0.5625	-0.057	0	306	900	1
2026-02-11	16:32:20.030	1.12	10.885	-1.54	-0.242292	-0.266204	0.95404	-1.2345	0.5565	-0.06	0	306	900	1
2026-02-11	16:32:20.050	1.995	9.59	0.98	-0.23302	-0.192516	0.931348	-1.227	0.5535	-0.063	0	306	900	1
2026-02-11	16:32:20.070	-8.575	-0.14	5.25	-0.199348	-0.114924	0.92598	-1.2195	0.543	-0.0615	0	306	900	1
2026-02-11	16:32:20.090	-25.305	-6.195	7.21	-0.282552	-0.25132	0.876936	-1.218	0.543	-0.0525	0	306	900	1
2026-02-11	16:32:20.110	-9.73	-6.755	7.035	-0.28304	-0.25986	0.8845	-1.2165	0.543	-0.0465	0	306	900	1
2026-02-11	16:32:20.130	5.32	-7.77	10.325	-0.270108	-0.216184	0.922076	-1.209	0.537	-0.0405	0	306	900	1
2026-02-11	16:32:20.150	14.98	-7.735	11.9	-0.296216	-0.142496	0.96014	-1.209	0.5325	-0.0285	0	306	900	1
2026-02-11	16:32:20.170	13.755	-7.77	8.54	-0.276696	-0.083448	1.007232	-1.215	0.531	-0.0195	0	306	900	1
2026-02-11	16:32:20.190	6.93	-7.175	4.97	-0.247904	-0.072224	0.99552	-1.2225	0.531	-0.0165	0	306	900	1
2026-02-11	16:32:20.210	0.77	-6.405	1.75	-0.21106	-0.09857599	1.00162	-1.2255	0.5265	-0.015	0	268	920	1
2026-02-11	16:32:20.230	-6.3	-3.675	-2.8	-0.238144	-0.179096	1.03822	-1.227	0.5295	-0.0195	0	268	920	1
2026-02-11	16:32:20.250	-11.76	-2.66	-2.835	-0.21838	-0.26596	0.908412	-1.23	0.5385	-0.0255	0	268	920	1
2026-02-11	16:32:20.270	-6.755	-2.24	-1.47	-0.224968	-0.306464	0.89792	-1.2285	0.5385	-0.0285	0	268	920	1
2026-02-11	16:32:20.290	5.005	-1.19	2.73	-0.240096	-0.25864	0.952088	-1.2285	0.543	-0.0195	0	268	920	1
2026-02-11	16:32:20.310	6.86	-0.7	3.535	-0.250588	-0.195932	0.96868	-1.233	0.5415	-0.0195	0	268	920	1
2026-02-11	16:32:20.330	5.04	0.105	3.08	-0.242292	-0.168848	0.967704	-1.2375	0.5445	-0.018	0	268	920	1
2026-02-11	16:32:20.350	3.57	-0.175	0.98	-0.242536	-0.153964	0.96258	-1.2345	0.5415	-0.0165	0	268	920	1
2026-02-11	16:32:20.370	0.105	-0.77	-1.05	-0.23912	-0.17202	0.96624	-1.2345	0.534	-0.018	0	268	920	1
2026-02-11	16:32:20.390	-2.73	-0.665	-1.855	-0.240096	-0.193492	0.959896	-1.242	0.5325	-0.021	0	268	920	1
2026-02-11	16:32:20.410	-3.01	-0.665	-2.065	-0.23668	-0.225212	0.95282	-1.239	0.5355	-0.018	0	233	935	1
2026-02-11	16:32:20.430	-1.26	-0.56	-1.365	-0.244244	-0.225212	0.950624	-1.2345	0.54	-0.0135	0	233	935	1
2026-02-11	16:32:20.450	-0.035	0.035	-0.77	-0.241316	-0.218868	0.957212	-1.239	0.5415	-0.015	0	233	935	1
2026-02-11	16:32:20.470	0.805	0.105	-0.42	-0.240096	-0.199592	0.956236	-1.2405	0.5415	-0.018	0	233	935	1
2026-02-11	16:32:20.490	1.05	0.14	-0.175	-0.24034	-0.197884	0.960872	-1.2435	0.537	-0.018	0	233	935	1
2026-02-11	16:32:20.510	0.07	0.14	-0.14	-0.236436	-0.19276	0.960384	-1.2435	0.5385	-0.0195	0	233	935	1
2026-02-11	16:32:20.530	-1.05	0.035	-0.245	-0.242048	-0.188856	0.959408	-1.245	0.5445	-0.0165	0	233	935	1
2026-02-11	16:32:20.550	-2.695	0.035	-0.455	-0.240584	-0.192272	0.96502	-1.245	0.54	-0.015	0	233	935	1
2026-02-11	16:32:20.570	-3.185	-0.385	-0.28	-0.243024	-0.210084	0.952088	-1.2405	0.534	-0.018	0	233	935	1
2026-02-11	16:32:20.590	-1.75	-0.315	0.455	-0.238632	-0.205448	0.953796	-1.2405	0.534	-0.018	0	233	935	1
2026-02-11	16:32:20.610	-1.155	-0.21	0.35	-0.240584	-0.211304	0.95526	-1.239	0.534	-0.0195	0	202	947	1
2026-02-11	16:32:20.630	-0.98	-0.245	0.28	-0.243024	-0.202276	0.955504	-1.245	0.54	-0.018	0	202	947	1
2026-02-11	16:32:20.650	-0.98	-0.175	0	-0.241316	-0.198616	0.959408	-1.245	0.5385	-0.0165	0	202	947	1
2026-02-11	16:32:20.670	-1.33	-0.21	0.105	-0.243756	-0.2135	0.959164	-1.242	0.534	-0.015	0	202	947	1
2026-02-11	16:32:20.690	-1.995	-0.315	0.245	-0.238388	-0.183	0.96624	-1.242	0.537	-0.0165	0	202	947	1
2026-02-11	16:32:20.710	-4.48	-0.35	0.735	-0.23546	-0.182024	0.965752	-1.2405	0.5385	-0.021	0	202	947	1
2026-02-11	16:32:20.730	-6.79	-1.47	1.61	-0.23668	-0.145424	0.983076	-1.239	0.5475	-0.018	0	202	947	1
2026-02-11	16:32:20.750	-12.985	-4.9	2.66	-0.248392	-0.188368	0.96502	-1.2405	0.5505	-0.0135	0	202	947	1
2026-02-11	16:32:20.770	-13.72	-8.54	4.025	-0.2318	-0.286456	0.914512	-1.2405	0.5505	-0.009	0	202	947	1
2026-02-11	16:32:20.790	-7.385	-6.79	6.02	-0.231556	-0.32208	0.932324	-1.239	0.558	-0.0075	0	202	947	1
2026-02-11	16:32:20.810	-1.12	-4.515	6.615	-0.236192	-0.232776	0.948916	-1.2405	0.5595	-0.0075	0	175	955	1
2026-02-11	16:32:20.830	0.56	-2.625	6.755	-0.234728	-0.219356	0.953552	-1.2345	0.5535	-0.006	0	175	955	1
2026-02-11	16:32:20.850	1.645	-1.68	4.9	-0.233264	-0.192272	0.968192	-1.2285	0.552	-0.006	0	175	955	1
2026-02-11	16:32:20.870	-0.98	-1.33	1.54	-0.235704	-0.166896	0.969168	-1.2285	0.552	-0.006	0	175	955	1
2026-02-11	16:32:20.890	-4.865	-1.26	0.385	-0.237412	-0.221308	0.956968	-1.23	0.558	-0.0045	0	175	955	1
2026-02-11	16:32:20.910	-6.58	-1.155	-0.035	-0.233752	-0.168116	0.963556	-1.233	0.567	-0.0075	0	175	955	1
2026-02-11	16:32:20.930	-8.47	-2.625	0.035	-0.227408	-0.236192	0.961116	-1.239	0.5715	-0.0075	0	175	955	1
2026-02-11	16:32:20.950	-5.565	-2.625	1.19	-0.241804	-0.30134	0.92354	-1.239	0.5745	-0.0045	0	175	955	1
2026-02-11	16:32:20.970	1.12	-1.785	1.785	-0.232044	-0.269132	0.947452	-1.2375	0.579	-0.006	0	175	955	1
2026-02-11	16:32:20.990	4.445	-0.875	1.47	-0.238144	-0.238388	0.975756	-1.242	0.5775	-0.0045	0	175	955	1
2026-02-11	16:32:21.010	2.45	-1.05	2.03	-0.245952	-0.195688	0.954284	-1.242	0.573	-0.003	0	152	961	1
2026-02-11	16:32:21.030	-0.84	-1.225	0.315	-0.22936	-0.176168	0.967948	-1.2375	0.573	-0.006	0	152	961	1
2026-02-11	16:32:21.050	-3.5	-2.625	-0.875	-0.23546	-0.181292	0.967704	-1.2315	0.5715	-0.009	0	152	961	1
2026-02-11	16:32:21.070	-5.04	-3.745	-0.7	-0.229116	-0.246196	0.942816	-1.2375	0.573	-0.0015	0	152	961	1
2026-02-11	16:32:21.090	-2.905	-2.87	-0.805	-0.225456	-0.254004	0.944036	-1.239	0.573	-0.0015	0	152	961	1
2026-02-11	16:32:21.110	0.595	-1.995	-0.14	-0.229604	-0.232532	0.949404	-1.2345	0.57	-0.006	0	152	961	1
2026-02-11	16:32:21.130	0.84	-1.365	0.84	-0.22082	-0.207888	0.960384	-1.239	0.5715	-0.0075	0	152	961	1
2026-02-11	16:32:21.150	-0.63	-1.89	0.595	-0.221308	-0.214964	0.955992	-1.2405	0.5745	-0.0045	0	152	961	1
2026-02-11	16:32:21.170	-0.805	-1.715	0.315	-0.227164	-0.2257	0.953064	-1.2375	0.573	-0.006	0	152	961	1
2026-02-11	16:32:21.190	-0.49	-1.505	-0.035	-0.217892	-0.218624	0.952576	-1.236	0.573	-0.0045	0	152	961	1
2026-02-11	16:32:21.210	-0.14	-1.015	0.14	-0.225944	-0.233508	0.960628	-1.239	0.5715	-0.006	0	134	966	1
2026-02-11	16:32:21.230	0.105	-0.945	0.595	-0.2257	-0.213012	0.9516	-1.245	0.57	-0.006	0	134	966	1
2026-02-11	16:32:21.250	0.77	-1.155	0.56	-0.230092	-0.225944	0.96136	-1.245	0.573	-0.0045	0	134	966	1
2026-02-11	16:32:21.270	2.135	-1.89	0.35	-0.227164	-0.219356	0.959896	-1.239	0.5715	-0.0045	0	134	966	1
2026-02-11	16:32:21.290	2.485	-1.785	-0.21	-0.226432	-0.202764	0.965752	-1.2375	0.5715	-0.006	0	134	966	1
2026-02-11	16:32:21.310	1.61	-2.205	0.035	-0.237656	-0.203008	0.984784	-1.2375	0.5745	-0.0045	0	134	966	1
2026-02-11	16:32:21.330	-0.14	-2.8	0.07	-0.221064	-0.21472	0.959408	-1.2375	0.573	-0.0075	0	134	966	1
2026-02-11	16:32:21.350	-0.7	-1.89	-0.385	-0.223992	-0.211792	0.954284	-1.236	0.5715	-0.009	0	134	966	1
2026-02-11	16:32:21.370	0.84	-2.03	-1.4	-0.236192	-0.237168	0.988932	-1.236	0.57	-0.0075	0	134	966	1
2026-02-11	16:32:21.390	1.4	-2.485	-1.68	-0.236192	-0.240828	0.99186	-1.236	0.5715	-0.0135	0	134	966	1
2026-02-11	16:32:21.410	2.66	1.26	3.99	-0.259128	-0.1647	0.938668	-1.2345	0.5715	-0.018	0	118	969	1
2026-02-11	16:32:21.430	-8.54	1.225	-1.015	-0.191296	-0.188368	0.856196	-1.2315	0.5745	-0.024	0	118	969	1
2026-02-11	16:32:21.450	-9.03	1.19	-2.485	-0.200324	-0.205936	0.847412	-1.2285	0.5805	-0.0285	0	118	969	1
2026-02-11	16:32:21.470	-10.815	0.14	-3.57	-0.17446	-0.233264	0.880352	-1.224	0.5775	-0.0255	0	118	969	1
2026-02-11	16:32:21.490	-8.05	1.82	0.91	-0.20618	-0.317444	1.042612	-1.23	0.582	-0.0225	0	118	969	1
2026-02-11	16:32:21.510	2.555	2.065	7.21	-0.252296	-0.26718	1.013576	-1.236	0.585	-0.0165	0	118	969	1
2026-02-11	16:32:21.530	3.71	3.5	8.785	-0.246684	-0.149084	1.013576	-1.2405	0.582	-0.012	0	118	969	1
2026-02-11	16:32:21.550	-4.13	4.97	7.385	-0.222528	-0.199104	0.953308	-1.242	0.5865	-0.0105	0	118	969	1
2026-02-11	16:32:21.570	-5.705	4.515	7.07	-0.2318	-0.228384	0.931104	-1.2375	0.5895	-0.009	0	118	969	1
2026-02-11	16:32:21.590	-2.38	1.575	5.215	-0.247416	-0.228872	0.947208	-1.233	0.5895	-0.009	0	118	969	1
2026-02-11	16:32:21.610	1.155	-2.205	2.485	-0.249124	-0.27084	0.948916	-1.2375	0.5895	-0.0045	0	106	971	1
2026-02-11	16:32:21.630	4.55	-6.16	-0.315	-0.247416	-0.285968	0.914512	-1.2345	0.594	-0.0015	0	106	971	1
2026-02-11	16:32:21.650	3.71	-6.16	-3.955	-0.229604	-0.191784	1.016748	-1.227	0.5925	-0.0015	0	106	971	1
2026-02-11	16:32:21.670	-9.485	-0.63	-8.96	-0.253028	-0.205692	0.98698	-1.233	0.588	-0.0015	0	106	971	1
2026-02-11	16:32:21.690	-9.485	3.815	-8.295	-0.180316	-0.224968	0.902068	-1.2375	0.588	-0.0015	0	106	971	1
2026-02-11	16:32:21.710	-0.805	6.195	-6.79	-0.199348	-0.167628	0.978928	-1.239	0.585	-0.006	0	106	971	1
2026-02-11	16:32:21.730	-6.58	5.32	-11.13	-0.222772	-0.206912	0.975024	-1.236	0.579	-0.009	0	106	971	1
2026-02-11	16:32:21.750	-9.87	5.145	-10.815	-0.222772	-0.224724	0.962824	-1.2345	0.579	-0.006	0	106	971	1
2026-02-11	16:32:21.770	-8.4	5.215	-8.4	-0.24888	-0.249856	0.94672	-1.239	0.5775	-0.003	0	106	971	1
2026-02-11	16:32:21.790	-4.515	3.395	-5.145	-0.24034	-0.308416	0.92598	-1.2435	0.5775	-0.003	0	106	971	1
2026-02-11	16:32:21.810	0.98	2.415	-1.68	-0.249368	-0.299632	0.939888	-1.242	0.5835	-0.0015	0	96	972	1
2026-02-11	16:32:21.830	4.515	1.015	0	-0.235216	-0.266936	0.94428	-1.236	0.582	-0.0015	0	96	972	1
2026-02-11	16:32:21.850	6.51	0.525	0.63	-0.23668	-0.227896	0.9455	-1.236	0.5775	-0.0045	0	96	972	1
2026-02-11	16:32:21.870	5.215	0.84	0.875	-0.234484	-0.19886	0.96624	-1.2375	0.5775	-0.003	0	96	972	1
2026-02-11	16:32:21.890	1.68	0.98	0.455	-0.235948	-0.227164	0.959896	-1.236	0.5745	-0.003	0	96	972	1
2026-02-11	16:32:21.910	-0.63	0.595	0	-0.236924	-0.216916	0.951844	-1.236	0.5745	0	0	96	972	1
2026-02-11	16:32:21.930	-1.085	0.28	-0.28	-0.238144	-0.239852	0.949404	-1.233	0.5715	0	0	96	972	1
2026-02-11	16:32:21.950	-1.26	-0.035	-0.385	-0.238144	-0.24766	0.951112	-1.2345	0.5745	0.003	0	96	972	1
2026-02-11	16:32:21.970	-1.68	0.07	0	-0.237412	-0.241072	0.948672	-1.2375	0.5805	0.003	0	96	972	1
2026-02-11	16:32:21.990	-2.555	0.91	-0.42	-0.231556	-0.239608	0.960872	-1.2345	0.5805	0	0	96	972	1
2026-02-11	16:32:22.010	-6.09	1.75	-0.98	-0.232288	-0.206912	0.948672	-1.2345	0.5805	0	0	89	973	1
2026-02-11	16:32:22.030	-6.825	2.03	-1.015	-0.239364	-0.252784	0.947452	-1.236	0.576	0.0015	0	89	973	1
2026-02-11	16:32:22.050	-5.39	1.61	-0.84	-0.238144	-0.251808	0.94184	-1.236	0.5745	-0.003	0	89	973	1
2026-02-11	16:32:22.070	-3.85	1.225	-1.05	-0.242292	-0.261568	0.94306	-1.2315	0.579	-0.0105	0	89	973	1
2026-02-11	16:32:22.090	-1.82	0.805	-0.21	-0.242048	-0.255224	0.940132	-1.233	0.579	-0.006	0	89	973	1
2026-02-11	16:32:22.110	0.91	0.42	0.035	-0.239852	-0.244732	0.946476	-1.236	0.582	0	0	89	973	1
2026-02-11	16:32:22.130	1.015	0	-0.105	-0.24034	-0.237412	0.952088	-1.236	0.582	-0.003	0	89	973	1
2026-02-11	16:32:22.150	-0.315	-0.455	-0.525	-0.254248	-0.231556	0.97478	-1.2345	0.576	-0.0045	0	89	973	1
2026-02-11	16:32:22.170	-2.73	-2.065	-1.295	-0.267668	-0.207156	1.003572	-1.2375	0.5745	-0.003	0	89	973	1
2026-02-11	16:32:22.190	-7.385	-5.145	-1.75	-0.248636	-0.22692	0.98332	-1.239	0.576	-0.006	0	89	973	1
2026-02-11	16:32:22.210	-6.86	-5.565	-1.47	-0.235704	-0.240828	0.933544	-1.2345	0.5805	-0.0045	0	82	973	1
2026-02-11	16:32:22.230	-5.425	-4.235	-3.71	-0.229848	-0.24888	0.94306	-1.2315	0.5835	-0.0045	0	82	973	1
2026-02-11	16:32:22.250	-12.005	-2.87	-6.125	-0.203008	-0.229604	0.891088	-1.2315	0.585	-0.009	0	82	973	1
2026-02-11	16:32:22.270	-15.68	-0.175	-4.55	-0.190076	-0.27084	0.873764	-1.233	0.585	-0.012	0	82	973	1
2026-02-11	16:32:22.290	-9.625	3.01	-0.56	-0.201544	-0.339404	0.933788	-1.233	0.5865	-0.0135	0	82	973	1
2026-02-11	16:32:22.310	-4.795	4.025	4.55	-0.255712	-0.291336	0.983564	-1.239	0.5955	-0.009	0	82	973	1
2026-02-11	16:32:22.330	-3.71	1.925	3.71	-0.252296	-0.260592	0.945256	-1.233	0.6	-0.003	0	82	973	1
2026-02-11	16:32:22.350	-0.945	3.57	1.33	-0.251564	-0.258884	0.969168	-1.2315	0.5985	0.0015	0	82	973	1
2026-02-11	16:32:22.370	-0.91	6.09	-1.4	-0.244976	-0.210572	0.964288	-1.236	0.597	0.003	0	82	973	1
2026-02-11	16:32:22.390	-6.16	7.385	-4.41	-0.232532	-0.244	0.947452	-1.236	0.597	0.0015	0	82	973	1
2026-02-11	16:32:22.410	-9.59	6.51	-5.6	-0.244	-0.264252	0.938912	-1.233	0.594	0	0	77	972	1
2026-02-11	16:32:22.430	-9.45	4.34	-5.88	-0.24888	-0.318176	0.930616	-1.2315	0.5925	0.006	0	77	972	1
2026-02-11	16:32:22.450	-5.775	2.1	-5.285	-0.255956	-0.300608	0.922808	-1.2345	0.5925	0.0045	0	77	972	1
2026-02-11	16:32:22.470	-2.905	0.49	-4.305	-0.259372	-0.315736	0.921344	-1.2375	0.597	0.0015	0	77	972	1
2026-02-11	16:32:22.490	1.855	-0.84	-2.625	-0.253028	-0.300852	0.932568	-1.2375	0.5985	0.003	0	77	972	1
2026-02-11	16:32:22.510	5.95	-1.715	-2.17	-0.245952	-0.291336	0.931104	-1.2375	0.594	0.003	0	77	972	1
2026-02-11	16:32:22.530	6.825	-1.855	-2.135	-0.234484	-0.257908	0.943304	-1.2405	0.591	0.003	0	77	972	1
2026-02-11	16:32:22.550	4.27	-0.945	-1.75	-0.243512	-0.259128	0.940132	-1.2375	0.588	0.0015	0	77	972	1
2026-02-11	16:32:22.570	3.955	-0.84	-1.26	-0.240828	-0.2623	0.942816	-1.233	0.588	0.0015	0	77	972	1
2026-02-11	16:32:22.590	5.565	-1.89	-0.91	-0.24278	-0.277428	0.930616	-1.239	0.5865	0.0075	0	77	972	1
2026-02-11	16:32:22.610	5.425	-1.925	-1.12	-0.236192	-0.257176	0.955016	-1.2435	0.5865	-0.003	0	72	970	1
2026-02-11	16:32:22.630	2.24	-0.105	-0.98	-0.24034	-0.268644	0.956236	-1.242	0.585	-0.0015	0	72	970	1
2026-02-11	16:32:22.650	3.465	0.315	0.84	-0.231556	-0.258884	0.92476	-1.2435	0.5835	0	0	72	970	1
2026-02-11	16:32:22.670	4.83	-0.7	2.835	-0.24156	-0.221308	0.964532	-1.245	0.5805	0	0	72	970	1
2026-02-11	16:32:22.690	1.54	-3.57	4.69	-0.244	-0.25498	0.94794	-1.2375	0.576	0	0	72	970	1
2026-02-11	16:32:22.710	1.82	-5.425	6.44	-0.234972	-0.2867	0.91866	-1.236	0.5805	-0.003	0	72	970	1
2026-02-11	16:32:22.730	5.355	-5.6	6.965	-0.236436	-0.30866	0.925736	-1.239	0.582	-0.0015	0	72	970	1
2026-02-11	16:32:22.750	9.66	-4.83	7.945	-0.239364	-0.301584	0.921588	-1.239	0.5805	0.0015	0	72	970	1
2026-02-11	16:32:22.770	11.97	-3.22	8.435	-0.244488	-0.251808	0.956724	-1.2405	0.5805	0	0	72	970	1
2026-02-11	16:32:22.790	8.155	-1.365	6.195	-0.23546	-0.194712	0.971608	-1.239	0.582	0.003	0	72	970	1
2026-02-11	16:32:22.810	2.87	0.07	2.45	-0.232044	-0.171532	0.962336	-1.2375	0.585	0.0015	0	67	968	1
2026-02-11	16:32:22.830	-3.15	-0.175	0.56	-0.238144	-0.20618	0.964532	-1.2375	0.582	0	0	67	968	1
2026-02-11	16:32:22.850	-7.56	-2.73	1.925	-0.242536	-0.245952	0.984052	-1.236	0.5775	0.003	0	67	968	1
2026-02-11	16:32:22.870	-11.69	-6.055	5.285	-0.240584	-0.303536	0.928176	-1.236	0.5775	0.003	0	67	968	1
2026-02-11	16:32:22.890	-6.965	-7.35	7.945	-0.247416	-0.295728	0.904264	-1.236	0.594	0	0	67	968	1
2026-02-11	16:32:22.910	2.31	-8.365	8.645	-0.233508	-0.309636	0.935496	-1.239	0.597	0.0045	0	67	968	1
2026-02-11	16:32:22.930	8.54	-7.91	9.065	-0.231556	-0.264984	0.936716	-1.236	0.6	0.0045	0	67	968	1
2026-02-11	16:32:22.950	5.915	-5.775	7.665	-0.220576	-0.17446	0.944036	-1.233	0.5985	0.003	0	67	968	1
2026-02-11	16:32:22.970	-5.46	-2.345	5.18	-0.213256	-0.184464	0.981612	-1.236	0.5955	0.006	0	67	968	1
2026-02-11	16:32:22.990	-15.68	0.77	3.92	-0.233508	-0.30866	0.93696	-1.23	0.5985	0.003	0	67	968	1
2026-02-11	16:32:23.010	-6.44	0.735	0.805	-0.23424	-0.369172	0.883036	-1.2255	0.6075	0.0015	0	63	967	1
2026-02-11	16:32:23.030	6.23	3.99	-3.08	-0.256688	-0.260592	0.96136	-1.2285	0.6075	0.0075	0	63	967	1
2026-02-11	16:32:23.050	5.215	5.985	-12.355	-0.247904	-0.18178	0.9821	-1.2255	0.6	0.0075	0	63	967	1
2026-02-11	16:32:23.070	-0.98	7.14	-22.75	-0.222284	-0.09394	0.98332	-1.227	0.5955	0.0015	0	63	967	1
2026-02-11	16:32:23.090	-7.315	8.75	-26.88	-0.210084	-0.180316	0.965752	-1.2345	0.594	-0.0015	0	63	967	1
2026-02-11	16:32:23.110	-4.48	5.705	-24.92	-0.238388	-0.2745	0.767624	-1.242	0.588	0	0	63	967	1
2026-02-11	16:32:23.130	2.59	-2.345	-9.695	-0.22082	-0.284992	0.943548	-1.245	0.585	0.0045	0	63	967	1
2026-02-11	16:32:23.150	-4.305	-3.08	-1.365	-0.238144	-0.297192	0.99918	-1.245	0.585	0.0045	0	63	967	1
2026-02-11	16:32:23.170	-7.315	-4.97	6.195	-0.207156	-0.27572	0.911096	-1.2525	0.5835	-0.003	0	63	967	1
2026-02-11	16:32:23.190	-1.085	-7.91	14.665	-0.22814	-0.363316	0.876204	-1.245	0.5835	-0.0045	0	63	967	1
2026-02-11	16:32:23.210	7.595	-9.135	19.635	-0.258152	-0.339404	0.90402	-1.2435	0.585	-0.003	0	61	965	1
2026-02-11	16:32:23.230	7.525	-5.46	25.97	-0.230824	-0.322568	0.945012	-1.242	0.588	-0.0015	0	61	965	1
2026-02-11	16:32:23.250	11.06	-1.19	23.905	-0.227408	-0.22326	0.950136	-1.242	0.5925	0.0015	0	61	965	1
2026-02-11	16:32:23.270	14.7	0.14	16.03	-0.212524	-0.145912	0.95892	-1.2405	0.594	0.006	0	61	965	1
2026-02-11	16:32:23.290	11.725	1.365	6.125	-0.227408	-0.08662	0.970388	-1.2375	0.5895	0.0045	0	61	965	1
2026-02-11	16:32:23.310	2.345	1.89	-2.17	-0.236436	-0.216916	0.997472	-1.236	0.591	0.0015	0	61	965	1
2026-02-11	16:32:23.330	-5.18	0.98	-6.37	-0.262788	-0.24034	1.01016	-1.236	0.588	0	0	61	965	1
2026-02-11	16:32:23.350	-11.445	-0.56	-8.925	-0.244488	-0.220576	0.949892	-1.236	0.588	0	0	61	965	1
2026-02-11	16:32:23.370	-10.57	-1.645	-11.305	-0.224968	-0.26108	0.912072	-1.239	0.588	0.0045	0	61	965	1
2026-02-11	16:32:23.390	-3.43	-3.185	-10.325	-0.210084	-0.270108	0.927688	-1.2405	0.588	0.0075	0	61	965	1
2026-02-11	16:32:23.410	-0.875	-3.15	-5.565	-0.233996	-0.297436	1.012112	-1.2405	0.594	0.0075	0	61	965	1
2026-02-11	16:32:23.430	-7.945	-0.77	-1.225	-0.204228	-0.238388	0.93452	-1.2405	0.594	0.0075	0	61	965	1
2026-02-11	16:32:23.450	-1.225	0.875	2.625	-0.222772	-0.31842	0.916952	-1.2405	0.588	0.0045	0	61	965	1
2026-02-11	16:32:23.470	4.69	0.245	6.965	-0.2257	-0.274256	0.928176	-1.236	0.591	0.003	0	61	965	1
2026-02-11	16:32:23.490	4.375	0.875	5.32	-0.231068	-0.180804	0.96746	-1.242	0.597	0	0	61	965	1
2026-02-11	16:32:23.510	-2.31	1.19	1.225	-0.232288	-0.163724	0.984052	-1.2375	0.591	0	0	61	965	1
2026-02-11	16:32:23.530	-6.615	2.17	-0.385	-0.217648	-0.221308	0.954528	-1.236	0.591	0	0	61	965	1
2026-02-11	16:32:23.550	-7.07	2.38	-1.47	-0.222284	-0.2623	0.93574	-1.2375	0.594	0	0	61	965	1
2026-02-11	16:32:23.570	-6.09	2.555	-0.735	-0.230092	-0.28548	0.947208	-1.2375	0.5925	0	0	61	965	1
2026-02-11	16:32:23.590	-5.11	2.415	0.56	-0.244976	-0.283284	0.945256	-1.236	0.5955	0	0	61	965	1
2026-02-11	16:32:23.610	-3.15	1.4	1.155	-0.237168	-0.259372	0.938912	-1.2345	0.5985	0.003	0	62	965	1
2026-02-11	16:32:23.630	-1.05	1.19	1.505	-0.231556	-0.247416	0.93452	-1.236	0.6	0.006	0	62	965	1
2026-02-11	16:32:23.650	0.35	0.98	1.61	-0.243024	-0.284992	0.942572	-1.236	0.5955	0.003	0	62	965	1
2026-02-11	16:32:23.670	1.05	1.015	1.4	-0.240828	-0.2623	0.9455	-1.236	0.5985	0.003	0	62	965	1
2026-02-11	16:32:23.690	0.35	0.84	-0.21	-0.24034	-0.233264	0.954772	-1.2375	0.606	0.006	0	62	965	1
2026-02-11	16:32:23.710	-3.22	0.735	-1.19	-0.233996	-0.233508	0.949648	-1.2375	0.606	0.006	0	62	965	1
2026-02-11	16:32:23.730	-4.9	0.245	-0.7	-0.226676	-0.25498	0.942328	-1.2375	0.6045	0.0045	0	62	965	1
2026-02-11	16:32:23.750	-2.45	-0.035	0.49	-0.232288	-0.282552	0.937936	-1.2345	0.603	0.0015	0	62	965	1
2026-02-11	16:32:23.770	1.61	-0.28	1.295	-0.244732	-0.269132	0.945988	-1.2345	0.597	0.0045	0	62	965	1
2026-02-11	16:32:23.790	4.585	-1.33	1.19	-0.251564	-0.24156	0.977952	-1.2375	0.603	0.0105	0	62	965	1
2026-02-11	16:32:23.810	2.905	-3.01	0.63	-0.252784	-0.223748	0.970876	-1.2345	0.6015	0.0045	0	62	966	1
2026-02-11	16:32:23.830	-1.12	-3.605	-1.085	-0.238144	-0.222772	0.946476	-1.2345	0.603	0.0015	0	62	966	1
2026-02-11	16:32:23.850	-3.71	-3.815	-3.535	-0.227652	-0.244732	0.92842	-1.2345	0.6075	0	0	62	966	1
2026-02-11	16:32:23.870	-10.535	-1.47	-5.18	-0.207888	-0.251076	0.906216	-1.2345	0.609	-0.0015	0	62	966	1
2026-02-11	16:32:23.890	-11.2	1.47	-4.235	-0.204472	-0.287676	0.88328	-1.236	0.606	0	0	62	966	1
2026-02-11	16:32:23.910	-5.355	3.675	-1.61	-0.1769	-0.34038	0.976976	-1.2375	0.609	0	0	62	966	1
2026-02-11	16:32:23.930	2.765	6.93	2.485	-0.216916	-0.311832	0.942328	-1.239	0.612	0	0	62	966	1
2026-02-11	16:32:23.950	10.92	5.95	5.565	-0.261568	-0.33184	0.931348	-1.239	0.606	0.0045	0	62	966	1
2026-02-11	16:32:23.970	14.105	6.195	2.94	-0.254736	-0.213012	0.97478	-1.239	0.6015	0.0075	0	62	966	1
2026-02-11	16:32:23.990	9.555	7.035	-0.455	-0.247172	-0.17324	0.963068	-1.2405	0.603	0.0045	0	62	966	1
2026-02-11	16:32:24.010	4.795	6.93	-1.645	-0.254736	-0.215452	0.955016	-1.23	0.597	0	0	61	967	1
2026-02-11	16:32:24.030	3.395	6.125	-2.695	-0.252052	-0.282552	0.954528	-1.23	0.5955	0.006	0	61	967	1
2026-02-11	16:32:24.050	6.335	4.935	-2.73	-0.25254	-0.299144	0.942328	-1.2375	0.588	-0.0015	0	61	967	1
2026-02-11	16:32:24.070	14.595	4.375	-1.715	-0.263764	-0.342088	0.962092	-1.23	0.585	0.003	0	61	967	1
2026-02-11	16:32:24.090	19.18	2.94	0.77	-0.275476	-0.265716	0.967216	-1.233	0.5865	0.0015	0	61	967	1
2026-02-11	16:32:24.110	15.96	2.31	5.285	-0.281088	-0.304024	0.976244	-1.233	0.5865	0	0	61	967	1
2026-02-11	16:32:24.130	16.59	0.875	7	-0.265472	-0.292068	0.967216	-1.227	0.5775	-0.003	0	61	967	1
2026-02-11	16:32:24.150	19.985	1.33	6.335	-0.239852	-0.24888	0.96868	-1.218	0.564	-0.003	0	61	967	1
2026-02-11	16:32:24.170	24.465	1.96	4.13	-0.234972	-0.126148	0.97722	-1.2105	0.558	-0.0105	0	61	967	1
2026-02-11	16:32:24.190	14	-1.82	4.165	-0.128344	0.014884	0.939888	-1.206	0.5505	-0.024	0	61	967	1
2026-02-11	16:32:24.210	-33.565	-11.165	4.06	-0.332572	-0.540216	0.896944	-1.1955	0.5505	-0.027	0	61	967	1
2026-02-11	16:32:24.230	-12.075	-5.18	2.1	-0.211792	-0.25132	0.939156	-1.188	0.5565	-0.0255	0	61	967	1
2026-02-11	16:32:24.250	-0.525	-3.605	6.965	-0.227408	-0.24156	0.85766	-1.188	0.5475	-0.0225	0	61	967	1
2026-02-11	16:32:24.270	7.665	-4.9	7.98	-0.231068	-0.152988	0.914756	-1.191	0.54	-0.0195	0	61	967	1
2026-02-11	16:32:24.290	3.22	-6.93	7.07	-0.23546	-0.129564	0.942572	-1.173	0.531	-0.012	0	61	967	1
2026-02-11	16:32:24.310	2.345	-8.19	6.755	-0.252052	-0.15372	0.970388	-1.1745	0.54	-0.009	0	61	967	1
2026-02-11	16:32:24.330	10.395	-8.645	8.12	-0.261812	-0.15982	0.9455	-1.179	0.5355	0.012	0	61	967	1
2026-02-11	16:32:24.350	17.185	-8.68	7.56	-0.268644	-0.13298	0.926712	-1.1775	0.534	0.006	0	61	967	1
2026-02-11	16:32:24.370	14.98	-8.575	5.355	-0.275476	-0.108336	0.975756	-1.182	0.531	0.0195	0	61	967	1
2026-02-11	16:32:24.390	13.475	-8.47	1.855	-0.277184	-0.120536	0.989176	-1.185	0.528	0.0165	0	61	967	1
2026-02-11	16:32:24.410	12.53	-6.965	0.14	-0.26962	-0.157624	1.040172	-1.1955	0.522	0.021	0	62	968	1
2026-02-11	16:32:24.430	12.04	-4.97	-0.455	-0.2379	-0.196908	0.993812	-1.2105	0.522	0.0255	0	62	968	1
2026-02-11	16:32:24.450	12.635	-3.01	-0.385	-0.22936	-0.193492	0.931592	-1.215	0.522	0.0195	0	62	968	1
2026-02-11	16:32:24.470	11.375	-4.69	-0.735	-0.243268	-0.161772	0.90524	-1.227	0.5265	0.0105	0	62	968	1
2026-02-11	16:32:24.490	7.84	-8.715	-2.66	-0.191784	-0.12688	0.920856	-1.242	0.5295	0.003	0	62	968	1
2026-02-11	16:32:24.510	3.78	-10.78	-3.395	-0.141032	-0.121512	0.975024	-1.251	0.531	0.0015	0	62	968	1
2026-02-11	16:32:24.530	-1.575	-8.855	-3.64	-0.15006	-0.154696	1.004548	-1.2675	0.5265	0.0075	0	62	968	1
2026-02-11	16:32:24.550	-1.89	-2.835	-3.5	-0.166164	-0.210816	0.970144	-1.2765	0.5205	0.012	0	62	968	1
2026-02-11	16:32:24.570	4.655	0.35	-2.695	-0.198372	-0.154452	0.9699	-1.2855	0.519	0.03	0	62	968	1
2026-02-11	16:32:24.590	4.06	3.36	-3.815	-0.240584	-0.147376	1.004304	-1.2885	0.519	0.042	0	62	968	1
2026-02-11	16:32:24.610	3.115	5.46	-4.095	-0.263032	-0.141276	1.010648	-1.2795	0.5205	0.048	0	64	970	1
2026-02-11	16:32:24.630	3.15	5.635	-2.695	-0.272792	-0.14884	1.010404	-1.287	0.5115	0.0555	0	64	970	1
2026-02-11	16:32:24.650	3.22	3.605	-0.385	-0.270352	-0.215208	0.975512	-1.284	0.504	0.054	0	64	970	1
2026-02-11	16:32:24.670	4.095	-0.245	1.995	-0.270352	-0.23302	0.942572	-1.281	0.498	0.0615	0	64	970	1
2026-02-11	16:32:24.690	5.53	-4.62	2.485	-0.287188	-0.216428	0.961848	-1.2795	0.5025	0.0585	0	64	970	1
2026-02-11	16:32:24.710	6.37	-6.475	0.665	-0.286944	-0.147864	0.947452	-1.2795	0.5055	0.06	0	64	970	1
2026-02-11	16:32:24.730	5.95	-2.835	-2.24	-0.237656	-0.143228	1.009428	-1.2825	0.504	0.0585	0	64	970	1
2026-02-11	16:32:24.750	0	0.14	-4.025	-0.2074	-0.152744	0.954528	-1.29	0.504	0.0465	0	64	970	1
2026-02-11	16:32:24.770	0.21	2.345	-4.515	-0.190564	-0.133712	0.9333	-1.299	0.504	0.036	0	64	970	1
2026-02-11	16:32:24.790	0.875	2.1	-5.775	-0.165188	-0.112484	0.976244	-1.3065	0.5055	0.0255	0	64	970	1
2026-02-11	16:32:24.810	-4.165	1.19	-7.28	-0.15982	-0.080032	0.981124	-1.3125	0.5085	0.0165	0	67	975	1
2026-02-11	16:32:24.830	-7.77	1.085	-7.28	-0.174216	-0.099064	0.937204	-1.317	0.51	0.0105	0	67	975	1
2026-02-11	16:32:24.850	-1.225	2.45	-6.405	-0.178608	-0.144448	0.999912	-1.332	0.4995	0.0135	0	67	975	1
2026-02-11	16:32:24.870	-1.12	2.38	-1.89	-0.210572	-0.056364	1.081164	-1.3215	0.507	0.0255	0	67	975	1
2026-02-11	16:32:24.890	-10.045	0.175	2.59	-0.238632	-0.099796	1.038952	-1.3305	0.498	0.042	0	67	975	1
2026-02-11	16:32:24.910	-16.135	-2.485	6.86	-0.269864	-0.280112	0.924028	-1.32	0.489	0.045	0	67	975	1
2026-02-11	16:32:24.930	-16.24	-5.005	11.06	-0.283772	-0.423584	0.920856	-1.2975	0.5025	0.0465	0	67	975	1
2026-02-11	16:32:24.950	-3.955	-6.895	10.01	-0.263276	-0.284016	0.906216	-1.3005	0.504	0.0495	0	67	975	1
2026-02-11	16:32:24.970	14.77	-6.755	9.38	-0.240096	-0.165432	0.934032	-1.296	0.5085	0.0495	0	67	975	1
2026-02-11	16:32:24.990	22.435	-7.525	5.67	-0.220576	-0.049532	0.928908	-1.293	0.5085	0.048	0	67	975	1
2026-02-11	16:32:25.010	7.07	-5.215	-1.82	-0.205448	0.006832	1.0919	-1.3005	0.504	0.0435	0	70	980	1
2026-02-11	16:32:25.030	-12.915	1.4	-6.335	-0.180072	-0.123464	1.050176	-1.308	0.5085	0.042	0	70	980	1
2026-02-11	16:32:25.050	-19.95	5.565	-7.175	-0.20252	-0.13176	0.915732	-1.3065	0.5115	0.0405	0	70	980	1
2026-02-11	16:32:25.070	-12.18	8.225	-10.815	-0.181536	-0.097356	0.921588	-1.305	0.5145	0.0345	0	70	980	1
2026-02-11	16:32:25.090	-10.36	6.125	-11.83	-0.192272	-0.220576	0.958676	-1.3005	0.513	0.033	0	70	980	1
2026-02-11	16:32:25.110	-10.395	4.83	-9.275	-0.22204	-0.244976	0.968924	-1.296	0.5115	0.036	0	70	980	1
2026-02-11	16:32:25.130	-9.135	4.585	-4.655	-0.2379	-0.264496	0.946232	-1.296	0.5115	0.036	0	70	980	1
2026-02-11	16:32:25.150	-2.975	3.535	-1.12	-0.240828	-0.231556	0.94062	-1.2885	0.5055	0.042	0	70	980	1
2026-02-11	16:32:25.170	0.98	1.75	-0.175	-0.246196	-0.177876	0.955504	-1.287	0.507	0.0525	0	70	980	1
2026-02-11	16:32:25.190	-1.365	0	0.98	-0.238632	-0.187636	0.960872	-1.296	0.504	0.0525	0	70	980	1
2026-02-11	16:32:25.210	-3.605	0.105	1.995	-0.223992	-0.183488	0.987468	-1.29	0.4995	0.0495	0	74	983	1
2026-02-11	16:32:25.230	-2.695	0.63	2.1	-0.226432	-0.164944	0.970144	-1.2975	0.501	0.054	0	74	983	1
2026-02-11	16:32:25.250	-3.15	0.315	1.4	-0.224968	-0.184708	0.969656	-1.287	0.5025	0.0435	0	74	983	1
2026-02-11	16:32:25.270	-4.725	0.28	0.315	-0.231556	-0.164456	0.956724	-1.2885	0.501	0.048	0	74	983	1
2026-02-11	16:32:25.290	-7.56	1.225	-0.665	-0.214232	-0.171532	0.975268	-1.29	0.507	0.054	0	74	983	1
2026-02-11	16:32:25.310	-6.86	2.205	-1.295	-0.225944	-0.195932	0.962092	-1.2915	0.5115	0.054	0	74	983	1
2026-02-11	16:32:25.330	-5.18	1.575	-1.75	-0.235704	-0.223748	0.948428	-1.293	0.507	0.054	0	74	983	1
2026-02-11	16:32:25.350	-2.24	0.7	-1.82	-0.23424	-0.2135	0.953308	-1.293	0.507	0.0555	0	74	983	1
2026-02-11	16:32:25.370	-0.7	-0.035	-1.155	-0.228628	-0.210084	0.965264	-1.2915	0.5025	0.0525	0	74	983	1
2026-02-11	16:32:25.390	0.35	-0.21	-0.945	-0.236192	-0.205692	0.965264	-1.2915	0.4995	0.048	0	74	983	1
2026-02-11	16:32:25.410	0.14	-0.315	-0.63	-0.24522	-0.193004	0.983808	-1.2915	0.4995	0.048	0	75	985	1
2026-02-11	16:32:25.430	-1.68	-0.63	-0.525	-0.254736	-0.185684	1.01626	-1.296	0.507	0.0555	0	75	985	1
2026-02-11	16:32:25.450	-4.655	-1.19	-0.21	-0.253516	-0.192272	1.029924	-1.29	0.5055	0.0525	0	75	985	1
2026-02-11	16:32:25.470	-4.13	0.455	0.14	-0.24888	-0.200324	0.986004	-1.293	0.5115	0.045	0	75	985	1
2026-02-11	16:32:25.490	-4.13	2.45	-0.385	-0.215452	-0.192272	0.918172	-1.278	0.51	0.0405	0	75	985	1
2026-02-11	16:32:25.510	-10.57	3.22	-0.875	-0.19642	-0.155916	0.84546	-1.2675	0.513	0.027	0	75	985	1
2026-02-11	16:32:25.530	-17.045	1.225	-1.82	-0.188124	-0.1281	0.797148	-1.269	0.525	0.012	0	75	985	1
2026-02-11	16:32:25.550	-18.445	-2.205	-2.94	-0.127612	-0.205448	0.886208	-1.2705	0.519	0.0165	0	75	985	1
2026-02-11	16:32:25.570	-20.79	0.385	-0.98	-0.186172	-0.322812	1.066524	-1.2735	0.5175	0.0195	0	75	985	1
2026-02-11	16:32:25.590	-17.36	-2.415	0.77	-0.232288	-0.2196	1.013576	-1.284	0.5175	0.0345	0	75	985	1
2026-02-11	16:32:25.610	-17.15	1.505	-0.28	-0.267912	-0.218868	0.985272	-1.2885	0.5175	0.0495	0	77	984	1
2026-02-11	16:32:25.630	-15.47	7.49	-1.61	-0.272548	-0.220576	0.975756	-1.2855	0.516	0.057	0	77	984	1
2026-02-11	16:32:25.650	-13.65	8.715	-3.325	-0.252784	-0.223748	0.947452	-1.275	0.519	0.066	0	77	984	1
2026-02-11	16:32:25.670	-9.485	6.02	-4.48	-0.251808	-0.274012	0.937448	-1.2705	0.5235	0.0735	0	77	984	1
2026-02-11	16:32:25.690	-2.52	1.47	-3.85	-0.249368	-0.298168	0.936716	-1.2735	0.5235	0.075	0	77	984	1
2026-02-11	16:32:25.710	2.065	-2.065	-1.96	-0.246928	-0.284504	0.937692	-1.269	0.525	0.072	0	77	984	1
2026-02-11	16:32:25.730	4.9	-3.815	-0.98	-0.243268	-0.267424	0.938912	-1.278	0.522	0.072	0	77	984	1
2026-02-11	16:32:25.750	6.37	-3.325	0.245	-0.244488	-0.256688	0.949892	-1.2795	0.525	0.081	0	77	984	1
2026-02-11	16:32:25.770	6.51	-3.22	0.98	-0.239852	-0.242536	0.966728	-1.2795	0.5115	0.081	0	77	984	1
2026-02-11	16:32:25.790	7.21	-3.955	0.245	-0.234484	-0.225212	0.937936	-1.2855	0.516	0.0795	0	77	984	1
2026-02-11	16:32:25.810	4.165	-4.025	-0.455	-0.222528	-0.208376	0.946232	-1.284	0.513	0.0675	0	76	982	1
2026-02-11	16:32:25.830	1.015	-2.275	-0.63	-0.21716	-0.223504	0.958432	-1.284	0.5205	0.072	0	76	982	1
2026-02-11	16:32:25.850	1.05	-0.035	-0.14	-0.225456	-0.23424	0.978196	-1.2855	0.519	0.0735	0	76	982	1
2026-02-11	16:32:25.870	0	0.665	-0.42	-0.229848	-0.227896	0.953552	-1.2885	0.516	0.078	0	76	982	1
2026-02-11	16:32:25.890	0.56	0.665	-1.19	-0.229116	-0.237168	0.945012	-1.29	0.5175	0.081	0	76	982	1
2026-02-11	16:32:25.910	2.135	0.735	-1.61	-0.236436	-0.238144	0.947452	-1.2945	0.516	0.075	0	76	982	1
2026-02-11	16:32:25.930	4.41	-0.035	-1.61	-0.244976	-0.2501	0.9516	-1.296	0.5145	0.0765	0	76	982	1
2026-02-11	16:32:25.950	7.665	-1.365	-1.855	-0.251808	-0.253028	0.954284	-1.293	0.5145	0.081	0	76	982	1
2026-02-11	16:32:25.970	16.17	-3.01	-2.66	-0.25498	-0.264984	0.942084	-1.2945	0.5115	0.081	0	76	982	1
2026-02-11	16:32:25.990	21.315	-4.48	-2.905	-0.247172	-0.23668	0.935496	-1.293	0.5115	0.075	0	76	982	1
2026-02-11	16:32:26.010	21.175	-4.76	-2.905	-0.243512	-0.216916	0.960872	-1.2945	0.504	0.069	0	75	979	1
2026-02-11	16:32:26.030	18.76	-4.725	-3.22	-0.249856	-0.191784	0.958188	-1.299	0.4995	0.0585	0	75	979	1
2026-02-11	16:32:26.050	14.315	-4.62	-3.535	-0.237656	-0.178852	0.969168	-1.3155	0.495	0.051	0	75	979	1
2026-02-11	16:32:26.070	11.62	-3.675	-3.045	-0.204472	-0.186172	0.972584	-1.32	0.492	0.051	0	75	979	1
2026-02-11	16:32:26.090	8.26	-3.22	-1.855	-0.158112	-0.152988	0.937936	-1.326	0.489	0.042	0	75	979	1
2026-02-11	16:32:26.110	4.13	1.05	0.49	-0.199104	-0.165188	1.012844	-1.326	0.4875	0.045	0	75	979	1
2026-02-11	16:32:26.130	-1.19	0.455	2.765	-0.188612	-0.110532	0.986492	-1.329	0.489	0.039	0	75	979	1
2026-02-11	16:32:26.150	-8.505	-0.525	3.745	-0.191052	-0.129564	0.969412	-1.3335	0.4965	0.039	0	75	979	1
2026-02-11	16:32:26.170	-9.24	-2.03	5.355	-0.194712	-0.179584	0.950868	-1.329	0.501	0.039	0	75	979	1
2026-02-11	16:32:26.190	-6.72	-3.64	7.735	-0.193248	-0.229848	0.922076	-1.32	0.498	0.042	0	75	979	1
2026-02-11	16:32:26.210	-1.995	-3.36	9.975	-0.210328	-0.274988	0.931104	-1.317	0.498	0.045	0	72	979	1
2026-02-11	16:32:26.230	1.435	-2.1	11.025	-0.21838	-0.26108	0.943792	-1.3125	0.498	0.054	0	72	979	1
2026-02-11	16:32:26.250	4.97	0.665	8.365	-0.261812	-0.207156	0.965508	-1.3095	0.498	0.063	0	72	979	1
2026-02-11	16:32:26.270	6.86	1.54	4.69	-0.265472	-0.182512	0.971852	-1.3095	0.498	0.063	0	72	979	1
2026-02-11	16:32:26.290	4.795	2.38	-0.525	-0.257908	-0.166652	0.991128	-1.293	0.4995	0.0825	0	72	979	1
2026-02-11	16:32:26.310	-0.875	3.01	-3.535	-0.234484	-0.15616	0.990396	-1.296	0.5055	0.0825	0	72	979	1
2026-02-11	16:32:26.330	-4.935	3.08	-5.46	-0.230336	-0.15372	0.98942	-1.305	0.501	0.081	0	72	979	1
2026-02-11	16:32:26.350	-7.14	2.345	-7.315	-0.222284	-0.158112	0.980148	-1.2975	0.5025	0.072	0	72	979	1
2026-02-11	16:32:26.370	-9.345	0.385	-6.475	-0.2257	-0.211548	0.96014	-1.3035	0.4995	0.072	0	72	979	1
2026-02-11	16:32:26.390	-7.98	-1.155	-3.64	-0.2257	-0.275232	0.932812	-1.3035	0.4995	0.0675	0	72	979	1
2026-02-11	16:32:26.410	-2.8	-2.625	0.735	-0.229604	-0.233752	0.926468	-1.3005	0.5055	0.075	0	70	979	1
2026-02-11	16:32:26.430	0.455	-2.135	3.185	-0.276452	-0.21472	1.013088	-1.3005	0.5055	0.0735	0	70	979	1
2026-02-11	16:32:26.450	-2.8	-5.915	6.02	-0.226432	-0.216672	0.973804	-1.3005	0.5055	0.0675	0	70	979	1
2026-02-11	16:32:26.470	-1.05	-6.86	8.12	-0.21838	-0.21228	0.910852	-1.302	0.504	0.066	0	70	979	1
2026-02-11	16:32:26.490	5.39	-5.635	7.875	-0.197884	-0.236924	0.920124	-1.3035	0.507	0.0645	0	70	979	1
2026-02-11	16:32:26.510	9.38	-4.655	6.79	-0.19154	-0.191784	0.96868	-1.3065	0.5145	0.057	0	70	979	1
2026-02-11	16:32:26.530	0.28	-4.795	1.995	-0.182268	-0.131516	0.96502	-1.308	0.5175	0.057	0	70	979	1
2026-02-11	16:32:26.550	0.49	-4.235	0.945	-0.191296	-0.17202	0.974048	-1.308	0.5175	0.057	0	70	979	1
2026-02-11	16:32:26.570	1.82	-2.45	0	-0.19886	-0.149328	0.965996	-1.3155	0.5115	0.0585	0	70	979	1
2026-02-11	16:32:26.590	-0.56	0.105	-1.61	-0.203252	-0.172996	0.975024	-1.3185	0.504	0.072	0	70	979	1
2026-02-11	16:32:26.610	-2.52	2.66	-1.995	-0.211304	-0.174216	0.992348	-1.308	0.5115	0.0705	0	67	980	1
2026-02-11	16:32:26.630	-3.535	5.11	-1.89	-0.214232	-0.173484	0.972096	-1.314	0.513	0.072	0	67	980	1
2026-02-11	16:32:26.650	-4.41	5.845	-0.84	-0.218136	-0.188612	0.964044	-1.308	0.507	0.0795	0	67	980	1
2026-02-11	16:32:26.670	-5.775	4.375	0.35	-0.2501	-0.18422	0.968436	-1.308	0.507	0.0885	0	67	980	1
2026-02-11	16:32:26.690	-7.735	1.4	0.665	-0.254004	-0.217648	0.950868	-1.2975	0.51	0.093	0	67	980	1
2026-02-11	16:32:26.710	-4.375	-0.175	0.98	-0.250832	-0.216672	0.96014	-1.2915	0.507	0.09	0	67	980	1
2026-02-11	16:32:26.730	0.21	-0.63	2.1	-0.235704	-0.253272	0.963556	-1.293	0.51	0.0915	0	67	980	1
2026-02-11	16:32:26.750	2.555	-1.155	3.36	-0.237412	-0.242292	0.943304	-1.293	0.5085	0.0885	0	67	980	1
2026-02-11	16:32:26.770	2.66	-1.61	3.465	-0.254248	-0.202276	0.999668	-1.2915	0.507	0.087	0	67	980	1
2026-02-11	16:32:26.790	-0.805	-3.115	3.43	-0.2257	-0.186172	0.96746	-1.293	0.5085	0.096	0	67	980	1
2026-02-11	16:32:26.810	0.595	-2.765	2.1	-0.21106	-0.20252	0.945988	-1.293	0.51	0.102	0	65	982	1
2026-02-11	16:32:26.830	3.465	-2.87	1.05	-0.239364	-0.214964	0.976	-1.293	0.51	0.102	0	65	982	1
2026-02-11	16:32:26.850	4.2	-4.305	1.085	-0.242048	-0.20496	0.963068	-1.2885	0.5085	0.084	0	65	982	1
2026-02-11	16:32:26.870	4.76	-4.41	1.75	-0.234972	-0.184464	0.961116	-1.29	0.516	0.087	0	65	982	1
2026-02-11	16:32:26.890	2.205	-4.9	2.695	-0.198372	-0.156892	0.956724	-1.2945	0.519	0.0855	0	65	982	1
2026-02-11	16:32:26.910	-0.665	-3.64	3.115	-0.18422	-0.19276	0.96014	-1.296	0.522	0.075	0	65	982	1
2026-02-11	16:32:26.930	1.505	-3.01	3.64	-0.195932	-0.185928	0.973072	-1.299	0.519	0.075	0	65	982	1
2026-02-11	16:32:26.950	1.68	-2.8	3.36	-0.20252	-0.170312	0.976488	-1.299	0.5175	0.072	0	65	982	1
2026-02-11	16:32:26.970	0.49	-2.905	2.625	-0.216428	-0.176412	0.968192	-1.305	0.519	0.0675	0	65	982	1
2026-02-11	16:32:26.990	-0.385	-2.695	1.75	-0.209352	-0.169824	0.969412	-1.2945	0.522	0.0735	0	65	982	1
2026-02-11	16:32:27.010	-0.595	-1.715	0.98	-0.209352	-0.177632	0.969412	-1.299	0.516	0.072	0	62	983	1
2026-02-11	16:32:27.030	-1.855	-1.505	0.805	-0.210572	-0.181048	0.975268	-1.2975	0.5175	0.0735	0	62	983	1
2026-02-11	16:32:27.050	-1.715	-1.995	1.085	-0.223992	-0.184464	0.953552	-1.296	0.5205	0.0735	0	62	983	1
2026-02-11	16:32:27.070	-0.385	-2.345	1.61	-0.212036	-0.193004	0.949648	-1.296	0.522	0.0735	0	62	983	1
2026-02-11	16:32:27.090	0.07	-1.47	1.4	-0.21472	-0.189588	0.968924	-1.293	0.5175	0.0765	0	62	983	1
2026-02-11	16:32:27.110	-0.07	-1.155	1.19	-0.218868	-0.185196	0.983564	-1.2915	0.5145	0.0795	0	62	983	1
2026-02-11	16:32:27.130	-0.105	-1.995	1.54	-0.212524	-0.203008	0.959408	-1.3005	0.5205	0.069	0	62	983	1
2026-02-11	16:32:27.150	0.735	-2.345	2.17	-0.212036	-0.193736	0.955992	-1.299	0.525	0.075	0	62	983	1
2026-02-11	16:32:27.170	2.31	-2.31	2.135	-0.202764	-0.157868	0.968924	-1.296	0.519	0.075	0	62	983	1
2026-02-11	16:32:27.190	-0.105	-1.995	1.89	-0.202764	-0.17202	0.987712	-1.299	0.525	0.078	0	62	983	1
2026-02-11	16:32:27.210	-0.315	-1.89	2.345	-0.217404	-0.199592	0.95892	-1.299	0.531	0.072	0	59	984	1
2026-02-11	16:32:27.230	2.205	-1.995	2.415	-0.213744	-0.199348	0.960384	-1.2975	0.537	0.0675	0	59	984	1
2026-02-11	16:32:27.250	3.045	-1.365	1.505	-0.205936	-0.17202	0.984784	-1.2975	0.5325	0.0765	0	59	984	1
2026-02-11	16:32:27.270	4.41	-0.945	0.665	-0.212768	-0.164944	1.001864	-1.2945	0.528	0.0645	0	59	984	1
2026-02-11	16:32:27.290	4.445	-0.525	-0.07	-0.20496	-0.132004	1.02358	-1.2975	0.5265	0.0705	0	59	984	1
2026-02-11	16:32:27.310	1.365	0.28	-1.05	-0.227896	-0.181536	1.01504	-1.2915	0.525	0.057	0	59	984	1
2026-02-11	16:32:27.330	-1.015	1.365	-0.525	-0.210084	-0.208376	0.966484	-1.2915	0.525	0.054	0	59	984	1
2026-02-11	16:32:27.350	0.595	2.38	1.085	-0.206424	-0.206912	0.911584	-1.281	0.5265	0.048	0	59	984	1
2026-02-11	16:32:27.370	2.975	1.96	2.03	-0.195932	-0.171532	0.890844	-1.272	0.528	0.042	0	59	984	1
2026-02-11	16:32:27.390	-1.225	-0.42	0.28	-0.197884	-0.125416	0.86864	-1.272	0.5295	0.039	0	59	984	1
2026-02-11	16:32:27.410	-9.555	-2.905	-2.1	-0.186904	-0.114924	0.833504	-1.2765	0.531	0.039	0	55	986	1
2026-02-11	16:32:27.430	-9.135	-3.815	-3.92	-0.17934	-0.238632	0.979904	-1.272	0.5325	0.0495	0	55	986	1
2026-02-11	16:32:27.450	2.66	-1.82	-0.315	-0.212524	-0.277916	1.1041	-1.29	0.5295	0.054	0	55	986	1
2026-02-11	16:32:27.470	7.07	0.63	2.485	-0.223748	-0.108824	1.037976	-1.3035	0.528	0.054	0	55	986	1
2026-02-11	16:32:27.490	-3.955	4.34	0.665	-0.204472	-0.124928	1.001132	-1.3095	0.528	0.069	0	55	986	1
2026-02-11	16:32:27.510	-8.61	7.49	-2.03	-0.195444	-0.117852	0.982832	-1.3125	0.534	0.0735	0	55	986	1
2026-02-11	16:32:27.530	-7.945	8.435	-4.13	-0.19764	-0.171288	0.965264	-1.305	0.525	0.0765	0	55	986	1
2026-02-11	16:32:27.550	-7.175	6.79	-4.655	-0.212524	-0.204228	0.959408	-1.299	0.525	0.081	0	55	986	1
2026-02-11	16:32:27.570	-6.895	4.69	-4.095	-0.21106	-0.234728	0.970876	-1.3125	0.5205	0.0795	0	55	986	1
2026-02-11	16:32:27.590	-5.355	3.43	-2.345	-0.232532	-0.21838	0.964044	-1.299	0.5235	0.081	0	55	986	1
2026-02-11	16:32:27.610	-3.045	2.555	-1.295	-0.240828	-0.198128	0.956724	-1.2975	0.5205	0.087	0	53	986	1
2026-02-11	16:32:27.630	-0.49	1.61	-0.455	-0.236436	-0.192028	0.95038	-1.3005	0.519	0.0915	0	53	986	1
2026-02-11	16:32:27.650	0.14	1.575	0.07	-0.230336	-0.206424	0.981856	-1.3005	0.5205	0.093	0	53	986	1
2026-02-11	16:32:27.670	-0.875	0.07	0.28	-0.227652	-0.167628	0.9699	-1.2975	0.5205	0.0945	0	53	986	1
2026-02-11	16:32:27.690	-0.945	-1.225	0	-0.221308	-0.19398	0.957456	-1.296	0.516	0.0885	0	53	986	1
2026-02-11	16:32:27.710	1.085	-1.785	0.105	-0.22326	-0.19764	0.961604	-1.3005	0.5205	0.0975	0	53	986	1
2026-02-11	16:32:27.730	2.31	-2.45	0.315	-0.227652	-0.204228	0.969412	-1.3005	0.516	0.1005	0	53	986	1
2026-02-11	16:32:27.750	2.8	-3.045	0.77	-0.227164	-0.195932	0.964532	-1.2945	0.5175	0.093	0	53	986	1
2026-02-11	16:32:27.770	3.255	-2.975	0.98	-0.222284	-0.197152	0.961604	-1.3065	0.522	0.096	0	53	986	1
2026-02-11	16:32:27.790	4.655	-3.01	0.805	-0.220088	-0.184708	0.972584	-1.2975	0.5175	0.096	0	53	986	1
2026-02-11	16:32:27.810	4.235	-3.08	0.56	-0.219356	-0.17812	0.972096	-1.305	0.5295	0.0915	0	52	987	1
2026-02-11	16:32:27.830	3.36	-3.325	0.42	-0.215696	-0.177144	0.973804	-1.3065	0.5175	0.102	0	52	987	1
2026-02-11	16:32:27.850	2.415	-3.815	-0.035	-0.218868	-0.172996	0.952576	-1.3005	0.519	0.0915	0	52	987	1
2026-02-11	16:32:27.870	3.29	-3.605	0	-0.213744	-0.186172	0.963068	-1.302	0.5145	0.0915	0	52	987	1
2026-02-11	16:32:27.890	3.01	-2.975	-0.28	-0.206424	-0.174948	0.989664	-1.299	0.519	0.0885	0	52	987	1
2026-02-11	16:32:27.910	-1.75	-1.085	-0.84	-0.212036	-0.174704	0.974292	-1.3005	0.5205	0.0915	0	52	987	1
2026-02-11	16:32:27.930	-2.38	0.49	-1.015	-0.207644	-0.183976	0.945256	-1.3005	0.5205	0.0915	0	52	987	1
2026-02-11	16:32:27.950	-1.855	-0.28	-1.715	-0.217648	-0.166896	0.972096	-1.2975	0.5205	0.0885	0	52	987	1
2026-02-11	16:32:27.970	-3.78	-0.35	-2.205	-0.210328	-0.182024	0.961604	-1.2975	0.5205	0.0885	0	52	987	1
2026-02-11	16:32:27.990	-3.78	0.525	-2.135	-0.21716	-0.18056	0.973804	-1.305	0.5205	0.087	0	52	987	1
2026-02-11	16:32:28.010	-2.8	0	-1.4	-0.216184	-0.183244	0.968924	-1.302	0.5115	0.087	0	50	988	1
2026-02-11	16:32:28.030	-2.555	-0.7	-0.98	-0.21106	-0.20496	0.960872	-1.302	0.5145	0.0825	0	50	988	1
2026-02-11	16:32:28.050	-1.085	-0.35	-0.42	-0.208864	-0.186904	0.959408	-1.305	0.51	0.093	0	50	988	1
2026-02-11	16:32:28.070	-0.56	0.035	-0.315	-0.213744	-0.184952	0.964532	-1.311	0.5145	0.0795	0	50	988	1
2026-02-11	16:32:28.090	-1.26	0.105	-0.455	-0.2135	-0.181536	0.964776	-1.3095	0.5175	0.09	0	50	988	1
2026-02-11	16:32:28.110	-1.89	0	-0.7	-0.215452	-0.180316	0.969656	-1.305	0.519	0.078	0	50	988	1
2026-02-11	16:32:28.130	-2.03	-0.56	-0.805	-0.209108	-0.19154	0.962824	-1.3065	0.5235	0.0825	0	50	988	1
2026-02-11	16:32:28.150	-0.875	-0.35	-0.35	-0.218868	-0.197396	0.967704	-1.3065	0.522	0.0855	0	50	988	1
2026-02-11	16:32:28.170	-0.105	-0.07	0.035	-0.216916	-0.18544	0.975024	-1.3065	0.5265	0.078	0	50	988	1
2026-02-11	16:32:28.190	-0.455	-0.245	-0.28	-0.218868	-0.179828	0.967948	-1.302	0.528	0.081	0	50	988	1
2026-02-11	16:32:28.210	-1.715	-0.21	-0.805	-0.202032	-0.178852	0.963312	-1.302	0.5235	0.0825	0	48	988	1
2026-02-11	16:32:28.230	-1.995	-0.21	-0.875	-0.210328	-0.180072	0.986736	-1.3035	0.5205	0.084	0	48	988	1
2026-02-11	16:32:28.250	-3.045	-1.505	-0.91	-0.22936	-0.18178	1.024068	-1.3035	0.5205	0.084	0	48	988	1
2026-02-11	16:32:28.270	-7.665	-2.8	-0.28	-0.230824	-0.180072	1.041636	-1.3065	0.51	0.081	0	48	988	1
2026-02-11	16:32:28.290	-9.555	-2.52	1.785	-0.227652	-0.19886	1.019188	-1.308	0.5175	0.0825	0	48	988	1
2026-02-11	16:32:28.310	-7.595	0.49	2.87	-0.240828	-0.21228	0.946476	-1.302	0.525	0.0705	0	48	988	1
2026-02-11	16:32:28.330	-4.2	2.975	3.815	-0.213012	-0.203984	0.89914	-1.296	0.5205	0.057	0	48	988	1
2026-02-11	16:32:28.350	-0.49	3.535	2.1	-0.206912	-0.215208	0.899384	-1.2855	0.531	0.0435	0	48	988	1
2026-02-11	16:32:28.370	0.35	2.31	1.015	-0.18056	-0.18178	0.874496	-1.278	0.534	0.036	0	48	988	1
2026-02-11	16:32:28.390	-3.955	0.525	-0.665	-0.178852	-0.154452	0.834968	-1.266	0.5295	0.027	0	48	988	1
2026-02-11	16:32:28.410	-8.505	-2.94	-3.045	-0.157136	-0.183976	0.862784	-1.2735	0.534	0.03	0	45	988	1
2026-02-11	16:32:28.430	-4.13	-3.745	-3.815	-0.155672	-0.275476	0.996252	-1.2855	0.537	0.033	0	45	988	1
2026-02-11	16:32:28.450	7.735	-0.98	-3.045	-0.209108	-0.254492	1.033096	-1.302	0.54	0.054	0	45	988	1
2026-02-11	16:32:28.470	10.92	0.84	-1.015	-0.255956	-0.203984	1.061644	-1.3005	0.5295	0.066	0	45	988	1
2026-02-11	16:32:28.490	8.365	1.05	1.855	-0.26474	-0.169092	1.004548	-1.302	0.528	0.0675	0	45	988	1
2026-02-11	16:32:28.510	7.07	0.035	1.925	-0.248148	-0.139324	0.981124	-1.3065	0.525	0.0735	0	45	988	1
2026-02-11	16:32:28.530	1.295	-1.89	-1.225	-0.213988	-0.155916	0.988932	-1.3095	0.522	0.078	0	45	988	1
2026-02-11	16:32:28.550	-4.83	-1.19	-2.87	-0.199348	-0.199836	0.972584	-1.311	0.522	0.0765	0	45	988	1
2026-02-11	16:32:28.570	-5.25	-0.175	-2.415	-0.193004	-0.22326	0.922808	-1.317	0.5295	0.075	0	45	988	1
2026-02-11	16:32:28.590	0.245	1.855	-2.17	-0.188612	-0.190076	0.957456	-1.3095	0.522	0.075	0	45	988	1
2026-02-11	16:32:28.610	1.435	2.835	-2.765	-0.205448	-0.186172	0.966972	-1.3095	0.531	0.0735	0	44	987	1
2026-02-11	16:32:28.630	1.61	2.52	-2.555	-0.216672	-0.180316	0.97234	-1.3125	0.516	0.075	0	44	987	1
2026-02-11	16:32:28.650	0.63	1.855	-1.785	-0.231556	-0.199348	0.971364	-1.3155	0.5145	0.0825	0	44	987	1
2026-02-11	16:32:28.670	-0.735	1.12	-0.84	-0.23302	-0.209596	0.955992	-1.314	0.516	0.0825	0	44	987	1
2026-02-11	16:32:28.690	-1.155	1.715	-0.245	-0.229116	-0.210084	0.956724	-1.308	0.516	0.0795	0	44	987	1
2026-02-11	16:32:28.710	-0.525	1.75	0	-0.221308	-0.184952	0.96136	-1.3065	0.51	0.0855	0	44	987	1
2026-02-11	16:32:28.730	1.89	1.155	0	-0.220088	-0.18788	0.975512	-1.308	0.5115	0.081	0	44	987	1
2026-02-11	16:32:28.750	1.68	0.455	0.14	-0.217404	-0.179096	0.967216	-1.3095	0.5145	0.0885	0	44	987	1
2026-02-11	16:32:28.770	-0.63	0.315	0.105	-0.216428	-0.19276	0.962824	-1.314	0.5175	0.0735	0	44	987	1
2026-02-11	16:32:28.790	-0.84	0.245	0.21	-0.220576	-0.193248	0.963312	-1.3125	0.5175	0.0795	0	44	987	1
2026-02-11	16:32:28.810	-0.21	0.14	0.35	-0.217892	-0.173728	0.955748	-1.3125	0.519	0.0855	0	44	987	1
2026-02-11	16:32:28.830	0.91	0.21	0.07	-0.208132	-0.172752	0.9821	-1.3095	0.5265	0.0825	0	44	987	1
2026-02-11	16:32:28.850	-1.4	0.245	-0.035	-0.218624	-0.162504	0.967216	-1.3065	0.5175	0.081	0	44	987	1
2026-02-11	16:32:28.870	-3.675	0.455	0.14	-0.21716	-0.187636	0.96746	-1.299	0.5205	0.0825	0	44	987	1
2026-02-11	16:32:28.890	-3.465	0.665	0.525	-0.220332	-0.20374	0.964532	-1.3065	0.5145	0.0795	0	44	987	1
2026-02-11	16:32:28.910	-3.01	0.665	0.56	-0.22082	-0.191052	0.955504	-1.3065	0.5175	0.0855	0	44	987	1
2026-02-11	16:32:28.930	-2.905	0.49	0.245	-0.222528	-0.200568	0.958432	-1.3065	0.513	0.075	0	44	987	1
2026-02-11	16:32:28.950	-2.1	0.35	0.21	-0.232532	-0.213744	0.964288	-1.311	0.513	0.0795	0	44	987	1
2026-02-11	16:32:28.970	0.77	0.175	-0.28	-0.234484	-0.193248	0.957456	-1.3035	0.519	0.0915	0	44	987	1
2026-02-11	16:32:28.990	0.77	0.315	-0.525	-0.223504	-0.18666	0.957212	-1.2975	0.516	0.087	0	44	987	1
2026-02-11	16:32:29.010	0.665	0	-0.245	-0.218868	-0.179096	0.963556	-1.2975	0.516	0.0855	0	43	987	1
2026-02-11	16:32:29.030	1.225	-0.14	-0.035	-0.219356	-0.189344	0.973804	-1.3005	0.5145	0.081	0	43	987	1
2026-02-11	16:32:29.050	1.54	-0.105	-0.175	-0.227408	-0.19764	0.96502	-1.302	0.5175	0.084	0	43	987	1
2026-02-11	16:32:29.070	2.24	-0.07	0.07	-0.226188	-0.192272	0.972828	-1.299	0.5115	0.09	0	43	987	1
2026-02-11	16:32:29.090	2.205	-0.595	0.525	-0.23424	-0.175192	1.010892	-1.299	0.5115	0.09	0	43	987	1
2026-02-11	16:32:29.110	-0.875	-1.96	2.03	-0.239608	-0.177876	1.03578	-1.299	0.5175	0.087	0	43	987	1
2026-02-11	16:32:29.130	-2.73	-1.89	3.01	-0.241072	-0.186416	0.991128	-1.299	0.5115	0.078	0	43	987	1
2026-02-11	16:32:29.150	-1.365	0.175	1.855	-0.234728	-0.19642	0.946476	-1.2825	0.519	0.0825	0	43	987	1
2026-02-11	16:32:29.170	0.63	1.225	-0.105	-0.222284	-0.190808	0.923296	-1.281	0.51	0.072	0	43	987	1
2026-02-11	16:32:29.190	-2.87	1.54	-1.33	-0.182268	-0.172996	0.870592	-1.2795	0.522	0.0645	0	43	987	1
2026-02-11	16:32:29.210	-7.805	2.17	-1.12	-0.193492	-0.169824	0.835456	-1.2735	0.5235	0.054	0	42	986	1
2026-02-11	16:32:29.230	-9.835	1.75	-2.1	-0.14884	-0.220088	0.906216	-1.2795	0.5205	0.051	0	42	986	1
2026-02-11	16:32:29.250	-6.335	4.305	-0.21	-0.187636	-0.276452	1.003084	-1.2855	0.5145	0.0585	0	42	986	1
2026-02-11	16:32:29.270	-7.84	2.695	0.735	-0.224236	-0.193248	1.02236	-1.293	0.522	0.063	0	42	986	1
2026-02-11	16:32:29.290	-17.15	1.75	-1.19	-0.274744	-0.199836	1.016504	-1.2915	0.519	0.0735	0	42	986	1
2026-02-11	16:32:29.310	-9.31	6.3	-2.485	-0.258396	-0.135664	0.99552	-1.296	0.516	0.0855	0	42	986	1
2026-02-11	16:32:29.330	-6.895	9.03	-2.66	-0.243756	-0.139568	0.984784	-1.284	0.5265	0.0915	0	42	986	1
2026-02-11	16:32:29.350	-12.635	7.7	-5.425	-0.237168	-0.176168	0.979416	-1.284	0.5205	0.09	0	42	986	1
2026-02-11	16:32:29.370	-18.795	4.095	-8.05	-0.229848	-0.256444	0.936228	-1.284	0.5205	0.09	0	42	986	1
2026-02-11	16:32:29.390	-11.06	2.975	-6.755	-0.252052	-0.276452	0.950136	-1.284	0.5205	0.09	0	42	986	1
2026-02-11	16:32:29.410	-6.755	0.98	-5.075	-0.247904	-0.257908	0.953064	-1.278	0.5175	0.096	0	41	986	1
2026-02-11	16:32:29.430	-5.775	-0.07	-3.885	-0.250832	-0.252784	0.963556	-1.2825	0.5205	0.099	0	41	986	1
2026-02-11	16:32:29.450	-7.14	-0.84	-3.71	-0.24766	-0.236192	0.984296	-1.2705	0.5205	0.096	0	41	986	1
2026-02-11	16:32:29.470	-8.82	-1.715	-3.71	-0.25376	-0.203496	1.012356	-1.2795	0.516	0.1005	0	41	986	1
2026-02-11	16:32:29.490	-9.835	-2.38	-3.15	-0.236436	-0.216916	1.019676	-1.275	0.522	0.0855	0	41	986	1
2026-02-11	16:32:29.510	-9.275	-0.875	-2.38	-0.252052	-0.219844	1.013088	-1.2795	0.525	0.081	0	41	986	1
2026-02-11	16:32:29.530	-9.835	3.01	-3.64	-0.281576	-0.221552	1.00894	-1.266	0.5175	0.075	0	41	986	1
2026-02-11	16:32:29.550	-12.215	7.245	-5.6	-0.290604	-0.229116	1.023336	-1.248	0.5295	0.075	0	41	986	1
2026-02-11	16:32:29.570	-14.595	11.375	-6.195	-0.266692	-0.242292	1.019676	-1.2405	0.5325	0.051	0	41	986	1
2026-02-11	16:32:29.590	-13.475	14.105	-6.405	-0.2623	-0.243024	0.993812	-1.2225	0.5325	0.0255	0	41	986	1
2026-02-11	16:32:29.610	-8.19	15.4	-6.055	-0.286212	-0.2928	0.942328	-1.2075	0.5475	0.0045	0	42	988	1
2026-02-11	16:32:29.630	16.905	17.5	-8.68	-0.290604	-0.129564	0.99674	-1.179	0.549	-0.03	0	42	988	1
2026-02-11	16:32:29.650	25.095	15.715	-7.56	-0.27694	-0.205936	0.980636	-1.158	0.5475	-0.0675	0	42	988	1
2026-02-11	16:32:29.670	23.17	14.91	-12.145	-0.332084	-0.216428	0.975512	-1.158	0.5475	-0.0675	0	42	988	1
2026-02-11	16:32:29.690	15.225	12.46	-14.14	-0.354776	-0.230092	0.917928	-1.092	0.5535	-0.1455	0	42	988	1
2026-02-11	16:32:29.710	12.915	11.095	-13.195	-0.335012	-0.223748	0.8662	-1.0455	0.552	-0.189	0	42	988	1
2026-02-11	16:32:29.730	15.505	11.515	-13.475	-0.33428	-0.257664	0.854244	-1.0155	0.552	-0.228	0	42	988	1
2026-02-11	16:32:29.750	17.815	10.465	-13.86	-0.328912	-0.248148	0.86742	-0.9795	0.5595	-0.2685	0	42	988	1
2026-02-11	16:32:29.770	17.255	8.61	-13.335	-0.323788	-0.258396	0.878156	-0.954	0.558	-0.3135	0	42	988	1
2026-02-11	16:32:29.790	12.46	5.635	-12.53	-0.29158	-0.222284	0.8357	-0.9135	0.5565	-0.3555	0	42	988	1
2026-02-11	16:32:29.810	9.87	2.905	-11.865	-0.24644	-0.266936	0.80032	-0.873	0.5445	-0.396	0	44	987	1
2026-02-11	16:32:29.830	13.335	1.015	-9.38	-0.2501	-0.21594	0.787632	-0.834	0.552	-0.4365	0	44	987	1
2026-02-11	16:32:29.850	13.335	-1.505	-7.455	-0.254736	-0.230092	0.84546	-0.7995	0.5595	-0.4695	0	44	987	1
2026-02-11	16:32:29.870	14.14	-4.865	-5.46	-0.234972	-0.207888	0.86864	-0.765	0.5625	-0.5085	0	44	987	1
2026-02-11	16:32:29.890	11.9	-7.28	-5.005	-0.23058	-0.187392	0.854488	-0.7395	0.555	-0.5505	0	44	987	1
2026-02-11	16:32:29.910	8.505	-9.415	-7.035	-0.231556	-0.194956	0.848632	-0.7095	0.558	-0.5895	0	44	987	1
2026-02-11	16:32:29.930	6.895	-10.745	-9.66	-0.18666	-0.233508	0.894992	-0.681	0.5595	-0.624	0	44	987	1
2026-02-11	16:32:29.950	14.105	-13.755	-9.415	-0.177876	-0.240096	0.965264	-0.657	0.5625	-0.663	0	44	987	1
2026-02-11	16:32:29.970	19.075	-15.75	-8.715	-0.132248	-0.202764	0.968192	-0.636	0.561	-0.705	0	44	987	1
2026-02-11	16:32:29.990	15.82	-18.34	-8.26	-0.128832	-0.15128	0.910852	-0.6135	0.552	-0.738	0	44	987	1
2026-02-11	16:32:30.010	7.21	-22.085	-11.2	-0.146644	-0.16836	0.876204	-0.603	0.534	-0.774	0	47	974	1
2026-02-11	16:32:30.030	3.01	-23.485	-8.645	-0.229604	-0.266448	0.94062	-0.6075	0.5205	-0.8175	0	47	974	1
2026-02-11	16:32:30.050	19.6	-17.885	-7.91	-0.128832	-0.245952	1.199992	-0.606	0.5145	-0.8475	0	47	974	1
2026-02-11	16:32:30.070	17.99	-14.805	-5.355	-0.183732	-0.211548	1.139968	-0.603	0.486	-0.9015	0	47	974	1
2026-02-11	16:32:30.090	3.92	-10.92	-2.555	-0.149572	-0.094428	1.041148	-0.6225	0.4515	-0.918	0	47	974	1
2026-02-11	16:32:30.110	-5.95	-4.235	0.28	-0.161284	-0.149816	1.031144	-0.63	0.423	-0.9465	0	47	974	1
2026-02-11	16:32:30.130	-7.175	0.805	-0.35	-0.190808	-0.145668	1.010892	-0.6375	0.417	-0.963	0	47	974	1
2026-02-11	16:32:30.150	-5.25	4.095	-2.625	-0.200568	-0.231068	0.975756	-0.6555	0.4095	-0.96	0	47	974	1
2026-02-11	16:32:30.170	-2.73	5.18	-4.06	-0.237412	-0.184952	0.9516	-0.6645	0.42	-0.957	0	47	974	1
2026-02-11	16:32:30.190	-3.185	4.76	-4.235	-0.22692	-0.143472	0.948672	-0.678	0.411	-0.951	0	47	974	1
2026-02-11	16:32:30.210	-6.965	3.045	-3.885	-0.248636	-0.175436	0.964776	-0.6945	0.4095	-0.9555	0	53	969	1
2026-02-11	16:32:30.230	-7.35	1.855	-2.555	-0.23424	-0.165676	0.975024	-0.6975	0.4095	-0.9555	0	53	969	1
2026-02-11	16:32:30.250	-7.07	0.525	-2.555	-0.232532	-0.190564	0.972584	-0.7035	0.4095	-0.9645	0	53	969	1
2026-02-11	16:32:30.270	-6.825	0.665	-2.275	-0.225944	-0.177632	0.978928	-0.708	0.414	-0.966	0	53	969	1
2026-02-11	16:32:30.290	-7.07	0.735	-1.785	-0.229848	-0.180316	0.983076	-0.708	0.423	-0.966	0	53	969	1
2026-02-11	16:32:30.310	-6.615	-0.07	-0.98	-0.222772	-0.1891	0.962092	-0.7035	0.414	-0.9735	0	53	969	1
2026-02-11	16:32:30.330	-4.305	-1.505	-0.21	-0.22326	-0.19154	0.962824	-0.7035	0.4185	-0.9645	0	53	969	1
2026-02-11	16:32:30.350	-2.625	-2.835	0.21	-0.221308	-0.189832	0.985028	-0.7005	0.4155	-0.96	0	53	969	1
2026-02-11	16:32:30.370	-2.345	-3.325	0.735	-0.22082	-0.18056	1.0004	-0.708	0.4185	-0.9735	0	53	969	1
2026-02-11	16:32:30.390	-4.83	-3.885	1.47	-0.219112	-0.150304	1.008696	-0.702	0.4275	-0.963	0	53	969	1
2026-02-11	16:32:30.410	-9.205	-6.79	2.975	-0.22692	-0.168604	0.944524	-0.7035	0.4275	-0.966	0	58	973	1
2026-02-11	16:32:30.430	-7.42	-10.465	4.025	-0.219112	-0.272548	0.916464	-0.702	0.4455	-0.9555	0	58	973	1
2026-02-11	16:32:30.450	0.875	-10.22	4.725	-0.217892	-0.300852	0.957212	-0.7035	0.4515	-0.942	0	58	973	1
2026-02-11	16:32:30.470	8.26	-8.54	6.65	-0.224968	-0.19398	0.955016	-0.7005	0.444	-0.9435	0	58	973	1
2026-02-11	16:32:30.490	7.595	-7.665	9.1	-0.191784	-0.17324	0.9638	-0.702	0.444	-0.9495	0	58	973	1
2026-02-11	16:32:30.510	4.445	-5.88	8.225	-0.199348	-0.217648	0.966972	-0.702	0.444	-0.9495	0	58	973	1
2026-02-11	16:32:30.530	5.635	-3.15	8.505	-0.19032	-0.207644	0.969656	-0.699	0.4245	-0.9675	0	58	973	1
2026-02-11	16:32:30.550	7.77	-0.91	8.26	-0.193492	-0.166652	0.95892	-0.696	0.411	-0.9765	0	58	973	1
2026-02-11	16:32:30.570	7.14	0.56	6.895	-0.183	-0.155916	0.95892	-0.7005	0.396	-0.9825	0	58	973	1
2026-02-11	16:32:30.590	6.265	2.065	3.71	-0.201788	-0.132248	0.988688	-0.699	0.393	-1.0005	0	58	973	1
2026-02-11	16:32:30.610	3.15	2.345	1.33	-0.204716	-0.131272	0.981856	-0.7095	0.3795	-1.011	0	61	979	1
2026-02-11	16:32:30.630	-0.56	2.345	-0.105	-0.21472	-0.143228	0.972096	-0.711	0.375	-1.017	0	61	979	1
2026-02-11	16:32:30.650	-2.555	2.38	-1.19	-0.208864	-0.157624	0.978196	-0.7125	0.3705	-1.0095	0	61	979	1
2026-02-11	16:32:30.670	-3.815	2.275	-1.575	-0.212524	-0.165432	0.977952	-0.7215	0.3705	-1.011	0	61	979	1
2026-02-11	16:32:30.690	-4.585	1.61	-1.435	-0.212768	-0.193004	0.968192	-0.72	0.3765	-1.0035	0	61	979	1
2026-02-11	16:32:30.710	-4.48	0.945	-1.225	-0.216184	-0.192272	0.959896	-0.7155	0.3855	-1.005	0	61	979	1
2026-02-11	16:32:30.730	-3.465	0.175	-0.875	-0.215208	-0.20374	0.959164	-0.7095	0.39	-1.0005	0	61	979	1
2026-02-11	16:32:30.750	-2.03	0.035	-0.21	-0.212036	-0.198616	0.96624	-0.7155	0.387	-0.993	0	61	979	1
2026-02-11	16:32:30.770	-0.175	0.175	0.105	-0.211792	-0.180804	0.970632	-0.705	0.384	-0.9975	0	61	979	1
2026-02-11	16:32:30.790	1.085	0.77	-0.035	-0.213988	-0.16226	0.978928	-0.705	0.384	-0.9975	0	61	979	1
2026-02-11	16:32:30.810	-0.035	0.91	-0.245	-0.210328	-0.17446	0.971852	-0.711	0.3855	-0.999	0	63	983	1
2026-02-11	16:32:30.830	-1.365	0.84	-0.175	-0.21472	-0.179584	0.964776	-0.717	0.3885	-1.0005	0	63	983	1
2026-02-11	16:32:30.850	-1.015	0.63	-0.175	-0.212768	-0.183976	0.965508	-0.7185	0.393	-0.999	0	63	983	1
2026-02-11	16:32:30.870	-0.245	0.315	-0.175	-0.216916	-0.1769	0.9699	-0.714	0.381	-1.0065	0	63	983	1
2026-02-11	16:32:30.890	-0.595	0.07	-0.245	-0.21594	-0.18056	0.966484	-0.708	0.387	-1.011	0	63	983	1
2026-02-11	16:32:30.910	-1.82	-0.035	-0.105	-0.214232	-0.18178	0.97234	-0.7095	0.387	-0.9975	0	63	983	1
2026-02-11	16:32:30.930	-1.855	0	0.105	-0.212036	-0.19642	0.963556	-0.7155	0.3885	-0.996	0	63	983	1
2026-02-11	16:32:30.950	0.35	0.245	0.245	-0.215696	-0.182024	0.97234	-0.7125	0.396	-1.0035	0	63	983	1
2026-02-11	16:32:30.970	1.015	0.175	0.175	-0.214476	-0.171288	0.970876	-0.7155	0.393	-1.002	0	63	983	1
2026-02-11	16:32:30.990	0.105	0.14	-0.07	-0.21228	-0.175436	0.964288	-0.714	0.39	-1.005	0	63	983	1
2026-02-11	16:32:31.010	-0.875	0.245	-0.42	-0.209596	-0.16958	0.96746	-0.708	0.387	-1.008	0	62	985	1
2026-02-11	16:32:31.030	-1.82	0.455	-0.525	-0.216672	-0.175924	0.96502	-0.7155	0.3855	-1.008	0	62	985	1
2026-02-11	16:32:31.050	-2.625	0.595	-0.665	-0.215696	-0.178852	0.965752	-0.714	0.3855	-0.999	0	62	985	1
2026-02-11	16:32:31.070	-2.94	0.56	-1.05	-0.21594	-0.180804	0.967948	-0.711	0.384	-1.002	0	62	985	1
2026-02-11	16:32:31.090	-3.15	0.7	-1.26	-0.21594	-0.182512	0.966484	-0.711	0.387	-0.9975	0	62	985	1
2026-02-11	16:32:31.110	-3.5	0.63	-1.26	-0.212524	-0.182268	0.967948	-0.7125	0.3915	-0.993	0	62	985	1
2026-02-11	16:32:31.130	-4.165	0.7	-1.295	-0.215696	-0.18544	0.96624	-0.705	0.39	-1.002	0	62	985	1
2026-02-11	16:32:31.150	-4.06	0.595	-1.155	-0.210328	-0.187148	0.970388	-0.705	0.396	-0.996	0	62	985	1
2026-02-11	16:32:31.170	-3.815	0.875	-1.015	-0.214476	-0.184708	0.968436	-0.7095	0.4005	-0.9975	0	62	985	1
2026-02-11	16:32:31.190	-3.465	0.77	-0.735	-0.21838	-0.195688	0.956968	-0.705	0.4035	-0.9945	0	62	985	1
2026-02-11	16:32:31.210	-2.31	0.665	-0.49	-0.222772	-0.20374	0.966484	-0.711	0.4065	-0.987	0	58	987	1
2026-02-11	16:32:31.230	-0.735	0.63	-0.21	-0.215696	-0.194956	0.961848	-0.7065	0.4155	-0.996	0	58	987	1
2026-02-11	16:32:31.250	0.28	0.175	-0.21	-0.217892	-0.195688	0.958432	-0.7035	0.4095	-0.9975	0	58	987	1
2026-02-11	16:32:31.270	0.385	0.035	-0.105	-0.219356	-0.194712	0.967948	-0.708	0.405	-0.9945	0	58	987	1
2026-02-11	16:32:31.290	0.875	-0.035	0	-0.218624	-0.193736	0.960628	-0.7095	0.4065	-0.9825	0	58	987	1
2026-02-11	16:32:31.310	1.365	-0.035	0.105	-0.214964	-0.1891	0.968192	-0.7155	0.4065	-0.9945	0	58	987	1
2026-02-11	16:32:31.330	1.435	-0.035	0.14	-0.219356	-0.17934	0.967948	-0.7125	0.4095	-1.0035	0	58	987	1
2026-02-11	16:32:31.350	0.14	-0.035	0.14	-0.217892	-0.177876	0.96502	-0.7155	0.396	-1.005	0	58	987	1
2026-02-11	16:32:31.370	-0.455	0.105	0.035	-0.218136	-0.187148	0.965996	-0.7125	0.3945	-1.002	0	58	987	1
2026-02-11	16:32:31.390	-0.105	0.14	0.07	-0.220332	-0.192028	0.961116	-0.711	0.3945	-0.999	0	58	987	1
2026-02-11	16:32:31.410	0.63	0.175	0.14	-0.220088	-0.194712	0.96502	-0.7125	0.3945	-0.999	0	53	987	1
2026-02-11	16:32:31.430	0.98	0.245	0.28	-0.218624	-0.182268	0.967216	-0.7095	0.4005	-1.005	0	53	987	1
2026-02-11	16:32:31.450	0.595	0	0.28	-0.21838	-0.179828	0.965752	-0.7185	0.3975	-1.005	0	53	987	1
2026-02-11	16:32:31.470	0.42	-0.105	0.175	-0.21838	-0.17812	0.964288	-0.717	0.396	-1.0065	0	53	987	1
2026-02-11	16:32:31.490	0.595	-0.315	0.105	-0.21716	-0.181048	0.966484	-0.7185	0.39	-1.0155	0	53	987	1
2026-02-11	16:32:31.510	0.385	-0.175	0.175	-0.220332	-0.182024	0.970144	-0.7185	0.384	-1.0095	0	53	987	1
2026-02-11	16:32:31.530	-0.21	-0.07	0.175	-0.217404	-0.174704	0.967704	-0.7215	0.387	-1.0185	0	53	987	1
2026-02-11	16:32:31.550	-1.295	0	0.105	-0.217404	-0.178608	0.96258	-0.714	0.3855	-1.008	0	53	987	1
2026-02-11	16:32:31.570	-1.575	-0.035	-0.105	-0.219112	-0.190564	0.964288	-0.714	0.387	-1.002	0	53	987	1
2026-02-11	16:32:31.590	-1.365	0	-0.21	-0.2196	-0.188612	0.963068	-0.717	0.387	-1.0095	0	53	987	1
2026-02-11	16:32:31.610	-0.805	0.28	-0.105	-0.216916	-0.192272	0.963556	-0.72	0.384	-1.0125	0	48	987	1
2026-02-11	16:32:31.630	-0.35	0.28	0	-0.215452	-0.182024	0.964288	-0.723	0.3885	-1.0095	0	48	987	1
2026-02-11	16:32:31.650	-0.21	0.105	0	-0.21594	-0.179828	0.964288	-0.7245	0.3885	-1.0125	0	48	987	1
2026-02-11	16:32:31.670	-0.49	0.105	0.07	-0.22082	-0.185928	0.96868	-0.7275	0.3885	-1.0155	0	48	987	1
2026-02-11	16:32:31.690	-0.595	0.035	0.035	-0.219112	-0.180072	0.964776	-0.729	0.387	-1.0155	0	48	987	1
2026-02-11	16:32:31.710	-0.35	0.14	0.07	-0.219112	-0.183976	0.966484	-0.7215	0.3795	-1.0035	0	48	987	1
2026-02-11	16:32:31.730	-0.14	-0.035	0.175	-0.22204	-0.18544	0.965752	-0.7215	0.3855	-1.014	0	48	987	1
2026-02-11	16:32:31.750	-0.105	-0.245	0.105	-0.222772	-0.183488	0.96746	-0.72	0.384	-1.011	0	48	987	1
2026-02-11	16:32:31.770	-0.07	-0.14	0.14	-0.218868	-0.175192	0.968436	-0.7125	0.3765	-1.011	0	48	987	1
2026-02-11	16:32:31.790	0	-0.175	0.14	-0.22082	-0.184708	0.96624	-0.717	0.384	-1.008	0	48	987	1
2026-02-11	16:32:31.810	1.05	-0.385	0.14	-0.216184	-0.210572	0.95526	-0.7275	0.3855	-1.0185	0	42	987	1
2026-02-11	16:32:31.830	6.58	-0.595	0.315	-0.151524	-0.333792	0.965996	-0.726	0.381	-1.011	0	42	987	1
2026-02-11	16:32:31.850	19.005	1.68	-1.54	-0.199836	-0.279624	0.959896	-0.7245	0.3795	-1.0185	0	42	987	1
2026-02-11	16:32:31.870	29.785	7.56	0.175	-0.202032	-0.146156	0.96746	-0.7305	0.36	-1.0275	0	42	987	1
2026-02-11	16:32:31.890	36.365	14.28	-4.935	-0.18666	-0.108824	1.015528	-0.744	0.321	-1.0575	0	42	987	1
2026-02-11	16:32:31.910	42.21	28.42	-15.715	-0.215696	0.007564	1.057984	-0.7635	0.2925	-1.068	0	42	987	1
2026-02-11	16:32:31.930	24.29	30.38	-31.08	-0.277916	0.309148	0.992348	-0.7635	0.2925	-1.068	0	42	987	1
2026-02-11	16:32:31.950	-14.84	8.435	-41.86	-0.313296	-0.122488	0.88694	-0.7665	0.279	-1.053	0	42	987	1
2026-02-11	16:32:31.970	-28.665	-7.035	-37.905	-0.292556	-0.204472	0.951844	-0.765	0.2895	-1.0155	0	42	987	1
2026-02-11	16:32:31.990	-23.52	-19.215	-29.96	-0.24888	-0.1952	0.953796	-0.762	0.3135	-0.9945	0	42	987	1
2026-02-11	16:32:32.010	-27.895	-17.57	-21.945	-0.188368	-0.420412	0.886696	-0.7575	0.3555	-0.954	0	39	987	1
2026-02-11	16:32:32.030	-1.19	0.105	-7.21	-0.211548	-0.42212	1.029924	-0.759	0.384	-0.933	0	39	987	1
2026-02-11	16:32:32.050	16.695	8.68	6.51	-0.224968	-0.245708	0.962092	-0.759	0.408	-0.921	0	39	987	1
2026-02-11	16:32:32.070	18.725	8.155	18.13	-0.256932	-0.110776	0.909388	-0.7665	0.402	-0.927	0	39	987	1
2026-02-11	16:32:32.090	11.865	4.375	15.435	-0.256688	0.003416	0.910852	-0.7695	0.378	-0.9225	0	39	987	1
2026-02-11	16:32:32.110	-3.36	2.205	4.2	-0.259128	0.019276	0.980148	-0.7785	0.3555	-0.942	0	39	987	1
2026-02-11	16:32:32.130	-15.785	3.745	-2.555	-0.223992	-0.106628	1.012112	-0.789	0.351	-0.9465	0	39	987	1
2026-02-11	16:32:32.150	-18.69	6.125	-3.045	-0.223992	-0.206668	0.978928	-0.789	0.3705	-0.9375	0	39	987	1
2026-02-11	16:32:32.170	-17.92	9.73	0.105	-0.244	-0.274988	0.964044	-0.786	0.381	-0.936	0	39	987	1
2026-02-11	16:32:32.190	-4.795	11.655	2.73	-0.277916	-0.233508	0.966484	-0.7755	0.393	-0.9105	0	39	987	1
2026-02-11	16:32:32.210	1.68	7.49	2.555	-0.30012	-0.161772	0.943792	-0.789	0.405	-0.9195	0	41	987	1
2026-02-11	16:32:32.230	2.8	0.245	1.085	-0.272548	-0.157624	0.922808	-0.789	0.408	-0.9195	0	41	987	1
2026-02-11	16:32:32.250	6.825	-4.06	-0.105	-0.266692	-0.111264	0.981368	-0.783	0.408	-0.9195	0	41	987	1
2026-02-11	16:32:32.270	2.24	-3.22	-3.43	-0.229848	-0.105164	0.990152	-0.7785	0.399	-0.9195	0	41	987	1
2026-02-11	16:32:32.290	-4.83	-0.42	-3.605	-0.233508	-0.16104	0.965264	-0.7815	0.3915	-0.921	0	41	987	1
2026-02-11	16:32:32.310	-8.12	1.785	-1.995	-0.233752	-0.202032	0.930128	-0.7785	0.393	-0.924	0	41	987	1
2026-02-11	16:32:32.330	-6.58	2.485	0.56	-0.24278	-0.229116	0.94306	-0.771	0.4065	-0.915	0	41	987	1
2026-02-11	16:32:32.350	-1.82	1.715	3.5	-0.260104	-0.231556	0.94184	-0.7725	0.4095	-0.9135	0	41	987	1
2026-02-11	16:32:32.370	5.25	1.12	4.795	-0.266692	-0.188856	0.948428	-0.7845	0.4125	-0.915	0	41	987	1
2026-02-11	16:32:32.390	9.59	1.295	4.515	-0.269132	-0.172264	0.972584	-0.78	0.4095	-0.912	0	41	987	1
2026-02-11	16:32:32.410	10.045	2.31	4.76	-0.27572	-0.116388	0.972828	-0.7905	0.4005	-0.9315	0	45	985	1
2026-02-11	16:32:32.430	7	1.015	3.745	-0.272792	-0.14518	0.949648	-0.801	0.3855	-0.9195	0	45	985	1
2026-02-11	16:32:32.450	6.195	-1.015	1.505	-0.282308	-0.148596	0.95282	-0.7965	0.378	-0.9405	0	45	985	1
2026-02-11	16:32:32.470	3.745	-3.675	2.065	-0.280112	-0.167628	0.94306	-0.798	0.369	-0.9405	0	45	985	1
2026-02-11	16:32:32.490	2.415	-6.545	1.785	-0.282552	-0.175436	0.945988	-0.795	0.3705	-0.951	0	45	985	1
2026-02-11	16:32:32.510	1.575	-7.035	4.2	-0.24644	-0.152988	0.968924	-0.798	0.357	-0.9615	0	45	985	1
2026-02-11	16:32:32.530	0.91	-6.37	4.655	-0.261812	-0.141764	0.973804	-0.7995	0.3375	-0.9765	0	45	985	1
2026-02-11	16:32:32.550	-0.245	-5.04	3.85	-0.23546	-0.111996	0.986736	-0.804	0.333	-0.9885	0	45	985	1
2026-02-11	16:32:32.570	-1.855	-3.85	4.13	-0.24034	-0.17568	0.97234	-0.81	0.3375	-0.9945	0	45	985	1
2026-02-11	16:32:32.590	-0.665	-3.605	3.535	-0.25742	-0.178364	0.952332	-0.7905	0.3225	-1.005	0	45	985	1
2026-02-11	16:32:32.610	1.96	-3.605	2.345	-0.242048	-0.134444	0.965752	-0.8025	0.3195	-1.0035	0	50	984	1
2026-02-11	16:32:32.630	3.99	-4.655	0.56	-0.23912	-0.132248	0.972096	-0.804	0.318	-1.0155	0	50	984	1
2026-02-11	16:32:32.650	3.01	-5.285	0	-0.243268	-0.120292	0.983076	-0.7965	0.3075	-1.02	0	50	984	1
2026-02-11	16:32:32.670	0.35	-6.825	0.385	-0.25742	-0.137616	0.962824	-0.7965	0.2955	-1.0215	0	50	984	1
2026-02-11	16:32:32.690	1.295	-9.765	1.12	-0.241804	-0.199348	0.977952	-0.8025	0.2955	-1.0215	0	50	984	1
2026-02-11	16:32:32.710	10.605	-9.625	0.385	-0.240584	-0.144204	0.994056	-0.7995	0.3015	-1.02	0	50	984	1
2026-02-11	16:32:32.730	16.1	-7.595	-1.12	-0.243512	-0.1037	0.975024	-0.7965	0.294	-1.0365	0	50	984	1
2026-02-11	16:32:32.750	14.63	-7.385	-1.505	-0.224724	-0.124684	0.969412	-0.807	0.276	-1.0365	0	50	984	1
2026-02-11	16:32:32.770	15.225	-7.98	3.5	-0.239852	-0.190564	0.946964	-0.807	0.267	-1.041	0	50	984	1
2026-02-11	16:32:32.790	17.955	-9.38	8.295	-0.19642	-0.123464	0.959896	-0.8055	0.255	-1.044	0	50	984	1
2026-02-11	16:32:32.810	15.89	-9.73	6.055	-0.195688	-0.08295999	0.969656	-0.8025	0.24	-1.0515	0	53	984	1
2026-02-11	16:32:32.830	10.15	-8.785	6.545	-0.219844	-0.120048	0.966728	-0.807	0.228	-1.059	0	53	984	1
2026-02-11	16:32:32.850	8.54	-8.995	7.805	-0.215208	-0.158112	0.957456	-0.8145	0.219	-1.0665	0	53	984	1
2026-02-11	16:32:32.870	11.27	-5.25	7.595	-0.224968	-0.095892	1.018456	-0.8175	0.219	-1.071	0	53	984	1
2026-02-11	16:32:32.890	10.605	-2.975	5.775	-0.225456	-0.012932	0.997716	-0.8385	0.1965	-1.0815	0	53	984	1
2026-02-11	16:32:32.910	5.425	-0.805	2.8	-0.225944	-0.038796	0.998448	-0.849	0.189	-1.095	0	53	984	1
2026-02-11	16:32:32.930	0.525	-0.07	0.98	-0.239364	-0.09516	0.949892	-0.8445	0.18	-1.104	0	53	984	1
2026-02-11	16:32:32.950	-0.945	-0.7	0.035	-0.210816	-0.07198	0.965752	-0.852	0.1695	-1.089	0	53	984	1
2026-02-11	16:32:32.970	-1.75	2.205	-0.175	-0.203984	-0.094916	0.99552	-0.849	0.18	-1.089	0	53	984	1
2026-02-11	16:32:32.990	-2.625	5.32	-0.175	-0.20862	-0.094428	0.966728	-0.8415	0.183	-1.092	0	53	984	1
2026-02-11	16:32:33.010	-1.435	5.95	0.7	-0.225456	-0.115412	0.986492	-0.8415	0.1845	-1.092	0	55	986	1
2026-02-11	16:32:33.030	1.82	3.885	0.14	-0.226676	-0.003416	0.989664	-0.84	0.183	-1.089	0	55	986	1
2026-02-11	16:32:33.050	-7.7	-0.805	-2.835	-0.24278	-0.03294	0.95282	-0.8325	0.1845	-1.086	0	55	986	1
2026-02-11	16:32:33.070	-15.925	-6.09	-4.06	-0.21594	-0.182756	0.956236	-0.828	0.1935	-1.08	0	55	986	1
2026-02-11	16:32:33.090	-12.355	-5.11	-2.31	-0.21472	-0.1647	0.985272	-0.822	0.2085	-1.068	0	55	986	1
2026-02-11	16:32:33.110	-5.11	-3.85	-0.805	-0.192516	-0.159576	0.974536	-0.8205	0.2145	-1.062	0	55	986	1
2026-02-11	16:32:33.130	-3.535	0.245	-0.07	-0.211548	-0.089792	1.00162	-0.8205	0.2175	-1.0695	0	55	986	1
2026-02-11	16:32:33.150	-4.725	5.46	-1.295	-0.207888	-0.094916	0.99796	-0.819	0.2175	-1.0725	0	55	986	1
2026-02-11	16:32:33.170	-7.595	11.025	-3.08	-0.210572	-0.01586	1.007476	-0.8175	0.216	-1.0725	0	55	986	1
2026-02-11	16:32:33.190	-16.975	16.625	-7	-0.21838	0.02318	1.0187	-0.831	0.219	-1.065	0	55	986	1
2026-02-11	16:32:33.210	-34.02	18.62	-11.13	-0.250344	-0.097844	1.004548	-0.819	0.225	-1.062	0	57	989	1
2026-02-11	16:32:33.230	-60.2	16.555	-15.365	-0.273524	-0.049532	0.997472	-0.798	0.2625	-1.0305	0	57	989	1
2026-02-11	16:32:33.250	-81.41	11.48	-21.175	-0.27938	-0.078568	0.917684	-0.7905	0.306	-1.002	0	57	989	1
2026-02-11	16:32:33.270	-73.15	4.585	-31.01	-0.282796	-0.217892	0.8662	-0.7665	0.381	-0.966	0	57	989	1
2026-02-11	16:32:33.290	-51.17	-2.8	-31.64	-0.266692	-0.455792	0.849608	-0.7425	0.4515	-0.9195	0	57	989	1
2026-02-11	16:32:33.310	-19.53	-8.26	-22.4	-0.240096	-0.476044	0.921344	-0.729	0.504	-0.897	0	57	989	1
2026-02-11	16:32:33.330	5.705	-7.98	-7.28	-0.194712	-0.391864	0.96014	-0.72	0.537	-0.882	0	57	989	1
2026-02-11	16:32:33.350	19.005	-0.665	7	-0.209352	-0.128832	0.958676	-0.72	0.537	-0.882	0	57	989	1
2026-02-11	16:32:33.370	15.26	4.515	8.715	-0.21472	-0.137128	0.959164	-0.714	0.504	-0.909	0	57	989	1
2026-02-11	16:32:33.390	12.11	2.905	5.915	-0.212768	-0.081252	0.978684	-0.705	0.459	-0.9465	0	57	989	1
2026-02-11	16:32:33.410	3.15	-1.785	0.91	-0.239608	-0.098088	0.951844	-0.7065	0.444	-0.9585	0	59	990	1
2026-02-11	16:32:33.430	-5.74	-8.61	0.21	-0.23668	-0.171044	0.953064	-0.7065	0.444	-0.9585	0	59	990	1
2026-02-11	16:32:33.450	-6.37	-14.245	1.19	-0.214964	-0.30012	0.95526	-0.7035	0.447	-0.9585	0	59	990	1
2026-02-11	16:32:33.470	1.12	-10.36	3.885	-0.20374	-0.36356	0.962336	-0.714	0.453	-0.939	0	59	990	1
2026-02-11	16:32:33.490	11.935	-2.065	6.44	-0.221064	-0.296704	0.990396	-0.72	0.4695	-0.9315	0	59	990	1
2026-02-11	16:32:33.510	17.815	0.14	8.89	-0.250344	-0.214476	0.95038	-0.723	0.4515	-0.936	0	59	990	1
2026-02-11	16:32:33.530	16.765	-3.01	8.68	-0.27938	-0.158112	0.952576	-0.732	0.4425	-0.9435	0	59	990	1
2026-02-11	16:32:33.550	11.865	-9.905	4.725	-0.27328	-0.131272	0.912072	-0.7365	0.4185	-0.957	0	59	990	1
2026-02-11	16:32:33.570	6.72	-18.69	0.105	-0.21838	-0.002928	0.936472	-0.7425	0.4035	-0.966	0	59	990	1
2026-02-11	16:32:33.590	18.2	-20.44	-1.925	-0.176412	-0.293288	1.043344	-0.738	0.3825	-0.99	0	59	990	1
2026-02-11	16:32:33.610	28.245	-7	2.975	-0.148596	-0.16592	1.00284	-0.75	0.378	-0.996	0	63	988	1
2026-02-11	16:32:33.630	16.73	4.48	15.995	-0.176412	-0.209596	0.938912	-0.75	0.378	-0.996	0	63	988	1
2026-02-11	16:32:33.650	9.415	6.055	18.55	-0.201544	-0.206424	0.929152	-0.7485	0.3465	-1.0125	0	63	988	1
2026-02-11	16:32:33.670	10.01	5.32	18.725	-0.225212	-0.181048	0.942572	-0.7545	0.3075	-1.038	0	63	988	1
2026-02-11	16:32:33.690	9.835	4.9	16.31	-0.2257	-0.109068	0.988688	-0.7665	0.2925	-1.0545	0	63	988	1
2026-02-11	16:32:33.710	3.185	3.955	12.705	-0.24034	-0.06344	1.001864	-0.7755	0.2715	-1.071	0	63	988	1
2026-02-11	16:32:33.730	-3.675	1.995	8.05	-0.226432	-0.080276	0.985516	-0.7785	0.2565	-1.0845	0	63	988	1
2026-02-11	16:32:33.750	-7.595	-0.805	3.01	-0.240096	-0.075884	0.980148	-0.78	0.255	-1.0905	0	63	988	1
2026-02-11	16:32:33.770	-13.72	-4.34	0.91	-0.225944	-0.135908	0.962336	-0.7875	0.2565	-1.092	0	63	988	1
2026-02-11	16:32:33.790	-12.425	-5.95	0.455	-0.214476	-0.193492	0.976	-0.7845	0.2655	-1.0905	0	63	988	1
2026-02-11	16:32:33.810	-6.825	-5.53	1.54	-0.210084	-0.198616	0.981856	-0.786	0.2835	-1.0815	0	68	987	1
2026-02-11	16:32:33.830	-0.455	-5.775	3.08	-0.212524	-0.204472	0.966484	-0.786	0.285	-1.065	0	68	987	1
2026-02-11	16:32:33.850	1.855	-7.315	5.075	-0.205936	-0.150304	0.970144	-0.7875	0.288	-1.0725	0	68	987	1
2026-02-11	16:32:33.870	3.92	-7.49	6.58	-0.211548	-0.180804	0.97112	-0.789	0.2865	-1.074	0	68	987	1
2026-02-11	16:32:33.890	3.745	-8.085	12.635	-0.201056	-0.213012	0.95526	-0.7875	0.279	-1.083	0	68	987	1
2026-02-11	16:32:33.910	8.47	-7.28	19.215	-0.207156	-0.18666	0.987956	-0.7875	0.279	-1.083	0	68	987	1
2026-02-11	16:32:33.930	7.595	-6.3	21.21	-0.201788	-0.148108	0.99918	-0.801	0.2655	-1.101	0	68	987	1
2026-02-11	16:32:33.950	8.435	-7	17.57	-0.21594	-0.034648	0.969168	-0.8205	0.2505	-1.1325	0	68	987	1
2026-02-11	16:32:33.970	6.93	-9.205	10.885	-0.198616	-0.097112	0.987224	-0.834	0.2355	-1.149	0	68	987	1
2026-02-11	16:32:33.990	4.34	-8.12	5.95	-0.187636	-0.084912	1.015528	-0.84	0.222	-1.158	0	68	987	1
2026-02-11	16:32:34.010	-0.49	-5.67	5.565	-0.213012	-0.124196	1.033584	-0.8415	0.219	-1.1655	0	71	987	1
2026-02-11	16:32:34.030	-1.89	-6.16	4.2	-0.239608	-0.145668	0.934032	-0.84	0.2235	-1.164	0	71	987	1
2026-02-11	16:32:34.050	1.4	-9.94	0.63	-0.224724	-0.234972	0.926224	-0.8355	0.228	-1.161	0	71	987	1
2026-02-11	16:32:34.070	4.235	-8.82	1.61	-0.1281	-0.029036	0.994056	-0.825	0.2325	-1.1595	0	71	987	1
2026-02-11	16:32:34.090	-3.78	-3.325	-1.155	-0.159088	-0.017324	1.016748	-0.8265	0.2205	-1.1715	0	71	987	1
2026-02-11	16:32:34.110	-12.075	-1.995	-2.415	-0.1647	-0.092964	0.944768	-0.819	0.216	-1.179	0	71	987	1
2026-02-11	16:32:34.130	-14.105	-1.715	-2.94	-0.173972	-0.170068	0.894504	-0.819	0.2205	-1.1595	0	71	987	1
2026-02-11	16:32:34.150	-10.115	0.35	-3.325	-0.16348	-0.14274	0.982344	-0.8085	0.2355	-1.152	0	71	987	1
2026-02-11	16:32:34.170	-10.045	5.075	-4.06	-0.16836	-0.123708	1.014064	-0.8085	0.2415	-1.143	0	71	987	1
2026-02-11	16:32:34.190	-14.21	10.885	-2.485	-0.188368	-0.183976	0.991128	-0.81	0.2505	-1.149	0	71	987	1
2026-02-11	16:32:34.210	-11.27	14.175	-1.435	-0.19764	-0.170312	0.994056	-0.807	0.2625	-1.1295	0	73	990	1
2026-02-11	16:32:34.230	-9.59	13.79	-0.84	-0.223016	-0.164944	0.97356	-0.8025	0.2865	-1.101	0	73	990	1
2026-02-11	16:32:34.250	-9.205	9.31	-0.315	-0.23302	-0.194468	0.967704	-0.801	0.3015	-1.0845	0	73	990	1
2026-02-11	16:32:34.270	-6.125	3.185	0.77	-0.2257	-0.235948	0.947452	-0.798	0.3075	-1.074	0	73	990	1
2026-02-11	16:32:34.290	2.03	-2.52	2.275	-0.230336	-0.236924	0.916708	-0.7935	0.3195	-1.0665	0	73	990	1
2026-02-11	16:32:34.310	10.185	-7.385	2.31	-0.2379	-0.2196	0.887672	-0.795	0.318	-1.0755	0	73	990	1
2026-02-11	16:32:34.330	7.35	-10.22	1.085	-0.174948	-0.088816	1.0675	-0.804	0.2985	-1.095	0	73	990	1
2026-02-11	16:32:34.350	-0.455	-4.13	-0.42	-0.183244	-0.053436	1.048224	-0.8115	0.288	-1.107	0	73	990	1
2026-02-11	16:32:34.370	-5.565	0.91	-1.995	-0.181048	-0.129564	0.975024	-0.8055	0.2835	-1.107	0	73	990	1
2026-02-11	16:32:34.390	-2.485	3.71	-1.54	-0.194956	-0.190076	0.958188	-0.828	0.2865	-1.1205	0	73	990	1
2026-02-11	16:32:34.410	0.14	4.235	-0.805	-0.204228	-0.157868	0.945256	-0.8085	0.2835	-1.107	0	74	991	1
2026-02-11	16:32:34.430	1.4	4.165	-0.315	-0.199836	-0.164212	0.97722	-0.798	0.294	-1.11	0	74	991	1
2026-02-11	16:32:34.450	-1.435	3.29	0.525	-0.214476	-0.16592	0.968436	-0.804	0.2865	-1.1025	0	74	991	1
2026-02-11	16:32:34.470	-1.855	1.54	-0.245	-0.21838	-0.159332	0.966728	-0.8055	0.291	-1.0965	0	74	991	1
2026-02-11	16:32:34.490	-1.19	0	-0.84	-0.212524	-0.183976	0.968192	-0.807	0.2895	-1.0995	0	74	991	1
2026-02-11	16:32:34.510	0.14	-0.735	-0.63	-0.210572	-0.151524	0.981124	-0.81	0.291	-1.104	0	74	991	1
2026-02-11	16:32:34.530	-0.7	-1.785	-0.595	-0.213256	-0.145668	0.968436	-0.81	0.2865	-1.101	0	74	991	1
2026-02-11	16:32:34.550	-0.84	-1.925	-0.91	-0.193004	-0.14518	0.975512	-0.8085	0.282	-1.1025	0	74	991	1
2026-02-11	16:32:34.570	1.05	-0.315	-1.05	-0.204228	-0.172508	0.989176	-0.804	0.288	-1.1055	0	74	991	1
2026-02-11	16:32:34.590	4.235	1.505	-1.47	-0.207888	-0.143228	0.986492	-0.8055	0.2895	-1.1055	0	74	991	1
2026-02-11	16:32:34.610	0.56	1.085	-1.925	-0.209352	-0.130296	0.950624	-0.81	0.2835	-1.1055	0	75	993	1
2026-02-11	16:32:34.630	-4.13	-1.295	-1.54	-0.20496	-0.162016	0.961116	-0.8115	0.2805	-1.107	0	75	993	1
2026-02-11	16:32:34.650	-5.18	-3.5	-0.805	-0.189588	-0.23424	0.959652	-0.801	0.2865	-1.095	0	75	993	1
2026-02-11	16:32:34.670	0.91	0.07	0.525	-0.176656	-0.234484	0.991372	-0.8025	0.2895	-1.0875	0	75	993	1
2026-02-11	16:32:34.690	5.81	7.455	0.91	-0.199348	-0.071736	1.000156	-0.807	0.294	-1.0935	0	75	993	1
2026-02-11	16:32:34.710	1.68	11.305	-0.7	-0.1952	-0.003904	1.026752	-0.81	0.291	-1.1055	0	75	993	1
2026-02-11	16:32:34.730	-15.4	10.92	-0.315	-0.237168	-0.060268	0.970144	-0.813	0.2775	-1.098	0	75	993	1
2026-02-11	16:32:34.750	-21.385	4.2	-1.505	-0.241072	-0.245464	0.888892	-0.795	0.3015	-1.0875	0	75	993	1
2026-02-11	16:32:34.770	-17.15	2.695	-3.115	-0.228872	-0.191784	0.9638	-0.795	0.3015	-1.0875	0	75	993	1
2026-02-11	16:32:34.790	-7.84	0.77	-2.94	-0.225212	-0.238144	0.972096	-0.7905	0.3315	-1.056	0	75	993	1
2026-02-11	16:32:34.810	-0.63	-0.035	-2.345	-0.2013	-0.213744	0.96868	-0.7815	0.3675	-1.0245	0	74	993	1
2026-02-11	16:32:34.830	-0.49	1.26	-0.98	-0.20618	-0.17446	0.95648	-0.777	0.3765	-1.0185	0	74	993	1
2026-02-11	16:32:34.850	-0.455	2.8	-1.015	-0.128344	-0.148352	0.998448	-0.777	0.3825	-1.011	0	74	993	1
2026-02-11	16:32:34.870	2.205	5.67	-12.32	-0.15372	-0.08686399	1.03212	-0.777	0.384	-1.011	0	74	993	1
2026-02-11	16:32:34.890	3.64	9.625	-12.53	-0.19154	-0.196176	1.003328	-0.783	0.387	-1.002	0	74	993	1
2026-02-11	16:32:34.910	1.82	15.19	-14.105	-0.151036	-0.232776	1.01382	-0.792	0.3975	-0.9765	0	74	993	1
2026-02-11	16:32:34.930	3.78	22.085	-18.165	-0.223748	-0.15372	1.008208	-0.795	0.402	-0.9585	0	74	993	1
2026-02-11	16:32:34.950	-4.62	27.545	-26.32	-0.229604	-0.026108	1.035048	-0.8055	0.423	-0.9405	0	74	993	1
2026-02-11	16:32:34.970	-15.295	29.96	-36.505	-0.252296	-0.052704	1.048712	-0.81	0.435	-0.909	0	74	993	1
2026-02-11	16:32:34.990	-7.28	25.27	-43.155	-0.258884	-0.13786	1.006012	-0.816	0.465	-0.8595	0	74	993	1
2026-02-11	16:32:35.010	7.665	20.72	-41.335	-0.2745	-0.196908	0.91378	-0.813	0.5025	-0.8235	0	73	995	1
2026-02-11	16:32:35.030	11.69	20.965	-36.75	-0.254492	-0.228872	0.903044	-0.8145	0.5445	-0.7875	0	73	995	1
2026-02-11	16:32:35.050	7.77	14.245	-32.025	-0.241072	-0.27572	0.981856	-0.8145	0.5445	-0.7875	0	73	995	1
2026-02-11	16:32:35.070	-1.505	0.805	-26.95	-0.261812	-0.274256	1.083116	-0.8235	0.5745	-0.756	0	73	995	1
2026-02-11	16:32:35.090	-27.37	-16.415	-25.76	-0.30012	-0.15738	0.963556	-0.843	0.609	-0.7215	0	73	995	1
2026-02-11	16:32:35.110	-65.17	-32.515	-25.62	-0.182024	-0.17446	0.51118	-0.8655	0.627	-0.6975	0	73	995	1
2026-02-11	16:32:35.130	-33.565	-18.34	-8.82	-0.054656	-0.667096	0.817644	-0.8925	0.6525	-0.6675	0	73	995	1
2026-02-11	16:32:35.150	37.38	3.29	10.815	-0.128832	-0.431148	1.209264	-0.9255	0.6645	-0.654	0	73	995	1
2026-02-11	16:32:35.170	38.325	13.685	21.455	-0.204228	-0.256444	1.22366	-0.9525	0.645	-0.6375	0	73	995	1
2026-02-11	16:32:35.190	-4.2	12.25	23.8	-0.205936	-0.132004	0.939644	-0.966	0.612	-0.6045	0	73	995	1
2026-02-11	16:32:35.210	-37.03	11.515	26.6	-0.22936	-0.30134	0.795928	-0.972	0.5865	-0.561	0	74	994	1
2026-02-11	16:32:35.230	-28.595	10.01	32.2	-0.234972	-0.39406	0.809104	-0.972	0.5745	-0.537	0	74	994	1
2026-02-11	16:32:35.250	-1.785	5.355	38.115	-0.270352	-0.360144	0.792024	-0.981	0.5745	-0.492	0	74	994	1
2026-02-11	16:32:35.270	8.96	-1.05	41.475	-0.298168	-0.27816	0.751032	-0.9855	0.558	-0.4365	0	74	994	1
2026-02-11	16:32:35.290	-0.385	-7.525	42.245	-0.324032	-0.268644	0.75884	-0.9915	0.5355	-0.4005	0	74	994	1
2026-02-11	16:32:35.310	-11.62	-12.67	40.215	-0.360388	-0.201788	0.81374	-1.008	0.525	-0.357	0	74	994	1
2026-02-11	16:32:35.330	-21.14	-20.965	36.19	-0.404064	-0.138592	0.834236	-1.008	0.525	-0.357	0	74	994	1
2026-02-11	16:32:35.350	-25.97	-26.285	32.69	-0.359656	-0.142008	0.85888	-1.044	0.516	-0.288	0	74	994	1
2026-02-11	16:32:35.370	-32.13	-30.66	30.135	-0.337696	-0.200812	0.898408	-1.11	0.507	-0.204	0	74	994	1
2026-02-11	16:32:35.390	-28.28	-36.61	28.175	-0.249368	-0.304512	1.071404	-1.167	0.5145	-0.1605	0	74	994	1
2026-02-11	16:32:35.410	1.61	-37.205	23.94	-0.31598	-0.19276	1.201456	-1.215	0.519	-0.1125	0	81	984	1
2026-02-11	16:32:35.430	32.935	-27.09	24.78	-0.303292	-0.072468	1.177056	-1.254	0.5175	-0.078	0	81	984	1
2026-02-11	16:32:35.450	38.36	-14.56	23.38	-0.27084	-0.034404	1.115324	-1.2825	0.5145	-0.0585	0	81	984	1
2026-02-11	16:32:35.470	19.67	-4.095	17.955	-0.241072	-0.036356	1.09556	-1.296	0.507	-0.0495	0	81	984	1
2026-02-11	16:32:35.490	-5.32	2.45	10.815	-0.213012	-0.039284	1.04676	-1.299	0.507	-0.045	0	81	984	1
2026-02-11	16:32:35.510	-22.925	3.92	3.465	-0.213012	-0.0854	0.941596	-1.299	0.51	-0.045	0	81	984	1
2026-02-11	16:32:35.530	-25.935	1.26	-1.75	-0.19154	-0.210084	0.8784	-1.299	0.5205	-0.0525	0	81	984	1
2026-02-11	16:32:35.550	-18.375	-0.56	-2.415	-0.193736	-0.320128	0.912804	-1.293	0.525	-0.0435	0	81	984	1
2026-02-11	16:32:35.570	-12.145	-0.84	-1.225	-0.23302	-0.354532	0.953552	-1.296	0.5265	-0.0405	0	81	984	1
2026-02-11	16:32:35.590	-6.055	-0.665	-0.07	-0.26108	-0.302804	0.965996	-1.2975	0.5205	-0.036	0	81	984	1
