yyyy-MM-dd	HH:mm:ss.fff	gyrX	gyrY	gyrZ	accX	accY	accZ	magX	magY	magZ	Marker	Energy	Angle	Classification
2026-02-11	16:32:06.210	-0.14	-0.28	-0.105	-0.012444	0.022692	1.013332	-0.8655	5.388	-5.0445	0	41	1032	1
2026-02-11	16:32:06.230	-0.105	-0.245	-0.105	-0.011956	0.024644	1.011136	-0.8655	5.3895	-5.0475	0	41	1032	1
2026-02-11	16:32:06.250	-0.21	-0.315	-0.07	-0.00732	0.020252	1.013332	-0.8625	5.391	-5.049	0	41	1032	1
2026-02-11	16:32:06.270	-0.035	-0.175	-0.105	-0.008296	0.02318	1.01138	-0.87	5.3835	-5.049	0	41	1032	1
2026-02-11	16:32:06.290	0	-0.175	-0.14	-0.009516	0.024156	1.007964	-0.87	5.385	-5.055	0	41	1032	1
2026-02-11	16:32:06.310	-0.035	-0.07	-0.14	-0.010004	0.0244	1.014064	-0.876	5.3865	-5.0625	0	41	1032	1
2026-02-11	16:32:06.330	-0.035	-0.105	-0.14	-0.013664	0.020496	1.014064	-0.885	5.3895	-5.073	0	41	1032	1
2026-02-11	16:32:06.350	0	-0.07	-0.175	-0.011956	0.0244	1.010892	-0.8925	5.394	-5.0775	0	41	1032	1
2026-02-11	16:32:06.370	-0.07	-0.175	-0.14	-0.00732	0.024644	1.012356	-0.9	5.385	-5.0835	0	41	1032	1
2026-02-11	16:32:06.390	-0.595	-0.385	-0.14	-0.001708	0.018788	1.009428	-0.909	5.3775	-5.0985	0	41	1032	1
2026-02-11	16:32:06.410	-0.07	-0.105	-0.07	-0.00732	0.022448	1.015284	-0.9075	5.382	-5.094	0	36	1033	1
2026-02-11	16:32:06.430	0.245	0.105	-0.07	-0.014396	0.019764	1.014796	-0.891	5.3865	-5.0745	0	36	1033	1
2026-02-11	16:32:06.450	-0.035	-0.21	-0.07	-0.0061	0.025864	1.009672	-0.882	5.3925	-5.064	0	36	1033	1
2026-02-11	16:32:06.470	-0.105	-0.105	-0.07	-0.014152	0.02562	1.0126	-0.882	5.3925	-5.064	0	36	1033	1
2026-02-11	16:32:06.490	-0.07	-0.21	-0.07	-0.013176	0.024644	1.015528	-0.9	5.3925	-5.067	0	36	1033	1
2026-02-11	16:32:06.510	0.035	-0.245	-0.105	-0.006832	0.021228	1.006988	-0.8955	5.394	-5.0685	0	36	1033	1
2026-02-11	16:32:06.530	-0.035	-0.175	-0.105	-0.009516	0.023912	1.011624	-0.9015	5.397	-5.0685	0	36	1033	1
2026-02-11	16:32:06.550	-0.175	-0.14	-0.105	-0.011712	0.025376	1.011868	-0.894	5.394	-5.0655	0	36	1033	1
2026-02-11	16:32:06.570	-0.105	-0.245	-0.105	-0.008784	0.024888	1.007476	-0.8955	5.3835	-5.091	0	36	1033	1
2026-02-11	16:32:06.590	-0.105	-0.175	-0.105	-0.009272	0.019764	1.011136	-0.9015	5.3805	-5.0895	0	36	1033	1
2026-02-11	16:32:06.610	-0.105	-0.21	-0.105	-0.00976	0.024156	1.014064	-0.906	5.379	-5.0925	0	31	1033	1
2026-02-11	16:32:06.630	-0.07	-0.21	-0.105	-0.00976	0.021716	1.008208	-0.9	5.3865	-5.079	0	31	1033	1
2026-02-11	16:32:06.650	-0.105	-0.21	-0.07	-0.010248	0.020252	1.008208	-0.8955	5.391	-5.064	0	31	1033	1
2026-02-11	16:32:06.670	-0.035	-0.14	-0.07	-0.008052	0.0244	1.012112	-0.891	5.3925	-5.0715	0	31	1033	1
2026-02-11	16:32:06.690	-0.035	-0.175	-0.07	-0.010492	0.022204	1.012112	-0.8955	5.3985	-5.0655	0	31	1033	1
2026-02-11	16:32:06.710	-0.035	-0.21	-0.07	-0.00976	0.024888	1.011136	-0.8925	5.3955	-5.073	0	31	1033	1
2026-02-11	16:32:06.730	-0.105	-0.175	-0.105	-0.008784	0.022204	1.0126	-0.888	5.3865	-5.073	0	31	1033	1
2026-02-11	16:32:06.750	-0.07	-0.14	-0.14	-0.00976	0.023424	1.013332	-0.8925	5.4045	-5.0715	0	31	1033	1
2026-02-11	16:32:06.770	0	-0.21	-0.14	-0.010492	0.02806	1.010892	-0.891	5.3925	-5.0745	0	31	1033	1
2026-02-11	16:32:06.790	-0.07	-0.175	-0.105	-0.00976	0.026596	1.009672	-0.882	5.3955	-5.0715	0	31	1033	1
2026-02-11	16:32:06.810	-0.07	-0.14	-0.07	-0.011468	0.021228	1.01504	-0.8895	5.394	-5.0745	0	27	1034	1
2026-02-11	16:32:06.830	-0.105	-0.175	-0.07	-0.00976	0.022692	1.011136	-0.8895	5.394	-5.0745	0	27	1034	1
2026-02-11	16:32:06.850	-0.07	-0.14	-0.105	-0.010004	0.02806	1.012112	-0.888	5.394	-5.073	0	27	1034	1
2026-02-11	16:32:06.870	0.035	-0.14	-0.105	-0.00976	0.023668	1.014308	-0.8895	5.3955	-5.0745	0	27	1034	1
2026-02-11	16:32:06.890	-0.175	-0.245	-0.105	-0.010736	0.020252	1.010404	-0.882	5.3925	-5.0745	0	27	1034	1
2026-02-11	16:32:06.910	-0.035	-0.21	-0.07	-0.011224	0.025864	1.011868	-0.8775	5.3925	-5.0685	0	27	1034	1
2026-02-11	16:32:06.930	-0.07	-0.28	-0.105	-0.009272	0.027084	1.009672	-0.882	5.391	-5.0655	0	27	1034	1
2026-02-11	16:32:06.950	-0.105	-0.21	-0.105	-0.011224	0.026108	1.013576	-0.885	5.3925	-5.0625	0	27	1034	1
2026-02-11	16:32:06.970	-0.105	-0.175	-0.105	-0.01098	0.021716	1.01016	-0.8895	5.3985	-5.0595	0	27	1034	1
2026-02-11	16:32:06.990	-0.105	-0.175	-0.105	-0.005124	0.025864	1.012112	-0.8865	5.394	-5.064	0	27	1034	1
2026-02-11	16:32:07.010	-0.07	-0.14	-0.105	-0.009516	0.024888	1.011624	-0.8835	5.3925	-5.0655	0	24	1034	1
2026-02-11	16:32:07.030	-0.07	-0.14	-0.14	-0.010492	0.024156	1.01138	-0.8925	5.3985	-5.064	0	24	1034	1
2026-02-11	16:32:07.050	-0.07	-0.105	-0.105	-0.009516	0.023668	1.011136	-0.8985	5.3985	-5.0715	0	24	1034	1
2026-02-11	16:32:07.070	0	-0.07	-0.105	-0.01098	0.026596	1.012844	-0.9075	5.379	-5.088	0	24	1034	1
2026-02-11	16:32:07.090	0	-0.07	-0.105	-0.010492	0.025132	1.009916	-0.903	5.379	-5.082	0	24	1034	1
2026-02-11	16:32:07.110	-0.07	-0.105	-0.105	-0.010492	0.023424	1.008208	-0.891	5.388	-5.073	0	24	1034	1
2026-02-11	16:32:07.130	-0.105	0.035	-0.07	-0.00976	0.026352	1.00894	-0.882	5.3925	-5.0685	0	24	1034	1
2026-02-11	16:32:07.150	-0.035	0.105	-0.035	-0.009028	0.020984	1.00894	-0.8865	5.391	-5.0685	0	24	1034	1
2026-02-11	16:32:07.170	0	0.105	-0.07	-0.006344	0.030256	0.998448	-0.891	5.3925	-5.064	0	24	1034	1
2026-02-11	16:32:07.190	-0.035	0	-0.07	-0.004392	0.012688	1.016016	-0.8865	5.3925	-5.061	0	24	1034	1
2026-02-11	16:32:05.210	-0.105	-0.14	-0.105	-0.011468	0.021228	1.011868	-0.891	5.406	-5.1315	0	87	1026	1
2026-02-11	16:32:05.230	-0.07	-0.175	-0.105	-0.009028	0.022448	1.012844	-0.894	5.4075	-5.1255	0	87	1026	1
2026-02-11	16:32:05.250	0	-0.245	-0.105	-0.010004	0.022936	1.010648	-0.9	5.3955	-5.1195	0	87	1026	1
2026-02-11	16:32:05.270	-0.07	-0.175	-0.105	-0.00732	0.024156	1.010404	-0.9015	5.3985	-5.1165	0	87	1026	1
2026-02-11	16:32:05.290	-0.07	-0.175	-0.105	-0.0122	0.027572	1.010648	-0.897	5.406	-5.1195	0	87	1026	1
2026-02-11	16:32:05.310	-0.07	-0.21	-0.105	-0.00976	0.020984	1.013576	-0.9	5.4045	-5.124	0	87	1026	1
2026-02-11	16:32:05.330	-0.035	-0.21	-0.105	-0.008784	0.02562	1.013088	-0.903	5.409	-5.127	0	87	1026	1
2026-02-11	16:32:05.350	-0.07	-0.175	-0.105	-0.00854	0.024644	1.011624	-0.9045	5.421	-5.13	0	87	1026	1
2026-02-11	16:32:05.370	-0.035	-0.21	-0.105	-0.007808	0.028304	1.011868	-0.9045	5.421	-5.13	0	87	1026	1
2026-02-11	16:32:05.390	-0.035	-0.21	-0.105	-0.010248	0.026596	1.010892	-0.876	5.4105	-5.1045	0	87	1026	1
2026-02-11	16:32:05.410	-0.035	-0.21	-0.105	-0.01098	0.023424	1.010648	-0.8625	5.424	-5.0745	0	74	1028	1
2026-02-11	16:32:05.430	-0.07	-0.175	-0.07	-0.007564	0.025376	1.011868	-0.861	5.4285	-5.0865	0	74	1028	1
2026-02-11	16:32:05.450	-0.035	-0.175	-0.105	-0.008784	0.02318	1.008696	-0.8715	5.415	-5.094	0	74	1028	1
2026-02-11	16:32:05.470	-0.035	-0.21	-0.105	-0.00976	0.026352	1.009672	-0.876	5.3895	-5.106	0	74	1028	1
2026-02-11	16:32:05.490	-0.105	-0.175	-0.105	-0.006832	0.022204	1.00894	-0.885	5.4	-5.109	0	74	1028	1
2026-02-11	16:32:05.510	-0.07	-0.175	-0.105	-0.007564	0.022692	1.01382	-0.885	5.3955	-5.0985	0	74	1028	1
2026-02-11	16:32:05.530	-0.035	-0.175	-0.105	-0.010004	0.0244	1.012112	-0.885	5.4	-5.103	0	74	1028	1
2026-02-11	16:32:05.550	-0.035	-0.175	-0.07	-0.011224	0.025864	1.0126	-0.8865	5.3985	-5.1045	0	74	1028	1
2026-02-11	16:32:05.570	-0.035	-0.175	-0.07	-0.005612	0.0244	1.01016	-0.885	5.4	-5.1075	0	74	1028	1
2026-02-11	16:32:05.590	-0.07	-0.245	-0.105	-0.009272	0.0244	1.008696	-0.8775	5.3985	-5.106	0	74	1028	1
2026-02-11	16:32:05.610	-0.14	-0.175	-0.105	-0.010492	0.025376	1.013332	-0.8715	5.397	-5.106	0	64	1029	1
2026-02-11	16:32:05.630	-0.07	-0.175	-0.14	-0.011468	0.026352	1.01138	-0.873	5.4015	-5.1075	0	64	1029	1
2026-02-11	16:32:05.650	-0.07	-0.21	-0.105	-0.010492	0.022692	1.009184	-0.8805	5.391	-5.1015	0	64	1029	1
2026-02-11	16:32:05.670	-0.07	-0.21	-0.14	-0.013664	0.024644	1.00894	-0.885	5.397	-5.115	0	64	1029	1
2026-02-11	16:32:05.690	-0.105	-0.21	-0.105	-0.00732	0.0244	1.009916	-0.8745	5.3925	-5.1045	0	64	1029	1
2026-02-11	16:32:05.710	-0.07	-0.175	-0.105	-0.010004	0.0244	1.011624	-0.876	5.3925	-5.109	0	64	1029	1
2026-02-11	16:32:05.730	-0.035	-0.175	-0.07	-0.01342	0.023668	1.012356	-0.876	5.3925	-5.109	0	64	1029	1
2026-02-11	16:32:05.750	-0.07	-0.21	-0.105	-0.012444	0.025376	1.013088	-0.8715	5.3895	-5.079	0	64	1029	1
2026-02-11	16:32:05.770	-0.105	-0.175	-0.105	-0.009516	0.027328	1.013576	-0.8655	5.388	-5.052	0	64	1029	1
2026-02-11	16:32:05.790	-0.07	-0.175	-0.105	-0.00976	0.02074	1.011136	-0.8685	5.388	-5.052	0	64	1029	1
2026-02-11	16:32:05.810	-0.07	-0.175	-0.105	-0.009028	0.025132	1.011136	-0.867	5.3895	-5.052	0	55	1030	1
2026-02-11	16:32:05.830	-0.07	-0.175	-0.07	-0.010004	0.024888	1.010892	-0.8715	5.382	-5.064	0	55	1030	1
2026-02-11	16:32:05.850	-0.07	-0.175	-0.105	-0.015372	0.023912	1.014308	-0.885	5.3745	-5.0745	0	55	1030	1
2026-02-11	16:32:05.870	-0.105	-0.175	-0.105	-0.010004	0.022692	1.021872	-0.885	5.3745	-5.0745	0	55	1030	1
2026-02-11	16:32:05.890	-0.035	-0.21	-0.14	-0.010248	0.026352	1.010892	-0.885	5.3715	-5.0745	0	55	1030	1
2026-02-11	16:32:05.910	-0.105	-0.175	-0.14	-0.0122	0.031476	1.012112	-0.888	5.37	-5.0745	0	55	1030	1
2026-02-11	16:32:05.930	-0.14	-0.175	-0.105	-0.00854	0.022448	1.01504	-0.8685	5.3925	-5.046	0	55	1030	1
2026-02-11	16:32:05.950	0	-0.21	-0.105	-0.007808	0.020496	1.01016	-0.8685	5.391	-5.0505	0	55	1030	1
2026-02-11	16:32:05.970	-0.035	-0.14	-0.105	-0.006344	0.022692	1.013088	-0.867	5.3895	-5.0505	0	55	1030	1
2026-02-11	16:32:05.990	-0.105	-0.175	-0.105	-0.012932	0.020008	1.01748	-0.855	5.3865	-5.046	0	55	1030	1
2026-02-11	16:32:06.010	-0.035	-0.21	-0.105	-0.00244	0.011468	1.007232	-0.855	5.3865	-5.046	0	47	1031	1
2026-02-11	16:32:06.030	-0.105	-0.14	-0.07	-0.012932	0.029036	1.008452	-0.87	5.391	-5.052	0	47	1031	1
2026-02-11	16:32:06.050	-0.07	-0.035	-0.105	-0.019764	0.029524	1.004304	-0.888	5.4	-5.0535	0	47	1031	1
2026-02-11	16:32:06.070	0.105	-0.175	-0.14	-0.005124	0.022692	1.007964	-0.87	5.3955	-5.049	0	47	1031	1
2026-02-11	16:32:06.090	-0.21	-0.105	-0.105	-0.010736	0.022204	1.008452	-0.8715	5.3895	-5.0505	0	47	1031	1
2026-02-11	16:32:06.110	-0.07	-0.175	-0.105	-0.004392	0.024888	1.016992	-0.8565	5.3835	-5.0505	0	47	1031	1
2026-02-11	16:32:06.130	-0.035	-0.245	-0.105	-0.005368	0.019764	1.0126	-0.8655	5.385	-5.0535	0	47	1031	1
2026-02-11	16:32:06.150	-0.07	-0.175	-0.035	-0.009516	0.024888	1.01382	-0.8595	5.391	-5.0445	0	47	1031	1
2026-02-11	16:32:06.170	-0.035	-0.245	-0.07	-0.00732	0.024888	1.00528	-0.8775	5.3955	-5.052	0	47	1031	1
2026-02-11	16:32:06.190	0	-0.245	-0.105	-0.00976	0.026596	1.009672	-0.8685	5.3895	-5.0565	0	47	1031	1
2026-02-11	16:32:06.210	-0.14	-0.28	-0.105	-0.012444	0.022692	1.013332	-0.8655	5.388	-5.0445	0	41	1032	1
2026-02-11	16:32:06.230	-0.105	-0.245	-0.105	-0.011956	0.024644	1.011136	-0.8655	5.3895	-5.0475	0	41	1032	1
2026-02-11	16:32:06.250	-0.21	-0.315	-0.07	-0.00732	0.020252	1.013332	-0.8625	5.391	-5.049	0	41	1032	1
2026-02-11	16:32:06.270	-0.035	-0.175	-0.105	-0.008296	0.02318	1.01138	-0.87	5.3835	-5.049	0	41	1032	1
2026-02-11	16:32:06.290	0	-0.175	-0.14	-0.009516	0.024156	1.007964	-0.87	5.385	-5.055	0	41	1032	1
2026-02-11	16:32:06.310	-0.035	-0.07	-0.14	-0.010004	0.0244	1.014064	-0.876	5.3865	-5.0625	0	41	1032	1
2026-02-11	16:32:06.330	-0.035	-0.105	-0.14	-0.013664	0.020496	1.014064	-0.885	5.3895	-5.073	0	41	1032	1
2026-02-11	16:32:06.350	0	-0.07	-0.175	-0.011956	0.0244	1.010892	-0.8925	5.394	-5.0775	0	41	1032	1
2026-02-11	16:32:06.370	-0.07	-0.175	-0.14	-0.00732	0.024644	1.012356	-0.9	5.385	-5.0835	0	41	1032	1
2026-02-11	16:32:06.390	-0.595	-0.385	-0.14	-0.001708	0.018788	1.009428	-0.909	5.3775	-5.0985	0	41	1032	1
2026-02-11	16:32:06.410	-0.07	-0.105	-0.07	-0.00732	0.022448	1.015284	-0.9075	5.382	-5.094	0	36	1033	1
2026-02-11	16:32:06.430	0.245	0.105	-0.07	-0.014396	0.019764	1.014796	-0.891	5.3865	-5.0745	0	36	1033	1
2026-02-11	16:32:06.450	-0.035	-0.21	-0.07	-0.0061	0.025864	1.009672	-0.882	5.3925	-5.064	0	36	1033	1
2026-02-11	16:32:06.470	-0.105	-0.105	-0.07	-0.014152	0.02562	1.0126	-0.882	5.3925	-5.064	0	36	1033	1
2026-02-11	16:32:06.490	-0.07	-0.21	-0.07	-0.013176	0.024644	1.015528	-0.9	5.3925	-5.067	0	36	1033	1
2026-02-11	16:32:06.510	0.035	-0.245	-0.105	-0.006832	0.021228	1.006988	-0.8955	5.394	-5.0685	0	36	1033	1
2026-02-11	16:32:06.530	-0.035	-0.175	-0.105	-0.009516	0.023912	1.011624	-0.9015	5.397	-5.0685	0	36	1033	1
2026-02-11	16:32:06.550	-0.175	-0.14	-0.105	-0.011712	0.025376	1.011868	-0.894	5.394	-5.0655	0	36	1033	1
2026-02-11	16:32:06.570	-0.105	-0.245	-0.105	-0.008784	0.024888	1.007476	-0.8955	5.3835	-5.091	0	36	1033	1
2026-02-11	16:32:06.590	-0.105	-0.175	-0.105	-0.009272	0.019764	1.011136	-0.9015	5.3805	-5.0895	0	36	1033	1
2026-02-11	16:32:06.610	-0.105	-0.21	-0.105	-0.00976	0.024156	1.014064	-0.906	5.379	-5.0925	0	31	1033	1
2026-02-11	16:32:06.630	-0.07	-0.21	-0.105	-0.00976	0.021716	1.008208	-0.9	5.3865	-5.079	0	31	1033	1
2026-02-11	16:32:06.650	-0.105	-0.21	-0.07	-0.010248	0.020252	1.008208	-0.8955	5.391	-5.064	0	31	1033	1
2026-02-11	16:32:06.670	-0.035	-0.14	-0.07	-0.008052	0.0244	1.012112	-0.891	5.3925	-5.0715	0	31	1033	1
2026-02-11	16:32:06.690	-0.035	-0.175	-0.07	-0.010492	0.022204	1.012112	-0.8955	5.3985	-5.0655	0	31	1033	1
2026-02-11	16:32:06.710	-0.035	-0.21	-0.07	-0.00976	0.024888	1.011136	-0.8925	5.3955	-5.073	0	31	1033	1
2026-02-11	16:32:06.730	-0.105	-0.175	-0.105	-0.008784	0.022204	1.0126	-0.888	5.3865	-5.073	0	31	1033	1
2026-02-11	16:32:06.750	-0.07	-0.14	-0.14	-0.00976	0.023424	1.013332	-0.8925	5.4045	-5.0715	0	31	1033	1
2026-02-11	16:32:06.770	0	-0.21	-0.14	-0.010492	0.02806	1.010892	-0.891	5.3925	-5.0745	0	31	1033	1
2026-02-11	16:32:06.790	-0.07	-0.175	-0.105	-0.00976	0.026596	1.009672	-0.882	5.3955	-5.0715	0	31	1033	1
2026-02-11	16:32:14.810	-0.14	-0.315	-0.035	-0.014884	0.015616	1.01138	-1.563	4.692	-4.98	0	375	909	1
2026-02-11	16:32:14.830	-0.07	-0.28	-0.07	-0.015372	0.014884	1.010648	-1.566	4.695	-4.98	0	375	909	1
2026-02-11	16:32:14.850	-0.07	-0.21	-0.105	-0.014396	0.013908	1.010404	-1.5675	4.695	-4.9785	0	375	909	1
2026-02-11	16:32:14.870	0	-0.28	-0.14	-0.020008	0.011224	1.014796	-1.566	4.695	-4.9815	0	375	909	1
2026-02-11	16:32:14.890	0.49	-0.455	-0.14	-0.016104	0.014884	1.007232	-1.566	4.6965	-4.9875	0	375	909	1
2026-02-11	16:32:14.910	0.84	-0.35	-0.14	-0.016836	0.0122	1.008696	-1.5825	4.7055	-4.986	0	375	909	1
2026-02-11	16:32:14.930	1.015	-0.315	-0.14	-0.011224	0.011468	1.011136	-1.5615	4.728	-4.965	0	375	909	1
2026-02-11	16:32:14.950	0.84	-0.175	-0.28	-0.016592	0.016592	1.00894	-1.56	4.725	-4.962	0	375	909	1
2026-02-11	16:32:14.970	-9.45	1.75	10.395	0.062708	-0.0915	0.800564	-1.5615	4.731	-4.9605	0	375	909	1
2026-02-11	16:32:14.990	5.25	-4.585	85.96	0.00366	-0.100284	0.895968	-1.5855	4.815	-5.001	0	375	909	1
2026-02-11	16:32:15.010	-1.715	-0.07	46.2	-0.020008	0.122976	0.981856	-1.875	5.8545	-5.181	0	338	941	1
2026-02-11	16:32:15.030	0.7	-1.12	5.25	-0.014884	0.001708	1.000888	-1.8885	6.0945	-5.205	0	338	941	1
2026-02-11	16:32:15.050	0	-0.28	0.035	-0.005124	0.003172	1.014796	-1.8945	6.09	-5.2305	0	338	941	1
2026-02-11	16:32:15.070	0.245	-0.945	5.88	-0.026596	-0.005856	0.993812	-1.908	6.087	-5.229	0	338	941	1
2026-02-11	16:32:15.090	-1.47	-0.945	87.045	-0.033428	-0.090036	0.963068	-1.902	6.0885	-5.2335	0	338	941	1
2026-02-11	16:32:15.110	-2.905	-1.925	218.68	-0.0061	0.026596	1.00284	-1.8765	6.2385	-5.2455	0	338	941	1
2026-02-11	16:32:15.130	-6.23	-6.895	220.78	0.027572	0.043676	0.973072	-1.7265	6.9195	-5.28	0	338	941	1
2026-02-11	16:32:15.150	-3.08	-2.205	100.905	0.01708	0.038796	0.989664	-1.413	8.04	-5.2485	0	338	941	1
2026-02-11	16:32:15.170	-1.085	4.165	-19.53	-0.044408	0.060512	1.132892	-1.1565	8.688	-5.2005	0	338	941	1
2026-02-11	16:32:15.190	16.765	1.26	-121.555	-0.043188	-0.08906	0.9943	-1.101	8.76	-5.175	0	338	941	1
2026-02-11	16:32:15.210	2.24	-0.105	-52.185	-0.003904	0.011956	1.028948	-1.2525	8.002501	-5.2365	0	298	961	1
2026-02-11	16:32:15.230	2.87	-1.4	0.035	-0.02684	0.018788	1.020896	-1.3545	7.5525	-5.2575	0	298	961	1
2026-02-11	16:32:15.250	4.27	-1.295	-0.175	-0.013176	0.019032	1.004548	-1.362	7.5405	-5.265	0	298	961	1
2026-02-11	16:32:15.270	1.715	-0.84	-0.07	-0.007076	0.01952	1.000644	-1.3605	7.5405	-5.259	0	298	961	1
2026-02-11	16:32:15.290	1.155	-0.035	-0.105	-0.006588	0.02196	1.011136	-1.3605	7.5435	-5.256	0	298	961	1
2026-02-11	16:32:15.310	1.4	0.07	-0.14	-0.009272	0.022448	1.009916	-1.3635	7.5465	-5.2605	0	298	961	1
2026-02-11	16:32:15.330	1.68	0.42	-0.14	-0.01342	0.025864	1.009916	-1.368	7.542	-5.2545	0	298	961	1
2026-02-11	16:32:15.350	1.225	0.14	-0.175	-0.016592	0.030012	1.010648	-1.368	7.545	-5.2545	0	298	961	1
2026-02-11	16:32:15.370	0.525	0	-0.14	-0.01464	0.0244	1.011624	-1.365	7.551	-5.2575	0	298	961	1
2026-02-11	16:32:15.390	0.035	-0.07	-0.14	-0.010736	0.025864	1.014796	-1.359	7.5465	-5.2545	0	298	961	1
2026-02-11	16:32:15.410	0.035	-0.105	-0.14	-0.012932	0.033672	1.005524	-1.356	7.539	-5.256	0	258	978	1
2026-02-11	16:32:15.430	-1.26	0.245	-0.07	-0.014396	0.019276	1.008208	-1.3575	7.536	-5.2515	0	258	978	1
2026-02-11	16:32:15.450	0	-0.315	-0.14	-0.01098	0.029036	1.012356	-1.3605	7.5375	-5.2485	0	258	978	1
2026-02-11	16:32:15.470	-0.735	-0.105	-0.035	-0.015372	0.021716	1.004792	-1.3665	7.539	-5.259	0	258	978	1
2026-02-11	16:32:15.490	-1.295	0	0.035	-0.010736	0.016836	1.014796	-1.3665	7.548	-5.2665	0	258	978	1
2026-02-11	16:32:15.510	-1.225	-0.035	-0.07	-0.014396	0.014152	1.015284	-1.365	7.536	-5.256	0	258	978	1
2026-02-11	16:32:15.530	0.245	-0.07	-0.105	-0.01586	0.016348	1.013332	-1.362	7.536	-5.2605	0	258	978	1
2026-02-11	16:32:15.550	-0.455	-0.175	0	-0.011712	0.008296	1.008452	-1.356	7.536	-5.2545	0	258	978	1
2026-02-11	16:32:15.570	-0.105	0.14	-0.21	-0.032696	-0.077592	1.014308	-1.3665	7.53	-5.2635	0	258	978	1
2026-02-11	16:32:15.590	-1.575	-0.665	-0.595	-0.032696	-0.181292	1.016748	-1.3545	7.5525	-5.262	0	258	978	1
2026-02-11	16:32:15.610	0.7	-0.175	-3.465	-0.040504	-0.144936	1.015772	-1.3425	7.5585	-5.2515	0	223	991	1
2026-02-11	16:32:15.630	-0.035	-0.385	-5.005	-0.0427	-0.072224	1.00772	-1.341	7.5435	-5.241	0	223	991	1
2026-02-11	16:32:15.650	-1.12	-0.385	-5.705	-0.034892	-0.054412	1.010648	-1.3575	7.539	-5.259	0	223	991	1
2026-02-11	16:32:15.670	-0.7	-0.245	-6.44	-0.029768	-0.004392	1.010404	-1.344	7.5465	-5.247	0	223	991	1
2026-02-11	16:32:15.690	1.12	-0.35	-6.405	-0.013664	0.037576	1.002596	-1.3425	7.5525	-5.247	0	223	991	1
2026-02-11	16:32:15.710	2.975	-0.035	-5.915	-0.008052	0.078568	0.997472	-1.344	7.5615	-5.2395	0	223	991	1
2026-02-11	16:32:15.730	3.71	0.07	-4.795	-0.004148	0.120048	1.026508	-1.3425	7.557	-5.238	0	223	991	1
2026-02-11	16:32:15.750	2.66	0.525	-4.025	0.009272	0.138592	1.021384	-1.341	7.5645	-5.244	0	223	991	1
2026-02-11	16:32:15.770	2.485	0.665	-2.625	0.002196	0.182756	1.002108	-1.3455	7.56	-5.2365	0	223	991	1
2026-02-11	16:32:15.790	2.73	-0.035	0.63	0.01342	0.190808	1.028948	-1.3455	7.569	-5.232	0	223	991	1
2026-02-11	16:32:15.810	0.21	-0.315	3.045	0.02074	0.141032	1.040904	-1.356	7.593	-5.241	0	193	1003	1
2026-02-11	16:32:15.830	-0.875	0.21	0.665	-0.029524	0.012932	1.020408	-1.3545	7.5945	-5.2365	0	193	1003	1
2026-02-11	16:32:15.850	-0.385	-0.56	-0.175	-0.009516	0.025864	1.018212	-1.359	7.5975	-5.2335	0	193	1003	1
2026-02-11	16:32:15.870	-1.575	-0.35	-0.035	-0.011956	0.024644	1.010404	-1.3575	7.6005	-5.2335	0	193	1003	1
2026-02-11	16:32:15.890	-1.155	-0.385	-0.07	-0.01342	0.023668	1.009184	-1.353	7.602	-5.235	0	193	1003	1
2026-02-11	16:32:15.910	-0.63	-0.42	-0.105	-0.010004	0.026108	1.01016	-1.353	7.6035	-5.2395	0	193	1003	1
2026-02-11	16:32:15.930	-0.14	-0.385	-0.07	-0.01342	0.023424	1.004304	-1.3545	7.602	-5.238	0	193	1003	1
2026-02-11	16:32:15.950	0.315	-0.35	-0.07	-0.013664	0.026352	1.014064	-1.356	7.6005	-5.2365	0	193	1003	1
2026-02-11	16:32:15.970	0.56	-0.35	-0.07	-0.0122	0.019764	1.006256	-1.3635	7.596	-5.2485	0	193	1003	1
2026-02-11	16:32:15.990	0.49	-0.28	-0.07	-0.011224	0.02562	1.015528	-1.374	7.5915	-5.259	0	193	1003	1
2026-02-11	16:32:16.010	-0.07	-0.42	-0.105	-0.015616	0.027816	1.014064	-1.374	7.5915	-5.259	0	169	1012	1
2026-02-11	16:32:16.030	-1.015	-0.735	-0.07	-0.014396	0.031232	1.012844	-1.3635	7.578	-5.259	0	169	1012	1
2026-02-11	16:32:16.050	-1.82	-0.91	-0.07	-0.011712	0.029036	1.011868	-1.356	7.6035	-5.2395	0	169	1012	1
2026-02-11	16:32:16.070	-2.345	-1.015	0	-0.013176	0.030988	1.020164	-1.3605	7.6065	-5.238	0	169	1012	1
2026-02-11	16:32:16.090	-3.465	-1.4	0.105	-0.014884	0.021228	1.00528	-1.362	7.608	-5.238	0	169	1012	1
2026-02-11	16:32:16.110	-2.345	-1.26	0	-0.00488	0.016104	0.99674	-1.368	7.6005	-5.25	0	169	1012	1
2026-02-11	16:32:16.130	-1.68	-0.735	0.035	-0.0061	0.015616	1.015528	-1.383	7.5975	-5.2635	0	169	1012	1
2026-02-11	16:32:16.150	-0.14	-0.21	-0.105	-0.008296	0.023668	1.014064	-1.383	7.599	-5.262	0	169	1012	1
2026-02-11	16:32:16.170	-0.455	-0.175	-0.07	-0.009272	0.028548	0.995764	-1.38	7.5975	-5.2575	0	169	1012	1
2026-02-11	16:32:16.190	-2.66	0.49	0.175	-0.0122	0.016104	1.013332	-1.38	7.5975	-5.2575	0	169	1012	1
2026-02-11	16:32:16.210	-1.82	0.175	0.21	-0.011956	0.019276	1.027972	-1.377	7.5795	-5.268	0	149	1018	1
2026-02-11	16:32:16.230	0.175	-0.525	-0.07	-0.010248	0.01708	1.00406	-1.3785	7.581	-5.253	0	149	1018	1
2026-02-11	16:32:16.250	0.035	-0.42	-0.105	-0.01342	0.022448	1.018212	-1.3695	7.5795	-5.2605	0	149	1018	1
2026-02-11	16:32:16.270	-0.49	-0.63	-0.175	-0.010492	0.024888	1.009916	-1.368	7.5765	-5.2545	0	149	1018	1
2026-02-11	16:32:16.290	-0.91	-0.56	-0.14	-0.008296	0.02074	1.010648	-1.362	7.5735	-5.2425	0	149	1018	1
2026-02-11	16:32:16.310	-1.365	-0.35	-0.175	-0.010736	0.023668	1.003572	-1.3575	7.6065	-5.241	0	149	1018	1
2026-02-11	16:32:16.330	-1.75	-0.175	-0.105	-0.011224	0.02074	1.006988	-1.362	7.602	-5.2425	0	149	1018	1
2026-02-11	16:32:16.350	-1.505	0.21	-0.07	-0.010248	0.011956	1.010892	-1.359	7.6005	-5.238	0	149	1018	1
2026-02-11	16:32:16.370	-0.805	0.315	-0.14	-0.012444	0.015616	1.00528	-1.356	7.605	-5.2395	0	149	1018	1
2026-02-11	16:32:16.390	0.42	-0.035	-0.035	-0.012444	0.02074	1.029436	-1.356	7.608	-5.2395	0	149	1018	1
2026-02-11	16:32:16.410	0.63	-0.455	-0.105	-0.00732	0.021228	1.006256	-1.3575	7.608	-5.2365	0	132	1023	1
2026-02-11	16:32:16.430	-0.245	-0.14	0	-0.013908	0.021472	1.025044	-1.3605	7.605	-5.238	0	132	1023	1
2026-02-11	16:32:16.450	-0.525	-0.595	0	-0.018056	0.008296	1.008696	-1.3635	7.6005	-5.241	0	132	1023	1
2026-02-11	16:32:16.470	-5.74	-0.315	0.21	0.082228	-0.194956	1.229272	-1.3635	7.602	-5.244	0	132	1023	1
2026-02-11	16:32:16.490	-6.615	4.34	-55.23	0.068808	0.131272	1.139236	-1.41	7.7625	-5.238	0	132	1023	1
2026-02-11	16:32:16.510	-1.89	4.935	-195.09	0.13298	-0.049288	0.80276	-1.533	7.659	-5.223	0	132	1023	1
2026-02-11	16:32:16.530	-1.575	8.68	-350.735	0.077348	0.239608	1.049932	-1.755	6.861	-5.184	0	132	1023	1
2026-02-11	16:32:16.550	-1.785	-0.98	-266.175	-0.179828	-0.05612	1.147532	-1.9005	6.327	-5.1525	0	132	1023	1
2026-02-11	16:32:16.570	1.645	1.68	-127.365	-0.096624	0.024644	1.149728	-2.0655	5.5125	-5.061	0	132	1023	1
2026-02-11	16:32:16.590	2.24	1.4	-74.305	-0.038796	0.010736	1.029436	-2.283	4.641	-4.956	0	132	1023	1
2026-02-11	16:32:16.610	4.375	0.805	-60.13	0.011224	-0.029768	0.892796	-2.3475	4.5075	-4.9275	0	119	1029	1
2026-02-11	16:32:16.630	-3.57	0.035	-40.74	-0.08418	0.014152	1.077504	-2.3565	4.386	-4.8855	0	119	1029	1
2026-02-11	16:32:16.650	-1.785	-0.245	-12.215	-0.016348	0.012444	0.99552	-2.361	4.3155	-4.854	0	119	1029	1
2026-02-11	16:32:16.670	-2.135	0.14	-20.475	0.010004	-0.031232	1.022604	-2.3745	4.278	-4.854	0	119	1029	1
2026-02-11	16:32:16.690	-2.065	-0.525	-42.315	-0.00122	-0.06588	0.995032	-2.4015	4.263	-4.857	0	119	1029	1
2026-02-11	16:32:16.710	0.735	-0.595	-28.42	0.025132	-0.03538	1.055788	-2.517	4.3545	-4.8765	0	119	1029	1
2026-02-11	16:32:16.730	-1.19	0	-4.9	-0.097112	-0.051484	0.931592	-2.6115	4.452	-4.9005	0	119	1029	1
2026-02-11	16:32:16.750	-0.77	-0.105	-2.17	-0.02684	0.024888	1.020896	-3.3105	5.4135	-4.9515	0	119	1029	1
2026-02-11	16:32:16.770	-1.12	0.07	0	-0.014396	-0.001464	1.019676	-3.4215	5.5695	-4.9665	0	119	1029	1
2026-02-11	16:32:16.790	0.175	0	-0.105	-0.021228	0.00732	0.992348	-3.426	5.5905	-4.968	0	119	1029	1
2026-02-11	16:32:16.810	0.35	1.015	-1.05	-0.00854	-0.006588	0.996252	-3.417	5.5755	-4.9575	0	110	1034	1
2026-02-11	16:32:16.830	4.9	-1.05	-9.415	0.050752	-0.015616	1.088728	-3.417	5.589	-4.953	0	110	1034	1
2026-02-11	16:32:16.850	1.085	0.49	-21.035	0.081984	0.07905599	1.050176	-3.4785	5.643	-4.971	0	110	1034	1
2026-02-11	16:32:16.870	-0.315	0.875	-40.95	-0.081984	-0.029036	0.915976	-3.741	5.976	-4.947	0	110	1034	1
2026-02-11	16:32:16.890	2.625	-1.295	-24.71	-0.056608	-0.010004	0.923052	-3.975	6.252	-4.8765	0	110	1034	1
2026-02-11	16:32:16.910	-2.87	0.875	-14.805	0.110044	0.017812	0.919148	-4.146	6.4545	-4.818	0	110	1034	1
2026-02-11	16:32:16.930	-0.455	-0.84	-38.185	0.293288	-0.285724	-0.025376	-4.392	6.81	-4.6965	0	110	1034	1
2026-02-11	16:32:16.950	-2.345	5.88	-87.045	0.45628	-0.128832	0.6771	-4.989	7.7055	-4.26	0	110	1034	1
2026-02-11	16:32:16.970	1.75	3.675	-133.875	0.297924	0.26596	2.12646	-5.7465	9.1635	-3.0915	0	110	1034	1
2026-02-11	16:32:16.990	-2.135	-10.22	-188.3	0.113948	0.04026	1.6043	-5.8515	11.1525	-0.7005	0	110	1034	1
2026-02-11	16:32:17.010	1.96	4.935	-232.12	0.182024	-0.210084	0.17446	-3.2295	12.4155	1.701	0	110	1030	1
2026-02-11	16:32:17.030	2.205	15.47	-266.105	-0.089548	-0.343552	0.567544	1.248	10.809	1.284	0	110	1030	1
2026-02-11	16:32:17.050	1.75	2.555	-255.395	-0.09857599	0.21838	2.924584	3.5685	6.948	-1.116	0	110	1030	1
2026-02-11	16:32:17.070	2.415	4.13	-235.62	-0.474336	-1.020164	-0.530456	3.732	4.881	-2.2335	0	110	1030	1
2026-02-11	16:32:17.090	-12.565	-21.98	-213.85	-0.130052	-0.69052	0.192516	2.9835	2.5785	-3.0135	0	110	1030	1
2026-02-11	16:32:17.110	13.58	28.805	-214.69	0.039284	-0.353556	0.840092	2.4915	1.8705	-3.135	0	110	1030	1
2026-02-11	16:32:17.130	-0.63	1.715	-118.055	0.06588	-0.142984	0.890356	1.8975	1.104	-3.1965	0	110	1030	1
2026-02-11	16:32:17.150	0.945	1.435	-21.175	-0.049532	0.016836	1.014064	1.7595	1.0365	-3.1125	0	110	1030	1
2026-02-11	16:32:17.170	0	0.175	-0.105	-0.0122	-0.002196	1.013332	1.7175	1.0335	-3.087	0	110	1030	1
2026-02-11	16:32:17.190	0.21	0.385	-0.14	-0.020496	-0.000488	1.014308	1.71	1.0365	-3.084	0	110	1030	1
2026-02-11	16:32:17.210	0.21	0.21	-0.105	-0.019764	0.000976	1.007232	1.7145	1.0365	-3.0825	0	131	1014	1
2026-02-11	16:32:17.230	0.07	-0.28	-0.07	-0.02196	0.003904	1.01138	1.7205	1.035	-3.084	0	131	1014	1
2026-02-11	16:32:17.250	-0.07	-0.49	-0.07	-0.017568	-0.002196	1.011868	1.722	1.035	-3.0825	0	131	1014	1
2026-02-11	16:32:17.270	0.035	-0.35	-0.07	-0.020008	-0.001952	1.00772	1.725	1.0335	-3.0825	0	131	1014	1
2026-02-11	16:32:17.290	0.07	-0.21	-0.07	-0.020008	-0.001464	1.013332	1.725	1.032	-3.084	0	131	1014	1
2026-02-11	16:32:17.310	-0.035	-0.21	-0.035	-0.02196	0.004392	1.011624	1.725	1.035	-3.084	0	131	1014	1
2026-02-11	16:32:17.330	-0.07	-0.14	-0.035	-0.014152	-0.000244	1.008208	1.734	1.0335	-3.087	0	131	1014	1
2026-02-11	16:32:17.350	0	0.14	-0.105	-0.018544	-0.000976	1.008452	1.731	1.0335	-3.087	0	131	1014	1
2026-02-11	16:32:17.370	0	0.28	-0.14	-0.02074	-0.000244	1.013088	1.7295	1.0395	-3.0765	0	131	1014	1
2026-02-11	16:32:17.390	-0.035	0.21	-0.14	-0.01952	-0.001464	1.014552	1.734	1.0335	-3.0825	0	131	1014	1
2026-02-11	16:32:17.410	-0.035	0.035	-0.105	-0.018056	-0.000488	1.009916	1.7265	1.0425	-3.081	0	160	1002	1
2026-02-11	16:32:17.430	-0.035	-0.175	-0.105	-0.024888	0.002928	1.007232	1.7295	1.035	-3.0795	0	160	1002	1
2026-02-11	16:32:17.450	-0.175	-0.49	-0.105	-0.021716	-0.002928	1.01382	1.728	1.035	-3.075	0	160	1002	1
2026-02-11	16:32:17.470	-0.07	-0.49	-0.105	-0.0183	0.000976	1.011624	1.728	1.035	-3.075	0	160	1002	1
2026-02-11	16:32:17.490	-0.105	-0.35	-0.07	-0.021228	-0.001708	1.011136	1.728	1.032	-3.075	0	160	1002	1
2026-02-11	16:32:17.510	-0.105	-0.245	-0.105	-0.014884	-0.001708	1.010404	1.7205	1.032	-3.075	0	160	1002	1
2026-02-11	16:32:17.530	-0.07	-0.035	-0.105	-0.020008	-0.000732	1.011136	1.713	1.0305	-3.075	0	160	1002	1
2026-02-11	16:32:17.550	-0.14	0.105	-0.105	-0.018788	0	1.011136	1.713	1.029	-3.0765	0	160	1002	1
2026-02-11	16:32:17.570	-0.105	0.14	-0.105	-0.019276	-0.003172	1.0126	1.704	1.0365	-3.078	0	160	1002	1
2026-02-11	16:32:17.590	-0.07	0.035	-0.105	-0.022692	-0.002196	1.013576	1.704	1.032	-3.0765	0	160	1002	1
2026-02-11	16:32:17.610	0	-0.105	-0.07	-0.017812	-0.000488	1.002352	1.7115	1.0425	-3.081	0	184	1001	1
2026-02-11	16:32:17.630	-0.105	-0.28	-0.14	-0.022692	0	1.015528	1.707	1.035	-3.0765	0	184	1001	1
2026-02-11	16:32:17.650	-0.105	-0.49	-0.105	-0.018056	-0.000244	1.014308	1.707	1.035	-3.0765	0	184	1001	1
2026-02-11	16:32:17.670	-0.14	-0.455	-0.105	-0.020008	-0.001708	1.009916	1.707	1.0365	-3.0765	0	184	1001	1
2026-02-11	16:32:17.690	-0.14	-0.385	-0.105	-0.022448	-0.00122	1.009672	1.707	1.035	-3.078	0	184	1001	1
2026-02-11	16:32:17.710	-0.105	-0.28	-0.07	-0.020252	-0.001952	1.00406	1.707	1.038	-3.078	0	184	1001	1
2026-02-11	16:32:17.730	-0.175	-0.105	-0.105	-0.019032	-0.000488	1.011868	1.7085	1.0395	-3.0765	0	184	1001	1
2026-02-11	16:32:17.750	-0.175	-0.035	-0.105	-0.0183	-0.000976	1.012356	1.7115	1.0365	-3.0735	0	184	1001	1
2026-02-11	16:32:17.770	-0.105	0.07	-0.07	-0.019276	0.001708	1.010648	1.7145	1.0365	-3.072	0	184	1001	1
2026-02-11	16:32:17.790	-0.07	0	-0.105	-0.016836	-0.002684	1.013088	1.7145	1.038	-3.075	0	184	1001	1
2026-02-11	16:32:17.810	-0.14	-0.245	-0.07	-0.020496	0.000488	1.009428	1.7145	1.038	-3.078	0	197	1007	1
2026-02-11	16:32:17.830	-0.14	-0.385	-0.105	-0.018788	-0.002684	1.009672	1.7175	1.035	-3.0795	0	197	1007	1
2026-02-11	16:32:17.850	-0.105	-0.385	-0.105	-0.019764	-0.000976	1.011624	1.71	1.032	-3.078	0	197	1007	1
2026-02-11	16:32:17.870	-0.14	-0.455	-0.07	-0.015128	-0.004392	1.0065	1.7085	1.0335	-3.075	0	197	1007	1
2026-02-11	16:32:17.890	-0.14	-0.245	-0.14	-0.019276	-0.001708	1.011868	1.704	1.035	-3.075	0	197	1007	1
2026-02-11	16:32:17.910	0	-0.175	-0.105	-0.018788	0.001952	1.0065	1.7175	1.0365	-3.081	0	197	1007	1
2026-02-11	16:32:17.930	-0.07	-0.035	-0.07	-0.019276	-0.002196	1.012356	1.7235	1.032	-3.0765	0	197	1007	1
2026-02-11	16:32:17.950	-0.035	0	-0.105	-0.019032	-0.001708	1.016748	1.719	1.038	-3.081	0	197	1007	1
2026-02-11	16:32:17.970	-0.07	-0.14	-0.105	-0.017568	0.001464	1.00406	1.7295	1.0425	-3.0825	0	197	1007	1
2026-02-11	16:32:17.990	-0.105	0.21	-0.105	-0.019764	-0.002928	1.012112	1.7175	1.038	-3.0795	0	197	1007	1
2026-02-11	16:32:18.010	-0.105	0.035	-0.07	-0.020496	-0.001464	1.008696	1.7085	1.035	-3.078	0	197	1015	1
2026-02-11	16:32:18.030	-0.175	-0.28	-0.105	-0.019276	-0.00122	1.013576	1.7145	1.035	-3.0795	0	197	1015	1
2026-02-11	16:32:18.050	-0.105	-0.385	-0.105	-0.016836	0.002196	1.012844	1.7205	1.035	-3.081	0	197	1015	1
2026-02-11	16:32:18.070	-0.035	-0.315	-0.105	-0.016836	0.000488	1.01016	1.7295	1.029	-3.078	0	197	1015	1
2026-02-11	16:32:18.090	-0.035	-0.21	-0.105	-0.022204	-0.00244	1.008696	1.683	1.0335	-3.0705	0	197	1015	1
2026-02-11	16:32:18.110	-0.035	-0.175	-0.07	-0.022692	-0.001464	1.009916	1.7085	1.0395	-3.072	0	197	1015	1
2026-02-11	16:32:18.130	0	-0.14	-0.07	-0.022204	-0.000488	1.008452	1.7055	1.032	-3.075	0	197	1015	1
2026-02-11	16:32:18.150	-0.07	-0.07	-0.07	-0.018056	-0.003416	1.01504	1.7025	1.0395	-3.0735	0	197	1015	1
2026-02-11	16:32:18.170	0	-0.105	-0.105	-0.017812	-0.001708	1.013332	1.7085	1.035	-3.0735	0	197	1015	1
2026-02-11	16:32:18.190	0	-0.07	-0.105	-0.021716	-0.001952	1.010404	1.707	1.038	-3.0735	0	197	1015	1
2026-02-11	16:32:18.210	-0.07	-0.245	-0.105	-0.019276	0.000244	1.0065	1.707	1.038	-3.075	0	188	1020	1
2026-02-11	16:32:18.230	-0.105	-0.28	-0.14	-0.0183	-0.001708	1.012356	1.71	1.0365	-3.078	0	188	1020	1
2026-02-11	16:32:18.250	-0.105	-0.28	-0.07	-0.018788	-0.004148	1.010648	1.713	1.038	-3.0795	0	188	1020	1
2026-02-11	16:32:18.270	-0.07	-0.28	-0.105	-0.018544	0.000488	1.010892	1.7145	1.038	-3.081	0	188	1020	1
2026-02-11	16:32:18.290	-0.07	-0.245	-0.105	-0.019764	0.001464	1.008696	1.7145	1.032	-3.0795	0	188	1020	1
2026-02-11	16:32:18.310	-0.07	-0.105	-0.105	-0.02074	-0.002928	1.006988	1.716	1.032	-3.0765	0	188	1020	1
2026-02-11	16:32:18.330	-0.105	-0.07	-0.105	-0.018056	-0.001708	1.009916	1.722	1.0335	-3.078	0	188	1020	1
2026-02-11	16:32:18.350	-0.07	-0.035	-0.105	-0.017812	-0.003172	1.01138	1.7235	1.0335	-3.0795	0	188	1020	1
2026-02-11	16:32:18.370	-0.07	-0.07	-0.07	-0.020008	-0.001464	1.010892	1.713	1.0335	-3.081	0	188	1020	1
2026-02-11	16:32:18.390	-0.07	-0.14	-0.105	-0.022448	-0.000976	1.012112	1.704	1.032	-3.081	0	188	1020	1
2026-02-11	16:32:18.410	-0.105	-0.245	-0.105	-0.02074	-0.001708	1.01626	1.707	1.0365	-3.084	0	171	1024	1
2026-02-11	16:32:18.430	-0.07	-0.315	-0.14	-0.020496	-0.003416	1.014064	1.722	1.0365	-3.0795	0	171	1024	1
2026-02-11	16:32:18.450	-0.105	-0.56	-0.105	-0.019764	0.002196	1.010892	1.725	1.032	-3.078	0	171	1024	1
2026-02-11	16:32:18.470	-0.21	-0.35	-0.14	-0.020008	0.000732	1.010648	1.716	1.0335	-3.0795	0	171	1024	1
2026-02-11	16:32:18.490	-0.14	0	-0.07	-0.021472	-0.001952	1.01382	1.7235	1.0365	-3.078	0	171	1024	1
2026-02-11	16:32:18.510	-0.035	-0.035	-0.07	-0.0183	-0.000488	1.009184	1.728	1.0365	-3.0795	0	171	1024	1
2026-02-11	16:32:18.530	-0.035	-0.07	-0.07	-0.018788	-0.000732	1.007964	1.737	1.041	-3.0795	0	171	1024	1
2026-02-11	16:32:18.550	-0.07	-0.035	-0.105	-0.022692	0.001708	1.01016	1.734	1.044	-3.0855	0	171	1024	1
2026-02-11	16:32:18.570	0	-0.07	-0.035	-0.020496	0.000488	1.011624	1.734	1.044	-3.0855	0	171	1024	1
2026-02-11	16:32:18.590	0	0	-0.035	-0.022204	0.000488	1.009672	1.7325	1.0395	-3.084	0	171	1024	1
2026-02-11	16:32:18.610	0	-0.175	-0.07	-0.018788	-0.001708	1.012112	1.701	1.0335	-3.069	0	151	1027	1
2026-02-11	16:32:18.630	0	-0.315	-0.07	-0.024888	0	1.016748	1.713	1.041	-3.0735	0	151	1027	1
2026-02-11	16:32:18.650	0	-0.49	-0.105	-0.02074	0.000976	1.00894	1.7055	1.035	-3.0705	0	151	1027	1
2026-02-11	16:32:18.670	-0.07	-0.385	-0.105	-0.018544	0	1.006744	1.7025	1.029	-3.0705	0	151	1027	1
2026-02-11	16:32:18.690	-0.14	-0.21	-0.105	-0.020252	-0.00122	1.013332	1.7085	1.038	-3.0825	0	151	1027	1
2026-02-11	16:32:18.710	-0.14	-0.105	-0.14	-0.020984	-0.002196	1.008208	1.704	1.038	-3.0765	0	151	1027	1
2026-02-11	16:32:18.730	-0.07	0	-0.105	-0.02196	-0.001464	1.012844	1.71	1.0485	-3.075	0	151	1027	1
2026-02-11	16:32:18.750	-0.105	0.035	-0.105	-0.021228	-0.000976	1.01382	1.701	1.0365	-3.078	0	151	1027	1
2026-02-11	16:32:18.770	-0.105	-0.07	-0.14	-0.023668	-0.000976	1.013332	1.701	1.0365	-3.078	0	151	1027	1
2026-02-11	16:32:18.790	-0.105	-0.21	-0.105	-0.01952	-0.004392	1.010892	1.707	1.0365	-3.0765	0	151	1027	1
2026-02-11	16:32:18.810	-0.07	-0.28	-0.07	-0.018544	-0.000488	1.010892	1.7115	1.0365	-3.075	0	131	1029	1
2026-02-11	16:32:18.830	-0.07	-0.385	-0.105	-0.020252	-0.00244	1.013576	1.713	1.038	-3.081	0	131	1029	1
2026-02-11	16:32:18.850	-0.14	-0.595	-0.105	-0.014884	0.002684	1.004304	1.7175	1.041	-3.0825	0	131	1029	1
2026-02-11	16:32:18.870	-0.175	-0.105	-0.07	-0.019764	-0.002684	1.01748	1.7205	1.041	-3.0795	0	131	1029	1
2026-02-11	16:32:18.890	-0.105	-0.14	-0.07	-0.02074	0.000732	1.010648	1.719	1.0425	-3.0765	0	131	1029	1
2026-02-11	16:32:18.910	-0.035	-0.105	-0.07	-0.018788	-0.00122	1.01016	1.713	1.0395	-3.0795	0	131	1029	1
2026-02-11	16:32:18.930	-0.07	-0.07	-0.07	-0.01952	-0.001708	1.013332	1.7115	1.0335	-3.087	0	131	1029	1
2026-02-11	16:32:18.950	-0.07	-0.035	-0.105	-0.019276	-0.000976	1.010648	1.7115	1.0335	-3.087	0	131	1029	1
2026-02-11	16:32:18.970	-0.07	0	-0.07	-0.022204	-0.002196	1.012112	1.725	1.0365	-3.0795	0	131	1029	1
2026-02-11	16:32:18.990	-0.035	-0.035	-0.14	-0.022448	-0.000244	1.01016	1.7145	1.0365	-3.0765	0	131	1029	1
2026-02-11	16:32:19.010	-0.07	-0.21	-0.105	-0.022448	0.000732	1.010892	1.728	1.0395	-3.072	0	111	1030	1
2026-02-11	16:32:19.030	-0.035	-0.315	-0.14	-0.018788	-0.00122	1.010404	1.71	1.038	-3.078	0	111	1030	1
2026-02-11	16:32:19.050	-0.035	-0.385	-0.105	-0.023424	-0.002196	1.012112	1.7115	1.047	-3.0765	0	111	1030	1
2026-02-11	16:32:19.070	-0.07	-0.315	-0.105	-0.022448	0.000732	1.012112	1.7175	1.0455	-3.078	0	111	1030	1
2026-02-11	16:32:19.090	-0.07	-0.28	-0.105	-0.019276	-0.000732	1.01016	1.7205	1.0365	-3.081	0	111	1030	1
2026-02-11	16:32:19.110	-0.07	-0.175	-0.105	-0.020252	-0.000488	1.009672	1.7175	1.0275	-3.081	0	111	1030	1
2026-02-11	16:32:19.130	0	-0.035	-0.105	-0.02318	-0.001952	1.008696	1.7175	1.0275	-3.081	0	111	1030	1
2026-02-11	16:32:19.150	-0.035	-0.035	-0.105	-0.02074	0.001464	1.006012	1.7325	1.0365	-3.0855	0	111	1030	1
2026-02-11	16:32:19.170	-0.035	-0.105	-0.105	-0.014396	-0.004392	1.013576	1.7025	1.0305	-3.0795	0	111	1030	1
2026-02-11	16:32:19.190	-0.105	-0.175	-0.105	-0.020008	-0.002928	1.013332	1.7115	1.038	-3.0825	0	111	1030	1
2026-02-11	16:32:19.210	-0.035	-0.14	-0.105	-0.020008	-0.001952	1.012844	1.7055	1.0395	-3.078	0	93	1031	1
2026-02-11	16:32:19.230	-0.035	-0.245	-0.105	-0.020008	0.000488	1.006988	1.7085	1.044	-3.0705	0	93	1031	1
2026-02-11	16:32:19.250	-0.14	-0.35	-0.105	-0.020008	-0.000244	1.011868	1.704	1.035	-3.078	0	93	1031	1
2026-02-11	16:32:19.270	-0.105	-0.35	-0.14	-0.024156	-0.000976	1.0126	1.71	1.0455	-3.0765	0	93	1031	1
2026-02-11	16:32:19.290	-0.035	-0.28	-0.105	-0.019032	-0.000732	1.008208	1.7055	1.0365	-3.0795	0	93	1031	1
2026-02-11	16:32:19.310	-0.07	-0.07	-0.07	-0.02196	0.000732	1.011136	1.7085	1.0335	-3.0795	0	93	1031	1
2026-02-11	16:32:19.330	-0.035	-0.035	-0.105	-0.0183	0.002684	1.009916	1.713	1.038	-3.078	0	93	1031	1
2026-02-11	16:32:19.350	-0.035	-0.07	-0.105	-0.024156	0.004148	1.01138	1.71	1.044	-3.078	0	93	1031	1
2026-02-11	16:32:19.370	-0.07	-0.14	-0.14	-0.018788	0.002684	1.011136	1.7115	1.0425	-3.081	0	93	1031	1
2026-02-11	16:32:19.390	-0.07	-0.14	-0.07	-0.01708	0.000976	1.012844	1.7175	1.0395	-3.081	0	93	1031	1
2026-02-11	16:32:19.410	0	-0.14	-0.07	-0.020496	-0.003904	1.01382	1.7175	1.0335	-3.081	0	78	1032	1
2026-02-11	16:32:19.430	0	-0.315	-0.07	-0.020008	0.000732	1.008452	1.716	1.0365	-3.0795	0	78	1032	1
2026-02-11	16:32:19.450	0	-0.21	-0.105	-0.020008	0.003172	1.009428	1.7175	1.0395	-3.0765	0	78	1032	1
2026-02-11	16:32:19.470	0	-0.175	-0.105	-0.019032	-0.000732	1.011868	1.716	1.035	-3.078	0	78	1032	1
2026-02-11	16:32:19.490	0.035	0	-0.07	-0.016348	-0.001708	1.011868	1.713	1.0335	-3.081	0	78	1032	1
2026-02-11	16:32:19.510	0.105	0.07	-0.105	-0.01464	-0.001708	1.006256	1.719	1.032	-3.0765	0	78	1032	1
2026-02-11	16:32:19.530	0	0.455	-0.14	-0.05368	0.013664	1.013576	1.716	1.0365	-3.078	0	78	1032	1
2026-02-11	16:32:19.550	-0.105	0.28	-0.07	-0.01586	-0.001708	1.0126	1.7205	1.0365	-3.0795	0	78	1032	1
2026-02-11	16:32:19.570	0.035	0.245	-0.105	-0.033916	-0.002684	1.026508	1.719	1.035	-3.0795	0	78	1032	1
2026-02-11	16:32:19.590	-0.035	0	-0.07	-0.023668	-0.005612	1.0126	1.722	1.0335	-3.081	0	78	1032	1
2026-02-11	16:32:19.610	-0.035	-0.07	-0.07	-0.02806	-0.000732	1.014064	1.734	1.0365	-3.0795	0	66	1032	1
2026-02-11	16:32:19.630	0	-0.28	-0.07	-0.020984	0	1.01626	1.7325	1.038	-3.078	0	66	1032	1
2026-02-11	16:32:19.650	0.14	-0.49	-0.07	-0.024644	0.002196	1.014308	1.7265	1.035	-3.0825	0	66	1032	1
2026-02-11	16:32:19.670	0.07	-0.315	-0.07	-0.01098	-0.00244	1.020652	1.7235	1.0335	-3.084	0	66	1032	1
2026-02-11	16:32:19.690	0.105	-0.665	-0.105	-0.024644	0.002196	1.015284	1.7325	1.038	-3.0765	0	66	1032	1
2026-02-11	16:32:19.710	0.07	-0.945	-0.105	-0.0183	-0.002196	1.003328	1.731	1.038	-3.078	0	66	1032	1
2026-02-11	16:32:19.730	-0.035	-0.21	-0.07	-0.0183	-0.00122	1.009916	1.7325	1.0365	-3.0765	0	66	1032	1
2026-02-11	16:32:19.750	-0.105	-0.035	-0.07	-0.019276	-0.001952	1.008696	1.728	1.038	-3.0765	0	66	1032	1
2026-02-11	16:32:19.770	-0.105	0	-0.07	-0.024888	0.001464	1.011136	1.7205	1.0395	-3.0825	0	66	1032	1
2026-02-11	16:32:19.790	-0.14	0	-0.035	-0.016836	0.000244	1.012112	1.7145	1.038	-3.0735	0	66	1032	1
2026-02-11	16:32:19.810	-0.07	0.105	-0.035	-0.025376	0.001952	1.012844	1.7175	1.0395	-3.0765	0	56	1033	1
2026-02-11	16:32:19.830	-0.035	0.175	-0.07	-0.023424	-0.000732	1.009916	1.725	1.029	-3.066	0	56	1033	1
2026-02-11	16:32:19.850	-0.07	-0.07	-0.07	-0.029524	0.009028	1.008696	1.7115	1.0455	-3.075	0	56	1033	1
2026-02-11	16:32:19.870	-0.105	-0.035	-0.105	-0.014884	-0.004392	1.0187	1.71	1.041	-3.0735	0	56	1033	1
2026-02-11	16:32:19.890	0.07	0.035	-0.14	-0.019276	-0.001952	1.011624	1.7115	1.035	-3.075	0	56	1033	1
2026-02-11	16:32:19.910	0.07	0.315	-0.14	-0.023424	-0.00244	1.006744	1.713	1.0365	-3.081	0	56	1033	1
2026-02-11	16:32:19.930	0	0.315	-0.14	-0.02196	-0.004636	1.013576	1.7175	1.0395	-3.0825	0	56	1033	1
2026-02-11	16:32:19.950	-0.035	0.595	-0.14	-0.025864	0.002684	1.01138	1.7175	1.041	-3.0765	0	56	1033	1
2026-02-11	16:32:19.970	-0.035	0.665	-0.105	-0.020496	0.002684	1.001132	1.707	1.023	-3.087	0	56	1033	1
2026-02-11	16:32:19.990	-0.035	1.015	-0.105	-0.020984	0.007564	1.01382	1.7055	1.032	-3.0825	0	56	1033	1
2026-02-11	16:32:20.010	-0.14	1.12	-0.14	-0.025864	0.0061	1.018212	1.7115	1.059	-3.066	0	48	1034	1
2026-02-11	16:32:20.030	-0.175	1.295	-0.14	-0.0244	0.000732	1.01504	1.7115	1.059	-3.066	0	48	1034	1
2026-02-11	16:32:20.050	-0.14	1.225	-0.14	-0.022204	-0.000244	1.01992	1.713	1.0605	-3.063	0	48	1034	1
2026-02-11	16:32:20.070	-0.14	1.12	-0.035	-0.023912	0.003904	1.01138	1.71	1.0455	-3.069	0	48	1034	1
2026-02-11	16:32:20.090	-0.175	1.05	-0.035	-0.02928	-0.00122	1.019676	1.713	1.029	-3.081	0	48	1034	1
2026-02-11	16:32:20.110	-0.105	-0.175	-0.14	-0.026108	0.002928	1.003084	1.7235	1.044	-3.0765	0	48	1034	1
2026-02-11	16:32:20.130	-0.315	-0.91	-0.14	-0.022692	0.000244	1.01016	1.722	1.0395	-3.0795	0	48	1034	1
2026-02-11	16:32:20.150	-0.315	-1.19	-0.21	-0.026596	-0.00244	1.007964	1.7265	1.0335	-3.087	0	48	1034	1
2026-02-11	16:32:20.170	-0.245	-1.33	-0.245	-0.022692	0	1.007476	1.731	1.0485	-3.0795	0	48	1034	1
2026-02-11	16:32:20.190	-0.28	-1.33	-0.175	-0.0244	-0.006832	0.968192	1.7175	1.035	-3.0765	0	48	1034	1
2026-02-11	16:32:20.210	-0.245	-1.47	-0.105	-0.027328	-0.003904	0.968192	1.71	1.0305	-3.075	0	41	1033	1
2026-02-11	16:32:20.230	-0.245	-0.875	-0.07	-0.020984	0	0.972584	1.713	1.0455	-3.072	0	41	1033	1
2026-02-11	16:32:20.250	-0.175	-0.175	-0.035	-0.024156	-0.000976	0.98576	1.71	1.0185	-3.0825	0	41	1033	1
2026-02-11	16:32:20.270	-0.14	-0.63	-0.07	-0.023668	0.00122	0.9882	1.7205	1.041	-3.0765	0	41	1033	1
2026-02-11	16:32:20.290	-0.28	-0.735	-0.105	-0.021472	0.004148	1.006012	1.7175	1.0155	-3.084	0	41	1033	1
2026-02-11	16:32:20.310	-0.245	-0.77	-0.14	-0.018544	0.002684	1.013088	1.7235	1.032	-3.0825	0	41	1033	1
2026-02-11	16:32:20.330	-0.245	-0.56	-0.105	-0.021228	0.004148	1.012112	1.737	1.0335	-3.0705	0	41	1033	1
2026-02-11	16:32:20.350	-0.175	-0.56	-0.14	-0.016592	0.005124	1.02236	1.722	1.0275	-3.084	0	41	1033	1
2026-02-11	16:32:20.370	-0.21	-0.665	-0.14	-0.020252	0.000976	1.028216	1.7355	1.044	-3.0765	0	41	1033	1
2026-02-11	16:32:20.390	-0.175	-0.805	-0.07	-0.01952	0.000244	1.028704	1.692	1.038	-3.075	0	41	1033	1
2026-02-11	16:32:20.410	-0.14	-0.77	-0.105	-0.02196	0	1.025288	1.692	1.038	-3.075	0	36	1032	1
2026-02-11	16:32:20.430	-0.14	-0.595	-0.105	-0.017812	-0.00122	1.02602	1.698	1.0365	-3.0795	0	36	1032	1
2026-02-11	16:32:20.450	-0.14	-0.42	-0.105	-0.017568	-0.00244	1.021628	1.707	1.041	-3.081	0	36	1032	1
2026-02-11	16:32:20.470	-0.175	-0.28	-0.105	-0.023424	0.000488	1.024556	1.7115	1.041	-3.072	0	36	1032	1
2026-02-11	16:32:20.490	-0.175	-0.175	-0.105	-0.02074	-0.004392	1.017968	1.707	1.029	-3.0765	0	36	1032	1
2026-02-11	16:32:20.510	-0.105	-0.14	-0.105	-0.02074	-0.000244	1.016016	1.7055	1.029	-3.0765	0	36	1032	1
2026-02-11	16:32:20.530	-0.07	-0.105	-0.105	-0.02196	-0.00488	1.012356	1.71	1.0365	-3.069	0	36	1032	1
2026-02-11	16:32:20.550	-0.035	-0.245	-0.105	-0.02562	-0.00366	1.006988	1.7085	1.026	-3.0765	0	36	1032	1
2026-02-11	16:32:20.570	-0.105	-0.35	-0.105	-0.021716	-0.00244	1.014308	1.713	1.0245	-3.072	0	36	1032	1
2026-02-11	16:32:20.590	-0.07	-0.455	-0.14	-0.02074	-0.006344	1.007964	1.713	1.0245	-3.072	0	36	1032	1
2026-02-11	16:32:20.610	-0.105	-0.455	-0.105	-0.022692	-0.002684	1.01138	1.71	1.032	-3.0735	0	32	1032	1
2026-02-11	16:32:20.630	-0.14	-0.455	-0.14	-0.019764	-0.005368	1.004548	1.707	1.0425	-3.075	0	32	1032	1
2026-02-11	16:32:20.650	-0.105	-0.28	-0.105	-0.021228	-0.004148	1.00772	1.7115	1.0395	-3.0795	0	32	1032	1
2026-02-11	16:32:20.670	-0.07	-0.175	-0.105	-0.021228	-0.001464	1.009916	1.7175	1.038	-3.081	0	32	1032	1
2026-02-11	16:32:20.690	-0.07	-0.07	-0.105	-0.022204	-0.001464	1.013576	1.719	1.038	-3.081	0	32	1032	1
2026-02-11	16:32:20.710	-0.07	-0.07	-0.105	-0.02196	-0.002928	1.011868	1.713	1.032	-3.078	0	32	1032	1
2026-02-11	16:32:20.730	-0.07	-0.07	-0.105	-0.019276	0.001464	1.01138	1.7085	1.035	-3.0765	0	32	1032	1
2026-02-11	16:32:20.750	-0.035	-0.14	-0.07	-0.02074	0.001952	1.011624	1.7115	1.0395	-3.078	0	32	1032	1
2026-02-11	16:32:20.770	-0.07	-0.315	-0.105	-0.021472	-0.000732	1.014308	1.716	1.041	-3.0765	0	32	1032	1
2026-02-11	16:32:20.790	-0.07	-0.525	-0.14	-0.021228	0.00244	1.01382	1.716	1.041	-3.0765	0	32	1032	1
2026-02-11	16:32:20.810	-0.105	-0.525	-0.14	-0.018788	-0.000976	1.010892	1.728	1.0395	-3.081	0	29	1033	1
2026-02-11	16:32:20.830	-0.07	-0.385	-0.14	-0.01952	-0.000244	1.0126	1.728	1.0305	-3.072	0	29	1033	1
2026-02-11	16:32:20.850	-0.07	-0.245	-0.14	-0.016836	-0.000488	1.011868	1.7295	1.0365	-3.078	0	29	1033	1
2026-02-11	16:32:20.870	-0.07	-0.175	-0.105	-0.019032	-0.000976	1.011868	1.731	1.038	-3.0855	0	29	1033	1
2026-02-11	16:32:20.890	-0.105	-0.07	-0.07	-0.020496	-0.001464	1.014064	1.7295	1.029	-3.084	0	29	1033	1
2026-02-11	16:32:20.910	-0.035	-0.035	-0.105	-0.02318	-0.001464	1.01382	1.725	1.041	-3.081	0	29	1033	1
2026-02-11	16:32:20.930	-0.035	-0.105	-0.07	-0.020252	-0.00122	1.011136	1.7355	1.0365	-3.0735	0	29	1033	1
2026-02-11	16:32:20.950	-0.07	-0.14	-0.07	-0.019032	-0.000976	1.012356	1.725	1.041	-3.0705	0	29	1033	1
2026-02-11	16:32:20.970	-0.105	-0.315	-0.105	-0.022936	-0.001464	1.012112	1.716	1.0395	-3.072	0	29	1033	1
2026-02-11	16:32:20.990	-0.175	-0.35	-0.14	-0.018056	-0.00488	1.014796	1.7055	1.038	-3.075	0	29	1033	1
2026-02-11	16:32:21.010	-0.035	-0.245	-0.175	-0.019764	-0.001464	1.0004	1.704	1.038	-3.078	0	26	1033	1
2026-02-11	16:32:21.030	-0.07	-0.175	-0.105	-0.021472	-0.004636	1.017236	1.7175	1.0425	-3.072	0	26	1033	1
2026-02-11	16:32:21.050	-0.14	-0.385	-0.105	-0.018788	-0.004148	1.010404	1.707	1.038	-3.069	0	26	1033	1
2026-02-11	16:32:21.070	0	-0.105	-0.07	-0.019764	-0.000488	1.00772	1.71	1.0335	-3.0765	0	26	1033	1
2026-02-11	16:32:21.090	-0.105	-0.105	-0.105	-0.021716	-0.002684	1.011136	1.7145	1.0365	-3.0825	0	26	1033	1
2026-02-11	16:32:21.110	-0.07	-0.105	-0.14	-0.018788	-0.001952	1.00772	1.707	1.0335	-3.0735	0	26	1033	1
2026-02-11	16:32:21.130	-0.105	-0.105	-0.105	-0.02318	0.000732	1.013576	1.704	1.041	-3.078	0	26	1033	1
2026-02-11	16:32:21.150	-0.07	-0.245	-0.105	-0.015128	-0.005612	1.012844	1.7055	1.0395	-3.078	0	26	1033	1
2026-02-11	16:32:21.170	-0.07	-0.245	-0.105	-0.027328	-0.002196	1.009184	1.704	1.0395	-3.078	0	26	1033	1
2026-02-11	16:32:21.190	-0.105	-0.28	-0.14	-0.01952	-0.001708	1.016504	1.7115	1.0365	-3.0765	0	26	1033	1
2026-02-11	16:32:21.210	-0.035	-0.315	-0.07	-0.015372	0.000732	1.008452	1.7205	1.0335	-3.075	0	24	1034	1
2026-02-11	16:32:21.230	-0.07	-0.14	-0.07	-0.019032	-0.000244	1.007964	1.7205	1.038	-3.078	0	24	1034	1
2026-02-11	16:32:21.250	-0.105	-0.175	-0.105	-0.020252	-0.000732	1.011136	1.722	1.038	-3.084	0	24	1034	1
2026-02-11	16:32:21.270	-0.105	-0.175	-0.14	-0.01708	-0.003172	1.01138	1.713	1.038	-3.0765	0	24	1034	1
2026-02-11	16:32:21.290	-0.07	-0.105	-0.105	-0.023424	0.000976	1.0065	1.7055	1.0395	-3.0735	0	24	1034	1
2026-02-11	16:32:21.310	-0.21	-0.105	-0.07	-0.018788	-0.001952	1.013088	1.7055	1.0395	-3.078	0	24	1034	1
2026-02-11	16:32:21.330	-0.245	-0.07	-0.07	-0.022692	0.00244	1.013088	1.7025	1.041	-3.0765	0	24	1034	1
2026-02-11	16:32:21.350	-0.105	-0.14	-0.105	-0.018056	0.000488	1.010892	1.731	1.0335	-3.075	0	24	1034	1
2026-02-11	16:32:21.370	-0.21	-0.385	-0.14	-0.0244	-0.002684	1.012844	1.7175	1.035	-3.0765	0	24	1034	1
2026-02-11	16:32:21.390	-0.21	-0.455	-0.105	-0.019764	0.000488	1.008696	1.7205	1.038	-3.0765	0	24	1034	1
2026-02-11	16:32:21.410	-0.28	-0.455	-0.14	-0.018544	-0.000488	0.975268	1.7385	1.029	-3.075	0	21	1034	1
2026-02-11	16:32:21.430	-0.28	-0.14	-0.07	-0.019032	-0.000244	1.012844	1.7325	1.038	-3.081	0	21	1034	1
2026-02-11	16:32:21.450	-0.105	-0.14	-0.07	-0.023424	-0.00488	1.01504	1.731	1.0395	-3.0795	0	21	1034	1
2026-02-11	16:32:21.470	0.105	-0.105	-0.105	-0.023668	-0.00122	1.018944	1.7295	1.029	-3.0795	0	21	1034	1
2026-02-11	16:32:21.490	0.35	-0.175	-0.07	-0.020008	-0.004636	1.039196	1.722	1.038	-3.0825	0	21	1034	1
2026-02-11	16:32:21.510	0.14	-0.455	-0.105	-0.017812	-0.000732	1.001864	1.7265	1.041	-3.0765	0	21	1034	1
2026-02-11	16:32:21.530	-0.21	-0.35	-0.14	-0.018056	-0.002928	1.0065	1.731	1.0365	-3.069	0	21	1034	1
2026-02-11	16:32:21.550	-0.21	0	-0.14	-0.023912	-0.001464	1.015772	1.7115	1.035	-3.0705	0	21	1034	1
2026-02-11	16:32:21.570	-0.105	-0.035	-0.105	-0.0244	-0.002196	1.011624	1.7025	1.0335	-3.0705	0	21	1034	1
2026-02-11	16:32:21.590	-0.035	-0.175	-0.07	-0.022936	-0.002196	1.012844	1.7055	1.0275	-3.0735	0	21	1034	1
2026-02-11	16:32:21.610	-0.07	-0.21	-0.105	-0.020252	-0.00488	1.010648	1.707	1.0395	-3.0705	0	19	1034	1
2026-02-11	16:32:21.630	0	-0.14	-0.07	-0.01952	-0.001952	1.009916	1.7085	1.0335	-3.0765	0	19	1034	1
2026-02-11	16:32:21.650	-0.07	-0.875	-0.07	-0.027816	0.005368	1.001376	1.7025	1.0395	-3.072	0	19	1034	1
2026-02-11	16:32:21.670	-0.14	-0.56	-0.175	-0.013664	-0.00244	0.997228	1.701	1.041	-3.075	0	19	1034	1
2026-02-11	16:32:21.690	-0.14	0.245	-0.07	-0.02196	-0.000488	1.014308	1.701	1.041	-3.075	0	19	1034	1
2026-02-11	16:32:21.710	0	-0.14	-0.07	-0.01708	0.000488	1.010404	1.7055	1.038	-3.078	0	19	1034	1
2026-02-11	16:32:21.730	-0.105	-0.385	-0.105	-0.02196	-0.001952	1.008452	1.7085	1.032	-3.0765	0	19	1034	1
2026-02-11	16:32:21.750	-0.035	-0.455	-0.105	-0.01708	-0.00244	1.01016	1.707	1.0335	-3.072	0	19	1034	1
2026-02-11	16:32:21.770	-0.07	-0.35	-0.07	-0.01708	0.000488	1.009428	1.707	1.0335	-3.0765	0	19	1034	1
2026-02-11	16:32:21.790	-0.035	-0.105	-0.035	-0.020252	0	1.011624	1.716	1.029	-3.0795	0	19	1034	1
2026-02-11	16:32:21.810	-0.035	-0.035	-0.07	-0.018788	0.001708	1.011136	1.7265	1.0335	-3.075	0	17	1033	1
2026-02-11	16:32:21.830	-0.035	-0.035	-0.105	-0.021716	-0.001708	1.0126	1.719	1.0395	-3.072	0	17	1033	1
2026-02-11	16:32:21.850	-0.07	-0.105	-0.14	-0.021716	-0.001708	1.01016	1.71	1.0425	-3.0735	0	17	1033	1
2026-02-11	16:32:21.870	-0.07	-0.21	-0.105	-0.022936	-0.000488	1.009672	1.7085	1.047	-3.075	0	17	1033	1
2026-02-11	16:32:21.890	-0.07	-0.245	-0.105	-0.020984	0.000732	1.010648	1.7205	1.0395	-3.075	0	17	1033	1
2026-02-11	16:32:21.910	-0.07	-0.28	-0.105	-0.020496	-0.001708	1.012356	1.722	1.0365	-3.072	0	17	1033	1
2026-02-11	16:32:21.930	-0.07	-0.35	-0.07	-0.017324	-0.001464	1.009184	1.725	1.0395	-3.0765	0	17	1033	1
2026-02-11	16:32:21.950	-0.07	-0.28	-0.105	-0.0183	-0.001952	1.013332	1.7295	1.0305	-3.078	0	17	1033	1
2026-02-11	16:32:21.970	-0.035	-0.245	-0.105	-0.019276	-0.004636	1.010648	1.7265	1.0365	-3.0735	0	17	1033	1
2026-02-11	16:32:21.990	-0.07	-0.21	-0.105	-0.02074	0.000732	1.010648	1.725	1.0395	-3.081	0	17	1033	1
2026-02-11	16:32:22.010	-0.07	-0.035	-0.105	-0.02074	-0.001708	1.0126	1.7295	1.0365	-3.0795	0	15	1033	1
2026-02-11	16:32:22.030	-0.105	-0.035	-0.07	-0.023668	0.000976	1.012356	1.7295	1.0365	-3.0765	0	15	1033	1
2026-02-11	16:32:22.050	-0.07	-0.07	-0.07	-0.022936	-0.002196	1.011136	1.7265	1.0335	-3.0795	0	15	1033	1
2026-02-11	16:32:22.070	-0.105	-0.175	-0.105	-0.02074	0.00122	1.015284	1.728	1.029	-3.0855	0	15	1033	1
2026-02-11	16:32:22.090	-0.105	-0.245	-0.105	-0.019032	-0.000976	1.011136	1.725	1.035	-3.0795	0	15	1033	1
2026-02-11	16:32:22.110	-0.07	-0.245	-0.105	-0.022692	0.000732	1.013088	1.677	1.041	-3.075	0	15	1033	1
2026-02-11	16:32:22.130	-0.07	-0.28	-0.105	-0.023668	-0.002196	1.009916	1.71	1.0425	-3.0795	0	15	1033	1
2026-02-11	16:32:22.150	-0.035	-0.28	-0.105	-0.02074	0.000488	1.006012	1.7115	1.038	-3.081	0	15	1033	1
2026-02-11	16:32:22.170	-0.14	-0.28	-0.105	-0.021228	-0.00244	1.013576	1.7115	1.044	-3.075	0	15	1033	1
2026-02-11	16:32:22.190	-0.21	-0.245	-0.105	-0.015616	-0.000976	1.008452	1.7085	1.0425	-3.072	0	15	1033	1
2026-02-11	16:32:22.210	-0.21	-0.105	-0.105	-0.013908	0.000488	1.01016	1.7175	1.035	-3.0765	0	14	1033	1
2026-02-11	16:32:22.230	-0.21	-0.105	-0.07	-0.018056	-0.003172	1.003572	1.707	1.041	-3.0765	0	14	1033	1
2026-02-11	16:32:22.250	-0.105	-0.14	-0.07	-0.022204	-0.000732	1.007964	1.7055	1.0395	-3.0765	0	14	1033	1
2026-02-11	16:32:22.270	0.035	-0.105	-0.07	-0.019764	-0.003416	1.008208	1.704	1.0365	-3.0765	0	14	1033	1
2026-02-11	16:32:22.290	0.07	-0.49	-0.105	-0.02562	-0.003416	1.032852	1.707	1.0395	-3.075	0	14	1033	1
2026-02-11	16:32:22.310	0.14	-0.525	-0.105	-0.014884	-0.000732	1.014796	1.713	1.0395	-3.0765	0	14	1033	1
2026-02-11	16:32:22.330	0.105	-0.56	-0.14	-0.021472	0.001708	1.007476	1.716	1.032	-3.0765	0	14	1033	1
2026-02-11	16:32:22.350	-0.105	-0.735	-0.14	-0.017568	0.001464	1.007232	1.7145	1.029	-3.075	0	14	1033	1
2026-02-11	16:32:22.370	-0.14	-0.385	-0.14	-0.019276	-0.001464	1.007476	1.716	1.032	-3.075	0	14	1033	1
2026-02-11	16:32:22.390	-0.07	0	-0.07	-0.022448	-0.001952	1.008208	1.713	1.038	-3.075	0	14	1033	1
2026-02-11	16:32:22.410	-0.07	0	-0.07	-0.021472	-0.000488	1.014064	1.71	1.0365	-3.0765	0	12	1033	1
2026-02-11	16:32:22.430	-0.035	0	-0.07	-0.019276	0.00122	1.010404	1.716	1.0365	-3.078	0	12	1033	1
2026-02-11	16:32:22.450	-0.07	0.105	-0.07	-0.020008	-0.000976	1.010892	1.7205	1.0365	-3.072	0	12	1033	1
2026-02-11	16:32:22.470	-0.07	-0.035	-0.07	-0.020008	-0.001952	1.011868	1.7265	1.0365	-3.081	0	12	1033	1
2026-02-11	16:32:22.490	-0.035	-0.175	-0.07	-0.018544	-0.001708	1.011624	1.719	1.035	-3.0825	0	12	1033	1
2026-02-11	16:32:22.510	-0.105	-0.245	-0.105	-0.019764	-0.003416	1.011136	1.719	1.0365	-3.0855	0	12	1033	1
2026-02-11	16:32:22.530	-0.07	-0.42	-0.105	-0.019032	0.000976	1.008452	1.728	1.044	-3.0825	0	12	1033	1
2026-02-11	16:32:22.550	-0.105	-0.42	-0.105	-0.016348	-0.002684	1.013088	1.7325	1.0455	-3.0795	0	12	1033	1
2026-02-11	16:32:22.570	-0.07	-0.42	-0.07	-0.016348	-0.004392	1.0126	1.734	1.041	-3.081	0	12	1033	1
2026-02-11	16:32:22.590	-0.07	-0.245	-0.105	-0.017568	-0.00366	1.010648	1.728	1.035	-3.0825	0	12	1033	1
2026-02-11	16:32:22.610	-0.035	-0.28	-0.105	-0.019276	0	1.006256	1.728	1.0305	-3.0855	0	11	1033	1
2026-02-11	16:32:22.630	-0.14	0.07	-0.105	-0.017812	-0.001952	1.012844	1.7265	1.0305	-3.075	0	11	1033	1
2026-02-11	16:32:22.650	-0.07	0.35	-0.07	-0.019032	-0.002196	1.015284	1.7295	1.0365	-3.0795	0	11	1033	1
2026-02-11	16:32:22.670	-0.07	-0.035	-0.07	-0.017812	-0.000244	1.0065	1.731	1.032	-3.075	0	11	1033	1
2026-02-11	16:32:22.690	-0.175	-0.105	-0.07	-0.021228	-0.001464	1.01504	1.7355	1.041	-3.0765	0	11	1033	1
2026-02-11	16:32:22.710	-0.14	-0.21	-0.105	-0.02196	-0.002684	1.012356	1.737	1.035	-3.0705	0	11	1033	1
2026-02-11	16:32:22.730	0	-0.385	-0.105	-0.019032	-0.000732	1.009184	1.7295	1.0455	-3.0795	0	11	1033	1
2026-02-11	16:32:22.750	-0.07	-0.42	-0.105	-0.01952	-0.002196	1.010892	1.7265	1.0395	-3.078	0	11	1033	1
2026-02-11	16:32:22.770	-0.105	-0.56	-0.105	-0.019032	-0.005612	1.01016	1.7325	1.035	-3.075	0	11	1033	1
2026-02-11	16:32:22.790	-0.07	-0.21	-0.105	-0.020252	-0.00244	1.00894	1.737	1.0425	-3.075	0	11	1033	1
2026-02-11	16:32:22.810	-0.07	-0.07	-0.105	-0.016348	-0.003416	1.01382	1.7355	1.0395	-3.075	0	10	1033	1
2026-02-11	16:32:22.830	-0.035	-0.07	-0.105	-0.02074	-0.000488	1.011136	1.7175	1.0365	-3.0735	0	10	1033	1
2026-02-11	16:32:22.850	-0.07	0	-0.07	-0.020252	0	1.01138	1.704	1.035	-3.072	0	10	1033	1
2026-02-11	16:32:22.870	-0.105	0.07	-0.105	-0.018788	-0.000244	1.01138	1.7055	1.0365	-3.078	0	10	1033	1
2026-02-11	16:32:22.890	-0.14	-0.035	-0.105	-0.020008	-0.001952	1.010892	1.704	1.0365	-3.081	0	10	1033	1
2026-02-11	16:32:22.910	-0.175	-0.21	-0.105	-0.020496	-0.004148	1.011624	1.7085	1.038	-3.078	0	10	1033	1
2026-02-11	16:32:22.930	-0.14	-0.42	-0.14	-0.01952	0.001708	1.011868	1.7085	1.038	-3.078	0	10	1033	1
2026-02-11	16:32:22.950	-0.14	-0.455	-0.14	-0.021228	-0.001708	1.013332	1.7055	1.0365	-3.078	0	10	1033	1
2026-02-11	16:32:22.970	-0.035	-0.595	-0.14	-0.019032	-0.001708	1.010892	1.707	1.041	-3.0765	0	10	1033	1
2026-02-11	16:32:22.990	0	-0.35	-0.07	-0.02074	-0.004148	1.01504	1.707	1.0365	-3.075	0	10	1033	1
2026-02-11	16:32:23.010	0.07	-0.315	-0.14	-0.020252	0.00366	1.00528	1.704	1.0365	-3.081	0	9	1034	1
2026-02-11	16:32:23.030	-0.105	-0.35	-0.14	-0.016836	-0.000732	1.00772	1.7055	1.0365	-3.084	0	9	1034	1
2026-02-11	16:32:23.050	-0.14	-0.035	-0.105	-0.016592	-0.00122	1.011868	1.7085	1.0365	-3.078	0	9	1034	1
2026-02-11	16:32:23.070	-0.07	0.175	-0.035	-0.019032	-0.003416	1.011624	1.7085	1.0395	-3.0735	0	9	1034	1
2026-02-11	16:32:23.090	-0.035	0.14	0	-0.018056	-0.000244	1.009184	1.7055	1.041	-3.072	0	9	1034	1
2026-02-11	16:32:23.110	-0.07	0.07	0	-0.020252	0.001708	1.01382	1.704	1.038	-3.075	0	9	1034	1
2026-02-11	16:32:23.130	0	-0.175	-0.035	-0.022692	0.000244	1.021384	1.707	1.0365	-3.078	0	9	1034	1
2026-02-11	16:32:23.150	-0.21	-0.665	-0.07	-0.01342	-0.001708	1.00406	1.707	1.0395	-3.078	0	9	1034	1
2026-02-11	16:32:23.170	-0.21	0.21	-0.07	-0.02196	-0.00366	1.020896	1.7205	1.035	-3.0765	0	9	1034	1
2026-02-11	16:32:23.190	-0.035	-0.21	-0.105	-0.027328	0	1.01138	1.725	1.0425	-3.0795	0	9	1034	1
2026-02-11	16:32:23.210	-0.105	-0.525	-0.175	-0.017812	-0.002196	1.011136	1.7055	1.0395	-3.078	0	8	1034	1
2026-02-11	16:32:23.230	-0.105	-0.665	-0.21	-0.0183	0.000488	1.00894	1.7085	1.038	-3.081	0	8	1034	1
2026-02-11	16:32:23.250	-0.21	-0.49	-0.21	-0.019032	-0.002196	1.014796	1.7115	1.041	-3.075	0	8	1034	1
2026-02-11	16:32:23.270	-0.175	-0.315	-0.175	-0.0183	-0.006344	1.012844	1.7175	1.0305	-3.075	0	8	1034	1
2026-02-11	16:32:23.290	-0.035	-0.28	-0.105	-0.020984	0.000488	1.012112	1.722	1.0395	-3.0795	0	8	1034	1
2026-02-11	16:32:23.310	0.035	-0.385	-0.07	-0.024888	0.00244	1.006256	1.725	1.0335	-3.084	0	8	1034	1
2026-02-11	16:32:23.330	-0.105	-0.315	-0.07	-0.018544	-0.002684	1.006744	1.7295	1.0335	-3.0765	0	8	1034	1
2026-02-11	16:32:23.350	-0.105	0.035	-0.035	-0.018056	-0.002684	1.01016	1.731	1.0365	-3.0735	0	8	1034	1
2026-02-11	16:32:23.370	-0.14	0	-0.07	-0.020008	-0.000732	1.016504	1.734	1.038	-3.075	0	8	1034	1
2026-02-11	16:32:23.390	0	-0.21	-0.07	-0.021472	-0.002196	1.0126	1.734	1.032	-3.0795	0	8	1034	1
2026-02-11	16:32:23.410	-0.035	-0.735	-0.07	-0.020496	0.002684	1.01748	1.7295	1.0365	-3.075	0	8	1034	1
2026-02-11	16:32:23.430	-0.21	-0.21	-0.105	-0.011956	-0.002928	1.00772	1.7235	1.0395	-3.0735	0	8	1034	1
2026-02-11	16:32:23.450	-0.245	0.175	-0.07	-0.01952	0.001464	1.014064	1.725	1.035	-3.078	0	8	1034	1
2026-02-11	16:32:23.470	-0.035	0.14	-0.14	-0.01952	-0.000976	1.01138	1.728	1.0365	-3.078	0	8	1034	1
2026-02-11	16:32:23.490	-0.105	-0.21	-0.105	-0.017812	-0.000488	1.00894	1.719	1.038	-3.075	0	8	1034	1
2026-02-11	16:32:23.510	-0.175	-0.455	-0.14	-0.020008	0.000732	1.008696	1.716	1.0425	-3.084	0	8	1034	1
2026-02-11	16:32:23.530	-0.14	-0.105	-0.07	-0.0183	-0.002684	1.012356	1.716	1.0425	-3.084	0	8	1034	1
2026-02-11	16:32:23.550	-0.035	-0.14	-0.07	-0.019032	-0.002684	1.010892	1.7085	1.0425	-3.0825	0	8	1034	1
2026-02-11	16:32:23.570	-0.07	-0.175	-0.07	-0.019276	-0.002196	1.012844	1.707	1.0395	-3.0795	0	8	1034	1
2026-02-11	16:32:23.590	-0.105	-0.245	-0.105	-0.018056	-0.000244	1.011136	1.713	1.038	-3.0795	0	8	1034	1
2026-02-11	16:32:23.610	-0.175	-0.28	-0.105	-0.017324	-0.000488	1.00894	1.7085	1.038	-3.078	0	7	1034	1
2026-02-11	16:32:23.630	-0.175	-0.315	-0.105	-0.019032	-0.00366	1.010404	1.7025	1.035	-3.075	0	7	1034	1
2026-02-11	16:32:23.650	-0.175	-0.315	-0.105	-0.018056	-0.000732	1.0126	1.704	1.035	-3.0765	0	7	1034	1
2026-02-11	16:32:23.670	-0.105	-0.245	-0.105	-0.019032	-0.000976	1.010648	1.71	1.0365	-3.0765	0	7	1034	1
2026-02-11	16:32:23.690	-0.035	-0.245	-0.105	-0.017324	0.000976	1.008452	1.71	1.038	-3.081	0	7	1034	1
2026-02-11	16:32:23.710	-0.105	-0.28	-0.07	-0.021472	-0.000732	1.013332	1.707	1.0395	-3.0855	0	7	1034	1
2026-02-11	16:32:23.730	-0.105	-0.28	-0.105	-0.01952	0.000732	1.012356	1.719	1.0395	-3.0795	0	7	1034	1
2026-02-11	16:32:23.750	-0.105	-0.245	-0.07	-0.018544	0.00122	1.010404	1.731	1.041	-3.0855	0	7	1034	1
2026-02-11	16:32:23.770	-0.14	-0.21	-0.105	-0.01708	0	1.012112	1.7115	1.0335	-3.078	0	7	1034	1
2026-02-11	16:32:23.790	-0.175	-0.35	-0.105	-0.017324	-0.000488	1.013088	1.7085	1.038	-3.081	0	7	1034	1
2026-02-11	16:32:23.810	-0.315	-0.455	-0.105	-0.018544	-0.002196	1.009672	1.7355	1.038	-3.0765	0	6	1034	1
2026-02-11	16:32:23.830	-0.385	-0.42	-0.105	-0.019276	0.000488	1.012112	1.704	1.038	-3.087	0	6	1034	1
2026-02-11	16:32:23.850	-0.385	-0.455	-0.105	-0.016836	-0.016348	1.009428	1.716	1.035	-3.078	0	6	1034	1
2026-02-11	16:32:23.870	-0.35	-0.525	-0.105	-0.017324	-0.001952	1.010648	1.713	1.0395	-3.072	0	6	1034	1
2026-02-11	16:32:23.890	0	-0.35	-0.07	-0.021716	-0.000732	1.015284	1.716	1.0335	-3.0765	0	6	1034	1
2026-02-11	16:32:23.910	0.07	-0.56	-0.07	-0.02318	0.007076	1.000644	1.7175	1.0335	-3.0765	0	6	1034	1
2026-02-11	16:32:23.930	0.105	-0.14	-0.105	-0.01586	-0.005368	1.018456	1.7205	1.032	-3.078	0	6	1034	1
2026-02-11	16:32:23.950	0	-0.7	-0.14	-0.022204	-0.000488	1.00772	1.7205	1.032	-3.0795	0	6	1034	1
2026-02-11	16:32:23.970	-0.175	-0.595	-0.14	-0.01952	0.00244	1.009184	1.731	1.035	-3.075	0	6	1034	1
2026-02-11	16:32:23.990	-0.175	0	-0.14	-0.013664	-0.005612	1.014796	1.7115	1.035	-3.078	0	6	1034	1
2026-02-11	16:32:24.010	-0.035	0.105	-0.07	-0.016836	-0.004392	1.011868	1.7115	1.035	-3.078	0	6	1034	1
2026-02-11	16:32:24.030	0	0.21	-0.035	-0.013664	-0.000732	1.011624	1.7235	1.0305	-3.084	0	6	1034	1
2026-02-11	16:32:24.050	-0.07	0.245	-0.035	-0.01952	-0.002684	1.010648	1.725	1.032	-3.0825	0	6	1034	1
2026-02-11	16:32:24.070	-0.035	0.7	-0.07	-0.01708	-0.002196	1.01016	1.7175	1.0365	-3.0765	0	6	1034	1
2026-02-11	16:32:24.090	0	1.155	-0.14	-0.014884	-0.003904	1.009672	1.7085	1.0365	-3.075	0	6	1034	1
2026-02-11	16:32:24.110	0.07	1.575	-0.14	-0.02318	-0.00122	1.011868	1.7025	1.0365	-3.072	0	6	1034	1
2026-02-11	16:32:24.130	0.07	1.715	-0.14	-0.022448	-0.000976	1.014064	1.7025	1.0335	-3.0735	0	6	1034	1
2026-02-11	16:32:24.150	0.315	1.925	-0.105	-0.025864	-0.003172	1.022604	1.7025	1.0335	-3.075	0	6	1034	1
2026-02-11	16:32:24.170	0.525	1.61	-0.105	-0.020008	-0.001464	1.0126	1.704	1.038	-3.0765	0	6	1034	1
2026-02-11	16:32:24.190	0.77	1.96	0.07	-0.006832	0	1.020652	1.7115	1.0395	-3.078	0	6	1034	1
2026-02-11	16:32:24.210	0.805	2.695	0.175	-0.033428	0.00366	1.024312	1.7115	1.0395	-3.0765	0	6	1034	1
2026-02-11	16:32:24.230	0.875	2.345	-0.07	-0.02074	-0.000488	1.005524	1.707	1.0395	-3.078	0	6	1034	1
2026-02-11	16:32:24.250	0.42	1.575	-0.07	-0.027816	-0.001952	1.013576	1.7085	1.041	-3.0765	0	6	1034	1
2026-02-11	16:32:24.270	0.105	0.525	-0.105	-0.028304	-0.002684	1.010892	1.7085	1.041	-3.0765	0	6	1034	1
2026-02-11	16:32:24.290	0	0.245	-0.105	-0.024888	-0.002684	1.012112	1.716	1.035	-3.075	0	6	1034	1
2026-02-11	16:32:24.310	0	0	-0.105	-0.024888	0.000244	1.012844	1.713	1.035	-3.0765	0	6	1034	1
2026-02-11	16:32:24.330	-0.035	-0.14	-0.07	-0.026108	0.000244	1.012356	1.7175	1.035	-3.0795	0	6	1034	1
2026-02-11	16:32:24.350	-0.035	-0.245	-0.07	-0.026352	-0.000976	1.008452	1.7295	1.0365	-3.0795	0	6	1034	1
2026-02-11	16:32:24.370	-0.07	-0.42	-0.105	-0.033184	0.002684	1.006744	1.737	1.0365	-3.087	0	6	1034	1
2026-02-11	16:32:24.390	-0.21	-1.085	-0.14	-0.019276	0	1.01016	1.734	1.0425	-3.0765	0	6	1034	1
2026-02-11	16:32:24.410	-0.14	-0.595	-0.105	-0.02684	0.00244	1.015772	1.7175	1.0395	-3.0735	0	6	1034	1
2026-02-11	16:32:24.430	-0.105	-0.315	-0.105	-0.019276	-0.000488	1.007964	1.7115	1.0365	-3.075	0	6	1034	1
2026-02-11	16:32:24.450	0	-0.105	-0.07	-0.024888	0	1.010648	1.707	1.0335	-3.0765	0	6	1034	1
2026-02-11	16:32:24.470	-0.035	-0.105	-0.07	-0.02318	-0.002196	1.012112	1.719	1.0335	-3.0735	0	6	1034	1
2026-02-11	16:32:24.490	-0.07	-0.42	-0.105	-0.028548	0.000976	1.012356	1.7055	1.0395	-3.075	0	6	1034	1
2026-02-11	16:32:24.510	-0.07	-0.805	-0.105	-0.024888	-0.003416	1.010404	1.7115	1.032	-3.078	0	6	1034	1
2026-02-11	16:32:24.530	-0.07	-0.945	-0.105	-0.023668	-0.000244	1.017236	1.71	1.047	-3.078	0	6	1034	1
2026-02-11	16:32:24.550	-0.14	-0.98	-0.14	-0.02196	-0.000488	1.006012	1.7205	1.0335	-3.081	0	6	1034	1
2026-02-11	16:32:24.570	-0.42	-1.505	-0.14	-0.028548	-0.000488	1.008452	1.713	1.0335	-3.0705	0	6	1034	1
2026-02-11	16:32:24.590	-0.98	-2.485	-0.14	-0.0183	-0.000976	1.002352	1.7145	1.0335	-3.078	0	6	1034	1
2026-02-11	16:32:24.610	-0.7	-1.96	-0.175	-0.022692	-0.005124	1.021872	1.71	1.035	-3.081	0	6	1035	1
2026-02-11	16:32:24.630	-0.315	-0.945	-0.105	-0.02684	-0.000732	1.007232	1.71	1.035	-3.081	0	6	1035	1
2026-02-11	16:32:24.650	-0.28	-0.42	-0.07	-0.018788	-0.001952	1.013576	1.7115	1.0305	-3.078	0	6	1035	1
2026-02-11	16:32:24.670	-0.245	-0.28	-0.14	-0.023424	0.000732	1.013088	1.716	1.032	-3.078	0	6	1035	1
2026-02-11	16:32:24.690	-0.385	-0.98	-0.105	-0.027572	0.000244	1.022116	1.698	1.0335	-3.081	0	6	1035	1
2026-02-11	16:32:24.710	-0.525	-1.085	-0.105	-0.021716	0	1.011624	1.692	1.0365	-3.0795	0	6	1035	1
2026-02-11	16:32:24.730	-0.805	-1.785	-0.14	-0.018544	0.000488	1.00894	1.71	1.041	-3.0765	0	6	1035	1
2026-02-11	16:32:24.750	-0.91	-1.61	-0.105	-0.02074	0.000244	1.010648	1.713	1.0425	-3.078	0	6	1035	1
2026-02-11	16:32:24.770	-0.77	-1.645	-0.14	-0.018788	-0.003172	1.009672	1.7085	1.041	-3.0795	0	6	1035	1
2026-02-11	16:32:24.790	-0.63	-1.61	-0.14	-0.017568	-0.004148	1.013332	1.7085	1.0395	-3.0735	0	6	1035	1
2026-02-11	16:32:24.810	-0.21	-0.91	-0.175	-0.0183	-0.000732	1.009184	1.7115	1.0395	-3.0705	0	6	1035	1
2026-02-11	16:32:24.830	-0.035	-0.49	-0.07	-0.020496	-0.002928	1.008696	1.7145	1.0395	-3.075	0	6	1035	1
2026-02-11	16:32:24.850	0.035	-0.385	-0.07	-0.019032	0	1.007232	1.701	1.038	-3.075	0	6	1035	1
2026-02-11	16:32:24.870	-0.105	-0.455	-0.035	-0.019764	-0.00366	1.009916	1.7055	1.035	-3.084	0	6	1035	1
2026-02-11	16:32:24.890	-0.175	-0.21	-0.035	-0.015372	-0.00244	1.014308	1.7025	1.044	-3.081	0	6	1035	1
2026-02-11	16:32:24.910	-0.14	0.105	-0.07	-0.01586	0.00122	1.013576	1.7055	1.0425	-3.081	0	6	1035	1
2026-02-11	16:32:24.930	0	-0.035	-0.14	-0.013908	-0.00122	1.009672	1.7055	1.0365	-3.078	0	6	1035	1
2026-02-11	16:32:24.950	-0.105	-0.105	-0.175	-0.018788	-0.00366	1.011624	1.707	1.035	-3.0795	0	6	1035	1
2026-02-11	16:32:24.970	-0.035	-0.105	-0.175	-0.018056	-0.000732	1.008452	1.7085	1.0365	-3.084	0	6	1035	1
2026-02-11	16:32:24.990	0	-0.735	-0.175	-0.018056	-0.00122	1.014796	1.7055	1.0365	-3.0825	0	6	1035	1
2026-02-11	16:32:25.010	-0.105	-1.26	-0.175	-0.014152	-0.000244	1.00284	1.701	1.0335	-3.075	0	6	1034	1
2026-02-11	16:32:25.030	-0.105	-0.175	-0.07	-0.016592	-0.000732	1.013088	1.713	1.035	-3.0825	0	6	1034	1
2026-02-11	16:32:25.050	0	0.595	-0.07	-0.020008	-0.006832	1.009184	1.722	1.0365	-3.081	0	6	1034	1
2026-02-11	16:32:25.070	0.105	0.56	0	-0.021228	-0.005368	1.014552	1.716	1.0335	-3.0735	0	6	1034	1
2026-02-11	16:32:25.090	0.14	0.14	-0.035	-0.0183	-0.001708	1.011624	1.719	1.038	-3.0825	0	6	1034	1
2026-02-11	16:32:25.110	0.14	0.315	-0.035	-0.017324	0.001708	1.0126	1.719	1.041	-3.081	0	6	1034	1
2026-02-11	16:32:25.130	0.175	0.525	-0.035	-0.019032	-0.000488	1.010404	1.728	1.041	-3.0765	0	6	1034	1
2026-02-11	16:32:25.150	0.07	0.42	-0.07	-0.019764	-0.00122	1.012356	1.7175	1.029	-3.078	0	6	1034	1
2026-02-11	16:32:25.170	-0.07	-0.14	-0.105	-0.020252	0	1.008452	1.7265	1.035	-3.081	0	6	1034	1
2026-02-11	16:32:25.190	-0.105	-0.595	-0.105	-0.021472	-0.00244	1.008208	1.7265	1.038	-3.0795	0	6	1034	1
2026-02-11	16:32:25.210	-0.035	-0.525	-0.14	-0.016836	-0.003416	1.009672	1.7295	1.0365	-3.078	0	6	1034	1
2026-02-11	16:32:25.230	-0.035	-0.245	-0.105	-0.015616	-0.003172	1.014796	1.725	1.0365	-3.0765	0	6	1034	1
2026-02-11	16:32:25.250	0	-0.245	-0.07	-0.017568	-0.004636	1.011136	1.722	1.0395	-3.078	0	6	1034	1
2026-02-11	16:32:25.270	-0.105	-0.21	-0.105	-0.02074	-0.004148	1.011136	1.7235	1.0395	-3.0825	0	6	1034	1
2026-02-11	16:32:25.290	-0.14	-0.105	-0.07	-0.018788	-0.001708	1.015284	1.7235	1.0365	-3.0825	0	6	1034	1
2026-02-11	16:32:25.310	-0.14	0.07	-0.07	-0.017324	-0.002684	1.009916	1.7295	1.035	-3.078	0	6	1034	1
2026-02-11	16:32:25.330	-0.035	0.105	-0.105	-0.018056	-0.003416	1.010892	1.7175	1.0335	-3.0705	0	6	1034	1
2026-02-11	16:32:25.350	-0.035	-0.07	-0.07	-0.0183	-0.000244	1.01016	1.7085	1.0335	-3.0735	0	6	1034	1
2026-02-11	16:32:25.370	-0.07	-0.315	-0.105	-0.021716	-0.001952	1.012844	1.7145	1.038	-3.081	0	6	1034	1
2026-02-11	16:32:25.390	-0.105	-0.385	-0.14	-0.020496	-0.002196	1.009184	1.707	1.0365	-3.0825	0	6	1034	1
2026-02-11	16:32:25.410	-0.105	-0.42	-0.105	-0.019032	0.000488	1.012112	1.695	1.035	-3.0795	0	5	1034	1
2026-02-11	16:32:25.430	-0.14	-0.455	-0.14	-0.019276	-0.001952	1.013088	1.6905	1.0335	-3.075	0	5	1034	1
2026-02-11	16:32:25.450	-0.14	-0.385	-0.105	-0.019276	-0.00488	1.009428	1.6965	1.0365	-3.0735	0	5	1034	1
2026-02-11	16:32:25.470	-0.21	-0.21	-0.07	-0.019276	0.000488	1.00894	1.7055	1.0395	-3.078	0	5	1034	1
2026-02-11	16:32:25.490	-0.21	-0.035	-0.07	-0.02196	0.000976	0.998692	1.7055	1.0365	-3.078	0	5	1034	1
2026-02-11	16:32:25.510	-0.14	0.035	-0.07	-0.0183	-0.0061	1.0126	1.7025	1.032	-3.072	0	5	1034	1
2026-02-11	16:32:25.530	-0.105	0.07	-0.105	-0.017568	-0.002928	1.016504	1.7055	1.035	-3.072	0	5	1034	1
2026-02-11	16:32:25.550	0.105	-0.105	-0.07	-0.026352	-0.004392	1.01992	1.7085	1.0395	-3.075	0	5	1034	1
2026-02-11	16:32:25.570	0.245	-0.735	-0.07	-0.019032	-0.00732	1.004304	1.7145	1.029	-3.075	0	5	1034	1
2026-02-11	16:32:25.590	0	-0.455	-0.105	-0.017568	0.004148	1.010892	1.7235	1.0395	-3.075	0	5	1034	1
2026-02-11	16:32:25.610	-0.07	-0.7	-0.105	-0.020496	0.000244	1.002352	1.7205	1.029	-3.072	0	5	1034	1
2026-02-11	16:32:25.630	-0.07	-0.21	-0.105	-0.020008	-0.004392	1.010648	1.722	1.0365	-3.084	0	5	1034	1
2026-02-11	16:32:25.650	-0.035	0.035	-0.07	-0.01586	-0.005612	1.011136	1.7145	1.041	-3.0735	0	5	1034	1
2026-02-11	16:32:25.670	0.035	0.175	-0.07	-0.018544	-0.002684	1.009428	1.707	1.0305	-3.0795	0	5	1034	1
2026-02-11	16:32:25.690	0.14	0.385	-0.07	-0.015616	-0.003172	1.01016	1.707	1.032	-3.0765	0	5	1034	1
2026-02-11	16:32:25.710	0.21	0.7	-0.105	-0.018544	-0.003416	1.009428	1.7145	1.035	-3.0855	0	5	1034	1
2026-02-11	16:32:25.730	0.28	1.05	-0.105	-0.018788	-0.003172	1.013576	1.7145	1.035	-3.0855	0	5	1034	1
2026-02-11	16:32:25.750	0.35	1.12	-0.105	-0.018788	-0.004148	1.014552	1.7175	1.0365	-3.081	0	5	1034	1
2026-02-11	16:32:25.770	0.315	0.945	-0.14	-0.020008	-0.005124	1.012844	1.7235	1.035	-3.078	0	5	1034	1
2026-02-11	16:32:25.790	0.35	0.875	-0.175	-0.024888	-0.009028	1.014064	1.7265	1.0365	-3.081	0	5	1034	1
2026-02-11	16:32:25.810	0.49	0.525	-0.105	-0.015616	0	1.005524	1.725	1.0395	-3.0795	0	5	1034	1
2026-02-11	16:32:25.830	0.21	0.035	-0.07	-0.024156	0.00122	1.004792	1.7145	1.038	-3.072	0	5	1034	1
2026-02-11	16:32:25.850	0.21	0.035	-0.07	-0.022448	0.000244	1.005036	1.707	1.035	-3.069	0	5	1034	1
2026-02-11	16:32:25.870	0.07	0.14	-0.07	-0.020984	-0.00488	1.013576	1.7085	1.0335	-3.072	0	5	1034	1
2026-02-11	16:32:25.890	0.14	0.28	-0.07	-0.023912	-0.00122	1.012112	1.7085	1.035	-3.072	0	5	1034	1
2026-02-11	16:32:25.910	0.28	0.245	-0.07	-0.020252	0.000732	1.011868	1.719	1.032	-3.0735	0	5	1034	1
2026-02-11	16:32:25.930	0.175	0.14	-0.07	-0.021228	0.001464	1.009916	1.7175	1.0305	-3.0705	0	5	1034	1
2026-02-11	16:32:25.950	0.07	0.035	-0.07	-0.024156	0.00122	1.01382	1.716	1.035	-3.0735	0	5	1034	1
2026-02-11	16:32:25.970	0.035	-0.035	-0.07	-0.019032	-0.000244	1.014064	1.7085	1.0395	-3.075	0	5	1034	1
2026-02-11	16:32:25.990	0	-0.175	-0.105	-0.022204	0	1.011868	1.704	1.041	-3.072	0	5	1034	1
2026-02-11	16:32:26.010	0.035	-0.49	-0.07	-0.021228	-0.000488	1.009428	1.704	1.041	-3.0795	0	5	1034	1
2026-02-11	16:32:26.030	0	-0.525	-0.105	-0.022204	0.003904	1.012112	1.704	1.038	-3.081	0	5	1034	1
2026-02-11	16:32:26.050	-0.035	-0.525	-0.07	-0.024156	-0.000976	1.009916	1.707	1.0365	-3.075	0	5	1034	1
2026-02-11	16:32:26.070	0	-0.42	-0.07	-0.022204	0.001464	1.00528	1.7085	1.035	-3.072	0	5	1034	1
2026-02-11	16:32:26.090	-0.315	-0.455	-0.105	-0.017568	0.002928	1.012112	1.707	1.0365	-3.0735	0	5	1034	1
2026-02-11	16:32:26.110	-0.21	0.14	-0.07	-0.026596	-0.002196	1.025776	1.707	1.0365	-3.0735	0	5	1034	1
2026-02-11	16:32:26.130	0	0.035	-0.105	-0.020008	0.001464	1.00528	1.7115	1.0305	-3.078	0	5	1034	1
2026-02-11	16:32:26.150	-0.175	0.105	-0.07	-0.0244	-0.001708	1.0065	1.704	1.038	-3.075	0	5	1034	1
2026-02-11	16:32:26.170	-0.315	-0.21	-0.07	-0.027328	-0.00122	1.014796	1.713	1.035	-3.072	0	5	1034	1
2026-02-11	16:32:26.190	-0.385	-0.77	-0.07	-0.023912	0.00122	1.008452	1.719	1.038	-3.0735	0	5	1034	1
2026-02-11	16:32:26.210	-0.385	-1.085	-0.105	-0.021228	-0.001952	1.008208	1.719	1.0425	-3.069	0	5	1034	1
2026-02-11	16:32:26.230	-0.49	-1.19	-0.14	-0.019032	-0.001708	1.014308	1.7115	1.044	-3.075	0	5	1034	1
2026-02-11	16:32:26.250	-0.42	-1.015	-0.105	-0.019032	0.001708	1.011868	1.713	1.035	-3.0735	0	5	1034	1
2026-02-11	16:32:26.270	-0.245	-0.77	-0.105	-0.018788	0.000488	1.009428	1.716	1.0305	-3.0735	0	5	1034	1
2026-02-11	16:32:26.290	-0.14	-0.49	-0.07	-0.020252	0.000244	1.00406	1.716	1.035	-3.072	0	5	1034	1
2026-02-11	16:32:26.310	-0.21	-0.175	-0.07	-0.022936	-0.001708	1.014308	1.716	1.035	-3.075	0	5	1034	1
2026-02-11	16:32:26.330	-0.28	-0.315	-0.07	-0.021472	-0.002928	1.012844	1.722	1.0305	-3.0765	0	5	1034	1
2026-02-11	16:32:26.350	-0.35	-0.49	0	-0.025376	-0.00488	1.004548	1.728	1.0335	-3.075	0	5	1034	1
2026-02-11	16:32:26.370	-0.455	-0.84	0	-0.022448	-0.001952	1.014064	1.737	1.032	-3.078	0	5	1034	1
2026-02-11	16:32:26.390	-0.35	-0.665	0	-0.020984	-0.00244	1.012844	1.728	1.0395	-3.0825	0	5	1034	1
2026-02-11	16:32:26.410	-0.07	-0.49	-0.035	-0.01708	-0.002928	1.01504	1.728	1.038	-3.0825	0	5	1034	1
2026-02-11	16:32:26.430	-0.28	-0.77	-0.07	-0.021472	-0.000732	1.007964	1.725	1.0365	-3.081	0	5	1034	1
2026-02-11	16:32:26.450	-0.245	-0.315	-0.14	-0.018544	-0.003416	1.01504	1.728	1.0395	-3.081	0	5	1034	1
2026-02-11	16:32:26.470	-0.07	-0.105	-0.14	-0.022936	-0.001464	1.009672	1.7295	1.041	-3.0825	0	5	1034	1
2026-02-11	16:32:26.490	-0.14	-0.245	-0.14	-0.021228	-0.002196	1.011624	1.7325	1.041	-3.0825	0	5	1034	1
2026-02-11	16:32:26.510	-0.14	-0.245	-0.105	-0.020496	-0.001952	1.012112	1.7295	1.035	-3.0795	0	5	1034	1
2026-02-11	16:32:26.530	-0.035	-0.07	-0.105	-0.02074	0.000488	1.014064	1.728	1.035	-3.081	0	5	1034	1
2026-02-11	16:32:26.550	0.14	-0.07	-0.105	-0.020008	0.003416	1.008208	1.7265	1.0365	-3.0825	0	5	1034	1
2026-02-11	16:32:26.570	0.105	0.035	-0.07	-0.024644	-0.003904	1.010404	1.728	1.0335	-3.0795	0	5	1034	1
2026-02-11	16:32:26.590	0	-0.21	-0.105	-0.020984	-0.001708	1.012112	1.731	1.0335	-3.078	0	5	1034	1
2026-02-11	16:32:26.610	-0.105	-0.315	-0.105	-0.013908	-0.001464	1.008696	1.731	1.0365	-3.078	0	5	1034	1
2026-02-11	16:32:26.630	-0.105	-0.035	-0.105	-0.0183	-0.00244	1.010892	1.71	1.035	-3.0705	0	5	1034	1
2026-02-11	16:32:26.650	-0.105	-0.175	-0.105	-0.020008	-0.005368	1.009916	1.6875	1.032	-3.063	0	5	1034	1
2026-02-11	16:32:26.670	-0.07	-0.21	-0.105	-0.020984	-0.001952	1.01016	1.7085	1.0365	-3.078	0	5	1034	1
2026-02-11	16:32:26.690	-0.105	-0.245	-0.07	-0.018544	0.001708	1.00772	1.7085	1.041	-3.075	0	5	1034	1
2026-02-11	16:32:26.710	-0.14	-0.21	-0.07	-0.01708	-0.001708	1.016992	1.71	1.0335	-3.078	0	5	1034	1
2026-02-11	16:32:26.730	-0.105	-0.14	-0.07	-0.016348	-0.000488	1.015284	1.6965	1.041	-3.075	0	5	1034	1
2026-02-11	16:32:26.750	0	-0.035	-0.105	-0.0244	0	1.005036	1.707	1.044	-3.075	0	5	1034	1
2026-02-11	16:32:26.770	-0.14	-0.35	-0.14	-0.018788	-0.000244	1.006744	1.7085	1.038	-3.075	0	5	1034	1
2026-02-11	16:32:26.790	-0.175	-0.105	-0.105	-0.02318	-0.000732	1.01138	1.7145	1.0395	-3.0765	0	5	1034	1
2026-02-11	16:32:26.810	-0.07	0	-0.105	-0.018056	-0.000244	1.013576	1.704	1.0425	-3.075	0	5	1034	1
2026-02-11	16:32:26.830	-0.07	-0.385	-0.105	-0.019276	-0.00244	1.011868	1.7115	1.0425	-3.081	0	5	1034	1
2026-02-11	16:32:26.850	-0.105	-0.28	-0.105	-0.021472	0	1.0126	1.7115	1.044	-3.078	0	5	1034	1
2026-02-11	16:32:26.870	-0.035	-0.21	-0.14	-0.019764	-0.002196	1.008208	1.71	1.044	-3.0765	0	5	1034	1
2026-02-11	16:32:26.890	-0.14	-0.175	-0.105	-0.020008	-0.003172	1.007964	1.7055	1.0425	-3.081	0	5	1034	1
2026-02-11	16:32:26.910	-0.105	0	-0.105	-0.020252	-0.000976	1.011624	1.716	1.035	-3.084	0	5	1034	1
2026-02-11	16:32:26.930	-0.07	0	-0.105	-0.022204	-0.000488	1.011136	1.713	1.041	-3.072	0	5	1034	1
2026-02-11	16:32:26.950	-0.035	-0.035	-0.105	-0.0183	0	1.013088	1.716	1.0335	-3.09	0	5	1034	1
2026-02-11	16:32:26.970	0	-0.175	-0.105	-0.023668	-0.002196	1.006988	1.7115	1.032	-3.0795	0	5	1034	1
2026-02-11	16:32:26.990	-0.07	-0.28	-0.105	-0.02196	-0.001952	1.0065	1.725	1.0395	-3.0795	0	5	1034	1
2026-02-11	16:32:27.010	-0.07	-0.315	-0.14	-0.021228	-0.001708	1.011624	1.7145	1.041	-3.078	0	5	1034	1
2026-02-11	16:32:27.030	0	-0.14	-0.07	-0.019032	-0.001708	1.012112	1.7145	1.041	-3.075	0	5	1034	1
2026-02-11	16:32:27.050	0	-0.14	-0.07	-0.020984	-0.004636	1.010892	1.7085	1.038	-3.072	0	5	1034	1
2026-02-11	16:32:27.070	-0.035	-0.21	-0.07	-0.024644	-0.001464	1.012112	1.707	1.0395	-3.0735	0	5	1034	1
2026-02-11	16:32:27.090	-0.07	-0.07	-0.105	-0.018544	-0.000244	1.010648	1.7085	1.0425	-3.075	0	5	1034	1
2026-02-11	16:32:27.110	-0.035	0	-0.105	-0.019032	-0.000488	1.014552	1.716	1.041	-3.075	0	5	1034	1
2026-02-11	16:32:27.130	-0.035	0	-0.07	-0.022692	-0.002196	1.01016	1.7235	1.038	-3.075	0	5	1034	1
2026-02-11	16:32:27.150	-0.035	-0.14	-0.07	-0.022448	-0.00366	1.01016	1.716	1.035	-3.078	0	5	1034	1
2026-02-11	16:32:27.170	-0.105	-0.245	-0.105	-0.02074	-0.000976	1.015284	1.7145	1.0365	-3.075	0	5	1034	1
2026-02-11	16:32:27.190	-0.07	-0.245	-0.07	-0.02196	0.000488	1.012356	1.7205	1.038	-3.072	0	5	1034	1
2026-02-11	16:32:27.210	-0.105	-0.28	-0.105	-0.018788	-0.002684	1.011624	1.7205	1.038	-3.072	0	5	1034	1
2026-02-11	16:32:27.230	-0.14	-0.35	-0.105	-0.020252	0.000488	1.009672	1.713	1.032	-3.078	0	5	1034	1
2026-02-11	16:32:27.250	-0.14	-0.28	-0.14	-0.021716	-0.003904	1.009672	1.7175	1.035	-3.0735	0	5	1034	1
2026-02-11	16:32:27.270	-0.14	-0.175	-0.105	-0.01952	-0.002928	1.014064	1.7085	1.035	-3.0705	0	5	1034	1
2026-02-11	16:32:27.290	-0.175	-0.105	-0.105	-0.01952	-0.002684	1.010404	1.7175	1.0425	-3.0825	0	5	1034	1
2026-02-11	16:32:27.310	-0.21	-0.175	-0.105	-0.019764	-0.000488	1.013088	1.7145	1.038	-3.078	0	5	1034	1
2026-02-11	16:32:27.330	-0.28	-0.175	-0.07	-0.022204	-0.000976	1.011868	1.722	1.035	-3.075	0	5	1034	1
2026-02-11	16:32:27.350	-0.21	-0.175	-0.07	-0.024156	-0.002684	1.010648	1.734	1.0365	-3.0765	0	5	1034	1
2026-02-11	16:32:27.370	-0.14	-0.14	-0.105	-0.020252	-0.004636	1.014308	1.7325	1.0335	-3.0735	0	5	1034	1
2026-02-11	16:32:27.390	-0.035	-0.175	-0.105	-0.019764	-0.003172	1.01748	1.728	1.0335	-3.069	0	5	1034	1
2026-02-11	16:32:27.410	0.14	-0.21	-0.105	-0.021716	-0.001952	1.015528	1.7025	1.035	-3.0765	0	4	1034	1
2026-02-11	16:32:27.430	0.28	-0.21	-0.035	-0.023668	-0.000244	1.015528	1.7055	1.038	-3.081	0	4	1034	1
2026-02-11	16:32:27.450	0.21	-0.735	-0.105	-0.016592	-0.002196	1.000888	1.7175	1.0425	-3.078	0	4	1034	1
2026-02-11	16:32:27.470	0	-0.28	-0.105	-0.023668	-0.002928	1.013088	1.722	1.0335	-3.0795	0	4	1034	1
2026-02-11	16:32:27.490	-0.105	-0.21	-0.14	-0.019764	0.000488	1.0065	1.6845	1.0335	-3.075	0	4	1034	1
2026-02-11	16:32:27.510	-0.105	0.105	-0.105	-0.022448	0	1.013088	1.707	1.026	-3.0675	0	4	1034	1
2026-02-11	16:32:27.530	-0.07	0	-0.07	-0.019032	-0.003416	1.009916	1.7085	1.038	-3.069	0	4	1034	1
2026-02-11	16:32:27.550	-0.035	0	-0.07	-0.015128	-0.002196	1.012356	1.7085	1.041	-3.084	0	4	1034	1
2026-02-11	16:32:27.570	-0.035	0	-0.035	-0.0244	0.000488	1.015772	1.713	1.035	-3.0765	0	4	1034	1
2026-02-11	16:32:27.590	0	0	-0.07	-0.019032	-0.000976	1.01016	1.71	1.0365	-3.078	0	4	1034	1
2026-02-11	16:32:27.610	-0.07	-0.105	-0.105	-0.022692	-0.00122	1.010648	1.707	1.038	-3.078	0	4	1034	1
2026-02-11	16:32:27.630	-0.07	-0.245	-0.105	-0.021228	-0.001464	1.013332	1.7055	1.035	-3.078	0	4	1034	1
2026-02-11	16:32:27.650	-0.07	-0.385	-0.14	-0.016348	-0.000732	1.013332	1.701	1.0365	-3.078	0	4	1034	1
2026-02-11	16:32:27.670	-0.07	-0.245	-0.105	-0.020008	-0.001708	1.012112	1.7025	1.035	-3.0765	0	4	1034	1
2026-02-11	16:32:27.690	0	-0.245	-0.07	-0.021716	0.00122	1.008452	1.7055	1.032	-3.078	0	4	1034	1
2026-02-11	16:32:27.710	-0.14	-0.28	-0.105	-0.020496	-0.005612	1.012356	1.7055	1.0305	-3.078	0	4	1034	1
2026-02-11	16:32:27.730	-0.07	-0.28	-0.105	-0.022448	0.000244	1.013088	1.707	1.0335	-3.0735	0	4	1034	1
2026-02-11	16:32:27.750	-0.035	-0.07	-0.105	-0.019764	-0.000488	1.009428	1.71	1.038	-3.069	0	4	1034	1
2026-02-11	16:32:27.770	-0.105	-0.105	-0.105	-0.020496	-0.001708	1.012844	1.701	1.044	-3.0825	0	4	1034	1
2026-02-11	16:32:27.790	-0.07	-0.105	-0.14	-0.023424	0.000976	1.009428	1.7055	1.0425	-3.078	0	4	1034	1
2026-02-11	16:32:27.810	-0.07	-0.14	-0.105	-0.022448	-0.00366	1.010892	1.713	1.0395	-3.078	0	4	1034	1
2026-02-11	16:32:27.830	-0.035	-0.21	-0.105	-0.019764	-0.003416	1.010648	1.7175	1.038	-3.081	0	4	1034	1
2026-02-11	16:32:27.850	-0.07	-0.28	-0.105	-0.023912	-0.002928	1.015284	1.716	1.038	-3.081	0	4	1034	1
2026-02-11	16:32:27.870	-0.105	-0.42	-0.07	-0.0183	-0.002196	1.01504	1.7145	1.038	-3.084	0	4	1034	1
2026-02-11	16:32:27.890	-0.035	-0.42	-0.105	-0.024156	-0.00122	1.008452	1.7085	1.038	-3.081	0	4	1034	1
2026-02-11	16:32:27.910	-0.07	-0.14	-0.105	-0.018056	-0.00122	1.00772	1.701	1.035	-3.0795	0	4	1034	1
2026-02-11	16:32:27.930	-0.14	-0.07	-0.07	-0.018544	0.001464	1.013088	1.704	1.0365	-3.081	0	4	1034	1
2026-02-11	16:32:27.950	-0.035	-0.14	-0.07	-0.02074	0	1.013332	1.704	1.0365	-3.081	0	4	1034	1
2026-02-11	16:32:27.970	0	-0.035	-0.105	-0.022204	-0.001708	1.011868	1.7115	1.032	-3.075	0	4	1034	1
2026-02-11	16:32:27.990	-0.07	-0.035	-0.07	-0.023912	0.000244	1.009916	1.725	1.0425	-3.078	0	4	1034	1
2026-02-11	16:32:28.010	-0.105	-0.14	-0.07	-0.02074	-0.003904	1.014552	1.719	1.029	-3.081	0	4	1034	1
2026-02-11	16:32:28.030	-0.105	-0.21	-0.07	-0.019032	-0.00366	1.012844	1.722	1.041	-3.0795	0	4	1034	1
2026-02-11	16:32:28.050	-0.035	-0.28	-0.105	-0.020252	0.000488	1.008696	1.731	1.0335	-3.078	0	4	1034	1
2026-02-11	16:32:28.070	-0.105	-0.315	-0.105	-0.021472	-0.004148	1.011868	1.7265	1.035	-3.087	0	4	1034	1
2026-02-11	16:32:28.090	-0.105	-0.315	-0.105	-0.02318	0.001708	1.009428	1.7295	1.0395	-3.0825	0	4	1034	1
2026-02-11	16:32:28.110	-0.035	-0.245	-0.07	-0.02196	-0.00122	1.01016	1.737	1.038	-3.084	0	4	1034	1
2026-02-11	16:32:28.130	-0.105	-0.21	-0.14	-0.020984	-0.000488	1.014064	1.725	1.038	-3.0795	0	4	1034	1
2026-02-11	16:32:28.150	-0.07	-0.105	-0.105	-0.021472	-0.002196	1.01504	1.7085	1.0395	-3.0795	0	4	1034	1
2026-02-11	16:32:28.170	-0.07	0	-0.07	-0.024888	-0.00122	1.009428	1.7085	1.035	-3.084	0	4	1034	1
2026-02-11	16:32:28.190	-0.035	-0.105	-0.105	-0.02318	-0.001464	1.01138	1.7145	1.035	-3.084	0	4	1034	1
2026-02-11	16:32:28.210	-0.105	-0.14	-0.07	-0.01952	-0.001708	1.010648	1.71	1.0395	-3.081	0	4	1034	1
2026-02-11	16:32:28.230	-0.105	-0.245	-0.07	-0.021228	-0.004148	1.011136	1.7025	1.0395	-3.0735	0	4	1034	1
2026-02-11	16:32:28.250	-0.105	-0.385	-0.105	-0.02074	0.000976	1.011868	1.701	1.0335	-3.072	0	4	1034	1
2026-02-11	16:32:28.270	-0.175	-0.42	-0.14	-0.01952	0.001952	1.014064	1.704	1.029	-3.0735	0	4	1034	1
2026-02-11	16:32:28.290	-0.21	-0.455	-0.14	-0.020984	-0.000732	1.010892	1.716	1.041	-3.081	0	4	1034	1
2026-02-11	16:32:28.310	-0.28	-0.35	-0.07	-0.024644	0.013176	0.98088	1.71	1.038	-3.081	0	4	1034	1
2026-02-11	16:32:28.330	-0.21	-0.175	-0.07	-0.018056	-0.002196	1.025532	1.7115	1.0395	-3.0765	0	4	1034	1
2026-02-11	16:32:28.350	-0.14	-0.175	-0.07	-0.018056	-0.002928	1.008208	1.707	1.038	-3.0765	0	4	1034	1
2026-02-11	16:32:28.370	-0.14	-0.07	-0.105	-0.022936	0.00244	1.009428	1.6995	1.032	-3.0795	0	4	1034	1
2026-02-11	16:32:28.390	-0.105	0	-0.105	-0.024888	-0.00366	1.016016	1.7025	1.035	-3.0795	0	4	1034	1
2026-02-11	16:32:28.410	0.105	0.035	-0.07	-0.016348	-0.004636	1.015772	1.71	1.038	-3.084	0	4	1034	1
2026-02-11	16:32:28.430	0.14	-0.175	-0.07	-0.018544	-0.004392	1.067012	1.719	1.0365	-3.081	0	4	1034	1
2026-02-11	16:32:28.450	0.105	-0.35	-0.035	-0.02074	-0.005612	1.014308	1.716	1.0335	-3.078	0	4	1034	1
2026-02-11	16:32:28.470	0.07	-0.595	-0.14	-0.020252	-0.001464	1.003084	1.71	1.0365	-3.078	0	4	1034	1
2026-02-11	16:32:28.490	-0.175	-0.07	-0.105	-0.02074	0	1.008452	1.707	1.038	-3.075	0	4	1034	1
2026-02-11	16:32:28.510	-0.105	-0.175	-0.105	-0.019032	-0.000244	1.013088	1.6965	1.0365	-3.078	0	4	1034	1
2026-02-11	16:32:28.530	-0.14	-0.35	-0.105	-0.021472	-0.004148	1.008208	1.704	1.0335	-3.0825	0	4	1034	1
2026-02-11	16:32:28.550	-0.105	-0.21	-0.07	-0.018544	-0.003416	1.012112	1.698	1.0365	-3.0765	0	4	1034	1
2026-02-11	16:32:28.570	-0.07	0.07	-0.035	-0.025376	0.001464	1.014064	1.707	1.044	-3.078	0	4	1034	1
2026-02-11	16:32:28.590	-0.07	-0.035	-0.07	-0.016592	-0.003904	1.009428	1.704	1.0395	-3.084	0	4	1034	1
2026-02-11	16:32:28.610	-0.105	-0.14	-0.105	-0.022692	-0.001952	1.016748	1.719	1.032	-3.078	0	4	1034	1
2026-02-11	16:32:28.630	-0.105	-0.28	-0.105	-0.027572	-0.00122	1.01504	1.7205	1.029	-3.0765	0	4	1034	1
2026-02-11	16:32:28.650	-0.07	-0.385	-0.105	-0.007076	-0.002928	1.007476	1.7115	1.0365	-3.0795	0	4	1034	1
2026-02-11	16:32:28.670	0.035	-0.175	-0.07	-0.027572	0.002928	1.013576	1.713	1.032	-3.0855	0	4	1034	1
2026-02-11	16:32:28.690	0.175	0.07	-0.14	-0.021716	-0.000488	1.00894	1.7145	1.032	-3.0825	0	4	1034	1
2026-02-11	16:32:28.710	0.175	0.105	-0.105	-0.021716	0.000976	1.011136	1.719	1.038	-3.0765	0	4	1034	1
2026-02-11	16:32:28.730	0.105	0.105	-0.105	-0.017812	-0.000976	1.010404	1.7235	1.044	-3.0735	0	4	1034	1
2026-02-11	16:32:28.750	0	0.14	-0.105	-0.01952	-0.000488	1.012356	1.716	1.0335	-3.0765	0	4	1034	1
2026-02-11	16:32:28.770	-0.035	0.07	-0.07	-0.024644	-0.002684	1.011868	1.713	1.0305	-3.072	0	4	1034	1
2026-02-11	16:32:28.790	-0.105	-0.14	-0.105	-0.025864	-0.000244	1.008452	1.707	1.0335	-3.078	0	4	1034	1
2026-02-11	16:32:28.810	-0.175	-0.175	-0.105	-0.020984	0.00122	1.009672	1.713	1.0395	-3.0765	0	4	1035	1
2026-02-11	16:32:28.830	-0.14	-0.35	-0.105	-0.02684	0.000732	1.013332	1.7025	1.041	-3.078	0	4	1035	1
2026-02-11	16:32:28.850	-0.14	-0.42	-0.07	-0.019032	0.000488	1.012844	1.71	1.035	-3.078	0	4	1035	1
2026-02-11	16:32:28.870	-0.105	-0.49	-0.07	-0.020984	-0.000732	1.014552	1.7085	1.0335	-3.078	0	4	1035	1
2026-02-11	16:32:28.890	-0.07	-0.315	-0.105	-0.022448	-0.004148	1.011624	1.713	1.0365	-3.078	0	4	1035	1
2026-02-11	16:32:28.910	-0.035	-0.105	-0.105	-0.020984	-0.002196	1.00772	1.71	1.038	-3.078	0	4	1035	1
2026-02-11	16:32:28.930	-0.105	-0.105	-0.105	-0.019276	-0.000732	1.009916	1.704	1.0365	-3.0795	0	4	1035	1
2026-02-11	16:32:28.950	-0.07	-0.07	-0.105	-0.018788	-0.00122	1.01382	1.707	1.0395	-3.078	0	4	1035	1
2026-02-11	16:32:28.970	0	0.07	-0.07	-0.02196	-0.002196	1.005768	1.7115	1.0425	-3.075	0	4	1035	1
2026-02-11	16:32:28.990	-0.07	0.035	-0.105	-0.022936	0.000488	1.009184	1.716	1.0395	-3.081	0	4	1035	1
2026-02-11	16:32:29.010	-0.07	-0.105	-0.14	-0.021228	-0.002684	1.013332	1.7205	1.0365	-3.084	0	4	1035	1
2026-02-11	16:32:29.030	-0.035	-0.245	-0.105	-0.020252	-0.00122	1.008208	1.725	1.038	-3.081	0	4	1035	1
2026-02-11	16:32:29.050	-0.07	-0.21	-0.105	-0.023668	-0.001708	1.009672	1.725	1.038	-3.081	0	4	1035	1
2026-02-11	16:32:29.070	-0.035	-0.245	-0.105	-0.023912	-0.002684	1.009672	1.719	1.032	-3.0765	0	4	1035	1
2026-02-11	16:32:29.090	-0.07	-0.315	-0.07	-0.020496	-0.003172	1.009916	1.722	1.0335	-3.0795	0	4	1035	1
2026-02-11	16:32:29.110	-0.245	-0.35	-0.105	-0.019764	-0.001708	1.010648	1.7175	1.038	-3.084	0	4	1035	1
2026-02-11	16:32:29.130	-0.245	-0.315	-0.07	-0.018544	-0.001952	1.010892	1.725	1.0395	-3.0855	0	4	1035	1
2026-02-11	16:32:29.150	-0.175	-0.175	-0.07	-0.022448	0.00122	1.068476	1.734	1.0395	-3.0795	0	4	1035	1
2026-02-11	16:32:29.170	-0.21	-0.21	-0.07	-0.018788	-0.00244	1.009428	1.728	1.0365	-3.078	0	4	1035	1
2026-02-11	16:32:29.190	-0.21	-0.14	-0.105	-0.018544	-0.00122	1.0126	1.728	1.0425	-3.0795	0	4	1035	1
2026-02-11	16:32:29.210	0	-0.035	-0.07	-0.020008	-0.002196	1.012356	1.7325	1.0395	-3.075	0	4	1035	1
2026-02-11	16:32:29.230	0.14	-0.14	-0.07	-0.027572	-0.00488	1.01626	1.7325	1.038	-3.0795	0	4	1035	1
2026-02-11	16:32:29.250	0.175	-0.42	-0.07	-0.026108	0	1.02602	1.737	1.0395	-3.0765	0	4	1035	1
2026-02-11	16:32:29.270	0.105	-0.525	-0.14	-0.018544	-0.00366	1.013088	1.734	1.0395	-3.081	0	4	1035	1
2026-02-11	16:32:29.290	0.035	-0.945	-0.21	-0.016836	0.000488	0.996984	1.704	1.0365	-3.081	0	4	1035	1
2026-02-11	16:32:29.310	-0.14	0	-0.105	-0.016592	-0.00122	1.017968	1.71	1.035	-3.0795	0	4	1035	1
2026-02-11	16:32:29.330	-0.035	0.245	-0.105	-0.023912	0	1.010648	1.689	1.035	-3.072	0	4	1035	1
2026-02-11	16:32:29.350	0	0.28	-0.07	-0.020496	0.000732	1.007964	1.707	1.0335	-3.0765	0	4	1035	1
2026-02-11	16:32:29.370	0	0.14	-0.07	-0.01586	-0.001708	1.006744	1.713	1.035	-3.0795	0	4	1035	1
2026-02-11	16:32:29.390	-0.035	0.21	-0.105	-0.02318	-0.002684	1.012356	1.7145	1.0305	-3.072	0	4	1035	1
2026-02-11	16:32:29.410	0	0.245	-0.07	-0.022448	-0.000244	1.015284	1.7145	1.0305	-3.072	0	5	1035	1
2026-02-11	16:32:29.430	0.035	0.21	-0.07	-0.017812	-0.001708	1.0065	1.7085	1.035	-3.075	0	5	1035	1
2026-02-11	16:32:29.450	-0.035	0.175	-0.105	-0.02196	-0.000976	1.00894	1.704	1.035	-3.081	0	5	1035	1
2026-02-11	16:32:29.470	-0.14	0	-0.07	-0.020252	-0.002928	1.009428	1.7115	1.0335	-3.0855	0	5	1035	1
2026-02-11	16:32:29.490	-0.105	0.175	-0.07	-0.020008	0.001952	1.008452	1.7115	1.0395	-3.081	0	5	1035	1
2026-02-11	16:32:29.510	-0.105	0.49	-0.07	-0.02074	0	1.005524	1.7115	1.0395	-3.078	0	5	1035	1
2026-02-11	16:32:29.530	-0.035	0.91	-0.07	-0.024156	-0.000244	1.013332	1.713	1.038	-3.0795	0	5	1035	1
2026-02-11	16:32:29.550	0.035	1.12	-0.07	-0.022936	0.001464	1.0126	1.707	1.0365	-3.0765	0	5	1035	1
2026-02-11	16:32:29.570	0	1.19	-0.035	-0.027816	-0.00244	1.007964	1.7085	1.0395	-3.0765	0	5	1035	1
2026-02-11	16:32:29.590	-0.105	0.91	-0.035	-0.021228	-0.001708	1.014064	1.7115	1.0425	-3.0795	0	5	1035	1
2026-02-11	16:32:29.610	-0.035	0.525	-0.14	-0.029768	-0.001464	1.029192	1.7145	1.035	-3.0825	0	5	1035	1
2026-02-11	16:32:29.630	-0.07	-0.315	-0.14	-0.019276	-0.001464	1.00894	1.7175	1.035	-3.081	0	5	1035	1
2026-02-11	16:32:29.650	-0.14	-0.245	-0.07	-0.02928	-0.001464	1.00772	1.722	1.0305	-3.0765	0	5	1035	1
2026-02-11	16:32:29.670	-0.07	-0.455	-0.105	-0.028548	-0.00122	1.012356	1.725	1.0335	-3.084	0	5	1035	1
2026-02-11	16:32:29.690	-0.035	-0.49	-0.14	-0.02318	-0.003416	1.011624	1.731	1.032	-3.084	0	5	1035	1
2026-02-11	16:32:29.710	-0.07	-0.455	-0.14	-0.021472	0.000244	1.014064	1.7355	1.0335	-3.084	0	5	1035	1
2026-02-11	16:32:29.730	-0.035	-0.245	-0.105	-0.024644	-0.001464	1.009672	1.731	1.038	-3.078	0	5	1035	1
2026-02-11	16:32:29.750	-0.035	0	-0.07	-0.02074	0	1.009672	1.731	1.0395	-3.0795	0	5	1035	1
2026-02-11	16:32:29.770	-0.175	-0.07	-0.07	-0.020984	0.000244	0.99552	1.737	1.038	-3.0855	0	5	1035	1
2026-02-11	16:32:29.790	0.175	0.84	-0.105	-0.025864	0.001708	1.035536	1.737	1.038	-3.0855	0	5	1035	1
2026-02-11	16:32:29.810	0.14	0.455	-0.105	-0.022448	-0.000488	1.00284	1.734	1.041	-3.069	0	5	1035	1
2026-02-11	16:32:29.830	0.105	0.28	-0.105	-0.030012	0.002196	1.013088	1.7325	1.0335	-3.069	0	5	1035	1
2026-02-11	16:32:29.850	-0.07	-0.175	-0.07	-0.02684	-0.001708	1.006012	1.7295	1.0365	-3.0765	0	5	1035	1
2026-02-11	16:32:29.870	-0.175	-0.49	-0.105	-0.024888	0.000244	1.01504	1.731	1.0365	-3.078	0	5	1035	1
2026-02-11	16:32:29.890	-0.07	-0.42	-0.105	-0.02806	-0.002196	1.0126	1.728	1.0395	-3.078	0	5	1035	1
2026-02-11	16:32:29.910	0	-0.35	-0.105	-0.02074	-0.000244	1.01016	1.725	1.0335	-3.084	0	5	1035	1
2026-02-11	16:32:29.930	0	-0.28	-0.105	-0.027084	-0.000244	1.012844	1.7025	1.041	-3.081	0	5	1035	1
2026-02-11	16:32:29.950	0	-0.175	-0.105	-0.023912	-0.00366	1.010648	1.7085	1.0365	-3.0735	0	5	1035	1
2026-02-11	16:32:29.970	-0.035	0.035	-0.07	-0.025864	-0.003172	1.01138	1.7145	1.035	-3.078	0	5	1035	1
2026-02-11	16:32:29.990	0.07	0.07	-0.07	-0.02684	-0.00122	1.008208	1.719	1.0365	-3.078	0	5	1035	1
2026-02-11	16:32:30.010	0	0	-0.07	-0.022448	-0.005124	1.01382	1.713	1.0365	-3.075	0	5	1035	1
2026-02-11	16:32:30.030	0	-0.105	-0.07	-0.027328	-0.002196	1.022848	1.71	1.035	-3.075	0	5	1035	1
2026-02-11	16:32:30.050	0.21	-1.26	-0.07	-0.026596	0.000488	1.014552	1.7055	1.0335	-3.0765	0	5	1035	1
2026-02-11	16:32:30.070	0.14	-1.925	-0.14	-0.020496	0.000244	1.006988	1.7085	1.032	-3.078	0	5	1035	1
2026-02-11	16:32:30.090	-0.105	-1.61	-0.14	-0.019764	-0.000732	1.01138	1.707	1.0335	-3.081	0	5	1035	1
2026-02-11	16:32:30.110	-0.07	-1.365	-0.14	-0.021228	-0.000488	1.01138	1.701	1.035	-3.0825	0	5	1035	1
2026-02-11	16:32:30.130	0	-1.12	-0.14	-0.020008	0.002684	1.001132	1.704	1.0335	-3.078	0	5	1035	1
2026-02-11	16:32:30.150	-0.21	-0.56	-0.105	-0.023424	-0.00244	1.017724	1.704	1.035	-3.0735	0	5	1035	1
2026-02-11	16:32:30.170	-0.105	-0.35	-0.105	-0.023668	0	1.012356	1.707	1.035	-3.075	0	5	1035	1
2026-02-11	16:32:30.190	-0.035	-0.14	-0.105	-0.02074	0.000976	1.0126	1.71	1.0395	-3.078	0	5	1035	1
2026-02-11	16:32:30.210	-0.105	-0.21	-0.105	-0.020984	0	1.0126	1.7085	1.038	-3.0795	0	5	1035	1
2026-02-11	16:32:30.230	-0.105	-0.42	-0.14	-0.020984	0.002196	1.01382	1.7115	1.038	-3.081	0	5	1035	1
2026-02-11	16:32:30.250	-0.035	-0.63	-0.14	-0.026108	-0.000244	1.00894	1.722	1.0395	-3.0765	0	5	1035	1
2026-02-11	16:32:30.270	0	-0.805	-0.14	-0.02196	0.003416	1.005036	1.7235	1.0365	-3.075	0	5	1035	1
2026-02-11	16:32:30.290	-0.07	-0.945	-0.105	-0.021228	-0.000732	1.009184	1.719	1.035	-3.0765	0	5	1035	1
2026-02-11	16:32:30.310	-0.14	-1.26	-0.14	-0.028792	0.002684	1.01626	1.7205	1.0365	-3.0735	0	5	1035	1
2026-02-11	16:32:30.330	-0.175	-1.085	-0.105	-0.020984	-0.00488	1.008696	1.722	1.0395	-3.0735	0	5	1035	1
2026-02-11	16:32:30.350	-0.105	-0.735	-0.14	-0.017324	0.000244	1.00772	1.716	1.035	-3.084	0	5	1035	1
2026-02-11	16:32:30.370	-0.07	-0.105	-0.105	-0.02074	0.00366	1.007964	1.722	1.0305	-3.0825	0	5	1035	1
2026-02-11	16:32:30.390	-0.07	0.21	-0.035	-0.019032	0.001464	1.006744	1.7235	1.0395	-3.087	0	5	1035	1
2026-02-11	16:32:30.410	-0.175	0.385	-0.07	-0.021472	-0.002196	1.015528	1.7265	1.0335	-3.0825	0	6	1035	1
2026-02-11	16:32:30.430	-0.105	0.21	-0.035	-0.024644	-0.000244	1.012112	1.734	1.044	-3.0795	0	6	1035	1
2026-02-11	16:32:30.450	-0.105	-0.245	-0.07	-0.02318	0.002196	1.010648	1.734	1.0335	-3.075	0	6	1035	1
2026-02-11	16:32:30.470	-0.245	-0.385	-0.105	-0.020008	-0.000976	1.012356	1.734	1.044	-3.0855	0	6	1035	1
2026-02-11	16:32:30.490	-0.14	-0.595	-0.105	-0.023668	-0.001708	1.009916	1.7295	1.0365	-3.075	0	6	1035	1
2026-02-11	16:32:30.510	-0.245	-0.875	-0.105	-0.01708	-0.014152	1.049932	1.7295	1.0365	-3.075	0	6	1035	1
2026-02-11	16:32:30.530	-0.315	-0.805	-0.105	-0.017324	0	1.02114	1.728	1.032	-3.0765	0	6	1035	1
2026-02-11	16:32:30.550	0	-0.175	-0.14	-0.020008	-0.002196	0.985028	1.7295	1.032	-3.0795	0	6	1035	1
2026-02-11	16:32:30.570	0.035	0.035	-0.14	-0.023424	0.000244	1.0065	1.7295	1.035	-3.0795	0	6	1035	1
2026-02-11	16:32:30.590	0.035	0.035	-0.105	-0.018056	0.00122	0.999424	1.728	1.035	-3.078	0	6	1035	1
2026-02-11	16:32:30.610	0.035	0.175	-0.105	-0.0183	0.003172	1.008696	1.7175	1.0365	-3.0765	0	6	1034	1
2026-02-11	16:32:30.630	-0.105	0.035	-0.07	-0.023912	-0.00122	1.01626	1.71	1.0335	-3.0735	0	6	1034	1
2026-02-11	16:32:30.650	-0.105	-0.14	-0.105	-0.017568	0	1.01138	1.713	1.0275	-3.0735	0	6	1034	1
2026-02-11	16:32:30.670	-0.07	-0.28	-0.07	-0.023424	0.005612	0.998936	1.7055	1.041	-3.0795	0	6	1034	1
2026-02-11	16:32:30.690	0	-0.49	-0.14	-0.021472	0.00122	1.01138	1.704	1.038	-3.0795	0	6	1034	1
2026-02-11	16:32:30.710	-0.07	-0.595	-0.105	-0.01952	0.00122	1.008696	1.7055	1.038	-3.0795	0	6	1034	1
2026-02-11	16:32:30.730	-0.14	-0.63	-0.105	-0.018056	-0.000244	1.012112	1.707	1.035	-3.0795	0	6	1034	1
2026-02-11	16:32:30.750	-0.035	-0.455	-0.07	-0.021228	-0.004148	1.008452	1.7115	1.035	-3.081	0	6	1034	1
2026-02-11	16:32:30.770	-0.105	-0.175	-0.105	-0.017568	0.001952	1.003328	1.7115	1.041	-3.084	0	6	1034	1
2026-02-11	16:32:30.790	-0.07	0.105	-0.105	-0.026108	0.001708	1.008696	1.7085	1.038	-3.081	0	6	1034	1
2026-02-11	16:32:30.810	0.07	0.35	-0.105	-0.020496	-0.001952	1.013332	1.704	1.0365	-3.0765	0	6	1034	1
2026-02-11	16:32:30.830	-0.035	0.175	-0.07	-0.02562	0.000488	1.010404	1.707	1.038	-3.075	0	6	1034	1
2026-02-11	16:32:30.850	-0.07	0	-0.07	-0.023424	0.002684	1.010648	1.7085	1.035	-3.0735	0	6	1034	1
2026-02-11	16:32:30.870	-0.14	-0.28	-0.105	-0.020984	0.000244	1.012356	1.704	1.035	-3.0765	0	6	1034	1
2026-02-11	16:32:30.890	-0.07	-0.525	-0.07	-0.018544	-0.004636	1.006988	1.704	1.035	-3.0765	0	6	1034	1
2026-02-11	16:32:30.910	-0.07	-0.49	-0.105	-0.019276	-0.001708	1.009428	1.719	1.0395	-3.081	0	6	1034	1
2026-02-11	16:32:30.930	-0.07	-0.35	-0.105	-0.018056	-0.001952	1.012356	1.713	1.0425	-3.087	0	6	1034	1
2026-02-11	16:32:30.950	-0.07	-0.28	-0.105	-0.020008	0.002928	1.011624	1.7175	1.035	-3.081	0	6	1034	1
2026-02-11	16:32:30.970	-0.105	-0.21	-0.105	-0.0183	-0.004148	1.01138	1.71	1.038	-3.081	0	6	1034	1
2026-02-11	16:32:30.990	-0.14	-0.07	-0.07	-0.021716	-0.000244	1.011868	1.7115	1.041	-3.081	0	6	1034	1
2026-02-11	16:32:31.010	-0.07	0	-0.07	-0.02318	0.00122	1.011868	1.7205	1.0365	-3.0765	0	6	1034	1
2026-02-11	16:32:31.030	-0.035	0	-0.105	-0.023668	-0.00122	1.013576	1.719	1.0365	-3.0795	0	6	1034	1
2026-02-11	16:32:31.050	-0.07	-0.105	-0.105	-0.02074	0	1.010648	1.707	1.035	-3.0795	0	6	1034	1
2026-02-11	16:32:31.070	-0.07	-0.35	-0.105	-0.018544	-0.003172	1.012844	1.7205	1.0335	-3.0795	0	6	1034	1
2026-02-11	16:32:31.090	-0.105	-0.49	-0.07	-0.018544	-0.002196	1.012112	1.7325	1.035	-3.081	0	6	1034	1
2026-02-11	16:32:31.110	-0.105	-0.56	-0.14	-0.020252	0.001708	1.009916	1.731	1.0335	-3.0825	0	6	1034	1
2026-02-11	16:32:31.130	-0.105	-0.455	-0.105	-0.018544	-0.001464	1.012112	1.731	1.032	-3.081	0	6	1034	1
2026-02-11	16:32:31.150	-0.07	-0.28	-0.105	-0.018056	0.000732	1.009672	1.734	1.041	-3.075	0	6	1034	1
2026-02-11	16:32:31.170	-0.035	-0.14	-0.105	-0.020008	-0.000732	1.01138	1.71	1.035	-3.0735	0	6	1034	1
2026-02-11	16:32:31.190	-0.105	-0.07	-0.07	-0.018788	0.000488	1.006744	1.713	1.035	-3.078	0	6	1034	1
2026-02-11	16:32:31.210	-0.07	0	-0.07	-0.025132	-0.001708	1.010404	1.6875	1.032	-3.078	0	6	1034	1
2026-02-11	16:32:31.230	-0.07	-0.07	-0.105	-0.019764	0.004148	1.01138	1.7145	1.0425	-3.078	0	6	1034	1
2026-02-11	16:32:31.250	0	-0.175	-0.07	-0.020252	0.001464	1.008208	1.7145	1.0425	-3.078	0	6	1034	1
2026-02-11	16:32:31.270	-0.105	-0.315	-0.07	-0.019276	-0.001952	1.00894	1.71	1.0365	-3.078	0	6	1034	1
2026-02-11	16:32:31.290	-0.07	-0.35	-0.14	-0.01586	0.003172	1.014308	1.7085	1.0335	-3.0765	0	6	1034	1
2026-02-11	16:32:31.310	-0.105	-0.455	-0.105	-0.019276	0.000244	1.013088	1.713	1.0365	-3.075	0	6	1034	1
2026-02-11	16:32:31.330	-0.07	-0.35	-0.105	-0.018544	-0.004392	1.010892	1.713	1.0395	-3.0795	0	6	1034	1
2026-02-11	16:32:31.350	-0.035	-0.28	-0.105	-0.021716	-0.001708	1.011624	1.713	1.0395	-3.0795	0	6	1034	1
2026-02-11	16:32:31.370	-0.07	-0.175	-0.105	-0.018056	-0.000732	1.010648	1.7115	1.0365	-3.078	0	6	1034	1
2026-02-11	16:32:31.390	-0.07	-0.105	-0.14	-0.020984	-0.00122	1.011136	1.7085	1.0335	-3.0765	0	6	1034	1
2026-02-11	16:32:31.410	-0.035	-0.035	-0.105	-0.020984	0	1.009916	1.7085	1.0335	-3.078	0	6	1034	1
2026-02-11	16:32:31.430	-0.07	-0.07	-0.07	-0.021228	-0.001708	1.0126	1.7115	1.0335	-3.0795	0	6	1034	1
2026-02-11	16:32:31.450	-0.07	-0.21	-0.07	-0.020496	0.000244	1.009672	1.7205	1.035	-3.0765	0	6	1034	1
2026-02-11	16:32:31.470	-0.105	-0.315	-0.105	-0.017812	-0.00244	1.009184	1.7175	1.0335	-3.0855	0	6	1034	1
2026-02-11	16:32:31.490	-0.07	-0.455	-0.105	-0.021228	0.001708	1.009916	1.7085	1.0395	-3.0825	0	6	1034	1
2026-02-11	16:32:31.510	-0.14	-0.42	-0.105	-0.023668	-0.00122	1.01016	1.7085	1.0365	-3.075	0	6	1034	1
2026-02-11	16:32:31.530	-0.07	-0.315	-0.105	-0.017568	0.000732	1.013088	1.71	1.041	-3.0735	0	6	1034	1
2026-02-11	16:32:31.550	-0.07	-0.245	-0.105	-0.02074	-0.002196	1.0065	1.71	1.041	-3.0765	0	6	1034	1
2026-02-11	16:32:31.570	-0.07	-0.175	-0.105	-0.022692	0.001952	1.0126	1.722	1.0335	-3.084	0	6	1034	1
2026-02-11	16:32:31.590	-0.07	-0.105	-0.105	-0.019764	-0.00244	1.00894	1.7145	1.029	-3.081	0	6	1034	1
2026-02-11	16:32:31.610	-0.07	-0.105	-0.105	-0.020496	-0.00244	1.011868	1.7145	1.029	-3.081	0	6	1034	1
2026-02-11	16:32:31.630	-0.035	-0.105	-0.14	-0.025132	-0.001952	1.00894	1.7295	1.0365	-3.078	0	6	1034	1
2026-02-11	16:32:31.650	-0.07	-0.245	-0.105	-0.020252	-0.000976	1.012356	1.7325	1.0365	-3.075	0	6	1034	1
2026-02-11	16:32:31.670	-0.105	-0.35	-0.105	-0.020252	-0.000976	1.014064	1.725	1.0335	-3.0765	0	6	1034	1
2026-02-11	16:32:31.690	-0.105	-0.385	-0.14	-0.020252	-0.002196	1.011868	1.734	1.038	-3.081	0	6	1034	1
2026-02-11	16:32:31.710	-0.035	-0.35	-0.14	-0.020984	-0.002684	1.011136	1.7325	1.0425	-3.087	0	6	1034	1
2026-02-11	16:32:31.730	-0.07	-0.28	-0.105	-0.023424	0.000488	1.009184	1.7355	1.032	-3.0765	0	6	1034	1
2026-02-11	16:32:31.750	-0.07	-0.245	-0.105	-0.022448	-0.001464	1.012112	1.7265	1.0395	-3.075	0	6	1034	1
2026-02-11	16:32:31.770	-0.07	-0.175	-0.105	-0.020008	0	1.011868	1.7295	1.038	-3.0855	0	6	1034	1
2026-02-11	16:32:31.790	-0.07	-0.07	-0.07	-0.018788	0.002196	1.013332	1.7265	1.0365	-3.081	0	6	1034	1
2026-02-11	16:32:31.810	-0.07	-0.07	-0.07	-0.01952	0.000976	1.0126	1.722	1.035	-3.078	0	5	1034	1
2026-02-11	16:32:31.830	-0.07	-0.21	-0.105	-0.019032	0.00244	1.014552	1.7145	1.035	-3.0795	0	5	1034	1
2026-02-11	16:32:31.850	-0.07	-0.35	-0.105	-0.019032	-0.002928	1.013088	1.7115	1.032	-3.0825	0	5	1034	1
2026-02-11	16:32:31.870	-0.105	-0.385	-0.14	-0.022204	0	1.009672	1.7115	1.0305	-3.081	0	5	1034	1
2026-02-11	16:32:31.890	-0.07	-0.455	-0.105	-0.015372	0	1.007232	1.71	1.0365	-3.072	0	5	1034	1
2026-02-11	16:32:31.910	-0.175	-0.14	-0.105	-0.020252	-0.00122	1.010404	1.7145	1.0395	-3.069	0	5	1034	1
2026-02-11	16:32:31.930	-0.175	0.28	-0.07	-0.018544	0	1.011868	1.713	1.0395	-3.0765	0	5	1034	1
2026-02-11	16:32:31.950	0	0.455	0	-0.02074	0.000244	1.022848	1.707	1.041	-3.0825	0	5	1034	1
2026-02-11	16:32:31.970	0.07	-0.07	0	-0.023668	-0.000488	1.015772	1.707	1.0425	-3.084	0	5	1034	1
2026-02-11	16:32:31.990	0	-0.245	-0.035	-0.022204	0.009028	1.019188	1.707	1.0425	-3.084	0	5	1034	1
2026-02-11	16:32:32.010	0.56	-0.175	0.07	-0.021716	0	0.976488	1.7115	1.0365	-3.0795	0	5	1034	1
2026-02-11	16:32:32.030	0.665	-0.735	-0.035	-0.010492	0.006344	0.979416	1.71	1.047	-3.0765	0	5	1034	1
2026-02-11	16:32:32.050	-0.455	0.665	-0.105	-0.022204	0.000976	1.025044	1.7205	1.0335	-3.078	0	5	1034	1
2026-02-11	16:32:32.070	-0.455	0.07	-0.14	-0.017812	-0.003416	1.01504	1.7205	1.0365	-3.0765	0	5	1034	1
2026-02-11	16:32:32.090	-0.245	-0.14	-0.14	-0.019276	-0.000244	1.024556	1.7175	1.0335	-3.0765	0	5	1034	1
2026-02-11	16:32:32.110	-0.105	-0.77	-0.14	-0.058316	0.022448	0.998448	1.7145	1.032	-3.0795	0	5	1034	1
2026-02-11	16:32:32.130	0.07	-0.525	-0.105	-0.012444	0.00366	1.011868	1.7115	1.0395	-3.081	0	5	1034	1
2026-02-11	16:32:32.150	0.035	0.175	-0.07	-0.0183	-0.00244	1.008208	1.7115	1.0425	-3.0795	0	5	1034	1
2026-02-11	16:32:32.170	0.035	0.105	-0.105	-0.018056	-0.00366	1.006256	1.716	1.0425	-3.0795	0	5	1034	1
2026-02-11	16:32:32.190	-0.105	0.315	-0.105	-0.027572	0.004636	1.020652	1.722	1.0395	-3.0735	0	5	1034	1
2026-02-11	16:32:32.210	-0.105	0.105	-0.14	-0.021472	-0.000976	1.005524	1.7175	1.038	-3.0675	0	5	1034	1
2026-02-11	16:32:32.230	-0.14	0.105	-0.105	-0.0183	0.012932	1.025532	1.71	1.038	-3.075	0	5	1034	1
2026-02-11	16:32:32.250	0	-0.385	-0.14	-0.017324	-0.004636	1.001864	1.7265	1.0335	-3.0765	0	5	1034	1
2026-02-11	16:32:32.270	-0.14	-0.245	-0.07	-0.01952	0.00488	1.01626	1.7295	1.044	-3.069	0	5	1034	1
2026-02-11	16:32:32.290	-0.035	-0.21	-0.07	-0.020252	-0.000976	1.01016	1.7235	1.0335	-3.0735	0	5	1034	1
2026-02-11	16:32:32.310	-0.035	-0.07	-0.035	-0.023424	-0.000488	1.015772	1.725	1.0305	-3.072	0	5	1034	1
2026-02-11	16:32:32.330	0	-0.35	-0.105	-0.021228	-0.007076	1.012356	1.731	1.0425	-3.0765	0	5	1034	1
2026-02-11	16:32:32.350	-0.035	-0.385	-0.14	-0.030012	0.00122	0.991616	1.731	1.038	-3.0765	0	5	1034	1
2026-02-11	16:32:32.370	-0.175	-0.42	-0.105	-0.02196	-0.008296	1.01382	1.728	1.0335	-3.0735	0	5	1034	1
2026-02-11	16:32:32.390	-0.14	-0.42	-0.105	-0.016104	-0.00366	1.010404	1.728	1.0305	-3.075	0	5	1034	1
2026-02-11	16:32:32.410	-0.035	-0.175	-0.105	-0.022936	-0.004636	0.996252	1.734	1.032	-3.081	0	5	1033	1
2026-02-11	16:32:32.430	0.07	0.035	-0.07	-0.019276	0.001952	1.006012	1.7325	1.035	-3.081	0	5	1033	1
2026-02-11	16:32:32.450	0.07	0.035	-0.105	-0.020984	0	1.015528	1.7295	1.035	-3.0795	0	5	1033	1
2026-02-11	16:32:32.470	0.07	0	-0.14	-0.021472	-0.002684	1.016016	1.722	1.0365	-3.0765	0	5	1033	1
2026-02-11	16:32:32.490	0.175	-0.035	-0.14	-0.02684	0.003172	1.009184	1.7115	1.035	-3.075	0	5	1033	1
2026-02-11	16:32:32.510	0.07	-0.035	-0.14	-0.023424	-0.003172	1.014064	1.707	1.0365	-3.0735	0	5	1033	1
2026-02-11	16:32:32.530	-0.14	-0.245	-0.105	-0.018788	-0.005124	1.004792	1.7055	1.0425	-3.0735	0	5	1033	1
2026-02-11	16:32:32.550	-0.175	-0.245	-0.105	-0.023912	-0.00244	1.01748	1.7055	1.0365	-3.0705	0	5	1033	1
2026-02-11	16:32:32.570	-0.07	-0.28	-0.105	-0.020496	-0.000976	1.013088	1.7085	1.035	-3.0705	0	5	1033	1
2026-02-11	16:32:32.590	-0.035	-0.21	-0.07	-0.01952	0.000976	1.0126	1.71	1.0305	-3.075	0	5	1033	1
2026-02-11	16:32:32.610	0.035	-0.28	-0.105	-0.01952	-0.002196	1.012112	1.7085	1.032	-3.0765	0	6	1033	1
2026-02-11	16:32:32.630	0.035	-0.28	-0.105	-0.020984	-0.000244	1.010648	1.7085	1.035	-3.0765	0	6	1033	1
2026-02-11	16:32:32.650	0.14	-0.245	-0.105	-0.022448	0.000732	1.010404	1.71	1.035	-3.075	0	6	1033	1
2026-02-11	16:32:32.670	0.105	-0.035	-0.105	-0.019764	0	1.006744	1.7085	1.038	-3.0765	0	6	1033	1
2026-02-11	16:32:32.690	0.035	0.245	-0.07	-0.021228	-0.031964	1.084824	1.707	1.038	-3.078	0	6	1033	1
2026-02-11	16:32:32.710	0.14	0.175	-0.07	-0.017812	-0.005856	1.002108	1.7085	1.0365	-3.0765	0	6	1033	1
2026-02-11	16:32:32.730	-0.07	0.56	-0.07	-0.018544	0.001952	1.021628	1.7085	1.0365	-3.0765	0	6	1033	1
2026-02-11	16:32:32.750	-0.07	0.035	-0.105	-0.02196	0.000976	0.998936	1.716	1.0215	-3.0675	0	6	1033	1
2026-02-11	16:32:32.770	-0.945	-1.61	-0.07	-0.023668	0.008296	0.994056	1.722	1.032	-3.0795	0	6	1033	1
2026-02-11	16:32:32.790	-2.1	-2.345	-0.07	-0.020008	-0.003904	1.01748	1.725	1.038	-3.0735	0	6	1033	1
2026-02-11	16:32:32.810	-1.505	-1.82	-0.105	-0.02562	-0.00488	1.022604	1.731	1.035	-3.0765	0	6	1034	1
2026-02-11	16:32:32.830	-0.84	-1.61	-0.07	-0.020252	-0.003904	1.015772	1.698	1.0275	-3.072	0	6	1034	1
2026-02-11	16:32:32.850	-0.455	-1.33	0	-0.029768	0.003904	1.023092	1.704	1.038	-3.0765	0	6	1034	1
2026-02-11	16:32:32.870	-0.14	-0.805	-0.035	0.01342	-0.032452	1.02236	1.707	1.032	-3.0855	0	6	1034	1
2026-02-11	16:32:32.890	0.42	0.21	-0.175	-0.015128	0.003172	1.006744	1.716	1.026	-3.0735	0	6	1034	1
2026-02-11	16:32:32.910	0.035	0.245	-0.105	-0.016348	-0.002196	1.000888	1.713	1.0305	-3.0735	0	6	1034	1
2026-02-11	16:32:32.930	-0.07	0.455	-0.07	-0.015372	0.005368	1.025288	1.719	1.032	-3.0735	0	6	1034	1
2026-02-11	16:32:32.950	-0.245	0.21	-0.035	-0.012932	-0.007808	1.01138	1.7325	1.035	-3.0765	0	6	1034	1
2026-02-11	16:32:32.970	-0.56	-0.56	-0.07	-0.030988	0.006344	1.010892	1.7325	1.038	-3.072	0	6	1034	1
2026-02-11	16:32:32.990	-1.12	-1.575	-0.035	-0.001464	-0.000732	1.047248	1.725	1.0365	-3.0735	0	6	1034	1
2026-02-11	16:32:33.010	-0.315	-0.84	-0.035	-0.01952	-0.001464	1.017724	1.728	1.0365	-3.075	0	7	1034	1
2026-02-11	16:32:33.030	-0.175	-0.98	-0.035	-0.018056	0.000732	0.99918	1.731	1.032	-3.075	0	7	1034	1
2026-02-11	16:32:33.050	-0.035	-0.98	-0.07	-0.01708	-0.015372	1.00528	1.728	1.029	-3.081	0	7	1034	1
2026-02-11	16:32:33.070	-0.07	-1.12	-0.07	-0.014884	-0.001464	1.008452	1.716	1.0425	-3.069	0	7	1034	1
2026-02-11	16:32:33.090	-0.14	-1.12	-0.105	-0.019764	0.000732	0.991128	1.719	1.041	-3.0735	0	7	1034	1
2026-02-11	16:32:33.110	-0.07	-0.525	-0.14	-0.021228	-0.001952	1.009672	1.7235	1.038	-3.078	0	7	1034	1
2026-02-11	16:32:33.130	0.245	0.07	-0.175	-0.019764	-0.001464	1.002108	1.7265	1.035	-3.0765	0	7	1034	1
2026-02-11	16:32:33.150	0	0.035	-0.105	-0.019764	-0.000732	0.999424	1.728	1.038	-3.0765	0	7	1034	1
2026-02-11	16:32:33.170	-0.07	0.175	-0.105	-0.022448	0.00122	1.019432	1.7265	1.041	-3.075	0	7	1034	1
2026-02-11	16:32:33.190	0.035	0.035	-0.07	-0.013908	-0.002684	1.001376	1.713	1.0365	-3.075	0	7	1034	1
2026-02-11	16:32:33.210	0.42	0.945	-0.035	-0.020252	-0.004148	1.025288	1.704	1.0335	-3.0765	0	8	1035	1
2026-02-11	16:32:33.230	0.245	0.105	-0.07	-0.01708	0.00244	0.999424	1.7085	1.038	-3.0795	0	8	1035	1
2026-02-11	16:32:33.250	-0.175	-0.07	-0.07	-0.022692	-0.0061	1.010648	1.707	1.035	-3.0765	0	8	1035	1
2026-02-11	16:32:33.270	-0.28	-0.595	-0.07	-0.017568	-0.005368	1.016016	1.704	1.032	-3.0705	0	8	1035	1
2026-02-11	16:32:33.290	0.175	-0.7	-0.07	-0.021716	-0.00366	1.01626	1.7055	1.038	-3.066	0	8	1035	1
2026-02-11	16:32:33.310	0.21	-0.56	-0.07	-0.01952	-0.003416	1.015528	1.701	1.038	-3.0795	0	8	1035	1
2026-02-11	16:32:33.330	0.14	-0.455	-0.14	0.003172	-0.011468	0.996984	1.698	1.0425	-3.078	0	8	1035	1
2026-02-11	16:32:33.350	-0.21	-0.07	-0.175	-0.023912	0.003416	1.016992	1.713	1.044	-3.078	0	8	1035	1
2026-02-11	16:32:33.370	-0.105	0	-0.14	-0.01708	0	1.0065	1.716	1.038	-3.081	0	8	1035	1
2026-02-11	16:32:33.390	-0.035	0	-0.07	-0.019032	-0.005124	1.0065	1.7085	1.0395	-3.0735	0	8	1035	1
2026-02-11	16:32:33.410	-0.105	-0.035	-0.105	-0.0183	-0.000732	1.011868	1.7145	1.041	-3.075	0	9	1035	1
2026-02-11	16:32:33.430	-0.14	-0.28	-0.035	-0.017812	-0.004636	1.015284	1.7055	1.038	-3.0765	0	9	1035	1
2026-02-11	16:32:33.450	0.035	-0.42	-0.105	-0.01952	-0.002196	1.006256	1.7055	1.038	-3.0765	0	9	1035	1
2026-02-11	16:32:33.470	0	-0.175	-0.105	-0.016348	-0.000976	1.007964	1.7145	1.038	-3.075	0	9	1035	1
2026-02-11	16:32:33.490	-0.105	-0.035	-0.105	-0.01464	-0.00122	1.0126	1.728	1.0395	-3.0765	0	9	1035	1
2026-02-11	16:32:33.510	-0.175	0.07	-0.14	-0.016836	-0.001708	1.009428	1.731	1.041	-3.0795	0	9	1035	1
2026-02-11	16:32:33.530	-0.175	0.035	-0.14	-0.01952	-0.001952	1.01016	1.728	1.044	-3.075	0	9	1035	1
2026-02-11	16:32:33.550	-0.14	0.035	-0.105	-0.018788	-0.002684	1.016992	1.7085	1.0335	-3.0705	0	9	1035	1
2026-02-11	16:32:33.570	0.35	0.07	-0.07	-0.037576	0.026108	0.9638	1.7115	1.029	-3.072	0	9	1035	1
2026-02-11	16:32:33.590	0.245	-0.805	-0.14	-0.032208	-0.002684	1.006256	1.7115	1.0395	-3.081	0	9	1035	1
2026-02-11	16:32:33.610	-0.315	0.28	-0.07	-0.010004	-0.007808	1.0309	1.7175	1.0395	-3.0705	0	10	1034	1
2026-02-11	16:32:33.630	-0.315	-0.07	-0.105	-0.021472	0.004392	0.997716	1.71	1.032	-3.078	0	10	1034	1
2026-02-11	16:32:33.650	-0.14	-0.21	-0.105	-0.00366	-0.000244	1.021628	1.7175	1.032	-3.078	0	10	1034	1
2026-02-11	16:32:33.670	-0.14	-0.245	-0.14	-0.019276	-0.00122	1.016748	1.7235	1.0335	-3.0795	0	10	1034	1
2026-02-11	16:32:33.690	-0.07	-0.49	-0.14	-0.019032	-0.002928	1.00894	1.7295	1.035	-3.081	0	10	1034	1
2026-02-11	16:32:33.710	-0.105	-0.28	-0.105	-0.015616	-0.00488	1.010404	1.737	1.035	-3.081	0	10	1034	1
2026-02-11	16:32:33.730	-0.105	-0.14	-0.105	-0.017324	-0.003904	1.011624	1.734	1.0335	-3.084	0	10	1034	1
2026-02-11	16:32:33.750	-0.105	-0.105	-0.105	-0.017568	-0.001952	1.012356	1.7295	1.035	-3.0825	0	10	1034	1
2026-02-11	16:32:33.770	-0.035	-0.105	-0.07	-0.0183	-0.003904	1.010892	1.7235	1.038	-3.078	0	10	1034	1
2026-02-11	16:32:33.790	-0.07	-0.245	-0.07	-0.017812	-0.00122	1.010648	1.7235	1.038	-3.0795	0	10	1034	1
2026-02-11	16:32:33.810	-0.105	-0.245	-0.105	-0.017324	0.000976	1.011624	1.7295	1.0365	-3.0795	0	10	1033	1
2026-02-11	16:32:33.830	-0.105	-0.14	-0.105	-0.020496	0.000244	1.013576	1.7295	1.0365	-3.0795	0	10	1033	1
2026-02-11	16:32:33.850	0	-0.14	-0.105	-0.018056	0	1.009672	1.725	1.0425	-3.0765	0	10	1033	1
2026-02-11	16:32:33.870	-0.07	-0.21	-0.105	-0.019764	-0.000976	1.007476	1.7265	1.029	-3.075	0	10	1033	1
2026-02-11	16:32:33.890	-0.105	-0.21	-0.105	-0.018788	0.004636	1.014552	1.7355	1.038	-3.075	0	10	1033	1
2026-02-11	16:32:33.910	-0.07	-0.35	-0.14	-0.016104	0.000732	1.01016	1.7235	1.0365	-3.0705	0	10	1033	1
2026-02-11	16:32:33.930	-0.245	-0.455	-0.14	-0.017324	-0.00122	1.009428	1.7295	1.041	-3.081	0	10	1033	1
2026-02-11	16:32:33.950	-0.175	-0.07	-0.105	-0.015372	-0.001952	1.010404	1.7235	1.038	-3.069	0	10	1033	1
2026-02-11	16:32:33.970	-0.07	0	-0.105	-0.016592	-0.001708	1.013332	1.71	1.0395	-3.0825	0	10	1033	1
2026-02-11	16:32:33.990	-0.105	-0.315	-0.105	-0.0183	-0.001952	1.009428	1.707	1.041	-3.081	0	10	1033	1
2026-02-11	16:32:34.010	-0.175	-0.35	-0.105	-0.014884	-0.000976	1.00894	1.707	1.035	-3.0735	0	11	1033	1
2026-02-11	16:32:34.030	-0.21	-0.21	-0.105	-0.016348	-0.000488	1.016992	1.7055	1.0365	-3.084	0	11	1033	1
2026-02-11	16:32:34.050	-0.14	-0.35	-0.07	-0.02074	-0.00732	0.987956	1.7115	1.0425	-3.072	0	11	1033	1
2026-02-11	16:32:34.070	-0.14	-0.28	-0.105	0.01952	0.015616	1.059692	1.7085	1.047	-3.075	0	11	1033	1
2026-02-11	16:32:34.090	-0.21	-0.805	-0.105	0.002928	-0.015616	0.998692	1.701	1.0305	-3.0765	0	11	1033	1
2026-02-11	16:32:34.110	-0.175	-0.14	-0.035	-0.02318	-0.005856	1.021384	1.701	1.0425	-3.0825	0	11	1033	1
2026-02-11	16:32:34.130	-0.14	-0.63	-0.035	-0.017812	-0.003172	1.00894	1.713	1.0395	-3.075	0	11	1033	1
2026-02-11	16:32:34.150	0	-0.525	-0.07	-0.014884	-0.007076	0.985272	1.704	1.035	-3.0855	0	11	1033	1
2026-02-11	16:32:34.170	-0.105	-0.385	-0.07	-0.01586	-0.009516	1.020652	1.7055	1.044	-3.078	0	11	1033	1
2026-02-11	16:32:34.190	-0.105	-0.175	-0.105	-0.00854	0.004392	1.006744	1.71	1.038	-3.0795	0	11	1033	1
2026-02-11	16:32:34.210	-0.105	0.07	-0.07	0.034648	-0.031964	1.010404	1.719	1.029	-3.081	0	11	1034	1
2026-02-11	16:32:34.230	0.35	0.735	-0.07	-0.011224	0.000976	1.026996	1.7205	1.029	-3.0825	0	11	1034	1
2026-02-11	16:32:34.250	0.77	1.295	-0.07	-0.018788	-0.00244	1.006256	1.7205	1.035	-3.078	0	11	1034	1
2026-02-11	16:32:34.270	0.28	0.7	-0.105	-0.02074	0.00244	1.00772	1.7265	1.0335	-3.072	0	11	1034	1
2026-02-11	16:32:34.290	-0.455	-0.455	-0.105	-0.023424	0.001464	1.007232	1.719	1.0305	-3.075	0	11	1034	1
2026-02-11	16:32:34.310	-0.91	-1.47	-0.105	-0.019032	-0.003172	1.022116	1.7115	1.038	-3.0765	0	11	1034	1
2026-02-11	16:32:34.330	-0.63	-1.96	-0.14	0.010736	0.008784	1.014796	1.713	1.041	-3.0705	0	11	1034	1
2026-02-11	16:32:34.350	-0.105	-1.155	-0.175	-0.02196	0.000244	1.011136	1.713	1.0365	-3.066	0	11	1034	1
2026-02-11	16:32:34.370	0.175	0	-0.07	-0.017324	-0.005368	1.000888	1.7145	1.035	-3.066	0	11	1034	1
2026-02-11	16:32:34.390	0.035	0	-0.07	-0.011956	0.00244	1.034072	1.719	1.032	-3.0825	0	11	1034	1
2026-02-11	16:32:34.410	-0.07	-0.21	-0.07	-0.03782	-0.007808	1.005768	1.7235	1.038	-3.0795	0	11	1034	1
2026-02-11	16:32:34.430	-0.035	-0.14	-0.105	-0.025864	0.004148	1.014308	1.728	1.0335	-3.0765	0	11	1034	1
2026-02-11	16:32:34.450	-0.14	-0.07	-0.105	-0.016348	-0.001952	1.01138	1.719	1.038	-3.0765	0	11	1034	1
2026-02-11	16:32:34.470	-0.315	-0.175	-0.07	-0.018544	-0.003172	1.011136	1.7265	1.0365	-3.075	0	11	1034	1
2026-02-11	16:32:34.490	-0.21	-0.035	-0.035	-0.016836	-0.01098	0.998204	1.722	1.038	-3.0765	0	11	1034	1
2026-02-11	16:32:34.510	-0.245	-0.07	-0.105	-0.019764	0.009028	1.00284	1.722	1.0395	-3.075	0	11	1034	1
2026-02-11	16:32:34.530	-0.84	-0.7	-0.105	-0.022204	0.004392	1.007232	1.7235	1.0395	-3.0765	0	11	1034	1
2026-02-11	16:32:34.550	-0.63	-1.12	-0.07	-0.010248	-0.020252	1.01626	1.722	1.0395	-3.084	0	11	1034	1
2026-02-11	16:32:34.570	0.35	0.245	-0.035	-0.03294	0.005856	1.02236	1.71	1.044	-3.0735	0	11	1034	1
2026-02-11	16:32:34.590	1.12	1.225	-0.105	-0.020984	0.000244	1.007476	1.704	1.038	-3.0825	0	11	1034	1
2026-02-11	16:32:34.610	0.21	0.7	-0.105	-0.020496	0.000488	1.005524	1.7145	1.0395	-3.0765	0	11	1034	1
2026-02-11	16:32:34.630	-0.735	-0.77	-0.14	-0.015372	-0.002196	1.012844	1.7025	1.035	-3.072	0	11	1034	1
2026-02-11	16:32:34.650	-1.015	-1.54	-0.105	-0.017324	-0.005124	1.02114	1.71	1.0395	-3.0825	0	11	1034	1
2026-02-11	16:32:34.670	-0.42	-0.945	-0.14	-0.020008	-0.020984	0.993568	1.701	1.035	-3.0765	0	11	1034	1
2026-02-11	16:32:34.690	0.035	-0.035	-0.14	-0.027816	-0.001708	0.996496	1.707	1.0275	-3.0765	0	11	1034	1
2026-02-11	16:32:34.710	-0.105	-0.07	-0.105	-0.017568	-0.00488	1.000644	1.704	1.0365	-3.078	0	11	1034	1
2026-02-11	16:32:34.730	0.035	-0.07	-0.07	-0.018788	0.000732	1.005036	1.7085	1.038	-3.078	0	11	1034	1
2026-02-11	16:32:34.750	0	-0.315	-0.105	-0.01952	-0.003172	1.000644	1.7085	1.041	-3.0795	0	11	1034	1
2026-02-11	16:32:34.770	0.035	-0.245	-0.14	-0.039528	-0.01952	0.992836	1.71	1.041	-3.078	0	11	1034	1
2026-02-11	16:32:34.790	0	-0.07	-0.07	-0.0244	0.010004	1.021872	1.7115	1.0365	-3.075	0	11	1034	1
2026-02-11	16:32:34.810	-0.105	0.21	-0.105	-0.016592	-0.003416	1.006256	1.7115	1.0365	-3.0765	0	12	1033	1
2026-02-11	16:32:34.830	0	0.525	-0.07	-0.018056	-0.000976	1.013088	1.716	1.038	-3.078	0	12	1033	1
2026-02-11	16:32:34.850	-0.035	0.385	-0.105	-0.020008	0.002684	1.00772	1.719	1.038	-3.078	0	12	1033	1
2026-02-11	16:32:34.870	-0.105	0.315	-0.07	-0.015128	0.000244	1.02358	1.7145	1.0365	-3.075	0	12	1033	1
2026-02-11	16:32:34.890	-0.07	0.315	-0.07	-0.016104	-0.00244	1.0126	1.719	1.0365	-3.0735	0	12	1033	1
2026-02-11	16:32:34.910	-0.315	-0.315	-0.07	-0.01952	-0.001708	1.013088	1.7265	1.0395	-3.075	0	12	1033	1
2026-02-11	16:32:34.930	-0.385	-0.49	-0.07	-0.014884	-0.001708	1.012356	1.7265	1.0395	-3.075	0	12	1033	1
2026-02-11	16:32:34.950	-0.14	-0.07	-0.105	-0.016836	-0.001952	1.01016	1.704	1.0485	-3.0765	0	12	1033	1
2026-02-11	16:32:34.970	-0.105	0.315	-0.07	-0.01586	0.001464	1.004792	1.7055	1.044	-3.0765	0	12	1033	1
2026-02-11	16:32:34.990	-0.28	0.63	-0.07	-0.013908	-0.002684	1.009672	1.7115	1.041	-3.0765	0	12	1033	1
2026-02-11	16:32:35.010	-0.455	0.84	-0.07	-0.021472	-0.002196	1.010892	1.7085	1.041	-3.078	0	12	1033	1
2026-02-11	16:32:35.030	-0.49	0.77	-0.105	-0.020008	-0.003904	1.014552	1.71	1.0365	-3.0795	0	12	1033	1
2026-02-11	16:32:35.050	-0.28	0.875	-0.07	-0.018056	-0.004392	1.01016	1.713	1.0365	-3.0765	0	12	1033	1
2026-02-11	16:32:35.070	-0.14	0.84	-0.105	-0.0183	-0.00366	1.006988	1.713	1.0365	-3.072	0	12	1033	1
2026-02-11	16:32:35.090	-0.21	0.63	-0.14	-0.0244	-0.000488	1.016016	1.71	1.038	-3.069	0	12	1033	1
2026-02-11	16:32:35.110	0.14	-0.315	-0.14	-0.00488	0.02562	0.988688	1.7055	1.0425	-3.0675	0	12	1033	1
2026-02-11	16:32:35.130	0.735	-0.14	-0.14	-0.023912	-0.015128	0.984052	1.737	1.038	-3.081	0	12	1033	1
2026-02-11	16:32:35.150	-0.315	-0.455	-0.105	-0.018788	0.00122	1.014552	1.731	1.044	-3.075	0	12	1033	1
2026-02-11	16:32:35.170	-0.49	-0.595	-0.105	-0.019032	-0.005856	1.008696	1.7265	1.0335	-3.069	0	12	1033	1
2026-02-11	16:32:35.190	-0.455	-0.245	-0.105	-0.01464	0.010492	1.021384	1.677	1.032	-3.078	0	12	1033	1
2026-02-11	16:32:35.210	-0.035	0.07	-0.105	-0.0183	0.008052	0.988444	1.7115	1.0425	-3.0735	0	12	1032	1
2026-02-11	16:32:35.230	-0.07	0.245	-0.07	-0.020008	0.000244	1.00894	1.7055	1.038	-3.0825	0	12	1032	1
2026-02-11	16:32:35.250	-0.035	0.35	-0.07	-0.019764	-0.000976	1.011624	1.707	1.0455	-3.075	0	12	1032	1
2026-02-11	16:32:35.270	-0.07	0.245	-0.07	-0.020984	-0.002928	1.0126	1.7025	1.0305	-3.072	0	12	1032	1
2026-02-11	16:32:35.290	-0.07	0	-0.07	-0.022448	-0.00122	1.009672	1.7025	1.0305	-3.072	0	12	1032	1
2026-02-11	16:32:35.310	-0.14	-0.28	-0.105	-0.024156	-0.00244	1.011624	1.7025	1.0335	-3.0735	0	12	1032	1
2026-02-11	16:32:35.330	-0.28	-0.595	-0.14	-0.020984	-0.00366	1.012112	1.71	1.0335	-3.072	0	12	1032	1
2026-02-11	16:32:35.350	-0.245	-0.805	-0.105	-0.016836	-0.00854	1.010648	1.7085	1.035	-3.072	0	12	1032	1
2026-02-11	16:32:35.370	-0.14	-0.63	-0.14	-0.01952	-0.00488	1.00894	1.6965	1.0365	-3.0765	0	12	1032	1
2026-02-11	16:32:35.390	-0.245	-0.595	-0.175	-0.020984	-0.00732	1.017236	1.698	1.029	-3.0765	0	12	1032	1
2026-02-11	16:32:35.410	-1.505	-5.25	-26.635	0.110288	0.427244	1.164612	1.704	1.029	-3.075	0	14	1032	1
2026-02-11	16:32:35.430	0.56	3.92	-119.735	-0.0854	-0.008052	0.954528	1.6725	0.9765	-3.078	0	14	1032	1
2026-02-11	16:32:35.450	1.75	-2.94	-147.105	0.157868	-0.310856	0.701012	1.641	0.918	-3.081	0	14	1032	1
2026-02-11	16:32:35.470	1.68	3.57	-66.675	0.07808	0.044164	1.144116	1.539	0.762	-3.078	0	14	1032	1
2026-02-11	16:32:35.490	-0.105	-0.21	-2.45	-0.011468	-0.006588	1.002108	1.4925	0.6975	-3.036	0	14	1032	1
2026-02-11	16:32:35.510	-0.28	-0.525	-0.07	-0.02806	0.001708	1.010892	1.4445	0.636	-2.994	0	14	1032	1
2026-02-11	16:32:35.530	0	-0.42	-0.07	-0.013908	-0.010004	1.007476	1.4475	0.639	-2.988	0	14	1032	1
2026-02-11	16:32:35.550	-0.14	-1.085	-0.07	-0.021716	-0.003172	1.014064	1.4475	0.639	-2.9865	0	14	1032	1
2026-02-11	16:32:35.570	0	-0.735	-0.07	-0.0183	-0.004636	1.009184	1.446	0.6405	-2.9895	0	14	1032	1
