yyyy-MM-dd	HH:mm:ss.fff	gyrX	gyrY	gyrZ	accX	accY	accZ	magX	magY	magZ	Marker	Energy	Angle	Classification
2026-02-11	16:32:06.210	0.21	-0.21	-0.63	-0.049532	0.702964	0.718336	0.483	1.14	-0.228	0	50	731	1
2026-02-11	16:32:06.230	-0.175	-0.28	-0.77	-0.051728	0.698084	0.720288	0.477	1.1445	-0.228	0	50	731	1
2026-02-11	16:32:06.250	-0.105	-0.315	-0.77	-0.052704	0.698084	0.715408	0.4815	1.1535	-0.228	0	50	731	1
2026-02-11	16:32:06.270	0	-0.245	-0.7	-0.051972	0.69906	0.716872	0.4845	1.1385	-0.2265	0	50	731	1
2026-02-11	16:32:06.290	0	-0.28	-0.7	-0.051728	0.701012	0.71614	0.48	1.1355	-0.234	0	50	731	1
2026-02-11	16:32:06.310	-0.21	-0.35	-0.7	-0.048556	0.695644	0.711504	0.477	1.1355	-0.231	0	50	731	1
2026-02-11	16:32:06.330	0	-0.315	-0.595	-0.05002	0.699548	0.718824	0.4755	1.1355	-0.2295	0	50	731	1
2026-02-11	16:32:06.350	-0.035	-0.28	-0.56	-0.053924	0.704672	0.720532	0.4845	1.1445	-0.2265	0	50	731	1
2026-02-11	16:32:06.370	-0.105	-0.14	-0.56	-0.053192	0.702964	0.7137	0.4725	1.137	-0.228	0	50	731	1
2026-02-11	16:32:06.390	-0.315	-0.21	-0.665	-0.047336	0.698572	0.71248	0.48	1.137	-0.228	0	50	731	1
2026-02-11	16:32:06.410	-0.35	-0.245	-0.63	-0.047824	0.696132	0.715896	0.483	1.1385	-0.2265	0	44	731	1
2026-02-11	16:32:06.430	-0.175	-0.315	-0.56	-0.055144	0.702476	0.71858	0.4815	1.1355	-0.234	0	44	731	1
2026-02-11	16:32:06.450	-0.14	-0.28	-0.56	-0.052216	0.696864	0.715896	0.4785	1.1385	-0.2295	0	44	731	1
2026-02-11	16:32:06.470	0.49	-0.14	-0.455	-0.047336	0.692228	0.715408	0.489	1.1385	-0.2295	0	44	731	1
2026-02-11	16:32:06.490	0.525	-0.07	-0.21	-0.047824	0.705892	0.718092	0.489	1.1385	-0.2295	0	44	731	1
2026-02-11	16:32:06.510	0.245	-0.105	-0.28	-0.054412	0.711504	0.720044	0.48	1.1325	-0.234	0	44	731	1
2026-02-11	16:32:06.530	0.175	-0.21	-0.455	-0.0549	0.690276	0.70882	0.477	1.1415	-0.2265	0	44	731	1
2026-02-11	16:32:06.550	0.28	-0.175	-0.56	-0.05246	0.695644	0.720532	0.483	1.1325	-0.228	0	44	731	1
2026-02-11	16:32:06.570	0.14	-0.28	-0.735	-0.047092	0.709308	0.722484	0.4815	1.14	-0.2355	0	44	731	1
2026-02-11	16:32:06.590	0	-0.14	-0.735	-0.049532	0.69296	0.711504	0.4755	1.1355	-0.228	0	44	731	1
2026-02-11	16:32:06.610	-0.035	-0.315	-0.595	-0.05124	0.70028	0.715164	0.477	1.1415	-0.2265	0	38	731	1
2026-02-11	16:32:06.630	-0.035	-0.105	-0.49	-0.052948	0.700524	0.713212	0.483	1.1385	-0.2325	0	38	731	1
2026-02-11	16:32:06.650	0.175	-0.14	-0.49	-0.047824	0.69418	0.71126	0.48	1.137	-0.231	0	38	731	1
2026-02-11	16:32:06.670	0.28	-0.175	-0.315	-0.048556	0.701744	0.717848	0.477	1.134	-0.228	0	38	731	1
2026-02-11	16:32:06.690	0.07	-0.14	-0.385	-0.053192	0.703208	0.715408	0.4785	1.1325	-0.225	0	38	731	1
2026-02-11	16:32:06.710	-0.21	-0.105	-0.525	-0.05124	0.697596	0.715408	0.48	1.134	-0.225	0	38	731	1
2026-02-11	16:32:06.730	-0.42	-0.175	-0.665	-0.05368	0.700036	0.717116	0.486	1.1355	-0.222	0	38	731	1
2026-02-11	16:32:06.750	-0.385	-0.21	-0.63	-0.04758	0.70028	0.717604	0.4725	1.1385	-0.231	0	38	731	1
2026-02-11	16:32:06.770	-0.245	-0.175	-0.49	-0.052216	0.70028	0.713212	0.474	1.14	-0.225	0	38	731	1
2026-02-11	16:32:06.790	-0.07	-0.035	-0.315	-0.049288	0.698084	0.713456	0.474	1.14	-0.225	0	38	731	1
2026-02-11	16:32:06.810	-0.175	0.035	-0.315	-0.050264	0.703452	0.72102	0.4695	1.1355	-0.225	0	34	731	1
2026-02-11	16:32:06.830	-0.315	0.105	-0.42	-0.05612	0.697108	0.71492	0.474	1.134	-0.225	0	34	731	1
2026-02-11	16:32:06.850	-0.315	-0.035	-0.49	-0.05002	0.695888	0.718092	0.4845	1.137	-0.2265	0	34	731	1
2026-02-11	16:32:06.870	-0.175	-0.105	-0.49	-0.0488	0.69906	0.719556	0.483	1.1325	-0.2295	0	34	731	1
2026-02-11	16:32:06.890	-0.07	-0.035	-0.385	-0.049044	0.701256	0.713456	0.483	1.134	-0.2295	0	34	731	1
2026-02-11	16:32:06.910	-0.105	0.07	-0.35	-0.050508	0.701744	0.71858	0.48	1.1355	-0.2325	0	34	731	1
2026-02-11	16:32:06.930	-0.28	0.14	-0.28	-0.051728	0.696376	0.71614	0.474	1.1295	-0.2355	0	34	731	1
2026-02-11	16:32:06.950	0.035	0.105	-0.21	-0.05124	0.698084	0.714676	0.477	1.1295	-0.2325	0	34	731	1
2026-02-11	16:32:06.970	0.035	0.035	-0.28	-0.05246	0.70028	0.71858	0.477	1.134	-0.2265	0	34	731	1
2026-02-11	16:32:06.990	0	0	-0.315	-0.052704	0.698084	0.716872	0.477	1.137	-0.225	0	34	731	1
2026-02-11	16:32:07.010	-0.21	0	-0.315	-0.049044	0.700768	0.718824	0.483	1.137	-0.228	0	30	731	1
2026-02-11	16:32:07.030	-0.245	0.105	-0.245	-0.049288	0.7015	0.71736	0.4785	1.1415	-0.2295	0	30	731	1
2026-02-11	16:32:07.050	-0.35	0.175	-0.21	-0.05368	0.699792	0.71736	0.477	1.14	-0.228	0	30	731	1
2026-02-11	16:32:07.070	-0.175	0.07	-0.21	-0.049776	0.701012	0.71492	0.483	1.137	-0.231	0	30	731	1
2026-02-11	16:32:07.090	-0.14	0.035	-0.175	-0.052216	0.701256	0.718092	0.4785	1.14	-0.2325	0	30	731	1
2026-02-11	16:32:07.110	-0.21	0.035	-0.245	-0.046848	0.69784	0.716384	0.477	1.137	-0.228	0	30	731	1
2026-02-11	16:32:07.130	-0.49	0.035	-0.105	-0.05246	0.695888	0.714188	0.48	1.134	-0.225	0	30	731	1
2026-02-11	16:32:07.150	-0.56	-0.105	-0.105	-0.051484	0.69906	0.720044	0.4785	1.1325	-0.234	0	30	731	1
2026-02-11	16:32:07.170	-0.525	-0.07	-0.21	-0.050996	0.698572	0.719068	0.474	1.1325	-0.2385	0	30	731	1
2026-02-11	16:32:07.190	-0.42	0	-0.245	-0.053192	0.697108	0.717604	0.471	1.134	-0.234	0	30	731	1
2026-02-11	16:32:05.210	-0.35	0	-0.525	-0.05368	0.691496	0.712968	0.48	1.14	-0.2325	0	107	724	1
2026-02-11	16:32:05.230	-0.14	0	-0.42	-0.050508	0.697352	0.719556	0.4815	1.14	-0.24	0	107	724	1
2026-02-11	16:32:05.250	-0.245	-0.14	-0.42	-0.055144	0.706868	0.720532	0.477	1.1385	-0.2355	0	107	724	1
2026-02-11	16:32:05.270	-0.28	-0.07	-0.455	-0.048556	0.693692	0.713456	0.474	1.1385	-0.2325	0	107	724	1
2026-02-11	16:32:05.290	-0.245	-0.07	-0.42	-0.0488	0.697596	0.715896	0.471	1.14	-0.2295	0	107	724	1
2026-02-11	16:32:05.310	-0.105	-0.105	-0.42	-0.050264	0.702964	0.71858	0.471	1.143	-0.231	0	107	724	1
2026-02-11	16:32:05.330	-0.245	0	-0.385	-0.05368	0.693448	0.716384	0.4755	1.146	-0.2355	0	107	724	1
2026-02-11	16:32:05.350	-0.07	-0.035	-0.315	-0.0549	0.698084	0.71614	0.4785	1.1415	-0.234	0	107	724	1
2026-02-11	16:32:05.370	-0.14	-0.035	-0.315	-0.052704	0.704672	0.716872	0.4755	1.146	-0.2295	0	107	724	1
2026-02-11	16:32:05.390	-0.35	-0.07	-0.42	-0.052216	0.696864	0.719312	0.477	1.1385	-0.2325	0	107	724	1
2026-02-11	16:32:05.410	-0.28	-0.105	-0.525	-0.049288	0.695644	0.71248	0.477	1.1415	-0.2325	0	91	726	1
2026-02-11	16:32:05.430	-0.035	-0.175	-0.525	-0.050752	0.701256	0.718092	0.4785	1.143	-0.234	0	91	726	1
2026-02-11	16:32:05.450	-0.14	-0.14	-0.455	-0.049288	0.700036	0.71858	0.48	1.1415	-0.234	0	91	726	1
2026-02-11	16:32:05.470	-0.14	-0.035	-0.35	-0.050264	0.699548	0.716384	0.4815	1.1415	-0.231	0	91	726	1
2026-02-11	16:32:05.490	-0.035	-0.035	-0.315	-0.052704	0.701012	0.713944	0.483	1.14	-0.234	0	91	726	1
2026-02-11	16:32:05.510	-0.21	-0.14	-0.385	-0.052948	0.699548	0.719068	0.4845	1.1385	-0.2385	0	91	726	1
2026-02-11	16:32:05.530	-0.35	-0.07	-0.455	-0.050264	0.702232	0.7198	0.483	1.1385	-0.2385	0	91	726	1
2026-02-11	16:32:05.550	-0.315	-0.035	-0.49	-0.052704	0.697352	0.71736	0.4755	1.1415	-0.237	0	91	726	1
2026-02-11	16:32:05.570	-0.35	0	-0.49	-0.051728	0.70028	0.714676	0.474	1.146	-0.2355	0	91	726	1
2026-02-11	16:32:05.590	-0.455	-0.035	-0.455	-0.049044	0.697108	0.720288	0.4875	1.1415	-0.2355	0	91	726	1
2026-02-11	16:32:05.610	-0.175	0	-0.385	-0.050996	0.697352	0.715408	0.477	1.137	-0.2385	0	78	728	1
2026-02-11	16:32:05.630	0	0	-0.28	-0.05002	0.7015	0.717848	0.4755	1.1445	-0.234	0	78	728	1
2026-02-11	16:32:05.650	-0.42	0.035	-0.35	-0.05124	0.702476	0.721508	0.477	1.1355	-0.237	0	78	728	1
2026-02-11	16:32:05.670	-0.63	0.07	-0.49	-0.046604	0.695888	0.716872	0.4785	1.137	-0.234	0	78	728	1
2026-02-11	16:32:05.690	-0.525	0	-0.49	-0.053192	0.691252	0.717116	0.483	1.1415	-0.228	0	78	728	1
2026-02-11	16:32:05.710	-0.28	-0.105	-0.525	-0.052216	0.698572	0.718824	0.48	1.1415	-0.2295	0	78	728	1
2026-02-11	16:32:05.730	-0.28	-0.14	-0.595	-0.05246	0.698816	0.71858	0.4695	1.14	-0.2355	0	78	728	1
2026-02-11	16:32:05.750	-0.42	-0.14	-0.595	-0.054412	0.699792	0.716628	0.477	1.137	-0.2355	0	78	728	1
2026-02-11	16:32:05.770	-0.21	-0.175	-0.525	-0.05246	0.694424	0.713944	0.483	1.14	-0.234	0	78	728	1
2026-02-11	16:32:05.790	0.28	-0.14	-0.385	-0.054412	0.70028	0.718092	0.48	1.1445	-0.2355	0	78	728	1
2026-02-11	16:32:05.810	0.175	-0.245	-0.525	-0.051728	0.703208	0.719556	0.4755	1.137	-0.228	0	67	729	1
2026-02-11	16:32:05.830	-0.07	-0.28	-0.63	-0.051484	0.695888	0.714188	0.4695	1.143	-0.2295	0	67	729	1
2026-02-11	16:32:05.850	-0.07	-0.35	-0.63	-0.049288	0.69784	0.718336	0.477	1.1415	-0.231	0	67	729	1
2026-02-11	16:32:05.870	-0.14	-0.35	-0.56	-0.05002	0.69784	0.727364	0.4755	1.1415	-0.231	0	67	729	1
2026-02-11	16:32:05.890	-0.105	-0.175	-0.49	-0.055144	0.704916	0.721264	0.48	1.1445	-0.2325	0	67	729	1
2026-02-11	16:32:05.910	-0.455	-0.315	-0.665	-0.054656	0.699304	0.71248	0.4815	1.146	-0.231	0	67	729	1
2026-02-11	16:32:05.930	0.035	-0.245	-0.665	-0.050752	0.685152	0.708088	0.477	1.1415	-0.2325	0	67	729	1
2026-02-11	16:32:05.950	0.14	-0.21	-0.455	-0.048068	0.705404	0.725656	0.4785	1.1385	-0.2325	0	67	729	1
2026-02-11	16:32:05.970	0.175	-0.07	-0.42	-0.0549	0.704916	0.715408	0.48	1.14	-0.2325	0	67	729	1
2026-02-11	16:32:05.990	0.035	0.035	-0.315	-0.054656	0.690764	0.710528	0.4785	1.14	-0.2295	0	67	729	1
2026-02-11	16:32:06.010	0.035	-0.245	-0.42	-0.052216	0.701012	0.723704	0.4785	1.1385	-0.2265	0	57	730	1
2026-02-11	16:32:06.030	0.07	-0.105	-0.455	-0.047092	0.702232	0.734684	0.4785	1.1385	-0.2265	0	57	730	1
2026-02-11	16:32:06.050	0.525	-0.14	-0.35	-0.055632	0.709064	0.693204	0.4905	1.14	-0.2325	0	57	730	1
2026-02-11	16:32:06.070	-0.28	-0.21	-0.385	-0.047092	0.707844	0.733708	0.4815	1.1355	-0.2325	0	57	730	1
2026-02-11	16:32:06.090	0.175	0	-0.455	-0.054412	0.692472	0.699548	0.48	1.134	-0.2295	0	57	730	1
2026-02-11	16:32:06.110	0.14	-0.105	-0.35	-0.050752	0.707356	0.717604	0.48	1.1355	-0.2265	0	57	730	1
2026-02-11	16:32:06.130	0.315	-0.28	-0.42	-0.047336	0.700524	0.71126	0.48	1.137	-0.2265	0	57	730	1
2026-02-11	16:32:06.150	0.07	-0.105	-0.42	-0.05246	0.692472	0.710284	0.4815	1.137	-0.231	0	57	730	1
2026-02-11	16:32:06.170	0.105	-0.14	-0.56	-0.051728	0.69906	0.717848	0.4845	1.137	-0.2355	0	57	730	1
2026-02-11	16:32:06.190	0.175	-0.14	-0.595	-0.0549	0.701012	0.715164	0.4785	1.146	-0.2265	0	57	730	1
2026-02-11	16:32:14.210	29.855	1.4	-63.245	-0.159332	0.56608	0.88328	-0.522	0.852	-0.7995	0	330	573	1
2026-02-11	16:32:14.230	30.555	-1.82	-56.98	-0.13908	0.591944	0.81862	-0.5025	0.8325	-0.768	0	330	573	1
2026-02-11	16:32:14.250	25.76	-6.125	-45.01	-0.126148	0.618296	0.819352	-0.48	0.8175	-0.747	0	330	573	1
2026-02-11	16:32:14.270	20.055	-7.42	-34.86	-0.128588	0.471408	0.870836	-0.474	0.813	-0.741	0	330	573	1
2026-02-11	16:32:14.290	17.325	-5.95	-28.105	-0.120536	0.45384	0.86864	-0.4695	0.7635	-0.705	0	330	573	1
2026-02-11	16:32:14.310	26.145	-4.06	-22.645	-0.141764	0.49654	0.829112	-0.4575	0.75	-0.702	0	330	573	1
2026-02-11	16:32:14.330	32.41	-2.17	-15.155	-0.162748	0.536556	0.8174	-0.4515	0.7365	-0.6945	0	330	573	1
2026-02-11	16:32:14.350	32.935	-0.665	-8.82	-0.166164	0.525332	0.820816	-0.4455	0.729	-0.6915	0	330	573	1
2026-02-11	16:32:14.370	27.79	1.4	-3.885	-0.157868	0.485804	0.872544	-0.438	0.7155	-0.6855	0	330	573	1
2026-02-11	16:32:14.390	26.74	3.255	-1.715	-0.136884	0.539484	0.847656	-0.453	0.7245	-0.6795	0	330	573	1
2026-02-11	16:32:14.410	26.635	4.62	-1.33	-0.131028	0.572424	0.814228	-0.4425	0.723	-0.6765	0	379	664	1
2026-02-11	16:32:14.430	22.925	5.565	-1.155	-0.136396	0.585112	0.805688	-0.4305	0.7215	-0.6765	0	379	664	1
2026-02-11	16:32:14.450	18.97	5.25	-0.77	-0.147376	0.584624	0.802516	-0.426	0.717	-0.6765	0	379	664	1
2026-02-11	16:32:14.470	13.23	4.585	0.56	-0.150548	0.578524	0.814716	-0.423	0.708	-0.6735	0	379	664	1
2026-02-11	16:32:14.490	7.525	3.325	3.255	-0.159088	0.557052	0.807884	-0.4215	0.7035	-0.6735	0	379	664	1
2026-02-11	16:32:14.510	7.56	2.66	5.04	-0.149816	0.575596	0.791048	-0.414	0.7245	-0.663	0	379	664	1
2026-02-11	16:32:14.530	5.25	2.625	6.72	-0.136152	0.597312	0.802272	-0.402	0.7275	-0.669	0	379	664	1
2026-02-11	16:32:14.550	0.945	3.36	8.26	-0.127612	0.589504	0.8113	-0.4155	0.7305	-0.672	0	379	664	1
2026-02-11	16:32:14.570	-2.275	4.97	9.765	-0.124928	0.58926	0.827404	-0.4125	0.741	-0.666	0	379	664	1
2026-02-11	16:32:14.590	-5.985	7.035	11.095	-0.129076	0.570716	0.82106	-0.414	0.747	-0.6675	0	379	664	1
2026-02-11	16:32:14.610	-6.23	8.75	12.775	-0.127124	0.570472	0.801784	-0.411	0.7485	-0.6645	0	396	719	1
2026-02-11	16:32:14.630	-4.515	10.57	14.49	-0.12932	0.593164	0.783728	-0.399	0.75	-0.6585	0	396	719	1
2026-02-11	16:32:14.650	-5.39	12.25	16.45	-0.1281	0.595116	0.800808	-0.3885	0.7575	-0.6585	0	396	719	1
2026-02-11	16:32:14.670	-10.5	14.735	17.675	-0.143472	0.59536	0.86376	-0.387	0.7635	-0.66	0	396	719	1
2026-02-11	16:32:14.690	-13.895	16.625	18.025	-0.155916	0.571448	0.849852	-0.3855	0.7635	-0.654	0	396	719	1
2026-02-11	16:32:14.710	-10.815	16.835	18.305	-0.14884	0.59902	0.790316	-0.384	0.765	-0.6495	0	396	719	1
2026-02-11	16:32:14.730	-9.065	16.94	19.53	-0.1525	0.56486	0.797392	-0.384	0.765	-0.6495	0	396	719	1
2026-02-11	16:32:14.750	-7.945	16.94	20.3	-0.16348	0.57706	0.770308	-0.333	0.7605	-0.648	0	396	719	1
2026-02-11	16:32:14.770	-7.245	14.77	20.965	-0.143472	0.536068	0.779092	-0.324	0.7605	-0.654	0	396	719	1
2026-02-11	16:32:14.790	-0.91	12.67	22.505	-0.1525	0.610976	0.814228	-0.3315	0.759	-0.657	0	396	719	1
2026-02-11	16:32:14.810	-3.78	11.62	24.885	-0.18544	0.573156	0.837408	-0.327	0.7665	-0.6705	0	390	751	1
2026-02-11	16:32:14.830	-6.79	9.31	24.955	-0.187392	0.533628	0.862784	-0.33	0.765	-0.669	0	390	751	1
2026-02-11	16:32:14.850	-4.27	6.755	22.96	-0.208132	0.535336	0.830332	-0.336	0.7665	-0.6765	0	390	751	1
2026-02-11	16:32:14.870	2.8	1.75	20.23	-0.180804	0.57218	0.822036	-0.336	0.768	-0.6915	0	390	751	1
2026-02-11	16:32:14.890	0.42	-0.735	17.815	-0.173484	0.543144	0.833504	-0.3375	0.7605	-0.7095	0	390	751	1
2026-02-11	16:32:14.910	-1.89	-1.4	13.65	-0.194712	0.554368	0.879132	-0.3465	0.7575	-0.7275	0	390	751	1
2026-02-11	16:32:14.930	-11.2	-1.61	4.83	-0.197396	0.54412	0.857172	-0.354	0.7605	-0.7335	0	390	751	1
2026-02-11	16:32:14.950	-16.905	-0.91	2.31	-0.171532	0.514108	0.78812	-0.354	0.7605	-0.7335	0	390	751	1
2026-02-11	16:32:14.970	-17.465	-1.19	2.345	-0.182024	0.498248	0.764208	-0.363	0.7575	-0.825	0	390	751	1
2026-02-11	16:32:14.990	-12.425	-2.065	2.065	-0.227896	0.533384	0.779092	-0.354	0.7635	-0.867	0	390	751	1
2026-02-11	16:32:15.010	-8.4	-2.905	-0.28	-0.191052	0.58316	0.839604	-0.354	0.7665	-0.912	0	366	773	1
2026-02-11	16:32:15.030	-10.745	-3.85	-3.43	-0.175192	0.561932	0.812764	-0.369	0.7785	-0.9795	0	366	773	1
2026-02-11	16:32:15.050	-12.145	-5.705	-4.76	-0.139812	0.57096	0.774944	-0.369	0.783	-1.0185	0	366	773	1
2026-02-11	16:32:15.070	-18.585	-6.09	-4.585	-0.11712	0.547536	0.772504	-0.3765	0.7905	-1.098	0	366	773	1
2026-02-11	16:32:15.090	-30.835	-5.005	-2.59	-0.063684	0.52094	0.813984	-0.393	0.7965	-1.191	0	366	773	1
2026-02-11	16:32:15.110	-37.8	-3.43	-0.98	0.009516	0.493612	0.846436	-0.402	0.8115	-1.2975	0	366	773	1
2026-02-11	16:32:15.130	-35.56	0.035	1.365	0.003172	0.480436	0.878156	-0.414	0.8355	-1.398	0	366	773	1
2026-02-11	16:32:15.150	-26.845	8.26	6.265	0.12444	0.503372	0.89182	-0.426	0.861	-1.488	0	366	773	1
2026-02-11	16:32:15.170	-19.355	20.58	12.32	0.071736	0.441396	0.903776	-0.4275	0.876	-1.5315	0	366	773	1
2026-02-11	16:32:15.190	-16.135	31.605	16.625	0.05978	0.492392	1.014308	-0.441	0.912	-1.599	0	366	773	1
2026-02-11	16:32:15.210	-21.98	37.45	17.5	0.140788	0.508496	0.98942	-0.423	0.921	-1.566	0	334	792	1
2026-02-11	16:32:15.230	-14.77	44.87	19.53	0.19154	0.66856	0.950868	-0.408	0.9315	-1.479	0	334	792	1
2026-02-11	16:32:15.250	-4.305	53.62	21.945	0.304024	0.84424	0.993568	-0.381	0.9165	-1.353	0	334	792	1
2026-02-11	16:32:15.270	-5.705	61.25	14.98	0.152256	0.867908	1.03456	-0.357	0.9	-1.269	0	334	792	1
2026-02-11	16:32:15.290	-16.03	62.895	4.725	0.147864	0.754936	0.943304	-0.3015	0.834	-1.0935	0	334	792	1
2026-02-11	16:32:15.310	-19.88	66.255	-6.23	0.066612	0.59048	0.773968	-0.2265	0.7365	-0.912	0	334	792	1
2026-02-11	16:32:15.330	-21.14	62.79	-11.2	-0.00122	0.436516	0.640744	-0.132	0.6405	-0.744	0	334	792	1
2026-02-11	16:32:15.350	-21.875	53.375	-14.875	-0.193004	0.207156	0.529236	-0.03	0.558	-0.594	0	334	792	1
2026-02-11	16:32:15.370	-8.68	25.13	-18.095	-0.333304	0.164944	0.490196	0.063	0.5025	-0.471	0	334	792	1
2026-02-11	16:32:15.390	-7.07	-4.9	-14.84	-0.493612	0.251808	0.607072	0.1065	0.483	-0.4185	0	334	792	1
2026-02-11	16:32:15.410	-35.805	-26.53	-12.565	-0.558028	0.379176	0.76616	0.222	0.4515	-0.261	0	304	810	1
2026-02-11	16:32:15.430	-70.945	-41.09	-17.15	-0.593164	0.510448	0.864736	0.255	0.45	-0.2055	0	304	810	1
2026-02-11	16:32:15.450	-120.365	-45.43	-25.2	-0.64538	0.222772	0.93086	0.2895	0.441	-0.1785	0	304	810	1
2026-02-11	16:32:15.470	-126.455	-48.615	-20.895	-0.662704	-0.02196	0.909388	0.2985	0.4425	-0.1725	0	304	810	1
2026-02-11	16:32:15.490	-89.67	-51.065	-13.755	-0.654896	-0.059292	0.907924	0.312	0.45	-0.159	0	304	810	1
2026-02-11	16:32:15.510	-59.185	-52.535	-4.515	-0.598288	0.097844	0.9516	0.3255	0.4575	-0.147	0	304	810	1
2026-02-11	16:32:15.530	-49.315	-50.12	6.72	-0.48922	0.1891	0.975512	0.333	0.4605	-0.1365	0	304	810	1
2026-02-11	16:32:15.550	-33.67	-44.66	16.555	-0.336964	0.036844	1.072868	0.327	0.471	-0.1275	0	304	810	1
2026-02-11	16:32:15.570	4.2	-35.63	15.365	-0.165432	0.38796	1.230004	0.3195	0.4845	-0.1125	0	304	810	1
2026-02-11	16:32:15.590	7.035	-24.605	8.05	-0.146644	0.501908	1.136796	0.318	0.492	-0.0975	0	304	810	1
2026-02-11	16:32:15.610	-5.915	-20.685	-7.91	-0.168848	0.293776	0.8845	0.321	0.498	-0.096	0	286	827	1
2026-02-11	16:32:15.630	-9.31	-21.385	-8.4	-0.179096	0.157624	0.832528	0.3	0.4965	-0.09	0	286	827	1
2026-02-11	16:32:15.650	-3.71	-22.225	-5.425	-0.198616	0.175436	0.885232	0.3	0.489	-0.09	0	286	827	1
2026-02-11	16:32:15.670	0.63	-21.665	-1.995	-0.122732	0.299632	1.131184	0.2895	0.501	-0.0765	0	286	827	1
2026-02-11	16:32:15.690	6.58	-14.105	-4.13	-0.168116	0.40504	1.185352	0.2895	0.498	-0.078	0	286	827	1
2026-02-11	16:32:15.710	8.575	-6.44	-11.095	-0.147132	0.375516	1.23952	0.2925	0.4965	-0.081	0	286	827	1
2026-02-11	16:32:15.730	23.415	1.68	-19.74	-0.189588	0.238388	1.161928	0.291	0.498	-0.0825	0	286	827	1
2026-02-11	16:32:15.750	47.32	13.405	-25.06	-0.241316	0.186904	1.167296	0.291	0.492	-0.09	0	286	827	1
2026-02-11	16:32:15.770	59.815	27.58	-20.545	-0.333304	0.12444	1.112396	0.2895	0.4845	-0.099	0	286	827	1
2026-02-11	16:32:15.790	61.075	35.07	-12.145	-0.382104	0.014152	0.978196	0.285	0.4785	-0.114	0	286	827	1
2026-02-11	16:32:15.810	84.805	35.735	-9.8	-0.368196	0.317688	0.846924	0.2775	0.471	-0.135	0	279	862	1
2026-02-11	16:32:15.830	77.63	36.19	-3.605	-0.390644	0.386008	0.702964	0.27	0.4695	-0.144	0	279	862	1
2026-02-11	16:32:15.850	71.12	31.15	-4.76	-0.385764	0.407236	0.599508	0.27	0.4695	-0.144	0	279	862	1
2026-02-11	16:32:15.870	65.66	22.61	-0.49	-0.348432	0.402844	0.620492	0.2055	0.471	-0.2415	0	279	862	1
2026-02-11	16:32:15.890	53.13	14.21	4.2	-0.262056	0.468236	0.736636	0.162	0.4725	-0.291	0	279	862	1
2026-02-11	16:32:15.910	33.355	8.575	4.69	-0.155184	0.521672	0.859124	0.1455	0.474	-0.321	0	279	862	1
2026-02-11	16:32:15.930	9.275	7.35	4.795	-0.116388	0.503616	0.850096	0.1005	0.4815	-0.396	0	279	862	1
2026-02-11	16:32:15.950	-8.505	4.795	7	-0.093208	0.459452	0.820084	0.0555	0.4935	-0.4965	0	279	862	1
2026-02-11	16:32:15.970	-19.005	1.295	8.47	0.027572	0.529236	0.843508	0.0285	0.516	-0.6075	0	279	862	1
2026-02-11	16:32:15.990	-25.97	-0.21	7.63	0.08174	0.44774	0.811788	0.0195	0.546	-0.723	0	279	862	1
2026-02-11	16:32:16.010	-16.765	-1.26	4.62	0.182268	0.43432	0.721264	0.021	0.5595	-0.783	0	278	886	1
2026-02-11	16:32:16.030	-0.77	-0.595	3.64	0.136884	0.467016	0.710528	0.03	0.5925	-0.8955	0	278	886	1
2026-02-11	16:32:16.050	24.045	-0.49	3.745	0.082228	0.525576	0.829112	0.0405	0.6255	-1.008	0	278	886	1
2026-02-11	16:32:16.070	34.51	-2.24	3.325	0.088572	0.498004	0.886696	0.0405	0.6255	-1.008	0	278	886	1
2026-02-11	16:32:16.090	36.015	-3.045	1.505	-0.004636	0.461892	0.86498	0.024	0.693	-1.2855	0	278	886	1
2026-02-11	16:32:16.110	29.4	-7.455	0.28	-0.040748	0.526308	0.892064	0.003	0.6975	-1.3185	0	278	886	1
2026-02-11	16:32:16.130	8.61	-18.095	-1.505	-0.026352	0.598288	0.920124	-0.0405	0.7125	-1.3755	0	278	886	1
2026-02-11	16:32:16.150	-0.525	-25.62	-3.325	-0.047092	0.418704	0.9211	-0.0975	0.732	-1.419	0	278	886	1
2026-02-11	16:32:16.170	3.605	-22.295	-7.385	-0.141276	0.32696	0.856928	-0.1755	0.75	-1.4415	0	278	886	1
2026-02-11	16:32:16.190	14.21	-20.615	-4.445	-0.174704	0.410896	0.93818	-0.2595	0.771	-1.4355	0	278	886	1
2026-02-11	16:32:16.210	10.885	-14.56	-0.42	-0.1281	0.629276	1.061644	-0.336	0.792	-1.4085	0	279	891	1
2026-02-11	16:32:16.230	-3.29	-5.81	-2.275	-0.181536	0.612928	0.97478	-0.3975	0.81	-1.3635	0	279	891	1
2026-02-11	16:32:16.250	-14	1.995	-3.255	-0.18544	0.462868	0.925004	-0.4305	0.822	-1.296	0	279	891	1
2026-02-11	16:32:16.270	-9.31	5.39	-2.485	-0.249368	0.437736	0.851316	-0.438	0.8205	-1.2285	0	279	891	1
2026-02-11	16:32:16.290	-1.47	1.995	-1.855	-0.275476	0.428464	0.815204	-0.4365	0.8175	-1.2	0	279	891	1
2026-02-11	16:32:16.310	1.4	-2.03	-0.84	-0.264984	0.416508	0.836676	-0.426	0.804	-1.1115	0	279	891	1
2026-02-11	16:32:16.330	2.31	-5.005	1.085	-0.225212	0.477752	0.83814	-0.4245	0.8055	-1.1025	0	279	891	1
2026-02-11	16:32:16.350	2.765	-6.79	1.82	-0.19154	0.528504	0.86132	-0.426	0.816	-1.086	0	279	891	1
2026-02-11	16:32:16.370	7.455	-5.88	3.43	-0.150304	0.440176	0.883036	-0.4305	0.828	-1.0785	0	279	891	1
2026-02-11	16:32:16.390	0.98	-0.245	3.185	-0.141032	0.658068	0.939644	-0.4425	0.8355	-1.0815	0	279	891	1
2026-02-11	16:32:16.410	-9.31	1.89	2.275	-0.143472	0.46604	0.855952	-0.453	0.8415	-1.0875	0	277	892	1
2026-02-11	16:32:16.430	-10.325	3.185	4.025	-0.14274	0.43798	0.870836	-0.459	0.8445	-1.0935	0	277	892	1
2026-02-11	16:32:16.450	-5.11	3.64	6.65	-0.15982	0.44042	0.889624	-0.462	0.8475	-1.0965	0	277	892	1
2026-02-11	16:32:16.470	-0.945	2.87	9.17	-0.156648	0.435784	0.8662	-0.4605	0.8505	-1.101	0	277	892	1
2026-02-11	16:32:16.490	-1.785	3.255	8.855	-0.157624	0.490196	0.884012	-0.459	0.8475	-1.104	0	277	892	1
2026-02-11	16:32:16.510	-6.195	3.01	5.005	-0.159576	0.510204	0.882792	-0.456	0.8445	-1.104	0	277	892	1
2026-02-11	16:32:16.530	-9.8	2.065	3.535	-0.16226	0.460672	0.842776	-0.441	0.855	-1.0905	0	277	892	1
2026-02-11	16:32:16.550	-8.05	0.49	1.785	-0.173728	0.43798	0.85644	-0.4425	0.8535	-1.0905	0	277	892	1
2026-02-11	16:32:16.570	-3.64	-1.505	0.77	-0.168604	0.43676	0.883768	-0.444	0.852	-1.086	0	277	892	1
2026-02-11	16:32:16.590	0.77	-2.415	-0.91	-0.162992	0.477264	0.87962	-0.4425	0.8535	-1.086	0	277	892	1
2026-02-11	16:32:16.610	2.59	-2.415	-2.275	-0.166164	0.48068	0.838628	-0.444	0.855	-1.095	0	270	893	1
2026-02-11	16:32:16.630	2.555	-2.275	-1.61	-0.158844	0.469456	0.881084	-0.4455	0.8535	-1.0965	0	270	893	1
2026-02-11	16:32:16.650	0.63	-0.98	0.07	-0.14884	0.456768	0.885476	-0.45	0.8535	-1.095	0	270	893	1
2026-02-11	16:32:16.670	0.385	0.035	1.26	-0.148596	0.449936	0.870104	-0.456	0.8535	-1.095	0	270	893	1
2026-02-11	16:32:16.690	1.54	0.875	3.115	-0.15616	0.464576	0.884988	-0.4545	0.849	-1.101	0	270	893	1
2026-02-11	16:32:16.710	-0.525	1.4	3.01	-0.162748	0.499468	0.88328	-0.4575	0.843	-1.107	0	270	893	1
2026-02-11	16:32:16.730	-4.13	0.91	1.225	-0.157868	0.47702	0.85766	-0.4635	0.843	-1.107	0	270	893	1
2026-02-11	16:32:16.750	-3.325	0.385	0.315	-0.150304	0.44042	0.865224	-0.4635	0.846	-1.1085	0	270	893	1
2026-02-11	16:32:16.770	-1.82	0.07	-0.63	-0.145668	0.457256	0.8906	-0.4605	0.849	-1.119	0	270	893	1
2026-02-11	16:32:16.790	-0.805	0.14	-1.12	-0.15616	0.454572	0.885476	-0.4575	0.8505	-1.125	0	270	893	1
2026-02-11	16:32:16.810	-1.47	0.245	-1.085	-0.155916	0.4697	0.86498	-0.456	0.8475	-1.128	0	256	893	1
2026-02-11	16:32:16.830	-2.065	0.385	-0.56	-0.152744	0.457012	0.865712	-0.456	0.846	-1.1295	0	256	893	1
2026-02-11	16:32:16.850	-0.77	0.28	0.56	-0.163724	0.437492	0.874984	-0.459	0.846	-1.1265	0	256	893	1
2026-02-11	16:32:16.870	1.12	0.42	1.785	-0.1586	0.45994	0.878156	-0.4575	0.843	-1.1355	0	256	893	1
2026-02-11	16:32:16.890	0.84	0.245	2.135	-0.152988	0.483608	0.869616	-0.4545	0.843	-1.1355	0	256	893	1
2026-02-11	16:32:16.910	-3.43	0.49	2.38	-0.160552	0.513132	0.869128	-0.4575	0.8445	-1.128	0	256	893	1
2026-02-11	16:32:16.930	-8.295	0.245	2.485	-0.152744	0.493612	0.885232	-0.4635	0.8385	-1.137	0	256	893	1
2026-02-11	16:32:16.950	-19.25	1.33	0.805	-0.143472	0.454816	0.900848	-0.4635	0.8355	-1.149	0	256	893	1
2026-02-11	16:32:16.970	-24.675	3.22	1.575	-0.135664	0.46116	0.901824	-0.462	0.834	-1.158	0	256	893	1
2026-02-11	16:32:16.990	-28.21	5.11	4.585	-0.138104	0.271572	0.898652	-0.465	0.831	-1.164	0	256	893	1
2026-02-11	16:32:17.010	-19.355	5.915	6.72	-0.13664	0.271084	0.901336	-0.468	0.8355	-1.164	0	236	893	1
2026-02-11	16:32:17.030	-4.305	6.615	11.06	-0.139568	0.37698	0.903288	-0.4575	0.843	-1.155	0	236	893	1
2026-02-11	16:32:17.050	-1.225	6.93	14.7	-0.160308	0.463112	0.8906	-0.4365	0.8565	-1.1355	0	236	893	1
2026-02-11	16:32:17.070	-6.615	6.02	14.42	-0.152256	0.421144	0.897188	-0.4185	0.8715	-1.1085	0	236	893	1
2026-02-11	16:32:17.090	-7.875	4.445	12.18	-0.16714	0.43188	0.883768	-0.402	0.8835	-1.0815	0	236	893	1
2026-02-11	16:32:17.110	-7.945	2.695	11.2	-0.178608	0.450912	0.875716	-0.3885	0.9015	-1.053	0	236	893	1
2026-02-11	16:32:17.130	-5.88	-0.945	9.275	-0.179828	0.427244	0.847412	-0.372	0.924	-1.02	0	236	893	1
2026-02-11	16:32:17.150	-0.35	-4.62	7	-0.17324	0.436272	0.840092	-0.357	0.945	-0.9945	0	236	893	1
2026-02-11	16:32:17.170	6.055	-6.72	0.875	-0.137372	0.465552	0.909388	-0.3525	0.954	-0.984	0	236	893	1
2026-02-11	16:32:17.190	4.41	-4.585	-5.425	-0.15738	0.571448	0.910852	-0.351	0.969	-0.9645	0	236	893	1
2026-02-11	16:32:17.210	-1.645	-3.22	-9.66	-0.14518	0.576084	0.888892	-0.354	0.984	-0.9435	0	214	895	1
2026-02-11	16:32:17.230	-13.58	-3.36	-12.145	-0.141764	0.47214	0.874984	-0.36	0.984	-0.942	0	214	895	1
2026-02-11	16:32:17.250	-21.525	-3.395	-13.755	-0.139324	0.40504	0.910608	-0.3645	0.981	-0.9465	0	214	895	1
2026-02-11	16:32:17.270	-20.72	-2.87	-13.09	-0.14884	0.344528	0.932568	-0.378	0.9795	-0.9615	0	214	895	1
2026-02-11	16:32:17.290	-15.015	-1.19	-11.76	-0.15616	0.364536	0.903288	-0.39	0.9705	-0.9735	0	214	895	1
2026-02-11	16:32:17.310	-8.12	-0.56	-10.815	-0.149816	0.428708	0.87596	-0.399	0.9645	-0.9855	0	214	895	1
2026-02-11	16:32:17.330	-4.655	-1.54	-9.8	-0.141276	0.403332	0.910364	-0.4065	0.9615	-0.9915	0	214	895	1
2026-02-11	16:32:17.350	-8.05	-1.015	-7.105	-0.142496	0.354532	0.9333	-0.411	0.951	-0.999	0	214	895	1
2026-02-11	16:32:17.370	-8.925	0.805	-3.43	-0.15616	0.288164	0.922076	-0.4185	0.942	-1.011	0	214	895	1
2026-02-11	16:32:17.390	1.47	1.505	0	-0.15616	0.341356	0.908168	-0.4245	0.9375	-1.017	0	214	895	1
2026-02-11	16:32:17.410	9.205	1.155	1.12	-0.158112	0.429684	0.903044	-0.414	0.936	-1.0095	0	192	899	1
2026-02-11	16:32:17.430	9.1	0.175	1.225	-0.160064	0.4514	0.874984	-0.402	0.9345	-0.996	0	192	899	1
2026-02-11	16:32:17.450	3.185	-0.525	0.525	-0.148352	0.457988	0.903288	-0.3975	0.936	-0.9855	0	192	899	1
2026-02-11	16:32:17.470	-3.045	-0.315	-0.455	-0.150304	0.412116	0.914756	-0.39	0.939	-0.9765	0	192	899	1
2026-02-11	16:32:17.490	-2.275	-0.07	-1.575	-0.156404	0.381616	0.903044	-0.384	0.939	-0.975	0	192	899	1
2026-02-11	16:32:17.510	2.835	-0.665	-1.82	-0.1586	0.377712	0.90158	-0.3885	0.936	-0.981	0	192	899	1
2026-02-11	16:32:17.530	8.435	-1.435	-1.68	-0.15494	0.404308	0.899872	-0.39	0.93	-0.9795	0	192	899	1
2026-02-11	16:32:17.550	11.375	-1.75	-1.89	-0.159088	0.409188	0.897188	-0.3855	0.93	-0.9765	0	192	899	1
2026-02-11	16:32:17.570	9.8	-1.295	-1.155	-0.158356	0.418216	0.90768	-0.3885	0.927	-0.975	0	192	899	1
2026-02-11	16:32:17.590	7.56	-0.35	-0.7	-0.15128	0.41846	0.916952	-0.3885	0.9225	-0.975	0	192	899	1
2026-02-11	16:32:17.610	5.39	0.945	-0.98	-0.15006	0.41358	0.902068	-0.3855	0.924	-0.975	0	171	904	1
2026-02-11	16:32:17.630	5.95	1.12	-0.98	-0.151036	0.437492	0.872544	-0.387	0.9195	-0.975	0	171	904	1
2026-02-11	16:32:17.650	4.235	0.91	0	-0.159088	0.427732	0.894992	-0.387	0.915	-0.975	0	171	904	1
2026-02-11	16:32:17.670	5.39	0.21	0.385	-0.159576	0.407236	0.891332	-0.387	0.9165	-0.978	0	171	904	1
2026-02-11	16:32:17.690	7.56	-0.14	0.875	-0.157624	0.406504	0.9028	-0.3885	0.912	-0.978	0	171	904	1
2026-02-11	16:32:17.710	7.595	0.035	0.7	-0.154208	0.41602	0.893528	-0.3885	0.906	-0.9765	0	171	904	1
2026-02-11	16:32:17.730	8.19	0.105	0.595	-0.156404	0.411628	0.890112	-0.3855	0.909	-0.9765	0	171	904	1
2026-02-11	16:32:17.750	8.4	-0.14	0.42	-0.159332	0.433588	0.897188	-0.384	0.909	-0.9795	0	171	904	1
2026-02-11	16:32:17.770	8.12	-0.175	0.07	-0.15128	0.437736	0.896456	-0.3885	0.9045	-0.9795	0	171	904	1
2026-02-11	16:32:17.790	8.365	-0.35	0.035	-0.160064	0.450424	0.882304	-0.3885	0.906	-0.972	0	171	904	1
2026-02-11	16:32:17.810	6.37	-0.595	0.105	-0.152988	0.44408	0.875228	-0.387	0.9075	-0.966	0	152	908	1
2026-02-11	16:32:17.830	3.745	-0.385	0.525	-0.150548	0.436516	0.895236	-0.3945	0.903	-0.9735	0	152	908	1
2026-02-11	16:32:17.850	3.045	0.7	0.77	-0.154208	0.439444	0.886208	-0.3945	0.903	-0.9735	0	152	908	1
2026-02-11	16:32:17.870	2.73	0.49	0.77	-0.154452	0.436028	0.887672	-0.3885	0.9015	-0.975	0	152	908	1
2026-02-11	16:32:17.890	2.87	0.315	0.63	-0.155428	0.449204	0.888404	-0.384	0.903	-0.9735	0	152	908	1
2026-02-11	16:32:17.910	2.24	0.105	-0.21	-0.151524	0.450668	0.888404	-0.387	0.9075	-0.9765	0	152	908	1
2026-02-11	16:32:17.930	1.435	0.525	-0.525	-0.147376	0.441152	0.889624	-0.384	0.906	-0.9795	0	152	908	1
2026-02-11	16:32:17.950	0.105	0.7	-0.49	-0.155672	0.438468	0.892796	-0.3825	0.9015	-0.9765	0	152	908	1
2026-02-11	16:32:17.970	0.595	0.525	-0.84	-0.158112	0.43676	0.882304	-0.3825	0.9015	-0.978	0	152	908	1
2026-02-11	16:32:17.990	0.595	0.455	-0.84	-0.156648	0.439688	0.885476	-0.381	0.9015	-0.9795	0	152	908	1
2026-02-11	16:32:18.010	0.875	0.35	-1.085	-0.1586	0.438468	0.881084	-0.3795	0.903	-0.9795	0	134	910	1
2026-02-11	16:32:18.030	1.89	0.14	-1.015	-0.158112	0.438956	0.88084	-0.3735	0.9045	-0.981	0	134	910	1
2026-02-11	16:32:18.050	1.54	-0.315	-0.49	-0.152744	0.452132	0.884256	-0.3915	0.8985	-0.9795	0	134	910	1
2026-02-11	16:32:18.070	0.455	-0.28	-0.455	-0.155916	0.45262	0.887428	-0.3885	0.9015	-0.9735	0	134	910	1
2026-02-11	16:32:18.090	0.35	-0.14	-0.56	-0.154208	0.44896	0.881572	-0.3825	0.903	-0.972	0	134	910	1
2026-02-11	16:32:18.110	0.735	0	-0.63	-0.149816	0.448228	0.881816	-0.3765	0.8985	-0.978	0	134	910	1
2026-02-11	16:32:18.130	0.42	0.245	-0.805	-0.154208	0.44042	0.884256	-0.378	0.9015	-0.978	0	134	910	1
2026-02-11	16:32:18.150	0.105	0.35	-0.805	-0.152256	0.443592	0.88328	-0.381	0.903	-0.978	0	134	910	1
2026-02-11	16:32:18.170	0.875	0.35	-0.875	-0.159332	0.445788	0.889136	-0.3795	0.897	-0.981	0	134	910	1
2026-02-11	16:32:18.190	0.525	-0.105	-0.315	-0.156648	0.440176	0.88816	-0.3795	0.8955	-0.9795	0	134	910	1
2026-02-11	16:32:18.210	1.015	0	-0.35	-0.157136	0.44774	0.87962	-0.3795	0.8955	-0.9765	0	118	909	1
2026-02-11	16:32:18.230	1.155	0.105	-0.21	-0.156648	0.447984	0.879376	-0.3795	0.891	-0.9795	0	118	909	1
2026-02-11	16:32:18.250	0.805	-0.105	-0.455	-0.155672	0.452376	0.88084	-0.378	0.8955	-0.981	0	118	909	1
2026-02-11	16:32:18.270	0.63	-0.315	-0.56	-0.157624	0.447984	0.881816	-0.381	0.9	-0.981	0	118	909	1
2026-02-11	16:32:18.290	0.77	-0.315	-0.595	-0.15738	0.443592	0.887184	-0.384	0.897	-0.978	0	118	909	1
2026-02-11	16:32:18.310	1.225	-0.28	-0.56	-0.151768	0.443104	0.880108	-0.381	0.894	-0.9765	0	118	909	1
2026-02-11	16:32:18.330	1.295	-0.28	-0.63	-0.155916	0.443104	0.881572	-0.3795	0.8925	-0.9795	0	118	909	1
2026-02-11	16:32:18.350	0.665	-0.35	-0.665	-0.1525	0.45384	0.885476	-0.381	0.891	-0.9735	0	118	909	1
2026-02-11	16:32:18.370	0.245	-0.28	-0.875	-0.155428	0.448228	0.884256	-0.3795	0.891	-0.9705	0	118	909	1
2026-02-11	16:32:18.390	0.42	-0.315	-0.875	-0.154696	0.447252	0.88206	-0.378	0.894	-0.9735	0	118	909	1
2026-02-11	16:32:18.410	0.455	-0.14	-0.63	-0.151036	0.446276	0.884988	-0.378	0.894	-0.9735	0	103	908	1
2026-02-11	16:32:18.430	0.07	0	-0.56	-0.152988	0.455548	0.888892	-0.3765	0.9	-0.9765	0	103	908	1
2026-02-11	16:32:18.450	0.14	0.035	-0.455	-0.15494	0.44652	0.870836	-0.3765	0.8955	-0.978	0	103	908	1
2026-02-11	16:32:18.470	0.595	-0.07	-0.28	-0.157136	0.448228	0.877424	-0.378	0.888	-0.9795	0	103	908	1
2026-02-11	16:32:18.490	0	0.035	-0.245	-0.158112	0.446764	0.894016	-0.381	0.888	-0.9795	0	103	908	1
2026-02-11	16:32:18.510	-0.07	-0.035	-0.35	-0.154208	0.447252	0.885232	-0.3825	0.8865	-0.978	0	103	908	1
2026-02-11	16:32:18.530	0.665	0.105	-0.28	-0.15494	0.442372	0.877668	-0.3825	0.8865	-0.972	0	103	908	1
2026-02-11	16:32:18.550	0.315	0.14	-0.245	-0.152256	0.449936	0.88206	-0.3765	0.8925	-0.972	0	103	908	1
2026-02-11	16:32:18.570	-0.28	0.105	-0.49	-0.15372	0.452376	0.882304	-0.372	0.8955	-0.978	0	103	908	1
2026-02-11	16:32:18.590	-0.28	0.105	-0.7	-0.160796	0.450424	0.881572	-0.381	0.897	-0.981	0	103	908	1
2026-02-11	16:32:18.610	-0.385	0.105	-0.84	-0.158844	0.445544	0.88328	-0.3765	0.894	-0.978	0	90	906	1
2026-02-11	16:32:18.630	-0.07	0	-0.805	-0.15616	0.446276	0.883524	-0.384	0.8925	-0.9765	0	90	906	1
2026-02-11	16:32:18.650	0.21	-0.14	-0.805	-0.15616	0.447252	0.879132	-0.375	0.891	-0.972	0	90	906	1
2026-02-11	16:32:18.670	0.525	-0.28	-0.595	-0.154208	0.44774	0.878156	-0.3765	0.891	-0.9735	0	90	906	1
2026-02-11	16:32:18.690	0.175	-0.245	-0.35	-0.158112	0.449448	0.885964	-0.381	0.891	-0.9765	0	90	906	1
2026-02-11	16:32:18.710	0.035	-0.21	-0.455	-0.157624	0.449692	0.883524	-0.381	0.894	-0.981	0	90	906	1
2026-02-11	16:32:18.730	0.245	-0.07	-0.49	-0.155184	0.447252	0.880596	-0.3765	0.891	-0.981	0	90	906	1
2026-02-11	16:32:18.750	0.63	-0.07	-0.35	-0.15738	0.444812	0.884012	-0.375	0.885	-0.978	0	90	906	1
2026-02-11	16:32:18.770	0.56	-0.105	-0.28	-0.15372	0.449204	0.881816	-0.381	0.8835	-0.9825	0	90	906	1
2026-02-11	16:32:18.790	0.7	-0.14	-0.315	-0.156892	0.450424	0.882548	-0.381	0.8895	-0.9795	0	90	906	1
2026-02-11	16:32:18.810	1.015	-0.21	-0.42	-0.156648	0.452864	0.878156	-0.3705	0.894	-0.9735	0	78	905	1
2026-02-11	16:32:18.830	0.805	-0.35	-0.595	-0.151524	0.45628	0.884256	-0.372	0.891	-0.984	0	78	905	1
2026-02-11	16:32:18.850	0.735	-0.385	-0.805	-0.155184	0.448472	0.879132	-0.3795	0.8955	-0.9795	0	78	905	1
2026-02-11	16:32:18.870	1.19	-0.42	-0.77	-0.15616	0.450424	0.884744	-0.378	0.894	-0.978	0	78	905	1
2026-02-11	16:32:18.890	0.805	-0.245	-0.805	-0.15494	0.455304	0.886208	-0.378	0.885	-0.9825	0	78	905	1
2026-02-11	16:32:18.910	1.225	-0.245	-0.77	-0.160064	0.447008	0.876448	-0.381	0.879	-0.9885	0	78	905	1
2026-02-11	16:32:18.930	1.225	-0.245	-0.56	-0.157624	0.45262	0.882548	-0.3855	0.882	-0.984	0	78	905	1
2026-02-11	16:32:18.950	0.525	-0.175	-0.665	-0.154208	0.451644	0.885476	-0.3855	0.8895	-0.981	0	78	905	1
2026-02-11	16:32:18.970	0.525	-0.035	-0.735	-0.154696	0.449204	0.877912	-0.3915	0.8835	-0.981	0	78	905	1
2026-02-11	16:32:18.990	0.875	0.035	-0.7	-0.157868	0.456036	0.879132	-0.3855	0.879	-0.9825	0	78	905	1
2026-02-11	16:32:19.010	0.455	-0.035	-0.665	-0.15738	0.454816	0.8784	-0.3885	0.8865	-0.9885	0	68	904	1
2026-02-11	16:32:19.030	0.245	-0.14	-0.525	-0.156404	0.451156	0.878644	-0.3945	0.888	-0.9855	0	68	904	1
2026-02-11	16:32:19.050	0.63	-0.105	-0.525	-0.154452	0.455548	0.882792	-0.384	0.885	-0.984	0	68	904	1
2026-02-11	16:32:19.070	0.595	-0.07	-0.595	-0.160308	0.455792	0.875228	-0.3885	0.882	-0.9945	0	68	904	1
2026-02-11	16:32:19.090	0.245	-0.105	-0.525	-0.155672	0.452132	0.878888	-0.3915	0.879	-0.9915	0	68	904	1
2026-02-11	16:32:19.110	0.21	-0.14	-0.49	-0.155916	0.449936	0.88328	-0.3945	0.8775	-0.9885	0	68	904	1
2026-02-11	16:32:19.130	0.49	0	-0.385	-0.157624	0.448716	0.876448	-0.381	0.8805	-0.9885	0	68	904	1
2026-02-11	16:32:19.150	1.225	0	-0.245	-0.15372	0.454084	0.877668	-0.396	0.888	-0.9825	0	68	904	1
2026-02-11	16:32:19.170	0.875	0	-0.28	-0.15616	0.458476	0.87718	-0.3825	0.8805	-0.9825	0	68	904	1
2026-02-11	16:32:19.190	0.07	-0.14	-0.315	-0.15494	0.46116	0.888892	-0.3855	0.8865	-0.9825	0	68	904	1
2026-02-11	16:32:19.210	-0.245	-0.175	-0.735	-0.156648	0.451888	0.880596	-0.3975	0.882	-0.9915	0	58	903	1
2026-02-11	16:32:19.230	0.42	-0.21	-0.665	-0.157136	0.444324	0.875472	-0.39	0.8805	-0.9885	0	58	903	1
2026-02-11	16:32:19.250	0.7	-0.175	-0.315	-0.152012	0.453108	0.879864	-0.3885	0.882	-0.996	0	58	903	1
2026-02-11	16:32:19.270	0.595	-0.21	-0.175	-0.152744	0.460916	0.881572	-0.3885	0.8835	-0.9945	0	58	903	1
2026-02-11	16:32:19.290	0.175	-0.175	-0.14	-0.15372	0.457744	0.876692	-0.3915	0.882	-0.9945	0	58	903	1
2026-02-11	16:32:19.310	-0.455	-0.07	-0.315	-0.15738	0.456524	0.88328	-0.393	0.882	-0.99	0	58	903	1
2026-02-11	16:32:19.330	-1.12	-0.035	-0.385	-0.155916	0.45018	0.88328	-0.3915	0.8835	-0.9855	0	58	903	1
2026-02-11	16:32:19.350	-0.14	0.035	-0.525	-0.155672	0.458232	0.874008	-0.39	0.8745	-0.996	0	58	903	1
2026-02-11	16:32:19.370	-1.155	0	-0.315	-0.151768	0.470188	0.881572	-0.3975	0.8865	-0.9945	0	58	903	1
2026-02-11	16:32:19.390	-4.48	0.21	-0.42	-0.15616	0.4697	0.88206	-0.39	0.8745	-0.9885	0	58	903	1
2026-02-11	16:32:19.410	-6.965	0.315	-0.77	-0.160308	0.464088	0.884256	-0.4005	0.8775	-0.99	0	50	902	1
2026-02-11	16:32:19.430	-8.645	0.105	-1.05	-0.15128	0.448716	0.889624	-0.3915	0.8865	-0.999	0	50	902	1
2026-02-11	16:32:19.450	-9.94	0.455	-1.295	-0.148596	0.454816	0.894748	-0.4005	0.8775	-1.0065	0	50	902	1
2026-02-11	16:32:19.470	-11.41	1.295	-1.925	-0.142008	0.473604	0.896456	-0.399	0.8805	-1.008	0	50	902	1
2026-02-11	16:32:19.490	-12.25	2.03	-2.625	-0.149572	0.46482	0.888892	-0.3975	0.876	-1.0035	0	50	902	1
2026-02-11	16:32:19.510	-10.85	2.31	-3.395	-0.140544	0.482632	0.911096	-0.4005	0.876	-1.002	0	50	902	1
2026-02-11	16:32:19.530	-5.145	3.29	-4.55	-0.129076	0.442616	0.8967	-0.399	0.8685	-1.011	0	50	902	1
2026-02-11	16:32:19.550	11.095	4.27	-8.295	-0.14152	0.53436	0.887672	-0.396	0.8595	-1.0215	0	50	902	1
2026-02-11	16:32:19.570	7.105	4.76	-11.725	-0.1586	0.499224	0.868396	-0.3915	0.813	-1.0185	0	50	902	1
2026-02-11	16:32:19.590	9.065	4.2	-14.805	-0.165432	0.478484	0.843752	-0.387	0.774	-1.0305	0	50	902	1
2026-02-11	16:32:19.610	10.535	2.555	-16.835	-0.209108	0.415776	0.839848	-0.3825	0.7365	-1.035	0	44	902	1
2026-02-11	16:32:19.630	9.66	-0.105	-17.325	-0.1952	0.375028	0.864736	-0.3915	0.684	-1.0485	0	44	902	1
2026-02-11	16:32:19.650	7.315	-1.68	-15.295	-0.19032	0.33794	0.880352	-0.396	0.645	-1.0575	0	44	902	1
2026-02-11	16:32:19.670	4.83	-2.275	-12.53	-0.192516	0.376492	0.892796	-0.399	0.603	-1.053	0	44	902	1
2026-02-11	16:32:19.690	4.025	-2.345	-9.31	-0.183488	0.370392	0.910852	-0.4245	0.585	-1.0605	0	44	902	1
2026-02-11	16:32:19.710	4.69	-1.47	-6.055	-0.188612	0.37698	0.901092	-0.426	0.5535	-1.071	0	44	902	1
2026-02-11	16:32:19.730	6.825	-0.945	-3.885	-0.19032	0.405528	0.887184	-0.426	0.5475	-1.071	0	44	902	1
2026-02-11	16:32:19.750	6.86	-1.33	-2.17	-0.179096	0.40992	0.882548	-0.4245	0.5385	-1.065	0	44	902	1
2026-02-11	16:32:19.770	5.705	-1.12	0.42	-0.188612	0.450424	0.872056	-0.4215	0.537	-1.059	0	44	902	1
2026-02-11	16:32:19.790	3.64	-0.875	0.665	-0.181048	0.486048	0.879864	-0.4335	0.522	-1.053	0	44	902	1
2026-02-11	16:32:19.810	1.505	-0.49	0.14	-0.178608	0.488976	0.86742	-0.4365	0.525	-1.053	0	40	902	1
2026-02-11	16:32:19.830	1.155	-0.49	-1.085	-0.17324	0.490196	0.872788	-0.444	0.5235	-1.0485	0	40	902	1
2026-02-11	16:32:19.850	-1.785	0	-1.785	-0.166408	0.46116	0.880352	-0.4395	0.5295	-1.056	0	40	902	1
2026-02-11	16:32:19.870	0.98	0.945	-1.68	-0.162016	0.505568	0.906948	-0.435	0.522	-1.059	0	40	902	1
2026-02-11	16:32:19.890	3.78	2.415	-3.535	-0.149084	0.53314	0.896456	-0.4335	0.516	-1.0545	0	40	902	1
2026-02-11	16:32:19.910	7.21	4.375	-6.86	-0.160796	0.554124	0.883036	-0.4305	0.5025	-1.047	0	40	902	1
2026-02-11	16:32:19.930	11.235	6.51	-10.255	-0.163724	0.56974	0.885232	-0.42	0.489	-1.0425	0	40	902	1
2026-02-11	16:32:19.950	10.185	8.33	-15.085	-0.20008	0.537288	0.838872	-0.402	0.462	-1.0305	0	40	902	1
2026-02-11	16:32:19.970	11.06	7.7	-18.06	-0.212768	0.50996	0.82228	-0.3855	0.4305	-1.0185	0	40	902	1
2026-02-11	16:32:19.990	9.87	5.005	-18.585	-0.225212	0.437492	0.814716	-0.378	0.4155	-1.014	0	40	902	1
2026-02-11	16:32:20.010	16.59	2.94	-16.765	-0.23058	0.458476	0.82106	-0.342	0.3375	-0.99	0	39	900	1
2026-02-11	16:32:20.030	15.26	1.365	-14.315	-0.2074	0.431148	0.831796	-0.3345	0.291	-0.978	0	39	900	1
2026-02-11	16:32:20.050	7	0.735	-12.215	-0.230336	0.438468	0.847412	-0.318	0.2475	-0.963	0	39	900	1
2026-02-11	16:32:20.070	2.415	-1.225	-10.43	-0.21594	0.388936	0.831552	-0.318	0.2115	-0.963	0	39	900	1
2026-02-11	16:32:20.090	2.905	-4.34	-9.38	-0.21106	0.366244	0.82228	-0.3135	0.192	-0.954	0	39	900	1
2026-02-11	16:32:20.110	2.45	-7.07	-6.72	-0.205204	0.3843	0.869372	-0.3195	0.1635	-0.9585	0	39	900	1
2026-02-11	16:32:20.130	-2.555	-8.12	-4.025	-0.216184	0.374296	0.913536	-0.336	0.147	-0.954	0	39	900	1
2026-02-11	16:32:20.150	-3.15	-7.63	-1.12	-0.20618	0.376492	0.9089	-0.3435	0.1425	-0.9585	0	39	900	1
2026-02-11	16:32:20.170	5.355	-5.495	0.56	-0.191784	0.441152	0.880352	-0.36	0.1335	-0.969	0	39	900	1
2026-02-11	16:32:20.190	9.415	-3.815	2.065	-0.20618	0.489464	0.84912	-0.3765	0.1275	-0.972	0	39	900	1
2026-02-11	16:32:20.210	5.005	-3.22	1.89	-0.205692	0.528992	0.846924	-0.384	0.129	-0.9705	0	40	896	1
2026-02-11	16:32:20.230	0.385	-3.325	0.665	-0.209108	0.524356	0.849608	-0.399	0.123	-0.9825	0	40	896	1
2026-02-11	16:32:20.250	-3.745	-3.43	-0.28	-0.208376	0.503128	0.843508	-0.414	0.1215	-0.9825	0	40	896	1
2026-02-11	16:32:20.270	-5.775	-3.465	-0.455	-0.20008	0.477996	0.849852	-0.435	0.1215	-0.9945	0	40	896	1
2026-02-11	16:32:20.290	-6.44	-3.045	-0.35	-0.195444	0.468968	0.864736	-0.426	0.123	-0.999	0	40	896	1
2026-02-11	16:32:20.310	-6.405	-2.555	0.49	-0.199592	0.476532	0.863028	-0.4305	0.1155	-1.0125	0	40	896	1
2026-02-11	16:32:20.330	-7.98	-2.17	1.365	-0.197884	0.470432	0.862052	-0.4425	0.1095	-1.011	0	40	896	1
2026-02-11	16:32:20.350	-9.135	-1.295	2.975	-0.19276	0.431636	0.884256	-0.453	0.105	-1.0215	0	40	896	1
2026-02-11	16:32:20.370	-5.705	-0.49	4.76	-0.19032	0.438956	0.886452	-0.459	0.1035	-1.02	0	40	896	1
2026-02-11	16:32:20.390	1.96	-0.14	4.9	-0.18788	0.483852	0.868152	-0.4695	0.105	-1.0245	0	40	896	1
2026-02-11	16:32:20.410	4.095	-0.245	2.765	-0.188124	0.4941	0.862296	-0.474	0.1065	-1.032	0	42	892	1
2026-02-11	16:32:20.430	0.315	-0.63	0.91	-0.192272	0.478484	0.859612	-0.474	0.1065	-1.0365	0	42	892	1
2026-02-11	16:32:20.450	-0.385	-0.735	1.19	-0.197884	0.462624	0.85888	-0.474	0.1065	-1.0365	0	42	892	1
2026-02-11	16:32:20.470	0.14	-0.98	1.365	-0.199104	0.47702	0.861564	-0.483	0.1125	-1.041	0	42	892	1
2026-02-11	16:32:20.490	-0.28	-1.26	1.575	-0.187392	0.472872	0.865956	-0.498	0.1035	-1.0485	0	42	892	1
2026-02-11	16:32:20.510	-0.28	-0.91	1.47	-0.186904	0.471896	0.869616	-0.498	0.1065	-1.041	0	42	892	1
2026-02-11	16:32:20.530	-0.49	-0.49	1.015	-0.184952	0.468236	0.873276	-0.5025	0.0975	-1.047	0	42	892	1
2026-02-11	16:32:20.550	-0.07	-0.14	0.805	-0.188124	0.472628	0.859856	-0.504	0.1005	-1.0545	0	42	892	1
2026-02-11	16:32:20.570	0.455	0.035	0.735	-0.192272	0.475312	0.86254	-0.5055	0.102	-1.0485	0	42	892	1
2026-02-11	16:32:20.590	0.35	-0.14	0.7	-0.18788	0.474092	0.858392	-0.5025	0.105	-1.0485	0	42	892	1
2026-02-11	16:32:20.610	0.28	-0.21	0.665	-0.190564	0.480436	0.861076	-0.507	0.1035	-1.0515	0	43	889	1
2026-02-11	16:32:20.630	0.315	-0.105	0.805	-0.190808	0.47214	0.866688	-0.5115	0.096	-1.0515	0	43	889	1
2026-02-11	16:32:20.650	0.98	-0.07	0.56	-0.187392	0.471652	0.864248	-0.5085	0.0915	-1.0515	0	43	889	1
2026-02-11	16:32:20.670	1.19	-0.07	0.28	-0.1891	0.474092	0.862784	-0.5085	0.0915	-1.0515	0	43	889	1
2026-02-11	16:32:20.690	1.05	0.07	0.105	-0.18544	0.474336	0.86254	-0.5145	0.1005	-1.0605	0	43	889	1
2026-02-11	16:32:20.710	1.085	-0.175	0.035	-0.19276	0.476532	0.865468	-0.519	0.1065	-1.059	0	43	889	1
2026-02-11	16:32:20.730	0.98	-0.49	-0.21	-0.186172	0.47702	0.857904	-0.513	0.0975	-1.056	0	43	889	1
2026-02-11	16:32:20.750	1.26	-0.385	-0.28	-0.188856	0.4819	0.860832	-0.5055	0.1065	-1.0605	0	43	889	1
2026-02-11	16:32:20.770	0.84	-0.035	-0.455	-0.188612	0.4819	0.856684	-0.507	0.1035	-1.065	0	43	889	1
2026-02-11	16:32:20.790	0.63	-0.28	-0.595	-0.192516	0.477264	0.857904	-0.51	0.102	-1.0635	0	43	889	1
2026-02-11	16:32:20.810	0.42	-0.525	-0.7	-0.1891	0.473848	0.864736	-0.5175	0.096	-1.0635	0	43	887	1
2026-02-11	16:32:20.830	0.525	-0.595	-0.63	-0.186416	0.47092	0.865224	-0.5115	0.096	-1.0635	0	43	887	1
2026-02-11	16:32:20.850	0.91	-0.525	-0.63	-0.187392	0.477264	0.862784	-0.5115	0.1005	-1.0605	0	43	887	1
2026-02-11	16:32:20.870	0.98	-0.385	-0.595	-0.184708	0.477996	0.859368	-0.5205	0.102	-1.062	0	43	887	1
2026-02-11	16:32:20.890	1.33	-0.21	-0.49	-0.1952	0.47824	0.860344	-0.5205	0.102	-1.062	0	43	887	1
2026-02-11	16:32:20.910	1.225	-0.14	-0.385	-0.183976	0.482144	0.859856	-0.5145	0.105	-1.059	0	43	887	1
2026-02-11	16:32:20.930	1.26	0	-0.525	-0.188612	0.479704	0.854732	-0.5205	0.108	-1.0515	0	43	887	1
2026-02-11	16:32:20.950	0.945	-0.105	-0.49	-0.186172	0.483852	0.861076	-0.5205	0.1035	-1.062	0	43	887	1
2026-02-11	16:32:20.970	0.56	-0.14	-0.7	-0.191052	0.473116	0.852292	-0.5235	0.1035	-1.059	0	43	887	1
2026-02-11	16:32:20.990	0.385	-0.315	-0.49	-0.185928	0.48556	0.874008	-0.519	0.1065	-1.0575	0	43	887	1
2026-02-11	16:32:21.010	0	-0.28	-0.7	-0.189344	0.477752	0.851804	-0.516	0.102	-1.0545	0	42	885	1
2026-02-11	16:32:21.030	1.4	-0.14	-0.315	-0.183	0.475312	0.855708	-0.5175	0.1005	-1.059	0	42	885	1
2026-02-11	16:32:21.050	0.49	0.07	0.21	-0.183976	0.493856	0.869128	-0.5175	0.1065	-1.056	0	42	885	1
2026-02-11	16:32:21.070	0.315	-0.07	-0.28	-0.188612	0.483608	0.861076	-0.5145	0.105	-1.053	0	42	885	1
2026-02-11	16:32:21.090	-0.105	0.105	-0.385	-0.189832	0.47946	0.854732	-0.5145	0.102	-1.0575	0	42	885	1
2026-02-11	16:32:21.110	0.105	0.035	-0.14	-0.187636	0.477996	0.863028	-0.5145	0.102	-1.0575	0	42	885	1
2026-02-11	16:32:21.130	0.385	-0.07	-0.28	-0.1891	0.480436	0.856684	-0.51	0.108	-1.056	0	42	885	1
2026-02-11	16:32:21.150	0.21	-0.105	-0.245	-0.192516	0.479948	0.859368	-0.5145	0.099	-1.0575	0	42	885	1
2026-02-11	16:32:21.170	0.21	-0.07	-0.28	-0.188124	0.47946	0.859124	-0.5175	0.102	-1.0545	0	42	885	1
2026-02-11	16:32:21.190	0.42	0	-0.035	-0.18788	0.482632	0.856196	-0.519	0.105	-1.062	0	42	885	1
2026-02-11	16:32:21.210	0	0.105	-0.14	-0.189832	0.48434	0.86132	-0.519	0.105	-1.0575	0	39	883	1
2026-02-11	16:32:21.230	0	0	-0.28	-0.189832	0.48068	0.85522	-0.519	0.1065	-1.0545	0	39	883	1
2026-02-11	16:32:21.250	0.105	0	-0.14	-0.188612	0.476288	0.858636	-0.5175	0.108	-1.059	0	39	883	1
2026-02-11	16:32:21.270	-0.105	-0.035	-0.14	-0.182756	0.482632	0.862052	-0.516	0.1065	-1.0605	0	39	883	1
2026-02-11	16:32:21.290	0.21	0	-0.49	-0.188368	0.478972	0.852536	-0.516	0.105	-1.056	0	39	883	1
2026-02-11	16:32:21.310	0.175	-0.035	-0.385	-0.191784	0.47946	0.856684	-0.519	0.1065	-1.0545	0	39	883	1
2026-02-11	16:32:21.330	-0.14	-0.175	-0.49	-0.187148	0.481412	0.862784	-0.5205	0.105	-1.056	0	39	883	1
2026-02-11	16:32:21.350	0.385	-0.28	-0.49	-0.186172	0.477508	0.853756	-0.522	0.1065	-1.053	0	39	883	1
2026-02-11	16:32:21.370	0.315	-0.28	-0.35	-0.183976	0.481412	0.856196	-0.513	0.1125	-1.0515	0	39	883	1
2026-02-11	16:32:21.390	-0.07	-0.385	-0.385	-0.188856	0.483608	0.854488	-0.522	0.1035	-1.0575	0	39	883	1
2026-02-11	16:32:21.410	-0.385	-0.525	-0.385	-0.187636	0.470432	0.859368	-0.5205	0.0975	-1.0545	0	36	882	1
2026-02-11	16:32:21.430	-0.595	-0.455	-0.35	-0.189344	0.480192	0.86376	-0.5205	0.099	-1.056	0	36	882	1
2026-02-11	16:32:21.450	-0.035	-0.21	-0.42	-0.188612	0.4819	0.864248	-0.5235	0.102	-1.056	0	36	882	1
2026-02-11	16:32:21.470	0.56	0.14	-0.49	-0.187148	0.480436	0.86498	-0.525	0.105	-1.056	0	36	882	1
2026-02-11	16:32:21.490	1.015	0.42	-0.455	-0.193248	0.493124	0.86132	-0.5235	0.1065	-1.0575	0	36	882	1
2026-02-11	16:32:21.510	0.77	0.595	-0.595	-0.184464	0.487756	0.853512	-0.516	0.105	-1.056	0	36	882	1
2026-02-11	16:32:21.530	0.035	0.175	-0.595	-0.186172	0.474336	0.857416	-0.5175	0.1035	-1.056	0	36	882	1
2026-02-11	16:32:21.550	0.245	-0.14	-0.315	-0.19398	0.483852	0.866932	-0.5265	0.105	-1.056	0	36	882	1
2026-02-11	16:32:21.570	0.63	-0.035	-0.315	-0.189588	0.481656	0.85888	-0.5205	0.099	-1.053	0	36	882	1
2026-02-11	16:32:21.590	0.42	0.14	-0.35	-0.188124	0.486536	0.851804	-0.5175	0.102	-1.0485	0	36	882	1
2026-02-11	16:32:21.610	0.175	0.14	-0.245	-0.190076	0.484584	0.854	-0.5145	0.1095	-1.053	0	32	881	1
2026-02-11	16:32:21.630	-0.07	0.105	-0.21	-0.188368	0.484096	0.857904	-0.525	0.1035	-1.0575	0	32	881	1
2026-02-11	16:32:21.650	0.07	-0.07	-0.315	-0.180804	0.44774	0.847412	-0.5265	0.1035	-1.0575	0	32	881	1
2026-02-11	16:32:21.670	-0.14	-0.28	-0.28	-0.19032	0.48556	0.864492	-0.528	0.1035	-1.059	0	32	881	1
2026-02-11	16:32:21.690	-0.77	0.035	-0.28	-0.186904	0.485804	0.869616	-0.525	0.1035	-1.056	0	32	881	1
2026-02-11	16:32:21.710	0.28	0.245	-0.56	-0.1891	0.470432	0.859368	-0.5235	0.1035	-1.0545	0	32	881	1
2026-02-11	16:32:21.730	1.155	0.175	-0.455	-0.182756	0.47458	0.849852	-0.5175	0.102	-1.0575	0	32	881	1
2026-02-11	16:32:21.750	0.805	0.035	-0.35	-0.18788	0.491172	0.853756	-0.516	0.1035	-1.0635	0	32	881	1
2026-02-11	16:32:21.770	-0.28	-0.175	-0.49	-0.188856	0.489464	0.857904	-0.5205	0.108	-1.0665	0	32	881	1
2026-02-11	16:32:21.790	-0.49	-0.175	-0.56	-0.188124	0.481168	0.863516	-0.5175	0.105	-1.056	0	32	881	1
2026-02-11	16:32:21.810	-0.14	0.07	-0.42	-0.18544	0.479948	0.860344	-0.5145	0.111	-1.0575	0	28	880	1
2026-02-11	16:32:21.830	0.35	0.14	-0.455	-0.188368	0.485804	0.856196	-0.5235	0.0975	-1.0575	0	28	880	1
2026-02-11	16:32:21.850	0.455	-0.035	-0.56	-0.186416	0.483608	0.853268	-0.519	0.1005	-1.0575	0	28	880	1
2026-02-11	16:32:21.870	0.455	-0.175	-0.595	-0.187148	0.481656	0.854732	-0.516	0.105	-1.0605	0	28	880	1
2026-02-11	16:32:21.890	0.35	-0.28	-0.7	-0.187148	0.485804	0.852536	-0.5235	0.1035	-1.0545	0	28	880	1
2026-02-11	16:32:21.910	0.56	-0.21	-0.56	-0.186416	0.480436	0.858392	-0.519	0.1035	-1.0485	0	28	880	1
2026-02-11	16:32:21.930	0.91	-0.21	-0.315	-0.186416	0.487024	0.856196	-0.5175	0.1065	-1.0515	0	28	880	1
2026-02-11	16:32:21.950	0.735	-0.21	-0.175	-0.186416	0.488	0.860588	-0.519	0.1035	-1.0545	0	28	880	1
2026-02-11	16:32:21.970	-0.245	-0.035	-0.28	-0.184708	0.49044	0.856928	-0.516	0.102	-1.0545	0	28	880	1
2026-02-11	16:32:21.990	-0.735	0.07	-0.385	-0.192028	0.48068	0.856196	-0.519	0.102	-1.0545	0	28	880	1
2026-02-11	16:32:22.010	-0.385	-0.035	-0.315	-0.183244	0.483608	0.85888	-0.519	0.1095	-1.0575	0	25	879	1
2026-02-11	16:32:22.030	-0.105	0.07	-0.315	-0.186416	0.4819	0.856196	-0.522	0.1065	-1.0575	0	25	879	1
2026-02-11	16:32:22.050	0.105	0.035	-0.28	-0.183732	0.483852	0.858148	-0.522	0.1125	-1.047	0	25	879	1
2026-02-11	16:32:22.070	-0.28	0.14	-0.175	-0.19154	0.485072	0.85278	-0.5205	0.105	-1.053	0	25	879	1
2026-02-11	16:32:22.090	-0.805	0.105	-0.21	-0.19032	0.48678	0.85888	-0.522	0.1035	-1.053	0	25	879	1
2026-02-11	16:32:22.110	-1.015	0.105	-0.315	-0.187636	0.4819	0.856196	-0.519	0.1035	-1.053	0	25	879	1
2026-02-11	16:32:22.130	-0.56	0.035	-0.35	-0.185684	0.47824	0.858148	-0.522	0.102	-1.0575	0	25	879	1
2026-02-11	16:32:22.150	-0.07	-0.035	-0.28	-0.177876	0.479704	0.853512	-0.525	0.1065	-1.0545	0	25	879	1
2026-02-11	16:32:22.170	-0.07	-0.035	-0.315	-0.18544	0.486048	0.856196	-0.5235	0.1065	-1.0575	0	25	879	1
2026-02-11	16:32:22.190	-0.455	-0.175	-0.42	-0.186416	0.488732	0.854	-0.5205	0.1125	-1.0545	0	25	879	1
2026-02-11	16:32:22.210	-0.175	-0.42	-0.35	-0.192272	0.481656	0.854732	-0.5145	0.1185	-1.0485	0	22	878	1
2026-02-11	16:32:22.230	-0.525	-0.28	-0.245	-0.187636	0.488732	0.861564	-0.5235	0.1005	-1.0515	0	22	878	1
2026-02-11	16:32:22.250	-1.015	-0.245	-0.49	-0.183732	0.483364	0.865224	-0.5205	0.1095	-1.059	0	22	878	1
2026-02-11	16:32:22.270	-0.245	-0.175	-0.525	-0.187636	0.477508	0.850096	-0.525	0.114	-1.0575	0	22	878	1
2026-02-11	16:32:22.290	-0.105	0	-0.315	-0.184464	0.48068	0.857416	-0.525	0.108	-1.0545	0	22	878	1
2026-02-11	16:32:22.310	-0.84	0.14	-0.35	-0.186904	0.50142	0.867664	-0.5265	0.102	-1.0545	0	22	878	1
2026-02-11	16:32:22.330	-0.28	0	-0.7	-0.190808	0.47458	0.851072	-0.5265	0.102	-1.056	0	22	878	1
2026-02-11	16:32:22.350	0.245	-0.035	-0.35	-0.185928	0.471408	0.853024	-0.5265	0.1035	-1.05	0	22	878	1
2026-02-11	16:32:22.370	0	-0.035	-0.245	-0.185684	0.491416	0.862052	-0.522	0.108	-1.053	0	22	878	1
2026-02-11	16:32:22.390	-0.63	0.07	-0.385	-0.19032	0.485804	0.859612	-0.5205	0.105	-1.0575	0	22	878	1
2026-02-11	16:32:22.410	-0.525	0.245	-0.315	-0.185684	0.474336	0.855464	-0.5235	0.102	-1.059	0	19	877	1
2026-02-11	16:32:22.430	-0.14	0.42	-0.175	-0.189344	0.480436	0.860588	-0.5235	0.105	-1.062	0	19	877	1
2026-02-11	16:32:22.450	-0.035	0.42	-0.175	-0.188856	0.48312	0.858392	-0.519	0.111	-1.0575	0	19	877	1
2026-02-11	16:32:22.470	-0.28	0.315	-0.28	-0.188612	0.482388	0.859612	-0.519	0.105	-1.062	0	19	877	1
2026-02-11	16:32:22.490	-0.385	0.14	-0.385	-0.18422	0.488244	0.859368	-0.5175	0.102	-1.0605	0	19	877	1
2026-02-11	16:32:22.510	-0.385	0	-0.455	-0.188856	0.486292	0.858148	-0.5175	0.099	-1.056	0	19	877	1
2026-02-11	16:32:22.530	-0.63	0.035	-0.595	-0.18422	0.480924	0.85766	-0.5175	0.102	-1.056	0	19	877	1
2026-02-11	16:32:22.550	-0.7	0.035	-0.63	-0.186904	0.478728	0.855464	-0.5235	0.105	-1.0545	0	19	877	1
2026-02-11	16:32:22.570	-0.525	0.035	-0.595	-0.188368	0.481412	0.859124	-0.528	0.1095	-1.0515	0	19	877	1
2026-02-11	16:32:22.590	-0.56	-0.035	-0.56	-0.187636	0.485316	0.860344	-0.522	0.1095	-1.056	0	19	877	1
2026-02-11	16:32:22.610	-0.315	0	-0.56	-0.189344	0.477996	0.85278	-0.5175	0.108	-1.0575	0	17	877	1
2026-02-11	16:32:22.630	-0.14	-0.035	-0.42	-0.187636	0.47946	0.853024	-0.5175	0.105	-1.0575	0	17	877	1
2026-02-11	16:32:22.650	-0.63	0.035	-0.455	-0.189832	0.487024	0.859856	-0.516	0.1005	-1.056	0	17	877	1
2026-02-11	16:32:22.670	-0.175	0.21	-0.595	-0.187148	0.472384	0.85278	-0.516	0.1005	-1.056	0	17	877	1
2026-02-11	16:32:22.690	-0.035	0.14	-0.28	-0.187148	0.477996	0.858148	-0.5145	0.1095	-1.0575	0	17	877	1
2026-02-11	16:32:22.710	-0.245	-0.035	-0.28	-0.187148	0.489708	0.862296	-0.519	0.108	-1.059	0	17	877	1
2026-02-11	16:32:22.730	-0.595	-0.105	-0.525	-0.188856	0.477264	0.858636	-0.525	0.102	-1.059	0	17	877	1
2026-02-11	16:32:22.750	-0.21	-0.14	-0.49	-0.18666	0.47336	0.853756	-0.522	0.096	-1.0575	0	17	877	1
2026-02-11	16:32:22.770	-0.035	-0.21	-0.42	-0.18788	0.483608	0.862296	-0.5205	0.102	-1.053	0	17	877	1
2026-02-11	16:32:22.790	-0.28	-0.385	-0.7	-0.1891	0.483852	0.860588	-0.525	0.108	-1.053	0	17	877	1
2026-02-11	16:32:22.810	-0.315	-0.245	-0.7	-0.18544	0.477508	0.859612	-0.5235	0.102	-1.05	0	15	877	1
2026-02-11	16:32:22.830	0.385	-0.035	-0.49	-0.188612	0.47702	0.863028	-0.5175	0.0975	-1.0485	0	15	877	1
2026-02-11	16:32:22.850	0.35	-0.035	-0.35	-0.189588	0.488244	0.855952	-0.5145	0.0975	-1.0515	0	15	877	1
2026-02-11	16:32:22.870	-0.665	0.175	-0.315	-0.187148	0.483608	0.859124	-0.5145	0.1005	-1.0515	0	15	877	1
2026-02-11	16:32:22.890	-0.77	0.21	-0.315	-0.188368	0.477996	0.853512	-0.5145	0.1005	-1.0515	0	15	877	1
2026-02-11	16:32:22.910	-0.665	0	-0.35	-0.185196	0.4758	0.858148	-0.525	0.1095	-1.0545	0	15	877	1
2026-02-11	16:32:22.930	-0.805	-0.28	-0.49	-0.188612	0.483852	0.856684	-0.5235	0.102	-1.053	0	15	877	1
2026-02-11	16:32:22.950	-0.665	-0.315	-0.42	-0.187148	0.474092	0.859612	-0.519	0.096	-1.0575	0	15	877	1
2026-02-11	16:32:22.970	-0.42	-0.35	-0.175	-0.190808	0.480436	0.861076	-0.5175	0.0975	-1.059	0	15	877	1
2026-02-11	16:32:22.990	-0.56	-0.07	-0.07	-0.188368	0.486536	0.863272	-0.5205	0.099	-1.0545	0	15	877	1
2026-02-11	16:32:23.010	-0.525	0.315	-0.28	-0.183732	0.482144	0.859124	-0.5205	0.105	-1.062	0	14	877	1
2026-02-11	16:32:23.030	-0.245	0.315	-0.35	-0.189588	0.470432	0.854488	-0.5205	0.1065	-1.0635	0	14	877	1
2026-02-11	16:32:23.050	-0.21	0.035	-0.175	-0.19032	0.48434	0.858392	-0.5205	0.105	-1.0575	0	14	877	1
2026-02-11	16:32:23.070	-0.595	0.035	-0.245	-0.180316	0.480436	0.866932	-0.5205	0.102	-1.056	0	14	877	1
2026-02-11	16:32:23.090	-0.385	0.28	-0.63	-0.183976	0.477996	0.858392	-0.5205	0.1005	-1.056	0	14	877	1
2026-02-11	16:32:23.110	-0.035	0.455	-0.63	-0.187636	0.481168	0.858636	-0.5205	0.1005	-1.056	0	14	877	1
2026-02-11	16:32:23.130	-0.42	0.14	-0.665	-0.186172	0.483852	0.85888	-0.5205	0.102	-1.0545	0	14	877	1
2026-02-11	16:32:23.150	-0.91	-0.35	-0.595	-0.18788	0.463356	0.853024	-0.5175	0.099	-1.059	0	14	877	1
2026-02-11	16:32:23.170	0	-0.28	-0.28	-0.19154	0.49532	0.863516	-0.5175	0.0975	-1.062	0	14	877	1
2026-02-11	16:32:23.190	-0.385	-0.315	-0.665	-0.189588	0.490928	0.856928	-0.522	0.102	-1.059	0	14	877	1
2026-02-11	16:32:23.210	-1.645	-0.35	-0.525	-0.18666	0.4453	0.863028	-0.522	0.1035	-1.059	0	13	877	1
2026-02-11	16:32:23.230	1.05	0.035	0.63	-0.186416	0.486536	0.857172	-0.522	0.105	-1.0605	0	13	877	1
2026-02-11	16:32:23.250	1.26	-0.105	-0.035	-0.191296	0.497272	0.85522	-0.525	0.1035	-1.059	0	13	877	1
2026-02-11	16:32:23.270	-1.26	-0.105	-0.35	-0.191052	0.47824	0.86254	-0.522	0.1065	-1.0605	0	13	877	1
2026-02-11	16:32:23.290	-0.77	0.14	0	-0.187636	0.468236	0.865956	-0.5205	0.102	-1.0575	0	13	877	1
2026-02-11	16:32:23.310	0.945	0.21	0	-0.191296	0.485804	0.852536	-0.5205	0.0945	-1.053	0	13	877	1
2026-02-11	16:32:23.330	-0.735	0.07	0.07	-0.185684	0.496052	0.860832	-0.5205	0.0945	-1.053	0	13	877	1
2026-02-11	16:32:23.350	-3.15	0.49	0.245	-0.185928	0.455792	0.868884	-0.5175	0.099	-1.0575	0	13	877	1
2026-02-11	16:32:23.370	-1.295	0.91	1.015	-0.192516	0.470188	0.86132	-0.516	0.1035	-1.059	0	13	877	1
2026-02-11	16:32:23.390	0.56	1.085	1.015	-0.187392	0.487024	0.860344	-0.519	0.1035	-1.059	0	13	877	1
2026-02-11	16:32:23.410	-0.805	1.365	1.47	-0.185928	0.468968	0.847656	-0.519	0.108	-1.065	0	12	878	1
2026-02-11	16:32:23.430	-0.35	1.365	2.135	-0.185196	0.487024	0.856684	-0.5115	0.1125	-1.068	0	12	878	1
2026-02-11	16:32:23.450	-1.33	1.68	2.135	-0.188368	0.48434	0.8784	-0.513	0.111	-1.0665	0	12	878	1
2026-02-11	16:32:23.470	-1.295	1.995	1.505	-0.18422	0.476532	0.86742	-0.519	0.1125	-1.0635	0	12	878	1
2026-02-11	16:32:23.490	-0.07	2.17	1.085	-0.190076	0.467748	0.847656	-0.5175	0.111	-1.0665	0	12	878	1
2026-02-11	16:32:23.510	-0.28	1.785	1.47	-0.194712	0.47458	0.850096	-0.516	0.111	-1.0665	0	12	878	1
2026-02-11	16:32:23.530	-1.4	1.295	1.61	-0.19154	0.476532	0.863272	-0.5145	0.117	-1.065	0	12	878	1
2026-02-11	16:32:23.550	-1.225	1.015	0.945	-0.191052	0.485804	0.86376	-0.513	0.117	-1.068	0	12	878	1
2026-02-11	16:32:23.570	-0.595	0.84	0.21	-0.194224	0.485804	0.853024	-0.513	0.117	-1.0665	0	12	878	1
2026-02-11	16:32:23.590	-1.085	0.665	0.035	-0.193736	0.46604	0.857416	-0.507	0.1155	-1.0665	0	12	878	1
2026-02-11	16:32:23.610	-1.015	0.385	0.455	-0.189344	0.464088	0.857172	-0.5085	0.1155	-1.071	0	12	878	1
2026-02-11	16:32:23.630	-0.07	0.175	0.7	-0.190076	0.472628	0.859612	-0.5145	0.12	-1.071	0	12	878	1
2026-02-11	16:32:23.650	0.07	0.07	1.435	-0.189832	0.472628	0.86498	-0.5145	0.12	-1.0725	0	12	878	1
2026-02-11	16:32:23.670	-0.035	0.035	0.98	-0.18544	0.482388	0.869128	-0.5175	0.1215	-1.0725	0	12	878	1
2026-02-11	16:32:23.690	-0.455	-0.21	0.385	-0.185928	0.481412	0.858148	-0.5175	0.1185	-1.0755	0	12	878	1
2026-02-11	16:32:23.710	0	-0.35	0.035	-0.18544	0.480436	0.854	-0.519	0.1125	-1.0785	0	12	878	1
2026-02-11	16:32:23.730	-0.105	-0.35	0.245	-0.19154	0.471408	0.860588	-0.519	0.114	-1.074	0	12	878	1
2026-02-11	16:32:23.750	0.14	-0.21	0.665	-0.18666	0.473604	0.862296	-0.5205	0.114	-1.077	0	12	878	1
2026-02-11	16:32:23.770	0.21	0	1.4	-0.187148	0.467504	0.859856	-0.519	0.1155	-1.0785	0	12	878	1
2026-02-11	16:32:23.790	1.12	0	1.855	-0.189832	0.470188	0.856196	-0.522	0.1185	-1.0815	0	12	878	1
2026-02-11	16:32:23.810	1.085	-0.035	2.205	-0.188612	0.485072	0.85522	-0.5295	0.1215	-1.083	0	11	878	1
2026-02-11	16:32:23.830	0.595	-0.14	2.1	-0.183488	0.485804	0.853024	-0.5295	0.12	-1.086	0	11	878	1
2026-02-11	16:32:23.850	-0.63	-0.28	1.75	-0.184464	0.485804	0.86498	-0.5295	0.1185	-1.0905	0	11	878	1
2026-02-11	16:32:23.870	-1.75	-0.175	1.505	-0.189832	0.49044	0.862052	-0.5295	0.117	-1.089	0	11	878	1
2026-02-11	16:32:23.890	-2.31	0.28	1.54	-0.190564	0.476288	0.861564	-0.534	0.117	-1.0965	0	11	878	1
2026-02-11	16:32:23.910	-2.03	0.805	2.24	-0.186172	0.481656	0.860588	-0.5385	0.1215	-1.1025	0	11	878	1
2026-02-11	16:32:23.930	-1.435	1.155	2.765	-0.185684	0.45994	0.86132	-0.5445	0.1245	-1.104	0	11	878	1
2026-02-11	16:32:23.950	-1.995	1.4	3.08	-0.189832	0.485804	0.866444	-0.549	0.123	-1.107	0	11	878	1
2026-02-11	16:32:23.970	-2.87	1.26	3.185	-0.194956	0.476776	0.858636	-0.5475	0.1185	-1.1145	0	11	878	1
2026-02-11	16:32:23.990	-4.025	1.61	3.255	-0.194224	0.486292	0.86254	-0.5475	0.1215	-1.1145	0	11	878	1
2026-02-11	16:32:24.010	-4.375	2.065	2.87	-0.176656	0.47824	0.873032	-0.5445	0.1245	-1.122	0	11	878	1
2026-02-11	16:32:24.030	-4.41	2.625	2.625	-0.175436	0.46482	0.862296	-0.5475	0.1155	-1.1295	0	11	878	1
2026-02-11	16:32:24.050	-3.465	2.905	3.22	-0.184464	0.467748	0.866688	-0.5475	0.111	-1.1235	0	11	878	1
2026-02-11	16:32:24.070	-2.45	3.115	4.06	-0.187148	0.476288	0.87352	-0.543	0.114	-1.1235	0	11	878	1
2026-02-11	16:32:24.090	-1.015	3.955	4.62	-0.178608	0.467748	0.88206	-0.543	0.117	-1.1265	0	11	878	1
2026-02-11	16:32:24.110	-1.05	5.565	5.425	-0.18422	0.436028	0.865712	-0.5415	0.12	-1.125	0	11	878	1
2026-02-11	16:32:24.130	-0.35	8.155	6.86	-0.188612	0.52094	0.88816	-0.5325	0.117	-1.1235	0	11	878	1
2026-02-11	16:32:24.150	-4.34	11.375	7.595	-0.18056	0.593652	0.89426	-0.528	0.111	-1.125	0	11	878	1
2026-02-11	16:32:24.170	-1.925	15.155	7.84	-0.19276	0.524112	0.888648	-0.5205	0.1125	-1.1265	0	11	878	1
2026-02-11	16:32:24.190	3.92	18.235	7.455	-0.19154	0.574864	0.897676	-0.501	0.117	-1.1235	0	11	878	1
2026-02-11	16:32:24.210	0.77	23.52	5.95	-0.161772	0.595604	0.909876	-0.471	0.114	-1.113	0	11	879	1
2026-02-11	16:32:24.230	-0.98	28.875	4.865	-0.149572	0.672708	0.891088	-0.4365	0.114	-1.0965	0	11	879	1
2026-02-11	16:32:24.250	-2.66	33.25	2.59	-0.164212	0.600484	0.847168	-0.3945	0.1095	-1.071	0	11	879	1
2026-02-11	16:32:24.270	-2.1	35.945	0.875	-0.178608	0.522404	0.7991	-0.3345	0.102	-1.0335	0	11	879	1
2026-02-11	16:32:24.290	1.61	37.45	-1.61	-0.224968	0.495076	0.76738	-0.267	0.0945	-0.987	0	11	879	1
2026-02-11	16:32:24.310	2.17	36.015	-2.275	-0.254248	0.454572	0.76006	-0.201	0.09	-0.9405	0	11	879	1
2026-02-11	16:32:24.330	1.82	32.83	-2.38	-0.277916	0.440908	0.74542	-0.15	0.0855	-0.897	0	11	879	1
2026-02-11	16:32:24.350	-4.445	28.21	-1.82	-0.287432	0.409676	0.744932	-0.1095	0.0765	-0.8505	0	11	879	1
2026-02-11	16:32:24.370	-10.255	22.155	-2.38	-0.315492	0.361852	0.74786	-0.081	0.0735	-0.8175	0	11	879	1
2026-02-11	16:32:24.390	-13.09	14.07	-1.995	-0.328668	0.320128	0.778848	-0.066	0.0705	-0.7965	0	11	879	1
2026-02-11	16:32:24.410	-14.21	6.3	-1.505	-0.322324	0.329888	0.838384	-0.0585	0.0705	-0.7785	0	14	878	1
2026-02-11	16:32:24.430	-19.005	-1.82	-0.245	-0.324032	0.3538	0.903532	-0.06	0.0675	-0.7695	0	14	878	1
2026-02-11	16:32:24.450	-22.925	-5.67	1.4	-0.321836	0.332328	0.884988	-0.0675	0.0615	-0.7635	0	14	878	1
2026-02-11	16:32:24.470	-26.845	-9.17	3.99	-0.313784	0.305976	0.852292	-0.0855	0.06	-0.762	0	14	878	1
2026-02-11	16:32:24.490	-27.65	-11.83	9.31	-0.281088	0.287432	0.859124	-0.1035	0.0585	-0.771	0	14	878	1
2026-02-11	16:32:24.510	-23.24	-13.79	14.35	-0.259128	0.307928	0.877668	-0.1245	0.0585	-0.789	0	14	878	1
2026-02-11	16:32:24.530	-18.9	-14.875	18.34	-0.237168	0.3843	0.925004	-0.1575	0.0585	-0.8175	0	14	878	1
2026-02-11	16:32:24.550	-18.375	-13.545	23.415	-0.21594	0.413824	0.946232	-0.1995	0.0615	-0.8475	0	14	878	1
2026-02-11	16:32:24.570	-16.205	-10.29	25.97	-0.25376	0.445056	0.960384	-0.249	0.0735	-0.873	0	14	878	1
2026-02-11	16:32:24.590	-6.475	-5.6	27.125	-0.23424	0.382104	0.927444	-0.2895	0.0885	-0.903	0	14	878	1
2026-02-11	16:32:24.610	14.595	-0.735	25.445	-0.2623	0.47214	0.870348	-0.324	0.111	-0.927	0	21	875	1
2026-02-11	16:32:24.630	21.735	2.275	21.56	-0.236924	0.64904	0.835944	-0.354	0.1335	-0.9435	0	21	875	1
2026-02-11	16:32:24.650	14.035	5.11	19.74	-0.223992	0.49654	0.853268	-0.363	0.1425	-0.9525	0	21	875	1
2026-02-11	16:32:24.670	17.92	5.46	17.01	-0.207888	0.551928	0.84302	-0.378	0.156	-0.966	0	21	875	1
2026-02-11	16:32:24.690	16.065	3.43	10.22	-0.20984	0.52338	0.818864	-0.393	0.168	-0.981	0	21	875	1
2026-02-11	16:32:24.710	10.5	0.945	5.67	-0.222528	0.462868	0.831064	-0.3975	0.1665	-0.9855	0	21	875	1
2026-02-11	16:32:24.730	2.695	-0.385	4.655	-0.236192	0.443836	0.841556	-0.405	0.1635	-0.9885	0	21	875	1
2026-02-11	16:32:24.750	-1.05	-2.52	4.655	-0.237168	0.420656	0.8784	-0.408	0.1575	-0.987	0	21	875	1
2026-02-11	16:32:24.770	1.645	-3.85	4.2	-0.229604	0.382348	0.900604	-0.42	0.1545	-0.987	0	21	875	1
2026-02-11	16:32:24.790	12.145	-4.13	2.695	-0.230092	0.39528	0.905484	-0.432	0.1545	-0.99	0	21	875	1
2026-02-11	16:32:24.810	21.21	-4.445	1.12	-0.221308	0.454816	0.884256	-0.438	0.1545	-0.993	0	29	875	1
2026-02-11	16:32:24.830	21.63	-4.935	-1.82	-0.211304	0.512644	0.854488	-0.45	0.1515	-0.996	0	29	875	1
2026-02-11	16:32:24.850	16.905	-5.705	-5.215	-0.207888	0.554856	0.842532	-0.4575	0.153	-0.9975	0	29	875	1
2026-02-11	16:32:24.870	5.215	-7.875	-8.96	-0.20374	0.561688	0.85156	-0.459	0.156	-0.999	0	29	875	1
2026-02-11	16:32:24.890	5.18	-7.63	-10.185	-0.2562	0.525576	0.854	-0.468	0.156	-0.996	0	29	875	1
2026-02-11	16:32:24.910	6.72	-7.42	-9.59	-0.208864	0.49532	0.860832	-0.474	0.159	-0.9915	0	29	875	1
2026-02-11	16:32:24.930	5.74	-6.3	-8.505	-0.201544	0.373808	0.837652	-0.468	0.1635	-0.981	0	29	875	1
2026-02-11	16:32:24.950	4.445	-5.075	-6.755	-0.21594	0.419436	0.842776	-0.471	0.171	-0.9675	0	29	875	1
2026-02-11	16:32:24.970	0.49	-3.885	-4.27	-0.199592	0.404308	0.841556	-0.474	0.1725	-0.9615	0	29	875	1
2026-02-11	16:32:24.990	4.515	-2.205	-3.185	-0.228628	0.467016	0.841068	-0.471	0.168	-0.957	0	29	875	1
2026-02-11	16:32:25.010	8.89	-1.645	-2.485	-0.189588	0.531676	0.84302	-0.468	0.1695	-0.954	0	38	877	1
2026-02-11	16:32:25.030	7.84	-1.225	-2.695	-0.232532	0.546316	0.854244	-0.462	0.1755	-0.9525	0	38	877	1
2026-02-11	16:32:25.050	5.88	-1.785	-2.975	-0.203496	0.506788	0.850584	-0.4605	0.1815	-0.9405	0	38	877	1
2026-02-11	16:32:25.070	2.94	-1.26	-3.08	-0.25132	0.467992	0.83448	-0.4605	0.186	-0.927	0	38	877	1
2026-02-11	16:32:25.090	4.48	-0.77	-3.78	-0.233508	0.55998	0.852048	-0.4575	0.186	-0.9255	0	38	877	1
2026-02-11	16:32:25.110	2.17	-0.175	-4.48	-0.2013	0.523868	0.850096	-0.45	0.1905	-0.921	0	38	877	1
2026-02-11	16:32:25.130	3.115	1.015	-5.39	-0.193492	0.488488	0.8174	-0.4395	0.1935	-0.9165	0	38	877	1
2026-02-11	16:32:25.150	2.38	2.03	-5.145	-0.229116	0.521916	0.816668	-0.4365	0.1935	-0.9045	0	38	877	1
2026-02-11	16:32:25.170	1.365	1.855	-3.325	-0.241072	0.472872	0.821304	-0.432	0.198	-0.8925	0	38	877	1
2026-02-11	16:32:25.190	1.925	0.91	-1.68	-0.245952	0.48678	0.835212	-0.4245	0.201	-0.888	0	38	877	1
2026-02-11	16:32:25.210	1.995	-0.035	-0.35	-0.223504	0.50874	0.836188	-0.423	0.198	-0.8835	0	46	875	1
2026-02-11	16:32:25.230	-0.315	-0.245	-0.14	-0.218868	0.499224	0.842288	-0.426	0.195	-0.879	0	46	875	1
2026-02-11	16:32:25.250	-1.295	-0.175	-0.525	-0.216184	0.490684	0.84424	-0.4215	0.1905	-0.882	0	46	875	1
2026-02-11	16:32:25.270	0.665	-0.035	-0.945	-0.218868	0.48068	0.840092	-0.4185	0.1875	-0.885	0	46	875	1
2026-02-11	16:32:25.290	2.415	-0.105	-0.49	-0.219844	0.486048	0.841068	-0.4215	0.189	-0.885	0	46	875	1
2026-02-11	16:32:25.310	3.64	-0.105	-0.14	-0.221064	0.50508	0.842044	-0.426	0.1935	-0.885	0	46	875	1
2026-02-11	16:32:25.330	2.625	-0.21	-0.42	-0.22082	0.510936	0.83814	-0.4185	0.192	-0.8835	0	46	875	1
2026-02-11	16:32:25.350	1.05	-0.245	-0.735	-0.222284	0.50386	0.831552	-0.417	0.189	-0.882	0	46	875	1
2026-02-11	16:32:25.370	0.14	-0.28	-0.735	-0.218624	0.507032	0.834724	-0.423	0.192	-0.8805	0	46	875	1
2026-02-11	16:32:25.390	-0.14	-0.315	-0.665	-0.224724	0.499712	0.8357	-0.4245	0.1965	-0.876	0	46	875	1
2026-02-11	16:32:25.410	0.035	-0.35	-0.385	-0.222772	0.49776	0.835944	-0.4245	0.192	-0.8775	0	51	871	1
2026-02-11	16:32:25.430	0.455	-0.42	-0.35	-0.22204	0.496784	0.83936	-0.4245	0.1905	-0.8805	0	51	871	1
2026-02-11	16:32:25.450	0.735	-0.385	-0.315	-0.221552	0.501908	0.837408	-0.4215	0.192	-0.879	0	51	871	1
2026-02-11	16:32:25.470	0.77	-0.455	-0.28	-0.219112	0.5002	0.838628	-0.417	0.1905	-0.879	0	51	871	1
2026-02-11	16:32:25.490	0.7	-0.455	-0.28	-0.216916	0.504836	0.833016	-0.42	0.189	-0.882	0	51	871	1
2026-02-11	16:32:25.510	0.42	-0.245	-0.21	-0.223504	0.501664	0.840092	-0.4215	0.189	-0.8835	0	51	871	1
2026-02-11	16:32:25.530	0.7	-0.14	-0.035	-0.218624	0.501908	0.84546	-0.417	0.186	-0.879	0	51	871	1
2026-02-11	16:32:25.550	1.33	0.35	0.175	-0.218136	0.512644	0.847656	-0.4215	0.189	-0.879	0	51	871	1
2026-02-11	16:32:25.570	1.54	1.155	0	-0.221308	0.521672	0.842044	-0.423	0.189	-0.8805	0	51	871	1
2026-02-11	16:32:25.590	0.175	1.715	-0.805	-0.218624	0.511424	0.830088	-0.4185	0.1875	-0.8775	0	51	871	1
2026-02-11	16:32:25.610	-1.925	1.96	-1.295	-0.217892	0.49288	0.833748	-0.417	0.186	-0.876	0	53	867	1
2026-02-11	16:32:25.630	-1.435	1.855	-1.12	-0.221552	0.482632	0.846192	-0.4125	0.186	-0.879	0	53	867	1
2026-02-11	16:32:25.650	-0.42	1.96	-1.155	-0.212768	0.48678	0.855464	-0.414	0.1875	-0.873	0	53	867	1
2026-02-11	16:32:25.670	1.925	2.52	-1.61	-0.22326	0.480436	0.863028	-0.42	0.1875	-0.8685	0	53	867	1
2026-02-11	16:32:25.690	5.425	3.255	-1.96	-0.227164	0.47214	0.860832	-0.408	0.186	-0.8715	0	53	867	1
2026-02-11	16:32:25.710	9.52	3.465	-2.38	-0.229116	0.509716	0.866932	-0.396	0.189	-0.8685	0	53	867	1
2026-02-11	16:32:25.730	10.255	3.36	-2.52	-0.221308	0.488976	0.884988	-0.399	0.195	-0.8655	0	53	867	1
2026-02-11	16:32:25.750	13.685	3.92	-3.045	-0.222772	0.462624	0.907924	-0.3885	0.1995	-0.8715	0	53	867	1
2026-02-11	16:32:25.770	19.705	2.905	-5.005	-0.277184	0.461892	0.886696	-0.3735	0.204	-0.8595	0	53	867	1
2026-02-11	16:32:25.790	19.53	-0.28	-9.205	-0.251808	0.518988	0.921832	-0.3495	0.2175	-0.849	0	53	867	1
2026-02-11	16:32:25.810	-5.81	-3.115	-12.74	-0.261812	0.382104	0.909388	-0.3255	0.2355	-0.8415	0	52	867	1
2026-02-11	16:32:25.830	-29.925	-4.27	-14.035	-0.246928	0.471408	0.928176	-0.2955	0.252	-0.828	0	52	867	1
2026-02-11	16:32:25.850	-60.585	-3.08	-16.625	-0.310856	0.438712	0.902312	-0.2625	0.2805	-0.8235	0	52	867	1
2026-02-11	16:32:25.870	-69.58	-4.2	-19.425	-0.341844	0.4148	0.832772	-0.2175	0.3225	-0.8205	0	52	867	1
2026-02-11	16:32:25.890	-60.025	-7.42	-18.55	-0.352336	0.350628	0.7747	-0.168	0.366	-0.816	0	52	867	1
2026-02-11	16:32:25.910	-42.49	-12.95	-16.555	-0.34282	0.407236	0.784216	-0.129	0.4095	-0.813	0	52	867	1
2026-02-11	16:32:25.930	-33.705	-20.405	-16.135	-0.342332	0.547048	0.798368	-0.102	0.4455	-0.8115	0	52	867	1
2026-02-11	16:32:25.950	-47.25	-27.16	-17.92	-0.266936	0.507276	0.806176	-0.0915	0.459	-0.8145	0	52	867	1
2026-02-11	16:32:25.970	-55.72	-29.155	-18.445	-0.21716	0.454084	0.789828	-0.063	0.5025	-0.834	0	52	867	1
2026-02-11	16:32:25.990	-47.285	-27.58	-14.595	-0.21472	0.407968	0.787144	-0.048	0.537	-0.843	0	52	867	1
2026-02-11	16:32:26.010	-35.175	-24.5	-9.765	-0.145668	0.354776	0.780312	-0.033	0.5895	-0.864	0	52	868	1
2026-02-11	16:32:26.030	-16.59	-19.88	-5.425	-0.134932	0.36844	0.778848	-0.0375	0.624	-0.882	0	52	868	1
2026-02-11	16:32:26.050	4.305	-14.665	-1.05	-0.140056	0.392108	0.785436	-0.042	0.654	-0.9015	0	52	868	1
2026-02-11	16:32:26.070	23.73	-11.55	4.095	-0.091744	0.428952	0.794952	-0.051	0.6855	-0.927	0	52	868	1
2026-02-11	16:32:26.090	31.85	-7.805	9.03	-0.097112	0.567544	0.939156	-0.081	0.7215	-0.9525	0	52	868	1
2026-02-11	16:32:26.110	11.48	-7.875	8.015	-0.069052	0.631228	1.101904	-0.117	0.7545	-0.978	0	52	868	1
2026-02-11	16:32:26.130	-1.785	-12.495	2.94	-0.073932	0.308904	1.034072	-0.1545	0.7785	-1.0035	0	52	868	1
2026-02-11	16:32:26.150	7.49	-11.655	-3.185	-0.141032	0.185196	0.890844	-0.1845	0.7905	-1.02	0	52	868	1
2026-02-11	16:32:26.170	26.32	-12.285	-1.68	-0.151524	0.277672	0.870836	-0.195	0.7935	-1.023	0	52	868	1
2026-02-11	16:32:26.190	38.36	-12.67	3.29	-0.171776	0.443348	0.892308	-0.2175	0.7965	-0.999	0	52	868	1
2026-02-11	16:32:26.210	28.315	-11.27	5.32	-0.202032	0.455792	0.902312	-0.2175	0.7965	-0.999	0	54	870	1
2026-02-11	16:32:26.230	22.54	-9.485	7.105	-0.209352	0.457988	0.908168	-0.24	0.819	-0.9555	0	54	870	1
2026-02-11	16:32:26.250	25.515	-8.96	7.21	-0.199592	0.494832	0.903776	-0.2685	0.849	-0.9045	0	54	870	1
2026-02-11	16:32:26.270	26.985	-7.91	4.515	-0.170556	0.53924	0.905484	-0.2895	0.8565	-0.8865	0	54	870	1
2026-02-11	16:32:26.290	18.9	-5.67	1.855	-0.16592	0.56364	0.89304	-0.3015	0.8655	-0.876	0	54	870	1
2026-02-11	16:32:26.310	7.91	-4.13	0.14	-0.155184	0.509472	0.875228	-0.3045	0.873	-0.8805	0	54	870	1
2026-02-11	16:32:26.330	1.085	-3.325	-1.155	-0.157624	0.481412	0.874496	-0.3195	0.879	-0.891	0	54	870	1
2026-02-11	16:32:26.350	-3.64	-3.955	-1.295	-0.153964	0.450912	0.864492	-0.342	0.8835	-0.9015	0	54	870	1
2026-02-11	16:32:26.370	-5.67	-4.69	-0.35	-0.141032	0.435296	0.891576	-0.3555	0.882	-0.906	0	54	870	1
2026-02-11	16:32:26.390	-4.97	-4.165	0.35	-0.130296	0.427488	0.928176	-0.378	0.885	-0.9195	0	54	870	1
2026-02-11	16:32:26.410	-4.13	-1.89	-0.175	-0.142984	0.411872	0.919636	-0.4035	0.8895	-0.9465	0	59	877	1
2026-02-11	16:32:26.430	-1.995	-0.63	0.595	-0.147376	0.391864	0.895968	-0.4035	0.8895	-0.9465	0	59	877	1
2026-02-11	16:32:26.450	-0.14	-0.175	1.19	-0.151768	0.416508	0.91012	-0.4245	0.888	-0.954	0	59	877	1
2026-02-11	16:32:26.470	-0.735	0.28	1.68	-0.153476	0.40748	0.912804	-0.45	0.882	-0.9615	0	59	877	1
2026-02-11	16:32:26.490	1.54	0.49	1.645	-0.150304	0.406748	0.89548	-0.4515	0.8745	-0.9675	0	59	877	1
2026-02-11	16:32:26.510	4.41	0.245	1.435	-0.149572	0.437248	0.883768	-0.4545	0.8805	-0.966	0	59	877	1
2026-02-11	16:32:26.530	5.005	-0.455	-0.035	-0.14396	0.482632	0.889624	-0.4545	0.8865	-0.9615	0	59	877	1
2026-02-11	16:32:26.550	1.785	-1.015	-1.995	-0.14152	0.483608	0.887428	-0.453	0.885	-0.9585	0	59	877	1
2026-02-11	16:32:26.570	-1.96	-0.735	-3.15	-0.140056	0.450912	0.890112	-0.453	0.8895	-0.957	0	59	877	1
2026-02-11	16:32:26.590	-3.01	-0.07	-3.255	-0.137616	0.445056	0.8845	-0.453	0.8925	-0.9585	0	59	877	1
2026-02-11	16:32:26.610	-2.66	0.07	-3.15	-0.145424	0.437004	0.890112	-0.4545	0.882	-0.9525	0	63	887	1
2026-02-11	16:32:26.630	-1.82	-0.63	-3.815	-0.139568	0.436272	0.896212	-0.45	0.8865	-0.9555	0	63	887	1
2026-02-11	16:32:26.650	-0.77	-1.68	-5.25	-0.151036	0.431148	0.884256	-0.45	0.8865	-0.9555	0	63	887	1
2026-02-11	16:32:26.670	0.14	-2.765	-5.845	-0.15372	0.434076	0.880352	-0.4485	0.882	-0.9435	0	63	887	1
2026-02-11	16:32:26.690	1.61	-3.43	-5.845	-0.153232	0.425536	0.881084	-0.444	0.876	-0.933	0	63	887	1
2026-02-11	16:32:26.710	4.165	-3.43	-5.075	-0.15738	0.437248	0.88084	-0.4455	0.876	-0.933	0	63	887	1
2026-02-11	16:32:26.730	4.62	-2.94	-3.99	-0.149572	0.464576	0.900116	-0.444	0.873	-0.9285	0	63	887	1
2026-02-11	16:32:26.750	2.555	-2.1	-3.01	-0.14762	0.466284	0.892308	-0.4425	0.8685	-0.924	0	63	887	1
2026-02-11	16:32:26.770	1.33	-1.225	-1.855	-0.144936	0.450912	0.871324	-0.4485	0.873	-0.9225	0	63	887	1
2026-02-11	16:32:26.790	-0.595	-0.63	-0.665	-0.141032	0.455548	0.889136	-0.45	0.873	-0.921	0	63	887	1
2026-02-11	16:32:26.810	-1.505	0.14	-0.105	-0.139812	0.448228	0.898652	-0.4485	0.87	-0.9195	0	65	894	1
2026-02-11	16:32:26.830	-1.33	0.7	0.42	-0.146888	0.437004	0.884012	-0.4485	0.876	-0.924	0	65	894	1
2026-02-11	16:32:26.850	-0.735	0.665	0.805	-0.153476	0.439932	0.883036	-0.4575	0.8715	-0.918	0	65	894	1
2026-02-11	16:32:26.870	0.35	0.28	0.77	-0.149572	0.44408	0.883768	-0.4575	0.8715	-0.918	0	65	894	1
2026-02-11	16:32:26.890	1.575	0.385	0.98	-0.144448	0.444812	0.880352	-0.4545	0.876	-0.9225	0	65	894	1
2026-02-11	16:32:26.910	2.415	0.42	1.435	-0.138348	0.446276	0.891088	-0.4515	0.8775	-0.93	0	65	894	1
2026-02-11	16:32:26.930	1.75	0.805	1.33	-0.145668	0.454572	0.890112	-0.4515	0.8715	-0.9315	0	65	894	1
2026-02-11	16:32:26.950	0.84	0.98	1.155	-0.144692	0.450424	0.894504	-0.4545	0.873	-0.933	0	65	894	1
2026-02-11	16:32:26.970	0.35	0.875	0.91	-0.147132	0.442372	0.883036	-0.4545	0.8775	-0.93	0	65	894	1
2026-02-11	16:32:26.990	0.98	0.805	0.735	-0.144448	0.440176	0.879864	-0.4545	0.879	-0.93	0	65	894	1
2026-02-11	16:32:27.010	0.385	0.63	0.56	-0.137128	0.444812	0.889868	-0.4545	0.873	-0.9375	0	65	898	1
2026-02-11	16:32:27.030	-2.275	0.7	0.42	-0.142984	0.443592	0.897676	-0.4515	0.867	-0.939	0	65	898	1
2026-02-11	16:32:27.050	-2.205	0.875	-0.175	-0.144448	0.449936	0.891332	-0.456	0.87	-0.9375	0	65	898	1
2026-02-11	16:32:27.070	-2.8	1.12	-0.14	-0.150548	0.43798	0.880108	-0.4515	0.867	-0.9345	0	65	898	1
2026-02-11	16:32:27.090	-1.925	0.735	-0.175	-0.145668	0.442372	0.887672	-0.4545	0.8745	-0.9345	0	65	898	1
2026-02-11	16:32:27.110	-1.54	0.805	-0.175	-0.146644	0.446032	0.888404	-0.4545	0.876	-0.933	0	65	898	1
2026-02-11	16:32:27.130	-1.33	0.7	-0.28	-0.146888	0.449448	0.88816	-0.45	0.876	-0.9345	0	65	898	1
2026-02-11	16:32:27.150	-1.05	0.455	-0.28	-0.146644	0.437736	0.880352	-0.447	0.876	-0.93	0	65	898	1
2026-02-11	16:32:27.170	0.105	0.385	0	-0.14762	0.441152	0.88572	-0.45	0.8715	-0.9285	0	65	898	1
2026-02-11	16:32:27.190	0.315	0.35	0.21	-0.146156	0.44652	0.889136	-0.4455	0.867	-0.93	0	65	898	1
2026-02-11	16:32:27.210	0.105	0.315	0	-0.14396	0.446276	0.887672	-0.444	0.8655	-0.93	0	62	901	1
2026-02-11	16:32:27.230	-0.245	0.07	-0.14	-0.152256	0.441152	0.878644	-0.447	0.8625	-0.933	0	62	901	1
2026-02-11	16:32:27.250	-0.07	-0.105	-0.14	-0.15128	0.440908	0.886452	-0.4455	0.867	-0.939	0	62	901	1
2026-02-11	16:32:27.270	0.28	-0.105	-0.14	-0.144204	0.435784	0.887184	-0.447	0.867	-0.93	0	62	901	1
2026-02-11	16:32:27.290	0.805	-0.07	0	-0.145424	0.44408	0.887672	-0.4455	0.8775	-0.939	0	62	901	1
2026-02-11	16:32:27.310	0.805	-0.07	0.07	-0.147132	0.450912	0.88084	-0.447	0.867	-0.9375	0	62	901	1
2026-02-11	16:32:27.330	0.105	-0.07	0.14	-0.145668	0.448472	0.887916	-0.447	0.8685	-0.9345	0	62	901	1
2026-02-11	16:32:27.350	-0.665	-0.105	0	-0.146644	0.44896	0.891088	-0.4515	0.87	-0.9315	0	62	901	1
2026-02-11	16:32:27.370	-1.015	-0.035	-0.14	-0.149816	0.439688	0.89426	-0.456	0.8685	-0.9315	0	62	901	1
2026-02-11	16:32:27.390	-0.735	0.035	-0.35	-0.1464	0.435052	0.88572	-0.4515	0.8685	-0.933	0	62	901	1
2026-02-11	16:32:27.410	-0.07	0.07	-0.49	-0.1464	0.439932	0.892796	-0.4515	0.8685	-0.933	0	58	902	1
2026-02-11	16:32:27.430	0.7	0.035	-0.56	-0.143716	0.442616	0.888892	-0.4545	0.867	-0.936	0	58	902	1
2026-02-11	16:32:27.450	0.875	0.42	-0.7	-0.145668	0.452376	0.887916	-0.4545	0.867	-0.9405	0	58	902	1
2026-02-11	16:32:27.470	-0.14	0.455	-0.805	-0.144692	0.447984	0.88206	-0.4515	0.867	-0.936	0	58	902	1
2026-02-11	16:32:27.490	-1.435	0.245	-0.77	-0.148596	0.440908	0.880352	-0.4485	0.867	-0.942	0	58	902	1
2026-02-11	16:32:27.510	-1.085	0	-0.525	-0.1464	0.444812	0.88694	-0.4485	0.87	-0.933	0	58	902	1
2026-02-11	16:32:27.530	-0.455	0.35	-0.21	-0.15006	0.443592	0.8845	-0.4515	0.8655	-0.927	0	58	902	1
2026-02-11	16:32:27.550	-0.21	0.49	-0.14	-0.146644	0.446764	0.887916	-0.447	0.864	-0.924	0	58	902	1
2026-02-11	16:32:27.570	-0.7	0.42	-0.07	-0.147864	0.443348	0.885476	-0.4425	0.8685	-0.9255	0	58	902	1
2026-02-11	16:32:27.590	-0.875	0.28	-0.175	-0.149328	0.452132	0.888892	-0.444	0.87	-0.93	0	58	902	1
2026-02-11	16:32:27.610	-0.56	0.14	-0.14	-0.149572	0.438468	0.8845	-0.447	0.8655	-0.9375	0	52	903	1
2026-02-11	16:32:27.630	-0.035	0.105	-0.035	-0.145668	0.434564	0.880352	-0.4455	0.867	-0.9345	0	52	903	1
2026-02-11	16:32:27.650	0.455	0.07	0.14	-0.145424	0.442128	0.88694	-0.4455	0.8715	-0.9315	0	52	903	1
2026-02-11	16:32:27.670	0.35	0.14	0.105	-0.148596	0.449692	0.891576	-0.447	0.873	-0.9345	0	52	903	1
2026-02-11	16:32:27.690	-0.14	0.07	0.035	-0.14762	0.442372	0.88938	-0.45	0.864	-0.933	0	52	903	1
2026-02-11	16:32:27.710	0.14	0.035	-0.07	-0.144204	0.433344	0.882548	-0.4485	0.87	-0.939	0	52	903	1
2026-02-11	16:32:27.730	0.35	0.175	-0.035	-0.142984	0.444812	0.890112	-0.4485	0.8625	-0.933	0	52	903	1
2026-02-11	16:32:27.750	0	0.175	-0.14	-0.14518	0.445544	0.889868	-0.45	0.8655	-0.927	0	52	903	1
2026-02-11	16:32:27.770	-0.105	0.175	-0.14	-0.150792	0.438956	0.878888	-0.447	0.8625	-0.93	0	52	903	1
2026-02-11	16:32:27.790	0.175	0.14	-0.035	-0.149084	0.446276	0.891088	-0.4485	0.864	-0.9315	0	52	903	1
2026-02-11	16:32:27.810	0.28	0.175	-0.035	-0.1464	0.447984	0.8906	-0.45	0.8685	-0.9285	0	46	904	1
2026-02-11	16:32:27.830	0.035	0.245	0	-0.145424	0.449692	0.887428	-0.4455	0.8715	-0.93	0	46	904	1
2026-02-11	16:32:27.850	-0.42	0.14	-0.035	-0.148352	0.446764	0.885476	-0.4485	0.8745	-0.9315	0	46	904	1
2026-02-11	16:32:27.870	-0.805	0.21	-0.21	-0.149328	0.445056	0.889624	-0.4515	0.876	-0.93	0	46	904	1
2026-02-11	16:32:27.890	-1.085	0.175	-0.28	-0.147376	0.441396	0.89182	-0.453	0.8715	-0.93	0	46	904	1
2026-02-11	16:32:27.910	-0.525	0.105	-0.315	-0.144448	0.4331	0.87962	-0.4515	0.873	-0.9375	0	46	904	1
2026-02-11	16:32:27.930	0.21	0.14	-0.28	-0.146156	0.437248	0.886452	-0.444	0.8685	-0.927	0	46	904	1
2026-02-11	16:32:27.950	0.385	0.07	-0.28	-0.145424	0.445788	0.887672	-0.453	0.8685	-0.933	0	46	904	1
2026-02-11	16:32:27.970	-0.315	0.035	-0.35	-0.15128	0.446032	0.890844	-0.4455	0.8715	-0.9435	0	46	904	1
2026-02-11	16:32:27.990	-0.35	-0.175	-0.455	-0.15006	0.434564	0.882792	-0.447	0.8685	-0.9345	0	46	904	1
2026-02-11	16:32:28.010	0.28	-0.21	-0.49	-0.142984	0.438956	0.888404	-0.4515	0.867	-0.9285	0	40	905	1
2026-02-11	16:32:28.030	0.35	-0.175	-0.49	-0.148352	0.445544	0.892064	-0.447	0.864	-0.93	0	40	905	1
2026-02-11	16:32:28.050	-0.35	-0.035	-0.595	-0.151524	0.44896	0.887184	-0.441	0.8625	-0.93	0	40	905	1
2026-02-11	16:32:28.070	-0.245	-0.175	-0.595	-0.1525	0.439444	0.886452	-0.447	0.867	-0.936	0	40	905	1
2026-02-11	16:32:28.090	0	-0.21	-0.525	-0.150548	0.439444	0.885232	-0.4545	0.8715	-0.9405	0	40	905	1
2026-02-11	16:32:28.110	0.21	-0.21	-0.49	-0.145912	0.444812	0.887184	-0.447	0.8655	-0.9345	0	40	905	1
2026-02-11	16:32:28.130	0.28	-0.14	-0.525	-0.147376	0.44286	0.879376	-0.4485	0.8685	-0.9315	0	40	905	1
2026-02-11	16:32:28.150	0	-0.105	-0.525	-0.148352	0.4453	0.890844	-0.4425	0.873	-0.927	0	40	905	1
2026-02-11	16:32:28.170	-0.175	-0.105	-0.455	-0.146888	0.442372	0.888648	-0.444	0.8685	-0.936	0	40	905	1
2026-02-11	16:32:28.190	-0.21	-0.07	-0.385	-0.149816	0.440664	0.887672	-0.444	0.8685	-0.9375	0	40	905	1
2026-02-11	16:32:28.210	-0.105	-0.07	-0.525	-0.142984	0.438468	0.885964	-0.4455	0.8685	-0.9375	0	35	905	1
2026-02-11	16:32:28.230	0.14	-0.035	-0.595	-0.14884	0.447008	0.887916	-0.447	0.8685	-0.9315	0	35	905	1
2026-02-11	16:32:28.250	-0.07	-0.105	-0.525	-0.148596	0.448716	0.885232	-0.447	0.8685	-0.93	0	35	905	1
2026-02-11	16:32:28.270	-0.455	-0.245	-0.455	-0.149084	0.436516	0.880596	-0.4455	0.867	-0.939	0	35	905	1
2026-02-11	16:32:28.290	-0.035	-0.385	-0.28	-0.152012	0.447496	0.87962	-0.447	0.867	-0.9405	0	35	905	1
2026-02-11	16:32:28.310	0.21	-0.315	-0.07	-0.151524	0.442372	0.877424	-0.45	0.8685	-0.9375	0	35	905	1
2026-02-11	16:32:28.330	0.21	-0.175	0	-0.143228	0.447252	0.890112	-0.4455	0.867	-0.9405	0	35	905	1
2026-02-11	16:32:28.350	-0.525	-0.14	-0.21	-0.145912	0.437248	0.891576	-0.4425	0.873	-0.9435	0	35	905	1
2026-02-11	16:32:28.370	-0.56	-0.14	-0.245	-0.143472	0.434808	0.890844	-0.4545	0.867	-0.933	0	35	905	1
2026-02-11	16:32:28.390	0.56	-0.035	0	-0.144692	0.434564	0.88816	-0.4455	0.8685	-0.9375	0	35	905	1
2026-02-11	16:32:28.410	1.26	0.28	0.175	-0.141276	0.446276	0.892308	-0.4545	0.867	-0.9405	0	30	906	1
2026-02-11	16:32:28.430	0.945	0.56	0.07	-0.151768	0.448716	0.889136	-0.45	0.8655	-0.939	0	30	906	1
2026-02-11	16:32:28.450	0.105	0.525	-0.07	-0.155428	0.49776	0.879132	-0.4485	0.867	-0.9375	0	30	906	1
2026-02-11	16:32:28.470	0	0.385	-0.07	-0.149328	0.447496	0.880352	-0.4515	0.867	-0.9375	0	30	906	1
2026-02-11	16:32:28.490	0.315	0	-0.035	-0.144936	0.439444	0.881328	-0.453	0.8655	-0.936	0	30	906	1
2026-02-11	16:32:28.510	1.12	-0.245	0	-0.148352	0.44408	0.882304	-0.456	0.8625	-0.9375	0	30	906	1
2026-02-11	16:32:28.530	1.54	-0.21	0	-0.147376	0.450912	0.8784	-0.4575	0.8595	-0.939	0	30	906	1
2026-02-11	16:32:28.550	1.54	-0.455	0.14	-0.146888	0.444324	0.883768	-0.456	0.864	-0.9375	0	30	906	1
2026-02-11	16:32:28.570	1.54	-0.525	0.035	-0.148596	0.452132	0.88694	-0.4515	0.864	-0.939	0	30	906	1
2026-02-11	16:32:28.590	2.415	-1.085	0	-0.152256	0.438224	0.877424	-0.459	0.8655	-0.942	0	30	906	1
2026-02-11	16:32:28.610	5.215	-2.065	-0.14	-0.145912	0.41236	0.874008	-0.4635	0.8655	-0.9375	0	26	905	1
2026-02-11	16:32:28.630	10.5	-3.395	0.14	-0.146156	0.408944	0.863028	-0.4605	0.864	-0.9375	0	26	905	1
2026-02-11	16:32:28.650	15.68	-3.99	1.575	-0.124928	0.410164	0.873032	-0.4605	0.864	-0.9375	0	26	905	1
2026-02-11	16:32:28.670	22.54	-2.905	1.785	-0.11712	0.410408	0.902556	-0.468	0.87	-0.936	0	26	905	1
2026-02-11	16:32:28.690	28.56	-0.14	0.28	-0.133468	0.490928	0.898896	-0.48	0.879	-0.9315	0	26	905	1
2026-02-11	16:32:28.710	29.12	1.925	-0.525	-0.148596	0.527284	0.86864	-0.477	0.882	-0.924	0	26	905	1
2026-02-11	16:32:28.730	25.795	1.645	-1.05	-0.135908	0.525332	0.858148	-0.4695	0.8835	-0.921	0	26	905	1
2026-02-11	16:32:28.750	18.97	1.295	-1.015	-0.157624	0.524844	0.86742	-0.4665	0.8805	-0.9	0	26	905	1
2026-02-11	16:32:28.770	12.215	0.91	-0.945	-0.148108	0.510936	0.85278	-0.459	0.894	-0.888	0	26	905	1
2026-02-11	16:32:28.790	7.07	0.14	-0.84	-0.160796	0.52338	0.855952	-0.4575	0.882	-0.891	0	26	905	1
2026-02-11	16:32:28.810	3.045	-0.945	-0.525	-0.158356	0.520208	0.861808	-0.4635	0.8925	-0.8805	0	24	903	1
2026-02-11	16:32:28.830	1.61	-1.645	-0.385	-0.148108	0.50142	0.860344	-0.4575	0.8835	-0.873	0	24	903	1
2026-02-11	16:32:28.850	1.68	-1.435	0.035	-0.146156	0.507764	0.853268	-0.474	0.8805	-0.8745	0	24	903	1
2026-02-11	16:32:28.870	2.38	-1.295	0.42	-0.139568	0.503128	0.852536	-0.474	0.8805	-0.8745	0	24	903	1
2026-02-11	16:32:28.890	2.695	-0.77	0.77	-0.139812	0.487024	0.859856	-0.4725	0.882	-0.8715	0	24	903	1
2026-02-11	16:32:28.910	4.025	-0.21	0.945	-0.142008	0.492636	0.856196	-0.468	0.8835	-0.8685	0	24	903	1
2026-02-11	16:32:28.930	6.44	-0.21	1.26	-0.14274	0.491172	0.843264	-0.465	0.882	-0.867	0	24	903	1
2026-02-11	16:32:28.950	9.1	-0.245	1.26	-0.138104	0.508008	0.850584	-0.4665	0.882	-0.8655	0	24	903	1
2026-02-11	16:32:28.970	9.24	-0.14	1.19	-0.139324	0.525332	0.856684	-0.4605	0.885	-0.8685	0	24	903	1
2026-02-11	16:32:28.990	8.96	-0.035	1.085	-0.138104	0.507764	0.849364	-0.4635	0.8925	-0.852	0	24	903	1
2026-02-11	16:32:29.010	8.89	0.035	0.63	-0.135664	0.516304	0.844728	-0.465	0.891	-0.861	0	23	899	1
2026-02-11	16:32:29.030	9.52	-0.07	0.07	-0.142496	0.522404	0.847656	-0.4665	0.885	-0.861	0	23	899	1
2026-02-11	16:32:29.050	9.765	-0.21	0	-0.140056	0.541192	0.84912	-0.459	0.888	-0.855	0	23	899	1
2026-02-11	16:32:29.070	7.56	-0.07	0.035	-0.138348	0.535336	0.842532	-0.4695	0.888	-0.8445	0	23	899	1
2026-02-11	16:32:29.090	3.465	0.07	0	-0.142252	0.53558	0.840824	-0.4695	0.888	-0.8445	0	23	899	1
2026-02-11	16:32:29.110	2.24	0.07	0.315	-0.141276	0.530456	0.826672	-0.465	0.8895	-0.846	0	23	899	1
2026-02-11	16:32:29.130	1.855	-0.21	0.735	-0.138104	0.528016	0.834724	-0.4635	0.891	-0.846	0	23	899	1
2026-02-11	16:32:29.150	1.435	-0.315	0.805	-0.141276	0.5368	0.841312	-0.4605	0.888	-0.8475	0	23	899	1
2026-02-11	16:32:29.170	1.505	-0.77	0.91	-0.138348	0.51484	0.837896	-0.4575	0.8865	-0.849	0	23	899	1
2026-02-11	16:32:29.190	0.91	-0.665	0.945	-0.132248	0.521916	0.850584	-0.462	0.897	-0.8445	0	23	899	1
2026-02-11	16:32:29.210	1.365	-0.21	1.015	-0.1403	0.51606	0.847656	-0.4695	0.9015	-0.858	0	24	892	1
2026-02-11	16:32:29.230	3.395	0.14	1.225	-0.136884	0.514352	0.840336	-0.459	0.897	-0.855	0	24	892	1
2026-02-11	16:32:29.250	5.11	0.385	1.33	-0.136152	0.534604	0.833748	-0.4635	0.8925	-0.8625	0	24	892	1
2026-02-11	16:32:29.270	5.635	0.175	1.365	-0.124928	0.520696	0.836676	-0.462	0.8955	-0.8535	0	24	892	1
2026-02-11	16:32:29.290	3.85	0.21	1.435	-0.131028	0.557784	0.827892	-0.459	0.8895	-0.8475	0	24	892	1
2026-02-11	16:32:29.310	0.525	1.015	2.835	-0.132492	0.509472	0.842776	-0.459	0.8895	-0.8475	0	24	892	1
2026-02-11	16:32:29.330	0.875	2.31	4.375	-0.142008	0.493124	0.856196	-0.4635	0.894	-0.8535	0	24	892	1
2026-02-11	16:32:29.350	5.565	2.765	5.215	-0.141276	0.516304	0.835212	-0.4635	0.9015	-0.8565	0	24	892	1
2026-02-11	16:32:29.370	10.605	2.415	5.32	-0.134932	0.537532	0.822036	-0.4605	0.9045	-0.8535	0	24	892	1
2026-02-11	16:32:29.390	11.725	1.855	4.69	-0.140056	0.573644	0.826184	-0.462	0.8985	-0.834	0	24	892	1
2026-02-11	16:32:29.410	8.435	1.645	3.85	-0.130296	0.574864	0.832284	-0.45	0.9015	-0.8415	0	25	884	1
2026-02-11	16:32:29.430	4.97	1.645	3.15	-0.131272	0.565104	0.834236	-0.4605	0.9015	-0.822	0	25	884	1
2026-02-11	16:32:29.450	2.45	1.435	2.625	-0.133956	0.552416	0.828868	-0.4515	0.906	-0.8295	0	25	884	1
2026-02-11	16:32:29.470	2.065	1.33	2.45	-0.133956	0.531676	0.827892	-0.447	0.909	-0.819	0	25	884	1
2026-02-11	16:32:29.490	3.29	1.225	2.38	-0.132248	0.541924	0.83204	-0.444	0.909	-0.819	0	25	884	1
2026-02-11	16:32:29.510	4.62	1.015	2.835	-0.133956	0.564128	0.821304	-0.444	0.909	-0.8355	0	25	884	1
2026-02-11	16:32:29.530	4.2	0.56	1.33	-0.127368	0.537532	0.839116	-0.441	0.912	-0.813	0	25	884	1
2026-02-11	16:32:29.550	4.445	0.875	0.63	-0.12078	0.551928	0.82838	-0.4395	0.906	-0.816	0	25	884	1
2026-02-11	16:32:29.570	3.885	0.91	-0.315	-0.138348	0.55632	0.81984	-0.4335	0.9	-0.819	0	25	884	1
2026-02-11	16:32:29.590	3.325	0.28	-0.84	-0.143228	0.564372	0.809104	-0.4275	0.9015	-0.8175	0	25	884	1
2026-02-11	16:32:29.610	2.45	-0.455	-1.085	-0.146888	0.568032	0.809836	-0.4275	0.915	-0.813	0	26	875	1
2026-02-11	16:32:29.630	1.295	-1.26	-1.47	-0.1342	0.563396	0.816668	-0.4275	0.9045	-0.8055	0	26	875	1
2026-02-11	16:32:29.650	-0.385	-1.61	-1.75	-0.139568	0.55388	0.814716	-0.423	0.9075	-0.801	0	26	875	1
2026-02-11	16:32:29.670	-0.665	-1.575	-1.925	-0.133468	0.563884	0.826672	-0.417	0.9015	-0.7905	0	26	875	1
2026-02-11	16:32:29.690	-0.77	-1.4	-2.03	-0.118828	0.55388	0.824964	-0.432	0.9135	-0.8025	0	26	875	1
2026-02-11	16:32:29.710	-0.175	-1.26	-2.625	-0.12932	0.56486	0.817644	-0.4185	0.906	-0.792	0	26	875	1
2026-02-11	16:32:29.730	-0.98	-1.085	-2.415	-0.123464	0.553148	0.828136	-0.4215	0.903	-0.7905	0	26	875	1
2026-02-11	16:32:29.750	-1.715	-1.085	-2.135	-0.120536	0.545584	0.822036	-0.4275	0.9045	-0.789	0	26	875	1
2026-02-11	16:32:29.770	1.33	-0.56	-1.47	-0.099796	0.447252	0.783728	-0.42	0.9	-0.783	0	26	875	1
2026-02-11	16:32:29.790	7.105	2.975	0.175	-0.148596	0.732976	0.917928	-0.4155	0.9015	-0.777	0	26	875	1
2026-02-11	16:32:29.810	0.385	0.945	-0.595	-0.142008	0.560712	0.815692	-0.4185	0.909	-0.7785	0	28	867	1
2026-02-11	16:32:29.830	-2.765	0.56	-3.36	-0.139324	0.546804	0.793732	-0.4065	0.9015	-0.7635	0	28	867	1
2026-02-11	16:32:29.850	-1.61	0.105	-2.24	-0.149084	0.555588	0.820084	-0.3915	0.8985	-0.7605	0	28	867	1
2026-02-11	16:32:29.870	-1.785	-0.525	-1.435	-0.143472	0.536068	0.809104	-0.3975	0.8955	-0.7485	0	28	867	1
2026-02-11	16:32:29.890	-2.17	-0.945	-1.365	-0.123464	0.558272	0.830332	-0.399	0.9015	-0.747	0	28	867	1
2026-02-11	16:32:29.910	-0.875	-0.875	-1.4	-0.12322	0.563152	0.826672	-0.4035	0.8955	-0.7425	0	28	867	1
2026-02-11	16:32:29.930	-0.805	-0.385	-1.47	-0.131028	0.559736	0.816912	-0.405	0.8895	-0.7335	0	28	867	1
2026-02-11	16:32:29.950	-2.73	0.49	-1.645	-0.1342	0.571692	0.8113	-0.396	0.894	-0.7305	0	28	867	1
2026-02-11	16:32:29.970	-5.6	0.49	-1.68	-0.144692	0.564128	0.82228	-0.3825	0.8835	-0.723	0	28	867	1
2026-02-11	16:32:29.990	-5.32	0.49	-1.575	-0.142008	0.564372	0.822768	-0.3885	0.8835	-0.7185	0	28	867	1
2026-02-11	16:32:30.010	-5.81	0.945	-1.435	-0.139324	0.546804	0.828136	-0.3975	0.888	-0.714	0	29	860	1
2026-02-11	16:32:30.030	-7.84	1.19	-1.505	-0.144936	0.533384	0.831552	-0.399	0.8925	-0.714	0	29	860	1
2026-02-11	16:32:30.050	-7.455	1.54	-1.505	-0.140788	0.535824	0.82716	-0.402	0.879	-0.72	0	29	860	1
2026-02-11	16:32:30.070	-4.935	1.505	-1.225	-0.146156	0.524844	0.818864	-0.396	0.879	-0.7155	0	29	860	1
2026-02-11	16:32:30.090	-1.295	1.505	-1.12	-0.145668	0.548024	0.826184	-0.3945	0.8775	-0.7155	0	29	860	1
2026-02-11	16:32:30.110	-1.26	1.47	-0.385	-0.145668	0.554856	0.837164	-0.3975	0.8715	-0.7185	0	29	860	1
2026-02-11	16:32:30.130	-3.71	1.645	0.98	-0.141276	0.542412	0.835212	-0.4005	0.8805	-0.7215	0	29	860	1
2026-02-11	16:32:30.150	-4.27	1.89	1.82	-0.142008	0.522404	0.831796	-0.405	0.8775	-0.729	0	29	860	1
2026-02-11	16:32:30.170	-2.73	2.135	2.135	-0.1464	0.522648	0.831308	-0.387	0.8745	-0.738	0	29	860	1
2026-02-11	16:32:30.190	-0.77	1.61	1.015	-0.146888	0.549488	0.834968	-0.399	0.879	-0.729	0	29	860	1
2026-02-11	16:32:30.210	-0.14	1.33	0.28	-0.144692	0.558272	0.826184	-0.3975	0.882	-0.732	0	30	855	1
2026-02-11	16:32:30.230	-2.205	1.26	1.05	-0.132736	0.553392	0.831552	-0.396	0.885	-0.735	0	30	855	1
2026-02-11	16:32:30.250	-3.64	1.61	1.435	-0.135908	0.541192	0.83936	-0.399	0.8805	-0.735	0	30	855	1
2026-02-11	16:32:30.270	-2.695	2.065	0.91	-0.135908	0.504592	0.841068	-0.393	0.876	-0.7335	0	30	855	1
2026-02-11	16:32:30.290	1.4	1.995	0.49	-0.148596	0.524356	0.830088	-0.402	0.8805	-0.741	0	30	855	1
2026-02-11	16:32:30.310	2.94	1.365	0.77	-0.148596	0.542168	0.835944	-0.4035	0.8865	-0.7395	0	30	855	1
2026-02-11	16:32:30.330	0.105	0.28	1.75	-0.13542	0.554368	0.799832	-0.39	0.882	-0.738	0	30	855	1
2026-02-11	16:32:30.350	1.225	-0.455	0.525	-0.149572	0.543632	0.839848	-0.39	0.8835	-0.7455	0	30	855	1
2026-02-11	16:32:30.370	0.665	0.105	0.77	-0.137372	0.545828	0.855952	-0.3885	0.8835	-0.741	0	30	855	1
2026-02-11	16:32:30.390	0.7	0.77	-0.315	-0.144204	0.550464	0.83082	-0.39	0.885	-0.741	0	30	855	1
2026-02-11	16:32:30.410	1.54	0.56	-0.63	-0.139568	0.5551	0.813496	-0.39	0.882	-0.7455	0	31	852	1
2026-02-11	16:32:30.430	-0.07	0.21	-0.42	-0.146888	0.552172	0.821792	-0.387	0.8745	-0.7455	0	31	852	1
2026-02-11	16:32:30.450	-1.96	-0.105	-0.35	-0.138348	0.545096	0.824476	-0.384	0.8685	-0.7455	0	31	852	1
2026-02-11	16:32:30.470	-3.99	-0.56	0.07	-0.13664	0.529724	0.830332	-0.384	0.873	-0.7515	0	31	852	1
2026-02-11	16:32:30.490	-5.81	-0.665	0.035	-0.137128	0.52216	0.83814	-0.39	0.879	-0.7455	0	31	852	1
2026-02-11	16:32:30.510	-7.07	-0.665	-0.105	-0.13908	0.538996	0.83692	-0.4005	0.8805	-0.7515	0	31	852	1
2026-02-11	16:32:30.530	-10.43	-0.315	-0.28	-0.137616	0.576328	0.849852	-0.399	0.879	-0.7605	0	31	852	1
2026-02-11	16:32:30.550	-16.345	-0.945	-1.33	-0.139568	0.55754	0.846924	-0.408	0.8835	-0.7605	0	31	852	1
2026-02-11	16:32:30.570	-17.08	1.05	-2.205	-0.147376	0.503616	0.901092	-0.411	0.888	-0.765	0	31	852	1
2026-02-11	16:32:30.590	-14.455	2.345	-2.94	-0.148596	0.4941	0.82106	-0.4095	0.885	-0.765	0	31	852	1
2026-02-11	16:32:30.610	-10.43	1.365	-3.08	-0.156404	0.47336	0.844484	-0.405	0.8835	-0.7665	0	30	852	1
2026-02-11	16:32:30.630	-0.525	0.035	-0.315	-0.14396	0.473848	0.816668	-0.4065	0.8865	-0.771	0	30	852	1
2026-02-11	16:32:30.650	8.47	-2.38	0.49	-0.13908	0.422852	0.815692	-0.3975	0.885	-0.7695	0	30	852	1
2026-02-11	16:32:30.670	19.39	-3.885	-1.295	-0.130784	0.518256	0.835944	-0.39	0.885	-0.7695	0	30	852	1
2026-02-11	16:32:30.690	20.335	-5.285	-1.785	-0.132492	0.603412	0.834968	-0.396	0.8865	-0.7575	0	30	852	1
2026-02-11	16:32:30.710	12.705	-4.515	-1.82	-0.145668	0.629032	0.851316	-0.39	0.894	-0.744	0	30	852	1
2026-02-11	16:32:30.730	0.315	-3.605	-2.275	-0.142984	0.574376	0.831552	-0.3885	0.897	-0.7275	0	30	852	1
2026-02-11	16:32:30.750	-5.355	-2.59	-1.925	-0.144936	0.526796	0.851072	-0.399	0.8985	-0.7245	0	30	852	1
2026-02-11	16:32:30.770	-4.48	-1.68	-1.26	-0.149084	0.499956	0.845216	-0.405	0.903	-0.7305	0	30	852	1
2026-02-11	16:32:30.790	-1.05	-1.68	-0.56	-0.141032	0.51728	0.839116	-0.4005	0.8985	-0.7365	0	30	852	1
2026-02-11	16:32:30.810	0.385	-1.75	-0.49	-0.12566	0.546804	0.860344	-0.4065	0.903	-0.7305	0	30	853	1
2026-02-11	16:32:30.830	-1.12	-1.085	0.07	-0.124928	0.541436	0.835212	-0.399	0.906	-0.7245	0	30	853	1
2026-02-11	16:32:30.850	-3.885	-1.05	-0.245	-0.135908	0.531676	0.829356	-0.399	0.8985	-0.72	0	30	853	1
2026-02-11	16:32:30.870	-2.765	-1.68	0	-0.143472	0.533384	0.833748	-0.399	0.8985	-0.72	0	30	853	1
2026-02-11	16:32:30.890	-1.47	-1.155	-0.035	-0.141032	0.54412	0.827404	-0.3975	0.9	-0.7215	0	30	853	1
2026-02-11	16:32:30.910	-2.835	-1.26	-0.35	-0.129808	0.53192	0.84668	-0.3945	0.903	-0.7155	0	30	853	1
2026-02-11	16:32:30.930	-4.865	-0.665	-0.7	-0.135664	0.5063	0.855464	-0.4065	0.894	-0.717	0	30	853	1
2026-02-11	16:32:30.950	-4.795	-0.105	-1.015	-0.137616	0.521916	0.847656	-0.408	0.9045	-0.7155	0	30	853	1
2026-02-11	16:32:30.970	-4.48	-0.455	-1.05	-0.14152	0.52826	0.837652	-0.3975	0.909	-0.7275	0	30	853	1
2026-02-11	16:32:30.990	-5.88	-0.945	-0.98	-0.137616	0.532408	0.840092	-0.402	0.912	-0.7215	0	30	853	1
2026-02-11	16:32:31.010	-7.42	-0.875	-1.19	-0.134932	0.540216	0.85034	-0.405	0.912	-0.72	0	31	854	1
2026-02-11	16:32:31.030	-7.875	-0.35	-1.54	-0.127856	0.5307	0.846436	-0.4095	0.9105	-0.717	0	31	854	1
2026-02-11	16:32:31.050	-8.12	0.105	-1.47	-0.136884	0.518988	0.85034	-0.4035	0.903	-0.723	0	31	854	1
2026-02-11	16:32:31.070	-7.77	-0.07	-1.4	-0.137616	0.508984	0.850096	-0.4125	0.909	-0.7275	0	31	854	1
2026-02-11	16:32:31.090	-8.365	-0.28	-0.91	-0.136396	0.493124	0.849852	-0.405	0.903	-0.72	0	31	854	1
2026-02-11	16:32:31.110	-6.265	-0.385	-1.54	-0.133956	0.506788	0.85278	-0.3975	0.912	-0.729	0	31	854	1
2026-02-11	16:32:31.130	-3.465	-0.315	-1.365	-0.138836	0.503128	0.851316	-0.4125	0.906	-0.7215	0	31	854	1
2026-02-11	16:32:31.150	-2.38	-0.315	-1.12	-0.137372	0.49776	0.859368	-0.4095	0.9105	-0.7305	0	31	854	1
2026-02-11	16:32:31.170	-0.805	0.105	-0.77	-0.134932	0.494344	0.859856	-0.417	0.9075	-0.7305	0	31	854	1
2026-02-11	16:32:31.190	1.365	0.315	-0.175	-0.1403	0.493368	0.84912	-0.414	0.909	-0.735	0	31	854	1
2026-02-11	16:32:31.210	2.24	0.07	0.105	-0.137616	0.510692	0.85156	-0.4185	0.912	-0.7305	0	30	857	1
2026-02-11	16:32:31.230	1.4	0.105	0.28	-0.131272	0.517524	0.854488	-0.417	0.9165	-0.7335	0	30	857	1
2026-02-11	16:32:31.250	-0.56	0.595	0.385	-0.133956	0.536312	0.847656	-0.4095	0.9075	-0.7305	0	30	857	1
2026-02-11	16:32:31.270	-2.8	0.91	0.42	-0.13176	0.512156	0.855708	-0.4185	0.9105	-0.7275	0	30	857	1
2026-02-11	16:32:31.290	-2.485	1.05	0.49	-0.137616	0.479216	0.8601	-0.411	0.9045	-0.7275	0	30	857	1
2026-02-11	16:32:31.310	0.7	0.875	0.525	-0.138104	0.504104	0.854488	-0.4155	0.909	-0.7335	0	30	857	1
2026-02-11	16:32:31.330	1.12	0.42	0.28	-0.138592	0.50874	0.853756	-0.411	0.9105	-0.729	0	30	857	1
2026-02-11	16:32:31.350	-0.07	0.315	-0.35	-0.134444	0.52704	0.852292	-0.417	0.909	-0.735	0	30	857	1
2026-02-11	16:32:31.370	-2.17	0.07	-0.735	-0.135176	0.512156	0.85766	-0.4095	0.9045	-0.7275	0	30	857	1
2026-02-11	16:32:31.390	-3.36	0	-0.805	-0.138592	0.499956	0.85766	-0.4095	0.9105	-0.7335	0	30	857	1
2026-02-11	16:32:31.410	-3.885	-0.21	-0.84	-0.139324	0.491904	0.856928	-0.402	0.912	-0.7455	0	30	860	1
2026-02-11	16:32:31.430	-2.52	-0.21	-0.7	-0.138592	0.4941	0.855952	-0.414	0.903	-0.7335	0	30	860	1
2026-02-11	16:32:31.450	-1.33	-0.21	-0.63	-0.137616	0.498248	0.860832	-0.405	0.909	-0.7395	0	30	860	1
2026-02-11	16:32:31.470	-0.595	-0.105	-0.42	-0.138104	0.502884	0.853268	-0.4125	0.909	-0.738	0	30	860	1
2026-02-11	16:32:31.490	-0.63	-0.175	-0.385	-0.133712	0.504592	0.853024	-0.4125	0.903	-0.735	0	30	860	1
2026-02-11	16:32:31.510	-0.525	-0.175	-0.385	-0.137128	0.500932	0.853512	-0.4185	0.9105	-0.7365	0	30	860	1
2026-02-11	16:32:31.530	-0.21	-0.105	-0.35	-0.136152	0.5063	0.859612	-0.4185	0.9105	-0.7365	0	30	860	1
2026-02-11	16:32:31.550	-0.42	-0.035	-0.35	-0.138836	0.501664	0.857172	-0.4155	0.903	-0.7395	0	30	860	1
2026-02-11	16:32:31.570	-0.84	-0.14	-0.49	-0.13542	0.498736	0.855708	-0.4095	0.9075	-0.7395	0	30	860	1
2026-02-11	16:32:31.590	-0.63	-0.21	-0.665	-0.134444	0.497028	0.8601	-0.4185	0.9045	-0.738	0	30	860	1
2026-02-11	16:32:31.610	0.035	-0.07	-0.735	-0.136152	0.499224	0.854	-0.411	0.9015	-0.738	0	28	863	1
2026-02-11	16:32:31.630	0.35	-0.105	-0.665	-0.136884	0.498248	0.864004	-0.42	0.9045	-0.744	0	28	863	1
2026-02-11	16:32:31.650	-0.105	-0.14	-0.665	-0.143716	0.50752	0.857904	-0.4155	0.915	-0.7365	0	28	863	1
2026-02-11	16:32:31.670	-0.315	-0.105	-0.665	-0.137128	0.509472	0.849852	-0.42	0.909	-0.7455	0	28	863	1
2026-02-11	16:32:31.690	-0.945	-0.07	-0.56	-0.130296	0.50508	0.857172	-0.417	0.9075	-0.7365	0	28	863	1
2026-02-11	16:32:31.710	-1.12	0.105	-0.42	-0.138348	0.49776	0.859612	-0.423	0.903	-0.735	0	28	863	1
2026-02-11	16:32:31.730	-0.315	0.07	-0.315	-0.141032	0.491172	0.855952	-0.414	0.9	-0.738	0	28	863	1
2026-02-11	16:32:31.750	0.875	0.175	-0.21	-0.13664	0.496052	0.85278	-0.414	0.9	-0.738	0	28	863	1
2026-02-11	16:32:31.770	0.63	0.035	-0.245	-0.135908	0.510692	0.857904	-0.4095	0.909	-0.747	0	28	863	1
2026-02-11	16:32:31.790	0.14	0.07	-0.035	-0.135908	0.51362	0.846192	-0.414	0.9045	-0.7425	0	28	863	1
2026-02-11	16:32:31.810	-0.245	0	0.07	-0.133712	0.510204	0.860344	-0.42	0.909	-0.738	0	27	867	1
2026-02-11	16:32:31.830	-0.595	0.35	0.175	-0.1403	0.487024	0.86498	-0.4245	0.9105	-0.738	0	27	867	1
2026-02-11	16:32:31.850	0.175	0.525	0.21	-0.138592	0.487756	0.855464	-0.423	0.8985	-0.741	0	27	867	1
2026-02-11	16:32:31.870	1.225	0.42	0.315	-0.133712	0.511912	0.850096	-0.4275	0.903	-0.738	0	27	867	1
2026-02-11	16:32:31.890	0.56	0.42	0.49	-0.130052	0.517524	0.859124	-0.4125	0.9075	-0.738	0	27	867	1
2026-02-11	16:32:31.910	-0.49	0.91	0.735	-0.14274	0.497272	0.85766	-0.4245	0.9105	-0.747	0	27	867	1
2026-02-11	16:32:31.930	0.42	0.805	0.63	-0.142252	0.499468	0.846924	-0.417	0.9105	-0.75	0	27	867	1
2026-02-11	16:32:31.950	0.28	0.56	0.28	-0.134932	0.531188	0.851316	-0.4215	0.9045	-0.7425	0	27	867	1
2026-02-11	16:32:31.970	-2.66	1.12	0.245	-0.13664	0.498736	0.8601	-0.4215	0.9045	-0.7425	0	27	867	1
2026-02-11	16:32:31.990	-3.675	1.575	0.315	-0.143472	0.511668	0.8479	-0.4185	0.909	-0.741	0	27	867	1
2026-02-11	16:32:32.010	-5.425	1.855	1.015	-0.135908	0.501908	0.858392	-0.423	0.8985	-0.753	0	25	869	1
2026-02-11	16:32:32.030	-5.67	1.89	1.05	-0.143472	0.474824	0.86742	-0.444	0.9015	-0.747	0	25	869	1
2026-02-11	16:32:32.050	-2.94	2.205	1.015	-0.138104	0.487512	0.86986	-0.4335	0.9045	-0.753	0	25	869	1
2026-02-11	16:32:32.070	-0.98	1.995	0.525	-0.139812	0.477508	0.86254	-0.429	0.9075	-0.7545	0	25	869	1
2026-02-11	16:32:32.090	3.745	1.61	-1.05	-0.144448	0.465064	0.881084	-0.4425	0.906	-0.7575	0	25	869	1
2026-02-11	16:32:32.110	9.03	1.365	-1.26	-0.140788	0.517036	0.876448	-0.432	0.8985	-0.7605	0	25	869	1
2026-02-11	16:32:32.130	9.31	3.745	0.105	-0.147376	0.548268	0.881084	-0.438	0.8895	-0.7545	0	25	869	1
2026-02-11	16:32:32.150	6.23	6.16	0.14	-0.134932	0.535092	0.886208	-0.42	0.894	-0.756	0	25	869	1
2026-02-11	16:32:32.170	6.02	8.225	0.525	-0.137616	0.500444	0.844484	-0.414	0.891	-0.756	0	25	869	1
2026-02-11	16:32:32.190	2.24	6.58	0.315	-0.147132	0.507764	0.828136	-0.414	0.891	-0.756	0	25	869	1
2026-02-11	16:32:32.210	0.21	4.935	0	-0.159088	0.500688	0.83326	-0.414	0.891	-0.756	0	24	871	1
2026-02-11	16:32:32.230	0.805	3.15	-0.315	-0.160796	0.504104	0.840092	-0.3765	0.8655	-0.7605	0	24	871	1
2026-02-11	16:32:32.250	-0.49	1.96	-0.42	-0.161528	0.505568	0.845704	-0.3735	0.8565	-0.762	0	24	871	1
2026-02-11	16:32:32.270	-1.89	1.4	-1.085	-0.1586	0.511424	0.841312	-0.384	0.8505	-0.7605	0	24	871	1
2026-02-11	16:32:32.290	-3.5	1.085	-1.925	-0.156892	0.504836	0.831796	-0.3675	0.849	-0.7635	0	24	871	1
2026-02-11	16:32:32.310	-4.06	0	-2.52	-0.153476	0.506788	0.829844	-0.3795	0.8475	-0.759	0	24	871	1
2026-02-11	16:32:32.330	-4.76	-0.665	-3.535	-0.14762	0.4941	0.825452	-0.3735	0.8445	-0.7665	0	24	871	1
2026-02-11	16:32:32.350	-6.23	-1.26	-3.78	-0.141276	0.475556	0.834968	-0.3915	0.849	-0.771	0	24	871	1
2026-02-11	16:32:32.370	-8.68	0.07	-4.095	-0.126148	0.502884	0.87474	-0.4005	0.8595	-0.7665	0	24	871	1
2026-02-11	16:32:32.390	-7.49	1.54	-6.93	-0.14762	0.517524	0.825208	-0.4035	0.858	-0.7695	0	24	871	1
2026-02-11	16:32:32.410	-11.445	3.395	-2.73	-0.160308	0.515084	0.902068	-0.4065	0.858	-0.774	0	24	872	1
2026-02-11	16:32:32.430	-16.45	5.88	-0.7	-0.160796	0.508008	0.92354	-0.4065	0.858	-0.774	0	24	872	1
2026-02-11	16:32:32.450	-21.56	7.735	-0.385	-0.171288	0.520696	0.902068	-0.42	0.8565	-0.7635	0	24	872	1
2026-02-11	16:32:32.470	-30.415	8.225	-1.925	-0.176412	0.476532	0.881572	-0.414	0.858	-0.7725	0	24	872	1
2026-02-11	16:32:32.490	-31.605	8.26	-1.82	-0.183	0.417728	0.890112	-0.4065	0.8595	-0.7755	0	24	872	1
2026-02-11	16:32:32.510	-27.09	7.98	-1.4	-0.173484	0.406504	0.875716	-0.402	0.846	-0.7875	0	24	872	1
2026-02-11	16:32:32.530	-24.64	6.37	-1.47	-0.15372	0.44164	0.935008	-0.381	0.849	-0.792	0	24	872	1
2026-02-11	16:32:32.550	-30.555	5.355	-1.785	-0.179096	0.440664	0.881816	-0.366	0.8415	-0.7995	0	24	872	1
2026-02-11	16:32:32.570	-30.275	5.215	-0.945	-0.196908	0.458232	0.920856	-0.3495	0.843	-0.7935	0	24	872	1
2026-02-11	16:32:32.590	-29.33	8.925	-0.665	-0.210816	0.457256	0.953064	-0.333	0.8385	-0.801	0	24	872	1
2026-02-11	16:32:32.610	-29.295	12.39	-1.365	-0.222284	0.450668	0.917196	-0.321	0.837	-0.801	0	24	875	1
2026-02-11	16:32:32.630	-35.63	14.91	-4.97	-0.245464	0.437004	0.844728	-0.3105	0.837	-0.8025	0	24	875	1
2026-02-11	16:32:32.650	-42.77	13.23	-10.64	-0.245464	0.355996	0.853268	-0.3105	0.837	-0.8025	0	24	875	1
2026-02-11	16:32:32.670	-47.005	4.585	-15.47	-0.363804	0.320372	0.914268	-0.234	0.8145	-0.858	0	24	875	1
2026-02-11	16:32:32.690	-47.25	-5.495	-19.46	-0.26962	0.273768	0.877424	-0.225	0.81	-0.8835	0	24	875	1
2026-02-11	16:32:32.710	-41.895	-14.735	-20.335	-0.261568	0.273524	0.83814	-0.2205	0.816	-0.9195	0	24	875	1
2026-02-11	16:32:32.730	-32.69	-21.63	-19.46	-0.277672	0.233752	0.834724	-0.2205	0.8355	-0.9495	0	24	875	1
2026-02-11	16:32:32.750	-21.245	-26.74	-16.73	-0.174216	0.180804	0.809348	-0.2325	0.8505	-0.984	0	24	875	1
2026-02-11	16:32:32.770	2.03	-28.315	-12.46	-0.172996	0.329156	0.755424	-0.2445	0.882	-1.02	0	24	875	1
2026-02-11	16:32:32.790	15.295	-30.555	-10.255	0.047336	0.421144	1.062864	-0.2835	0.918	-1.074	0	24	875	1
2026-02-11	16:32:32.810	3.535	-20.685	-13.125	-0.050508	0.593896	1.232688	-0.327	0.9645	-1.1265	0	28	883	1
2026-02-11	16:32:32.830	-33.495	-6.195	-14.63	-0.118584	0.711016	1.003816	-0.3375	0.9795	-1.1385	0	28	883	1
2026-02-11	16:32:32.850	-69.79	4.585	-14.91	-0.126636	0.383812	0.969412	-0.3495	0.996	-1.152	0	28	883	1
2026-02-11	16:32:32.870	-51.87	12.88	-14.35	-0.17202	0.15006	0.95648	-0.3495	0.996	-1.152	0	28	883	1
2026-02-11	16:32:32.890	-24.255	14.245	-8.295	-0.127124	0.048556	0.991372	-0.3135	0.9465	-1.263	0	28	883	1
2026-02-11	16:32:32.910	0.385	16.38	-0.455	-0.118096	0.142496	0.939644	-0.2925	0.915	-1.2915	0	28	883	1
2026-02-11	16:32:32.930	10.955	15.47	3.36	-0.162748	0.16958	0.895724	-0.276	0.885	-1.302	0	28	883	1
2026-02-11	16:32:32.950	11.41	9.66	4.9	-0.196908	0.20984	0.78934	-0.2445	0.858	-1.293	0	28	883	1
2026-02-11	16:32:32.970	4.795	-1.715	3.395	-0.201788	0.227652	0.70028	-0.2235	0.8415	-1.2765	0	28	883	1
2026-02-11	16:32:32.990	1.26	-11.795	2.59	-0.163236	0.187148	0.889624	-0.2325	0.834	-1.284	0	28	883	1
2026-02-11	16:32:33.010	7.525	-13.16	3.08	-0.1342	0.253272	1.09922	-0.267	0.861	-1.2945	0	37	896	1
2026-02-11	16:32:33.030	13.58	-8.225	5.495	-0.202276	0.24888	0.9882	-0.2895	0.8685	-1.3035	0	37	896	1
2026-02-11	16:32:33.050	22.19	-6.545	9.1	-0.16836	0.223016	0.928176	-0.327	0.879	-1.308	0	37	896	1
2026-02-11	16:32:33.070	38.255	-8.75	13.825	-0.183	0.253028	0.919392	-0.351	0.8805	-1.2915	0	37	896	1
2026-02-11	16:32:33.090	50.4	-13.02	17.85	-0.149816	0.274012	0.930128	-0.3615	0.8805	-1.2825	0	37	896	1
2026-02-11	16:32:33.110	58.695	-12.215	18.095	-0.07808	0.245464	0.966972	-0.4095	0.894	-1.2705	0	37	896	1
2026-02-11	16:32:33.130	64.82	-7.105	16.695	-0.119804	0.360876	0.979904	-0.4305	0.9135	-1.272	0	37	896	1
2026-02-11	16:32:33.150	64.925	-4.55	17.045	-0.114192	0.361852	0.901824	-0.453	0.9195	-1.239	0	37	896	1
2026-02-11	16:32:33.170	63.28	-2.415	15.505	-0.115412	0.420656	0.903044	-0.4515	0.939	-1.197	0	37	896	1
2026-02-11	16:32:33.190	58.87	-0.14	14.035	-0.110044	0.354044	0.864736	-0.462	0.936	-1.1415	0	37	896	1
2026-02-11	16:32:33.210	70.315	3.5	13.16	-0.143228	0.51972	0.957456	-0.4755	0.9435	-1.098	0	51	909	1
2026-02-11	16:32:33.230	61.075	3.535	11.445	-0.159576	0.528016	0.88694	-0.468	0.9435	-1.038	0	51	909	1
2026-02-11	16:32:33.250	57.225	0	9.52	-0.201056	0.509472	0.848632	-0.465	0.9435	-1.014	0	51	909	1
2026-02-11	16:32:33.270	49.945	-1.505	7.28	-0.24278	0.56974	0.84912	-0.4545	0.942	-0.9705	0	51	909	1
2026-02-11	16:32:33.290	27.37	-2.31	7.665	-0.202764	0.544608	0.90524	-0.447	0.9345	-0.942	0	51	909	1
2026-02-11	16:32:33.310	10.465	-1.19	3.85	-0.149572	0.50508	0.884012	-0.4485	0.9315	-0.936	0	51	909	1
2026-02-11	16:32:33.330	10.57	-0.63	1.75	-0.12444	0.57096	0.856196	-0.4515	0.936	-0.927	0	51	909	1
2026-02-11	16:32:33.350	-1.89	0.525	0.315	-0.125172	0.532408	0.837896	-0.4575	0.936	-0.93	0	51	909	1
2026-02-11	16:32:33.370	-14.7	1.365	-0.945	-0.116144	0.506788	0.875228	-0.45	0.9255	-0.9495	0	51	909	1
2026-02-11	16:32:33.390	-11.865	1.995	-1.4	-0.119072	0.471164	0.86376	-0.4575	0.9315	-0.957	0	51	909	1
2026-02-11	16:32:33.410	-5.565	1.26	-2.45	-0.150304	0.45872	0.857416	-0.471	0.9195	-0.9645	0	66	915	1
2026-02-11	16:32:33.430	-3.885	-0.35	-2.555	-0.149084	0.46238	0.854	-0.4665	0.9105	-0.9615	0	66	915	1
2026-02-11	16:32:33.450	-1.4	-1.575	-2.45	-0.140056	0.46604	0.86376	-0.4605	0.924	-0.96	0	66	915	1
2026-02-11	16:32:33.470	1.4	-1.68	-1.995	-0.137128	0.490196	0.870104	-0.4605	0.9195	-0.9615	0	66	915	1
2026-02-11	16:32:33.490	1.05	-0.77	-1.82	-0.131516	0.488976	0.868884	-0.4605	0.9135	-0.966	0	66	915	1
2026-02-11	16:32:33.510	1.61	-0.175	-1.61	-0.14396	0.493368	0.858636	-0.4605	0.912	-0.9615	0	66	915	1
2026-02-11	16:32:33.530	0.875	-0.7	-1.645	-0.142496	0.500688	0.861808	-0.4635	0.9105	-0.957	0	66	915	1
2026-02-11	16:32:33.550	0.805	-0.525	-1.225	-0.138348	0.50874	0.849608	-0.4605	0.9105	-0.957	0	66	915	1
2026-02-11	16:32:33.570	-1.05	-0.14	-0.77	-0.133712	0.490684	0.878888	-0.4575	0.9165	-0.954	0	66	915	1
2026-02-11	16:32:33.590	-0.91	0.315	-0.945	-0.14518	0.538996	0.869128	-0.4545	0.9105	-0.9555	0	66	915	1
2026-02-11	16:32:33.610	1.68	0.525	-0.91	-0.152012	0.54534	0.849852	-0.4635	0.912	-0.954	0	78	913	1
2026-02-11	16:32:33.630	0.42	-0.21	-0.77	-0.138592	0.485316	0.860588	-0.4635	0.9075	-0.954	0	78	913	1
2026-02-11	16:32:33.650	0.595	-0.245	-0.56	-0.140788	0.498492	0.853756	-0.4605	0.909	-0.945	0	78	913	1
2026-02-11	16:32:33.670	0.07	-0.245	-0.315	-0.137616	0.496052	0.854732	-0.459	0.909	-0.9465	0	78	913	1
2026-02-11	16:32:33.690	0.49	-0.14	-0.105	-0.132492	0.479216	0.866444	-0.4575	0.906	-0.9495	0	78	913	1
2026-02-11	16:32:33.710	0.525	0.105	0.21	-0.13542	0.489708	0.86498	-0.4575	0.906	-0.9525	0	78	913	1
2026-02-11	16:32:33.730	1.05	0.245	0.455	-0.137616	0.48922	0.860344	-0.4545	0.912	-0.9555	0	78	913	1
2026-02-11	16:32:33.750	1.715	0.035	0.35	-0.141764	0.495808	0.859612	-0.453	0.9165	-0.9555	0	78	913	1
2026-02-11	16:32:33.770	1.085	-0.175	0	-0.13786	0.50874	0.860832	-0.456	0.9105	-0.945	0	78	913	1
2026-02-11	16:32:33.790	-0.14	-0.035	-0.42	-0.141276	0.507032	0.854244	-0.4545	0.918	-0.9435	0	78	913	1
2026-02-11	16:32:33.810	-0.77	0.175	-0.385	-0.139324	0.492148	0.858148	-0.4575	0.903	-0.9405	0	86	906	1
2026-02-11	16:32:33.830	-0.63	0.28	-0.245	-0.138592	0.496296	0.864004	-0.4575	0.909	-0.948	0	86	906	1
2026-02-11	16:32:33.850	-0.665	0.56	-0.07	-0.131516	0.499224	0.879864	-0.453	0.9075	-0.945	0	86	906	1
2026-02-11	16:32:33.870	-1.96	1.225	-0.175	-0.13908	0.507764	0.883524	-0.4695	0.9165	-0.9495	0	86	906	1
2026-02-11	16:32:33.890	-2.275	1.855	-0.91	-0.1403	0.49776	0.85766	-0.4665	0.9135	-0.9465	0	86	906	1
2026-02-11	16:32:33.910	-2.1	1.295	-1.68	-0.142008	0.495808	0.843996	-0.4545	0.912	-0.9465	0	86	906	1
2026-02-11	16:32:33.930	-2.415	-0.07	-1.54	-0.134688	0.503616	0.845704	-0.444	0.9075	-0.9495	0	86	906	1
2026-02-11	16:32:33.950	-4.375	-0.595	-1.54	-0.143228	0.492636	0.854	-0.4395	0.9	-0.9555	0	86	906	1
2026-02-11	16:32:33.970	-3.885	-0.84	-1.96	-0.1403	0.47092	0.87474	-0.435	0.9	-0.96	0	86	906	1
2026-02-11	16:32:33.990	-2.52	-0.63	-1.89	-0.14152	0.4941	0.846192	-0.444	0.9015	-0.954	0	86	906	1
2026-02-11	16:32:34.010	-4.69	-0.665	-0.91	-0.13542	0.477264	0.85522	-0.441	0.8925	-0.9555	0	89	898	1
2026-02-11	16:32:34.030	-6.3	-0.49	-0.28	-0.141764	0.47458	0.853512	-0.4455	0.894	-0.951	0	89	898	1
2026-02-11	16:32:34.050	-6.195	-0.35	0	-0.148108	0.477508	0.862052	-0.45	0.8955	-0.9555	0	89	898	1
2026-02-11	16:32:34.070	-3.01	-0.77	0.28	-0.144936	0.470432	0.868152	-0.456	0.9	-0.9645	0	89	898	1
2026-02-11	16:32:34.090	0.035	-1.4	0.315	-0.1342	0.47214	0.871812	-0.456	0.903	-0.9525	0	89	898	1
2026-02-11	16:32:34.110	0.665	-1.68	-0.14	-0.13542	0.468968	0.858392	-0.453	0.9	-0.957	0	89	898	1
2026-02-11	16:32:34.130	-1.47	-1.575	0.315	-0.127368	0.442372	0.864492	-0.453	0.8985	-0.9615	0	89	898	1
2026-02-11	16:32:34.150	0.63	-0.455	0.63	-0.127612	0.483608	0.880596	-0.459	0.9075	-0.9585	0	89	898	1
2026-02-11	16:32:34.170	6.895	0.56	-2.205	-0.131516	0.519232	0.892796	-0.462	0.9195	-0.951	0	89	898	1
2026-02-11	16:32:34.190	-1.26	2.275	-4.305	-0.147864	0.537776	0.888404	-0.4635	0.9225	-0.945	0	89	898	1
2026-02-11	16:32:34.210	-10.885	2.8	-4.655	-0.147376	0.62952	0.868884	-0.441	0.9255	-0.948	0	87	893	1
2026-02-11	16:32:34.230	-24.185	3.115	-4.165	-0.161528	0.552416	0.872544	-0.4635	0.918	-0.9405	0	87	893	1
2026-02-11	16:32:34.250	-27.825	2.38	-3.71	-0.128832	0.407724	0.924272	-0.4665	0.921	-0.942	0	87	893	1
2026-02-11	16:32:34.270	-14.28	6.3	-2.695	-0.14274	0.319152	0.87352	-0.4485	0.906	-0.963	0	87	893	1
2026-02-11	16:32:34.290	3.64	5.775	-1.19	-0.143716	0.313296	0.785436	-0.447	0.894	-0.969	0	87	893	1
2026-02-11	16:32:34.310	19.74	-0.805	-1.155	-0.14274	0.334524	0.777872	-0.4485	0.885	-0.9615	0	87	893	1
2026-02-11	16:32:34.330	31.255	-6.02	-0.84	-0.160552	0.440664	0.844728	-0.45	0.8865	-0.9585	0	87	893	1
2026-02-11	16:32:34.350	30.695	-8.715	-1.12	-0.108824	0.559492	0.921832	-0.453	0.8985	-0.9495	0	87	893	1
2026-02-11	16:32:34.370	18.935	-4.9	-3.465	-0.12078	0.622932	0.963068	-0.456	0.9135	-0.9345	0	87	893	1
2026-02-11	16:32:34.390	6.44	-1.085	-5.705	-0.164456	0.583892	0.8723	-0.4605	0.9195	-0.927	0	87	893	1
2026-02-11	16:32:34.410	-6.055	-1.015	-3.815	-0.155916	0.521184	0.872544	-0.462	0.9195	-0.9255	0	84	891	1
2026-02-11	16:32:34.430	-9.835	-1.26	-3.71	-0.125416	0.431636	0.886696	-0.459	0.921	-0.9165	0	84	891	1
2026-02-11	16:32:34.450	-8.82	0.315	-3.255	-0.144204	0.410652	0.87474	-0.4605	0.9165	-0.924	0	84	891	1
2026-02-11	16:32:34.470	-6.055	1.47	-3.465	-0.134444	0.450424	0.874008	-0.456	0.9195	-0.93	0	84	891	1
2026-02-11	16:32:34.490	-8.435	2.59	-2.905	-0.130296	0.560712	0.925248	-0.441	0.921	-0.918	0	84	891	1
2026-02-11	16:32:34.510	-22.12	1.4	-4.55	-0.170556	0.660996	0.899872	-0.4365	0.915	-0.9135	0	84	891	1
2026-02-11	16:32:34.530	-44.38	0.455	-7.56	-0.194224	0.65514	0.866444	-0.429	0.915	-0.909	0	84	891	1
2026-02-11	16:32:34.550	-63.7	1.015	-6.79	-0.2196	0.5734	0.78812	-0.42	0.9105	-0.912	0	84	891	1
2026-02-11	16:32:34.570	-70.28	-0.07	-6.195	-0.194224	0.49166	0.837408	-0.4155	0.897	-0.933	0	84	891	1
2026-02-11	16:32:34.590	-65.17	-0.42	-7.7	-0.082472	0.231068	0.960628	-0.4155	0.8805	-0.975	0	84	891	1
2026-02-11	16:32:34.610	-36.68	3.675	-9.73	-0.113704	0.08784	0.96624	-0.423	0.8655	-1.02	0	82	891	1
2026-02-11	16:32:34.630	9.765	7.77	-0.735	-0.119072	0.219356	0.778848	-0.4305	0.858	-1.0365	0	82	891	1
2026-02-11	16:32:34.650	17.885	1.19	3.99	-0.142496	0.365268	0.760792	-0.4305	0.858	-1.0365	0	82	891	1
2026-02-11	16:32:34.670	16.345	-5.32	5.915	-0.12932	0.447008	0.91988	-0.4125	0.84	-1.053	0	82	891	1
2026-02-11	16:32:34.690	11.55	-5.425	3.605	-0.112728	0.44164	0.97356	-0.4215	0.8595	-1.0455	0	82	891	1
2026-02-11	16:32:34.710	9.555	-2.205	1.295	-0.134932	0.41236	0.93574	-0.426	0.87	-1.032	0	82	891	1
2026-02-11	16:32:34.730	11.095	0.245	1.925	-0.175924	0.440908	0.902312	-0.4335	0.8775	-1.017	0	82	891	1
2026-02-11	16:32:34.750	13.405	-0.245	2.1	-0.181536	0.393328	0.890844	-0.4365	0.879	-1.011	0	82	891	1
2026-02-11	16:32:34.770	14.84	-0.875	3.395	-0.170312	0.433344	0.89304	-0.4365	0.8805	-0.996	0	82	891	1
2026-02-11	16:32:34.790	13.86	-1.365	3.255	-0.146156	0.442128	0.898896	-0.4365	0.8805	-0.9855	0	82	891	1
2026-02-11	16:32:34.810	13.79	-1.295	2.065	-0.131028	0.431392	0.896456	-0.4395	0.8925	-0.9765	0	82	893	1
2026-02-11	16:32:34.830	10.325	-1.26	1.75	-0.141032	0.442372	0.913292	-0.4395	0.903	-0.9705	0	82	893	1
2026-02-11	16:32:34.850	8.225	-1.19	0.98	-0.144936	0.440664	0.89182	-0.4395	0.903	-0.9705	0	82	893	1
2026-02-11	16:32:34.870	7.49	-1.82	-0.385	-0.148352	0.433344	0.8906	-0.4395	0.903	-0.9705	0	82	893	1
2026-02-11	16:32:34.890	5.04	-1.855	-0.245	-0.168116	0.46116	0.88694	-0.4425	0.9045	-0.939	0	82	893	1
2026-02-11	16:32:34.910	1.96	-2.24	-0.595	-0.164212	0.43554	0.8784	-0.4455	0.912	-0.93	0	82	893	1
2026-02-11	16:32:34.930	2.135	-3.78	-0.91	-0.149816	0.452864	0.871568	-0.45	0.915	-0.933	0	82	893	1
2026-02-11	16:32:34.950	0.945	-3.22	-1.26	-0.140788	0.436272	0.885964	-0.45	0.9135	-0.9315	0	82	893	1
2026-02-11	16:32:34.970	1.015	-2.03	-1.4	-0.140544	0.416508	0.910608	-0.456	0.9105	-0.93	0	82	893	1
2026-02-11	16:32:34.990	4.515	-0.455	-0.245	-0.134444	0.402112	0.897432	-0.4605	0.909	-0.933	0	82	893	1
2026-02-11	16:32:35.010	10.185	0.805	1.225	-0.15128	0.412604	0.88328	-0.465	0.909	-0.936	0	82	897	1
2026-02-11	16:32:35.030	13.335	0.525	1.715	-0.147864	0.445788	0.88328	-0.462	0.909	-0.936	0	82	897	1
2026-02-11	16:32:35.050	12.04	-0.14	1.295	-0.142496	0.473848	0.880108	-0.456	0.9135	-0.927	0	82	897	1
2026-02-11	16:32:35.070	9.555	-0.175	1.155	-0.139324	0.469944	0.88816	-0.4575	0.915	-0.9195	0	82	897	1
2026-02-11	16:32:35.090	7.91	0.315	1.54	-0.135664	0.48678	0.881816	-0.4575	0.915	-0.9195	0	82	897	1
2026-02-11	16:32:35.110	6.3	0.35	1.4	-0.143716	0.468724	0.874252	-0.462	0.927	-0.903	0	82	897	1
2026-02-11	16:32:35.130	4.97	0.07	0.7	-0.1464	0.473116	0.871324	-0.4515	0.9285	-0.9105	0	82	897	1
2026-02-11	16:32:35.150	4.795	0.07	0.245	-0.151036	0.476532	0.887672	-0.459	0.9285	-0.9015	0	82	897	1
2026-02-11	16:32:35.170	3.955	-0.175	-0.105	-0.146888	0.466284	0.861808	-0.456	0.924	-0.9015	0	82	897	1
2026-02-11	16:32:35.190	3.08	-0.805	-0.07	-0.139812	0.462624	0.87352	-0.453	0.927	-0.9	0	82	897	1
2026-02-11	16:32:35.210	3.185	-0.63	0.245	-0.140544	0.470676	0.882304	-0.4515	0.9345	-0.8985	0	81	900	1
2026-02-11	16:32:35.230	1.75	-0.315	0.525	-0.132736	0.478484	0.88328	-0.4515	0.933	-0.8985	0	81	900	1
2026-02-11	16:32:35.250	0.84	0.175	0.35	-0.136884	0.49898	0.875472	-0.45	0.93	-0.8955	0	81	900	1
2026-02-11	16:32:35.270	-0.07	0.315	0	-0.145424	0.480924	0.866688	-0.4515	0.927	-0.8955	0	81	900	1
2026-02-11	16:32:35.290	0.28	-0.175	-0.28	-0.14762	0.474336	0.873032	-0.453	0.927	-0.8985	0	81	900	1
2026-02-11	16:32:35.310	1.05	-0.595	-0.175	-0.148108	0.45994	0.868152	-0.453	0.927	-0.8985	0	81	900	1
2026-02-11	16:32:35.330	4.095	-1.085	0.105	-0.15006	0.469212	0.854976	-0.4515	0.93	-0.8895	0	81	900	1
2026-02-11	16:32:35.350	7.28	-1.645	0.56	-0.141276	0.485072	0.85644	-0.462	0.9255	-0.8985	0	81	900	1
2026-02-11	16:32:35.370	5.005	-1.4	0.91	-0.139812	0.48312	0.867908	-0.4605	0.93	-0.9075	0	81	900	1
2026-02-11	16:32:35.390	0.63	-0.7	2.275	-0.133468	0.435052	0.885232	-0.465	0.927	-0.9135	0	81	900	1
2026-02-11	16:32:35.410	2.695	1.015	4.83	-0.127368	0.412848	0.887672	-0.4725	0.927	-0.9195	0	78	900	1
2026-02-11	16:32:35.430	7.07	2.975	6.405	-0.140788	0.4636	0.901824	-0.477	0.9315	-0.918	0	78	900	1
2026-02-11	16:32:35.450	8.785	3.605	6.86	-0.152988	0.456524	0.85888	-0.4725	0.9375	-0.9165	0	78	900	1
2026-02-11	16:32:35.470	12.005	3.185	6.825	-0.135664	0.488732	0.859368	-0.4665	0.939	-0.9165	0	78	900	1
2026-02-11	16:32:35.490	12.81	1.785	4.025	-0.123464	0.521916	0.851316	-0.4545	0.942	-0.912	0	78	900	1
2026-02-11	16:32:35.510	6.79	-0.175	1.155	-0.14152	0.531188	0.856684	-0.4455	0.9465	-0.903	0	78	900	1
2026-02-11	16:32:35.530	0.875	-1.54	-0.7	-0.138104	0.487756	0.868396	-0.4455	0.945	-0.9	0	78	900	1
2026-02-11	16:32:35.550	0.245	-1.505	-1.4	-0.135664	0.483608	0.871812	-0.4485	0.951	-0.903	0	78	900	1
2026-02-11	16:32:35.570	1.4	-1.505	-1.365	-0.140056	0.488	0.857416	-0.447	0.951	-0.897	0	78	900	1
2026-02-11	16:32:35.590	1.645	-1.61	-1.155	-0.137372	0.496784	0.861808	-0.4455	0.948	-0.8925	0	78	900	1
2026-02-11	16:32:35.610	0.84	-1.4	-1.26	-0.1342	0.5002	0.857416	-0.447	0.948	-0.8925	0	74	898	1
2026-02-11	16:32:35.630	0.175	-1.33	-1.295	-0.13298	0.47824	0.873764	-0.4545	0.948	-0.897	0	74	898	1
2026-02-11	16:32:35.650	1.435	-0.875	-1.12	-0.137616	0.501908	0.863272	-0.4575	0.9495	-0.8985	0	74	898	1
2026-02-11	16:32:35.670	1.295	-0.735	-1.505	-0.134444	0.513132	0.855952	-0.456	0.954	-0.9	0	74	898	1
2026-02-11	16:32:35.690	-0.42	-1.015	-1.54	-0.133956	0.50386	0.857904	-0.453	0.951	-0.897	0	74	898	1
2026-02-11	16:32:35.710	-2.38	-1.085	-1.68	-0.133468	0.504348	0.86254	-0.456	0.945	-0.8955	0	74	898	1
