yyyy-MM-dd	HH:mm:ss.fff	gyrX	gyrY	gyrZ	accX	accY	accZ	magX	magY	magZ	Marker	Energy	Angle	Classification
2026-02-11	16:06:07.410	-0.42	-0.105	-0.42	-0.00488	0.242048	0.97356	0.345	0.984	-0.783	0	76	990	1
2026-02-11	16:06:07.430	-0.35	-0.105	-0.42	-0.007808	0.246196	0.97112	0.3465	0.9825	-0.789	0	76	990	1
2026-02-11	16:06:07.450	-0.735	-0.14	-0.595	0.000488	0.246928	0.970632	0.342	0.9825	-0.7815	0	76	990	1
2026-02-11	16:06:07.470	-1.19	-0.14	-0.735	-0.003416	0.244488	0.973072	0.336	0.984	-0.777	0	76	990	1
2026-02-11	16:06:07.490	-0.945	-0.07	-0.7	-0.007076	0.23912	0.976244	0.3435	0.975	-0.7875	0	76	990	1
2026-02-11	16:06:07.510	-0.175	-0.035	-0.35	-0.006832	0.238388	0.972828	0.3435	0.978	-0.783	0	76	990	1
2026-02-11	16:06:07.530	0.35	0	-0.315	-0.007076	0.24888	0.972828	0.342	0.9795	-0.783	0	76	990	1
2026-02-11	16:06:07.550	-0.385	-0.14	-0.525	-0.010736	0.249368	0.975756	0.3405	0.981	-0.7785	0	76	990	1
2026-02-11	16:06:07.570	-0.945	-0.245	-0.56	-0.005612	0.241072	0.97356	0.339	0.981	-0.78	0	76	990	1
2026-02-11	16:06:07.590	-0.665	-0.21	-0.525	-0.0061	0.23668	0.974048	0.342	0.9825	-0.786	0	76	990	1
2026-02-11	16:06:07.610	-0.105	-0.105	-0.525	-0.008052	0.238632	0.976	0.345	0.984	-0.7845	0	66	991	1
2026-02-11	16:06:07.630	0	-0.105	-0.595	-0.002928	0.243512	0.97234	0.3465	0.9855	-0.786	0	66	991	1
2026-02-11	16:06:07.650	-0.245	-0.175	-0.595	-0.005368	0.244976	0.970632	0.3435	0.987	-0.789	0	66	991	1
2026-02-11	16:06:07.670	-0.42	-0.21	-0.665	-0.007808	0.23912	0.97112	0.3375	0.9855	-0.7875	0	66	991	1
2026-02-11	16:06:07.690	-0.28	0	-0.595	-0.005368	0.244244	0.973316	0.3345	0.984	-0.7875	0	66	991	1
2026-02-11	16:06:07.710	-0.42	0.07	-0.56	-0.00732	0.242048	0.970388	0.348	0.987	-0.792	0	66	991	1
2026-02-11	16:06:07.730	-0.77	0.105	-0.56	-0.007564	0.242536	0.97112	0.3435	0.996	-0.783	0	66	991	1
2026-02-11	16:06:07.750	-1.19	0.035	-0.525	-0.00488	0.244	0.971608	0.339	0.9885	-0.786	0	66	991	1
2026-02-11	16:06:07.770	-1.26	0.105	-0.595	-0.006344	0.238388	0.974536	0.345	0.984	-0.786	0	66	991	1
2026-02-11	16:06:07.790	-1.19	0.21	-0.455	-0.007076	0.239852	0.97722	0.3435	0.981	-0.789	0	66	991	1
2026-02-11	16:06:07.810	-1.4	0.175	-0.35	-0.007076	0.239364	0.973316	0.333	0.978	-0.7905	0	58	992	1
2026-02-11	16:06:07.830	-1.75	0.105	-0.35	-0.009028	0.243024	0.970144	0.3375	0.981	-0.786	0	58	992	1
2026-02-11	16:06:07.850	-2.135	-0.07	-0.49	-0.006588	0.23912	0.972584	0.3405	0.987	-0.7905	0	58	992	1
2026-02-11	16:06:07.870	-1.855	-0.14	-0.595	-0.010492	0.230824	0.97966	0.342	0.9885	-0.798	0	58	992	1
2026-02-11	16:06:07.890	-0.63	-0.105	-0.42	-0.00366	0.229116	0.976732	0.3405	0.9885	-0.795	0	58	992	1
2026-02-11	16:06:07.910	0.56	-0.035	-0.245	-0.006832	0.2379	0.973072	0.336	0.99	-0.792	0	58	992	1
2026-02-11	16:06:07.930	0.665	0.035	-0.42	-0.006588	0.248636	0.973804	0.3405	0.996	-0.7905	0	58	992	1
2026-02-11	16:06:07.950	-0.665	-0.28	-0.665	-0.006588	0.239608	0.971608	0.3435	0.984	-0.795	0	58	992	1
2026-02-11	16:06:07.970	-0.385	-0.28	-0.525	-0.005612	0.231556	0.976732	0.3375	0.9855	-0.795	0	58	992	1
2026-02-11	16:06:07.990	0.735	0	-0.385	-0.005368	0.234484	0.973804	0.336	0.9885	-0.7935	0	58	992	1
2026-02-11	16:06:08.010	1.19	0.14	-0.385	-0.00732	0.244976	0.974536	0.339	0.9915	-0.7875	0	50	993	1
2026-02-11	16:06:08.030	0.42	0	-0.525	-0.005856	0.249124	0.975024	0.339	0.993	-0.7875	0	50	993	1
2026-02-11	16:06:08.050	-0.525	-0.28	-0.595	-0.002196	0.237412	0.972096	0.339	0.9915	-0.789	0	50	993	1
2026-02-11	16:06:08.070	-0.07	-0.28	-0.525	-0.009516	0.232288	0.976	0.333	0.9885	-0.792	0	50	993	1
2026-02-11	16:06:08.090	0.945	0	-0.42	-0.007076	0.239852	0.97478	0.3375	0.9885	-0.789	0	50	993	1
2026-02-11	16:06:08.110	1.05	0.07	-0.525	-0.008296	0.248392	0.978196	0.345	0.99	-0.783	0	50	993	1
2026-02-11	16:06:08.130	0.07	-0.14	-0.56	-0.002928	0.246928	0.974536	0.336	0.978	-0.7905	0	50	993	1
2026-02-11	16:06:08.150	-0.875	-0.28	-0.525	-0.005124	0.238632	0.970876	0.342	0.9855	-0.786	0	50	993	1
2026-02-11	16:06:08.170	-0.42	-0.105	-0.56	-0.005124	0.2318	0.973316	0.342	0.9855	-0.786	0	50	993	1
2026-02-11	16:06:08.190	0.42	0.07	-0.49	-0.009516	0.23424	0.97722	0.336	0.9885	-0.789	0	50	993	1
2026-02-11	16:06:08.210	0.875	0.105	-0.28	-0.005368	0.243024	0.969656	0.336	0.99	-0.792	0	44	994	1
2026-02-11	16:06:08.230	0.28	0	-0.385	-0.002928	0.248148	0.9699	0.339	0.99	-0.7905	0	44	994	1
2026-02-11	16:06:08.250	-0.63	0.07	-0.56	-0.00488	0.242536	0.980392	0.339	0.987	-0.792	0	44	994	1
2026-02-11	16:06:08.270	-1.33	0.175	-0.525	-0.006344	0.239852	0.975756	0.3375	0.9855	-0.7935	0	44	994	1
2026-02-11	16:06:08.290	-1.54	0.175	-0.455	-0.010492	0.237168	0.978196	0.333	0.987	-0.7935	0	44	994	1
2026-02-11	16:06:08.310	-1.995	0.105	-0.49	-0.009028	0.231556	0.971608	0.3375	0.987	-0.7905	0	44	994	1
2026-02-11	16:06:08.330	-1.19	0.07	-0.63	-0.00854	0.228384	0.973072	0.342	0.99	-0.7875	0	44	994	1
2026-02-11	16:06:08.350	1.365	0.07	-0.91	-0.007076	0.226432	0.98088	0.339	0.993	-0.789	0	44	994	1
2026-02-11	16:06:08.370	2.73	-0.07	-1.12	-0.005368	0.236924	0.973804	0.336	0.9885	-0.789	0	44	994	1
2026-02-11	16:06:08.390	2.905	-0.315	-1.505	-0.001464	0.244	0.972096	0.339	0.9855	-0.789	0	44	994	1
2026-02-11	16:06:06.410	5.565	-0.77	-0.595	-0.012932	0.232044	0.967704	0.3315	0.9735	-0.789	0	157	981	1
2026-02-11	16:06:06.430	7.175	-0.455	-0.175	-0.00732	0.246196	0.979172	0.33	0.975	-0.7815	0	157	981	1
2026-02-11	16:06:06.450	5.355	-0.42	-0.175	-0.005368	0.272548	0.968924	0.342	0.969	-0.783	0	157	981	1
2026-02-11	16:06:06.470	1.995	-0.56	-0.98	-0.002684	0.270596	0.965264	0.342	0.966	-0.7785	0	157	981	1
2026-02-11	16:06:06.490	0.035	-1.26	-1.54	-0.002928	0.260104	0.966972	0.339	0.966	-0.777	0	157	981	1
2026-02-11	16:06:06.510	0.595	-1.015	-1.225	-0.004636	0.24522	0.97478	0.342	0.9675	-0.777	0	157	981	1
2026-02-11	16:06:06.530	0.77	0.245	-0.525	0.002196	0.24034	0.972096	0.3435	0.9645	-0.774	0	157	981	1
2026-02-11	16:06:06.550	0.91	-0.14	-0.21	-0.012688	0.265472	0.976	0.339	0.9675	-0.771	0	157	981	1
2026-02-11	16:06:06.570	-0.91	0.21	-0.385	-0.003904	0.283284	0.9638	0.3465	0.9705	-0.771	0	157	981	1
2026-02-11	16:06:06.590	-2.38	-0.175	-0.455	-0.009516	0.255468	0.972828	0.3525	0.9675	-0.7695	0	157	981	1
2026-02-11	16:06:06.610	-2.135	-0.105	-0.14	-0.006832	0.243512	0.970876	0.3435	0.966	-0.768	0	133	985	1
2026-02-11	16:06:06.630	-1.05	0.175	-0.105	-0.004148	0.248636	0.973072	0.339	0.9675	-0.7695	0	133	985	1
2026-02-11	16:06:06.650	-1.015	0.245	-0.385	-0.00732	0.263032	0.969412	0.3465	0.981	-0.7665	0	133	985	1
2026-02-11	16:06:06.670	-1.47	0.035	-0.455	-0.004392	0.246928	0.972828	0.3405	0.9675	-0.7815	0	133	985	1
2026-02-11	16:06:06.690	-0.77	0	-0.21	-0.006588	0.247904	0.974292	0.342	0.9735	-0.777	0	133	985	1
2026-02-11	16:06:06.710	-0.7	0.035	-0.175	-0.008784	0.257176	0.970388	0.336	0.975	-0.7755	0	133	985	1
2026-02-11	16:06:06.730	-1.435	-0.21	-0.455	-0.009028	0.260836	0.968924	0.336	0.9705	-0.7785	0	133	985	1
2026-02-11	16:06:06.750	-2.31	-0.525	-0.7	-0.007808	0.243756	0.969412	0.3435	0.975	-0.7785	0	133	985	1
2026-02-11	16:06:06.770	-1.015	-0.665	-0.595	-0.005368	0.237168	0.973804	0.348	0.975	-0.777	0	133	985	1
2026-02-11	16:06:06.790	0.665	-0.28	-0.455	-0.000244	0.248148	0.972584	0.348	0.9735	-0.774	0	133	985	1
2026-02-11	16:06:06.810	0.84	0.105	-0.63	-0.007564	0.260348	0.967704	0.3465	0.9765	-0.774	0	115	987	1
2026-02-11	16:06:06.830	-0.21	0	-0.665	-0.007076	0.262056	0.970388	0.348	0.9795	-0.7755	0	115	987	1
2026-02-11	16:06:06.850	-1.4	-0.28	-0.63	-0.004148	0.255956	0.975268	0.336	0.9765	-0.786	0	115	987	1
2026-02-11	16:06:06.870	-1.61	-0.35	-0.665	-0.007076	0.244	0.967216	0.345	0.978	-0.78	0	115	987	1
2026-02-11	16:06:06.890	-0.455	-0.035	-0.63	-0.00854	0.24278	0.972584	0.345	0.978	-0.78	0	115	987	1
2026-02-11	16:06:06.910	0.28	0.28	-0.525	-0.003904	0.250832	0.970632	0.345	0.978	-0.7815	0	115	987	1
2026-02-11	16:06:06.930	0.21	0.245	-0.49	-0.006344	0.251076	0.97356	0.345	0.978	-0.786	0	115	987	1
2026-02-11	16:06:06.950	-0.21	0.105	-0.42	-0.009272	0.255468	0.968924	0.3435	0.9765	-0.783	0	115	987	1
2026-02-11	16:06:06.970	-1.12	-0.035	-0.42	-0.003416	0.251808	0.969412	0.345	0.975	-0.7785	0	115	987	1
2026-02-11	16:06:06.990	-1.365	-0.07	-0.56	-0.00854	0.239852	0.968192	0.348	0.972	-0.78	0	115	987	1
2026-02-11	16:06:07.010	0	0.105	-0.42	-0.003904	0.237412	0.976244	0.342	0.969	-0.777	0	99	988	1
2026-02-11	16:06:07.030	1.435	0.175	-0.035	-0.003172	0.247172	0.973072	0.3405	0.975	-0.7755	0	99	988	1
2026-02-11	16:06:07.050	1.61	0.35	-0.175	-0.00732	0.268156	0.968924	0.3435	0.981	-0.777	0	99	988	1
2026-02-11	16:06:07.070	-0.35	0.035	-0.49	-0.009272	0.257908	0.969656	0.339	0.978	-0.7695	0	99	988	1
2026-02-11	16:06:07.090	-1.435	-0.28	-0.49	-0.0061	0.243024	0.97478	0.3435	0.9765	-0.774	0	99	988	1
2026-02-11	16:06:07.110	0.07	-0.175	-0.245	-0.006344	0.238876	0.973316	0.345	0.975	-0.7725	0	99	988	1
2026-02-11	16:06:07.130	1.19	0.035	-0.245	-0.007564	0.253272	0.969168	0.3465	0.972	-0.774	0	99	988	1
2026-02-11	16:06:07.150	0.525	0.035	-0.595	-0.008784	0.262056	0.971852	0.3435	0.9705	-0.774	0	99	988	1
2026-02-11	16:06:07.170	-1.54	-0.35	-0.875	-0.006344	0.255956	0.972584	0.3405	0.972	-0.7725	0	99	988	1
2026-02-11	16:06:07.190	-2.38	-0.665	-0.84	-0.007808	0.241316	0.972096	0.342	0.9705	-0.7725	0	99	988	1
2026-02-11	16:06:07.210	-1.855	-0.595	-0.77	-0.003416	0.242536	0.970144	0.3405	0.9735	-0.7755	0	86	989	1
2026-02-11	16:06:07.230	-1.085	-0.035	-0.875	-0.004636	0.247172	0.984784	0.339	0.978	-0.777	0	86	989	1
2026-02-11	16:06:07.250	-1.4	0.035	-0.84	-0.003416	0.256932	0.971364	0.339	0.9795	-0.777	0	86	989	1
2026-02-11	16:06:07.270	-2.625	-0.245	-0.77	-0.006832	0.252052	0.968924	0.336	0.9825	-0.78	0	86	989	1
2026-02-11	16:06:07.290	-3.43	-0.595	-1.015	-0.00854	0.239364	0.971608	0.345	0.9705	-0.7755	0	86	989	1
2026-02-11	16:06:07.310	-1.645	-0.49	-0.805	-0.0061	0.23546	0.974048	0.342	0.984	-0.78	0	86	989	1
2026-02-11	16:06:07.330	-0.175	-0.21	-0.63	-0.003416	0.244244	0.970388	0.3405	0.9795	-0.78	0	86	989	1
2026-02-11	16:06:07.350	0.14	0	-0.665	-0.0061	0.253028	0.971852	0.342	0.978	-0.78	0	86	989	1
2026-02-11	16:06:07.370	-0.175	-0.07	-0.665	-0.002928	0.246684	0.973316	0.3435	0.9765	-0.7815	0	86	989	1
2026-02-11	16:06:07.390	-0.595	-0.07	-0.595	-0.006588	0.236924	0.97234	0.3435	0.978	-0.7785	0	86	989	1
2026-02-11	16:06:07.410	-0.42	-0.105	-0.42	-0.00488	0.242048	0.97356	0.345	0.984	-0.783	0	76	990	1
2026-02-11	16:06:07.430	-0.35	-0.105	-0.42	-0.007808	0.246196	0.97112	0.3465	0.9825	-0.789	0	76	990	1
2026-02-11	16:06:07.450	-0.735	-0.14	-0.595	0.000488	0.246928	0.970632	0.342	0.9825	-0.7815	0	76	990	1
2026-02-11	16:06:07.470	-1.19	-0.14	-0.735	-0.003416	0.244488	0.973072	0.336	0.984	-0.777	0	76	990	1
2026-02-11	16:06:07.490	-0.945	-0.07	-0.7	-0.007076	0.23912	0.976244	0.3435	0.975	-0.7875	0	76	990	1
2026-02-11	16:06:07.510	-0.175	-0.035	-0.35	-0.006832	0.238388	0.972828	0.3435	0.978	-0.783	0	76	990	1
2026-02-11	16:06:07.530	0.35	0	-0.315	-0.007076	0.24888	0.972828	0.342	0.9795	-0.783	0	76	990	1
2026-02-11	16:06:07.550	-0.385	-0.14	-0.525	-0.010736	0.249368	0.975756	0.3405	0.981	-0.7785	0	76	990	1
2026-02-11	16:06:07.570	-0.945	-0.245	-0.56	-0.005612	0.241072	0.97356	0.339	0.981	-0.78	0	76	990	1
2026-02-11	16:06:07.590	-0.665	-0.21	-0.525	-0.0061	0.23668	0.974048	0.342	0.9825	-0.786	0	76	990	1
2026-02-11	16:06:07.610	-0.105	-0.105	-0.525	-0.008052	0.238632	0.976	0.345	0.984	-0.7845	0	66	991	1
2026-02-11	16:06:07.630	0	-0.105	-0.595	-0.002928	0.243512	0.97234	0.3465	0.9855	-0.786	0	66	991	1
2026-02-11	16:06:07.650	-0.245	-0.175	-0.595	-0.005368	0.244976	0.970632	0.3435	0.987	-0.789	0	66	991	1
2026-02-11	16:06:07.670	-0.42	-0.21	-0.665	-0.007808	0.23912	0.97112	0.3375	0.9855	-0.7875	0	66	991	1
2026-02-11	16:06:07.690	-0.28	0	-0.595	-0.005368	0.244244	0.973316	0.3345	0.984	-0.7875	0	66	991	1
2026-02-11	16:06:07.710	-0.42	0.07	-0.56	-0.00732	0.242048	0.970388	0.348	0.987	-0.792	0	66	991	1
2026-02-11	16:06:07.730	-0.77	0.105	-0.56	-0.007564	0.242536	0.97112	0.3435	0.996	-0.783	0	66	991	1
2026-02-11	16:06:07.750	-1.19	0.035	-0.525	-0.00488	0.244	0.971608	0.339	0.9885	-0.786	0	66	991	1
2026-02-11	16:06:07.770	-1.26	0.105	-0.595	-0.006344	0.238388	0.974536	0.345	0.984	-0.786	0	66	991	1
2026-02-11	16:06:07.790	-1.19	0.21	-0.455	-0.007076	0.239852	0.97722	0.3435	0.981	-0.789	0	66	991	1
2026-02-11	16:06:07.810	-1.4	0.175	-0.35	-0.007076	0.239364	0.973316	0.333	0.978	-0.7905	0	58	992	1
2026-02-11	16:06:07.830	-1.75	0.105	-0.35	-0.009028	0.243024	0.970144	0.3375	0.981	-0.786	0	58	992	1
2026-02-11	16:06:07.850	-2.135	-0.07	-0.49	-0.006588	0.23912	0.972584	0.3405	0.987	-0.7905	0	58	992	1
2026-02-11	16:06:07.870	-1.855	-0.14	-0.595	-0.010492	0.230824	0.97966	0.342	0.9885	-0.798	0	58	992	1
2026-02-11	16:06:07.890	-0.63	-0.105	-0.42	-0.00366	0.229116	0.976732	0.3405	0.9885	-0.795	0	58	992	1
2026-02-11	16:06:07.910	0.56	-0.035	-0.245	-0.006832	0.2379	0.973072	0.336	0.99	-0.792	0	58	992	1
2026-02-11	16:06:07.930	0.665	0.035	-0.42	-0.006588	0.248636	0.973804	0.3405	0.996	-0.7905	0	58	992	1
2026-02-11	16:06:07.950	-0.665	-0.28	-0.665	-0.006588	0.239608	0.971608	0.3435	0.984	-0.795	0	58	992	1
2026-02-11	16:06:07.970	-0.385	-0.28	-0.525	-0.005612	0.231556	0.976732	0.3375	0.9855	-0.795	0	58	992	1
2026-02-11	16:06:07.990	0.735	0	-0.385	-0.005368	0.234484	0.973804	0.336	0.9885	-0.7935	0	58	992	1
2026-02-11	16:06:08.010	1.19	0.14	-0.385	-0.00732	0.244976	0.974536	0.339	0.9915	-0.7875	0	50	993	1
2026-02-11	16:06:08.030	0.42	0	-0.525	-0.005856	0.249124	0.975024	0.339	0.993	-0.7875	0	50	993	1
2026-02-11	16:06:08.050	-0.525	-0.28	-0.595	-0.002196	0.237412	0.972096	0.339	0.9915	-0.789	0	50	993	1
2026-02-11	16:06:08.070	-0.07	-0.28	-0.525	-0.009516	0.232288	0.976	0.333	0.9885	-0.792	0	50	993	1
2026-02-11	16:06:08.090	0.945	0	-0.42	-0.007076	0.239852	0.97478	0.3375	0.9885	-0.789	0	50	993	1
2026-02-11	16:06:08.110	1.05	0.07	-0.525	-0.008296	0.248392	0.978196	0.345	0.99	-0.783	0	50	993	1
2026-02-11	16:06:08.130	0.07	-0.14	-0.56	-0.002928	0.246928	0.974536	0.336	0.978	-0.7905	0	50	993	1
2026-02-11	16:06:08.150	-0.875	-0.28	-0.525	-0.005124	0.238632	0.970876	0.342	0.9855	-0.786	0	50	993	1
2026-02-11	16:06:08.170	-0.42	-0.105	-0.56	-0.005124	0.2318	0.973316	0.342	0.9855	-0.786	0	50	993	1
2026-02-11	16:06:08.190	0.42	0.07	-0.49	-0.009516	0.23424	0.97722	0.336	0.9885	-0.789	0	50	993	1
2026-02-11	16:06:08.210	0.875	0.105	-0.28	-0.005368	0.243024	0.969656	0.336	0.99	-0.792	0	44	994	1
2026-02-11	16:06:08.230	0.28	0	-0.385	-0.002928	0.248148	0.9699	0.339	0.99	-0.7905	0	44	994	1
2026-02-11	16:06:08.250	-0.63	0.07	-0.56	-0.00488	0.242536	0.980392	0.339	0.987	-0.792	0	44	994	1
2026-02-11	16:06:08.270	-1.33	0.175	-0.525	-0.006344	0.239852	0.975756	0.3375	0.9855	-0.7935	0	44	994	1
2026-02-11	16:06:08.290	-1.54	0.175	-0.455	-0.010492	0.237168	0.978196	0.333	0.987	-0.7935	0	44	994	1
2026-02-11	16:06:08.310	-1.995	0.105	-0.49	-0.009028	0.231556	0.971608	0.3375	0.987	-0.7905	0	44	994	1
2026-02-11	16:06:08.330	-1.19	0.07	-0.63	-0.00854	0.228384	0.973072	0.342	0.99	-0.7875	0	44	994	1
2026-02-11	16:06:08.350	1.365	0.07	-0.91	-0.007076	0.226432	0.98088	0.339	0.993	-0.789	0	44	994	1
2026-02-11	16:06:08.370	2.73	-0.07	-1.12	-0.005368	0.236924	0.973804	0.336	0.9885	-0.789	0	44	994	1
2026-02-11	16:06:08.390	2.905	-0.315	-1.505	-0.001464	0.244	0.972096	0.339	0.9855	-0.789	0	44	994	1
2026-02-11	16:06:06.410	5.565	-0.77	-0.595	-0.012932	0.232044	0.967704	0.3315	0.9735	-0.789	0	157	981	1
2026-02-11	16:06:06.430	7.175	-0.455	-0.175	-0.00732	0.246196	0.979172	0.33	0.975	-0.7815	0	157	981	1
2026-02-11	16:06:06.450	5.355	-0.42	-0.175	-0.005368	0.272548	0.968924	0.342	0.969	-0.783	0	157	981	1
2026-02-11	16:06:06.470	1.995	-0.56	-0.98	-0.002684	0.270596	0.965264	0.342	0.966	-0.7785	0	157	981	1
2026-02-11	16:06:06.490	0.035	-1.26	-1.54	-0.002928	0.260104	0.966972	0.339	0.966	-0.777	0	157	981	1
2026-02-11	16:06:06.510	0.595	-1.015	-1.225	-0.004636	0.24522	0.97478	0.342	0.9675	-0.777	0	157	981	1
2026-02-11	16:06:06.530	0.77	0.245	-0.525	0.002196	0.24034	0.972096	0.3435	0.9645	-0.774	0	157	981	1
2026-02-11	16:06:06.550	0.91	-0.14	-0.21	-0.012688	0.265472	0.976	0.339	0.9675	-0.771	0	157	981	1
2026-02-11	16:06:06.570	-0.91	0.21	-0.385	-0.003904	0.283284	0.9638	0.3465	0.9705	-0.771	0	157	981	1
2026-02-11	16:06:06.590	-2.38	-0.175	-0.455	-0.009516	0.255468	0.972828	0.3525	0.9675	-0.7695	0	157	981	1
2026-02-11	16:06:06.610	-2.135	-0.105	-0.14	-0.006832	0.243512	0.970876	0.3435	0.966	-0.768	0	133	985	1
2026-02-11	16:06:06.630	-1.05	0.175	-0.105	-0.004148	0.248636	0.973072	0.339	0.9675	-0.7695	0	133	985	1
2026-02-11	16:06:06.650	-1.015	0.245	-0.385	-0.00732	0.263032	0.969412	0.3465	0.981	-0.7665	0	133	985	1
2026-02-11	16:06:06.670	-1.47	0.035	-0.455	-0.004392	0.246928	0.972828	0.3405	0.9675	-0.7815	0	133	985	1
2026-02-11	16:06:06.690	-0.77	0	-0.21	-0.006588	0.247904	0.974292	0.342	0.9735	-0.777	0	133	985	1
2026-02-11	16:06:06.710	-0.7	0.035	-0.175	-0.008784	0.257176	0.970388	0.336	0.975	-0.7755	0	133	985	1
2026-02-11	16:06:06.730	-1.435	-0.21	-0.455	-0.009028	0.260836	0.968924	0.336	0.9705	-0.7785	0	133	985	1
2026-02-11	16:06:06.750	-2.31	-0.525	-0.7	-0.007808	0.243756	0.969412	0.3435	0.975	-0.7785	0	133	985	1
2026-02-11	16:06:06.770	-1.015	-0.665	-0.595	-0.005368	0.237168	0.973804	0.348	0.975	-0.777	0	133	985	1
2026-02-11	16:06:06.790	0.665	-0.28	-0.455	-0.000244	0.248148	0.972584	0.348	0.9735	-0.774	0	133	985	1
2026-02-11	16:06:06.810	0.84	0.105	-0.63	-0.007564	0.260348	0.967704	0.3465	0.9765	-0.774	0	115	987	1
2026-02-11	16:06:06.830	-0.21	0	-0.665	-0.007076	0.262056	0.970388	0.348	0.9795	-0.7755	0	115	987	1
2026-02-11	16:06:06.850	-1.4	-0.28	-0.63	-0.004148	0.255956	0.975268	0.336	0.9765	-0.786	0	115	987	1
2026-02-11	16:06:06.870	-1.61	-0.35	-0.665	-0.007076	0.244	0.967216	0.345	0.978	-0.78	0	115	987	1
2026-02-11	16:06:06.890	-0.455	-0.035	-0.63	-0.00854	0.24278	0.972584	0.345	0.978	-0.78	0	115	987	1
2026-02-11	16:06:06.910	0.28	0.28	-0.525	-0.003904	0.250832	0.970632	0.345	0.978	-0.7815	0	115	987	1
2026-02-11	16:06:06.930	0.21	0.245	-0.49	-0.006344	0.251076	0.97356	0.345	0.978	-0.786	0	115	987	1
2026-02-11	16:06:06.950	-0.21	0.105	-0.42	-0.009272	0.255468	0.968924	0.3435	0.9765	-0.783	0	115	987	1
2026-02-11	16:06:06.970	-1.12	-0.035	-0.42	-0.003416	0.251808	0.969412	0.345	0.975	-0.7785	0	115	987	1
2026-02-11	16:06:06.990	-1.365	-0.07	-0.56	-0.00854	0.239852	0.968192	0.348	0.972	-0.78	0	115	987	1
2026-02-11	16:06:07.010	0	0.105	-0.42	-0.003904	0.237412	0.976244	0.342	0.969	-0.777	0	99	988	1
2026-02-11	16:06:07.030	1.435	0.175	-0.035	-0.003172	0.247172	0.973072	0.3405	0.975	-0.7755	0	99	988	1
2026-02-11	16:06:07.050	1.61	0.35	-0.175	-0.00732	0.268156	0.968924	0.3435	0.981	-0.777	0	99	988	1
2026-02-11	16:06:07.070	-0.35	0.035	-0.49	-0.009272	0.257908	0.969656	0.339	0.978	-0.7695	0	99	988	1
2026-02-11	16:06:07.090	-1.435	-0.28	-0.49	-0.0061	0.243024	0.97478	0.3435	0.9765	-0.774	0	99	988	1
2026-02-11	16:06:07.110	0.07	-0.175	-0.245	-0.006344	0.238876	0.973316	0.345	0.975	-0.7725	0	99	988	1
2026-02-11	16:06:07.130	1.19	0.035	-0.245	-0.007564	0.253272	0.969168	0.3465	0.972	-0.774	0	99	988	1
2026-02-11	16:06:07.150	0.525	0.035	-0.595	-0.008784	0.262056	0.971852	0.3435	0.9705	-0.774	0	99	988	1
2026-02-11	16:06:07.170	-1.54	-0.35	-0.875	-0.006344	0.255956	0.972584	0.3405	0.972	-0.7725	0	99	988	1
2026-02-11	16:06:07.190	-2.38	-0.665	-0.84	-0.007808	0.241316	0.972096	0.342	0.9705	-0.7725	0	99	988	1
2026-02-11	16:06:07.210	-1.855	-0.595	-0.77	-0.003416	0.242536	0.970144	0.3405	0.9735	-0.7755	0	86	989	1
2026-02-11	16:06:07.230	-1.085	-0.035	-0.875	-0.004636	0.247172	0.984784	0.339	0.978	-0.777	0	86	989	1
2026-02-11	16:06:07.250	-1.4	0.035	-0.84	-0.003416	0.256932	0.971364	0.339	0.9795	-0.777	0	86	989	1
2026-02-11	16:06:07.270	-2.625	-0.245	-0.77	-0.006832	0.252052	0.968924	0.336	0.9825	-0.78	0	86	989	1
2026-02-11	16:06:07.290	-3.43	-0.595	-1.015	-0.00854	0.239364	0.971608	0.345	0.9705	-0.7755	0	86	989	1
2026-02-11	16:06:07.310	-1.645	-0.49	-0.805	-0.0061	0.23546	0.974048	0.342	0.984	-0.78	0	86	989	1
2026-02-11	16:06:07.330	-0.175	-0.21	-0.63	-0.003416	0.244244	0.970388	0.3405	0.9795	-0.78	0	86	989	1
2026-02-11	16:06:07.350	0.14	0	-0.665	-0.0061	0.253028	0.971852	0.342	0.978	-0.78	0	86	989	1
2026-02-11	16:06:07.370	-0.175	-0.07	-0.665	-0.002928	0.246684	0.973316	0.3435	0.9765	-0.7815	0	86	989	1
2026-02-11	16:06:07.390	-0.595	-0.07	-0.595	-0.006588	0.236924	0.97234	0.3435	0.978	-0.7785	0	86	989	1
2026-02-11	16:06:07.410	-0.42	-0.105	-0.42	-0.00488	0.242048	0.97356	0.345	0.984	-0.783	0	76	990	1
2026-02-11	16:06:07.430	-0.35	-0.105	-0.42	-0.007808	0.246196	0.97112	0.3465	0.9825	-0.789	0	76	990	1
2026-02-11	16:06:07.450	-0.735	-0.14	-0.595	0.000488	0.246928	0.970632	0.342	0.9825	-0.7815	0	76	990	1
2026-02-11	16:06:07.470	-1.19	-0.14	-0.735	-0.003416	0.244488	0.973072	0.336	0.984	-0.777	0	76	990	1
2026-02-11	16:06:07.490	-0.945	-0.07	-0.7	-0.007076	0.23912	0.976244	0.3435	0.975	-0.7875	0	76	990	1
2026-02-11	16:06:07.510	-0.175	-0.035	-0.35	-0.006832	0.238388	0.972828	0.3435	0.978	-0.783	0	76	990	1
2026-02-11	16:06:07.530	0.35	0	-0.315	-0.007076	0.24888	0.972828	0.342	0.9795	-0.783	0	76	990	1
2026-02-11	16:06:07.550	-0.385	-0.14	-0.525	-0.010736	0.249368	0.975756	0.3405	0.981	-0.7785	0	76	990	1
2026-02-11	16:06:07.570	-0.945	-0.245	-0.56	-0.005612	0.241072	0.97356	0.339	0.981	-0.78	0	76	990	1
2026-02-11	16:06:07.590	-0.665	-0.21	-0.525	-0.0061	0.23668	0.974048	0.342	0.9825	-0.786	0	76	990	1
2026-02-11	16:06:07.610	-0.105	-0.105	-0.525	-0.008052	0.238632	0.976	0.345	0.984	-0.7845	0	66	991	1
2026-02-11	16:06:07.630	0	-0.105	-0.595	-0.002928	0.243512	0.97234	0.3465	0.9855	-0.786	0	66	991	1
2026-02-11	16:06:07.650	-0.245	-0.175	-0.595	-0.005368	0.244976	0.970632	0.3435	0.987	-0.789	0	66	991	1
2026-02-11	16:06:07.670	-0.42	-0.21	-0.665	-0.007808	0.23912	0.97112	0.3375	0.9855	-0.7875	0	66	991	1
2026-02-11	16:06:07.690	-0.28	0	-0.595	-0.005368	0.244244	0.973316	0.3345	0.984	-0.7875	0	66	991	1
2026-02-11	16:06:07.710	-0.42	0.07	-0.56	-0.00732	0.242048	0.970388	0.348	0.987	-0.792	0	66	991	1
2026-02-11	16:06:07.730	-0.77	0.105	-0.56	-0.007564	0.242536	0.97112	0.3435	0.996	-0.783	0	66	991	1
2026-02-11	16:06:07.750	-1.19	0.035	-0.525	-0.00488	0.244	0.971608	0.339	0.9885	-0.786	0	66	991	1
2026-02-11	16:06:07.770	-1.26	0.105	-0.595	-0.006344	0.238388	0.974536	0.345	0.984	-0.786	0	66	991	1
2026-02-11	16:06:07.790	-1.19	0.21	-0.455	-0.007076	0.239852	0.97722	0.3435	0.981	-0.789	0	66	991	1
2026-02-11	16:06:15.810	-1.155	-0.14	-0.455	-0.030256	0.354288	0.931836	0.3045	0.921	-0.726	0	356	832	1
2026-02-11	16:06:15.830	-0.14	-0.175	-0.175	-0.024156	0.34892	0.93696	0.306	0.9225	-0.723	0	356	832	1
2026-02-11	16:06:15.850	1.295	0.035	-0.21	-0.028304	0.3477	0.938668	0.3045	0.9225	-0.7185	0	356	832	1
2026-02-11	16:06:15.870	2.065	0.21	-0.315	-0.02562	0.362828	0.939644	0.303	0.9165	-0.7125	0	356	832	1
2026-02-11	16:06:15.890	1.68	0.315	-0.665	-0.032452	0.366	0.933056	0.3075	0.9225	-0.717	0	356	832	1
2026-02-11	16:06:15.910	0.42	-0.385	-0.98	-0.026352	0.358924	0.935984	0.3015	0.9105	-0.711	0	356	832	1
2026-02-11	16:06:15.930	0.42	-0.49	-1.12	-0.022204	0.353312	0.937448	0.3075	0.921	-0.7065	0	356	832	1
2026-02-11	16:06:15.950	1.435	-0.56	-1.19	-0.027084	0.357216	0.9333	0.3015	0.915	-0.717	0	356	832	1
2026-02-11	16:06:15.970	1.925	-0.42	-0.98	-0.021716	0.366	0.932568	0.3015	0.915	-0.708	0	356	832	1
2026-02-11	16:06:15.990	0.91	-0.315	-0.805	-0.024888	0.371612	0.934764	0.303	0.9195	-0.705	0	356	832	1
2026-02-11	16:06:16.010	-0.98	-0.28	-0.49	-0.024644	0.366	0.939644	0.306	0.9135	-0.705	0	321	866	1
2026-02-11	16:06:16.030	-1.89	-0.245	-0.21	-0.022692	0.364292	0.934764	0.3045	0.918	-0.708	0	321	866	1
2026-02-11	16:06:16.050	-2.03	-0.175	-0.105	-0.022448	0.354044	0.933056	0.303	0.924	-0.714	0	321	866	1
2026-02-11	16:06:16.070	-1.75	0.14	-0.21	-0.026108	0.3538	0.938912	0.306	0.9225	-0.717	0	321	866	1
2026-02-11	16:06:16.090	-1.785	0.49	-0.385	-0.0244	0.360876	0.94062	0.303	0.924	-0.717	0	321	866	1
2026-02-11	16:06:16.110	-2.625	0.595	-0.665	-0.025132	0.356972	0.938424	0.306	0.918	-0.717	0	321	866	1
2026-02-11	16:06:16.130	-2.31	0.315	-0.875	-0.028304	0.35258	0.932568	0.3105	0.921	-0.711	0	321	866	1
2026-02-11	16:06:16.150	-0.735	0.035	-0.91	-0.026352	0.352336	0.93452	0.3105	0.921	-0.7095	0	321	866	1
2026-02-11	16:06:16.170	0.49	-0.105	-1.015	-0.02806	0.353312	0.93696	0.3105	0.921	-0.723	0	321	866	1
2026-02-11	16:06:16.190	0.665	-0.14	-1.225	-0.026352	0.360388	0.936472	0.309	0.918	-0.7095	0	321	866	1
2026-02-11	16:06:16.210	-1.05	-0.14	-1.505	-0.02318	0.366244	0.93086	0.3045	0.9135	-0.7125	0	282	891	1
2026-02-11	16:06:16.230	-1.855	-0.21	-1.365	-0.026596	0.36478	0.935984	0.3015	0.9165	-0.7125	0	282	891	1
2026-02-11	16:06:16.250	-2.66	-0.35	-0.315	-0.025376	0.376736	0.92964	0.3015	0.918	-0.714	0	282	891	1
2026-02-11	16:06:16.270	-4.69	-0.315	1.225	-0.028304	0.375028	0.94184	0.3075	0.9165	-0.717	0	282	891	1
2026-02-11	16:06:16.290	-8.365	-0.665	2.345	-0.01708	0.328912	0.937448	0.3105	0.9165	-0.72	0	282	891	1
2026-02-11	16:06:16.310	-5.67	-0.35	2.205	-0.037576	0.36966	0.935496	0.2985	0.927	-0.726	0	282	891	1
2026-02-11	16:06:16.330	-5.95	-1.225	2.66	-0.023912	0.33672	0.94794	0.3	0.921	-0.7305	0	282	891	1
2026-02-11	16:06:16.350	-4.41	-1.295	2.975	-0.021228	0.330132	0.945988	0.3	0.9225	-0.7305	0	282	891	1
2026-02-11	16:06:16.370	-2.485	-0.56	3.255	-0.018056	0.34526	0.942328	0.297	0.939	-0.7365	0	282	891	1
2026-02-11	16:06:16.390	-4.305	0.14	3.255	-0.018788	0.352336	0.946964	0.2955	0.936	-0.744	0	282	891	1
2026-02-11	16:06:16.410	-8.015	0.385	2.31	-0.02318	0.355752	0.943548	0.3015	0.9405	-0.7455	0	242	909	1
2026-02-11	16:06:16.430	-13.195	0.175	0.63	-0.020496	0.31964	0.942816	0.3015	0.9405	-0.7455	0	242	909	1
2026-02-11	16:06:16.450	-10.92	0.455	-0.665	-0.019032	0.306464	0.952576	0.297	0.939	-0.7545	0	242	909	1
2026-02-11	16:06:16.470	-7.315	0.875	-2.275	-0.015616	0.291336	0.953308	0.2865	0.9435	-0.7665	0	242	909	1
2026-02-11	16:06:16.490	-1.54	1.715	-3.465	-0.026352	0.311832	0.94794	0.285	0.951	-0.765	0	242	909	1
2026-02-11	16:06:16.510	1.365	1.855	-3.745	-0.02562	0.327692	0.942328	0.291	0.9555	-0.7605	0	242	909	1
2026-02-11	16:06:16.530	2.31	1.505	-3.78	-0.029768	0.3355	0.948672	0.288	0.9465	-0.756	0	242	909	1
2026-02-11	16:06:16.550	1.085	0.91	-3.675	-0.029036	0.34282	0.952088	0.2925	0.9555	-0.7575	0	242	909	1
2026-02-11	16:06:16.570	-1.435	0.805	-3.5	-0.021228	0.330864	0.937204	0.2955	0.9495	-0.756	0	242	909	1
2026-02-11	16:06:16.590	0.35	0.665	-3.22	-0.022692	0.33672	0.941108	0.294	0.948	-0.7515	0	242	909	1
2026-02-11	16:06:16.610	1.225	1.05	-2.38	-0.024156	0.335988	0.946476	0.297	0.948	-0.741	0	206	923	1
2026-02-11	16:06:16.630	0.35	0.91	-0.98	-0.030744	0.346724	0.942816	0.291	0.945	-0.75	0	206	923	1
2026-02-11	16:06:16.650	-2.415	-0.07	0.28	-0.027816	0.347456	0.94794	0.2925	0.9435	-0.75	0	206	923	1
2026-02-11	16:06:16.670	-5.775	0.035	0.455	-0.02806	0.33916	0.951844	0.294	0.942	-0.7455	0	206	923	1
2026-02-11	16:06:16.690	-7.805	0.035	0.175	-0.027084	0.326472	0.946476	0.297	0.942	-0.7425	0	206	923	1
2026-02-11	16:06:16.710	-8.785	0.455	-0.49	-0.025864	0.312564	0.948184	0.297	0.945	-0.75	0	206	923	1
2026-02-11	16:06:16.730	-7.14	0.84	-1.33	-0.0305	0.299876	0.955016	0.297	0.948	-0.756	0	206	923	1
2026-02-11	16:06:16.750	-3.92	0.77	-1.785	-0.03172	0.305732	0.9577	0.297	0.951	-0.7545	0	206	923	1
2026-02-11	16:06:16.770	-1.54	0.945	-1.89	-0.028304	0.310856	0.948428	0.297	0.9525	-0.7605	0	206	923	1
2026-02-11	16:06:16.790	-0.91	1.435	-2.24	-0.022448	0.326472	0.95282	0.2925	0.9525	-0.756	0	206	923	1
2026-02-11	16:06:16.810	-2.1	1.89	-3.08	-0.032208	0.32574	0.9455	0.2895	0.948	-0.7635	0	174	935	1
2026-02-11	16:06:16.830	-1.75	1.505	-2.8	-0.03538	0.329888	0.951112	0.2865	0.9525	-0.75	0	174	935	1
2026-02-11	16:06:16.850	-3.15	1.015	-2.38	-0.033428	0.324764	0.950136	0.297	0.945	-0.75	0	174	935	1
2026-02-11	16:06:16.870	-4.62	0.42	-2.625	-0.03782	0.315492	0.956968	0.297	0.9465	-0.7455	0	174	935	1
2026-02-11	16:06:16.890	-3.85	-1.015	-2.8	-0.025864	0.293776	0.947452	0.2955	0.948	-0.7455	0	174	935	1
2026-02-11	16:06:16.910	0.49	-0.7	-2.03	-0.033428	0.302804	0.949892	0.291	0.9495	-0.7485	0	174	935	1
2026-02-11	16:06:16.930	2.52	-0.385	-1.645	-0.050996	0.33306	0.955992	0.2895	0.9495	-0.7485	0	174	935	1
2026-02-11	16:06:16.950	-0.175	-1.61	-1.645	-0.017568	0.301096	0.949648	0.3	0.9555	-0.7515	0	174	935	1
2026-02-11	16:06:16.970	2.1	-0.245	-1.68	-0.037332	0.335988	0.946964	0.2955	0.9465	-0.747	0	174	935	1
2026-02-11	16:06:16.990	-0.42	-0.91	-1.785	-0.037576	0.364292	0.966972	0.294	0.948	-0.744	0	174	935	1
2026-02-11	16:06:17.010	-3.885	-1.89	-1.89	-0.018788	0.290116	0.948428	0.2955	0.945	-0.7425	0	147	944	1
2026-02-11	16:06:17.030	0.35	-1.26	-1.575	-0.033428	0.309636	0.954772	0.291	0.939	-0.7455	0	147	944	1
2026-02-11	16:06:17.050	0.105	-0.98	-1.61	-0.035136	0.316956	0.965996	0.297	0.945	-0.7425	0	147	944	1
2026-02-11	16:06:17.070	-0.595	-0.56	-2.065	-0.02684	0.310856	0.947452	0.297	0.945	-0.7425	0	147	944	1
2026-02-11	16:06:17.090	0.7	-0.385	-1.995	-0.038064	0.339892	0.967216	0.2985	0.945	-0.7425	0	147	944	1
2026-02-11	16:06:17.110	-2.45	-1.365	-2.275	-0.01098	0.304756	0.9455	0.3015	0.9435	-0.7425	0	147	944	1
2026-02-11	16:06:17.130	0.07	0.245	-2.275	-0.033672	0.321592	0.951112	0.306	0.942	-0.741	0	147	944	1
2026-02-11	16:06:17.150	-2.415	-1.085	-2.1	-0.043432	0.30988	0.92842	0.3105	0.9435	-0.7395	0	147	944	1
2026-02-11	16:06:17.170	-2.31	-2.205	-2.03	-0.036112	0.317688	0.947452	0.291	0.945	-0.738	0	147	944	1
2026-02-11	16:06:17.190	-1.47	-1.925	-0.875	-0.013176	0.301096	0.950624	0.3	0.9375	-0.747	0	147	944	1
2026-02-11	16:06:17.210	-0.245	-0.84	-1.015	-0.039528	0.325008	0.94916	0.2985	0.948	-0.747	0	126	952	1
2026-02-11	16:06:17.230	-0.84	-0.63	-0.665	-0.029036	0.313052	0.951356	0.297	0.945	-0.738	0	126	952	1
2026-02-11	16:06:17.250	-0.98	-0.805	-0.735	-0.03416	0.308416	0.957944	0.294	0.9405	-0.7395	0	126	952	1
2026-02-11	16:06:17.270	0.07	-0.98	-0.77	-0.027328	0.304268	0.957212	0.306	0.9465	-0.747	0	126	952	1
2026-02-11	16:06:17.290	0.63	-0.245	-0.875	-0.02318	0.312076	0.953552	0.303	0.948	-0.7455	0	126	952	1
2026-02-11	16:06:17.310	-0.385	0.525	-0.735	-0.026108	0.309148	0.957212	0.3015	0.9495	-0.7395	0	126	952	1
2026-02-11	16:06:17.330	-2.17	0.42	-0.805	-0.03172	0.311832	0.954284	0.3	0.945	-0.741	0	126	952	1
2026-02-11	16:06:17.350	-0.245	0.035	-0.35	-0.030256	0.310368	0.951844	0.297	0.9405	-0.747	0	126	952	1
2026-02-11	16:06:17.370	-0.385	-0.245	-0.245	-0.0305	0.308172	0.9516	0.309	0.954	-0.738	0	126	952	1
2026-02-11	16:06:17.390	-0.385	-0.105	-0.525	-0.030012	0.304024	0.953308	0.294	0.9495	-0.741	0	126	952	1
2026-02-11	16:06:17.410	-0.175	0	-0.875	-0.030988	0.30866	0.956236	0.2985	0.951	-0.732	0	109	958	1
2026-02-11	16:06:17.430	0.21	-0.245	-1.05	-0.033428	0.304512	0.948672	0.3015	0.9525	-0.735	0	109	958	1
2026-02-11	16:06:17.450	1.05	-0.56	-0.98	-0.026352	0.307196	0.9516	0.3	0.9465	-0.7305	0	109	958	1
2026-02-11	16:06:17.470	1.785	-0.84	-1.085	-0.027572	0.313784	0.952332	0.2985	0.9465	-0.741	0	109	958	1
2026-02-11	16:06:17.490	1.19	-0.805	-1.19	-0.027084	0.316224	0.953796	0.3	0.948	-0.732	0	109	958	1
2026-02-11	16:06:17.510	-0.21	-0.7	-1.05	-0.029036	0.315492	0.94916	0.297	0.945	-0.738	0	109	958	1
2026-02-11	16:06:17.530	-1.33	-0.84	-0.945	-0.028548	0.314028	0.953308	0.294	0.942	-0.738	0	109	958	1
2026-02-11	16:06:17.550	-2.24	-0.805	-0.945	-0.022448	0.306708	0.9516	0.2955	0.945	-0.7335	0	109	958	1
2026-02-11	16:06:17.570	-0.805	-0.56	-0.91	-0.02562	0.30012	0.953308	0.2955	0.948	-0.7365	0	109	958	1
2026-02-11	16:06:17.590	0.98	-0.21	-0.42	-0.02806	0.305976	0.957944	0.2955	0.9465	-0.7395	0	109	958	1
2026-02-11	16:06:17.610	1.54	0.21	-0.42	-0.031232	0.316468	0.958676	0.2985	0.9465	-0.741	0	95	962	1
2026-02-11	16:06:17.630	0.385	0.105	-0.525	-0.02806	0.319884	0.947452	0.3	0.9435	-0.738	0	95	962	1
2026-02-11	16:06:17.650	-0.63	-0.35	-0.455	-0.026352	0.30988	0.945012	0.2925	0.942	-0.7335	0	95	962	1
2026-02-11	16:06:17.670	0.14	-0.28	-0.455	-0.027084	0.303292	0.954284	0.2895	0.9465	-0.747	0	95	962	1
2026-02-11	16:06:17.690	1.12	-0.035	-0.595	-0.028304	0.31354	0.956968	0.2865	0.9465	-0.732	0	95	962	1
2026-02-11	16:06:17.710	-0.595	0.21	-0.805	-0.028304	0.325252	0.950136	0.297	0.9495	-0.735	0	95	962	1
2026-02-11	16:06:17.730	-2.52	0.14	-0.56	-0.027572	0.318664	0.952088	0.297	0.945	-0.735	0	95	962	1
2026-02-11	16:06:17.750	-3.5	0.175	-0.385	-0.028304	0.307684	0.956236	0.2955	0.9465	-0.7395	0	95	962	1
2026-02-11	16:06:17.770	-2.45	0.175	-0.175	-0.02928	0.301096	0.956724	0.2955	0.954	-0.7455	0	95	962	1
2026-02-11	16:06:17.790	-1.855	0.245	-0.14	-0.02562	0.307196	0.955992	0.297	0.957	-0.747	0	95	962	1
2026-02-11	16:06:17.810	-1.995	0.875	-0.385	-0.030256	0.311832	0.957456	0.297	0.951	-0.744	0	83	965	1
2026-02-11	16:06:17.830	-3.64	1.4	-0.595	-0.02928	0.31598	0.952576	0.2925	0.948	-0.7455	0	83	965	1
2026-02-11	16:06:17.850	-5.355	1.33	-0.735	-0.029036	0.302804	0.953552	0.2985	0.9465	-0.7365	0	83	965	1
2026-02-11	16:06:17.870	-5.95	0.945	-0.945	-0.032208	0.301584	0.956236	0.291	0.951	-0.753	0	83	965	1
2026-02-11	16:06:17.890	-6.58	0.525	-1.33	-0.03416	0.294996	0.956236	0.2985	0.9495	-0.747	0	83	965	1
2026-02-11	16:06:17.910	-5.32	0.455	-1.61	-0.025376	0.288896	0.955504	0.291	0.951	-0.7395	0	83	965	1
2026-02-11	16:06:17.930	-2.24	1.085	-1.715	-0.031476	0.286944	0.960628	0.291	0.951	-0.7395	0	83	965	1
2026-02-11	16:06:17.950	-0.84	1.645	-1.365	-0.0305	0.295484	0.959652	0.2895	0.9525	-0.7395	0	83	965	1
2026-02-11	16:06:17.970	-1.68	2.065	-0.91	-0.031964	0.307928	0.949648	0.2925	0.9525	-0.744	0	83	965	1
2026-02-11	16:06:17.990	-3.43	1.96	-0.56	-0.03416	0.313052	0.949404	0.2955	0.9525	-0.7485	0	83	965	1
2026-02-11	16:06:18.010	-2.94	0.315	-0.385	-0.052216	0.290604	0.92476	0.2925	0.954	-0.741	0	73	968	1
2026-02-11	16:06:18.030	11.585	-6.44	1.505	-0.060024	0.230824	0.908168	0.294	0.9465	-0.744	0	73	968	1
2026-02-11	16:06:18.050	30.1	-9.555	5.04	-0.013908	0.282796	0.997472	0.2925	0.963	-0.747	0	73	968	1
2026-02-11	16:06:18.070	21.28	-3.955	6.195	-0.027572	0.329644	0.945744	0.279	0.9585	-0.753	0	73	968	1
2026-02-11	16:06:18.090	25.06	-5.11	8.015	-0.043676	0.32452	0.868884	0.285	0.9555	-0.7515	0	73	968	1
2026-02-11	16:06:18.110	42.84	-9.345	10.045	-0.036844	0.422364	0.975268	0.2895	0.951	-0.747	0	73	968	1
2026-02-11	16:06:18.130	11.935	-9.975	11.13	-0.006832	0.438468	0.95526	0.291	0.954	-0.753	0	73	968	1
2026-02-11	16:06:18.150	-13.09	-10.815	10.08	-0.012688	0.350872	0.932568	0.2865	0.9645	-0.771	0	73	968	1
2026-02-11	16:06:18.170	-13.09	-10.465	9.205	-0.00732	0.254736	0.969412	0.2805	0.9795	-0.7995	0	73	968	1
2026-02-11	16:06:18.190	-6.02	-8.54	9.59	-0.004148	0.304024	0.984052	0.276	0.9915	-0.822	0	73	968	1
2026-02-11	16:06:18.210	-11.48	-6.79	8.05	0.02318	0.309636	0.976488	0.276	0.999	-0.834	0	65	969	1
2026-02-11	16:06:18.230	-20.615	-1.19	4.48	0.025864	0.32574	0.945744	0.2805	1.011	-0.849	0	65	969	1
2026-02-11	16:06:18.250	-20.23	0.595	-0.35	0.005368	0.267668	0.9455	0.285	1.02	-0.8625	0	65	969	1
2026-02-11	16:06:18.270	-7.7	0.14	-3.43	0.003172	0.279868	0.980392	0.279	1.023	-0.864	0	65	969	1
2026-02-11	16:06:18.290	-6.79	0.315	-6.44	0.004636	0.338916	0.977464	0.2835	1.0305	-0.87	0	65	969	1
2026-02-11	16:06:18.310	-17.465	1.225	-9.205	0.015128	0.327448	0.948916	0.276	1.0335	-0.8625	0	65	969	1
2026-02-11	16:06:18.330	-28.42	3.36	-12.425	-0.015372	0.3111	0.960384	0.288	1.0305	-0.8655	0	65	969	1
2026-02-11	16:06:18.350	-39.235	0	-18.69	0.04148	0.347456	0.978196	0.297	1.029	-0.8595	0	65	969	1
2026-02-11	16:06:18.370	-47.04	0.875	-14.07	-0.060756	0.321836	0.977464	0.291	1.0365	-0.864	0	65	969	1
2026-02-11	16:06:18.390	-61.005	-1.4	-16.975	0.029036	0.264984	0.966972	0.288	1.053	-0.873	0	65	969	1
2026-02-11	16:06:18.410	-58.24	-1.12	-20.755	-0.046604	0.226676	0.944768	0.2895	1.065	-0.888	0	60	971	1
2026-02-11	16:06:18.430	-52.885	0.49	-22.82	-0.020252	0.219112	0.963312	0.2895	1.0695	-0.9	0	60	971	1
2026-02-11	16:06:18.450	-43.015	-1.26	-20.86	-0.037088	0.160796	0.968192	0.279	1.0905	-0.9255	0	60	971	1
2026-02-11	16:06:18.470	-31.57	-0.455	-18.025	-0.002684	0.122976	0.960628	0.2775	1.0965	-0.9585	0	60	971	1
2026-02-11	16:06:18.490	-16.45	-1.365	-15.05	-0.02318	0.088328	1.006012	0.2745	1.0995	-0.9795	0	60	971	1
2026-02-11	16:06:18.510	-5.495	0.105	-12.705	0.000244	0.125416	0.998692	0.276	1.11	-1.014	0	60	971	1
2026-02-11	16:06:18.530	-0.245	0.805	-7.875	-0.012688	0.125172	0.978684	0.276	1.1115	-1.0275	0	60	971	1
2026-02-11	16:06:18.550	14.035	-0.14	-4.095	0.007564	0.169336	0.973316	0.2835	1.1055	-1.032	0	60	971	1
2026-02-11	16:06:18.570	30.625	-3.115	-3.535	-0.012932	0.153964	0.997716	0.2835	1.1055	-1.032	0	60	971	1
2026-02-11	16:06:18.590	34.825	-4.235	-3.675	0.001464	0.192028	0.977708	0.291	1.0935	-1.029	0	60	971	1
2026-02-11	16:06:18.610	28.455	-5.775	-1.855	0.008296	0.202032	0.973072	0.3	1.0815	-1.0245	0	58	975	1
2026-02-11	16:06:18.630	25.55	-4.97	-3.08	-0.011956	0.182512	0.966728	0.303	1.0815	-1.023	0	58	975	1
2026-02-11	16:06:18.650	27.37	-3.78	-3.36	-0.038308	0.244488	0.99186	0.294	1.0635	-1.0245	0	58	975	1
2026-02-11	16:06:18.670	25.9	-6.3	-6.79	-0.064904	0.316712	0.942084	0.3045	1.0605	-1.0125	0	58	975	1
2026-02-11	16:06:18.690	21.175	-8.995	-10.29	-0.046848	0.205936	0.93818	0.306	1.053	-1.0095	0	58	975	1
2026-02-11	16:06:18.710	28.035	-9.52	-8.645	-0.04026	0.164944	0.994056	0.306	1.0575	-1.0035	0	58	975	1
2026-02-11	16:06:18.730	33.775	-3.92	-4.585	0.003904	0.237168	1.010892	0.3135	1.041	-1.0095	0	58	975	1
2026-02-11	16:06:18.750	34.475	-1.645	-4.095	-0.040992	0.302072	0.946232	0.318	1.041	-1.0005	0	58	975	1
2026-02-11	16:06:18.770	32.165	0.035	-0.21	0.138836	0.29402	0.928664	0.345	1.0365	-0.981	0	58	975	1
2026-02-11	16:06:18.790	23.24	5.46	5.915	0.096868	0.310368	0.9272	0.3555	1.02	-0.972	0	58	975	1
2026-02-11	16:06:18.810	17.71	16.135	5.6	0.09028	0.31232	0.949404	0.372	1.011	-0.96	0	58	979	1
2026-02-11	16:06:18.830	15.155	18.795	9.1	0.095648	0.294752	0.94428	0.378	1.0185	-0.957	0	58	979	1
2026-02-11	16:06:18.850	21.14	14.35	3.675	-0.035868	0.345748	0.965508	0.3795	1.02	-0.957	0	58	979	1
2026-02-11	16:06:18.870	19.18	10.185	1.68	-0.13176	0.339404	0.960628	0.348	1.0185	-0.939	0	58	979	1
2026-02-11	16:06:18.890	13.755	5.915	1.68	-0.12688	0.349408	0.941108	0.327	1.0035	-0.9165	0	58	979	1
2026-02-11	16:06:18.910	10.675	2.52	1.54	-0.114924	0.333304	0.955992	0.321	0.9975	-0.9105	0	58	979	1
2026-02-11	16:06:18.930	10.115	0.035	-0.84	-0.019764	0.33428	0.952332	0.327	0.993	-0.906	0	58	979	1
2026-02-11	16:06:18.950	10.045	-1.26	-0.875	-0.025132	0.3721	0.946232	0.3225	0.99	-0.9	0	58	979	1
2026-02-11	16:06:18.970	3.255	-2.38	-1.295	-0.019276	0.385032	0.94184	0.318	0.981	-0.8865	0	58	979	1
2026-02-11	16:06:18.990	-7.7	-2.345	-1.365	0.007076	0.346236	0.943792	0.3255	0.9915	-0.888	0	58	979	1
2026-02-11	16:06:19.010	-10.78	0.98	-1.47	0.001464	0.366	0.940132	0.321	0.9885	-0.894	0	61	980	1
2026-02-11	16:06:19.030	-15.19	0.49	0.91	0.090524	0.37454	0.944036	0.3225	0.9855	-0.9015	0	61	980	1
2026-02-11	16:06:19.050	-11.095	1.33	1.26	0.071492	0.370636	0.92476	0.3285	0.9855	-0.903	0	61	980	1
2026-02-11	16:06:19.070	0.28	0.21	-2.03	0.05612	0.337452	0.924516	0.3045	0.9915	-0.9165	0	61	980	1
2026-02-11	16:06:19.090	5.04	-0.315	-1.085	0.010736	0.353556	0.993324	0.291	0.9795	-0.93	0	61	980	1
2026-02-11	16:06:19.110	1.75	0.245	-1.855	0.053192	0.31598	0.928664	0.261	0.981	-0.948	0	61	980	1
2026-02-11	16:06:19.130	6.23	1.33	-0.945	-0.054656	0.30866	0.9394	0.2355	0.978	-0.972	0	61	980	1
2026-02-11	16:06:19.150	3.64	3.115	-3.325	-0.065636	0.27084	0.977952	0.186	0.963	-0.9705	0	61	980	1
2026-02-11	16:06:19.170	6.405	1.26	1.26	-0.003416	0.283528	0.97478	0.1485	0.96	-0.978	0	61	980	1
2026-02-11	16:06:19.190	16.205	1.855	-0.175	-0.259616	0.251564	0.932324	0.129	0.9525	-0.9735	0	61	980	1
2026-02-11	16:06:19.210	24.185	7.245	-5.88	-0.07686	0.26718	0.928664	0.129	0.9525	-0.9735	0	65	979	1
2026-02-11	16:06:19.230	41.895	3.43	0.98	0.013908	0.30012	0.958188	0.111	0.9375	-0.9615	0	65	979	1
2026-02-11	16:06:19.250	48.755	7.35	2.555	0.078568	0.434076	0.950868	0.0915	0.921	-0.9405	0	65	979	1
2026-02-11	16:06:19.270	21.805	9.345	3.99	0.001708	0.494344	0.935008	0.09	0.921	-0.9315	0	65	979	1
2026-02-11	16:06:19.290	-8.12	5.005	1.575	-0.093452	0.469456	0.916464	0.099	0.912	-0.9105	0	65	979	1
2026-02-11	16:06:19.310	-20.93	-0.105	-1.12	-0.097844	0.411384	0.91988	0.1035	0.915	-0.897	0	65	979	1
2026-02-11	16:06:19.330	-23.765	-2.275	-4.34	-0.110776	0.365024	0.953308	0.0915	0.915	-0.876	0	65	979	1
2026-02-11	16:06:19.350	-22.785	-3.465	-6.51	-0.077348	0.325984	0.981368	0.0915	0.915	-0.882	0	65	979	1
2026-02-11	16:06:19.370	-20.79	-2.94	-6.825	-0.030744	0.314028	0.952576	0.0855	0.9315	-0.891	0	65	979	1
2026-02-11	16:06:19.390	-15.89	-1.05	-5.635	-0.024888	0.33428	0.948672	0.084	0.927	-0.8865	0	65	979	1
2026-02-11	16:06:19.410	-8.225	-0.735	-3.885	-0.059292	0.325008	0.926224	0.084	0.9285	-0.8895	0	70	976	1
2026-02-11	16:06:19.430	5.005	-1.575	-2.275	-0.05124	0.346724	0.933788	0.093	0.933	-0.888	0	70	976	1
2026-02-11	16:06:19.450	8.19	-2.66	-1.715	-0.037332	0.381616	0.9394	0.1125	0.9345	-0.8895	0	70	976	1
2026-02-11	16:06:19.470	1.925	-8.715	2.73	0.049532	0.399916	0.937936	0.123	0.9315	-0.8925	0	70	976	1
2026-02-11	16:06:19.490	-7.28	-6.125	-0.945	-0.00976	0.391376	0.940864	0.1185	0.9345	-0.8955	0	70	976	1
2026-02-11	16:06:19.510	-21.735	-4.095	-3.22	-0.003172	0.403088	0.943304	0.132	0.9255	-0.894	0	70	976	1
2026-02-11	16:06:19.530	-36.89	-1.26	-6.195	-0.022936	0.376248	0.943304	0.126	0.936	-0.8895	0	70	976	1
2026-02-11	16:06:19.550	-45.92	-1.085	-7.105	-0.048312	0.292068	0.92598	0.1215	0.9345	-0.9045	0	70	976	1
2026-02-11	16:06:19.570	-30.8	-5.145	-6.405	-0.008784	0.193492	0.922564	0.1185	0.9405	-0.9225	0	70	976	1
2026-02-11	16:06:19.590	-10.185	-1.54	-3.955	-0.022204	0.284748	0.977464	0.1125	0.9525	-0.93	0	70	976	1
2026-02-11	16:06:19.610	-8.855	-0.175	-2.415	-0.017812	0.282308	0.972584	0.093	0.9615	-0.945	0	74	973	1
2026-02-11	16:06:19.630	-10.29	2.17	-1.925	-0.030988	0.341356	0.94672	0.0885	0.96	-0.948	0	74	973	1
2026-02-11	16:06:19.650	-17.29	1.33	-2.415	-0.030012	0.311588	0.96624	0.0915	0.96	-0.9495	0	74	973	1
2026-02-11	16:06:19.670	-23.94	0.56	-2.765	-0.037332	0.28548	0.97234	0.0885	0.963	-0.9585	0	74	973	1
2026-02-11	16:06:19.690	-27.195	-0.875	-2.1	-0.029036	0.249368	0.962336	0.0825	0.966	-0.9675	0	74	973	1
2026-02-11	16:06:19.710	-24.185	-1.015	-1.61	-0.025376	0.224968	0.963556	0.081	0.9645	-0.9855	0	74	973	1
2026-02-11	16:06:19.730	-18.375	0	-0.875	-0.022448	0.223992	0.984296	0.078	0.972	-0.99	0	74	973	1
2026-02-11	16:06:19.750	-14.21	1.26	-0.56	-0.036112	0.236924	0.981368	0.066	0.9855	-0.99	0	74	973	1
2026-02-11	16:06:19.770	-12.075	0.7	-0.42	-0.033428	0.234972	0.956968	0.0705	0.9765	-0.996	0	74	973	1
2026-02-11	16:06:19.790	-5.11	-1.19	0.42	-0.025376	0.2135	0.967216	0.069	0.984	-1.008	0	74	973	1
2026-02-11	16:06:19.810	0.84	-0.945	1.785	-0.03416	0.230824	0.982832	0.0675	0.9825	-0.999	0	76	972	1
2026-02-11	16:06:19.830	0.35	-0.875	2.45	-0.027572	0.249856	0.977464	0.069	0.978	-0.996	0	76	972	1
2026-02-11	16:06:19.850	-0.28	-1.26	2.31	-0.039528	0.251564	0.970388	0.069	0.978	-0.996	0	76	972	1
2026-02-11	16:06:19.870	0.595	-2.695	2.205	-0.027084	0.235704	0.964532	0.075	0.978	-0.9915	0	76	972	1
2026-02-11	16:06:19.890	2.66	-2.695	2.765	-0.026352	0.26108	0.976976	0.0825	0.978	-0.987	0	76	972	1
2026-02-11	16:06:19.910	0.385	-3.115	2.975	-0.023912	0.25986	0.975268	0.0855	0.9915	-0.9825	0	76	972	1
2026-02-11	16:06:19.930	-2.205	-2.94	3.08	-0.01342	0.255956	0.974048	0.0915	0.981	-0.9765	0	76	972	1
2026-02-11	16:06:19.950	-5.145	-2.45	2.485	-0.011956	0.266448	0.975268	0.0975	0.9825	-0.984	0	76	972	1
2026-02-11	16:06:19.970	-8.225	-1.505	1.96	-0.011224	0.25376	0.972096	0.099	0.9945	-0.9795	0	76	972	1
2026-02-11	16:06:19.990	-12.005	-0.455	1.225	-0.013664	0.251076	0.977952	0.0945	0.984	-0.978	0	76	972	1
2026-02-11	16:06:20.010	-17.29	1.015	0.35	-0.019764	0.228384	0.989908	0.0945	0.984	-0.978	0	77	975	1
2026-02-11	16:06:20.030	-15.225	8.785	-3.395	-0.07686	0.1708	0.9882	0.096	0.9945	-0.9825	0	77	975	1
2026-02-11	16:06:20.050	-0.665	10.22	-4.515	0.009272	0.27694	0.932812	0.093	0.9975	-0.984	0	77	975	1
2026-02-11	16:06:20.070	-8.155	12.53	-4.305	0.000488	0.309636	0.947696	0.1035	0.99	-0.993	0	77	975	1
2026-02-11	16:06:20.090	-25.445	3.885	-0.49	-0.031476	0.18178	0.96502	0.114	0.9855	-1.008	0	77	975	1
2026-02-11	16:06:20.110	-28	0.315	2.625	-0.01708	0.117608	0.977708	0.114	0.9885	-1.014	0	77	975	1
2026-02-11	16:06:20.130	-15.785	-0.14	3.535	-0.05612	0.175436	0.996008	0.1125	0.9975	-1.0395	0	77	975	1
2026-02-11	16:06:20.150	-10.325	-0.245	2.415	-0.014152	0.210328	0.984296	0.123	1.011	-1.0455	0	77	975	1
2026-02-11	16:06:20.170	-6.51	-2.24	1.89	-0.029524	0.212036	0.988688	0.117	1.0125	-1.0425	0	77	975	1
2026-02-11	16:06:20.190	-6.125	-1.785	0.175	-0.025132	0.19764	0.992836	0.1275	1.023	-1.0395	0	77	975	1
2026-02-11	16:06:20.210	-7.91	-0.84	-1.435	-0.036844	0.178852	0.9882	0.123	1.0215	-1.047	0	76	980	1
2026-02-11	16:06:20.230	-5.985	1.155	-2.38	-0.089548	0.176168	0.990152	0.1335	1.026	-1.0485	0	76	980	1
2026-02-11	16:06:20.250	-5.81	1.785	-2.45	0.021228	0.178608	0.96136	0.147	1.023	-1.053	0	76	980	1
2026-02-11	16:06:20.270	-2.835	-0.35	-4.305	-0.030744	0.220332	0.979172	0.1485	1.0305	-1.0485	0	76	980	1
2026-02-11	16:06:20.290	-8.61	-0.175	-4.13	-0.02074	0.173728	0.96624	0.153	1.0215	-1.0485	0	76	980	1
2026-02-11	16:06:20.310	-8.89	0.315	-3.01	-0.023424	0.148352	0.99064	0.159	1.017	-1.053	0	76	980	1
2026-02-11	16:06:20.330	-6.475	1.26	-2.03	-0.013664	0.178852	0.994788	0.1605	1.0215	-1.056	0	76	980	1
2026-02-11	16:06:20.350	-7.21	0.98	-1.925	-0.02196	0.177388	0.992348	0.1635	1.011	-1.0575	0	76	980	1
2026-02-11	16:06:20.370	-6.16	0.805	-1.995	-0.04148	0.183976	0.9821	0.159	1.0215	-1.0455	0	76	980	1
2026-02-11	16:06:20.390	-4.095	0.945	-2.275	-0.0305	0.183	0.98698	0.1695	1.0185	-1.05	0	76	980	1
2026-02-11	16:06:20.410	-3.325	0.84	-2.52	-0.040504	0.195932	0.99552	0.1755	1.0215	-1.0395	0	75	985	1
2026-02-11	16:06:20.430	-6.3	1.225	-3.43	-0.04514	0.195688	0.986736	0.1785	1.0215	-1.0425	0	75	985	1
2026-02-11	16:06:20.450	-8.82	0.875	-3.675	-0.035868	0.19154	0.951112	0.1785	1.014	-1.032	0	75	985	1
2026-02-11	16:06:20.470	-10.15	-0.035	-3.535	-0.035136	0.170312	0.973316	0.1755	1.0245	-1.035	0	75	985	1
2026-02-11	16:06:20.490	-4.69	0.245	-1.33	-0.04026	0.146156	0.97966	0.1755	1.0245	-1.035	0	75	985	1
2026-02-11	16:06:20.510	-0.98	1.225	-2.835	-0.040016	0.281576	0.963556	0.174	1.0245	-1.0425	0	75	985	1
2026-02-11	16:06:20.530	-10.955	0.63	-5.32	-0.055144	0.260592	0.982588	0.1725	1.0245	-1.05	0	75	985	1
2026-02-11	16:06:20.550	-16.065	-3.43	-3.99	-0.057584	0.117852	0.954772	0.18	1.0275	-1.068	0	75	985	1
2026-02-11	16:06:20.570	8.085	-5.005	0.28	-0.096868	0.084668	0.988688	0.1665	1.0275	-1.0935	0	75	985	1
2026-02-11	16:06:20.590	33.39	-7.07	3.43	-0.138104	0.11468	0.996252	0.1545	1.0365	-1.131	0	75	985	1
2026-02-11	16:06:20.610	46.76	-11.375	2.59	-0.149572	0.161528	0.996008	0.1635	1.0455	-1.1715	0	73	990	1
2026-02-11	16:06:20.630	68.075	-12.215	-0.945	-0.124928	0.195688	1.005036	0.171	1.032	-1.206	0	73	990	1
2026-02-11	16:06:20.650	97.23	-11.76	-5.6	-0.091012	0.198372	0.94794	0.177	1.008	-1.254	0	73	990	1
2026-02-11	16:06:20.670	121.765	-5.39	-4.62	-0.056608	0.252052	0.968192	0.222	0.99	-1.3005	0	73	990	1
2026-02-11	16:06:20.690	88.305	0.77	0.875	-0.06588	0.40138	0.95282	0.2745	0.954	-1.3635	0	73	990	1
2026-02-11	16:06:20.710	36.505	-5.985	2.205	0.00976	0.326472	0.964532	0.342	0.9285	-1.3965	0	73	990	1
2026-02-11	16:06:20.730	20.895	-6.51	2.45	0.024888	0.382348	0.949892	0.45	0.8955	-1.44	0	73	990	1
2026-02-11	16:06:20.750	6.79	-5.005	1.12	0.08295999	0.31598	0.965752	0.4905	0.888	-1.4505	0	73	990	1
2026-02-11	16:06:20.770	-5.425	-1.96	0.175	0.120292	0.31842	0.955992	0.5625	0.873	-1.467	0	73	990	1
2026-02-11	16:06:20.790	-8.785	-2.275	-2.45	0.101504	0.351116	0.964532	0.618	0.8505	-1.4655	0	73	990	1
2026-02-11	16:06:20.810	-16.135	-1.96	-6.65	0.105896	0.336964	0.952088	0.666	0.852	-1.458	0	73	992	1
2026-02-11	16:06:20.830	-24.15	-1.015	-8.085	0.110044	0.239364	0.944036	0.7095	0.852	-1.455	0	73	992	1
2026-02-11	16:06:20.850	-17.465	4.305	-6.335	0.025132	0.261324	0.974536	0.7065	0.8445	-1.4655	0	73	992	1
2026-02-11	16:06:20.870	-10.71	6.685	-4.34	0.011224	0.310612	0.95648	0.708	0.849	-1.4595	0	73	992	1
2026-02-11	16:06:20.890	-15.925	2.275	-2.87	-0.017568	0.376004	0.957456	0.7005	0.858	-1.461	0	73	992	1
2026-02-11	16:06:20.910	-30.065	-0.07	-3.29	-0.027816	0.305976	0.964288	0.678	0.8625	-1.4535	0	73	992	1
2026-02-11	16:06:20.930	-25.62	0.245	-3.675	-0.032208	0.213012	0.950136	0.6645	0.873	-1.458	0	73	992	1
2026-02-11	16:06:20.950	-6.44	0.665	-2.66	-0.039772	0.237412	0.960628	0.6525	0.885	-1.4625	0	73	992	1
2026-02-11	16:06:20.970	0.77	1.015	-1.19	-0.035136	0.280356	0.97356	0.642	0.8985	-1.47	0	73	992	1
2026-02-11	16:06:20.990	3.57	0.245	-0.315	-0.041236	0.295972	0.975024	0.627	0.9	-1.4625	0	73	992	1
2026-02-11	16:06:21.010	5.565	-1.015	-0.035	-0.031476	0.305244	0.957944	0.627	0.915	-1.449	0	74	991	1
2026-02-11	16:06:21.030	6.65	0.49	-0.63	-0.030012	0.341844	0.952088	0.6195	0.909	-1.4475	0	74	991	1
2026-02-11	16:06:21.050	-4.655	-0.595	-2.555	-0.042944	0.40138	0.917928	0.624	0.9075	-1.4295	0	74	991	1
2026-02-11	16:06:21.070	-21.42	-5.425	-2.73	-0.023912	0.31476	0.96868	0.6225	0.9105	-1.431	0	74	991	1
2026-02-11	16:06:21.090	-21.07	-7.665	-4.025	-0.001708	0.256688	0.96258	0.618	0.909	-1.437	0	74	991	1
2026-02-11	16:06:21.110	-27.195	-3.885	-2.31	0.005124	0.235216	0.97478	0.6165	0.906	-1.458	0	74	991	1
2026-02-11	16:06:21.130	-13.44	-2.275	-0.49	0.0061	0.119804	0.985028	0.6165	0.906	-1.458	0	74	991	1
2026-02-11	16:06:21.150	2.275	2.24	1.085	-0.00976	0.271816	0.980636	0.621	0.912	-1.4775	0	74	991	1
2026-02-11	16:06:21.170	6.16	2.345	-0.56	-0.02684	0.303048	0.961848	0.6255	0.9195	-1.4985	0	74	991	1
2026-02-11	16:06:21.190	6.44	-0.42	-1.19	-0.017324	0.247416	0.973316	0.627	0.921	-1.491	0	74	991	1
2026-02-11	16:06:21.210	8.925	-0.595	-0.805	-0.019764	0.259128	0.976488	0.627	0.915	-1.4925	0	75	989	1
2026-02-11	16:06:21.230	11.2	-0.56	-0.385	-0.010736	0.283528	0.974048	0.621	0.9285	-1.488	0	75	989	1
2026-02-11	16:06:21.250	7.945	0	-0.735	-0.013664	0.294508	0.963068	0.6225	0.915	-1.4775	0	75	989	1
2026-02-11	16:06:21.270	4.445	-0.175	-1.33	0.007076	0.31232	0.959408	0.624	0.903	-1.4775	0	75	989	1
2026-02-11	16:06:21.290	-5.215	-0.595	-3.36	-0.02196	0.336964	0.938912	0.627	0.9135	-1.4655	0	75	989	1
2026-02-11	16:06:21.310	-21.7	-1.435	-1.925	-0.022448	0.168116	0.97356	0.624	0.9075	-1.4775	0	75	989	1
2026-02-11	16:06:21.330	-3.255	-0.245	-0.315	-0.000488	0.229116	0.984296	0.63	0.9135	-1.4835	0	75	989	1
2026-02-11	16:06:21.350	2.73	1.89	0.035	-0.02318	0.277184	0.960628	0.624	0.912	-1.4895	0	75	989	1
2026-02-11	16:06:21.370	1.995	0.28	-0.595	-0.014396	0.271328	0.971364	0.618	0.9105	-1.488	0	75	989	1
2026-02-11	16:06:21.390	-1.12	0.385	-0.665	-0.01586	0.285724	0.965752	0.618	0.912	-1.479	0	75	989	1
2026-02-11	16:06:21.410	-4.69	-0.21	-1.05	-0.014396	0.284748	0.961604	0.6225	0.906	-1.4805	0	75	988	1
2026-02-11	16:06:21.430	-9.065	-0.805	-1.575	-0.011956	0.2745	0.96868	0.6195	0.9135	-1.485	0	75	988	1
2026-02-11	16:06:21.450	-11.445	-0.945	-2.1	-0.016836	0.26474	0.965752	0.6225	0.9135	-1.488	0	75	988	1
2026-02-11	16:06:21.470	-12.81	-1.575	-1.995	-0.015128	0.249856	0.969412	0.624	0.915	-1.494	0	75	988	1
2026-02-11	16:06:21.490	-11.97	-1.645	-2.065	-0.0122	0.246684	0.972584	0.6195	0.9135	-1.5075	0	75	988	1
2026-02-11	16:06:21.510	-11.2	-1.33	-2.24	-0.019032	0.247904	0.970876	0.6225	0.918	-1.5075	0	75	988	1
2026-02-11	16:06:21.530	-11.165	-1.33	-2.205	-0.011468	0.232044	0.971364	0.6225	0.921	-1.5045	0	75	988	1
2026-02-11	16:06:21.550	-8.015	0.21	-2.03	-0.021716	0.251076	0.974048	0.624	0.9165	-1.518	0	75	988	1
2026-02-11	16:06:21.570	-8.75	-0.77	-1.82	-0.009028	0.222772	0.976488	0.624	0.9165	-1.5255	0	75	988	1
2026-02-11	16:06:21.590	-7.7	-0.7	-1.575	-0.011712	0.21838	0.975512	0.6255	0.9165	-1.533	0	75	988	1
2026-02-11	16:06:21.610	-5.32	-0.315	-1.26	-0.013908	0.217892	0.977464	0.6255	0.909	-1.539	0	73	988	1
2026-02-11	16:06:21.630	-3.57	-0.105	-0.945	-0.014152	0.22326	0.975268	0.6285	0.9135	-1.542	0	73	988	1
2026-02-11	16:06:21.650	-2.485	0.07	-0.875	-0.011956	0.226432	0.974048	0.6255	0.9135	-1.545	0	73	988	1
2026-02-11	16:06:21.670	-2.24	0.035	-0.945	-0.011956	0.233508	0.975756	0.6255	0.9165	-1.5405	0	73	988	1
2026-02-11	16:06:21.690	-2.765	0	-1.085	-0.013664	0.233752	0.975024	0.6195	0.918	-1.545	0	73	988	1
2026-02-11	16:06:21.710	-4.235	-0.105	-1.085	-0.01464	0.226188	0.975268	0.618	0.9165	-1.545	0	73	988	1
2026-02-11	16:06:21.730	-4.445	-0.14	-1.155	-0.011956	0.217892	0.977952	0.618	0.909	-1.5495	0	73	988	1
2026-02-11	16:06:21.750	-1.575	0.98	-0.7	-0.02074	0.244	0.979904	0.624	0.924	-1.554	0	73	988	1
2026-02-11	16:06:21.770	-4.06	-0.595	-0.805	-0.009272	0.210816	0.976488	0.624	0.924	-1.554	0	73	988	1
2026-02-11	16:06:21.790	-2.1	-0.245	-0.735	-0.008784	0.210816	0.98332	0.624	0.918	-1.56	0	73	988	1
2026-02-11	16:06:21.810	-0.56	0.105	-0.525	-0.011224	0.215452	0.978684	0.624	0.912	-1.5675	0	70	989	1
2026-02-11	16:06:21.830	0.07	0.385	-0.42	-0.013176	0.221796	0.97722	0.636	0.9165	-1.5555	0	70	989	1
2026-02-11	16:06:21.850	0.21	0.245	-0.49	-0.013664	0.223504	0.978928	0.6165	0.918	-1.5555	0	70	989	1
2026-02-11	16:06:21.870	-0.245	0.035	-0.735	-0.014152	0.22082	0.978684	0.6255	0.915	-1.551	0	70	989	1
2026-02-11	16:06:21.890	-1.05	-0.07	-0.84	-0.013908	0.22814	0.97722	0.6165	0.918	-1.5525	0	70	989	1
2026-02-11	16:06:21.910	-1.12	-0.21	-0.98	-0.014884	0.216916	0.97722	0.6285	0.918	-1.56	0	70	989	1
2026-02-11	16:06:21.930	-0.84	-0.175	-0.805	-0.013908	0.215208	0.979904	0.621	0.915	-1.563	0	70	989	1
2026-02-11	16:06:21.950	-0.105	0.07	-0.735	-0.015372	0.217648	0.976488	0.63	0.9195	-1.557	0	70	989	1
2026-02-11	16:06:21.970	-0.385	0	-0.63	-0.014152	0.223748	0.978928	0.6225	0.918	-1.557	0	70	989	1
2026-02-11	16:06:21.990	-0.98	-0.035	-0.665	-0.015616	0.22204	0.979416	0.6225	0.9165	-1.56	0	70	989	1
2026-02-11	16:06:22.010	-1.575	-0.07	-0.735	-0.014396	0.21472	0.97844	0.6225	0.9165	-1.5645	0	66	992	1
2026-02-11	16:06:22.030	-1.715	-0.07	-0.63	-0.010492	0.216916	0.976976	0.6195	0.921	-1.56	0	66	992	1
2026-02-11	16:06:22.050	-1.365	0	-0.77	-0.01464	0.213256	0.982588	0.624	0.918	-1.5645	0	66	992	1
2026-02-11	16:06:22.070	-1.19	-0.035	-0.63	-0.01708	0.217404	0.98088	0.627	0.9165	-1.5645	0	66	992	1
2026-02-11	16:06:22.090	-1.12	-0.105	-0.595	-0.016592	0.21594	0.976244	0.621	0.9195	-1.563	0	66	992	1
2026-02-11	16:06:22.110	-0.77	-0.035	-0.56	-0.013664	0.214232	0.980636	0.624	0.9165	-1.5615	0	66	992	1
2026-02-11	16:06:22.130	-0.105	0.105	-0.42	-0.013176	0.216184	0.980392	0.621	0.9195	-1.563	0	66	992	1
2026-02-11	16:06:22.150	-0.175	0.07	-0.42	-0.013176	0.214964	0.976976	0.618	0.921	-1.5615	0	66	992	1
2026-02-11	16:06:22.170	-0.28	-0.07	-0.56	-0.016592	0.220088	0.981368	0.6225	0.9135	-1.5645	0	66	992	1
2026-02-11	16:06:22.190	-0.42	-0.21	-0.665	-0.014152	0.214232	0.981612	0.6225	0.9195	-1.56	0	66	992	1
2026-02-11	16:06:22.210	-0.175	-0.105	-0.665	-0.012932	0.214964	0.978928	0.6255	0.9165	-1.56	0	61	994	1
2026-02-11	16:06:22.230	-0.14	-0.105	-0.63	-0.014152	0.225212	0.981124	0.6285	0.915	-1.5615	0	61	994	1
2026-02-11	16:06:22.250	0	-0.105	-0.595	-0.011956	0.213988	0.979172	0.6285	0.915	-1.5615	0	61	994	1
2026-02-11	16:06:22.270	0.035	-0.105	-0.525	-0.01342	0.216184	0.981368	0.621	0.9165	-1.5615	0	61	994	1
2026-02-11	16:06:22.290	0	-0.14	-0.56	-0.017324	0.216428	0.980392	0.6225	0.9165	-1.5585	0	61	994	1
2026-02-11	16:06:22.310	-0.105	-0.105	-0.56	-0.011712	0.216184	0.982344	0.627	0.918	-1.563	0	61	994	1
2026-02-11	16:06:22.330	-0.21	-0.105	-0.595	-0.01342	0.215208	0.981856	0.633	0.9195	-1.5645	0	61	994	1
2026-02-11	16:06:22.350	-0.245	-0.07	-0.595	-0.01342	0.214476	0.979904	0.6255	0.915	-1.557	0	61	994	1
2026-02-11	16:06:22.370	-0.35	-0.07	-0.56	-0.012932	0.21472	0.981612	0.6195	0.918	-1.56	0	61	994	1
2026-02-11	16:06:22.390	-0.385	-0.07	-0.56	-0.016592	0.218136	0.977464	0.6255	0.9195	-1.5615	0	61	994	1
2026-02-11	16:06:22.410	-0.595	-0.14	-0.595	-0.011224	0.219356	0.978928	0.6255	0.9165	-1.566	0	55	996	1
2026-02-11	16:06:22.430	-0.525	-0.07	-0.665	-0.014396	0.213012	0.97844	0.627	0.9195	-1.572	0	55	996	1
2026-02-11	16:06:22.450	-0.56	-0.07	-0.56	-0.014152	0.210816	0.982344	0.63	0.9255	-1.5735	0	55	996	1
2026-02-11	16:06:22.470	-0.315	0.035	-0.56	-0.011956	0.217892	0.97966	0.627	0.924	-1.575	0	55	996	1
2026-02-11	16:06:22.490	-0.455	0.035	-0.455	-0.015128	0.216672	0.982832	0.6225	0.921	-1.557	0	55	996	1
2026-02-11	16:06:22.510	-0.665	0	-0.42	-0.015128	0.217404	0.978928	0.6255	0.9195	-1.5675	0	55	996	1
2026-02-11	16:06:22.530	-0.805	-0.07	-0.455	-0.01708	0.211304	0.981856	0.621	0.9195	-1.5645	0	55	996	1
2026-02-11	16:06:22.550	-0.77	-0.07	-0.49	-0.012932	0.211304	0.979416	0.618	0.9105	-1.563	0	55	996	1
2026-02-11	16:06:22.570	-0.35	-0.035	-0.525	-0.01708	0.212036	0.977952	0.624	0.927	-1.572	0	55	996	1
2026-02-11	16:06:22.590	-0.42	-0.14	-0.56	-0.016348	0.212036	0.9821	0.6315	0.9195	-1.5675	0	55	996	1
2026-02-11	16:06:22.610	-0.315	-0.14	-0.595	-0.013664	0.210572	0.97966	0.63	0.9195	-1.5735	0	49	998	1
2026-02-11	16:06:22.630	-0.42	-0.07	-0.56	-0.015616	0.209108	0.981856	0.6225	0.924	-1.5705	0	49	998	1
2026-02-11	16:06:22.650	-0.42	0	-0.525	-0.016348	0.213012	0.980148	0.6165	0.9285	-1.569	0	49	998	1
2026-02-11	16:06:22.670	-0.455	0.035	-0.455	-0.011956	0.213256	0.976732	0.627	0.924	-1.5705	0	49	998	1
2026-02-11	16:06:22.690	-0.455	0.07	-0.455	-0.01342	0.210084	0.982588	0.6165	0.9165	-1.557	0	49	998	1
2026-02-11	16:06:22.710	-0.455	0.07	-0.455	-0.015616	0.214476	0.978684	0.624	0.912	-1.563	0	49	998	1
2026-02-11	16:06:22.730	-0.595	0.105	-0.595	-0.018788	0.21106	0.982588	0.6255	0.9195	-1.563	0	49	998	1
2026-02-11	16:06:22.750	-0.595	-0.175	-0.7	-0.01708	0.211304	0.977708	0.6225	0.9195	-1.569	0	49	998	1
2026-02-11	16:06:22.770	-0.35	-0.175	-0.595	-0.0122	0.211304	0.983808	0.6255	0.915	-1.563	0	49	998	1
2026-02-11	16:06:22.790	-0.175	-0.07	-0.56	-0.01342	0.212768	0.981368	0.618	0.912	-1.557	0	49	998	1
2026-02-11	16:06:22.810	-0.28	-0.07	-0.455	-0.016592	0.213744	0.9821	0.624	0.9165	-1.566	0	43	999	1
2026-02-11	16:06:22.830	-0.7	-0.14	-0.455	-0.017568	0.21106	0.980148	0.63	0.9105	-1.563	0	43	999	1
2026-02-11	16:06:22.850	-0.63	-0.105	-0.49	-0.013176	0.206424	0.979416	0.627	0.912	-1.5675	0	43	999	1
2026-02-11	16:06:22.870	-0.21	0	-0.455	-0.016348	0.213988	0.981124	0.624	0.9135	-1.572	0	43	999	1
2026-02-11	16:06:22.890	-0.14	0	-0.42	-0.017568	0.214476	0.981124	0.6255	0.9135	-1.572	0	43	999	1
2026-02-11	16:06:22.910	-0.42	-0.14	-0.49	-0.014152	0.210816	0.979904	0.627	0.9225	-1.5735	0	43	999	1
2026-02-11	16:06:22.930	-0.385	-0.245	-0.595	-0.01586	0.20984	0.983076	0.6165	0.9195	-1.569	0	43	999	1
2026-02-11	16:06:22.950	-0.28	-0.175	-0.525	-0.00976	0.205692	0.98088	0.6315	0.9285	-1.578	0	43	999	1
2026-02-11	16:06:22.970	0.105	-0.035	-0.455	-0.014396	0.213256	0.97966	0.624	0.918	-1.5705	0	43	999	1
2026-02-11	16:06:22.990	0	0	-0.455	-0.017812	0.210328	0.978928	0.6195	0.912	-1.569	0	43	999	1
2026-02-11	16:06:23.010	-0.245	-0.105	-0.49	-0.01098	0.207644	0.981368	0.6225	0.9135	-1.569	0	38	1000	1
2026-02-11	16:06:23.030	-0.035	0.07	-0.385	-0.017324	0.20862	0.984052	0.6195	0.9165	-1.5645	0	38	1000	1
2026-02-11	16:06:23.050	0.14	0.455	-0.21	-0.01586	0.21228	0.97844	0.6195	0.9165	-1.5645	0	38	1000	1
2026-02-11	16:06:23.070	-0.14	0.21	-0.35	-0.017324	0.212768	0.988688	0.6195	0.9165	-1.5645	0	38	1000	1
2026-02-11	16:06:23.090	-0.35	0	-0.455	-0.013176	0.205448	0.984052	0.627	0.9195	-1.5615	0	38	1000	1
2026-02-11	16:06:23.110	-0.35	0.14	-0.42	-0.015128	0.212524	0.975268	0.6285	0.9165	-1.5585	0	38	1000	1
2026-02-11	16:06:23.130	0.14	0.21	-0.525	-0.014396	0.207156	0.981124	0.6165	0.9255	-1.563	0	38	1000	1
2026-02-11	16:06:23.150	1.19	0.21	-0.665	-0.013664	0.212524	0.9821	0.627	0.921	-1.5645	0	38	1000	1
2026-02-11	16:06:23.170	1.19	0.175	-0.595	-0.013664	0.217892	0.978928	0.621	0.921	-1.5585	0	38	1000	1
2026-02-11	16:06:23.190	0.49	-0.035	-0.63	-0.01464	0.2196	0.975512	0.618	0.918	-1.56	0	38	1000	1
2026-02-11	16:06:23.210	-0.175	-0.245	-0.7	-0.013908	0.21228	0.984784	0.618	0.9225	-1.5555	0	33	1001	1
2026-02-11	16:06:23.230	-0.455	-0.105	-0.63	-0.015616	0.216184	0.979172	0.6225	0.915	-1.56	0	33	1001	1
2026-02-11	16:06:23.250	-0.735	0	-0.455	-0.0122	0.214964	0.981856	0.618	0.921	-1.563	0	33	1001	1
2026-02-11	16:06:23.270	-0.945	0.14	-0.35	-0.016348	0.213012	0.98454	0.6225	0.924	-1.563	0	33	1001	1
2026-02-11	16:06:23.290	-1.12	0.35	-0.21	-0.011956	0.216184	0.97844	0.627	0.927	-1.5645	0	33	1001	1
2026-02-11	16:06:23.310	-1.33	0.42	-0.245	-0.006832	0.222528	0.97722	0.63	0.9165	-1.566	0	33	1001	1
2026-02-11	16:06:23.330	-1.715	0.42	-0.42	-0.016348	0.211304	0.979172	0.6195	0.9195	-1.566	0	33	1001	1
2026-02-11	16:06:23.350	-2.17	0.14	-0.315	-0.012932	0.20862	0.982588	0.621	0.921	-1.5645	0	33	1001	1
2026-02-11	16:06:23.370	-0.525	0.49	0.14	-0.018788	0.213744	0.984296	0.618	0.9225	-1.5675	0	33	1001	1
2026-02-11	16:06:23.390	-1.19	0.385	-0.525	-0.016104	0.204228	0.982344	0.6135	0.9195	-1.5675	0	33	1001	1
2026-02-11	16:06:23.410	-1.61	0.07	-0.49	-0.02074	0.200324	0.978196	0.6165	0.9195	-1.5735	0	28	1001	1
2026-02-11	16:06:23.430	-0.875	0	-0.385	-0.014396	0.205692	0.979172	0.6255	0.918	-1.5675	0	28	1001	1
2026-02-11	16:06:23.450	-0.105	0.245	-0.28	-0.015616	0.208132	0.97966	0.6285	0.918	-1.569	0	28	1001	1
2026-02-11	16:06:23.470	-0.21	0.105	-0.385	-0.018788	0.211304	0.985028	0.609	0.915	-1.572	0	28	1001	1
2026-02-11	16:06:23.490	-0.525	-0.105	-0.385	-0.015616	0.204228	0.982832	0.6135	0.915	-1.5735	0	28	1001	1
2026-02-11	16:06:23.510	-0.28	-0.035	-0.28	-0.016104	0.207156	0.97844	0.6195	0.9165	-1.5765	0	28	1001	1
2026-02-11	16:06:23.530	-0.14	0.035	-0.21	-0.017812	0.2074	0.98088	0.618	0.9225	-1.575	0	28	1001	1
2026-02-11	16:06:23.550	0	0.105	-0.21	-0.020496	0.208864	0.98332	0.6195	0.921	-1.569	0	28	1001	1
2026-02-11	16:06:23.570	-0.105	0.07	-0.21	-0.021228	0.211304	0.978684	0.627	0.918	-1.572	0	28	1001	1
2026-02-11	16:06:23.590	-0.315	0.105	-0.105	-0.011468	0.2074	0.976	0.615	0.924	-1.569	0	28	1001	1
2026-02-11	16:06:23.610	0.21	0.175	0.245	-0.016104	0.211304	0.981368	0.612	0.9195	-1.569	0	25	1002	1
2026-02-11	16:06:23.630	0.14	0.63	-0.28	-0.01586	0.207644	0.98454	0.615	0.924	-1.575	0	25	1002	1
2026-02-11	16:06:23.650	-0.42	0.595	0.14	-0.01586	0.208132	0.979904	0.612	0.9225	-1.5765	0	25	1002	1
2026-02-11	16:06:23.670	-0.385	0.315	0.7	-0.01098	0.21594	0.985272	0.6135	0.921	-1.5765	0	25	1002	1
2026-02-11	16:06:23.690	0.105	0.875	0.7	-0.01342	0.199348	0.982344	0.6135	0.921	-1.5765	0	25	1002	1
2026-02-11	16:06:23.710	1.855	0.735	1.19	-0.022204	0.208132	0.978196	0.6135	0.921	-1.5765	0	25	1002	1
2026-02-11	16:06:23.730	3.745	1.015	1.26	-0.009272	0.182024	0.974048	0.615	0.9255	-1.5735	0	25	1002	1
2026-02-11	16:06:23.750	8.89	2.31	2.485	-0.004636	0.085644	0.977464	0.6225	0.9135	-1.569	0	25	1002	1
2026-02-11	16:06:23.770	24.71	5.81	5.705	-0.02928	0.122976	0.985516	0.6165	0.912	-1.563	0	25	1002	1
2026-02-11	16:06:23.790	45.01	3.745	7.07	-0.012932	0.153232	0.985272	0.612	0.921	-1.5405	0	25	1002	1
2026-02-11	16:06:23.810	59.64	3.815	7.35	-0.024644	0.228628	0.97112	0.6075	0.9255	-1.521	0	22	1001	1
2026-02-11	16:06:23.830	66.01	3.22	8.47	-0.025864	0.24278	0.9699	0.609	0.9165	-1.488	0	22	1001	1
2026-02-11	16:06:23.850	69.615	4.97	8.82	-0.02928	0.338184	0.959896	0.603	0.9195	-1.4415	0	22	1001	1
2026-02-11	16:06:23.870	62.965	4.41	8.085	-0.015616	0.382104	0.935252	0.594	0.909	-1.3905	0	22	1001	1
2026-02-11	16:06:23.890	44.975	3.71	4.76	-0.013908	0.435296	0.929152	0.6075	0.906	-1.353	0	22	1001	1
2026-02-11	16:06:23.910	20.93	2.135	1.505	-0.029524	0.439932	0.918172	0.6075	0.906	-1.353	0	22	1001	1
2026-02-11	16:06:23.930	6.755	1.505	0.105	-0.035136	0.428708	0.9272	0.5985	0.903	-1.3035	0	22	1001	1
2026-02-11	16:06:23.950	-6.125	-0.105	-0.91	-0.032208	0.407968	0.934276	0.5955	0.8985	-1.2915	0	22	1001	1
2026-02-11	16:06:23.970	-18.515	-1.645	-1.89	-0.024156	0.380884	0.940376	0.594	0.903	-1.2825	0	22	1001	1
2026-02-11	16:06:23.990	-26.915	-2.065	-2.66	-0.027084	0.353068	0.94306	0.591	0.9	-1.2945	0	22	1001	1
2026-02-11	16:06:24.010	-30.625	-2.835	-3.255	-0.030012	0.336476	0.949648	0.591	0.9	-1.2945	0	22	998	1
2026-02-11	16:06:24.030	-30.905	-3.325	-3.675	-0.0244	0.29646	0.949648	0.591	0.9	-1.2945	0	22	998	1
2026-02-11	16:06:24.050	-26.11	-3.395	-3.465	-0.016592	0.259616	0.961116	0.5955	0.9075	-1.353	0	22	998	1
2026-02-11	16:06:24.070	-18.515	-2.065	-2.52	-0.0183	0.255224	0.965752	0.5865	0.9135	-1.353	0	22	998	1
2026-02-11	16:06:24.090	-11.2	-0.77	-1.75	-0.019764	0.269376	0.964288	0.594	0.9255	-1.374	0	22	998	1
2026-02-11	16:06:24.110	-4.935	-0.175	-1.575	-0.026108	0.269132	0.956236	0.588	0.918	-1.3815	0	22	998	1
2026-02-11	16:06:24.130	0.56	-0.455	-0.63	-0.024644	0.288164	0.961604	0.5895	0.9195	-1.3815	0	22	998	1
2026-02-11	16:06:24.150	1.715	-0.7	0.035	-0.02196	0.302072	0.961604	0.5925	0.9225	-1.383	0	22	998	1
2026-02-11	16:06:24.170	0.175	-1.12	-0.175	-0.013664	0.315736	0.953552	0.5925	0.927	-1.383	0	22	998	1
2026-02-11	16:06:24.190	-3.115	-1.12	-0.945	-0.014884	0.305	0.954284	0.5955	0.9285	-1.3905	0	22	998	1
2026-02-11	16:06:24.210	-6.09	-0.875	-1.33	-0.019032	0.298168	0.956968	0.5955	0.927	-1.401	0	25	993	1
2026-02-11	16:06:24.230	-7.945	-0.84	-1.33	-0.019764	0.293288	0.95892	0.597	0.927	-1.392	0	25	993	1
2026-02-11	16:06:24.250	-8.47	-0.875	-1.26	-0.02074	0.285236	0.967216	0.5955	0.9225	-1.3935	0	25	993	1
2026-02-11	16:06:24.270	-9.485	-0.735	-1.33	-0.022448	0.283772	0.96014	0.591	0.9285	-1.4025	0	25	993	1
2026-02-11	16:06:24.290	-8.4	-1.155	-1.26	-0.020008	0.264252	0.962824	0.603	0.933	-1.4055	0	25	993	1
2026-02-11	16:06:24.310	-5.95	-1.19	-0.91	-0.018544	0.273524	0.96136	0.5955	0.9345	-1.4115	0	25	993	1
2026-02-11	16:06:24.330	-4.41	-0.84	-0.84	-0.017324	0.275964	0.96624	0.594	0.9375	-1.413	0	25	993	1
2026-02-11	16:06:24.350	-4.9	-0.455	-1.05	-0.020252	0.275964	0.959896	0.594	0.9375	-1.413	0	25	993	1
2026-02-11	16:06:24.370	-4.725	-0.525	-1.05	-0.018544	0.26718	0.963556	0.597	0.9285	-1.4145	0	25	993	1
2026-02-11	16:06:24.390	-3.185	-0.56	-0.735	-0.012688	0.268156	0.96868	0.5955	0.927	-1.416	0	25	993	1
2026-02-11	16:06:24.410	-1.925	-0.315	-0.63	-0.016348	0.271328	0.963312	0.5895	0.936	-1.413	0	27	989	1
2026-02-11	16:06:24.430	-1.82	-0.07	-0.77	-0.02196	0.273036	0.966728	0.594	0.93	-1.419	0	27	989	1
2026-02-11	16:06:24.450	-1.645	-0.385	-0.805	-0.019032	0.265472	0.965752	0.6	0.9345	-1.416	0	27	989	1
2026-02-11	16:06:24.470	-0.595	-0.525	-0.595	-0.020008	0.265228	0.967216	0.6	0.933	-1.413	0	27	989	1
2026-02-11	16:06:24.490	0.14	-0.28	-0.28	-0.016104	0.266936	0.969656	0.5925	0.933	-1.4175	0	27	989	1
2026-02-11	16:06:24.510	0.49	0	-0.42	-0.024644	0.278404	0.96502	0.585	0.933	-1.416	0	27	989	1
2026-02-11	16:06:24.530	-0.455	-0.28	-0.7	-0.020008	0.2745	0.964532	0.597	0.93	-1.4235	0	27	989	1
2026-02-11	16:06:24.550	-0.945	-0.56	-0.735	-0.021228	0.271328	0.969412	0.597	0.93	-1.4235	0	27	989	1
2026-02-11	16:06:24.570	-1.26	-0.91	-0.875	-0.017568	0.26718	0.963556	0.5865	0.93	-1.4235	0	27	989	1
2026-02-11	16:06:24.590	-0.98	-0.84	-1.225	-0.01464	0.268156	0.966484	0.603	0.9315	-1.425	0	27	989	1
2026-02-11	16:06:24.610	-0.28	-0.735	-1.225	-0.01586	0.26596	0.9638	0.594	0.9345	-1.4265	0	29	987	1
2026-02-11	16:06:24.630	-0.035	-0.665	-0.91	-0.016592	0.263764	0.968192	0.6	0.9315	-1.428	0	29	987	1
2026-02-11	16:06:24.650	1.05	-0.385	-0.735	-0.015128	0.264984	0.968436	0.5955	0.933	-1.4205	0	29	987	1
2026-02-11	16:06:24.670	1.47	-0.245	-0.56	-0.016348	0.271572	0.964288	0.6045	0.933	-1.4145	0	29	987	1
2026-02-11	16:06:24.690	0.805	-0.35	-0.56	-0.016592	0.279624	0.96502	0.5985	0.9345	-1.4265	0	29	987	1
2026-02-11	16:06:24.710	-0.35	-0.525	-0.84	-0.01586	0.27328	0.969656	0.6015	0.9405	-1.4235	0	29	987	1
2026-02-11	16:06:24.730	-0.91	-0.455	-0.945	-0.012932	0.26474	0.966972	0.5955	0.93	-1.416	0	29	987	1
2026-02-11	16:06:24.750	-0.84	-0.21	-0.7	-0.018056	0.2684	0.968924	0.603	0.9255	-1.422	0	29	987	1
2026-02-11	16:06:24.770	-0.315	-0.105	-0.49	-0.018056	0.273768	0.96624	0.6015	0.93	-1.425	0	29	987	1
2026-02-11	16:06:24.790	-0.385	-0.14	-0.525	-0.016836	0.27084	0.96502	0.6	0.9345	-1.428	0	29	987	1
2026-02-11	16:06:24.810	-0.98	-0.14	-0.63	-0.016592	0.276452	0.964288	0.6	0.9345	-1.4295	0	30	987	1
2026-02-11	16:06:24.830	-2.24	-0.245	-0.84	-0.012444	0.273524	0.974292	0.5895	0.9345	-1.4295	0	30	987	1
2026-02-11	16:06:24.850	-4.97	0	-1.05	-0.019276	0.276696	0.960628	0.594	0.9345	-1.4265	0	30	987	1
2026-02-11	16:06:24.870	-5.495	-0.105	-1.365	-0.0183	0.274744	0.965508	0.6045	0.933	-1.4295	0	30	987	1
2026-02-11	16:06:24.890	-6.475	-0.28	-1.435	-0.021472	0.25864	0.964044	0.6015	0.9345	-1.431	0	30	987	1
2026-02-11	16:06:24.910	-6.265	-0.14	-1.26	-0.017812	0.25498	0.970388	0.5955	0.9375	-1.431	0	30	987	1
2026-02-11	16:06:24.930	-5.81	-0.105	-1.225	-0.016104	0.259128	0.968192	0.5985	0.9375	-1.4355	0	30	987	1
2026-02-11	16:06:24.950	-5.81	-0.105	-1.365	-0.016836	0.257664	0.96868	0.603	0.93	-1.437	0	30	987	1
2026-02-11	16:06:24.970	-5.075	-0.175	-1.33	-0.017324	0.247904	0.971608	0.5985	0.942	-1.446	0	30	987	1
2026-02-11	16:06:24.990	-3.22	-0.315	-0.91	-0.01708	0.241804	0.972096	0.5985	0.942	-1.446	0	30	987	1
2026-02-11	16:06:25.010	-1.155	0.14	-0.665	-0.019276	0.248392	0.969168	0.6	0.945	-1.4355	0	29	987	1
2026-02-11	16:06:25.030	-0.56	0.035	-0.525	-0.016104	0.255468	0.967948	0.6	0.9345	-1.4445	0	29	987	1
2026-02-11	16:06:25.050	-1.05	0	-0.63	-0.016104	0.255224	0.97356	0.6015	0.9375	-1.446	0	29	987	1
2026-02-11	16:06:25.070	-2.17	-0.175	-0.77	-0.022204	0.256444	0.97112	0.594	0.9465	-1.4415	0	29	987	1
2026-02-11	16:06:25.090	-2.24	-0.525	-0.875	-0.020496	0.242536	0.971852	0.6015	0.936	-1.431	0	29	987	1
2026-02-11	16:06:25.110	-1.4	-0.455	-0.7	-0.016348	0.244244	0.973804	0.5955	0.9345	-1.4445	0	29	987	1
2026-02-11	16:06:25.130	-0.385	-0.14	-0.665	-0.0183	0.255468	0.964532	0.6	0.942	-1.4475	0	29	987	1
2026-02-11	16:06:25.150	-0.84	-0.385	-0.735	-0.016104	0.260592	0.970876	0.597	0.9375	-1.4475	0	29	987	1
2026-02-11	16:06:25.170	-2.765	-0.175	-1.365	-0.01708	0.277184	0.979416	0.606	0.939	-1.4475	0	29	987	1
2026-02-11	16:06:25.190	-8.61	0.21	-1.68	-0.018544	0.277428	0.966484	0.606	0.939	-1.4475	0	29	987	1
2026-02-11	16:06:25.210	-13.3	-1.155	-2.135	-0.009272	0.233264	0.970876	0.6015	0.942	-1.4535	0	27	988	1
2026-02-11	16:06:25.230	-12.005	0.735	-2.065	-0.021716	0.270596	0.974536	0.606	0.9405	-1.4655	0	27	988	1
2026-02-11	16:06:25.250	-16.065	-1.645	-1.995	-0.020008	0.218136	0.975268	0.6015	0.9495	-1.461	0	27	988	1
2026-02-11	16:06:25.270	-10.5	0.385	-1.715	-0.025376	0.232044	0.970144	0.6015	0.9405	-1.473	0	27	988	1
2026-02-11	16:06:25.290	-8.365	-0.7	-1.4	-0.014152	0.209108	0.98454	0.6	0.9405	-1.482	0	27	988	1
2026-02-11	16:06:25.310	-7.175	-1.33	-1.26	-0.013664	0.202764	0.974536	0.6	0.951	-1.4865	0	27	988	1
2026-02-11	16:06:25.330	-2.94	-0.525	-1.225	-0.015128	0.207888	0.981856	0.603	0.942	-1.491	0	27	988	1
2026-02-11	16:06:25.350	-0.455	0	-0.91	-0.018056	0.211792	0.978684	0.6	0.948	-1.4865	0	27	988	1
2026-02-11	16:06:25.370	0.98	0.14	-0.63	-0.017812	0.227896	0.977708	0.5985	0.939	-1.491	0	27	988	1
2026-02-11	16:06:25.390	0.735	-0.07	-0.63	-0.016836	0.230336	0.97356	0.606	0.933	-1.4955	0	27	988	1
2026-02-11	16:06:25.410	-0.21	-0.42	-0.805	-0.01464	0.223748	0.973804	0.606	0.933	-1.4955	0	26	989	1
2026-02-11	16:06:25.430	-0.035	-0.42	-0.63	-0.016348	0.221064	0.977464	0.5985	0.9405	-1.491	0	26	989	1
2026-02-11	16:06:25.450	0.35	-0.21	-0.455	-0.014396	0.221064	0.981612	0.6045	0.945	-1.494	0	26	989	1
2026-02-11	16:06:25.470	0.28	-0.175	-0.49	-0.017568	0.225944	0.976	0.5985	0.9435	-1.5045	0	26	989	1
2026-02-11	16:06:25.490	-0.385	-0.315	-0.7	-0.01464	0.228872	0.97844	0.606	0.942	-1.4985	0	26	989	1
2026-02-11	16:06:25.510	-1.575	-0.42	-0.77	-0.01464	0.238876	0.978196	0.6015	0.939	-1.497	0	26	989	1
2026-02-11	16:06:25.530	-3.955	-0.21	-0.945	-0.01098	0.229604	0.975756	0.6105	0.9405	-1.5	0	26	989	1
2026-02-11	16:06:25.550	-2.38	2.135	-0.805	-0.030256	0.281576	0.976488	0.603	0.9435	-1.5	0	26	989	1
2026-02-11	16:06:25.570	-8.82	-0.035	-1.435	-0.018056	0.223504	0.97966	0.6015	0.9405	-1.5015	0	26	989	1
2026-02-11	16:06:25.590	-12.705	-1.12	-1.925	-0.0061	0.17568	0.983564	0.6075	0.9405	-1.509	0	26	989	1
2026-02-11	16:06:25.610	-7.105	0.14	-1.68	-0.024888	0.210572	0.984784	0.615	0.945	-1.521	0	25	991	1
2026-02-11	16:06:25.630	-7.98	-1.61	-1.33	-0.013664	0.17324	0.981368	0.597	0.9345	-1.527	0	25	991	1
2026-02-11	16:06:25.650	-2.905	-0.63	-0.665	-0.009516	0.188368	0.983808	0.6045	0.945	-1.53	0	25	991	1
2026-02-11	16:06:25.670	0.175	0.175	-0.56	-0.01586	0.207156	0.983808	0.6015	0.9435	-1.5345	0	25	991	1
2026-02-11	16:06:25.690	0.665	0.28	-0.525	-0.01952	0.2135	0.979416	0.6	0.945	-1.5285	0	25	991	1
2026-02-11	16:06:25.710	0.07	-0.07	-0.56	-0.012932	0.212524	0.981612	0.6075	0.9345	-1.5315	0	25	991	1
2026-02-11	16:06:25.730	-0.63	-0.315	-0.595	-0.015616	0.214964	0.977708	0.6	0.945	-1.533	0	25	991	1
2026-02-11	16:06:25.750	-1.05	-0.28	-0.595	-0.019764	0.207644	0.982588	0.6015	0.9435	-1.527	0	25	991	1
2026-02-11	16:06:25.770	-1.155	-0.385	-0.56	-0.019032	0.203496	0.98454	0.6105	0.9405	-1.536	0	25	991	1
2026-02-11	16:06:25.790	-0.665	-0.315	-0.665	-0.01586	0.203984	0.985028	0.591	0.9315	-1.5375	0	25	991	1
2026-02-11	16:06:25.810	-0.105	-0.245	-0.595	-0.015128	0.203008	0.978196	0.6045	0.9345	-1.539	0	24	994	1
2026-02-11	16:06:25.830	0.63	-0.105	-0.595	-0.016348	0.209596	0.980392	0.6045	0.9345	-1.539	0	24	994	1
2026-02-11	16:06:25.850	0.63	-0.175	-0.665	-0.0183	0.209352	0.98576	0.603	0.942	-1.533	0	24	994	1
2026-02-11	16:06:25.870	0.175	-0.595	-0.84	-0.0183	0.209108	0.984784	0.6075	0.942	-1.5405	0	24	994	1
2026-02-11	16:06:25.890	0.315	-0.63	-1.085	-0.002928	0.160064	0.987224	0.6105	0.939	-1.5375	0	24	994	1
2026-02-11	16:06:25.910	5.075	2.135	-1.4	-0.017568	0.248392	0.98454	0.603	0.9435	-1.536	0	24	994	1
2026-02-11	16:06:25.930	-0.245	-0.84	-1.225	-0.011224	0.19764	0.984296	0.606	0.942	-1.539	0	24	994	1
2026-02-11	16:06:25.950	0.77	-0.175	-0.945	-0.01464	0.206668	0.981856	0.609	0.945	-1.539	0	24	994	1
2026-02-11	16:06:25.970	1.19	0.105	-0.525	-0.017324	0.212036	0.982832	0.606	0.939	-1.533	0	24	994	1
2026-02-11	16:06:25.990	0.525	0.14	-0.42	-0.015616	0.217404	0.980148	0.603	0.939	-1.53	0	24	994	1
2026-02-11	16:06:26.010	-0.84	-0.105	-0.42	-0.019032	0.212036	0.977708	0.603	0.939	-1.53	0	23	996	1
2026-02-11	16:06:26.030	-1.015	-0.14	-0.525	-0.014152	0.205448	0.983808	0.6045	0.9435	-1.5315	0	23	996	1
2026-02-11	16:06:26.050	-0.385	0.07	-0.455	-0.01952	0.208864	0.981612	0.6045	0.9435	-1.5315	0	23	996	1
2026-02-11	16:06:26.070	0.105	0.175	-0.385	-0.018788	0.209108	0.979172	0.606	0.936	-1.548	0	23	996	1
2026-02-11	16:06:26.090	0.14	0.105	-0.385	-0.017324	0.214232	0.981368	0.6015	0.939	-1.542	0	23	996	1
2026-02-11	16:06:26.110	-0.07	0	-0.42	-0.014396	0.210084	0.981368	0.6045	0.9285	-1.533	0	23	996	1
2026-02-11	16:06:26.130	-0.21	-0.105	-0.455	-0.01708	0.207156	0.978928	0.6135	0.9435	-1.542	0	23	996	1
2026-02-11	16:06:26.150	-0.35	-0.21	-0.525	-0.016104	0.2074	0.981368	0.609	0.9405	-1.545	0	23	996	1
2026-02-11	16:06:26.170	-0.07	-0.14	-0.56	-0.018788	0.208376	0.977464	0.6105	0.9375	-1.548	0	23	996	1
2026-02-11	16:06:26.190	0.175	-0.07	-0.595	-0.017324	0.209352	0.984784	0.6075	0.9465	-1.551	0	23	996	1
2026-02-11	16:06:26.210	0.21	-0.175	-0.595	-0.021228	0.21472	0.980148	0.6015	0.9435	-1.5405	0	22	998	1
2026-02-11	16:06:26.230	0.315	-0.21	-0.595	-0.01586	0.214964	0.97844	0.615	0.9375	-1.5405	0	22	998	1
2026-02-11	16:06:26.250	0.07	-0.105	-0.63	-0.015128	0.210328	0.983076	0.606	0.936	-1.5375	0	22	998	1
2026-02-11	16:06:26.270	0.175	0.07	-0.455	-0.016104	0.210572	0.981368	0.606	0.9375	-1.5375	0	22	998	1
2026-02-11	16:06:26.290	0.105	0.035	-0.35	-0.0183	0.20618	0.977708	0.6045	0.9405	-1.545	0	22	998	1
2026-02-11	16:06:26.310	0.105	0	-0.385	-0.01586	0.206912	0.98454	0.609	0.9435	-1.5375	0	22	998	1
2026-02-11	16:06:26.330	0.28	0.035	-0.455	-0.016592	0.207156	0.977464	0.603	0.9375	-1.542	0	22	998	1
2026-02-11	16:06:26.350	0.245	-0.035	-0.525	-0.013664	0.209352	0.978196	0.612	0.9315	-1.5285	0	22	998	1
2026-02-11	16:06:26.370	0.035	-0.105	-0.595	-0.016836	0.211792	0.981124	0.6	0.9315	-1.533	0	22	998	1
2026-02-11	16:06:26.390	-0.14	-0.14	-0.595	-0.018056	0.210816	0.97966	0.6015	0.9345	-1.5555	0	22	998	1
2026-02-11	16:06:26.410	-0.28	-0.105	-0.56	-0.017568	0.210084	0.978196	0.6165	0.942	-1.53	0	21	1000	1
2026-02-11	16:06:26.430	-0.21	-0.105	-0.595	-0.014152	0.209596	0.98088	0.6105	0.939	-1.542	0	21	1000	1
2026-02-11	16:06:26.450	0.105	-0.07	-0.595	-0.014396	0.205204	0.978684	0.6135	0.9375	-1.536	0	21	1000	1
2026-02-11	16:06:26.470	0.35	-0.07	-0.595	-0.016836	0.208132	0.977708	0.6015	0.939	-1.5375	0	21	1000	1
2026-02-11	16:06:26.490	0.385	-0.07	-0.595	-0.016592	0.20984	0.982588	0.609	0.939	-1.5435	0	21	1000	1
2026-02-11	16:06:26.510	0.105	-0.105	-0.595	-0.016836	0.207644	0.98088	0.6045	0.9495	-1.5315	0	21	1000	1
2026-02-11	16:06:26.530	0	-0.14	-0.525	-0.014396	0.20862	0.980148	0.603	0.942	-1.545	0	21	1000	1
2026-02-11	16:06:26.550	0.14	-0.105	-0.455	-0.013664	0.210084	0.97844	0.615	0.9405	-1.539	0	21	1000	1
2026-02-11	16:06:26.570	0.35	-0.035	-0.49	-0.018544	0.208376	0.981368	0.6	0.936	-1.545	0	21	1000	1
2026-02-11	16:06:26.590	0.455	-0.035	-0.525	-0.0183	0.208864	0.983076	0.609	0.939	-1.5315	0	21	1000	1
2026-02-11	16:06:26.610	0.7	0	-0.35	-0.015616	0.203496	0.981368	0.6075	0.936	-1.5315	0	20	1001	1
2026-02-11	16:06:26.630	1.12	0.14	-0.105	-0.01708	0.20862	0.978684	0.609	0.9375	-1.5375	0	20	1001	1
2026-02-11	16:06:26.650	1.33	0.21	-0.21	-0.013908	0.21228	0.982588	0.6	0.9375	-1.53	0	20	1001	1
2026-02-11	16:06:26.670	0.91	0.035	-0.455	-0.016836	0.216184	0.979172	0.609	0.9315	-1.5435	0	20	1001	1
2026-02-11	16:06:26.690	-0.035	-0.175	-0.595	-0.016592	0.21716	0.97722	0.603	0.939	-1.5345	0	20	1001	1
2026-02-11	16:06:26.710	-0.595	-0.385	-0.7	-0.01586	0.212036	0.976732	0.603	0.939	-1.5375	0	20	1001	1
2026-02-11	16:06:26.730	-0.315	-0.245	-0.7	-0.016348	0.204472	0.98454	0.603	0.939	-1.527	0	20	1001	1
2026-02-11	16:06:26.750	0.63	0.14	-0.42	-0.012688	0.212524	0.978928	0.597	0.9375	-1.5315	0	20	1001	1
2026-02-11	16:06:26.770	0.525	0.105	-0.385	-0.022204	0.214476	0.981612	0.6045	0.945	-1.5225	0	20	1001	1
2026-02-11	16:06:26.790	-0.245	-0.14	-0.595	-0.016592	0.21472	0.982344	0.609	0.939	-1.5315	0	20	1001	1
2026-02-11	16:06:26.810	-0.455	-0.14	-0.56	-0.017324	0.20862	0.978196	0.6045	0.9345	-1.5405	0	18	1001	1
2026-02-11	16:06:26.830	-0.175	-0.07	-0.455	-0.018544	0.212036	0.97966	0.603	0.939	-1.536	0	18	1001	1
2026-02-11	16:06:26.850	0.035	0	-0.49	-0.01586	0.210572	0.97966	0.6045	0.9435	-1.5375	0	18	1001	1
2026-02-11	16:06:26.870	0.07	0	-0.525	-0.016348	0.2135	0.97966	0.606	0.9345	-1.545	0	18	1001	1
2026-02-11	16:06:26.890	-0.105	-0.14	-0.595	-0.01708	0.212524	0.981124	0.597	0.933	-1.5315	0	18	1001	1
2026-02-11	16:06:26.910	-0.315	-0.14	-0.56	-0.015372	0.213744	0.97966	0.6045	0.9345	-1.533	0	18	1001	1
2026-02-11	16:06:26.930	-0.385	-0.105	-0.56	-0.015128	0.20984	0.97722	0.603	0.939	-1.536	0	18	1001	1
2026-02-11	16:06:26.950	-0.28	0	-0.385	-0.016592	0.209352	0.980636	0.6045	0.942	-1.5315	0	18	1001	1
2026-02-11	16:06:26.970	-0.315	0.035	-0.35	-0.011468	0.214964	0.98088	0.603	0.9405	-1.5405	0	18	1001	1
2026-02-11	16:06:26.990	-0.455	0	-0.35	-0.017812	0.20984	0.981612	0.6075	0.9375	-1.542	0	18	1001	1
2026-02-11	16:06:27.010	-0.56	-0.07	-0.455	-0.015128	0.212768	0.984052	0.6015	0.936	-1.545	0	16	1001	1
2026-02-11	16:06:27.030	-0.56	0	-0.42	-0.0183	0.210572	0.981124	0.603	0.9405	-1.5405	0	16	1001	1
2026-02-11	16:06:27.050	-0.315	0.07	-0.42	-0.019276	0.21106	0.978684	0.609	0.9345	-1.5405	0	16	1001	1
2026-02-11	16:06:27.070	-0.14	0.035	-0.42	-0.018056	0.206912	0.981368	0.603	0.9435	-1.5315	0	16	1001	1
2026-02-11	16:06:27.090	-0.21	-0.035	-0.49	-0.018544	0.210328	0.98088	0.603	0.933	-1.542	0	16	1001	1
2026-02-11	16:06:27.110	-0.035	-0.105	-0.42	-0.011468	0.208376	0.979172	0.6015	0.936	-1.5375	0	16	1001	1
2026-02-11	16:06:27.130	0	0	-0.42	-0.015372	0.20984	0.979416	0.606	0.9375	-1.5345	0	16	1001	1
2026-02-11	16:06:27.150	0	0.07	-0.42	-0.018056	0.211304	0.9821	0.6135	0.933	-1.533	0	16	1001	1
2026-02-11	16:06:27.170	-0.14	0.105	-0.385	-0.019764	0.214476	0.984052	0.6075	0.9315	-1.533	0	16	1001	1
2026-02-11	16:06:27.190	-0.245	0	-0.385	-0.016348	0.20862	0.98332	0.6	0.9435	-1.536	0	16	1001	1
2026-02-11	16:06:27.210	-0.175	-0.07	-0.385	-0.019276	0.210816	0.979172	0.606	0.9375	-1.536	0	15	1002	1
2026-02-11	16:06:27.230	0.07	-0.07	-0.42	-0.015128	0.207156	0.978928	0.603	0.9465	-1.5375	0	15	1002	1
2026-02-11	16:06:27.250	0	-0.035	-0.455	-0.016104	0.212524	0.980392	0.5955	0.9375	-1.536	0	15	1002	1
2026-02-11	16:06:27.270	-0.245	0	-0.455	-0.020496	0.207888	0.984784	0.6075	0.9405	-1.5285	0	15	1002	1
2026-02-11	16:06:27.290	-0.63	-0.105	-0.455	-0.015128	0.208864	0.981368	0.609	0.936	-1.527	0	15	1002	1
2026-02-11	16:06:27.310	-0.63	-0.14	-0.455	-0.017324	0.208376	0.981368	0.6105	0.9405	-1.5345	0	15	1002	1
2026-02-11	16:06:27.330	-0.28	0.035	-0.42	-0.017324	0.210084	0.984296	0.6105	0.9405	-1.5345	0	15	1002	1
2026-02-11	16:06:27.350	-0.07	0.105	-0.42	-0.018544	0.209108	0.981856	0.6015	0.945	-1.5405	0	15	1002	1
2026-02-11	16:06:27.370	-0.175	0.035	-0.42	-0.016104	0.2135	0.977708	0.6045	0.9375	-1.542	0	15	1002	1
2026-02-11	16:06:27.390	-0.49	-0.14	-0.455	-0.020008	0.209352	0.983808	0.6075	0.9375	-1.536	0	15	1002	1
2026-02-11	16:06:27.410	-0.735	-0.175	-0.42	-0.015616	0.211304	0.98576	0.606	0.939	-1.5345	0	13	1002	1
2026-02-11	16:06:27.430	-0.385	-0.14	-0.42	-0.015128	0.209108	0.977952	0.6075	0.9375	-1.548	0	13	1002	1
2026-02-11	16:06:27.450	-0.105	0	-0.35	-0.018788	0.210572	0.98576	0.6045	0.93	-1.539	0	13	1002	1
2026-02-11	16:06:27.470	-0.07	0.035	-0.385	-0.020496	0.21228	0.981612	0.609	0.942	-1.5345	0	13	1002	1
2026-02-11	16:06:27.490	-0.175	-0.035	-0.42	-0.016836	0.209352	0.980636	0.603	0.933	-1.536	0	13	1002	1
2026-02-11	16:06:27.510	-0.175	-0.14	-0.49	-0.01708	0.2074	0.976732	0.6075	0.9315	-1.5315	0	13	1002	1
2026-02-11	16:06:27.530	0.07	-0.105	-0.49	-0.015372	0.211548	0.979904	0.6135	0.9375	-1.5495	0	13	1002	1
2026-02-11	16:06:27.550	0.14	0	-0.455	-0.019276	0.212036	0.983564	0.6135	0.9375	-1.5495	0	13	1002	1
2026-02-11	16:06:27.570	-0.14	-0.105	-0.455	-0.015372	0.2135	0.978928	0.606	0.9465	-1.536	0	13	1002	1
2026-02-11	16:06:27.590	-0.35	-0.245	-0.595	-0.016104	0.20496	0.9821	0.6075	0.93	-1.5345	0	13	1002	1
2026-02-11	16:06:27.610	-0.14	-0.14	-0.595	-0.016348	0.205448	0.979416	0.5985	0.9345	-1.536	0	11	1002	1
2026-02-11	16:06:27.630	0.175	0	-0.56	-0.020252	0.211304	0.980148	0.606	0.936	-1.5285	0	11	1002	1
2026-02-11	16:06:27.650	0.14	0	-0.49	-0.018544	0.212524	0.985272	0.5985	0.9375	-1.5375	0	11	1002	1
2026-02-11	16:06:27.670	-0.105	-0.105	-0.42	-0.019032	0.210816	0.981856	0.606	0.936	-1.539	0	11	1002	1
2026-02-11	16:06:27.690	-0.28	-0.105	-0.455	-0.018544	0.207156	0.980392	0.5985	0.939	-1.536	0	11	1002	1
2026-02-11	16:06:27.710	-0.21	-0.035	-0.455	-0.014152	0.208864	0.979904	0.6045	0.9375	-1.5405	0	11	1002	1
2026-02-11	16:06:27.730	-0.21	-0.035	-0.455	-0.015128	0.210328	0.9821	0.6015	0.93	-1.5315	0	11	1002	1
2026-02-11	16:06:27.750	-0.28	-0.07	-0.525	-0.019764	0.209108	0.979904	0.5985	0.933	-1.5345	0	11	1002	1
2026-02-11	16:06:27.770	-0.21	-0.07	-0.525	-0.016592	0.208376	0.98454	0.606	0.93	-1.539	0	11	1002	1
2026-02-11	16:06:27.790	-0.105	0	-0.49	-0.016592	0.210328	0.977708	0.603	0.9405	-1.5345	0	11	1002	1
2026-02-11	16:06:27.810	0	-0.035	-0.49	-0.016592	0.208864	0.977708	0.6045	0.9375	-1.5315	0	10	1003	1
2026-02-11	16:06:27.830	-0.035	-0.105	-0.595	-0.017812	0.208864	0.98088	0.594	0.9285	-1.5315	0	10	1003	1
2026-02-11	16:06:27.850	-0.21	-0.105	-0.595	-0.022448	0.21228	0.974292	0.6	0.936	-1.5405	0	10	1003	1
2026-02-11	16:06:27.870	-0.455	-0.21	-0.56	-0.014396	0.210572	0.981124	0.6	0.9405	-1.536	0	10	1003	1
2026-02-11	16:06:27.890	-0.49	-0.28	-0.595	-0.01586	0.209352	0.987468	0.6075	0.936	-1.539	0	10	1003	1
2026-02-11	16:06:27.910	-0.315	-0.14	-0.56	-0.016836	0.209108	0.978928	0.6015	0.939	-1.5465	0	10	1003	1
2026-02-11	16:06:27.930	-0.315	-0.035	-0.525	-0.014152	0.210816	0.982344	0.612	0.9345	-1.539	0	10	1003	1
2026-02-11	16:06:27.950	-0.525	-0.105	-0.455	-0.015616	0.208864	0.985516	0.609	0.933	-1.5495	0	10	1003	1
2026-02-11	16:06:27.970	-0.385	-0.21	-0.56	-0.016104	0.207888	0.978928	0.609	0.933	-1.5495	0	10	1003	1
2026-02-11	16:06:27.990	-0.07	-0.175	-0.56	-0.013176	0.20618	0.982588	0.6	0.936	-1.5375	0	10	1003	1
2026-02-11	16:06:28.010	0.525	-0.035	-0.455	-0.01586	0.206424	0.981124	0.6075	0.9435	-1.5405	0	9	1003	1
2026-02-11	16:06:28.030	0.63	0.07	-0.315	-0.012688	0.2135	0.978684	0.609	0.9345	-1.5345	0	9	1003	1
2026-02-11	16:06:28.050	0.49	0.21	-0.14	-0.017812	0.211792	0.978684	0.6105	0.942	-1.5495	0	9	1003	1
2026-02-11	16:06:28.070	0.7	0.28	-0.07	-0.014884	0.209108	0.981612	0.6105	0.936	-1.5435	0	9	1003	1
2026-02-11	16:06:28.090	1.12	0.28	-0.035	-0.018544	0.211548	0.981124	0.6	0.9285	-1.536	0	9	1003	1
2026-02-11	16:06:28.110	0.91	0.175	-0.175	-0.016104	0.210572	0.979904	0.603	0.942	-1.539	0	9	1003	1
2026-02-11	16:06:28.130	0.525	0	-0.42	-0.014884	0.211304	0.9821	0.6045	0.942	-1.542	0	9	1003	1
2026-02-11	16:06:28.150	0.21	-0.035	-0.385	-0.016836	0.207888	0.981612	0.603	0.9345	-1.539	0	9	1003	1
2026-02-11	16:06:28.170	-0.175	-0.035	-0.42	-0.016592	0.21228	0.976488	0.6045	0.9345	-1.5375	0	9	1003	1
2026-02-11	16:06:28.190	-0.21	-0.14	-0.455	-0.017324	0.209596	0.982832	0.6045	0.9345	-1.5375	0	9	1003	1
2026-02-11	16:06:28.210	-0.105	-0.14	-0.455	-0.017812	0.207644	0.979904	0.609	0.93	-1.5375	0	8	1003	1
2026-02-11	16:06:28.230	0.175	-0.035	-0.42	-0.01586	0.207644	0.983076	0.6	0.939	-1.5405	0	8	1003	1
2026-02-11	16:06:28.250	0.245	0.035	-0.42	-0.015372	0.211792	0.979172	0.597	0.9435	-1.5345	0	8	1003	1
2026-02-11	16:06:28.270	0.07	0.035	-0.525	-0.017324	0.214232	0.977708	0.5985	0.942	-1.5345	0	8	1003	1
2026-02-11	16:06:28.290	0	-0.07	-0.56	-0.017812	0.21106	0.976244	0.603	0.9345	-1.527	0	8	1003	1
2026-02-11	16:06:28.310	0.14	-0.175	-0.42	-0.01952	0.207644	0.978684	0.615	0.942	-1.5315	0	8	1003	1
2026-02-11	16:06:28.330	0.28	-0.105	-0.315	-0.013176	0.209108	0.981368	0.6	0.9375	-1.5375	0	8	1003	1
2026-02-11	16:06:28.350	0.385	0	-0.385	-0.019032	0.214232	0.976488	0.597	0.939	-1.545	0	8	1003	1
2026-02-11	16:06:28.370	0	0.07	-0.455	-0.017812	0.212036	0.98088	0.606	0.936	-1.5375	0	8	1003	1
2026-02-11	16:06:28.390	-0.735	-0.105	-0.525	-0.01586	0.215208	0.981368	0.606	0.936	-1.5375	0	8	1003	1
2026-02-11	16:06:28.410	-0.42	-0.07	-0.455	-0.018056	0.204228	0.98332	0.606	0.9405	-1.536	0	7	1003	1
2026-02-11	16:06:28.430	0.035	0	-0.35	-0.020496	0.207888	0.98088	0.6	0.9375	-1.536	0	7	1003	1
2026-02-11	16:06:28.450	0.385	0.035	-0.49	-0.020008	0.210572	0.978928	0.606	0.933	-1.5405	0	7	1003	1
2026-02-11	16:06:28.470	0.07	-0.14	-0.63	-0.016836	0.211792	0.981856	0.6075	0.939	-1.5405	0	7	1003	1
2026-02-11	16:06:28.490	-0.14	-0.28	-0.7	-0.016592	0.210084	0.981368	0.606	0.9375	-1.5315	0	7	1003	1
2026-02-11	16:06:28.510	0.07	-0.14	-0.56	-0.01586	0.2074	0.980392	0.6015	0.9345	-1.536	0	7	1003	1
2026-02-11	16:06:28.530	0.7	0	-0.385	-0.016592	0.209352	0.98332	0.5985	0.93	-1.533	0	7	1003	1
2026-02-11	16:06:28.550	1.575	0.28	-0.105	-0.018056	0.204472	0.980148	0.606	0.9345	-1.536	0	7	1003	1
2026-02-11	16:06:28.570	2.03	0.35	0.105	-0.016348	0.211304	0.979416	0.603	0.9375	-1.5315	0	7	1003	1
2026-02-11	16:06:28.590	1.715	0.14	-0.07	-0.01708	0.218624	0.982344	0.612	0.933	-1.533	0	7	1003	1
2026-02-11	16:06:28.610	1.47	-0.035	-0.21	-0.018544	0.204716	0.979416	0.612	0.933	-1.533	0	7	1003	1
2026-02-11	16:06:28.630	2.275	0.035	0.105	-0.01708	0.207156	0.981124	0.597	0.9405	-1.53	0	7	1003	1
2026-02-11	16:06:28.650	2.8	0.245	0.28	-0.016104	0.219356	0.979904	0.609	0.9435	-1.5315	0	7	1003	1
2026-02-11	16:06:28.670	2.03	0.21	-0.07	-0.019276	0.2257	0.979416	0.6105	0.9375	-1.5315	0	7	1003	1
2026-02-11	16:06:28.690	0.385	-0.035	-0.49	-0.017324	0.221796	0.98088	0.609	0.942	-1.527	0	7	1003	1
2026-02-11	16:06:28.710	-0.35	-0.28	-0.63	-0.017324	0.210328	0.982832	0.6	0.9345	-1.527	0	7	1003	1
2026-02-11	16:06:28.730	0.21	-0.14	-0.455	-0.016104	0.208132	0.977708	0.6045	0.936	-1.5345	0	7	1003	1
2026-02-11	16:06:28.750	0.875	0.175	-0.35	-0.02196	0.217648	0.978684	0.603	0.939	-1.527	0	7	1003	1
2026-02-11	16:06:28.770	0.455	0.035	-0.42	-0.020496	0.22326	0.976	0.609	0.9405	-1.5315	0	7	1003	1
2026-02-11	16:06:28.790	-0.525	-0.21	-0.665	-0.020496	0.221308	0.978928	0.606	0.939	-1.5375	0	7	1003	1
2026-02-11	16:06:28.810	-0.945	-0.49	-0.805	-0.013908	0.213744	0.981368	0.606	0.9405	-1.5345	0	6	1003	1
2026-02-11	16:06:28.830	0.035	-0.21	-0.525	-0.016104	0.20984	0.984052	0.606	0.9435	-1.533	0	6	1003	1
2026-02-11	16:06:28.850	0.7	0.035	-0.455	-0.022936	0.217648	0.97966	0.5985	0.9375	-1.527	0	6	1003	1
2026-02-11	16:06:28.870	-0.07	-0.14	-0.665	-0.020496	0.21716	0.977952	0.6	0.936	-1.5285	0	6	1003	1
2026-02-11	16:06:28.890	-0.665	-0.315	-0.805	-0.017324	0.211792	0.977464	0.606	0.927	-1.536	0	6	1003	1
2026-02-11	16:06:28.910	-0.175	-0.245	-0.63	-0.013664	0.207644	0.977952	0.615	0.9375	-1.533	0	6	1003	1
2026-02-11	16:06:28.930	0.735	0	-0.35	-0.015372	0.21594	0.982588	0.606	0.942	-1.536	0	6	1003	1
2026-02-11	16:06:28.950	0.77	0.105	-0.35	-0.017324	0.223992	0.978684	0.609	0.939	-1.5345	0	6	1003	1
2026-02-11	16:06:28.970	-0.175	-0.14	-0.56	-0.016592	0.221552	0.982344	0.606	0.9375	-1.5375	0	6	1003	1
2026-02-11	16:06:28.990	-0.77	-0.385	-0.7	-0.019276	0.207156	0.978684	0.5955	0.9375	-1.536	0	6	1003	1
2026-02-11	16:06:29.010	0.14	-0.28	-0.56	-0.016348	0.204472	0.979904	0.6015	0.9405	-1.5285	0	6	1002	1
2026-02-11	16:06:29.030	0.875	0.105	-0.42	-0.01586	0.225944	0.978684	0.6015	0.9405	-1.5285	0	6	1002	1
2026-02-11	16:06:29.050	-0.105	-0.07	-0.595	-0.018544	0.222528	0.977708	0.6105	0.9405	-1.536	0	6	1002	1
2026-02-11	16:06:29.070	-1.015	-0.21	-0.665	-0.016348	0.2135	0.981612	0.603	0.9345	-1.533	0	6	1002	1
2026-02-11	16:06:29.090	-0.525	0	-0.49	-0.019764	0.206424	0.976976	0.6075	0.939	-1.5285	0	6	1002	1
2026-02-11	16:06:29.110	0.49	0.07	-0.28	-0.016592	0.211304	0.978684	0.6105	0.939	-1.539	0	6	1002	1
2026-02-11	16:06:29.130	0.735	0.105	-0.35	-0.022692	0.215696	0.979904	0.603	0.939	-1.53	0	6	1002	1
2026-02-11	16:06:29.150	0.14	-0.07	-0.49	-0.015372	0.220332	0.977952	0.6015	0.942	-1.5285	0	6	1002	1
2026-02-11	16:06:29.170	-0.525	-0.28	-0.63	-0.019032	0.219356	0.978928	0.609	0.933	-1.5225	0	6	1002	1
2026-02-11	16:06:29.190	-0.77	-0.315	-0.665	-0.015616	0.210816	0.97966	0.6045	0.936	-1.5315	0	6	1002	1
2026-02-11	16:06:29.210	-0.42	-0.14	-0.56	-0.015372	0.212768	0.977952	0.6105	0.9345	-1.53	0	6	1002	1
2026-02-11	16:06:29.230	0.105	0	-0.385	-0.01708	0.21472	0.981124	0.6075	0.9345	-1.5285	0	6	1002	1
2026-02-11	16:06:29.250	0.21	0.035	-0.49	-0.018056	0.208864	0.97966	0.606	0.936	-1.5285	0	6	1002	1
2026-02-11	16:06:29.270	0.84	0.035	-0.49	-0.020984	0.213744	0.97722	0.6045	0.924	-1.5315	0	6	1002	1
2026-02-11	16:06:29.290	1.68	0	-0.42	-0.020008	0.219356	0.981368	0.6	0.9345	-1.53	0	6	1002	1
2026-02-11	16:06:29.310	1.54	0	-0.455	-0.020496	0.221552	0.978196	0.6	0.9435	-1.5315	0	6	1002	1
2026-02-11	16:06:29.330	0.385	-0.105	-0.455	-0.018056	0.224724	0.977952	0.6045	0.93	-1.542	0	6	1002	1
2026-02-11	16:06:29.350	-0.385	-0.35	-0.525	-0.015616	0.216428	0.976244	0.606	0.9375	-1.533	0	6	1002	1
2026-02-11	16:06:29.370	-0.525	-0.105	-0.525	-0.016836	0.213744	0.98454	0.6	0.933	-1.5315	0	6	1002	1
2026-02-11	16:06:29.390	-0.175	0.175	-0.385	-0.01708	0.21594	0.976732	0.6105	0.9375	-1.5315	0	6	1002	1
2026-02-11	16:06:29.410	-0.21	0.175	-0.245	-0.016348	0.21838	0.980636	0.6015	0.9405	-1.5345	0	6	1002	1
2026-02-11	16:06:29.430	-0.595	0.14	-0.315	-0.018544	0.221064	0.979416	0.5955	0.9315	-1.5315	0	6	1002	1
2026-02-11	16:06:29.450	-0.77	0	-0.455	-0.017324	0.214232	0.98332	0.5955	0.9315	-1.5315	0	6	1002	1
2026-02-11	16:06:29.470	-0.665	0	-0.455	-0.018544	0.211304	0.97844	0.5955	0.9315	-1.5315	0	6	1002	1
2026-02-11	16:06:29.490	-0.14	-0.035	-0.42	-0.018544	0.207644	0.980148	0.6075	0.933	-1.533	0	6	1002	1
2026-02-11	16:06:29.510	0.735	0.07	-0.35	-0.017568	0.2135	0.97966	0.6075	0.9315	-1.533	0	6	1002	1
2026-02-11	16:06:29.530	0.91	0.175	-0.385	-0.020008	0.222772	0.980392	0.6015	0.93	-1.5285	0	6	1002	1
2026-02-11	16:06:29.550	0.21	0	-0.49	-0.020984	0.223016	0.975512	0.603	0.933	-1.5285	0	6	1002	1
2026-02-11	16:06:29.570	-0.28	-0.175	-0.525	-0.017324	0.216916	0.978196	0.6075	0.9375	-1.524	0	6	1002	1
2026-02-11	16:06:29.590	0.07	-0.07	-0.455	-0.01708	0.212524	0.986492	0.606	0.9345	-1.5225	0	6	1002	1
2026-02-11	16:06:29.610	0.35	0.105	-0.315	-0.01708	0.221796	0.975512	0.597	0.93	-1.5255	0	6	1002	1
2026-02-11	16:06:29.630	-0.14	-0.07	-0.385	-0.022204	0.220576	0.974536	0.5985	0.936	-1.5225	0	6	1002	1
2026-02-11	16:06:29.650	-1.05	-0.35	-0.56	-0.016104	0.217404	0.984296	0.603	0.936	-1.5225	0	6	1002	1
2026-02-11	16:06:29.670	-1.015	-0.14	-0.525	-0.019276	0.211548	0.978684	0.609	0.936	-1.5225	0	6	1002	1
2026-02-11	16:06:29.690	-0.63	-0.105	-0.455	-0.01586	0.212036	0.978684	0.603	0.93	-1.53	0	6	1002	1
2026-02-11	16:06:29.710	-0.035	0	-0.28	-0.01708	0.21594	0.981856	0.6045	0.933	-1.527	0	6	1002	1
2026-02-11	16:06:29.730	0.175	0.105	-0.28	-0.020496	0.221308	0.977952	0.609	0.942	-1.5315	0	6	1002	1
2026-02-11	16:06:29.750	-0.455	0.035	-0.455	-0.017812	0.21838	0.979172	0.6045	0.939	-1.5345	0	6	1002	1
2026-02-11	16:06:29.770	-0.945	-0.035	-0.49	-0.018788	0.2135	0.983808	0.6015	0.933	-1.527	0	6	1002	1
2026-02-11	16:06:29.790	-0.7	-0.035	-0.385	-0.01586	0.209108	0.980636	0.6135	0.9495	-1.533	0	6	1002	1
2026-02-11	16:06:29.810	-0.175	0	-0.28	-0.017568	0.212524	0.976488	0.609	0.9375	-1.53	0	6	1002	1
2026-02-11	16:06:29.830	0.07	0.07	-0.35	-0.017324	0.216184	0.980392	0.6015	0.9375	-1.533	0	6	1002	1
2026-02-11	16:06:29.850	-0.245	-0.035	-0.525	-0.017568	0.216428	0.984296	0.609	0.9345	-1.5405	0	6	1002	1
2026-02-11	16:06:29.870	-0.525	-0.21	-0.595	-0.014884	0.2135	0.979416	0.6045	0.933	-1.5345	0	6	1002	1
2026-02-11	16:06:29.890	-0.105	-0.245	-0.56	-0.020496	0.210084	0.977952	0.6	0.933	-1.5285	0	6	1002	1
2026-02-11	16:06:29.910	0.385	-0.07	-0.455	-0.015372	0.212524	0.978196	0.6015	0.9345	-1.536	0	6	1002	1
2026-02-11	16:06:29.930	0.455	0.07	-0.42	-0.01586	0.220088	0.979172	0.6105	0.9405	-1.5345	0	6	1002	1
2026-02-11	16:06:29.950	-0.245	-0.035	-0.525	-0.01708	0.219356	0.97966	0.597	0.936	-1.527	0	6	1002	1
2026-02-11	16:06:29.970	-0.665	-0.14	-0.56	-0.015616	0.208132	0.980148	0.606	0.9405	-1.5285	0	6	1002	1
2026-02-11	16:06:29.990	-0.14	0.07	-0.42	-0.015128	0.211304	0.979904	0.612	0.9315	-1.533	0	6	1002	1
2026-02-11	16:06:30.010	0.735	0.28	-0.21	-0.020252	0.217404	0.98088	0.6135	0.9375	-1.5285	0	6	1002	1
2026-02-11	16:06:30.030	0.455	0.21	-0.315	-0.01952	0.221552	0.98088	0.6045	0.9345	-1.5315	0	6	1002	1
2026-02-11	16:06:30.050	-0.385	-0.105	-0.525	-0.019764	0.216916	0.976732	0.5985	0.9255	-1.527	0	6	1002	1
2026-02-11	16:06:30.070	-0.91	-0.28	-0.595	-0.015372	0.213012	0.97966	0.5985	0.9285	-1.5285	0	6	1002	1
2026-02-11	16:06:30.090	-0.525	-0.14	-0.525	-0.0183	0.212524	0.97966	0.5985	0.9315	-1.5315	0	6	1002	1
2026-02-11	16:06:30.110	-0.07	0.035	-0.385	-0.01708	0.21838	0.975756	0.5985	0.9315	-1.5315	0	6	1002	1
2026-02-11	16:06:30.130	-0.245	-0.035	-0.42	-0.020496	0.217404	0.976976	0.6	0.9285	-1.533	0	6	1002	1
2026-02-11	16:06:30.150	-0.455	-0.14	-0.56	-0.016348	0.215696	0.98454	0.6045	0.9315	-1.5285	0	6	1002	1
2026-02-11	16:06:30.170	-0.49	-0.07	-0.595	-0.020496	0.211304	0.980636	0.5985	0.9375	-1.5345	0	6	1002	1
2026-02-11	16:06:30.190	-0.7	-0.14	-0.595	-0.020496	0.217648	0.98088	0.6015	0.936	-1.5255	0	6	1002	1
2026-02-11	16:06:30.210	-1.12	-0.315	-0.665	-0.016592	0.214964	0.978684	0.606	0.939	-1.5345	0	5	1002	1
2026-02-11	16:06:30.230	-1.26	-0.42	-0.735	-0.014152	0.213256	0.977708	0.6045	0.936	-1.536	0	5	1002	1
2026-02-11	16:06:30.250	-0.945	-0.385	-0.7	-0.017812	0.20984	0.981368	0.6015	0.9345	-1.539	0	5	1002	1
2026-02-11	16:06:30.270	-0.315	-0.175	-0.56	-0.015372	0.2135	0.97722	0.6045	0.9315	-1.536	0	5	1002	1
2026-02-11	16:06:30.290	-0.175	-0.035	-0.49	-0.016348	0.21594	0.981368	0.6015	0.93	-1.5315	0	5	1002	1
2026-02-11	16:06:30.310	-0.665	-0.105	-0.49	-0.01952	0.208864	0.982588	0.6	0.93	-1.5285	0	5	1002	1
2026-02-11	16:06:30.330	-0.245	-0.035	-0.385	-0.016348	0.209596	0.979172	0.6015	0.924	-1.533	0	5	1002	1
2026-02-11	16:06:30.350	0.385	0.035	-0.315	-0.015372	0.213256	0.977708	0.6045	0.9345	-1.5285	0	5	1002	1
2026-02-11	16:06:30.370	0.42	0.07	-0.42	-0.015372	0.21838	0.97966	0.6075	0.939	-1.5285	0	5	1002	1
2026-02-11	16:06:30.390	-0.105	-0.035	-0.595	-0.018788	0.216916	0.981124	0.6045	0.9285	-1.536	0	5	1002	1
2026-02-11	16:06:30.410	-0.525	-0.21	-0.63	-0.0183	0.216428	0.978196	0.609	0.9375	-1.5345	0	5	1002	1
2026-02-11	16:06:30.430	-0.56	-0.28	-0.595	-0.015616	0.210328	0.97844	0.609	0.939	-1.5315	0	5	1002	1
2026-02-11	16:06:30.450	-0.175	-0.14	-0.56	-0.01586	0.210328	0.976732	0.6015	0.945	-1.533	0	5	1002	1
2026-02-11	16:06:30.470	0	0	-0.49	-0.020008	0.2135	0.980392	0.6165	0.933	-1.536	0	5	1002	1
2026-02-11	16:06:30.490	-0.21	-0.07	-0.525	-0.018788	0.215208	0.9821	0.6135	0.936	-1.533	0	5	1002	1
2026-02-11	16:06:30.510	-0.42	-0.14	-0.49	-0.017812	0.210816	0.978684	0.606	0.9375	-1.5315	0	5	1002	1
2026-02-11	16:06:30.530	0	-0.07	-0.42	-0.020008	0.208864	0.980392	0.603	0.9345	-1.5315	0	5	1002	1
2026-02-11	16:06:30.550	0.385	0.035	-0.385	-0.01952	0.213988	0.982344	0.597	0.936	-1.536	0	5	1002	1
2026-02-11	16:06:30.570	0.28	0.07	-0.42	-0.019276	0.21472	0.980392	0.609	0.9375	-1.5375	0	5	1002	1
2026-02-11	16:06:30.590	-0.35	-0.07	-0.49	-0.016348	0.214232	0.981368	0.6135	0.936	-1.533	0	5	1002	1
2026-02-11	16:06:30.610	-0.455	-0.245	-0.56	-0.01586	0.210572	0.979416	0.609	0.936	-1.5345	0	5	1002	1
2026-02-11	16:06:30.630	-0.07	-0.035	-0.455	-0.017324	0.212768	0.980392	0.6015	0.942	-1.5315	0	5	1002	1
2026-02-11	16:06:30.650	0.035	0	-0.385	-0.0183	0.213256	0.980392	0.594	0.933	-1.524	0	5	1002	1
2026-02-11	16:06:30.670	-0.105	-0.035	-0.42	-0.0183	0.214964	0.980392	0.6015	0.936	-1.5315	0	5	1002	1
2026-02-11	16:06:30.690	-0.28	-0.14	-0.49	-0.015616	0.211792	0.981368	0.597	0.9255	-1.53	0	5	1002	1
2026-02-11	16:06:30.710	-0.07	-0.14	-0.49	-0.0183	0.213256	0.980392	0.6	0.933	-1.5345	0	5	1002	1
2026-02-11	16:06:30.730	0.245	-0.035	-0.455	-0.014884	0.213012	0.980392	0.603	0.9405	-1.539	0	5	1002	1
2026-02-11	16:06:30.750	0.245	0	-0.455	-0.018544	0.213744	0.981856	0.603	0.9405	-1.539	0	5	1002	1
2026-02-11	16:06:30.770	-0.105	-0.035	-0.56	-0.018788	0.21228	0.97844	0.606	0.936	-1.5375	0	5	1002	1
2026-02-11	16:06:30.790	-0.35	-0.14	-0.525	-0.020496	0.214476	0.979172	0.6	0.9375	-1.5375	0	5	1002	1
2026-02-11	16:06:30.810	-0.21	-0.14	-0.56	-0.0183	0.208376	0.981856	0.6045	0.9345	-1.5345	0	5	1002	1
2026-02-11	16:06:30.830	0.21	-0.035	-0.455	-0.017568	0.211792	0.979904	0.6045	0.933	-1.533	0	5	1002	1
2026-02-11	16:06:30.850	0.245	0	-0.42	-0.018056	0.218136	0.98088	0.6015	0.9375	-1.5465	0	5	1002	1
2026-02-11	16:06:30.870	-0.07	-0.105	-0.56	-0.0183	0.214476	0.980392	0.606	0.9405	-1.536	0	5	1002	1
2026-02-11	16:06:30.890	-0.245	-0.175	-0.56	-0.013908	0.212768	0.9821	0.6075	0.9375	-1.533	0	5	1002	1
2026-02-11	16:06:30.910	-0.035	-0.14	-0.525	-0.012932	0.213744	0.978684	0.606	0.942	-1.536	0	5	1002	1
2026-02-11	16:06:30.930	0.28	0	-0.42	-0.015128	0.214476	0.976	0.6075	0.945	-1.5405	0	5	1002	1
2026-02-11	16:06:30.950	0.28	0	-0.455	-0.016836	0.215696	0.982344	0.6105	0.9435	-1.542	0	5	1002	1
2026-02-11	16:06:30.970	0.07	-0.07	-0.525	-0.016104	0.214964	0.982588	0.6105	0.9435	-1.542	0	5	1002	1
2026-02-11	16:06:30.990	0	-0.14	-0.525	-0.020984	0.209352	0.976976	0.606	0.939	-1.5285	0	5	1002	1
2026-02-11	16:06:31.010	-0.105	-0.14	-0.525	-0.016348	0.214476	0.977708	0.6	0.9405	-1.533	0	5	1002	1
2026-02-11	16:06:31.030	0	-0.035	-0.525	-0.0183	0.21472	0.980392	0.6075	0.9405	-1.53	0	5	1002	1
2026-02-11	16:06:31.050	0.21	-0.07	-0.49	-0.017568	0.212036	0.981856	0.603	0.942	-1.527	0	5	1002	1
2026-02-11	16:06:31.070	0.175	-0.14	-0.49	-0.018544	0.211548	0.980636	0.606	0.9285	-1.527	0	5	1002	1
2026-02-11	16:06:31.090	0.175	-0.245	-0.56	-0.01464	0.214232	0.981124	0.606	0.933	-1.533	0	5	1002	1
2026-02-11	16:06:31.110	0.21	-0.175	-0.56	-0.017568	0.21594	0.980148	0.6015	0.9315	-1.539	0	5	1002	1
2026-02-11	16:06:31.130	0	-0.035	-0.595	-0.0183	0.215208	0.985272	0.6045	0.9345	-1.5375	0	5	1002	1
2026-02-11	16:06:31.150	0	0	-0.455	-0.014884	0.213744	0.976244	0.609	0.9345	-1.5345	0	5	1002	1
2026-02-11	16:06:31.170	0.245	0.14	-0.28	-0.020496	0.218624	0.982832	0.612	0.9315	-1.5345	0	5	1002	1
2026-02-11	16:06:31.190	0.07	0.035	-0.42	-0.020496	0.215452	0.984784	0.606	0.933	-1.53	0	5	1002	1
2026-02-11	16:06:31.210	-0.28	-0.14	-0.455	-0.018788	0.213256	0.981612	0.609	0.9285	-1.536	0	4	1002	1
2026-02-11	16:06:31.230	-0.28	-0.245	-0.56	-0.013664	0.21106	0.97844	0.6045	0.942	-1.5255	0	4	1002	1
2026-02-11	16:06:31.250	0.07	-0.245	-0.63	-0.01342	0.212524	0.979172	0.606	0.9375	-1.5315	0	4	1002	1
2026-02-11	16:06:31.270	0.525	-0.105	-0.455	-0.01952	0.215696	0.979416	0.6	0.942	-1.539	0	4	1002	1
2026-02-11	16:06:31.290	0.315	-0.035	-0.385	-0.019764	0.21716	0.981124	0.606	0.9375	-1.545	0	4	1002	1
2026-02-11	16:06:31.310	-0.035	-0.07	-0.525	-0.016348	0.218136	0.98088	0.606	0.9345	-1.5345	0	4	1002	1
2026-02-11	16:06:31.330	-0.105	-0.07	-0.525	-0.017568	0.211304	0.978928	0.6045	0.933	-1.5345	0	4	1002	1
2026-02-11	16:06:31.350	0	0.035	-0.49	-0.018788	0.212768	0.979904	0.6	0.93	-1.5345	0	4	1002	1
2026-02-11	16:06:31.370	0.245	0.07	-0.42	-0.014884	0.210328	0.981856	0.597	0.93	-1.5345	0	4	1002	1
2026-02-11	16:06:31.390	0.35	0	-0.315	-0.01464	0.21716	0.983808	0.597	0.93	-1.5345	0	4	1002	1
2026-02-11	16:06:31.410	0.105	-0.105	-0.525	-0.018788	0.215696	0.98088	0.6045	0.9375	-1.5405	0	4	1002	1
2026-02-11	16:06:31.430	-0.07	-0.245	-0.63	-0.012688	0.211548	0.977464	0.606	0.9465	-1.5345	0	4	1002	1
2026-02-11	16:06:31.450	0.035	-0.07	-0.63	-0.016836	0.213988	0.98332	0.6015	0.9375	-1.533	0	4	1002	1
2026-02-11	16:06:31.470	0.07	0.07	-0.49	-0.015128	0.215696	0.976244	0.6045	0.9375	-1.533	0	4	1002	1
2026-02-11	16:06:31.490	0	0.07	-0.42	-0.01952	0.213744	0.981612	0.6015	0.9375	-1.533	0	4	1002	1
2026-02-11	16:06:31.510	-0.105	-0.105	-0.455	-0.019276	0.212036	0.978928	0.6015	0.9315	-1.539	0	4	1002	1
2026-02-11	16:06:31.530	0	-0.14	-0.56	-0.017812	0.212036	0.978928	0.603	0.936	-1.5255	0	4	1002	1
2026-02-11	16:06:31.550	0.14	-0.105	-0.63	-0.012932	0.213012	0.97966	0.597	0.936	-1.5225	0	4	1002	1
2026-02-11	16:06:31.570	0.14	-0.07	-0.665	-0.013908	0.217648	0.977708	0.5955	0.9375	-1.527	0	4	1002	1
2026-02-11	16:06:31.590	0.105	-0.035	-0.525	-0.01708	0.213988	0.979172	0.6015	0.939	-1.533	0	4	1002	1
2026-02-11	16:06:31.610	0.175	0	-0.455	-0.0183	0.215696	0.976244	0.6015	0.939	-1.533	0	4	1002	1
2026-02-11	16:06:31.630	-0.07	-0.035	-0.49	-0.019032	0.21838	0.978684	0.603	0.93	-1.5255	0	4	1002	1
2026-02-11	16:06:31.650	-0.385	-0.07	-0.525	-0.018056	0.212036	0.976	0.603	0.936	-1.53	0	4	1002	1
2026-02-11	16:06:31.670	-0.175	0	-0.42	-0.015616	0.211548	0.98088	0.6135	0.9435	-1.5255	0	4	1002	1
2026-02-11	16:06:31.690	-0.07	0.14	-0.315	-0.01464	0.214964	0.990884	0.603	0.939	-1.536	0	4	1002	1
2026-02-11	16:06:31.710	-0.28	0.14	-0.245	-0.018544	0.218624	0.97234	0.609	0.9405	-1.5405	0	4	1002	1
2026-02-11	16:06:31.730	-0.7	-0.07	-0.35	-0.014396	0.212768	0.986736	0.6075	0.942	-1.5405	0	4	1002	1
2026-02-11	16:06:31.750	-0.455	-0.035	-0.455	-0.014396	0.214964	0.97844	0.606	0.9435	-1.5405	0	4	1002	1
2026-02-11	16:06:31.770	-0.175	0.07	-0.28	-0.016104	0.213012	0.976732	0.6045	0.945	-1.536	0	4	1002	1
2026-02-11	16:06:31.790	-0.175	0	-0.385	-0.020008	0.214476	0.978684	0.606	0.942	-1.5315	0	4	1002	1
2026-02-11	16:06:31.810	-0.21	0	-0.42	-0.019276	0.20984	0.983808	0.609	0.9405	-1.533	0	4	1002	1
2026-02-11	16:06:31.830	-0.175	-0.035	-0.385	-0.016836	0.213256	0.972096	0.6015	0.9315	-1.5375	0	4	1002	1
2026-02-11	16:06:31.850	0	-0.14	-0.525	-0.017568	0.2135	0.977952	0.6	0.9345	-1.533	0	4	1002	1
2026-02-11	16:06:31.870	0.14	-0.07	-0.525	-0.01342	0.214232	0.976976	0.6	0.93	-1.524	0	4	1002	1
2026-02-11	16:06:31.890	0.14	0	-0.49	-0.01708	0.21594	0.985516	0.6015	0.933	-1.5345	0	4	1002	1
2026-02-11	16:06:31.910	-0.07	-0.07	-0.49	-0.017568	0.213988	0.978928	0.6045	0.9345	-1.5255	0	4	1002	1
2026-02-11	16:06:31.930	-0.175	-0.105	-0.385	-0.01586	0.210328	0.982344	0.6165	0.936	-1.533	0	4	1002	1
2026-02-11	16:06:31.950	-0.105	-0.07	-0.455	-0.01464	0.21594	0.977464	0.6015	0.939	-1.5345	0	4	1002	1
2026-02-11	16:06:31.970	-0.245	0	-0.49	-0.017812	0.214476	0.983564	0.6015	0.939	-1.533	0	4	1002	1
2026-02-11	16:06:31.990	-0.385	0	-0.455	-0.016104	0.214476	0.980148	0.6	0.9405	-1.536	0	4	1002	1
2026-02-11	16:06:32.010	-0.455	-0.07	-0.42	-0.018056	0.211792	0.98088	0.6	0.9435	-1.5405	0	4	1002	1
2026-02-11	16:06:32.030	-0.385	-0.105	-0.49	-0.01952	0.210572	0.975756	0.6	0.9435	-1.5405	0	4	1002	1
2026-02-11	16:06:32.050	-0.28	-0.07	-0.49	-0.015128	0.214964	0.982344	0.6075	0.936	-1.5405	0	4	1002	1
2026-02-11	16:06:32.070	-0.21	0.035	-0.455	-0.020252	0.215696	0.979416	0.606	0.936	-1.536	0	4	1002	1
2026-02-11	16:06:32.090	-0.245	0	-0.35	-0.0183	0.21472	0.981612	0.606	0.9375	-1.533	0	4	1002	1
2026-02-11	16:06:32.110	-0.315	-0.035	-0.35	-0.01586	0.21228	0.976488	0.6	0.9435	-1.5285	0	4	1002	1
2026-02-11	16:06:32.130	-0.245	0	-0.455	-0.015616	0.210572	0.979904	0.606	0.942	-1.5285	0	4	1002	1
2026-02-11	16:06:32.150	-0.035	-0.035	-0.42	-0.017324	0.214964	0.981368	0.6	0.93	-1.533	0	4	1002	1
2026-02-11	16:06:32.170	0.14	-0.07	-0.49	-0.0183	0.21472	0.977708	0.5985	0.9345	-1.536	0	4	1002	1
2026-02-11	16:06:32.190	0.07	-0.14	-0.525	-0.020984	0.2135	0.983808	0.6015	0.939	-1.5375	0	4	1002	1
2026-02-11	16:06:32.210	0.105	-0.105	-0.49	-0.015372	0.215208	0.980636	0.603	0.936	-1.53	0	4	1002	1
2026-02-11	16:06:32.230	-0.315	-0.07	-0.49	-0.015616	0.211792	0.976244	0.6015	0.933	-1.5255	0	4	1002	1
2026-02-11	16:06:32.250	-0.21	-0.035	-0.42	-0.018544	0.20984	0.979172	0.6015	0.933	-1.5255	0	4	1002	1
2026-02-11	16:06:32.270	0.21	0.175	-0.35	-0.015372	0.2135	0.980636	0.6	0.9345	-1.527	0	4	1002	1
2026-02-11	16:06:32.290	0.14	0.175	-0.315	-0.018788	0.215208	0.978684	0.6045	0.9375	-1.527	0	4	1002	1
2026-02-11	16:06:32.310	-0.28	-0.07	-0.49	-0.016836	0.21472	0.975024	0.594	0.9345	-1.5315	0	4	1002	1
2026-02-11	16:06:32.330	-0.49	-0.21	-0.56	-0.01708	0.210572	0.98332	0.5985	0.936	-1.53	0	4	1002	1
2026-02-11	16:06:32.350	-0.175	-0.105	-0.49	-0.016836	0.211304	0.977952	0.615	0.933	-1.533	0	4	1002	1
2026-02-11	16:06:32.370	0.07	0	-0.35	-0.015616	0.214476	0.977952	0.6105	0.9375	-1.5375	0	4	1002	1
2026-02-11	16:06:32.390	-0.07	-0.035	-0.35	-0.020252	0.215696	0.983076	0.606	0.939	-1.536	0	4	1002	1
2026-02-11	16:06:32.410	-0.245	-0.07	-0.42	-0.01708	0.213012	0.981612	0.6045	0.9345	-1.5345	0	4	1002	1
2026-02-11	16:06:32.430	-0.21	-0.14	-0.455	-0.017324	0.20862	0.978196	0.6075	0.9315	-1.5375	0	4	1002	1
2026-02-11	16:06:32.450	-0.035	0	-0.525	-0.016104	0.21106	0.983076	0.606	0.936	-1.542	0	4	1002	1
2026-02-11	16:06:32.470	0.07	0.035	-0.42	-0.018056	0.209596	0.98088	0.606	0.933	-1.533	0	4	1002	1
2026-02-11	16:06:32.490	0.07	0	-0.315	-0.0183	0.219112	0.980392	0.6045	0.9375	-1.5315	0	4	1002	1
2026-02-11	16:06:32.510	-0.21	-0.245	-0.42	-0.01586	0.214232	0.975024	0.606	0.939	-1.5375	0	4	1002	1
2026-02-11	16:06:32.530	-0.21	-0.21	-0.525	-0.016104	0.209596	0.978928	0.612	0.9345	-1.5315	0	4	1002	1
2026-02-11	16:06:32.550	0	-0.035	-0.49	-0.015372	0.212524	0.98088	0.6045	0.9375	-1.5315	0	4	1002	1
2026-02-11	16:06:32.570	0.035	0	-0.49	-0.02196	0.211792	0.984052	0.609	0.939	-1.5285	0	4	1002	1
2026-02-11	16:06:32.590	-0.07	0	-0.42	-0.0183	0.214232	0.978196	0.6075	0.936	-1.53	0	4	1002	1
2026-02-11	16:06:32.610	-0.105	-0.035	-0.35	-0.018056	0.21594	0.977708	0.6015	0.933	-1.53	0	4	1002	1
2026-02-11	16:06:32.630	-0.035	-0.07	-0.49	-0.01708	0.213988	0.980392	0.603	0.9345	-1.5345	0	4	1002	1
2026-02-11	16:06:32.650	0	-0.105	-0.525	-0.016592	0.21594	0.981856	0.6045	0.9345	-1.539	0	4	1002	1
2026-02-11	16:06:32.670	-0.035	-0.105	-0.525	-0.019032	0.216184	0.981368	0.6	0.933	-1.539	0	4	1002	1
2026-02-11	16:06:32.690	0.07	-0.07	-0.525	-0.018788	0.213988	0.984052	0.6165	0.9285	-1.5315	0	4	1002	1
2026-02-11	16:06:32.710	0.07	-0.035	-0.455	-0.019276	0.217892	0.97722	0.6045	0.9375	-1.5345	0	4	1002	1
2026-02-11	16:06:32.730	-0.14	-0.07	-0.525	-0.022448	0.213256	0.977708	0.609	0.93	-1.5315	0	4	1002	1
2026-02-11	16:06:32.750	-0.385	-0.175	-0.455	-0.014884	0.213988	0.978684	0.6	0.927	-1.533	0	4	1002	1
2026-02-11	16:06:32.770	-0.175	-0.07	-0.42	-0.0183	0.2074	0.982832	0.6105	0.9195	-1.5285	0	4	1002	1
2026-02-11	16:06:32.790	0	0	-0.455	-0.018544	0.212768	0.97966	0.609	0.939	-1.542	0	4	1002	1
2026-02-11	16:06:32.810	-0.105	-0.105	-0.455	-0.016836	0.212768	0.97722	0.6045	0.939	-1.539	0	4	1002	1
2026-02-11	16:06:32.830	-0.35	-0.105	-0.49	-0.019032	0.213744	0.980392	0.603	0.939	-1.5375	0	4	1002	1
2026-02-11	16:06:32.850	-0.525	-0.14	-0.49	-0.019764	0.211792	0.983564	0.603	0.9375	-1.5405	0	4	1002	1
2026-02-11	16:06:32.870	-0.35	-0.035	-0.455	-0.0183	0.210816	0.976244	0.6015	0.9375	-1.5405	0	4	1002	1
2026-02-11	16:06:32.890	-0.035	-0.07	-0.42	-0.018788	0.20862	0.98454	0.6015	0.9375	-1.5405	0	4	1002	1
2026-02-11	16:06:32.910	0.07	0.035	-0.42	-0.019276	0.213988	0.982344	0.609	0.9375	-1.5255	0	4	1002	1
2026-02-11	16:06:32.930	-0.07	0.035	-0.385	-0.0183	0.214476	0.98332	0.606	0.9315	-1.536	0	4	1002	1
2026-02-11	16:06:32.950	-0.28	-0.105	-0.455	-0.018056	0.213988	0.976732	0.6045	0.93	-1.524	0	4	1002	1
2026-02-11	16:06:32.970	-0.21	-0.14	-0.49	-0.014152	0.211548	0.980148	0.6045	0.933	-1.5375	0	4	1002	1
2026-02-11	16:06:32.990	0.07	-0.07	-0.56	-0.016104	0.211304	0.984296	0.6045	0.9315	-1.524	0	4	1002	1
2026-02-11	16:06:33.010	0.035	0	-0.455	-0.019032	0.213012	0.978684	0.603	0.9315	-1.5255	0	4	1002	1
2026-02-11	16:06:33.030	-0.07	-0.105	-0.49	-0.015616	0.209108	0.981124	0.603	0.933	-1.5285	0	4	1002	1
2026-02-11	16:06:33.050	-0.035	-0.105	-0.49	-0.015616	0.213744	0.97966	0.6045	0.936	-1.53	0	4	1002	1
2026-02-11	16:06:33.070	0	-0.07	-0.525	-0.01708	0.2135	0.97844	0.603	0.936	-1.53	0	4	1002	1
2026-02-11	16:06:33.090	-0.175	-0.14	-0.525	-0.019276	0.213012	0.98332	0.603	0.933	-1.53	0	4	1002	1
2026-02-11	16:06:33.110	-0.105	-0.14	-0.525	-0.015616	0.212768	0.978684	0.6	0.936	-1.5255	0	4	1002	1
2026-02-11	16:06:33.130	0.105	0	-0.42	-0.018544	0.21106	0.983076	0.6075	0.9255	-1.536	0	4	1002	1
2026-02-11	16:06:33.150	0.245	0.07	-0.385	-0.019032	0.210572	0.978684	0.612	0.933	-1.539	0	4	1002	1
2026-02-11	16:06:33.170	0.035	0.035	-0.42	-0.0183	0.212036	0.976976	0.606	0.942	-1.542	0	4	1002	1
2026-02-11	16:06:33.190	-0.21	-0.07	-0.49	-0.018544	0.214232	0.978684	0.597	0.9495	-1.5345	0	4	1002	1
2026-02-11	16:06:33.210	-0.245	-0.035	-0.49	-0.020496	0.213012	0.981124	0.606	0.93	-1.5345	0	4	1002	1
2026-02-11	16:06:33.230	-0.035	0	-0.35	-0.016348	0.206912	0.98088	0.603	0.9345	-1.536	0	4	1002	1
2026-02-11	16:06:33.250	0.315	0.035	-0.35	-0.01586	0.21228	0.979416	0.603	0.936	-1.5375	0	4	1002	1
2026-02-11	16:06:33.270	0.21	-0.035	-0.525	-0.01464	0.21472	0.979172	0.606	0.9345	-1.539	0	4	1002	1
2026-02-11	16:06:33.290	-0.035	-0.14	-0.525	-0.014152	0.21472	0.977464	0.6105	0.9375	-1.539	0	4	1002	1
2026-02-11	16:06:33.310	0.035	-0.14	-0.525	-0.01708	0.210084	0.980392	0.6135	0.939	-1.539	0	4	1002	1
2026-02-11	16:06:33.330	0.245	-0.07	-0.455	-0.0183	0.2074	0.979416	0.609	0.939	-1.5315	0	4	1002	1
2026-02-11	16:06:33.350	0.42	0.07	-0.455	-0.01342	0.21106	0.981368	0.6	0.9435	-1.5315	0	4	1002	1
2026-02-11	16:06:33.370	0.315	0.035	-0.49	-0.019276	0.21594	0.979416	0.6105	0.9405	-1.5345	0	4	1002	1
2026-02-11	16:06:33.390	-0.07	-0.14	-0.525	-0.016104	0.212036	0.977708	0.603	0.9345	-1.539	0	4	1002	1
2026-02-11	16:06:33.410	0	-0.175	-0.525	-0.019032	0.207644	0.980636	0.603	0.936	-1.539	0	4	1002	1
2026-02-11	16:06:33.430	0.175	-0.07	-0.49	-0.016836	0.21228	0.979416	0.603	0.9345	-1.5375	0	4	1002	1
2026-02-11	16:06:33.450	0.175	-0.07	-0.455	-0.017324	0.217404	0.978928	0.603	0.9345	-1.5375	0	4	1002	1
2026-02-11	16:06:33.470	-0.315	-0.175	-0.49	-0.016348	0.212036	0.97966	0.6	0.939	-1.536	0	4	1002	1
2026-02-11	16:06:33.490	-0.315	-0.175	-0.455	-0.019764	0.210816	0.977952	0.603	0.9405	-1.533	0	4	1002	1
2026-02-11	16:06:33.510	0.21	0.035	-0.385	-0.016348	0.214476	0.979172	0.609	0.9405	-1.533	0	4	1002	1
2026-02-11	16:06:33.530	0.315	0.07	-0.42	-0.01708	0.213256	0.97844	0.609	0.9405	-1.533	0	4	1002	1
2026-02-11	16:06:33.550	0.21	0.105	-0.42	-0.018544	0.210816	0.977708	0.6045	0.933	-1.539	0	4	1002	1
2026-02-11	16:06:33.570	0.14	0.035	-0.42	-0.015128	0.214232	0.982344	0.6045	0.9435	-1.536	0	4	1002	1
2026-02-11	16:06:33.590	0.07	-0.105	-0.455	-0.018788	0.213988	0.978684	0.612	0.936	-1.5345	0	4	1002	1
2026-02-11	16:06:33.610	0	-0.28	-0.525	-0.01586	0.2135	0.977952	0.6135	0.9345	-1.5375	0	4	1002	1
2026-02-11	16:06:33.630	0.175	-0.21	-0.595	-0.014152	0.211304	0.982344	0.606	0.9405	-1.533	0	4	1002	1
2026-02-11	16:06:33.650	0.525	0	-0.49	-0.017324	0.215208	0.982832	0.6075	0.936	-1.5315	0	4	1002	1
2026-02-11	16:06:33.670	0.525	0.035	-0.455	-0.018788	0.220088	0.976732	0.606	0.936	-1.5315	0	4	1002	1
2026-02-11	16:06:33.690	0.14	-0.105	-0.49	-0.016348	0.212768	0.978928	0.6015	0.939	-1.53	0	4	1002	1
2026-02-11	16:06:33.710	-0.105	-0.21	-0.525	-0.018544	0.211548	0.981124	0.6015	0.9375	-1.5255	0	4	1002	1
2026-02-11	16:06:33.730	-0.035	-0.175	-0.56	-0.01708	0.211792	0.976976	0.603	0.936	-1.5255	0	4	1002	1
2026-02-11	16:06:33.750	0.175	-0.14	-0.595	-0.016348	0.212768	0.977464	0.6075	0.9315	-1.5375	0	4	1002	1
2026-02-11	16:06:33.770	0.385	-0.105	-0.56	-0.01708	0.213256	0.981368	0.6075	0.933	-1.5375	0	4	1002	1
2026-02-11	16:06:33.790	0.56	0	-0.49	-0.01464	0.212768	0.97722	0.6045	0.9435	-1.527	0	4	1002	1
2026-02-11	16:06:33.810	0.42	0	-0.455	-0.015128	0.221064	0.980636	0.6045	0.9345	-1.53	0	4	1002	1
2026-02-11	16:06:33.830	-0.035	-0.105	-0.525	-0.018544	0.215696	0.980636	0.612	0.936	-1.536	0	4	1002	1
2026-02-11	16:06:33.850	-0.245	-0.14	-0.525	-0.018544	0.213988	0.976488	0.606	0.942	-1.5345	0	4	1002	1
2026-02-11	16:06:33.870	0.14	-0.035	-0.42	-0.018056	0.210328	0.97844	0.6045	0.9375	-1.536	0	4	1002	1
2026-02-11	16:06:33.890	0.385	0	-0.42	-0.017324	0.217892	0.97966	0.606	0.9345	-1.539	0	4	1002	1
2026-02-11	16:06:33.910	0.245	0	-0.42	-0.016836	0.21716	0.981124	0.6075	0.9345	-1.536	0	4	1002	1
2026-02-11	16:06:33.930	-0.175	-0.105	-0.56	-0.016592	0.212524	0.982344	0.606	0.936	-1.527	0	4	1002	1
2026-02-11	16:06:33.950	-0.28	-0.14	-0.525	-0.016348	0.216184	0.978928	0.6045	0.9375	-1.5225	0	4	1002	1
2026-02-11	16:06:33.970	0.07	-0.035	-0.455	-0.017568	0.213012	0.979904	0.603	0.9285	-1.536	0	4	1002	1
2026-02-11	16:06:33.990	0.315	0	-0.35	-0.015616	0.21594	0.981124	0.6135	0.933	-1.533	0	4	1002	1
2026-02-11	16:06:34.010	0.35	0.07	-0.42	-0.019276	0.214964	0.97844	0.606	0.9315	-1.5375	0	4	1002	1
2026-02-11	16:06:34.030	0.105	0.035	-0.525	-0.0183	0.216672	0.976488	0.606	0.9465	-1.542	0	4	1002	1
2026-02-11	16:06:34.050	-0.07	-0.035	-0.525	-0.016836	0.213012	0.980392	0.606	0.933	-1.5405	0	4	1002	1
2026-02-11	16:06:34.070	0.07	-0.105	-0.56	-0.019276	0.213988	0.978684	0.606	0.933	-1.536	0	4	1002	1
2026-02-11	16:06:34.090	0.175	-0.07	-0.525	-0.015372	0.213012	0.977464	0.603	0.936	-1.5345	0	4	1002	1
2026-02-11	16:06:34.110	0.175	0	-0.49	-0.020496	0.218624	0.982344	0.5985	0.9345	-1.539	0	4	1002	1
2026-02-11	16:06:34.130	0	-0.035	-0.455	-0.01708	0.21594	0.978928	0.6045	0.933	-1.5375	0	4	1002	1
2026-02-11	16:06:34.150	-0.21	-0.035	-0.455	-0.019764	0.216672	0.97844	0.612	0.9345	-1.536	0	4	1002	1
2026-02-11	16:06:34.170	-0.245	0	-0.455	-0.017568	0.216184	0.98088	0.612	0.9345	-1.536	0	4	1002	1
2026-02-11	16:06:34.190	-0.245	0.07	-0.385	-0.018544	0.214476	0.980636	0.6015	0.936	-1.5345	0	4	1002	1
2026-02-11	16:06:34.210	-0.385	0	-0.42	-0.013664	0.212036	0.978928	0.609	0.9405	-1.5405	0	3	1002	1
2026-02-11	16:06:34.230	-0.385	-0.07	-0.42	-0.018544	0.2135	0.980392	0.6075	0.933	-1.53	0	3	1002	1
2026-02-11	16:06:34.250	-0.21	0	-0.455	-0.017324	0.213256	0.979904	0.6105	0.9345	-1.5345	0	3	1002	1
2026-02-11	16:06:34.270	-0.35	-0.07	-0.49	-0.020984	0.215208	0.976976	0.6075	0.936	-1.5375	0	3	1002	1
2026-02-11	16:06:34.290	-0.35	-0.14	-0.455	-0.017324	0.212768	0.978684	0.6015	0.9405	-1.536	0	3	1002	1
2026-02-11	16:06:34.310	-0.07	-0.07	-0.35	-0.016592	0.213988	0.97844	0.603	0.9375	-1.536	0	3	1002	1
2026-02-11	16:06:34.330	-0.035	0.035	-0.385	-0.017812	0.212524	0.980148	0.6	0.93	-1.533	0	3	1002	1
2026-02-11	16:06:34.350	-0.21	0.105	-0.35	-0.020252	0.216672	0.982832	0.6015	0.93	-1.53	0	3	1002	1
2026-02-11	16:06:34.370	-0.49	0	-0.42	-0.0183	0.210572	0.977464	0.6135	0.9315	-1.53	0	3	1002	1
2026-02-11	16:06:34.390	-0.28	-0.07	-0.42	-0.013176	0.211548	0.98088	0.6135	0.9375	-1.539	0	3	1002	1
2026-02-11	16:06:34.410	-0.035	0	-0.42	-0.017568	0.2135	0.979416	0.606	0.9345	-1.536	0	3	1002	1
2026-02-11	16:06:34.430	-0.14	0	-0.35	-0.018056	0.214476	0.983076	0.603	0.933	-1.533	0	3	1002	1
2026-02-11	16:06:34.450	-0.525	-0.105	-0.385	-0.01708	0.2135	0.981368	0.6015	0.9315	-1.5315	0	3	1002	1
2026-02-11	16:06:34.470	-0.665	-0.14	-0.42	-0.01342	0.209352	0.976976	0.5985	0.936	-1.527	0	3	1002	1
2026-02-11	16:06:34.490	-0.595	-0.14	-0.455	-0.019276	0.21106	0.974536	0.603	0.939	-1.53	0	3	1002	1
2026-02-11	16:06:34.510	-0.28	-0.035	-0.455	-0.018788	0.211792	0.979172	0.6075	0.945	-1.5345	0	3	1002	1
2026-02-11	16:06:34.530	-0.14	0.07	-0.385	-0.016836	0.21106	0.981124	0.6075	0.939	-1.533	0	3	1002	1
2026-02-11	16:06:34.550	-0.175	0.07	-0.28	-0.016836	0.216184	0.980636	0.606	0.9315	-1.5315	0	3	1002	1
2026-02-11	16:06:34.570	-0.35	-0.105	-0.385	-0.015372	0.212524	0.977464	0.606	0.9315	-1.53	0	3	1002	1
2026-02-11	16:06:34.590	-0.49	-0.21	-0.455	-0.018544	0.216428	0.981856	0.6045	0.933	-1.524	0	3	1002	1
2026-02-11	16:06:34.610	-0.315	-0.175	-0.525	-0.017568	0.212768	0.983808	0.6	0.939	-1.533	0	3	1002	1
2026-02-11	16:06:34.630	-0.035	0	-0.385	-0.01464	0.211548	0.982588	0.603	0.9285	-1.53	0	3	1002	1
2026-02-11	16:06:34.650	0.035	0.07	-0.385	-0.016104	0.213744	0.981124	0.6135	0.9435	-1.5345	0	3	1002	1
2026-02-11	16:06:34.670	-0.175	-0.035	-0.455	-0.022204	0.21716	0.981856	0.6105	0.9405	-1.53	0	3	1002	1
2026-02-11	16:06:34.690	-0.385	-0.14	-0.525	-0.0183	0.215208	0.975756	0.603	0.93	-1.533	0	3	1002	1
2026-02-11	16:06:34.710	-0.315	-0.21	-0.525	-0.01586	0.208132	0.982344	0.603	0.9345	-1.536	0	3	1002	1
2026-02-11	16:06:34.730	-0.07	-0.175	-0.49	-0.01708	0.208132	0.980636	0.603	0.939	-1.5405	0	3	1002	1
2026-02-11	16:06:34.750	0.035	-0.07	-0.49	-0.020252	0.212036	0.978684	0.6045	0.939	-1.536	0	3	1002	1
2026-02-11	16:06:34.770	0	-0.07	-0.49	-0.013176	0.213744	0.977708	0.603	0.9375	-1.53	0	3	1002	1
2026-02-11	16:06:34.790	-0.07	-0.07	-0.525	-0.018056	0.21472	0.983564	0.603	0.936	-1.5285	0	3	1002	1
2026-02-11	16:06:34.810	-0.14	-0.035	-0.49	-0.016104	0.209596	0.97478	0.603	0.936	-1.5285	0	3	1002	1
2026-02-11	16:06:34.830	-0.105	-0.035	-0.455	-0.021472	0.21228	0.981856	0.6075	0.942	-1.5345	0	3	1002	1
2026-02-11	16:06:34.850	-0.035	-0.035	-0.49	-0.015616	0.213988	0.977708	0.6105	0.945	-1.539	0	3	1002	1
2026-02-11	16:06:34.870	-0.245	-0.07	-0.455	-0.017568	0.21716	0.979416	0.6075	0.9465	-1.542	0	3	1002	1
2026-02-11	16:06:34.890	-0.49	-0.175	-0.525	-0.018788	0.210816	0.981612	0.6045	0.936	-1.533	0	3	1002	1
2026-02-11	16:06:34.910	-0.42	-0.07	-0.49	-0.016104	0.208864	0.982344	0.5985	0.9375	-1.536	0	3	1002	1
2026-02-11	16:06:34.930	-0.14	-0.035	-0.42	-0.015372	0.21106	0.97966	0.597	0.9405	-1.536	0	3	1002	1
2026-02-11	16:06:34.950	0.035	-0.07	-0.49	-0.015372	0.210328	0.9821	0.6015	0.9375	-1.53	0	3	1002	1
2026-02-11	16:06:34.970	-0.105	-0.07	-0.42	-0.01342	0.203496	0.974048	0.6	0.936	-1.53	0	3	1002	1
2026-02-11	16:06:34.990	-0.07	0	-0.42	-0.020496	0.208376	0.975512	0.6015	0.9345	-1.533	0	3	1002	1
2026-02-11	16:06:35.010	-0.35	-0.07	-0.455	-0.020496	0.210816	0.981368	0.606	0.933	-1.533	0	3	1002	1
2026-02-11	16:06:35.030	-0.21	-0.035	-0.455	-0.017324	0.212524	0.97722	0.612	0.9375	-1.53	0	3	1002	1
2026-02-11	16:06:35.050	0.07	-0.105	-0.525	-0.0183	0.213744	0.975756	0.606	0.936	-1.5345	0	3	1002	1
2026-02-11	16:06:35.070	0.07	-0.07	-0.525	-0.0183	0.210572	0.981368	0.597	0.936	-1.536	0	3	1002	1
2026-02-11	16:06:35.090	0.07	0	-0.49	-0.017568	0.213988	0.97722	0.6	0.936	-1.5345	0	3	1002	1
2026-02-11	16:06:35.110	-0.105	0	-0.455	-0.018056	0.214232	0.984784	0.606	0.936	-1.5315	0	3	1002	1
2026-02-11	16:06:35.130	-0.175	-0.035	-0.455	-0.018544	0.213744	0.979416	0.6045	0.933	-1.5315	0	3	1002	1
