yyyy-MM-dd	HH:mm:ss.fff	gyrX	gyrY	gyrZ	accX	accY	accZ	magX	magY	magZ	Marker	Energy	Angle	Classification
2026-02-11	16:02:12.010	-56.21	-56.525	30.415	0.915244	-0.080276	0.46848	0.189	0.633	0.0615	0	244	224	2
2026-02-11	16:02:12.030	-43.645	-55.02	31.465	0.901824	-0.077592	0.503372	0.192	0.6375	0.0765	0	244	224	2
2026-02-11	16:02:12.050	-31.92	-51.17	33.25	0.86986	-0.056364	0.49898	0.183	0.6435	0.081	0	244	224	2
2026-02-11	16:02:12.070	-24.57	-47.635	34.335	0.852292	-0.013908	0.477264	0.1905	0.6405	0.09	0	244	224	2
2026-02-11	16:02:12.090	-25.55	-44.975	31.99	0.842288	-0.001464	0.46238	0.186	0.651	0.0975	0	244	224	2
2026-02-11	16:02:12.110	-30.38	-42.98	30.59	0.851316	-0.010492	0.431148	0.1815	0.6555	0.0945	0	244	224	2
2026-02-11	16:02:12.130	-33.005	-40.845	30.94	0.8906	-0.016348	0.402356	0.18	0.6495	0.1035	0	244	224	2
2026-02-11	16:02:12.150	-30.03	-38.01	32.095	0.959408	0.001464	0.385276	0.189	0.6585	0.1065	0	244	224	2
2026-02-11	16:02:12.170	-27.51	-34.72	31.5	1.044808	0.018056	0.388692	0.1905	0.6615	0.1125	0	244	224	2
2026-02-11	16:02:12.190	-27.755	-27.65	28.14	1.1102	0.036112	0.391376	0.1785	0.6615	0.1155	0	244	224	2
2026-02-11	16:02:12.210	-25.9	-17.36	21.455	1.122888	0.041968	0.390888	0.1785	0.6615	0.1155	0	239	257	2
2026-02-11	16:02:12.230	-19.285	-7.84	13.02	1.082384	0.034404	0.349408	0.1935	0.6645	0.1155	0	239	257	2
2026-02-11	16:02:12.250	-8.435	0.875	2.1	1.041392	0.04026	0.288164	0.1905	0.6735	0.123	0	239	257	2
2026-02-11	16:02:12.270	0.42	6.65	-9.695	1.063352	0.061244	0.240828	0.1875	0.6765	0.126	0	239	257	2
2026-02-11	16:02:12.290	6.055	9.8	-20.3	1.104832	0.056852	0.224724	0.201	0.6795	0.1275	0	239	257	2
2026-02-11	16:02:12.310	11.55	12.145	-29.295	1.143872	0.071004	0.2257	0.207	0.6645	0.1305	0	239	257	2
2026-02-11	16:02:12.330	14.805	14	-37.065	1.16144	0.090524	0.233508	0.2025	0.675	0.1335	0	239	257	2
2026-02-11	16:02:12.350	14.91	16.135	-43.855	1.132648	0.110532	0.241316	0.198	0.672	0.1365	0	239	257	2
2026-02-11	16:02:12.370	11.305	17.605	-49.63	1.076772	0.135664	0.220332	0.1995	0.6645	0.135	0	239	257	2
2026-02-11	16:02:12.390	4.62	18.445	-54.565	1.020164	0.152744	0.20374	0.201	0.6645	0.144	0	239	257	2
2026-02-11	16:02:12.410	-9.24	18.725	-61.46	0.914268	0.1708	0.183	0.201	0.6645	0.144	0	233	283	3
2026-02-11	16:02:12.430	-24.465	17.99	-64.96	0.880352	0.18178	0.158844	0.201	0.6645	0.144	0	233	283	3
2026-02-11	16:02:12.450	-43.89	15.785	-67.27	0.891332	0.176168	0.13298	0.189	0.642	0.162	0	233	283	3
2026-02-11	16:02:12.470	-60.2	12.81	-67.76	0.935252	0.185196	0.122488	0.186	0.633	0.183	0	233	283	3
2026-02-11	16:02:12.490	-75.95	9.905	-66.045	1.017724	0.216184	0.134688	0.183	0.6135	0.1845	0	233	283	3
2026-02-11	16:02:12.510	-93.59	8.435	-62.405	1.139968	0.216184	0.143716	0.186	0.594	0.1995	0	233	283	3
2026-02-11	16:02:12.530	-107.205	11.305	-57.365	1.18828	0.200324	0.127368	0.1905	0.582	0.2145	0	233	283	3
2026-02-11	16:02:12.550	-112.105	16.065	-52.08	1.172176	0.18422	0.087596	0.183	0.549	0.2055	0	233	283	3
2026-02-11	16:02:12.570	-110.915	19.74	-47.495	1.153388	0.188368	0.054168	0.192	0.531	0.2085	0	233	283	3
2026-02-11	16:02:12.590	-109.095	23.555	-44.17	1.140456	0.199836	0.0366	0.189	0.504	0.1995	0	233	283	3
2026-02-11	16:02:12.610	-112.665	25.305	-41.405	1.086532	0.185196	0.022448	0.186	0.4935	0.1965	0	227	278	3
2026-02-11	16:02:12.630	-103.53	27.02	-42.14	1.02602	0.126392	0.01464	0.183	0.4845	0.195	0	227	278	3
2026-02-11	16:02:12.650	-86.45	27.615	-44.345	1.010404	0.124684	0.011224	0.1875	0.4425	0.171	0	227	278	3
2026-02-11	16:02:12.670	-70.7	26.53	-45.57	1.02358	0.125172	0.033916	0.1935	0.432	0.153	0	227	278	3
2026-02-11	16:02:12.690	-57.96	25.06	-45.85	1.051152	0.13542	0.062952	0.192	0.405	0.1395	0	227	278	3
2026-02-11	16:02:12.710	-50.54	24.43	-46.165	1.037	0.144448	0.087108	0.1995	0.39	0.12	0	227	278	3
2026-02-11	16:02:12.730	-47.67	24.08	-45.85	1.000156	0.150304	0.094916	0.2145	0.39	0.09	0	227	278	3
2026-02-11	16:02:12.750	-46.76	23.38	-43.96	0.987712	0.14884	0.088572	0.2145	0.3735	0.072	0	227	278	3
2026-02-11	16:02:12.770	-45.395	22.19	-40.95	1.003328	0.141032	0.07808	0.2205	0.3795	0.057	0	227	278	3
2026-02-11	16:02:12.790	-43.82	20.72	-36.505	1.012356	0.138348	0.08174	0.2295	0.3795	0.042	0	227	278	3
2026-02-11	16:02:12.810	-43.995	19.285	-31.78	0.992836	0.129564	0.08686399	0.243	0.3885	0.0195	0	221	243	3
2026-02-11	16:02:12.830	-41.125	16.555	-25.13	1.00162	0.124928	0.081252	0.2445	0.387	0.0135	0	221	243	3
2026-02-11	16:02:12.850	-36.47	12.46	-17.955	1.028704	0.12566	0.09882	0.2475	0.3855	0.0075	0	221	243	3
2026-02-11	16:02:12.870	-36.645	9.73	-13.265	1.025532	0.119804	0.125172	0.2535	0.417	0.0015	0	221	243	3
2026-02-11	16:02:12.890	-37.45	8.05	-11.06	1.014796	0.100284	0.126392	0.2595	0.4215	-0.009	0	221	243	3
2026-02-11	16:02:12.910	-34.615	5.075	-9.625	1.039928	0.08784	0.125904	0.252	0.417	-0.0075	0	221	243	3
2026-02-11	16:02:12.930	-30.415	1.19	-7.21	1.084824	0.088816	0.149816	0.2655	0.435	-0.012	0	221	243	3
2026-02-11	16:02:12.950	-28.84	-2.485	-3.675	1.13582	0.088328	0.194468	0.2595	0.4455	-0.012	0	221	243	3
2026-02-11	16:02:12.970	-30.975	-4.235	0.42	1.16754	0.070516	0.2318	0.2535	0.4455	-0.0135	0	221	243	3
2026-02-11	16:02:12.990	-32.62	-4.165	5.075	1.16632	0.044896	0.254248	0.2445	0.4515	-0.0165	0	221	243	3
2026-02-11	16:02:11.010	-13.44	-24.22	53.305	1.023824	0.41846	0.051484	0.1455	0.72	0.054	0	284	270	3
2026-02-11	16:02:11.030	-40.39	-30.695	45.22	1.037732	0.404308	0.069296	0.1515	0.7215	0.063	0	284	270	3
2026-02-11	16:02:11.050	-53.83	-35.525	38.22	1.02968	0.426024	0.096868	0.1455	0.7275	0.066	0	284	270	3
2026-02-11	16:02:11.070	-61.985	-38.045	30.485	0.994544	0.43066	0.13786	0.1365	0.7275	0.072	0	284	270	3
2026-02-11	16:02:11.090	-65.275	-37.87	21.385	0.965996	0.43798	0.169092	0.15	0.7335	0.0825	0	284	270	3
2026-02-11	16:02:11.110	-69.3	-35.42	11.9	0.967948	0.439688	0.217404	0.1515	0.7395	0.0855	0	284	270	3
2026-02-11	16:02:11.130	-45.535	-27.405	-7.525	0.937692	0.355264	0.233752	0.15	0.738	0.1005	0	284	270	3
2026-02-11	16:02:11.150	-6.37	-22.505	-23.52	0.928908	0.40626	0.222528	0.153	0.744	0.0915	0	284	270	3
2026-02-11	16:02:11.170	18.655	-20.265	-38.255	0.968924	0.40992	0.201056	0.1545	0.7395	0.0975	0	284	270	3
2026-02-11	16:02:11.190	42.945	-18.27	-53.165	1.016016	0.427	0.194224	0.1485	0.732	0.105	0	284	270	3
2026-02-11	16:02:11.210	61.04	-15.54	-67.585	1.057984	0.452376	0.200812	0.1515	0.735	0.096	0	274	224	3
2026-02-11	16:02:11.230	62.02	-12.985	-79.555	1.064816	0.50264	0.224724	0.141	0.717	0.0975	0	274	224	3
2026-02-11	16:02:11.250	47.53	-10.64	-90.615	1.070184	0.554368	0.262544	0.1335	0.717	0.093	0	274	224	3
2026-02-11	16:02:11.270	22.4	-7.28	-101.15	1.102148	0.562908	0.290848	0.141	0.693	0.0915	0	274	224	3
2026-02-11	16:02:11.290	-2.59	-2.345	-109.83	1.143628	0.495808	0.293776	0.1395	0.678	0.093	0	274	224	3
2026-02-11	16:02:11.310	-19.32	2.625	-115.885	1.200236	0.483608	0.274744	0.1455	0.6705	0.093	0	274	224	3
2026-02-11	16:02:11.330	-47.81	7.875	-119.28	1.227808	0.44652	0.275476	0.1335	0.6555	0.087	0	274	224	3
2026-02-11	16:02:11.350	-76.58	13.265	-120.295	1.246352	0.385032	0.311832	0.1335	0.6555	0.087	0	274	224	3
2026-02-11	16:02:11.370	-95.865	20.125	-118.09	1.246596	0.313296	0.338184	0.1485	0.621	0.078	0	274	224	3
2026-02-11	16:02:11.390	-103.145	27.895	-114.38	1.21024	0.24522	0.322812	0.1545	0.606	0.0705	0	274	224	3
2026-02-11	16:02:11.410	-103.145	33.32	-107.87	1.197308	0.23058	0.291092	0.153	0.594	0.0705	0	264	203	3
2026-02-11	16:02:11.430	-104.65	36.225	-98.595	1.216828	0.210572	0.259372	0.1455	0.567	0.0585	0	264	203	3
2026-02-11	16:02:11.450	-104.09	37.66	-88.165	1.187792	0.199592	0.243512	0.156	0.5535	0.048	0	264	203	3
2026-02-11	16:02:11.470	-105.455	37.485	-76.825	1.125328	0.186904	0.223016	0.1575	0.5415	0.042	0	264	203	3
2026-02-11	16:02:11.490	-107.31	33.985	-63.735	1.076528	0.148352	0.18056	0.162	0.534	0.0375	0	264	203	3
2026-02-11	16:02:11.510	-101.465	28.35	-49.875	1.032608	0.122488	0.150792	0.1695	0.525	0.0225	0	264	203	3
2026-02-11	16:02:11.530	-90.965	21.945	-35.28	0.960628	0.113948	0.15372	0.177	0.5325	0.0135	0	264	203	3
2026-02-11	16:02:11.550	-87.36	15.225	-18.41	0.8296	0.12932	0.199836	0.1785	0.522	0.015	0	264	203	3
2026-02-11	16:02:11.570	-96.46	9.66	-4.34	0.708332	0.116144	0.229604	0.1875	0.5235	0.0105	0	264	203	3
2026-02-11	16:02:11.590	-102.06	4.76	5.915	0.666608	0.09394	0.231556	0.1785	0.522	0.0075	0	264	203	3
2026-02-11	16:02:11.610	-99.75	-0.455	15.785	0.68442	0.109556	0.221308	0.1845	0.5205	0.0015	0	255	205	3
2026-02-11	16:02:11.630	-96.32	-6.51	23.52	0.72102	0.109068	0.214232	0.1785	0.522	0	0	255	205	3
2026-02-11	16:02:11.650	-95.165	-11.97	30.17	0.774212	0.097356	0.199348	0.1845	0.5415	0	0	255	205	3
2026-02-11	16:02:11.670	-93.66	-17.045	36.68	0.840824	0.083448	0.179096	0.183	0.54	0.0015	0	255	205	3
2026-02-11	16:02:11.690	-88.83	-20.79	42.735	0.903532	0.07808	0.174704	0.189	0.543	-0.0105	0	255	205	3
2026-02-11	16:02:11.710	-81.515	-22.54	46.655	0.960872	0.066368	0.165188	0.1875	0.5565	0.0015	0	255	205	3
2026-02-11	16:02:11.730	-68.25	-23.31	46.865	0.981612	0.047336	0.144448	0.186	0.558	-0.0075	0	255	205	3
2026-02-11	16:02:11.750	-49	-25.2	44.59	0.981124	0.038796	0.143716	0.192	0.5745	-0.0075	0	255	205	3
2026-02-11	16:02:11.770	-26.88	-29.855	40.11	0.992592	0.039772	0.19764	0.1875	0.5775	0.003	0	255	205	3
2026-02-11	16:02:11.790	-17.64	-33.39	36.575	0.9577	0.04636	0.246928	0.1875	0.5775	0.003	0	255	205	3
2026-02-11	16:02:11.810	-12.88	-37.135	32.725	0.926712	0.0549	0.282064	0.186	0.5865	0.0015	0	249	210	3
2026-02-11	16:02:11.830	-13.65	-40.39	29.4	0.884988	0.07515199	0.306708	0.1875	0.5955	0.0045	0	249	210	3
2026-02-11	16:02:11.850	-22.645	-43.505	27.09	0.878888	0.081252	0.31964	0.1785	0.597	0.0075	0	249	210	3
2026-02-11	16:02:11.870	-33.915	-45.815	25.795	0.881572	0.079544	0.33306	0.18	0.612	0.015	0	249	210	3
2026-02-11	16:02:11.890	-47.075	-46.2	25.515	0.898408	0.068076	0.34892	0.18	0.6225	0.0255	0	249	210	3
2026-02-11	16:02:11.910	-59.745	-45.99	25.865	0.894504	0.052948	0.344284	0.1815	0.6225	0.0225	0	249	210	3
2026-02-11	16:02:11.930	-68.915	-47.705	26.04	0.902068	0.034404	0.33672	0.192	0.633	0.0405	0	249	210	3
2026-02-11	16:02:11.950	-72.835	-50.12	26.635	0.917684	0.002684	0.3477	0.1905	0.6255	0.048	0	249	210	3
2026-02-11	16:02:11.970	-72.1	-52.045	27.93	0.91744	-0.02074	0.36844	0.186	0.636	0.0465	0	249	210	3
2026-02-11	16:02:11.990	-65.205	-55.405	29.54	0.91744	-0.054168	0.419924	0.186	0.636	0.0465	0	249	210	3
2026-02-11	16:02:12.010	-56.21	-56.525	30.415	0.915244	-0.080276	0.46848	0.189	0.633	0.0615	0	244	224	2
2026-02-11	16:02:12.030	-43.645	-55.02	31.465	0.901824	-0.077592	0.503372	0.192	0.6375	0.0765	0	244	224	2
2026-02-11	16:02:12.050	-31.92	-51.17	33.25	0.86986	-0.056364	0.49898	0.183	0.6435	0.081	0	244	224	2
2026-02-11	16:02:12.070	-24.57	-47.635	34.335	0.852292	-0.013908	0.477264	0.1905	0.6405	0.09	0	244	224	2
2026-02-11	16:02:12.090	-25.55	-44.975	31.99	0.842288	-0.001464	0.46238	0.186	0.651	0.0975	0	244	224	2
2026-02-11	16:02:12.110	-30.38	-42.98	30.59	0.851316	-0.010492	0.431148	0.1815	0.6555	0.0945	0	244	224	2
2026-02-11	16:02:12.130	-33.005	-40.845	30.94	0.8906	-0.016348	0.402356	0.18	0.6495	0.1035	0	244	224	2
2026-02-11	16:02:12.150	-30.03	-38.01	32.095	0.959408	0.001464	0.385276	0.189	0.6585	0.1065	0	244	224	2
2026-02-11	16:02:12.170	-27.51	-34.72	31.5	1.044808	0.018056	0.388692	0.1905	0.6615	0.1125	0	244	224	2
2026-02-11	16:02:12.190	-27.755	-27.65	28.14	1.1102	0.036112	0.391376	0.1785	0.6615	0.1155	0	244	224	2
2026-02-11	16:02:12.210	-25.9	-17.36	21.455	1.122888	0.041968	0.390888	0.1785	0.6615	0.1155	0	239	257	2
2026-02-11	16:02:12.230	-19.285	-7.84	13.02	1.082384	0.034404	0.349408	0.1935	0.6645	0.1155	0	239	257	2
2026-02-11	16:02:12.250	-8.435	0.875	2.1	1.041392	0.04026	0.288164	0.1905	0.6735	0.123	0	239	257	2
2026-02-11	16:02:12.270	0.42	6.65	-9.695	1.063352	0.061244	0.240828	0.1875	0.6765	0.126	0	239	257	2
2026-02-11	16:02:12.290	6.055	9.8	-20.3	1.104832	0.056852	0.224724	0.201	0.6795	0.1275	0	239	257	2
2026-02-11	16:02:12.310	11.55	12.145	-29.295	1.143872	0.071004	0.2257	0.207	0.6645	0.1305	0	239	257	2
2026-02-11	16:02:12.330	14.805	14	-37.065	1.16144	0.090524	0.233508	0.2025	0.675	0.1335	0	239	257	2
2026-02-11	16:02:12.350	14.91	16.135	-43.855	1.132648	0.110532	0.241316	0.198	0.672	0.1365	0	239	257	2
2026-02-11	16:02:12.370	11.305	17.605	-49.63	1.076772	0.135664	0.220332	0.1995	0.6645	0.135	0	239	257	2
2026-02-11	16:02:12.390	4.62	18.445	-54.565	1.020164	0.152744	0.20374	0.201	0.6645	0.144	0	239	257	2
2026-02-11	16:02:12.410	-9.24	18.725	-61.46	0.914268	0.1708	0.183	0.201	0.6645	0.144	0	233	283	3
2026-02-11	16:02:12.430	-24.465	17.99	-64.96	0.880352	0.18178	0.158844	0.201	0.6645	0.144	0	233	283	3
2026-02-11	16:02:12.450	-43.89	15.785	-67.27	0.891332	0.176168	0.13298	0.189	0.642	0.162	0	233	283	3
2026-02-11	16:02:12.470	-60.2	12.81	-67.76	0.935252	0.185196	0.122488	0.186	0.633	0.183	0	233	283	3
2026-02-11	16:02:12.490	-75.95	9.905	-66.045	1.017724	0.216184	0.134688	0.183	0.6135	0.1845	0	233	283	3
2026-02-11	16:02:12.510	-93.59	8.435	-62.405	1.139968	0.216184	0.143716	0.186	0.594	0.1995	0	233	283	3
2026-02-11	16:02:12.530	-107.205	11.305	-57.365	1.18828	0.200324	0.127368	0.1905	0.582	0.2145	0	233	283	3
2026-02-11	16:02:12.550	-112.105	16.065	-52.08	1.172176	0.18422	0.087596	0.183	0.549	0.2055	0	233	283	3
2026-02-11	16:02:12.570	-110.915	19.74	-47.495	1.153388	0.188368	0.054168	0.192	0.531	0.2085	0	233	283	3
2026-02-11	16:02:12.590	-109.095	23.555	-44.17	1.140456	0.199836	0.0366	0.189	0.504	0.1995	0	233	283	3
2026-02-11	16:02:24.610	-22.61	8.54	-4.69	0.773724	0.587064	0.2074	0.138	0.441	0.0135	0	296	199	3
2026-02-11	16:02:24.630	-16.905	8.925	-5.775	0.766648	0.567544	0.232288	0.129	0.441	0.0165	0	296	199	3
2026-02-11	16:02:24.650	-4.76	10.01	-8.47	0.750788	0.59048	0.26596	0.1335	0.4335	0.0255	0	296	199	3
2026-02-11	16:02:24.670	2.45	10.64	-9.94	0.759816	0.604144	0.289628	0.138	0.4425	0.0075	0	296	199	3
2026-02-11	16:02:24.690	2.555	11.725	-10.01	0.760548	0.603656	0.287188	0.1335	0.438	0.009	0	296	199	3
2026-02-11	16:02:24.710	-1.4	12.25	-8.61	0.75274	0.597068	0.25986	0.1275	0.432	0.0105	0	296	199	3
2026-02-11	16:02:24.730	-8.75	10.815	-5.845	0.754204	0.579256	0.24522	0.126	0.4335	0.0105	0	296	199	3
2026-02-11	16:02:24.750	-12.425	8.89	-3.43	0.738344	0.562908	0.249368	0.129	0.4365	0.009	0	296	199	3
2026-02-11	16:02:24.770	-9.975	5.915	-2.625	0.734928	0.583892	0.247904	0.1305	0.438	0.003	0	296	199	3
2026-02-11	16:02:24.790	-11.2	1.855	-1.995	0.752008	0.578036	0.258884	0.132	0.4335	-0.0015	0	296	199	3
2026-02-11	16:02:24.810	-15.085	-3.045	-2.485	0.794952	0.569252	0.27694	0.132	0.429	-0.003	0	264	208	3
2026-02-11	16:02:24.830	-16.8	-4.515	-1.75	0.795196	0.531188	0.26474	0.129	0.441	0.0015	0	264	208	3
2026-02-11	16:02:24.850	-10.99	-6.265	-1.295	0.802516	0.5246	0.271328	0.1215	0.438	-0.0015	0	264	208	3
2026-02-11	16:02:24.870	-5.25	-7.21	-0.665	0.812764	0.555832	0.295972	0.135	0.4395	-0.003	0	264	208	3
2026-02-11	16:02:24.890	-2.625	-6.335	-0.525	0.802516	0.581696	0.315004	0.1275	0.4335	0.0015	0	264	208	3
2026-02-11	16:02:24.910	-3.395	-4.725	-0.35	0.822524	0.586576	0.319884	0.126	0.432	0.0015	0	264	208	3
2026-02-11	16:02:24.930	-6.72	-2.135	1.12	0.823012	0.584624	0.304756	0.129	0.438	0.0015	0	264	208	3
2026-02-11	16:02:24.950	-10.29	0.28	2.205	0.79178	0.569984	0.281088	0.129	0.438	0.0045	0	264	208	3
2026-02-11	16:02:24.970	-10.29	1.4	2.065	0.781532	0.5551	0.276452	0.1275	0.435	0.0015	0	264	208	3
2026-02-11	16:02:24.990	-7.98	2.765	1.68	0.788852	0.525332	0.293288	0.1245	0.438	0	0	264	208	3
2026-02-11	16:02:25.010	2.415	3.78	1.26	0.77958	0.520452	0.282796	0.126	0.4425	0	0	235	222	3
2026-02-11	16:02:25.030	8.47	2.87	2.31	0.772748	0.543144	0.259128	0.126	0.4425	0	0	235	222	3
2026-02-11	16:02:25.050	7.14	1.61	3.78	0.771772	0.560956	0.260348	0.132	0.429	0	0	235	222	3
2026-02-11	16:02:25.070	3.78	0.7	4.865	0.77104	0.570716	0.266692	0.1245	0.4425	0.003	0	235	222	3
2026-02-11	16:02:25.090	1.26	0.28	5.67	0.779092	0.581696	0.282308	0.123	0.432	0	0	235	222	3
2026-02-11	16:02:25.110	-0.385	0.035	6.195	0.7808	0.586332	0.283528	0.123	0.435	-0.0015	0	235	222	3
2026-02-11	16:02:25.130	-1.645	-0.35	6.965	0.778604	0.58926	0.26962	0.1275	0.4425	-0.0045	0	235	222	3
2026-02-11	16:02:25.150	-2.135	-1.26	6.72	0.774944	0.59902	0.261568	0.132	0.4365	-0.006	0	235	222	3
2026-02-11	16:02:25.170	-2.485	-2.065	5.355	0.783972	0.60024	0.276696	0.1335	0.4305	-0.0075	0	235	222	3
2026-02-11	16:02:25.190	-2.52	-1.89	3.535	0.790316	0.597556	0.297192	0.129	0.432	-0.0045	0	235	222	3
2026-02-11	16:02:25.210	-3.15	-0.805	1.855	0.790804	0.579988	0.287676	0.1245	0.4335	0	0	208	237	3
2026-02-11	16:02:25.230	-2.66	0.21	0.735	0.78324	0.54656	0.272304	0.1245	0.435	0	0	208	237	3
2026-02-11	16:02:25.250	0.91	0.28	0.385	0.778604	0.5551	0.271816	0.1245	0.435	0	0	208	237	3
2026-02-11	16:02:25.270	4.41	-0.175	0.035	0.777628	0.576084	0.267424	0.1365	0.438	-0.003	0	208	237	3
2026-02-11	16:02:25.290	3.99	-0.945	-0.63	0.788364	0.589748	0.277916	0.132	0.432	0.006	0	208	237	3
2026-02-11	16:02:25.310	1.645	-1.26	-1.33	0.785924	0.57584	0.2867	0.132	0.435	0	0	208	237	3
2026-02-11	16:02:25.330	0.56	-1.19	-1.61	0.79178	0.558028	0.290116	0.129	0.438	-0.0015	0	208	237	3
2026-02-11	16:02:25.350	-1.855	-0.805	-0.28	0.800076	0.53314	0.296216	0.1275	0.435	0	0	208	237	3
2026-02-11	16:02:25.370	-1.4	-0.245	1.12	0.787144	0.530456	0.271572	0.126	0.4335	-0.0045	0	208	237	3
2026-02-11	16:02:25.390	0.385	-0.245	2.205	0.78202	0.554124	0.267912	0.123	0.435	-0.0045	0	208	237	3
2026-02-11	16:02:25.410	1.155	-0.525	2.03	0.783728	0.572668	0.270108	0.123	0.4365	0	0	184	250	3
2026-02-11	16:02:25.430	1.855	-0.525	1.19	0.780312	0.579744	0.282552	0.12	0.435	0	0	184	250	3
2026-02-11	16:02:25.450	2.94	0.07	-0.665	0.788608	0.58926	0.295728	0.1185	0.435	-0.0015	0	184	250	3
2026-02-11	16:02:25.470	1.61	0.735	-1.295	0.789828	0.585112	0.285968	0.1305	0.4305	-0.006	0	184	250	3
2026-02-11	16:02:25.490	-0.315	1.12	-1.68	0.793732	0.584136	0.278404	0.12	0.4305	-0.003	0	184	250	3
2026-02-11	16:02:25.510	-3.43	1.645	-1.995	0.791536	0.583404	0.287188	0.123	0.4305	-0.003	0	184	250	3
2026-02-11	16:02:25.530	-6.3	2.59	-2.59	0.789828	0.575596	0.299876	0.1215	0.432	-0.003	0	184	250	3
2026-02-11	16:02:25.550	-6.44	3.535	-3.78	0.782264	0.569252	0.305488	0.123	0.432	-0.0045	0	184	250	3
2026-02-11	16:02:25.570	-6.265	3.92	-3.815	0.789584	0.554368	0.291092	0.126	0.432	-0.0075	0	184	250	3
2026-02-11	16:02:25.590	-6.72	4.095	-2.975	0.78324	0.54656	0.283528	0.129	0.432	-0.009	0	184	250	3
2026-02-11	16:02:25.610	-5.81	3.43	-2.31	0.776896	0.54534	0.267912	0.1305	0.4335	-0.009	0	162	261	2
2026-02-11	16:02:25.630	-4.06	1.61	-1.4	0.782996	0.554368	0.267668	0.126	0.4335	-0.0135	0	162	261	2
2026-02-11	16:02:25.650	-2.52	0.07	-0.42	0.78324	0.5551	0.28182	0.123	0.435	-0.0105	0	162	261	2
2026-02-11	16:02:25.670	-0.63	-0.91	0.315	0.78568	0.559492	0.29158	0.1245	0.435	-0.006	0	162	261	2
2026-02-11	16:02:25.690	-0.525	-1.295	0.77	0.794708	0.559492	0.292556	0.1305	0.432	-0.012	0	162	261	2
2026-02-11	16:02:25.710	-0.84	-1.12	0.91	0.791536	0.55632	0.289628	0.129	0.4395	-0.0105	0	162	261	2
2026-02-11	16:02:25.730	-0.105	-0.875	1.26	0.78934	0.559004	0.287188	0.123	0.435	-0.0105	0	162	261	2
2026-02-11	16:02:25.750	0.07	-0.49	1.19	0.789096	0.558516	0.290848	0.12	0.4275	-0.0105	0	162	261	2
2026-02-11	16:02:25.770	1.015	-0.315	0.56	0.789584	0.560712	0.296948	0.1215	0.432	-0.009	0	162	261	2
2026-02-11	16:02:25.790	2.45	0.035	0.14	0.790316	0.559004	0.294508	0.1245	0.4305	-0.0105	0	162	261	2
2026-02-11	16:02:25.810	2.065	0.525	0.14	0.791536	0.554124	0.285236	0.129	0.4275	-0.012	0	142	269	2
2026-02-11	16:02:25.830	2.45	0.84	0.21	0.791536	0.545828	0.285968	0.1245	0.432	-0.015	0	142	269	2
2026-02-11	16:02:25.850	5.88	1.085	-0.245	0.79178	0.565836	0.299388	0.1215	0.432	-0.0165	0	142	269	2
2026-02-11	16:02:25.870	4.97	1.61	-0.875	0.78934	0.571936	0.291092	0.123	0.432	-0.0165	0	142	269	2
2026-02-11	16:02:25.890	2.66	2.03	-0.84	0.790316	0.55876	0.284016	0.123	0.432	-0.0165	0	142	269	2
2026-02-11	16:02:25.910	2.45	2.135	-0.49	0.786412	0.552904	0.289628	0.1215	0.426	-0.018	0	142	269	2
2026-02-11	16:02:25.930	2.695	2.17	-0.315	0.78568	0.566812	0.302072	0.1215	0.429	-0.0165	0	142	269	2
2026-02-11	16:02:25.950	2.135	2.205	-0.42	0.782264	0.567544	0.2989	0.123	0.429	-0.0165	0	142	269	2
2026-02-11	16:02:25.970	1.785	1.61	-0.105	0.781532	0.561932	0.266692	0.126	0.429	-0.0165	0	142	269	2
2026-02-11	16:02:25.990	2.31	0.77	-0.035	0.781532	0.578036	0.263764	0.1305	0.426	-0.0165	0	142	269	2
2026-02-11	16:02:26.010	0.595	-0.35	-0.07	0.780312	0.586088	0.279624	0.132	0.4245	-0.018	0	124	275	2
2026-02-11	16:02:26.030	-1.96	-0.595	-0.42	0.782752	0.579256	0.30134	0.129	0.426	-0.0165	0	124	275	2
2026-02-11	16:02:26.050	-5.005	-0.595	-0.245	0.786656	0.568276	0.296216	0.126	0.423	-0.0165	0	124	275	2
2026-02-11	16:02:26.070	-7.735	-0.105	0.315	0.782752	0.548756	0.295728	0.1245	0.4275	-0.018	0	124	275	2
2026-02-11	16:02:26.090	-3.535	-0.21	0.525	0.7808	0.542656	0.282308	0.123	0.4335	-0.0165	0	124	275	2
2026-02-11	16:02:26.110	0.21	-0.84	0.455	0.787876	0.569496	0.282064	0.1245	0.4305	-0.027	0	124	275	2
2026-02-11	16:02:26.130	0.315	-1.26	0	0.79178	0.571448	0.293044	0.1305	0.426	-0.024	0	124	275	2
2026-02-11	16:02:26.150	-0.245	-1.225	-0.42	0.796904	0.572668	0.293532	0.126	0.426	-0.021	0	124	275	2
2026-02-11	16:02:26.170	-2.135	-0.98	-0.665	0.788364	0.55998	0.285724	0.123	0.426	-0.021	0	124	275	2
2026-02-11	16:02:26.190	-3.92	-0.98	-0.21	0.787144	0.54534	0.284016	0.123	0.423	-0.0225	0	124	275	2
2026-02-11	16:02:26.210	-2.975	-0.84	0.28	0.792756	0.548756	0.288896	0.1215	0.426	-0.0225	0	109	280	2
2026-02-11	16:02:26.230	-0.945	-0.7	0.525	0.793732	0.546316	0.29402	0.123	0.426	-0.0225	0	109	280	2
2026-02-11	16:02:26.250	0.245	-0.63	0.665	0.795196	0.556564	0.287432	0.1245	0.426	-0.024	0	109	280	2
2026-02-11	16:02:26.270	-0.245	-0.595	0.7	0.794708	0.551684	0.287676	0.1245	0.4305	-0.021	0	109	280	2
2026-02-11	16:02:26.290	-1.4	-0.455	1.05	0.793488	0.548512	0.291092	0.123	0.429	-0.018	0	109	280	2
2026-02-11	16:02:26.310	-1.505	-0.105	1.365	0.797148	0.549244	0.297436	0.12	0.4305	-0.021	0	109	280	2
2026-02-11	16:02:26.330	-2.695	0.385	1.645	0.798856	0.549	0.296948	0.132	0.4305	-0.0225	0	109	280	2
2026-02-11	16:02:26.350	-3.64	0.91	1.89	0.797392	0.539972	0.300608	0.1245	0.429	-0.021	0	109	280	2
2026-02-11	16:02:26.370	-3.71	1.4	2.205	0.799588	0.53436	0.294508	0.1215	0.423	-0.024	0	109	280	2
2026-02-11	16:02:26.390	0.21	1.715	1.925	0.79422	0.533872	0.28792	0.126	0.423	-0.024	0	109	280	2
2026-02-11	16:02:26.410	6.195	1.155	1.05	0.793976	0.564372	0.288164	0.1275	0.429	-0.0195	0	95	284	2
2026-02-11	16:02:26.430	6.545	0.77	-0.105	0.800076	0.57584	0.299632	0.123	0.4335	-0.021	0	95	284	2
2026-02-11	16:02:26.450	3.115	1.26	-0.7	0.804956	0.55632	0.307684	0.1245	0.4305	-0.024	0	95	284	2
2026-02-11	16:02:26.470	1.26	2.625	-1.4	0.793488	0.547048	0.325008	0.129	0.4275	-0.0225	0	95	284	2
2026-02-11	16:02:26.490	1.715	3.85	-2.17	0.79544	0.55266	0.327692	0.126	0.4275	-0.024	0	95	284	2
2026-02-11	16:02:26.510	1.505	5.74	-2.24	0.7869	0.554368	0.314272	0.1245	0.4245	-0.027	0	95	284	2
2026-02-11	16:02:26.530	1.47	5.915	-0.63	0.789096	0.54656	0.284992	0.1245	0.4245	-0.027	0	95	284	2
2026-02-11	16:02:26.550	3.64	5.46	0.105	0.7808	0.553636	0.27206	0.126	0.426	-0.0285	0	95	284	2
2026-02-11	16:02:26.570	1.82	4.235	0.14	0.781288	0.577548	0.300852	0.126	0.426	-0.03	0	95	284	2
2026-02-11	16:02:26.590	-3.08	3.08	-0.56	0.782996	0.592676	0.314272	0.1245	0.4275	-0.03	0	95	284	2
2026-02-11	16:02:26.610	-6.93	2.52	-1.575	0.781776	0.567788	0.318908	0.1245	0.4245	-0.033	0	83	289	2
2026-02-11	16:02:26.630	-4.9	1.82	-2.38	0.7808	0.55388	0.309148	0.126	0.4185	-0.0315	0	83	289	2
2026-02-11	16:02:26.650	0.315	1.645	-2.66	0.784704	0.552172	0.295728	0.1275	0.4215	-0.033	0	83	289	2
2026-02-11	16:02:26.670	1.33	1.575	-2.135	0.782264	0.551928	0.287188	0.1275	0.429	-0.0345	0	83	289	2
2026-02-11	16:02:26.690	3.815	0.945	-2.345	0.783484	0.561444	0.289872	0.126	0.4305	-0.0375	0	83	289	2
2026-02-11	16:02:26.710	5.81	0	-2.345	0.793732	0.576572	0.287432	0.1215	0.4275	-0.0405	0	83	289	2
2026-02-11	16:02:26.730	1.365	-1.33	-0.84	0.785436	0.579256	0.2806	0.12	0.4275	-0.039	0	83	289	2
2026-02-11	16:02:26.750	0.42	-2.94	0.35	0.794708	0.58804	0.267424	0.129	0.4215	-0.027	0	83	289	2
2026-02-11	16:02:26.770	-0.875	-3.045	1.54	0.809592	0.588284	0.298412	0.126	0.423	-0.03	0	83	289	2
2026-02-11	16:02:26.790	-6.02	-2.205	2.38	0.826184	0.58682	0.306952	0.12	0.4305	-0.0345	0	83	289	2
2026-02-11	16:02:26.810	-12.775	-1.12	2.73	0.828624	0.549488	0.297436	0.123	0.4335	-0.0315	0	73	293	2
2026-02-11	16:02:26.830	-13.72	0.14	2.73	0.82594	0.526796	0.297924	0.129	0.429	-0.0255	0	73	293	2
2026-02-11	16:02:26.850	-12.845	1.75	3.255	0.826428	0.510936	0.310856	0.1275	0.435	-0.0255	0	73	293	2
2026-02-11	16:02:26.870	-13.09	3.605	4.34	0.846924	0.48556	0.322324	0.1215	0.441	-0.027	0	73	293	2
2026-02-11	16:02:26.890	-9.59	6.755	5.95	0.839604	0.481412	0.334036	0.1215	0.444	-0.021	0	73	293	2
2026-02-11	16:02:26.910	-1.89	10.5	8.33	0.830576	0.477996	0.335012	0.123	0.4425	-0.021	0	73	293	2
2026-02-11	16:02:26.930	12.775	13.65	14.035	0.79666	0.483608	0.303536	0.123	0.4425	-0.021	0	73	293	2
2026-02-11	16:02:26.950	25.165	13.265	22.82	0.777384	0.538996	0.310612	0.1245	0.444	-0.018	0	73	293	2
2026-02-11	16:02:26.970	24.29	12.075	26.39	0.781532	0.60146	0.316956	0.1245	0.444	-0.0195	0	73	293	2
2026-02-11	16:02:26.990	16.485	11.76	23.45	0.782264	0.60024	0.323056	0.123	0.447	-0.024	0	73	293	2
2026-02-11	16:02:27.010	8.365	11.48	16.835	0.784704	0.577304	0.329888	0.12	0.4515	-0.027	0	66	297	2
2026-02-11	16:02:27.030	0.84	11.865	10.185	0.801784	0.528992	0.32818	0.114	0.4515	-0.0285	0	66	297	2
2026-02-11	16:02:27.050	-1.575	13.335	5.705	0.798124	0.48068	0.338672	0.1125	0.459	-0.033	0	66	297	2
2026-02-11	16:02:27.070	-2.625	13.755	4.025	0.792512	0.473848	0.343552	0.1155	0.4665	-0.0315	0	66	297	2
2026-02-11	16:02:27.090	-7.035	13.72	2.73	0.791292	0.412604	0.365024	0.1155	0.4665	-0.0315	0	66	297	2
2026-02-11	16:02:27.110	4.095	14.735	1.12	0.774456	0.420656	0.37454	0.114	0.465	-0.0375	0	66	297	2
2026-02-11	16:02:27.130	25.445	13.65	1.26	0.760792	0.450912	0.35136	0.1185	0.4695	-0.0375	0	66	297	2
2026-02-11	16:02:27.150	45.64	10.185	4.55	0.733708	0.522892	0.305244	0.123	0.474	-0.036	0	66	297	2
2026-02-11	16:02:27.170	46.9	6.965	6.51	0.720776	0.609756	0.30012	0.1215	0.4635	-0.0345	0	66	297	2
2026-02-11	16:02:27.190	38.71	3.325	5.705	0.727364	0.672952	0.32696	0.117	0.453	-0.036	0	66	297	2
2026-02-11	16:02:27.210	25.235	0.175	2.1	0.752252	0.68808	0.338672	0.1125	0.45	-0.036	0	62	304	2
2026-02-11	16:02:27.230	7.98	-2.17	-1.47	0.761036	0.632936	0.323544	0.1155	0.4485	-0.0345	0	62	304	2
2026-02-11	16:02:27.250	-4.235	-4.06	-3.15	0.771772	0.572912	0.310368	0.1155	0.45	-0.0375	0	62	304	2
2026-02-11	16:02:27.270	-9.205	-5.495	-3.64	0.786412	0.536312	0.312808	0.1125	0.45	-0.036	0	62	304	2
2026-02-11	16:02:27.290	-10.22	-5.775	-3.605	0.807884	0.517524	0.310368	0.12	0.453	-0.0345	0	62	304	2
2026-02-11	16:02:27.310	-6.825	-5.495	-2.94	0.812764	0.49776	0.307196	0.12	0.453	-0.03	0	62	304	2
2026-02-11	16:02:27.330	-1.47	-5.285	-1.89	0.809348	0.511912	0.310124	0.117	0.4515	-0.027	0	62	304	2
2026-02-11	16:02:27.350	0.28	-5.075	-0.77	0.806908	0.5429	0.304268	0.12	0.453	-0.0315	0	62	304	2
2026-02-11	16:02:27.370	-5.775	-4.48	0.14	0.799344	0.540216	0.29646	0.1215	0.45	-0.0315	0	62	304	2
2026-02-11	16:02:27.390	-7.525	-3.99	-0.105	0.795928	0.533872	0.300364	0.114	0.4515	-0.0255	0	62	304	2
2026-02-11	16:02:27.410	-6.02	-3.465	-0.245	0.790072	0.532652	0.304756	0.1125	0.453	-0.024	0	59	311	3
2026-02-11	16:02:27.430	-2.275	-3.045	-0.49	0.787632	0.546804	0.298168	0.1155	0.456	-0.0195	0	59	311	3
2026-02-11	16:02:27.450	-2.415	-3.465	-1.365	0.784704	0.565104	0.286944	0.1185	0.456	-0.0225	0	59	311	3
2026-02-11	16:02:27.470	-6.335	-4.165	-2.52	0.785192	0.559736	0.286456	0.123	0.453	-0.0285	0	59	311	3
2026-02-11	16:02:27.490	-7.77	-4.795	-3.885	0.79056	0.544364	0.285236	0.12	0.4545	-0.024	0	59	311	3
2026-02-11	16:02:27.510	-7	-4.83	-4.9	0.795928	0.52582	0.291336	0.1125	0.456	-0.0255	0	59	311	3
2026-02-11	16:02:27.530	-8.925	-3.78	-5.005	0.793976	0.5063	0.296216	0.114	0.453	-0.0225	0	59	311	3
2026-02-11	16:02:27.550	-6.335	-3.92	-3.99	0.805688	0.525332	0.304756	0.1155	0.4545	-0.018	0	59	311	3
2026-02-11	16:02:27.570	-1.575	-4.445	-3.675	0.807884	0.550464	0.30256	0.1155	0.4575	-0.0225	0	59	311	3
2026-02-11	16:02:27.590	-3.01	-5.005	-4.935	0.804468	0.549244	0.292556	0.1155	0.4575	-0.027	0	59	311	3
2026-02-11	16:02:27.610	-7	-5.67	-6.16	0.801052	0.541192	0.293532	0.114	0.456	-0.027	0	58	313	3
2026-02-11	16:02:27.630	-13.37	-6.475	-6.405	0.800808	0.520452	0.300608	0.1185	0.459	-0.027	0	58	313	3
2026-02-11	16:02:27.650	-17.255	-6.51	-5.845	0.815692	0.493368	0.310368	0.12	0.462	-0.0255	0	58	313	3
2026-02-11	16:02:27.670	-13.44	-5.53	-5.32	0.821792	0.480436	0.308904	0.1125	0.4605	-0.021	0	58	313	3
2026-02-11	16:02:27.690	-6.72	-3.955	-5.18	0.83204	0.493612	0.310856	0.1125	0.4605	-0.0225	0	58	313	3
2026-02-11	16:02:27.710	-0.7	-2.065	-5.04	0.821792	0.518988	0.309148	0.12	0.4575	-0.024	0	58	313	3
2026-02-11	16:02:27.730	2.415	-0.665	-5.005	0.817644	0.527772	0.30866	0.12	0.456	-0.0195	0	58	313	3
2026-02-11	16:02:27.750	1.47	0.665	-4.62	0.836432	0.540704	0.328424	0.12	0.4575	-0.0165	0	58	313	3
2026-02-11	16:02:27.770	-1.715	3.675	-5.145	0.835944	0.537044	0.331596	0.1215	0.4575	-0.0165	0	58	313	3
2026-02-11	16:02:27.790	-0.805	6.335	-7.14	0.803736	0.5246	0.316956	0.1185	0.4575	-0.0165	0	58	313	3
2026-02-11	16:02:27.810	1.26	6.125	-8.68	0.745176	0.498004	0.295484	0.1155	0.4575	-0.0195	0	57	312	3
2026-02-11	16:02:27.830	4.06	3.535	-9.31	0.72224	0.488976	0.292556	0.117	0.456	-0.021	0	57	312	3
2026-02-11	16:02:27.850	10.535	-0.42	-8.54	0.748104	0.522648	0.304024	0.12	0.453	-0.0225	0	57	312	3
2026-02-11	16:02:27.870	14.14	-3.115	-7.105	0.754692	0.569252	0.322812	0.1185	0.453	-0.0225	0	57	312	3
2026-02-11	16:02:27.890	13.16	-4.305	-6.23	0.75396	0.59658	0.317444	0.1185	0.4515	-0.021	0	57	312	3
2026-02-11	16:02:27.910	10.5	-5.775	-5.04	0.789584	0.60756	0.304268	0.123	0.4455	-0.0255	0	57	312	3
2026-02-11	16:02:27.930	6.37	-5.355	-3.36	0.81862	0.62342	0.302804	0.1215	0.4455	-0.027	0	57	312	3
2026-02-11	16:02:27.950	-0.875	-3.255	-1.785	0.7991	0.64172	0.31354	0.1155	0.447	-0.0225	0	57	312	3
2026-02-11	16:02:27.970	-9.205	-2.38	-0.875	0.781776	0.63806	0.299876	0.117	0.4455	-0.024	0	57	312	3
2026-02-11	16:02:27.990	-15.575	-3.36	-0.805	0.791292	0.60756	0.291092	0.1185	0.4455	-0.027	0	57	312	3
2026-02-11	16:02:28.010	-22.96	-2.275	-1.295	0.809836	0.549	0.298412	0.12	0.4455	-0.027	0	56	312	3
2026-02-11	16:02:28.030	-23.835	-1.05	-2.135	0.78812	0.50752	0.285724	0.1185	0.4455	-0.0285	0	56	312	3
2026-02-11	16:02:28.050	-21.28	-1.505	-3.185	0.7808	0.472628	0.276452	0.117	0.45	-0.03	0	56	312	3
2026-02-11	16:02:28.070	-14.35	-3.255	-3.255	0.768356	0.46726	0.288164	0.1155	0.4515	-0.0285	0	56	312	3
2026-02-11	16:02:28.090	-4.13	-5.32	-2.765	0.767624	0.48922	0.289628	0.1215	0.447	-0.0225	0	56	312	3
2026-02-11	16:02:28.110	2.835	-6.895	-1.715	0.783728	0.521672	0.297192	0.1215	0.4455	-0.0195	0	56	312	3
2026-02-11	16:02:28.130	7.385	-7.21	-1.12	0.78934	0.564616	0.314028	0.1185	0.45	-0.0195	0	56	312	3
2026-02-11	16:02:28.150	7.35	-6.405	-1.155	0.778116	0.579256	0.327448	0.1215	0.4485	-0.0225	0	56	312	3
2026-02-11	16:02:28.170	6.51	-5.74	-1.26	0.78446	0.584624	0.317444	0.123	0.444	-0.0225	0	56	312	3
2026-02-11	16:02:28.190	5.11	-5.46	-0.84	0.803736	0.58682	0.304512	0.1215	0.4455	-0.0195	0	56	312	3
2026-02-11	16:02:28.210	2.485	-4.2	-0.455	0.799344	0.590236	0.310368	0.1185	0.447	-0.021	0	56	311	3
2026-02-11	16:02:28.230	-1.155	-3.185	-1.225	0.789096	0.571448	0.308416	0.1185	0.447	-0.021	0	56	311	3
2026-02-11	16:02:28.250	-5.775	-2.975	-1.855	0.778848	0.538264	0.302804	0.12	0.4425	-0.015	0	56	311	3
2026-02-11	16:02:28.270	-5.95	-2.94	-2.59	0.76616	0.515084	0.295972	0.1185	0.4395	-0.012	0	56	311	3
2026-02-11	16:02:28.290	-4.06	-2.905	-3.535	0.772504	0.488976	0.291824	0.12	0.4455	-0.018	0	56	311	3
2026-02-11	16:02:28.310	-2.485	-2.065	-3.675	0.770064	0.474824	0.304512	0.1215	0.447	-0.0165	0	56	311	3
2026-02-11	16:02:28.330	2.975	-2.695	-2.275	0.802516	0.470432	0.314028	0.123	0.447	-0.015	0	56	311	3
2026-02-11	16:02:28.350	10.85	-3.605	1.82	0.826916	0.493856	0.316468	0.1185	0.4395	-0.0165	0	56	311	3
2026-02-11	16:02:28.370	21.07	-3.605	5.215	0.803492	0.558028	0.312808	0.1185	0.4305	-0.015	0	56	311	3
2026-02-11	16:02:28.390	25.06	-3.955	5.775	0.79056	0.63196	0.28792	0.123	0.432	-0.0135	0	56	311	3
2026-02-11	16:02:28.410	17.78	-4.48	4.795	0.792512	0.647332	0.272792	0.1185	0.4335	-0.012	0	55	310	3
2026-02-11	16:02:28.430	6.3	-4.41	4.375	0.804224	0.62952	0.27938	0.1155	0.432	-0.012	0	55	310	3
2026-02-11	16:02:28.450	-2.03	-3.85	3.5	0.793244	0.601704	0.28182	0.1185	0.429	-0.015	0	55	310	3
2026-02-11	16:02:28.470	-6.37	-3.535	2.1	0.786168	0.572668	0.277672	0.1185	0.426	-0.0195	0	55	310	3
2026-02-11	16:02:28.490	-8.19	-3.745	0.42	0.777628	0.552904	0.269864	0.1155	0.4305	-0.0195	0	55	310	3
2026-02-11	16:02:28.510	-7.455	-3.605	-1.75	0.800076	0.536556	0.277916	0.117	0.4335	-0.0165	0	55	310	3
2026-02-11	16:02:28.530	-5.635	-2.975	-2.8	0.819108	0.52948	0.28548	0.1155	0.435	-0.012	0	55	310	3
2026-02-11	16:02:28.550	-2.45	-1.54	-3.36	0.811788	0.528016	0.288164	0.117	0.4365	-0.0105	0	55	310	3
2026-02-11	16:02:28.570	1.54	-0.49	-4.165	0.8113	0.53558	0.282552	0.12	0.4305	-0.0105	0	55	310	3
2026-02-11	16:02:28.590	3.395	0.07	-4.095	0.80398	0.546804	0.275476	0.1155	0.426	-0.0135	0	55	310	3
2026-02-11	16:02:28.610	4.06	-0.105	-3.395	0.8052	0.554368	0.273768	0.117	0.4275	-0.012	0	55	307	3
2026-02-11	16:02:28.630	3.745	-0.35	-2.45	0.794464	0.570472	0.279136	0.1185	0.4305	-0.0105	0	55	307	3
2026-02-11	16:02:28.650	1.015	-0.875	-1.715	0.782752	0.580964	0.276208	0.12	0.435	-0.015	0	55	307	3
2026-02-11	16:02:28.670	-0.35	-1.47	-1.295	0.779336	0.567056	0.261568	0.1215	0.429	-0.0135	0	55	307	3
2026-02-11	16:02:28.690	-0.98	-2.1	-0.56	0.788852	0.558516	0.256932	0.123	0.4215	-0.012	0	55	307	3
2026-02-11	16:02:28.710	-1.19	-2.765	-0.07	0.783484	0.554612	0.265472	0.1185	0.4245	-0.009	0	55	307	3
2026-02-11	16:02:28.730	-1.085	-3.64	-0.07	0.772016	0.540948	0.265472	0.1185	0.429	-0.009	0	55	307	3
2026-02-11	16:02:28.750	0.42	-4.55	-0.42	0.767624	0.528504	0.256444	0.1185	0.429	-0.012	0	55	307	3
2026-02-11	16:02:28.770	4.27	-5.53	-0.315	0.786656	0.529236	0.25864	0.1155	0.429	-0.009	0	55	307	3
2026-02-11	16:02:28.790	7.42	-6.125	0.315	0.791048	0.547292	0.268888	0.1125	0.4275	-0.006	0	55	307	3
2026-02-11	16:02:28.810	8.12	-6.265	0.7	0.7991	0.553636	0.27084	0.1185	0.423	-0.0075	0	53	302	3
2026-02-11	16:02:28.830	8.015	-6.09	1.085	0.79544	0.572668	0.26474	0.1275	0.4215	-0.009	0	53	302	3
2026-02-11	16:02:28.850	5.81	-6.125	1.995	0.80642	0.58682	0.249856	0.129	0.4215	-0.0105	0	53	302	3
2026-02-11	16:02:28.870	2.625	-5.915	2.8	0.800808	0.585844	0.244732	0.129	0.4215	-0.0105	0	53	302	3
2026-02-11	16:02:28.890	-0.77	-6.16	2.87	0.805688	0.581208	0.236924	0.1245	0.417	-0.0075	0	53	302	3
2026-02-11	16:02:28.910	-1.89	-6.37	3.01	0.81374	0.591212	0.252296	0.123	0.4125	-0.003	0	53	302	3
2026-02-11	16:02:28.930	-3.57	-6.265	2.66	0.802272	0.594872	0.26108	0.1245	0.4155	-0.0075	0	53	302	3
2026-02-11	16:02:28.950	-6.65	-6.545	1.54	0.799588	0.595116	0.244	0.1215	0.417	-0.0075	0	53	302	3
2026-02-11	16:02:28.970	-9.87	-6.475	0.07	0.800808	0.57218	0.2379	0.1245	0.414	-0.003	0	53	302	3
2026-02-11	16:02:28.990	-11.76	-6.3	-0.945	0.80764	0.548756	0.242536	0.1215	0.4125	-0.0075	0	53	302	3
2026-02-11	16:02:29.010	-11.55	-5.95	-1.015	0.822524	0.538508	0.253028	0.1185	0.414	-0.009	0	52	293	3
2026-02-11	16:02:29.030	-10.08	-5.11	-1.19	0.81618	0.5307	0.25498	0.12	0.4155	-0.006	0	52	293	3
2026-02-11	16:02:29.050	-7.315	-4.06	-1.75	0.810812	0.519232	0.25742	0.117	0.4125	-0.003	0	52	293	3
2026-02-11	16:02:29.070	-1.925	-3.15	-2.065	0.815692	0.52216	0.259128	0.132	0.4095	-0.0045	0	52	293	3
2026-02-11	16:02:29.090	1.085	-2.695	-0.84	0.82594	0.53924	0.25498	0.129	0.417	-0.0045	0	52	293	3
2026-02-11	16:02:29.110	0.665	-2.31	0.28	0.820084	0.536556	0.253028	0.1215	0.417	0	0	52	293	3
2026-02-11	16:02:29.130	0.875	-1.96	0.595	0.813984	0.53924	0.251808	0.117	0.4125	0.0015	0	52	293	3
2026-02-11	16:02:29.150	0.42	-2.135	0.98	0.809836	0.542412	0.253272	0.1185	0.417	0.0015	0	52	293	3
2026-02-11	16:02:29.170	0.63	-2.205	1.155	0.809104	0.543632	0.249124	0.1215	0.4155	0.003	0	52	293	3
2026-02-11	16:02:29.190	0.805	-2.555	1.435	0.81252	0.541436	0.247416	0.12	0.4125	-0.0015	0	52	293	3
2026-02-11	16:02:29.210	1.05	-2.905	1.995	0.81252	0.539484	0.24034	0.12	0.417	0	0	50	284	3
2026-02-11	16:02:29.230	1.785	-3.22	2.345	0.809836	0.545828	0.238632	0.1245	0.4185	0.003	0	50	284	3
2026-02-11	16:02:29.250	2.275	-3.395	2.52	0.815448	0.547048	0.248636	0.1275	0.414	0.0015	0	50	284	3
2026-02-11	16:02:29.270	2.17	-3.43	2.66	0.818864	0.555588	0.254248	0.126	0.411	-0.003	0	50	284	3
2026-02-11	16:02:29.290	1.33	-2.975	2.695	0.815936	0.550464	0.24644	0.1215	0.4155	0.006	0	50	284	3
2026-02-11	16:02:29.310	1.05	-2.625	2.31	0.81618	0.552904	0.245708	0.123	0.414	0.006	0	50	284	3
2026-02-11	16:02:29.330	-0.385	-2.345	1.89	0.812764	0.539972	0.236924	0.1275	0.4125	0.0045	0	50	284	3
2026-02-11	16:02:29.350	0.07	-2.205	1.61	0.81496	0.534848	0.238388	0.1275	0.4185	0.0045	0	50	284	3
2026-02-11	16:02:29.370	1.085	-2.205	1.47	0.81618	0.537532	0.246684	0.1245	0.4185	0.009	0	50	284	3
2026-02-11	16:02:29.390	1.575	-2.065	1.505	0.82472	0.542168	0.251564	0.1275	0.4155	0.0105	0	50	284	3
2026-02-11	16:02:29.410	2.17	-1.505	1.575	0.831064	0.55022	0.255224	0.129	0.417	0.0105	0	48	276	3
2026-02-11	16:02:29.430	2.485	-0.63	1.96	0.83082	0.557052	0.24522	0.1245	0.4185	0.0075	0	48	276	3
2026-02-11	16:02:29.450	1.68	0.455	1.61	0.82594	0.557784	0.229848	0.123	0.4185	0.003	0	48	276	3
2026-02-11	16:02:29.470	0.595	1.4	0.735	0.809348	0.540948	0.222528	0.117	0.4275	0.0105	0	48	276	3
2026-02-11	16:02:29.490	1.365	1.12	0.035	0.80398	0.53802	0.215696	0.126	0.4185	0.018	0	48	276	3
2026-02-11	16:02:29.510	0.91	-0.525	0.21	0.8113	0.548024	0.214964	0.123	0.42	0.012	0	48	276	3
2026-02-11	16:02:29.530	-0.735	-1.75	0.49	0.822036	0.545584	0.22204	0.1185	0.4185	0.006	0	48	276	3
2026-02-11	16:02:29.550	-1.085	-1.89	0.665	0.82838	0.53436	0.230092	0.1185	0.414	0.006	0	48	276	3
2026-02-11	16:02:29.570	0.98	-1.295	1.26	0.839116	0.527772	0.240828	0.1215	0.4155	0.006	0	48	276	3
2026-02-11	16:02:29.590	3.885	0	1.785	0.843508	0.534848	0.257664	0.126	0.414	0.006	0	48	276	3
2026-02-11	16:02:29.610	5.74	1.47	1.995	0.827648	0.546804	0.2562	0.126	0.417	0.0045	0	45	267	3
2026-02-11	16:02:29.630	5.32	2.695	1.995	0.813252	0.549488	0.240828	0.1245	0.417	0.006	0	45	267	3
2026-02-11	16:02:29.650	2.94	3.15	1.995	0.805444	0.548512	0.222284	0.1215	0.414	0.006	0	45	267	3
2026-02-11	16:02:29.670	0.77	3.01	2.03	0.809836	0.541192	0.212524	0.117	0.417	0.003	0	45	267	3
2026-02-11	16:02:29.690	-0.595	2.8	1.54	0.811056	0.53314	0.212524	0.126	0.4185	0.015	0	45	267	3
2026-02-11	16:02:29.710	0.49	2.38	0.455	0.81496	0.531188	0.224724	0.123	0.417	0.009	0	45	267	3
2026-02-11	16:02:29.730	1.925	2.24	-0.945	0.824232	0.537044	0.248148	0.12	0.4155	0.0105	0	45	267	3
2026-02-11	16:02:29.750	3.395	2.66	-2.1	0.820572	0.545828	0.246196	0.1215	0.4185	0.0135	0	45	267	3
2026-02-11	16:02:29.770	4.06	2.765	-2.52	0.825208	0.554612	0.237168	0.1245	0.4155	0.006	0	45	267	3
2026-02-11	16:02:29.790	3.325	2.8	-2.625	0.824964	0.549976	0.238632	0.126	0.411	-0.0015	0	45	267	3
2026-02-11	16:02:29.810	2.345	2.765	-2.625	0.822036	0.541192	0.239608	0.1305	0.4125	0.0015	0	42	260	2
2026-02-11	16:02:29.830	2.03	2.59	-2.03	0.819596	0.52948	0.244244	0.126	0.4185	0.006	0	42	260	2
2026-02-11	16:02:29.850	3.5	2.415	-1.295	0.820084	0.53314	0.240828	0.1215	0.4185	0.0075	0	42	260	2
2026-02-11	16:02:29.870	4.795	2.275	-0.595	0.818132	0.554368	0.230092	0.123	0.4155	0.0045	0	42	260	2
2026-02-11	16:02:29.890	3.325	2.03	-0.455	0.810324	0.574132	0.229604	0.12	0.42	0.006	0	42	260	2
2026-02-11	16:02:29.910	-0.14	1.19	-0.98	0.802516	0.570716	0.240584	0.126	0.4215	0.009	0	42	260	2
2026-02-11	16:02:29.930	-4.585	0.14	-0.77	0.810568	0.544608	0.24522	0.126	0.4125	0.0075	0	42	260	2
2026-02-11	16:02:29.950	-5.32	0.175	-0.105	0.80886	0.5429	0.247904	0.1245	0.4155	0.0015	0	42	260	2
2026-02-11	16:02:29.970	-5.32	0	0.07	0.802516	0.556564	0.245708	0.123	0.4155	0.003	0	42	260	2
2026-02-11	16:02:29.990	-6.195	-0.91	-0.595	0.804468	0.556808	0.246196	0.1185	0.417	0.006	0	42	260	2
2026-02-11	16:02:30.010	-7.98	-1.54	-0.875	0.81862	0.543876	0.25376	0.1185	0.42	0.0015	0	39	255	2
2026-02-11	16:02:30.030	-7.525	-1.225	-0.77	0.820572	0.517768	0.249368	0.12	0.4155	0.003	0	39	255	2
2026-02-11	16:02:30.050	-5.25	-1.015	-0.42	0.81618	0.51728	0.247172	0.1215	0.417	0.0105	0	39	255	2
2026-02-11	16:02:30.070	-3.43	-0.805	-0.105	0.813252	0.521428	0.248392	0.123	0.42	0.012	0	39	255	2
2026-02-11	16:02:30.090	-1.05	-0.735	0.14	0.816424	0.529724	0.242048	0.1245	0.4185	0.0075	0	39	255	2
2026-02-11	16:02:30.110	-0.175	-0.735	0.455	0.819352	0.544364	0.234484	0.129	0.423	0.012	0	39	255	2
2026-02-11	16:02:30.130	-1.33	-0.63	0.525	0.814716	0.550708	0.241804	0.1215	0.4185	0.012	0	39	255	2
2026-02-11	16:02:30.150	-3.01	-0.875	-0.035	0.808128	0.55998	0.24156	0.1215	0.4185	0.012	0	39	255	2
2026-02-11	16:02:30.170	-4.34	-1.47	-0.35	0.813008	0.55388	0.232532	0.123	0.4215	0.0075	0	39	255	2
2026-02-11	16:02:30.190	-4.76	-1.89	-0.525	0.818864	0.552172	0.231312	0.126	0.4185	0.003	0	39	255	2
2026-02-11	16:02:30.210	-4.025	-2.24	-0.595	0.820084	0.549488	0.231556	0.1245	0.42	0.003	0	36	252	2
2026-02-11	16:02:30.230	-2.94	-2.695	-0.525	0.81496	0.535824	0.232532	0.123	0.4215	0.006	0	36	252	2
2026-02-11	16:02:30.250	-2.73	-3.115	-0.07	0.816668	0.51484	0.244	0.1215	0.414	0.0045	0	36	252	2
2026-02-11	16:02:30.270	-1.995	-2.94	0.49	0.818864	0.508984	0.254492	0.123	0.4155	0.003	0	36	252	2
2026-02-11	16:02:30.290	-0.63	-2.415	1.19	0.820816	0.510204	0.247904	0.126	0.4185	0.006	0	36	252	2
2026-02-11	16:02:30.310	0.175	-1.89	1.68	0.821304	0.50996	0.238388	0.117	0.417	0.0045	0	36	252	2
2026-02-11	16:02:30.330	1.47	-1.33	1.855	0.824232	0.522404	0.241316	0.1215	0.42	0.0105	0	36	252	2
2026-02-11	16:02:30.350	2.31	-0.91	1.26	0.819108	0.529724	0.229848	0.1215	0.423	0.0075	0	36	252	2
2026-02-11	16:02:30.370	2.625	-1.015	0.42	0.82228	0.549488	0.233508	0.123	0.423	0.0045	0	36	252	2
2026-02-11	16:02:30.390	2.065	-0.875	-0.07	0.829844	0.548756	0.242048	0.12	0.423	0.006	0	36	252	2
2026-02-11	16:02:30.410	1.61	-0.21	-0.28	0.827404	0.558272	0.252052	0.1215	0.423	0.009	0	34	250	2
2026-02-11	16:02:30.430	0.875	0.84	-0.63	0.8235	0.558028	0.250832	0.1215	0.42	0.0045	0	34	250	2
2026-02-11	16:02:30.450	-0.595	0.91	-0.42	0.819596	0.546072	0.245708	0.1185	0.417	0.0015	0	34	250	2
2026-02-11	16:02:30.470	-1.96	0.7	0.035	0.82716	0.54046	0.24034	0.12	0.417	0.0015	0	34	250	2
2026-02-11	16:02:30.490	-3.99	0.945	0	0.819596	0.525088	0.23058	0.1215	0.4185	0.0015	0	34	250	2
2026-02-11	16:02:30.510	-2.94	0.525	-0.385	0.827648	0.535824	0.240584	0.12	0.4215	0.012	0	34	250	2
2026-02-11	16:02:30.530	-2.52	0.49	-0.7	0.836676	0.547536	0.245464	0.1215	0.42	0.006	0	34	250	2
2026-02-11	16:02:30.550	-4.83	1.05	-0.875	0.835212	0.532408	0.249124	0.117	0.423	0	0	34	250	2
2026-02-11	16:02:30.570	-6.965	1.645	-0.07	0.834724	0.522404	0.250588	0.1245	0.423	0.003	0	34	250	2
2026-02-11	16:02:30.590	-7.105	2.485	0.28	0.829844	0.520696	0.257176	0.123	0.42	0.003	0	34	250	2
2026-02-11	16:02:30.610	-4.41	3.01	0.07	0.821792	0.531676	0.246196	0.123	0.4185	0.0015	0	31	249	2
2026-02-11	16:02:30.630	-2.345	3.01	-0.175	0.82106	0.543144	0.238632	0.1215	0.423	0.0015	0	31	249	2
2026-02-11	16:02:30.650	-3.605	2.695	-0.49	0.813252	0.541924	0.246928	0.12	0.423	0.0015	0	31	249	2
2026-02-11	16:02:30.670	-7.525	2.03	-0.315	0.816424	0.532652	0.265472	0.1155	0.4275	0	0	31	249	2
2026-02-11	16:02:30.690	-9.345	1.68	-0.665	0.812764	0.5429	0.274744	0.1125	0.432	0.003	0	31	249	2
2026-02-11	16:02:30.710	-14.945	1.225	0.455	0.823012	0.532408	0.26596	0.111	0.417	0.009	0	31	249	2
2026-02-11	16:02:30.730	-24.255	1.085	2.625	0.828136	0.505324	0.26352	0.1185	0.4275	0.006	0	31	249	2
2026-02-11	16:02:30.750	-30.905	1.085	4.725	0.823988	0.468236	0.262788	0.1215	0.4245	0	0	31	249	2
2026-02-11	16:02:30.770	-28.385	1.19	6.23	0.808128	0.43798	0.277672	0.1125	0.4275	0	0	31	249	2
2026-02-11	16:02:30.790	-12.11	0.77	6.125	0.817156	0.5002	0.288164	0.1125	0.4275	0	0	31	249	2
2026-02-11	16:02:30.810	-3.955	0.35	5.04	0.816668	0.530944	0.257664	0.1155	0.432	0	0	29	250	2
2026-02-11	16:02:30.830	-2.205	-1.085	3.605	0.816912	0.545828	0.245708	0.123	0.438	-0.003	0	29	250	2
2026-02-11	16:02:30.850	-5.635	-2.625	2.59	0.826672	0.541436	0.27084	0.1245	0.438	-0.0105	0	29	250	2
2026-02-11	16:02:30.870	-9.38	-2.835	1.995	0.831308	0.525332	0.30622	0.1185	0.435	-0.012	0	29	250	2
2026-02-11	16:02:30.890	-9.205	-1.61	1.295	0.835944	0.512888	0.316224	0.1155	0.438	-0.009	0	29	250	2
2026-02-11	16:02:30.910	-5.6	0.175	0.7	0.834968	0.492148	0.303292	0.1155	0.4425	-0.0075	0	29	250	2
2026-02-11	16:02:30.930	-1.365	1.54	0.105	0.830332	0.497272	0.282796	0.123	0.438	-0.0075	0	29	250	2
2026-02-11	16:02:30.950	0.91	1.995	-0.42	0.824232	0.504104	0.273768	0.114	0.4395	-0.0105	0	29	250	2
2026-02-11	16:02:30.970	0.07	1.82	-0.735	0.828136	0.499956	0.276208	0.114	0.435	-0.006	0	29	250	2
2026-02-11	16:02:30.990	0.28	1.505	-1.155	0.826672	0.510692	0.28182	0.114	0.4425	0	0	29	250	2
2026-02-11	16:02:31.010	0.42	1.155	-1.19	0.825696	0.516792	0.283772	0.117	0.441	-0.003	0	28	255	2
2026-02-11	16:02:31.030	-0.98	1.015	-0.98	0.820572	0.515328	0.278648	0.1185	0.4395	-0.012	0	28	255	2
2026-02-11	16:02:31.050	-1.89	0.56	-1.05	0.811056	0.515572	0.27694	0.117	0.4335	-0.015	0	28	255	2
2026-02-11	16:02:31.070	-3.815	-0.385	-0.735	0.824964	0.511424	0.280356	0.12	0.4335	-0.0105	0	28	255	2
2026-02-11	16:02:31.090	-4.585	-0.665	-0.525	0.822036	0.510936	0.293288	0.12	0.4335	-0.0045	0	28	255	2
2026-02-11	16:02:31.110	-4.27	-0.595	-0.49	0.8235	0.511912	0.290116	0.1155	0.4305	0	0	28	255	2
2026-02-11	16:02:31.130	-5.25	-0.56	-0.385	0.823744	0.508496	0.288164	0.1155	0.4425	-0.006	0	28	255	2
2026-02-11	16:02:31.150	-6.51	-0.875	-0.28	0.818376	0.500932	0.283284	0.117	0.441	-0.018	0	28	255	2
2026-02-11	16:02:31.170	-6.16	-1.33	-0.105	0.824476	0.49532	0.282796	0.1245	0.4365	-0.0165	0	28	255	2
2026-02-11	16:02:31.190	-5.845	-1.82	0.105	0.828136	0.490928	0.284992	0.123	0.4365	-0.0105	0	28	255	2
2026-02-11	16:02:31.210	-3.85	-1.855	0.21	0.823744	0.498004	0.292556	0.1245	0.441	-0.0075	0	27	263	2
2026-02-11	16:02:31.230	-2.485	-1.68	-0.035	0.8235	0.500688	0.291336	0.1185	0.441	-0.0075	0	27	263	2
2026-02-11	16:02:31.250	-1.61	-1.715	-0.35	0.822768	0.497516	0.28914	0.1155	0.4455	-0.0075	0	27	263	2
2026-02-11	16:02:31.270	-1.155	-1.925	-0.35	0.832284	0.499224	0.28548	0.117	0.4455	-0.009	0	27	263	2
2026-02-11	16:02:31.290	-1.155	-1.995	-0.105	0.834236	0.499712	0.289628	0.1185	0.4365	-0.0105	0	27	263	2
2026-02-11	16:02:31.310	-1.645	-1.855	-0.035	0.830088	0.496052	0.292312	0.1185	0.4335	-0.0105	0	27	263	2
2026-02-11	16:02:31.330	-1.225	-1.68	-0.14	0.826916	0.498004	0.297924	0.117	0.438	-0.0015	0	27	263	2
2026-02-11	16:02:31.350	-0.91	-1.505	0	0.827892	0.503616	0.294508	0.1155	0.435	-0.009	0	27	263	2
2026-02-11	16:02:31.370	-1.05	-1.4	0.07	0.82472	0.505324	0.284504	0.12	0.4365	-0.0105	0	27	263	2
2026-02-11	16:02:31.390	-0.735	-1.575	0.035	0.823012	0.500932	0.274988	0.1155	0.441	-0.0075	0	27	263	2
2026-02-11	16:02:31.410	-0.7	-2.03	-0.07	0.826916	0.496296	0.283528	0.1215	0.4365	-0.012	0	27	270	2
2026-02-11	16:02:31.430	0.63	-1.925	-0.07	0.831308	0.499224	0.292556	0.1215	0.4365	-0.012	0	27	270	2
2026-02-11	16:02:31.450	2.94	-1.47	-0.35	0.839848	0.498004	0.30744	0.12	0.4365	-0.009	0	27	270	2
2026-02-11	16:02:31.470	7.105	-0.49	-1.295	0.842776	0.508008	0.312076	0.12	0.4365	-0.0105	0	27	270	2
2026-02-11	16:02:31.490	10.36	0.63	-3.465	0.834968	0.524844	0.298412	0.12	0.438	-0.0045	0	27	270	2
2026-02-11	16:02:31.510	9.065	0.385	-5.18	0.833992	0.500688	0.265228	0.1185	0.441	0	0	27	270	2
2026-02-11	16:02:31.530	10.115	0	-5.67	0.824964	0.492392	0.259616	0.1185	0.441	-0.0045	0	27	270	2
2026-02-11	16:02:31.550	10.535	-1.12	-5.6	0.828868	0.506544	0.268888	0.111	0.432	-0.009	0	27	270	2
2026-02-11	16:02:31.570	7.98	-1.47	-5.04	0.828624	0.507276	0.283528	0.1155	0.435	-0.0075	0	27	270	2
2026-02-11	16:02:31.590	5.635	-1.295	-4.235	0.828624	0.502396	0.290604	0.117	0.4335	-0.0075	0	27	270	2
2026-02-11	16:02:31.610	3.255	-0.595	-2.8	0.82838	0.504104	0.28792	0.12	0.432	-0.0075	0	26	277	2
2026-02-11	16:02:31.630	0.875	0.665	-0.455	0.824964	0.484828	0.28548	0.117	0.432	0	0	26	277	2
2026-02-11	16:02:31.650	3.955	1.365	0.805	0.815936	0.521916	0.282796	0.117	0.432	0	0	26	277	2
2026-02-11	16:02:31.670	3.29	0.98	0.525	0.820328	0.537776	0.272792	0.111	0.4335	0	0	26	277	2
2026-02-11	16:02:31.690	0.7	0.315	-0.35	0.8235	0.531676	0.264496	0.117	0.4335	0	0	26	277	2
2026-02-11	16:02:31.710	-2.1	-0.21	-0.805	0.827892	0.519476	0.264984	0.1245	0.4335	-0.003	0	26	277	2
2026-02-11	16:02:31.730	-3.745	-0.21	-0.98	0.824964	0.49898	0.281576	0.1215	0.4365	-0.0045	0	26	277	2
2026-02-11	16:02:31.750	-1.925	0.315	-1.26	0.831064	0.50264	0.29158	0.1125	0.4305	0	0	26	277	2
2026-02-11	16:02:31.770	1.61	0.91	-1.82	0.827648	0.515572	0.284748	0.123	0.438	0	0	26	277	2
2026-02-11	16:02:31.790	1.96	0.91	-2.205	0.83326	0.526308	0.27084	0.1155	0.435	-0.0075	0	26	277	2
2026-02-11	16:02:31.810	-0.525	0.875	-2.275	0.832772	0.515084	0.27328	0.1215	0.4335	-0.0015	0	25	280	2
2026-02-11	16:02:31.830	-1.785	1.015	-1.995	0.825208	0.50386	0.27206	0.117	0.4395	-0.0075	0	25	280	2
2026-02-11	16:02:31.850	-1.575	1.4	-0.875	0.82838	0.4941	0.281576	0.12	0.4335	0.003	0	25	280	2
2026-02-11	16:02:31.870	-0.385	1.82	-0.07	0.833748	0.498248	0.284748	0.12	0.435	0.0015	0	25	280	2
2026-02-11	16:02:31.890	-0.175	2.17	0.175	0.833992	0.510204	0.286944	0.117	0.438	-0.0045	0	25	280	2
2026-02-11	16:02:31.910	-3.395	2.59	0.525	0.829356	0.501908	0.285724	0.114	0.4365	-0.0075	0	25	280	2
2026-02-11	16:02:31.930	-6.37	3.01	1.33	0.8296	0.490684	0.289628	0.1155	0.4335	-0.0045	0	25	280	2
2026-02-11	16:02:31.950	-5.25	3.43	2.1	0.826184	0.481656	0.281088	0.1095	0.4305	-0.0045	0	25	280	2
2026-02-11	16:02:31.970	0.28	3.325	1.855	0.826916	0.50752	0.275476	0.1155	0.438	-0.0075	0	25	280	2
2026-02-11	16:02:31.990	3.255	3.15	0.875	0.822768	0.523136	0.282552	0.12	0.4425	-0.009	0	25	280	2
2026-02-11	16:02:32.010	3.255	2.555	-0.14	0.820084	0.522404	0.285724	0.12	0.4425	-0.009	0	24	282	2
2026-02-11	16:02:32.030	1.925	2.135	-0.07	0.813984	0.51362	0.28182	0.114	0.4365	-0.015	0	24	282	2
2026-02-11	16:02:32.050	-0.385	1.33	0.42	0.817156	0.501664	0.284992	0.1215	0.4275	-0.0105	0	24	282	2
2026-02-11	16:02:32.070	0.56	1.12	1.33	0.821304	0.507032	0.289384	0.1215	0.4275	-0.0105	0	24	282	2
2026-02-11	16:02:32.090	1.015	1.085	1.505	0.825696	0.515816	0.289628	0.12	0.4365	-0.0135	0	24	282	2
2026-02-11	16:02:32.110	0.98	1.015	1.33	0.821548	0.516304	0.286212	0.12	0.438	-0.0135	0	24	282	2
2026-02-11	16:02:32.130	0.56	0.84	1.12	0.828136	0.523624	0.284016	0.123	0.432	-0.0105	0	24	282	2
2026-02-11	16:02:32.150	-0.42	0.735	0.595	0.822768	0.521428	0.283772	0.1095	0.4335	-0.012	0	24	282	2
2026-02-11	16:02:32.170	-0.7	0.84	-0.21	0.822768	0.517036	0.293288	0.1185	0.4305	-0.0135	0	24	282	2
2026-02-11	16:02:32.190	-0.455	1.05	-0.91	0.8296	0.516304	0.289872	0.117	0.438	-0.015	0	24	282	2
2026-02-11	16:02:32.210	-0.35	1.19	-1.155	0.824964	0.50874	0.287188	0.1215	0.435	-0.0075	0	23	284	2
2026-02-11	16:02:32.230	-0.105	1.12	-1.12	0.822524	0.509472	0.286456	0.117	0.426	-0.015	0	23	284	2
2026-02-11	16:02:32.250	0.14	0.945	-1.155	0.824476	0.5124	0.284992	0.1215	0.447	-0.0165	0	23	284	2
2026-02-11	16:02:32.270	0.035	0.7	-1.12	0.820084	0.515084	0.288652	0.12	0.441	-0.0075	0	23	284	2
2026-02-11	16:02:32.290	0.28	0.525	-1.26	0.819108	0.518256	0.293288	0.117	0.447	-0.0105	0	23	284	2
2026-02-11	16:02:32.310	0.175	0.315	-1.54	0.81496	0.51484	0.29036	0.1125	0.4455	-0.012	0	23	284	2
2026-02-11	16:02:32.330	-0.805	0	-1.4	0.819596	0.506056	0.28304	0.1125	0.4365	-0.0105	0	23	284	2
2026-02-11	16:02:32.350	-1.61	-0.42	-0.875	0.820328	0.50386	0.283528	0.117	0.4365	-0.0105	0	23	284	2
2026-02-11	16:02:32.370	-1.785	-0.595	-0.42	0.819108	0.504592	0.28792	0.1155	0.4425	-0.006	0	23	284	2
2026-02-11	16:02:32.390	-0.805	-0.35	-0.35	0.824232	0.510448	0.294752	0.12	0.441	-0.0165	0	23	284	2
2026-02-11	16:02:32.410	0.35	-0.14	-0.84	0.82228	0.521184	0.288164	0.12	0.4425	-0.012	0	22	285	2
2026-02-11	16:02:32.430	0.14	0	-1.155	0.819352	0.511424	0.2806	0.1215	0.438	-0.0105	0	22	285	2
2026-02-11	16:02:32.450	-0.735	-0.28	-1.19	0.8235	0.506544	0.287188	0.114	0.4365	-0.0195	0	22	285	2
2026-02-11	16:02:32.470	-0.77	-0.315	-0.84	0.822768	0.504592	0.291824	0.114	0.444	-0.0165	0	22	285	2
2026-02-11	16:02:32.490	0.42	-0.28	-0.945	0.823256	0.508496	0.288408	0.123	0.444	-0.0165	0	22	285	2
2026-02-11	16:02:32.510	0.49	-0.35	-0.91	0.822768	0.50996	0.291824	0.1215	0.4365	-0.015	0	22	285	2
2026-02-11	16:02:32.530	0.56	-0.385	-0.84	0.818376	0.514596	0.2867	0.123	0.435	-0.0165	0	22	285	2
2026-02-11	16:02:32.550	-0.035	-0.56	-0.7	0.82228	0.507764	0.285724	0.1245	0.441	-0.0195	0	22	285	2
2026-02-11	16:02:32.570	-0.315	-0.665	-0.455	0.824232	0.515328	0.292068	0.114	0.438	-0.009	0	22	285	2
2026-02-11	16:02:32.590	-0.385	-0.805	-0.42	0.818376	0.51484	0.290848	0.1185	0.444	-0.0105	0	22	285	2
2026-02-11	16:02:32.610	-0.175	-0.77	-0.7	0.817156	0.517036	0.292312	0.1155	0.4365	-0.015	0	20	287	2
2026-02-11	16:02:32.630	-0.14	-0.84	-1.085	0.818132	0.517768	0.284992	0.114	0.435	-0.009	0	20	287	2
2026-02-11	16:02:32.650	0	-1.085	-1.54	0.816668	0.514352	0.283772	0.117	0.438	-0.006	0	20	287	2
2026-02-11	16:02:32.670	0.385	-1.225	-1.925	0.823988	0.512644	0.282064	0.1215	0.4365	-0.0105	0	20	287	2
2026-02-11	16:02:32.690	0.49	-1.4	-2.1	0.827404	0.514596	0.283528	0.1155	0.4365	-0.0075	0	20	287	2
2026-02-11	16:02:32.710	-0.98	-1.54	-1.96	0.830088	0.508252	0.288408	0.1155	0.4365	-0.0075	0	20	287	2
2026-02-11	16:02:32.730	-0.945	-1.26	-1.715	0.827648	0.507276	0.289384	0.117	0.438	-0.0045	0	20	287	2
2026-02-11	16:02:32.750	-0.315	-0.84	-1.4	0.829356	0.510692	0.291092	0.1185	0.4365	-0.006	0	20	287	2
2026-02-11	16:02:32.770	-0.07	-0.49	-1.085	0.824964	0.508008	0.287188	0.1185	0.435	-0.009	0	20	287	2
2026-02-11	16:02:32.790	0.105	-0.28	-1.12	0.821304	0.514596	0.285236	0.1215	0.441	-0.0045	0	20	287	2
2026-02-11	16:02:32.810	-0.63	-0.21	-1.085	0.820084	0.505324	0.283284	0.117	0.4395	-0.009	0	19	289	2
2026-02-11	16:02:32.830	-1.155	-0.385	-0.63	0.826428	0.496296	0.281332	0.114	0.4395	-0.006	0	19	289	2
2026-02-11	16:02:32.850	0.525	-0.28	-0.42	0.823256	0.508252	0.288164	0.1155	0.4425	-0.006	0	19	289	2
2026-02-11	16:02:32.870	1.365	-0.105	-0.385	0.823256	0.512888	0.28426	0.114	0.444	-0.006	0	19	289	2
2026-02-11	16:02:32.890	0.91	-0.035	-0.42	0.821304	0.511424	0.277672	0.114	0.4395	-0.006	0	19	289	2
2026-02-11	16:02:32.910	0.98	0	-0.455	0.820328	0.511668	0.288164	0.1125	0.4425	-0.0015	0	19	289	2
2026-02-11	16:02:32.930	1.435	0	-0.455	0.820572	0.518744	0.28426	0.1125	0.4425	-0.0015	0	19	289	2
2026-02-11	16:02:32.950	0.7	-0.07	-0.525	0.815448	0.515084	0.286944	0.1155	0.438	-0.0045	0	19	289	2
2026-02-11	16:02:32.970	-0.14	-0.105	-0.56	0.820084	0.513376	0.287432	0.1185	0.435	-0.009	0	19	289	2
2026-02-11	16:02:32.990	-0.14	-0.035	-0.49	0.822768	0.51118	0.289872	0.114	0.4425	-0.0135	0	19	289	2
2026-02-11	16:02:33.010	0.315	-0.035	-0.385	0.821792	0.513132	0.283284	0.1155	0.444	-0.0105	0	17	290	2
2026-02-11	16:02:33.030	0.385	-0.14	-0.49	0.823988	0.5185	0.283772	0.117	0.447	-0.009	0	17	290	2
2026-02-11	16:02:33.050	0.315	-0.175	-0.595	0.824232	0.515328	0.287432	0.114	0.438	-0.015	0	17	290	2
2026-02-11	16:02:33.070	0.56	-0.245	-0.63	0.815936	0.518744	0.284992	0.1185	0.435	-0.0015	0	17	290	2
2026-02-11	16:02:33.090	0.07	-0.525	-0.56	0.815448	0.520452	0.280844	0.1155	0.432	-0.006	0	17	290	2
2026-02-11	16:02:33.110	-0.735	-0.875	-0.525	0.817156	0.516792	0.2867	0.117	0.438	-0.0075	0	17	290	2
2026-02-11	16:02:33.130	-0.98	-0.98	-0.595	0.821304	0.524844	0.292556	0.1215	0.438	-0.0075	0	17	290	2
2026-02-11	16:02:33.150	-0.875	-0.665	-0.665	0.824232	0.520452	0.2928	0.123	0.4365	-0.0045	0	17	290	2
2026-02-11	16:02:33.170	-0.525	-0.35	-0.945	0.81618	0.527772	0.28304	0.1245	0.4365	-0.003	0	17	290	2
2026-02-11	16:02:33.190	-1.54	-0.595	-1.505	0.81862	0.516304	0.27816	0.117	0.4335	-0.0015	0	17	290	2
2026-02-11	16:02:33.210	-2.66	-0.805	-1.54	0.82106	0.499956	0.28304	0.1215	0.4365	-0.012	0	15	290	2
2026-02-11	16:02:33.230	-2.03	-0.77	-1.015	0.82472	0.492636	0.285236	0.132	0.4335	-0.0075	0	15	290	2
2026-02-11	16:02:33.250	0	-0.385	-0.525	0.826184	0.501176	0.291092	0.12	0.444	-0.015	0	15	290	2
2026-02-11	16:02:33.270	1.155	-0.035	-0.315	0.822036	0.515816	0.2867	0.1185	0.45	-0.003	0	15	290	2
2026-02-11	16:02:33.290	1.085	0	-0.385	0.817644	0.524844	0.284016	0.12	0.4335	-0.012	0	15	290	2
2026-02-11	16:02:33.310	0.49	-0.42	-0.455	0.817644	0.515328	0.27694	0.1215	0.444	-0.006	0	15	290	2
2026-02-11	16:02:33.330	0.805	-0.805	-0.665	0.823744	0.518012	0.283528	0.1185	0.4455	-0.0075	0	15	290	2
2026-02-11	16:02:33.350	2.695	-0.63	-1.33	0.822036	0.52094	0.286212	0.1185	0.4455	-0.0075	0	15	290	2
2026-02-11	16:02:33.370	3.045	-0.245	-1.82	0.824964	0.511912	0.287676	0.1185	0.4455	-0.0075	0	15	290	2
2026-02-11	16:02:33.390	3.08	-0.245	-1.645	0.827404	0.501908	0.285968	0.123	0.4395	-0.009	0	15	290	2
2026-02-11	16:02:33.410	4.62	-0.21	-1.19	0.822036	0.51606	0.279136	0.123	0.435	-0.006	0	14	290	2
2026-02-11	16:02:33.430	4.27	-0.595	-0.875	0.820084	0.521916	0.27694	0.12	0.435	-0.012	0	14	290	2
2026-02-11	16:02:33.450	1.785	-0.84	-0.595	0.819352	0.524844	0.28182	0.1185	0.438	0	0	14	290	2
2026-02-11	16:02:33.470	-0.245	-0.735	-0.315	0.822524	0.520208	0.2867	0.1155	0.4395	-0.0045	0	14	290	2
2026-02-11	16:02:33.490	-0.07	-0.665	-0.07	0.822036	0.51972	0.278404	0.1185	0.435	-0.006	0	14	290	2
2026-02-11	16:02:33.510	-0.315	-0.77	0.105	0.817644	0.522892	0.271572	0.1215	0.429	0.0015	0	14	290	2
2026-02-11	16:02:33.530	-0.63	-1.085	0	0.81374	0.518256	0.273036	0.1185	0.4395	-0.003	0	14	290	2
2026-02-11	16:02:33.550	-0.49	-1.575	-0.35	0.81984	0.511424	0.275232	0.12	0.4335	0	0	14	290	2
2026-02-11	16:02:33.570	-0.525	-1.75	-0.455	0.828868	0.515816	0.288652	0.12	0.4335	0	0	14	290	2
2026-02-11	16:02:33.590	-0.385	-1.155	-0.385	0.837896	0.519476	0.282796	0.1125	0.432	0.0015	0	14	290	2
2026-02-11	16:02:33.610	0	-0.245	-0.595	0.829112	0.522404	0.281088	0.1215	0.441	0.003	0	13	289	2
2026-02-11	16:02:33.630	-0.455	0.21	-0.735	0.820572	0.512644	0.276208	0.114	0.435	0.006	0	13	289	2
2026-02-11	16:02:33.650	0.14	0.35	-0.875	0.823256	0.510448	0.272304	0.1245	0.444	-0.0075	0	13	289	2
2026-02-11	16:02:33.670	0.63	0.175	-1.05	0.827404	0.51606	0.27572	0.12	0.435	0.0075	0	13	289	2
2026-02-11	16:02:33.690	0.315	0.175	-1.085	0.824964	0.511424	0.27206	0.117	0.4335	-0.0045	0	13	289	2
2026-02-11	16:02:33.710	0.105	0.175	-0.84	0.818864	0.502396	0.270108	0.123	0.438	-0.003	0	13	289	2
2026-02-11	16:02:33.730	0.7	0	-0.035	0.822768	0.50264	0.269376	0.123	0.441	0.0015	0	13	289	2
2026-02-11	16:02:33.750	1.575	-0.21	0.7	0.81862	0.510692	0.276452	0.1155	0.4395	0	0	13	289	2
2026-02-11	16:02:33.770	1.365	-0.315	1.295	0.825452	0.517524	0.27206	0.1185	0.45	-0.0015	0	13	289	2
2026-02-11	16:02:33.790	0.175	-0.245	1.785	0.830332	0.522892	0.269864	0.1215	0.4335	0.0015	0	13	289	2
2026-02-11	16:02:33.810	-0.595	-0.105	2.345	0.836188	0.522648	0.272548	0.1185	0.441	-0.003	0	12	288	2
2026-02-11	16:02:33.830	-0.175	-0.105	2.345	0.837652	0.54168	0.279136	0.1155	0.441	-0.0075	0	12	288	2
2026-02-11	16:02:33.850	-0.945	-0.14	1.54	0.832528	0.552904	0.277672	0.1215	0.438	-0.0075	0	12	288	2
2026-02-11	16:02:33.870	-4.27	-0.28	0.595	0.8296	0.531188	0.27938	0.1215	0.438	0	0	12	288	2
2026-02-11	16:02:33.890	-6.545	-0.42	0.175	0.8235	0.504592	0.282552	0.12	0.4395	0.0015	0	12	288	2
2026-02-11	16:02:33.910	-6.09	-0.63	0.28	0.81374	0.486048	0.28426	0.1065	0.432	-0.003	0	12	288	2
2026-02-11	16:02:33.930	-3.85	-0.735	0.595	0.814716	0.482632	0.282064	0.1155	0.441	-0.0075	0	12	288	2
2026-02-11	16:02:33.950	-2.17	-0.98	1.015	0.815692	0.483852	0.277184	0.123	0.4365	-0.009	0	12	288	2
2026-02-11	16:02:33.970	-0.665	-1.225	1.47	0.8174	0.493856	0.277428	0.1185	0.438	-0.0015	0	12	288	2
2026-02-11	16:02:33.990	0.385	-1.225	1.47	0.821548	0.516792	0.285968	0.117	0.4425	0	0	12	288	2
2026-02-11	16:02:34.010	-0.28	-0.805	1.19	0.83082	0.514596	0.280844	0.111	0.441	0	0	12	286	2
2026-02-11	16:02:34.030	-0.84	-0.315	0.945	0.830332	0.507764	0.282552	0.117	0.4365	-0.0045	0	12	286	2
2026-02-11	16:02:34.050	-0.735	0	0.665	0.833504	0.504592	0.278892	0.114	0.441	-0.0045	0	12	286	2
2026-02-11	16:02:34.070	-0.28	0.42	0.42	0.835456	0.498492	0.281576	0.114	0.441	-0.0015	0	12	286	2
2026-02-11	16:02:34.090	0.735	1.085	0	0.833992	0.498004	0.279868	0.1155	0.4395	-0.0165	0	12	286	2
2026-02-11	16:02:34.110	2.415	1.26	-0.595	0.827404	0.507032	0.278648	0.1185	0.438	-0.003	0	12	286	2
2026-02-11	16:02:34.130	2.94	1.085	-0.805	0.826428	0.513864	0.281088	0.1185	0.4395	0	0	12	286	2
2026-02-11	16:02:34.150	2.59	0.945	-0.735	0.826916	0.515328	0.282064	0.114	0.441	0	0	12	286	2
2026-02-11	16:02:34.170	1.925	0.84	-0.595	0.8235	0.520696	0.28182	0.123	0.441	0	0	12	286	2
2026-02-11	16:02:34.190	0.63	0.77	-0.7	0.8235	0.515572	0.283772	0.1185	0.438	0.0075	0	12	286	2
2026-02-11	16:02:34.210	-0.49	0.91	-0.665	0.82594	0.502152	0.278648	0.1185	0.438	0.0075	0	12	286	2
2026-02-11	16:02:34.230	0.21	1.015	-0.455	0.822768	0.494344	0.277184	0.114	0.4425	0	0	12	286	2
2026-02-11	16:02:34.250	1.54	1.26	-0.105	0.825696	0.493368	0.275964	0.117	0.4365	-0.0015	0	12	286	2
2026-02-11	16:02:34.270	3.01	1.365	0.035	0.819352	0.50508	0.28426	0.114	0.444	0.003	0	12	286	2
2026-02-11	16:02:34.290	3.815	1.435	-0.07	0.822036	0.516792	0.279868	0.111	0.444	0	0	12	286	2
2026-02-11	16:02:34.310	3.535	1.4	-0.21	0.82472	0.520452	0.280112	0.126	0.432	-0.003	0	12	286	2
2026-02-11	16:02:34.330	2.94	1.33	-0.35	0.820572	0.525088	0.278892	0.1155	0.438	-0.006	0	12	286	2
2026-02-11	16:02:34.350	2.03	1.12	-0.525	0.825452	0.519964	0.280112	0.12	0.4365	-0.0045	0	12	286	2
2026-02-11	16:02:34.370	1.19	0.77	-0.63	0.82106	0.516304	0.282064	0.117	0.438	-0.003	0	12	286	2
2026-02-11	16:02:34.390	0.63	0.525	-0.42	0.82472	0.511668	0.281576	0.1155	0.4395	-0.003	0	12	286	2
2026-02-11	16:02:34.410	1.05	0.56	-0.21	0.820816	0.511912	0.281088	0.1155	0.438	-0.0045	0	12	286	2
2026-02-11	16:02:34.430	1.12	0.385	-0.35	0.818864	0.5124	0.280356	0.1155	0.438	-0.0045	0	12	286	2
2026-02-11	16:02:34.450	0.91	0.14	-0.28	0.823744	0.510204	0.277428	0.12	0.4365	-0.0075	0	12	286	2
2026-02-11	16:02:34.470	0.455	-0.07	-0.035	0.8235	0.515816	0.2745	0.1125	0.444	-0.009	0	12	286	2
2026-02-11	16:02:34.490	-0.035	-0.175	0.07	0.821304	0.514108	0.274988	0.1155	0.441	0	0	12	286	2
2026-02-11	16:02:34.510	-0.56	-0.28	0.07	0.82106	0.51606	0.281576	0.114	0.4335	-0.012	0	12	286	2
2026-02-11	16:02:34.530	-0.175	-0.175	-0.14	0.824232	0.5185	0.286212	0.1215	0.4425	0.0015	0	12	286	2
2026-02-11	16:02:34.550	0.49	-0.14	-0.49	0.823988	0.524112	0.27938	0.1185	0.4365	-0.0045	0	12	286	2
2026-02-11	16:02:34.570	0.105	-0.21	-0.91	0.824476	0.520452	0.271572	0.1125	0.435	-0.003	0	12	286	2
2026-02-11	16:02:34.590	-1.295	-0.63	-1.26	0.814228	0.514352	0.276696	0.117	0.444	-0.0045	0	12	286	2
2026-02-11	16:02:34.610	-2.345	-1.155	-1.19	0.819596	0.501664	0.284016	0.1125	0.4365	0	0	12	286	2
2026-02-11	16:02:34.630	-0.945	-1.085	-0.91	0.824964	0.504836	0.28914	0.1125	0.4365	0	0	12	286	2
2026-02-11	16:02:34.650	0	-0.525	-0.665	0.823744	0.511424	0.28304	0.123	0.426	-0.0075	0	12	286	2
2026-02-11	16:02:34.670	0.21	-0.21	-0.385	0.82228	0.514352	0.28182	0.117	0.4365	-0.0045	0	12	286	2
2026-02-11	16:02:34.690	0.245	-0.21	-0.385	0.819352	0.522404	0.277184	0.12	0.438	-0.0075	0	12	286	2
2026-02-11	16:02:34.710	-0.35	-0.42	-0.56	0.823012	0.515572	0.27572	0.1185	0.435	0	0	12	286	2
2026-02-11	16:02:34.730	-0.875	-0.7	-0.595	0.823256	0.51118	0.27816	0.117	0.4365	-0.003	0	12	286	2
2026-02-11	16:02:34.750	-0.315	-0.525	-0.63	0.820816	0.512156	0.281576	0.12	0.441	-0.006	0	12	286	2
2026-02-11	16:02:34.770	0	-0.525	-0.665	0.817888	0.5124	0.279868	0.12	0.4365	-0.0015	0	12	286	2
2026-02-11	16:02:34.790	-0.315	-0.595	-0.56	0.823256	0.51362	0.277428	0.114	0.432	-0.0135	0	12	286	2
2026-02-11	16:02:34.810	-0.665	-0.665	-0.385	0.822036	0.508984	0.27694	0.1125	0.429	-0.003	0	12	286	2
2026-02-11	16:02:34.830	-0.385	-0.7	-0.42	0.827404	0.513132	0.280356	0.1125	0.435	-0.003	0	12	286	2
2026-02-11	16:02:34.850	-0.28	-0.56	-0.63	0.82594	0.511668	0.275964	0.114	0.441	-0.003	0	12	286	2
2026-02-11	16:02:34.870	-0.14	-0.49	-0.7	0.826184	0.512888	0.280356	0.1185	0.4335	-0.0045	0	12	286	2
2026-02-11	16:02:34.890	-0.14	-0.42	-0.735	0.823256	0.512156	0.283528	0.126	0.429	0.0045	0	12	286	2
2026-02-11	16:02:34.910	-0.63	-0.42	-0.665	0.826428	0.510448	0.277672	0.114	0.4365	-0.006	0	12	286	2
2026-02-11	16:02:34.930	-0.49	-0.28	-0.7	0.830332	0.510204	0.280112	0.114	0.426	0	0	12	286	2
2026-02-11	16:02:34.950	0.035	-0.105	-0.805	0.827648	0.514108	0.27938	0.1185	0.4365	-0.0015	0	12	286	2
2026-02-11	16:02:34.970	0.14	-0.105	-1.015	0.823012	0.518744	0.276208	0.129	0.441	-0.0105	0	12	286	2
2026-02-11	16:02:34.990	-0.49	-0.28	-1.19	0.822524	0.51362	0.273036	0.114	0.432	-0.0105	0	12	286	2
2026-02-11	16:02:35.010	-0.945	-0.525	-1.12	0.823744	0.506056	0.276452	0.1185	0.4395	-0.003	0	11	285	2
2026-02-11	16:02:35.030	-0.91	-0.805	-0.875	0.825696	0.506544	0.278892	0.129	0.447	0	0	11	285	2
2026-02-11	16:02:35.050	-0.805	-0.84	-0.665	0.824232	0.510692	0.278892	0.129	0.447	0	0	11	285	2
2026-02-11	16:02:35.070	-1.295	-0.77	-0.665	0.826428	0.507032	0.274744	0.129	0.447	0	0	11	285	2
2026-02-11	16:02:35.090	-1.295	-0.77	-0.665	0.824232	0.503616	0.272792	0.123	0.441	-0.0015	0	11	285	2
2026-02-11	16:02:35.110	-0.42	-0.595	-0.63	0.832528	0.511424	0.280356	0.1305	0.4395	-0.0015	0	11	285	2
2026-02-11	16:02:35.130	0.21	-0.42	-0.7	0.828624	0.513132	0.277428	0.1155	0.438	-0.003	0	11	285	2
2026-02-11	16:02:35.150	-0.245	-0.42	-0.91	0.825208	0.512156	0.271816	0.123	0.4395	-0.0015	0	11	285	2
2026-02-11	16:02:35.170	-0.665	-0.595	-0.84	0.825208	0.503128	0.278404	0.117	0.4365	-0.0015	0	11	285	2
2026-02-11	16:02:35.190	-0.175	-0.665	-0.56	0.821792	0.505812	0.276452	0.1155	0.4305	-0.003	0	11	285	2
2026-02-11	16:02:35.210	0.315	-0.595	-0.315	0.830088	0.517036	0.275476	0.123	0.4275	-0.0015	0	11	285	2
2026-02-11	16:02:35.230	-0.175	-0.665	-0.315	0.830088	0.520696	0.277672	0.114	0.4305	-0.009	0	11	285	2
2026-02-11	16:02:35.250	-1.26	-0.56	-0.49	0.827648	0.512156	0.280844	0.117	0.432	-0.0075	0	11	285	2
2026-02-11	16:02:35.270	-1.435	-0.28	-0.595	0.82838	0.503128	0.276696	0.1215	0.4335	-0.0075	0	11	285	2
2026-02-11	16:02:35.290	-0.63	-0.07	-0.525	0.82472	0.501908	0.277428	0.117	0.432	-0.0015	0	11	285	2
2026-02-11	16:02:35.310	-0.315	-0.175	-0.525	0.823256	0.50752	0.275232	0.1065	0.4335	-0.0015	0	11	285	2
2026-02-11	16:02:35.330	-0.21	-0.385	-0.665	0.820084	0.511912	0.278892	0.1095	0.441	0	0	11	285	2
2026-02-11	16:02:35.350	-0.42	-0.525	-0.595	0.828624	0.50386	0.272548	0.1125	0.4305	-0.0015	0	11	285	2
2026-02-11	16:02:35.370	-0.245	-0.42	-0.28	0.827892	0.508008	0.275232	0.12	0.441	-0.0015	0	11	285	2
2026-02-11	16:02:35.390	0.175	-0.21	-0.175	0.826428	0.515084	0.282064	0.12	0.4305	-0.0075	0	11	285	2
2026-02-11	16:02:35.410	0.035	-0.175	-0.245	0.829844	0.516792	0.276696	0.111	0.4395	-0.012	0	10	284	2
2026-02-11	16:02:35.430	-0.385	-0.105	-0.385	0.825208	0.519964	0.277916	0.12	0.4275	-0.0075	0	10	284	2
2026-02-11	16:02:35.450	-0.945	-0.21	-0.665	0.828136	0.512644	0.274744	0.1155	0.4335	-0.0045	0	10	284	2
2026-02-11	16:02:35.470	-0.735	-0.105	-0.84	0.824232	0.502152	0.281332	0.1125	0.4395	0	0	10	284	2
2026-02-11	16:02:35.490	0.21	0	-0.63	0.83326	0.501908	0.27206	0.114	0.438	0.0015	0	10	284	2
2026-02-11	16:02:35.510	0.525	-0.105	-0.35	0.827892	0.509228	0.273036	0.126	0.441	-0.003	0	10	284	2
2026-02-11	16:02:35.530	0.28	-0.14	-0.175	0.830332	0.509716	0.274012	0.117	0.4365	-0.0045	0	10	284	2
2026-02-11	16:02:35.550	-0.175	-0.175	-0.14	0.828136	0.50996	0.276208	0.117	0.4425	-0.0105	0	10	284	2
2026-02-11	16:02:35.570	-0.315	0.07	-0.245	0.830088	0.511912	0.282552	0.114	0.4335	-0.0015	0	10	284	2
2026-02-11	16:02:35.590	-0.28	0.42	-0.35	0.825696	0.50874	0.27694	0.1125	0.438	-0.006	0	10	284	2
2026-02-11	16:02:35.610	-0.14	0.665	-0.455	0.824476	0.507276	0.276208	0.12	0.432	-0.006	0	9	283	2
2026-02-11	16:02:35.630	0.21	0.63	-0.455	0.820816	0.503372	0.275964	0.123	0.4305	0	0	9	283	2
2026-02-11	16:02:35.650	0.63	0.49	-0.42	0.821548	0.503372	0.274256	0.1185	0.438	-0.0075	0	9	283	2
2026-02-11	16:02:35.670	1.085	0.175	-0.245	0.828136	0.507764	0.27328	0.1185	0.438	0	0	9	283	2
2026-02-11	16:02:35.690	1.26	0.105	-0.14	0.824964	0.513132	0.279624	0.12	0.438	0.006	0	9	283	2
2026-02-11	16:02:35.710	0.98	-0.035	-0.21	0.82472	0.515572	0.279868	0.12	0.438	0.006	0	9	283	2
2026-02-11	16:02:35.730	0.14	-0.175	-0.175	0.827404	0.514596	0.274256	0.114	0.4365	-0.0045	0	9	283	2
2026-02-11	16:02:35.750	-0.14	-0.245	-0.035	0.82594	0.513132	0.27694	0.117	0.4395	-0.0015	0	9	283	2
2026-02-11	16:02:35.770	-0.35	-0.245	0.035	0.827648	0.514596	0.277916	0.111	0.447	-0.0075	0	9	283	2
2026-02-11	16:02:35.790	-0.525	-0.28	-0.07	0.822036	0.517036	0.275964	0.12	0.4335	-0.0015	0	9	283	2
2026-02-11	16:02:35.810	-0.49	-0.28	-0.28	0.822524	0.507032	0.279136	0.123	0.429	-0.006	0	9	283	2
2026-02-11	16:02:35.830	-0.28	-0.14	-0.35	0.826428	0.506056	0.278404	0.117	0.435	-0.0075	0	9	283	2
2026-02-11	16:02:35.850	0.07	-0.07	-0.245	0.826672	0.506788	0.274012	0.129	0.435	-0.0045	0	9	283	2
2026-02-11	16:02:35.870	0.385	0.105	-0.245	0.828868	0.509472	0.278648	0.1215	0.4335	-0.0075	0	9	283	2
2026-02-11	16:02:35.890	0.7	0.35	-0.315	0.823012	0.50996	0.277184	0.1095	0.4335	-0.0045	0	9	283	2
2026-02-11	16:02:35.910	1.26	0.175	-0.315	0.821792	0.513132	0.276208	0.1065	0.4335	0.003	0	9	283	2
2026-02-11	16:02:35.930	0.805	0	-0.21	0.828136	0.513864	0.273768	0.1065	0.4335	0.003	0	9	283	2
2026-02-11	16:02:35.950	0.42	-0.035	-0.14	0.824476	0.519232	0.2806	0.1125	0.4305	-0.0075	0	9	283	2
2026-02-11	16:02:35.970	0.035	0	-0.245	0.82716	0.515328	0.277428	0.108	0.432	-0.0045	0	9	283	2
2026-02-11	16:02:35.990	-0.315	0.07	-0.35	0.825452	0.509472	0.280844	0.1155	0.4365	-0.0075	0	9	283	2
2026-02-11	16:02:36.010	-0.245	0.14	-0.385	0.826916	0.508252	0.279624	0.1215	0.4305	-0.009	0	8	283	2
2026-02-11	16:02:36.030	0.35	0.315	-0.42	0.82838	0.518012	0.281332	0.117	0.441	-0.009	0	8	283	2
2026-02-11	16:02:36.050	0.35	0.35	-0.455	0.827648	0.516792	0.274988	0.123	0.435	-0.0075	0	8	283	2
2026-02-11	16:02:36.070	-0.14	0.245	-0.525	0.8235	0.506056	0.271084	0.117	0.438	-0.0075	0	8	283	2
2026-02-11	16:02:36.090	-0.07	0.21	-0.7	0.82594	0.50386	0.276208	0.1185	0.4395	-0.0075	0	8	283	2
2026-02-11	16:02:36.110	0.245	0.28	-0.595	0.825696	0.50752	0.278892	0.1245	0.435	-0.0075	0	8	283	2
2026-02-11	16:02:36.130	0.63	0.21	-0.385	0.832528	0.510692	0.281088	0.126	0.435	-0.009	0	8	283	2
2026-02-11	16:02:36.150	0.63	0.175	-0.385	0.827892	0.522648	0.279136	0.12	0.4335	-0.006	0	8	283	2
2026-02-11	16:02:36.170	0.14	0.105	-0.56	0.821548	0.517524	0.278648	0.111	0.432	-0.0075	0	8	283	2
2026-02-11	16:02:36.190	-0.49	0	-0.805	0.823256	0.504348	0.279136	0.126	0.426	-0.0105	0	8	283	2
2026-02-11	16:02:36.210	-0.525	-0.105	-0.665	0.823988	0.50142	0.277428	0.117	0.432	-0.0135	0	8	283	2
2026-02-11	16:02:36.230	0	-0.21	-0.35	0.82472	0.513376	0.277184	0.117	0.435	-0.009	0	8	283	2
2026-02-11	16:02:36.250	-0.21	-0.35	-0.315	0.825208	0.517768	0.27694	0.117	0.432	-0.0015	0	8	283	2
2026-02-11	16:02:36.270	-0.875	-0.35	-0.42	0.826428	0.515328	0.280844	0.1095	0.4335	-0.0045	0	8	283	2
2026-02-11	16:02:36.290	-1.05	-0.175	-0.63	0.8235	0.519964	0.282064	0.1095	0.4335	-0.006	0	8	283	2
2026-02-11	16:02:36.310	-1.225	-0.07	-0.77	0.828868	0.5063	0.275476	0.1125	0.432	-0.003	0	8	283	2
2026-02-11	16:02:36.330	-0.63	0.14	-0.91	0.823988	0.50508	0.274988	0.1155	0.432	0	0	8	283	2
2026-02-11	16:02:36.350	-0.035	0.42	-0.91	0.82228	0.50142	0.283528	0.1155	0.432	0	0	8	283	2
2026-02-11	16:02:36.370	0.7	0.77	-1.015	0.820572	0.5063	0.27694	0.114	0.441	0.0015	0	8	283	2
2026-02-11	16:02:36.390	0.91	0.91	-0.84	0.819596	0.508252	0.276696	0.1215	0.429	0	0	8	283	2
2026-02-11	16:02:36.410	0.77	0.84	-0.77	0.820816	0.50874	0.272792	0.117	0.4305	-0.0075	0	7	283	2
2026-02-11	16:02:36.430	-0.105	0.7	-0.49	0.824964	0.514596	0.276208	0.1215	0.4335	-0.0075	0	7	283	2
2026-02-11	16:02:36.450	-0.14	0.525	-0.42	0.830576	0.514596	0.276696	0.1215	0.4245	-0.009	0	7	283	2
2026-02-11	16:02:36.470	0.455	0.665	-0.455	0.832772	0.526064	0.28182	0.117	0.4275	-0.012	0	7	283	2
2026-02-11	16:02:36.490	0.49	0.805	-0.875	0.829844	0.521916	0.274988	0.117	0.4275	-0.009	0	7	283	2
2026-02-11	16:02:36.510	0.175	1.05	-1.365	0.824476	0.513376	0.271816	0.1155	0.432	-0.009	0	7	283	2
2026-02-11	16:02:36.530	0.56	1.05	-1.54	0.826428	0.50142	0.27572	0.1155	0.4305	-0.006	0	7	283	2
2026-02-11	16:02:36.550	2.205	1.19	-1.33	0.824232	0.50996	0.284016	0.117	0.4245	0	0	7	283	2
2026-02-11	16:02:36.570	2.8	1.05	-1.26	0.821792	0.515084	0.27816	0.117	0.4245	0	0	7	283	2
2026-02-11	16:02:36.590	2.17	0.77	-1.225	0.819108	0.516548	0.275964	0.1215	0.441	-0.009	0	7	283	2
2026-02-11	16:02:36.610	1.365	0.49	-1.155	0.822524	0.517524	0.278892	0.117	0.4275	-0.0105	0	7	283	2
2026-02-11	16:02:36.630	1.05	0.525	-1.085	0.821548	0.515816	0.28792	0.126	0.4275	-0.012	0	7	283	2
2026-02-11	16:02:36.650	1.365	0.805	-1.19	0.823988	0.520696	0.286212	0.126	0.438	-0.018	0	7	283	2
2026-02-11	16:02:36.670	1.4	1.05	-1.4	0.821304	0.521672	0.281332	0.117	0.426	-0.012	0	7	283	2
2026-02-11	16:02:36.690	0.98	1.015	-1.575	0.823256	0.517524	0.28182	0.1185	0.429	-0.0135	0	7	283	2
2026-02-11	16:02:36.710	0.98	0.945	-1.575	0.822768	0.512156	0.280356	0.1245	0.4305	-0.012	0	7	283	2
2026-02-11	16:02:36.730	1.085	0.875	-1.54	0.820816	0.513132	0.277428	0.1215	0.426	-0.009	0	7	283	2
2026-02-11	16:02:36.750	1.12	0.42	-1.47	0.826184	0.518744	0.277916	0.1185	0.426	-0.0105	0	7	283	2
2026-02-11	16:02:36.770	0.21	-0.35	-1.12	0.820816	0.52216	0.277916	0.1215	0.432	-0.012	0	7	283	2
2026-02-11	16:02:36.790	-1.12	-0.77	-0.875	0.824964	0.519476	0.279136	0.1275	0.4305	-0.0075	0	7	283	2
2026-02-11	16:02:36.810	-1.96	-0.875	-0.665	0.824964	0.51362	0.28304	0.1245	0.4335	-0.015	0	7	283	2
2026-02-11	16:02:36.830	-1.925	-0.91	-0.28	0.819596	0.511668	0.28304	0.1215	0.432	-0.0165	0	7	283	2
2026-02-11	16:02:36.850	-1.505	-0.84	0	0.819352	0.513376	0.278892	0.1215	0.4215	-0.0135	0	7	283	2
2026-02-11	16:02:36.870	-1.015	-0.875	-0.07	0.823988	0.521672	0.278892	0.1215	0.435	-0.012	0	7	283	2
2026-02-11	16:02:36.890	-1.4	-0.875	-0.49	0.822768	0.519964	0.276696	0.1215	0.4335	-0.0105	0	7	283	2
2026-02-11	16:02:36.910	-2.345	-0.875	-0.56	0.826184	0.505568	0.277184	0.1215	0.432	-0.012	0	7	283	2
2026-02-11	16:02:36.930	-2.065	-0.77	-0.315	0.827404	0.50386	0.27572	0.1215	0.429	-0.012	0	7	283	2
2026-02-11	16:02:36.950	-1.085	-0.595	-0.14	0.825452	0.5124	0.278404	0.123	0.429	-0.012	0	7	283	2
2026-02-11	16:02:36.970	-0.385	-0.28	-0.525	0.823744	0.516548	0.282796	0.12	0.432	-0.012	0	7	283	2
2026-02-11	16:02:36.990	-0.735	-0.07	-0.735	0.82594	0.508252	0.274256	0.1185	0.4335	-0.012	0	7	283	2
2026-02-11	16:02:37.010	-0.21	0.105	-0.7	0.823256	0.508984	0.27572	0.117	0.432	-0.003	0	7	283	2
2026-02-11	16:02:37.030	0.35	0.245	-0.49	0.823012	0.50874	0.276452	0.1155	0.4335	-0.015	0	7	283	2
2026-02-11	16:02:37.050	0.7	0.35	-0.385	0.822036	0.516548	0.280112	0.1125	0.4395	-0.006	0	7	283	2
2026-02-11	16:02:37.070	0.875	0.28	-0.49	0.820084	0.521184	0.282308	0.1245	0.435	-0.0165	0	7	283	2
2026-02-11	16:02:37.090	0.805	0.42	-0.63	0.820572	0.517524	0.278404	0.117	0.432	-0.012	0	7	283	2
2026-02-11	16:02:37.110	0.84	0.455	-0.7	0.816424	0.517524	0.273524	0.12	0.4305	-0.0135	0	7	283	2
2026-02-11	16:02:37.130	0.735	0.455	-0.63	0.824232	0.515816	0.269376	0.123	0.4305	-0.0105	0	7	283	2
2026-02-11	16:02:37.150	0.84	0.455	-0.595	0.819108	0.519232	0.27328	0.12	0.426	-0.006	0	7	283	2
2026-02-11	16:02:37.170	0.945	0.42	-0.665	0.816424	0.519476	0.274988	0.12	0.4245	-0.009	0	7	283	2
2026-02-11	16:02:37.190	0.875	0.28	-0.91	0.818864	0.525576	0.282796	0.123	0.4275	-0.0105	0	7	283	2
2026-02-11	16:02:37.210	0.875	0.28	-1.19	0.82106	0.531188	0.282552	0.1095	0.4335	-0.015	0	7	284	2
2026-02-11	16:02:37.230	0.315	0.07	-1.295	0.819108	0.525576	0.272792	0.1215	0.4275	-0.0135	0	7	284	2
2026-02-11	16:02:37.250	-0.805	-0.14	-1.155	0.81496	0.511424	0.272792	0.117	0.429	-0.009	0	7	284	2
2026-02-11	16:02:37.270	-1.085	-0.455	-0.805	0.819352	0.504836	0.275964	0.111	0.4305	-0.015	0	7	284	2
2026-02-11	16:02:37.290	-0.245	-0.56	-0.56	0.821792	0.510936	0.282064	0.108	0.423	-0.006	0	7	284	2
2026-02-11	16:02:37.310	0.315	-0.525	-0.63	0.823256	0.515084	0.28182	0.114	0.4245	-0.009	0	7	284	2
2026-02-11	16:02:37.330	0.21	-0.56	-0.735	0.821304	0.518744	0.282308	0.1185	0.4275	-0.0135	0	7	284	2
2026-02-11	16:02:37.350	-0.42	-0.56	-0.7	0.822524	0.51728	0.277916	0.1185	0.4275	-0.015	0	7	284	2
2026-02-11	16:02:37.370	-1.155	-0.56	-0.56	0.821304	0.516304	0.280112	0.12	0.4245	-0.015	0	7	284	2
2026-02-11	16:02:37.390	-1.155	-0.56	-0.49	0.818132	0.515328	0.282796	0.1215	0.429	-0.015	0	7	284	2
2026-02-11	16:02:37.410	-0.385	-0.77	-0.525	0.823256	0.5246	0.284504	0.1215	0.4335	-0.0165	0	7	284	2
2026-02-11	16:02:37.430	-0.91	-0.945	-0.595	0.824964	0.526552	0.284016	0.117	0.4335	-0.012	0	7	284	2
2026-02-11	16:02:37.450	-1.96	-0.91	-0.665	0.825452	0.524356	0.282552	0.117	0.432	-0.0105	0	7	284	2
2026-02-11	16:02:37.470	-3.08	-0.98	-0.665	0.818864	0.514352	0.281088	0.1185	0.42	-0.0075	0	7	284	2
2026-02-11	16:02:37.490	-3.395	-1.085	-0.595	0.818132	0.503372	0.28182	0.117	0.4275	-0.0135	0	7	284	2
2026-02-11	16:02:37.510	-2.17	-1.12	-0.21	0.8235	0.502396	0.277672	0.117	0.4275	-0.015	0	7	284	2
2026-02-11	16:02:37.530	-1.33	-1.085	0.07	0.829844	0.510692	0.278404	0.114	0.426	-0.0165	0	7	284	2
2026-02-11	16:02:37.550	-1.295	-0.945	0.14	0.825452	0.511912	0.282064	0.114	0.426	-0.012	0	7	284	2
2026-02-11	16:02:37.570	-1.61	-0.77	0.105	0.82106	0.508008	0.28548	0.1185	0.429	-0.012	0	7	284	2
2026-02-11	16:02:37.590	-0.84	-0.385	0.035	0.821548	0.501664	0.2867	0.1155	0.429	-0.015	0	7	284	2
2026-02-11	16:02:37.610	1.4	0.175	0	0.82472	0.50508	0.287676	0.1155	0.429	-0.012	0	7	284	2
2026-02-11	16:02:37.630	3.605	0.42	-0.35	0.82472	0.519232	0.282064	0.12	0.429	-0.009	0	7	284	2
2026-02-11	16:02:37.650	3.43	0.49	-0.49	0.828868	0.516548	0.268644	0.1215	0.4215	-0.0135	0	7	284	2
2026-02-11	16:02:37.670	1.82	0.595	-0.28	0.828624	0.51606	0.275476	0.126	0.429	-0.0195	0	7	284	2
2026-02-11	16:02:37.690	0.875	0.77	0.105	0.8235	0.515572	0.2806	0.114	0.4275	-0.015	0	7	284	2
2026-02-11	16:02:37.710	0.07	1.015	0.525	0.81984	0.51728	0.281332	0.1215	0.4245	-0.009	0	7	284	2
2026-02-11	16:02:37.730	-0.105	0.945	1.155	0.821304	0.5002	0.274012	0.1215	0.4275	-0.0075	0	7	284	2
2026-02-11	16:02:37.750	0.805	0.7	1.365	0.823988	0.5002	0.267668	0.1215	0.4275	-0.009	0	7	284	2
2026-02-11	16:02:37.770	0.805	0	1.085	0.83204	0.528992	0.263032	0.12	0.426	-0.0135	0	7	284	2
2026-02-11	16:02:37.790	-2.065	-1.4	-0.945	0.832528	0.568276	0.264984	0.1215	0.429	-0.0135	0	7	284	2
2026-02-11	16:02:37.810	-12.25	-3.395	-4.13	0.832528	0.559004	0.26962	0.1185	0.426	-0.012	0	7	284	2
2026-02-11	16:02:37.830	-22.295	-4.06	-5.775	0.792512	0.509228	0.292556	0.1155	0.423	-0.0105	0	7	284	2
2026-02-11	16:02:37.850	-20.86	-4.34	-3.535	0.790804	0.447984	0.315004	0.1155	0.423	-0.0105	0	7	284	2
2026-02-11	16:02:37.870	-12.355	-3.99	0	0.807152	0.437492	0.340136	0.1215	0.4275	-0.021	0	7	284	2
2026-02-11	16:02:37.890	-0.595	-1.12	3.185	0.837164	0.467016	0.371368	0.1275	0.4395	-0.012	0	7	284	2
2026-02-11	16:02:37.910	3.36	4.585	4.865	0.871568	0.529968	0.431392	0.117	0.4275	-0.015	0	7	284	2
2026-02-11	16:02:37.930	-9.835	14.98	4.935	0.906948	0.5368	0.459208	0.114	0.429	-0.0195	0	7	284	2
2026-02-11	16:02:37.950	-25.725	28.98	4.97	0.911096	0.475556	0.472872	0.114	0.435	-0.021	0	7	284	2
2026-02-11	16:02:37.970	-38.78	36.26	5.565	0.904996	0.429928	0.488732	0.1155	0.4425	-0.0255	0	7	284	2
2026-02-11	16:02:37.990	-51.835	40.53	6.51	0.8723	0.351848	0.4941	0.1125	0.45	-0.039	0	7	284	2
2026-02-11	16:02:38.010	-56.105	44.73	10.535	0.875228	0.30866	0.442616	0.1095	0.4605	-0.0525	0	9	293	2
2026-02-11	16:02:38.030	-59.815	47.215	20.055	0.883524	0.223748	0.396988	0.111	0.4785	-0.066	0	9	293	2
2026-02-11	16:02:38.050	-47.6	46.235	37.625	0.893528	0.180316	0.383568	0.111	0.4905	-0.072	0	9	293	2
2026-02-11	16:02:38.070	-39.865	43.82	49.105	0.875228	0.1769	0.380152	0.1155	0.5205	-0.105	0	9	293	2
2026-02-11	16:02:38.090	-33.145	42	60.27	0.864004	0.179828	0.36478	0.102	0.537	-0.1155	0	9	293	2
2026-02-11	16:02:38.110	-27.265	39.725	70.77	0.86254	0.170556	0.358924	0.1065	0.5625	-0.12	0	9	293	2
2026-02-11	16:02:38.130	-19.32	37.065	79.835	0.855952	0.149816	0.329888	0.105	0.573	-0.123	0	9	293	2
2026-02-11	16:02:38.150	-5.74	32.095	87.885	0.867664	0.132736	0.279136	0.102	0.594	-0.126	0	9	293	2
2026-02-11	16:02:38.170	14.91	25.27	94.57	0.893772	0.139568	0.244	0.105	0.618	-0.126	0	9	293	2
2026-02-11	16:02:38.190	35.49	17.5	99.645	0.903288	0.16226	0.223748	0.1095	0.639	-0.129	0	9	293	2
2026-02-11	16:02:38.210	49.49	9.135	102.69	0.909632	0.1952	0.219844	0.1095	0.657	-0.1275	0	16	309	2
2026-02-11	16:02:38.230	54.46	0.63	103.53	0.930128	0.213988	0.219844	0.1095	0.6795	-0.1245	0	16	309	2
2026-02-11	16:02:38.250	50.54	-9.52	101.955	0.944768	0.237656	0.2318	0.12	0.696	-0.117	0	16	309	2
2026-02-11	16:02:38.270	41.58	-18.9	98.35	0.952576	0.25132	0.245708	0.1275	0.702	-0.111	0	16	309	2
2026-02-11	16:02:38.290	29.89	-24.535	93.59	0.941352	0.252784	0.266692	0.132	0.7335	-0.096	0	16	309	2
2026-02-11	16:02:38.310	12.04	-29.89	88.41	0.955016	0.24522	0.28182	0.123	0.75	-0.075	0	16	309	2
2026-02-11	16:02:38.330	-4.445	-33.775	82.04	1.026508	0.292068	0.254736	0.126	0.7545	-0.0675	0	16	309	2
2026-02-11	16:02:38.350	-18.55	-35.245	71.75	0.935008	0.2257	0.272792	0.135	0.762	-0.0555	0	16	309	2
2026-02-11	16:02:38.370	-30.8	-38.465	65.87	1.01748	0.2379	0.301584	0.135	0.771	-0.0435	0	16	309	2
2026-02-11	16:02:38.390	-39.375	-36.575	57.435	1.028216	0.189344	0.304512	0.1365	0.7815	-0.0315	0	16	309	2
2026-02-11	16:02:38.410	-35.805	-35.035	47.355	1.014552	0.137372	0.282552	0.144	0.786	-0.0225	0	29	315	2
2026-02-11	16:02:38.430	-19.53	-34.86	39.305	0.995764	0.07515199	0.283772	0.147	0.7875	-0.0135	0	29	315	2
2026-02-11	16:02:38.450	5.74	-34.86	33.74	1.019188	0.05124	0.28792	0.1485	0.7875	-0.006	0	29	315	2
2026-02-11	16:02:38.470	39.795	-33.915	27.86	1.025776	0.073688	0.313052	0.1455	0.786	-0.0045	0	29	315	2
2026-02-11	16:02:38.490	69.055	-32.165	22.89	0.99674	0.099552	0.311832	0.1455	0.786	-0.0045	0	29	315	2
2026-02-11	16:02:38.510	81.06	-32.27	21.595	0.998204	0.141764	0.320372	0.15	0.795	0	0	29	315	2
2026-02-11	16:02:38.530	76.51	-31.01	20.79	1.0065	0.117852	0.38796	0.1455	0.7875	-0.0075	0	29	315	2
2026-02-11	16:02:38.550	76.475	-27.16	20.93	0.993568	0.0915	0.404552	0.147	0.7905	-0.0075	0	29	315	2
2026-02-11	16:02:38.570	83.825	-23.975	20.545	0.963556	0.110044	0.38796	0.1455	0.7935	-0.003	0	29	315	2
2026-02-11	16:02:38.590	84.105	-22.68	19.6	0.957456	0.138104	0.37088	0.138	0.7935	-0.0045	0	29	315	2
2026-02-11	16:02:38.610	72.275	-22.96	18.06	0.977952	0.165676	0.39406	0.1305	0.7935	-0.012	0	44	316	2
2026-02-11	16:02:38.630	49.805	-21.98	16.03	0.958432	0.132736	0.41846	0.135	0.792	-0.018	0	44	316	2
2026-02-11	16:02:38.650	34.93	-20.72	13.755	0.950136	0.111508	0.410652	0.138	0.7935	-0.018	0	44	316	2
2026-02-11	16:02:38.670	21.91	-19.81	12.145	0.965508	0.121268	0.405528	0.135	0.795	-0.0105	0	44	316	2
2026-02-11	16:02:38.690	-3.57	-17.885	9.87	0.972096	0.106384	0.415288	0.1365	0.798	-0.006	0	44	316	2
2026-02-11	16:02:38.710	-17.71	-15.96	6.58	0.981612	0.090036	0.398208	0.1365	0.798	-0.0075	0	44	316	2
2026-02-11	16:02:38.730	-27.16	-14.175	4.725	0.963312	0.06734399	0.351116	0.132	0.7965	0.0015	0	44	316	2
2026-02-11	16:02:38.750	-28.385	-13.965	2.205	0.946476	0.0732	0.314516	0.135	0.7965	0	0	44	316	2
2026-02-11	16:02:38.770	-29.68	-15.855	-0.245	0.933788	0.091256	0.296704	0.1425	0.7965	0.0015	0	44	316	2
2026-02-11	16:02:38.790	-33.775	-18.655	-2.03	0.929152	0.0854	0.290604	0.1395	0.804	0.0045	0	44	316	2
2026-02-11	16:02:38.810	-39.13	-20.72	-3.08	0.9272	0.101748	0.288652	0.1365	0.8055	0.009	0	59	322	2
2026-02-11	16:02:38.830	-48.965	-22.435	-4.06	0.91988	0.121756	0.282552	0.135	0.8025	0.018	0	59	322	2
2026-02-11	16:02:38.850	-61.705	-23.835	-4.165	0.902312	0.11224	0.275476	0.132	0.8055	0.0225	0	59	322	2
2026-02-11	16:02:38.870	-67.83	-25.13	-3.815	0.895968	0.098088	0.26718	0.135	0.807	0.0255	0	59	322	2
2026-02-11	16:02:38.890	-66.885	-26.005	-3.08	0.900116	0.10492	0.270352	0.132	0.807	0.0375	0	59	322	2
2026-02-11	16:02:38.910	-66.045	-26.285	-1.68	0.911584	0.12566	0.279868	0.1305	0.8055	0.045	0	59	322	2
2026-02-11	16:02:38.930	-68.845	-25.13	-1.12	0.9089	0.150548	0.283528	0.1335	0.8055	0.0555	0	59	322	2
2026-02-11	16:02:38.950	-75.25	-23.17	-1.085	0.941352	0.148108	0.276208	0.129	0.8055	0.06	0	59	322	2
2026-02-11	16:02:38.970	-79.38	-20.93	-4.655	0.967948	0.132736	0.266936	0.1275	0.8055	0.069	0	59	322	2
2026-02-11	16:02:38.990	-84.49	-17.64	-8.26	1.024068	0.115412	0.267668	0.132	0.8085	0.0765	0	59	322	2
2026-02-11	16:02:39.010	-91.63	-15.855	-15.4	1.13216	0.071492	0.25132	0.1305	0.8145	0.084	0	71	323	2
2026-02-11	16:02:39.030	-86.625	-22.365	-39.305	1.188768	-0.190076	0.185196	0.1305	0.813	0.0975	0	71	323	2
2026-02-11	16:02:39.050	-57.33	-22.19	-45.745	1.08092	-0.604388	0.14274	0.129	0.8055	0.1035	0	71	323	2
2026-02-11	16:02:39.070	-25.76	-18.165	-28.245	1.146068	-0.69418	0.025376	0.1245	0.798	0.1035	0	71	323	2
2026-02-11	16:02:39.090	-17.185	-6.65	-8.4	1.086288	-0.45506	0.019276	0.1245	0.795	0.1065	0	71	323	2
2026-02-11	16:02:39.110	-24.5	2.94	4.445	1.070428	-0.076372	0.118096	0.1245	0.7965	0.1065	0	71	323	2
2026-02-11	16:02:39.130	-50.12	9.485	15.155	1.027728	-0.003172	0.151768	0.1245	0.7965	0.1065	0	71	323	2
2026-02-11	16:02:39.150	-59.22	12.285	21.035	1.007964	-0.021228	0.159576	0.1185	0.7965	0.1125	0	71	323	2
2026-02-11	16:02:39.170	-49.735	12.67	21.35	1.001132	-0.0427	0.153476	0.1215	0.7935	0.111	0	71	323	2
2026-02-11	16:02:39.190	-34.65	10.71	18.27	0.987468	-0.068076	0.154208	0.1245	0.7965	0.1155	0	71	323	2
2026-02-11	16:02:39.210	-15.365	8.82	14.385	0.985272	-0.041968	0.14884	0.1275	0.8055	0.12	0	84	305	3
2026-02-11	16:02:39.230	0.49	8.225	12.04	0.960872	0.045872	0.13542	0.1305	0.807	0.117	0	84	305	3
2026-02-11	16:02:39.250	8.4	6.58	9.1	0.955504	0.094916	0.123464	0.132	0.804	0.114	0	84	305	3
2026-02-11	16:02:39.270	8.75	4.725	4.655	0.958188	0.102724	0.115412	0.1365	0.807	0.114	0	84	305	3
2026-02-11	16:02:39.290	1.435	1.68	-0.77	0.977708	0.035136	0.09516	0.138	0.81	0.114	0	84	305	3
2026-02-11	16:02:39.310	-1.715	-0.105	-5.565	0.996496	-0.049044	0.094184	0.135	0.804	0.114	0	84	305	3
2026-02-11	16:02:39.330	4.9	-0.805	-8.82	1.00772	-0.140788	0.107116	0.1335	0.7995	0.1125	0	84	305	3
2026-02-11	16:02:39.350	11.83	-0.315	-8.715	1.019676	-0.160308	0.114924	0.123	0.804	0.111	0	84	305	3
2026-02-11	16:02:39.370	19.075	0.7	-6.79	1.02602	-0.11346	0.136884	0.1275	0.804	0.111	0	84	305	3
2026-02-11	16:02:39.390	20.16	1.155	-3.85	1.033584	-0.051484	0.15372	0.132	0.7995	0.114	0	84	305	3
2026-02-11	16:02:39.410	14.91	1.19	-1.575	1.032364	-0.019276	0.158844	0.1365	0.7995	0.1155	0	97	270	3
2026-02-11	16:02:39.430	7.875	0.91	0.105	1.027728	-0.008052	0.162016	0.135	0.7995	0.1155	0	97	270	3
2026-02-11	16:02:39.450	2.52	0	1.33	1.02602	0.011712	0.166408	0.129	0.7995	0.111	0	97	270	3
2026-02-11	16:02:39.470	-1.435	-2.065	1.54	1.021384	0.025864	0.158112	0.1245	0.7995	0.105	0	97	270	3
2026-02-11	16:02:39.490	-7.245	-5.285	1.085	0.998204	0.037576	0.1525	0.1245	0.7965	0.102	0	97	270	3
2026-02-11	16:02:39.510	-17.22	-8.54	0.7	0.9699	0.030012	0.143716	0.126	0.798	0.108	0	97	270	3
2026-02-11	16:02:39.530	-33.775	-12.81	-0.595	0.960628	-0.007076	0.12932	0.1275	0.804	0.114	0	97	270	3
2026-02-11	16:02:39.550	-53.025	-16.03	-1.61	0.95526	-0.06588	0.104676	0.129	0.807	0.114	0	97	270	3
2026-02-11	16:02:39.570	-64.54	-17.15	-1.505	0.970632	-0.111752	0.09076799	0.129	0.804	0.123	0	97	270	3
2026-02-11	16:02:39.590	-67.655	-16.835	-0.945	0.99552	-0.129808	0.08906	0.126	0.801	0.132	0	97	270	3
2026-02-11	16:02:39.610	-63.455	-15.785	-0.595	1.005768	-0.126148	0.081252	0.126	0.7995	0.132	0	106	234	3
2026-02-11	16:02:39.630	-55.055	-14.56	-0.385	1.0065	-0.14396	0.073688	0.132	0.801	0.1365	0	106	234	3
2026-02-11	16:02:39.650	-41.65	-13.125	-0.07	0.99796	-0.122488	0.063928	0.1305	0.7995	0.144	0	106	234	3
2026-02-11	16:02:39.670	-28.91	-12.6	0.14	1.00284	-0.097844	0.063196	0.1305	0.798	0.147	0	106	234	3
2026-02-11	16:02:39.690	-19.775	-12.355	0.665	1.006012	-0.07905599	0.068564	0.135	0.7935	0.1545	0	106	234	3
2026-02-11	16:02:39.710	-12.74	-12.005	0.84	1.016016	-0.081252	0.06344	0.1365	0.792	0.1575	0	106	234	3
2026-02-11	16:02:39.730	-7	-12.18	0.56	1.026996	-0.0793	0.05612	0.1365	0.792	0.156	0	106	234	3
2026-02-11	16:02:39.750	-0.63	-12.53	0.735	1.024556	-0.08418	0.0549	0.135	0.7875	0.1575	0	106	234	3
2026-02-11	16:02:39.770	5.04	-13.265	1.295	1.018944	-0.10248	0.061	0.1305	0.792	0.162	0	106	234	3
2026-02-11	16:02:39.790	10.745	-14.035	2.52	1.019188	-0.114436	0.081252	0.1305	0.7935	0.1665	0	106	234	3
2026-02-11	16:02:39.810	15.82	-14.595	3.465	1.0126	-0.106872	0.095892	0.132	0.7935	0.1635	0	111	199	3
2026-02-11	16:02:39.830	17.78	-14.84	3.57	1.011624	-0.094916	0.128832	0.132	0.7995	0.1635	0	111	199	3
2026-02-11	16:02:39.850	14.945	-14.105	2.765	1.000644	-0.09028	0.144936	0.135	0.7995	0.1665	0	111	199	3
2026-02-11	16:02:39.870	8.785	-13.16	1.785	1.0004	-0.090524	0.160796	0.1305	0.8025	0.168	0	111	199	3
2026-02-11	16:02:39.890	0.105	-11.27	1.61	1.002108	-0.074664	0.165188	0.132	0.807	0.1695	0	111	199	3
2026-02-11	16:02:39.910	-12.215	-8.645	3.22	1.016504	-0.054412	0.17446	0.1395	0.807	0.168	0	111	199	3
2026-02-11	16:02:39.930	-26.88	-5.88	4.62	1.022116	-0.038552	0.157868	0.1425	0.8025	0.1665	0	111	199	3
2026-02-11	16:02:39.950	-39.935	-3.605	5.705	1.024068	-0.06344	0.1403	0.1455	0.7995	0.174	0	111	199	3
2026-02-11	16:02:39.970	-51.205	0.77	4.48	0.994544	-0.06588	0.125904	0.141	0.798	0.1785	0	111	199	3
2026-02-11	16:02:39.990	-50.925	4.725	1.225	1.028216	-0.05246	0.110288	0.141	0.7965	0.1815	0	111	199	3
2026-02-11	16:02:40.010	-53.305	17.605	0.56	1.02602	0.009028	0.197152	0.1425	0.7935	0.183	0	113	173	3
2026-02-11	16:02:40.030	-83.755	18.025	5.005	1.076284	-0.139324	0.183976	0.1395	0.789	0.1785	0	113	173	3
2026-02-11	16:02:40.050	-74.62	19.775	11.06	1.075308	-0.276208	0.0976	0.135	0.7905	0.1815	0	113	173	3
2026-02-11	16:02:40.070	-31.885	23.24	13.405	1.044564	-0.28548	0.029768	0.132	0.7905	0.186	0	113	173	3
2026-02-11	16:02:40.090	15.54	23.975	9.835	1.011136	-0.160552	0.084424	0.135	0.789	0.1845	0	113	173	3
2026-02-11	16:02:40.110	43.365	22.645	5.95	1.03944	-0.112972	0.210084	0.1365	0.7905	0.1815	0	113	173	3
2026-02-11	16:02:40.130	51.24	25.76	4.83	1.087508	-0.12444	0.311344	0.135	0.7965	0.174	0	113	173	3
2026-02-11	16:02:40.150	52.045	33.6	4.13	1.027728	-0.11468	0.30622	0.135	0.798	0.1665	0	113	173	3
2026-02-11	16:02:40.170	46.935	37.94	1.925	0.999424	-0.077104	0.184708	0.1365	0.7995	0.1665	0	113	173	3
2026-02-11	16:02:40.190	30.415	35.56	-0.42	1.019676	-0.044896	0.190076	0.1335	0.804	0.1575	0	113	173	3
2026-02-11	16:02:40.210	3.045	31.185	-0.28	1.006012	-0.06466	0.216428	0.1365	0.8055	0.147	0	111	162	3
2026-02-11	16:02:40.230	-7.42	29.785	0.875	0.9882	-0.088328	0.207888	0.1365	0.8025	0.1455	0	111	162	3
2026-02-11	16:02:40.250	-15.575	26.25	3.605	0.968192	-0.095404	0.195688	0.1335	0.795	0.141	0	111	162	3
2026-02-11	16:02:40.270	-21.735	22.61	5.46	0.947696	-0.066124	0.200812	0.138	0.801	0.1335	0	111	162	3
2026-02-11	16:02:40.290	-28.455	20.51	6.3	0.939644	-0.015616	0.221552	0.138	0.8085	0.129	0	111	162	3
2026-02-11	16:02:40.310	-46.725	17.675	4.2	0.93452	-0.00366	0.26352	0.1365	0.8055	0.129	0	111	162	3
2026-02-11	16:02:40.330	-68.88	14.56	0.98	0.950868	-0.012688	0.293288	0.135	0.801	0.1305	0	111	162	3
2026-02-11	16:02:40.350	-85.575	12.04	-1.26	0.982344	-0.047824	0.300608	0.1335	0.801	0.1305	0	111	162	3
2026-02-11	16:02:40.370	-91.21	12.11	-1.575	0.99796	-0.080032	0.309392	0.132	0.798	0.1395	0	111	162	3
2026-02-11	16:02:40.390	-84.28	15.295	-0.77	1.00406	-0.08174	0.29646	0.132	0.7995	0.147	0	111	162	3
2026-02-11	16:02:40.410	-74.165	19.145	-0.945	0.98454	-0.058804	0.277916	0.135	0.7935	0.147	0	109	168	3
2026-02-11	16:02:40.430	-69.58	23.415	-2.1	0.96136	-0.033672	0.260104	0.135	0.795	0.1455	0	109	168	3
2026-02-11	16:02:40.450	-69.86	26.915	-3.535	0.958676	-0.03416	0.244732	0.1335	0.798	0.1515	0	109	168	3
2026-02-11	16:02:40.470	-70.455	29.855	-4.165	0.991128	-0.055144	0.247904	0.1365	0.7935	0.1515	0	109	168	3
2026-02-11	16:02:40.490	-66.85	33.6	-3.92	1.045052	-0.0732	0.2501	0.1335	0.7875	0.15	0	109	168	3
2026-02-11	16:02:40.510	-57.82	37.87	-6.23	1.069208	-0.055876	0.236436	0.1335	0.786	0.15	0	109	168	3
2026-02-11	16:02:40.530	-49.49	40.53	-10.885	1.068476	-0.039772	0.2318	0.138	0.786	0.141	0	109	168	3
2026-02-11	16:02:40.550	-44.205	41.965	-15.96	1.047492	-0.037088	0.235704	0.1335	0.789	0.138	0	109	168	3
2026-02-11	16:02:40.570	-43.015	42.56	-21.56	1.019432	-0.045384	0.250588	0.132	0.789	0.138	0	109	168	3
2026-02-11	16:02:40.590	-44.345	42.77	-27.23	0.996984	-0.034648	0.235216	0.132	0.7875	0.135	0	109	168	3
2026-02-11	16:02:40.610	-47.95	41.58	-33.53	0.970632	-0.003172	0.19886	0.1305	0.789	0.132	0	107	186	3
2026-02-11	16:02:40.630	-53.97	38.64	-36.33	0.946476	0.01342	0.1769	0.1215	0.786	0.1245	0	107	186	3
2026-02-11	16:02:40.650	-60.13	34.545	-37.485	0.932812	-0.023424	0.1525	0.1095	0.777	0.117	0	107	186	3
2026-02-11	16:02:40.670	-62.65	29.155	-36.54	0.942084	-0.005124	0.137372	0.1095	0.774	0.117	0	107	186	3
2026-02-11	16:02:40.690	-66.815	24.5	-34.93	0.957212	0.012932	0.142496	0.1125	0.7725	0.114	0	107	186	3
2026-02-11	16:02:40.710	-73.395	20.545	-35.28	0.954528	0.010492	0.146156	0.1035	0.765	0.111	0	107	186	3
2026-02-11	16:02:40.730	-81.06	16.45	-36.54	0.943792	0.0122	0.133224	0.096	0.7605	0.1095	0	107	186	3
2026-02-11	16:02:40.750	-88.13	11.305	-38.29	0.942572	0.018544	0.120048	0.0945	0.756	0.108	0	107	186	3
2026-02-11	16:02:40.770	-99.855	6.265	-40.215	0.952088	0.014396	0.130052	0.0885	0.747	0.1065	0	107	186	3
2026-02-11	16:02:40.790	-109.9	4.48	-42.21	0.981856	-0.015128	0.153232	0.0855	0.744	0.1005	0	107	186	3
2026-02-11	16:02:40.810	-119.035	5.53	-45.535	0.99918	-0.05734	0.175436	0.0855	0.744	0.096	0	104	196	3
2026-02-11	16:02:40.830	-118.3	8.61	-47.6	1.010648	-0.10858	0.134932	0.0855	0.744	0.096	0	104	196	3
2026-02-11	16:02:40.850	-99.435	11.48	-46.83	1.012356	-0.103212	0.101748	0.081	0.7305	0.093	0	104	196	3
2026-02-11	16:02:40.870	-77.735	10.92	-44.835	1.016504	-0.10736	0.098088	0.075	0.7125	0.0885	0	104	196	3
2026-02-11	16:02:40.890	-60.06	9.625	-41.09	1.030168	-0.099308	0.142008	0.0675	0.702	0.084	0	104	196	3
2026-02-11	16:02:40.910	-57.365	8.225	-33.635	1.010892	-0.19032	0.198128	0.057	0.693	0.0795	0	104	196	3
2026-02-11	16:02:40.930	-59.255	7.63	-24.64	0.994056	-0.224236	0.22814	0.054	0.687	0.0765	0	104	196	3
2026-02-11	16:02:40.950	-55.16	9.24	-17.92	0.973804	-0.251564	0.244732	0.057	0.6855	0.0675	0	104	196	3
2026-02-11	16:02:40.970	-54.11	11.27	-12.215	0.96624	-0.2623	0.221796	0.0555	0.6825	0.06	0	104	196	3
2026-02-11	16:02:40.990	-49.7	12.005	-7.7	0.95526	-0.288896	0.217648	0.0585	0.6765	0.057	0	104	196	3
2026-02-11	16:02:41.010	-38.255	14.245	-2.73	0.942816	-0.320372	0.205936	0.063	0.672	0.0555	0	101	195	3
2026-02-11	16:02:41.030	-10.78	15.54	-0.665	0.933544	-0.277672	0.192028	0.0555	0.663	0.0555	0	101	195	3
2026-02-11	16:02:41.050	18.305	14.525	-1.47	0.938668	-0.25742	0.207156	0.0555	0.663	0.048	0	101	195	3
2026-02-11	16:02:41.070	41.475	13.37	-0.735	0.948428	-0.276208	0.21838	0.0555	0.6675	0.039	0	101	195	3
2026-02-11	16:02:41.090	70.385	12.495	-0.035	0.927932	-0.2318	0.198372	0.0555	0.6675	0.036	0	101	195	3
2026-02-11	16:02:41.110	100.205	10.01	-0.245	0.902068	-0.158356	0.1769	0.057	0.6645	0.036	0	101	195	3
2026-02-11	16:02:41.130	123.2	5.145	-1.12	0.88816	-0.086376	0.17446	0.0555	0.672	0.0345	0	101	195	3
2026-02-11	16:02:41.150	134.82	-2.45	-1.575	0.897188	-0.011468	0.190076	0.0555	0.675	0.0285	0	101	195	3
2026-02-11	16:02:41.170	133.175	-11.34	-1.68	0.927688	0.060756	0.20618	0.057	0.6765	0.0285	0	101	195	3
2026-02-11	16:02:41.190	124.88	-19.46	-4.34	0.915976	0.134688	0.2135	0.0555	0.6915	0.0315	0	101	195	3
2026-02-11	16:02:41.210	105.07	-27.16	-7.455	0.901336	0.144936	0.235704	0.057	0.6975	0.0345	0	101	193	3
2026-02-11	16:02:41.230	80.57	-33.635	-8.61	0.894504	0.094184	0.259616	0.0615	0.696	0.0375	0	101	193	3
2026-02-11	16:02:41.250	78.96	-36.82	-8.505	0.929152	0.069296	0.327448	0.057	0.705	0.0405	0	101	193	3
2026-02-11	16:02:41.270	94.99	-36.085	-8.785	0.942084	0.08052	0.34038	0.0585	0.7095	0.0495	0	101	193	3
2026-02-11	16:02:41.290	109.305	-33.95	-9.205	0.968192	0.06954	0.355996	0.06	0.711	0.0615	0	101	193	3
2026-02-11	16:02:41.310	119.07	-31.115	-8.365	1.017236	0.060024	0.408212	0.06	0.711	0.069	0	101	193	3
2026-02-11	16:02:41.330	129.395	-26.075	-6.755	1.064084	0.077104	0.466772	0.0615	0.7185	0.078	0	101	193	3
2026-02-11	16:02:41.350	126.35	-20.3	-6.615	1.06384	0.152256	0.46482	0.063	0.7185	0.0825	0	101	193	3
2026-02-11	16:02:41.370	100.695	-16.555	-7.42	1.06506	0.227408	0.461404	0.069	0.7155	0.081	0	101	193	3
2026-02-11	16:02:41.390	51.135	-10.185	-7.735	1.055544	0.28792	0.458476	0.0735	0.7155	0.081	0	101	193	3
2026-02-11	16:02:41.410	-5.845	-3.675	-10.85	1.01626	0.273768	0.397476	0.078	0.717	0.084	0	104	207	3
2026-02-11	16:02:41.430	-47.565	1.785	-15.855	0.96868	0.23302	0.319884	0.0795	0.7185	0.0855	0	104	207	3
2026-02-11	16:02:41.450	-84.735	7.07	-20.545	0.954772	0.191784	0.249368	0.078	0.714	0.09	0	104	207	3
2026-02-11	16:02:41.470	-102.9	9.695	-23.695	0.986736	0.118096	0.18544	0.078	0.714	0.09	0	104	207	3
2026-02-11	16:02:41.490	-98.665	11.445	-25.375	0.996984	0.111508	0.166408	0.075	0.7035	0.087	0	104	207	3
2026-02-11	16:02:41.510	-92.295	12.495	-25.375	1.006012	0.125904	0.148108	0.078	0.693	0.0795	0	104	207	3
2026-02-11	16:02:41.530	-86.765	12.95	-24.01	0.996496	0.101748	0.134688	0.0795	0.693	0.0795	0	104	207	3
2026-02-11	16:02:41.550	-75.285	12.845	-21.91	0.984052	0.072224	0.125904	0.0735	0.6915	0.084	0	104	207	3
2026-02-11	16:02:41.570	-56.56	12.39	-19.145	0.975756	0.054656	0.150304	0.075	0.6825	0.081	0	104	207	3
2026-02-11	16:02:41.590	-40.915	13.72	-15.785	0.978196	0.044164	0.228628	0.069	0.672	0.075	0	104	207	3
2026-02-11	16:02:41.610	-33.95	20.335	-10.99	0.982832	-0.01464	0.303292	0.066	0.669	0.069	0	111	228	3
2026-02-11	16:02:41.630	-12.495	30.905	-4.865	0.98698	-0.111752	0.298168	0.0705	0.6705	0.0675	0	111	228	3
2026-02-11	16:02:41.650	42.385	38.22	0.945	0.975512	-0.193492	0.210328	0.0825	0.672	0.0735	0	111	228	3
2026-02-11	16:02:41.670	130.305	38.465	5.46	0.946232	-0.044652	0.07808	0.0915	0.663	0.0615	0	111	228	3
2026-02-11	16:02:41.690	174.965	29.26	9.03	0.93452	0.099308	0.045384	0.0885	0.66	0.0615	0	111	228	3
2026-02-11	16:02:41.710	169.785	18.095	11.83	0.934032	0.163724	0.120048	0.096	0.6615	0.0615	0	111	228	3
2026-02-11	16:02:41.730	147.91	9.275	14.98	0.942572	0.171776	0.226432	0.105	0.6615	0.0585	0	111	228	3
2026-02-11	16:02:41.750	122.43	4.725	19.18	0.952576	0.17568	0.255956	0.102	0.654	0.0585	0	111	228	3
2026-02-11	16:02:41.770	101.465	1.645	22.785	0.940864	0.196176	0.228628	0.099	0.657	0.0675	0	111	228	3
2026-02-11	16:02:41.790	79.87	-3.185	25.655	0.925248	0.201056	0.205692	0.102	0.66	0.0705	0	111	228	3
2026-02-11	16:02:41.810	57.575	-8.855	28.595	0.909876	0.200568	0.19764	0.108	0.6585	0.069	0	119	234	3
2026-02-11	16:02:41.830	36.645	-14.7	31.92	0.90036	0.194468	0.186416	0.111	0.6555	0.075	0	119	234	3
2026-02-11	16:02:41.850	20.3	-20.615	34.65	0.906704	0.19398	0.17324	0.1125	0.654	0.078	0	119	234	3
2026-02-11	16:02:41.870	5.67	-26.74	36.96	0.936472	0.199836	0.159088	0.1095	0.6585	0.084	0	119	234	3
2026-02-11	16:02:41.890	-19.53	-36.68	40.145	0.975512	0.226432	0.151036	0.111	0.6615	0.0915	0	119	234	3
2026-02-11	16:02:41.910	-39.27	-43.19	41.72	1.003816	0.233996	0.1647	0.1155	0.663	0.0975	0	119	234	3
2026-02-11	16:02:41.930	-59.15	-48.37	42.665	1.036268	0.221308	0.183	0.12	0.669	0.1035	0	119	234	3
2026-02-11	16:02:41.950	-74.97	-51.73	42.7	1.045784	0.225456	0.185684	0.12	0.675	0.111	0	119	234	3
2026-02-11	16:02:41.970	-89.845	-54.075	41.125	1.047248	0.234484	0.191052	0.1185	0.675	0.123	0	119	234	3
2026-02-11	16:02:41.990	-106.4	-55.3	37.415	1.02846	0.232044	0.209108	0.123	0.675	0.1335	0	119	234	3
2026-02-11	16:02:42.010	-124.18	-53.305	29.82	1.015528	0.21228	0.222772	0.129	0.6765	0.141	0	126	228	2
2026-02-11	16:02:42.030	-130.445	-50.225	24.22	1.014308	0.175924	0.215452	0.126	0.6765	0.1515	0	126	228	2
2026-02-11	16:02:42.050	-128.695	-44.625	16.31	0.996252	0.147132	0.206912	0.1245	0.678	0.1635	0	126	228	2
2026-02-11	16:02:42.070	-118.58	-39.2	8.225	0.99308	0.133712	0.194712	0.1305	0.678	0.1695	0	126	228	2
2026-02-11	16:02:42.090	-106.085	-34.09	1.085	1.0126	0.124928	0.196176	0.1305	0.6795	0.171	0	126	228	2
2026-02-11	16:02:42.110	-87.85	-25.655	-6.055	1.075552	0.102968	0.201788	0.1305	0.6795	0.171	0	126	228	2
2026-02-11	16:02:42.130	-73.85	-19.565	-8.82	1.09434	0.103212	0.194468	0.132	0.6735	0.177	0	126	228	2
2026-02-11	16:02:42.150	-58.415	-13.93	-10.85	1.082384	0.09882	0.185684	0.1365	0.669	0.189	0	126	228	2
2026-02-11	16:02:42.170	-43.785	-9.03	-12.495	1.067744	0.114192	0.183976	0.1395	0.669	0.1905	0	126	228	2
2026-02-11	16:02:42.190	-35.07	-5.18	-13.685	1.049688	0.121024	0.191296	0.141	0.6585	0.1965	0	126	228	2
2026-02-11	16:02:42.210	-29.785	-1.96	-15.12	1.037732	0.130052	0.19886	0.1425	0.648	0.1995	0	130	219	3
2026-02-11	16:02:42.230	-28.945	1.26	-16.8	1.029924	0.135664	0.208864	0.1425	0.6465	0.195	0	130	219	3
2026-02-11	16:02:42.250	-31.045	4.865	-18.655	1.030168	0.14884	0.212036	0.144	0.645	0.1965	0	130	219	3
2026-02-11	16:02:42.270	-35.21	8.68	-20.3	1.027728	0.1525	0.199592	0.1335	0.6465	0.1995	0	130	219	3
2026-02-11	16:02:42.290	-39.655	11.865	-21.595	1.028948	0.148108	0.185928	0.1335	0.642	0.1935	0	130	219	3
2026-02-11	16:02:42.310	-44.17	15.295	-22.33	1.010404	0.151524	0.159088	0.135	0.6345	0.1935	0	130	219	3
2026-02-11	16:02:42.330	-50.155	17.955	-22.47	0.988444	0.156892	0.142008	0.1335	0.6285	0.192	0	130	219	3
2026-02-11	16:02:42.350	-56.49	19.495	-22.015	0.981368	0.153232	0.138836	0.135	0.6255	0.1875	0	130	219	3
2026-02-11	16:02:42.370	-61.215	20.65	-21.455	0.982344	0.15128	0.134932	0.138	0.6225	0.18	0	130	219	3
2026-02-11	16:02:42.390	-64.96	21.385	-20.475	1.002596	0.152988	0.13298	0.135	0.6165	0.1785	0	130	219	3
2026-02-11	16:02:42.410	-68.39	21.7	-19.04	1.02724	0.151036	0.125416	0.1335	0.6135	0.177	0	130	210	3
2026-02-11	16:02:42.430	-69.895	21.665	-17.36	1.051396	0.144448	0.12688	0.1365	0.6105	0.1725	0	130	210	3
2026-02-11	16:02:42.450	-68.775	21.56	-15.505	1.05164	0.139568	0.122488	0.132	0.6075	0.1725	0	130	210	3
2026-02-11	16:02:42.470	-65.695	21.105	-13.475	1.057984	0.144448	0.121024	0.1275	0.6075	0.171	0	130	210	3
2026-02-11	16:02:42.490	-62.405	20.755	-11.655	1.052372	0.142008	0.124196	0.135	0.5985	0.1605	0	130	210	3
2026-02-11	16:02:42.510	-59.605	20.475	-10.43	1.03578	0.145668	0.118096	0.135	0.5985	0.165	0	130	210	3
2026-02-11	16:02:42.530	-56.84	20.125	-9.52	1.014308	0.15006	0.118828	0.1305	0.6015	0.1605	0	130	210	3
2026-02-11	16:02:42.550	-54.88	20.02	-9.31	1.000644	0.14152	0.111996	0.132	0.5985	0.1575	0	130	210	3
2026-02-11	16:02:42.570	-51.73	20.02	-9.31	0.995032	0.143228	0.110288	0.1335	0.5955	0.147	0	130	210	3
2026-02-11	16:02:42.590	-47.845	19.915	-9.415	0.995276	0.1403	0.10248	0.132	0.597	0.1425	0	130	210	3
2026-02-11	16:02:42.610	-43.26	19.53	-9.695	0.997472	0.14152	0.0915	0.132	0.5955	0.1425	0	126	195	3
2026-02-11	16:02:42.630	-38.5	18.655	-10.08	1.005036	0.14396	0.08662	0.132	0.594	0.1335	0	126	195	3
2026-02-11	16:02:42.650	-33.32	17.325	-10.815	0.999424	0.141764	0.08174	0.1275	0.5925	0.126	0	126	195	3
2026-02-11	16:02:42.670	-27.65	15.26	-12.075	0.995764	0.144936	0.07442	0.126	0.591	0.126	0	126	195	3
2026-02-11	16:02:42.690	-23.24	12.32	-13.475	0.990396	0.14518	0.075884	0.1245	0.5865	0.1305	0	126	195	3
2026-02-11	16:02:42.710	-20.23	8.82	-14.805	0.991372	0.152744	0.085644	0.12	0.591	0.1215	0	126	195	3
2026-02-11	16:02:42.730	-19.075	5.46	-16.275	0.986492	0.158356	0.096136	0.1275	0.591	0.12	0	126	195	3
2026-02-11	16:02:42.750	-20.65	0.98	-18.585	0.976	0.160064	0.104676	0.1275	0.591	0.12	0	126	195	3
2026-02-11	16:02:42.770	-23.625	-1.82	-19.985	0.974292	0.158112	0.111264	0.132	0.594	0.12	0	126	195	3
2026-02-11	16:02:42.790	-27.72	-4.375	-21.385	0.969412	0.163236	0.114924	0.1275	0.594	0.12	0	126	195	3
2026-02-11	16:02:42.810	-32.27	-6.895	-22.925	0.96624	0.151768	0.119072	0.1245	0.591	0.1215	0	120	176	3
2026-02-11	16:02:42.830	-37.31	-9.275	-24.605	0.9699	0.158112	0.12078	0.129	0.588	0.1215	0	120	176	3
2026-02-11	16:02:42.850	-45.185	-11.935	-26.25	0.981856	0.152988	0.134688	0.1335	0.594	0.1185	0	120	176	3
2026-02-11	16:02:42.870	-53.13	-14.525	-28.665	0.994544	0.14274	0.152744	0.138	0.603	0.1185	0	120	176	3
2026-02-11	16:02:42.890	-61.985	-16.975	-31.85	0.998692	0.116388	0.186416	0.129	0.594	0.123	0	120	176	3
2026-02-11	16:02:42.910	-68.32	-18.655	-35.315	1.017724	0.058804	0.230824	0.126	0.603	0.1245	0	120	176	3
2026-02-11	16:02:42.930	-69.125	-18.2	-36.575	1.001132	-0.082716	0.336476	0.132	0.6195	0.117	0	120	176	3
2026-02-11	16:02:42.950	-55.86	-11.69	-23.135	1.005768	-0.32818	0.448716	0.1245	0.6285	0.129	0	120	176	3
2026-02-11	16:02:42.970	-35.14	-2.03	-7.035	0.990396	-0.385764	0.409188	0.1185	0.636	0.12	0	120	176	3
2026-02-11	16:02:42.990	-8.33	2.52	4.235	1.022116	-0.228628	0.325496	0.108	0.642	0.1155	0	120	176	3
2026-02-11	16:02:43.010	9.695	7.07	12.39	0.9943	0	0.290116	0.1035	0.6465	0.1215	0	113	167	3
2026-02-11	16:02:43.030	3.955	6.475	16.45	0.99674	0.112972	0.264984	0.1065	0.6435	0.123	0	113	167	3
2026-02-11	16:02:43.050	-13.93	4.795	17.745	0.984052	0.125904	0.226676	0.114	0.633	0.126	0	113	167	3
2026-02-11	16:02:43.070	-23.24	3.885	18.13	0.978196	0.111996	0.188124	0.1185	0.633	0.1245	0	113	167	3
2026-02-11	16:02:43.090	-22.085	2.73	17.395	0.976732	0.132492	0.156404	0.1185	0.636	0.12	0	113	167	3
2026-02-11	16:02:43.110	-20.895	0.665	15.995	0.975268	0.158356	0.135664	0.111	0.6285	0.126	0	113	167	3
2026-02-11	16:02:43.130	-22.015	-1.645	14.21	0.964044	0.161528	0.118584	0.1245	0.6315	0.126	0	113	167	3
2026-02-11	16:02:43.150	-22.19	-4.165	12.145	0.955748	0.152256	0.118096	0.1155	0.633	0.117	0	113	167	3
2026-02-11	16:02:43.170	-18.375	-7.735	8.75	0.961604	0.144692	0.14274	0.1155	0.6285	0.1185	0	113	167	3
2026-02-11	16:02:43.190	-15.12	-9.52	5.985	0.976244	0.139324	0.172996	0.1155	0.627	0.1215	0	113	167	3
2026-02-11	16:02:43.210	-12.495	-10.255	2.975	0.99064	0.120536	0.20496	0.12	0.63	0.1245	0	110	174	3
2026-02-11	16:02:43.230	-7.245	-9.45	0.14	1.001376	0.074908	0.23912	0.1185	0.6345	0.132	0	110	174	3
2026-02-11	16:02:43.250	-1.4	-6.195	-1.365	0.997472	0.027328	0.260104	0.111	0.6375	0.1365	0	110	174	3
2026-02-11	16:02:43.270	5.46	-2.695	-1.47	0.9943	-0.025132	0.301828	0.111	0.639	0.1335	0	110	174	3
2026-02-11	16:02:43.290	23.275	1.75	-0.105	1.011624	-0.106384	0.338672	0.1155	0.642	0.132	0	110	174	3
2026-02-11	16:02:43.310	55.02	7.7	0.98	0.979172	-0.199104	0.232044	0.1125	0.639	0.1365	0	110	174	3
2026-02-11	16:02:43.330	132.16	7.84	-2.345	0.936228	-0.128588	0.168116	0.114	0.636	0.132	0	110	174	3
2026-02-11	16:02:43.350	187.18	4.445	-3.5	0.987224	-0.028304	0.23668	0.1155	0.6345	0.1455	0	110	174	3
2026-02-11	16:02:43.370	220.64	8.54	-6.195	1.018456	0.134688	0.302072	0.117	0.633	0.1395	0	110	174	3
2026-02-11	16:02:43.390	205.8	17.64	-8.54	0.971364	0.247172	0.233264	0.117	0.633	0.1395	0	110	174	3
2026-02-11	16:02:43.410	170.24	17.99	-8.54	0.94062	0.20984	0.188368	0.114	0.627	0.1365	0	109	186	3
2026-02-11	16:02:43.430	155.295	14.875	-9.485	0.937204	0.240584	0.189832	0.1125	0.621	0.1365	0	109	186	3
2026-02-11	16:02:43.450	132.615	12.32	-9.345	0.940376	0.314272	0.21228	0.117	0.624	0.138	0	109	186	3
2026-02-11	16:02:43.470	96.705	10.29	-8.225	0.934764	0.29768	0.205936	0.1185	0.621	0.138	0	109	186	3
2026-02-11	16:02:43.490	65.24	8.085	-6.86	0.926956	0.27938	0.190808	0.117	0.615	0.1395	0	109	186	3
2026-02-11	16:02:43.510	37.905	5.18	-4.935	0.929396	0.2989	0.174216	0.117	0.6135	0.1335	0	109	186	3
2026-02-11	16:02:43.530	6.755	2.345	-1.96	0.932568	0.316956	0.16226	0.129	0.609	0.1335	0	109	186	3
2026-02-11	16:02:43.550	-27.02	-0.49	1.12	0.939156	0.31598	0.146156	0.1185	0.609	0.144	0	109	186	3
2026-02-11	16:02:43.570	-64.435	-3.15	3.955	0.948672	0.331352	0.128344	0.117	0.609	0.1335	0	109	186	3
2026-02-11	16:02:43.590	-116.235	-6.195	6.37	0.958188	0.316712	0.116144	0.1125	0.606	0.1395	0	109	186	3
2026-02-11	16:02:43.610	-162.33	-9.31	6.825	0.95892	0.282796	0.108092	0.114	0.6045	0.141	0	110	195	3
2026-02-11	16:02:43.630	-186.06	-12.075	5.39	0.964776	0.239364	0.108336	0.1185	0.603	0.138	0	110	195	3
2026-02-11	16:02:43.650	-197.19	-14.7	2.59	0.961848	0.194224	0.117852	0.114	0.6075	0.1305	0	110	195	3
2026-02-11	16:02:43.670	-196.805	-17.325	-1.47	0.967948	0.151036	0.11712	0.1095	0.609	0.1365	0	110	195	3
2026-02-11	16:02:43.690	-185.5	-18.69	-5.74	0.988688	0.116388	0.137616	0.1155	0.6075	0.1425	0	110	195	3
2026-02-11	16:02:43.710	-159.005	-18.2	-10.465	1.007232	-0.084424	0.2196	0.12	0.6075	0.141	0	110	195	3
2026-02-11	16:02:43.730	-81.935	-14.63	-14.875	1.012844	-0.215208	0.317932	0.1155	0.612	0.138	0	110	195	3
2026-02-11	16:02:43.750	-8.05	-10.43	-14.49	1.026508	-0.176412	0.35136	0.1245	0.6135	0.1455	0	110	195	3
2026-02-11	16:02:43.770	14.525	-4.795	-6.545	1.031144	-0.055388	0.340624	0.1275	0.6135	0.153	0	110	195	3
2026-02-11	16:02:43.790	5.565	-1.225	1.26	1.024556	-0.033428	0.315248	0.123	0.6285	0.147	0	110	195	3
2026-02-11	16:02:43.810	3.43	2.835	7.21	0.998448	0.05002	0.290116	0.12	0.624	0.1455	0	115	197	3
2026-02-11	16:02:43.830	-0.35	2.485	6.475	0.989176	0.121268	0.2501	0.123	0.624	0.1425	0	115	197	3
2026-02-11	16:02:43.850	-7.665	1.47	4.235	0.99308	0.14396	0.209352	0.1245	0.6255	0.1425	0	115	197	3
2026-02-11	16:02:43.870	-14.385	0.56	1.75	0.99674	0.150548	0.188124	0.126	0.6255	0.1485	0	115	197	3
2026-02-11	16:02:43.890	-19.285	-0.14	-0.175	1.000644	0.154452	0.187392	0.126	0.621	0.1485	0	115	197	3
2026-02-11	16:02:43.910	-21.42	-0.385	-1.365	0.999424	0.147132	0.188124	0.1245	0.6195	0.1425	0	115	197	3
2026-02-11	16:02:43.930	-20.65	-0.21	-1.89	0.991128	0.130296	0.190564	0.12	0.6195	0.1425	0	115	197	3
2026-02-11	16:02:43.950	-18.445	-0.07	-1.82	0.98454	0.118096	0.198128	0.1185	0.615	0.153	0	115	197	3
2026-02-11	16:02:43.970	-15.435	0	-1.225	0.975512	0.10248	0.210328	0.1335	0.6225	0.1515	0	115	197	3
2026-02-11	16:02:43.990	-11.27	0.21	-0.42	0.958676	0.094184	0.226676	0.123	0.621	0.1395	0	115	197	3
2026-02-11	16:02:44.010	-8.225	0.525	0.28	0.953796	0.070272	0.2501	0.12	0.615	0.1425	0	119	201	3
2026-02-11	16:02:44.030	-6.895	2.415	1.05	0.97112	0.034404	0.26596	0.12	0.615	0.1425	0	119	201	3
2026-02-11	16:02:44.050	-11.34	5.74	2.695	1.000156	-0.008296	0.275232	0.1185	0.6195	0.1425	0	119	201	3
2026-02-11	16:02:44.070	-14.56	11.76	2.835	1.005768	0.05856	0.181048	0.1185	0.621	0.138	0	119	201	3
2026-02-11	16:02:44.090	7.14	14.315	0.595	0.954528	-0.01342	0.152012	0.12	0.618	0.1365	0	119	201	3
2026-02-11	16:02:44.110	41.09	12.39	-0.315	0.985516	0.131028	0.244	0.1125	0.6165	0.1395	0	119	201	3
2026-02-11	16:02:44.130	24.115	10.71	0.91	1.014552	0.143228	0.370392	0.108	0.615	0.1395	0	119	201	3
2026-02-11	16:02:44.150	9.45	13.755	-0.875	1.044564	0.070028	0.4026	0.1155	0.6165	0.132	0	119	201	3
2026-02-11	16:02:44.170	26.25	22.365	-2.695	0.989664	0.077592	0.30744	0.117	0.6075	0.132	0	119	201	3
2026-02-11	16:02:44.190	56.14	23.205	-6.02	0.957944	0.077592	0.269376	0.111	0.612	0.135	0	119	201	3
2026-02-11	16:02:44.210	83.335	19.845	-7.455	0.942816	0.070272	0.294752	0.117	0.609	0.1245	0	122	211	3
2026-02-11	16:02:44.230	104.65	16.065	-7.525	0.952576	0.094916	0.32452	0.1185	0.5985	0.129	0	122	211	3
2026-02-11	16:02:44.250	106.505	15.54	-5.355	0.944768	0.157624	0.293288	0.114	0.6	0.123	0	122	211	3
2026-02-11	16:02:44.270	92.4	13.51	-1.435	0.934276	0.10858	0.244976	0.108	0.6	0.1185	0	122	211	3
2026-02-11	16:02:44.290	94.395	10.29	0.63	0.951844	0.150548	0.288896	0.1065	0.597	0.1185	0	122	211	3
2026-02-11	16:02:44.310	89.6	9.485	1.26	0.947696	0.2013	0.297924	0.111	0.6	0.117	0	122	211	3
2026-02-11	16:02:44.330	75.915	9.625	1.26	0.942328	0.205204	0.244976	0.1155	0.603	0.1155	0	122	211	3
2026-02-11	16:02:44.350	60.97	9.1	1.75	0.936472	0.170068	0.189344	0.102	0.603	0.1095	0	122	211	3
2026-02-11	16:02:44.370	47.32	7.35	3.185	0.945744	0.171532	0.175436	0.102	0.6	0.12	0	122	211	3
2026-02-11	16:02:44.390	33.495	5.81	5.18	0.967948	0.183244	0.187636	0.105	0.6	0.111	0	122	211	3
2026-02-11	16:02:44.410	24.85	5.25	6.37	0.98454	0.187392	0.2074	0.1095	0.5985	0.1245	0	122	224	3
2026-02-11	16:02:44.430	21.805	5.39	5.67	0.976976	0.211304	0.19642	0.1035	0.597	0.108	0	122	224	3
2026-02-11	16:02:44.450	14.385	3.5	3.955	0.971852	0.201788	0.199348	0.111	0.5985	0.108	0	122	224	3
2026-02-11	16:02:44.470	8.085	1.295	1.715	0.978928	0.180804	0.261324	0.1095	0.6015	0.1125	0	122	224	3
2026-02-11	16:02:44.490	8.26	1.575	-0.525	0.970144	0.15982	0.278648	0.105	0.597	0.117	0	122	224	3
2026-02-11	16:02:44.510	13.93	2.695	-2.695	0.966972	0.175436	0.254736	0.1035	0.591	0.1125	0	122	224	3
2026-02-11	16:02:44.530	15.085	2.765	-3.745	0.962336	0.183244	0.233264	0.105	0.5925	0.111	0	122	224	3
2026-02-11	16:02:44.550	12.18	1.26	-3.57	0.950624	0.183976	0.233508	0.1095	0.603	0.117	0	122	224	3
2026-02-11	16:02:44.570	8.295	-0.105	-2.45	0.949892	0.183244	0.230336	0.111	0.5925	0.1125	0	122	224	3
2026-02-11	16:02:44.590	6.02	-0.98	-0.665	0.95892	0.193736	0.225944	0.111	0.5985	0.1125	0	122	224	3
2026-02-11	16:02:44.610	5.565	-1.68	0.525	0.951844	0.202276	0.227408	0.105	0.6	0.117	0	120	232	3
2026-02-11	16:02:44.630	4.2	-2.31	0.735	0.951356	0.20496	0.234972	0.1005	0.597	0.108	0	120	232	3
2026-02-11	16:02:44.650	-1.015	-2.8	0.77	0.951844	0.204228	0.255956	0.111	0.5985	0.1185	0	120	232	3
2026-02-11	16:02:44.670	4.2	-1.995	-0.035	0.959408	0.146644	0.259616	0.111	0.5985	0.1185	0	120	232	3
2026-02-11	16:02:44.690	15.75	-0.385	-1.015	0.946476	0.1891	0.241316	0.108	0.594	0.117	0	120	232	3
2026-02-11	16:02:44.710	16.45	-0.875	-2.065	0.950624	0.205936	0.251808	0.1095	0.597	0.114	0	120	232	3
2026-02-11	16:02:44.730	13.405	-1.295	-2.975	0.955992	0.203496	0.288408	0.1125	0.6	0.108	0	120	232	3
2026-02-11	16:02:44.750	10.22	-0.42	-3.325	0.953796	0.183732	0.296948	0.111	0.5955	0.1035	0	120	232	3
2026-02-11	16:02:44.770	8.925	0.385	-2.835	0.9577	0.174704	0.289628	0.1095	0.6105	0.1155	0	120	232	3
2026-02-11	16:02:44.790	8.26	1.225	-2.31	0.95526	0.206424	0.295728	0.114	0.6045	0.1245	0	120	232	3
2026-02-11	16:02:44.810	3.955	2.135	-2.8	0.961848	0.239608	0.305488	0.108	0.5955	0.1215	0	116	238	3
2026-02-11	16:02:44.830	-0.77	3.045	-3.85	0.963068	0.19886	0.282796	0.1035	0.6075	0.111	0	116	238	3
2026-02-11	16:02:44.850	4.515	4.69	-3.745	0.964044	0.193736	0.280844	0.1125	0.6015	0.123	0	116	238	3
2026-02-11	16:02:44.870	11.655	5.74	-2.835	0.95526	0.18422	0.280112	0.1095	0.606	0.108	0	116	238	3
2026-02-11	16:02:44.890	21.315	6.755	-2.66	0.9516	0.206668	0.287432	0.1095	0.606	0.108	0	116	238	3
2026-02-11	16:02:44.910	28.245	8.12	-2.625	0.950136	0.239364	0.301584	0.1065	0.6045	0.1095	0	116	238	3
2026-02-11	16:02:44.930	30.66	8.75	-2.03	0.939644	0.223504	0.292556	0.108	0.603	0.1155	0	116	238	3
2026-02-11	16:02:44.950	31.01	8.715	-1.68	0.937204	0.30134	0.29158	0.111	0.603	0.1215	0	116	238	3
2026-02-11	16:02:44.970	15.75	7.07	-0.21	0.937692	0.244976	0.294752	0.1095	0.5985	0.117	0	116	238	3
2026-02-11	16:02:44.990	4.9	5.495	3.535	0.946232	0.16836	0.310124	0.1035	0.597	0.1095	0	116	238	3
2026-02-11	16:02:45.010	6.37	5.11	7.91	0.94916	0.1403	0.307196	0.099	0.606	0.1125	0	110	247	2
2026-02-11	16:02:45.030	15.365	4.76	11.13	0.951112	0.1464	0.291092	0.108	0.606	0.1125	0	110	247	2
2026-02-11	16:02:45.050	33.67	4.375	11.62	0.970876	0.193492	0.283772	0.108	0.5985	0.114	0	110	247	2
2026-02-11	16:02:45.070	47.18	6.405	10.57	0.962824	0.268156	0.237656	0.108	0.603	0.1125	0	110	247	2
2026-02-11	16:02:45.090	38.465	7.77	10.745	0.950624	0.265472	0.220088	0.111	0.603	0.12	0	110	247	2
2026-02-11	16:02:45.110	21.875	6.02	11.165	0.943304	0.20618	0.201544	0.1095	0.6015	0.1155	0	110	247	2
2026-02-11	16:02:45.130	20.23	3.78	10.605	0.94428	0.19886	0.185928	0.108	0.6	0.114	0	110	247	2
2026-02-11	16:02:45.150	26.005	2.59	7.875	0.95038	0.271572	0.2074	0.111	0.6075	0.1125	0	110	247	2
2026-02-11	16:02:45.170	18.725	1.82	4.34	0.95892	0.290116	0.219844	0.1155	0.6165	0.108	0	110	247	2
2026-02-11	16:02:45.190	5.18	1.05	1.05	0.958432	0.235948	0.23058	0.1065	0.606	0.1065	0	110	247	2
2026-02-11	16:02:45.210	1.435	-0.175	-1.085	0.966972	0.202032	0.260104	0.1065	0.6105	0.114	0	103	254	2
2026-02-11	16:02:45.230	5.075	-1.26	-2.94	0.964776	0.232044	0.292312	0.108	0.606	0.108	0	103	254	2
2026-02-11	16:02:45.250	1.855	-2.205	-4.025	0.95404	0.25132	0.253516	0.1035	0.6015	0.114	0	103	254	2
2026-02-11	16:02:45.270	-10.605	-2.87	-3.605	0.968436	0.280356	0.260104	0.1035	0.6015	0.111	0	103	254	2
2026-02-11	16:02:45.290	-20.755	-1.925	-4.025	0.955504	0.244732	0.319884	0.0975	0.6045	0.114	0	103	254	2
2026-02-11	16:02:45.310	-14.91	-0.315	-5.11	0.922564	0.198372	0.293776	0.1035	0.606	0.12	0	103	254	2
2026-02-11	16:02:45.330	-7.735	-1.155	-4.515	0.928908	0.184952	0.242048	0.102	0.603	0.1155	0	103	254	2
2026-02-11	16:02:45.350	-10.08	-2.065	-1.575	0.927932	0.200568	0.170068	0.102	0.603	0.1095	0	103	254	2
2026-02-11	16:02:45.370	-19.145	-4.235	1.54	0.935496	0.20008	0.169336	0.1035	0.606	0.108	0	103	254	2
2026-02-11	16:02:45.390	-14.84	-5.145	2.94	0.964776	0.19276	0.268888	0.1065	0.612	0.1155	0	103	254	2
2026-02-11	16:02:45.410	-6.02	-2.1	2.8	0.955748	0.182512	0.301096	0.114	0.6015	0.1095	0	97	257	2
2026-02-11	16:02:45.430	3.045	0.665	1.365	0.946964	0.183	0.27816	0.1035	0.6015	0.1095	0	97	257	2
2026-02-11	16:02:45.450	9.17	1.33	-0.105	0.949892	0.207156	0.272304	0.1095	0.615	0.1095	0	97	257	2
2026-02-11	16:02:45.470	8.19	0.805	-1.19	0.956968	0.20618	0.273036	0.105	0.609	0.114	0	97	257	2
2026-02-11	16:02:45.490	8.925	0.77	-2.065	0.965264	0.192516	0.284504	0.099	0.6075	0.114	0	97	257	2
2026-02-11	16:02:45.510	10.045	2.17	-2.24	0.965508	0.222284	0.286212	0.1065	0.6105	0.1155	0	97	257	2
2026-02-11	16:02:45.530	4.655	2.415	-2.275	0.959652	0.218624	0.2745	0.1065	0.6105	0.1155	0	97	257	2
2026-02-11	16:02:45.550	-0.07	1.61	-1.995	0.966484	0.222528	0.271084	0.105	0.606	0.1125	0	97	257	2
2026-02-11	16:02:45.570	-3.78	0.63	-1.26	0.953064	0.223504	0.286944	0.1065	0.6015	0.1095	0	97	257	2
2026-02-11	16:02:45.590	-8.75	0.455	-0.28	0.929884	0.21228	0.260348	0.108	0.6015	0.111	0	97	257	2
2026-02-11	16:02:45.610	-15.4	-1.12	1.645	0.927444	0.1891	0.245464	0.108	0.6015	0.1125	0	90	258	2
2026-02-11	16:02:45.630	-16.135	-3.43	4.235	0.936716	0.164944	0.24156	0.099	0.6075	0.117	0	90	258	2
2026-02-11	16:02:45.650	-17.255	-5.425	7.315	0.943792	0.158356	0.228384	0.1035	0.6075	0.117	0	90	258	2
2026-02-11	16:02:45.670	-18.83	-6.93	9.625	0.954772	0.166896	0.214964	0.1005	0.6	0.1035	0	90	258	2
2026-02-11	16:02:45.690	-18.55	-7.91	10.815	0.949892	0.179096	0.2074	0.117	0.606	0.111	0	90	258	2
2026-02-11	16:02:45.710	-21.35	-9.275	11.55	0.965752	0.200812	0.21228	0.099	0.612	0.1095	0	90	258	2
2026-02-11	16:02:45.730	-29.505	-11.06	11.095	0.973804	0.22326	0.181292	0.102	0.6075	0.1065	0	90	258	2
2026-02-11	16:02:45.750	-38.92	-14.035	8.855	0.969168	0.22204	0.163236	0.102	0.606	0.108	0	90	258	2
2026-02-11	16:02:45.770	-42.595	-16.03	7.28	0.968436	0.226188	0.202764	0.1035	0.6105	0.117	0	90	258	2
2026-02-11	16:02:45.790	-52.535	-18.725	5.67	0.957944	0.232776	0.201544	0.1065	0.618	0.1245	0	90	258	2
2026-02-11	16:02:45.810	-65.73	-23.1	3.78	0.970388	0.170312	0.2379	0.102	0.612	0.1155	0	84	257	2
2026-02-11	16:02:45.830	-65.87	-22.75	1.75	0.991616	0.114436	0.330864	0.1095	0.612	0.1245	0	84	257	2
2026-02-11	16:02:45.850	-48.335	-15.89	0.175	0.970144	0.092476	0.31476	0.1065	0.618	0.1335	0	84	257	2
2026-02-11	16:02:45.870	-22.26	-10.85	-1.435	0.950868	0.142252	0.275232	0.1005	0.609	0.1395	0	84	257	2
2026-02-11	16:02:45.890	-8.855	-9.87	-2.24	0.95526	0.155672	0.278404	0.102	0.615	0.138	0	84	257	2
