yyyy-MM-dd	HH:mm:ss.fff	gyrX	gyrY	gyrZ	accX	accY	accZ	magX	magY	magZ	Marker	Energy	Angle	Classification
2026-02-11	16:23:55.410	-2.415	-1.715	2.87	0.97234	0.273768	0.171044	0.141	0.6255	0.1215	0	268	158	2
2026-02-11	16:23:55.430	-2.17	-1.05	1.68	0.971852	0.277184	0.171044	0.141	0.6225	0.1275	0	268	158	2
2026-02-11	16:23:55.450	-2.625	-0.455	0.455	0.97478	0.280112	0.164456	0.141	0.624	0.1245	0	268	158	2
2026-02-11	16:23:55.470	-3.255	-0.105	-0.77	0.965996	0.27694	0.162504	0.147	0.6225	0.117	0	268	158	2
2026-02-11	16:23:55.490	-3.535	0.245	-1.925	0.971608	0.272792	0.157136	0.1455	0.624	0.1185	0	268	158	2
2026-02-11	16:23:55.510	-3.01	0.77	-3.185	0.983076	0.268888	0.157136	0.1455	0.6255	0.1245	0	268	158	2
2026-02-11	16:23:55.530	-1.61	1.505	-4.41	0.981124	0.265716	0.149816	0.144	0.6225	0.123	0	268	158	2
2026-02-11	16:23:55.550	0.595	2.45	-5.74	0.971852	0.263032	0.14884	0.1425	0.624	0.12	0	268	158	2
2026-02-11	16:23:55.570	2.66	3.185	-7	0.978196	0.258152	0.146644	0.147	0.624	0.12	0	268	158	2
2026-02-11	16:23:55.590	4.095	3.605	-7.805	0.97966	0.254736	0.142984	0.147	0.624	0.117	0	268	158	2
2026-02-11	16:23:55.610	5.11	3.745	-8.295	0.9699	0.252296	0.13786	0.1485	0.621	0.117	0	232	160	2
2026-02-11	16:23:55.630	5.565	3.5	-8.47	0.97112	0.254248	0.141032	0.144	0.6165	0.12	0	232	160	2
2026-02-11	16:23:55.650	5.53	3.22	-8.47	0.966972	0.253028	0.138592	0.138	0.6195	0.1155	0	232	160	2
2026-02-11	16:23:55.670	5.32	2.8	-8.26	0.965264	0.249612	0.138104	0.141	0.618	0.1125	0	232	160	2
2026-02-11	16:23:55.690	5.075	2.345	-7.84	0.965752	0.246684	0.141032	0.141	0.6195	0.114	0	232	160	2
2026-02-11	16:23:55.710	5.32	1.995	-7.105	0.965508	0.244244	0.13664	0.1425	0.6195	0.1155	0	232	160	2
2026-02-11	16:23:55.730	5.845	1.68	-6.23	0.959164	0.243268	0.135664	0.1425	0.612	0.1155	0	232	160	2
2026-02-11	16:23:55.750	6.23	1.19	-5.11	0.9577	0.241316	0.135176	0.138	0.6075	0.12	0	232	160	2
2026-02-11	16:23:55.770	6.335	0.42	-3.43	0.954284	0.244488	0.141276	0.141	0.606	0.12	0	232	160	2
2026-02-11	16:23:55.790	6.335	-0.245	-1.715	0.954284	0.244244	0.144204	0.144	0.609	0.1155	0	232	160	2
2026-02-11	16:23:55.810	6.65	-0.665	-0.455	0.952088	0.250344	0.141032	0.1425	0.615	0.114	0	201	160	2
2026-02-11	16:23:55.830	6.72	-1.225	0.735	0.951844	0.254492	0.147132	0.141	0.615	0.117	0	201	160	2
2026-02-11	16:23:55.850	6.58	-1.645	1.785	0.95648	0.257664	0.151768	0.1425	0.612	0.12	0	201	160	2
2026-02-11	16:23:55.870	6.44	-1.925	2.8	0.957212	0.262544	0.15494	0.1455	0.6105	0.117	0	201	160	2
2026-02-11	16:23:55.890	6.51	-2.1	3.535	0.955992	0.261324	0.15372	0.15	0.612	0.1125	0	201	160	2
2026-02-11	16:23:55.910	6.895	-2.345	4.095	0.964288	0.269132	0.156892	0.1515	0.6135	0.1125	0	201	160	2
2026-02-11	16:23:55.930	7.245	-2.485	4.235	0.963068	0.273036	0.160064	0.1455	0.6195	0.114	0	201	160	2
2026-02-11	16:23:55.950	7.105	-2.66	3.885	0.956236	0.276452	0.166164	0.144	0.6225	0.117	0	201	160	2
2026-02-11	16:23:55.970	6.58	-2.8	3.22	0.952332	0.27816	0.164212	0.1455	0.6225	0.12	0	201	160	2
2026-02-11	16:23:55.990	4.865	-2.695	2.1	0.952088	0.28182	0.170068	0.144	0.6255	0.12	0	201	160	2
2026-02-11	16:23:56.010	3.605	-2.275	1.47	0.947452	0.282308	0.171044	0.144	0.618	0.12	0	173	159	2
2026-02-11	16:23:56.030	2.905	-1.89	1.155	0.95892	0.277672	0.176412	0.144	0.6135	0.12	0	173	159	2
2026-02-11	16:23:56.050	3.465	-1.19	1.12	0.96624	0.276452	0.176656	0.1425	0.6165	0.12	0	173	159	2
2026-02-11	16:23:56.070	5.075	-0.35	1.155	0.97112	0.275964	0.172996	0.1395	0.6195	0.1215	0	173	159	2
2026-02-11	16:23:56.090	6.93	0.455	0.945	0.974536	0.281088	0.169092	0.141	0.6195	0.12	0	173	159	2
2026-02-11	16:23:56.110	8.085	1.19	0.56	0.972096	0.284504	0.166408	0.1485	0.618	0.117	0	173	159	2
2026-02-11	16:23:56.130	7.98	1.645	-0.105	0.967216	0.289384	0.168116	0.1515	0.618	0.1155	0	173	159	2
2026-02-11	16:23:56.150	7.105	1.855	-1.33	0.974048	0.282552	0.167628	0.147	0.6165	0.1155	0	173	159	2
2026-02-11	16:23:56.170	6.615	2.065	-2.94	0.973072	0.283284	0.156648	0.147	0.6195	0.114	0	173	159	2
2026-02-11	16:23:56.190	6.615	2.135	-5.355	0.966728	0.279868	0.15494	0.1515	0.6255	0.1155	0	173	159	2
2026-02-11	16:23:56.210	6.545	2.03	-7.805	0.969412	0.275964	0.151036	0.1515	0.6255	0.1155	0	150	159	2
2026-02-11	16:23:56.230	5.95	1.82	-9.45	0.968436	0.27084	0.152988	0.1455	0.621	0.1155	0	150	159	2
2026-02-11	16:23:56.250	4.9	1.855	-10.395	0.970632	0.264984	0.149084	0.141	0.6135	0.114	0	150	159	2
2026-02-11	16:23:56.270	4.27	1.855	-10.465	0.968924	0.262056	0.149328	0.1425	0.612	0.1125	0	150	159	2
2026-02-11	16:23:56.290	4.305	1.96	-9.835	0.966972	0.254004	0.145668	0.1455	0.609	0.114	0	150	159	2
2026-02-11	16:23:56.310	4.865	2.135	-8.855	0.963556	0.248636	0.143716	0.147	0.609	0.111	0	150	159	2
2026-02-11	16:23:56.330	5.635	2.275	-7.595	0.95892	0.247416	0.142252	0.1425	0.6135	0.1155	0	150	159	2
2026-02-11	16:23:56.350	5.915	2.24	-6.055	0.953552	0.250588	0.141764	0.144	0.612	0.12	0	150	159	2
2026-02-11	16:23:56.370	5.95	1.995	-4.305	0.953064	0.251564	0.137128	0.147	0.609	0.114	0	150	159	2
2026-02-11	16:23:56.390	5.705	1.68	-2.415	0.951356	0.25132	0.138836	0.147	0.6105	0.1155	0	150	159	2
2026-02-11	16:23:54.410	39.13	2.8	15.435	0.96258	0.496296	0.26596	0.1425	0.621	0.1005	0	463	178	3
2026-02-11	16:23:54.430	1.155	3.99	15.505	0.957944	0.456768	0.241316	0.144	0.6225	0.1005	0	463	178	3
2026-02-11	16:23:54.450	-27.195	3.955	16.38	0.949892	0.398208	0.213988	0.147	0.6255	0.1035	0	463	178	3
2026-02-11	16:23:54.470	-45.955	2.73	17.185	0.951356	0.335744	0.18788	0.1485	0.627	0.1005	0	463	178	3
2026-02-11	16:23:54.490	-56.56	0.105	17.605	0.960628	0.28914	0.167872	0.147	0.6315	0.1005	0	463	178	3
2026-02-11	16:23:54.510	-53.025	-0.63	17.535	0.972584	0.278648	0.165188	0.147	0.6315	0.1005	0	463	178	3
2026-02-11	16:23:54.530	-45.57	-0.21	17.255	0.97234	0.272792	0.161528	0.144	0.6315	0.102	0	463	178	3
2026-02-11	16:23:54.550	-36.435	1.05	16.66	0.978684	0.275476	0.157624	0.1425	0.636	0.1035	0	463	178	3
2026-02-11	16:23:54.570	-26.915	3.045	15.435	0.982832	0.284016	0.152744	0.1455	0.6435	0.105	0	463	178	3
2026-02-11	16:23:54.590	-19.705	5.775	13.37	0.98576	0.286456	0.144204	0.1455	0.648	0.1035	0	463	178	3
2026-02-11	16:23:54.610	-14.77	8.715	10.64	0.981612	0.287676	0.133224	0.144	0.6435	0.102	0	430	181	3
2026-02-11	16:23:54.630	-10.815	11.235	7.175	0.978928	0.284992	0.121512	0.1485	0.6435	0.105	0	430	181	3
2026-02-11	16:23:54.650	-7.245	13.09	3.185	0.979172	0.28792	0.114924	0.1485	0.6465	0.1095	0	430	181	3
2026-02-11	16:23:54.670	-4.235	14.175	-0.945	0.975756	0.283772	0.110776	0.1485	0.6465	0.1065	0	430	181	3
2026-02-11	16:23:54.690	-1.61	14.07	-4.655	0.979416	0.279624	0.106384	0.1425	0.642	0.102	0	430	181	3
2026-02-11	16:23:54.710	0.35	12.705	-9.03	0.986736	0.286456	0.107604	0.135	0.636	0.102	0	430	181	3
2026-02-11	16:23:54.730	0.14	11.48	-11.2	0.987956	0.283284	0.10736	0.144	0.6405	0.0975	0	430	181	3
2026-02-11	16:23:54.750	-0.875	10.185	-12.985	0.994056	0.279868	0.107116	0.1425	0.645	0.0945	0	430	181	3
2026-02-11	16:23:54.770	-1.89	9.065	-14.525	0.993568	0.271816	0.101748	0.141	0.6435	0.099	0	430	181	3
2026-02-11	16:23:54.790	-2.835	8.085	-15.855	1.000156	0.267668	0.099552	0.1425	0.6375	0.0975	0	430	181	3
2026-02-11	16:23:54.810	-3.395	7.21	-17.255	0.99186	0.254492	0.097112	0.1425	0.639	0.096	0	390	178	3
2026-02-11	16:23:54.830	-3.325	6.055	-18.55	0.987224	0.252052	0.100284	0.1425	0.6375	0.0975	0	390	178	3
2026-02-11	16:23:54.850	-3.22	4.69	-19.53	0.977708	0.246928	0.09857599	0.1455	0.6315	0.0915	0	390	178	3
2026-02-11	16:23:54.870	-3.92	2.94	-19.88	0.970876	0.25132	0.103944	0.147	0.6285	0.0915	0	390	178	3
2026-02-11	16:23:54.890	-5.53	0.77	-19.425	0.96014	0.248636	0.111264	0.144	0.6315	0.0945	0	390	178	3
2026-02-11	16:23:54.910	-8.645	-1.82	-17.955	0.95526	0.252296	0.118096	0.1425	0.633	0.096	0	390	178	3
2026-02-11	16:23:54.930	-12.39	-4.27	-15.995	0.948672	0.251076	0.12688	0.141	0.63	0.099	0	390	178	3
2026-02-11	16:23:54.950	-15.645	-5.985	-14	0.94306	0.245708	0.128344	0.1395	0.6315	0.096	0	390	178	3
2026-02-11	16:23:54.970	-18.97	-7.49	-11.935	0.94062	0.24644	0.136396	0.141	0.6285	0.093	0	390	178	3
2026-02-11	16:23:54.990	-21.49	-8.61	-9.8	0.935496	0.24034	0.1403	0.1395	0.6255	0.0975	0	390	178	3
2026-02-11	16:23:55.010	-23.24	-9.66	-7.49	0.943548	0.238876	0.152256	0.138	0.624	0.099	0	348	168	3
2026-02-11	16:23:55.030	-23.275	-10.08	-5.25	0.947208	0.237656	0.154452	0.138	0.6195	0.0975	0	348	168	3
2026-02-11	16:23:55.050	-21.91	-10.22	-3.325	0.947696	0.233752	0.154696	0.138	0.618	0.1005	0	348	168	3
2026-02-11	16:23:55.070	-19.81	-10.15	-1.575	0.94306	0.235704	0.15738	0.138	0.6195	0.099	0	348	168	3
2026-02-11	16:23:55.090	-17.92	-10.325	-0.035	0.95892	0.24034	0.1708	0.1455	0.6195	0.1005	0	348	168	3
2026-02-11	16:23:55.110	-16.38	-9.765	0.735	0.965996	0.24766	0.175192	0.1515	0.621	0.1065	0	348	168	3
2026-02-11	16:23:55.130	-13.265	-8.505	0.315	0.953064	0.240828	0.166164	0.15	0.621	0.1065	0	348	168	3
2026-02-11	16:23:55.150	-11.2	-7.945	-0.665	0.945256	0.244976	0.1647	0.141	0.621	0.1065	0	348	168	3
2026-02-11	16:23:55.170	-10.01	-8.19	-1.4	0.9394	0.24888	0.171044	0.1365	0.618	0.1095	0	348	168	3
2026-02-11	16:23:55.190	-10.605	-8.715	-1.54	0.935008	0.254248	0.181048	0.1395	0.6165	0.1125	0	348	168	3
2026-02-11	16:23:55.210	-12.95	-9.345	-0.7	0.94062	0.257176	0.184708	0.141	0.6165	0.114	0	307	159	3
2026-02-11	16:23:55.230	-15.155	-9.52	0.665	0.944036	0.257176	0.18178	0.141	0.624	0.114	0	307	159	3
2026-02-11	16:23:55.250	-16.24	-9.345	1.995	0.947208	0.254736	0.181536	0.141	0.6255	0.108	0	307	159	3
2026-02-11	16:23:55.270	-15.89	-8.925	3.255	0.946476	0.25376	0.178608	0.144	0.621	0.1095	0	307	159	3
2026-02-11	16:23:55.290	-14.315	-8.4	4.2	0.953552	0.254736	0.181048	0.1455	0.6165	0.1125	0	307	159	3
2026-02-11	16:23:55.310	-12.53	-7.49	4.935	0.958188	0.25864	0.183244	0.1365	0.6165	0.111	0	307	159	3
2026-02-11	16:23:55.330	-10.745	-6.37	5.32	0.965264	0.259372	0.183244	0.1365	0.618	0.117	0	307	159	3
2026-02-11	16:23:55.350	-7.84	-4.55	5.25	0.966972	0.263032	0.177876	0.147	0.6165	0.117	0	307	159	3
2026-02-11	16:23:55.370	-5.565	-3.395	4.725	0.969168	0.264984	0.173972	0.144	0.6195	0.117	0	307	159	3
2026-02-11	16:23:55.390	-3.605	-2.485	3.885	0.968924	0.268644	0.173484	0.1365	0.624	0.1185	0	307	159	3
2026-02-11	16:23:55.410	-2.415	-1.715	2.87	0.97234	0.273768	0.171044	0.141	0.6255	0.1215	0	268	158	2
2026-02-11	16:23:55.430	-2.17	-1.05	1.68	0.971852	0.277184	0.171044	0.141	0.6225	0.1275	0	268	158	2
2026-02-11	16:23:55.450	-2.625	-0.455	0.455	0.97478	0.280112	0.164456	0.141	0.624	0.1245	0	268	158	2
2026-02-11	16:23:55.470	-3.255	-0.105	-0.77	0.965996	0.27694	0.162504	0.147	0.6225	0.117	0	268	158	2
2026-02-11	16:23:55.490	-3.535	0.245	-1.925	0.971608	0.272792	0.157136	0.1455	0.624	0.1185	0	268	158	2
2026-02-11	16:23:55.510	-3.01	0.77	-3.185	0.983076	0.268888	0.157136	0.1455	0.6255	0.1245	0	268	158	2
2026-02-11	16:23:55.530	-1.61	1.505	-4.41	0.981124	0.265716	0.149816	0.144	0.6225	0.123	0	268	158	2
2026-02-11	16:23:55.550	0.595	2.45	-5.74	0.971852	0.263032	0.14884	0.1425	0.624	0.12	0	268	158	2
2026-02-11	16:23:55.570	2.66	3.185	-7	0.978196	0.258152	0.146644	0.147	0.624	0.12	0	268	158	2
2026-02-11	16:23:55.590	4.095	3.605	-7.805	0.97966	0.254736	0.142984	0.147	0.624	0.117	0	268	158	2
2026-02-11	16:23:55.610	5.11	3.745	-8.295	0.9699	0.252296	0.13786	0.1485	0.621	0.117	0	232	160	2
2026-02-11	16:23:55.630	5.565	3.5	-8.47	0.97112	0.254248	0.141032	0.144	0.6165	0.12	0	232	160	2
2026-02-11	16:23:55.650	5.53	3.22	-8.47	0.966972	0.253028	0.138592	0.138	0.6195	0.1155	0	232	160	2
2026-02-11	16:23:55.670	5.32	2.8	-8.26	0.965264	0.249612	0.138104	0.141	0.618	0.1125	0	232	160	2
2026-02-11	16:23:55.690	5.075	2.345	-7.84	0.965752	0.246684	0.141032	0.141	0.6195	0.114	0	232	160	2
2026-02-11	16:23:55.710	5.32	1.995	-7.105	0.965508	0.244244	0.13664	0.1425	0.6195	0.1155	0	232	160	2
2026-02-11	16:23:55.730	5.845	1.68	-6.23	0.959164	0.243268	0.135664	0.1425	0.612	0.1155	0	232	160	2
2026-02-11	16:23:55.750	6.23	1.19	-5.11	0.9577	0.241316	0.135176	0.138	0.6075	0.12	0	232	160	2
2026-02-11	16:23:55.770	6.335	0.42	-3.43	0.954284	0.244488	0.141276	0.141	0.606	0.12	0	232	160	2
2026-02-11	16:23:55.790	6.335	-0.245	-1.715	0.954284	0.244244	0.144204	0.144	0.609	0.1155	0	232	160	2
2026-02-11	16:23:55.810	6.65	-0.665	-0.455	0.952088	0.250344	0.141032	0.1425	0.615	0.114	0	201	160	2
2026-02-11	16:23:55.830	6.72	-1.225	0.735	0.951844	0.254492	0.147132	0.141	0.615	0.117	0	201	160	2
2026-02-11	16:23:55.850	6.58	-1.645	1.785	0.95648	0.257664	0.151768	0.1425	0.612	0.12	0	201	160	2
2026-02-11	16:23:55.870	6.44	-1.925	2.8	0.957212	0.262544	0.15494	0.1455	0.6105	0.117	0	201	160	2
2026-02-11	16:23:55.890	6.51	-2.1	3.535	0.955992	0.261324	0.15372	0.15	0.612	0.1125	0	201	160	2
2026-02-11	16:23:55.910	6.895	-2.345	4.095	0.964288	0.269132	0.156892	0.1515	0.6135	0.1125	0	201	160	2
2026-02-11	16:23:55.930	7.245	-2.485	4.235	0.963068	0.273036	0.160064	0.1455	0.6195	0.114	0	201	160	2
2026-02-11	16:23:55.950	7.105	-2.66	3.885	0.956236	0.276452	0.166164	0.144	0.6225	0.117	0	201	160	2
2026-02-11	16:23:55.970	6.58	-2.8	3.22	0.952332	0.27816	0.164212	0.1455	0.6225	0.12	0	201	160	2
2026-02-11	16:23:55.990	4.865	-2.695	2.1	0.952088	0.28182	0.170068	0.144	0.6255	0.12	0	201	160	2
2026-02-11	16:23:56.010	3.605	-2.275	1.47	0.947452	0.282308	0.171044	0.144	0.618	0.12	0	173	159	2
2026-02-11	16:23:56.030	2.905	-1.89	1.155	0.95892	0.277672	0.176412	0.144	0.6135	0.12	0	173	159	2
2026-02-11	16:23:56.050	3.465	-1.19	1.12	0.96624	0.276452	0.176656	0.1425	0.6165	0.12	0	173	159	2
2026-02-11	16:23:56.070	5.075	-0.35	1.155	0.97112	0.275964	0.172996	0.1395	0.6195	0.1215	0	173	159	2
2026-02-11	16:23:56.090	6.93	0.455	0.945	0.974536	0.281088	0.169092	0.141	0.6195	0.12	0	173	159	2
2026-02-11	16:23:56.110	8.085	1.19	0.56	0.972096	0.284504	0.166408	0.1485	0.618	0.117	0	173	159	2
2026-02-11	16:23:56.130	7.98	1.645	-0.105	0.967216	0.289384	0.168116	0.1515	0.618	0.1155	0	173	159	2
2026-02-11	16:23:56.150	7.105	1.855	-1.33	0.974048	0.282552	0.167628	0.147	0.6165	0.1155	0	173	159	2
2026-02-11	16:23:56.170	6.615	2.065	-2.94	0.973072	0.283284	0.156648	0.147	0.6195	0.114	0	173	159	2
2026-02-11	16:23:56.190	6.615	2.135	-5.355	0.966728	0.279868	0.15494	0.1515	0.6255	0.1155	0	173	159	2
2026-02-11	16:23:56.210	6.545	2.03	-7.805	0.969412	0.275964	0.151036	0.1515	0.6255	0.1155	0	150	159	2
2026-02-11	16:23:56.230	5.95	1.82	-9.45	0.968436	0.27084	0.152988	0.1455	0.621	0.1155	0	150	159	2
2026-02-11	16:23:56.250	4.9	1.855	-10.395	0.970632	0.264984	0.149084	0.141	0.6135	0.114	0	150	159	2
2026-02-11	16:23:56.270	4.27	1.855	-10.465	0.968924	0.262056	0.149328	0.1425	0.612	0.1125	0	150	159	2
2026-02-11	16:23:56.290	4.305	1.96	-9.835	0.966972	0.254004	0.145668	0.1455	0.609	0.114	0	150	159	2
2026-02-11	16:23:56.310	4.865	2.135	-8.855	0.963556	0.248636	0.143716	0.147	0.609	0.111	0	150	159	2
2026-02-11	16:23:56.330	5.635	2.275	-7.595	0.95892	0.247416	0.142252	0.1425	0.6135	0.1155	0	150	159	2
2026-02-11	16:23:56.350	5.915	2.24	-6.055	0.953552	0.250588	0.141764	0.144	0.612	0.12	0	150	159	2
2026-02-11	16:23:56.370	5.95	1.995	-4.305	0.953064	0.251564	0.137128	0.147	0.609	0.114	0	150	159	2
2026-02-11	16:23:56.390	5.705	1.68	-2.415	0.951356	0.25132	0.138836	0.147	0.6105	0.1155	0	150	159	2
2026-02-11	16:23:54.410	39.13	2.8	15.435	0.96258	0.496296	0.26596	0.1425	0.621	0.1005	0	463	178	3
2026-02-11	16:23:54.430	1.155	3.99	15.505	0.957944	0.456768	0.241316	0.144	0.6225	0.1005	0	463	178	3
2026-02-11	16:23:54.450	-27.195	3.955	16.38	0.949892	0.398208	0.213988	0.147	0.6255	0.1035	0	463	178	3
2026-02-11	16:23:54.470	-45.955	2.73	17.185	0.951356	0.335744	0.18788	0.1485	0.627	0.1005	0	463	178	3
2026-02-11	16:23:54.490	-56.56	0.105	17.605	0.960628	0.28914	0.167872	0.147	0.6315	0.1005	0	463	178	3
2026-02-11	16:23:54.510	-53.025	-0.63	17.535	0.972584	0.278648	0.165188	0.147	0.6315	0.1005	0	463	178	3
2026-02-11	16:23:54.530	-45.57	-0.21	17.255	0.97234	0.272792	0.161528	0.144	0.6315	0.102	0	463	178	3
2026-02-11	16:23:54.550	-36.435	1.05	16.66	0.978684	0.275476	0.157624	0.1425	0.636	0.1035	0	463	178	3
2026-02-11	16:23:54.570	-26.915	3.045	15.435	0.982832	0.284016	0.152744	0.1455	0.6435	0.105	0	463	178	3
2026-02-11	16:23:54.590	-19.705	5.775	13.37	0.98576	0.286456	0.144204	0.1455	0.648	0.1035	0	463	178	3
2026-02-11	16:23:54.610	-14.77	8.715	10.64	0.981612	0.287676	0.133224	0.144	0.6435	0.102	0	430	181	3
2026-02-11	16:23:54.630	-10.815	11.235	7.175	0.978928	0.284992	0.121512	0.1485	0.6435	0.105	0	430	181	3
2026-02-11	16:23:54.650	-7.245	13.09	3.185	0.979172	0.28792	0.114924	0.1485	0.6465	0.1095	0	430	181	3
2026-02-11	16:23:54.670	-4.235	14.175	-0.945	0.975756	0.283772	0.110776	0.1485	0.6465	0.1065	0	430	181	3
2026-02-11	16:23:54.690	-1.61	14.07	-4.655	0.979416	0.279624	0.106384	0.1425	0.642	0.102	0	430	181	3
2026-02-11	16:23:54.710	0.35	12.705	-9.03	0.986736	0.286456	0.107604	0.135	0.636	0.102	0	430	181	3
2026-02-11	16:23:54.730	0.14	11.48	-11.2	0.987956	0.283284	0.10736	0.144	0.6405	0.0975	0	430	181	3
2026-02-11	16:23:54.750	-0.875	10.185	-12.985	0.994056	0.279868	0.107116	0.1425	0.645	0.0945	0	430	181	3
2026-02-11	16:23:54.770	-1.89	9.065	-14.525	0.993568	0.271816	0.101748	0.141	0.6435	0.099	0	430	181	3
2026-02-11	16:23:54.790	-2.835	8.085	-15.855	1.000156	0.267668	0.099552	0.1425	0.6375	0.0975	0	430	181	3
2026-02-11	16:23:54.810	-3.395	7.21	-17.255	0.99186	0.254492	0.097112	0.1425	0.639	0.096	0	390	178	3
2026-02-11	16:23:54.830	-3.325	6.055	-18.55	0.987224	0.252052	0.100284	0.1425	0.6375	0.0975	0	390	178	3
2026-02-11	16:23:54.850	-3.22	4.69	-19.53	0.977708	0.246928	0.09857599	0.1455	0.6315	0.0915	0	390	178	3
2026-02-11	16:23:54.870	-3.92	2.94	-19.88	0.970876	0.25132	0.103944	0.147	0.6285	0.0915	0	390	178	3
2026-02-11	16:23:54.890	-5.53	0.77	-19.425	0.96014	0.248636	0.111264	0.144	0.6315	0.0945	0	390	178	3
2026-02-11	16:23:54.910	-8.645	-1.82	-17.955	0.95526	0.252296	0.118096	0.1425	0.633	0.096	0	390	178	3
2026-02-11	16:23:54.930	-12.39	-4.27	-15.995	0.948672	0.251076	0.12688	0.141	0.63	0.099	0	390	178	3
2026-02-11	16:23:54.950	-15.645	-5.985	-14	0.94306	0.245708	0.128344	0.1395	0.6315	0.096	0	390	178	3
2026-02-11	16:23:54.970	-18.97	-7.49	-11.935	0.94062	0.24644	0.136396	0.141	0.6285	0.093	0	390	178	3
2026-02-11	16:23:54.990	-21.49	-8.61	-9.8	0.935496	0.24034	0.1403	0.1395	0.6255	0.0975	0	390	178	3
2026-02-11	16:23:55.010	-23.24	-9.66	-7.49	0.943548	0.238876	0.152256	0.138	0.624	0.099	0	348	168	3
2026-02-11	16:23:55.030	-23.275	-10.08	-5.25	0.947208	0.237656	0.154452	0.138	0.6195	0.0975	0	348	168	3
2026-02-11	16:23:55.050	-21.91	-10.22	-3.325	0.947696	0.233752	0.154696	0.138	0.618	0.1005	0	348	168	3
2026-02-11	16:23:55.070	-19.81	-10.15	-1.575	0.94306	0.235704	0.15738	0.138	0.6195	0.099	0	348	168	3
2026-02-11	16:23:55.090	-17.92	-10.325	-0.035	0.95892	0.24034	0.1708	0.1455	0.6195	0.1005	0	348	168	3
2026-02-11	16:23:55.110	-16.38	-9.765	0.735	0.965996	0.24766	0.175192	0.1515	0.621	0.1065	0	348	168	3
2026-02-11	16:23:55.130	-13.265	-8.505	0.315	0.953064	0.240828	0.166164	0.15	0.621	0.1065	0	348	168	3
2026-02-11	16:23:55.150	-11.2	-7.945	-0.665	0.945256	0.244976	0.1647	0.141	0.621	0.1065	0	348	168	3
2026-02-11	16:23:55.170	-10.01	-8.19	-1.4	0.9394	0.24888	0.171044	0.1365	0.618	0.1095	0	348	168	3
2026-02-11	16:23:55.190	-10.605	-8.715	-1.54	0.935008	0.254248	0.181048	0.1395	0.6165	0.1125	0	348	168	3
2026-02-11	16:23:55.210	-12.95	-9.345	-0.7	0.94062	0.257176	0.184708	0.141	0.6165	0.114	0	307	159	3
2026-02-11	16:23:55.230	-15.155	-9.52	0.665	0.944036	0.257176	0.18178	0.141	0.624	0.114	0	307	159	3
2026-02-11	16:23:55.250	-16.24	-9.345	1.995	0.947208	0.254736	0.181536	0.141	0.6255	0.108	0	307	159	3
2026-02-11	16:23:55.270	-15.89	-8.925	3.255	0.946476	0.25376	0.178608	0.144	0.621	0.1095	0	307	159	3
2026-02-11	16:23:55.290	-14.315	-8.4	4.2	0.953552	0.254736	0.181048	0.1455	0.6165	0.1125	0	307	159	3
2026-02-11	16:23:55.310	-12.53	-7.49	4.935	0.958188	0.25864	0.183244	0.1365	0.6165	0.111	0	307	159	3
2026-02-11	16:23:55.330	-10.745	-6.37	5.32	0.965264	0.259372	0.183244	0.1365	0.618	0.117	0	307	159	3
2026-02-11	16:23:55.350	-7.84	-4.55	5.25	0.966972	0.263032	0.177876	0.147	0.6165	0.117	0	307	159	3
2026-02-11	16:23:55.370	-5.565	-3.395	4.725	0.969168	0.264984	0.173972	0.144	0.6195	0.117	0	307	159	3
2026-02-11	16:23:55.390	-3.605	-2.485	3.885	0.968924	0.268644	0.173484	0.1365	0.624	0.1185	0	307	159	3
2026-02-11	16:23:55.410	-2.415	-1.715	2.87	0.97234	0.273768	0.171044	0.141	0.6255	0.1215	0	268	158	2
2026-02-11	16:23:55.430	-2.17	-1.05	1.68	0.971852	0.277184	0.171044	0.141	0.6225	0.1275	0	268	158	2
2026-02-11	16:23:55.450	-2.625	-0.455	0.455	0.97478	0.280112	0.164456	0.141	0.624	0.1245	0	268	158	2
2026-02-11	16:23:55.470	-3.255	-0.105	-0.77	0.965996	0.27694	0.162504	0.147	0.6225	0.117	0	268	158	2
2026-02-11	16:23:55.490	-3.535	0.245	-1.925	0.971608	0.272792	0.157136	0.1455	0.624	0.1185	0	268	158	2
2026-02-11	16:23:55.510	-3.01	0.77	-3.185	0.983076	0.268888	0.157136	0.1455	0.6255	0.1245	0	268	158	2
2026-02-11	16:23:55.530	-1.61	1.505	-4.41	0.981124	0.265716	0.149816	0.144	0.6225	0.123	0	268	158	2
2026-02-11	16:23:55.550	0.595	2.45	-5.74	0.971852	0.263032	0.14884	0.1425	0.624	0.12	0	268	158	2
2026-02-11	16:23:55.570	2.66	3.185	-7	0.978196	0.258152	0.146644	0.147	0.624	0.12	0	268	158	2
2026-02-11	16:23:55.590	4.095	3.605	-7.805	0.97966	0.254736	0.142984	0.147	0.624	0.117	0	268	158	2
2026-02-11	16:23:55.610	5.11	3.745	-8.295	0.9699	0.252296	0.13786	0.1485	0.621	0.117	0	232	160	2
2026-02-11	16:23:55.630	5.565	3.5	-8.47	0.97112	0.254248	0.141032	0.144	0.6165	0.12	0	232	160	2
2026-02-11	16:23:55.650	5.53	3.22	-8.47	0.966972	0.253028	0.138592	0.138	0.6195	0.1155	0	232	160	2
2026-02-11	16:23:55.670	5.32	2.8	-8.26	0.965264	0.249612	0.138104	0.141	0.618	0.1125	0	232	160	2
2026-02-11	16:23:55.690	5.075	2.345	-7.84	0.965752	0.246684	0.141032	0.141	0.6195	0.114	0	232	160	2
2026-02-11	16:23:55.710	5.32	1.995	-7.105	0.965508	0.244244	0.13664	0.1425	0.6195	0.1155	0	232	160	2
2026-02-11	16:23:55.730	5.845	1.68	-6.23	0.959164	0.243268	0.135664	0.1425	0.612	0.1155	0	232	160	2
2026-02-11	16:23:55.750	6.23	1.19	-5.11	0.9577	0.241316	0.135176	0.138	0.6075	0.12	0	232	160	2
2026-02-11	16:23:55.770	6.335	0.42	-3.43	0.954284	0.244488	0.141276	0.141	0.606	0.12	0	232	160	2
2026-02-11	16:23:55.790	6.335	-0.245	-1.715	0.954284	0.244244	0.144204	0.144	0.609	0.1155	0	232	160	2
2026-02-11	16:23:55.810	6.65	-0.665	-0.455	0.952088	0.250344	0.141032	0.1425	0.615	0.114	0	201	160	2
2026-02-11	16:23:55.830	6.72	-1.225	0.735	0.951844	0.254492	0.147132	0.141	0.615	0.117	0	201	160	2
2026-02-11	16:23:55.850	6.58	-1.645	1.785	0.95648	0.257664	0.151768	0.1425	0.612	0.12	0	201	160	2
2026-02-11	16:23:55.870	6.44	-1.925	2.8	0.957212	0.262544	0.15494	0.1455	0.6105	0.117	0	201	160	2
2026-02-11	16:23:55.890	6.51	-2.1	3.535	0.955992	0.261324	0.15372	0.15	0.612	0.1125	0	201	160	2
2026-02-11	16:23:55.910	6.895	-2.345	4.095	0.964288	0.269132	0.156892	0.1515	0.6135	0.1125	0	201	160	2
2026-02-11	16:23:55.930	7.245	-2.485	4.235	0.963068	0.273036	0.160064	0.1455	0.6195	0.114	0	201	160	2
2026-02-11	16:23:55.950	7.105	-2.66	3.885	0.956236	0.276452	0.166164	0.144	0.6225	0.117	0	201	160	2
2026-02-11	16:23:55.970	6.58	-2.8	3.22	0.952332	0.27816	0.164212	0.1455	0.6225	0.12	0	201	160	2
2026-02-11	16:23:55.990	4.865	-2.695	2.1	0.952088	0.28182	0.170068	0.144	0.6255	0.12	0	201	160	2
2026-02-11	16:23:56.010	3.605	-2.275	1.47	0.947452	0.282308	0.171044	0.144	0.618	0.12	0	173	159	2
2026-02-11	16:23:56.030	2.905	-1.89	1.155	0.95892	0.277672	0.176412	0.144	0.6135	0.12	0	173	159	2
2026-02-11	16:23:56.050	3.465	-1.19	1.12	0.96624	0.276452	0.176656	0.1425	0.6165	0.12	0	173	159	2
2026-02-11	16:23:56.070	5.075	-0.35	1.155	0.97112	0.275964	0.172996	0.1395	0.6195	0.1215	0	173	159	2
2026-02-11	16:23:56.090	6.93	0.455	0.945	0.974536	0.281088	0.169092	0.141	0.6195	0.12	0	173	159	2
2026-02-11	16:23:56.110	8.085	1.19	0.56	0.972096	0.284504	0.166408	0.1485	0.618	0.117	0	173	159	2
2026-02-11	16:23:56.130	7.98	1.645	-0.105	0.967216	0.289384	0.168116	0.1515	0.618	0.1155	0	173	159	2
2026-02-11	16:23:56.150	7.105	1.855	-1.33	0.974048	0.282552	0.167628	0.147	0.6165	0.1155	0	173	159	2
2026-02-11	16:23:56.170	6.615	2.065	-2.94	0.973072	0.283284	0.156648	0.147	0.6195	0.114	0	173	159	2
2026-02-11	16:23:56.190	6.615	2.135	-5.355	0.966728	0.279868	0.15494	0.1515	0.6255	0.1155	0	173	159	2
2026-02-11	16:23:56.210	6.545	2.03	-7.805	0.969412	0.275964	0.151036	0.1515	0.6255	0.1155	0	150	159	2
2026-02-11	16:23:56.230	5.95	1.82	-9.45	0.968436	0.27084	0.152988	0.1455	0.621	0.1155	0	150	159	2
2026-02-11	16:23:56.250	4.9	1.855	-10.395	0.970632	0.264984	0.149084	0.141	0.6135	0.114	0	150	159	2
2026-02-11	16:23:56.270	4.27	1.855	-10.465	0.968924	0.262056	0.149328	0.1425	0.612	0.1125	0	150	159	2
2026-02-11	16:23:56.290	4.305	1.96	-9.835	0.966972	0.254004	0.145668	0.1455	0.609	0.114	0	150	159	2
2026-02-11	16:23:56.310	4.865	2.135	-8.855	0.963556	0.248636	0.143716	0.147	0.609	0.111	0	150	159	2
2026-02-11	16:23:56.330	5.635	2.275	-7.595	0.95892	0.247416	0.142252	0.1425	0.6135	0.1155	0	150	159	2
2026-02-11	16:23:56.350	5.915	2.24	-6.055	0.953552	0.250588	0.141764	0.144	0.612	0.12	0	150	159	2
2026-02-11	16:23:56.370	5.95	1.995	-4.305	0.953064	0.251564	0.137128	0.147	0.609	0.114	0	150	159	2
2026-02-11	16:23:56.390	5.705	1.68	-2.415	0.951356	0.25132	0.138836	0.147	0.6105	0.1155	0	150	159	2
2026-02-11	16:23:54.410	39.13	2.8	15.435	0.96258	0.496296	0.26596	0.1425	0.621	0.1005	0	463	178	3
2026-02-11	16:23:54.430	1.155	3.99	15.505	0.957944	0.456768	0.241316	0.144	0.6225	0.1005	0	463	178	3
2026-02-11	16:23:54.450	-27.195	3.955	16.38	0.949892	0.398208	0.213988	0.147	0.6255	0.1035	0	463	178	3
2026-02-11	16:23:54.470	-45.955	2.73	17.185	0.951356	0.335744	0.18788	0.1485	0.627	0.1005	0	463	178	3
2026-02-11	16:23:54.490	-56.56	0.105	17.605	0.960628	0.28914	0.167872	0.147	0.6315	0.1005	0	463	178	3
2026-02-11	16:23:54.510	-53.025	-0.63	17.535	0.972584	0.278648	0.165188	0.147	0.6315	0.1005	0	463	178	3
2026-02-11	16:23:54.530	-45.57	-0.21	17.255	0.97234	0.272792	0.161528	0.144	0.6315	0.102	0	463	178	3
2026-02-11	16:23:54.550	-36.435	1.05	16.66	0.978684	0.275476	0.157624	0.1425	0.636	0.1035	0	463	178	3
2026-02-11	16:23:54.570	-26.915	3.045	15.435	0.982832	0.284016	0.152744	0.1455	0.6435	0.105	0	463	178	3
2026-02-11	16:23:54.590	-19.705	5.775	13.37	0.98576	0.286456	0.144204	0.1455	0.648	0.1035	0	463	178	3
2026-02-11	16:23:54.610	-14.77	8.715	10.64	0.981612	0.287676	0.133224	0.144	0.6435	0.102	0	430	181	3
2026-02-11	16:23:54.630	-10.815	11.235	7.175	0.978928	0.284992	0.121512	0.1485	0.6435	0.105	0	430	181	3
2026-02-11	16:23:54.650	-7.245	13.09	3.185	0.979172	0.28792	0.114924	0.1485	0.6465	0.1095	0	430	181	3
2026-02-11	16:23:54.670	-4.235	14.175	-0.945	0.975756	0.283772	0.110776	0.1485	0.6465	0.1065	0	430	181	3
2026-02-11	16:23:54.690	-1.61	14.07	-4.655	0.979416	0.279624	0.106384	0.1425	0.642	0.102	0	430	181	3
2026-02-11	16:23:54.710	0.35	12.705	-9.03	0.986736	0.286456	0.107604	0.135	0.636	0.102	0	430	181	3
2026-02-11	16:23:54.730	0.14	11.48	-11.2	0.987956	0.283284	0.10736	0.144	0.6405	0.0975	0	430	181	3
2026-02-11	16:23:54.750	-0.875	10.185	-12.985	0.994056	0.279868	0.107116	0.1425	0.645	0.0945	0	430	181	3
2026-02-11	16:23:54.770	-1.89	9.065	-14.525	0.993568	0.271816	0.101748	0.141	0.6435	0.099	0	430	181	3
2026-02-11	16:23:54.790	-2.835	8.085	-15.855	1.000156	0.267668	0.099552	0.1425	0.6375	0.0975	0	430	181	3
2026-02-11	16:23:54.810	-3.395	7.21	-17.255	0.99186	0.254492	0.097112	0.1425	0.639	0.096	0	390	178	3
2026-02-11	16:23:54.830	-3.325	6.055	-18.55	0.987224	0.252052	0.100284	0.1425	0.6375	0.0975	0	390	178	3
2026-02-11	16:23:54.850	-3.22	4.69	-19.53	0.977708	0.246928	0.09857599	0.1455	0.6315	0.0915	0	390	178	3
2026-02-11	16:23:54.870	-3.92	2.94	-19.88	0.970876	0.25132	0.103944	0.147	0.6285	0.0915	0	390	178	3
2026-02-11	16:23:54.890	-5.53	0.77	-19.425	0.96014	0.248636	0.111264	0.144	0.6315	0.0945	0	390	178	3
2026-02-11	16:23:54.910	-8.645	-1.82	-17.955	0.95526	0.252296	0.118096	0.1425	0.633	0.096	0	390	178	3
2026-02-11	16:23:54.930	-12.39	-4.27	-15.995	0.948672	0.251076	0.12688	0.141	0.63	0.099	0	390	178	3
2026-02-11	16:23:54.950	-15.645	-5.985	-14	0.94306	0.245708	0.128344	0.1395	0.6315	0.096	0	390	178	3
2026-02-11	16:23:54.970	-18.97	-7.49	-11.935	0.94062	0.24644	0.136396	0.141	0.6285	0.093	0	390	178	3
2026-02-11	16:23:54.990	-21.49	-8.61	-9.8	0.935496	0.24034	0.1403	0.1395	0.6255	0.0975	0	390	178	3
2026-02-11	16:23:55.010	-23.24	-9.66	-7.49	0.943548	0.238876	0.152256	0.138	0.624	0.099	0	348	168	3
2026-02-11	16:23:55.030	-23.275	-10.08	-5.25	0.947208	0.237656	0.154452	0.138	0.6195	0.0975	0	348	168	3
2026-02-11	16:23:55.050	-21.91	-10.22	-3.325	0.947696	0.233752	0.154696	0.138	0.618	0.1005	0	348	168	3
2026-02-11	16:23:55.070	-19.81	-10.15	-1.575	0.94306	0.235704	0.15738	0.138	0.6195	0.099	0	348	168	3
2026-02-11	16:23:55.090	-17.92	-10.325	-0.035	0.95892	0.24034	0.1708	0.1455	0.6195	0.1005	0	348	168	3
2026-02-11	16:23:55.110	-16.38	-9.765	0.735	0.965996	0.24766	0.175192	0.1515	0.621	0.1065	0	348	168	3
2026-02-11	16:23:55.130	-13.265	-8.505	0.315	0.953064	0.240828	0.166164	0.15	0.621	0.1065	0	348	168	3
2026-02-11	16:23:55.150	-11.2	-7.945	-0.665	0.945256	0.244976	0.1647	0.141	0.621	0.1065	0	348	168	3
2026-02-11	16:23:55.170	-10.01	-8.19	-1.4	0.9394	0.24888	0.171044	0.1365	0.618	0.1095	0	348	168	3
2026-02-11	16:23:55.190	-10.605	-8.715	-1.54	0.935008	0.254248	0.181048	0.1395	0.6165	0.1125	0	348	168	3
2026-02-11	16:23:55.210	-12.95	-9.345	-0.7	0.94062	0.257176	0.184708	0.141	0.6165	0.114	0	307	159	3
2026-02-11	16:23:55.230	-15.155	-9.52	0.665	0.944036	0.257176	0.18178	0.141	0.624	0.114	0	307	159	3
2026-02-11	16:23:55.250	-16.24	-9.345	1.995	0.947208	0.254736	0.181536	0.141	0.6255	0.108	0	307	159	3
2026-02-11	16:23:55.270	-15.89	-8.925	3.255	0.946476	0.25376	0.178608	0.144	0.621	0.1095	0	307	159	3
2026-02-11	16:23:55.290	-14.315	-8.4	4.2	0.953552	0.254736	0.181048	0.1455	0.6165	0.1125	0	307	159	3
2026-02-11	16:23:55.310	-12.53	-7.49	4.935	0.958188	0.25864	0.183244	0.1365	0.6165	0.111	0	307	159	3
2026-02-11	16:23:55.330	-10.745	-6.37	5.32	0.965264	0.259372	0.183244	0.1365	0.618	0.117	0	307	159	3
2026-02-11	16:23:55.350	-7.84	-4.55	5.25	0.966972	0.263032	0.177876	0.147	0.6165	0.117	0	307	159	3
2026-02-11	16:23:55.370	-5.565	-3.395	4.725	0.969168	0.264984	0.173972	0.144	0.6195	0.117	0	307	159	3
2026-02-11	16:23:55.390	-3.605	-2.485	3.885	0.968924	0.268644	0.173484	0.1365	0.624	0.1185	0	307	159	3
2026-02-11	16:23:55.410	-2.415	-1.715	2.87	0.97234	0.273768	0.171044	0.141	0.6255	0.1215	0	268	158	2
2026-02-11	16:23:55.430	-2.17	-1.05	1.68	0.971852	0.277184	0.171044	0.141	0.6225	0.1275	0	268	158	2
2026-02-11	16:23:55.450	-2.625	-0.455	0.455	0.97478	0.280112	0.164456	0.141	0.624	0.1245	0	268	158	2
2026-02-11	16:23:55.470	-3.255	-0.105	-0.77	0.965996	0.27694	0.162504	0.147	0.6225	0.117	0	268	158	2
2026-02-11	16:23:55.490	-3.535	0.245	-1.925	0.971608	0.272792	0.157136	0.1455	0.624	0.1185	0	268	158	2
2026-02-11	16:23:55.510	-3.01	0.77	-3.185	0.983076	0.268888	0.157136	0.1455	0.6255	0.1245	0	268	158	2
2026-02-11	16:23:55.530	-1.61	1.505	-4.41	0.981124	0.265716	0.149816	0.144	0.6225	0.123	0	268	158	2
2026-02-11	16:23:55.550	0.595	2.45	-5.74	0.971852	0.263032	0.14884	0.1425	0.624	0.12	0	268	158	2
2026-02-11	16:23:55.570	2.66	3.185	-7	0.978196	0.258152	0.146644	0.147	0.624	0.12	0	268	158	2
2026-02-11	16:23:55.590	4.095	3.605	-7.805	0.97966	0.254736	0.142984	0.147	0.624	0.117	0	268	158	2
2026-02-11	16:23:55.610	5.11	3.745	-8.295	0.9699	0.252296	0.13786	0.1485	0.621	0.117	0	232	160	2
2026-02-11	16:23:55.630	5.565	3.5	-8.47	0.97112	0.254248	0.141032	0.144	0.6165	0.12	0	232	160	2
2026-02-11	16:23:55.650	5.53	3.22	-8.47	0.966972	0.253028	0.138592	0.138	0.6195	0.1155	0	232	160	2
2026-02-11	16:23:55.670	5.32	2.8	-8.26	0.965264	0.249612	0.138104	0.141	0.618	0.1125	0	232	160	2
2026-02-11	16:23:55.690	5.075	2.345	-7.84	0.965752	0.246684	0.141032	0.141	0.6195	0.114	0	232	160	2
2026-02-11	16:23:55.710	5.32	1.995	-7.105	0.965508	0.244244	0.13664	0.1425	0.6195	0.1155	0	232	160	2
2026-02-11	16:23:55.730	5.845	1.68	-6.23	0.959164	0.243268	0.135664	0.1425	0.612	0.1155	0	232	160	2
2026-02-11	16:23:55.750	6.23	1.19	-5.11	0.9577	0.241316	0.135176	0.138	0.6075	0.12	0	232	160	2
2026-02-11	16:23:55.770	6.335	0.42	-3.43	0.954284	0.244488	0.141276	0.141	0.606	0.12	0	232	160	2
2026-02-11	16:23:55.790	6.335	-0.245	-1.715	0.954284	0.244244	0.144204	0.144	0.609	0.1155	0	232	160	2
2026-02-11	16:23:55.810	6.65	-0.665	-0.455	0.952088	0.250344	0.141032	0.1425	0.615	0.114	0	201	160	2
2026-02-11	16:23:55.830	6.72	-1.225	0.735	0.951844	0.254492	0.147132	0.141	0.615	0.117	0	201	160	2
2026-02-11	16:23:55.850	6.58	-1.645	1.785	0.95648	0.257664	0.151768	0.1425	0.612	0.12	0	201	160	2
2026-02-11	16:23:55.870	6.44	-1.925	2.8	0.957212	0.262544	0.15494	0.1455	0.6105	0.117	0	201	160	2
2026-02-11	16:23:55.890	6.51	-2.1	3.535	0.955992	0.261324	0.15372	0.15	0.612	0.1125	0	201	160	2
2026-02-11	16:23:55.910	6.895	-2.345	4.095	0.964288	0.269132	0.156892	0.1515	0.6135	0.1125	0	201	160	2
2026-02-11	16:23:55.930	7.245	-2.485	4.235	0.963068	0.273036	0.160064	0.1455	0.6195	0.114	0	201	160	2
2026-02-11	16:23:55.950	7.105	-2.66	3.885	0.956236	0.276452	0.166164	0.144	0.6225	0.117	0	201	160	2
2026-02-11	16:23:55.970	6.58	-2.8	3.22	0.952332	0.27816	0.164212	0.1455	0.6225	0.12	0	201	160	2
2026-02-11	16:23:55.990	4.865	-2.695	2.1	0.952088	0.28182	0.170068	0.144	0.6255	0.12	0	201	160	2
2026-02-11	16:23:56.010	3.605	-2.275	1.47	0.947452	0.282308	0.171044	0.144	0.618	0.12	0	173	159	2
2026-02-11	16:23:56.030	2.905	-1.89	1.155	0.95892	0.277672	0.176412	0.144	0.6135	0.12	0	173	159	2
2026-02-11	16:23:56.050	3.465	-1.19	1.12	0.96624	0.276452	0.176656	0.1425	0.6165	0.12	0	173	159	2
2026-02-11	16:23:56.070	5.075	-0.35	1.155	0.97112	0.275964	0.172996	0.1395	0.6195	0.1215	0	173	159	2
2026-02-11	16:23:56.090	6.93	0.455	0.945	0.974536	0.281088	0.169092	0.141	0.6195	0.12	0	173	159	2
2026-02-11	16:23:56.110	8.085	1.19	0.56	0.972096	0.284504	0.166408	0.1485	0.618	0.117	0	173	159	2
2026-02-11	16:23:56.130	7.98	1.645	-0.105	0.967216	0.289384	0.168116	0.1515	0.618	0.1155	0	173	159	2
2026-02-11	16:23:56.150	7.105	1.855	-1.33	0.974048	0.282552	0.167628	0.147	0.6165	0.1155	0	173	159	2
2026-02-11	16:23:56.170	6.615	2.065	-2.94	0.973072	0.283284	0.156648	0.147	0.6195	0.114	0	173	159	2
2026-02-11	16:23:56.190	6.615	2.135	-5.355	0.966728	0.279868	0.15494	0.1515	0.6255	0.1155	0	173	159	2
2026-02-11	16:23:56.210	6.545	2.03	-7.805	0.969412	0.275964	0.151036	0.1515	0.6255	0.1155	0	150	159	2
2026-02-11	16:23:56.230	5.95	1.82	-9.45	0.968436	0.27084	0.152988	0.1455	0.621	0.1155	0	150	159	2
2026-02-11	16:23:56.250	4.9	1.855	-10.395	0.970632	0.264984	0.149084	0.141	0.6135	0.114	0	150	159	2
2026-02-11	16:23:56.270	4.27	1.855	-10.465	0.968924	0.262056	0.149328	0.1425	0.612	0.1125	0	150	159	2
2026-02-11	16:23:56.290	4.305	1.96	-9.835	0.966972	0.254004	0.145668	0.1455	0.609	0.114	0	150	159	2
2026-02-11	16:23:56.310	4.865	2.135	-8.855	0.963556	0.248636	0.143716	0.147	0.609	0.111	0	150	159	2
2026-02-11	16:23:56.330	5.635	2.275	-7.595	0.95892	0.247416	0.142252	0.1425	0.6135	0.1155	0	150	159	2
2026-02-11	16:23:56.350	5.915	2.24	-6.055	0.953552	0.250588	0.141764	0.144	0.612	0.12	0	150	159	2
2026-02-11	16:23:56.370	5.95	1.995	-4.305	0.953064	0.251564	0.137128	0.147	0.609	0.114	0	150	159	2
2026-02-11	16:23:56.390	5.705	1.68	-2.415	0.951356	0.25132	0.138836	0.147	0.6105	0.1155	0	150	159	2
2026-02-11	16:24:08.410	6.265	-11.445	22.89	0.915976	0.299876	0.306464	0.105	0.7575	0.054	0	366	163	3
2026-02-11	16:24:08.430	11.795	-8.715	18.585	0.93696	0.30866	0.300364	0.105	0.7575	0.054	0	366	163	3
2026-02-11	16:24:08.450	15.68	-6.86	13.23	0.980392	0.314028	0.288652	0.105	0.7575	0.054	0	366	163	3
2026-02-11	16:24:08.470	15.47	-6.405	9.31	1.0492	0.327936	0.286212	0.0975	0.768	0.054	0	366	163	3
2026-02-11	16:24:08.490	11.375	-6.65	6.195	1.149972	0.351604	0.290604	0.105	0.765	0.0465	0	366	163	3
2026-02-11	16:24:08.510	2.275	-7.07	3.955	1.249768	0.357948	0.285724	0.105	0.771	0.0555	0	366	163	3
2026-02-11	16:24:08.530	-8.085	-8.05	2.17	1.37982	0.36112	0.290116	0.102	0.7755	0.0615	0	366	163	3
2026-02-11	16:24:08.550	-18.06	-5.39	-0.665	1.412516	0.358192	0.289628	0.099	0.7635	0.0555	0	366	163	3
2026-02-11	16:24:08.570	-27.125	-0.665	-7.35	1.336388	0.344284	0.275476	0.111	0.7695	0.066	0	366	163	3
2026-02-11	16:24:08.590	-33.565	2.87	-15.925	1.248304	0.33184	0.268644	0.102	0.7725	0.066	0	366	163	3
2026-02-11	16:24:08.610	-38.71	6.755	-26.25	1.182912	0.323056	0.281332	0.1095	0.777	0.063	0	332	184	3
2026-02-11	16:24:08.630	-42.805	13.405	-37.87	1.035048	0.336232	0.2745	0.1095	0.7665	0.072	0	332	184	3
2026-02-11	16:24:08.650	-43.785	20.93	-54.355	0.916708	0.306952	0.226676	0.0975	0.762	0.06	0	332	184	3
2026-02-11	16:24:08.670	-41.23	26.355	-72.135	0.91866	0.324032	0.183	0.0825	0.7575	0.063	0	332	184	3
2026-02-11	16:24:08.690	-41.3	28.315	-86.31	1.00406	0.323788	0.196176	0.0855	0.7455	0.06	0	332	184	3
2026-02-11	16:24:08.710	-46.06	29.61	-98.595	1.136308	0.346724	0.239852	0.0855	0.729	0.0645	0	332	184	3
2026-02-11	16:24:08.730	-47.985	33.775	-108.71	1.200236	0.343796	0.218868	0.0795	0.7275	0.0615	0	332	184	3
2026-02-11	16:24:08.750	-40.46	37.695	-116.515	1.220244	0.312808	0.167628	0.087	0.702	0.0585	0	332	184	3
2026-02-11	16:24:08.770	-28.595	39.2	-123.865	1.162416	0.282064	0.1342	0.0705	0.6945	0.048	0	332	184	3
2026-02-11	16:24:08.790	-16.065	38.955	-128.555	1.092876	0.311832	0.119804	0.0645	0.678	0.0405	0	332	184	3
2026-02-11	16:24:08.810	-7.28	36.995	-131.495	1.022604	0.305732	0.124684	0.069	0.654	0.042	0	303	203	3
2026-02-11	16:24:08.830	-4.445	34.615	-131.705	0.94672	0.345504	0.114192	0.069	0.6345	0.0405	0	303	203	3
2026-02-11	16:24:08.850	-5.565	33.915	-130.585	0.905972	0.338916	0.097356	0.069	0.6345	0.0405	0	303	203	3
2026-02-11	16:24:08.870	-13.335	32.34	-124.635	0.827892	0.317688	0.06466	0.0675	0.585	0.024	0	303	203	3
2026-02-11	16:24:08.890	-20.09	30.73	-117.81	0.793488	0.305	0.050752	0.0735	0.573	0.0195	0	303	203	3
2026-02-11	16:24:08.910	-24.43	29.4	-110.11	0.757376	0.292068	0.0488	0.072	0.5595	0.0165	0	303	203	3
2026-02-11	16:24:08.930	-26.705	27.23	-100.59	0.720776	0.268644	0.039284	0.0735	0.54	0.0135	0	303	203	3
2026-02-11	16:24:08.950	-26.705	24.99	-89.46	0.71736	0.23912	0.035868	0.078	0.5175	0	0	303	203	3
2026-02-11	16:24:08.970	-23.38	22.4	-77.105	0.69052	0.23546	0.029036	0.0795	0.5055	-0.0045	0	303	203	3
2026-02-11	16:24:08.990	-20.475	17.955	-61.6	0.702964	0.221308	0.02928	0.0885	0.507	0.003	0	303	203	3
2026-02-11	16:24:09.010	-16.205	13.335	-46.2	0.710528	0.226188	0.0427	0.0855	0.4935	-0.006	0	280	199	3
2026-02-11	16:24:09.030	-12.04	8.05	-29.4	0.727364	0.250832	0.05612	0.102	0.4905	-0.0075	0	280	199	3
2026-02-11	16:24:09.050	-11.13	1.575	-11.725	0.770308	0.256932	0.06588	0.09	0.4815	-0.0075	0	280	199	3
2026-02-11	16:24:09.070	-10.885	-5.18	7.105	0.840092	0.255712	0.076616	0.093	0.4815	-0.009	0	280	199	3
2026-02-11	16:24:09.090	-6.93	-13.16	34.895	0.949404	0.243512	0.073444	0.099	0.48	-0.006	0	280	199	3
2026-02-11	16:24:09.110	-2.275	-18.2	53.83	1.032364	0.245708	0.070516	0.0945	0.4875	-0.0045	0	280	199	3
2026-02-11	16:24:09.130	3.605	-23.415	74.34	1.123864	0.25864	0.077104	0.09	0.492	-0.0015	0	280	199	3
2026-02-11	16:24:09.150	9.905	-28.56	96.53	1.185108	0.266204	0.086376	0.0825	0.5055	0.003	0	280	199	3
2026-02-11	16:24:09.170	16.17	-32.585	116.795	1.175348	0.266692	0.104432	0.084	0.513	0.0045	0	280	199	3
2026-02-11	16:24:09.190	22.715	-36.155	132.125	1.117276	0.29402	0.139324	0.0765	0.54	0.012	0	280	199	3
2026-02-11	16:24:09.210	24.78	-38.92	139.09	1.02602	0.316712	0.186172	0.0795	0.5565	0.021	0	262	177	3
2026-02-11	16:24:09.230	21.98	-41.125	137.515	0.982588	0.330376	0.233264	0.078	0.564	0.0255	0	262	177	3
2026-02-11	16:24:09.250	17.745	-41.65	129.71	0.97112	0.297192	0.246196	0.0675	0.5895	0.0375	0	262	177	3
2026-02-11	16:24:09.270	12.39	-43.295	119.735	1.032852	0.261568	0.25498	0.0765	0.606	0.042	0	262	177	3
2026-02-11	16:24:09.290	8.155	-42.665	108.01	1.137284	0.252052	0.252052	0.0675	0.6285	0.054	0	262	177	3
2026-02-11	16:24:09.310	8.75	-38.15	98.455	1.184132	0.255956	0.23302	0.0675	0.6285	0.054	0	262	177	3
2026-02-11	16:24:09.330	14.98	-32.48	92.4	1.156316	0.254004	0.238632	0.069	0.6495	0.0555	0	262	177	3
2026-02-11	16:24:09.350	25.13	-25.97	86.835	1.089948	0.243268	0.235948	0.078	0.6765	0.0675	0	262	177	3
2026-02-11	16:24:09.370	37.135	-19.88	80.57	0.994788	0.246196	0.244976	0.0735	0.684	0.0705	0	262	177	3
2026-02-11	16:24:09.390	48.02	-16.31	73.57	0.913048	0.253272	0.249368	0.087	0.6975	0.075	0	262	177	3
2026-02-11	16:24:09.410	56.14	-14.595	66.605	0.843508	0.275232	0.256688	0.0885	0.708	0.069	0	249	165	3
2026-02-11	16:24:09.430	60.76	-14.175	61.25	0.815204	0.304756	0.257176	0.0885	0.708	0.075	0	249	165	3
2026-02-11	16:24:09.450	58.415	-14.385	57.085	0.804224	0.324764	0.253028	0.0885	0.7275	0.0675	0	249	165	3
2026-02-11	16:24:09.470	49.56	-15.085	54.005	0.801052	0.346968	0.26474	0.0945	0.7365	0.066	0	249	165	3
2026-02-11	16:24:09.490	37.52	-15.575	51.695	0.829844	0.352092	0.271572	0.087	0.741	0.0855	0	249	165	3
2026-02-11	16:24:09.510	24.15	-14.91	48.755	0.857416	0.325496	0.275232	0.0915	0.747	0.0735	0	249	165	3
2026-02-11	16:24:09.530	21.035	-14.42	46.655	0.881572	0.313052	0.290848	0.0915	0.747	0.0735	0	249	165	3
2026-02-11	16:24:09.550	21.56	-13.895	43.33	0.905972	0.310124	0.300852	0.1125	0.756	0.087	0	249	165	3
2026-02-11	16:24:09.570	24.78	-13.02	38.99	0.931348	0.318176	0.308904	0.0975	0.7635	0.0825	0	249	165	3
2026-02-11	16:24:09.590	26.67	-12.18	34.195	0.976244	0.333304	0.3111	0.099	0.774	0.0825	0	249	165	3
2026-02-11	16:24:09.610	25.865	-11.41	29.05	1.040172	0.34648	0.313296	0.1065	0.7695	0.0795	0	237	175	3
2026-02-11	16:24:09.630	22.33	-10.36	23.73	1.105564	0.365512	0.321836	0.117	0.7815	0.081	0	237	175	3
2026-02-11	16:24:09.650	15.89	-8.89	18.41	1.166564	0.37454	0.325252	0.117	0.7815	0.084	0	237	175	3
2026-02-11	16:24:09.670	8.575	-8.085	12.635	1.265628	0.368196	0.310124	0.1155	0.7845	0.084	0	237	175	3
2026-02-11	16:24:09.690	0.525	-8.365	6.965	1.425448	0.389668	0.352092	0.111	0.786	0.087	0	237	175	3
2026-02-11	16:24:09.710	-9.135	-2.975	-0.7	1.445456	0.387716	0.351116	0.108	0.7905	0.087	0	237	175	3
2026-02-11	16:24:09.730	-19.985	7.735	-19.46	1.342	0.372588	0.315004	0.108	0.7905	0.087	0	237	175	3
2026-02-11	16:24:09.750	-26.215	14.945	-35.91	1.1956	0.338184	0.295728	0.1185	0.78	0.0825	0	237	175	3
2026-02-11	16:24:09.770	-29.505	22.75	-54.215	1.008452	0.3111	0.248636	0.117	0.78	0.0885	0	237	175	3
2026-02-11	16:24:09.790	-30.73	26.635	-73.36	0.898164	0.270108	0.194468	0.111	0.78	0.0855	0	237	175	3
2026-02-11	16:24:09.810	-35.07	26.81	-90.965	0.931836	0.255468	0.165432	0.1155	0.765	0.078	0	229	200	3
2026-02-11	16:24:09.830	-40.81	27.265	-103.705	0.998936	0.260104	0.17202	0.108	0.7425	0.0855	0	229	200	3
2026-02-11	16:24:09.850	-50.19	29.715	-109.935	1.10776	0.27328	0.187636	0.099	0.7395	0.0915	0	229	200	3
2026-02-11	16:24:09.870	-56.035	34.545	-112.14	1.174616	0.284748	0.196664	0.1065	0.7365	0.075	0	229	200	3
2026-02-11	16:24:09.890	-57.05	41.02	-111.685	1.171688	0.301096	0.176656	0.1005	0.717	0.072	0	229	200	3
2026-02-11	16:24:09.910	-52.5	47.11	-110.495	1.107516	0.280112	0.134444	0.096	0.6945	0.072	0	229	200	3
2026-02-11	16:24:09.930	-40.495	49.595	-111.545	1.025532	0.259616	0.107116	0.099	0.687	0.069	0	229	200	3
2026-02-11	16:24:09.950	-27.895	48.65	-112.875	0.949648	0.243268	0.0854	0.1035	0.681	0.0675	0	229	200	3
2026-02-11	16:24:09.970	-20.055	45.745	-113.61	0.90158	0.246928	0.086132	0.096	0.648	0.0495	0	229	200	3
2026-02-11	16:24:09.990	-15.575	41.93	-112.28	0.874496	0.268156	0.07564	0.093	0.6345	0.039	0	229	200	3
2026-02-11	16:24:10.010	-15.855	38.92	-108.255	0.85156	0.265228	0.07124799	0.0945	0.6225	0.045	0	222	213	3
2026-02-11	16:24:10.030	-17.395	36.225	-101.745	0.831552	0.26596	0.061732	0.0915	0.606	0.027	0	222	213	3
2026-02-11	16:24:10.050	-18.725	34.02	-92.89	0.811056	0.255468	0.052948	0.096	0.594	0.0195	0	222	213	3
2026-02-11	16:24:10.070	-18.48	32.165	-83.72	0.775432	0.246684	0.055144	0.105	0.582	0.027	0	222	213	3
2026-02-11	16:24:10.090	-17.115	29.505	-72.87	0.756644	0.22082	0.0427	0.0975	0.5685	0.015	0	222	213	3
2026-02-11	16:24:10.110	-14.175	26.915	-62.23	0.7198	0.214476	0.03172	0.1065	0.564	0.015	0	222	213	3
2026-02-11	16:24:10.130	-10.22	22.05	-50.575	0.714676	0.1952	0.028304	0.108	0.5595	0.009	0	222	213	3
2026-02-11	16:24:10.150	-4.655	13.09	-32.445	0.776896	0.194712	0.04636	0.108	0.5595	0.009	0	222	213	3
2026-02-11	16:24:10.170	-2.765	6.58	-17.36	0.854732	0.185928	0.054168	0.108	0.5595	0.009	0	222	213	3
2026-02-11	16:24:10.190	0	0.175	0.84	0.940132	0.200324	0.066612	0.1095	0.54	0.006	0	222	213	3
2026-02-11	16:24:10.210	5.11	-4.305	19.6	1.020164	0.190564	0.063196	0.105	0.546	0	0	217	199	3
2026-02-11	16:24:10.230	13.72	-9.065	39.095	1.101416	0.187636	0.037332	0.117	0.54	0.0105	0	217	199	3
2026-02-11	16:24:10.250	21.77	-15.925	61.46	1.203896	0.187636	0.032696	0.1155	0.549	0	0	217	199	3
2026-02-11	16:24:10.270	28.945	-23.03	85.61	1.321016	0.206668	0.062952	0.1065	0.5475	0.0045	0	217	199	3
2026-02-11	16:24:10.290	35.91	-27.23	106.89	1.32248	0.233508	0.09272	0.1005	0.561	0.0135	0	217	199	3
2026-02-11	16:24:10.310	41.86	-29.715	122.115	1.19926	0.274012	0.114192	0.1095	0.579	0.018	0	217	199	3
2026-02-11	16:24:10.330	43.89	-34.335	128.555	1.065792	0.30988	0.162504	0.1065	0.5925	0.0315	0	217	199	3
2026-02-11	16:24:10.350	38.465	-38.43	125.16	0.95038	0.339404	0.239608	0.105	0.603	0.0285	0	217	199	3
2026-02-11	16:24:10.370	16.135	-45.22	106.155	0.926956	0.281576	0.308416	0.105	0.6135	0.027	0	217	199	3
2026-02-11	16:24:10.390	-0.07	-49.28	91.28	1.019432	0.243756	0.32086	0.1065	0.645	0.0465	0	217	199	3
2026-02-11	16:24:10.410	-10.08	-49.175	78.575	1.122888	0.24888	0.294264	0.1095	0.6615	0.051	0	214	175	3
2026-02-11	16:24:10.430	-14.945	-44.555	68.985	1.176812	0.247416	0.27694	0.1035	0.672	0.063	0	214	175	3
2026-02-11	16:24:10.450	-15.155	-36.155	61.845	1.159488	0.246928	0.274744	0.111	0.672	0.0615	0	214	175	3
2026-02-11	16:24:10.470	-6.09	-24.99	55.615	1.066524	0.210572	0.265472	0.1155	0.684	0.072	0	214	175	3
2026-02-11	16:24:10.490	11.83	-14.28	48.93	0.962092	0.181048	0.2562	0.102	0.6915	0.0735	0	214	175	3
2026-02-11	16:24:10.510	35.7	-6.3	41.125	0.855708	0.167628	0.261568	0.1095	0.6945	0.075	0	214	175	3
2026-02-11	16:24:10.530	54.46	-2.24	32.83	0.787388	0.194468	0.269376	0.1125	0.711	0.078	0	214	175	3
2026-02-11	16:24:10.550	66.745	-0.805	25.165	0.75274	0.220332	0.26718	0.117	0.711	0.0765	0	214	175	3
2026-02-11	16:24:10.570	70.63	-1.47	18.76	0.753716	0.263764	0.263764	0.1155	0.7095	0.0735	0	214	175	3
2026-02-11	16:24:10.590	63.595	-3.08	15.54	0.785436	0.300852	0.275964	0.111	0.7065	0.0705	0	214	175	3
2026-02-11	16:24:10.610	52.01	-4.34	15.715	0.813984	0.30866	0.288896	0.126	0.717	0.0765	0	211	173	3
2026-02-11	16:24:10.630	40.565	-5.32	18.235	0.838628	0.320128	0.299876	0.111	0.7155	0.063	0	211	173	3
2026-02-11	16:24:10.650	31.15	-6.195	21.735	0.858636	0.318664	0.309636	0.1125	0.7185	0.072	0	211	173	3
2026-02-11	16:24:10.670	23.73	-6.965	25.095	0.8662	0.303048	0.307928	0.1155	0.7275	0.0705	0	211	173	3
2026-02-11	16:24:10.690	18.585	-8.155	27.545	0.863272	0.28914	0.299876	0.12	0.7245	0.069	0	211	173	3
2026-02-11	16:24:10.710	16.835	-9.695	28.14	0.878888	0.299144	0.305	0.117	0.7215	0.063	0	211	173	3
2026-02-11	16:24:10.730	16.135	-10.43	27.02	0.909388	0.313296	0.29768	0.1125	0.735	0.069	0	211	173	3
2026-02-11	16:24:10.750	14.455	-11.13	24.85	0.968924	0.350384	0.294996	0.1185	0.7335	0.072	0	211	173	3
2026-02-11	16:24:10.770	9.87	-12.635	21.455	1.068232	0.388204	0.315004	0.1215	0.735	0.075	0	211	173	3
2026-02-11	16:24:10.790	1.54	-13.545	14.07	1.212436	0.408456	0.340624	0.1185	0.738	0.075	0	211	173	3
2026-02-11	16:24:10.810	-3.5	-13.65	8.435	1.329312	0.42822	0.330132	0.1185	0.738	0.075	0	210	192	3
2026-02-11	16:24:10.830	-13.44	-11.69	2.275	1.375672	0.435784	0.314028	0.1245	0.75	0.078	0	210	192	3
2026-02-11	16:24:10.850	-21.455	-5.775	-5.95	1.345904	0.415288	0.290116	0.1275	0.7455	0.0885	0	210	192	3
2026-02-11	16:24:10.870	-25.9	1.995	-14.875	1.2749	0.42944	0.297924	0.1215	0.7395	0.081	0	210	192	3
2026-02-11	16:24:10.890	-27.93	11.55	-23.975	1.209752	0.396012	0.319152	0.1155	0.7395	0.0825	0	210	192	3
2026-02-11	16:24:10.910	-23.135	24.535	-35.42	1.047004	0.370148	0.286944	0.1215	0.738	0.0855	0	210	192	3
2026-02-11	16:24:10.930	-17.955	32.865	-48.965	0.923052	0.301096	0.232288	0.123	0.7365	0.084	0	210	192	3
2026-02-11	16:24:10.950	-14.42	35.56	-60.935	0.923052	0.280844	0.221552	0.1185	0.726	0.069	0	210	192	3
2026-02-11	16:24:10.970	-12.705	36.995	-69.79	0.965752	0.309636	0.24034	0.117	0.7215	0.066	0	210	192	3
2026-02-11	16:24:10.990	-17.885	37.135	-76.37	1.038464	0.35868	0.280112	0.1155	0.714	0.0645	0	210	192	3
2026-02-11	16:24:11.010	-37.975	38.08	-81.83	1.121424	0.405284	0.296216	0.117	0.7125	0.0645	0	208	218	3
2026-02-11	16:24:11.030	-46.97	38.605	-84.98	1.122644	0.378444	0.261324	0.111	0.684	0.0585	0	208	218	3
2026-02-11	16:24:11.050	-45.255	40.425	-90.405	1.053348	0.339648	0.199348	0.1035	0.6765	0.0585	0	208	218	3
2026-02-11	16:24:11.070	-36.575	40.53	-95.97	0.971852	0.310124	0.155184	0.1095	0.657	0.051	0	208	218	3
2026-02-11	16:24:11.090	-28.21	37.8	-101.29	0.919636	0.298168	0.14884	0.0975	0.651	0.0375	0	208	218	3
2026-02-11	16:24:11.110	-24.64	33.74	-105.245	0.888892	0.300364	0.163724	0.099	0.639	0.036	0	208	218	3
2026-02-11	16:24:11.130	-26.915	30.555	-106.505	0.879132	0.314272	0.160796	0.0975	0.6195	0.0405	0	208	218	3
2026-02-11	16:24:11.150	-30.975	29.505	-104.72	0.856928	0.311588	0.135664	0.1035	0.606	0.0315	0	208	218	3
2026-02-11	16:24:11.170	-32.935	29.435	-99.225	0.82838	0.303292	0.101504	0.1005	0.5955	0.03	0	208	218	3
2026-02-11	16:24:11.190	-32.515	28.805	-92.015	0.80154	0.301096	0.08418	0.099	0.5835	0.021	0	208	218	3
2026-02-11	16:24:11.210	-28.98	27.44	-80.71	0.783972	0.287432	0.081984	0.1005	0.573	0.015	0	205	229	3
2026-02-11	16:24:11.230	-21.595	26.775	-70.315	0.75762	0.262788	0.078812	0.1035	0.567	0.018	0	205	229	3
2026-02-11	16:24:11.250	-14.63	24.955	-60.55	0.744932	0.246684	0.067832	0.108	0.5655	0.0105	0	205	229	3
2026-02-11	16:24:11.270	-7.35	22.365	-51.205	0.71614	0.237412	0.052948	0.1185	0.5445	0.003	0	205	229	3
2026-02-11	16:24:11.290	-1.54	17.99	-41.125	0.707112	0.24034	0.048068	0.111	0.5445	0	0	205	229	3
2026-02-11	16:24:11.310	1.435	11.865	-29.645	0.74664	0.237168	0.070028	0.114	0.537	-0.0015	0	205	229	3
2026-02-11	16:24:11.330	2.275	5.18	-16.38	0.791048	0.233508	0.084424	0.1185	0.5265	-0.0015	0	205	229	3
2026-02-11	16:24:11.350	3.395	-1.75	-0.56	0.85522	0.238144	0.10492	0.1155	0.525	-0.006	0	205	229	3
2026-02-11	16:24:11.370	7.56	-7.665	16.03	0.932324	0.243756	0.112972	0.12	0.528	-0.0015	0	205	229	3
2026-02-11	16:24:11.390	14.42	-12.46	32.48	1.001864	0.23302	0.106872	0.12	0.5325	0.006	0	205	229	3
2026-02-11	16:24:11.410	22.19	-18.06	51.38	1.098	0.238632	0.09638	0.114	0.5385	0.006	0	203	216	3
2026-02-11	16:24:11.430	29.575	-25.795	81.935	1.178276	0.255224	0.136152	0.114	0.5445	0.0015	0	203	216	3
2026-02-11	16:24:11.450	31.08	-29.96	101.43	1.197064	0.275476	0.177632	0.114	0.5445	0.0015	0	203	216	3
2026-02-11	16:24:11.470	32.235	-30.94	116.025	1.137528	0.296948	0.209108	0.1185	0.5715	0.036	0	203	216	3
2026-02-11	16:24:11.490	31.29	-30.03	122.15	1.018944	0.301828	0.235948	0.1125	0.5925	0.0435	0	203	216	3
2026-02-11	16:24:11.510	31.01	-28.49	119.63	0.91378	0.29768	0.264252	0.1095	0.5985	0.054	0	203	216	3
2026-02-11	16:24:11.530	32.62	-27.37	110.635	0.878644	0.255224	0.253028	0.1095	0.6165	0.0615	0	203	216	3
2026-02-11	16:24:11.550	34.685	-28.7	100.1	0.926956	0.216672	0.238144	0.1125	0.633	0.072	0	203	216	3
2026-02-11	16:24:11.570	34.755	-31.15	91.56	1.044564	0.216184	0.247416	0.1215	0.6435	0.078	0	203	216	3
2026-02-11	16:24:11.590	32.865	-30.59	85.785	1.153632	0.235216	0.26474	0.12	0.642	0.075	0	203	216	3
2026-02-11	16:24:11.610	33.215	-25.34	81.97	1.184864	0.244244	0.284748	0.1215	0.6435	0.0795	0	200	199	3
2026-02-11	16:24:11.630	39.095	-17.85	78.82	1.155096	0.253516	0.2684	0.1275	0.6495	0.0825	0	200	199	3
2026-02-11	16:24:11.650	60.62	-6.825	72.625	1.02114	0.252052	0.240096	0.1305	0.6525	0.081	0	200	199	3
2026-02-11	16:24:11.670	73.675	-3.08	66.115	0.924028	0.261812	0.242292	0.132	0.675	0.0645	0	200	199	3
2026-02-11	16:24:11.690	82.425	-2.24	57.75	0.843264	0.263764	0.251808	0.138	0.693	0.0645	0	200	199	3
2026-02-11	16:24:11.710	85.575	-3.605	49.98	0.79666	0.29036	0.251808	0.1395	0.7035	0.0555	0	200	199	3
2026-02-11	16:24:11.730	80.745	-6.23	44.1	0.800076	0.328424	0.261812	0.141	0.705	0.0405	0	200	199	3
2026-02-11	16:24:11.750	67.55	-8.155	41.16	0.808616	0.347944	0.25742	0.132	0.7095	0.0495	0	200	199	3
2026-02-11	16:24:11.770	51.8	-9.52	40.565	0.835212	0.360632	0.265716	0.1365	0.7185	0.0495	0	200	199	3
2026-02-11	16:24:11.790	35.63	-10.5	41.475	0.860832	0.361364	0.280356	0.135	0.7215	0.0495	0	200	199	3
2026-02-11	16:24:11.810	22.505	-11.165	42.735	0.893284	0.346968	0.295972	0.1365	0.7275	0.048	0	197	199	3
2026-02-11	16:24:11.830	14.07	-11.06	43.295	0.899384	0.325252	0.304024	0.1365	0.7335	0.0465	0	197	199	3
2026-02-11	16:24:11.850	10.36	-11.27	42.525	0.925004	0.31232	0.31598	0.1335	0.738	0.0555	0	197	199	3
2026-02-11	16:24:11.870	11.235	-10.85	39.725	0.942328	0.3172	0.325984	0.1335	0.738	0.0615	0	197	199	3
2026-02-11	16:24:11.890	13.825	-9.94	35.245	0.960384	0.316712	0.325984	0.1455	0.7515	0.0555	0	197	199	3
2026-02-11	16:24:11.910	15.855	-9.38	29.4	0.99064	0.324764	0.307196	0.1395	0.756	0.0615	0	197	199	3
2026-02-11	16:24:11.930	14.525	-9.94	23.87	1.060424	0.33184	0.304756	0.138	0.765	0.0555	0	197	199	3
2026-02-11	16:24:11.950	9.24	-10.92	19.11	1.148264	0.356484	0.322324	0.1425	0.759	0.063	0	197	199	3
2026-02-11	16:24:11.970	1.295	-10.5	14.21	1.217316	0.355996	0.33672	0.141	0.762	0.063	0	197	199	3
2026-02-11	16:24:11.990	-5.32	-9.59	8.61	1.293688	0.343308	0.333304	0.144	0.762	0.063	0	197	199	3
2026-02-11	16:24:12.010	-11.025	-5.74	0.105	1.307596	0.353068	0.318664	0.147	0.762	0.063	0	192	215	3
2026-02-11	16:24:12.030	-12.985	-2.45	-6.93	1.26026	0.335256	0.308904	0.144	0.765	0.063	0	192	215	3
2026-02-11	16:24:12.050	-14.735	0.035	-17.115	1.229272	0.332084	0.299388	0.144	0.768	0.06	0	192	215	3
2026-02-11	16:24:12.070	-23.835	7.84	-33.6	1.097268	0.343064	0.309392	0.1485	0.768	0.057	0	192	215	3
2026-02-11	16:24:12.090	-27.965	15.225	-47.845	0.943304	0.354288	0.281576	0.1485	0.768	0.057	0	192	215	3
2026-02-11	16:24:12.110	-31.15	20.3	-63.14	0.863272	0.33672	0.243756	0.1485	0.7575	0.0675	0	192	215	3
2026-02-11	16:24:12.130	-33.04	23.24	-79.065	0.88572	0.331352	0.21472	0.1365	0.75	0.0615	0	192	215	3
2026-02-11	16:24:12.150	-38.185	24.64	-93.8	0.97234	0.328668	0.22082	0.1275	0.7335	0.0675	0	192	215	3
2026-02-11	16:24:12.170	-45.43	25.585	-104.79	1.084092	0.335744	0.251808	0.126	0.732	0.0645	0	192	215	3
2026-02-11	16:24:12.190	-52.745	28.35	-111.51	1.18584	0.333304	0.252296	0.126	0.714	0.066	0	192	215	3
2026-02-11	16:24:12.210	-55.685	33.67	-113.96	1.220732	0.30744	0.223748	0.126	0.7035	0.063	0	188	235	3
2026-02-11	16:24:12.230	-51.1	39.13	-114.135	1.190476	0.302316	0.188124	0.123	0.6885	0.06	0	188	235	3
2026-02-11	16:24:12.250	-41.93	43.785	-112.945	1.12972	0.287432	0.15006	0.1185	0.6795	0.054	0	188	235	3
2026-02-11	16:24:12.270	-31.325	46.235	-111.37	1.043344	0.266692	0.126392	0.117	0.6645	0.048	0	188	235	3
2026-02-11	16:24:12.290	-17.01	44.59	-110.25	0.946232	0.281332	0.11346	0.1185	0.657	0.045	0	188	235	3
2026-02-11	16:24:12.310	-11.55	42.455	-108.08	0.859612	0.280356	0.111508	0.111	0.6285	0.03	0	188	235	3
2026-02-11	16:24:12.330	-8.75	38.745	-104.895	0.829112	0.280356	0.104188	0.117	0.6105	0.03	0	188	235	3
2026-02-11	16:24:12.350	-8.68	35.735	-100.345	0.78812	0.294996	0.09076799	0.126	0.6075	0.0165	0	188	235	3
2026-02-11	16:24:12.370	-10.85	31.92	-93.94	0.754936	0.290848	0.074664	0.126	0.6	0.0165	0	188	235	3
2026-02-11	16:24:12.390	-14.84	28.21	-86.66	0.701256	0.280356	0.068076	0.1155	0.585	0.006	0	188	235	3
2026-02-11	16:24:12.410	-18.305	23.52	-78.4	0.711992	0.264008	0.066368	0.1185	0.579	0.003	0	185	237	3
2026-02-11	16:24:12.430	-19.39	19.775	-69.755	0.67588	0.242292	0.063684	0.123	0.57	0.003	0	185	237	3
2026-02-11	16:24:12.450	-18.165	14.805	-59.115	0.682468	0.223016	0.064904	0.123	0.5595	0.003	0	185	237	3
2026-02-11	16:24:12.470	-14.525	10.185	-47.635	0.683444	0.218136	0.06832	0.123	0.5535	0.0015	0	185	237	3
2026-02-11	16:24:12.490	-8.05	3.885	-30.415	0.708332	0.21716	0.076128	0.129	0.5475	-0.0015	0	185	237	3
2026-02-11	16:24:12.510	-1.4	-2.31	-11.62	0.737856	0.223748	0.09028	0.132	0.543	-0.006	0	185	237	3
2026-02-11	16:24:12.530	3.465	-7.7	4.06	0.793244	0.241316	0.109068	0.1365	0.543	0.0015	0	185	237	3
2026-02-11	16:24:12.550	7.56	-12.32	19.95	0.846924	0.240584	0.133468	0.126	0.5475	0.0045	0	185	237	3
2026-02-11	16:24:12.570	11.865	-16.905	36.715	0.945988	0.235216	0.145912	0.1245	0.528	0.0015	0	185	237	3
2026-02-11	16:24:12.590	17.115	-20.335	54.04	1.033584	0.22448	0.143472	0.12	0.5505	0.0015	0	185	237	3
2026-02-11	16:24:12.610	24.22	-24.22	73.36	1.126792	0.215452	0.1403	0.126	0.555	0.0165	0	184	216	3
2026-02-11	16:24:12.630	32.76	-29.505	97.475	1.243912	0.220576	0.13298	0.1215	0.555	0.015	0	184	216	3
2026-02-11	16:24:12.650	40.425	-34.755	122.605	1.341024	0.266204	0.159088	0.117	0.5655	0.021	0	184	216	3
2026-02-11	16:24:12.670	45.29	-36.26	143.815	1.330044	0.316468	0.213744	0.1155	0.582	0.024	0	184	216	3
2026-02-11	16:24:12.690	45.5	-34.37	155.155	1.189256	0.365268	0.269132	0.117	0.5985	0.0225	0	184	216	3
2026-02-11	16:24:12.710	41.58	-30.17	147.98	0.955748	0.36234	0.323056	0.117	0.6105	0.024	0	184	216	3
2026-02-11	16:24:12.730	32.655	-29.575	131.285	0.889868	0.302316	0.337452	0.117	0.6105	0.024	0	184	216	3
2026-02-11	16:24:12.750	25.13	-31.01	111.475	0.94306	0.253028	0.29402	0.126	0.6705	0.0495	0	184	216	3
2026-02-11	16:24:12.770	20.02	-30.94	92.855	1.047492	0.213744	0.25742	0.135	0.681	0.054	0	184	216	3
2026-02-11	16:24:12.790	18.235	-27.79	77.805	1.15656	0.220332	0.220576	0.123	0.6945	0.06	0	184	216	3
2026-02-11	16:24:12.810	22.82	-20.125	67.025	1.190232	0.23058	0.196664	0.1365	0.7095	0.063	0	184	199	3
2026-02-11	16:24:12.830	32.725	-10.43	59.955	1.161928	0.232044	0.171288	0.132	0.708	0.063	0	184	199	3
2026-02-11	16:24:12.850	47.285	-1.995	56.245	1.092144	0.235948	0.172752	0.1245	0.7155	0.0615	0	184	199	3
2026-02-11	16:24:12.870	62.265	3.045	53.97	1.011868	0.252296	0.191784	0.1275	0.7245	0.057	0	184	199	3
2026-02-11	16:24:12.890	75.075	5.04	51.45	0.9333	0.277428	0.212036	0.1365	0.7305	0.0555	0	184	199	3
2026-02-11	16:24:12.910	80.15	4.515	48.93	0.87352	0.311344	0.22204	0.1395	0.741	0.0495	0	184	199	3
2026-02-11	16:24:12.930	70.77	1.225	46.725	0.820816	0.362828	0.224724	0.138	0.747	0.045	0	184	199	3
2026-02-11	16:24:12.950	55.86	-1.89	45.815	0.807396	0.385276	0.232044	0.1455	0.756	0.048	0	184	199	3
2026-02-11	16:24:12.970	37.555	-5.075	45.57	0.80764	0.3843	0.236436	0.1515	0.762	0.042	0	184	199	3
2026-02-11	16:24:12.990	18.55	-8.295	45.78	0.829356	0.37088	0.229848	0.1425	0.7635	0.039	0	184	199	3
2026-02-11	16:24:13.010	4.55	-10.535	45.465	0.847656	0.350628	0.24156	0.153	0.7575	0.045	0	186	196	3
2026-02-11	16:24:13.030	-2.835	-11.795	43.89	0.867908	0.343308	0.2562	0.1515	0.774	0.042	0	186	196	3
2026-02-11	16:24:13.050	-7.315	-12.32	41.3	0.901092	0.319396	0.26474	0.153	0.777	0.0405	0	186	196	3
2026-02-11	16:24:13.070	-6.055	-11.795	37.45	0.919636	0.313784	0.268156	0.153	0.7815	0.042	0	186	196	3
2026-02-11	16:24:13.090	-1.47	-11.2	32.235	0.941108	0.310124	0.266936	0.153	0.786	0.0465	0	186	196	3
2026-02-11	16:24:13.110	2.695	-10.99	25.935	0.97356	0.31842	0.274744	0.1605	0.789	0.0495	0	186	196	3
2026-02-11	16:24:13.130	1.68	-11.76	18.48	1.067988	0.34282	0.2867	0.165	0.7905	0.051	0	186	196	3
2026-02-11	16:24:13.150	-5.11	-11.62	11.97	1.177056	0.366488	0.304512	0.1635	0.795	0.051	0	186	196	3
2026-02-11	16:24:13.170	-12.53	-10.325	6.86	1.27612	0.355996	0.299144	0.168	0.798	0.0555	0	186	196	3
2026-02-11	16:24:13.190	-18.025	-8.995	1.295	1.37982	0.35136	0.29646	0.162	0.7965	0.0555	0	186	196	3
2026-02-11	16:24:13.210	-23.065	-4.375	-6.615	1.36274	0.335744	0.28548	0.171	0.801	0.057	0	186	206	3
2026-02-11	16:24:13.230	-25.62	1.435	-16.625	1.2688	0.311832	0.260836	0.162	0.798	0.048	0	186	206	3
2026-02-11	16:24:13.250	-26.95	5.635	-27.72	1.19682	0.324032	0.258152	0.165	0.801	0.054	0	186	206	3
2026-02-11	16:24:13.270	-31.815	12.495	-40.145	1.06506	0.34282	0.263032	0.1665	0.7995	0.0615	0	186	206	3
2026-02-11	16:24:13.290	-37.205	18.83	-55.545	0.908168	0.356972	0.24644	0.159	0.7875	0.063	0	186	206	3
2026-02-11	16:24:13.310	-42.245	22.085	-69.825	0.876448	0.303536	0.207644	0.159	0.78	0.066	0	186	206	3
2026-02-11	16:24:13.330	-44.485	23.485	-84.245	0.924028	0.300852	0.19398	0.159	0.777	0.0585	0	186	206	3
2026-02-11	16:24:13.350	-48.965	23.555	-98.98	1.067256	0.311344	0.216916	0.1545	0.7725	0.0495	0	186	206	3
2026-02-11	16:24:13.370	-54.74	24.5	-109.06	1.19438	0.326472	0.242536	0.1545	0.7725	0.0495	0	186	206	3
2026-02-11	16:24:13.390	-57.295	28.42	-113.925	1.209996	0.33428	0.201056	0.1425	0.7485	0.0615	0	186	206	3
2026-02-11	16:24:13.410	-55.125	31.675	-116.795	1.176568	0.322568	0.15738	0.132	0.7245	0.0525	0	185	218	3
2026-02-11	16:24:13.430	-51.485	33.67	-117.915	1.130452	0.314516	0.123464	0.135	0.7215	0.048	0	185	218	3
2026-02-11	16:24:13.450	-46.865	34.825	-119.805	1.057008	0.313296	0.109556	0.123	0.702	0.0435	0	185	218	3
2026-02-11	16:24:13.470	-42.63	34.72	-120.645	0.992836	0.311588	0.1037	0.12	0.6975	0.0435	0	185	218	3
2026-02-11	16:24:13.490	-39.865	33.705	-120.68	0.956236	0.306708	0.09467199	0.12	0.6825	0.039	0	185	218	3
2026-02-11	16:24:13.510	-37.205	33.04	-119.875	0.89914	0.309148	0.079544	0.114	0.663	0.03	0	185	218	3
2026-02-11	16:24:13.530	-36.225	31.605	-116.655	0.876692	0.29646	0.072956	0.114	0.648	0.024	0	185	218	3
2026-02-11	16:24:13.550	-36.295	30.17	-112.595	0.825452	0.296216	0.066612	0.117	0.633	0.0195	0	185	218	3
2026-02-11	16:24:13.570	-37.765	26.845	-103.11	0.793976	0.274256	0.05978	0.114	0.627	0.0165	0	185	218	3
2026-02-11	16:24:13.590	-36.925	24.57	-94.815	0.75762	0.271816	0.046604	0.117	0.603	0.0135	0	185	218	3
2026-02-11	16:24:13.610	-35.98	21.28	-84.14	0.765916	0.243756	0.041236	0.1125	0.597	-0.0045	0	184	214	3
2026-02-11	16:24:13.630	-31.955	18.2	-71.96	0.740052	0.24156	0.036356	0.114	0.585	0.0015	0	184	214	3
2026-02-11	16:24:13.650	-25.445	14.84	-59.325	0.739076	0.233752	0.043432	0.1155	0.5745	0.0015	0	184	214	3
2026-02-11	16:24:13.670	-18.06	11.165	-45.99	0.733952	0.230824	0.045872	0.1155	0.5685	-0.0015	0	184	214	3
2026-02-11	16:24:13.690	-11.375	6.58	-32.725	0.743712	0.231556	0.050996	0.12	0.564	-0.003	0	184	214	3
2026-02-11	16:24:13.710	-6.65	0.875	-19.705	0.761768	0.229604	0.062952	0.123	0.5595	0	0	184	214	3
2026-02-11	16:24:13.730	-4.34	-5.46	-5.67	0.821548	0.223992	0.077836	0.1215	0.552	0	0	184	214	3
2026-02-11	16:24:13.750	-0.805	-11.41	9.555	0.891576	0.213988	0.081496	0.1185	0.5535	0	0	184	214	3
2026-02-11	16:24:13.770	7.98	-18.025	31.15	0.989908	0.203252	0.07515199	0.12	0.5595	-0.0015	0	184	214	3
2026-02-11	16:24:13.790	18.725	-24.185	56.21	1.104832	0.211548	0.072224	0.123	0.564	-0.003	0	184	214	3
2026-02-11	16:24:13.810	26.32	-30.38	80.92	1.204628	0.225456	0.09076799	0.1155	0.567	0.0015	0	184	191	3
2026-02-11	16:24:13.830	32.445	-36.12	105.77	1.253184	0.277672	0.122976	0.117	0.585	0.012	0	184	191	3
2026-02-11	16:24:13.850	34.93	-37.87	125.265	1.155584	0.305488	0.181048	0.1125	0.597	0.0135	0	184	191	3
2026-02-11	16:24:13.870	32.725	-38.675	135.275	1.010892	0.324032	0.249612	0.111	0.603	0.015	0	184	191	3
2026-02-11	16:24:13.890	29.925	-38.78	134.365	0.908656	0.330376	0.300852	0.1155	0.6195	0.018	0	184	191	3
2026-02-11	16:24:13.910	25.41	-38.885	125.23	0.872544	0.302072	0.30988	0.117	0.642	0.0225	0	184	191	3
2026-02-11	16:24:13.930	17.92	-40.635	113.015	0.938424	0.241072	0.304512	0.1185	0.657	0.03	0	184	191	3
2026-02-11	16:24:13.950	13.475	-41.265	100.66	1.057984	0.211792	0.28182	0.114	0.669	0.036	0	184	191	3
2026-02-11	16:24:13.970	14.14	-39.165	89.95	1.170468	0.227652	0.243268	0.1155	0.687	0.042	0	184	191	3
2026-02-11	16:24:13.990	17.325	-30.52	80.115	1.211704	0.240584	0.241804	0.1245	0.6975	0.0465	0	184	191	3
2026-02-11	16:24:14.010	28.525	-19.11	72.38	1.172176	0.226432	0.23058	0.1245	0.6975	0.0465	0	184	174	3
2026-02-11	16:24:14.030	44.695	-10.185	66.92	1.083848	0.22326	0.232776	0.1335	0.723	0.0525	0	184	174	3
2026-02-11	16:24:14.050	59.745	-4.865	61.565	0.996008	0.236436	0.234728	0.1335	0.729	0.0585	0	184	174	3
2026-02-11	16:24:14.070	72.45	-2.415	55.51	0.915	0.26474	0.255956	0.1335	0.738	0.0555	0	184	174	3
2026-02-11	16:24:14.090	78.05	-2.24	49.385	0.860344	0.287676	0.26108	0.1365	0.741	0.051	0	184	174	3
2026-02-11	16:24:14.110	76.755	-3.22	44.31	0.836188	0.317932	0.257176	0.138	0.7485	0.048	0	184	174	3
2026-02-11	16:24:14.130	68.705	-4.305	40.565	0.824476	0.348432	0.246196	0.1365	0.7515	0.0495	0	184	174	3
2026-02-11	16:24:14.150	54.355	-5.565	38.64	0.828136	0.365756	0.2379	0.138	0.756	0.0465	0	184	174	3
2026-02-11	16:24:14.170	38.64	-6.93	38.29	0.854976	0.36722	0.244244	0.144	0.7635	0.0435	0	184	174	3
2026-02-11	16:24:14.190	23.87	-8.295	39.025	0.881328	0.354288	0.255956	0.147	0.765	0.0465	0	184	174	3
2026-02-11	16:24:14.210	9.38	-9.555	39.97	0.917928	0.328424	0.273768	0.1455	0.7635	0.048	0	183	179	3
2026-02-11	16:24:14.230	5.775	-9.905	39.13	0.933056	0.323544	0.287676	0.1485	0.7785	0.045	0	183	179	3
2026-02-11	16:24:14.250	5.95	-9.03	36.12	0.92964	0.318176	0.290604	0.1545	0.7785	0.0435	0	183	179	3
2026-02-11	16:24:14.270	9.8	-7.665	30.66	0.91866	0.313784	0.28426	0.162	0.7875	0.0435	0	183	179	3
2026-02-11	16:24:14.290	13.72	-7.28	24.115	0.931348	0.30866	0.284016	0.159	0.786	0.042	0	183	179	3
2026-02-11	16:24:14.310	13.335	-8.47	18.06	0.997472	0.326228	0.289384	0.1545	0.789	0.0435	0	183	179	3
2026-02-11	16:24:14.330	8.54	-9.03	13.09	1.079456	0.352824	0.30378	0.1575	0.7965	0.0435	0	183	179	3
2026-02-11	16:24:14.350	-0.245	-8.33	10.08	1.159976	0.364536	0.301828	0.159	0.798	0.039	0	183	179	3
2026-02-11	16:24:14.370	-7.63	-7.175	7.35	1.258552	0.34648	0.292312	0.1635	0.7935	0.042	0	183	179	3
2026-02-11	16:24:14.390	-11.9	-5.74	3.745	1.349564	0.343064	0.301096	0.174	0.795	0.0465	0	183	179	3
2026-02-11	16:24:14.410	-14.35	-0.84	-4.935	1.311988	0.33062	0.286212	0.1725	0.801	0.051	0	182	198	3
2026-02-11	16:24:14.430	-17.605	2.205	-15.365	1.219268	0.347212	0.276696	0.1695	0.804	0.054	0	182	198	3
2026-02-11	16:24:14.450	-27.895	4.76	-23.975	1.099708	0.381372	0.286212	0.168	0.804	0.051	0	182	198	3
2026-02-11	16:24:14.470	-41.44	9.415	-35	0.955016	0.391132	0.275476	0.156	0.8025	0.051	0	182	198	3
2026-02-11	16:24:14.490	-52.08	14.35	-47.95	0.87352	0.3599	0.2257	0.1545	0.798	0.051	0	182	198	3
2026-02-11	16:24:14.510	-57.26	17.605	-61.32	0.88328	0.347456	0.175436	0.159	0.7905	0.051	0	182	198	3
2026-02-11	16:24:14.530	-62.125	20.685	-73.185	0.950136	0.335988	0.152012	0.1635	0.7815	0.054	0	182	198	3
2026-02-11	16:24:14.550	-66.99	22.68	-83.895	1.063352	0.316468	0.176656	0.159	0.78	0.051	0	182	198	3
2026-02-11	16:24:14.570	-69.51	24.815	-91.595	1.178764	0.331108	0.213988	0.1575	0.78	0.054	0	182	198	3
2026-02-11	16:24:14.590	-70.035	29.61	-96.635	1.222684	0.327448	0.201788	0.153	0.768	0.0585	0	182	198	3
2026-02-11	16:24:14.610	-63.98	36.12	-101.115	1.199992	0.307196	0.164456	0.1455	0.7485	0.057	0	180	216	3
2026-02-11	16:24:14.630	-51.205	40.565	-104.72	1.136796	0.286456	0.12932	0.147	0.738	0.0585	0	180	216	3
2026-02-11	16:24:14.650	-37.59	42	-108.57	1.02602	0.277184	0.109556	0.129	0.7185	0.0585	0	180	216	3
2026-02-11	16:24:14.670	-29.05	40.53	-111.37	0.964532	0.288652	0.110044	0.129	0.711	0.0495	0	180	216	3
2026-02-11	16:24:14.690	-24.08	38.675	-113.4	0.92842	0.284016	0.118584	0.1245	0.6825	0.051	0	180	216	3
2026-02-11	16:24:14.710	-22.47	37.345	-113.47	0.895968	0.295728	0.102968	0.126	0.6825	0.0465	0	180	216	3
2026-02-11	16:24:14.730	-22.855	36.295	-112.245	0.85766	0.282308	0.082716	0.1245	0.6735	0.0405	0	180	216	3
2026-02-11	16:24:14.750	-23.625	34.72	-108.64	0.82716	0.279624	0.069784	0.1185	0.654	0.0375	0	180	216	3
2026-02-11	16:24:14.770	-23.24	33.04	-104.16	0.772016	0.26474	0.055388	0.114	0.6405	0.039	0	180	216	3
2026-02-11	16:24:14.790	-22.82	29.715	-97.475	0.7747	0.238388	0.050508	0.1095	0.6315	0.0375	0	180	216	3
2026-02-11	16:24:14.810	-20.72	26.495	-89.495	0.748592	0.228628	0.051484	0.111	0.6135	0.0315	0	179	214	3
2026-02-11	16:24:14.830	-18.235	22.19	-79.205	0.751032	0.222528	0.05246	0.114	0.603	0.0315	0	179	214	3
2026-02-11	16:24:14.850	-11.935	16.065	-61.39	0.730048	0.22204	0.05368	0.1155	0.6045	0.033	0	179	214	3
2026-02-11	16:24:14.870	-8.4	10.955	-47.915	0.712968	0.220576	0.053924	0.123	0.576	0.024	0	179	214	3
2026-02-11	16:24:14.890	-5.215	4.375	-33.25	0.730536	0.22448	0.070272	0.1185	0.579	0.021	0	179	214	3
2026-02-11	16:24:14.910	-3.605	-2.625	-17.255	0.767136	0.22326	0.086132	0.1125	0.573	0.021	0	179	214	3
2026-02-11	16:24:14.930	-1.12	-9.695	0.14	0.846924	0.215208	0.105652	0.1095	0.567	0.0225	0	179	214	3
2026-02-11	16:24:14.950	3.78	-15.785	18.795	0.932568	0.209108	0.11468	0.1185	0.567	0.0255	0	179	214	3
2026-02-11	16:24:14.970	10.71	-20.65	38.64	0.989176	0.202276	0.096136	0.1215	0.5685	0.0285	0	179	214	3
2026-02-11	16:24:14.990	17.99	-27.055	60.76	1.062376	0.21594	0.094184	0.1215	0.573	0.036	0	179	214	3
2026-02-11	16:24:15.010	21.98	-34.545	85.925	1.1529	0.233996	0.113216	0.1215	0.576	0.039	0	178	193	3
2026-02-11	16:24:15.030	23.835	-41.545	111.16	1.220732	0.269132	0.160552	0.117	0.582	0.045	0	178	193	3
2026-02-11	16:24:15.050	21.84	-45.15	135.03	1.164856	0.315736	0.23912	0.1155	0.5955	0.054	0	178	193	3
2026-02-11	16:24:15.070	17.115	-44.38	145.215	1.021384	0.324764	0.298168	0.114	0.603	0.0585	0	178	193	3
2026-02-11	16:24:15.090	17.185	-42.35	140.665	0.940132	0.315492	0.312076	0.108	0.639	0.0645	0	178	193	3
2026-02-11	16:24:15.110	15.925	-41.685	129.36	0.943792	0.274988	0.312076	0.1125	0.6495	0.0705	0	178	193	3
2026-02-11	16:24:15.130	14.07	-41.51	115.57	1.0248	0.2196	0.271816	0.117	0.669	0.075	0	178	193	3
2026-02-11	16:24:15.150	15.575	-40.67	101.395	1.164612	0.217404	0.26596	0.12	0.6855	0.0795	0	178	193	3
2026-02-11	16:24:15.170	15.96	-35.91	88.34	1.2139	0.228872	0.255712	0.129	0.7005	0.087	0	178	193	3
2026-02-11	16:24:15.190	21.14	-27.44	76.3	1.2261	0.242292	0.24522	0.129	0.717	0.093	0	178	193	3
2026-02-11	16:24:13.210	-23.065	-4.375	-6.615	1.36274	0.335744	0.28548	0.171	0.801	0.057	0	186	206	3
2026-02-11	16:24:13.230	-25.62	1.435	-16.625	1.2688	0.311832	0.260836	0.162	0.798	0.048	0	186	206	3
2026-02-11	16:24:13.250	-26.95	5.635	-27.72	1.19682	0.324032	0.258152	0.165	0.801	0.054	0	186	206	3
2026-02-11	16:24:13.270	-31.815	12.495	-40.145	1.06506	0.34282	0.263032	0.1665	0.7995	0.0615	0	186	206	3
2026-02-11	16:24:13.290	-37.205	18.83	-55.545	0.908168	0.356972	0.24644	0.159	0.7875	0.063	0	186	206	3
2026-02-11	16:24:13.310	-42.245	22.085	-69.825	0.876448	0.303536	0.207644	0.159	0.78	0.066	0	186	206	3
2026-02-11	16:24:13.330	-44.485	23.485	-84.245	0.924028	0.300852	0.19398	0.159	0.777	0.0585	0	186	206	3
2026-02-11	16:24:13.350	-48.965	23.555	-98.98	1.067256	0.311344	0.216916	0.1545	0.7725	0.0495	0	186	206	3
2026-02-11	16:24:13.370	-54.74	24.5	-109.06	1.19438	0.326472	0.242536	0.1545	0.7725	0.0495	0	186	206	3
2026-02-11	16:24:13.390	-57.295	28.42	-113.925	1.209996	0.33428	0.201056	0.1425	0.7485	0.0615	0	186	206	3
2026-02-11	16:24:13.410	-55.125	31.675	-116.795	1.176568	0.322568	0.15738	0.132	0.7245	0.0525	0	185	218	3
2026-02-11	16:24:13.430	-51.485	33.67	-117.915	1.130452	0.314516	0.123464	0.135	0.7215	0.048	0	185	218	3
2026-02-11	16:24:13.450	-46.865	34.825	-119.805	1.057008	0.313296	0.109556	0.123	0.702	0.0435	0	185	218	3
2026-02-11	16:24:13.470	-42.63	34.72	-120.645	0.992836	0.311588	0.1037	0.12	0.6975	0.0435	0	185	218	3
2026-02-11	16:24:13.490	-39.865	33.705	-120.68	0.956236	0.306708	0.09467199	0.12	0.6825	0.039	0	185	218	3
2026-02-11	16:24:13.510	-37.205	33.04	-119.875	0.89914	0.309148	0.079544	0.114	0.663	0.03	0	185	218	3
2026-02-11	16:24:13.530	-36.225	31.605	-116.655	0.876692	0.29646	0.072956	0.114	0.648	0.024	0	185	218	3
2026-02-11	16:24:13.550	-36.295	30.17	-112.595	0.825452	0.296216	0.066612	0.117	0.633	0.0195	0	185	218	3
2026-02-11	16:24:13.570	-37.765	26.845	-103.11	0.793976	0.274256	0.05978	0.114	0.627	0.0165	0	185	218	3
2026-02-11	16:24:13.590	-36.925	24.57	-94.815	0.75762	0.271816	0.046604	0.117	0.603	0.0135	0	185	218	3
2026-02-11	16:24:13.610	-35.98	21.28	-84.14	0.765916	0.243756	0.041236	0.1125	0.597	-0.0045	0	184	214	3
2026-02-11	16:24:13.630	-31.955	18.2	-71.96	0.740052	0.24156	0.036356	0.114	0.585	0.0015	0	184	214	3
2026-02-11	16:24:13.650	-25.445	14.84	-59.325	0.739076	0.233752	0.043432	0.1155	0.5745	0.0015	0	184	214	3
2026-02-11	16:24:13.670	-18.06	11.165	-45.99	0.733952	0.230824	0.045872	0.1155	0.5685	-0.0015	0	184	214	3
2026-02-11	16:24:13.690	-11.375	6.58	-32.725	0.743712	0.231556	0.050996	0.12	0.564	-0.003	0	184	214	3
2026-02-11	16:24:13.710	-6.65	0.875	-19.705	0.761768	0.229604	0.062952	0.123	0.5595	0	0	184	214	3
2026-02-11	16:24:13.730	-4.34	-5.46	-5.67	0.821548	0.223992	0.077836	0.1215	0.552	0	0	184	214	3
2026-02-11	16:24:13.750	-0.805	-11.41	9.555	0.891576	0.213988	0.081496	0.1185	0.5535	0	0	184	214	3
2026-02-11	16:24:13.770	7.98	-18.025	31.15	0.989908	0.203252	0.07515199	0.12	0.5595	-0.0015	0	184	214	3
2026-02-11	16:24:13.790	18.725	-24.185	56.21	1.104832	0.211548	0.072224	0.123	0.564	-0.003	0	184	214	3
2026-02-11	16:24:13.810	26.32	-30.38	80.92	1.204628	0.225456	0.09076799	0.1155	0.567	0.0015	0	184	191	3
2026-02-11	16:24:13.830	32.445	-36.12	105.77	1.253184	0.277672	0.122976	0.117	0.585	0.012	0	184	191	3
2026-02-11	16:24:13.850	34.93	-37.87	125.265	1.155584	0.305488	0.181048	0.1125	0.597	0.0135	0	184	191	3
2026-02-11	16:24:13.870	32.725	-38.675	135.275	1.010892	0.324032	0.249612	0.111	0.603	0.015	0	184	191	3
2026-02-11	16:24:13.890	29.925	-38.78	134.365	0.908656	0.330376	0.300852	0.1155	0.6195	0.018	0	184	191	3
2026-02-11	16:24:13.910	25.41	-38.885	125.23	0.872544	0.302072	0.30988	0.117	0.642	0.0225	0	184	191	3
2026-02-11	16:24:13.930	17.92	-40.635	113.015	0.938424	0.241072	0.304512	0.1185	0.657	0.03	0	184	191	3
2026-02-11	16:24:13.950	13.475	-41.265	100.66	1.057984	0.211792	0.28182	0.114	0.669	0.036	0	184	191	3
2026-02-11	16:24:13.970	14.14	-39.165	89.95	1.170468	0.227652	0.243268	0.1155	0.687	0.042	0	184	191	3
2026-02-11	16:24:13.990	17.325	-30.52	80.115	1.211704	0.240584	0.241804	0.1245	0.6975	0.0465	0	184	191	3
2026-02-11	16:24:14.010	28.525	-19.11	72.38	1.172176	0.226432	0.23058	0.1245	0.6975	0.0465	0	184	174	3
2026-02-11	16:24:14.030	44.695	-10.185	66.92	1.083848	0.22326	0.232776	0.1335	0.723	0.0525	0	184	174	3
2026-02-11	16:24:14.050	59.745	-4.865	61.565	0.996008	0.236436	0.234728	0.1335	0.729	0.0585	0	184	174	3
2026-02-11	16:24:14.070	72.45	-2.415	55.51	0.915	0.26474	0.255956	0.1335	0.738	0.0555	0	184	174	3
2026-02-11	16:24:14.090	78.05	-2.24	49.385	0.860344	0.287676	0.26108	0.1365	0.741	0.051	0	184	174	3
2026-02-11	16:24:14.110	76.755	-3.22	44.31	0.836188	0.317932	0.257176	0.138	0.7485	0.048	0	184	174	3
2026-02-11	16:24:14.130	68.705	-4.305	40.565	0.824476	0.348432	0.246196	0.1365	0.7515	0.0495	0	184	174	3
2026-02-11	16:24:14.150	54.355	-5.565	38.64	0.828136	0.365756	0.2379	0.138	0.756	0.0465	0	184	174	3
2026-02-11	16:24:14.170	38.64	-6.93	38.29	0.854976	0.36722	0.244244	0.144	0.7635	0.0435	0	184	174	3
2026-02-11	16:24:14.190	23.87	-8.295	39.025	0.881328	0.354288	0.255956	0.147	0.765	0.0465	0	184	174	3
2026-02-11	16:24:14.210	9.38	-9.555	39.97	0.917928	0.328424	0.273768	0.1455	0.7635	0.048	0	183	179	3
2026-02-11	16:24:14.230	5.775	-9.905	39.13	0.933056	0.323544	0.287676	0.1485	0.7785	0.045	0	183	179	3
2026-02-11	16:24:14.250	5.95	-9.03	36.12	0.92964	0.318176	0.290604	0.1545	0.7785	0.0435	0	183	179	3
2026-02-11	16:24:14.270	9.8	-7.665	30.66	0.91866	0.313784	0.28426	0.162	0.7875	0.0435	0	183	179	3
2026-02-11	16:24:14.290	13.72	-7.28	24.115	0.931348	0.30866	0.284016	0.159	0.786	0.042	0	183	179	3
2026-02-11	16:24:14.310	13.335	-8.47	18.06	0.997472	0.326228	0.289384	0.1545	0.789	0.0435	0	183	179	3
2026-02-11	16:24:14.330	8.54	-9.03	13.09	1.079456	0.352824	0.30378	0.1575	0.7965	0.0435	0	183	179	3
2026-02-11	16:24:14.350	-0.245	-8.33	10.08	1.159976	0.364536	0.301828	0.159	0.798	0.039	0	183	179	3
2026-02-11	16:24:14.370	-7.63	-7.175	7.35	1.258552	0.34648	0.292312	0.1635	0.7935	0.042	0	183	179	3
2026-02-11	16:24:14.390	-11.9	-5.74	3.745	1.349564	0.343064	0.301096	0.174	0.795	0.0465	0	183	179	3
2026-02-11	16:24:14.410	-14.35	-0.84	-4.935	1.311988	0.33062	0.286212	0.1725	0.801	0.051	0	182	198	3
2026-02-11	16:24:14.430	-17.605	2.205	-15.365	1.219268	0.347212	0.276696	0.1695	0.804	0.054	0	182	198	3
2026-02-11	16:24:14.450	-27.895	4.76	-23.975	1.099708	0.381372	0.286212	0.168	0.804	0.051	0	182	198	3
2026-02-11	16:24:14.470	-41.44	9.415	-35	0.955016	0.391132	0.275476	0.156	0.8025	0.051	0	182	198	3
2026-02-11	16:24:14.490	-52.08	14.35	-47.95	0.87352	0.3599	0.2257	0.1545	0.798	0.051	0	182	198	3
2026-02-11	16:24:14.510	-57.26	17.605	-61.32	0.88328	0.347456	0.175436	0.159	0.7905	0.051	0	182	198	3
2026-02-11	16:24:14.530	-62.125	20.685	-73.185	0.950136	0.335988	0.152012	0.1635	0.7815	0.054	0	182	198	3
2026-02-11	16:24:14.550	-66.99	22.68	-83.895	1.063352	0.316468	0.176656	0.159	0.78	0.051	0	182	198	3
2026-02-11	16:24:14.570	-69.51	24.815	-91.595	1.178764	0.331108	0.213988	0.1575	0.78	0.054	0	182	198	3
2026-02-11	16:24:14.590	-70.035	29.61	-96.635	1.222684	0.327448	0.201788	0.153	0.768	0.0585	0	182	198	3
2026-02-11	16:24:14.610	-63.98	36.12	-101.115	1.199992	0.307196	0.164456	0.1455	0.7485	0.057	0	180	216	3
2026-02-11	16:24:14.630	-51.205	40.565	-104.72	1.136796	0.286456	0.12932	0.147	0.738	0.0585	0	180	216	3
2026-02-11	16:24:14.650	-37.59	42	-108.57	1.02602	0.277184	0.109556	0.129	0.7185	0.0585	0	180	216	3
2026-02-11	16:24:14.670	-29.05	40.53	-111.37	0.964532	0.288652	0.110044	0.129	0.711	0.0495	0	180	216	3
2026-02-11	16:24:14.690	-24.08	38.675	-113.4	0.92842	0.284016	0.118584	0.1245	0.6825	0.051	0	180	216	3
2026-02-11	16:24:14.710	-22.47	37.345	-113.47	0.895968	0.295728	0.102968	0.126	0.6825	0.0465	0	180	216	3
2026-02-11	16:24:14.730	-22.855	36.295	-112.245	0.85766	0.282308	0.082716	0.1245	0.6735	0.0405	0	180	216	3
2026-02-11	16:24:14.750	-23.625	34.72	-108.64	0.82716	0.279624	0.069784	0.1185	0.654	0.0375	0	180	216	3
2026-02-11	16:24:14.770	-23.24	33.04	-104.16	0.772016	0.26474	0.055388	0.114	0.6405	0.039	0	180	216	3
2026-02-11	16:24:14.790	-22.82	29.715	-97.475	0.7747	0.238388	0.050508	0.1095	0.6315	0.0375	0	180	216	3
2026-02-11	16:24:16.810	-10.36	-4.795	2.24	1.291004	0.371368	0.335256	0.1275	0.768	0.045	0	170	201	3
2026-02-11	16:24:16.830	-10.815	-0.875	-9.1	1.192916	0.342088	0.30378	0.1275	0.768	0.042	0	170	201	3
2026-02-11	16:24:16.850	-14.07	1.47	-21.28	1.113128	0.349408	0.296948	0.129	0.768	0.045	0	170	201	3
2026-02-11	16:24:16.870	-22.4	5.565	-34.09	1.017724	0.370148	0.30744	0.123	0.7665	0.045	0	170	201	3
2026-02-11	16:24:16.890	-30.345	11.585	-48.02	0.89914	0.350872	0.28426	0.1245	0.765	0.039	0	170	201	3
2026-02-11	16:24:16.910	-37.31	15.575	-61.355	0.85888	0.33184	0.250588	0.129	0.7545	0.039	0	170	201	3
2026-02-11	16:24:16.930	-43.54	17.71	-73.57	0.905972	0.327936	0.23058	0.12	0.7425	0.0405	0	170	201	3
2026-02-11	16:24:16.950	-50.575	19.705	-83.44	1.00772	0.337208	0.236436	0.1125	0.7365	0.0405	0	170	201	3
2026-02-11	16:24:16.970	-60.235	23.8	-92.26	1.131672	0.343796	0.259128	0.111	0.7305	0.039	0	170	201	3
2026-02-11	16:24:16.990	-66.115	30.765	-98.63	1.193404	0.327448	0.245708	0.111	0.7305	0.039	0	170	201	3
2026-02-11	16:24:15.010	21.98	-34.545	85.925	1.1529	0.233996	0.113216	0.1215	0.576	0.039	0	178	193	3
2026-02-11	16:24:15.030	23.835	-41.545	111.16	1.220732	0.269132	0.160552	0.117	0.582	0.045	0	178	193	3
2026-02-11	16:24:15.050	21.84	-45.15	135.03	1.164856	0.315736	0.23912	0.1155	0.5955	0.054	0	178	193	3
2026-02-11	16:24:15.070	17.115	-44.38	145.215	1.021384	0.324764	0.298168	0.114	0.603	0.0585	0	178	193	3
2026-02-11	16:24:15.090	17.185	-42.35	140.665	0.940132	0.315492	0.312076	0.108	0.639	0.0645	0	178	193	3
2026-02-11	16:24:15.110	15.925	-41.685	129.36	0.943792	0.274988	0.312076	0.1125	0.6495	0.0705	0	178	193	3
2026-02-11	16:24:15.130	14.07	-41.51	115.57	1.0248	0.2196	0.271816	0.117	0.669	0.075	0	178	193	3
2026-02-11	16:24:15.150	15.575	-40.67	101.395	1.164612	0.217404	0.26596	0.12	0.6855	0.0795	0	178	193	3
2026-02-11	16:24:15.170	15.96	-35.91	88.34	1.2139	0.228872	0.255712	0.129	0.7005	0.087	0	178	193	3
2026-02-11	16:24:15.190	21.14	-27.44	76.3	1.2261	0.242292	0.24522	0.129	0.717	0.093	0	178	193	3
2026-02-11	16:24:17.210	-30.73	24.15	-81.2	0.73688	0.2623	0.053924	0.114	0.552	-0.024	0	170	225	3
2026-02-11	16:24:17.230	-28	20.23	-70.455	0.747372	0.244244	0.057828	0.117	0.534	-0.0315	0	170	225	3
2026-02-11	16:24:17.250	-23.485	16.94	-58.73	0.73688	0.234728	0.056364	0.1215	0.5295	-0.0375	0	170	225	3
2026-02-11	16:24:17.270	-18.27	12.25	-45.955	0.742492	0.234728	0.062708	0.126	0.525	-0.045	0	170	225	3
2026-02-11	16:24:17.290	-12.25	7.63	-32.865	0.768112	0.233996	0.065636	0.129	0.519	-0.0495	0	170	225	3
2026-02-11	16:24:17.310	-6.51	2.415	-19.11	0.810812	0.229604	0.076128	0.1275	0.5115	-0.051	0	170	225	3
2026-02-11	16:24:17.330	-1.61	-3.185	-4.2	0.858636	0.230824	0.091988	0.135	0.51	-0.054	0	170	225	3
2026-02-11	16:24:17.350	3.64	-8.225	11.27	0.922076	0.221552	0.114192	0.1365	0.516	-0.0555	0	170	225	3
2026-02-11	16:24:17.370	10.605	-12.6	27.895	0.988444	0.227652	0.10858	0.129	0.5175	-0.054	0	170	225	3
2026-02-11	16:24:17.390	19.495	-16.765	45.22	1.050908	0.221064	0.095892	0.129	0.519	-0.0555	0	170	225	3
2026-02-11	16:24:15.410	10.85	-8.33	35.28	0.873276	0.31232	0.273524	0.15	0.7635	0.0795	0	178	185	3
2026-02-11	16:24:15.430	7.77	-9.135	35.56	0.900604	0.306952	0.282552	0.153	0.774	0.0825	0	178	185	3
2026-02-11	16:24:15.450	9.135	-8.925	33.985	0.92476	0.304512	0.2867	0.1545	0.7845	0.0825	0	178	185	3
2026-02-11	16:24:15.470	12.67	-7.875	30.73	0.93574	0.304024	0.281088	0.1545	0.786	0.0825	0	178	185	3
2026-02-11	16:24:15.490	15.365	-7.315	24.465	0.976244	0.314516	0.275476	0.156	0.7875	0.0855	0	178	185	3
2026-02-11	16:24:15.510	12.355	-8.155	20.685	1.050908	0.337452	0.28304	0.153	0.7875	0.078	0	178	185	3
2026-02-11	16:24:15.530	5.95	-8.995	18.025	1.136552	0.357704	0.303536	0.153	0.789	0.0795	0	178	185	3
2026-02-11	16:24:15.550	-3.115	-8.33	15.82	1.183644	0.358924	0.313784	0.1575	0.7935	0.0825	0	178	185	3
2026-02-11	16:24:15.570	-8.435	-7.07	12.145	1.23708	0.34038	0.302316	0.1635	0.792	0.087	0	178	185	3
2026-02-11	16:24:15.590	-9.8	-5.565	5.95	1.273192	0.3416	0.297436	0.1635	0.7905	0.09	0	178	185	3
2026-02-11	16:24:17.610	16.415	-28.105	74.9	1.25294	0.244732	0.272792	0.1095	0.6525	-0.0015	0	171	190	3
2026-02-11	16:24:17.630	36.295	-13.58	72.555	1.170956	0.243024	0.254004	0.1095	0.6525	-0.0015	0	171	190	3
2026-02-11	16:24:17.650	51.275	-7.315	70.07	1.07482	0.258884	0.263032	0.111	0.6675	0.0045	0	171	190	3
2026-02-11	16:24:17.670	63.07	-4.69	64.05	0.970388	0.265716	0.274988	0.1125	0.6855	0.0105	0	171	190	3
2026-02-11	16:24:17.690	70.07	-4.585	56	0.890112	0.284748	0.286456	0.1125	0.693	0.012	0	171	190	3
2026-02-11	16:24:17.710	70.21	-6.09	48.125	0.83448	0.313296	0.282064	0.1125	0.6975	0.009	0	171	190	3
2026-02-11	16:24:17.730	63.35	-8.05	41.3	0.807884	0.350384	0.261568	0.114	0.7035	0.003	0	171	190	3
2026-02-11	16:24:17.750	48.3	-10.15	36.435	0.812032	0.36722	0.2501	0.1155	0.7065	0	0	171	190	3
2026-02-11	16:24:17.770	30.1	-11.62	33.285	0.829844	0.365024	0.25498	0.114	0.708	0	0	171	190	3
2026-02-11	16:24:17.790	14.42	-12.25	31.745	0.86132	0.344772	0.266692	0.111	0.711	0.003	0	171	190	3
2026-02-11	16:24:17.810	5.425	-11.9	31.01	0.876692	0.31964	0.274744	0.1155	0.714	0	0	172	194	3
2026-02-11	16:24:17.830	3.115	-11.025	30.065	0.90036	0.297436	0.28548	0.1155	0.72	0.003	0	172	194	3
2026-02-11	16:24:17.850	7	-10.29	28.28	0.926712	0.295972	0.294752	0.12	0.726	0.006	0	172	194	3
2026-02-11	16:24:17.870	12.18	-9.205	25.165	0.933544	0.305732	0.304024	0.1215	0.7275	0.009	0	172	194	3
2026-02-11	16:24:17.890	15.33	-8.26	20.055	0.938912	0.317444	0.302804	0.117	0.729	0.0075	0	172	194	3
2026-02-11	16:24:17.910	14.63	-8.05	14.21	0.957212	0.32452	0.294752	0.1215	0.7335	0.006	0	172	194	3
2026-02-11	16:24:17.930	9.205	-8.995	9.03	1.008452	0.347456	0.296216	0.1215	0.735	0.0045	0	172	194	3
2026-02-11	16:24:17.950	0.035	-10.29	5.495	1.089948	0.357216	0.316468	0.1185	0.7365	0	0	172	194	3
2026-02-11	16:24:17.970	-10.92	-10.675	3.255	1.162904	0.351848	0.329888	0.1245	0.744	0.003	0	172	194	3
2026-02-11	16:24:17.990	-17.745	-10.08	1.225	1.240984	0.337452	0.328424	0.1275	0.747	0.0105	0	172	194	3
2026-02-11	16:24:18.010	-22.715	-8.33	-2.135	1.325164	0.323056	0.336964	0.1245	0.744	0.0105	0	172	213	3
2026-02-11	16:24:18.030	-22.155	-4.515	-6.265	1.284904	0.321836	0.317688	0.123	0.7455	0.015	0	172	213	3
2026-02-11	16:24:18.050	-22.61	0.91	-16.695	1.204872	0.337696	0.306952	0.117	0.75	0.021	0	172	213	3
2026-02-11	16:24:18.070	-29.715	4.27	-24.605	1.143628	0.36722	0.316468	0.117	0.744	0.0165	0	172	213	3
2026-02-11	16:24:18.090	-40.215	10.885	-34.685	1.011136	0.380396	0.310612	0.117	0.741	0.0105	0	172	213	3
2026-02-11	16:24:18.110	-47.355	18.235	-47.285	0.894748	0.353068	0.26718	0.1215	0.741	0.012	0	172	213	3
2026-02-11	16:24:18.130	-51.345	22.435	-61.04	0.883036	0.341844	0.21594	0.1215	0.7395	0.0135	0	172	213	3
2026-02-11	16:24:18.150	-52.99	25.095	-74.795	0.94916	0.3355	0.199104	0.111	0.732	0.0105	0	172	213	3
2026-02-11	16:24:18.170	-55.685	27.02	-86.345	1.057984	0.328424	0.214232	0.108	0.726	0.006	0	172	213	3
2026-02-11	16:24:18.190	-59.01	28.91	-94.955	1.144604	0.345504	0.230824	0.1095	0.717	0.0045	0	172	213	3
2026-02-11	16:24:18.210	-62.23	32.375	-99.855	1.19804	0.3538	0.237412	0.108	0.708	0.006	0	171	233	3
2026-02-11	16:24:18.230	-62.72	37.625	-102.76	1.186816	0.345016	0.206912	0.1035	0.7065	0.0045	0	171	233	3
2026-02-11	16:24:18.250	-59.045	41.965	-104.335	1.150948	0.32208	0.166652	0.1095	0.684	0.0045	0	171	233	3
2026-02-11	16:24:18.270	-47.285	45.605	-105.42	1.061888	0.291336	0.126636	0.1095	0.684	0.0045	0	171	233	3
2026-02-11	16:24:18.290	-37.45	45.605	-106.995	0.982832	0.294996	0.120292	0.102	0.6705	0	0	171	233	3
2026-02-11	16:24:18.310	-29.925	44.205	-108.045	0.921832	0.296948	0.107848	0.102	0.6465	-0.0075	0	171	233	3
2026-02-11	16:24:18.330	-26.635	41.405	-107.31	0.886208	0.30134	0.109556	0.1035	0.63	-0.0165	0	171	233	3
2026-02-11	16:24:18.350	-25.27	39.2	-106.4	0.837164	0.306708	0.103212	0.102	0.6225	-0.024	0	171	233	3
2026-02-11	16:24:18.370	-25.97	35.735	-102.2	0.805932	0.295972	0.09467199	0.105	0.606	-0.03	0	171	233	3
2026-02-11	16:24:18.390	-27.72	32.76	-97.51	0.798124	0.279868	0.084424	0.111	0.5895	-0.0375	0	171	233	3
2026-02-11	16:24:18.410	-27.72	30.555	-91.7	0.727608	0.280356	0.0671	0.1155	0.585	-0.036	0	170	236	2
2026-02-11	16:24:18.430	-27.475	26.81	-83.44	0.703452	0.257664	0.064904	0.108	0.5775	-0.0465	0	170	236	2
2026-02-11	16:24:18.450	-25.41	22.715	-74.305	0.690032	0.247416	0.060268	0.12	0.5655	-0.0555	0	170	236	2
2026-02-11	16:24:18.470	-20.755	16.73	-60.375	0.707112	0.239608	0.068564	0.12	0.5595	-0.0555	0	170	236	2
2026-02-11	16:24:18.490	-13.755	10.955	-45.36	0.71736	0.244976	0.076372	0.123	0.555	-0.0555	0	170	236	2
2026-02-11	16:24:18.510	-8.75	5.985	-32.2	0.742248	0.24522	0.081252	0.123	0.5415	-0.0585	0	170	236	2
2026-02-11	16:24:18.530	-3.99	0.42	-17.99	0.762256	0.23302	0.095892	0.12	0.5355	-0.0555	0	170	236	2
2026-02-11	16:24:18.550	1.26	-6.265	-2.205	0.822036	0.239608	0.111752	0.1215	0.5385	-0.051	0	170	236	2
2026-02-11	16:24:18.570	7.105	-11.9	13.755	0.883036	0.23058	0.134688	0.1155	0.534	-0.054	0	170	236	2
2026-02-11	16:24:18.590	13.405	-16.66	30.87	0.936716	0.23546	0.141276	0.111	0.534	-0.0585	0	170	236	2
2026-02-11	16:24:18.610	19.88	-21.56	49.42	1.004304	0.231312	0.135664	0.114	0.5415	-0.051	0	170	216	2
2026-02-11	16:24:18.630	26.04	-27.93	71.54	1.115568	0.227896	0.148352	0.1155	0.5445	-0.0465	0	170	216	2
2026-02-11	16:24:18.650	31.255	-34.58	97.055	1.229516	0.249368	0.17812	0.114	0.549	-0.045	0	170	216	2
2026-02-11	16:24:18.670	36.05	-39.06	121.555	1.27612	0.291092	0.217404	0.108	0.567	-0.042	0	170	216	2
2026-02-11	16:24:18.690	38.15	-38.01	143.99	1.085556	0.340624	0.28548	0.105	0.5715	-0.03	0	170	216	2
2026-02-11	16:24:18.710	36.75	-35.91	144.48	0.914024	0.335012	0.313052	0.1035	0.5865	-0.024	0	170	216	2
2026-02-11	16:24:18.730	34.51	-35.385	134.96	0.802272	0.305976	0.325496	0.102	0.6165	-0.0135	0	170	216	2
2026-02-11	16:24:18.750	27.405	-37.625	120.715	0.79544	0.26596	0.327448	0.105	0.6375	-0.009	0	170	216	2
2026-02-11	16:24:18.770	16.765	-40.32	106.365	0.886452	0.240584	0.303536	0.1065	0.651	-0.0045	0	170	216	2
2026-02-11	16:24:18.790	8.715	-40.635	94.395	1.04798	0.260104	0.276208	0.1065	0.669	0.0045	0	170	216	2
2026-02-11	16:24:16.810	-10.36	-4.795	2.24	1.291004	0.371368	0.335256	0.1275	0.768	0.045	0	170	201	3
2026-02-11	16:24:16.830	-10.815	-0.875	-9.1	1.192916	0.342088	0.30378	0.1275	0.768	0.042	0	170	201	3
2026-02-11	16:24:16.850	-14.07	1.47	-21.28	1.113128	0.349408	0.296948	0.129	0.768	0.045	0	170	201	3
2026-02-11	16:24:16.870	-22.4	5.565	-34.09	1.017724	0.370148	0.30744	0.123	0.7665	0.045	0	170	201	3
2026-02-11	16:24:16.890	-30.345	11.585	-48.02	0.89914	0.350872	0.28426	0.1245	0.765	0.039	0	170	201	3
2026-02-11	16:24:16.910	-37.31	15.575	-61.355	0.85888	0.33184	0.250588	0.129	0.7545	0.039	0	170	201	3
2026-02-11	16:24:16.930	-43.54	17.71	-73.57	0.905972	0.327936	0.23058	0.12	0.7425	0.0405	0	170	201	3
2026-02-11	16:24:16.950	-50.575	19.705	-83.44	1.00772	0.337208	0.236436	0.1125	0.7365	0.0405	0	170	201	3
2026-02-11	16:24:16.970	-60.235	23.8	-92.26	1.131672	0.343796	0.259128	0.111	0.7305	0.039	0	170	201	3
2026-02-11	16:24:16.990	-66.115	30.765	-98.63	1.193404	0.327448	0.245708	0.111	0.7305	0.039	0	170	201	3
2026-02-11	16:24:15.010	21.98	-34.545	85.925	1.1529	0.233996	0.113216	0.1215	0.576	0.039	0	178	193	3
2026-02-11	16:24:15.030	23.835	-41.545	111.16	1.220732	0.269132	0.160552	0.117	0.582	0.045	0	178	193	3
2026-02-11	16:24:15.050	21.84	-45.15	135.03	1.164856	0.315736	0.23912	0.1155	0.5955	0.054	0	178	193	3
2026-02-11	16:24:15.070	17.115	-44.38	145.215	1.021384	0.324764	0.298168	0.114	0.603	0.0585	0	178	193	3
2026-02-11	16:24:15.090	17.185	-42.35	140.665	0.940132	0.315492	0.312076	0.108	0.639	0.0645	0	178	193	3
2026-02-11	16:24:15.110	15.925	-41.685	129.36	0.943792	0.274988	0.312076	0.1125	0.6495	0.0705	0	178	193	3
2026-02-11	16:24:15.130	14.07	-41.51	115.57	1.0248	0.2196	0.271816	0.117	0.669	0.075	0	178	193	3
2026-02-11	16:24:15.150	15.575	-40.67	101.395	1.164612	0.217404	0.26596	0.12	0.6855	0.0795	0	178	193	3
2026-02-11	16:24:15.170	15.96	-35.91	88.34	1.2139	0.228872	0.255712	0.129	0.7005	0.087	0	178	193	3
2026-02-11	16:24:15.190	21.14	-27.44	76.3	1.2261	0.242292	0.24522	0.129	0.717	0.093	0	178	193	3
2026-02-11	16:24:17.210	-30.73	24.15	-81.2	0.73688	0.2623	0.053924	0.114	0.552	-0.024	0	170	225	3
2026-02-11	16:24:17.230	-28	20.23	-70.455	0.747372	0.244244	0.057828	0.117	0.534	-0.0315	0	170	225	3
2026-02-11	16:24:17.250	-23.485	16.94	-58.73	0.73688	0.234728	0.056364	0.1215	0.5295	-0.0375	0	170	225	3
2026-02-11	16:24:17.270	-18.27	12.25	-45.955	0.742492	0.234728	0.062708	0.126	0.525	-0.045	0	170	225	3
2026-02-11	16:24:17.290	-12.25	7.63	-32.865	0.768112	0.233996	0.065636	0.129	0.519	-0.0495	0	170	225	3
2026-02-11	16:24:17.310	-6.51	2.415	-19.11	0.810812	0.229604	0.076128	0.1275	0.5115	-0.051	0	170	225	3
2026-02-11	16:24:17.330	-1.61	-3.185	-4.2	0.858636	0.230824	0.091988	0.135	0.51	-0.054	0	170	225	3
2026-02-11	16:24:17.350	3.64	-8.225	11.27	0.922076	0.221552	0.114192	0.1365	0.516	-0.0555	0	170	225	3
2026-02-11	16:24:17.370	10.605	-12.6	27.895	0.988444	0.227652	0.10858	0.129	0.5175	-0.054	0	170	225	3
2026-02-11	16:24:17.390	19.495	-16.765	45.22	1.050908	0.221064	0.095892	0.129	0.519	-0.0555	0	170	225	3
2026-02-11	16:24:15.410	10.85	-8.33	35.28	0.873276	0.31232	0.273524	0.15	0.7635	0.0795	0	178	185	3
2026-02-11	16:24:15.430	7.77	-9.135	35.56	0.900604	0.306952	0.282552	0.153	0.774	0.0825	0	178	185	3
2026-02-11	16:24:15.450	9.135	-8.925	33.985	0.92476	0.304512	0.2867	0.1545	0.7845	0.0825	0	178	185	3
2026-02-11	16:24:15.470	12.67	-7.875	30.73	0.93574	0.304024	0.281088	0.1545	0.786	0.0825	0	178	185	3
2026-02-11	16:24:15.490	15.365	-7.315	24.465	0.976244	0.314516	0.275476	0.156	0.7875	0.0855	0	178	185	3
2026-02-11	16:24:15.510	12.355	-8.155	20.685	1.050908	0.337452	0.28304	0.153	0.7875	0.078	0	178	185	3
2026-02-11	16:24:15.530	5.95	-8.995	18.025	1.136552	0.357704	0.303536	0.153	0.789	0.0795	0	178	185	3
2026-02-11	16:24:15.550	-3.115	-8.33	15.82	1.183644	0.358924	0.313784	0.1575	0.7935	0.0825	0	178	185	3
2026-02-11	16:24:15.570	-8.435	-7.07	12.145	1.23708	0.34038	0.302316	0.1635	0.792	0.087	0	178	185	3
2026-02-11	16:24:15.590	-9.8	-5.565	5.95	1.273192	0.3416	0.297436	0.1635	0.7905	0.09	0	178	185	3
2026-02-11	16:24:17.610	16.415	-28.105	74.9	1.25294	0.244732	0.272792	0.1095	0.6525	-0.0015	0	171	190	3
2026-02-11	16:24:17.630	36.295	-13.58	72.555	1.170956	0.243024	0.254004	0.1095	0.6525	-0.0015	0	171	190	3
2026-02-11	16:24:17.650	51.275	-7.315	70.07	1.07482	0.258884	0.263032	0.111	0.6675	0.0045	0	171	190	3
2026-02-11	16:24:17.670	63.07	-4.69	64.05	0.970388	0.265716	0.274988	0.1125	0.6855	0.0105	0	171	190	3
2026-02-11	16:24:17.690	70.07	-4.585	56	0.890112	0.284748	0.286456	0.1125	0.693	0.012	0	171	190	3
2026-02-11	16:24:17.710	70.21	-6.09	48.125	0.83448	0.313296	0.282064	0.1125	0.6975	0.009	0	171	190	3
2026-02-11	16:24:17.730	63.35	-8.05	41.3	0.807884	0.350384	0.261568	0.114	0.7035	0.003	0	171	190	3
2026-02-11	16:24:17.750	48.3	-10.15	36.435	0.812032	0.36722	0.2501	0.1155	0.7065	0	0	171	190	3
2026-02-11	16:24:17.770	30.1	-11.62	33.285	0.829844	0.365024	0.25498	0.114	0.708	0	0	171	190	3
2026-02-11	16:24:17.790	14.42	-12.25	31.745	0.86132	0.344772	0.266692	0.111	0.711	0.003	0	171	190	3
2026-02-11	16:24:17.810	5.425	-11.9	31.01	0.876692	0.31964	0.274744	0.1155	0.714	0	0	172	194	3
2026-02-11	16:24:17.830	3.115	-11.025	30.065	0.90036	0.297436	0.28548	0.1155	0.72	0.003	0	172	194	3
2026-02-11	16:24:17.850	7	-10.29	28.28	0.926712	0.295972	0.294752	0.12	0.726	0.006	0	172	194	3
2026-02-11	16:24:17.870	12.18	-9.205	25.165	0.933544	0.305732	0.304024	0.1215	0.7275	0.009	0	172	194	3
2026-02-11	16:24:17.890	15.33	-8.26	20.055	0.938912	0.317444	0.302804	0.117	0.729	0.0075	0	172	194	3
2026-02-11	16:24:17.910	14.63	-8.05	14.21	0.957212	0.32452	0.294752	0.1215	0.7335	0.006	0	172	194	3
2026-02-11	16:24:17.930	9.205	-8.995	9.03	1.008452	0.347456	0.296216	0.1215	0.735	0.0045	0	172	194	3
2026-02-11	16:24:17.950	0.035	-10.29	5.495	1.089948	0.357216	0.316468	0.1185	0.7365	0	0	172	194	3
2026-02-11	16:24:17.970	-10.92	-10.675	3.255	1.162904	0.351848	0.329888	0.1245	0.744	0.003	0	172	194	3
2026-02-11	16:24:17.990	-17.745	-10.08	1.225	1.240984	0.337452	0.328424	0.1275	0.747	0.0105	0	172	194	3
2026-02-11	16:24:18.010	-22.715	-8.33	-2.135	1.325164	0.323056	0.336964	0.1245	0.744	0.0105	0	172	213	3
2026-02-11	16:24:18.030	-22.155	-4.515	-6.265	1.284904	0.321836	0.317688	0.123	0.7455	0.015	0	172	213	3
2026-02-11	16:24:18.050	-22.61	0.91	-16.695	1.204872	0.337696	0.306952	0.117	0.75	0.021	0	172	213	3
2026-02-11	16:24:18.070	-29.715	4.27	-24.605	1.143628	0.36722	0.316468	0.117	0.744	0.0165	0	172	213	3
2026-02-11	16:24:18.090	-40.215	10.885	-34.685	1.011136	0.380396	0.310612	0.117	0.741	0.0105	0	172	213	3
2026-02-11	16:24:18.110	-47.355	18.235	-47.285	0.894748	0.353068	0.26718	0.1215	0.741	0.012	0	172	213	3
2026-02-11	16:24:18.130	-51.345	22.435	-61.04	0.883036	0.341844	0.21594	0.1215	0.7395	0.0135	0	172	213	3
2026-02-11	16:24:18.150	-52.99	25.095	-74.795	0.94916	0.3355	0.199104	0.111	0.732	0.0105	0	172	213	3
2026-02-11	16:24:18.170	-55.685	27.02	-86.345	1.057984	0.328424	0.214232	0.108	0.726	0.006	0	172	213	3
2026-02-11	16:24:18.190	-59.01	28.91	-94.955	1.144604	0.345504	0.230824	0.1095	0.717	0.0045	0	172	213	3
2026-02-11	16:24:18.210	-62.23	32.375	-99.855	1.19804	0.3538	0.237412	0.108	0.708	0.006	0	171	233	3
2026-02-11	16:24:18.230	-62.72	37.625	-102.76	1.186816	0.345016	0.206912	0.1035	0.7065	0.0045	0	171	233	3
2026-02-11	16:24:18.250	-59.045	41.965	-104.335	1.150948	0.32208	0.166652	0.1095	0.684	0.0045	0	171	233	3
2026-02-11	16:24:18.270	-47.285	45.605	-105.42	1.061888	0.291336	0.126636	0.1095	0.684	0.0045	0	171	233	3
2026-02-11	16:24:18.290	-37.45	45.605	-106.995	0.982832	0.294996	0.120292	0.102	0.6705	0	0	171	233	3
2026-02-11	16:24:18.310	-29.925	44.205	-108.045	0.921832	0.296948	0.107848	0.102	0.6465	-0.0075	0	171	233	3
2026-02-11	16:24:18.330	-26.635	41.405	-107.31	0.886208	0.30134	0.109556	0.1035	0.63	-0.0165	0	171	233	3
2026-02-11	16:24:18.350	-25.27	39.2	-106.4	0.837164	0.306708	0.103212	0.102	0.6225	-0.024	0	171	233	3
2026-02-11	16:24:18.370	-25.97	35.735	-102.2	0.805932	0.295972	0.09467199	0.105	0.606	-0.03	0	171	233	3
2026-02-11	16:24:18.390	-27.72	32.76	-97.51	0.798124	0.279868	0.084424	0.111	0.5895	-0.0375	0	171	233	3
2026-02-11	16:24:18.410	-27.72	30.555	-91.7	0.727608	0.280356	0.0671	0.1155	0.585	-0.036	0	170	236	2
2026-02-11	16:24:18.430	-27.475	26.81	-83.44	0.703452	0.257664	0.064904	0.108	0.5775	-0.0465	0	170	236	2
2026-02-11	16:24:18.450	-25.41	22.715	-74.305	0.690032	0.247416	0.060268	0.12	0.5655	-0.0555	0	170	236	2
2026-02-11	16:24:18.470	-20.755	16.73	-60.375	0.707112	0.239608	0.068564	0.12	0.5595	-0.0555	0	170	236	2
2026-02-11	16:24:18.490	-13.755	10.955	-45.36	0.71736	0.244976	0.076372	0.123	0.555	-0.0555	0	170	236	2
2026-02-11	16:24:18.510	-8.75	5.985	-32.2	0.742248	0.24522	0.081252	0.123	0.5415	-0.0585	0	170	236	2
2026-02-11	16:24:18.530	-3.99	0.42	-17.99	0.762256	0.23302	0.095892	0.12	0.5355	-0.0555	0	170	236	2
2026-02-11	16:24:18.550	1.26	-6.265	-2.205	0.822036	0.239608	0.111752	0.1215	0.5385	-0.051	0	170	236	2
2026-02-11	16:24:18.570	7.105	-11.9	13.755	0.883036	0.23058	0.134688	0.1155	0.534	-0.054	0	170	236	2
2026-02-11	16:24:18.590	13.405	-16.66	30.87	0.936716	0.23546	0.141276	0.111	0.534	-0.0585	0	170	236	2
2026-02-11	16:24:18.610	19.88	-21.56	49.42	1.004304	0.231312	0.135664	0.114	0.5415	-0.051	0	170	216	2
2026-02-11	16:24:18.630	26.04	-27.93	71.54	1.115568	0.227896	0.148352	0.1155	0.5445	-0.0465	0	170	216	2
2026-02-11	16:24:18.650	31.255	-34.58	97.055	1.229516	0.249368	0.17812	0.114	0.549	-0.045	0	170	216	2
2026-02-11	16:24:18.670	36.05	-39.06	121.555	1.27612	0.291092	0.217404	0.108	0.567	-0.042	0	170	216	2
2026-02-11	16:24:18.690	38.15	-38.01	143.99	1.085556	0.340624	0.28548	0.105	0.5715	-0.03	0	170	216	2
2026-02-11	16:24:18.710	36.75	-35.91	144.48	0.914024	0.335012	0.313052	0.1035	0.5865	-0.024	0	170	216	2
2026-02-11	16:24:18.730	34.51	-35.385	134.96	0.802272	0.305976	0.325496	0.102	0.6165	-0.0135	0	170	216	2
2026-02-11	16:24:18.750	27.405	-37.625	120.715	0.79544	0.26596	0.327448	0.105	0.6375	-0.009	0	170	216	2
2026-02-11	16:24:18.770	16.765	-40.32	106.365	0.886452	0.240584	0.303536	0.1065	0.651	-0.0045	0	170	216	2
2026-02-11	16:24:18.790	8.715	-40.635	94.395	1.04798	0.260104	0.276208	0.1065	0.669	0.0045	0	170	216	2
2026-02-11	16:24:18.810	3.185	-37.45	86.555	1.177544	0.258152	0.27084	0.105	0.681	0.009	0	171	201	3
2026-02-11	16:24:18.830	2.415	-29.505	82.53	1.234396	0.255224	0.26718	0.1035	0.6855	0.0075	0	171	201	3
2026-02-11	16:24:18.850	12.425	-19.11	79.87	1.222928	0.243756	0.251076	0.102	0.696	0.012	0	171	201	3
2026-02-11	16:24:18.870	29.015	-10.395	77.945	1.165832	0.237412	0.255712	0.1035	0.6975	0.0195	0	171	201	3
2026-02-11	16:24:18.890	48.545	-5.32	74.48	1.058716	0.257664	0.27328	0.1065	0.723	0.0105	0	171	201	3
2026-02-11	16:24:18.910	64.365	-2.8	62.51	0.9394	0.291336	0.287676	0.1065	0.723	0.0105	0	171	201	3
2026-02-11	16:24:18.930	66.535	-4.41	53.97	0.882792	0.3233	0.284748	0.1155	0.732	0.0135	0	171	201	3
2026-02-11	16:24:18.950	58.905	-6.93	46.165	0.842044	0.364536	0.275964	0.1215	0.744	0.0105	0	171	201	3
2026-02-11	16:24:18.970	42	-9.52	40.11	0.826184	0.395036	0.267912	0.1215	0.75	0.0075	0	171	201	3
2026-02-11	16:24:18.990	19.18	-11.655	35.665	0.819108	0.398208	0.274256	0.1245	0.756	0.0075	0	171	201	3
2026-02-11	16:24:19.010	-2.205	-12.74	32.795	0.831796	0.386252	0.28182	0.123	0.7575	0.0105	0	173	205	3
2026-02-11	16:24:19.030	-17.22	-12.565	30.52	0.84546	0.349408	0.292068	0.12	0.7545	0.015	0	173	205	3
2026-02-11	16:24:19.050	-25.375	-11.585	28.385	0.860588	0.331352	0.29768	0.1335	0.7605	0.012	0	173	205	3
2026-02-11	16:24:19.070	-27.895	-10.22	25.725	0.874252	0.314272	0.302804	0.129	0.7635	0.021	0	173	205	3
2026-02-11	16:24:19.090	-24.64	-8.19	22.4	0.88572	0.308416	0.313052	0.144	0.768	0.015	0	173	205	3
2026-02-11	16:24:19.110	-16.17	-5.18	16.205	0.894748	0.316224	0.317932	0.132	0.7755	0.0225	0	173	205	3
2026-02-11	16:24:19.130	-9.975	-2.66	8.54	0.919148	0.337208	0.311832	0.1305	0.7755	0.0225	0	173	205	3
2026-02-11	16:24:19.150	-9.94	-1.505	1.96	0.97112	0.355508	0.303292	0.132	0.777	0.0225	0	173	205	3
2026-02-11	16:24:19.170	-14.63	-1.085	-4.445	1.061156	0.37576	0.290848	0.135	0.7815	0.0225	0	173	205	3
2026-02-11	16:24:19.190	-23.17	-0.245	-10.36	1.154364	0.382836	0.288408	0.138	0.7845	0.027	0	173	205	3
2026-02-11	16:24:19.210	-30.52	0.805	-16.52	1.20658	0.350628	0.262788	0.1335	0.7815	0.0315	0	174	222	3
2026-02-11	16:24:19.230	-32.935	-0.63	-22.505	1.302472	0.33672	0.250344	0.126	0.777	0.0315	0	174	222	3
2026-02-11	16:24:19.250	-36.89	-2.17	-27.685	1.373232	0.359656	0.277428	0.129	0.7875	0.0285	0	174	222	3
2026-02-11	16:24:19.270	-42.385	0.245	-33.32	1.3298	0.345016	0.28914	0.126	0.78	0.0225	0	174	222	3
2026-02-11	16:24:19.290	-48.02	2.17	-39.69	1.281732	0.3538	0.292556	0.132	0.78	0.0315	0	174	222	3
2026-02-11	16:24:19.310	-56.42	5.88	-45.955	1.196088	0.374784	0.299144	0.129	0.7755	0.042	0	174	222	3
2026-02-11	16:24:19.330	-68.775	17.22	-61.67	0.905972	0.337208	0.214476	0.129	0.7635	0.0405	0	174	222	3
2026-02-11	16:24:19.350	-73.5	20.79	-72.8	0.821304	0.297192	0.1464	0.1245	0.759	0.042	0	174	222	3
2026-02-11	16:24:19.370	-76.615	21.14	-82.67	0.842776	0.271572	0.111996	0.1185	0.753	0.0435	0	174	222	3
2026-02-11	16:24:19.390	-75.985	19.67	-89.18	0.940376	0.232044	0.122976	0.111	0.747	0.0435	0	174	222	3
2026-02-11	16:24:15.410	10.85	-8.33	35.28	0.873276	0.31232	0.273524	0.15	0.7635	0.0795	0	178	185	3
2026-02-11	16:24:15.430	7.77	-9.135	35.56	0.900604	0.306952	0.282552	0.153	0.774	0.0825	0	178	185	3
2026-02-11	16:24:15.450	9.135	-8.925	33.985	0.92476	0.304512	0.2867	0.1545	0.7845	0.0825	0	178	185	3
2026-02-11	16:24:15.470	12.67	-7.875	30.73	0.93574	0.304024	0.281088	0.1545	0.786	0.0825	0	178	185	3
2026-02-11	16:24:15.490	15.365	-7.315	24.465	0.976244	0.314516	0.275476	0.156	0.7875	0.0855	0	178	185	3
2026-02-11	16:24:15.510	12.355	-8.155	20.685	1.050908	0.337452	0.28304	0.153	0.7875	0.078	0	178	185	3
2026-02-11	16:24:15.530	5.95	-8.995	18.025	1.136552	0.357704	0.303536	0.153	0.789	0.0795	0	178	185	3
2026-02-11	16:24:15.550	-3.115	-8.33	15.82	1.183644	0.358924	0.313784	0.1575	0.7935	0.0825	0	178	185	3
2026-02-11	16:24:15.570	-8.435	-7.07	12.145	1.23708	0.34038	0.302316	0.1635	0.792	0.087	0	178	185	3
2026-02-11	16:24:15.590	-9.8	-5.565	5.95	1.273192	0.3416	0.297436	0.1635	0.7905	0.09	0	178	185	3
2026-02-11	16:24:17.610	16.415	-28.105	74.9	1.25294	0.244732	0.272792	0.1095	0.6525	-0.0015	0	171	190	3
2026-02-11	16:24:17.630	36.295	-13.58	72.555	1.170956	0.243024	0.254004	0.1095	0.6525	-0.0015	0	171	190	3
2026-02-11	16:24:17.650	51.275	-7.315	70.07	1.07482	0.258884	0.263032	0.111	0.6675	0.0045	0	171	190	3
2026-02-11	16:24:17.670	63.07	-4.69	64.05	0.970388	0.265716	0.274988	0.1125	0.6855	0.0105	0	171	190	3
2026-02-11	16:24:17.690	70.07	-4.585	56	0.890112	0.284748	0.286456	0.1125	0.693	0.012	0	171	190	3
2026-02-11	16:24:17.710	70.21	-6.09	48.125	0.83448	0.313296	0.282064	0.1125	0.6975	0.009	0	171	190	3
2026-02-11	16:24:17.730	63.35	-8.05	41.3	0.807884	0.350384	0.261568	0.114	0.7035	0.003	0	171	190	3
2026-02-11	16:24:17.750	48.3	-10.15	36.435	0.812032	0.36722	0.2501	0.1155	0.7065	0	0	171	190	3
2026-02-11	16:24:17.770	30.1	-11.62	33.285	0.829844	0.365024	0.25498	0.114	0.708	0	0	171	190	3
2026-02-11	16:24:17.790	14.42	-12.25	31.745	0.86132	0.344772	0.266692	0.111	0.711	0.003	0	171	190	3
2026-02-11	16:24:17.810	5.425	-11.9	31.01	0.876692	0.31964	0.274744	0.1155	0.714	0	0	172	194	3
2026-02-11	16:24:17.830	3.115	-11.025	30.065	0.90036	0.297436	0.28548	0.1155	0.72	0.003	0	172	194	3
2026-02-11	16:24:17.850	7	-10.29	28.28	0.926712	0.295972	0.294752	0.12	0.726	0.006	0	172	194	3
2026-02-11	16:24:17.870	12.18	-9.205	25.165	0.933544	0.305732	0.304024	0.1215	0.7275	0.009	0	172	194	3
2026-02-11	16:24:17.890	15.33	-8.26	20.055	0.938912	0.317444	0.302804	0.117	0.729	0.0075	0	172	194	3
2026-02-11	16:24:17.910	14.63	-8.05	14.21	0.957212	0.32452	0.294752	0.1215	0.7335	0.006	0	172	194	3
2026-02-11	16:24:17.930	9.205	-8.995	9.03	1.008452	0.347456	0.296216	0.1215	0.735	0.0045	0	172	194	3
2026-02-11	16:24:17.950	0.035	-10.29	5.495	1.089948	0.357216	0.316468	0.1185	0.7365	0	0	172	194	3
2026-02-11	16:24:17.970	-10.92	-10.675	3.255	1.162904	0.351848	0.329888	0.1245	0.744	0.003	0	172	194	3
2026-02-11	16:24:17.990	-17.745	-10.08	1.225	1.240984	0.337452	0.328424	0.1275	0.747	0.0105	0	172	194	3
2026-02-11	16:24:18.010	-22.715	-8.33	-2.135	1.325164	0.323056	0.336964	0.1245	0.744	0.0105	0	172	213	3
2026-02-11	16:24:18.030	-22.155	-4.515	-6.265	1.284904	0.321836	0.317688	0.123	0.7455	0.015	0	172	213	3
2026-02-11	16:24:18.050	-22.61	0.91	-16.695	1.204872	0.337696	0.306952	0.117	0.75	0.021	0	172	213	3
2026-02-11	16:24:18.070	-29.715	4.27	-24.605	1.143628	0.36722	0.316468	0.117	0.744	0.0165	0	172	213	3
2026-02-11	16:24:18.090	-40.215	10.885	-34.685	1.011136	0.380396	0.310612	0.117	0.741	0.0105	0	172	213	3
2026-02-11	16:24:18.110	-47.355	18.235	-47.285	0.894748	0.353068	0.26718	0.1215	0.741	0.012	0	172	213	3
2026-02-11	16:24:18.130	-51.345	22.435	-61.04	0.883036	0.341844	0.21594	0.1215	0.7395	0.0135	0	172	213	3
2026-02-11	16:24:18.150	-52.99	25.095	-74.795	0.94916	0.3355	0.199104	0.111	0.732	0.0105	0	172	213	3
2026-02-11	16:24:18.170	-55.685	27.02	-86.345	1.057984	0.328424	0.214232	0.108	0.726	0.006	0	172	213	3
2026-02-11	16:24:18.190	-59.01	28.91	-94.955	1.144604	0.345504	0.230824	0.1095	0.717	0.0045	0	172	213	3
2026-02-11	16:24:22.210	-26.565	4.83	-40.04	0.8662	0.2135	0.127368	0.294	0.3315	-0.0915	0	203	105	2
2026-02-11	16:24:22.230	-20.615	6.685	-28.035	0.894992	0.201788	0.11346	0.306	0.3315	-0.0915	0	203	105	2
2026-02-11	16:24:22.250	-15.12	7.105	-14.35	0.953308	0.18666	0.09516	0.3015	0.3195	-0.0975	0	203	105	2
2026-02-11	16:24:22.270	-8.085	8.68	0.035	1.005524	0.190808	0.053436	0.312	0.3225	-0.0915	0	203	105	2
2026-02-11	16:24:22.290	5.005	9.485	14.98	1.059204	0.182268	-0.037576	0.3105	0.3255	-0.096	0	203	105	2
2026-02-11	16:24:22.310	28.315	6.58	35.49	1.187792	0.16348	-0.131028	0.312	0.318	-0.09	0	203	105	2
2026-02-11	16:24:22.330	50.75	-1.12	60.095	1.306132	0.163968	-0.141276	0.303	0.324	-0.1035	0	203	105	2
2026-02-11	16:24:22.350	61.18	-8.75	81.2	1.32736	0.243756	-0.081984	0.303	0.3255	-0.0915	0	203	105	2
2026-02-11	16:24:22.370	57.33	-12.635	99.47	1.243668	0.289628	0	0.2925	0.312	-0.0825	0	203	105	2
2026-02-11	16:24:22.390	45.71	-14.49	112	1.104832	0.344284	0.07905599	0.2775	0.3225	-0.0795	0	203	105	2
2026-02-11	16:24:18.410	-27.72	30.555	-91.7	0.727608	0.280356	0.0671	0.1155	0.585	-0.036	0	170	236	2
2026-02-11	16:24:18.430	-27.475	26.81	-83.44	0.703452	0.257664	0.064904	0.108	0.5775	-0.0465	0	170	236	2
2026-02-11	16:24:18.450	-25.41	22.715	-74.305	0.690032	0.247416	0.060268	0.12	0.5655	-0.0555	0	170	236	2
2026-02-11	16:24:18.470	-20.755	16.73	-60.375	0.707112	0.239608	0.068564	0.12	0.5595	-0.0555	0	170	236	2
2026-02-11	16:24:18.490	-13.755	10.955	-45.36	0.71736	0.244976	0.076372	0.123	0.555	-0.0555	0	170	236	2
2026-02-11	16:24:18.510	-8.75	5.985	-32.2	0.742248	0.24522	0.081252	0.123	0.5415	-0.0585	0	170	236	2
2026-02-11	16:24:18.530	-3.99	0.42	-17.99	0.762256	0.23302	0.095892	0.12	0.5355	-0.0555	0	170	236	2
2026-02-11	16:24:18.550	1.26	-6.265	-2.205	0.822036	0.239608	0.111752	0.1215	0.5385	-0.051	0	170	236	2
2026-02-11	16:24:18.570	7.105	-11.9	13.755	0.883036	0.23058	0.134688	0.1155	0.534	-0.054	0	170	236	2
2026-02-11	16:24:18.590	13.405	-16.66	30.87	0.936716	0.23546	0.141276	0.111	0.534	-0.0585	0	170	236	2
2026-02-11	16:24:22.610	84.245	-5.04	73.15	0.904996	0.337208	0.2501	0.165	0.4005	-0.0165	0	202	89	3
2026-02-11	16:24:22.630	70.98	-6.3	65.345	0.853756	0.356484	0.256444	0.162	0.411	-0.0075	0	202	89	3
2026-02-11	16:24:22.650	53.165	-6.895	57.61	0.833504	0.354776	0.250588	0.1605	0.42	-0.003	0	202	89	3
2026-02-11	16:24:22.670	34.79	-6.79	49.84	0.81496	0.355752	0.230336	0.1545	0.414	0	0	202	89	3
2026-02-11	16:24:22.690	19.005	-6.265	42.735	0.822768	0.3355	0.217648	0.1485	0.423	-0.0015	0	202	89	3
2026-02-11	16:24:22.710	10.325	-5.215	36.47	0.837896	0.316468	0.196176	0.144	0.4275	0.003	0	202	89	3
2026-02-11	16:24:22.730	6.3	-4.34	31.045	0.864248	0.2989	0.196664	0.129	0.438	0	0	202	89	3
2026-02-11	16:24:22.750	8.085	-2.695	23.695	0.889136	0.283772	0.210084	0.1365	0.435	0.012	0	202	89	3
2026-02-11	16:24:22.770	12.04	-2.415	19.425	0.902068	0.289384	0.220088	0.1275	0.438	0.015	0	202	89	3
2026-02-11	16:24:22.790	14.35	-2.905	15.47	0.916952	0.295972	0.234484	0.135	0.4425	0.0165	0	202	89	3
2026-02-11	16:24:22.810	14.805	-3.78	11.095	0.932568	0.30256	0.243756	0.1365	0.441	0.015	0	201	107	3
2026-02-11	16:24:22.830	13.755	-5.145	6.615	0.955748	0.31476	0.24522	0.132	0.444	0.0135	0	201	107	3
2026-02-11	16:24:22.850	9.87	-7.525	2.835	1.02724	0.32696	0.236924	0.132	0.4395	0.018	0	201	107	3
2026-02-11	16:24:22.870	3.71	-9.31	0.525	1.08946	0.343308	0.251564	0.1275	0.4365	0.0105	0	201	107	3
2026-02-11	16:24:22.890	-4.445	-10.99	-0.035	1.184132	0.346724	0.267912	0.123	0.4455	0.015	0	201	107	3
2026-02-11	16:24:22.910	-10.22	-12.005	0	1.32248	0.350872	0.288408	0.135	0.4425	0.0195	0	201	107	3
2026-02-11	16:24:22.930	-16.555	-10.78	-1.295	1.42984	0.364292	0.299388	0.1215	0.4515	0.018	0	201	107	3
2026-02-11	16:24:22.950	-20.65	-3.36	-9.135	1.3481	0.353312	0.275964	0.1275	0.447	0.0225	0	201	107	3
2026-02-11	16:24:22.970	-23.66	1.015	-20.44	1.240252	0.35502	0.260592	0.1275	0.447	0.0225	0	201	107	3
2026-02-11	16:24:22.990	-32.9	5.215	-32.165	1.120936	0.352824	0.27084	0.1245	0.438	0.015	0	201	107	3
2026-02-11	16:24:23.010	-42.91	11.83	-47.985	0.948428	0.35624	0.247416	0.1395	0.447	0.021	0	198	137	3
2026-02-11	16:24:23.030	-49.945	14.175	-62.405	0.888404	0.306708	0.193004	0.132	0.4335	0.0105	0	198	137	3
2026-02-11	16:24:23.050	-54.775	15.995	-75.32	0.913048	0.302072	0.14884	0.1395	0.42	-0.0015	0	198	137	3
2026-02-11	16:24:23.070	-60.515	17.745	-87.185	0.9943	0.299876	0.141032	0.1485	0.4155	0	0	198	137	3
2026-02-11	16:24:23.090	-68.145	19.88	-96.775	1.087752	0.290116	0.169336	0.153	0.4125	-0.015	0	198	137	3
2026-02-11	16:24:23.110	-76.615	22.085	-102.865	1.210972	0.290116	0.199348	0.1635	0.3915	-0.021	0	198	137	3
2026-02-11	16:24:23.130	-81.445	27.93	-107.1	1.23952	0.272792	0.192272	0.174	0.3825	-0.0315	0	198	137	3
2026-02-11	16:24:23.150	-76.475	34.44	-112.105	1.219268	0.227896	0.159576	0.1905	0.3795	-0.039	0	198	137	3
2026-02-11	16:24:23.170	-60.165	40.6	-116.865	1.112884	0.18666	0.101748	0.1905	0.3795	-0.039	0	198	137	3
2026-02-11	16:24:23.190	-39.76	41.405	-121.38	1.031388	0.181048	0.086376	0.1905	0.3795	-0.039	0	198	137	3
2026-02-11	16:24:23.210	-26.39	40.32	-124.88	0.945988	0.182024	0.076616	0.228	0.3525	-0.072	0	196	161	3
2026-02-11	16:24:23.230	-17.955	37.94	-126.105	0.89426	0.190564	0.0671	0.24	0.348	-0.0915	0	196	161	3
2026-02-11	16:24:23.250	-13.3	34.405	-123.725	0.85156	0.199592	0.066368	0.2565	0.339	-0.087	0	196	161	3
2026-02-11	16:24:23.270	-14.14	30.03	-118.72	0.839116	0.215696	0.070516	0.2625	0.324	-0.096	0	196	161	3
2026-02-11	16:24:23.290	-18.305	26.425	-109.935	0.809348	0.223992	0.07442	0.2835	0.324	-0.1065	0	196	161	3
2026-02-11	16:24:23.310	-23.205	22.995	-97.93	0.787144	0.216916	0.063928	0.3	0.315	-0.1065	0	196	161	3
2026-02-11	16:24:23.330	-26.95	20.125	-83.755	0.737368	0.204228	0.052704	0.3075	0.3015	-0.105	0	196	161	3
2026-02-11	16:24:23.350	-27.965	16.38	-67.48	0.717116	0.2074	0.051484	0.327	0.303	-0.1065	0	196	161	3
2026-02-11	16:24:23.370	-25.69	12.495	-51.065	0.703696	0.19398	0.05734	0.3315	0.3	-0.1125	0	196	161	3
2026-02-11	16:24:23.390	-18.725	7	-27.755	0.662948	0.186904	0.067588	0.3315	0.3	-0.1125	0	196	161	3
2026-02-11	16:24:23.410	-13.125	2.03	-12.145	0.67832	0.17934	0.058316	0.3405	0.303	-0.1245	0	194	162	3
2026-02-11	16:24:23.430	-6.825	-3.885	3.745	0.764208	0.193004	0.071736	0.3405	0.3	-0.12	0	194	162	3
2026-02-11	16:24:23.450	-0.35	-8.015	21.28	0.88084	0.210816	0.083692	0.342	0.315	-0.12	0	194	162	3
2026-02-11	16:24:23.470	7.49	-9.975	40.25	1.005036	0.205692	0.071736	0.345	0.3045	-0.126	0	194	162	3
2026-02-11	16:24:23.490	17.745	-12.88	61.425	1.116788	0.221552	0.051484	0.3435	0.3075	-0.114	0	194	162	3
2026-02-11	16:24:23.510	28.315	-16.275	82.425	1.230248	0.232532	0.037332	0.3405	0.312	-0.114	0	194	162	3
2026-02-11	16:24:23.530	40.18	-20.3	102.55	1.369572	0.223504	0.015616	0.3165	0.312	-0.1125	0	194	162	3
2026-02-11	16:24:23.550	54.215	-24.605	121.625	1.482788	0.246684	0.00366	0.3105	0.312	-0.111	0	194	162	3
2026-02-11	16:24:23.570	66.255	-26.25	135.31	1.436672	0.295728	0.020252	0.2865	0.327	-0.108	0	194	162	3
2026-02-11	16:24:23.590	68.005	-27.545	139.16	1.153632	0.365756	0.08686399	0.282	0.33	-0.1005	0	194	162	3
2026-02-11	16:24:23.610	56.77	-31.71	127.925	0.88694	0.387228	0.201544	0.279	0.3345	-0.093	0	195	146	3
2026-02-11	16:24:23.630	35.7	-38.22	109.48	0.818376	0.345748	0.256688	0.249	0.3525	-0.0825	0	195	146	3
2026-02-11	16:24:23.650	13.3	-45.045	89.39	0.871324	0.300364	0.270352	0.234	0.3585	-0.069	0	195	146	3
2026-02-11	16:24:23.670	-5.81	-48.58	71.82	0.972584	0.253516	0.245708	0.2175	0.3675	-0.0585	0	195	146	3
2026-02-11	16:24:23.690	-12.53	-48.09	59.64	1.097268	0.232288	0.200812	0.2115	0.3705	-0.0555	0	195	146	3
2026-02-11	16:24:23.710	-11.27	-42.84	54.355	1.16876	0.254492	0.230336	0.2025	0.3795	-0.0525	0	195	146	3
2026-02-11	16:24:23.730	-2.485	-32.515	51.73	1.149972	0.205448	0.214964	0.1875	0.3915	-0.0465	0	195	146	3
2026-02-11	16:24:23.750	27.16	-22.33	50.89	1.087752	0.189832	0.235704	0.189	0.3885	-0.042	0	195	146	3
2026-02-11	16:24:23.770	53.55	-14.21	51.205	0.984052	0.274744	0.246684	0.18	0.3885	-0.039	0	195	146	3
2026-02-11	16:24:23.790	56.14	-9.835	47.67	0.92232	0.274256	0.258884	0.1815	0.393	-0.0375	0	195	146	3
2026-02-11	16:24:17.810	5.425	-11.9	31.01	0.876692	0.31964	0.274744	0.1155	0.714	0	0	172	194	3
2026-02-11	16:24:17.830	3.115	-11.025	30.065	0.90036	0.297436	0.28548	0.1155	0.72	0.003	0	172	194	3
2026-02-11	16:24:17.850	7	-10.29	28.28	0.926712	0.295972	0.294752	0.12	0.726	0.006	0	172	194	3
2026-02-11	16:24:17.870	12.18	-9.205	25.165	0.933544	0.305732	0.304024	0.1215	0.7275	0.009	0	172	194	3
2026-02-11	16:24:17.890	15.33	-8.26	20.055	0.938912	0.317444	0.302804	0.117	0.729	0.0075	0	172	194	3
2026-02-11	16:24:17.910	14.63	-8.05	14.21	0.957212	0.32452	0.294752	0.1215	0.7335	0.006	0	172	194	3
2026-02-11	16:24:17.930	9.205	-8.995	9.03	1.008452	0.347456	0.296216	0.1215	0.735	0.0045	0	172	194	3
2026-02-11	16:24:17.950	0.035	-10.29	5.495	1.089948	0.357216	0.316468	0.1185	0.7365	0	0	172	194	3
2026-02-11	16:24:17.970	-10.92	-10.675	3.255	1.162904	0.351848	0.329888	0.1245	0.744	0.003	0	172	194	3
2026-02-11	16:24:17.990	-17.745	-10.08	1.225	1.240984	0.337452	0.328424	0.1275	0.747	0.0105	0	172	194	3
2026-02-11	16:24:24.010	26.11	1.61	9.8	0.91744	0.296216	0.278892	0.1515	0.4275	0.003	0	199	155	2
2026-02-11	16:24:24.030	24.115	0.42	4.62	1.032364	0.330864	0.296704	0.1515	0.4275	0.003	0	199	155	2
2026-02-11	16:24:24.050	15.68	0.525	2.38	1.135576	0.33916	0.305732	0.1575	0.429	0	0	199	155	2
2026-02-11	16:24:24.070	6.16	1.505	1.54	1.25416	0.334036	0.282552	0.156	0.432	0.0015	0	199	155	2
2026-02-11	16:24:24.090	-0.665	2.73	2.485	1.374208	0.339648	0.279136	0.162	0.4335	0.006	0	199	155	2
2026-02-11	16:24:24.110	-7.14	7.175	2.03	1.377624	0.350872	0.27084	0.1605	0.4335	0.0045	0	199	155	2
2026-02-11	16:24:24.130	-13.265	11.41	-0.49	1.327116	0.344284	0.281332	0.159	0.435	0.0015	0	199	155	2
2026-02-11	16:24:24.150	-17.605	15.61	-7	1.222196	0.368684	0.276696	0.171	0.429	0.003	0	199	155	2
2026-02-11	16:24:24.170	-19.74	22.085	-18.76	1.08092	0.376492	0.259616	0.168	0.4425	-0.0015	0	199	155	2
2026-02-11	16:24:24.190	-17.36	27.265	-35.77	0.941108	0.383568	0.204472	0.162	0.4365	-0.0135	0	199	155	2
2026-02-11	16:24:24.210	-16.625	28.28	-53.025	0.940864	0.346236	0.156404	0.1665	0.4305	-0.012	0	200	183	3
2026-02-11	16:24:24.230	-17.955	28.7	-76.335	1.065792	0.345504	0.160552	0.177	0.426	-0.015	0	200	183	3
2026-02-11	16:24:24.250	-20.09	30.66	-97.16	1.1956	0.355264	0.176412	0.183	0.429	-0.0195	0	200	183	3
2026-02-11	16:24:24.270	-23.24	33.285	-108.92	1.245864	0.328668	0.177144	0.183	0.396	-0.027	0	200	183	3
2026-02-11	16:24:24.290	-24.045	36.295	-117.39	1.2322	0.358924	0.164212	0.1995	0.393	-0.03	0	200	183	3
2026-02-11	16:24:24.310	-21.84	38.43	-125.685	1.17364	0.339404	0.151036	0.2145	0.3855	-0.033	0	200	183	3
2026-02-11	16:24:24.330	-16.66	39.9	-131.74	1.100928	0.31354	0.134932	0.2235	0.3705	-0.042	0	200	183	3
2026-02-11	16:24:24.350	-12.32	38.99	-135.38	0.9943	0.29768	0.112972	0.2415	0.363	-0.0435	0	200	183	3
2026-02-11	16:24:24.370	-10.29	36.155	-137.795	0.917196	0.288896	0.100284	0.258	0.345	-0.057	0	200	183	3
2026-02-11	16:24:24.390	-12.53	32.41	-137.865	0.875716	0.29036	0.099552	0.2745	0.336	-0.063	0	200	183	3
2026-02-11	16:24:24.410	-18.095	29.05	-135.065	0.835212	0.284748	0.09467199	0.279	0.3285	-0.063	0	201	198	3
2026-02-11	16:24:24.430	-25.935	25.9	-129.22	0.77104	0.290604	0.078324	0.297	0.318	-0.0675	0	201	198	3
2026-02-11	16:24:24.450	-35.35	22.015	-117.6	0.748104	0.26474	0.066368	0.309	0.315	-0.0705	0	201	198	3
2026-02-11	16:24:24.470	-42.175	18.235	-102.48	0.692716	0.245464	0.06466	0.309	0.315	-0.0705	0	201	198	3
2026-02-11	16:24:24.490	-43.19	15.96	-88.795	0.6893	0.227896	0.066856	0.3525	0.303	-0.0885	0	201	198	3
2026-02-11	16:24:24.510	-40.81	13.685	-73.36	0.693204	0.220088	0.068076	0.366	0.2955	-0.0975	0	201	198	3
2026-02-11	16:24:24.530	-35	11.375	-58.31	0.658068	0.206424	0.057584	0.3795	0.2925	-0.102	0	201	198	3
2026-02-11	16:24:24.550	-27.265	8.54	-42.455	0.66978	0.18666	0.052948	0.387	0.297	-0.111	0	201	198	3
2026-02-11	16:24:24.570	-18.34	4.2	-26.32	0.698328	0.189588	0.056608	0.3975	0.294	-0.1095	0	201	198	3
2026-02-11	16:24:24.590	-10.045	-0.875	-8.89	0.740296	0.196664	0.061244	0.3855	0.288	-0.1125	0	201	198	3
2026-02-11	16:24:24.610	-3.815	-6.755	10.675	0.820328	0.20008	0.069052	0.393	0.294	-0.1155	0	201	188	3
2026-02-11	16:24:24.630	3.22	-11.305	30.24	0.923784	0.219356	0.079544	0.3945	0.294	-0.1185	0	201	188	3
2026-02-11	16:24:24.650	11.445	-13.825	49.875	0.945012	0.222772	0.068076	0.3885	0.2895	-0.123	0	201	188	3
2026-02-11	16:24:24.670	24.36	-21.07	79.45	1.040172	0.227896	0.0549	0.3795	0.2865	-0.1245	0	201	188	3
2026-02-11	16:24:24.690	32.13	-27.79	100.065	1.126792	0.224724	0.043188	0.3675	0.3015	-0.1065	0	201	188	3
2026-02-11	16:24:24.710	38.185	-35.805	122.01	1.25904	0.231312	0.053924	0.3555	0.2985	-0.114	0	201	188	3
2026-02-11	16:24:24.730	43.505	-42.035	144.305	1.366644	0.278892	0.083692	0.333	0.3075	-0.1035	0	201	188	3
2026-02-11	16:24:24.750	44.065	-43.4	161.07	1.29808	0.347212	0.138348	0.3165	0.318	-0.108	0	201	188	3
2026-02-11	16:24:24.770	37.73	-43.015	166.74	1.13582	0.375516	0.201788	0.3	0.3315	-0.0945	0	201	188	3
2026-02-11	16:24:24.790	30.66	-42.665	160.265	0.996252	0.386252	0.247172	0.273	0.342	-0.081	0	201	188	3
2026-02-11	16:24:24.810	20.16	-43.89	144.025	0.964776	0.340136	0.27816	0.2505	0.3525	-0.078	0	202	167	3
2026-02-11	16:24:24.830	7.63	-45.99	123.795	1.029924	0.270596	0.248148	0.2475	0.357	-0.0795	0	202	167	3
2026-02-11	16:24:24.850	0.91	-47.11	103.845	1.15656	0.228384	0.231068	0.2355	0.363	-0.0765	0	202	167	3
2026-02-11	16:24:24.870	2.975	-41.51	82.145	1.255624	0.218136	0.2135	0.222	0.3705	-0.0645	0	202	167	3
2026-02-11	16:24:24.890	19.215	-30.03	63.665	1.24196	0.227652	0.176656	0.216	0.3795	-0.0585	0	202	167	3
2026-02-11	16:24:24.910	40.18	-20.685	53.48	1.159	0.182268	0.160552	0.198	0.396	-0.0495	0	202	167	3
2026-02-11	16:24:24.930	63.525	-13.755	46.76	1.070916	0.210816	0.190564	0.1875	0.3885	-0.0495	0	202	167	3
2026-02-11	16:24:24.950	80.185	-9.66	39.585	0.961848	0.25376	0.225456	0.189	0.408	-0.0435	0	202	167	3
2026-02-11	16:24:24.970	88.06	-8.26	34.79	0.891332	0.288408	0.252052	0.1755	0.408	-0.042	0	202	167	3
