yyyy-MM-dd	HH:mm:ss.fff	gyrX	gyrY	gyrZ	accX	accY	accZ	magX	magY	magZ	Marker	Energy	Angle	Classification
2026-02-11	15:57:48.010	-201.46	11.97	78.19	0.97356	0.248636	0.05002	0.0885	0.5955	0.1905	0	183	185	3
2026-02-11	15:57:48.030	-205.03	3.395	84.84	0.976244	0.180804	0.066612	0.087	0.594	0.183	0	183	185	3
2026-02-11	15:57:48.050	-187.95	-1.925	87.185	1.010892	0.202764	0.099796	0.081	0.5955	0.183	0	183	185	3
2026-02-11	15:57:48.070	-171.29	-5.53	87.78	1.024068	0.191296	0.110776	0.081	0.6015	0.183	0	183	185	3
2026-02-11	15:57:48.090	-155.365	-8.54	87.115	1.02724	0.18666	0.107604	0.087	0.6165	0.1815	0	183	185	3
2026-02-11	15:57:48.110	-137.795	-11.97	85.785	1.050908	0.176412	0.100284	0.084	0.6225	0.183	0	183	185	3
2026-02-11	15:57:48.130	-118.405	-15.295	84.42	1.07482	0.172996	0.101504	0.0855	0.6225	0.183	0	183	185	3
2026-02-11	15:57:48.150	-98.105	-18.34	82.775	1.106052	0.187636	0.101992	0.0825	0.6375	0.186	0	183	185	3
2026-02-11	15:57:48.170	-82.145	-21.315	81.06	1.137528	0.196176	0.10858	0.084	0.645	0.192	0	183	185	3
2026-02-11	15:57:48.190	-71.47	-23.345	78.995	1.151192	0.203984	0.125172	0.093	0.654	0.1935	0	183	185	3
2026-02-11	15:57:48.210	-65.94	-23.905	75.915	1.14802	0.2074	0.15616	0.096	0.6615	0.198	0	187	191	3
2026-02-11	15:57:48.230	-63.315	-22.19	71.855	1.109224	0.211548	0.176412	0.096	0.6615	0.204	0	187	191	3
2026-02-11	15:57:48.250	-64.68	-18.305	63.7	1.051152	0.23546	0.204228	0.096	0.6615	0.204	0	187	191	3
2026-02-11	15:57:48.270	-72.975	-15.295	57.4	1.068964	0.256444	0.241316	0.096	0.672	0.21	0	187	191	3
2026-02-11	15:57:48.290	-87.955	-9.345	50.435	1.062376	0.253028	0.264984	0.1035	0.687	0.2145	0	187	191	3
2026-02-11	15:57:48.310	-98.91	-1.505	42.245	1.020164	0.225212	0.24156	0.111	0.693	0.219	0	187	191	3
2026-02-11	15:57:48.330	-100.31	5.075	32.865	0.978928	0.193492	0.195444	0.108	0.693	0.2235	0	187	191	3
2026-02-11	15:57:48.350	-93.275	10.465	23.59	0.973316	0.177632	0.185928	0.1035	0.69	0.222	0	187	191	3
2026-02-11	15:57:48.370	-87.395	15.505	14.315	1.018212	0.16836	0.203008	0.105	0.69	0.222	0	187	191	3
2026-02-11	15:57:48.390	-84.875	22.54	5.215	1.042368	0.115412	0.221796	0.1095	0.6825	0.222	0	187	191	3
2026-02-11	15:57:48.410	-67.83	31.01	-4.865	0.973804	0.078568	0.209108	0.114	0.675	0.2205	0	188	190	3
2026-02-11	15:57:48.430	-44.24	37.695	-16.275	0.932812	0.065392	0.192516	0.1155	0.6765	0.219	0	188	190	3
2026-02-11	15:57:48.450	-21.665	45.535	-30.52	0.953552	0.032696	0.236192	0.1095	0.672	0.222	0	188	190	3
2026-02-11	15:57:48.470	-4.69	55.79	-46.305	0.960384	0.060024	0.290116	0.108	0.6705	0.216	0	188	190	3
2026-02-11	15:57:48.490	-14.385	65.73	-62.79	1.056032	0.02684	0.43432	0.102	0.663	0.204	0	188	190	3
2026-02-11	15:57:48.510	-40.985	81.305	-75.46	1.131428	-0.077348	0.47092	0.0975	0.657	0.192	0	188	190	3
2026-02-11	15:57:48.530	-49.7	94.955	-84.735	1.18218	-0.13176	0.444568	0.0945	0.651	0.1875	0	188	190	3
2026-02-11	15:57:48.550	-47.88	105.42	-90.37	1.185596	-0.162016	0.41114	0.0885	0.633	0.18	0	188	190	3
2026-02-11	15:57:48.570	-42.49	111.615	-93.45	1.167296	-0.156648	0.365268	0.0855	0.609	0.1665	0	188	190	3
2026-02-11	15:57:48.590	-38.325	115.43	-94.36	1.130208	-0.13786	0.318664	0.084	0.594	0.1485	0	188	190	3
2026-02-11	15:57:48.610	-44.345	115.605	-93.765	1.089216	-0.106384	0.274256	0.087	0.582	0.129	0	189	200	3
2026-02-11	15:57:48.630	-48.72	114.485	-91.84	1.022116	-0.146156	0.277428	0.0885	0.5715	0.111	0	189	200	3
2026-02-11	15:57:48.650	-48.09	110.985	-84.175	0.974292	-0.156648	0.257664	0.0855	0.5685	0.1005	0	189	200	3
2026-02-11	15:57:48.670	-44.485	98.77	-72.905	0.894992	-0.152012	0.220088	0.081	0.5625	0.09	0	189	200	3
2026-02-11	15:57:48.690	-33.67	87.465	-63.42	0.839848	-0.139568	0.209352	0.0855	0.5505	0.075	0	189	200	3
2026-02-11	15:57:48.710	-14.77	74.27	-54.25	0.807152	-0.112972	0.217404	0.0915	0.534	0.0495	0	189	200	3
2026-02-11	15:57:48.730	3.605	60.2	-47.11	0.76494	-0.083936	0.233508	0.096	0.525	0.036	0	189	200	3
2026-02-11	15:57:48.750	21.455	48.23	-39.41	0.727608	-0.046848	0.23424	0.099	0.516	0.03	0	189	200	3
2026-02-11	15:57:48.770	37.065	37.135	-31.605	0.704672	0.004392	0.218136	0.105	0.5115	0.0255	0	189	200	3
2026-02-11	15:57:48.790	47.565	25.13	-24.465	0.690032	0.043676	0.213744	0.1065	0.507	0.021	0	189	200	3
2026-02-11	15:57:46.810	-241.85	32.69	16.66	1.158024	0.213744	0.125416	0.1425	0.7875	-0.0555	0	198	265	3
2026-02-11	15:57:46.830	-243.46	33.53	30.73	1.180472	0.223504	0.120536	0.147	0.8025	-0.045	0	198	265	3
2026-02-11	15:57:46.850	-240.135	35.315	43.96	1.184864	0.230336	0.113216	0.147	0.819	-0.0345	0	198	265	3
2026-02-11	15:57:46.870	-232.365	37.73	55.615	1.186328	0.22814	0.100284	0.1515	0.831	-0.021	0	198	265	3
2026-02-11	15:57:46.890	-218.47	40.775	64.295	1.177788	0.24522	0.103944	0.159	0.8415	-0.0075	0	198	265	3
2026-02-11	15:57:46.910	-203.875	45.22	69.72	1.154608	0.234728	0.106872	0.1665	0.8535	0.0045	0	198	265	3
2026-02-11	15:57:46.930	-185.465	50.085	71.82	1.135088	0.221796	0.100528	0.171	0.861	0.009	0	198	265	3
2026-02-11	15:57:46.950	-153.3	56.14	69.825	1.1041	0.200812	0.092232	0.183	0.8835	0.0315	0	198	265	3
2026-02-11	15:57:46.970	-113.68	62.055	64.12	1.106052	0.189344	0.09272	0.183	0.8835	0.0315	0	198	265	3
2026-02-11	15:57:46.990	-81.27	67.165	57.015	1.086044	0.198616	0.10004	0.1905	0.894	0.0375	0	198	265	3
2026-02-11	15:57:47.010	-51.275	72.52	47.215	1.06384	0.2135	0.104432	0.201	0.909	0.0465	0	192	243	3
2026-02-11	15:57:47.030	-25.305	78.015	34.965	1.081896	0.224968	0.097356	0.2115	0.9195	0.0435	0	192	243	3
2026-02-11	15:57:47.050	-2.625	83.825	21.07	1.092388	0.241804	0.083936	0.216	0.9225	0.0405	0	192	243	3
2026-02-11	15:57:47.070	12.88	87.85	6.23	1.164368	0.220576	0.067832	0.213	0.9225	0.036	0	192	243	3
2026-02-11	15:57:47.090	30.87	91.49	-9.94	1.199504	0.215208	0.04514	0.2115	0.918	0.0195	0	192	243	3
2026-02-11	15:57:47.110	49.105	92.575	-27.65	1.26392	0.215208	-0.000976	0.2175	0.915	0.006	0	192	243	3
2026-02-11	15:57:47.130	68.215	90.125	-46.935	1.33468	0.20984	-0.048068	0.219	0.918	-0.0045	0	192	243	3
2026-02-11	15:57:47.150	92.19	84.49	-69.09	1.286612	0.19886	-0.07198	0.216	0.918	-0.015	0	192	243	3
2026-02-11	15:57:47.170	116.305	72.59	-100.555	1.100196	0.202032	-0.042212	0.2115	0.9075	-0.03	0	192	243	3
2026-02-11	15:57:47.190	108.92	57.26	-129.815	0.93574	0.221064	0.054168	0.2055	0.8925	-0.051	0	192	243	3
2026-02-11	15:57:47.210	75.775	44.17	-150.57	0.867664	0.219356	0.155672	0.198	0.8655	-0.078	0	187	206	3
2026-02-11	15:57:47.230	36.995	33.88	-169.54	0.915244	0.185928	0.232532	0.1875	0.8385	-0.0885	0	187	206	3
2026-02-11	15:57:47.250	-4.515	31.57	-185.605	1.016504	0.181536	0.301828	0.171	0.8175	-0.0975	0	187	206	3
2026-02-11	15:57:47.270	-48.895	33.04	-195.58	1.118496	0.137372	0.259372	0.1515	0.8025	-0.102	0	187	206	3
2026-02-11	15:57:47.290	-78.085	32.97	-200.27	1.2139	0.099308	0.189832	0.1425	0.777	-0.105	0	187	206	3
2026-02-11	15:57:47.310	-90.23	31.185	-199.85	1.244888	0.088572	0.110288	0.1395	0.753	-0.1035	0	187	206	3
2026-02-11	15:57:47.330	-92.155	24.325	-196.91	1.256844	0.118828	0.075396	0.135	0.7335	-0.105	0	187	206	3
2026-02-11	15:57:47.350	-100.555	13.72	-190.855	1.260992	0.115412	0.081252	0.1275	0.7155	-0.1095	0	187	206	3
2026-02-11	15:57:47.370	-111.895	2.835	-181.895	1.242692	0.074664	0.089304	0.123	0.708	-0.1095	0	187	206	3
2026-02-11	15:57:47.390	-113.295	-13.44	-165.235	1.1285	0.001464	0.124684	0.12	0.69	-0.1005	0	187	206	3
2026-02-11	15:57:47.410	-100.975	-24.92	-154.175	1.025776	-0.035136	0.170556	0.12	0.669	-0.1005	0	183	176	3
2026-02-11	15:57:47.430	-82.53	-34.685	-143.745	0.91744	-0.033184	0.208132	0.1155	0.648	-0.099	0	183	176	3
2026-02-11	15:57:47.450	-60.97	-44.31	-134.61	0.811788	-0.015128	0.2074	0.1125	0.633	-0.0945	0	183	176	3
2026-02-11	15:57:47.470	-40.46	-53.095	-125.72	0.7503	0.03172	0.182024	0.111	0.615	-0.087	0	183	176	3
2026-02-11	15:57:47.490	-25.83	-64.33	-118.37	0.748836	0.090524	0.156648	0.108	0.603	-0.081	0	183	176	3
2026-02-11	15:57:47.510	-27.16	-78.155	-113.61	0.790804	0.127856	0.182268	0.1065	0.591	-0.0705	0	183	176	3
2026-02-11	15:57:47.530	-41.58	-89.53	-110.915	0.811544	0.128344	0.23302	0.0975	0.5805	-0.0615	0	183	176	3
2026-02-11	15:57:47.550	-53.725	-96.355	-110.775	0.843996	0.088328	0.23058	0.093	0.5625	-0.0525	0	183	176	3
2026-02-11	15:57:47.570	-55.825	-98.665	-106.505	0.884012	0.09638	0.210084	0.0945	0.549	-0.042	0	183	176	3
2026-02-11	15:57:47.590	-55.755	-100.625	-97.685	0.93086	0.139568	0.171776	0.0945	0.5445	-0.039	0	183	176	3
2026-02-11	15:57:47.610	-59.22	-105.525	-76.23	1.015772	0.188368	0.139568	0.0945	0.5445	-0.039	0	182	163	2
2026-02-11	15:57:47.630	-54.635	-109.48	-58.94	1.043832	0.17934	0.147376	0.093	0.5295	-0.0195	0	182	163	2
2026-02-11	15:57:47.650	-42.665	-112.735	-40.845	1.044808	0.176168	0.16592	0.093	0.513	0.0075	0	182	163	2
2026-02-11	15:57:47.670	-28.28	-115.92	-20.86	1.062864	0.189832	0.17202	0.093	0.5085	0.0255	0	182	163	2
2026-02-11	15:57:47.690	-5.985	-118.055	-0.84	1.098732	0.226676	0.204472	0.0915	0.501	0.0435	0	182	163	2
2026-02-11	15:57:47.710	16.87	-117.18	17.955	1.092876	0.283284	0.239852	0.0945	0.4995	0.0585	0	182	163	2
2026-02-11	15:57:47.730	27.755	-116.83	34.265	1.085068	0.29768	0.26962	0.093	0.504	0.0705	0	182	163	2
2026-02-11	15:57:47.750	30.415	-114.485	48.475	1.041636	0.350384	0.285724	0.0855	0.507	0.0885	0	182	163	2
2026-02-11	15:57:47.770	20.93	-111.545	58.52	0.994788	0.353312	0.312076	0.084	0.513	0.111	0	182	163	2
2026-02-11	15:57:47.790	4.235	-105.455	63.49	0.925736	0.42212	0.340136	0.087	0.516	0.1215	0	182	163	2
2026-02-11	15:57:47.810	-30.135	-94.605	66.115	0.89426	0.346236	0.321104	0.081	0.531	0.1275	0	182	167	3
2026-02-11	15:57:47.830	-5.11	-84.7	57.26	0.9211	0.264008	0.220088	0.0855	0.543	0.144	0	182	167	3
2026-02-11	15:57:47.850	68.32	-73.955	46.375	0.975024	0.445544	0.332816	0.084	0.558	0.1605	0	182	167	3
2026-02-11	15:57:47.870	114.1	-54.67	32.2	1.067988	0.816668	0.445788	0.0825	0.5595	0.174	0	182	167	3
2026-02-11	15:57:47.890	70.56	-35.49	21.035	1.065304	0.691008	0.324764	0.093	0.567	0.1905	0	182	167	3
2026-02-11	15:57:47.910	69.125	-17.36	17.57	1.08946	0.539484	0.2989	0.0945	0.5775	0.195	0	182	167	3
2026-02-11	15:57:47.930	37.275	-1.995	24.255	1.092632	0.762012	0.274744	0.09	0.5805	0.198	0	182	167	3
2026-02-11	15:57:47.950	-65.695	8.435	36.61	1.06018	0.50264	0.196908	0.087	0.588	0.2025	0	182	167	3
2026-02-11	15:57:47.970	-131.285	14.84	51.625	1.016504	0.38552	0.131028	0.0855	0.591	0.198	0	182	167	3
2026-02-11	15:57:47.990	-169.785	16.73	65.45	0.9882	0.311588	0.084424	0.087	0.5925	0.192	0	182	167	3
2026-02-11	15:57:48.010	-201.46	11.97	78.19	0.97356	0.248636	0.05002	0.0885	0.5955	0.1905	0	183	185	3
2026-02-11	15:57:48.030	-205.03	3.395	84.84	0.976244	0.180804	0.066612	0.087	0.594	0.183	0	183	185	3
2026-02-11	15:57:48.050	-187.95	-1.925	87.185	1.010892	0.202764	0.099796	0.081	0.5955	0.183	0	183	185	3
2026-02-11	15:57:48.070	-171.29	-5.53	87.78	1.024068	0.191296	0.110776	0.081	0.6015	0.183	0	183	185	3
2026-02-11	15:57:48.090	-155.365	-8.54	87.115	1.02724	0.18666	0.107604	0.087	0.6165	0.1815	0	183	185	3
2026-02-11	15:57:48.110	-137.795	-11.97	85.785	1.050908	0.176412	0.100284	0.084	0.6225	0.183	0	183	185	3
2026-02-11	15:57:48.130	-118.405	-15.295	84.42	1.07482	0.172996	0.101504	0.0855	0.6225	0.183	0	183	185	3
2026-02-11	15:57:48.150	-98.105	-18.34	82.775	1.106052	0.187636	0.101992	0.0825	0.6375	0.186	0	183	185	3
2026-02-11	15:57:48.170	-82.145	-21.315	81.06	1.137528	0.196176	0.10858	0.084	0.645	0.192	0	183	185	3
2026-02-11	15:57:48.190	-71.47	-23.345	78.995	1.151192	0.203984	0.125172	0.093	0.654	0.1935	0	183	185	3
2026-02-11	15:57:48.210	-65.94	-23.905	75.915	1.14802	0.2074	0.15616	0.096	0.6615	0.198	0	187	191	3
2026-02-11	15:57:48.230	-63.315	-22.19	71.855	1.109224	0.211548	0.176412	0.096	0.6615	0.204	0	187	191	3
2026-02-11	15:57:48.250	-64.68	-18.305	63.7	1.051152	0.23546	0.204228	0.096	0.6615	0.204	0	187	191	3
2026-02-11	15:57:48.270	-72.975	-15.295	57.4	1.068964	0.256444	0.241316	0.096	0.672	0.21	0	187	191	3
2026-02-11	15:57:48.290	-87.955	-9.345	50.435	1.062376	0.253028	0.264984	0.1035	0.687	0.2145	0	187	191	3
2026-02-11	15:57:48.310	-98.91	-1.505	42.245	1.020164	0.225212	0.24156	0.111	0.693	0.219	0	187	191	3
2026-02-11	15:57:48.330	-100.31	5.075	32.865	0.978928	0.193492	0.195444	0.108	0.693	0.2235	0	187	191	3
2026-02-11	15:57:48.350	-93.275	10.465	23.59	0.973316	0.177632	0.185928	0.1035	0.69	0.222	0	187	191	3
2026-02-11	15:57:48.370	-87.395	15.505	14.315	1.018212	0.16836	0.203008	0.105	0.69	0.222	0	187	191	3
2026-02-11	15:57:48.390	-84.875	22.54	5.215	1.042368	0.115412	0.221796	0.1095	0.6825	0.222	0	187	191	3
2026-02-11	15:57:48.410	-67.83	31.01	-4.865	0.973804	0.078568	0.209108	0.114	0.675	0.2205	0	188	190	3
2026-02-11	15:57:48.430	-44.24	37.695	-16.275	0.932812	0.065392	0.192516	0.1155	0.6765	0.219	0	188	190	3
2026-02-11	15:57:48.450	-21.665	45.535	-30.52	0.953552	0.032696	0.236192	0.1095	0.672	0.222	0	188	190	3
2026-02-11	15:57:48.470	-4.69	55.79	-46.305	0.960384	0.060024	0.290116	0.108	0.6705	0.216	0	188	190	3
2026-02-11	15:57:48.490	-14.385	65.73	-62.79	1.056032	0.02684	0.43432	0.102	0.663	0.204	0	188	190	3
2026-02-11	15:57:48.510	-40.985	81.305	-75.46	1.131428	-0.077348	0.47092	0.0975	0.657	0.192	0	188	190	3
2026-02-11	15:57:48.530	-49.7	94.955	-84.735	1.18218	-0.13176	0.444568	0.0945	0.651	0.1875	0	188	190	3
2026-02-11	15:57:48.550	-47.88	105.42	-90.37	1.185596	-0.162016	0.41114	0.0885	0.633	0.18	0	188	190	3
2026-02-11	15:57:48.570	-42.49	111.615	-93.45	1.167296	-0.156648	0.365268	0.0855	0.609	0.1665	0	188	190	3
2026-02-11	15:57:48.590	-38.325	115.43	-94.36	1.130208	-0.13786	0.318664	0.084	0.594	0.1485	0	188	190	3
2026-02-11	15:57:48.610	-44.345	115.605	-93.765	1.089216	-0.106384	0.274256	0.087	0.582	0.129	0	189	200	3
2026-02-11	15:57:48.630	-48.72	114.485	-91.84	1.022116	-0.146156	0.277428	0.0885	0.5715	0.111	0	189	200	3
2026-02-11	15:57:48.650	-48.09	110.985	-84.175	0.974292	-0.156648	0.257664	0.0855	0.5685	0.1005	0	189	200	3
2026-02-11	15:57:48.670	-44.485	98.77	-72.905	0.894992	-0.152012	0.220088	0.081	0.5625	0.09	0	189	200	3
2026-02-11	15:57:48.690	-33.67	87.465	-63.42	0.839848	-0.139568	0.209352	0.0855	0.5505	0.075	0	189	200	3
2026-02-11	15:57:48.710	-14.77	74.27	-54.25	0.807152	-0.112972	0.217404	0.0915	0.534	0.0495	0	189	200	3
2026-02-11	15:57:48.730	3.605	60.2	-47.11	0.76494	-0.083936	0.233508	0.096	0.525	0.036	0	189	200	3
2026-02-11	15:57:48.750	21.455	48.23	-39.41	0.727608	-0.046848	0.23424	0.099	0.516	0.03	0	189	200	3
2026-02-11	15:57:48.770	37.065	37.135	-31.605	0.704672	0.004392	0.218136	0.105	0.5115	0.0255	0	189	200	3
2026-02-11	15:57:48.790	47.565	25.13	-24.465	0.690032	0.043676	0.213744	0.1065	0.507	0.021	0	189	200	3
2026-02-11	15:57:46.810	-241.85	32.69	16.66	1.158024	0.213744	0.125416	0.1425	0.7875	-0.0555	0	198	265	3
2026-02-11	15:57:46.830	-243.46	33.53	30.73	1.180472	0.223504	0.120536	0.147	0.8025	-0.045	0	198	265	3
2026-02-11	15:57:46.850	-240.135	35.315	43.96	1.184864	0.230336	0.113216	0.147	0.819	-0.0345	0	198	265	3
2026-02-11	15:57:46.870	-232.365	37.73	55.615	1.186328	0.22814	0.100284	0.1515	0.831	-0.021	0	198	265	3
2026-02-11	15:57:46.890	-218.47	40.775	64.295	1.177788	0.24522	0.103944	0.159	0.8415	-0.0075	0	198	265	3
2026-02-11	15:57:46.910	-203.875	45.22	69.72	1.154608	0.234728	0.106872	0.1665	0.8535	0.0045	0	198	265	3
2026-02-11	15:57:46.930	-185.465	50.085	71.82	1.135088	0.221796	0.100528	0.171	0.861	0.009	0	198	265	3
2026-02-11	15:57:46.950	-153.3	56.14	69.825	1.1041	0.200812	0.092232	0.183	0.8835	0.0315	0	198	265	3
2026-02-11	15:57:46.970	-113.68	62.055	64.12	1.106052	0.189344	0.09272	0.183	0.8835	0.0315	0	198	265	3
2026-02-11	15:57:46.990	-81.27	67.165	57.015	1.086044	0.198616	0.10004	0.1905	0.894	0.0375	0	198	265	3
2026-02-11	15:57:47.010	-51.275	72.52	47.215	1.06384	0.2135	0.104432	0.201	0.909	0.0465	0	192	243	3
2026-02-11	15:57:47.030	-25.305	78.015	34.965	1.081896	0.224968	0.097356	0.2115	0.9195	0.0435	0	192	243	3
2026-02-11	15:57:47.050	-2.625	83.825	21.07	1.092388	0.241804	0.083936	0.216	0.9225	0.0405	0	192	243	3
2026-02-11	15:57:47.070	12.88	87.85	6.23	1.164368	0.220576	0.067832	0.213	0.9225	0.036	0	192	243	3
2026-02-11	15:57:47.090	30.87	91.49	-9.94	1.199504	0.215208	0.04514	0.2115	0.918	0.0195	0	192	243	3
2026-02-11	15:57:47.110	49.105	92.575	-27.65	1.26392	0.215208	-0.000976	0.2175	0.915	0.006	0	192	243	3
2026-02-11	15:57:47.130	68.215	90.125	-46.935	1.33468	0.20984	-0.048068	0.219	0.918	-0.0045	0	192	243	3
2026-02-11	15:57:47.150	92.19	84.49	-69.09	1.286612	0.19886	-0.07198	0.216	0.918	-0.015	0	192	243	3
2026-02-11	15:57:47.170	116.305	72.59	-100.555	1.100196	0.202032	-0.042212	0.2115	0.9075	-0.03	0	192	243	3
2026-02-11	15:57:47.190	108.92	57.26	-129.815	0.93574	0.221064	0.054168	0.2055	0.8925	-0.051	0	192	243	3
2026-02-11	15:57:47.210	75.775	44.17	-150.57	0.867664	0.219356	0.155672	0.198	0.8655	-0.078	0	187	206	3
2026-02-11	15:57:47.230	36.995	33.88	-169.54	0.915244	0.185928	0.232532	0.1875	0.8385	-0.0885	0	187	206	3
2026-02-11	15:57:47.250	-4.515	31.57	-185.605	1.016504	0.181536	0.301828	0.171	0.8175	-0.0975	0	187	206	3
2026-02-11	15:57:47.270	-48.895	33.04	-195.58	1.118496	0.137372	0.259372	0.1515	0.8025	-0.102	0	187	206	3
2026-02-11	15:57:47.290	-78.085	32.97	-200.27	1.2139	0.099308	0.189832	0.1425	0.777	-0.105	0	187	206	3
2026-02-11	15:57:47.310	-90.23	31.185	-199.85	1.244888	0.088572	0.110288	0.1395	0.753	-0.1035	0	187	206	3
2026-02-11	15:57:47.330	-92.155	24.325	-196.91	1.256844	0.118828	0.075396	0.135	0.7335	-0.105	0	187	206	3
2026-02-11	15:57:47.350	-100.555	13.72	-190.855	1.260992	0.115412	0.081252	0.1275	0.7155	-0.1095	0	187	206	3
2026-02-11	15:57:47.370	-111.895	2.835	-181.895	1.242692	0.074664	0.089304	0.123	0.708	-0.1095	0	187	206	3
2026-02-11	15:57:47.390	-113.295	-13.44	-165.235	1.1285	0.001464	0.124684	0.12	0.69	-0.1005	0	187	206	3
2026-02-11	15:57:47.410	-100.975	-24.92	-154.175	1.025776	-0.035136	0.170556	0.12	0.669	-0.1005	0	183	176	3
2026-02-11	15:57:47.430	-82.53	-34.685	-143.745	0.91744	-0.033184	0.208132	0.1155	0.648	-0.099	0	183	176	3
2026-02-11	15:57:47.450	-60.97	-44.31	-134.61	0.811788	-0.015128	0.2074	0.1125	0.633	-0.0945	0	183	176	3
2026-02-11	15:57:47.470	-40.46	-53.095	-125.72	0.7503	0.03172	0.182024	0.111	0.615	-0.087	0	183	176	3
2026-02-11	15:57:47.490	-25.83	-64.33	-118.37	0.748836	0.090524	0.156648	0.108	0.603	-0.081	0	183	176	3
2026-02-11	15:57:47.510	-27.16	-78.155	-113.61	0.790804	0.127856	0.182268	0.1065	0.591	-0.0705	0	183	176	3
2026-02-11	15:57:47.530	-41.58	-89.53	-110.915	0.811544	0.128344	0.23302	0.0975	0.5805	-0.0615	0	183	176	3
2026-02-11	15:57:47.550	-53.725	-96.355	-110.775	0.843996	0.088328	0.23058	0.093	0.5625	-0.0525	0	183	176	3
2026-02-11	15:57:47.570	-55.825	-98.665	-106.505	0.884012	0.09638	0.210084	0.0945	0.549	-0.042	0	183	176	3
2026-02-11	15:57:47.590	-55.755	-100.625	-97.685	0.93086	0.139568	0.171776	0.0945	0.5445	-0.039	0	183	176	3
2026-02-11	15:57:47.610	-59.22	-105.525	-76.23	1.015772	0.188368	0.139568	0.0945	0.5445	-0.039	0	182	163	2
2026-02-11	15:57:47.630	-54.635	-109.48	-58.94	1.043832	0.17934	0.147376	0.093	0.5295	-0.0195	0	182	163	2
2026-02-11	15:57:47.650	-42.665	-112.735	-40.845	1.044808	0.176168	0.16592	0.093	0.513	0.0075	0	182	163	2
2026-02-11	15:57:47.670	-28.28	-115.92	-20.86	1.062864	0.189832	0.17202	0.093	0.5085	0.0255	0	182	163	2
2026-02-11	15:57:47.690	-5.985	-118.055	-0.84	1.098732	0.226676	0.204472	0.0915	0.501	0.0435	0	182	163	2
2026-02-11	15:57:47.710	16.87	-117.18	17.955	1.092876	0.283284	0.239852	0.0945	0.4995	0.0585	0	182	163	2
2026-02-11	15:57:47.730	27.755	-116.83	34.265	1.085068	0.29768	0.26962	0.093	0.504	0.0705	0	182	163	2
2026-02-11	15:57:47.750	30.415	-114.485	48.475	1.041636	0.350384	0.285724	0.0855	0.507	0.0885	0	182	163	2
2026-02-11	15:57:47.770	20.93	-111.545	58.52	0.994788	0.353312	0.312076	0.084	0.513	0.111	0	182	163	2
2026-02-11	15:57:47.790	4.235	-105.455	63.49	0.925736	0.42212	0.340136	0.087	0.516	0.1215	0	182	163	2
2026-02-11	15:57:47.810	-30.135	-94.605	66.115	0.89426	0.346236	0.321104	0.081	0.531	0.1275	0	182	167	3
2026-02-11	15:57:47.830	-5.11	-84.7	57.26	0.9211	0.264008	0.220088	0.0855	0.543	0.144	0	182	167	3
2026-02-11	15:57:47.850	68.32	-73.955	46.375	0.975024	0.445544	0.332816	0.084	0.558	0.1605	0	182	167	3
2026-02-11	15:57:47.870	114.1	-54.67	32.2	1.067988	0.816668	0.445788	0.0825	0.5595	0.174	0	182	167	3
2026-02-11	15:57:47.890	70.56	-35.49	21.035	1.065304	0.691008	0.324764	0.093	0.567	0.1905	0	182	167	3
2026-02-11	15:57:47.910	69.125	-17.36	17.57	1.08946	0.539484	0.2989	0.0945	0.5775	0.195	0	182	167	3
2026-02-11	15:57:47.930	37.275	-1.995	24.255	1.092632	0.762012	0.274744	0.09	0.5805	0.198	0	182	167	3
2026-02-11	15:57:47.950	-65.695	8.435	36.61	1.06018	0.50264	0.196908	0.087	0.588	0.2025	0	182	167	3
2026-02-11	15:57:47.970	-131.285	14.84	51.625	1.016504	0.38552	0.131028	0.0855	0.591	0.198	0	182	167	3
2026-02-11	15:57:47.990	-169.785	16.73	65.45	0.9882	0.311588	0.084424	0.087	0.5925	0.192	0	182	167	3
2026-02-11	15:57:56.010	-12.145	76.16	-97.615	0.931348	0.043188	0.10736	0.12	0.681	-0.117	0	402	233	2
2026-02-11	15:57:56.030	-9.485	67.48	-86.1	0.935984	0.040992	0.127124	0.1305	0.666	-0.1335	0	402	233	2
2026-02-11	15:57:56.050	-5.145	57.785	-70.945	0.95282	0.05002	0.140788	0.129	0.6555	-0.135	0	402	233	2
2026-02-11	15:57:56.070	-0.98	47.95	-54.425	0.970876	0.056364	0.147132	0.1305	0.651	-0.1455	0	402	233	2
2026-02-11	15:57:56.090	3.885	37.975	-37.975	0.946232	0.061488	0.133956	0.138	0.6405	-0.1545	0	402	233	2
2026-02-11	15:57:56.110	8.33	24.92	-21.63	0.922076	0.048068	0.125416	0.141	0.6375	-0.1605	0	402	233	2
2026-02-11	15:57:56.130	13.125	7.77	-4.445	0.960872	0.045628	0.138592	0.147	0.636	-0.1665	0	402	233	2
2026-02-11	15:57:56.150	19.075	-9.905	13.265	0.98332	0.044164	0.163724	0.1485	0.633	-0.1635	0	402	233	2
2026-02-11	15:57:56.170	26.11	-31.36	35.455	0.990884	0.03538	0.205448	0.15	0.633	-0.1635	0	402	233	2
2026-02-11	15:57:56.190	27.02	-52.22	58.1	0.987468	0.054656	0.238876	0.1515	0.6375	-0.168	0	402	233	2
2026-02-11	15:57:56.210	23.1	-67.76	74.515	0.953552	0.066856	0.245464	0.144	0.639	-0.1575	0	411	227	2
2026-02-11	15:57:56.230	19.11	-81.76	86.695	0.929396	0.065636	0.211304	0.132	0.6525	-0.1455	0	411	227	2
2026-02-11	15:57:56.250	17.745	-94.08	95.9	0.922564	0.069296	0.196908	0.1305	0.6615	-0.1395	0	411	227	2
2026-02-11	15:57:56.270	15.54	-105.105	101.745	0.940376	0.055388	0.238876	0.126	0.6675	-0.1215	0	411	227	2
2026-02-11	15:57:56.290	9.03	-111.58	105.63	0.976488	0.06734399	0.27816	0.1185	0.6795	-0.1125	0	411	227	2
2026-02-11	15:57:56.310	-1.155	-113.785	107.135	1.015772	0.061488	0.297436	0.1185	0.696	-0.0945	0	411	227	2
2026-02-11	15:57:56.330	-8.54	-112.035	105	1.046516	0.085888	0.2867	0.117	0.705	-0.0885	0	411	227	2
2026-02-11	15:57:56.350	-19.915	-107.905	99.47	1.053348	0.094184	0.269132	0.114	0.7185	-0.0705	0	411	227	2
2026-02-11	15:57:56.370	-31.115	-104.3	90.895	1.066036	0.06832	0.250588	0.1065	0.7275	-0.0525	0	411	227	2
2026-02-11	15:57:56.390	-30.205	-98.525	78.47	1.038708	0.037088	0.219112	0.1005	0.732	-0.048	0	411	227	2
2026-02-11	15:57:56.410	-17.29	-92.68	66.675	1.02114	0.025864	0.206668	0.1005	0.732	-0.048	0	396	217	3
2026-02-11	15:57:56.430	-4.095	-88.06	58.975	1.021872	0.001708	0.208376	0.1095	0.7785	0	0	396	217	3
2026-02-11	15:57:56.450	15.225	-82.845	52.64	1.037488	0.003904	0.203252	0.1155	0.7875	0.018	0	396	217	3
2026-02-11	15:57:56.470	38.535	-77.315	48.44	1.027972	0.0366	0.213012	0.12	0.792	0.0195	0	396	217	3
2026-02-11	15:57:56.490	52.185	-72.835	45.22	1.00894	0.086376	0.23058	0.1185	0.7875	0.024	0	396	217	3
2026-02-11	15:57:56.510	56.455	-70.315	42.28	0.9943	0.083204	0.252296	0.1125	0.7965	0.036	0	396	217	3
2026-02-11	15:57:56.530	62.51	-68.005	39.935	0.991372	0.083936	0.298168	0.1155	0.798	0.0405	0	396	217	3
2026-02-11	15:57:56.550	66.745	-64.785	39.69	0.995764	0.068564	0.345016	0.1215	0.801	0.045	0	396	217	3
2026-02-11	15:57:56.570	70.805	-59.955	39.165	0.952576	0.093452	0.351848	0.1245	0.813	0.0495	0	396	217	3
2026-02-11	15:57:56.590	66.675	-56.315	37.66	0.92598	0.115168	0.3538	0.1215	0.8235	0.054	0	396	217	3
2026-02-11	15:57:56.610	48.79	-51.135	35.84	0.88694	0.08906	0.361364	0.117	0.825	0.0555	0	367	219	3
2026-02-11	15:57:56.630	40.845	-47.67	34.475	0.900848	0.085644	0.315492	0.1185	0.8355	0.054	0	367	219	3
2026-02-11	15:57:56.650	35.875	-47.53	33.145	0.968192	0.135664	0.296948	0.135	0.831	0.0645	0	367	219	3
2026-02-11	15:57:56.670	18.515	-49.945	32.795	1.08946	0.156404	0.355752	0.1305	0.84	0.069	0	367	219	3
2026-02-11	15:57:56.690	-5.215	-49.175	31.5	1.150216	0.120048	0.442372	0.138	0.8415	0.0795	0	367	219	3
2026-02-11	15:57:56.710	-22.96	-43.26	28.21	1.164856	0.081008	0.445056	0.1395	0.8475	0.072	0	367	219	3
2026-02-11	15:57:56.730	-25.69	-36.12	22.645	1.17242	0.06832	0.396256	0.1395	0.843	0.081	0	367	219	3
2026-02-11	15:57:56.750	-21.315	-30.625	14.455	1.217804	0.102724	0.402112	0.1425	0.8475	0.0855	0	367	219	3
2026-02-11	15:57:56.770	-30.835	-25.48	6.475	1.217804	0.116876	0.48922	0.144	0.855	0.0975	0	367	219	3
2026-02-11	15:57:56.790	-51.905	-15.505	-0.595	1.169492	0.147864	0.543388	0.1455	0.852	0.1035	0	367	219	3
2026-02-11	15:57:56.810	-84.595	2.1	-10.01	1.194868	0.161772	0.536556	0.147	0.8475	0.1065	0	332	241	3
2026-02-11	15:57:56.830	-110.775	24.605	-18.83	1.214632	0.10248	0.493856	0.1485	0.8475	0.1125	0	332	241	3
2026-02-11	15:57:56.850	-104.335	43.015	-27.58	1.274168	0.082228	0.435296	0.135	0.855	0.126	0	332	241	3
2026-02-11	15:57:56.870	-76.545	59.535	-37.275	1.38836	0.097112	0.36966	0.129	0.849	0.1215	0	332	241	3
2026-02-11	15:57:56.890	-53.445	79.695	-47.67	1.340048	0.14274	0.27328	0.132	0.849	0.117	0	332	241	3
2026-02-11	15:57:56.910	-45.29	98.175	-58.415	1.289296	0.105408	0.17812	0.135	0.843	0.1155	0	332	241	3
2026-02-11	15:57:56.930	-36.33	112.91	-69.335	1.25904	0.118096	0.12078	0.126	0.825	0.096	0	332	241	3
2026-02-11	15:57:56.950	-23.835	121.03	-81.095	1.205604	0.103456	0.072956	0.105	0.8235	0.099	0	332	241	3
2026-02-11	15:57:56.970	-10.675	123.445	-91.105	1.229272	0.13542	0.049044	0.1095	0.8115	0.0855	0	332	241	3
2026-02-11	15:57:56.990	-1.82	122.99	-101.5	1.213168	0.147376	0.08418	0.1095	0.798	0.0645	0	332	241	3
2026-02-11	15:57:57.010	2.695	122.115	-107.205	1.214632	0.155184	0.144448	0.099	0.789	0.048	0	300	267	3
2026-02-11	15:57:57.030	12.6	126.77	-110.635	1.226588	0.106872	0.18056	0.093	0.783	0.0375	0	300	267	3
2026-02-11	15:57:57.050	44.45	134.435	-114.73	1.214388	0.029036	0.212524	0.093	0.783	0.0375	0	300	267	3
2026-02-11	15:57:57.070	92.33	141.75	-117.25	1.161684	-0.027816	0.172264	0.075	0.744	-0.015	0	300	267	3
2026-02-11	15:57:57.090	153.86	145.32	-120.26	1.07848	0.038308	0.040504	0.078	0.7185	-0.0495	0	300	267	3
2026-02-11	15:57:57.110	200.935	136.885	-124.775	1.01138	0.12322	-0.035136	0.081	0.7065	-0.0705	0	300	267	3
2026-02-11	15:57:57.130	219.835	121.17	-128.485	0.989664	0.211304	-0.022448	0.0885	0.675	-0.1065	0	300	267	3
2026-02-11	15:57:57.150	205.275	103.53	-130.305	0.99064	0.289628	0.041236	0.0975	0.633	-0.1185	0	300	267	3
2026-02-11	15:57:57.170	164.045	88.55	-130.34	0.968436	0.324276	0.059292	0.1005	0.6225	-0.1275	0	300	267	3
2026-02-11	15:57:57.190	112.315	73.99	-129.29	0.983564	0.311588	0.07515199	0.1125	0.597	-0.1395	0	300	267	3
2026-02-11	15:57:57.210	63.315	62.16	-124.705	0.987224	0.272304	0.07905599	0.1245	0.5685	-0.1455	0	275	262	3
2026-02-11	15:57:57.230	23.555	51.45	-118.02	1.0126	0.241804	0.068076	0.132	0.5445	-0.153	0	275	262	3
2026-02-11	15:57:57.250	-17.99	35.665	-104.755	1.020896	0.20618	0.0976	0.1365	0.534	-0.156	0	275	262	3
2026-02-11	15:57:57.270	-41.86	25.725	-92.96	1.029924	0.199104	0.13664	0.147	0.5055	-0.1665	0	275	262	3
2026-02-11	15:57:57.290	-66.325	19.495	-80.08	1.03578	0.181048	0.1525	0.162	0.504	-0.1695	0	275	262	3
2026-02-11	15:57:57.310	-88.795	11.725	-66.115	1.034804	0.172996	0.143472	0.1605	0.5055	-0.1665	0	275	262	3
2026-02-11	15:57:57.330	-108.15	0.945	-48.335	1.0126	0.160308	0.154208	0.165	0.501	-0.1785	0	275	262	3
2026-02-11	15:57:57.350	-126.84	-9.695	-27.93	0.95404	0.149084	0.240828	0.1635	0.504	-0.186	0	275	262	3
2026-02-11	15:57:57.370	-154.56	-17.535	-5.355	0.977464	0.160308	0.319884	0.171	0.5025	-0.1785	0	275	262	3
2026-02-11	15:57:57.390	-180.215	-23.625	15.68	0.962092	0.096136	0.28914	0.1665	0.5115	-0.1815	0	275	262	3
2026-02-11	15:57:57.410	-177.87	-35.35	32.445	0.932324	0.030744	0.195932	0.1665	0.531	-0.1875	0	256	235	3
2026-02-11	15:57:57.430	-149.345	-54.53	47.635	0.8845	0.016104	0.1342	0.165	0.5475	-0.1875	0	256	235	3
2026-02-11	15:57:57.450	-116.13	-79.695	63.525	0.81618	-0.005124	0.205204	0.162	0.564	-0.1785	0	256	235	3
2026-02-11	15:57:57.470	-90.895	-100.275	75.355	0.819108	-0.041724	0.225456	0.165	0.573	-0.1725	0	256	235	3
2026-02-11	15:57:57.490	-64.89	-115.325	80.57	0.835212	-0.01586	0.216428	0.1425	0.6195	-0.153	0	256	235	3
2026-02-11	15:57:57.510	-45.22	-128.87	83.23	0.856196	0.042456	0.200812	0.132	0.627	-0.144	0	256	235	3
2026-02-11	15:57:57.530	-42.385	-141.855	83.93	0.92964	0.121512	0.23424	0.12	0.6495	-0.129	0	256	235	3
2026-02-11	15:57:57.550	-65.8	-151.97	83.265	0.99674	0.161284	0.302804	0.123	0.6555	-0.108	0	256	235	3
2026-02-11	15:57:57.570	-108.36	-155.995	80.85	1.053592	0.177876	0.378444	0.102	0.669	-0.081	0	256	235	3
2026-02-11	15:57:57.590	-161	-152.845	75.985	1.072624	0.135176	0.42578	0.099	0.6765	-0.066	0	256	235	3
2026-02-11	15:57:57.610	-199.395	-144.375	67.515	1.080188	0.080032	0.349164	0.099	0.693	-0.0405	0	241	218	3
2026-02-11	15:57:57.630	-201.67	-130.83	56.28	1.123376	0.088816	0.227652	0.0975	0.7095	-0.015	0	241	218	3
2026-02-11	15:57:57.650	-198.8	-108.955	45.955	0.97478	0.174704	0.156892	0.0915	0.7245	0.0075	0	241	218	3
2026-02-11	15:57:57.670	-209.58	-123.725	28.875	1.002596	0.016348	0.097112	0.09	0.738	0.0315	0	241	218	3
2026-02-11	15:57:57.690	-169.785	-132.16	12.215	1.023824	-0.097844	0.169824	0.0885	0.744	0.048	0	241	218	3
2026-02-11	15:57:57.710	-121.17	-131.985	1.995	1.042368	-0.214232	0.298412	0.096	0.75	0.105	0	241	218	3
2026-02-11	15:57:57.730	-69.965	-127.19	-1.435	1.067988	-0.21472	0.35746	0.09	0.7425	0.1215	0	241	218	3
2026-02-11	15:57:57.750	-14.245	-119.455	-0.525	1.069452	-0.194712	0.37942	0.102	0.738	0.1425	0	241	218	3
2026-02-11	15:57:57.770	48.475	-110.985	2.31	1.061644	-0.210572	0.377224	0.105	0.7395	0.1635	0	241	218	3
2026-02-11	15:57:57.790	107.03	-104.93	5.775	1.069696	-0.081008	0.33794	0.102	0.7455	0.1695	0	241	218	3
2026-02-11	15:57:57.810	137.2	-99.4	10.92	1.059448	-0.073932	0.365268	0.1035	0.747	0.1815	0	231	222	3
2026-02-11	15:57:57.830	147.805	-90.755	18.76	1.083848	0.004636	0.374052	0.108	0.7515	0.1935	0	231	222	3
2026-02-11	15:57:57.850	148.75	-83.615	25.935	1.09068	0.02562	0.38552	0.1125	0.759	0.198	0	231	222	3
2026-02-11	15:57:57.870	140.385	-77	30.03	1.13216	0.086376	0.431392	0.1185	0.768	0.204	0	231	222	3
2026-02-11	15:57:57.890	109.13	-63.665	32.34	1.159	0.01098	0.517036	0.1215	0.7725	0.2055	0	231	222	3
2026-02-11	15:57:57.910	98	-50.47	31.01	1.149972	0.05368	0.51606	0.132	0.7905	0.2115	0	231	222	3
2026-02-11	15:57:57.930	81.06	-39.865	27.65	1.209508	0.103456	0.510204	0.138	0.7995	0.2085	0	231	222	3
2026-02-11	15:57:57.950	52.64	-29.715	22.295	1.331264	0.113704	0.542168	0.1515	0.807	0.2025	0	231	222	3
2026-02-11	15:57:57.970	24.71	-17.5	16.1	1.39446	0.031476	0.524112	0.153	0.8145	0.201	0	231	222	3
2026-02-11	15:57:57.990	19.11	-2.205	8.085	1.382504	-0.004148	0.44774	0.156	0.81	0.2085	0	231	222	3
2026-02-11	15:57:58.010	26.845	16.275	-3.08	1.231956	-0.018788	0.43554	0.1455	0.8115	0.1995	0	224	251	3
2026-02-11	15:57:58.030	30.1	26.425	-9.905	1.136064	-0.00854	0.4453	0.1485	0.8175	0.201	0	224	251	3
2026-02-11	15:57:58.050	30.59	41.58	-18.9	0.998204	0.040504	0.42578	0.1515	0.8175	0.198	0	224	251	3
2026-02-11	15:57:58.070	20.125	54.25	-26.67	0.970388	0.083448	0.391132	0.1485	0.8145	0.189	0	224	251	3
2026-02-11	15:57:58.090	-11.2	67.445	-32.725	1.044564	0.120292	0.35502	0.1425	0.819	0.1815	0	224	251	3
2026-02-11	15:57:58.110	-51.975	80.185	-34.965	1.139724	0.105408	0.302804	0.138	0.8205	0.1785	0	224	251	3
2026-02-11	15:57:58.130	-73.15	91.595	-34.37	1.207556	0.0244	0.236192	0.1365	0.8115	0.1575	0	224	251	3
2026-02-11	15:57:58.150	-69.23	103.985	-35.035	1.231468	0.023912	0.16592	0.129	0.8025	0.1575	0	224	251	3
2026-02-11	15:57:58.170	-54.915	112.21	-37.24	1.227564	0.01098	0.136396	0.1245	0.7995	0.1395	0	224	251	3
2026-02-11	15:57:58.190	-39.865	117.705	-40.25	1.209508	0.033428	0.130296	0.1215	0.7935	0.135	0	224	251	3
2026-02-11	15:57:58.210	-33.145	120.365	-44.03	1.237568	0.047092	0.1281	0.114	0.7875	0.123	0	220	285	3
2026-02-11	15:57:58.230	-33.11	122.815	-50.365	1.206092	0.052704	0.1342	0.117	0.7785	0.114	0	220	285	3
2026-02-11	15:57:58.250	-29.12	125.895	-54.635	1.145092	0.011956	0.13908	0.117	0.771	0.1005	0	220	285	3
2026-02-11	15:57:58.270	-12.39	126.7	-55.965	1.103612	0.016348	0.142008	0.1125	0.7695	0.09	0	220	285	3
2026-02-11	15:57:58.290	14.14	125.86	-61.95	1.045296	0.004636	0.11712	0.108	0.762	0.072	0	220	285	3
2026-02-11	15:57:58.310	50.19	122.08	-68.18	0.997716	0.041968	0.104676	0.1035	0.7575	0.0585	0	220	285	3
2026-02-11	15:57:58.330	71.715	115.78	-74.9	0.967948	0.085156	0.132736	0.1035	0.7575	0.0585	0	220	285	3
2026-02-11	15:57:58.350	67.515	110.845	-77.455	0.98698	0.08686399	0.140544	0.096	0.7335	0	0	220	285	3
2026-02-11	15:57:58.370	54.145	107.94	-75.6	0.984052	0.097356	0.119316	0.102	0.7245	-0.0105	0	220	285	3
2026-02-11	15:57:58.390	44.31	104.16	-72.1	0.971608	0.118096	0.080276	0.1035	0.7065	-0.033	0	220	285	3
2026-02-11	15:57:58.410	37.8	98.35	-68.74	0.986004	0.13298	0.066612	0.108	0.7005	-0.0465	0	217	286	3
2026-02-11	15:57:58.430	29.365	91.245	-63.84	1.023092	0.105652	0.0671	0.1065	0.693	-0.0525	0	217	286	3
2026-02-11	15:57:58.450	25.585	84.84	-56.875	1.014064	0.09028	0.066124	0.1035	0.69	-0.06	0	217	286	3
2026-02-11	15:57:58.470	26.18	76.265	-50.4	0.992348	0.0854	0.055388	0.102	0.681	-0.075	0	217	286	3
2026-02-11	15:57:58.490	28.21	63.945	-45.185	0.977952	0.083448	0.071004	0.105	0.6675	-0.0855	0	217	286	3
2026-02-11	15:57:58.510	29.995	50.435	-40.635	0.985028	0.083692	0.091988	0.1125	0.6555	-0.0915	0	217	286	3
2026-02-11	15:57:58.530	30.87	28.35	-30.275	1.042612	0.095648	0.10736	0.12	0.6525	-0.0945	0	217	286	3
2026-02-11	15:57:58.550	29.015	12.18	-20.335	1.023824	0.106384	0.129076	0.1185	0.6375	-0.102	0	217	286	3
2026-02-11	15:57:58.570	20.3	-5.565	-8.26	1.006988	0.103944	0.181536	0.12	0.639	-0.1125	0	217	286	3
2026-02-11	15:57:58.590	6.58	-21.455	5.39	0.97844	0.087108	0.254736	0.114	0.6375	-0.108	0	217	286	3
2026-02-11	15:57:58.610	-7.525	-33.32	20.44	0.955992	0.07198	0.274744	0.1095	0.6315	-0.108	0	213	258	3
2026-02-11	15:57:58.630	-13.545	-46.025	35.28	0.958432	0.06588	0.220332	0.1065	0.642	-0.096	0	213	258	3
2026-02-11	15:57:58.650	-7.77	-60.48	48.44	0.916464	0.082228	0.170068	0.105	0.6375	-0.0915	0	213	258	3
2026-02-11	15:57:58.670	-3.36	-76.055	58.275	0.89304	0.09857599	0.180804	0.1035	0.642	-0.084	0	213	258	3
2026-02-11	15:57:58.690	-13.44	-89.425	66.15	0.93452	0.071736	0.280356	0.102	0.6555	-0.072	0	213	258	3
2026-02-11	15:57:58.710	-28.7	-95.83	72.415	0.940132	0.076616	0.30622	0.102	0.6615	-0.063	0	213	258	3
2026-02-11	15:57:58.730	-48.405	-102.55	74.83	0.963068	0.095648	0.278404	0.099	0.675	-0.048	0	213	258	3
2026-02-11	15:57:58.750	-68.215	-109.305	72.975	1.041392	0.1098	0.246196	0.096	0.6855	-0.036	0	213	258	3
2026-02-11	15:57:58.770	-84.49	-113.47	68.46	1.084336	0.102968	0.244732	0.0975	0.702	-0.006	0	213	258	3
2026-02-11	15:57:58.790	-97.79	-114.31	61.6	1.06628	0.073688	0.266692	0.093	0.7125	0.012	0	213	258	3
2026-02-11	15:57:58.810	-102.34	-110.88	51.94	1.01016	0.049532	0.254492	0.0915	0.7305	0.0345	0	208	233	3
2026-02-11	15:57:58.830	-96.04	-108.045	43.855	0.992836	0.028792	0.232532	0.087	0.741	0.057	0	208	233	3
2026-02-11	15:57:58.850	-80.43	-103.425	36.26	0.932568	0.014152	0.211792	0.099	0.7395	0.0795	0	208	233	3
2026-02-11	15:57:58.870	-62.405	-99.155	28.49	0.892552	0.0244	0.205936	0.0975	0.7425	0.084	0	208	233	3
2026-02-11	15:57:58.890	-44.45	-95.305	20.895	0.884988	0.03172	0.213744	0.096	0.747	0.099	0	208	233	3
2026-02-11	15:57:58.910	-31.22	-91.385	15.33	0.875716	0.089548	0.21228	0.0975	0.7485	0.1155	0	208	233	3
2026-02-11	15:57:58.930	-25.585	-88.445	13.23	0.907436	0.030012	0.237656	0.102	0.753	0.1305	0	208	233	3
2026-02-11	15:57:58.950	-6.51	-82.04	10.29	0.998936	0.01586	0.280112	0.1065	0.756	0.1365	0	208	233	3
2026-02-11	15:57:58.970	15.19	-75.25	6.755	1.019432	-0.015616	0.309636	0.1065	0.756	0.1365	0	208	233	3
2026-02-11	15:57:58.990	42.385	-70.07	5.81	1.047248	-0.0671	0.385032	0.1065	0.762	0.174	0	208	233	3
2026-02-11	15:57:59.010	67.76	-61.215	6.405	1.014308	-0.040748	0.447984	0.1125	0.756	0.183	0	201	227	3
2026-02-11	15:57:59.030	85.435	-51.73	8.47	0.985272	-0.026596	0.453352	0.12	0.7605	0.18	0	201	227	3
2026-02-11	15:57:59.050	97.65	-42.735	9.205	0.97722	0.07905599	0.432368	0.123	0.771	0.1905	0	201	227	3
2026-02-11	15:57:59.070	84.84	-38.325	12.285	0.978684	0.114924	0.429684	0.123	0.7755	0.1875	0	201	227	3
2026-02-11	15:57:59.090	59.955	-34.335	17.605	1.083848	0.084912	0.454816	0.123	0.7755	0.1905	0	201	227	3
2026-02-11	15:57:59.110	39.2	-27.16	16.59	1.110444	0.061488	0.454816	0.1275	0.7755	0.195	0	201	227	3
2026-02-11	15:57:59.130	23.31	-20.23	18.27	1.204384	0.077348	0.421388	0.126	0.7845	0.192	0	201	227	3
2026-02-11	15:57:59.150	11.445	-15.925	18.655	1.347612	0.076616	0.381616	0.12	0.7875	0.1905	0	201	227	3
2026-02-11	15:57:59.170	-4.62	-8.82	18.41	1.436428	0.088816	0.383568	0.1215	0.786	0.1935	0	201	227	3
2026-02-11	15:57:59.190	-11.725	-2.205	14.315	1.402024	0.10858	0.394548	0.1305	0.795	0.198	0	201	227	3
2026-02-11	15:57:59.210	-20.44	5.04	7.805	1.27612	0.101016	0.416996	0.135	0.789	0.1905	0	193	248	3
2026-02-11	15:57:59.230	-27.195	14.035	-0.735	1.128988	0.06832	0.42578	0.1245	0.792	0.1935	0	193	248	3
2026-02-11	15:57:59.250	-32.025	24.465	-9.24	1.018944	0.045628	0.39894	0.1215	0.7935	0.189	0	193	248	3
2026-02-11	15:57:59.270	-38.15	34.37	-16.59	0.965996	0.061732	0.356728	0.123	0.792	0.195	0	193	248	3
2026-02-11	15:57:59.290	-50.33	42.91	-21.63	1.000644	0.098088	0.325984	0.1215	0.7875	0.192	0	193	248	3
2026-02-11	15:57:59.310	-63.91	51.485	-23.415	1.049688	0.087108	0.3111	0.12	0.7815	0.186	0	193	248	3
2026-02-11	15:57:59.330	-72.94	61.215	-23.555	1.077992	0.06832	0.288896	0.1185	0.7785	0.1845	0	193	248	3
2026-02-11	15:57:59.350	-76.09	71.225	-20.86	1.099464	0.069296	0.231556	0.114	0.7725	0.1815	0	193	248	3
2026-02-11	15:57:59.370	-73.885	78.54	-16.345	1.11386	0.06466	0.175192	0.111	0.765	0.1725	0	193	248	3
2026-02-11	15:57:59.390	-66.92	85.82	-10.22	1.1102	0.080764	0.128344	0.111	0.762	0.168	0	193	248	3
2026-02-11	15:57:59.410	-60.13	88.69	-7.91	1.097512	0.07564	0.131272	0.1035	0.7605	0.1485	0	188	275	3
2026-02-11	15:57:59.430	-51.485	91.63	-7.875	1.081896	0.103212	0.12932	0.0975	0.759	0.1335	0	188	275	3
2026-02-11	15:57:59.450	-48.23	93.73	-9.59	1.047248	0.10126	0.124196	0.0885	0.762	0.126	0	188	275	3
2026-02-11	15:57:59.470	-42.84	95.235	-13.09	1.018212	0.097356	0.12078	0.09	0.7515	0.1155	0	188	275	3
2026-02-11	15:57:59.490	-36.12	96.215	-18.235	0.998204	0.097356	0.1342	0.087	0.747	0.111	0	188	275	3
2026-02-11	15:57:59.510	-29.015	96.775	-23.625	0.992348	0.038064	0.16348	0.084	0.744	0.0945	0	188	275	3
2026-02-11	15:57:59.530	-9.73	99.54	-28.63	0.994788	0.020008	0.156648	0.087	0.747	0.078	0	188	275	3
2026-02-11	15:57:59.550	14.56	103.565	-33.39	0.98698	0.03538	0.124928	0.084	0.7485	0.063	0	188	275	3
2026-02-11	15:57:59.570	35.035	104.895	-37.765	0.971852	0.007076	0.122244	0.0795	0.747	0.045	0	188	275	3
2026-02-11	15:57:59.590	62.51	105.665	-41.16	0.99186	-0.00854	0.122976	0.0795	0.747	0.036	0	188	275	3
2026-02-11	15:57:59.610	89.39	106.68	-43.925	1.003328	-0.00122	0.132004	0.0795	0.747	0.036	0	183	277	3
2026-02-11	15:57:59.630	102.515	105.84	-43.715	1.038952	-0.068808	0.177144	0.084	0.7245	-0.0165	0	183	277	3
2026-02-11	15:57:59.650	119.21	107.485	-39.305	1.03456	-0.034404	0.177876	0.081	0.714	-0.039	0	183	277	3
2026-02-11	15:57:59.670	129.08	104.335	-36.155	1.038464	0.048556	0.142984	0.087	0.7065	-0.063	0	183	277	3
2026-02-11	15:57:59.690	128.905	96.18	-36.4	1.05164	0.102968	0.11834	0.09	0.708	-0.069	0	183	277	3
2026-02-11	15:57:59.710	119.385	84.245	-37.17	1.063352	0.12078	0.107116	0.0915	0.699	-0.0795	0	183	277	3
2026-02-11	15:57:59.730	103.04	67.865	-33.635	1.138504	0.106384	0.155916	0.0945	0.684	-0.1035	0	183	277	3
2026-02-11	15:57:59.750	82.425	54.215	-23.975	1.13582	0.070028	0.247416	0.102	0.672	-0.1185	0	183	277	3
2026-02-11	15:57:59.770	62.965	44.03	-11.76	1.072624	0.08052	0.254248	0.108	0.6675	-0.1245	0	183	277	3
2026-02-11	15:57:59.790	48.475	30.275	-0.525	1.029436	0.083692	0.213012	0.108	0.6645	-0.1335	0	183	277	3
2026-02-11	15:57:59.810	45.43	3.395	16.59	1.001132	0.060512	0.177632	0.1095	0.6585	-0.1425	0	178	257	3
2026-02-11	15:57:59.830	52.605	-17.08	31.57	0.976488	0.084668	0.203496	0.1095	0.6585	-0.1425	0	178	257	3
2026-02-11	15:57:59.850	52.5	-35.945	45.29	0.904508	0.106628	0.27206	0.114	0.6525	-0.144	0	178	257	3
2026-02-11	15:57:59.870	39.97	-50.085	56.35	0.82106	0.111508	0.292556	0.1065	0.6615	-0.1365	0	178	257	3
2026-02-11	15:57:59.890	22.47	-62.615	65.065	0.77104	0.131028	0.244976	0.105	0.6645	-0.1305	0	178	257	3
2026-02-11	15:57:59.910	4.2	-76.195	71.96	0.744932	0.152012	0.195444	0.1005	0.6675	-0.123	0	178	257	3
2026-02-11	15:57:59.930	-15.61	-90.44	75.215	0.739076	0.20008	0.202032	0.0975	0.678	-0.1095	0	178	257	3
2026-02-11	15:57:59.950	-55.195	-102.655	74.48	0.80886	0.170312	0.359168	0.0945	0.6915	-0.096	0	178	257	3
2026-02-11	15:57:59.970	-108.395	-103.355	73.71	0.930372	0.148352	0.418216	0.087	0.7035	-0.084	0	178	257	3
2026-02-11	15:57:59.990	-144.375	-99.68	70.665	0.964776	0.099308	0.322568	0.0795	0.7185	-0.0645	0	178	257	3
2026-02-11	15:58:00.010	-150.85	-98.805	60.865	0.979904	0.054168	0.169092	0.078	0.729	-0.051	0	173	241	3
2026-02-11	15:58:00.030	-126.49	-102.235	50.68	0.993568	0.013664	0.101748	0.078	0.729	-0.051	0	173	241	3
2026-02-11	15:58:00.050	-102.375	-105.875	43.225	1.001864	0.01342	0.1464	0.0795	0.771	0.0135	0	173	241	3
2026-02-11	15:58:00.070	-91.35	-104.65	39.62	1.029436	-0.089304	0.254736	0.081	0.7755	0.042	0	173	241	3
2026-02-11	15:58:00.090	-63.91	-97.825	38.15	1.01016	-0.145668	0.22326	0.072	0.78	0.057	0	173	241	3
2026-02-11	15:58:00.110	-11.095	-94.15	34.3	0.962092	-0.10004	0.182756	0.084	0.786	0.078	0	173	241	3
2026-02-11	15:58:00.130	36.225	-94.675	31.885	0.95404	-0.033916	0.186904	0.084	0.7905	0.0885	0	173	241	3
2026-02-11	15:58:00.150	67.83	-97.615	31.885	0.953796	0.004148	0.23912	0.081	0.7935	0.1035	0	173	241	3
2026-02-11	15:58:00.170	87.5	-99.575	33.25	0.964532	0.042212	0.333548	0.0825	0.798	0.114	0	173	241	3
2026-02-11	15:58:00.190	91.245	-97.755	36.05	0.96746	0.088328	0.41846	0.087	0.804	0.12	0	173	241	3
2026-02-11	15:58:00.210	77.105	-93.765	39.27	0.9821	0.125416	0.445788	0.09	0.81	0.1275	0	169	237	3
2026-02-11	15:58:00.230	45.36	-88.305	41.79	0.97234	0.138592	0.466284	0.0975	0.8205	0.141	0	169	237	3
2026-02-11	15:58:00.250	6.3	-82.355	42.21	1.005524	0.109556	0.541436	0.102	0.828	0.147	0	169	237	3
2026-02-11	15:58:00.270	-22.75	-73.395	41.195	1.053836	0.072956	0.543876	0.1035	0.828	0.171	0	169	237	3
2026-02-11	15:58:00.290	-35.945	-62.265	38.325	1.103368	0.016836	0.518988	0.117	0.837	0.1725	0	169	237	3
2026-02-11	15:58:00.310	-37.415	-51.765	33.075	1.132892	0.01342	0.494588	0.126	0.828	0.189	0	169	237	3
2026-02-11	15:58:00.330	-34.545	-40.215	28.315	1.153876	-0.051728	0.496784	0.1275	0.849	0.1935	0	169	237	3
2026-02-11	15:58:00.350	-28.7	-27.37	23.03	1.219512	-0.05734	0.464576	0.1275	0.846	0.2055	0	169	237	3
2026-02-11	15:58:00.370	-20.23	-14.315	15.225	1.289784	-0.010004	0.416264	0.1305	0.8505	0.2175	0	169	237	3
2026-02-11	15:58:00.390	-16.31	-1.155	5.53	1.345172	-0.01098	0.36478	0.132	0.8565	0.216	0	169	237	3
2026-02-11	15:58:00.410	-10.605	14.385	-6.09	1.351028	-0.020496	0.345504	0.135	0.8595	0.2205	0	168	260	3
2026-02-11	15:58:00.430	-3.185	27.055	-17.01	1.320528	-0.040504	0.3721	0.1335	0.861	0.2265	0	168	260	3
2026-02-11	15:58:00.450	10.5	45.815	-29.575	1.19682	-0.032208	0.393328	0.129	0.861	0.2265	0	168	260	3
2026-02-11	15:58:00.470	16.8	58.625	-36.995	1.099708	-0.000732	0.37332	0.129	0.861	0.2265	0	168	260	3
2026-02-11	15:58:00.490	18.025	70.525	-43.785	1.052616	0.04148	0.346724	0.114	0.846	0.2085	0	168	260	3
2026-02-11	15:58:00.510	13.335	80.395	-49.56	1.035048	0.039528	0.323056	0.102	0.8355	0.1995	0	168	260	3
2026-02-11	15:58:00.530	11.9	88.34	-54.88	1.050664	0.01464	0.287676	0.1065	0.828	0.189	0	168	260	3
2026-02-11	15:58:00.550	22.995	94.71	-60.725	1.084824	0.01098	0.25132	0.102	0.8235	0.183	0	168	260	3
2026-02-11	15:58:00.570	36.715	99.085	-66.43	1.128744	0.012932	0.23668	0.0915	0.816	0.1695	0	168	260	3
2026-02-11	15:58:00.590	46.2	101.955	-70.735	1.186328	0.023424	0.23546	0.0795	0.804	0.1545	0	168	260	3
2026-02-11	15:58:00.610	56.105	103.95	-73.64	1.204628	0.003904	0.192272	0.0705	0.7935	0.138	0	168	289	3
2026-02-11	15:58:00.630	92.33	101.325	-78.155	1.1956	-0.015372	0.169824	0.063	0.7875	0.123	0	168	289	3
2026-02-11	15:58:00.650	139.44	98.56	-87.185	1.141188	0.002928	0.154452	0.0555	0.7755	0.1035	0	168	289	3
2026-02-11	15:58:00.670	185.675	93.45	-98.665	1.011136	0.133712	0.13054	0.0525	0.768	0.09	0	168	289	3
2026-02-11	15:58:00.690	188.44	87.955	-104.86	0.957456	0.193004	0.127368	0.0465	0.7335	0.051	0	168	289	3
2026-02-11	15:58:00.710	172.865	80.745	-109.9	0.933544	0.234484	0.118828	0.0285	0.7065	0.027	0	168	289	3
2026-02-11	15:58:00.730	146.405	73.045	-111.615	0.90768	0.263032	0.100528	0.0375	0.693	0.018	0	168	289	3
2026-02-11	15:58:00.750	111.3	65.24	-110.81	0.917684	0.308904	0.110776	0.036	0.657	-0.003	0	168	289	3
2026-02-11	15:58:00.770	64.295	59.605	-108.22	0.916952	0.317932	0.116388	0.036	0.651	-0.0075	0	168	289	3
2026-02-11	15:58:00.790	15.645	55.195	-102.725	0.90768	0.28792	0.10004	0.036	0.633	-0.0165	0	168	289	3
2026-02-11	15:58:00.810	-19.39	51.8	-94.535	0.903044	0.229848	0.090524	0.0405	0.6135	-0.024	0	169	290	3
2026-02-11	15:58:00.830	-41.02	49.14	-84.77	0.879864	0.207888	0.088572	0.042	0.5955	-0.0345	0	169	290	3
2026-02-11	15:58:00.850	-57.89	45.22	-74.235	0.899384	0.193004	0.079544	0.0495	0.582	-0.045	0	169	290	3
2026-02-11	15:58:00.870	-74.935	38.885	-58.485	0.918416	0.166408	0.081008	0.054	0.5745	-0.048	0	169	290	3
2026-02-11	15:58:00.890	-87.185	31.78	-40.6	0.936716	0.145424	0.097112	0.0525	0.573	-0.0465	0	169	290	3
2026-02-11	15:58:00.910	-90.58	25.235	-24.71	0.965264	0.111508	0.091988	0.0585	0.555	-0.0675	0	169	290	3
2026-02-11	15:58:00.930	-78.05	16.52	-10.745	0.962092	0.094184	0.081496	0.0705	0.5475	-0.078	0	169	290	3
2026-02-11	15:58:00.950	-56.735	5.985	2.94	0.964532	0.081008	0.086376	0.0645	0.561	-0.075	0	169	290	3
2026-02-11	15:58:00.970	-38.01	-5.39	16.415	1.008696	0.080032	0.122976	0.0645	0.5595	-0.075	0	169	290	3
2026-02-11	15:58:00.990	-24.815	-16.24	31.325	1.068476	0.099308	0.151524	0.066	0.564	-0.0765	0	169	290	3
2026-02-11	15:58:01.010	-15.155	-25.48	45.22	1.040172	0.11346	0.17934	0.066	0.567	-0.072	0	171	263	3
2026-02-11	15:58:01.030	-8.96	-35.98	57.575	1.031388	0.120292	0.15128	0.0645	0.573	-0.069	0	171	263	3
2026-02-11	15:58:01.050	-5.075	-45.395	71.54	1.074088	0.173728	0.130296	0.0645	0.5835	-0.069	0	171	263	3
2026-02-11	15:58:01.070	-29.12	-49.315	87.325	1.097512	0.339892	0.189344	0.0645	0.594	-0.063	0	171	263	3
2026-02-11	15:58:01.090	-166.495	-71.75	104.335	1.014552	0.272304	0.233508	0.066	0.6	-0.057	0	171	263	3
2026-02-11	15:58:01.110	-205.66	-93.73	102.095	0.985516	0.13298	0.2501	0.066	0.6	-0.057	0	171	263	3
2026-02-11	15:58:01.130	-210.385	-106.995	94.43	0.97234	0.055388	0.299144	0.051	0.6615	-0.015	0	171	263	3
2026-02-11	15:58:01.150	-207.76	-114.17	83.72	0.981124	-0.104432	0.452864	0.057	0.69	0.0045	0	171	263	3
2026-02-11	15:58:01.170	-187.88	-106.995	73.885	0.99064	-0.178364	0.467504	0.0525	0.7005	0.0315	0	171	263	3
2026-02-11	15:58:01.190	-143.99	-97.825	62.265	0.984052	-0.227896	0.383812	0.054	0.708	0.039	0	171	263	3
2026-02-11	15:58:01.210	-75.04	-90.545	51.03	0.98698	-0.280112	0.294752	0.0555	0.72	0.0585	0	173	236	3
2026-02-11	15:58:01.230	3.71	-84.665	44.17	0.996496	-0.264984	0.215208	0.051	0.729	0.0765	0	173	236	3
2026-02-11	15:58:01.250	63.28	-81.305	41.58	1.0004	-0.146888	0.185928	0.051	0.7365	0.0855	0	173	236	3
2026-02-11	15:58:01.270	92.365	-82.985	40.81	0.98698	-0.077104	0.173728	0.054	0.7425	0.096	0	173	236	3
2026-02-11	15:58:01.290	108.675	-82.915	40.25	0.963068	0.005612	0.203496	0.0645	0.747	0.108	0	173	236	3
2026-02-11	15:58:01.310	106.54	-80.57	39.795	0.9211	0.088328	0.263764	0.0735	0.7485	0.1095	0	173	236	3
2026-02-11	15:58:01.330	94.255	-76.93	38.885	0.927932	0.13542	0.306464	0.069	0.7635	0.1305	0	173	236	3
2026-02-11	15:58:01.350	76.86	-69.055	40.46	0.926468	0.156404	0.355264	0.078	0.78	0.1275	0	173	236	3
2026-02-11	15:58:01.370	58.065	-59.535	40.495	0.91866	0.154208	0.379664	0.0855	0.7875	0.144	0	173	236	3
2026-02-11	15:58:01.390	43.645	-51.73	37.87	0.909876	0.134688	0.334036	0.084	0.789	0.147	0	173	236	3
2026-02-11	15:58:01.410	39.34	-46.62	37.03	0.920368	0.113704	0.307196	0.0855	0.7935	0.153	0	175	232	3
2026-02-11	15:58:01.430	37.87	-44.765	36.855	0.96136	0.082716	0.315248	0.087	0.801	0.1545	0	175	232	3
2026-02-11	15:58:01.450	38.64	-43.225	37.59	0.989908	0.05246	0.345748	0.0915	0.8055	0.1575	0	175	232	3
2026-02-11	15:58:01.470	46.55	-40.04	37.415	0.96868	0.02196	0.355508	0.0975	0.813	0.1635	0	175	232	3
2026-02-11	15:58:01.490	64.12	-36.015	34.58	0.929396	0.037332	0.343796	0.099	0.819	0.165	0	175	232	3
2026-02-11	15:58:01.510	79.45	-31.99	28.805	0.948428	0.074664	0.349896	0.1035	0.8175	0.1605	0	175	232	3
2026-02-11	15:58:01.530	77.77	-28.14	22.995	1.031144	0.100772	0.39406	0.1065	0.8145	0.1575	0	175	232	3
2026-02-11	15:58:01.550	65.065	-23.17	16.975	1.067256	0.083692	0.417972	0.111	0.8325	0.162	0	175	232	3
2026-02-11	15:58:01.570	51.59	-17.115	9.31	1.12118	0.085156	0.41236	0.1125	0.84	0.159	0	175	232	3
2026-02-11	15:58:01.590	35.945	-12.425	1.995	1.200968	0.102236	0.39406	0.117	0.846	0.159	0	175	232	3
2026-02-11	15:58:01.610	15.925	-9.1	-4.655	1.331508	0.12078	0.377224	0.12	0.843	0.159	0	176	249	3
2026-02-11	15:58:01.630	-4.515	-5.25	-9.695	1.414224	0.074176	0.395036	0.1185	0.8385	0.1575	0	176	249	3
2026-02-11	15:58:01.650	-15.68	1.47	-14.56	1.399584	0.06344	0.400404	0.117	0.837	0.153	0	176	249	3
2026-02-11	15:58:01.670	-24.29	7.91	-18.76	1.311012	0.062464	0.424804	0.1155	0.8415	0.1575	0	176	249	3
2026-02-11	15:58:01.690	-33.32	16.135	-22.645	1.19316	0.062708	0.447984	0.1155	0.84	0.1575	0	176	249	3
2026-02-11	15:58:01.710	-51.275	28.7	-27.37	1.103124	0.171044	0.459696	0.111	0.8325	0.156	0	176	249	3
2026-02-11	15:58:01.730	-136.78	56.735	-33.075	0.965264	0.2501	0.354532	0.105	0.831	0.162	0	176	249	3
2026-02-11	15:58:01.750	-197.155	64.12	-35.84	0.965996	0.159088	0.284016	0.105	0.831	0.162	0	176	249	3
2026-02-11	15:58:01.770	-225.33	66.92	-35.735	1.012844	0.035624	0.210328	0.0975	0.8055	0.165	0	176	249	3
2026-02-11	15:58:01.790	-222.845	70.875	-32.97	1.056764	-0.07564	0.176656	0.096	0.798	0.1695	0	176	249	3
2026-02-11	15:58:01.810	-199.395	75.39	-28.665	1.136796	-0.110044	0.162504	0.0975	0.7905	0.1725	0	177	276	3
2026-02-11	15:58:01.830	-166.425	80.78	-24.885	1.19682	-0.170312	0.178852	0.0915	0.783	0.1755	0	177	276	3
2026-02-11	15:58:01.850	-119.035	88.375	-21.245	1.18462	-0.19886	0.201056	0.0855	0.774	0.171	0	177	276	3
2026-02-11	15:58:01.870	-65.485	95.305	-19.775	1.14802	-0.20008	0.233752	0.084	0.768	0.1695	0	177	276	3
2026-02-11	15:58:01.890	-11.62	102.83	-20.23	1.073356	-0.149328	0.216184	0.0795	0.765	0.1575	0	177	276	3
2026-02-11	15:58:01.910	36.295	107.065	-23.59	1.011868	-0.142984	0.183976	0.0735	0.756	0.141	0	177	276	3
2026-02-11	15:58:01.930	81.235	111.02	-28.63	0.968436	-0.099552	0.155672	0.072	0.7515	0.123	0	177	276	3
2026-02-11	15:58:01.950	125.405	111.3	-39.445	0.92476	-0.022692	0.13054	0.075	0.7545	0.111	0	177	276	3
2026-02-11	15:58:01.970	140.07	108.57	-47.74	0.90402	0.0305	0.12688	0.0705	0.75	0.069	0	177	276	3
2026-02-11	15:58:01.990	140.84	104.195	-53.585	0.9211	0.07198	0.124196	0.0705	0.741	0.051	0	177	276	3
2026-02-11	15:58:02.010	134.785	99.645	-58.38	0.942084	0.0793	0.124928	0.0675	0.726	0.03	0	179	284	3
2026-02-11	15:58:02.030	126.42	94.22	-61.495	0.965996	0.109068	0.139812	0.066	0.723	0.021	0	179	284	3
2026-02-11	15:58:02.050	109.095	88.375	-63.805	0.982344	0.14884	0.148108	0.0675	0.708	0.0015	0	179	284	3
2026-02-11	15:58:02.070	81.27	81.83	-63.7	0.987712	0.15128	0.173728	0.069	0.6945	-0.018	0	179	284	3
2026-02-11	15:58:02.090	50.4	76.545	-60.48	1.025532	0.125416	0.170312	0.069	0.687	-0.033	0	179	284	3
2026-02-11	15:58:02.110	31.01	71.715	-54.88	1.036268	0.10492	0.156404	0.0705	0.672	-0.045	0	179	284	3
2026-02-11	15:58:02.130	20.09	63.875	-52.5	0.996496	0.101748	0.149816	0.0765	0.657	-0.0555	0	179	284	3
2026-02-11	15:58:02.150	4.62	51.695	-49.63	0.988444	0.09028	0.146888	0.081	0.6525	-0.066	0	179	284	3
2026-02-11	15:58:02.170	-8.47	36.085	-47.985	1.055788	0.05612	0.140056	0.0795	0.651	-0.0705	0	179	284	3
2026-02-11	15:58:02.190	-11.41	20.895	-41.125	1.117032	0.055632	0.153476	0.087	0.639	-0.0885	0	179	284	3
2026-02-11	15:58:02.210	-17.36	4.69	-30.24	1.097756	0.049288	0.216672	0.087	0.63	-0.093	0	181	268	3
2026-02-11	15:58:02.230	-27.51	-10.64	-16.555	1.0858	0.020008	0.291336	0.0795	0.6225	-0.087	0	181	268	3
2026-02-11	15:58:02.250	-36.89	-22.89	0.805	1.061888	0.008784	0.303048	0.0795	0.6255	-0.0825	0	181	268	3
2026-02-11	15:58:02.270	-36.015	-37.31	20.16	1.045296	0	0.244244	0.0825	0.6285	-0.0765	0	181	268	3
2026-02-11	15:58:02.290	-19.53	-55.51	37.31	1.012356	0.043188	0.18422	0.0795	0.6345	-0.0705	0	181	268	3
2026-02-11	15:58:02.310	-7.63	-73.5	52.115	0.93696	0.04148	0.26474	0.078	0.6405	-0.0675	0	181	268	3
2026-02-11	15:58:02.330	-11.2	-83.825	65.625	0.888404	-0.023912	0.365756	0.081	0.645	-0.0555	0	181	268	3
2026-02-11	15:58:02.350	-12.32	-88.2	76.79	0.882548	-0.014396	0.33916	0.075	0.657	-0.0375	0	181	268	3
2026-02-11	15:58:02.370	-8.435	-95.27	83.125	0.878644	0.028548	0.28304	0.0705	0.663	-0.0315	0	181	268	3
2026-02-11	15:58:02.390	-12.74	-103.04	83.545	0.966972	0.09076799	0.267912	0.0705	0.663	-0.0315	0	181	268	3
2026-02-11	15:58:02.410	-35.63	-106.785	77.315	1.049444	0.109068	0.317932	0.069	0.6975	0.012	0	180	253	3
2026-02-11	15:58:02.430	-66.22	-104.895	65.905	1.026508	0.078324	0.357216	0.0705	0.705	0.0225	0	180	253	3
2026-02-11	15:58:02.450	-86.8	-99.855	51.31	0.997472	0.017568	0.336232	0.0675	0.714	0.036	0	180	253	3
2026-02-11	15:58:02.470	-88.76	-91.805	35.77	0.959652	0.012932	0.287676	0.0645	0.7245	0.06	0	180	253	3
2026-02-11	15:58:02.490	-84.49	-84.84	22.155	0.940132	-0.02318	0.231068	0.069	0.732	0.0765	0	180	253	3
2026-02-11	15:58:02.510	-68.565	-78.12	10.5	0.906216	-0.052948	0.229604	0.0735	0.738	0.0945	0	180	253	3
2026-02-11	15:58:02.530	-47.95	-70.595	3.535	0.903776	-0.10004	0.28426	0.075	0.738	0.108	0	180	253	3
2026-02-11	15:58:02.550	-22.4	-60.515	2.345	0.90646	-0.1342	0.242048	0.0765	0.738	0.1155	0	180	253	3
2026-02-11	15:58:02.570	20.265	-52.85	4.41	0.88206	-0.146644	0.179828	0.075	0.7395	0.1275	0	180	253	3
2026-02-11	15:58:02.590	99.19	-53.97	7.77	0.89182	-0.049288	0.172996	0.0765	0.7395	0.1335	0	180	253	3
2026-02-11	15:58:02.610	126.98	-58.695	15.68	0.91378	0.0427	0.233996	0.084	0.7395	0.135	0	177	250	3
2026-02-11	15:58:02.630	127.4	-62.93	26.635	0.953552	0.119804	0.30378	0.084	0.753	0.1515	0	177	250	3
2026-02-11	15:58:02.650	107.03	-64.89	36.575	0.974536	0.162992	0.342576	0.075	0.7545	0.15	0	177	250	3
2026-02-11	15:58:02.670	84.28	-66.29	44.66	0.958188	0.11468	0.376736	0.081	0.7575	0.15	0	177	250	3
2026-02-11	15:58:02.690	69.51	-65.345	52.57	0.963068	0.108092	0.43188	0.0945	0.762	0.156	0	177	250	3
2026-02-11	15:58:02.710	50.96	-63.49	58.87	0.997472	0.088572	0.458476	0.099	0.774	0.1665	0	177	250	3
2026-02-11	15:58:02.730	34.895	-61.6	62.23	1.035536	0.08418	0.431392	0.0975	0.789	0.1725	0	177	250	3
2026-02-11	15:58:02.750	22.645	-60.13	62.545	1.092876	0.090524	0.423584	0.108	0.7965	0.177	0	177	250	3
2026-02-11	15:58:02.770	9.31	-57.82	61.425	1.14802	0.068808	0.433832	0.1155	0.8085	0.186	0	177	250	3
2026-02-11	15:58:02.790	-3.71	-51.8	57.54	1.207312	0.043676	0.43798	0.12	0.8145	0.1935	0	177	250	3
2026-02-11	15:58:02.810	-5.67	-42.07	50.925	1.290516	0.0427	0.406992	0.126	0.816	0.1965	0	173	263	3
2026-02-11	15:58:02.830	-3.605	-32.27	43.645	1.342732	0.050264	0.398208	0.1395	0.8235	0.204	0	173	263	3
2026-02-11	15:58:02.850	-2.31	-20.755	33.285	1.326872	0.05734	0.388692	0.141	0.8265	0.216	0	173	263	3
2026-02-11	15:58:02.870	-0.035	-8.47	22.155	1.309548	0.070028	0.380152	0.1455	0.831	0.219	0	173	263	3
2026-02-11	15:58:02.890	2.485	4.97	8.575	1.273436	0.095648	0.386008	0.1485	0.837	0.2205	0	173	263	3
2026-02-11	15:58:02.910	0.91	19.04	-6.16	1.1773	0.068808	0.420168	0.1485	0.837	0.2175	0	173	263	3
2026-02-11	15:58:02.930	3.815	34.72	-20.475	1.050176	0.038796	0.410408	0.1515	0.8355	0.216	0	173	263	3
2026-02-11	15:58:02.950	12.18	46.445	-32.655	1.006256	0.023424	0.360632	0.153	0.834	0.2145	0	173	263	3
2026-02-11	15:58:02.970	19.775	58.765	-43.225	1.01748	0.050264	0.338428	0.144	0.828	0.21	0	173	263	3
2026-02-11	15:58:02.990	18.06	70.42	-51.66	1.057496	0.050264	0.313052	0.132	0.8235	0.198	0	173	263	3
2026-02-11	15:58:03.010	15.68	82.74	-60.27	1.109224	0.047336	0.293532	0.132	0.822	0.192	0	170	288	3
2026-02-11	15:58:03.030	16.8	93.1	-67.375	1.143384	0.041724	0.264008	0.132	0.822	0.192	0	170	288	3
2026-02-11	15:58:03.050	24.08	98.35	-73.535	1.14436	0.05734	0.235216	0.111	0.798	0.156	0	170	288	3
2026-02-11	15:58:03.070	28.245	100.73	-79.24	1.150216	0.09467199	0.225212	0.1095	0.792	0.1455	0	170	288	3
2026-02-11	15:58:03.090	21.105	101.885	-82.88	1.14924	0.100772	0.226676	0.1035	0.7875	0.138	0	170	288	3
2026-02-11	15:58:03.110	12.285	103.39	-85.26	1.125084	0.09272	0.206668	0.096	0.774	0.12	0	170	288	3
2026-02-11	15:58:03.130	10.78	103.88	-88.445	1.066524	0.095892	0.177876	0.096	0.7575	0.1005	0	170	288	3
2026-02-11	15:58:03.150	15.015	101.71	-92.995	1.028948	0.07808	0.18788	0.0915	0.741	0.0855	0	170	288	3
2026-02-11	15:58:03.170	17.29	99.995	-96.355	0.998692	0.042944	0.2562	0.087	0.732	0.0705	0	170	288	3
2026-02-11	15:58:03.190	20.37	102.41	-96.39	0.967948	0.044408	0.24278	0.0885	0.726	0.054	0	170	288	3
2026-02-11	15:58:03.210	31.36	102.655	-95.41	0.95892	0.060268	0.194468	0.0825	0.7125	0.0345	0	167	301	3
2026-02-11	15:58:03.230	38.64	98.175	-93.625	0.990152	0.07905599	0.199592	0.078	0.7065	0.0225	0	167	301	3
2026-02-11	15:58:03.250	32.935	95.585	-88.865	0.99796	0.082228	0.232532	0.087	0.6735	-0.0075	0	167	301	3
2026-02-11	15:58:03.270	23.555	93.765	-81.69	1.000888	0.071004	0.242536	0.0735	0.6585	-0.0165	0	167	301	3
2026-02-11	15:58:03.290	19.39	92.295	-74.83	0.998204	0.0793	0.204472	0.078	0.6525	-0.024	0	167	301	3
2026-02-11	15:58:03.310	18.55	88.235	-69.16	1.010892	0.081252	0.16348	0.087	0.6435	-0.0375	0	167	301	3
2026-02-11	15:58:03.330	16.065	81.97	-61.915	1.011624	0.073688	0.184464	0.09	0.63	-0.051	0	167	301	3
2026-02-11	15:58:03.350	10.15	75.425	-54.04	1.013332	0.07198	0.223016	0.087	0.618	-0.066	0	167	301	3
2026-02-11	15:58:03.370	3.08	68.53	-47.67	0.998936	0.056852	0.218868	0.0915	0.615	-0.075	0	167	301	3
2026-02-11	15:58:03.390	1.68	59.535	-41.685	1.014308	0.043432	0.182024	0.099	0.606	-0.081	0	167	301	3
2026-02-11	15:58:03.410	5.285	46.9	-33.565	1.064084	0.056852	0.147864	0.1065	0.5955	-0.087	0	164	294	3
2026-02-11	15:58:03.430	8.155	27.615	-19.005	1.069696	0.054168	0.195444	0.1065	0.594	-0.0945	0	164	294	3
2026-02-11	15:58:03.450	9.17	10.535	-2.135	0.998936	0.03294	0.251564	0.102	0.5955	-0.0975	0	164	294	3
2026-02-11	15:58:03.470	13.125	-1.33	13.16	0.97356	0.047092	0.250588	0.114	0.591	-0.1035	0	164	294	3
2026-02-11	15:58:03.490	17.57	-14	29.33	0.930616	0.078324	0.22326	0.111	0.5925	-0.099	0	164	294	3
2026-02-11	15:58:03.510	18.97	-29.4	44.87	0.891088	0.112972	0.203008	0.114	0.5955	-0.096	0	164	294	3
2026-02-11	15:58:03.530	14	-45.64	57.47	0.81862	0.137616	0.211548	0.117	0.597	-0.093	0	164	294	3
2026-02-11	15:58:03.550	0.245	-61.18	66.71	0.788608	0.127856	0.221796	0.1125	0.6015	-0.087	0	164	294	3
2026-02-11	15:58:03.570	-13.3	-74.83	74.585	0.825452	0.128832	0.220576	0.105	0.612	-0.078	0	164	294	3
2026-02-11	15:58:03.590	-28.42	-85.645	80.71	0.859856	0.124928	0.233264	0.1035	0.621	-0.069	0	164	294	3
2026-02-11	15:58:03.610	-43.505	-92.785	84.175	0.893772	0.115656	0.22936	0.096	0.6315	-0.0585	0	158	276	3
2026-02-11	15:58:03.630	-55.195	-97.93	84.77	0.93574	0.121268	0.202032	0.087	0.648	-0.0465	0	158	276	3
2026-02-11	15:58:03.650	-62.79	-103.355	82.985	0.98942	0.09857599	0.188124	0.0855	0.6585	-0.0375	0	158	276	3
2026-02-11	15:58:03.670	-61.495	-106.26	80.22	1.012112	0.065392	0.184952	0.0855	0.6585	-0.0375	0	158	276	3
2026-02-11	15:58:03.690	-45.675	-108.15	76.86	1.008696	0.025132	0.14396	0.0915	0.6855	0.0195	0	158	276	3
2026-02-11	15:58:03.710	-4.445	-110.74	74.305	1.025044	0.019276	0.122	0.096	0.7125	0.0285	0	158	276	3
2026-02-11	15:58:03.730	48.615	-111.86	73.255	1.01016	0.094916	0.121512	0.093	0.7155	0.039	0	158	276	3
2026-02-11	15:58:03.750	82.39	-114.87	74.83	0.987224	0.112728	0.146644	0.096	0.723	0.057	0	158	276	3
2026-02-11	15:58:03.770	102.865	-115.78	75.39	1.005036	0.144936	0.219112	0.099	0.732	0.069	0	158	276	3
2026-02-11	15:58:03.790	111.125	-112.385	76.3	1.037488	0.159576	0.286212	0.099	0.741	0.0765	0	158	276	3
2026-02-11	15:58:03.810	118.58	-106.82	76.44	1.055544	0.189588	0.326472	0.102	0.7545	0.087	0	153	258	2
2026-02-11	15:58:03.830	114.38	-101.85	75.985	1.07604	0.271572	0.360388	0.108	0.7635	0.099	0	153	258	2
2026-02-11	15:58:03.850	84.35	-97.3	76.405	1.044808	0.304268	0.430904	0.1155	0.7725	0.111	0	153	258	2
2026-02-11	15:58:03.870	11.865	-90.405	72.975	1.076284	0.295972	0.570472	0.117	0.7815	0.1185	0	153	258	2
2026-02-11	15:58:03.890	-38.255	-81.655	71.435	1.066524	0.25986	0.60878	0.123	0.798	0.1365	0	153	258	2
2026-02-11	15:58:03.910	-71.75	-74.515	65.905	1.088484	0.180804	0.581452	0.141	0.813	0.147	0	153	258	2
2026-02-11	15:58:03.930	-79.8	-67.095	57.715	1.067256	0.144692	0.566568	0.138	0.8115	0.1575	0	153	258	2
2026-02-11	15:58:03.950	-76.37	-59.465	49.84	1.128744	0.139568	0.558516	0.144	0.8175	0.171	0	153	258	2
2026-02-11	15:58:03.970	-88.795	-49	43.225	1.172664	0.073444	0.619272	0.1545	0.822	0.1845	0	153	258	2
2026-02-11	15:58:03.990	-92.365	-37.485	38.15	1.140944	-0.064416	0.564616	0.156	0.8235	0.195	0	153	258	2
2026-02-11	15:58:04.010	-62.895	-24.71	29.96	1.170468	-0.049044	0.507764	0.1575	0.828	0.1965	0	150	268	3
2026-02-11	15:58:04.030	-50.61	-14.77	27.055	1.222928	-0.010736	0.48312	0.162	0.8265	0.21	0	150	268	3
2026-02-11	15:58:04.050	-44.24	0.455	19.425	1.279536	0.063196	0.473604	0.1725	0.825	0.225	0	150	268	3
2026-02-11	15:58:04.070	-44.975	18.445	6.65	1.304912	0.051972	0.458964	0.177	0.825	0.2265	0	150	268	3
2026-02-11	15:58:04.090	-41.86	36.05	-6.16	1.289784	0.038796	0.435296	0.1755	0.825	0.2265	0	150	268	3
2026-02-11	15:58:04.110	-37.835	50.155	-16.975	1.206824	0.027572	0.41724	0.168	0.819	0.2205	0	150	268	3
2026-02-11	15:58:04.130	-33.635	63.455	-26.46	1.091656	-0.005856	0.382348	0.165	0.8205	0.225	0	150	268	3
2026-02-11	15:58:04.150	-22.05	76.93	-34.86	1.006012	-0.010248	0.331596	0.165	0.819	0.2205	0	150	268	3
2026-02-11	15:58:04.170	-7.245	89.705	-42.77	0.9882	0.006832	0.274744	0.162	0.8145	0.213	0	150	268	3
2026-02-11	15:58:04.190	5.915	98.805	-51.1	1.025776	0.050508	0.226676	0.153	0.8055	0.201	0	150	268	3
2026-02-11	15:58:04.210	15.995	103.705	-58.765	1.155096	0.027816	0.19276	0.147	0.8025	0.1905	0	151	303	3
2026-02-11	15:58:04.230	36.575	110.95	-66.85	1.199016	0.033428	0.196176	0.1425	0.7965	0.177	0	151	303	3
2026-02-11	15:58:04.250	53.34	112.035	-70.805	1.279536	0.075884	0.170312	0.132	0.786	0.162	0	151	303	3
2026-02-11	15:58:04.270	61.04	111.685	-73.255	1.297104	0.116388	0.149328	0.126	0.78	0.141	0	151	303	3
2026-02-11	15:58:04.290	57.645	107.835	-76.02	1.266116	0.144204	0.119316	0.126	0.777	0.129	0	151	303	3
2026-02-11	15:58:04.310	53.97	101.99	-77	1.205604	0.14762	0.116876	0.126	0.777	0.129	0	151	303	3
2026-02-11	15:58:04.330	50.89	98.49	-77.175	1.11386	0.179584	0.103944	0.114	0.747	0.0825	0	151	303	3
2026-02-11	15:58:04.350	42.105	93.555	-79.38	1.019676	0.181536	0.096868	0.111	0.741	0.075	0	151	303	3
2026-02-11	15:58:04.370	28.805	88.34	-81.865	0.94306	0.209108	0.089548	0.105	0.7335	0.06	0	151	303	3
2026-02-11	15:58:04.390	4.515	82.04	-84.875	0.89914	0.204228	0.086376	0.105	0.7215	0.048	0	151	303	3
2026-02-11	15:58:04.410	-24.08	76.44	-85.12	0.898408	0.154452	0.092232	0.1005	0.708	0.036	0	155	311	3
2026-02-11	15:58:04.430	-38.78	73.5	-83.335	0.908412	0.1464	0.075884	0.093	0.699	0.027	0	155	311	3
2026-02-11	15:58:04.450	-44.275	69.895	-80.605	0.922808	0.129564	0.051728	0.0945	0.69	0.018	0	155	311	3
2026-02-11	15:58:04.470	-46.13	64.12	-76.265	0.944524	0.117852	0.067832	0.1005	0.681	0.006	0	155	311	3
2026-02-11	15:58:04.490	-48.405	59.325	-70.91	0.943548	0.103212	0.097356	0.1035	0.6705	0.003	0	155	311	3
2026-02-11	15:58:04.510	-46.83	54.635	-60.76	0.957944	0.06954	0.09272	0.099	0.6645	0.006	0	155	311	3
2026-02-11	15:58:04.530	-35.07	50.855	-54.46	0.944768	0.071004	0.061732	0.102	0.651	-0.0165	0	155	311	3
2026-02-11	15:58:04.550	-22.575	42.105	-48.65	0.961604	0.082716	0.052216	0.1125	0.6405	-0.0195	0	155	311	3
2026-02-11	15:58:04.570	-16.765	30.87	-43.995	0.949648	0.10126	0.09028	0.111	0.639	-0.0255	0	155	311	3
2026-02-11	15:58:04.590	-22.26	18.97	-39.55	0.977708	0.0915	0.154452	0.1065	0.639	-0.0285	0	155	311	3
2026-02-11	15:58:04.610	-31.395	9.03	-33.04	1.016016	0.07124799	0.187148	0.1065	0.6345	-0.0285	0	161	284	3
2026-02-11	15:58:04.630	-35.91	-1.225	-23.73	1.05408	0.050996	0.192516	0.1095	0.63	-0.0315	0	161	284	3
2026-02-11	15:58:04.650	-36.54	-13.335	-11.025	1.085312	0.0366	0.217404	0.1125	0.63	-0.03	0	161	284	3
2026-02-11	15:58:04.670	-35.245	-25.305	3.57	1.12728	0.029524	0.262788	0.114	0.63	-0.0285	0	161	284	3
2026-02-11	15:58:04.690	-35.91	-35.49	20.615	1.13826	0.02684	0.285724	0.108	0.633	-0.03	0	161	284	3
2026-02-11	15:58:04.710	-29.96	-47.39	38.78	1.0858	0.007564	0.256688	0.108	0.6345	-0.0225	0	161	284	3
2026-02-11	15:58:04.730	-14.07	-61.355	53.305	1.008696	0	0.233996	0.111	0.633	-0.0135	0	161	284	3
2026-02-11	15:58:04.750	0.63	-72.45	60.865	0.931836	0.007808	0.230092	0.1065	0.663	-0.0045	0	161	284	3
2026-02-11	15:58:04.770	9.45	-82.25	63.84	0.905484	0.049532	0.254736	0.105	0.66	0.003	0	161	284	3
2026-02-11	15:58:04.790	-0.49	-87.745	63.84	0.900116	0.04392	0.391864	0.1035	0.6615	0.0135	0	161	284	3
2026-02-11	15:58:04.810	-30.17	-82.95	64.435	0.900604	0.011224	0.466528	0.099	0.672	0.024	0	166	253	3
2026-02-11	15:58:04.830	-52.92	-75.705	62.545	0.897676	-0.017812	0.390644	0.1005	0.681	0.0345	0	166	253	3
2026-02-11	15:58:04.850	-50.61	-71.96	57.855	0.919392	-0.071004	0.286944	0.105	0.6915	0.0465	0	166	253	3
2026-02-11	15:58:04.870	-23.485	-71.19	54.04	0.944036	-0.100284	0.218136	0.1065	0.6975	0.0585	0	166	253	3
2026-02-11	15:58:04.890	12.355	-72.31	51.275	0.964044	-0.07515199	0.175924	0.108	0.7035	0.072	0	166	253	3
2026-02-11	15:58:04.910	38.57	-74.62	51.555	0.983808	-0.012932	0.160064	0.111	0.717	0.087	0	166	253	3
2026-02-11	15:58:04.930	53.865	-78.855	51.765	0.98332	0.051972	0.182024	0.117	0.723	0.09	0	166	253	3
2026-02-11	15:58:04.950	61.775	-82.18	51.66	0.963312	0.06832	0.221064	0.117	0.723	0.09	0	166	253	3
2026-02-11	15:58:04.970	68.18	-82.495	51.31	0.939644	0.097844	0.25742	0.126	0.738	0.12	0	166	253	3
2026-02-11	15:58:04.990	65.905	-81.48	51.415	0.91744	0.113216	0.293776	0.1245	0.7425	0.123	0	166	253	3
2026-02-11	15:58:05.010	57.4	-80.115	51.695	0.941596	0.117852	0.328668	0.1245	0.7515	0.126	0	168	242	3
2026-02-11	15:58:05.030	47.81	-77.175	52.745	0.926712	0.117852	0.352092	0.1275	0.7575	0.1365	0	168	242	3
2026-02-11	15:58:05.050	38.955	-75.355	53.97	0.952088	0.114436	0.355752	0.1305	0.765	0.1455	0	168	242	3
2026-02-11	15:58:05.070	33.845	-74.2	54.845	0.970632	0.120048	0.346968	0.1365	0.7755	0.15	0	168	242	3
2026-02-11	15:58:05.090	28.245	-72.975	55.86	0.995032	0.11468	0.360388	0.1455	0.7875	0.1605	0	168	242	3
2026-02-11	15:58:05.110	21.56	-70.14	56	1.003328	0.107848	0.38796	0.153	0.792	0.171	0	168	242	3
2026-02-11	15:58:05.130	11.725	-66.325	54.775	1.007964	0.098088	0.393328	0.159	0.7965	0.177	0	168	242	3
2026-02-11	15:58:05.150	-0.735	-60.41	50.4	1.072624	0.103456	0.397476	0.1635	0.8025	0.18	0	168	242	3
2026-02-11	15:58:05.170	-9.8	-54.39	45.745	1.101416	0.09076799	0.442128	0.1755	0.813	0.189	0	168	242	3
2026-02-11	15:58:05.190	-15.82	-45.85	39.34	1.096292	0.030744	0.457744	0.1755	0.816	0.1935	0	168	242	3
2026-02-11	15:58:05.210	-15.33	-35.245	31.22	1.136064	0.059292	0.457988	0.18	0.8205	0.2025	0	169	254	2
2026-02-11	15:58:05.230	-17.71	-25.97	23.1	1.238056	0.054656	0.442372	0.1845	0.822	0.207	0	169	254	2
2026-02-11	15:58:05.250	-18.2	-14.91	13.475	1.328824	0.042944	0.41724	0.189	0.822	0.213	0	169	254	2
2026-02-11	15:58:05.270	-12.18	-3.57	3.29	1.362496	-0.024888	0.35868	0.1875	0.8265	0.2205	0	169	254	2
2026-02-11	15:58:05.290	9.765	8.12	-6.51	1.347124	-0.095648	0.31598	0.189	0.828	0.2235	0	169	254	2
2026-02-11	15:58:05.310	50.225	19.775	-16.765	1.228296	-0.113948	0.34648	0.1935	0.828	0.2205	0	169	254	2
2026-02-11	15:58:05.330	92.225	30.835	-26.11	1.067988	-0.088084	0.366	0.1905	0.828	0.21	0	169	254	2
2026-02-11	15:58:05.350	127.715	41.79	-35.91	0.930128	0	0.362096	0.186	0.828	0.1995	0	169	254	2
2026-02-11	15:58:05.370	132.685	48.825	-43.4	0.942084	0.132248	0.338428	0.1875	0.831	0.192	0	169	254	2
2026-02-11	15:58:05.390	115.815	53.025	-47.775	1.022848	0.194468	0.345016	0.1785	0.825	0.1665	0	169	254	2
2026-02-11	15:58:05.410	88.13	56.525	-52.15	1.087752	0.24522	0.342576	0.177	0.8265	0.1575	0	169	280	3
2026-02-11	15:58:05.430	47.6	60.655	-56.595	1.14436	0.256688	0.305488	0.1725	0.8265	0.1425	0	169	280	3
2026-02-11	15:58:05.450	8.785	65.24	-61.005	1.184864	0.225944	0.266692	0.1695	0.822	0.1305	0	169	280	3
2026-02-11	15:58:05.470	-19.495	70.385	-65.8	1.224148	0.1952	0.239608	0.165	0.8145	0.123	0	169	280	3
2026-02-11	15:58:05.490	-40.495	75.005	-71.435	1.269044	0.16104	0.238388	0.159	0.8115	0.114	0	169	280	3
2026-02-11	15:58:05.510	-52.535	80.885	-79.66	1.238788	0.078568	0.230092	0.1515	0.8025	0.1005	0	169	280	3
2026-02-11	15:58:05.530	-31.92	86.73	-90.825	1.19926	0.04392	0.207888	0.147	0.7905	0.0945	0	169	280	3
2026-02-11	15:58:05.550	9.73	92.155	-104.02	1.102148	0.020984	0.171776	0.1425	0.7815	0.0855	0	169	280	3
2026-02-11	15:58:05.570	57.47	94.5	-116.55	1.010404	0.032696	0.117364	0.138	0.777	0.0795	0	169	280	3
2026-02-11	15:58:05.590	97.86	91.91	-127.505	0.955748	0.109312	0.111508	0.138	0.777	0.0795	0	169	280	3
2026-02-11	15:58:05.610	111.58	82.74	-136.675	0.951844	0.15128	0.134688	0.12	0.7305	0.0345	0	169	294	3
2026-02-11	15:58:05.630	108.01	73.64	-142.24	0.958432	0.177144	0.148596	0.12	0.7185	0.024	0	169	294	3
2026-02-11	15:58:05.650	92.61	68.25	-140.875	0.954284	0.208864	0.14152	0.1245	0.6945	0.009	0	169	294	3
2026-02-11	15:58:05.670	71.19	62.37	-136.185	0.960384	0.25742	0.122976	0.123	0.678	-0.003	0	169	294	3
2026-02-11	15:58:05.690	44.765	56.63	-130.76	0.950868	0.26596	0.110532	0.117	0.663	-0.012	0	169	294	3
2026-02-11	15:58:05.710	16.31	51.24	-123.095	0.927444	0.249856	0.10126	0.117	0.639	-0.018	0	169	294	3
2026-02-11	15:58:05.730	-10.885	44.905	-112.98	0.911584	0.212036	0.10736	0.12	0.621	-0.027	0	169	294	3
2026-02-11	15:58:05.750	-26.04	39.375	-99.33	0.9028	0.144936	0.125416	0.123	0.609	-0.033	0	169	294	3
2026-02-11	15:58:05.770	-19.635	33.81	-84.945	0.912316	0.126392	0.115412	0.1275	0.603	-0.036	0	169	294	3
2026-02-11	15:58:05.790	2.03	20.86	-63	0.95526	0.150792	0.108336	0.1305	0.6015	-0.039	0	169	294	3
2026-02-11	15:58:05.810	4.48	9.065	-46.55	1.021872	0.15738	0.132736	0.126	0.582	-0.051	0	170	281	3
2026-02-11	15:58:05.830	2.205	-0.735	-24.43	1.068232	0.185928	0.18788	0.126	0.5745	-0.048	0	170	281	3
2026-02-11	15:58:05.850	-5.915	-7.175	-1.295	1.002352	0.192028	0.265472	0.1305	0.5685	-0.0435	0	170	281	3
2026-02-11	15:58:05.870	-21	-12.005	21.105	0.94916	0.212768	0.264252	0.1365	0.573	-0.045	0	170	281	3
2026-02-11	15:58:05.890	-37.73	-18.725	42.735	0.950624	0.20862	0.2074	0.1365	0.576	-0.0435	0	170	281	3
2026-02-11	15:58:05.910	-45.815	-29.19	61.74	0.99064	0.198372	0.142008	0.132	0.579	-0.0405	0	170	281	3
2026-02-11	15:58:05.930	-48.79	-41.58	79.835	1.009672	0.191296	0.164944	0.132	0.5895	-0.036	0	170	281	3
2026-02-11	15:58:05.950	-63.07	-50.89	96.32	0.966728	0.194224	0.260592	0.129	0.6015	-0.0315	0	170	281	3
2026-02-11	15:58:05.970	-87.535	-57.61	107.905	0.9211	0.172996	0.293776	0.1245	0.615	-0.0255	0	170	281	3
2026-02-11	15:58:05.990	-109.69	-66.185	114.59	0.944524	0.152988	0.281088	0.126	0.633	-0.0165	0	170	281	3
2026-02-11	15:58:06.010	-130.06	-80.535	115.08	0.947696	0.136152	0.26108	0.126	0.645	-0.015	0	171	256	3
2026-02-11	15:58:06.030	-139.475	-90.755	110.005	1.00162	0.126392	0.262056	0.12	0.6825	0.0135	0	171	256	3
2026-02-11	15:58:06.050	-146.86	-98.315	100.94	1.037976	0.107116	0.284748	0.1155	0.6885	0.024	0	171	256	3
2026-02-11	15:58:06.070	-151.41	-101.43	88.97	1.048956	0.070028	0.301096	0.12	0.7035	0.0435	0	171	256	3
2026-02-11	15:58:06.090	-140.455	-101.29	73.955	1.035536	0.002928	0.27084	0.1275	0.717	0.0615	0	171	256	3
2026-02-11	15:58:06.110	-111.58	-97.65	59.78	1.01016	0.02074	0.24034	0.1245	0.729	0.078	0	171	256	3
2026-02-11	15:58:06.130	-87.78	-93.1	48.055	0.976244	0.030256	0.220088	0.1305	0.7395	0.093	0	171	256	3
2026-02-11	15:58:06.150	-72.485	-87.745	39.235	0.953308	-0.020008	0.253516	0.138	0.744	0.108	0	171	256	3
2026-02-11	15:58:06.170	-46.515	-79.38	33.705	0.940376	-0.056608	0.230336	0.135	0.747	0.129	0	171	256	3
2026-02-11	15:58:06.190	-5.81	-72.17	30.765	0.92354	-0.04758	0.190564	0.138	0.7485	0.138	0	171	256	3
2026-02-11	15:58:06.210	46.445	-68.46	28.455	0.920124	-0.003172	0.183976	0.1425	0.7485	0.1365	0	169	243	3
2026-02-11	15:58:06.230	86.555	-66.325	28.98	0.924028	0.055144	0.23424	0.1425	0.7485	0.1365	0	169	243	3
2026-02-11	15:58:06.250	99.505	-64.645	30.765	0.942816	0.061	0.298412	0.156	0.768	0.162	0	169	243	3
2026-02-11	15:58:06.270	107.17	-60.55	35.455	0.96746	0.087108	0.312564	0.156	0.771	0.1575	0	169	243	3
2026-02-11	15:58:06.290	110.005	-58.45	40.635	1.012844	0.137372	0.311832	0.1575	0.78	0.159	0	169	243	3
2026-02-11	15:58:06.310	102.725	-56.805	44.52	1.012112	0.122732	0.368928	0.1635	0.7845	0.168	0	169	243	3
2026-02-11	15:58:06.330	93.905	-53.13	49.875	1.012112	0.105408	0.385764	0.1695	0.7935	0.1665	0	169	243	3
2026-02-11	15:58:06.350	89.81	-50.47	54.39	1.005768	0.102724	0.351848	0.1725	0.804	0.1665	0	169	243	3
2026-02-11	15:58:06.370	86.94	-49.945	57.645	1.036512	0.16104	0.337696	0.1785	0.8115	0.1665	0	169	243	3
2026-02-11	15:58:06.390	70.315	-51.17	59.255	1.095804	0.171288	0.40382	0.186	0.819	0.1635	0	169	243	3
2026-02-11	15:58:06.410	44.03	-49.105	59.325	1.131184	0.138836	0.482632	0.1875	0.825	0.1695	0	165	247	2
2026-02-11	15:58:06.430	11.865	-39.34	55.545	1.171932	0.152256	0.471652	0.1875	0.8295	0.174	0	165	247	2
2026-02-11	15:58:06.450	-6.265	-34.055	49.945	1.262456	0.144692	0.438712	0.195	0.837	0.1755	0	165	247	2
2026-02-11	15:58:06.470	-19.25	-27.02	42.945	1.306864	0.142008	0.423584	0.207	0.852	0.1755	0	165	247	2
2026-02-11	15:58:06.490	-29.47	-18.69	33.075	1.319796	0.171532	0.410896	0.2115	0.858	0.177	0	165	247	2
2026-02-11	15:58:06.510	-40.25	-9.87	21.245	1.31272	0.160552	0.410164	0.213	0.861	0.1815	0	165	247	2
2026-02-11	15:58:06.530	-49.7	2.695	7.805	1.22854	0.133224	0.420412	0.2235	0.867	0.1875	0	165	247	2
2026-02-11	15:58:06.550	-54.635	17.255	-6.09	1.092388	0.106628	0.405528	0.231	0.867	0.198	0	165	247	2
2026-02-11	15:58:06.570	-51.625	31.29	-20.72	0.957212	0.108092	0.366488	0.2235	0.864	0.2025	0	165	247	2
2026-02-11	15:58:06.590	-52.08	41.755	-33.25	0.933056	0.09516	0.322568	0.219	0.858	0.207	0	165	247	2
2026-02-11	15:58:06.610	-55.545	53.445	-42.035	0.99186	0.064416	0.294508	0.216	0.8535	0.2085	0	162	270	3
2026-02-11	15:58:06.630	-54.635	66.99	-49.14	1.062864	0.055388	0.267668	0.2115	0.849	0.201	0	162	270	3
2026-02-11	15:58:06.650	-51.135	84.7	-58.485	1.143872	0.055632	0.209108	0.2085	0.8475	0.1965	0	162	270	3
2026-02-11	15:58:06.670	-52.22	92.505	-63.42	1.181936	0.062952	0.18422	0.1935	0.828	0.1935	0	162	270	3
2026-02-11	15:58:06.690	-54.075	97.02	-66.85	1.212192	0.03416	0.190076	0.1905	0.8205	0.1935	0	162	270	3
2026-02-11	15:58:06.710	-50.085	100.765	-68.67	1.206092	0.02074	0.194468	0.183	0.8085	0.186	0	162	270	3
2026-02-11	15:58:06.730	-43.365	104.475	-70.245	1.182668	0.021228	0.182756	0.1725	0.8025	0.1785	0	162	270	3
2026-02-11	15:58:06.750	-30.24	106.225	-72.52	1.158268	0.021472	0.171288	0.1635	0.789	0.174	0	162	270	3
2026-02-11	15:58:06.770	-17.64	107.24	-74.41	1.112884	0.006832	0.199104	0.1545	0.7755	0.1635	0	162	270	3
2026-02-11	15:58:06.790	-8.365	109.41	-75.04	1.049444	-0.009516	0.2196	0.147	0.7695	0.159	0	162	270	3
2026-02-11	15:58:06.810	4.69	110.88	-74.725	0.985028	0.00366	0.189588	0.141	0.7575	0.147	0	160	285	3
2026-02-11	15:58:06.830	17.92	110.88	-74.515	0.938424	0.032208	0.15738	0.138	0.744	0.129	0	160	285	3
2026-02-11	15:58:06.850	26.215	106.61	-71.505	0.915244	0.02684	0.164456	0.129	0.7335	0.114	0	160	285	3
2026-02-11	15:58:06.870	28.525	100.66	-67.165	0.914512	0.039284	0.172264	0.1215	0.729	0.108	0	160	285	3
2026-02-11	15:58:06.890	27.265	95.935	-63.385	0.894992	0.064904	0.144204	0.12	0.7155	0.093	0	160	285	3
2026-02-11	15:58:06.910	24.255	88.655	-59.5	0.88938	0.057096	0.127124	0.1215	0.6945	0.0675	0	160	285	3
2026-02-11	15:58:06.930	21.665	81.375	-52.115	0.908412	0.063684	0.131516	0.1215	0.6825	0.0555	0	160	285	3
2026-02-11	15:58:06.950	16.835	74.06	-43.4	0.9272	0.057584	0.144936	0.117	0.6735	0.048	0	160	285	3
2026-02-11	15:58:06.970	15.68	65.835	-34.685	0.970144	0.048312	0.132004	0.1125	0.666	0.0345	0	160	285	3
2026-02-11	15:58:06.990	23.345	56.245	-27.16	0.9943	0.055876	0.120048	0.111	0.66	0.0255	0	160	285	3
2026-02-11	15:58:07.010	29.295	45.395	-18.655	1.054324	0.078324	0.122976	0.1155	0.6525	0.015	0	159	276	3
2026-02-11	15:58:07.030	30.275	34.545	-11.585	1.06018	0.102968	0.13786	0.1185	0.645	0.0015	0	159	276	3
2026-02-11	15:58:07.050	23.135	22.155	-6.475	1.092876	0.111996	0.145668	0.12	0.6435	-0.003	0	159	276	3
2026-02-11	15:58:07.070	6.44	0	4.375	1.123376	0.094428	0.20496	0.1215	0.6435	-0.0045	0	159	276	3
2026-02-11	15:58:07.090	-3.22	-13.125	13.475	1.094828	0.075396	0.2745	0.123	0.639	-0.003	0	159	276	3
2026-02-11	15:58:07.110	-12.915	-23.03	22.715	1.092876	0.094428	0.289384	0.12	0.636	-0.003	0	159	276	3
2026-02-11	15:58:07.130	-23.205	-31.71	31.185	1.120692	0.05734	0.288408	0.117	0.6405	-0.006	0	159	276	3
2026-02-11	15:58:07.150	-26.355	-38.85	37.975	1.07482	0.045872	0.254736	0.1185	0.6465	-0.0045	0	159	276	3
2026-02-11	15:58:07.170	-20.545	-47.005	41.44	1.003816	0.0366	0.214232	0.1185	0.6525	-0.0015	0	159	276	3
2026-02-11	15:58:07.190	-12.32	-55.79	41.86	0.960384	0.050508	0.198128	0.117	0.6615	0.003	0	159	276	3
2026-02-11	15:58:07.210	-13.055	-62.79	41.44	0.958432	0.025864	0.275232	0.1215	0.663	0.0135	0	158	256	3
2026-02-11	15:58:07.230	-21.385	-62.335	41.825	0.930128	0.007076	0.3294	0.1215	0.666	0.0195	0	158	256	3
2026-02-11	15:58:07.250	-23.905	-58.31	40.775	0.871812	-0.001952	0.292556	0.114	0.6735	0.021	0	158	256	3
2026-02-11	15:58:07.270	-13.51	-55.615	37.31	0.844972	-0.019276	0.218624	0.1155	0.675	0.0315	0	158	256	3
2026-02-11	15:58:07.290	19.11	-56.42	32.97	0.837164	0.007808	0.147376	0.1185	0.6765	0.0435	0	158	256	3
2026-02-11	15:58:07.310	34.125	-60.2	32.41	0.85766	0.040504	0.141276	0.117	0.687	0.042	0	158	256	3
2026-02-11	15:58:07.330	43.575	-65.555	32.2	0.8906	0.062464	0.14274	0.114	0.7005	0.051	0	158	256	3
2026-02-11	15:58:07.350	52.255	-71.925	32.445	0.926468	0.083204	0.15128	0.1185	0.708	0.06	0	158	256	3
2026-02-11	15:58:07.370	58.975	-78.295	34.37	0.945988	0.092476	0.158844	0.1245	0.7125	0.0645	0	158	256	3
2026-02-11	15:58:07.390	62.825	-83.895	37.765	0.958188	0.123952	0.183976	0.126	0.711	0.075	0	158	256	3
2026-02-11	15:58:07.410	59.78	-88.025	41.65	0.952332	0.16226	0.210572	0.123	0.714	0.0885	0	155	242	3
2026-02-11	15:58:07.430	48.09	-91.49	45.745	0.944524	0.190808	0.238144	0.12	0.717	0.0945	0	155	242	3
2026-02-11	15:58:07.450	30.765	-93.135	50.295	0.956236	0.1891	0.304024	0.123	0.7275	0.102	0	155	242	3
2026-02-11	15:58:07.470	9.59	-92.435	56.14	0.9821	0.173728	0.325008	0.129	0.741	0.114	0	155	242	3
2026-02-11	15:58:07.490	-14.455	-91.875	62.79	0.982344	0.183732	0.30134	0.1305	0.7425	0.12	0	155	242	3
2026-02-11	15:58:07.510	-37.87	-93.24	65.45	0.974292	0.1952	0.329644	0.1365	0.7515	0.132	0	155	242	3
2026-02-11	15:58:07.530	-62.685	-92.96	66.815	1.004548	0.131516	0.428952	0.1425	0.762	0.153	0	155	242	3
2026-02-11	15:58:07.550	-80.78	-87.115	66.535	1.005768	0.060512	0.45872	0.147	0.768	0.1695	0	155	242	3
2026-02-11	15:58:07.570	-73.605	-82.74	67.375	1.012112	0.019276	0.403088	0.1575	0.78	0.186	0	155	242	3
2026-02-11	15:58:07.590	-50.47	-78.925	64.75	1.06506	0.031232	0.406016	0.165	0.786	0.195	0	155	242	3
2026-02-11	15:58:07.610	-38.08	-74.445	61.18	1.127768	0.045872	0.46116	0.1695	0.7875	0.2055	0	153	242	2
2026-02-11	15:58:07.630	-38.92	-67.305	57.435	1.209996	-0.001708	0.480192	0.1755	0.7935	0.2235	0	153	242	2
2026-02-11	15:58:07.650	-35.175	-54.81	48.895	1.254404	0.000732	0.477752	0.183	0.7995	0.231	0	153	242	2
2026-02-11	15:58:07.670	-26.635	-40.635	39.095	1.304668	0.024156	0.433588	0.186	0.804	0.237	0	153	242	2
2026-02-11	15:58:07.690	-24.465	-27.09	27.335	1.375916	0.070272	0.404552	0.1875	0.7995	0.2445	0	153	242	2
2026-02-11	15:58:07.710	-31.29	-5.74	6.405	1.3725	0.077592	0.379908	0.186	0.7965	0.2475	0	153	242	2
2026-02-11	15:58:07.730	-35.77	10.01	-7.455	1.309304	0.055876	0.378932	0.1875	0.7995	0.2505	0	153	242	2
2026-02-11	15:58:07.750	-36.4	24.92	-18.725	1.2139	0.037576	0.380396	0.1875	0.8025	0.2535	0	153	242	2
2026-02-11	15:58:07.770	-33.355	39.55	-28.105	1.0858	0.02074	0.362096	0.1875	0.801	0.2475	0	153	242	2
2026-02-11	15:58:07.790	-24.745	53.27	-36.575	0.9577	0.035868	0.323788	0.1815	0.798	0.243	0	153	242	2
2026-02-11	15:58:07.810	-19.88	63.42	-43.715	0.93208	0.071736	0.287676	0.177	0.792	0.2415	0	153	265	3
2026-02-11	15:58:07.830	-22.68	71.155	-49.735	0.961604	0.102236	0.265472	0.1785	0.7875	0.2295	0	153	265	3
2026-02-11	15:58:07.850	-32.725	78.26	-54.635	1.016992	0.116388	0.255712	0.1665	0.786	0.222	0	153	265	3
2026-02-11	15:58:07.870	-47.04	85.26	-57.925	1.06994	0.109068	0.232776	0.1545	0.78	0.216	0	153	265	3
2026-02-11	15:58:07.890	-62.755	90.545	-59.115	1.121424	0.096624	0.197884	0.147	0.7635	0.2055	0	153	265	3
2026-02-11	15:58:07.910	-75.145	94.395	-58.52	1.165588	0.078812	0.157136	0.1365	0.75	0.1965	0	153	265	3
2026-02-11	15:58:07.930	-83.965	97.965	-55.3	1.199992	0.065392	0.1281	0.126	0.741	0.1845	0	153	265	3
2026-02-11	15:58:07.950	-90.685	97.86	-50.925	1.189256	0.088816	0.112484	0.117	0.732	0.174	0	153	265	3
2026-02-11	15:58:07.970	-93.975	97.755	-47.53	1.132648	0.097112	0.097356	0.1155	0.729	0.1635	0	153	265	3
2026-02-11	15:58:07.990	-92.995	96.04	-44.31	1.088728	0.077104	0.096868	0.108	0.72	0.1485	0	153	265	3
2026-02-11	15:58:08.010	-86.975	94.465	-40.915	1.045784	0.049044	0.111752	0.102	0.708	0.135	0	154	279	3
2026-02-11	15:58:08.030	-69.51	94.885	-37.94	0.992104	0.073688	0.099552	0.102	0.702	0.123	0	154	279	3
2026-02-11	15:58:08.050	-53.27	94.15	-34.93	0.950868	0.073688	0.063684	0.099	0.699	0.1125	0	154	279	3
2026-02-11	15:58:08.070	-37.03	91.56	-35.21	0.92476	0.09028	0.040748	0.0975	0.6915	0.1005	0	154	279	3
2026-02-11	15:58:08.090	-24.36	87.5	-33.355	0.965996	0.084912	0.042212	0.093	0.6825	0.087	0	154	279	3
2026-02-11	15:58:08.110	-15.75	83.965	-30.24	0.99308	0.076372	0.057828	0.093	0.6795	0.078	0	154	279	3
2026-02-11	15:58:08.130	-3.01	81.795	-26.845	0.983564	0.074908	0.069052	0.093	0.6795	0.0645	0	154	279	3
2026-02-11	15:58:08.150	13.93	79.03	-24.85	1.032364	0.044164	0.050996	0.0945	0.672	0.051	0	154	279	3
2026-02-11	15:58:08.170	31.465	76.405	-24.535	1.067988	0.025864	0.055876	0.099	0.669	0.045	0	154	279	3
2026-02-11	15:58:08.190	50.925	73.85	-24.99	1.050176	0.05002	0.06466	0.0975	0.6645	0.0345	0	154	279	3
2026-02-11	15:58:08.210	65.345	69.72	-26.425	1.04676	0.072224	0.063684	0.096	0.66	0.018	0	156	260	3
2026-02-11	15:58:08.230	74.69	64.085	-28.875	1.045784	0.053436	0.06734399	0.0975	0.654	-0.0015	0	156	260	3
2026-02-11	15:58:08.250	86.1	57.715	-31.465	1.043588	0.04148	0.063684	0.099	0.6495	-0.0105	0	156	260	3
2026-02-11	15:58:08.270	98.7	49.245	-33.04	1.066036	0.039528	0.067588	0.102	0.6465	-0.0165	0	156	260	3
2026-02-11	15:58:08.290	106.925	36.575	-31.675	1.112884	0.07808	0.102236	0.1065	0.6405	-0.0255	0	156	260	3
2026-02-11	15:58:08.310	102.445	22.505	-26.425	1.078236	0.088816	0.168848	0.1035	0.63	-0.0285	0	156	260	3
2026-02-11	15:58:08.330	89.95	8.295	-17.15	1.072136	0.09028	0.242048	0.102	0.6255	-0.03	0	156	260	3
2026-02-11	15:58:08.350	67.515	-9.975	5.215	1.06628	0.063928	0.283284	0.1065	0.6225	-0.0315	0	156	260	3
2026-02-11	15:58:08.370	57.995	-22.54	24.43	1.023824	0.062708	0.264252	0.1065	0.615	-0.0315	0	156	260	3
2026-02-11	15:58:08.390	50.68	-36.155	42.56	0.95648	0.085156	0.251564	0.1035	0.6135	-0.027	0	156	260	3
2026-02-11	15:58:08.410	40.81	-49.735	58.03	0.887184	0.076128	0.246684	0.1065	0.618	-0.021	0	157	227	3
2026-02-11	15:58:08.430	31.185	-62.825	71.015	0.88816	0.055876	0.231068	0.1005	0.627	-0.015	0	157	227	3
2026-02-11	15:58:08.450	26.95	-74.095	81.585	0.883524	0.093696	0.238388	0.0975	0.6375	-0.009	0	157	227	3
2026-02-11	15:58:08.470	14	-83.51	86.8	0.865712	0.121024	0.277672	0.1035	0.645	0	0	157	227	3
2026-02-11	15:58:08.490	-7.735	-90.825	87.535	0.886452	0.11712	0.326228	0.1035	0.654	0.012	0	157	227	3
2026-02-11	15:58:08.510	-32.9	-94.185	85.68	0.929884	0.116144	0.343552	0.1005	0.666	0.021	0	157	227	3
2026-02-11	15:58:08.530	-54.32	-94.57	82.145	0.967948	0.0732	0.3233	0.0975	0.681	0.0345	0	157	227	3
2026-02-11	15:58:08.550	-60.48	-92.47	76.37	1.010404	0.0793	0.292068	0.102	0.693	0.054	0	157	227	3
2026-02-11	15:58:08.570	-58.835	-87.15	67.55	1.014796	0.057096	0.235948	0.1035	0.705	0.0735	0	157	227	3
2026-02-11	15:58:08.590	-50.68	-83.545	61.145	0.981124	0.068076	0.21472	0.102	0.714	0.0825	0	157	227	3
2026-02-11	15:58:08.610	-41.93	-80.465	55.685	0.942084	0.058316	0.210328	0.102	0.72	0.0945	0	156	213	3
2026-02-11	15:58:08.630	-32.445	-76.615	50.68	0.91134	0.028792	0.20496	0.1005	0.7305	0.1035	0	156	213	3
2026-02-11	15:58:08.650	-17.395	-71.96	46.235	0.88206	0.009516	0.201544	0.108	0.735	0.111	0	156	213	3
2026-02-11	15:58:08.670	11.375	-69.23	39.725	0.870348	0.007076	0.203984	0.117	0.738	0.129	0	156	213	3
2026-02-11	15:58:08.690	36.715	-66.85	35.56	0.892064	0.067832	0.217404	0.12	0.7485	0.144	0	156	213	3
2026-02-11	15:58:08.710	43.05	-65.59	33.46	0.934276	0.090524	0.283772	0.1245	0.759	0.1545	0	156	213	3
2026-02-11	15:58:08.730	41.3	-61.635	32.2	0.961848	0.056608	0.307196	0.1305	0.7605	0.156	0	156	213	3
2026-02-11	15:58:08.750	52.64	-57.085	31.255	0.97356	0.046848	0.290116	0.129	0.7605	0.159	0	156	213	3
2026-02-11	15:58:08.770	71.715	-54.39	30.695	0.984784	0.078812	0.325008	0.1305	0.771	0.165	0	156	213	3
2026-02-11	15:58:08.790	73.955	-51.8	32.375	1.001376	0.061976	0.399916	0.135	0.7755	0.1665	0	156	213	3
2026-02-11	15:58:08.810	72.625	-46.165	33.46	1.000156	0.066856	0.381128	0.138	0.7815	0.171	0	154	218	2
2026-02-11	15:58:08.830	74.795	-41.335	32.725	1.042612	0.113948	0.35502	0.144	0.7875	0.1755	0	154	218	2
2026-02-11	15:58:08.850	65.17	-38.43	30.24	1.086532	0.12566	0.400892	0.1485	0.7935	0.177	0	154	218	2
2026-02-11	15:58:08.870	41.615	-33.425	26.39	1.136064	0.126392	0.485804	0.153	0.801	0.1725	0	154	218	2
2026-02-11	15:58:08.890	15.855	-25.62	21.315	1.200968	0.075396	0.493856	0.1545	0.8055	0.1725	0	154	218	2
2026-02-11	15:58:08.910	2.94	-15.68	14.14	1.264652	0.08784	0.463356	0.1545	0.807	0.171	0	154	218	2
2026-02-11	15:58:08.930	-6.86	-6.72	4.55	1.335656	0.069784	0.417972	0.1575	0.8085	0.174	0	154	218	2
2026-02-11	15:58:08.950	-11.41	3.64	-6.475	1.315892	0.04026	0.374784	0.1605	0.8115	0.18	0	154	218	2
2026-02-11	15:58:08.970	-11.585	13.055	-17.36	1.272948	0.022448	0.354532	0.159	0.8085	0.1785	0	154	218	2
2026-02-11	15:58:08.990	-10.57	26.18	-30.38	1.169492	-0.007076	0.384788	0.15	0.8055	0.174	0	154	218	2
2026-02-11	15:58:09.010	-4.2	38.57	-37.835	1.027728	0.001952	0.380884	0.15	0.804	0.171	0	152	243	3
2026-02-11	15:58:09.030	-1.225	49.875	-44.52	0.937692	0.029524	0.318664	0.15	0.7965	0.171	0	152	243	3
2026-02-11	15:58:09.050	-2.205	57.785	-49.63	0.934276	0.064416	0.266448	0.1425	0.789	0.165	0	152	243	3
2026-02-11	15:58:09.070	-9.1	62.02	-52.92	0.964532	0.091256	0.226676	0.135	0.792	0.156	0	152	243	3
2026-02-11	15:58:09.090	-19.39	63.84	-55.195	1.00528	0.10492	0.204228	0.129	0.789	0.1425	0	152	243	3
2026-02-11	15:58:09.110	-30.38	65.1	-56.665	1.047736	0.118096	0.19886	0.1275	0.78	0.1305	0	152	243	3
2026-02-11	15:58:09.130	-44.765	65.975	-56.35	1.100196	0.131028	0.20374	0.129	0.771	0.1275	0	152	243	3
2026-02-11	15:58:09.150	-58.8	67.97	-54.88	1.149484	0.118828	0.201056	0.123	0.7575	0.1215	0	152	243	3
2026-02-11	15:58:09.170	-67.83	71.155	-53.83	1.191208	0.097112	0.198128	0.1125	0.753	0.1125	0	152	243	3
2026-02-11	15:58:09.190	-66.08	75.6	-52.325	1.202432	0.05002	0.193736	0.117	0.75	0.105	0	152	243	3
2026-02-11	15:58:09.210	-46.375	83.895	-54.635	1.097024	0.10126	0.1464	0.12	0.744	0.099	0	151	266	3
2026-02-11	15:58:09.230	-39.445	85.33	-58.73	1.026264	0.090036	0.13298	0.111	0.7365	0.09	0	151	266	3
2026-02-11	15:58:09.250	-24.955	85.505	-63.84	0.963556	0.05368	0.120292	0.1035	0.723	0.075	0	151	266	3
2026-02-11	15:58:09.270	-4.69	85.89	-67.515	0.944524	0.057584	0.133224	0.105	0.7185	0.063	0	151	266	3
2026-02-11	15:58:09.290	9.66	85.26	-70.455	0.933056	0.044896	0.1403	0.102	0.7125	0.051	0	151	266	3
2026-02-11	15:58:09.310	21.455	84.875	-69.44	0.936472	0.034648	0.171776	0.102	0.7035	0.039	0	151	266	3
2026-02-11	15:58:09.330	32.27	84.175	-64.47	0.976244	0.02074	0.197884	0.102	0.6915	0.024	0	151	266	3
2026-02-11	15:58:09.350	45.605	84.245	-57.54	0.960384	0.02074	0.228872	0.102	0.678	0.009	0	151	266	3
2026-02-11	15:58:09.370	57.19	84.35	-48.65	0.945012	0.026596	0.22326	0.099	0.669	-0.0015	0	151	266	3
2026-02-11	15:58:09.390	67.305	83.125	-39.2	0.90646	0.0671	0.176412	0.0975	0.663	-0.0165	0	151	266	3
2026-02-11	15:58:09.410	72.835	75.285	-29.575	0.89182	0.089792	0.14884	0.105	0.654	-0.027	0	151	265	3
2026-02-11	15:58:09.430	63.56	64.75	-18.55	0.8967	0.108824	0.16348	0.108	0.6495	-0.033	0	151	265	3
2026-02-11	15:58:09.450	49.175	54.775	-8.75	0.915976	0.121756	0.1708	0.1095	0.6465	-0.048	0	151	265	3
2026-02-11	15:58:09.470	35.525	43.05	0.42	0.9943	0.12688	0.153964	0.114	0.6375	-0.0585	0	151	265	3
2026-02-11	15:58:09.490	23.8	30.52	8.295	1.065792	0.124684	0.142984	0.1155	0.6345	-0.06	0	151	265	3
2026-02-11	15:58:09.510	13.405	15.645	16.73	1.131184	0.105408	0.167872	0.117	0.636	-0.0645	0	151	265	3
2026-02-11	15:58:09.530	4.935	0.98	26.32	1.112884	0.093208	0.205204	0.1155	0.6375	-0.066	0	151	265	3
2026-02-11	15:58:09.550	-0.875	-12.46	36.12	1.125572	0.103944	0.229848	0.1125	0.642	-0.0645	0	151	265	3
2026-02-11	15:58:09.570	-4.795	-23.555	45.22	1.1407	0.099552	0.259372	0.114	0.654	-0.0645	0	151	265	3
2026-02-11	15:58:09.590	-7.14	-31.92	51.24	1.121912	0.09028	0.2318	0.117	0.6645	-0.063	0	151	265	3
2026-02-11	15:58:09.610	-6.23	-39.97	56.175	1.09434	0.100528	0.168604	0.1185	0.669	-0.0585	0	150	249	3
2026-02-11	15:58:09.630	-3.255	-53.69	59.57	1.026264	0.123952	0.125416	0.12	0.6705	-0.057	0	150	249	3
2026-02-11	15:58:09.650	-6.055	-68.355	59.15	0.935984	0.167628	0.123952	0.1155	0.678	-0.048	0	150	249	3
2026-02-11	15:58:09.670	-21.875	-79.45	55.545	0.894016	0.175924	0.173972	0.111	0.6915	-0.0375	0	150	249	3
2026-02-11	15:58:09.690	-48.195	-86.345	51.17	0.88694	0.157624	0.22082	0.1095	0.7005	-0.027	0	150	249	3
2026-02-11	15:58:09.710	-73.185	-88.165	45.045	0.901092	0.147132	0.242292	0.105	0.708	-0.012	0	150	249	3
2026-02-11	15:58:09.730	-94.01	-87.115	36.33	0.929152	0.134444	0.23546	0.105	0.714	0.0015	0	150	249	3
2026-02-11	15:58:09.750	-101.605	-84.07	25.305	0.959408	0.097112	0.205448	0.1035	0.723	0.0165	0	150	249	3
2026-02-11	15:58:09.770	-95.585	-79.975	13.65	0.967704	0.069296	0.171776	0.102	0.7305	0.033	0	150	249	3
2026-02-11	15:58:09.790	-82.81	-77.28	3.43	0.972096	0.043432	0.14396	0.105	0.7305	0.051	0	150	249	3
2026-02-11	15:58:09.810	-65.94	-75.32	-5.11	0.971608	0.042944	0.115656	0.108	0.735	0.063	0	148	232	3
2026-02-11	15:58:09.830	-51.275	-75.46	-10.885	0.973804	0.021228	0.111752	0.105	0.735	0.0705	0	148	232	3
2026-02-11	15:58:09.850	-25.095	-75.81	-14.84	0.948916	0.011468	0.1647	0.099	0.729	0.075	0	148	232	3
2026-02-11	15:58:09.870	-2.975	-76.965	-15.33	0.930372	-0.065148	0.232532	0.102	0.729	0.0885	0	148	232	3
2026-02-11	15:58:09.890	31.15	-75.25	-13.23	0.935496	0.013908	0.258152	0.099	0.729	0.111	0	148	232	3
2026-02-11	15:58:09.910	51.765	-76.02	-5.88	0.931348	-0.0305	0.27816	0.102	0.726	0.1185	0	148	232	3
2026-02-11	15:58:09.930	78.89	-75.6	0.525	0.921344	-0.01952	0.349896	0.108	0.723	0.1275	0	148	232	3
2026-02-11	15:58:09.950	97.755	-71.33	9.17	0.93452	-0.019032	0.40504	0.1065	0.7185	0.1395	0	148	232	3
2026-02-11	15:58:09.970	109.97	-63.385	20.755	0.913292	0.033184	0.396744	0.105	0.723	0.1425	0	148	232	3
2026-02-11	15:58:09.990	110.95	-55.86	32.34	0.898408	0.098332	0.395768	0.1065	0.732	0.1455	0	148	232	3
2026-02-11	15:58:10.010	90.475	-49.315	39.13	0.889868	0.222284	0.369172	0.111	0.7365	0.1515	0	145	225	2
2026-02-11	15:58:10.030	52.045	-47.355	46.305	0.97234	0.23912	0.392352	0.1125	0.7455	0.153	0	145	225	2
2026-02-11	15:58:10.050	-7.735	-40.145	51.415	1.064328	0.230336	0.4087	0.114	0.7515	0.15	0	145	225	2
2026-02-11	15:58:10.070	-56.385	-35.07	50.47	1.12118	0.082472	0.381616	0.114	0.7515	0.15	0	145	225	2
2026-02-11	15:58:10.090	-59.99	-29.645	45.885	1.120692	0.038552	0.401136	0.123	0.7575	0.165	0	145	225	2
2026-02-11	15:58:10.110	-51.275	-23.87	40.915	1.195844	0.018544	0.428952	0.132	0.7695	0.1815	0	145	225	2
2026-02-11	15:58:10.130	-41.23	-14.805	35.7	1.26758	0.01586	0.443592	0.135	0.7785	0.189	0	145	225	2
2026-02-11	15:58:10.150	-29.855	-5.285	30.59	1.345904	-0.008052	0.369172	0.138	0.7845	0.195	0	145	225	2
2026-02-11	15:58:10.170	-5.6	5.075	21.42	1.334436	0.021716	0.292556	0.1365	0.783	0.1935	0	145	225	2
2026-02-11	15:58:10.190	13.3	11.865	11.69	1.323212	0.080032	0.301096	0.1365	0.786	0.1905	0	145	225	2
2026-02-11	15:58:08.210	65.345	69.72	-26.425	1.04676	0.072224	0.063684	0.096	0.66	0.018	0	156	260	3
2026-02-11	15:58:08.230	74.69	64.085	-28.875	1.045784	0.053436	0.06734399	0.0975	0.654	-0.0015	0	156	260	3
2026-02-11	15:58:08.250	86.1	57.715	-31.465	1.043588	0.04148	0.063684	0.099	0.6495	-0.0105	0	156	260	3
2026-02-11	15:58:08.270	98.7	49.245	-33.04	1.066036	0.039528	0.067588	0.102	0.6465	-0.0165	0	156	260	3
2026-02-11	15:58:08.290	106.925	36.575	-31.675	1.112884	0.07808	0.102236	0.1065	0.6405	-0.0255	0	156	260	3
2026-02-11	15:58:08.310	102.445	22.505	-26.425	1.078236	0.088816	0.168848	0.1035	0.63	-0.0285	0	156	260	3
2026-02-11	15:58:08.330	89.95	8.295	-17.15	1.072136	0.09028	0.242048	0.102	0.6255	-0.03	0	156	260	3
2026-02-11	15:58:08.350	67.515	-9.975	5.215	1.06628	0.063928	0.283284	0.1065	0.6225	-0.0315	0	156	260	3
2026-02-11	15:58:08.370	57.995	-22.54	24.43	1.023824	0.062708	0.264252	0.1065	0.615	-0.0315	0	156	260	3
2026-02-11	15:58:08.390	50.68	-36.155	42.56	0.95648	0.085156	0.251564	0.1035	0.6135	-0.027	0	156	260	3
2026-02-11	15:58:08.410	40.81	-49.735	58.03	0.887184	0.076128	0.246684	0.1065	0.618	-0.021	0	157	227	3
2026-02-11	15:58:08.430	31.185	-62.825	71.015	0.88816	0.055876	0.231068	0.1005	0.627	-0.015	0	157	227	3
2026-02-11	15:58:08.450	26.95	-74.095	81.585	0.883524	0.093696	0.238388	0.0975	0.6375	-0.009	0	157	227	3
2026-02-11	15:58:08.470	14	-83.51	86.8	0.865712	0.121024	0.277672	0.1035	0.645	0	0	157	227	3
2026-02-11	15:58:08.490	-7.735	-90.825	87.535	0.886452	0.11712	0.326228	0.1035	0.654	0.012	0	157	227	3
2026-02-11	15:58:08.510	-32.9	-94.185	85.68	0.929884	0.116144	0.343552	0.1005	0.666	0.021	0	157	227	3
2026-02-11	15:58:08.530	-54.32	-94.57	82.145	0.967948	0.0732	0.3233	0.0975	0.681	0.0345	0	157	227	3
2026-02-11	15:58:08.550	-60.48	-92.47	76.37	1.010404	0.0793	0.292068	0.102	0.693	0.054	0	157	227	3
2026-02-11	15:58:08.570	-58.835	-87.15	67.55	1.014796	0.057096	0.235948	0.1035	0.705	0.0735	0	157	227	3
2026-02-11	15:58:08.590	-50.68	-83.545	61.145	0.981124	0.068076	0.21472	0.102	0.714	0.0825	0	157	227	3
2026-02-11	15:58:08.610	-41.93	-80.465	55.685	0.942084	0.058316	0.210328	0.102	0.72	0.0945	0	156	213	3
2026-02-11	15:58:08.630	-32.445	-76.615	50.68	0.91134	0.028792	0.20496	0.1005	0.7305	0.1035	0	156	213	3
2026-02-11	15:58:08.650	-17.395	-71.96	46.235	0.88206	0.009516	0.201544	0.108	0.735	0.111	0	156	213	3
2026-02-11	15:58:08.670	11.375	-69.23	39.725	0.870348	0.007076	0.203984	0.117	0.738	0.129	0	156	213	3
2026-02-11	15:58:08.690	36.715	-66.85	35.56	0.892064	0.067832	0.217404	0.12	0.7485	0.144	0	156	213	3
2026-02-11	15:58:08.710	43.05	-65.59	33.46	0.934276	0.090524	0.283772	0.1245	0.759	0.1545	0	156	213	3
2026-02-11	15:58:08.730	41.3	-61.635	32.2	0.961848	0.056608	0.307196	0.1305	0.7605	0.156	0	156	213	3
2026-02-11	15:58:08.750	52.64	-57.085	31.255	0.97356	0.046848	0.290116	0.129	0.7605	0.159	0	156	213	3
2026-02-11	15:58:08.770	71.715	-54.39	30.695	0.984784	0.078812	0.325008	0.1305	0.771	0.165	0	156	213	3
2026-02-11	15:58:08.790	73.955	-51.8	32.375	1.001376	0.061976	0.399916	0.135	0.7755	0.1665	0	156	213	3
2026-02-11	15:58:08.810	72.625	-46.165	33.46	1.000156	0.066856	0.381128	0.138	0.7815	0.171	0	154	218	2
2026-02-11	15:58:08.830	74.795	-41.335	32.725	1.042612	0.113948	0.35502	0.144	0.7875	0.1755	0	154	218	2
2026-02-11	15:58:08.850	65.17	-38.43	30.24	1.086532	0.12566	0.400892	0.1485	0.7935	0.177	0	154	218	2
2026-02-11	15:58:08.870	41.615	-33.425	26.39	1.136064	0.126392	0.485804	0.153	0.801	0.1725	0	154	218	2
2026-02-11	15:58:08.890	15.855	-25.62	21.315	1.200968	0.075396	0.493856	0.1545	0.8055	0.1725	0	154	218	2
2026-02-11	15:58:08.910	2.94	-15.68	14.14	1.264652	0.08784	0.463356	0.1545	0.807	0.171	0	154	218	2
2026-02-11	15:58:08.930	-6.86	-6.72	4.55	1.335656	0.069784	0.417972	0.1575	0.8085	0.174	0	154	218	2
2026-02-11	15:58:08.950	-11.41	3.64	-6.475	1.315892	0.04026	0.374784	0.1605	0.8115	0.18	0	154	218	2
2026-02-11	15:58:08.970	-11.585	13.055	-17.36	1.272948	0.022448	0.354532	0.159	0.8085	0.1785	0	154	218	2
2026-02-11	15:58:08.990	-10.57	26.18	-30.38	1.169492	-0.007076	0.384788	0.15	0.8055	0.174	0	154	218	2
2026-02-11	15:58:09.010	-4.2	38.57	-37.835	1.027728	0.001952	0.380884	0.15	0.804	0.171	0	152	243	3
2026-02-11	15:58:09.030	-1.225	49.875	-44.52	0.937692	0.029524	0.318664	0.15	0.7965	0.171	0	152	243	3
2026-02-11	15:58:09.050	-2.205	57.785	-49.63	0.934276	0.064416	0.266448	0.1425	0.789	0.165	0	152	243	3
2026-02-11	15:58:09.070	-9.1	62.02	-52.92	0.964532	0.091256	0.226676	0.135	0.792	0.156	0	152	243	3
2026-02-11	15:58:09.090	-19.39	63.84	-55.195	1.00528	0.10492	0.204228	0.129	0.789	0.1425	0	152	243	3
2026-02-11	15:58:09.110	-30.38	65.1	-56.665	1.047736	0.118096	0.19886	0.1275	0.78	0.1305	0	152	243	3
2026-02-11	15:58:09.130	-44.765	65.975	-56.35	1.100196	0.131028	0.20374	0.129	0.771	0.1275	0	152	243	3
2026-02-11	15:58:09.150	-58.8	67.97	-54.88	1.149484	0.118828	0.201056	0.123	0.7575	0.1215	0	152	243	3
2026-02-11	15:58:09.170	-67.83	71.155	-53.83	1.191208	0.097112	0.198128	0.1125	0.753	0.1125	0	152	243	3
2026-02-11	15:58:09.190	-66.08	75.6	-52.325	1.202432	0.05002	0.193736	0.117	0.75	0.105	0	152	243	3
2026-02-11	15:58:09.210	-46.375	83.895	-54.635	1.097024	0.10126	0.1464	0.12	0.744	0.099	0	151	266	3
2026-02-11	15:58:09.230	-39.445	85.33	-58.73	1.026264	0.090036	0.13298	0.111	0.7365	0.09	0	151	266	3
2026-02-11	15:58:09.250	-24.955	85.505	-63.84	0.963556	0.05368	0.120292	0.1035	0.723	0.075	0	151	266	3
2026-02-11	15:58:09.270	-4.69	85.89	-67.515	0.944524	0.057584	0.133224	0.105	0.7185	0.063	0	151	266	3
2026-02-11	15:58:09.290	9.66	85.26	-70.455	0.933056	0.044896	0.1403	0.102	0.7125	0.051	0	151	266	3
2026-02-11	15:58:09.310	21.455	84.875	-69.44	0.936472	0.034648	0.171776	0.102	0.7035	0.039	0	151	266	3
2026-02-11	15:58:09.330	32.27	84.175	-64.47	0.976244	0.02074	0.197884	0.102	0.6915	0.024	0	151	266	3
2026-02-11	15:58:09.350	45.605	84.245	-57.54	0.960384	0.02074	0.228872	0.102	0.678	0.009	0	151	266	3
2026-02-11	15:58:09.370	57.19	84.35	-48.65	0.945012	0.026596	0.22326	0.099	0.669	-0.0015	0	151	266	3
2026-02-11	15:58:09.390	67.305	83.125	-39.2	0.90646	0.0671	0.176412	0.0975	0.663	-0.0165	0	151	266	3
2026-02-11	15:58:09.410	72.835	75.285	-29.575	0.89182	0.089792	0.14884	0.105	0.654	-0.027	0	151	265	3
2026-02-11	15:58:09.430	63.56	64.75	-18.55	0.8967	0.108824	0.16348	0.108	0.6495	-0.033	0	151	265	3
2026-02-11	15:58:09.450	49.175	54.775	-8.75	0.915976	0.121756	0.1708	0.1095	0.6465	-0.048	0	151	265	3
2026-02-11	15:58:09.470	35.525	43.05	0.42	0.9943	0.12688	0.153964	0.114	0.6375	-0.0585	0	151	265	3
2026-02-11	15:58:09.490	23.8	30.52	8.295	1.065792	0.124684	0.142984	0.1155	0.6345	-0.06	0	151	265	3
2026-02-11	15:58:09.510	13.405	15.645	16.73	1.131184	0.105408	0.167872	0.117	0.636	-0.0645	0	151	265	3
2026-02-11	15:58:09.530	4.935	0.98	26.32	1.112884	0.093208	0.205204	0.1155	0.6375	-0.066	0	151	265	3
2026-02-11	15:58:09.550	-0.875	-12.46	36.12	1.125572	0.103944	0.229848	0.1125	0.642	-0.0645	0	151	265	3
2026-02-11	15:58:09.570	-4.795	-23.555	45.22	1.1407	0.099552	0.259372	0.114	0.654	-0.0645	0	151	265	3
2026-02-11	15:58:09.590	-7.14	-31.92	51.24	1.121912	0.09028	0.2318	0.117	0.6645	-0.063	0	151	265	3
2026-02-11	15:58:09.610	-6.23	-39.97	56.175	1.09434	0.100528	0.168604	0.1185	0.669	-0.0585	0	150	249	3
2026-02-11	15:58:09.630	-3.255	-53.69	59.57	1.026264	0.123952	0.125416	0.12	0.6705	-0.057	0	150	249	3
2026-02-11	15:58:09.650	-6.055	-68.355	59.15	0.935984	0.167628	0.123952	0.1155	0.678	-0.048	0	150	249	3
2026-02-11	15:58:09.670	-21.875	-79.45	55.545	0.894016	0.175924	0.173972	0.111	0.6915	-0.0375	0	150	249	3
2026-02-11	15:58:09.690	-48.195	-86.345	51.17	0.88694	0.157624	0.22082	0.1095	0.7005	-0.027	0	150	249	3
2026-02-11	15:58:09.710	-73.185	-88.165	45.045	0.901092	0.147132	0.242292	0.105	0.708	-0.012	0	150	249	3
2026-02-11	15:58:09.730	-94.01	-87.115	36.33	0.929152	0.134444	0.23546	0.105	0.714	0.0015	0	150	249	3
2026-02-11	15:58:09.750	-101.605	-84.07	25.305	0.959408	0.097112	0.205448	0.1035	0.723	0.0165	0	150	249	3
2026-02-11	15:58:09.770	-95.585	-79.975	13.65	0.967704	0.069296	0.171776	0.102	0.7305	0.033	0	150	249	3
2026-02-11	15:58:09.790	-82.81	-77.28	3.43	0.972096	0.043432	0.14396	0.105	0.7305	0.051	0	150	249	3
2026-02-11	15:58:09.810	-65.94	-75.32	-5.11	0.971608	0.042944	0.115656	0.108	0.735	0.063	0	148	232	3
2026-02-11	15:58:09.830	-51.275	-75.46	-10.885	0.973804	0.021228	0.111752	0.105	0.735	0.0705	0	148	232	3
2026-02-11	15:58:09.850	-25.095	-75.81	-14.84	0.948916	0.011468	0.1647	0.099	0.729	0.075	0	148	232	3
2026-02-11	15:58:09.870	-2.975	-76.965	-15.33	0.930372	-0.065148	0.232532	0.102	0.729	0.0885	0	148	232	3
2026-02-11	15:58:09.890	31.15	-75.25	-13.23	0.935496	0.013908	0.258152	0.099	0.729	0.111	0	148	232	3
2026-02-11	15:58:09.910	51.765	-76.02	-5.88	0.931348	-0.0305	0.27816	0.102	0.726	0.1185	0	148	232	3
2026-02-11	15:58:09.930	78.89	-75.6	0.525	0.921344	-0.01952	0.349896	0.108	0.723	0.1275	0	148	232	3
2026-02-11	15:58:09.950	97.755	-71.33	9.17	0.93452	-0.019032	0.40504	0.1065	0.7185	0.1395	0	148	232	3
2026-02-11	15:58:09.970	109.97	-63.385	20.755	0.913292	0.033184	0.396744	0.105	0.723	0.1425	0	148	232	3
2026-02-11	15:58:09.990	110.95	-55.86	32.34	0.898408	0.098332	0.395768	0.1065	0.732	0.1455	0	148	232	3
2026-02-11	15:58:10.010	90.475	-49.315	39.13	0.889868	0.222284	0.369172	0.111	0.7365	0.1515	0	145	225	2
2026-02-11	15:58:10.030	52.045	-47.355	46.305	0.97234	0.23912	0.392352	0.1125	0.7455	0.153	0	145	225	2
2026-02-11	15:58:10.050	-7.735	-40.145	51.415	1.064328	0.230336	0.4087	0.114	0.7515	0.15	0	145	225	2
2026-02-11	15:58:10.070	-56.385	-35.07	50.47	1.12118	0.082472	0.381616	0.114	0.7515	0.15	0	145	225	2
2026-02-11	15:58:10.090	-59.99	-29.645	45.885	1.120692	0.038552	0.401136	0.123	0.7575	0.165	0	145	225	2
2026-02-11	15:58:10.110	-51.275	-23.87	40.915	1.195844	0.018544	0.428952	0.132	0.7695	0.1815	0	145	225	2
2026-02-11	15:58:10.130	-41.23	-14.805	35.7	1.26758	0.01586	0.443592	0.135	0.7785	0.189	0	145	225	2
2026-02-11	15:58:10.150	-29.855	-5.285	30.59	1.345904	-0.008052	0.369172	0.138	0.7845	0.195	0	145	225	2
2026-02-11	15:58:10.170	-5.6	5.075	21.42	1.334436	0.021716	0.292556	0.1365	0.783	0.1935	0	145	225	2
2026-02-11	15:58:10.190	13.3	11.865	11.69	1.323212	0.080032	0.301096	0.1365	0.786	0.1905	0	145	225	2
2026-02-11	15:58:10.210	14.56	18.76	2.135	1.234396	0.091988	0.3416	0.1395	0.792	0.1905	0	145	242	3
2026-02-11	15:58:10.230	13.545	27.37	-7.7	1.120692	0.082228	0.35258	0.1365	0.792	0.1905	0	145	242	3
2026-02-11	15:58:10.250	11.095	37.87	-16.905	0.996008	0.111752	0.34038	0.141	0.7905	0.1815	0	145	242	3
2026-02-11	15:58:10.270	-9.835	48.685	-25.97	0.927932	0.146888	0.295728	0.1455	0.7905	0.1725	0	145	242	3
2026-02-11	15:58:10.290	-38.535	57.365	-32.095	0.95648	0.158112	0.24888	0.1365	0.786	0.1695	0	145	242	3
2026-02-11	15:58:10.310	-55.37	63.805	-34.23	1.008208	0.131028	0.238632	0.1305	0.777	0.171	0	145	242	3
2026-02-11	15:58:10.330	-60.515	70.42	-33.915	1.079456	0.092964	0.222284	0.126	0.768	0.168	0	145	242	3
2026-02-11	15:58:10.350	-53.935	76.405	-31.045	1.149728	0.089304	0.173728	0.12	0.765	0.1545	0	145	242	3
2026-02-11	15:58:10.370	-43.925	80.08	-27.65	1.222684	0.116144	0.132248	0.1155	0.7605	0.1485	0	145	242	3
2026-02-11	15:58:10.390	-28.07	81.725	-25.48	1.275876	0.090036	0.121512	0.114	0.7575	0.1425	0	145	242	3
2026-02-11	15:58:10.410	-6.44	84	-24.92	1.270264	0.148352	0.111752	0.1125	0.753	0.129	0	146	261	3
2026-02-11	15:58:10.430	-0.735	84.735	-25.445	1.204872	0.190808	0.112484	0.1095	0.744	0.1185	0	146	261	3
2026-02-11	15:58:10.450	-4.095	84.245	-27.965	1.112884	0.164212	0.122488	0.1095	0.744	0.1095	0	146	261	3
2026-02-11	15:58:10.470	1.19	83.72	-33.88	1.036024	0.123952	0.14884	0.1095	0.7425	0.0975	0	146	261	3
2026-02-11	15:58:10.490	14.91	85.995	-48.685	0.893528	0.153232	0.13298	0.1095	0.741	0.0945	0	146	261	3
2026-02-11	15:58:10.510	8.19	83.65	-53.34	0.866444	0.162504	0.123708	0.105	0.735	0.0795	0	146	261	3
2026-02-11	15:58:10.530	-1.12	81.34	-60.9	0.810812	0.15372	0.133956	0.102	0.723	0.0615	0	146	261	3
2026-02-11	15:58:10.550	-9.52	79.275	-66.675	0.833748	0.141276	0.145424	0.099	0.714	0.051	0	146	261	3
2026-02-11	15:58:10.570	-15.19	77.28	-68.95	0.900116	0.089548	0.143716	0.0975	0.7095	0.0405	0	146	261	3
2026-02-11	15:58:10.590	-10.15	78.015	-68.355	0.9333	0.101016	0.109068	0.0975	0.7065	0.036	0	146	261	3
2026-02-11	15:58:08.610	-41.93	-80.465	55.685	0.942084	0.058316	0.210328	0.102	0.72	0.0945	0	156	213	3
2026-02-11	15:58:08.630	-32.445	-76.615	50.68	0.91134	0.028792	0.20496	0.1005	0.7305	0.1035	0	156	213	3
2026-02-11	15:58:08.650	-17.395	-71.96	46.235	0.88206	0.009516	0.201544	0.108	0.735	0.111	0	156	213	3
2026-02-11	15:58:08.670	11.375	-69.23	39.725	0.870348	0.007076	0.203984	0.117	0.738	0.129	0	156	213	3
2026-02-11	15:58:08.690	36.715	-66.85	35.56	0.892064	0.067832	0.217404	0.12	0.7485	0.144	0	156	213	3
2026-02-11	15:58:08.710	43.05	-65.59	33.46	0.934276	0.090524	0.283772	0.1245	0.759	0.1545	0	156	213	3
2026-02-11	15:58:08.730	41.3	-61.635	32.2	0.961848	0.056608	0.307196	0.1305	0.7605	0.156	0	156	213	3
2026-02-11	15:58:08.750	52.64	-57.085	31.255	0.97356	0.046848	0.290116	0.129	0.7605	0.159	0	156	213	3
2026-02-11	15:58:08.770	71.715	-54.39	30.695	0.984784	0.078812	0.325008	0.1305	0.771	0.165	0	156	213	3
2026-02-11	15:58:08.790	73.955	-51.8	32.375	1.001376	0.061976	0.399916	0.135	0.7755	0.1665	0	156	213	3
2026-02-11	15:58:08.810	72.625	-46.165	33.46	1.000156	0.066856	0.381128	0.138	0.7815	0.171	0	154	218	2
2026-02-11	15:58:08.830	74.795	-41.335	32.725	1.042612	0.113948	0.35502	0.144	0.7875	0.1755	0	154	218	2
2026-02-11	15:58:08.850	65.17	-38.43	30.24	1.086532	0.12566	0.400892	0.1485	0.7935	0.177	0	154	218	2
2026-02-11	15:58:08.870	41.615	-33.425	26.39	1.136064	0.126392	0.485804	0.153	0.801	0.1725	0	154	218	2
2026-02-11	15:58:08.890	15.855	-25.62	21.315	1.200968	0.075396	0.493856	0.1545	0.8055	0.1725	0	154	218	2
2026-02-11	15:58:08.910	2.94	-15.68	14.14	1.264652	0.08784	0.463356	0.1545	0.807	0.171	0	154	218	2
2026-02-11	15:58:08.930	-6.86	-6.72	4.55	1.335656	0.069784	0.417972	0.1575	0.8085	0.174	0	154	218	2
2026-02-11	15:58:08.950	-11.41	3.64	-6.475	1.315892	0.04026	0.374784	0.1605	0.8115	0.18	0	154	218	2
2026-02-11	15:58:08.970	-11.585	13.055	-17.36	1.272948	0.022448	0.354532	0.159	0.8085	0.1785	0	154	218	2
2026-02-11	15:58:08.990	-10.57	26.18	-30.38	1.169492	-0.007076	0.384788	0.15	0.8055	0.174	0	154	218	2
2026-02-11	15:58:09.010	-4.2	38.57	-37.835	1.027728	0.001952	0.380884	0.15	0.804	0.171	0	152	243	3
2026-02-11	15:58:09.030	-1.225	49.875	-44.52	0.937692	0.029524	0.318664	0.15	0.7965	0.171	0	152	243	3
2026-02-11	15:58:09.050	-2.205	57.785	-49.63	0.934276	0.064416	0.266448	0.1425	0.789	0.165	0	152	243	3
2026-02-11	15:58:09.070	-9.1	62.02	-52.92	0.964532	0.091256	0.226676	0.135	0.792	0.156	0	152	243	3
2026-02-11	15:58:09.090	-19.39	63.84	-55.195	1.00528	0.10492	0.204228	0.129	0.789	0.1425	0	152	243	3
2026-02-11	15:58:09.110	-30.38	65.1	-56.665	1.047736	0.118096	0.19886	0.1275	0.78	0.1305	0	152	243	3
2026-02-11	15:58:09.130	-44.765	65.975	-56.35	1.100196	0.131028	0.20374	0.129	0.771	0.1275	0	152	243	3
2026-02-11	15:58:09.150	-58.8	67.97	-54.88	1.149484	0.118828	0.201056	0.123	0.7575	0.1215	0	152	243	3
2026-02-11	15:58:09.170	-67.83	71.155	-53.83	1.191208	0.097112	0.198128	0.1125	0.753	0.1125	0	152	243	3
2026-02-11	15:58:09.190	-66.08	75.6	-52.325	1.202432	0.05002	0.193736	0.117	0.75	0.105	0	152	243	3
2026-02-11	15:58:09.210	-46.375	83.895	-54.635	1.097024	0.10126	0.1464	0.12	0.744	0.099	0	151	266	3
2026-02-11	15:58:09.230	-39.445	85.33	-58.73	1.026264	0.090036	0.13298	0.111	0.7365	0.09	0	151	266	3
2026-02-11	15:58:09.250	-24.955	85.505	-63.84	0.963556	0.05368	0.120292	0.1035	0.723	0.075	0	151	266	3
2026-02-11	15:58:09.270	-4.69	85.89	-67.515	0.944524	0.057584	0.133224	0.105	0.7185	0.063	0	151	266	3
2026-02-11	15:58:09.290	9.66	85.26	-70.455	0.933056	0.044896	0.1403	0.102	0.7125	0.051	0	151	266	3
2026-02-11	15:58:09.310	21.455	84.875	-69.44	0.936472	0.034648	0.171776	0.102	0.7035	0.039	0	151	266	3
2026-02-11	15:58:09.330	32.27	84.175	-64.47	0.976244	0.02074	0.197884	0.102	0.6915	0.024	0	151	266	3
2026-02-11	15:58:09.350	45.605	84.245	-57.54	0.960384	0.02074	0.228872	0.102	0.678	0.009	0	151	266	3
2026-02-11	15:58:09.370	57.19	84.35	-48.65	0.945012	0.026596	0.22326	0.099	0.669	-0.0015	0	151	266	3
2026-02-11	15:58:09.390	67.305	83.125	-39.2	0.90646	0.0671	0.176412	0.0975	0.663	-0.0165	0	151	266	3
2026-02-11	15:58:09.410	72.835	75.285	-29.575	0.89182	0.089792	0.14884	0.105	0.654	-0.027	0	151	265	3
2026-02-11	15:58:09.430	63.56	64.75	-18.55	0.8967	0.108824	0.16348	0.108	0.6495	-0.033	0	151	265	3
2026-02-11	15:58:09.450	49.175	54.775	-8.75	0.915976	0.121756	0.1708	0.1095	0.6465	-0.048	0	151	265	3
2026-02-11	15:58:09.470	35.525	43.05	0.42	0.9943	0.12688	0.153964	0.114	0.6375	-0.0585	0	151	265	3
2026-02-11	15:58:09.490	23.8	30.52	8.295	1.065792	0.124684	0.142984	0.1155	0.6345	-0.06	0	151	265	3
2026-02-11	15:58:09.510	13.405	15.645	16.73	1.131184	0.105408	0.167872	0.117	0.636	-0.0645	0	151	265	3
2026-02-11	15:58:09.530	4.935	0.98	26.32	1.112884	0.093208	0.205204	0.1155	0.6375	-0.066	0	151	265	3
2026-02-11	15:58:09.550	-0.875	-12.46	36.12	1.125572	0.103944	0.229848	0.1125	0.642	-0.0645	0	151	265	3
2026-02-11	15:58:09.570	-4.795	-23.555	45.22	1.1407	0.099552	0.259372	0.114	0.654	-0.0645	0	151	265	3
2026-02-11	15:58:09.590	-7.14	-31.92	51.24	1.121912	0.09028	0.2318	0.117	0.6645	-0.063	0	151	265	3
2026-02-11	15:58:09.610	-6.23	-39.97	56.175	1.09434	0.100528	0.168604	0.1185	0.669	-0.0585	0	150	249	3
2026-02-11	15:58:09.630	-3.255	-53.69	59.57	1.026264	0.123952	0.125416	0.12	0.6705	-0.057	0	150	249	3
2026-02-11	15:58:09.650	-6.055	-68.355	59.15	0.935984	0.167628	0.123952	0.1155	0.678	-0.048	0	150	249	3
2026-02-11	15:58:09.670	-21.875	-79.45	55.545	0.894016	0.175924	0.173972	0.111	0.6915	-0.0375	0	150	249	3
2026-02-11	15:58:09.690	-48.195	-86.345	51.17	0.88694	0.157624	0.22082	0.1095	0.7005	-0.027	0	150	249	3
2026-02-11	15:58:09.710	-73.185	-88.165	45.045	0.901092	0.147132	0.242292	0.105	0.708	-0.012	0	150	249	3
2026-02-11	15:58:09.730	-94.01	-87.115	36.33	0.929152	0.134444	0.23546	0.105	0.714	0.0015	0	150	249	3
2026-02-11	15:58:09.750	-101.605	-84.07	25.305	0.959408	0.097112	0.205448	0.1035	0.723	0.0165	0	150	249	3
2026-02-11	15:58:09.770	-95.585	-79.975	13.65	0.967704	0.069296	0.171776	0.102	0.7305	0.033	0	150	249	3
2026-02-11	15:58:09.790	-82.81	-77.28	3.43	0.972096	0.043432	0.14396	0.105	0.7305	0.051	0	150	249	3
2026-02-11	15:58:09.810	-65.94	-75.32	-5.11	0.971608	0.042944	0.115656	0.108	0.735	0.063	0	148	232	3
2026-02-11	15:58:09.830	-51.275	-75.46	-10.885	0.973804	0.021228	0.111752	0.105	0.735	0.0705	0	148	232	3
2026-02-11	15:58:09.850	-25.095	-75.81	-14.84	0.948916	0.011468	0.1647	0.099	0.729	0.075	0	148	232	3
2026-02-11	15:58:09.870	-2.975	-76.965	-15.33	0.930372	-0.065148	0.232532	0.102	0.729	0.0885	0	148	232	3
2026-02-11	15:58:09.890	31.15	-75.25	-13.23	0.935496	0.013908	0.258152	0.099	0.729	0.111	0	148	232	3
2026-02-11	15:58:09.910	51.765	-76.02	-5.88	0.931348	-0.0305	0.27816	0.102	0.726	0.1185	0	148	232	3
2026-02-11	15:58:09.930	78.89	-75.6	0.525	0.921344	-0.01952	0.349896	0.108	0.723	0.1275	0	148	232	3
2026-02-11	15:58:09.950	97.755	-71.33	9.17	0.93452	-0.019032	0.40504	0.1065	0.7185	0.1395	0	148	232	3
2026-02-11	15:58:09.970	109.97	-63.385	20.755	0.913292	0.033184	0.396744	0.105	0.723	0.1425	0	148	232	3
2026-02-11	15:58:09.990	110.95	-55.86	32.34	0.898408	0.098332	0.395768	0.1065	0.732	0.1455	0	148	232	3
2026-02-11	15:58:10.010	90.475	-49.315	39.13	0.889868	0.222284	0.369172	0.111	0.7365	0.1515	0	145	225	2
2026-02-11	15:58:10.030	52.045	-47.355	46.305	0.97234	0.23912	0.392352	0.1125	0.7455	0.153	0	145	225	2
2026-02-11	15:58:10.050	-7.735	-40.145	51.415	1.064328	0.230336	0.4087	0.114	0.7515	0.15	0	145	225	2
2026-02-11	15:58:10.070	-56.385	-35.07	50.47	1.12118	0.082472	0.381616	0.114	0.7515	0.15	0	145	225	2
2026-02-11	15:58:10.090	-59.99	-29.645	45.885	1.120692	0.038552	0.401136	0.123	0.7575	0.165	0	145	225	2
2026-02-11	15:58:10.110	-51.275	-23.87	40.915	1.195844	0.018544	0.428952	0.132	0.7695	0.1815	0	145	225	2
2026-02-11	15:58:10.130	-41.23	-14.805	35.7	1.26758	0.01586	0.443592	0.135	0.7785	0.189	0	145	225	2
2026-02-11	15:58:10.150	-29.855	-5.285	30.59	1.345904	-0.008052	0.369172	0.138	0.7845	0.195	0	145	225	2
2026-02-11	15:58:10.170	-5.6	5.075	21.42	1.334436	0.021716	0.292556	0.1365	0.783	0.1935	0	145	225	2
2026-02-11	15:58:10.190	13.3	11.865	11.69	1.323212	0.080032	0.301096	0.1365	0.786	0.1905	0	145	225	2
2026-02-11	15:58:10.210	14.56	18.76	2.135	1.234396	0.091988	0.3416	0.1395	0.792	0.1905	0	145	242	3
2026-02-11	15:58:10.230	13.545	27.37	-7.7	1.120692	0.082228	0.35258	0.1365	0.792	0.1905	0	145	242	3
2026-02-11	15:58:10.250	11.095	37.87	-16.905	0.996008	0.111752	0.34038	0.141	0.7905	0.1815	0	145	242	3
2026-02-11	15:58:10.270	-9.835	48.685	-25.97	0.927932	0.146888	0.295728	0.1455	0.7905	0.1725	0	145	242	3
2026-02-11	15:58:10.290	-38.535	57.365	-32.095	0.95648	0.158112	0.24888	0.1365	0.786	0.1695	0	145	242	3
2026-02-11	15:58:10.310	-55.37	63.805	-34.23	1.008208	0.131028	0.238632	0.1305	0.777	0.171	0	145	242	3
2026-02-11	15:58:10.330	-60.515	70.42	-33.915	1.079456	0.092964	0.222284	0.126	0.768	0.168	0	145	242	3
2026-02-11	15:58:10.350	-53.935	76.405	-31.045	1.149728	0.089304	0.173728	0.12	0.765	0.1545	0	145	242	3
2026-02-11	15:58:10.370	-43.925	80.08	-27.65	1.222684	0.116144	0.132248	0.1155	0.7605	0.1485	0	145	242	3
2026-02-11	15:58:10.390	-28.07	81.725	-25.48	1.275876	0.090036	0.121512	0.114	0.7575	0.1425	0	145	242	3
2026-02-11	15:58:10.410	-6.44	84	-24.92	1.270264	0.148352	0.111752	0.1125	0.753	0.129	0	146	261	3
2026-02-11	15:58:10.430	-0.735	84.735	-25.445	1.204872	0.190808	0.112484	0.1095	0.744	0.1185	0	146	261	3
2026-02-11	15:58:10.450	-4.095	84.245	-27.965	1.112884	0.164212	0.122488	0.1095	0.744	0.1095	0	146	261	3
2026-02-11	15:58:10.470	1.19	83.72	-33.88	1.036024	0.123952	0.14884	0.1095	0.7425	0.0975	0	146	261	3
2026-02-11	15:58:10.490	14.91	85.995	-48.685	0.893528	0.153232	0.13298	0.1095	0.741	0.0945	0	146	261	3
2026-02-11	15:58:10.510	8.19	83.65	-53.34	0.866444	0.162504	0.123708	0.105	0.735	0.0795	0	146	261	3
2026-02-11	15:58:10.530	-1.12	81.34	-60.9	0.810812	0.15372	0.133956	0.102	0.723	0.0615	0	146	261	3
2026-02-11	15:58:10.550	-9.52	79.275	-66.675	0.833748	0.141276	0.145424	0.099	0.714	0.051	0	146	261	3
2026-02-11	15:58:10.570	-15.19	77.28	-68.95	0.900116	0.089548	0.143716	0.0975	0.7095	0.0405	0	146	261	3
2026-02-11	15:58:10.590	-10.15	78.015	-68.355	0.9333	0.101016	0.109068	0.0975	0.7065	0.036	0	146	261	3
2026-02-11	15:58:12.610	10.71	-45.36	31.36	1.210484	0.182756	0.412604	0.207	0.858	0.129	0	164	220	3
2026-02-11	15:58:12.630	-6.86	-37.415	19.25	1.325408	0.14396	0.402112	0.207	0.858	0.129	0	164	220	3
2026-02-11	15:58:12.650	-17.57	-33.18	12.005	1.367864	0.101016	0.418704	0.207	0.8625	0.132	0	164	220	3
2026-02-11	15:58:12.670	-22.435	-25.725	5.04	1.298568	0.124196	0.471896	0.2085	0.8625	0.1365	0	164	220	3
2026-02-11	15:58:12.690	-33.18	-14.21	-2.625	1.170224	0.125416	0.5185	0.2115	0.8655	0.1425	0	164	220	3
2026-02-11	15:58:12.710	-41.79	0.56	-12.25	1.025776	0.135664	0.499224	0.2145	0.8685	0.15	0	164	220	3
2026-02-11	15:58:12.730	-51.415	14.945	-23.38	0.947208	0.13664	0.451156	0.2145	0.864	0.1485	0	164	220	3
2026-02-11	15:58:12.750	-66.43	28.665	-35.14	0.96502	0.1342	0.392596	0.2085	0.8625	0.147	0	164	220	3
2026-02-11	15:58:12.770	-85.96	42.315	-45.78	1.013088	0.114192	0.337452	0.204	0.855	0.153	0	164	220	3
2026-02-11	15:58:12.790	-104.405	56.105	-54.285	1.060912	0.093452	0.277184	0.2025	0.846	0.156	0	164	220	3
2026-02-11	15:58:08.810	72.625	-46.165	33.46	1.000156	0.066856	0.381128	0.138	0.7815	0.171	0	154	218	2
2026-02-11	15:58:08.830	74.795	-41.335	32.725	1.042612	0.113948	0.35502	0.144	0.7875	0.1755	0	154	218	2
2026-02-11	15:58:08.850	65.17	-38.43	30.24	1.086532	0.12566	0.400892	0.1485	0.7935	0.177	0	154	218	2
2026-02-11	15:58:08.870	41.615	-33.425	26.39	1.136064	0.126392	0.485804	0.153	0.801	0.1725	0	154	218	2
2026-02-11	15:58:08.890	15.855	-25.62	21.315	1.200968	0.075396	0.493856	0.1545	0.8055	0.1725	0	154	218	2
2026-02-11	15:58:08.910	2.94	-15.68	14.14	1.264652	0.08784	0.463356	0.1545	0.807	0.171	0	154	218	2
2026-02-11	15:58:08.930	-6.86	-6.72	4.55	1.335656	0.069784	0.417972	0.1575	0.8085	0.174	0	154	218	2
2026-02-11	15:58:08.950	-11.41	3.64	-6.475	1.315892	0.04026	0.374784	0.1605	0.8115	0.18	0	154	218	2
2026-02-11	15:58:08.970	-11.585	13.055	-17.36	1.272948	0.022448	0.354532	0.159	0.8085	0.1785	0	154	218	2
2026-02-11	15:58:08.990	-10.57	26.18	-30.38	1.169492	-0.007076	0.384788	0.15	0.8055	0.174	0	154	218	2
2026-02-11	15:58:09.010	-4.2	38.57	-37.835	1.027728	0.001952	0.380884	0.15	0.804	0.171	0	152	243	3
2026-02-11	15:58:09.030	-1.225	49.875	-44.52	0.937692	0.029524	0.318664	0.15	0.7965	0.171	0	152	243	3
2026-02-11	15:58:09.050	-2.205	57.785	-49.63	0.934276	0.064416	0.266448	0.1425	0.789	0.165	0	152	243	3
2026-02-11	15:58:09.070	-9.1	62.02	-52.92	0.964532	0.091256	0.226676	0.135	0.792	0.156	0	152	243	3
2026-02-11	15:58:09.090	-19.39	63.84	-55.195	1.00528	0.10492	0.204228	0.129	0.789	0.1425	0	152	243	3
2026-02-11	15:58:09.110	-30.38	65.1	-56.665	1.047736	0.118096	0.19886	0.1275	0.78	0.1305	0	152	243	3
2026-02-11	15:58:09.130	-44.765	65.975	-56.35	1.100196	0.131028	0.20374	0.129	0.771	0.1275	0	152	243	3
2026-02-11	15:58:09.150	-58.8	67.97	-54.88	1.149484	0.118828	0.201056	0.123	0.7575	0.1215	0	152	243	3
2026-02-11	15:58:09.170	-67.83	71.155	-53.83	1.191208	0.097112	0.198128	0.1125	0.753	0.1125	0	152	243	3
2026-02-11	15:58:09.190	-66.08	75.6	-52.325	1.202432	0.05002	0.193736	0.117	0.75	0.105	0	152	243	3
2026-02-11	15:58:09.210	-46.375	83.895	-54.635	1.097024	0.10126	0.1464	0.12	0.744	0.099	0	151	266	3
2026-02-11	15:58:09.230	-39.445	85.33	-58.73	1.026264	0.090036	0.13298	0.111	0.7365	0.09	0	151	266	3
2026-02-11	15:58:09.250	-24.955	85.505	-63.84	0.963556	0.05368	0.120292	0.1035	0.723	0.075	0	151	266	3
2026-02-11	15:58:09.270	-4.69	85.89	-67.515	0.944524	0.057584	0.133224	0.105	0.7185	0.063	0	151	266	3
2026-02-11	15:58:09.290	9.66	85.26	-70.455	0.933056	0.044896	0.1403	0.102	0.7125	0.051	0	151	266	3
