yyyy-MM-dd	HH:mm:ss.fff	gyrX	gyrY	gyrZ	accX	accY	accZ	magX	magY	magZ	Marker	Energy	Angle	Classification
2026-02-11	16:27:49.610	1.295	-0.56	0.245	0.066856	0.020008	1.011868	0.291	0.2445	0.522	0	39	1034	1
2026-02-11	16:27:49.630	1.295	-0.595	0.245	0.063196	0.020984	1.011868	0.291	0.2415	0.519	0	39	1034	1
2026-02-11	16:27:49.650	1.225	-0.56	0.245	0.063196	0.020496	1.013332	0.2925	0.24	0.519	0	39	1034	1
2026-02-11	16:27:49.670	1.26	-0.56	0.245	0.062708	0.02196	1.01382	0.2895	0.2385	0.522	0	39	1034	1
2026-02-11	16:27:49.690	1.295	-0.56	0.21	0.063684	0.02074	1.011868	0.288	0.2445	0.5205	0	39	1034	1
2026-02-11	16:27:49.710	1.26	-0.525	0.245	0.061976	0.021228	1.01382	0.2925	0.2475	0.5205	0	39	1034	1
2026-02-11	16:27:49.730	1.26	-0.56	0.245	0.064172	0.020496	1.011868	0.2895	0.2415	0.5205	0	39	1034	1
2026-02-11	16:27:49.750	1.26	-0.56	0.245	0.062708	0.022204	1.013576	0.2865	0.24	0.516	0	39	1034	1
2026-02-11	16:27:49.770	1.295	-0.63	0.245	0.065636	0.02196	1.011136	0.2925	0.2415	0.519	0	39	1034	1
2026-02-11	16:27:49.790	1.33	-0.56	0.28	0.063928	0.021716	1.015772	0.2925	0.2415	0.522	0	39	1034	1
2026-02-11	16:27:49.810	1.26	-0.56	0.28	0.063928	0.018788	1.011136	0.291	0.24	0.519	0	34	1034	1
2026-02-11	16:27:49.830	1.295	-0.56	0.245	0.061244	0.018056	1.009916	0.2925	0.2415	0.519	0	34	1034	1
2026-02-11	16:27:49.850	1.26	-0.56	0.245	0.068564	0.020252	1.013576	0.2895	0.24	0.525	0	34	1034	1
2026-02-11	16:27:49.870	1.26	-0.56	0.245	0.064904	0.020252	1.014308	0.288	0.24	0.5235	0	34	1034	1
2026-02-11	16:27:49.890	1.26	-0.56	0.245	0.061488	0.019276	1.010892	0.2925	0.24	0.522	0	34	1034	1
2026-02-11	16:27:49.910	1.26	-0.56	0.28	0.064904	0.024644	1.012356	0.2895	0.2385	0.5235	0	34	1034	1
2026-02-11	16:27:49.930	1.225	-0.525	0.245	0.062464	0.018544	1.012844	0.2865	0.243	0.5205	0	34	1034	1
2026-02-11	16:27:49.950	1.295	-0.56	0.28	0.063684	0.020252	1.011624	0.2865	0.246	0.5175	0	34	1034	1
2026-02-11	16:27:49.970	1.26	-0.49	0.21	0.064904	0.0183	1.01626	0.2895	0.24	0.5205	0	34	1034	1
2026-02-11	16:27:49.990	1.26	-0.525	0.245	0.061	0.01952	1.0126	0.294	0.24	0.522	0	34	1034	1
2026-02-11	16:27:50.010	1.26	-0.595	0.28	0.062708	0.02074	1.012844	0.291	0.2445	0.522	0	29	1035	1
2026-02-11	16:27:50.030	1.26	-0.56	0.245	0.065636	0.019032	1.011868	0.291	0.24	0.5235	0	29	1035	1
2026-02-11	16:27:50.050	1.26	-0.49	0.245	0.067832	0.02074	1.014064	0.294	0.237	0.519	0	29	1035	1
2026-02-11	16:27:50.070	1.225	-0.595	0.245	0.06222	0.021716	1.0126	0.291	0.24	0.5145	0	29	1035	1
2026-02-11	16:27:50.090	1.26	-0.56	0.245	0.060756	0.018544	1.012112	0.285	0.243	0.5205	0	29	1035	1
2026-02-11	16:27:50.110	1.26	-0.525	0.28	0.062464	0.021228	1.014552	0.288	0.24	0.525	0	29	1035	1
2026-02-11	16:27:50.130	1.295	-0.595	0.21	0.063928	0.018788	1.009428	0.294	0.2385	0.5235	0	29	1035	1
2026-02-11	16:27:50.150	1.225	-0.525	0.245	0.066612	0.020496	1.010648	0.2925	0.2415	0.5205	0	29	1035	1
2026-02-11	16:27:50.170	1.225	-0.525	0.28	0.064904	0.020496	1.01626	0.2925	0.243	0.516	0	29	1035	1
2026-02-11	16:27:50.190	1.26	-0.56	0.245	0.062708	0.020252	1.014552	0.291	0.2445	0.516	0	29	1035	1
2026-02-11	16:27:50.210	1.26	-0.56	0.21	0.065392	0.02318	1.01138	0.297	0.24	0.5205	0	25	1035	1
2026-02-11	16:27:50.230	1.225	-0.56	0.245	0.062708	0.02196	1.010892	0.297	0.24	0.5205	0	25	1035	1
2026-02-11	16:27:50.250	1.225	-0.525	0.28	0.060512	0.019276	1.013332	0.285	0.246	0.5145	0	25	1035	1
2026-02-11	16:27:50.270	1.26	-0.56	0.28	0.062464	0.02074	1.011624	0.2955	0.2445	0.528	0	25	1035	1
2026-02-11	16:27:50.290	1.295	-0.56	0.245	0.065148	0.02074	1.01382	0.2925	0.2415	0.5235	0	25	1035	1
2026-02-11	16:27:50.310	1.26	-0.525	0.28	0.061244	0.018788	1.01504	0.2925	0.237	0.5205	0	25	1035	1
2026-02-11	16:27:50.330	1.26	-0.56	0.245	0.063196	0.018056	1.009184	0.2925	0.2415	0.5235	0	25	1035	1
2026-02-11	16:27:50.350	1.295	-0.56	0.245	0.064172	0.022692	1.01138	0.291	0.2385	0.5175	0	25	1035	1
2026-02-11	16:27:50.370	1.295	-0.56	0.245	0.062952	0.017568	1.01382	0.291	0.2325	0.51	0	25	1035	1
2026-02-11	16:27:50.390	1.295	-0.525	0.245	0.066124	0.021228	1.014552	0.2865	0.24	0.5175	0	25	1035	1
2026-02-11	16:27:50.410	1.295	-0.56	0.28	0.0671	0.018056	1.010404	0.297	0.2355	0.5205	0	22	1035	1
2026-02-11	16:27:50.430	1.26	-0.49	0.245	0.06344	0.022936	1.012112	0.297	0.2355	0.5205	0	22	1035	1
2026-02-11	16:27:50.450	1.26	-0.56	0.245	0.06222	0.021472	1.011136	0.2925	0.237	0.5235	0	22	1035	1
2026-02-11	16:27:50.470	1.26	-0.56	0.245	0.06344	0.021716	1.013088	0.2895	0.2385	0.528	0	22	1035	1
2026-02-11	16:27:50.490	1.26	-0.525	0.245	0.066612	0.021228	1.016016	0.291	0.2415	0.519	0	22	1035	1
2026-02-11	16:27:50.510	1.26	-0.56	0.245	0.064904	0.020496	1.011624	0.2925	0.243	0.519	0	22	1035	1
2026-02-11	16:27:50.530	1.26	-0.525	0.28	0.061	0.02562	1.009672	0.2925	0.2415	0.5205	0	22	1035	1
2026-02-11	16:27:50.550	1.295	-0.525	0.28	0.065392	0.02196	1.01138	0.297	0.243	0.516	0	22	1035	1
2026-02-11	16:27:50.570	1.295	-0.595	0.245	0.064172	0.022692	1.012844	0.2985	0.2445	0.5235	0	22	1035	1
2026-02-11	16:27:50.590	1.26	-0.525	0.28	0.06466	0.018788	1.016504	0.2925	0.2475	0.525	0	22	1035	1
2026-02-11	16:27:48.610	1.33	-0.56	0.28	0.063684	0.0244	1.009916	0.2895	0.2415	0.5205	0	84	1028	1
2026-02-11	16:27:48.630	1.26	-0.56	0.28	0.06222	0.020008	1.010404	0.2925	0.243	0.519	0	84	1028	1
2026-02-11	16:27:48.650	1.26	-0.56	0.245	0.060756	0.020496	1.013332	0.2865	0.24	0.519	0	84	1028	1
2026-02-11	16:27:48.670	1.26	-0.56	0.28	0.065392	0.019276	1.011624	0.288	0.24	0.5205	0	84	1028	1
2026-02-11	16:27:48.690	1.295	-0.525	0.245	0.062464	0.019032	1.009916	0.2895	0.24	0.522	0	84	1028	1
2026-02-11	16:27:48.710	1.295	-0.595	0.21	0.064904	0.018788	1.011624	0.285	0.2415	0.5205	0	84	1028	1
2026-02-11	16:27:48.730	1.26	-0.56	0.245	0.0671	0.021472	1.011868	0.288	0.24	0.5205	0	84	1028	1
2026-02-11	16:27:48.750	1.26	-0.595	0.245	0.067588	0.02196	1.01016	0.2925	0.2385	0.516	0	84	1028	1
2026-02-11	16:27:48.770	1.295	-0.56	0.245	0.06466	0.022448	1.0126	0.2925	0.2385	0.519	0	84	1028	1
2026-02-11	16:27:48.790	1.26	-0.56	0.245	0.064172	0.018788	1.013576	0.294	0.2385	0.5205	0	84	1028	1
2026-02-11	16:27:48.810	1.26	-0.525	0.245	0.063196	0.027816	1.009916	0.2925	0.243	0.5235	0	71	1030	1
2026-02-11	16:27:48.830	1.295	-0.56	0.28	0.06466	0.022692	1.01504	0.2895	0.243	0.5265	0	71	1030	1
2026-02-11	16:27:48.850	1.26	-0.595	0.245	0.062952	0.018056	1.01138	0.288	0.2415	0.5205	0	71	1030	1
2026-02-11	16:27:48.870	1.26	-0.56	0.28	0.063196	0.018788	1.013332	0.294	0.246	0.516	0	71	1030	1
2026-02-11	16:27:48.890	1.295	-0.525	0.245	0.065148	0.018544	1.013576	0.2925	0.249	0.519	0	71	1030	1
2026-02-11	16:27:48.910	1.26	-0.56	0.245	0.06222	0.021472	1.010648	0.291	0.2475	0.5145	0	71	1030	1
2026-02-11	16:27:48.930	1.26	-0.525	0.245	0.062464	0.01952	1.01382	0.2925	0.2445	0.516	0	71	1030	1
2026-02-11	16:27:48.950	1.26	-0.525	0.28	0.061488	0.02074	1.012112	0.2955	0.243	0.525	0	71	1030	1
2026-02-11	16:27:48.970	1.295	-0.56	0.28	0.064904	0.017568	1.010892	0.2985	0.243	0.5175	0	71	1030	1
2026-02-11	16:27:48.990	1.295	-0.56	0.28	0.064416	0.019276	1.013088	0.294	0.24	0.516	0	71	1030	1
2026-02-11	16:27:49.010	1.295	-0.63	0.28	0.062952	0.02074	1.009916	0.2895	0.243	0.5235	0	61	1031	1
2026-02-11	16:27:49.030	1.225	-0.525	0.245	0.065392	0.021472	1.013332	0.291	0.24	0.5235	0	61	1031	1
2026-02-11	16:27:49.050	1.26	-0.525	0.28	0.062952	0.024156	1.015528	0.2955	0.2355	0.5235	0	61	1031	1
2026-02-11	16:27:49.070	1.295	-0.63	0.245	0.064416	0.018788	1.008696	0.2895	0.237	0.5235	0	61	1031	1
2026-02-11	16:27:49.090	1.26	-0.525	0.28	0.061244	0.020984	1.011868	0.285	0.243	0.5235	0	61	1031	1
2026-02-11	16:27:49.110	1.26	-0.56	0.245	0.064416	0.016592	1.01382	0.2865	0.2475	0.5235	0	61	1031	1
2026-02-11	16:27:49.130	1.295	-0.595	0.245	0.06222	0.019032	1.012844	0.2865	0.2475	0.5235	0	61	1031	1
2026-02-11	16:27:49.150	1.26	-0.525	0.28	0.066856	0.019764	1.013332	0.2895	0.2415	0.5265	0	61	1031	1
2026-02-11	16:27:49.170	1.295	-0.49	0.28	0.066368	0.020252	1.01504	0.2895	0.2415	0.5265	0	61	1031	1
2026-02-11	16:27:49.190	1.26	-0.56	0.28	0.066368	0.020984	1.013088	0.2895	0.2415	0.5265	0	61	1031	1
2026-02-11	16:27:57.210	1.295	-0.525	0.245	0.064416	0.018056	1.0126	0.294	0.243	0.5205	0	29	62	2
2026-02-11	16:27:57.230	1.26	-0.49	0.245	0.06344	0.022936	1.012112	0.297	0.2355	0.5205	0	29	62	2
2026-02-11	16:27:57.250	1.26	-0.56	0.245	0.06222	0.021472	1.011136	0.2925	0.237	0.5235	0	29	62	2
2026-02-11	16:27:57.270	1.26	-0.56	0.245	0.06344	0.021716	1.013088	0.2895	0.2385	0.528	0	29	62	2
2026-02-11	16:27:57.290	1.26	-0.525	0.245	0.066612	0.021228	1.016016	0.291	0.2415	0.519	0	29	62	2
2026-02-11	16:27:57.310	1.26	-0.56	0.245	0.064904	0.020496	1.011624	0.2925	0.243	0.519	0	29	62	2
2026-02-11	16:27:57.330	2.205	-1.435	0.805	0.05978	0.023668	1.01016	0.291	0.246	0.5235	0	29	62	2
2026-02-11	16:27:57.350	2.205	-1.4	0.805	0.062708	0.018056	1.01138	0.291	0.2505	0.5205	0	29	62	2
2026-02-11	16:27:57.370	1.225	-0.56	0.21	0.06588	0.0183	1.009916	0.297	0.2445	0.51	0	29	62	2
2026-02-11	16:27:57.390	1.26	-0.56	0.245	0.064416	0.021472	1.010404	0.288	0.2415	0.5205	0	29	62	2
2026-02-11	16:27:57.410	1.26	-0.595	0.245	0.062464	0.01952	1.009428	0.285	0.243	0.5145	0	124	245	2
2026-02-11	16:27:57.430	1.225	-0.56	0.245	0.063928	0.021472	1.010892	0.2925	0.243	0.5295	0	124	245	2
2026-02-11	16:27:57.450	1.26	-0.56	0.245	0.06344	0.02318	1.011136	0.2985	0.2355	0.525	0	124	245	2
2026-02-11	16:27:57.470	1.26	-0.56	0.245	0.062464	0.020496	1.011868	0.291	0.243	0.516	0	124	245	2
2026-02-11	16:27:57.490	1.26	-0.595	0.245	0.062708	0.02074	1.008452	0.2955	0.2385	0.5265	0	124	245	2
2026-02-11	16:27:57.510	1.26	-0.56	0.28	0.066124	0.021716	1.011136	0.2895	0.24	0.5175	0	124	245	2
2026-02-11	16:27:57.530	1.26	-0.56	0.245	0.06222	0.020984	1.009672	0.288	0.249	0.513	0	124	245	2
2026-02-11	16:27:57.550	1.26	-0.595	0.245	0.064172	0.0183	1.011136	0.2955	0.243	0.522	0	124	245	2
2026-02-11	16:27:57.570	1.26	-0.56	0.245	0.05978	0.0183	1.009672	0.291	0.24	0.528	0	124	245	2
2026-02-11	16:27:57.590	1.225	-0.595	0.21	0.064416	0.022448	1.011868	0.2895	0.24	0.5115	0	124	245	2
2026-02-11	16:27:57.610	1.225	-0.525	0.245	0.066124	0.022448	1.012112	0.303	0.2415	0.525	0	242	457	1
2026-02-11	16:27:57.630	1.26	-0.56	0.21	0.065148	0.017568	1.014552	0.2865	0.2385	0.5235	0	242	457	1
2026-02-11	16:27:57.650	1.26	-0.56	0.28	0.064416	0.023424	1.011868	0.3	0.252	0.519	0	242	457	1
2026-02-11	16:27:57.670	1.26	-0.525	0.245	0.065636	0.019276	1.013088	0.2955	0.2385	0.5175	0	242	457	1
2026-02-11	16:27:57.690	1.295	-0.525	0.245	0.060756	0.02074	1.013088	0.288	0.2385	0.528	0	242	457	1
2026-02-11	16:27:57.710	1.26	-0.56	0.245	0.064904	0.02074	1.011624	0.294	0.2385	0.5205	0	242	457	1
2026-02-11	16:27:57.730	1.26	-0.595	0.245	0.063196	0.01952	1.010892	0.2925	0.2415	0.522	0	242	457	1
2026-02-11	16:27:57.750	1.26	-0.56	0.21	0.063196	0.020008	1.0126	0.294	0.249	0.5235	0	242	457	1
2026-02-11	16:27:57.770	1.26	-0.56	0.28	0.063196	0.022692	1.012844	0.2895	0.246	0.5235	0	242	457	1
2026-02-11	16:27:57.790	1.26	-0.56	0.245	0.065636	0.019764	1.009428	0.2895	0.243	0.522	0	242	457	1
2026-02-11	16:27:57.810	1.225	-0.56	0.21	0.068564	0.019764	1.012356	0.285	0.243	0.522	0	326	613	1
2026-02-11	16:27:57.830	1.225	-0.525	0.245	0.06734399	0.019764	1.014308	0.2955	0.2475	0.516	0	326	613	1
2026-02-11	16:27:57.850	1.26	-0.595	0.245	0.06222	0.021716	1.008696	0.2955	0.243	0.519	0	326	613	1
2026-02-11	16:27:57.870	1.295	-0.56	0.28	0.063684	0.022204	1.010648	0.2925	0.24	0.525	0	326	613	1
2026-02-11	16:27:57.890	1.225	-0.595	0.245	0.06734399	0.022936	1.011136	0.2925	0.2475	0.5205	0	326	613	1
2026-02-11	16:27:57.910	1.26	-0.56	0.245	0.065636	0.0183	1.013088	0.3	0.237	0.528	0	326	613	1
2026-02-11	16:27:57.930	1.26	-0.56	0.28	0.066124	0.02196	1.012356	0.2895	0.243	0.522	0	326	613	1
2026-02-11	16:27:57.950	1.26	-0.525	0.245	0.063196	0.020252	1.011136	0.2955	0.2385	0.5115	0	326	613	1
2026-02-11	16:27:57.970	1.26	-0.56	0.21	0.061244	0.02074	1.010404	0.2955	0.24	0.5265	0	326	613	1
2026-02-11	16:27:57.990	1.225	-0.525	0.21	0.06466	0.022448	1.013576	0.288	0.243	0.5145	0	326	613	1
2026-02-11	16:27:58.010	1.225	-0.56	0.21	0.066368	0.019276	1.013332	0.291	0.2385	0.519	0	375	727	1
2026-02-11	16:27:58.030	1.26	-0.595	0.245	0.06832	0.020496	1.012112	0.291	0.234	0.5175	0	375	727	1
2026-02-11	16:27:58.050	1.225	-0.56	0.245	0.06588	0.018788	1.01138	0.297	0.2355	0.513	0	375	727	1
2026-02-11	16:27:58.070	1.225	-0.56	0.245	0.066612	0.020008	1.011136	0.2955	0.2445	0.5145	0	375	727	1
2026-02-11	16:27:58.090	1.26	-0.56	0.21	0.06466	0.018788	1.011624	0.2955	0.2445	0.522	0	375	727	1
2026-02-11	16:27:58.110	1.225	-0.56	0.245	0.065148	0.020008	1.011868	0.2835	0.2385	0.516	0	375	727	1
2026-02-11	16:27:58.130	1.26	-0.525	0.28	0.066124	0.02074	1.01138	0.3015	0.2445	0.525	0	375	727	1
2026-02-11	16:27:58.150	1.26	-0.595	0.245	0.06588	0.019764	1.01382	0.288	0.2385	0.525	0	375	727	1
2026-02-11	16:27:58.170	1.26	-0.56	0.28	0.06344	0.020252	1.01138	0.294	0.2385	0.5265	0	375	727	1
2026-02-11	16:27:58.190	1.26	-0.56	0.245	0.066124	0.020496	1.0126	0.2985	0.234	0.5205	0	375	727	1
2026-02-11	16:27:58.210	1.26	-0.525	0.245	0.061732	0.018788	1.013332	0.2925	0.2415	0.5205	0	392	810	1
2026-02-11	16:27:58.230	1.26	-0.56	0.245	0.066124	0.021228	1.013576	0.294	0.2355	0.5205	0	392	810	1
2026-02-11	16:27:58.250	1.26	-0.56	0.245	0.064172	0.021472	1.011624	0.294	0.2355	0.5205	0	392	810	1
2026-02-11	16:27:58.270	1.26	-0.525	0.245	0.063928	0.020008	1.0126	0.2925	0.234	0.516	0	392	810	1
2026-02-11	16:27:58.290	1.26	-0.56	0.245	0.05856	0.020008	1.011136	0.2925	0.234	0.513	0	392	810	1
2026-02-11	16:27:58.310	1.26	-0.595	0.245	0.062952	0.019764	1.013576	0.2895	0.2385	0.5115	0	392	810	1
2026-02-11	16:27:58.330	1.26	-0.56	0.245	0.066368	0.021716	1.014552	0.288	0.243	0.516	0	392	810	1
2026-02-11	16:27:58.350	1.26	-0.56	0.245	0.061976	0.022448	1.012356	0.288	0.243	0.5235	0	392	810	1
2026-02-11	16:27:58.370	1.26	-0.595	0.245	0.064416	0.020252	1.011624	0.2835	0.2415	0.5235	0	392	810	1
2026-02-11	16:27:58.390	1.26	-0.525	0.245	0.064416	0.02074	1.012844	0.2835	0.246	0.519	0	392	810	1
2026-02-11	16:27:58.410	1.26	-0.56	0.245	0.062952	0.022692	1.011624	0.288	0.246	0.519	0	383	871	1
2026-02-11	16:27:58.430	1.26	-0.56	0.21	0.066368	0.019032	1.01138	0.291	0.243	0.519	0	383	871	1
2026-02-11	16:27:58.450	1.26	-0.595	0.21	0.061	0.020008	1.01016	0.2955	0.2445	0.5205	0	383	871	1
2026-02-11	16:27:58.470	1.295	-0.63	0.28	0.06588	0.01952	1.011624	0.2985	0.2475	0.522	0	383	871	1
2026-02-11	16:27:58.490	1.225	-0.525	0.245	0.06222	0.021716	1.011624	0.2985	0.2475	0.522	0	383	871	1
2026-02-11	16:27:58.510	1.26	-0.595	0.21	0.064416	0.02196	1.014064	0.2895	0.249	0.5205	0	383	871	1
2026-02-11	16:27:58.530	1.295	-0.595	0.245	0.062708	0.021472	1.01138	0.2895	0.2385	0.522	0	383	871	1
2026-02-11	16:27:58.550	1.26	-0.525	0.245	0.063928	0.017568	1.016992	0.285	0.237	0.5145	0	383	871	1
2026-02-11	16:27:58.570	1.295	-0.595	0.245	0.063928	0.022936	1.011868	0.2925	0.246	0.5175	0	383	871	1
2026-02-11	16:27:58.590	1.26	-0.56	0.21	0.067832	0.018788	1.011136	0.2865	0.24	0.5205	0	383	871	1
2026-02-11	16:27:58.610	1.26	-0.56	0.21	0.065148	0.021716	1.01016	0.2925	0.24	0.51	0	355	915	1
2026-02-11	16:27:58.630	1.26	-0.525	0.245	0.065636	0.02196	1.012356	0.2895	0.2445	0.5175	0	355	915	1
2026-02-11	16:27:58.650	1.26	-0.56	0.245	0.06344	0.016104	1.01138	0.2925	0.243	0.5295	0	355	915	1
2026-02-11	16:27:58.670	1.26	-0.525	0.21	0.063928	0.020008	1.014552	0.294	0.2415	0.519	0	355	915	1
2026-02-11	16:27:58.690	1.26	-0.56	0.245	0.06588	0.019032	1.010892	0.294	0.2355	0.5265	0	355	915	1
2026-02-11	16:27:58.710	1.225	-0.56	0.245	0.064904	0.022204	1.012844	0.2985	0.2385	0.5145	0	355	915	1
2026-02-11	16:27:58.730	1.295	-0.56	0.245	0.066612	0.023424	1.010892	0.294	0.246	0.513	0	355	915	1
2026-02-11	16:27:58.750	1.225	-0.595	0.28	0.06466	0.022936	1.011624	0.3	0.249	0.522	0	355	915	1
2026-02-11	16:27:58.770	1.26	-0.56	0.245	0.062464	0.021716	1.01138	0.2955	0.243	0.519	0	355	915	1
2026-02-11	16:27:58.790	1.26	-0.56	0.21	0.061976	0.018056	1.013332	0.2955	0.2385	0.516	0	355	915	1
2026-02-11	16:27:58.810	1.26	-0.595	0.245	0.069052	0.016348	1.01382	0.294	0.2385	0.519	0	318	947	1
2026-02-11	16:27:58.830	1.295	-0.56	0.245	0.067588	0.019764	1.008208	0.294	0.237	0.5235	0	318	947	1
2026-02-11	16:27:58.850	1.26	-0.525	0.245	0.063196	0.02074	1.010892	0.2955	0.24	0.519	0	318	947	1
2026-02-11	16:27:58.870	1.26	-0.595	0.245	0.061976	0.01708	1.012112	0.3015	0.2355	0.522	0	318	947	1
2026-02-11	16:27:58.890	1.225	-0.595	0.245	0.064416	0.017324	1.014064	0.2895	0.24	0.519	0	318	947	1
2026-02-11	16:27:58.910	1.225	-0.525	0.245	0.065148	0.021716	1.013576	0.3015	0.243	0.5175	0	318	947	1
2026-02-11	16:27:58.930	1.26	-0.595	0.21	0.061976	0.019764	1.009428	0.2895	0.2325	0.519	0	318	947	1
2026-02-11	16:27:58.950	1.295	-0.525	0.21	0.064904	0.022936	1.011624	0.288	0.2385	0.528	0	318	947	1
2026-02-11	16:27:58.970	1.26	-0.595	0.21	0.066124	0.022204	1.011868	0.2955	0.2415	0.519	0	318	947	1
2026-02-11	16:27:58.990	1.26	-0.56	0.28	0.066856	0.021228	1.012356	0.294	0.246	0.5235	0	318	947	1
2026-02-11	16:27:59.010	1.295	-0.595	0.245	0.064904	0.02074	1.013576	0.294	0.2415	0.5205	0	277	971	1
2026-02-11	16:27:59.030	1.295	-0.56	0.245	0.066124	0.021716	1.012112	0.2895	0.24	0.5235	0	277	971	1
2026-02-11	16:27:59.050	1.26	-0.56	0.245	0.06344	0.021472	1.012844	0.2895	0.2415	0.522	0	277	971	1
2026-02-11	16:27:59.070	1.26	-0.525	0.21	0.064172	0.02196	1.013332	0.2895	0.231	0.522	0	277	971	1
2026-02-11	16:27:59.090	1.225	-0.56	0.245	0.063684	0.021716	1.009184	0.297	0.2385	0.5235	0	277	971	1
2026-02-11	16:27:59.110	1.225	-0.525	0.21	0.065636	0.020008	1.01504	0.291	0.2385	0.5295	0	277	971	1
2026-02-11	16:27:59.130	1.26	-0.56	0.28	0.062708	0.020496	1.013332	0.2955	0.2385	0.525	0	277	971	1
2026-02-11	16:27:59.150	1.26	-0.56	0.245	0.063928	0.018544	1.011624	0.3	0.2445	0.5205	0	277	971	1
2026-02-11	16:27:59.170	1.26	-0.525	0.21	0.061488	0.02074	1.011624	0.291	0.2355	0.525	0	277	971	1
2026-02-11	16:27:59.190	1.295	-0.595	0.28	0.065392	0.018544	1.012356	0.2955	0.24	0.522	0	277	971	1
2026-02-11	16:27:59.210	1.26	-0.56	0.28	0.065636	0.020984	1.011868	0.2955	0.2385	0.519	0	237	988	1
2026-02-11	16:27:59.230	1.26	-0.56	0.245	0.066856	0.02196	1.013332	0.297	0.2385	0.519	0	237	988	1
2026-02-11	16:27:59.250	1.295	-0.525	0.245	0.064172	0.022448	1.012356	0.2985	0.24	0.5235	0	237	988	1
2026-02-11	16:27:59.270	1.26	-0.56	0.245	0.064172	0.018788	1.011136	0.2925	0.2415	0.522	0	237	988	1
2026-02-11	16:27:59.290	1.295	-0.56	0.245	0.065636	0.021228	1.013576	0.297	0.2445	0.519	0	237	988	1
2026-02-11	16:27:59.310	1.26	-0.56	0.245	0.067832	0.02074	1.011868	0.288	0.2355	0.522	0	237	988	1
2026-02-11	16:27:59.330	1.26	-0.56	0.21	0.063928	0.020008	1.012112	0.288	0.2355	0.522	0	237	988	1
2026-02-11	16:27:59.350	1.26	-0.595	0.245	0.061488	0.02196	1.012356	0.2925	0.2385	0.522	0	237	988	1
2026-02-11	16:27:59.370	1.26	-0.56	0.245	0.062708	0.017812	1.01504	0.2985	0.243	0.5235	0	237	988	1
2026-02-11	16:27:59.390	1.26	-0.56	0.245	0.066612	0.022692	1.012844	0.297	0.2415	0.519	0	237	988	1
2026-02-11	16:27:59.410	1.26	-0.595	0.245	0.063928	0.023668	1.013332	0.297	0.24	0.522	0	200	1001	1
2026-02-11	16:27:59.430	1.295	-0.56	0.245	0.064172	0.021472	1.0126	0.297	0.2385	0.5205	0	200	1001	1
2026-02-11	16:27:59.450	1.295	-0.525	0.245	0.066612	0.02074	1.015284	0.294	0.2385	0.5175	0	200	1001	1
2026-02-11	16:27:59.470	1.295	-0.56	0.245	0.063684	0.01952	1.01016	0.2925	0.243	0.519	0	200	1001	1
2026-02-11	16:27:59.490	1.26	-0.595	0.245	0.06344	0.021228	1.013576	0.2925	0.2415	0.519	0	200	1001	1
2026-02-11	16:27:59.510	1.26	-0.525	0.21	0.063928	0.02074	1.010892	0.2925	0.237	0.519	0	200	1001	1
2026-02-11	16:27:59.530	1.26	-0.595	0.28	0.064904	0.019764	1.014064	0.2955	0.2385	0.5205	0	200	1001	1
2026-02-11	16:27:59.550	1.26	-0.56	0.245	0.065148	0.019032	1.014308	0.294	0.2415	0.5235	0	200	1001	1
2026-02-11	16:27:59.570	1.26	-0.525	0.28	0.063928	0.022448	1.013576	0.2955	0.2445	0.5205	0	200	1001	1
2026-02-11	16:27:59.590	1.33	-0.56	0.21	0.063928	0.021716	1.0126	0.2985	0.2445	0.519	0	200	1001	1
2026-02-11	16:27:59.610	1.26	-0.56	0.245	0.064904	0.020252	1.01382	0.2955	0.246	0.5205	0	167	1010	1
2026-02-11	16:27:59.630	1.295	-0.56	0.245	0.062952	0.022448	1.009428	0.297	0.249	0.5175	0	167	1010	1
2026-02-11	16:27:59.650	1.225	-0.595	0.21	0.06344	0.02318	1.01016	0.294	0.2445	0.522	0	167	1010	1
2026-02-11	16:27:59.670	1.26	-0.595	0.245	0.061	0.021716	1.012112	0.2925	0.2385	0.5295	0	167	1010	1
2026-02-11	16:27:59.690	1.26	-0.56	0.28	0.065148	0.019764	1.015528	0.2955	0.237	0.528	0	167	1010	1
2026-02-11	16:27:59.710	1.26	-0.56	0.245	0.065148	0.020984	1.01626	0.2955	0.237	0.528	0	167	1010	1
2026-02-11	16:27:59.730	1.26	-0.56	0.245	0.061976	0.020252	1.009672	0.2955	0.237	0.528	0	167	1010	1
2026-02-11	16:27:59.750	1.26	-0.56	0.21	0.063196	0.02196	1.011624	0.3	0.246	0.5295	0	167	1010	1
2026-02-11	16:27:59.770	1.26	-0.525	0.245	0.061976	0.01952	1.015284	0.3	0.2415	0.5205	0	167	1010	1
2026-02-11	16:27:59.790	1.26	-0.595	0.28	0.063196	0.023424	1.012356	0.2955	0.243	0.525	0	167	1010	1
2026-02-11	16:27:59.810	1.295	-0.56	0.28	0.06588	0.019764	1.014796	0.2865	0.234	0.516	0	140	1017	1
2026-02-11	16:27:59.830	1.26	-0.56	0.245	0.064416	0.020984	1.009672	0.2925	0.243	0.522	0	140	1017	1
2026-02-11	16:27:59.850	1.26	-0.56	0.245	0.066368	0.022204	1.014796	0.291	0.237	0.5175	0	140	1017	1
2026-02-11	16:27:59.870	1.26	-0.56	0.245	0.066612	0.021228	1.0126	0.294	0.2445	0.5115	0	140	1017	1
2026-02-11	16:27:59.890	1.26	-0.595	0.28	0.062952	0.02196	1.010892	0.2985	0.237	0.5205	0	140	1017	1
2026-02-11	16:27:59.910	1.295	-0.49	0.28	0.061976	0.021716	1.015284	0.2925	0.2385	0.531	0	140	1017	1
2026-02-11	16:27:59.930	1.295	-0.63	0.245	0.066124	0.021228	1.010404	0.2955	0.243	0.522	0	140	1017	1
2026-02-11	16:27:59.950	1.295	-0.595	0.245	0.064416	0.020008	1.010892	0.297	0.2415	0.522	0	140	1017	1
2026-02-11	16:27:59.970	1.26	-0.49	0.245	0.064416	0.020496	1.016748	0.2925	0.243	0.5295	0	140	1017	1
2026-02-11	16:27:59.990	1.33	-0.56	0.21	0.063196	0.019032	1.011868	0.294	0.24	0.522	0	140	1017	1
2026-02-11	16:28:00.010	1.295	-0.595	0.245	0.063196	0.018788	1.01138	0.2955	0.2475	0.5205	0	117	1022	1
2026-02-11	16:28:00.030	1.26	-0.49	0.245	0.060512	0.01952	1.01504	0.2925	0.237	0.5175	0	117	1022	1
2026-02-11	16:28:00.050	1.26	-0.595	0.245	0.063684	0.020252	1.011868	0.2925	0.2475	0.516	0	117	1022	1
2026-02-11	16:28:00.070	1.26	-0.525	0.245	0.065392	0.01952	1.011136	0.294	0.2445	0.5205	0	117	1022	1
2026-02-11	16:28:00.090	1.295	-0.56	0.28	0.06222	0.024156	1.013332	0.2865	0.2415	0.5235	0	117	1022	1
2026-02-11	16:28:00.110	1.295	-0.56	0.245	0.06588	0.020496	1.00894	0.288	0.243	0.5235	0	117	1022	1
2026-02-11	16:28:00.130	1.26	-0.56	0.245	0.063684	0.018544	1.012356	0.297	0.243	0.5295	0	117	1022	1
2026-02-11	16:28:00.150	1.26	-0.56	0.28	0.065392	0.021228	1.011868	0.2895	0.237	0.522	0	117	1022	1
2026-02-11	16:28:00.170	1.26	-0.56	0.28	0.06466	0.018788	1.012844	0.294	0.246	0.5235	0	117	1022	1
2026-02-11	16:28:00.190	1.225	-0.56	0.245	0.065392	0.022692	1.011868	0.2925	0.246	0.522	0	117	1022	1
2026-02-11	16:28:00.210	1.26	-0.56	0.245	0.06344	0.023912	1.0126	0.291	0.2415	0.5175	0	98	1025	1
2026-02-11	16:28:00.230	1.26	-0.56	0.245	0.065392	0.018056	1.013576	0.2925	0.2475	0.5205	0	98	1025	1
2026-02-11	16:28:00.250	1.26	-0.56	0.245	0.064904	0.02074	1.013576	0.297	0.2385	0.516	0	98	1025	1
2026-02-11	16:28:00.270	1.26	-0.595	0.245	0.06466	0.018056	1.011868	0.285	0.2325	0.5145	0	98	1025	1
2026-02-11	16:28:00.290	1.26	-0.56	0.245	0.06832	0.02196	1.009916	0.2925	0.24	0.5145	0	98	1025	1
2026-02-11	16:28:00.310	1.225	-0.56	0.28	0.068564	0.023424	1.012356	0.2985	0.237	0.519	0	98	1025	1
2026-02-11	16:28:00.330	1.26	-0.525	0.28	0.0671	0.021228	1.0126	0.288	0.2415	0.5235	0	98	1025	1
2026-02-11	16:28:00.350	1.295	-0.56	0.315	0.064904	0.021716	1.01382	0.2955	0.24	0.5115	0	98	1025	1
2026-02-11	16:28:00.370	1.26	-0.525	0.28	0.065148	0.019764	1.01382	0.2985	0.243	0.525	0	98	1025	1
2026-02-11	16:28:00.390	1.225	-0.56	0.21	0.065392	0.020008	1.01382	0.294	0.2385	0.5235	0	98	1025	1
2026-02-11	16:28:00.410	1.26	-0.525	0.245	0.060512	0.016592	1.013332	0.2895	0.237	0.522	0	83	1028	1
2026-02-11	16:28:00.430	1.26	-0.595	0.21	0.06734399	0.016348	1.012356	0.2895	0.24	0.522	0	83	1028	1
2026-02-11	16:28:00.450	1.225	-0.56	0.245	0.066124	0.017324	1.012356	0.2895	0.24	0.522	0	83	1028	1
2026-02-11	16:28:00.470	1.26	-0.525	0.28	0.063928	0.016592	1.011136	0.288	0.24	0.5175	0	83	1028	1
2026-02-11	16:28:00.490	1.26	-0.56	0.245	0.064904	0.02318	1.01382	0.2895	0.2415	0.5145	0	83	1028	1
2026-02-11	16:28:00.510	1.26	-0.56	0.21	0.060268	0.01952	1.012112	0.291	0.2415	0.516	0	83	1028	1
2026-02-11	16:28:00.530	1.26	-0.56	0.245	0.06344	0.02074	1.011136	0.2895	0.24	0.519	0	83	1028	1
2026-02-11	16:28:00.550	1.26	-0.56	0.28	0.063684	0.019032	1.011624	0.2925	0.24	0.519	0	83	1028	1
2026-02-11	16:28:00.570	1.26	-0.56	0.21	0.063684	0.021472	1.010648	0.2925	0.24	0.5175	0	83	1028	1
2026-02-11	16:28:00.590	1.26	-0.56	0.28	0.062708	0.021228	1.010892	0.2925	0.2385	0.516	0	83	1028	1
2026-02-11	16:28:00.610	1.26	-0.525	0.28	0.064416	0.022448	1.009672	0.2925	0.2415	0.5205	0	71	1030	1
2026-02-11	16:28:00.630	1.26	-0.595	0.28	0.066124	0.01708	1.010648	0.2925	0.2385	0.522	0	71	1030	1
2026-02-11	16:28:00.650	1.26	-0.525	0.245	0.06222	0.023668	1.011868	0.2925	0.2355	0.519	0	71	1030	1
2026-02-11	16:28:00.670	1.295	-0.63	0.245	0.063684	0.019764	1.01138	0.2955	0.24	0.5175	0	71	1030	1
2026-02-11	16:28:00.690	1.26	-0.56	0.21	0.064172	0.01708	1.014064	0.294	0.24	0.519	0	71	1030	1
2026-02-11	16:28:00.710	1.26	-0.56	0.28	0.066124	0.020252	1.012356	0.2895	0.2355	0.525	0	71	1030	1
2026-02-11	16:28:00.730	1.26	-0.56	0.28	0.061488	0.016348	1.01382	0.294	0.2355	0.525	0	71	1030	1
2026-02-11	16:28:00.750	1.26	-0.595	0.28	0.066124	0.0244	1.01138	0.294	0.2415	0.522	0	71	1030	1
2026-02-11	16:28:00.770	1.26	-0.525	0.245	0.062952	0.019032	1.012356	0.2925	0.2385	0.519	0	71	1030	1
2026-02-11	16:28:00.790	1.26	-0.595	0.21	0.061976	0.021716	1.01138	0.291	0.237	0.516	0	71	1030	1
2026-02-11	16:28:00.810	1.295	-0.525	0.21	0.062952	0.021228	1.012112	0.291	0.2385	0.516	0	61	1031	1
2026-02-11	16:28:00.830	1.295	-0.56	0.21	0.06466	0.021228	1.013088	0.294	0.2415	0.5205	0	61	1031	1
2026-02-11	16:28:00.850	1.295	-0.56	0.28	0.064416	0.020984	1.013332	0.2895	0.246	0.5235	0	61	1031	1
2026-02-11	16:28:00.870	1.295	-0.56	0.245	0.064416	0.020496	1.015528	0.291	0.2415	0.525	0	61	1031	1
2026-02-11	16:28:00.890	1.26	-0.56	0.245	0.062464	0.019276	1.013576	0.2955	0.24	0.5265	0	61	1031	1
2026-02-11	16:28:00.910	1.225	-0.56	0.245	0.064172	0.018056	1.012844	0.2925	0.24	0.5235	0	61	1031	1
2026-02-11	16:28:00.930	1.26	-0.56	0.245	0.064172	0.019764	1.01504	0.2895	0.2385	0.5235	0	61	1031	1
2026-02-11	16:28:00.950	1.26	-0.595	0.245	0.062952	0.02074	1.011136	0.2895	0.2385	0.5235	0	61	1031	1
2026-02-11	16:28:00.970	1.26	-0.595	0.21	0.064904	0.0244	1.011136	0.2895	0.2385	0.5235	0	61	1031	1
2026-02-11	16:28:00.990	1.26	-0.525	0.28	0.065148	0.020496	1.013088	0.297	0.234	0.5175	0	61	1031	1
2026-02-11	16:28:01.010	1.295	-0.595	0.245	0.066124	0.02196	1.013576	0.297	0.24	0.5235	0	52	1032	1
2026-02-11	16:28:01.030	1.295	-0.56	0.245	0.062952	0.019276	1.01382	0.288	0.2415	0.5235	0	52	1032	1
2026-02-11	16:28:01.050	1.26	-0.56	0.28	0.06588	0.021228	1.012844	0.297	0.2385	0.528	0	52	1032	1
2026-02-11	16:28:01.070	1.26	-0.56	0.245	0.062708	0.022448	1.012112	0.2865	0.234	0.5175	0	52	1032	1
2026-02-11	16:28:01.090	1.26	-0.525	0.245	0.065148	0.02318	1.012844	0.294	0.2415	0.5175	0	52	1032	1
2026-02-11	16:28:01.110	1.295	-0.56	0.245	0.066124	0.022936	1.01382	0.2865	0.243	0.5265	0	52	1032	1
2026-02-11	16:28:01.130	1.26	-0.525	0.21	0.062952	0.018788	1.013576	0.2955	0.2415	0.513	0	52	1032	1
2026-02-11	16:28:01.150	1.26	-0.595	0.245	0.06466	0.022204	1.014308	0.2925	0.2385	0.528	0	52	1032	1
2026-02-11	16:28:01.170	1.295	-0.56	0.245	0.06466	0.017812	1.010648	0.2925	0.2385	0.516	0	52	1032	1
2026-02-11	16:28:01.190	1.26	-0.56	0.245	0.06588	0.020252	1.014064	0.294	0.249	0.51	0	52	1032	1
2026-02-11	16:28:01.210	1.26	-0.525	0.245	0.062464	0.023912	1.012844	0.294	0.246	0.519	0	45	1033	1
2026-02-11	16:28:01.230	1.295	-0.56	0.245	0.062464	0.018544	1.012844	0.2925	0.2385	0.516	0	45	1033	1
2026-02-11	16:28:01.250	1.225	-0.525	0.245	0.061732	0.02074	1.011624	0.291	0.246	0.5145	0	45	1033	1
2026-02-11	16:28:01.270	1.26	-0.595	0.28	0.065636	0.022936	1.012356	0.294	0.24	0.5205	0	45	1033	1
2026-02-11	16:28:01.290	1.225	-0.56	0.28	0.067832	0.02318	1.014064	0.2835	0.2415	0.519	0	45	1033	1
2026-02-11	16:28:01.310	1.295	-0.56	0.21	0.065392	0.019764	1.012356	0.291	0.246	0.5235	0	45	1033	1
2026-02-11	16:28:01.330	1.26	-0.525	0.28	0.070516	0.020252	1.014552	0.291	0.243	0.5115	0	45	1033	1
2026-02-11	16:28:01.350	1.26	-0.56	0.28	0.064904	0.01952	1.010892	0.2895	0.237	0.5175	0	45	1033	1
2026-02-11	16:28:01.370	1.295	-0.56	0.28	0.06222	0.020008	1.013088	0.3045	0.246	0.522	0	45	1033	1
2026-02-11	16:28:01.390	1.295	-0.525	0.245	0.065392	0.0183	1.0126	0.2985	0.24	0.5085	0	45	1033	1
2026-02-11	16:28:01.410	1.26	-0.63	0.21	0.066368	0.024888	1.009916	0.2955	0.234	0.5205	0	39	1034	1
2026-02-11	16:28:01.430	1.26	-0.49	0.28	0.06734399	0.019276	1.01748	0.291	0.234	0.525	0	39	1034	1
2026-02-11	16:28:01.450	1.26	-0.595	0.28	0.06466	0.019276	1.011136	0.288	0.252	0.5235	0	39	1034	1
2026-02-11	16:28:01.470	1.26	-0.56	0.245	0.061976	0.018056	1.011136	0.288	0.252	0.5235	0	39	1034	1
2026-02-11	16:28:01.490	1.26	-0.56	0.245	0.06344	0.024644	1.013576	0.2895	0.249	0.5175	0	39	1034	1
2026-02-11	16:28:01.510	1.26	-0.595	0.175	0.066124	0.020984	1.015772	0.2925	0.246	0.513	0	39	1034	1
2026-02-11	16:28:01.530	1.225	-0.56	0.21	0.061244	0.021228	1.010404	0.291	0.243	0.516	0	39	1034	1
2026-02-11	16:28:01.550	1.26	-0.56	0.245	0.065148	0.01952	1.012112	0.291	0.2415	0.5145	0	39	1034	1
2026-02-11	16:28:01.570	1.225	-0.56	0.245	0.065148	0.020252	1.009428	0.2895	0.243	0.5175	0	39	1034	1
2026-02-11	16:28:01.590	1.26	-0.56	0.245	0.064416	0.02074	1.009184	0.285	0.2415	0.525	0	39	1034	1
2026-02-11	16:28:01.610	1.26	-0.56	0.28	0.064172	0.019764	1.0126	0.288	0.2445	0.522	0	34	1034	1
2026-02-11	16:28:01.630	1.26	-0.56	0.245	0.066368	0.022204	1.011868	0.297	0.246	0.516	0	34	1034	1
2026-02-11	16:28:01.650	1.26	-0.56	0.175	0.063684	0.020252	1.010648	0.297	0.2415	0.516	0	34	1034	1
2026-02-11	16:28:01.670	1.225	-0.56	0.245	0.067588	0.022204	1.01016	0.2895	0.243	0.516	0	34	1034	1
2026-02-11	16:28:01.690	1.26	-0.56	0.245	0.061976	0.022936	1.011868	0.291	0.243	0.5115	0	34	1034	1
2026-02-11	16:28:01.710	1.26	-0.56	0.245	0.066612	0.018788	1.013576	0.2925	0.243	0.522	0	34	1034	1
2026-02-11	16:28:01.730	1.225	-0.525	0.28	0.066612	0.02196	1.014796	0.2895	0.2415	0.525	0	34	1034	1
2026-02-11	16:28:01.750	1.26	-0.56	0.28	0.06344	0.019032	1.011868	0.291	0.24	0.525	0	34	1034	1
2026-02-11	16:28:01.770	1.225	-0.56	0.245	0.061732	0.021228	1.012844	0.291	0.243	0.5265	0	34	1034	1
2026-02-11	16:28:01.790	1.26	-0.56	0.245	0.065392	0.0183	1.012356	0.2895	0.2415	0.519	0	34	1034	1
2026-02-11	16:28:01.810	1.295	-0.56	0.245	0.064904	0.020008	1.01382	0.294	0.243	0.5145	0	29	1035	1
2026-02-11	16:28:01.830	1.26	-0.56	0.28	0.06344	0.020252	1.015772	0.291	0.243	0.519	0	29	1035	1
2026-02-11	16:28:01.850	1.26	-0.56	0.245	0.063684	0.022204	1.013088	0.285	0.2445	0.519	0	29	1035	1
2026-02-11	16:28:01.870	1.225	-0.56	0.21	0.064416	0.020984	1.012844	0.288	0.246	0.5175	0	29	1035	1
2026-02-11	16:28:01.890	1.26	-0.56	0.245	0.065148	0.02074	1.013088	0.2925	0.237	0.5205	0	29	1035	1
2026-02-11	16:28:01.910	1.26	-0.56	0.245	0.063684	0.021228	1.01138	0.294	0.2385	0.5175	0	29	1035	1
2026-02-11	16:28:01.930	1.26	-0.56	0.245	0.065392	0.021716	1.013332	0.294	0.2445	0.5205	0	29	1035	1
2026-02-11	16:28:01.950	1.26	-0.525	0.245	0.064416	0.01952	1.01138	0.2925	0.2445	0.522	0	29	1035	1
2026-02-11	16:28:01.970	1.225	-0.56	0.245	0.063684	0.020252	1.012112	0.294	0.24	0.5175	0	29	1035	1
2026-02-11	16:28:01.990	1.295	-0.56	0.245	0.066124	0.02196	1.01138	0.2985	0.234	0.522	0	29	1035	1
2026-02-11	16:28:02.010	1.295	-0.56	0.245	0.064172	0.019032	1.010404	0.2955	0.237	0.5235	0	25	1035	1
2026-02-11	16:28:02.030	1.295	-0.56	0.21	0.064172	0.020496	1.012112	0.2925	0.24	0.519	0	25	1035	1
2026-02-11	16:28:02.050	1.225	-0.56	0.245	0.066124	0.020984	1.013576	0.2925	0.2385	0.5205	0	25	1035	1
2026-02-11	16:28:02.070	1.26	-0.56	0.21	0.06588	0.02196	1.0126	0.288	0.2385	0.519	0	25	1035	1
2026-02-11	16:28:02.090	1.225	-0.525	0.245	0.065636	0.021716	1.012112	0.2925	0.237	0.5145	0	25	1035	1
2026-02-11	16:28:02.110	1.26	-0.56	0.28	0.064172	0.020496	1.014064	0.303	0.243	0.516	0	25	1035	1
2026-02-11	16:28:02.130	1.26	-0.56	0.21	0.064904	0.02074	1.01626	0.297	0.2475	0.5235	0	25	1035	1
2026-02-11	16:28:02.150	1.26	-0.56	0.245	0.066124	0.02196	1.011624	0.2895	0.2445	0.522	0	25	1035	1
2026-02-11	16:28:02.170	1.26	-0.525	0.245	0.066612	0.02074	1.014552	0.288	0.24	0.5175	0	25	1035	1
2026-02-11	16:28:02.190	1.225	-0.56	0.245	0.062952	0.02074	1.014064	0.288	0.234	0.522	0	25	1035	1
2026-02-11	16:28:02.210	1.295	-0.56	0.245	0.06222	0.024644	1.011624	0.288	0.237	0.525	0	22	1035	1
2026-02-11	16:28:02.230	1.295	-0.56	0.245	0.063684	0.022448	1.012356	0.288	0.237	0.525	0	22	1035	1
2026-02-11	16:28:02.250	1.295	-0.56	0.21	0.06222	0.02196	1.014064	0.288	0.237	0.525	0	22	1035	1
2026-02-11	16:28:02.270	1.26	-0.56	0.28	0.065148	0.018056	1.01382	0.297	0.243	0.5145	0	22	1035	1
2026-02-11	16:28:02.290	1.26	-0.525	0.245	0.066368	0.020008	1.013576	0.2925	0.24	0.5325	0	22	1035	1
2026-02-11	16:28:02.310	1.26	-0.56	0.245	0.065148	0.020008	1.009916	0.3	0.24	0.519	0	22	1035	1
2026-02-11	16:28:02.330	1.26	-0.525	0.245	0.064172	0.020252	1.014064	0.291	0.237	0.5205	0	22	1035	1
2026-02-11	16:28:02.350	1.26	-0.525	0.245	0.063196	0.021716	1.015284	0.291	0.234	0.519	0	22	1035	1
2026-02-11	16:28:02.370	1.295	-0.56	0.245	0.065636	0.017568	1.0126	0.288	0.2355	0.516	0	22	1035	1
2026-02-11	16:28:02.390	1.26	-0.56	0.245	0.06222	0.021228	1.012112	0.2955	0.2415	0.513	0	22	1035	1
2026-02-11	16:28:02.410	1.26	-0.56	0.245	0.06344	0.020008	1.012112	0.291	0.2445	0.531	0	19	1035	1
2026-02-11	16:28:02.430	1.33	-0.595	0.245	0.062708	0.020008	1.010892	0.291	0.2415	0.5295	0	19	1035	1
2026-02-11	16:28:02.450	1.295	-0.595	0.28	0.063684	0.019032	1.013088	0.2925	0.2415	0.5085	0	19	1035	1
2026-02-11	16:28:02.470	1.295	-0.56	0.245	0.062708	0.02196	1.014796	0.294	0.243	0.519	0	19	1035	1
2026-02-11	16:28:02.490	1.295	-0.595	0.28	0.062464	0.020984	1.011868	0.2955	0.24	0.5235	0	19	1035	1
2026-02-11	16:28:02.510	1.295	-0.56	0.245	0.06466	0.020984	1.010892	0.2955	0.246	0.507	0	19	1035	1
2026-02-11	16:28:02.530	1.295	-0.56	0.21	0.065636	0.020496	1.012844	0.291	0.2475	0.522	0	19	1035	1
2026-02-11	16:28:02.550	1.295	-0.56	0.245	0.065392	0.02318	1.013576	0.2895	0.24	0.5235	0	19	1035	1
2026-02-11	16:28:02.570	1.295	-0.56	0.28	0.06466	0.018056	1.010404	0.2925	0.237	0.5235	0	19	1035	1
2026-02-11	16:28:02.590	1.26	-0.56	0.28	0.064904	0.018788	1.009916	0.297	0.24	0.522	0	19	1035	1
2026-02-11	16:28:02.610	1.295	-0.56	0.245	0.06222	0.022448	1.014064	0.2955	0.2385	0.519	0	16	1035	1
2026-02-11	16:28:02.630	1.225	-0.56	0.245	0.066368	0.022692	1.009916	0.2925	0.2355	0.513	0	16	1035	1
2026-02-11	16:28:02.650	1.26	-0.595	0.245	0.065636	0.02196	1.011136	0.2955	0.2355	0.5145	0	16	1035	1
2026-02-11	16:28:02.670	1.26	-0.56	0.28	0.061976	0.019764	1.013088	0.297	0.24	0.5235	0	16	1035	1
2026-02-11	16:28:02.690	1.295	-0.56	0.21	0.065636	0.020008	1.01382	0.2925	0.243	0.525	0	16	1035	1
2026-02-11	16:28:02.710	1.26	-0.56	0.21	0.065392	0.021228	1.0126	0.2925	0.2415	0.5205	0	16	1035	1
2026-02-11	16:28:02.730	1.26	-0.525	0.28	0.061	0.018056	1.014308	0.294	0.237	0.5205	0	16	1035	1
2026-02-11	16:28:02.750	1.295	-0.595	0.28	0.06588	0.018056	1.011868	0.2925	0.2385	0.5235	0	16	1035	1
2026-02-11	16:28:02.770	1.295	-0.525	0.245	0.061732	0.020008	1.013332	0.294	0.24	0.522	0	16	1035	1
2026-02-11	16:28:02.790	1.295	-0.56	0.21	0.066124	0.020252	1.01382	0.2895	0.2385	0.5235	0	16	1035	1
2026-02-11	16:28:02.810	1.295	-0.595	0.28	0.065636	0.018544	1.012112	0.288	0.2385	0.5205	0	14	1035	1
2026-02-11	16:28:02.830	1.26	-0.56	0.245	0.065148	0.023424	1.012844	0.2895	0.24	0.519	0	14	1035	1
2026-02-11	16:28:02.850	1.26	-0.56	0.28	0.060024	0.022936	1.0126	0.291	0.24	0.5235	0	14	1035	1
2026-02-11	16:28:02.870	1.295	-0.525	0.28	0.06588	0.02318	1.01138	0.294	0.24	0.5175	0	14	1035	1
2026-02-11	16:28:02.890	1.26	-0.56	0.28	0.062952	0.020008	1.014064	0.291	0.2445	0.519	0	14	1035	1
2026-02-11	16:28:02.910	1.225	-0.56	0.21	0.062464	0.018788	1.013088	0.2865	0.2445	0.525	0	14	1035	1
2026-02-11	16:28:02.930	1.26	-0.595	0.245	0.065392	0.02074	1.012112	0.291	0.2415	0.522	0	14	1035	1
2026-02-11	16:28:02.950	1.26	-0.525	0.28	0.064416	0.017812	1.011624	0.2925	0.24	0.516	0	14	1035	1
2026-02-11	16:28:02.970	1.295	-0.56	0.21	0.06344	0.019764	1.014552	0.288	0.2355	0.522	0	14	1035	1
2026-02-11	16:28:02.990	1.295	-0.56	0.245	0.064904	0.020496	1.0126	0.2925	0.24	0.5235	0	14	1035	1
2026-02-11	16:28:03.010	1.26	-0.56	0.245	0.065148	0.020008	1.012112	0.2955	0.24	0.522	0	12	1035	1
2026-02-11	16:28:03.030	1.295	-0.56	0.28	0.062708	0.019764	1.0126	0.2925	0.2385	0.525	0	12	1035	1
2026-02-11	16:28:03.050	1.295	-0.595	0.245	0.066368	0.024888	1.00894	0.2955	0.2445	0.5205	0	12	1035	1
2026-02-11	16:28:03.070	1.26	-0.56	0.245	0.063928	0.016592	1.016016	0.2955	0.2475	0.5205	0	12	1035	1
2026-02-11	16:28:03.090	1.295	-0.56	0.245	0.0671	0.019032	1.011868	0.291	0.2415	0.522	0	12	1035	1
2026-02-11	16:28:03.110	1.225	-0.56	0.245	0.066124	0.020984	1.013088	0.291	0.24	0.516	0	12	1035	1
2026-02-11	16:28:03.130	1.225	-0.525	0.245	0.061	0.019276	1.013576	0.294	0.2415	0.5175	0	12	1035	1
2026-02-11	16:28:03.150	1.26	-0.56	0.21	0.065636	0.018788	1.014308	0.288	0.2385	0.522	0	12	1035	1
2026-02-11	16:28:03.170	1.295	-0.63	0.21	0.066368	0.02318	1.01138	0.288	0.2385	0.5145	0	12	1035	1
2026-02-11	16:28:03.190	1.26	-0.56	0.28	0.063196	0.020008	1.013088	0.294	0.2385	0.5175	0	12	1035	1
2026-02-11	16:28:03.210	1.26	-0.525	0.28	0.062952	0.022448	1.012844	0.2925	0.246	0.5265	0	11	1035	1
2026-02-11	16:28:03.230	1.26	-0.56	0.245	0.067832	0.022204	1.012112	0.294	0.2445	0.522	0	11	1035	1
2026-02-11	16:28:03.250	1.295	-0.525	0.245	0.065392	0.021716	1.013332	0.297	0.24	0.519	0	11	1035	1
2026-02-11	16:28:03.270	1.26	-0.56	0.245	0.061976	0.021472	1.012844	0.2925	0.237	0.522	0	11	1035	1
2026-02-11	16:28:03.290	1.295	-0.525	0.28	0.061488	0.020984	1.012112	0.291	0.2385	0.519	0	11	1035	1
2026-02-11	16:28:03.310	1.26	-0.595	0.245	0.06588	0.020496	1.01016	0.2955	0.246	0.5175	0	11	1035	1
2026-02-11	16:28:03.330	1.26	-0.56	0.28	0.065148	0.025376	1.017968	0.2985	0.246	0.5235	0	11	1035	1
2026-02-11	16:28:03.350	1.295	-0.525	0.245	0.064172	0.02074	1.012844	0.297	0.24	0.5205	0	11	1035	1
2026-02-11	16:28:03.370	1.295	-0.56	0.245	0.061732	0.019032	1.00772	0.2925	0.237	0.522	0	11	1035	1
2026-02-11	16:28:03.390	1.26	-0.42	0.245	0.066368	0.022448	1.01748	0.2895	0.237	0.528	0	11	1035	1
2026-02-11	16:28:03.410	1.295	-0.56	0.28	0.063928	0.023668	1.01382	0.291	0.2355	0.5235	0	9	1035	1
2026-02-11	16:28:03.430	1.295	-0.595	0.245	0.063928	0.018788	1.01138	0.2955	0.24	0.5205	0	9	1035	1
2026-02-11	16:28:03.450	1.26	-0.455	0.245	0.061488	0.02074	1.01504	0.294	0.24	0.519	0	9	1035	1
2026-02-11	16:28:03.470	1.26	-0.56	0.245	0.06466	0.021716	1.010404	0.2925	0.24	0.5175	0	9	1035	1
2026-02-11	16:28:03.490	1.295	-0.56	0.28	0.063196	0.021472	1.010648	0.2955	0.2415	0.519	0	9	1035	1
2026-02-11	16:28:03.510	1.26	-0.525	0.28	0.062952	0.020984	1.014064	0.2985	0.243	0.522	0	9	1035	1
2026-02-11	16:28:03.530	1.295	-0.56	0.21	0.061488	0.022692	1.010404	0.2985	0.243	0.522	0	9	1035	1
2026-02-11	16:28:03.550	1.225	-0.525	0.21	0.068076	0.020252	1.013088	0.294	0.252	0.5265	0	9	1035	1
2026-02-11	16:28:03.570	1.225	-0.525	0.245	0.063928	0.022204	1.011624	0.2925	0.2325	0.5235	0	9	1035	1
2026-02-11	16:28:03.590	1.26	-0.595	0.245	0.06344	0.020252	1.014064	0.291	0.2445	0.5175	0	9	1035	1
2026-02-11	16:28:03.610	1.26	-0.525	0.21	0.06832	0.020496	1.010892	0.291	0.2445	0.5175	0	8	1035	1
2026-02-11	16:28:03.630	1.26	-0.595	0.245	0.065148	0.019276	1.01138	0.2955	0.243	0.5205	0	8	1035	1
2026-02-11	16:28:03.650	1.295	-0.595	0.28	0.069052	0.023668	1.011136	0.3015	0.243	0.5235	0	8	1035	1
2026-02-11	16:28:03.670	1.26	-0.525	0.245	0.06466	0.020496	1.01382	0.297	0.24	0.522	0	8	1035	1
2026-02-11	16:28:03.690	1.295	-0.56	0.245	0.064416	0.025376	1.01138	0.294	0.2385	0.5205	0	8	1035	1
2026-02-11	16:28:03.710	1.295	-0.56	0.245	0.063196	0.021716	1.013332	0.294	0.24	0.5205	0	8	1035	1
2026-02-11	16:28:03.730	1.295	-0.525	0.21	0.064416	0.018788	1.014552	0.291	0.243	0.5235	0	8	1035	1
2026-02-11	16:28:03.750	1.295	-0.56	0.245	0.060756	0.018544	1.014552	0.2865	0.2415	0.525	0	8	1035	1
2026-02-11	16:28:03.770	1.26	-0.56	0.245	0.064904	0.021472	1.009916	0.294	0.24	0.519	0	8	1035	1
2026-02-11	16:28:03.790	1.26	-0.56	0.245	0.061976	0.021716	1.012844	0.294	0.2415	0.5175	0	8	1035	1
2026-02-11	16:28:03.810	1.26	-0.56	0.245	0.063196	0.021472	1.010892	0.2865	0.24	0.519	0	7	1035	1
2026-02-11	16:28:03.830	1.295	-0.56	0.28	0.06466	0.022448	1.013576	0.2895	0.2415	0.513	0	7	1035	1
2026-02-11	16:28:03.850	1.26	-0.525	0.245	0.06222	0.022448	1.012844	0.291	0.243	0.5175	0	7	1035	1
2026-02-11	16:28:03.870	1.26	-0.56	0.28	0.061488	0.020008	1.013088	0.291	0.243	0.5205	0	7	1035	1
2026-02-11	16:28:03.890	1.26	-0.56	0.245	0.065148	0.017324	1.014308	0.2955	0.243	0.5235	0	7	1035	1
2026-02-11	16:28:03.910	1.26	-0.56	0.245	0.062708	0.021472	1.014064	0.2985	0.243	0.522	0	7	1035	1
2026-02-11	16:28:03.930	1.225	-0.56	0.245	0.061	0.021716	1.010892	0.294	0.243	0.525	0	7	1035	1
2026-02-11	16:28:03.950	1.26	-0.56	0.21	0.065636	0.019764	1.014552	0.291	0.24	0.5235	0	7	1035	1
2026-02-11	16:28:03.970	1.295	-0.56	0.245	0.065148	0.020008	1.011624	0.288	0.243	0.5205	0	7	1035	1
2026-02-11	16:28:03.990	1.26	-0.56	0.21	0.060512	0.020496	1.010892	0.285	0.243	0.525	0	7	1035	1
2026-02-11	16:28:04.010	1.225	-0.525	0.315	0.059536	0.021472	1.013576	0.2895	0.24	0.5265	0	7	1035	1
2026-02-11	16:28:04.030	1.26	-0.56	0.28	0.063196	0.020008	1.012356	0.291	0.2445	0.525	0	7	1035	1
2026-02-11	16:28:04.050	1.295	-0.56	0.28	0.068564	0.019276	1.015528	0.2925	0.243	0.5235	0	7	1035	1
2026-02-11	16:28:04.070	1.295	-0.56	0.245	0.061	0.020008	1.01138	0.291	0.24	0.522	0	7	1035	1
2026-02-11	16:28:04.090	1.26	-0.56	0.21	0.063928	0.019032	1.010892	0.2895	0.24	0.519	0	7	1035	1
2026-02-11	16:28:04.110	1.26	-0.56	0.245	0.064416	0.019032	1.011136	0.294	0.2385	0.525	0	7	1035	1
2026-02-11	16:28:04.130	1.26	-0.56	0.245	0.065148	0.02318	1.013088	0.297	0.24	0.5235	0	7	1035	1
2026-02-11	16:28:04.150	1.26	-0.525	0.245	0.066368	0.02074	1.013332	0.297	0.2475	0.519	0	7	1035	1
2026-02-11	16:28:04.170	1.26	-0.525	0.245	0.063684	0.020984	1.011624	0.2955	0.246	0.5205	0	7	1035	1
2026-02-11	16:28:04.190	1.26	-0.56	0.245	0.065148	0.02074	1.007476	0.2925	0.2385	0.519	0	7	1035	1
2026-02-11	16:28:04.210	1.225	-0.49	0.245	0.063928	0.02318	1.015528	0.294	0.2415	0.519	0	6	1035	1
2026-02-11	16:28:04.230	1.295	-0.525	0.21	0.064904	0.020252	1.011868	0.297	0.2415	0.525	0	6	1035	1
2026-02-11	16:28:04.250	1.26	-0.63	0.21	0.06588	0.020496	1.014064	0.3	0.24	0.5205	0	6	1035	1
2026-02-11	16:28:04.270	1.295	-0.525	0.28	0.064904	0.020496	1.01016	0.2955	0.243	0.519	0	6	1035	1
2026-02-11	16:28:04.290	1.26	-0.595	0.245	0.062952	0.020496	1.013332	0.291	0.243	0.5205	0	6	1035	1
2026-02-11	16:28:04.310	1.26	-0.49	0.245	0.061	0.020496	1.013576	0.2925	0.243	0.5205	0	6	1035	1
2026-02-11	16:28:04.330	1.295	-0.665	0.28	0.06466	0.019764	1.010892	0.294	0.24	0.525	0	6	1035	1
2026-02-11	16:28:04.350	1.225	-0.455	0.28	0.066612	0.021228	1.016504	0.2925	0.2385	0.525	0	6	1035	1
2026-02-11	16:28:04.370	1.26	-0.595	0.245	0.064172	0.022936	1.0126	0.294	0.2415	0.522	0	6	1035	1
2026-02-11	16:28:04.390	1.295	-0.56	0.28	0.061	0.02074	1.01138	0.294	0.2415	0.5235	0	6	1035	1
2026-02-11	16:28:04.410	1.295	-0.63	0.245	0.065636	0.021472	1.011136	0.2925	0.2415	0.5265	0	6	1035	1
2026-02-11	16:28:04.430	1.26	-0.49	0.245	0.064904	0.022204	1.01992	0.2955	0.2415	0.5175	0	6	1035	1
2026-02-11	16:28:04.450	1.26	-0.595	0.245	0.066368	0.018544	1.009184	0.2985	0.2415	0.516	0	6	1035	1
2026-02-11	16:28:04.470	1.295	-0.56	0.245	0.062464	0.021228	1.009916	0.2985	0.24	0.522	0	6	1035	1
2026-02-11	16:28:04.490	1.26	-0.525	0.245	0.062952	0.017324	1.012844	0.2925	0.2385	0.516	0	6	1035	1
2026-02-11	16:28:04.510	1.26	-0.595	0.245	0.06734399	0.020252	1.010892	0.291	0.2415	0.5175	0	6	1035	1
2026-02-11	16:28:04.530	1.295	-0.525	0.245	0.06344	0.022936	1.01504	0.291	0.24	0.5235	0	6	1035	1
2026-02-11	16:28:04.550	1.26	-0.56	0.245	0.061976	0.021716	1.011624	0.2895	0.243	0.519	0	6	1035	1
2026-02-11	16:28:04.570	1.26	-0.595	0.28	0.063196	0.018788	1.01138	0.2895	0.246	0.519	0	6	1035	1
2026-02-11	16:28:04.590	1.26	-0.56	0.28	0.064172	0.02196	1.013332	0.285	0.2475	0.5205	0	6	1035	1
2026-02-11	16:28:04.610	1.26	-0.595	0.245	0.066124	0.020984	1.016504	0.2925	0.2505	0.516	0	5	1035	1
2026-02-11	16:28:04.630	1.295	-0.525	0.21	0.064172	0.021716	1.01138	0.3	0.243	0.5145	0	5	1035	1
2026-02-11	16:28:04.650	1.33	-0.595	0.245	0.064904	0.021228	1.011868	0.297	0.237	0.5205	0	5	1035	1
2026-02-11	16:28:04.670	1.295	-0.595	0.245	0.06344	0.020252	1.010892	0.297	0.2385	0.525	0	5	1035	1
2026-02-11	16:28:04.690	1.225	-0.56	0.245	0.063684	0.019764	1.01504	0.297	0.2385	0.525	0	5	1035	1
2026-02-11	16:28:04.710	1.26	-0.56	0.245	0.064904	0.021716	1.014552	0.291	0.243	0.528	0	5	1035	1
2026-02-11	16:28:04.730	1.26	-0.525	0.21	0.066612	0.020008	1.012112	0.291	0.243	0.528	0	5	1035	1
2026-02-11	16:28:04.750	1.26	-0.56	0.245	0.064904	0.021228	1.013088	0.291	0.243	0.528	0	5	1035	1
2026-02-11	16:28:04.770	1.26	-0.525	0.245	0.063928	0.019764	1.010892	0.291	0.243	0.528	0	5	1035	1
2026-02-11	16:28:04.790	1.26	-0.595	0.21	0.062464	0.021716	1.014796	0.291	0.243	0.528	0	5	1035	1
2026-02-11	16:28:04.810	1.26	-0.525	0.245	0.06734399	0.021472	1.01382	0.294	0.2475	0.525	0	5	1035	1
2026-02-11	16:28:04.830	1.26	-0.56	0.245	0.066612	0.02196	1.011868	0.297	0.246	0.519	0	5	1035	1
2026-02-11	16:28:04.850	1.26	-0.56	0.245	0.065148	0.020252	1.014308	0.2925	0.237	0.5175	0	5	1035	1
2026-02-11	16:28:04.870	1.26	-0.525	0.245	0.064416	0.020984	1.010648	0.291	0.2385	0.5205	0	5	1035	1
2026-02-11	16:28:04.890	1.295	-0.595	0.28	0.061976	0.018056	1.012356	0.294	0.2385	0.522	0	5	1035	1
2026-02-11	16:28:04.910	1.295	-0.56	0.21	0.063196	0.018788	1.013576	0.2955	0.2385	0.519	0	5	1035	1
2026-02-11	16:28:04.930	1.26	-0.56	0.245	0.06466	0.022936	1.014064	0.297	0.2445	0.5175	0	5	1035	1
2026-02-11	16:28:04.950	1.26	-0.56	0.245	0.066124	0.019764	1.014064	0.2895	0.24	0.519	0	5	1035	1
2026-02-11	16:28:04.970	1.225	-0.56	0.28	0.065148	0.020496	1.010892	0.2895	0.2385	0.5145	0	5	1035	1
2026-02-11	16:28:04.990	1.26	-0.56	0.245	0.064416	0.01952	1.012844	0.2955	0.2415	0.516	0	5	1035	1
2026-02-11	16:28:05.010	1.26	-0.56	0.245	0.06588	0.018788	1.012112	0.291	0.2385	0.5235	0	4	1035	1
2026-02-11	16:28:05.030	1.225	-0.56	0.245	0.065148	0.022448	1.011868	0.294	0.243	0.522	0	4	1035	1
2026-02-11	16:28:05.050	1.295	-0.56	0.245	0.066856	0.02196	1.012844	0.2985	0.243	0.519	0	4	1035	1
2026-02-11	16:28:05.070	1.26	-0.56	0.21	0.060756	0.02074	1.011624	0.2955	0.2385	0.519	0	4	1035	1
2026-02-11	16:28:05.090	1.225	-0.56	0.245	0.067588	0.020984	1.014308	0.2925	0.2415	0.516	0	4	1035	1
2026-02-11	16:28:05.110	1.26	-0.595	0.21	0.065636	0.022204	1.012112	0.2955	0.2445	0.519	0	4	1035	1
2026-02-11	16:28:05.130	1.26	-0.56	0.245	0.064416	0.021472	1.013088	0.2985	0.24	0.5235	0	4	1035	1
2026-02-11	16:28:05.150	1.225	-0.56	0.245	0.064904	0.017812	1.011868	0.294	0.2385	0.525	0	4	1035	1
2026-02-11	16:28:05.170	1.26	-0.525	0.245	0.063928	0.019764	1.012112	0.294	0.2385	0.528	0	4	1035	1
2026-02-11	16:28:05.190	1.26	-0.525	0.245	0.064172	0.023424	1.01382	0.297	0.2385	0.5265	0	4	1035	1
2026-02-11	16:28:05.210	1.26	-0.56	0.245	0.06466	0.02196	1.0126	0.2895	0.2445	0.525	0	4	1035	1
2026-02-11	16:28:05.230	1.26	-0.56	0.245	0.064904	0.021228	1.013088	0.291	0.2445	0.5205	0	4	1035	1
2026-02-11	16:28:05.250	1.295	-0.595	0.245	0.068076	0.02196	1.014552	0.2985	0.2385	0.519	0	4	1035	1
2026-02-11	16:28:05.270	1.26	-0.56	0.245	0.062952	0.020008	1.01138	0.2925	0.2445	0.5235	0	4	1035	1
2026-02-11	16:28:05.290	1.225	-0.56	0.245	0.06466	0.019764	1.01382	0.2925	0.2415	0.525	0	4	1035	1
2026-02-11	16:28:05.310	1.26	-0.56	0.28	0.060512	0.02196	1.013332	0.297	0.2385	0.525	0	4	1035	1
2026-02-11	16:28:05.330	1.26	-0.56	0.245	0.063196	0.020252	1.014796	0.294	0.243	0.522	0	4	1035	1
2026-02-11	16:28:05.350	1.26	-0.56	0.21	0.064172	0.020984	1.01138	0.291	0.246	0.5235	0	4	1035	1
2026-02-11	16:28:05.370	1.26	-0.56	0.245	0.063684	0.023424	1.0126	0.2895	0.2415	0.5205	0	4	1035	1
2026-02-11	16:28:05.390	1.26	-0.56	0.245	0.065636	0.020984	1.012356	0.291	0.2385	0.519	0	4	1035	1
2026-02-11	16:28:05.410	1.26	-0.595	0.245	0.062708	0.021716	1.012112	0.294	0.2415	0.5235	0	4	1035	1
2026-02-11	16:28:05.430	1.26	-0.56	0.21	0.06588	0.02074	1.014064	0.2895	0.24	0.525	0	4	1035	1
2026-02-11	16:28:05.450	1.26	-0.56	0.28	0.063196	0.020252	1.010648	0.2865	0.2415	0.5175	0	4	1035	1
2026-02-11	16:28:05.470	1.26	-0.56	0.245	0.063196	0.0183	1.011624	0.291	0.243	0.519	0	4	1035	1
2026-02-11	16:28:05.490	1.295	-0.595	0.245	0.0671	0.024156	1.014064	0.2925	0.2385	0.5235	0	4	1035	1
2026-02-11	16:28:05.510	1.295	-0.56	0.21	0.06734399	0.018544	1.01138	0.294	0.237	0.5145	0	4	1035	1
2026-02-11	16:28:05.530	1.295	-0.56	0.245	0.064904	0.020984	1.014308	0.2955	0.2445	0.513	0	4	1035	1
2026-02-11	16:28:05.550	1.295	-0.595	0.245	0.064904	0.019764	1.010648	0.2955	0.249	0.5175	0	4	1035	1
2026-02-11	16:28:05.570	1.295	-0.56	0.21	0.063928	0.019032	1.014552	0.2985	0.2415	0.516	0	4	1035	1
2026-02-11	16:28:05.590	1.26	-0.56	0.245	0.067588	0.02318	1.015772	0.3	0.2445	0.519	0	4	1035	1
2026-02-11	16:28:05.610	1.295	-0.56	0.28	0.061488	0.020008	1.012356	0.2955	0.2475	0.522	0	4	1035	1
2026-02-11	16:28:05.630	1.295	-0.56	0.245	0.063928	0.023912	1.011868	0.288	0.2445	0.516	0	4	1035	1
2026-02-11	16:28:05.650	1.26	-0.56	0.245	0.06344	0.020984	1.013332	0.2865	0.243	0.5145	0	4	1035	1
2026-02-11	16:28:05.670	1.295	-0.56	0.245	0.06222	0.02318	1.012844	0.2895	0.2385	0.516	0	4	1035	1
2026-02-11	16:28:05.690	1.26	-0.56	0.245	0.064416	0.019764	1.0126	0.291	0.234	0.516	0	4	1035	1
2026-02-11	16:28:05.710	1.295	-0.595	0.245	0.06344	0.020252	1.009916	0.288	0.234	0.516	0	4	1035	1
2026-02-11	16:28:05.730	1.26	-0.56	0.245	0.06222	0.020984	1.013332	0.2895	0.24	0.5175	0	4	1035	1
2026-02-11	16:28:05.750	1.295	-0.56	0.245	0.06466	0.021716	1.01382	0.294	0.243	0.522	0	4	1035	1
2026-02-11	16:28:05.770	1.26	-0.56	0.245	0.06466	0.021716	1.011624	0.294	0.243	0.522	0	4	1035	1
2026-02-11	16:28:05.790	1.26	-0.56	0.245	0.063196	0.022204	1.0126	0.294	0.243	0.522	0	4	1035	1
2026-02-11	16:28:05.810	1.26	-0.56	0.245	0.064172	0.01952	1.01504	0.291	0.2415	0.522	0	3	1035	1
2026-02-11	16:28:05.830	1.26	-0.56	0.245	0.063684	0.021716	1.013332	0.291	0.2415	0.522	0	3	1035	1
2026-02-11	16:28:05.850	1.26	-0.56	0.245	0.062952	0.020496	1.010892	0.2955	0.2415	0.5235	0	3	1035	1
2026-02-11	16:28:05.870	1.26	-0.56	0.245	0.064416	0.021716	1.012844	0.294	0.234	0.5205	0	3	1035	1
2026-02-11	16:28:05.890	1.26	-0.595	0.28	0.068076	0.01952	1.009672	0.2925	0.237	0.525	0	3	1035	1
2026-02-11	16:28:05.910	1.26	-0.56	0.28	0.065392	0.022448	1.016016	0.2925	0.249	0.525	0	3	1035	1
2026-02-11	16:28:05.930	1.26	-0.56	0.245	0.066124	0.02074	1.013332	0.2895	0.237	0.5175	0	3	1035	1
2026-02-11	16:28:05.950	1.26	-0.56	0.245	0.066368	0.018544	1.014064	0.2895	0.243	0.516	0	3	1035	1
2026-02-11	16:28:05.970	1.26	-0.56	0.21	0.06344	0.020252	1.012356	0.2925	0.2505	0.519	0	3	1035	1
2026-02-11	16:28:05.990	1.26	-0.525	0.28	0.068808	0.019276	1.013576	0.294	0.2415	0.528	0	3	1035	1
2026-02-11	16:28:06.010	1.26	-0.56	0.21	0.066124	0.02074	1.013332	0.2925	0.24	0.5235	0	3	1035	1
2026-02-11	16:28:06.030	1.26	-0.525	0.21	0.063684	0.020496	1.011624	0.2925	0.24	0.5235	0	3	1035	1
2026-02-11	16:28:06.050	1.33	-0.595	0.28	0.062708	0.022448	1.012356	0.2925	0.24	0.5235	0	3	1035	1
2026-02-11	16:28:06.070	1.295	-0.525	0.28	0.06466	0.02074	1.012356	0.2955	0.2445	0.525	0	3	1035	1
2026-02-11	16:28:06.090	1.295	-0.56	0.28	0.067588	0.020008	1.010892	0.294	0.2475	0.525	0	3	1035	1
2026-02-11	16:28:06.110	1.26	-0.56	0.245	0.063684	0.022448	1.013088	0.2895	0.237	0.5205	0	3	1035	1
2026-02-11	16:28:06.130	1.26	-0.595	0.245	0.063928	0.02074	1.011624	0.2925	0.237	0.5175	0	3	1035	1
2026-02-11	16:28:06.150	1.295	-0.595	0.245	0.063196	0.022448	1.011868	0.294	0.2445	0.522	0	3	1035	1
2026-02-11	16:28:06.170	1.26	-0.525	0.245	0.068076	0.022448	1.010892	0.294	0.2415	0.522	0	3	1035	1
2026-02-11	16:28:06.190	1.295	-0.56	0.21	0.065148	0.018788	1.014064	0.2925	0.2415	0.516	0	3	1035	1
2026-02-11	16:28:06.210	1.26	-0.56	0.245	0.064904	0.020008	1.011136	0.2925	0.2415	0.519	0	3	1035	1
2026-02-11	16:28:06.230	1.295	-0.56	0.245	0.062952	0.016348	1.011868	0.294	0.237	0.5205	0	3	1035	1
2026-02-11	16:28:06.250	1.26	-0.595	0.245	0.061244	0.018544	1.012112	0.2925	0.237	0.5205	0	3	1035	1
2026-02-11	16:28:06.270	1.225	-0.56	0.245	0.06832	0.020252	1.0126	0.2925	0.2415	0.5265	0	3	1035	1
2026-02-11	16:28:06.290	1.295	-0.56	0.245	0.064904	0.02074	1.012844	0.2925	0.24	0.525	0	3	1035	1
2026-02-11	16:28:06.310	1.26	-0.595	0.245	0.067832	0.021472	1.011624	0.2895	0.2415	0.5205	0	3	1035	1
2026-02-11	16:28:06.330	1.225	-0.525	0.245	0.062464	0.020984	1.012356	0.2895	0.243	0.525	0	3	1035	1
2026-02-11	16:28:06.350	1.26	-0.525	0.245	0.06344	0.021716	1.011624	0.291	0.2415	0.5235	0	3	1035	1
2026-02-11	16:28:06.370	1.26	-0.56	0.21	0.066368	0.02196	1.01138	0.291	0.243	0.519	0	3	1035	1
2026-02-11	16:28:06.390	1.295	-0.56	0.245	0.068808	0.023424	1.01138	0.2895	0.246	0.5205	0	3	1035	1
2026-02-11	16:28:06.410	1.295	-0.595	0.21	0.061488	0.021228	1.012844	0.2895	0.24	0.5175	0	3	1035	1
2026-02-11	16:28:06.430	1.295	-0.56	0.28	0.061488	0.020984	1.011136	0.2925	0.24	0.5175	0	3	1035	1
2026-02-11	16:28:06.450	1.295	-0.56	0.245	0.064172	0.02074	1.013088	0.294	0.24	0.519	0	3	1035	1
2026-02-11	16:28:06.470	1.26	-0.56	0.245	0.062464	0.017568	1.014308	0.294	0.24	0.516	0	3	1035	1
2026-02-11	16:28:06.490	1.26	-0.595	0.28	0.063196	0.017812	1.010892	0.2925	0.2445	0.519	0	3	1035	1
2026-02-11	16:28:06.510	1.26	-0.525	0.245	0.063196	0.020252	1.012112	0.285	0.2415	0.519	0	3	1035	1
2026-02-11	16:28:06.530	1.26	-0.56	0.245	0.064904	0.020252	1.009184	0.2895	0.2415	0.513	0	3	1035	1
2026-02-11	16:28:06.550	1.295	-0.56	0.245	0.067588	0.019764	1.010648	0.297	0.243	0.5145	0	3	1035	1
2026-02-11	16:28:06.570	1.26	-0.56	0.28	0.061488	0.020496	1.015284	0.291	0.24	0.519	0	3	1035	1
2026-02-11	16:28:06.590	1.26	-0.56	0.21	0.063684	0.021228	1.013576	0.2925	0.2415	0.5175	0	3	1035	1
2026-02-11	16:28:06.610	1.225	-0.56	0.28	0.063684	0.021716	1.010648	0.2955	0.243	0.5205	0	3	1035	1
2026-02-11	16:28:06.630	1.26	-0.56	0.245	0.062952	0.024888	1.0126	0.2925	0.2385	0.5235	0	3	1035	1
2026-02-11	16:28:06.650	1.26	-0.595	0.245	0.064172	0.022692	1.012844	0.2895	0.2415	0.5175	0	3	1035	1
2026-02-11	16:28:06.670	1.26	-0.56	0.28	0.06222	0.019032	1.012112	0.2895	0.243	0.5175	0	3	1035	1
2026-02-11	16:28:06.690	1.26	-0.525	0.245	0.064904	0.023912	1.014552	0.291	0.24	0.525	0	3	1035	1
2026-02-11	16:28:06.710	1.26	-0.56	0.28	0.066368	0.022204	1.012844	0.294	0.24	0.5235	0	3	1035	1
2026-02-11	16:28:06.730	1.26	-0.56	0.245	0.067832	0.021716	1.012356	0.297	0.2445	0.519	0	3	1035	1
2026-02-11	16:28:06.750	1.26	-0.56	0.245	0.065392	0.020252	1.014552	0.2955	0.246	0.5205	0	3	1035	1
2026-02-11	16:28:06.770	1.26	-0.56	0.21	0.062464	0.018544	1.012844	0.2925	0.243	0.519	0	3	1035	1
2026-02-11	16:28:06.790	1.26	-0.595	0.245	0.066612	0.02074	1.014308	0.2955	0.243	0.5175	0	3	1035	1
2026-02-11	16:28:06.810	1.295	-0.525	0.28	0.063684	0.021228	1.012112	0.2985	0.243	0.519	0	3	1035	1
2026-02-11	16:28:06.830	1.26	-0.56	0.28	0.064172	0.021228	1.012356	0.2985	0.243	0.519	0	3	1035	1
2026-02-11	16:28:06.850	1.26	-0.56	0.245	0.064904	0.021228	1.010648	0.2985	0.243	0.519	0	3	1035	1
2026-02-11	16:28:06.870	1.225	-0.56	0.245	0.062952	0.022448	1.009428	0.2985	0.243	0.519	0	3	1035	1
2026-02-11	16:28:06.890	1.26	-0.56	0.245	0.065392	0.021472	1.012112	0.2925	0.24	0.5235	0	3	1035	1
2026-02-11	16:28:06.910	1.225	-0.56	0.245	0.06588	0.020252	1.011136	0.2895	0.249	0.525	0	3	1035	1
2026-02-11	16:28:06.930	1.26	-0.56	0.28	0.066856	0.020984	1.011136	0.294	0.252	0.525	0	3	1035	1
2026-02-11	16:28:06.950	1.26	-0.56	0.28	0.061244	0.019032	1.014064	0.2955	0.2385	0.5265	0	3	1035	1
2026-02-11	16:28:06.970	1.295	-0.595	0.245	0.067588	0.021228	1.0126	0.2925	0.2415	0.5205	0	3	1035	1
2026-02-11	16:28:06.990	1.26	-0.56	0.245	0.06344	0.018056	1.011624	0.291	0.2415	0.5235	0	3	1035	1
2026-02-11	16:28:07.010	1.26	-0.56	0.245	0.063684	0.0183	1.015772	0.288	0.24	0.522	0	3	1035	1
2026-02-11	16:28:07.030	1.295	-0.56	0.28	0.064416	0.021716	1.013332	0.297	0.2415	0.516	0	3	1035	1
2026-02-11	16:28:07.050	1.225	-0.525	0.245	0.064904	0.02318	1.012356	0.2955	0.2415	0.5235	0	3	1035	1
2026-02-11	16:28:07.070	1.26	-0.525	0.245	0.063684	0.020252	1.015528	0.288	0.243	0.5175	0	3	1035	1
2026-02-11	16:28:07.090	1.295	-0.595	0.245	0.063196	0.021228	1.010648	0.294	0.2355	0.5115	0	3	1035	1
2026-02-11	16:28:07.110	1.26	-0.525	0.21	0.064172	0.020252	1.01016	0.2925	0.2445	0.513	0	3	1035	1
2026-02-11	16:28:07.130	1.26	-0.595	0.245	0.063928	0.02074	1.013576	0.291	0.237	0.525	0	3	1035	1
2026-02-11	16:28:07.150	1.295	-0.56	0.21	0.065148	0.024644	1.013332	0.2955	0.2475	0.519	0	3	1035	1
2026-02-11	16:28:07.170	1.225	-0.525	0.28	0.06734399	0.021228	1.012356	0.2895	0.243	0.5235	0	3	1035	1
2026-02-11	16:28:07.190	1.225	-0.56	0.28	0.064904	0.02196	1.01138	0.2955	0.234	0.525	0	3	1035	1
2026-02-11	16:28:07.210	1.225	-0.56	0.245	0.062708	0.018788	1.01138	0.288	0.243	0.513	0	3	1035	1
2026-02-11	16:28:07.230	1.26	-0.595	0.245	0.064172	0.02196	1.011868	0.2925	0.24	0.522	0	3	1035	1
2026-02-11	16:28:07.250	1.26	-0.56	0.245	0.066856	0.021716	1.01382	0.3	0.2445	0.5235	0	3	1035	1
2026-02-11	16:28:07.270	1.295	-0.595	0.245	0.068076	0.02196	1.01382	0.294	0.237	0.51	0	3	1035	1
2026-02-11	16:28:07.290	1.26	-0.525	0.245	0.064172	0.020008	1.01626	0.2865	0.2475	0.522	0	3	1035	1
2026-02-11	16:28:07.310	1.26	-0.56	0.245	0.062464	0.019764	1.014308	0.2895	0.24	0.5265	0	3	1035	1
2026-02-11	16:28:07.330	1.26	-0.56	0.245	0.06588	0.022448	1.0126	0.2895	0.24	0.5265	0	3	1035	1
2026-02-11	16:28:07.350	1.225	-0.56	0.21	0.065392	0.020252	1.012356	0.2895	0.24	0.5265	0	3	1035	1
2026-02-11	16:28:07.370	1.26	-0.56	0.28	0.062952	0.018788	1.012844	0.294	0.243	0.5265	0	3	1035	1
2026-02-11	16:28:07.390	1.26	-0.525	0.28	0.062464	0.01952	1.01504	0.2985	0.2445	0.5235	0	3	1035	1
2026-02-11	16:28:07.410	1.26	-0.56	0.245	0.064904	0.022936	1.012112	0.2955	0.2415	0.5235	0	2	1035	1
2026-02-11	16:28:07.430	1.26	-0.56	0.315	0.066612	0.0244	1.014796	0.294	0.2415	0.5205	0	2	1035	1
2026-02-11	16:28:07.450	1.26	-0.56	0.245	0.064904	0.021228	1.012112	0.2925	0.243	0.516	0	2	1035	1
2026-02-11	16:28:07.470	1.26	-0.56	0.245	0.063928	0.020496	1.013332	0.288	0.2385	0.522	0	2	1035	1
2026-02-11	16:28:07.490	1.26	-0.56	0.245	0.063928	0.022692	1.012112	0.291	0.237	0.522	0	2	1035	1
2026-02-11	16:28:07.510	1.26	-0.595	0.21	0.061244	0.020984	1.01138	0.294	0.243	0.519	0	2	1035	1
2026-02-11	16:28:07.530	1.26	-0.56	0.245	0.065148	0.017568	1.012112	0.291	0.2415	0.519	0	2	1035	1
2026-02-11	16:28:07.550	1.295	-0.56	0.28	0.066368	0.021472	1.011868	0.291	0.2385	0.522	0	2	1035	1
2026-02-11	16:28:07.570	1.26	-0.56	0.245	0.059536	0.020008	1.013576	0.291	0.2475	0.5205	0	2	1035	1
2026-02-11	16:28:07.590	1.225	-0.56	0.245	0.066368	0.020008	1.012356	0.2925	0.243	0.522	0	2	1035	1
2026-02-11	16:28:07.610	1.26	-0.56	0.28	0.0671	0.022448	1.0126	0.2955	0.2385	0.522	0	2	1035	1
2026-02-11	16:28:07.630	1.225	-0.56	0.245	0.062464	0.021716	1.010892	0.297	0.243	0.5175	0	2	1035	1
2026-02-11	16:28:07.650	1.26	-0.595	0.28	0.064172	0.018788	1.013332	0.2955	0.243	0.5175	0	2	1035	1
2026-02-11	16:28:07.670	1.295	-0.595	0.245	0.064904	0.02196	1.010892	0.297	0.243	0.5175	0	2	1035	1
2026-02-11	16:28:07.690	1.26	-0.525	0.245	0.062464	0.018544	1.013088	0.2955	0.2445	0.5175	0	2	1035	1
2026-02-11	16:28:07.710	1.26	-0.595	0.245	0.065636	0.020008	1.011136	0.2955	0.2445	0.5205	0	2	1035	1
2026-02-11	16:28:07.730	1.26	-0.525	0.28	0.062952	0.023912	1.01382	0.297	0.246	0.5205	0	2	1035	1
2026-02-11	16:28:07.750	1.26	-0.56	0.28	0.063928	0.01952	1.012844	0.294	0.243	0.5235	0	2	1035	1
2026-02-11	16:28:07.770	1.295	-0.525	0.21	0.062464	0.020252	1.014308	0.291	0.237	0.5295	0	2	1035	1
2026-02-11	16:28:07.790	1.26	-0.56	0.28	0.066368	0.020496	1.011624	0.2895	0.24	0.525	0	2	1035	1
2026-02-11	16:28:07.810	1.26	-0.56	0.245	0.06466	0.018056	1.014064	0.2925	0.24	0.522	0	2	1035	1
2026-02-11	16:28:07.830	1.225	-0.56	0.245	0.063684	0.024156	1.009672	0.2925	0.243	0.5205	0	2	1035	1
2026-02-11	16:28:07.850	1.26	-0.595	0.245	0.061488	0.020984	1.013088	0.291	0.2475	0.5175	0	2	1035	1
2026-02-11	16:28:07.870	1.26	-0.595	0.28	0.066856	0.020252	1.013576	0.2895	0.2445	0.516	0	2	1035	1
2026-02-11	16:28:07.890	1.26	-0.63	0.245	0.061732	0.020496	1.005524	0.288	0.243	0.519	0	2	1035	1
2026-02-11	16:28:07.910	1.225	-0.525	0.28	0.06344	0.020984	1.01504	0.288	0.246	0.528	0	2	1035	1
2026-02-11	16:28:07.930	1.26	-0.49	0.28	0.064904	0.02074	1.013088	0.288	0.246	0.528	0	2	1035	1
2026-02-11	16:28:07.950	1.295	-0.63	0.28	0.064904	0.02318	1.013332	0.294	0.237	0.5205	0	2	1035	1
2026-02-11	16:28:07.970	1.295	-0.56	0.245	0.06344	0.022204	1.013332	0.291	0.2445	0.531	0	2	1035	1
2026-02-11	16:28:07.990	1.26	-0.595	0.245	0.063684	0.021228	1.00772	0.288	0.237	0.516	0	2	1035	1
2026-02-11	16:28:08.010	1.295	-0.455	0.245	0.063684	0.019764	1.01626	0.288	0.237	0.516	0	2	1035	1
2026-02-11	16:28:08.030	1.26	-0.63	0.28	0.06222	0.02196	1.009672	0.288	0.237	0.516	0	2	1035	1
2026-02-11	16:28:08.050	1.26	-0.595	0.245	0.06832	0.02318	1.015528	0.2895	0.243	0.5175	0	2	1035	1
2026-02-11	16:28:08.070	1.225	-0.49	0.245	0.06344	0.022204	1.013088	0.2955	0.252	0.522	0	2	1035	1
2026-02-11	16:28:08.090	1.295	-0.595	0.245	0.06734399	0.018544	1.011136	0.285	0.249	0.5235	0	2	1035	1
2026-02-11	16:28:08.110	1.26	-0.595	0.245	0.061732	0.020984	1.005768	0.2955	0.243	0.513	0	2	1035	1
2026-02-11	16:28:08.130	1.225	-0.525	0.245	0.066368	0.021716	1.018456	0.2895	0.2415	0.5175	0	2	1035	1
2026-02-11	16:28:08.150	1.295	-0.56	0.245	0.063196	0.019764	1.01626	0.2955	0.2475	0.5235	0	2	1035	1
2026-02-11	16:28:08.170	1.26	-0.595	0.245	0.06588	0.019764	1.009916	0.2835	0.243	0.513	0	2	1035	1
2026-02-11	16:28:08.190	1.225	-0.525	0.245	0.063684	0.022936	1.010404	0.297	0.2445	0.5175	0	2	1035	1
2026-02-11	16:28:08.210	1.26	-0.56	0.245	0.066856	0.021228	1.014796	0.2955	0.243	0.525	0	2	1035	1
2026-02-11	16:28:08.230	1.26	-0.63	0.28	0.062952	0.020252	1.01138	0.294	0.2475	0.5205	0	2	1035	1
2026-02-11	16:28:08.250	1.26	-0.525	0.21	0.062464	0.020496	1.010404	0.291	0.2475	0.5235	0	2	1035	1
2026-02-11	16:28:08.270	1.26	-0.56	0.245	0.062952	0.02074	1.012356	0.2925	0.2385	0.5235	0	2	1035	1
2026-02-11	16:28:08.290	1.295	-0.595	0.245	0.063196	0.01952	1.015284	0.2895	0.2385	0.519	0	2	1035	1
2026-02-11	16:28:08.310	1.26	-0.595	0.245	0.062464	0.02074	1.01016	0.2955	0.2415	0.5205	0	2	1035	1
2026-02-11	16:28:08.330	1.26	-0.56	0.28	0.064416	0.019276	1.01626	0.297	0.2385	0.5235	0	2	1035	1
2026-02-11	16:28:08.350	1.26	-0.56	0.28	0.065392	0.018788	1.013088	0.2985	0.243	0.5175	0	2	1035	1
2026-02-11	16:28:08.370	1.26	-0.595	0.21	0.066368	0.022936	1.011136	0.2955	0.243	0.525	0	2	1035	1
2026-02-11	16:28:08.390	1.26	-0.525	0.21	0.067588	0.01952	1.01382	0.2865	0.2505	0.5235	0	2	1035	1
2026-02-11	16:28:08.410	1.33	-0.56	0.245	0.0671	0.022692	1.013576	0.2985	0.2355	0.516	0	2	1035	1
2026-02-11	16:28:08.430	1.295	-0.56	0.245	0.066612	0.017568	1.014064	0.297	0.2445	0.525	0	2	1035	1
2026-02-11	16:28:08.450	1.295	-0.595	0.28	0.064172	0.020252	1.01138	0.2985	0.24	0.528	0	2	1035	1
2026-02-11	16:28:08.470	1.295	-0.525	0.245	0.061976	0.02196	1.012112	0.291	0.243	0.516	0	2	1035	1
2026-02-11	16:28:08.490	1.26	-0.595	0.28	0.06466	0.02074	1.009428	0.2955	0.246	0.525	0	2	1035	1
2026-02-11	16:28:08.510	1.295	-0.595	0.245	0.062708	0.020984	1.013088	0.2955	0.2415	0.522	0	2	1035	1
2026-02-11	16:28:08.530	1.26	-0.56	0.245	0.061732	0.02074	1.014552	0.2895	0.2385	0.5175	0	2	1035	1
2026-02-11	16:28:08.550	1.295	-0.56	0.245	0.062708	0.020496	1.011868	0.2955	0.2475	0.525	0	2	1035	1
2026-02-11	16:28:08.570	1.26	-0.56	0.245	0.060756	0.02074	1.01138	0.2955	0.2475	0.525	0	2	1035	1
2026-02-11	16:28:08.590	1.26	-0.56	0.21	0.064416	0.022692	1.010892	0.2955	0.2475	0.525	0	2	1035	1
2026-02-11	16:28:08.610	1.26	-0.595	0.21	0.062708	0.024888	1.014796	0.2925	0.243	0.5205	0	2	1035	1
2026-02-11	16:28:08.630	1.26	-0.56	0.28	0.06466	0.018788	1.014064	0.2925	0.2415	0.5175	0	2	1035	1
2026-02-11	16:28:08.650	1.26	-0.56	0.245	0.065392	0.020496	1.01626	0.2925	0.249	0.5205	0	2	1035	1
2026-02-11	16:28:08.670	1.225	-0.56	0.245	0.063928	0.021228	1.010892	0.291	0.249	0.522	0	2	1035	1
2026-02-11	16:28:08.690	1.26	-0.525	0.245	0.064416	0.019032	1.014064	0.2925	0.2385	0.519	0	2	1035	1
2026-02-11	16:28:08.710	1.26	-0.525	0.245	0.063196	0.020252	1.012844	0.2925	0.2385	0.519	0	2	1035	1
2026-02-11	16:28:08.730	1.26	-0.56	0.21	0.06466	0.022448	1.012844	0.291	0.2445	0.522	0	2	1035	1
2026-02-11	16:28:08.750	1.225	-0.525	0.245	0.062464	0.01952	1.012356	0.2895	0.2415	0.5205	0	2	1035	1
2026-02-11	16:28:08.770	1.26	-0.595	0.28	0.066124	0.018788	1.011868	0.291	0.2385	0.522	0	2	1035	1
2026-02-11	16:28:08.790	1.26	-0.525	0.28	0.064416	0.022204	1.010892	0.291	0.2385	0.525	0	2	1035	1
2026-02-11	16:28:08.810	1.225	-0.56	0.28	0.061976	0.021472	1.011868	0.294	0.237	0.522	0	2	1035	1
2026-02-11	16:28:08.830	1.26	-0.56	0.28	0.061488	0.020984	1.013332	0.294	0.2385	0.519	0	2	1035	1
2026-02-11	16:28:08.850	1.26	-0.525	0.245	0.06734399	0.022936	1.012112	0.291	0.237	0.522	0	2	1035	1
2026-02-11	16:28:08.870	1.26	-0.56	0.245	0.063684	0.017812	1.010892	0.2865	0.237	0.522	0	2	1035	1
2026-02-11	16:28:08.890	1.26	-0.595	0.28	0.060512	0.018788	1.014796	0.2895	0.2415	0.519	0	2	1035	1
2026-02-11	16:28:08.910	1.225	-0.525	0.28	0.063928	0.022204	1.015284	0.2925	0.243	0.5235	0	2	1035	1
2026-02-11	16:28:08.930	1.26	-0.595	0.245	0.06734399	0.021716	1.011136	0.294	0.2385	0.5205	0	2	1035	1
2026-02-11	16:28:08.950	1.295	-0.525	0.245	0.066856	0.020984	1.013088	0.2955	0.237	0.5115	0	2	1035	1
2026-02-11	16:28:08.970	1.26	-0.56	0.245	0.061	0.0183	1.014796	0.291	0.24	0.5115	0	2	1035	1
2026-02-11	16:28:08.990	1.26	-0.63	0.28	0.066856	0.022204	1.015528	0.2955	0.234	0.522	0	2	1035	1
2026-02-11	16:28:09.010	1.295	-0.56	0.245	0.064416	0.025376	1.01504	0.2955	0.234	0.522	0	2	1035	1
2026-02-11	16:28:09.030	1.295	-0.56	0.21	0.061732	0.01952	1.01626	0.2895	0.243	0.5175	0	2	1035	1
2026-02-11	16:28:09.050	1.295	-0.56	0.21	0.063196	0.02318	1.01138	0.294	0.2475	0.5145	0	2	1035	1
2026-02-11	16:28:09.070	1.295	-0.595	0.245	0.062464	0.022692	1.010648	0.2925	0.246	0.516	0	2	1035	1
2026-02-11	16:28:09.090	1.225	-0.49	0.21	0.061976	0.021228	1.014308	0.2955	0.237	0.5175	0	2	1035	1
2026-02-11	16:28:09.110	1.26	-0.56	0.245	0.067588	0.023668	1.01382	0.2925	0.2415	0.5295	0	2	1035	1
2026-02-11	16:28:09.130	1.26	-0.56	0.245	0.0671	0.021228	1.011868	0.3	0.237	0.5175	0	2	1035	1
2026-02-11	16:28:09.150	1.295	-0.56	0.21	0.063684	0.02196	1.012844	0.294	0.24	0.5205	0	2	1035	1
2026-02-11	16:28:09.170	1.26	-0.56	0.245	0.06466	0.022204	1.011868	0.291	0.243	0.522	0	2	1035	1
2026-02-11	16:28:09.190	1.225	-0.56	0.245	0.06588	0.02196	1.010892	0.2955	0.24	0.516	0	2	1035	1
2026-02-11	16:28:09.210	1.26	-0.56	0.245	0.065636	0.023424	1.010648	0.2895	0.237	0.522	0	2	1035	1
2026-02-11	16:28:09.230	1.26	-0.595	0.21	0.062464	0.022692	1.014796	0.2865	0.2415	0.516	0	2	1035	1
2026-02-11	16:28:09.250	1.225	-0.49	0.245	0.06588	0.019276	1.015284	0.294	0.2475	0.525	0	2	1035	1
2026-02-11	16:28:09.270	1.26	-0.595	0.245	0.06734399	0.022692	1.009184	0.3	0.2445	0.5235	0	2	1035	1
2026-02-11	16:28:09.290	1.26	-0.56	0.245	0.059536	0.02074	1.012356	0.282	0.2445	0.5145	0	2	1035	1
2026-02-11	16:28:09.310	1.26	-0.56	0.245	0.06954	0.019764	1.011624	0.297	0.2445	0.5115	0	2	1035	1
2026-02-11	16:28:09.330	1.295	-0.595	0.245	0.063196	0.019032	1.009916	0.2895	0.237	0.522	0	2	1035	1
2026-02-11	16:28:09.350	1.26	-0.56	0.245	0.06344	0.01708	1.0126	0.2985	0.252	0.525	0	2	1035	1
2026-02-11	16:28:09.370	1.26	-0.56	0.28	0.066124	0.020496	1.01016	0.2895	0.246	0.51	0	2	1035	1
2026-02-11	16:28:09.390	1.26	-0.56	0.245	0.066124	0.01952	1.014552	0.2925	0.2445	0.5175	0	2	1035	1
2026-02-11	16:28:09.410	1.26	-0.56	0.245	0.06588	0.023424	1.011868	0.2865	0.2385	0.513	0	2	1035	1
2026-02-11	16:28:09.430	1.26	-0.56	0.28	0.063684	0.025132	1.013576	0.2955	0.246	0.5055	0	2	1035	1
2026-02-11	16:28:09.450	1.26	-0.525	0.245	0.063196	0.022204	1.010404	0.2895	0.246	0.516	0	2	1035	1
2026-02-11	16:28:09.470	1.26	-0.56	0.245	0.066612	0.018544	1.012844	0.282	0.2385	0.5205	0	2	1035	1
2026-02-11	16:28:09.490	1.295	-0.525	0.28	0.06588	0.020008	1.012356	0.288	0.246	0.5175	0	2	1035	1
2026-02-11	16:28:09.510	1.26	-0.56	0.245	0.06344	0.022448	1.01504	0.2925	0.2445	0.5205	0	2	1035	1
2026-02-11	16:28:09.530	1.26	-0.595	0.245	0.064172	0.017324	1.012844	0.285	0.246	0.516	0	2	1035	1
2026-02-11	16:28:09.550	1.26	-0.525	0.245	0.06466	0.019032	1.016016	0.2955	0.2445	0.513	0	2	1035	1
2026-02-11	16:28:09.570	1.26	-0.595	0.28	0.062708	0.019764	1.011868	0.291	0.2415	0.5145	0	2	1035	1
2026-02-11	16:28:09.590	1.225	-0.525	0.245	0.066124	0.0244	1.012112	0.288	0.2415	0.5175	0	2	1035	1
2026-02-11	16:28:09.610	1.225	-0.56	0.28	0.06466	0.020008	1.01382	0.2895	0.243	0.513	0	2	1035	1
2026-02-11	16:28:09.630	1.295	-0.56	0.28	0.066368	0.023668	1.014796	0.2895	0.249	0.522	0	2	1035	1
2026-02-11	16:28:09.650	1.295	-0.56	0.245	0.06734399	0.020496	1.010892	0.2865	0.2385	0.5265	0	2	1035	1
2026-02-11	16:28:09.670	1.295	-0.525	0.21	0.064904	0.019276	1.0126	0.291	0.2385	0.519	0	2	1035	1
2026-02-11	16:28:09.690	1.295	-0.56	0.245	0.06588	0.020252	1.010648	0.297	0.2355	0.5235	0	2	1035	1
2026-02-11	16:28:09.710	1.295	-0.595	0.245	0.065148	0.021228	1.012844	0.2925	0.243	0.525	0	2	1035	1
2026-02-11	16:28:09.730	1.26	-0.56	0.245	0.065636	0.022204	1.013088	0.297	0.2415	0.516	0	2	1035	1
2026-02-11	16:28:09.750	1.225	-0.56	0.245	0.065636	0.022204	1.013332	0.291	0.2445	0.531	0	2	1035	1
2026-02-11	16:28:09.770	1.26	-0.56	0.28	0.066612	0.01952	1.01382	0.2895	0.24	0.516	0	2	1035	1
2026-02-11	16:28:09.790	1.26	-0.595	0.245	0.066856	0.017568	1.010892	0.294	0.2415	0.5145	0	2	1035	1
2026-02-11	16:28:09.810	1.33	-0.595	0.28	0.064416	0.018544	1.010404	0.2865	0.246	0.5205	0	2	1035	1
2026-02-11	16:28:09.830	1.26	-0.56	0.245	0.06734399	0.018544	1.01138	0.2865	0.246	0.5205	0	2	1035	1
2026-02-11	16:28:09.850	1.26	-0.595	0.245	0.063196	0.0183	1.010892	0.2865	0.246	0.5205	0	2	1035	1
2026-02-11	16:28:09.870	1.225	-0.56	0.245	0.062464	0.023424	1.012844	0.291	0.243	0.5175	0	2	1035	1
2026-02-11	16:28:09.890	1.26	-0.56	0.245	0.0671	0.02196	1.012844	0.2955	0.24	0.519	0	2	1035	1
2026-02-11	16:28:09.910	1.26	-0.525	0.21	0.063196	0.0183	1.013088	0.2925	0.2445	0.5205	0	2	1035	1
2026-02-11	16:28:09.930	1.225	-0.56	0.28	0.062464	0.020496	1.011624	0.288	0.2445	0.5205	0	2	1035	1
2026-02-11	16:28:09.950	1.295	-0.595	0.21	0.06466	0.023424	1.01138	0.2865	0.2415	0.5145	0	2	1035	1
2026-02-11	16:28:09.970	1.26	-0.525	0.245	0.060024	0.017568	1.012844	0.2895	0.2475	0.5115	0	2	1035	1
2026-02-11	16:28:09.990	1.26	-0.595	0.245	0.063928	0.022936	1.01382	0.2895	0.246	0.522	0	2	1035	1
2026-02-11	16:28:10.010	1.26	-0.56	0.21	0.066612	0.020008	1.012356	0.288	0.243	0.5235	0	2	1035	1
2026-02-11	16:28:10.030	1.295	-0.56	0.21	0.06832	0.022936	1.013332	0.2895	0.2445	0.5205	0	2	1035	1
2026-02-11	16:28:10.050	1.26	-0.56	0.245	0.06344	0.022448	1.010648	0.2895	0.2445	0.525	0	2	1035	1
2026-02-11	16:28:10.070	1.26	-0.56	0.28	0.063928	0.025864	1.01382	0.2895	0.2445	0.525	0	2	1035	1
2026-02-11	16:28:10.090	1.295	-0.595	0.28	0.061244	0.019276	1.013576	0.291	0.24	0.5175	0	2	1035	1
2026-02-11	16:28:10.110	1.26	-0.595	0.21	0.064172	0.020496	1.011624	0.291	0.246	0.5175	0	2	1035	1
2026-02-11	16:28:10.130	1.26	-0.56	0.245	0.066612	0.020496	1.009184	0.2925	0.2445	0.522	0	2	1035	1
2026-02-11	16:28:10.150	1.225	-0.49	0.245	0.062952	0.020496	1.014064	0.2865	0.2445	0.5145	0	2	1035	1
2026-02-11	16:28:10.170	1.26	-0.56	0.245	0.063684	0.02074	1.014308	0.3	0.2505	0.528	0	2	1035	1
2026-02-11	16:28:10.190	1.295	-0.595	0.21	0.064904	0.01708	1.008208	0.297	0.246	0.5265	0	2	1035	1
2026-02-11	16:28:10.210	1.26	-0.595	0.315	0.05978	0.020008	1.016016	0.297	0.246	0.5265	0	2	1035	1
2026-02-11	16:28:10.230	1.26	-0.56	0.28	0.061976	0.020496	1.012112	0.2925	0.243	0.522	0	2	1035	1
2026-02-11	16:28:10.250	1.26	-0.595	0.245	0.063684	0.023912	1.0126	0.3	0.243	0.519	0	2	1035	1
2026-02-11	16:28:10.270	1.225	-0.525	0.28	0.06466	0.021472	1.014552	0.285	0.24	0.5205	0	2	1035	1
2026-02-11	16:28:10.290	1.26	-0.525	0.28	0.06344	0.01952	1.013576	0.2895	0.246	0.5205	0	2	1035	1
2026-02-11	16:28:10.310	1.295	-0.525	0.245	0.065392	0.022204	1.012356	0.2865	0.2385	0.528	0	2	1035	1
2026-02-11	16:28:10.330	1.26	-0.56	0.245	0.061732	0.022204	1.011868	0.2955	0.2445	0.5145	0	2	1035	1
2026-02-11	16:28:10.350	1.26	-0.56	0.245	0.06344	0.01952	1.011624	0.291	0.243	0.522	0	2	1035	1
2026-02-11	16:28:10.370	1.26	-0.56	0.245	0.067588	0.023668	1.0126	0.288	0.243	0.519	0	2	1035	1
2026-02-11	16:28:10.390	1.26	-0.49	0.21	0.062464	0.018788	1.01138	0.2865	0.243	0.516	0	2	1035	1
2026-02-11	16:28:10.410	1.295	-0.525	0.245	0.065148	0.02318	1.015284	0.297	0.2475	0.5235	0	2	1035	1
2026-02-11	16:28:10.430	1.26	-0.63	0.245	0.06466	0.020496	1.009672	0.297	0.2415	0.519	0	2	1035	1
2026-02-11	16:28:10.450	1.26	-0.455	0.245	0.06466	0.021716	1.020652	0.2925	0.243	0.516	0	2	1035	1
2026-02-11	16:28:10.470	1.26	-0.595	0.245	0.066856	0.01952	1.006012	0.2955	0.246	0.522	0	2	1035	1
2026-02-11	16:28:10.490	1.26	-0.56	0.28	0.062708	0.023912	1.013576	0.291	0.2385	0.522	0	2	1035	1
2026-02-11	16:28:10.510	1.26	-0.525	0.245	0.061488	0.020496	1.016992	0.297	0.2355	0.522	0	2	1035	1
2026-02-11	16:28:10.530	1.33	-0.735	0.245	0.064416	0.020252	1.008208	0.288	0.2415	0.519	0	2	1035	1
2026-02-11	16:28:10.550	1.225	-0.42	0.245	0.06222	0.022204	1.014308	0.288	0.243	0.5295	0	2	1035	1
2026-02-11	16:28:10.570	1.295	-0.595	0.245	0.06466	0.02196	1.016748	0.291	0.24	0.51	0	2	1035	1
2026-02-11	16:28:10.590	1.26	-0.56	0.245	0.061976	0.02196	1.01016	0.288	0.249	0.5205	0	2	1035	1
2026-02-11	16:28:10.610	1.26	-0.49	0.28	0.063196	0.018056	1.015284	0.291	0.2385	0.5235	0	2	1035	1
2026-02-11	16:28:10.630	1.26	-0.56	0.28	0.06466	0.018788	1.010648	0.288	0.243	0.5085	0	2	1035	1
2026-02-11	16:28:10.650	1.295	-0.56	0.245	0.064416	0.020008	1.015772	0.291	0.2415	0.5205	0	2	1035	1
2026-02-11	16:28:10.670	1.26	-0.525	0.245	0.063196	0.018788	1.012112	0.2955	0.24	0.5235	0	2	1035	1
2026-02-11	16:28:10.690	1.26	-0.595	0.245	0.06344	0.023668	1.00894	0.297	0.2385	0.525	0	2	1035	1
2026-02-11	16:28:10.710	1.295	-0.525	0.245	0.062952	0.02074	1.014064	0.291	0.243	0.5115	0	2	1035	1
2026-02-11	16:28:10.730	1.26	-0.525	0.245	0.06588	0.020252	1.014308	0.2925	0.2385	0.528	0	2	1035	1
2026-02-11	16:28:10.750	1.225	-0.595	0.21	0.064904	0.02074	1.013088	0.2895	0.24	0.5175	0	2	1035	1
2026-02-11	16:28:10.770	1.225	-0.56	0.245	0.070272	0.02196	1.012356	0.2955	0.2445	0.519	0	2	1035	1
2026-02-11	16:28:10.790	1.26	-0.56	0.21	0.060756	0.020984	1.014308	0.2925	0.243	0.5235	0	2	1035	1
2026-02-11	16:28:10.810	1.26	-0.525	0.245	0.065148	0.02074	1.012844	0.288	0.2445	0.5115	0	2	1035	1
2026-02-11	16:28:10.830	1.26	-0.595	0.245	0.061	0.0183	1.010892	0.3015	0.234	0.519	0	2	1035	1
2026-02-11	16:28:10.850	1.26	-0.49	0.245	0.062464	0.016592	1.01382	0.2925	0.246	0.5235	0	2	1035	1
2026-02-11	16:28:10.870	1.295	-0.595	0.21	0.064172	0.020008	1.0126	0.294	0.2385	0.5265	0	2	1035	1
2026-02-11	16:28:10.890	1.26	-0.455	0.21	0.064904	0.02196	1.017236	0.285	0.243	0.522	0	2	1035	1
2026-02-11	16:28:10.910	1.295	-0.63	0.245	0.064416	0.022936	1.009184	0.288	0.2445	0.5235	0	2	1035	1
2026-02-11	16:28:10.930	1.225	-0.49	0.245	0.064172	0.021472	1.017968	0.294	0.243	0.516	0	2	1035	1
2026-02-11	16:28:10.950	1.26	-0.665	0.245	0.06588	0.023424	1.008208	0.2895	0.24	0.5175	0	2	1035	1
2026-02-11	16:28:10.970	1.26	-0.49	0.28	0.06734399	0.02318	1.015284	0.294	0.2475	0.525	0	2	1035	1
2026-02-11	16:28:10.990	1.295	-0.56	0.28	0.063196	0.021716	1.010404	0.288	0.2415	0.5205	0	2	1035	1
2026-02-11	16:28:11.010	1.26	-0.63	0.28	0.06466	0.016836	1.012356	0.2895	0.2475	0.5175	0	2	1035	1
2026-02-11	16:28:11.030	1.225	-0.42	0.28	0.059536	0.018544	1.01748	0.2925	0.2445	0.5145	0	2	1035	1
2026-02-11	16:28:11.050	1.295	-0.7	0.245	0.06222	0.024644	1.009184	0.297	0.2355	0.5145	0	2	1035	1
2026-02-11	16:28:11.070	1.295	-0.525	0.245	0.06344	0.020496	1.009184	0.2895	0.2445	0.5235	0	2	1035	1
2026-02-11	16:28:11.090	1.225	-0.49	0.21	0.064904	0.02074	1.01748	0.2895	0.2445	0.5235	0	2	1035	1
2026-02-11	16:28:11.110	1.295	-0.63	0.21	0.062708	0.017568	1.009184	0.2895	0.2445	0.5235	0	2	1035	1
2026-02-11	16:28:11.130	1.295	-0.63	0.245	0.064416	0.023424	1.009184	0.2895	0.2445	0.5235	0	2	1035	1
2026-02-11	16:28:11.150	1.26	-0.525	0.28	0.063684	0.020984	1.01748	0.2895	0.2445	0.5235	0	2	1035	1
2026-02-11	16:28:11.170	1.26	-0.595	0.245	0.066368	0.019764	1.011136	0.291	0.246	0.5145	0	2	1035	1
2026-02-11	16:28:11.190	1.26	-0.525	0.21	0.061	0.020252	1.014796	0.2925	0.24	0.516	0	2	1035	1
2026-02-11	16:28:11.210	1.295	-0.595	0.28	0.065392	0.020008	1.009672	0.2925	0.237	0.522	0	3	1035	1
2026-02-11	16:28:11.230	1.26	-0.525	0.245	0.063928	0.020496	1.01504	0.2955	0.24	0.516	0	3	1035	1
2026-02-11	16:28:11.250	1.295	-0.595	0.245	0.063196	0.022204	1.009916	0.294	0.2415	0.5265	0	3	1035	1
2026-02-11	16:28:11.270	1.26	-0.595	0.245	0.062952	0.023668	1.011868	0.282	0.237	0.5265	0	3	1035	1
2026-02-11	16:28:11.290	1.225	-0.49	0.245	0.066124	0.022692	1.0126	0.297	0.243	0.5235	0	3	1035	1
2026-02-11	16:28:11.310	1.26	-0.63	0.245	0.063684	0.020008	1.011624	0.2925	0.24	0.519	0	3	1035	1
2026-02-11	16:28:11.330	1.26	-0.525	0.245	0.062952	0.017568	1.010648	0.294	0.243	0.528	0	3	1035	1
2026-02-11	16:28:11.350	1.26	-0.56	0.245	0.063928	0.021716	1.01626	0.291	0.246	0.5205	0	3	1035	1
2026-02-11	16:28:11.370	1.26	-0.56	0.28	0.066612	0.019276	1.009428	0.294	0.24	0.525	0	3	1035	1
2026-02-11	16:28:11.390	1.295	-0.595	0.28	0.063196	0.023424	1.01016	0.288	0.2385	0.525	0	3	1035	1
2026-02-11	16:28:11.410	1.26	-0.49	0.21	0.066124	0.019032	1.015284	0.288	0.243	0.522	0	3	1035	1
2026-02-11	16:28:11.430	1.295	-0.63	0.245	0.062464	0.020984	1.01138	0.2955	0.2445	0.5235	0	3	1035	1
2026-02-11	16:28:11.450	1.26	-0.525	0.21	0.066612	0.022448	1.012356	0.2925	0.243	0.5205	0	3	1035	1
2026-02-11	16:28:11.470	1.26	-0.595	0.21	0.066612	0.024156	1.01382	0.291	0.2415	0.522	0	3	1035	1
2026-02-11	16:28:11.490	1.26	-0.525	0.245	0.062464	0.020008	1.0126	0.294	0.2475	0.528	0	3	1035	1
2026-02-11	16:28:11.510	1.295	-0.595	0.245	0.063928	0.020252	1.010892	0.2955	0.2385	0.522	0	3	1035	1
2026-02-11	16:28:11.530	1.225	-0.56	0.21	0.06466	0.019764	1.012356	0.297	0.2445	0.522	0	3	1035	1
2026-02-11	16:28:11.550	1.295	-0.525	0.245	0.061976	0.017568	1.01626	0.2895	0.243	0.525	0	3	1035	1
2026-02-11	16:28:11.570	1.295	-0.595	0.245	0.066124	0.018056	1.013576	0.288	0.237	0.5175	0	3	1035	1
2026-02-11	16:28:11.590	1.26	-0.56	0.245	0.06734399	0.018788	1.010648	0.294	0.2505	0.5175	0	3	1035	1
2026-02-11	16:28:11.610	1.26	-0.595	0.245	0.065636	0.025132	1.011868	0.2895	0.2385	0.522	0	3	1035	1
2026-02-11	16:28:11.630	1.26	-0.49	0.28	0.066124	0.022692	1.012844	0.288	0.237	0.525	0	3	1035	1
2026-02-11	16:28:11.650	1.26	-0.63	0.245	0.065148	0.020252	1.008696	0.2865	0.24	0.507	0	3	1035	1
2026-02-11	16:28:11.670	1.295	-0.49	0.245	0.065392	0.020008	1.015528	0.294	0.2445	0.5175	0	3	1035	1
2026-02-11	16:28:11.690	1.26	-0.56	0.28	0.06222	0.019764	1.013332	0.288	0.237	0.525	0	3	1035	1
2026-02-11	16:28:11.710	1.26	-0.56	0.245	0.060024	0.020252	1.011136	0.2925	0.24	0.5145	0	3	1035	1
2026-02-11	16:28:11.730	1.295	-0.56	0.245	0.06466	0.020984	1.010892	0.288	0.2445	0.516	0	3	1035	1
2026-02-11	16:28:11.750	1.26	-0.525	0.245	0.0671	0.02562	1.015772	0.291	0.243	0.5205	0	3	1035	1
2026-02-11	16:28:11.770	1.295	-0.56	0.21	0.060024	0.022936	1.01016	0.2835	0.234	0.5115	0	3	1035	1
2026-02-11	16:28:11.790	1.26	-0.595	0.245	0.061488	0.020984	1.010648	0.288	0.2445	0.5205	0	3	1035	1
2026-02-11	16:28:11.810	1.26	-0.49	0.28	0.061488	0.02074	1.01626	0.294	0.234	0.5235	0	3	1035	1
2026-02-11	16:28:11.830	1.225	-0.595	0.21	0.062464	0.022448	1.009916	0.2895	0.24	0.5145	0	3	1035	1
2026-02-11	16:28:11.850	1.26	-0.525	0.245	0.062952	0.023668	1.014308	0.2925	0.243	0.522	0	3	1035	1
2026-02-11	16:28:11.870	1.26	-0.525	0.21	0.062952	0.02074	1.01138	0.2925	0.246	0.516	0	3	1035	1
2026-02-11	16:28:11.890	1.19	-0.77	0.245	0.070272	0.0244	1.010648	0.297	0.243	0.5205	0	3	1035	1
2026-02-11	16:28:11.910	1.225	0	0.28	0.07564	0.021716	1.07116	0.2895	0.2445	0.522	0	3	1035	1
2026-02-11	16:28:11.930	1.435	-1.12	0.175	0.06466	0.023424	0.986248	0.294	0.2445	0.522	0	3	1035	1
2026-02-11	16:28:11.950	1.26	-0.665	0.21	0.068564	0.021228	1.014552	0.2985	0.243	0.516	0	3	1035	1
2026-02-11	16:28:11.970	1.295	0.21	0.315	0.053436	0.021472	1.011136	0.2955	0.243	0.516	0	3	1035	1
2026-02-11	16:28:11.990	1.295	-1.435	0.21	0.067832	0.020984	1.010892	0.288	0.2445	0.5235	0	3	1035	1
2026-02-11	16:28:12.010	1.225	-0.175	0.28	0.066124	0.019032	1.008452	0.297	0.2385	0.519	0	3	1036	1
2026-02-11	16:28:12.030	1.26	-0.665	0.245	0.06466	0.01952	1.0248	0.297	0.249	0.5235	0	3	1036	1
2026-02-11	16:28:12.050	1.26	-0.525	0.21	0.060024	0.01952	1.003816	0.2865	0.2325	0.5205	0	3	1036	1
2026-02-11	16:28:12.070	1.26	-0.56	0.28	0.069052	0.020496	1.017968	0.285	0.2385	0.519	0	3	1036	1
2026-02-11	16:28:12.090	1.26	-0.595	0.245	0.064904	0.021472	1.002352	0.2955	0.2445	0.522	0	3	1036	1
2026-02-11	16:28:12.110	1.26	-0.49	0.245	0.068808	0.019032	1.019676	0.297	0.2505	0.525	0	3	1036	1
2026-02-11	16:28:12.130	1.295	-0.525	0.245	0.062952	0.017812	1.006744	0.2865	0.2385	0.5205	0	3	1036	1
2026-02-11	16:28:12.150	1.225	-0.63	0.245	0.065392	0.020496	1.011624	0.288	0.2445	0.522	0	3	1036	1
2026-02-11	16:28:12.170	1.26	-0.455	0.28	0.065148	0.02074	1.015284	0.288	0.2445	0.522	0	3	1036	1
2026-02-11	16:28:12.190	1.33	-0.665	0.245	0.063684	0.0183	1.010892	0.288	0.24	0.516	0	3	1036	1
2026-02-11	16:28:12.210	1.295	-0.665	0.245	0.06466	0.020008	1.0065	0.288	0.237	0.51	0	3	1036	1
2026-02-11	16:28:12.230	1.19	-0.525	0.245	0.067588	0.022936	1.01626	0.291	0.2415	0.5115	0	3	1036	1
2026-02-11	16:28:12.250	1.295	-0.49	0.245	0.062464	0.023424	1.013576	0.2955	0.2445	0.513	0	3	1036	1
2026-02-11	16:28:12.270	1.295	-0.735	0.28	0.061732	0.023424	1.005768	0.294	0.2415	0.519	0	3	1036	1
2026-02-11	16:28:12.290	1.225	-0.35	0.245	0.066124	0.016592	1.022116	0.294	0.2415	0.525	0	3	1036	1
2026-02-11	16:28:12.310	1.295	-0.735	0.21	0.069052	0.022204	1.011868	0.2955	0.24	0.5235	0	3	1036	1
2026-02-11	16:28:12.330	1.225	-0.49	0.245	0.065636	0.021716	1.01138	0.2955	0.24	0.5235	0	3	1036	1
2026-02-11	16:28:12.350	1.225	-0.56	0.245	0.063684	0.022204	1.012844	0.2955	0.24	0.5235	0	3	1036	1
2026-02-11	16:28:12.370	1.26	-0.63	0.245	0.060512	0.02318	1.011624	0.2925	0.24	0.516	0	3	1036	1
2026-02-11	16:28:12.390	1.26	-0.525	0.245	0.0671	0.017568	1.015772	0.294	0.243	0.519	0	3	1036	1
2026-02-11	16:28:12.410	1.26	-0.595	0.245	0.065148	0.019764	1.015528	0.294	0.249	0.5235	0	4	1036	1
2026-02-11	16:28:12.430	1.26	-0.49	0.245	0.066612	0.020984	1.024556	0.291	0.2385	0.516	0	4	1036	1
2026-02-11	16:28:12.450	1.295	-0.63	0.21	0.060512	0.019276	1.002108	0.291	0.2415	0.519	0	4	1036	1
2026-02-11	16:28:12.470	1.225	-0.63	0.245	0.063684	0.019276	1.001132	0.291	0.2415	0.5235	0	4	1036	1
2026-02-11	16:28:12.490	1.225	-0.35	0.245	0.066368	0.01952	1.0187	0.2925	0.2505	0.513	0	4	1036	1
2026-02-11	16:28:12.510	1.295	-0.84	0.245	0.06466	0.021228	1.017968	0.2925	0.246	0.522	0	4	1036	1
2026-02-11	16:28:12.530	1.26	-0.42	0.245	0.062952	0.020008	1.01016	0.294	0.2475	0.5235	0	4	1036	1
2026-02-11	16:28:12.550	1.225	-0.665	0.245	0.063928	0.022448	1.016748	0.2835	0.2355	0.522	0	4	1036	1
2026-02-11	16:28:12.570	1.33	-0.49	0.28	0.06734399	0.021716	1.010648	0.2895	0.2535	0.516	0	4	1036	1
2026-02-11	16:28:12.590	1.295	-0.7	0.21	0.063928	0.021228	1.013088	0.288	0.2385	0.5235	0	4	1036	1
2026-02-11	16:28:12.610	1.225	-0.385	0.245	0.06466	0.020984	1.013332	0.2925	0.2445	0.516	0	4	1036	1
2026-02-11	16:28:12.630	1.295	-0.665	0.21	0.06466	0.020984	1.014064	0.2895	0.243	0.513	0	4	1036	1
2026-02-11	16:28:12.650	1.295	-0.49	0.245	0.061976	0.020496	1.009428	0.2895	0.2445	0.5175	0	4	1036	1
2026-02-11	16:28:12.670	1.26	-0.595	0.245	0.066612	0.018788	1.01138	0.2925	0.2475	0.5175	0	4	1036	1
2026-02-11	16:28:12.690	1.26	-0.56	0.245	0.066856	0.021228	1.014308	0.2955	0.249	0.5205	0	4	1036	1
2026-02-11	16:28:12.710	1.295	-0.56	0.28	0.064416	0.017812	1.014064	0.294	0.249	0.522	0	4	1036	1
2026-02-11	16:28:12.730	1.295	-0.525	0.21	0.062708	0.021716	1.005524	0.294	0.2445	0.519	0	4	1036	1
2026-02-11	16:28:12.750	1.225	-0.56	0.245	0.064416	0.024156	1.011868	0.285	0.24	0.5175	0	4	1036	1
2026-02-11	16:28:12.770	1.26	-0.63	0.245	0.067588	0.022448	1.014064	0.294	0.237	0.5205	0	4	1036	1
2026-02-11	16:28:12.790	1.26	-0.56	0.245	0.069296	0.02196	1.018456	0.2895	0.2325	0.516	0	4	1036	1
2026-02-11	16:28:12.810	1.26	-0.525	0.245	0.062708	0.023912	1.0126	0.2865	0.249	0.525	0	5	1036	1
2026-02-11	16:28:12.830	1.295	-0.525	0.21	0.061244	0.020252	1.014064	0.288	0.246	0.513	0	5	1036	1
2026-02-11	16:28:12.850	1.26	-0.595	0.28	0.064416	0.02196	1.009184	0.2895	0.246	0.513	0	5	1036	1
2026-02-11	16:28:12.870	1.26	-0.56	0.245	0.067588	0.020008	1.015284	0.2865	0.246	0.5175	0	5	1036	1
2026-02-11	16:28:12.890	1.26	-0.525	0.28	0.06344	0.021472	1.014308	0.291	0.24	0.522	0	5	1036	1
2026-02-11	16:28:12.910	1.26	-0.595	0.21	0.066124	0.027084	1.008696	0.282	0.246	0.5175	0	5	1036	1
2026-02-11	16:28:12.930	1.26	-0.49	0.245	0.06344	0.022692	1.011624	0.294	0.246	0.519	0	5	1036	1
2026-02-11	16:28:12.950	1.26	-0.56	0.28	0.06344	0.020008	1.013332	0.2865	0.2445	0.5205	0	5	1036	1
2026-02-11	16:28:12.970	1.26	-0.56	0.245	0.066612	0.02074	1.014796	0.2895	0.2445	0.519	0	5	1036	1
2026-02-11	16:28:12.990	1.26	-0.56	0.245	0.06222	0.022204	1.016016	0.288	0.246	0.525	0	5	1036	1
2026-02-11	16:28:13.010	1.295	-0.595	0.245	0.063684	0.018788	1.014308	0.294	0.243	0.5205	0	5	1036	1
2026-02-11	16:28:13.030	1.295	-0.595	0.245	0.063928	0.019276	1.009184	0.2985	0.2385	0.5175	0	5	1036	1
2026-02-11	16:28:13.050	1.26	-0.595	0.28	0.063928	0.019764	1.014552	0.2955	0.24	0.519	0	5	1036	1
2026-02-11	16:28:13.070	1.295	-0.56	0.245	0.063928	0.02196	1.01504	0.2895	0.237	0.5235	0	5	1036	1
2026-02-11	16:28:13.090	1.295	-0.595	0.21	0.06344	0.01952	1.01138	0.2925	0.243	0.5115	0	5	1036	1
2026-02-11	16:28:13.110	1.295	-0.49	0.245	0.064904	0.019764	1.009428	0.2895	0.243	0.5205	0	5	1036	1
2026-02-11	16:28:13.130	1.26	-0.595	0.245	0.061488	0.01952	1.009428	0.2865	0.24	0.525	0	5	1036	1
2026-02-11	16:28:13.150	1.26	-0.525	0.245	0.064416	0.020496	1.014308	0.291	0.234	0.5115	0	5	1036	1
2026-02-11	16:28:13.170	1.295	-0.595	0.245	0.066612	0.019276	1.016016	0.2895	0.24	0.5175	0	5	1036	1
2026-02-11	16:28:13.190	1.295	-0.525	0.21	0.06466	0.01952	1.011868	0.2925	0.2385	0.519	0	5	1036	1
2026-02-11	16:28:13.210	1.225	-0.56	0.245	0.062708	0.020984	1.011624	0.294	0.24	0.5145	0	5	1036	1
2026-02-11	16:28:13.230	1.295	-0.49	0.245	0.061488	0.022936	1.009184	0.294	0.24	0.5145	0	5	1036	1
2026-02-11	16:28:13.250	1.26	-0.595	0.245	0.065148	0.021228	1.011624	0.2925	0.2385	0.5205	0	5	1036	1
2026-02-11	16:28:13.270	1.225	-0.525	0.245	0.064416	0.017568	1.01748	0.291	0.2385	0.5265	0	5	1036	1
2026-02-11	16:28:13.290	1.225	-0.525	0.28	0.067588	0.020008	1.011136	0.2895	0.243	0.525	0	5	1036	1
2026-02-11	16:28:13.310	1.26	-0.595	0.245	0.063928	0.019764	1.014796	0.291	0.246	0.516	0	5	1036	1
2026-02-11	16:28:13.330	1.295	-0.525	0.245	0.062464	0.01708	1.010648	0.2925	0.243	0.5115	0	5	1036	1
2026-02-11	16:28:13.350	1.26	-0.595	0.245	0.062464	0.0183	1.011624	0.291	0.2415	0.5115	0	5	1036	1
2026-02-11	16:28:13.370	1.295	-0.525	0.28	0.065636	0.019032	1.01382	0.288	0.2415	0.513	0	5	1036	1
2026-02-11	16:28:13.390	1.26	-0.595	0.21	0.06466	0.019764	1.01138	0.288	0.237	0.516	0	5	1036	1
2026-02-11	16:28:13.410	1.26	-0.49	0.245	0.064416	0.020252	1.013576	0.288	0.237	0.5205	0	5	1036	1
2026-02-11	16:28:13.430	1.33	-0.595	0.245	0.060756	0.020496	1.011136	0.2895	0.2355	0.525	0	5	1036	1
2026-02-11	16:28:13.450	1.295	-0.56	0.245	0.064904	0.02196	1.011136	0.2925	0.2385	0.522	0	5	1036	1
2026-02-11	16:28:13.470	1.26	-0.525	0.245	0.064416	0.022448	1.015772	0.291	0.2415	0.5205	0	5	1036	1
2026-02-11	16:28:13.490	1.295	-0.595	0.245	0.063684	0.021472	1.010404	0.288	0.24	0.522	0	5	1036	1
2026-02-11	16:28:13.510	1.26	-0.56	0.245	0.065636	0.022448	1.0126	0.2895	0.2415	0.516	0	5	1036	1
2026-02-11	16:28:13.530	1.26	-0.595	0.245	0.066612	0.018056	1.013088	0.2925	0.2445	0.5085	0	5	1036	1
2026-02-11	16:28:13.550	1.225	-0.56	0.28	0.065392	0.019276	1.014064	0.291	0.2445	0.5085	0	5	1036	1
2026-02-11	16:28:13.570	1.225	-0.56	0.245	0.06588	0.0183	1.009428	0.2895	0.2445	0.5145	0	5	1036	1
2026-02-11	16:28:13.590	1.26	-0.56	0.245	0.06954	0.02074	1.0065	0.2895	0.2445	0.5145	0	5	1036	1
2026-02-11	16:28:13.610	1.26	-0.525	0.28	0.065148	0.020252	1.014064	0.2895	0.2445	0.5145	0	5	1035	1
2026-02-11	16:28:13.630	1.295	-0.595	0.245	0.060512	0.02074	1.000888	0.2895	0.2445	0.5145	0	5	1035	1
2026-02-11	16:28:13.650	1.225	-0.56	0.245	0.061976	0.020252	1.01016	0.2925	0.2385	0.5175	0	5	1035	1
2026-02-11	16:28:13.670	1.26	-0.455	0.245	0.067832	0.02074	1.017968	0.285	0.2355	0.5175	0	5	1035	1
2026-02-11	16:28:13.690	1.295	-0.735	0.21	0.062952	0.01952	1.008452	0.294	0.243	0.5205	0	5	1035	1
2026-02-11	16:28:13.710	1.225	-0.49	0.245	0.064904	0.023912	1.011868	0.294	0.2385	0.519	0	5	1035	1
2026-02-11	16:28:13.730	1.26	-0.525	0.245	0.061976	0.016592	1.016748	0.288	0.2415	0.522	0	5	1035	1
2026-02-11	16:28:13.750	1.295	-0.63	0.245	0.060512	0.021716	1.009428	0.291	0.2445	0.516	0	5	1035	1
2026-02-11	16:28:13.770	1.225	-0.49	0.245	0.068808	0.0183	1.018944	0.2895	0.24	0.519	0	5	1035	1
2026-02-11	16:28:13.790	1.295	-0.56	0.28	0.064172	0.020984	1.012844	0.2955	0.2385	0.5205	0	5	1035	1
2026-02-11	16:28:13.810	1.295	-0.595	0.245	0.066612	0.02196	1.01138	0.2925	0.2385	0.516	0	4	1035	1
2026-02-11	16:28:13.830	1.295	-0.455	0.28	0.065636	0.022204	1.012112	0.291	0.246	0.5235	0	4	1035	1
2026-02-11	16:28:13.850	1.26	-0.7	0.245	0.063684	0.022448	1.01382	0.2925	0.234	0.525	0	4	1035	1
2026-02-11	16:28:13.870	1.295	-0.455	0.245	0.068076	0.020252	1.020164	0.297	0.2385	0.5175	0	4	1035	1
2026-02-11	16:28:13.890	1.295	-0.7	0.245	0.063928	0.020496	1.005768	0.294	0.2445	0.522	0	4	1035	1
2026-02-11	16:28:13.910	1.26	-0.525	0.245	0.061732	0.023668	1.01504	0.2865	0.2415	0.519	0	4	1035	1
2026-02-11	16:28:13.930	1.295	-0.56	0.28	0.064904	0.021716	1.01626	0.294	0.2505	0.522	0	4	1035	1
2026-02-11	16:28:13.950	1.295	-0.63	0.28	0.063928	0.021716	1.01016	0.294	0.2475	0.5265	0	4	1035	1
2026-02-11	16:28:13.970	1.295	-0.525	0.245	0.064416	0.017812	1.014796	0.288	0.24	0.519	0	4	1035	1
2026-02-11	16:28:13.990	1.26	-0.595	0.245	0.065636	0.019032	1.012356	0.2985	0.2475	0.516	0	4	1035	1
2026-02-11	16:28:14.010	1.26	-0.63	0.245	0.05978	0.020252	1.009672	0.294	0.243	0.5145	0	4	1035	1
2026-02-11	16:28:14.030	1.26	-0.525	0.245	0.068808	0.022936	1.01504	0.2895	0.2445	0.5235	0	4	1035	1
2026-02-11	16:28:14.050	1.295	-0.595	0.28	0.061732	0.021228	1.014064	0.2925	0.237	0.5115	0	4	1035	1
2026-02-11	16:28:14.070	1.295	-0.56	0.245	0.065636	0.019764	1.012356	0.2985	0.246	0.525	0	4	1035	1
2026-02-11	16:28:14.090	1.225	-0.525	0.245	0.065392	0.0183	1.0126	0.294	0.2415	0.525	0	4	1035	1
2026-02-11	16:28:14.110	1.295	-0.56	0.21	0.06466	0.01952	1.0126	0.2955	0.249	0.519	0	4	1035	1
2026-02-11	16:28:14.130	1.295	-0.56	0.245	0.064172	0.02196	1.011624	0.297	0.2445	0.519	0	4	1035	1
2026-02-11	16:28:14.150	1.26	-0.525	0.21	0.064416	0.018788	1.013332	0.2895	0.2415	0.519	0	4	1035	1
2026-02-11	16:28:14.170	1.295	-0.525	0.245	0.065636	0.022448	1.014796	0.285	0.237	0.5115	0	4	1035	1
2026-02-11	16:28:14.190	1.295	-0.49	0.245	0.066612	0.02074	1.010892	0.2955	0.2475	0.525	0	4	1035	1
2026-02-11	16:28:14.210	1.26	-0.595	0.245	0.062464	0.022936	1.009184	0.2895	0.2355	0.522	0	4	1035	1
2026-02-11	16:28:14.230	1.225	-0.49	0.245	0.06222	0.020984	1.016504	0.294	0.2415	0.516	0	4	1035	1
2026-02-11	16:28:14.250	1.295	-0.56	0.245	0.06466	0.022204	1.01504	0.291	0.2475	0.5235	0	4	1035	1
2026-02-11	16:28:14.270	1.26	-0.665	0.28	0.067832	0.021228	1.005524	0.285	0.24	0.5175	0	4	1035	1
2026-02-11	16:28:14.290	1.26	-0.455	0.28	0.063928	0.020496	1.019676	0.2955	0.2415	0.5145	0	4	1035	1
2026-02-11	16:28:14.310	1.295	-0.56	0.245	0.064172	0.024156	1.016748	0.2955	0.2415	0.5145	0	4	1035	1
2026-02-11	16:28:14.330	1.26	-0.63	0.28	0.063196	0.02074	1.009184	0.2955	0.24	0.5145	0	4	1035	1
2026-02-11	16:28:14.350	1.225	-0.42	0.28	0.067832	0.022204	1.02602	0.2955	0.2385	0.516	0	4	1035	1
2026-02-11	16:28:14.370	1.26	-0.455	0.28	0.065148	0.020008	1.013576	0.2925	0.24	0.5175	0	4	1035	1
2026-02-11	16:28:14.390	1.26	-0.7	0.21	0.061488	0.02196	1.006012	0.288	0.243	0.5205	0	4	1035	1
2026-02-11	16:28:14.410	1.26	-0.42	0.28	0.06222	0.022936	1.016504	0.291	0.243	0.525	0	4	1035	1
2026-02-11	16:28:14.430	1.225	-0.7	0.245	0.065392	0.018056	1.01138	0.2925	0.243	0.5235	0	4	1035	1
2026-02-11	16:28:14.450	1.33	-0.49	0.21	0.064172	0.01952	1.016748	0.291	0.2385	0.5205	0	4	1035	1
2026-02-11	16:28:14.470	1.26	-0.385	0.245	0.059048	0.02196	1.01626	0.294	0.2385	0.5175	0	4	1035	1
2026-02-11	16:28:14.490	1.225	-0.875	0.28	0.06222	0.022936	0.9943	0.294	0.246	0.5175	0	4	1035	1
2026-02-11	16:28:14.510	1.19	-0.35	0.28	0.06588	0.017324	1.024068	0.294	0.246	0.522	0	4	1035	1
2026-02-11	16:28:14.530	1.295	-0.595	0.28	0.0671	0.013908	1.01626	0.294	0.2445	0.519	0	4	1035	1
2026-02-11	16:28:14.550	1.295	-0.735	0.245	0.064904	0.020984	1.003328	0.291	0.246	0.5175	0	4	1035	1
2026-02-11	16:28:14.570	1.225	-0.385	0.28	0.061488	0.022692	1.018212	0.2895	0.2415	0.5175	0	4	1035	1
2026-02-11	16:28:14.590	1.33	-0.7	0.245	0.067588	0.02196	1.011868	0.294	0.24	0.5175	0	4	1035	1
2026-02-11	16:28:14.610	1.295	-0.665	0.245	0.066124	0.022692	1.004304	0.297	0.2445	0.5145	0	4	1036	1
2026-02-11	16:28:14.630	1.19	-0.385	0.315	0.06954	0.020252	1.02358	0.2955	0.2445	0.519	0	4	1036	1
2026-02-11	16:28:14.650	1.33	-0.7	0.245	0.068076	0.023912	1.010404	0.291	0.2415	0.519	0	4	1036	1
2026-02-11	16:28:14.670	1.295	-0.63	0.21	0.064416	0.021472	1.007232	0.2895	0.2415	0.516	0	4	1036	1
2026-02-11	16:28:14.690	1.225	-0.385	0.245	0.063684	0.020496	1.012112	0.288	0.243	0.522	0	4	1036	1
2026-02-11	16:28:14.710	1.26	-0.7	0.245	0.066612	0.020252	1.010404	0.294	0.2445	0.5205	0	4	1036	1
2026-02-11	16:28:14.730	1.225	-0.49	0.245	0.062708	0.020984	1.014064	0.294	0.243	0.5175	0	4	1036	1
2026-02-11	16:28:14.750	1.295	-0.595	0.245	0.063684	0.020008	1.01626	0.2865	0.2415	0.5235	0	4	1036	1
2026-02-11	16:28:14.770	1.26	-0.595	0.28	0.06588	0.021472	1.007964	0.288	0.2415	0.522	0	4	1036	1
2026-02-11	16:28:14.790	1.26	-0.455	0.28	0.066368	0.017812	1.01992	0.294	0.243	0.5205	0	4	1036	1
2026-02-11	16:28:14.810	1.26	-0.665	0.28	0.066124	0.023912	1.010404	0.2925	0.2415	0.519	0	4	1036	1
2026-02-11	16:28:14.830	1.26	-0.525	0.28	0.064416	0.020496	1.014796	0.288	0.24	0.5145	0	4	1036	1
2026-02-11	16:28:14.850	1.26	-0.49	0.21	0.06344	0.019276	1.01626	0.288	0.243	0.513	0	4	1036	1
2026-02-11	16:28:14.870	1.295	-0.665	0.21	0.065392	0.020496	1.0065	0.288	0.243	0.513	0	4	1036	1
2026-02-11	16:28:14.890	1.26	-0.49	0.245	0.062708	0.021472	1.0126	0.288	0.243	0.513	0	4	1036	1
2026-02-11	16:28:14.910	1.225	-0.56	0.28	0.064904	0.020984	1.018944	0.291	0.2505	0.522	0	4	1036	1
2026-02-11	16:28:14.930	1.295	-0.595	0.28	0.064416	0.021228	1.012844	0.2955	0.2445	0.516	0	4	1036	1
2026-02-11	16:28:14.950	1.26	-0.455	0.245	0.06466	0.022692	1.012844	0.291	0.243	0.522	0	4	1036	1
2026-02-11	16:28:14.970	1.295	-0.665	0.245	0.062464	0.019764	1.009672	0.3	0.2325	0.519	0	4	1036	1
2026-02-11	16:28:14.990	1.225	-0.56	0.245	0.065392	0.020984	1.01504	0.285	0.2385	0.522	0	4	1036	1
2026-02-11	16:28:15.010	1.225	-0.525	0.245	0.06466	0.02074	1.01504	0.2925	0.246	0.519	0	4	1036	1
2026-02-11	16:28:15.030	1.26	-0.595	0.28	0.066124	0.02196	1.010892	0.2985	0.2445	0.5235	0	4	1036	1
2026-02-11	16:28:15.050	1.295	-0.56	0.245	0.06734399	0.020252	1.01382	0.2925	0.2475	0.522	0	4	1036	1
2026-02-11	16:28:15.070	1.26	-0.56	0.245	0.065636	0.021228	1.010648	0.291	0.24	0.5175	0	4	1036	1
2026-02-11	16:28:15.090	1.26	-0.56	0.28	0.063684	0.022936	1.012356	0.294	0.24	0.5205	0	4	1036	1
2026-02-11	16:28:15.110	1.26	-0.525	0.245	0.062708	0.020984	1.0126	0.2925	0.24	0.5205	0	4	1036	1
2026-02-11	16:28:15.130	1.26	-0.56	0.245	0.066124	0.020984	1.018456	0.288	0.2415	0.519	0	4	1036	1
2026-02-11	16:28:15.150	1.225	-0.595	0.21	0.062464	0.020984	1.009428	0.294	0.24	0.516	0	4	1036	1
2026-02-11	16:28:15.170	1.26	-0.525	0.21	0.065392	0.021716	1.00894	0.2895	0.2355	0.5265	0	4	1036	1
2026-02-11	16:28:15.190	1.26	-0.525	0.245	0.06222	0.021716	1.01382	0.291	0.237	0.516	0	4	1036	1
2026-02-11	16:28:15.210	1.26	-0.56	0.21	0.06832	0.02318	1.013088	0.291	0.249	0.5175	0	5	1036	1
2026-02-11	16:28:15.230	1.26	-0.56	0.21	0.065148	0.022448	1.013576	0.2865	0.2415	0.522	0	5	1036	1
2026-02-11	16:28:15.250	1.225	-0.525	0.21	0.064172	0.020252	1.014308	0.294	0.249	0.5175	0	5	1036	1
2026-02-11	16:28:15.270	1.26	-0.525	0.245	0.06344	0.020496	1.012356	0.291	0.2415	0.5235	0	5	1036	1
2026-02-11	16:28:15.290	1.295	-0.595	0.21	0.062708	0.022936	1.011868	0.2895	0.2415	0.5235	0	5	1036	1
2026-02-11	16:28:15.310	1.225	-0.525	0.28	0.064172	0.02196	1.014308	0.297	0.2415	0.522	0	5	1036	1
2026-02-11	16:28:15.330	1.26	-0.56	0.21	0.069296	0.021472	1.013088	0.3	0.246	0.519	0	5	1036	1
2026-02-11	16:28:15.350	1.295	-0.63	0.245	0.063684	0.0183	1.008452	0.2895	0.2445	0.522	0	5	1036	1
2026-02-11	16:28:15.370	1.26	-0.56	0.245	0.06588	0.020008	1.013332	0.2955	0.2445	0.522	0	5	1036	1
2026-02-11	16:28:15.390	1.26	-0.525	0.28	0.0671	0.019276	1.016016	0.2955	0.2415	0.5235	0	5	1036	1
2026-02-11	16:28:15.410	1.26	-0.595	0.28	0.060756	0.01586	1.01626	0.2955	0.24	0.525	0	4	1036	1
2026-02-11	16:28:15.430	1.26	-0.56	0.28	0.05978	0.018544	1.012356	0.291	0.243	0.519	0	4	1036	1
2026-02-11	16:28:15.450	1.225	-0.56	0.21	0.064416	0.022448	1.013088	0.2895	0.2415	0.516	0	4	1036	1
2026-02-11	16:28:15.470	1.295	-0.56	0.28	0.065392	0.022204	1.015528	0.291	0.24	0.5205	0	4	1036	1
2026-02-11	16:28:15.490	1.26	-0.56	0.245	0.06466	0.019032	1.01626	0.291	0.243	0.525	0	4	1036	1
2026-02-11	16:28:15.510	1.26	-0.56	0.28	0.066368	0.017324	1.014064	0.2895	0.243	0.522	0	4	1036	1
2026-02-11	16:28:15.530	1.26	-0.56	0.28	0.06222	0.022204	1.009428	0.2925	0.2445	0.5205	0	4	1036	1
2026-02-11	16:28:15.550	1.295	-0.49	0.28	0.061244	0.02074	1.009916	0.294	0.2415	0.5205	0	4	1036	1
2026-02-11	16:28:15.570	1.26	-0.595	0.245	0.064416	0.0244	1.012356	0.291	0.2415	0.519	0	4	1036	1
2026-02-11	16:28:15.590	1.26	-0.56	0.28	0.065148	0.018544	1.011624	0.2895	0.243	0.5235	0	4	1036	1
2026-02-11	16:28:15.610	1.295	-0.525	0.245	0.062464	0.0183	1.01626	0.294	0.24	0.525	0	4	1036	1
2026-02-11	16:28:15.630	1.26	-0.595	0.245	0.065392	0.02318	1.011868	0.294	0.2445	0.522	0	4	1036	1
2026-02-11	16:28:15.650	1.26	-0.525	0.28	0.064416	0.022936	1.011136	0.291	0.246	0.522	0	4	1036	1
2026-02-11	16:28:15.670	1.295	-0.56	0.245	0.063684	0.019764	1.01382	0.291	0.243	0.522	0	4	1036	1
2026-02-11	16:28:15.690	1.26	-0.56	0.245	0.06344	0.02196	1.012112	0.2925	0.246	0.522	0	4	1036	1
2026-02-11	16:28:15.710	1.33	-0.595	0.245	0.061244	0.025376	1.011868	0.291	0.243	0.5235	0	4	1036	1
2026-02-11	16:28:15.730	1.295	-0.56	0.245	0.0671	0.025132	1.011624	0.288	0.2445	0.5235	0	4	1036	1
2026-02-11	16:28:15.750	1.26	-0.56	0.245	0.06466	0.020984	1.013576	0.2895	0.246	0.522	0	4	1036	1
2026-02-11	16:28:15.770	1.26	-0.56	0.245	0.06466	0.018788	1.010648	0.2925	0.2445	0.5205	0	4	1036	1
2026-02-11	16:28:15.790	1.295	-0.595	0.28	0.06344	0.020252	1.016504	0.2895	0.2445	0.5205	0	4	1036	1
2026-02-11	16:28:15.810	1.33	-0.595	0.28	0.06734399	0.020984	1.010892	0.2925	0.2445	0.519	0	4	1036	1
2026-02-11	16:28:15.830	1.225	-0.525	0.245	0.06588	0.020252	1.012844	0.294	0.246	0.522	0	4	1036	1
2026-02-11	16:28:15.850	1.26	-0.56	0.245	0.06344	0.022936	1.011868	0.291	0.243	0.5205	0	4	1036	1
2026-02-11	16:28:15.870	1.295	-0.595	0.245	0.06344	0.019764	1.012844	0.2925	0.243	0.5175	0	4	1036	1
2026-02-11	16:28:15.890	1.26	-0.525	0.21	0.066856	0.021716	1.014552	0.288	0.2415	0.5205	0	4	1036	1
2026-02-11	16:28:15.910	1.26	-0.56	0.245	0.06344	0.018544	1.014552	0.288	0.243	0.5175	0	4	1036	1
2026-02-11	16:28:15.930	1.295	-0.525	0.245	0.06466	0.022936	1.009184	0.291	0.246	0.519	0	4	1036	1
2026-02-11	16:28:15.950	1.26	-0.63	0.245	0.065392	0.022448	1.012356	0.2865	0.2415	0.5235	0	4	1036	1
2026-02-11	16:28:15.970	1.225	-0.56	0.28	0.06466	0.01708	1.017724	0.288	0.2445	0.522	0	4	1036	1
2026-02-11	16:28:15.990	1.26	-0.595	0.28	0.064416	0.0183	1.01382	0.291	0.2445	0.5235	0	4	1036	1
2026-02-11	16:28:16.010	1.225	-0.525	0.28	0.06588	0.019032	1.012112	0.288	0.2415	0.528	0	4	1036	1
2026-02-11	16:28:16.030	1.225	-0.56	0.245	0.062952	0.017568	1.014796	0.288	0.2415	0.5205	0	4	1036	1
2026-02-11	16:28:16.050	1.225	-0.595	0.245	0.064172	0.018544	1.012844	0.291	0.243	0.5175	0	4	1036	1
2026-02-11	16:28:16.070	1.26	-0.525	0.315	0.06466	0.017568	1.01382	0.2895	0.2415	0.5235	0	4	1036	1
2026-02-11	16:28:16.090	1.26	-0.56	0.245	0.062952	0.020496	1.010404	0.2895	0.24	0.5265	0	4	1036	1
2026-02-11	16:28:16.110	1.26	-0.56	0.245	0.06222	0.01952	1.012112	0.294	0.246	0.528	0	4	1036	1
2026-02-11	16:28:16.130	1.26	-0.56	0.245	0.063928	0.021716	1.013332	0.2955	0.249	0.5265	0	4	1036	1
2026-02-11	16:28:16.150	1.26	-0.595	0.28	0.063684	0.020008	1.013332	0.2955	0.249	0.5265	0	4	1036	1
2026-02-11	16:28:16.170	1.295	-0.49	0.21	0.066124	0.0183	1.01138	0.2955	0.249	0.5265	0	4	1036	1
2026-02-11	16:28:16.190	1.26	-0.595	0.28	0.062708	0.023912	1.013576	0.2895	0.2475	0.5295	0	4	1036	1
2026-02-11	16:28:16.210	1.295	-0.56	0.28	0.06344	0.018544	1.012112	0.3	0.246	0.5265	0	4	1036	1
2026-02-11	16:28:16.230	1.26	-0.595	0.245	0.065148	0.019276	1.010404	0.3	0.246	0.5265	0	4	1036	1
2026-02-11	16:28:16.250	1.26	-0.56	0.245	0.066124	0.021716	1.01382	0.294	0.243	0.522	0	4	1036	1
2026-02-11	16:28:16.270	1.225	-0.56	0.21	0.063928	0.021228	1.01138	0.294	0.2415	0.5145	0	4	1036	1
2026-02-11	16:28:16.290	1.225	-0.525	0.245	0.06344	0.0183	1.007964	0.2925	0.243	0.525	0	4	1036	1
2026-02-11	16:28:16.310	1.225	-0.56	0.245	0.061	0.02318	1.012112	0.2925	0.2475	0.522	0	4	1036	1
2026-02-11	16:28:16.330	1.26	-0.525	0.245	0.062708	0.021228	1.011868	0.2955	0.2445	0.5175	0	4	1036	1
2026-02-11	16:28:16.350	1.26	-0.595	0.28	0.061732	0.02074	1.011868	0.2955	0.252	0.5235	0	4	1036	1
2026-02-11	16:28:16.370	1.26	-0.595	0.245	0.066612	0.01952	1.014552	0.2895	0.24	0.5265	0	4	1036	1
2026-02-11	16:28:16.390	1.26	-0.49	0.245	0.065148	0.021228	1.016016	0.2895	0.249	0.519	0	4	1036	1
2026-02-11	16:28:16.410	1.26	-0.595	0.28	0.066368	0.021228	1.009672	0.297	0.2445	0.5265	0	4	1036	1
2026-02-11	16:28:16.430	1.26	-0.49	0.21	0.06466	0.022448	1.01382	0.2865	0.234	0.5175	0	4	1036	1
2026-02-11	16:28:16.450	1.26	-0.595	0.21	0.065148	0.01952	1.010648	0.2865	0.234	0.5175	0	4	1036	1
2026-02-11	16:28:16.470	1.26	-0.56	0.28	0.064904	0.021716	1.013576	0.288	0.24	0.5205	0	4	1036	1
2026-02-11	16:28:16.490	1.26	-0.525	0.245	0.06344	0.022204	1.013576	0.2895	0.2475	0.5235	0	4	1036	1
2026-02-11	16:28:16.510	1.295	-0.595	0.245	0.064904	0.021472	1.016016	0.2895	0.2445	0.525	0	4	1036	1
2026-02-11	16:28:16.530	1.26	-0.56	0.28	0.06588	0.025132	1.013332	0.2925	0.243	0.5205	0	4	1036	1
2026-02-11	16:28:16.550	1.26	-0.595	0.245	0.063928	0.021472	1.012112	0.2895	0.2415	0.519	0	4	1036	1
2026-02-11	16:28:16.570	1.225	-0.525	0.21	0.06222	0.02196	1.01138	0.291	0.2415	0.5175	0	4	1036	1
2026-02-11	16:28:16.590	1.295	-0.595	0.28	0.063684	0.019764	1.012112	0.294	0.2445	0.516	0	4	1036	1
2026-02-11	16:28:16.610	1.295	-0.56	0.245	0.063684	0.020496	1.010892	0.291	0.243	0.522	0	3	1036	1
2026-02-11	16:28:16.630	1.26	-0.56	0.21	0.064172	0.023912	1.01504	0.291	0.246	0.522	0	3	1036	1
2026-02-11	16:28:16.650	1.295	-0.56	0.28	0.06222	0.016592	1.014796	0.2895	0.2445	0.5205	0	3	1036	1
2026-02-11	16:28:16.670	1.295	-0.56	0.245	0.062952	0.023668	1.011136	0.2895	0.24	0.522	0	3	1036	1
2026-02-11	16:28:16.690	1.26	-0.525	0.28	0.061976	0.019276	1.009672	0.2895	0.243	0.519	0	3	1036	1
2026-02-11	16:28:16.710	1.225	-0.56	0.245	0.066368	0.02074	1.014552	0.291	0.2475	0.5205	0	3	1036	1
2026-02-11	16:28:16.730	1.26	-0.525	0.245	0.065636	0.01952	1.015528	0.2925	0.2475	0.522	0	3	1036	1
2026-02-11	16:28:16.750	1.26	-0.7	0.21	0.065392	0.018788	1.009428	0.2895	0.246	0.519	0	3	1036	1
2026-02-11	16:28:16.770	1.225	-0.385	0.245	0.060512	0.020496	1.016992	0.2925	0.2415	0.5205	0	3	1036	1
2026-02-11	16:28:16.790	1.33	-0.7	0.245	0.067832	0.023424	1.010892	0.2925	0.24	0.516	0	3	1036	1
2026-02-11	16:28:16.810	1.225	-0.525	0.245	0.06588	0.019764	1.012844	0.291	0.237	0.51	0	3	1036	1
2026-02-11	16:28:16.830	1.225	-0.595	0.21	0.065636	0.023912	1.0126	0.2925	0.237	0.516	0	3	1036	1
2026-02-11	16:28:16.850	1.26	-0.49	0.21	0.061976	0.021228	1.017968	0.288	0.2415	0.5205	0	3	1036	1
2026-02-11	16:28:16.870	1.33	-0.665	0.245	0.063928	0.0244	1.00528	0.288	0.2415	0.5175	0	3	1036	1
2026-02-11	16:28:16.890	1.26	-0.56	0.245	0.065392	0.018788	1.013576	0.288	0.246	0.5145	0	3	1036	1
2026-02-11	16:28:16.910	1.26	-0.455	0.245	0.06344	0.021228	1.016748	0.288	0.2445	0.5145	0	3	1036	1
2026-02-11	16:28:16.930	1.26	-0.7	0.245	0.061	0.0244	1.0065	0.2955	0.2415	0.516	0	3	1036	1
2026-02-11	16:28:16.950	1.225	-0.455	0.28	0.064172	0.019032	1.010892	0.2985	0.243	0.519	0	3	1036	1
2026-02-11	16:28:16.970	1.26	-0.56	0.21	0.06344	0.021472	1.0187	0.2955	0.2385	0.519	0	3	1036	1
2026-02-11	16:28:16.990	1.295	-0.56	0.245	0.063684	0.017812	1.009672	0.294	0.24	0.519	0	3	1036	1
2026-02-11	16:28:17.010	1.225	-0.595	0.245	0.065148	0.017812	1.011868	0.2955	0.243	0.522	0	3	1036	1
2026-02-11	16:28:17.030	1.26	-0.525	0.245	0.061244	0.018788	1.017968	0.2925	0.2385	0.525	0	3	1036	1
2026-02-11	16:28:17.050	1.26	-0.56	0.245	0.065636	0.020496	1.009672	0.2895	0.237	0.519	0	3	1036	1
2026-02-11	16:28:17.070	1.295	-0.56	0.245	0.063684	0.021472	1.010892	0.2925	0.246	0.5145	0	3	1036	1
2026-02-11	16:28:17.090	1.26	-0.525	0.245	0.065392	0.021716	1.01626	0.288	0.243	0.522	0	3	1036	1
2026-02-11	16:28:17.110	1.26	-0.63	0.245	0.065636	0.020252	1.009184	0.2835	0.24	0.522	0	3	1036	1
2026-02-11	16:28:17.130	1.295	-0.525	0.245	0.066124	0.022448	1.012356	0.291	0.2445	0.519	0	3	1036	1
2026-02-11	16:28:17.150	1.26	-0.56	0.245	0.061732	0.019032	1.017724	0.2925	0.246	0.522	0	3	1036	1
2026-02-11	16:28:17.170	1.26	-0.56	0.28	0.06466	0.019764	1.013088	0.291	0.24	0.5235	0	3	1036	1
2026-02-11	16:28:17.190	1.26	-0.56	0.28	0.062952	0.019032	1.009428	0.2925	0.234	0.5235	0	3	1036	1
2026-02-11	16:28:17.210	1.225	-0.56	0.28	0.064416	0.021716	1.0126	0.2925	0.237	0.522	0	3	1036	1
2026-02-11	16:28:17.230	1.225	-0.49	0.28	0.066368	0.020008	1.019432	0.2865	0.243	0.5205	0	3	1036	1
2026-02-11	16:28:17.250	1.295	-0.665	0.245	0.068564	0.021228	1.008452	0.288	0.2445	0.516	0	3	1036	1
2026-02-11	16:28:17.270	1.26	-0.49	0.28	0.064416	0.02196	1.01626	0.294	0.237	0.516	0	3	1036	1
2026-02-11	16:28:17.290	1.26	-0.56	0.245	0.061976	0.02074	1.012844	0.291	0.243	0.516	0	3	1036	1
2026-02-11	16:28:17.310	1.26	-0.595	0.245	0.062464	0.019032	1.011868	0.2895	0.2475	0.516	0	3	1036	1
2026-02-11	16:28:17.330	1.26	-0.525	0.28	0.06466	0.019764	1.009672	0.291	0.2415	0.522	0	3	1036	1
2026-02-11	16:28:17.350	1.26	-0.63	0.245	0.064904	0.022692	1.013576	0.2925	0.243	0.519	0	3	1036	1
2026-02-11	16:28:17.370	1.26	-0.455	0.245	0.064172	0.022448	1.010404	0.297	0.2415	0.516	0	3	1036	1
2026-02-11	16:28:17.390	1.295	-0.665	0.28	0.06588	0.027328	1.00894	0.294	0.2385	0.519	0	3	1036	1
2026-02-11	16:28:17.410	1.225	-0.455	0.245	0.066612	0.01952	1.015284	0.2925	0.2415	0.5205	0	3	1036	1
2026-02-11	16:28:17.430	1.295	-0.665	0.245	0.065392	0.020984	1.010404	0.2925	0.2415	0.5205	0	3	1036	1
2026-02-11	16:28:17.450	1.33	-0.56	0.245	0.062464	0.019032	1.0126	0.297	0.237	0.525	0	3	1036	1
2026-02-11	16:28:17.470	1.26	-0.56	0.245	0.063196	0.019032	1.01138	0.2895	0.24	0.519	0	3	1036	1
2026-02-11	16:28:17.490	1.225	-0.525	0.28	0.062708	0.022204	1.016504	0.2865	0.246	0.513	0	3	1036	1
2026-02-11	16:28:17.510	1.26	-0.56	0.245	0.064416	0.025132	1.011136	0.2865	0.246	0.513	0	3	1036	1
2026-02-11	16:28:17.530	1.26	-0.56	0.245	0.064416	0.019764	1.014308	0.288	0.246	0.513	0	3	1036	1
2026-02-11	16:28:17.550	1.225	-0.525	0.245	0.061488	0.0244	1.013332	0.2895	0.246	0.5145	0	3	1036	1
2026-02-11	16:28:17.570	1.26	-0.595	0.245	0.062952	0.018788	1.013088	0.2925	0.2415	0.519	0	3	1036	1
2026-02-11	16:28:17.590	1.225	-0.56	0.245	0.06466	0.021228	1.01382	0.291	0.24	0.519	0	3	1036	1
2026-02-11	16:28:17.610	1.26	-0.525	0.245	0.06222	0.017324	1.012844	0.288	0.2385	0.5175	0	3	1036	1
2026-02-11	16:28:17.630	1.295	-0.595	0.245	0.063928	0.019276	1.010892	0.288	0.2415	0.519	0	3	1036	1
2026-02-11	16:28:17.650	1.225	-0.49	0.245	0.064172	0.023668	1.014552	0.288	0.243	0.522	0	3	1036	1
2026-02-11	16:28:17.670	1.26	-0.56	0.245	0.066368	0.019032	1.010648	0.291	0.24	0.519	0	3	1036	1
2026-02-11	16:28:17.690	1.295	-0.56	0.245	0.060024	0.024156	1.013332	0.2895	0.2445	0.516	0	3	1036	1
2026-02-11	16:28:17.710	1.26	-0.56	0.28	0.065392	0.020252	1.012112	0.2865	0.246	0.513	0	3	1036	1
2026-02-11	16:28:17.730	1.295	-0.595	0.245	0.064172	0.022448	1.013576	0.2895	0.2415	0.5175	0	3	1036	1
2026-02-11	16:28:17.750	1.225	-0.525	0.28	0.064904	0.019276	1.012844	0.294	0.2385	0.525	0	3	1036	1
2026-02-11	16:28:17.770	1.26	-0.595	0.28	0.06588	0.021472	1.010404	0.291	0.237	0.5205	0	3	1036	1
2026-02-11	16:28:17.790	1.295	-0.525	0.245	0.065392	0.02562	1.014064	0.288	0.243	0.516	0	3	1036	1
2026-02-11	16:28:17.810	1.225	-0.56	0.21	0.066368	0.025132	1.013088	0.2895	0.2445	0.516	0	3	1036	1
2026-02-11	16:28:17.830	1.26	-0.595	0.28	0.063196	0.02074	1.010648	0.2895	0.2385	0.5115	0	3	1036	1
2026-02-11	16:28:17.850	1.295	-0.595	0.245	0.066856	0.016592	1.01138	0.2895	0.243	0.513	0	3	1036	1
2026-02-11	16:28:17.870	1.295	-0.56	0.21	0.064172	0.0183	1.015528	0.288	0.2445	0.5235	0	3	1036	1
2026-02-11	16:28:17.890	1.26	-0.56	0.28	0.06588	0.026108	1.01138	0.2865	0.243	0.5235	0	3	1036	1
2026-02-11	16:28:17.910	1.26	-0.595	0.245	0.061488	0.0183	1.009428	0.2865	0.2445	0.5205	0	3	1036	1
2026-02-11	16:28:17.930	1.26	-0.56	0.28	0.066124	0.023424	1.012844	0.2895	0.2415	0.522	0	3	1036	1
2026-02-11	16:28:17.950	1.26	-0.595	0.245	0.066368	0.02196	1.011868	0.2925	0.24	0.519	0	3	1036	1
2026-02-11	16:28:17.970	1.26	-0.525	0.245	0.062952	0.019032	1.01382	0.2955	0.2385	0.5175	0	3	1036	1
2026-02-11	16:28:17.990	1.225	-0.525	0.28	0.0671	0.022692	1.016748	0.294	0.2355	0.5175	0	3	1036	1
2026-02-11	16:28:18.010	1.295	-0.56	0.245	0.063196	0.021716	1.012356	0.291	0.2385	0.519	0	3	1036	1
2026-02-11	16:28:18.030	1.26	-0.595	0.245	0.063196	0.019764	1.011868	0.291	0.24	0.519	0	3	1036	1
2026-02-11	16:28:18.050	1.26	-0.56	0.28	0.062952	0.023668	1.013088	0.291	0.2385	0.519	0	3	1036	1
2026-02-11	16:28:18.070	1.26	-0.525	0.245	0.064172	0.021472	1.014308	0.2865	0.24	0.516	0	3	1036	1
2026-02-11	16:28:18.090	1.295	-0.56	0.245	0.068076	0.02196	1.014308	0.2865	0.2445	0.5145	0	3	1036	1
2026-02-11	16:28:18.110	1.26	-0.525	0.21	0.063684	0.018544	1.012844	0.288	0.2415	0.522	0	3	1036	1
2026-02-11	16:28:18.130	1.26	-0.56	0.245	0.063684	0.01952	1.011624	0.288	0.24	0.5205	0	3	1036	1
2026-02-11	16:28:18.150	1.26	-0.525	0.245	0.064904	0.020984	1.013332	0.2925	0.2445	0.5145	0	3	1036	1
2026-02-11	16:28:18.170	1.26	-0.525	0.28	0.065636	0.019032	1.0126	0.291	0.24	0.5175	0	3	1036	1
2026-02-11	16:28:18.190	1.295	-0.56	0.245	0.068076	0.018788	1.010648	0.291	0.237	0.516	0	3	1036	1
2026-02-11	16:28:18.210	1.26	-0.56	0.245	0.067588	0.020496	1.0126	0.2925	0.2415	0.516	0	3	1036	1
2026-02-11	16:28:18.230	1.295	-0.56	0.245	0.06466	0.022204	1.01382	0.291	0.24	0.522	0	3	1036	1
2026-02-11	16:28:18.250	1.26	-0.525	0.245	0.06344	0.01952	1.010648	0.2955	0.24	0.516	0	3	1036	1
2026-02-11	16:28:18.270	1.26	-0.56	0.245	0.064416	0.022204	1.01382	0.297	0.2415	0.5145	0	3	1036	1
2026-02-11	16:28:18.290	1.26	-0.595	0.245	0.060268	0.018544	1.014064	0.2925	0.237	0.5205	0	3	1036	1
2026-02-11	16:28:18.310	1.295	-0.56	0.28	0.064904	0.021228	1.009428	0.294	0.237	0.5145	0	3	1036	1
2026-02-11	16:28:18.330	1.295	-0.595	0.245	0.06344	0.020984	1.010892	0.297	0.24	0.5115	0	3	1036	1
2026-02-11	16:28:18.350	1.26	-0.56	0.245	0.06222	0.02074	1.014552	0.288	0.2415	0.5175	0	3	1036	1
2026-02-11	16:28:18.370	1.26	-0.56	0.21	0.064172	0.02074	1.012112	0.285	0.2415	0.519	0	3	1036	1
2026-02-11	16:28:18.390	1.26	-0.56	0.245	0.06344	0.026352	1.00772	0.2865	0.2475	0.5175	0	3	1036	1
2026-02-11	16:28:18.410	1.26	-0.56	0.245	0.06222	0.023424	1.013088	0.2865	0.2475	0.5235	0	3	1036	1
2026-02-11	16:28:18.430	1.26	-0.595	0.245	0.064416	0.021228	1.009672	0.288	0.246	0.519	0	3	1036	1
2026-02-11	16:28:18.450	1.26	-0.56	0.245	0.063928	0.019276	1.013576	0.2895	0.246	0.513	0	3	1036	1
2026-02-11	16:28:18.470	1.26	-0.525	0.245	0.06466	0.020496	1.016992	0.2895	0.2445	0.5175	0	3	1036	1
2026-02-11	16:28:18.490	1.26	-0.595	0.245	0.064904	0.02074	1.01138	0.288	0.24	0.5175	0	3	1036	1
2026-02-11	16:28:18.510	1.26	-0.525	0.28	0.064904	0.020984	1.012356	0.291	0.2385	0.5175	0	3	1036	1
2026-02-11	16:28:18.530	1.225	-0.56	0.245	0.064416	0.0183	1.014308	0.2895	0.2415	0.5205	0	3	1036	1
2026-02-11	16:28:18.550	1.26	-0.56	0.245	0.063684	0.021472	1.014064	0.291	0.243	0.5205	0	3	1036	1
2026-02-11	16:28:18.570	1.295	-0.595	0.245	0.063684	0.02196	1.014064	0.2955	0.2445	0.519	0	3	1036	1
2026-02-11	16:28:18.590	1.295	-0.56	0.245	0.063196	0.018056	1.013332	0.2955	0.2445	0.519	0	3	1036	1
2026-02-11	16:28:18.610	1.295	-0.525	0.245	0.072468	0.020008	1.010404	0.288	0.246	0.519	0	3	1036	1
2026-02-11	16:28:18.630	1.26	-0.56	0.245	0.064172	0.021716	1.013576	0.288	0.246	0.519	0	3	1036	1
2026-02-11	16:28:18.650	1.295	-0.56	0.28	0.062952	0.01952	1.011624	0.291	0.243	0.5205	0	3	1036	1
2026-02-11	16:28:18.670	1.295	-0.56	0.28	0.062952	0.019764	1.011624	0.291	0.24	0.5205	0	3	1036	1
2026-02-11	16:28:18.690	1.26	-0.595	0.245	0.065636	0.021716	1.010404	0.2865	0.24	0.5175	0	3	1036	1
2026-02-11	16:28:18.710	1.26	-0.595	0.245	0.066368	0.018056	1.01504	0.291	0.243	0.522	0	3	1036	1
2026-02-11	16:28:18.730	1.225	-0.56	0.28	0.063928	0.02074	1.014552	0.294	0.2385	0.5205	0	3	1036	1
2026-02-11	16:28:18.750	1.295	-0.525	0.21	0.063928	0.020008	1.01016	0.291	0.237	0.5205	0	3	1036	1
2026-02-11	16:28:18.770	1.295	-0.525	0.245	0.061488	0.020496	1.0126	0.2895	0.2385	0.5205	0	3	1036	1
2026-02-11	16:28:18.790	1.26	-0.56	0.245	0.060756	0.02196	1.014308	0.291	0.2415	0.5145	0	3	1036	1
2026-02-11	16:28:18.810	1.26	-0.595	0.28	0.066124	0.020496	1.013576	0.2955	0.249	0.519	0	3	1036	1
2026-02-11	16:28:18.830	1.26	-0.56	0.245	0.062952	0.020252	1.013576	0.291	0.2445	0.5205	0	3	1036	1
2026-02-11	16:28:18.850	1.26	-0.595	0.28	0.064416	0.02074	1.0126	0.285	0.2355	0.516	0	3	1036	1
2026-02-11	16:28:18.870	1.225	-0.525	0.245	0.064416	0.019764	1.01382	0.288	0.2355	0.516	0	3	1036	1
2026-02-11	16:28:18.890	1.26	-0.56	0.245	0.063196	0.019764	1.012356	0.288	0.2415	0.522	0	3	1036	1
2026-02-11	16:28:18.910	1.295	-0.56	0.28	0.061976	0.021716	1.011624	0.2895	0.243	0.5205	0	3	1036	1
2026-02-11	16:28:18.930	1.26	-0.56	0.28	0.06222	0.01952	1.014308	0.294	0.243	0.5235	0	3	1036	1
2026-02-11	16:28:18.950	1.295	-0.595	0.245	0.065636	0.020252	1.009428	0.2955	0.24	0.522	0	3	1036	1
2026-02-11	16:28:18.970	1.26	-0.56	0.245	0.062952	0.020496	1.012844	0.2955	0.2415	0.516	0	3	1036	1
2026-02-11	16:28:18.990	1.295	-0.525	0.28	0.063684	0.021716	1.014552	0.294	0.243	0.5175	0	3	1036	1
2026-02-11	16:28:19.010	1.295	-0.56	0.28	0.06466	0.021716	1.013576	0.291	0.24	0.525	0	3	1036	1
2026-02-11	16:28:19.030	1.26	-0.56	0.245	0.061488	0.019764	1.010892	0.2895	0.24	0.525	0	3	1036	1
2026-02-11	16:28:19.050	1.225	-0.56	0.245	0.064904	0.022204	1.0126	0.2925	0.243	0.522	0	3	1036	1
2026-02-11	16:28:19.070	1.26	-0.56	0.245	0.063684	0.021228	1.01504	0.2895	0.243	0.5235	0	3	1036	1
2026-02-11	16:28:19.090	1.26	-0.595	0.245	0.06588	0.020008	1.011868	0.2925	0.243	0.522	0	3	1036	1
2026-02-11	16:28:19.110	1.295	-0.56	0.245	0.067588	0.01952	1.0126	0.2955	0.2445	0.5175	0	3	1036	1
2026-02-11	16:28:19.130	1.26	-0.525	0.28	0.068564	0.023668	1.013088	0.2895	0.24	0.519	0	3	1036	1
2026-02-11	16:28:19.150	1.295	-0.595	0.245	0.06344	0.021472	1.01016	0.2925	0.24	0.5175	0	3	1036	1
2026-02-11	16:28:19.170	1.225	-0.525	0.245	0.060268	0.01952	1.012844	0.291	0.243	0.5175	0	3	1036	1
2026-02-11	16:28:19.190	1.26	-0.595	0.245	0.063196	0.025376	1.01138	0.2895	0.24	0.522	0	3	1036	1
2026-02-11	16:28:19.210	1.26	-0.525	0.245	0.065636	0.017812	1.016016	0.2925	0.24	0.522	0	3	1036	1
2026-02-11	16:28:19.230	1.26	-0.56	0.28	0.06344	0.019764	1.010404	0.291	0.246	0.5235	0	3	1036	1
2026-02-11	16:28:19.250	1.26	-0.56	0.28	0.061976	0.019032	1.013576	0.2865	0.243	0.5265	0	3	1036	1
2026-02-11	16:28:19.270	1.225	-0.56	0.245	0.062464	0.0244	1.013088	0.288	0.246	0.522	0	3	1036	1
2026-02-11	16:28:19.290	1.26	-0.595	0.28	0.06344	0.020984	1.011624	0.291	0.246	0.5205	0	3	1036	1
2026-02-11	16:28:19.310	1.295	-0.525	0.245	0.0671	0.017568	1.010892	0.2895	0.24	0.5205	0	3	1036	1
2026-02-11	16:28:19.330	1.26	-0.63	0.28	0.062952	0.020008	1.009428	0.291	0.246	0.516	0	3	1036	1
2026-02-11	16:28:19.350	1.26	-0.525	0.245	0.062952	0.020252	1.014796	0.2925	0.2475	0.5175	0	3	1036	1
2026-02-11	16:28:19.370	1.26	-0.56	0.28	0.06734399	0.0244	1.015284	0.294	0.243	0.5235	0	3	1036	1
2026-02-11	16:28:19.390	1.26	-0.56	0.28	0.065636	0.017812	1.011868	0.294	0.2415	0.522	0	3	1036	1
2026-02-11	16:28:19.410	1.295	-0.49	0.245	0.064904	0.023424	1.012356	0.2925	0.2445	0.5175	0	3	1036	1
2026-02-11	16:28:19.430	1.26	-0.595	0.245	0.063196	0.021228	1.013088	0.2895	0.243	0.5175	0	3	1036	1
2026-02-11	16:28:19.450	1.26	-0.525	0.21	0.059536	0.020252	1.013576	0.2895	0.2415	0.516	0	3	1036	1
2026-02-11	16:28:19.470	1.295	-0.595	0.28	0.066856	0.020008	1.010892	0.291	0.24	0.522	0	3	1036	1
2026-02-11	16:28:19.490	1.295	-0.525	0.245	0.063684	0.018056	1.014552	0.2895	0.2385	0.525	0	3	1036	1
2026-02-11	16:28:19.510	1.295	-0.56	0.245	0.066368	0.016836	1.013332	0.288	0.24	0.5205	0	3	1036	1
2026-02-11	16:28:19.530	1.26	-0.595	0.245	0.067588	0.020984	1.009672	0.2925	0.24	0.5205	0	3	1036	1
2026-02-11	16:28:19.550	1.225	-0.56	0.28	0.065148	0.02196	1.0126	0.2925	0.2385	0.5205	0	3	1036	1
2026-02-11	16:28:19.570	1.26	-0.56	0.28	0.063684	0.022692	1.013332	0.2895	0.2385	0.513	0	3	1036	1
2026-02-11	16:28:19.590	1.295	-0.525	0.245	0.0671	0.018788	1.01138	0.2925	0.24	0.5145	0	3	1036	1
2026-02-11	16:28:19.610	1.295	-0.595	0.28	0.066368	0.02196	1.011136	0.2895	0.24	0.519	0	3	1036	1
2026-02-11	16:28:19.630	1.26	-0.525	0.245	0.064172	0.022204	1.013332	0.2865	0.2385	0.516	0	3	1036	1
2026-02-11	16:28:19.650	1.225	-0.56	0.28	0.0671	0.02196	1.0126	0.2865	0.2385	0.516	0	3	1036	1
2026-02-11	16:28:19.670	1.295	-0.595	0.245	0.063928	0.021228	1.011868	0.288	0.246	0.5205	0	3	1036	1
2026-02-11	16:28:19.690	1.295	-0.595	0.245	0.063196	0.019764	1.011136	0.288	0.246	0.5205	0	3	1036	1
2026-02-11	16:28:19.710	1.26	-0.56	0.245	0.062952	0.018788	1.012112	0.2895	0.2385	0.5145	0	3	1036	1
2026-02-11	16:28:19.730	1.295	-0.595	0.245	0.063684	0.01952	1.0126	0.294	0.2445	0.5175	0	3	1036	1
2026-02-11	16:28:19.750	1.26	-0.595	0.21	0.063684	0.022692	1.01138	0.2895	0.2415	0.5205	0	3	1036	1
2026-02-11	16:28:19.770	1.26	-0.56	0.245	0.061	0.022936	1.01138	0.291	0.2415	0.513	0	3	1036	1
2026-02-11	16:28:19.790	1.26	-0.56	0.245	0.066612	0.016592	1.014064	0.2925	0.249	0.522	0	3	1036	1
2026-02-11	16:28:19.810	1.295	-0.595	0.245	0.061976	0.02318	1.012112	0.2955	0.2475	0.522	0	3	1036	1
2026-02-11	16:28:19.830	1.295	-0.595	0.21	0.065636	0.02196	1.013332	0.291	0.243	0.516	0	3	1036	1
2026-02-11	16:28:19.850	1.26	-0.56	0.28	0.064416	0.018788	1.014552	0.2925	0.2385	0.5205	0	3	1036	1
2026-02-11	16:28:19.870	1.225	-0.56	0.245	0.06734399	0.022448	1.01382	0.2925	0.2385	0.5205	0	3	1036	1
2026-02-11	16:28:19.890	1.26	-0.56	0.245	0.064416	0.022448	1.012112	0.2925	0.2385	0.5205	0	3	1036	1
2026-02-11	16:28:19.910	1.26	-0.56	0.245	0.066124	0.021228	1.013576	0.2925	0.2385	0.5205	0	3	1036	1
2026-02-11	16:28:19.930	1.26	-0.56	0.21	0.0671	0.023424	1.013332	0.294	0.2385	0.519	0	3	1036	1
2026-02-11	16:28:19.950	1.295	-0.595	0.245	0.066612	0.020984	1.009672	0.2925	0.2415	0.5205	0	3	1036	1
2026-02-11	16:28:19.970	1.26	-0.595	0.245	0.065636	0.022448	1.013576	0.2895	0.2415	0.5205	0	3	1036	1
