yyyy-MM-dd	HH:mm:ss.fff	gyrX	gyrY	gyrZ	accX	accY	accZ	magX	magY	magZ	Marker	Energy	Angle	Classification
2026-02-11	16:27:49.610	33.775	-0.175	21.98	0.909876	0.28792	0.09638	0.1245	0.5745	0.1755	0	134	137	3
2026-02-11	16:27:49.630	32.55	-4.095	17.71	0.840824	0.30012	0.104676	0.1215	0.585	0.1725	0	134	137	3
2026-02-11	16:27:49.650	26.705	-8.75	12.565	0.824964	0.317688	0.127124	0.1245	0.585	0.183	0	134	137	3
2026-02-11	16:27:49.670	14.84	-12.67	7.525	0.847168	0.338672	0.143228	0.1215	0.5835	0.18	0	134	137	3
2026-02-11	16:27:49.690	-2.205	-15.225	3.71	0.8906	0.345016	0.160064	0.1215	0.582	0.1845	0	134	137	3
2026-02-11	16:27:49.710	-28.28	-15.995	1.645	0.97356	0.309148	0.17446	0.123	0.582	0.189	0	134	137	3
2026-02-11	16:27:49.730	-38.78	-15.155	0.945	1.024068	0.279136	0.194224	0.126	0.591	0.186	0	134	137	3
2026-02-11	16:27:49.750	-41.265	-12.67	-0.035	1.042612	0.219844	0.228872	0.126	0.5835	0.1875	0	134	137	3
2026-02-11	16:27:49.770	-31.5	-8.26	0.42	1.037244	0.111508	0.269132	0.1335	0.585	0.1935	0	134	137	3
2026-02-11	16:27:49.790	-13.335	-4.27	2.205	1.020896	0.084668	0.284992	0.1365	0.582	0.189	0	134	137	3
2026-02-11	16:27:49.810	-3.885	0.175	3.745	1.025044	0.061	0.31964	0.126	0.5835	0.1935	0	124	135	2
2026-02-11	16:27:49.830	-8.89	6.475	5.67	1.007232	0.001952	0.33306	0.1245	0.582	0.192	0	124	135	2
2026-02-11	16:27:49.850	-9.695	11.55	7.14	1.001132	-0.01586	0.314272	0.1275	0.5805	0.1965	0	124	135	2
2026-02-11	16:27:49.870	-4.795	12.635	5.67	0.9821	0.033184	0.255712	0.1185	0.5865	0.177	0	124	135	2
2026-02-11	16:27:49.890	2.8	10.36	1.925	0.992592	0.10614	0.214476	0.1215	0.585	0.1815	0	124	135	2
2026-02-11	16:27:49.910	-3.535	8.12	-3.395	0.996252	0.150304	0.183976	0.1245	0.585	0.186	0	124	135	2
2026-02-11	16:27:49.930	-14.315	7.07	-8.715	0.99552	0.164456	0.166652	0.1245	0.585	0.186	0	124	135	2
2026-02-11	16:27:49.950	-18.725	7.56	-11.515	0.992104	0.157624	0.165188	0.12	0.5805	0.1875	0	124	135	2
2026-02-11	16:27:49.970	-18.34	8.575	-12.985	0.986248	0.153232	0.163968	0.123	0.579	0.18	0	124	135	2
2026-02-11	16:27:49.990	-14.49	9.8	-13.685	0.981368	0.155916	0.157624	0.1305	0.5775	0.177	0	124	135	2
2026-02-11	16:27:50.010	-9.1	10.815	-14.175	0.976732	0.164212	0.157624	0.1215	0.5775	0.183	0	118	147	3
2026-02-11	16:27:50.030	-3.08	11.165	-14.63	0.966484	0.1769	0.144936	0.1215	0.5715	0.177	0	118	147	3
2026-02-11	16:27:50.050	3.08	10.605	-15.155	0.958188	0.1891	0.138836	0.123	0.5715	0.171	0	118	147	3
2026-02-11	16:27:50.070	7.63	9.345	-15.785	0.962336	0.205448	0.132492	0.1245	0.576	0.1725	0	118	147	3
2026-02-11	16:27:50.090	9.065	7.84	-16.03	0.9638	0.216428	0.128832	0.1245	0.5625	0.18	0	118	147	3
2026-02-11	16:27:50.110	7.07	6.23	-16.205	0.958188	0.229116	0.126636	0.1215	0.57	0.171	0	118	147	3
2026-02-11	16:27:50.130	0.105	3.465	-16.275	0.965996	0.222284	0.128344	0.1185	0.5775	0.1635	0	118	147	3
2026-02-11	16:27:50.150	-3.745	1.54	-16.31	0.96868	0.20618	0.134932	0.117	0.5655	0.171	0	118	147	3
2026-02-11	16:27:50.170	-6.265	-0.245	-16.38	0.97478	0.192272	0.14884	0.129	0.5595	0.1695	0	118	147	3
2026-02-11	16:27:50.190	-8.19	-1.715	-16.31	0.977708	0.176656	0.164456	0.126	0.564	0.171	0	118	147	3
2026-02-11	16:27:50.210	-8.575	-2.975	-15.89	0.978928	0.158844	0.176412	0.123	0.5595	0.168	0	114	158	3
2026-02-11	16:27:50.230	-7.14	-3.99	-15.225	0.983076	0.143228	0.2013	0.1245	0.564	0.174	0	114	158	3
2026-02-11	16:27:50.250	-5.915	-4.55	-13.93	0.995276	0.121756	0.217404	0.1215	0.5535	0.1665	0	114	158	3
2026-02-11	16:27:50.270	-5.04	-4.76	-12.355	0.993812	0.123952	0.2318	0.123	0.546	0.165	0	114	158	3
2026-02-11	16:27:50.290	-6.545	-4.48	-10.675	1.006744	0.090524	0.234972	0.1275	0.5535	0.174	0	114	158	3
2026-02-11	16:27:50.310	-7.91	-4.305	-9.135	0.987712	0.099308	0.23058	0.126	0.5505	0.171	0	114	158	3
2026-02-11	16:27:50.330	-9.03	-4.97	-7	0.986248	0.10248	0.217404	0.1215	0.5475	0.171	0	114	158	3
2026-02-11	16:27:50.350	-12.18	-4.69	-3.605	0.993568	0.089548	0.20252	0.12	0.549	0.1755	0	114	158	3
2026-02-11	16:27:50.370	-10.01	-4.375	-2.205	0.98698	0.11468	0.194224	0.1245	0.5475	0.171	0	114	158	3
2026-02-11	16:27:50.390	-6.965	-3.92	-0.805	0.97722	0.125416	0.186416	0.1365	0.549	0.171	0	114	158	3
2026-02-11	16:27:48.410	-60.725	-12.635	4.445	0.966972	0.275232	0.166652	0.1305	0.5415	0.1755	0	279	142	3
2026-02-11	16:27:48.430	-59.395	-14.385	4.655	0.982588	0.265228	0.160064	0.1305	0.5415	0.1755	0	279	142	3
2026-02-11	16:27:48.450	-55.335	-14.245	4.48	0.99308	0.266936	0.161772	0.1395	0.5385	0.177	0	279	142	3
2026-02-11	16:27:48.470	-52.29	-13.09	3.71	0.990884	0.259616	0.169092	0.126	0.531	0.174	0	279	142	3
2026-02-11	16:27:48.490	-50.155	-11.34	2.135	0.975756	0.254736	0.1708	0.1365	0.531	0.1755	0	279	142	3
2026-02-11	16:27:48.510	-49.525	-9.66	1.75	0.975756	0.232288	0.173728	0.1395	0.528	0.1725	0	279	142	3
2026-02-11	16:27:48.530	-48.405	-7.665	1.155	0.970876	0.220088	0.172264	0.1335	0.531	0.174	0	279	142	3
2026-02-11	16:27:48.550	-47.145	-6.195	1.015	0.973072	0.202276	0.164944	0.1305	0.534	0.1785	0	279	142	3
2026-02-11	16:27:48.570	-42.385	-5.005	0.875	0.985028	0.188856	0.152988	0.126	0.531	0.1755	0	279	142	3
2026-02-11	16:27:48.590	-33.705	-4.06	0.245	0.996496	0.183488	0.14762	0.129	0.5265	0.1755	0	279	142	3
2026-02-11	16:27:48.610	-23.31	-2.975	-0.175	1.005768	0.172508	0.146156	0.1365	0.5235	0.168	0	243	153	3
2026-02-11	16:27:48.630	-12.53	-1.61	-0.525	1.007476	0.19642	0.145424	0.129	0.5235	0.171	0	243	153	3
2026-02-11	16:27:48.650	-6.51	-0.56	-0.77	0.997228	0.199104	0.1464	0.129	0.5235	0.171	0	243	153	3
2026-02-11	16:27:48.670	-4.445	-0.315	-1.295	0.982588	0.205448	0.150792	0.1335	0.5145	0.1725	0	243	153	3
2026-02-11	16:27:48.690	-3.185	-0.63	-1.75	0.977464	0.193736	0.155916	0.132	0.5265	0.1725	0	243	153	3
2026-02-11	16:27:48.710	-1.435	-1.12	-1.995	0.972584	0.19276	0.162748	0.1365	0.522	0.171	0	243	153	3
2026-02-11	16:27:48.730	-0.315	-1.645	-1.435	0.958432	0.194956	0.16226	0.1335	0.522	0.171	0	243	153	3
2026-02-11	16:27:48.750	-0.175	-2.485	-0.28	0.956236	0.203496	0.1586	0.141	0.522	0.1695	0	243	153	3
2026-02-11	16:27:48.770	-1.505	-3.78	1.4	0.944768	0.214476	0.148596	0.1395	0.5175	0.1725	0	243	153	3
2026-02-11	16:27:48.790	-4.34	-5.53	3.43	0.930128	0.218136	0.14396	0.138	0.528	0.1695	0	243	153	3
2026-02-11	16:27:48.810	-7.56	-7.665	5.39	0.918904	0.22936	0.135664	0.141	0.5235	0.1755	0	211	158	3
2026-02-11	16:27:48.830	-11.48	-9.975	7.42	0.898896	0.235216	0.128588	0.1335	0.5235	0.174	0	211	158	3
2026-02-11	16:27:48.850	-18.62	-13.65	10.255	0.876448	0.2318	0.122976	0.1335	0.5235	0.174	0	211	158	3
2026-02-11	16:27:48.870	-23.1	-15.785	12.11	0.872788	0.233264	0.127856	0.141	0.525	0.1725	0	211	158	3
2026-02-11	16:27:48.890	-27.37	-17.43	13.65	0.869616	0.23424	0.13054	0.1335	0.5355	0.1695	0	211	158	3
2026-02-11	16:27:48.910	-30.1	-18.375	15.05	0.874496	0.230336	0.134444	0.132	0.5235	0.177	0	211	158	3
2026-02-11	16:27:48.930	-31.465	-18.935	16.45	0.902068	0.231556	0.133224	0.135	0.5265	0.183	0	211	158	3
2026-02-11	16:27:48.950	-32.13	-19.145	18.515	0.95038	0.239852	0.145668	0.141	0.5235	0.1785	0	211	158	3
2026-02-11	16:27:48.970	-32.165	-18.935	21.63	1.028948	0.24644	0.153232	0.1305	0.5265	0.1845	0	211	158	3
2026-02-11	16:27:48.990	-31.5	-17.815	25.62	1.11508	0.247172	0.171044	0.135	0.528	0.18	0	211	158	3
2026-02-11	16:27:49.010	-28.665	-15.4	29.89	1.168272	0.24888	0.183976	0.132	0.5355	0.1875	0	184	157	3
2026-02-11	16:27:49.030	-22.715	-10.99	32.165	1.15168	0.244	0.185684	0.141	0.5415	0.1845	0	184	157	3
2026-02-11	16:27:49.050	-6.405	-3.675	28.84	1.032364	0.239852	0.160796	0.138	0.5385	0.183	0	184	157	3
2026-02-11	16:27:49.070	12.67	2.17	20.37	0.923784	0.236192	0.15006	0.135	0.537	0.1815	0	184	157	3
2026-02-11	16:27:49.090	24.115	5.39	10.78	0.870592	0.260592	0.141032	0.1275	0.5355	0.1935	0	184	157	3
2026-02-11	16:27:49.110	27.44	7.56	1.085	0.878644	0.271328	0.136396	0.141	0.5445	0.186	0	184	157	3
2026-02-11	16:27:49.130	27.16	9.905	-6.93	0.929396	0.280844	0.13054	0.135	0.549	0.1815	0	184	157	3
2026-02-11	16:27:49.150	23.765	12.985	-11.655	0.976732	0.259616	0.114924	0.144	0.543	0.1845	0	184	157	3
2026-02-11	16:27:49.170	22.925	15.26	-13.475	1.02968	0.241072	0.093452	0.132	0.5445	0.1875	0	184	157	3
2026-02-11	16:27:49.190	26.25	16.87	-13.09	1.048712	0.227408	0.081496	0.1305	0.549	0.1875	0	184	157	3
2026-02-11	16:27:49.210	32.41	16.66	-11.165	1.060668	0.22204	0.081252	0.135	0.5415	0.1845	0	163	154	3
2026-02-11	16:27:49.230	38.5	15.61	-8.75	1.030168	0.233508	0.08418	0.135	0.552	0.183	0	163	154	3
2026-02-11	16:27:49.250	41.475	12.88	-5.775	1.007232	0.253272	0.098088	0.135	0.546	0.1755	0	163	154	3
2026-02-11	16:27:49.270	37.8	9.205	-2.45	0.985272	0.2745	0.103456	0.135	0.546	0.1755	0	163	154	3
2026-02-11	16:27:49.290	27.51	6.055	0.14	0.982832	0.284016	0.10614	0.135	0.546	0.1755	0	163	154	3
2026-02-11	16:27:49.310	16.765	4.515	1.4	0.988688	0.27328	0.09857599	0.129	0.549	0.18	0	163	154	3
2026-02-11	16:27:49.330	9.73	4.13	2.065	0.990884	0.252784	0.094428	0.135	0.543	0.174	0	163	154	3
2026-02-11	16:27:49.350	7.315	4.235	2.17	0.988688	0.23668	0.094916	0.132	0.549	0.1845	0	163	154	3
2026-02-11	16:27:49.370	9.87	4.62	1.505	0.980148	0.227896	0.104432	0.1335	0.5565	0.1815	0	163	154	3
2026-02-11	16:27:49.390	15.785	5.18	0.35	0.974048	0.217892	0.108336	0.135	0.5535	0.174	0	163	154	3
2026-02-11	16:27:49.410	21.77	5.915	-0.945	0.964776	0.223016	0.118828	0.1365	0.552	0.168	0	147	146	3
2026-02-11	16:27:49.430	25.97	6.79	-1.575	0.964776	0.228872	0.117852	0.129	0.5505	0.1875	0	147	146	3
2026-02-11	16:27:49.450	27.65	8.015	-1.015	0.949648	0.22936	0.11468	0.123	0.5535	0.1695	0	147	146	3
2026-02-11	16:27:49.470	27.65	8.75	0.665	0.947696	0.232532	0.11224	0.1275	0.5535	0.1725	0	147	146	3
2026-02-11	16:27:49.490	27.93	8.715	5.005	0.977708	0.226188	0.11224	0.132	0.5535	0.1755	0	147	146	3
2026-02-11	16:27:49.510	28.805	8.365	9.17	1.000156	0.233264	0.112972	0.132	0.5535	0.1755	0	147	146	3
2026-02-11	16:27:49.530	30.59	7.49	13.79	1.03334	0.24034	0.104188	0.126	0.5685	0.177	0	147	146	3
2026-02-11	16:27:49.550	32.41	5.845	18.69	1.07116	0.257664	0.102968	0.135	0.564	0.1785	0	147	146	3
2026-02-11	16:27:49.570	33.285	4.165	22.47	1.06628	0.270596	0.104676	0.1245	0.561	0.1815	0	147	146	3
2026-02-11	16:27:49.590	33.25	2.415	23.87	0.998692	0.275964	0.101016	0.1215	0.567	0.1785	0	147	146	3
2026-02-11	16:27:49.610	33.775	-0.175	21.98	0.909876	0.28792	0.09638	0.1245	0.5745	0.1755	0	134	137	3
2026-02-11	16:27:49.630	32.55	-4.095	17.71	0.840824	0.30012	0.104676	0.1215	0.585	0.1725	0	134	137	3
2026-02-11	16:27:49.650	26.705	-8.75	12.565	0.824964	0.317688	0.127124	0.1245	0.585	0.183	0	134	137	3
2026-02-11	16:27:49.670	14.84	-12.67	7.525	0.847168	0.338672	0.143228	0.1215	0.5835	0.18	0	134	137	3
2026-02-11	16:27:49.690	-2.205	-15.225	3.71	0.8906	0.345016	0.160064	0.1215	0.582	0.1845	0	134	137	3
2026-02-11	16:27:49.710	-28.28	-15.995	1.645	0.97356	0.309148	0.17446	0.123	0.582	0.189	0	134	137	3
2026-02-11	16:27:49.730	-38.78	-15.155	0.945	1.024068	0.279136	0.194224	0.126	0.591	0.186	0	134	137	3
2026-02-11	16:27:49.750	-41.265	-12.67	-0.035	1.042612	0.219844	0.228872	0.126	0.5835	0.1875	0	134	137	3
2026-02-11	16:27:49.770	-31.5	-8.26	0.42	1.037244	0.111508	0.269132	0.1335	0.585	0.1935	0	134	137	3
2026-02-11	16:27:49.790	-13.335	-4.27	2.205	1.020896	0.084668	0.284992	0.1365	0.582	0.189	0	134	137	3
2026-02-11	16:27:49.810	-3.885	0.175	3.745	1.025044	0.061	0.31964	0.126	0.5835	0.1935	0	124	135	2
2026-02-11	16:27:49.830	-8.89	6.475	5.67	1.007232	0.001952	0.33306	0.1245	0.582	0.192	0	124	135	2
2026-02-11	16:27:49.850	-9.695	11.55	7.14	1.001132	-0.01586	0.314272	0.1275	0.5805	0.1965	0	124	135	2
2026-02-11	16:27:49.870	-4.795	12.635	5.67	0.9821	0.033184	0.255712	0.1185	0.5865	0.177	0	124	135	2
2026-02-11	16:27:49.890	2.8	10.36	1.925	0.992592	0.10614	0.214476	0.1215	0.585	0.1815	0	124	135	2
2026-02-11	16:27:49.910	-3.535	8.12	-3.395	0.996252	0.150304	0.183976	0.1245	0.585	0.186	0	124	135	2
2026-02-11	16:27:49.930	-14.315	7.07	-8.715	0.99552	0.164456	0.166652	0.1245	0.585	0.186	0	124	135	2
2026-02-11	16:27:49.950	-18.725	7.56	-11.515	0.992104	0.157624	0.165188	0.12	0.5805	0.1875	0	124	135	2
2026-02-11	16:27:49.970	-18.34	8.575	-12.985	0.986248	0.153232	0.163968	0.123	0.579	0.18	0	124	135	2
2026-02-11	16:27:49.990	-14.49	9.8	-13.685	0.981368	0.155916	0.157624	0.1305	0.5775	0.177	0	124	135	2
2026-02-11	16:27:50.010	-9.1	10.815	-14.175	0.976732	0.164212	0.157624	0.1215	0.5775	0.183	0	118	147	3
2026-02-11	16:27:50.030	-3.08	11.165	-14.63	0.966484	0.1769	0.144936	0.1215	0.5715	0.177	0	118	147	3
2026-02-11	16:27:50.050	3.08	10.605	-15.155	0.958188	0.1891	0.138836	0.123	0.5715	0.171	0	118	147	3
2026-02-11	16:27:50.070	7.63	9.345	-15.785	0.962336	0.205448	0.132492	0.1245	0.576	0.1725	0	118	147	3
2026-02-11	16:27:50.090	9.065	7.84	-16.03	0.9638	0.216428	0.128832	0.1245	0.5625	0.18	0	118	147	3
2026-02-11	16:27:50.110	7.07	6.23	-16.205	0.958188	0.229116	0.126636	0.1215	0.57	0.171	0	118	147	3
2026-02-11	16:27:50.130	0.105	3.465	-16.275	0.965996	0.222284	0.128344	0.1185	0.5775	0.1635	0	118	147	3
2026-02-11	16:27:50.150	-3.745	1.54	-16.31	0.96868	0.20618	0.134932	0.117	0.5655	0.171	0	118	147	3
2026-02-11	16:27:50.170	-6.265	-0.245	-16.38	0.97478	0.192272	0.14884	0.129	0.5595	0.1695	0	118	147	3
2026-02-11	16:27:50.190	-8.19	-1.715	-16.31	0.977708	0.176656	0.164456	0.126	0.564	0.171	0	118	147	3
2026-02-11	16:27:50.210	-8.575	-2.975	-15.89	0.978928	0.158844	0.176412	0.123	0.5595	0.168	0	114	158	3
2026-02-11	16:27:50.230	-7.14	-3.99	-15.225	0.983076	0.143228	0.2013	0.1245	0.564	0.174	0	114	158	3
2026-02-11	16:27:50.250	-5.915	-4.55	-13.93	0.995276	0.121756	0.217404	0.1215	0.5535	0.1665	0	114	158	3
2026-02-11	16:27:50.270	-5.04	-4.76	-12.355	0.993812	0.123952	0.2318	0.123	0.546	0.165	0	114	158	3
2026-02-11	16:27:50.290	-6.545	-4.48	-10.675	1.006744	0.090524	0.234972	0.1275	0.5535	0.174	0	114	158	3
2026-02-11	16:27:50.310	-7.91	-4.305	-9.135	0.987712	0.099308	0.23058	0.126	0.5505	0.171	0	114	158	3
2026-02-11	16:27:50.330	-9.03	-4.97	-7	0.986248	0.10248	0.217404	0.1215	0.5475	0.171	0	114	158	3
2026-02-11	16:27:50.350	-12.18	-4.69	-3.605	0.993568	0.089548	0.20252	0.12	0.549	0.1755	0	114	158	3
2026-02-11	16:27:50.370	-10.01	-4.375	-2.205	0.98698	0.11468	0.194224	0.1245	0.5475	0.171	0	114	158	3
2026-02-11	16:27:50.390	-6.965	-3.92	-0.805	0.97722	0.125416	0.186416	0.1365	0.549	0.171	0	114	158	3
2026-02-11	16:27:48.410	-60.725	-12.635	4.445	0.966972	0.275232	0.166652	0.1305	0.5415	0.1755	0	279	142	3
2026-02-11	16:27:48.430	-59.395	-14.385	4.655	0.982588	0.265228	0.160064	0.1305	0.5415	0.1755	0	279	142	3
2026-02-11	16:27:48.450	-55.335	-14.245	4.48	0.99308	0.266936	0.161772	0.1395	0.5385	0.177	0	279	142	3
2026-02-11	16:27:48.470	-52.29	-13.09	3.71	0.990884	0.259616	0.169092	0.126	0.531	0.174	0	279	142	3
2026-02-11	16:27:48.490	-50.155	-11.34	2.135	0.975756	0.254736	0.1708	0.1365	0.531	0.1755	0	279	142	3
2026-02-11	16:27:48.510	-49.525	-9.66	1.75	0.975756	0.232288	0.173728	0.1395	0.528	0.1725	0	279	142	3
2026-02-11	16:27:48.530	-48.405	-7.665	1.155	0.970876	0.220088	0.172264	0.1335	0.531	0.174	0	279	142	3
2026-02-11	16:27:48.550	-47.145	-6.195	1.015	0.973072	0.202276	0.164944	0.1305	0.534	0.1785	0	279	142	3
2026-02-11	16:27:48.570	-42.385	-5.005	0.875	0.985028	0.188856	0.152988	0.126	0.531	0.1755	0	279	142	3
2026-02-11	16:27:48.590	-33.705	-4.06	0.245	0.996496	0.183488	0.14762	0.129	0.5265	0.1755	0	279	142	3
2026-02-11	16:27:58.610	4.13	-0.945	10.78	0.957944	0.259372	0.152256	0.1275	0.549	0.1815	0	386	108	2
2026-02-11	16:27:58.630	3.465	-1.4	11.2	0.962336	0.267912	0.150304	0.129	0.549	0.18	0	386	108	2
2026-02-11	16:27:58.650	2.8	-1.82	11.165	0.968924	0.276208	0.14884	0.1275	0.5535	0.1815	0	386	108	2
2026-02-11	16:27:58.670	1.925	-2.17	10.465	0.969412	0.289628	0.149084	0.129	0.5595	0.1815	0	386	108	2
2026-02-11	16:27:58.690	-0.455	-2.625	8.995	0.960628	0.283284	0.158844	0.1305	0.552	0.1815	0	386	108	2
2026-02-11	16:27:58.710	-2.17	-2.94	7.21	0.96502	0.289384	0.154696	0.1305	0.555	0.183	0	386	108	2
2026-02-11	16:27:58.730	-3.045	-3.185	5.775	0.958432	0.280356	0.158356	0.1335	0.564	0.1785	0	386	108	2
2026-02-11	16:27:58.750	-3.325	-3.29	4.165	0.959652	0.28426	0.159332	0.1275	0.5625	0.1755	0	386	108	2
2026-02-11	16:27:58.770	-3.85	-3.185	2.38	0.969168	0.28182	0.163724	0.1275	0.5595	0.18	0	386	108	2
2026-02-11	16:27:58.790	-4.2	-2.975	0.56	0.971364	0.284504	0.165676	0.1335	0.561	0.183	0	386	108	2
2026-02-11	16:27:58.810	-4.795	-2.625	-1.295	0.971852	0.279868	0.163236	0.132	0.5595	0.1785	0	392	120	2
2026-02-11	16:27:58.830	-5.95	-2.38	-3.255	0.974048	0.276696	0.164456	0.1275	0.5625	0.1755	0	392	120	2
2026-02-11	16:27:58.850	-6.965	-2.065	-5.215	0.97234	0.270352	0.16104	0.132	0.5655	0.1785	0	392	120	2
2026-02-11	16:27:58.870	-7.63	-2.03	-7.105	0.974292	0.26352	0.163236	0.132	0.5595	0.1815	0	392	120	2
2026-02-11	16:27:58.890	-8.4	-1.54	-8.715	0.972096	0.257176	0.16348	0.129	0.5535	0.1785	0	392	120	2
2026-02-11	16:27:58.910	-9.8	-0.665	-10.325	0.975512	0.248636	0.158844	0.129	0.552	0.177	0	392	120	2
2026-02-11	16:27:58.930	-9.87	-0.105	-10.745	0.969412	0.235704	0.159332	0.129	0.552	0.177	0	392	120	2
2026-02-11	16:27:58.950	-8.925	0.315	-10.64	0.975512	0.234484	0.155428	0.132	0.5535	0.18	0	392	120	2
2026-02-11	16:27:58.970	-8.015	0.7	-10.185	0.972096	0.230092	0.153476	0.1305	0.555	0.1815	0	392	120	2
2026-02-11	16:27:58.990	-7.385	0.875	-9.415	0.97112	0.232044	0.145668	0.1275	0.5565	0.1785	0	392	120	2
2026-02-11	16:27:59.010	-7.105	0.945	-8.47	0.973804	0.232044	0.137372	0.1305	0.555	0.1785	0	376	129	3
2026-02-11	16:27:59.030	-6.965	0.735	-7.42	0.97112	0.236192	0.132736	0.132	0.5535	0.177	0	376	129	3
2026-02-11	16:27:59.050	-7.42	0.385	-6.335	0.975024	0.234728	0.13542	0.132	0.5505	0.174	0	376	129	3
2026-02-11	16:27:59.070	-8.295	-0.035	-5.25	0.971852	0.233996	0.132736	0.1335	0.5475	0.1755	0	376	129	3
2026-02-11	16:27:59.090	-8.995	-0.7	-4.48	0.97112	0.235948	0.130296	0.1365	0.5445	0.1815	0	376	129	3
2026-02-11	16:27:59.110	-9.625	-1.435	-3.815	0.972828	0.235216	0.126148	0.1395	0.543	0.183	0	376	129	3
2026-02-11	16:27:59.130	-10.955	-2.485	-3.255	0.971364	0.234972	0.131272	0.1395	0.543	0.183	0	376	129	3
2026-02-11	16:27:59.150	-11.655	-2.975	-3.115	0.975512	0.235216	0.131272	0.1335	0.543	0.18	0	376	129	3
2026-02-11	16:27:59.170	-11.9	-3.325	-2.87	0.97478	0.232044	0.13176	0.129	0.5445	0.18	0	376	129	3
2026-02-11	16:27:59.190	-11.585	-3.43	-2.485	0.97722	0.2318	0.134688	0.132	0.543	0.1815	0	376	129	3
2026-02-11	16:27:59.210	-10.85	-3.255	-2.03	0.982832	0.22204	0.137616	0.135	0.5445	0.1815	0	345	135	3
2026-02-11	16:27:59.230	-9.73	-3.01	-1.575	0.981612	0.22448	0.137372	0.132	0.5415	0.1845	0	345	135	3
2026-02-11	16:27:59.250	-8.26	-2.59	-1.33	0.982344	0.223992	0.137616	0.1305	0.543	0.1845	0	345	135	3
2026-02-11	16:27:59.270	-6.475	-2.17	-1.19	0.97478	0.221552	0.133956	0.132	0.5445	0.1815	0	345	135	3
2026-02-11	16:27:59.290	-5.18	-1.995	-1.26	0.97478	0.225212	0.1342	0.129	0.537	0.174	0	345	135	3
2026-02-11	16:27:59.310	-4.585	-1.995	-1.225	0.96746	0.222772	0.134444	0.135	0.534	0.174	0	345	135	3
2026-02-11	16:27:59.330	-4.445	-2.275	-0.945	0.965752	0.22326	0.132736	0.1425	0.537	0.1785	0	345	135	3
2026-02-11	16:27:59.350	-4.095	-2.555	-0.385	0.968192	0.221552	0.138348	0.135	0.54	0.18	0	345	135	3
2026-02-11	16:27:59.370	-3.36	-2.59	0.105	0.970144	0.222528	0.137128	0.129	0.546	0.1845	0	345	135	3
2026-02-11	16:27:59.390	-2.59	-2.59	0.525	0.970388	0.225944	0.138836	0.132	0.543	0.1845	0	345	135	3
2026-02-11	16:27:59.410	-2.03	-2.45	0.84	0.970876	0.220088	0.140544	0.132	0.54	0.1845	0	306	137	3
2026-02-11	16:27:59.430	-1.4	-2.415	0.98	0.970388	0.227652	0.148108	0.129	0.5415	0.183	0	306	137	3
2026-02-11	16:27:59.450	-0.945	-2.45	1.05	0.973072	0.225212	0.148108	0.1275	0.54	0.1845	0	306	137	3
2026-02-11	16:27:59.470	-0.525	-2.45	1.19	0.972584	0.229604	0.15372	0.132	0.537	0.1845	0	306	137	3
2026-02-11	16:27:59.490	-0.175	-2.205	1.225	0.972828	0.231556	0.155916	0.1335	0.5385	0.1815	0	306	137	3
2026-02-11	16:27:59.510	-0.07	-1.785	1.26	0.970876	0.23424	0.158844	0.132	0.5355	0.1815	0	306	137	3
2026-02-11	16:27:59.530	0.035	-1.155	1.12	0.973072	0.235948	0.161772	0.132	0.531	0.183	0	306	137	3
2026-02-11	16:27:59.550	0.945	0	0.63	0.97234	0.234972	0.157868	0.135	0.534	0.1845	0	306	137	3
2026-02-11	16:27:59.570	1.96	0.84	0.28	0.975024	0.231068	0.156404	0.132	0.537	0.183	0	306	137	3
2026-02-11	16:27:59.590	3.15	1.505	-0.035	0.974292	0.232288	0.1525	0.135	0.537	0.18	0	306	137	3
2026-02-11	16:27:59.610	4.305	1.995	-0.28	0.977464	0.2318	0.144692	0.132	0.537	0.1845	0	266	139	3
2026-02-11	16:27:59.630	5.25	2.345	-0.49	0.97844	0.229116	0.1403	0.129	0.54	0.189	0	266	139	3
2026-02-11	16:27:59.650	6.37	2.45	-0.595	0.97722	0.232776	0.130052	0.1305	0.5355	0.186	0	266	139	3
2026-02-11	16:27:59.670	6.965	2.275	-0.525	0.976732	0.233996	0.13298	0.132	0.5385	0.186	0	266	139	3
2026-02-11	16:27:59.690	7	1.995	-0.42	0.970876	0.238144	0.130784	0.135	0.54	0.1845	0	266	139	3
2026-02-11	16:27:59.710	6.615	1.505	-0.49	0.973316	0.23546	0.125172	0.135	0.5385	0.183	0	266	139	3
2026-02-11	16:27:59.730	6.37	1.05	-0.56	0.968192	0.230824	0.128344	0.135	0.543	0.186	0	266	139	3
2026-02-11	16:27:59.750	6.3	0.595	-0.595	0.964288	0.2318	0.1342	0.135	0.5475	0.1845	0	266	139	3
2026-02-11	16:27:59.770	6.79	0.245	-0.245	0.968192	0.229116	0.133712	0.135	0.5475	0.1845	0	266	139	3
2026-02-11	16:27:59.790	7.21	0.105	0.105	0.966728	0.226676	0.138836	0.132	0.543	0.1815	0	266	139	3
2026-02-11	16:27:59.810	7.63	-0.035	0.63	0.967216	0.227408	0.14396	0.1245	0.543	0.183	0	227	140	2
2026-02-11	16:27:59.830	7.84	-0.105	1.085	0.970388	0.236436	0.146888	0.1245	0.543	0.186	0	227	140	2
2026-02-11	16:27:59.850	7.7	-0.21	1.33	0.972584	0.239852	0.151036	0.129	0.5415	0.186	0	227	140	2
2026-02-11	16:27:59.870	7.175	-0.245	1.4	0.970144	0.24278	0.153232	0.129	0.5415	0.1905	0	227	140	2
2026-02-11	16:27:59.890	6.79	-0.28	1.26	0.973072	0.24522	0.158112	0.129	0.5415	0.1935	0	227	140	2
2026-02-11	16:27:59.910	6.195	-0.175	1.12	0.975024	0.250344	0.161528	0.1335	0.5385	0.189	0	227	140	2
2026-02-11	16:27:59.930	5.495	0.035	0.77	0.97356	0.248392	0.161772	0.135	0.537	0.186	0	227	140	2
2026-02-11	16:27:59.950	4.585	0.175	0.455	0.97478	0.2501	0.16104	0.132	0.5415	0.1845	0	227	140	2
2026-02-11	16:27:59.970	3.535	0.42	0.315	0.970144	0.247172	0.163724	0.126	0.5445	0.1875	0	227	140	2
2026-02-11	16:27:59.990	2.345	0.595	0.14	0.970876	0.246928	0.156404	0.129	0.5445	0.1875	0	227	140	2
2026-02-11	16:28:00.010	1.26	0.595	0.07	0.968924	0.24644	0.1525	0.132	0.546	0.186	0	192	142	2
2026-02-11	16:28:00.030	0.7	0.665	0.035	0.966728	0.240584	0.148352	0.129	0.5415	0.186	0	192	142	2
2026-02-11	16:28:00.050	0.595	0.665	0.14	0.973316	0.236436	0.15006	0.1245	0.5385	0.1875	0	192	142	2
2026-02-11	16:28:00.070	0.63	0.63	0.21	0.972584	0.237412	0.14396	0.1245	0.5445	0.186	0	192	142	2
2026-02-11	16:28:00.090	0.63	0.595	0.14	0.972096	0.23912	0.14152	0.1275	0.543	0.186	0	192	142	2
2026-02-11	16:28:00.110	0.84	0.49	0.035	0.969168	0.238632	0.139812	0.129	0.54	0.1875	0	192	142	2
2026-02-11	16:28:00.130	0.98	0.245	-0.175	0.97234	0.237168	0.142496	0.132	0.5385	0.1875	0	192	142	2
2026-02-11	16:28:00.150	0.98	0.105	-0.42	0.970388	0.242048	0.142984	0.135	0.537	0.1845	0	192	142	2
2026-02-11	16:28:00.170	0.7	0	-0.63	0.964776	0.244732	0.14152	0.132	0.546	0.1875	0	192	142	2
2026-02-11	16:28:00.190	0.14	-0.07	-0.735	0.96746	0.244488	0.151036	0.1335	0.5415	0.195	0	192	142	2
2026-02-11	16:28:00.210	-0.28	-0.105	-0.665	0.968924	0.247416	0.152744	0.1305	0.5445	0.192	0	162	144	2
2026-02-11	16:28:00.230	-0.77	-0.07	-0.735	0.96868	0.246928	0.155184	0.1245	0.546	0.1905	0	162	144	2
2026-02-11	16:28:00.250	-1.4	-0.035	-0.7	0.967948	0.248148	0.15738	0.1245	0.546	0.1875	0	162	144	2
2026-02-11	16:28:00.270	-2.275	0	-0.77	0.9699	0.251564	0.15616	0.129	0.546	0.183	0	162	144	2
2026-02-11	16:28:00.290	-3.535	0.035	-1.015	0.966728	0.245952	0.156404	0.1305	0.546	0.1815	0	162	144	2
2026-02-11	16:28:00.310	-4.69	0	-1.26	0.9699	0.244	0.152744	0.129	0.546	0.1815	0	162	144	2
2026-02-11	16:28:00.330	-5.285	-0.035	-1.54	0.968436	0.235216	0.149572	0.1305	0.546	0.1815	0	162	144	2
2026-02-11	16:28:00.350	-5.215	-0.07	-1.855	0.970632	0.232532	0.149816	0.1305	0.5415	0.1845	0	162	144	2
2026-02-11	16:28:00.370	-4.585	-0.14	-2.135	0.97234	0.236436	0.154696	0.129	0.537	0.189	0	162	144	2
2026-02-11	16:28:00.390	-3.78	-0.07	-2.345	0.979172	0.241804	0.146156	0.129	0.546	0.183	0	162	144	2
2026-02-11	16:28:00.410	-3.29	0.245	-2.66	0.976976	0.239364	0.146156	0.129	0.546	0.183	0	137	146	2
2026-02-11	16:28:00.430	-3.01	0.56	-2.905	0.97844	0.236924	0.140788	0.129	0.5445	0.186	0	137	146	2
2026-02-11	16:28:00.450	-2.485	0.91	-3.15	0.973804	0.237656	0.138836	0.1335	0.543	0.189	0	137	146	2
2026-02-11	16:28:00.470	-2.065	1.05	-3.325	0.968192	0.230092	0.13542	0.138	0.5415	0.186	0	137	146	2
2026-02-11	16:28:00.490	-1.4	1.225	-3.43	0.967948	0.2318	0.133468	0.138	0.5415	0.18	0	137	146	2
2026-02-11	16:28:00.510	-0.595	1.365	-3.36	0.972096	0.229116	0.130784	0.1365	0.543	0.18	0	137	146	2
2026-02-11	16:28:00.530	-0.175	1.33	-3.115	0.970876	0.22936	0.126636	0.129	0.543	0.18	0	137	146	2
2026-02-11	16:28:00.550	-0.035	1.05	-2.695	0.96624	0.227408	0.130052	0.129	0.5385	0.183	0	137	146	2
2026-02-11	16:28:00.570	0	0.63	-2.45	0.969412	0.229116	0.124928	0.135	0.5355	0.1875	0	137	146	2
2026-02-11	16:28:00.590	-0.07	0.07	-2.205	0.965508	0.223504	0.12932	0.135	0.5385	0.183	0	137	146	2
2026-02-11	16:28:00.610	0.035	-0.665	-1.995	0.967704	0.225944	0.128832	0.1425	0.537	0.189	0	116	146	2
2026-02-11	16:28:00.630	-0.07	-1.225	-1.645	0.968924	0.22814	0.128344	0.1365	0.534	0.186	0	116	146	2
2026-02-11	16:28:00.650	-0.315	-1.61	-1.19	0.976732	0.223748	0.133224	0.1305	0.5355	0.18	0	116	146	2
2026-02-11	16:28:00.670	-0.14	-1.68	-0.595	0.979416	0.217404	0.133956	0.1335	0.5415	0.183	0	116	146	2
2026-02-11	16:28:00.690	0.315	-1.715	-0.07	0.983076	0.220088	0.130296	0.1365	0.5415	0.1845	0	116	146	2
2026-02-11	16:28:00.710	0.805	-1.505	0.245	0.981612	0.223992	0.134688	0.1335	0.537	0.1815	0	116	146	2
2026-02-11	16:28:00.730	1.505	-1.19	0.35	0.976	0.225456	0.13054	0.135	0.531	0.186	0	116	146	2
2026-02-11	16:28:00.750	2.45	-0.875	0.245	0.976488	0.224236	0.13054	0.1335	0.5355	0.1875	0	116	146	2
2026-02-11	16:28:00.770	3.57	-0.49	0.28	0.970388	0.22326	0.127124	0.129	0.5385	0.183	0	116	146	2
2026-02-11	16:28:00.790	4.76	-0.21	0.455	0.967704	0.221796	0.12688	0.1275	0.537	0.183	0	116	146	2
2026-02-11	16:28:00.810	5.705	-0.105	0.945	0.977464	0.225212	0.121024	0.1305	0.549	0.189	0	99	144	2
2026-02-11	16:28:00.830	5.88	-0.385	2.24	0.976732	0.229116	0.121268	0.129	0.54	0.1875	0	99	144	2
2026-02-11	16:28:00.850	5.425	-0.98	3.01	0.976	0.235948	0.11956	0.132	0.5415	0.186	0	99	144	2
2026-02-11	16:28:00.870	4.585	-1.75	3.5	0.969656	0.236436	0.121512	0.132	0.543	0.183	0	99	144	2
2026-02-11	16:28:00.890	3.64	-2.555	3.745	0.969168	0.243756	0.122488	0.129	0.546	0.1875	0	99	144	2
2026-02-11	16:28:00.910	2.765	-3.255	3.815	0.967948	0.243756	0.131272	0.132	0.549	0.1875	0	99	144	2
2026-02-11	16:28:00.930	2.485	-3.535	3.815	0.96746	0.246196	0.13908	0.135	0.5445	0.1875	0	99	144	2
2026-02-11	16:28:00.950	2.94	-3.57	3.815	0.967948	0.252052	0.14396	0.1305	0.537	0.186	0	99	144	2
2026-02-11	16:28:00.970	2.975	-3.15	3.605	0.97234	0.260104	0.152988	0.126	0.5445	0.1815	0	99	144	2
2026-02-11	16:28:00.990	2.73	-2.59	3.22	0.973072	0.261324	0.160552	0.1275	0.555	0.183	0	99	144	2
2026-02-11	16:28:01.010	2.52	-2.065	2.73	0.972828	0.2623	0.162504	0.129	0.549	0.186	0	86	142	2
2026-02-11	16:28:01.030	2.1	-1.47	2.17	0.976244	0.264984	0.165188	0.132	0.552	0.1935	0	86	142	2
2026-02-11	16:28:01.050	1.575	-0.21	1.295	0.975756	0.262544	0.165188	0.132	0.552	0.1935	0	86	142	2
2026-02-11	16:28:01.070	1.26	0.7	0.455	0.980148	0.26596	0.155672	0.1365	0.552	0.189	0	86	142	2
2026-02-11	16:28:01.090	0.805	1.575	-0.455	0.976244	0.261324	0.153964	0.135	0.5475	0.186	0	86	142	2
2026-02-11	16:28:01.110	-0.175	2.17	-1.295	0.975024	0.250588	0.149328	0.126	0.5475	0.1905	0	86	142	2
2026-02-11	16:28:01.130	-0.105	2.59	-2.03	0.97356	0.243756	0.136152	0.126	0.549	0.1905	0	86	142	2
2026-02-11	16:28:01.150	1.645	2.8	-2.66	0.973316	0.243268	0.131516	0.1275	0.546	0.189	0	86	142	2
2026-02-11	16:28:01.170	3.08	2.94	-3.185	0.97478	0.250832	0.132004	0.1245	0.5475	0.1905	0	86	142	2
2026-02-11	16:28:01.190	2.66	3.045	-3.5	0.979172	0.24888	0.123464	0.129	0.5505	0.1875	0	86	142	2
2026-02-11	16:28:01.210	1.505	2.905	-3.5	0.973072	0.246196	0.124928	0.1365	0.5505	0.186	0	75	141	2
2026-02-11	16:28:01.230	0.98	2.52	-3.395	0.968436	0.238632	0.120292	0.1275	0.543	0.195	0	75	141	2
2026-02-11	16:28:01.250	0.7	1.715	-3.22	0.967704	0.241072	0.115656	0.138	0.555	0.186	0	75	141	2
2026-02-11	16:28:01.270	0.105	0.735	-2.87	0.972584	0.24034	0.1159	0.135	0.552	0.1875	0	75	141	2
2026-02-11	16:28:01.290	-1.05	-0.105	-2.38	0.96624	0.238144	0.116388	0.1335	0.5475	0.189	0	75	141	2
2026-02-11	16:28:01.310	-2.485	-1.085	-1.75	0.965264	0.23668	0.121024	0.132	0.549	0.189	0	75	141	2
2026-02-11	16:28:01.330	-3.92	-2.03	-0.91	0.965752	0.239364	0.122732	0.132	0.5475	0.189	0	75	141	2
2026-02-11	16:28:01.350	-5.46	-2.835	0	0.954528	0.238144	0.130784	0.1335	0.546	0.1935	0	75	141	2
2026-02-11	16:28:01.370	-6.685	-3.395	0.91	0.961604	0.243268	0.133224	0.132	0.5445	0.1935	0	75	141	2
2026-02-11	16:28:01.390	-7.245	-3.64	1.75	0.965752	0.2501	0.134932	0.132	0.5415	0.189	0	75	141	2
2026-02-11	16:28:01.410	-7.63	-3.815	2.485	0.964776	0.255224	0.138836	0.1335	0.543	0.189	0	66	140	2
2026-02-11	16:28:01.430	-8.015	-3.955	2.87	0.967216	0.258396	0.140788	0.1365	0.546	0.186	0	66	140	2
2026-02-11	16:28:01.450	-8.645	-3.99	2.73	0.972828	0.26474	0.145424	0.132	0.543	0.1815	0	66	140	2
2026-02-11	16:28:01.470	-9.625	-3.71	2.03	0.97478	0.267668	0.147132	0.129	0.5445	0.1875	0	66	140	2
2026-02-11	16:28:01.490	-10.15	-3.115	0.945	0.974048	0.264984	0.147864	0.132	0.543	0.189	0	66	140	2
2026-02-11	16:28:01.510	-10.395	-2.485	0.035	0.974536	0.267912	0.149816	0.135	0.543	0.189	0	66	140	2
2026-02-11	16:28:01.530	-10.5	-1.68	-0.735	0.977464	0.264984	0.153476	0.1395	0.5415	0.189	0	66	140	2
2026-02-11	16:28:01.550	-10.22	-0.875	-1.33	0.976732	0.261812	0.148596	0.135	0.5415	0.1935	0	66	140	2
2026-02-11	16:28:01.570	-9.31	0	-1.855	0.980392	0.260104	0.149572	0.1335	0.5445	0.1935	0	66	140	2
2026-02-11	16:28:01.590	-8.295	0.84	-2.485	0.9821	0.258884	0.145668	0.141	0.5475	0.1905	0	66	140	2
2026-02-11	16:28:01.610	-7.455	1.575	-3.185	0.981612	0.2623	0.140544	0.1395	0.5475	0.1905	0	59	139	3
2026-02-11	16:28:01.630	-6.86	2.24	-4.025	0.980636	0.257908	0.138104	0.1305	0.531	0.1935	0	59	139	3
2026-02-11	16:28:01.650	-6.37	2.8	-4.795	0.979904	0.254004	0.138348	0.1425	0.543	0.1815	0	59	139	3
2026-02-11	16:28:01.670	-5.6	3.325	-5.6	0.97478	0.247416	0.132492	0.135	0.54	0.1845	0	59	139	3
2026-02-11	16:28:01.690	-4.235	3.815	-6.405	0.97722	0.246684	0.124928	0.135	0.54	0.1845	0	59	139	3
2026-02-11	16:28:01.710	-3.71	3.92	-6.685	0.978684	0.237168	0.128588	0.138	0.543	0.1845	0	59	139	3
2026-02-11	16:28:01.730	-3.43	3.71	-6.825	0.970632	0.2379	0.118828	0.1365	0.5385	0.1845	0	59	139	3
2026-02-11	16:28:01.750	-3.15	3.255	-6.72	0.973072	0.23302	0.118584	0.132	0.5325	0.186	0	59	139	3
2026-02-11	16:28:01.770	-2.695	2.765	-6.37	0.97112	0.226188	0.116876	0.1365	0.528	0.186	0	59	139	3
2026-02-11	16:28:01.790	-2.485	2.24	-5.67	0.968436	0.2257	0.116632	0.138	0.5295	0.183	0	59	139	3
2026-02-11	16:28:01.810	-2.625	1.75	-4.585	0.964776	0.221064	0.119072	0.138	0.531	0.1815	0	53	138	3
2026-02-11	16:28:01.830	-2.695	1.33	-3.36	0.968924	0.217648	0.120292	0.1395	0.5295	0.1845	0	53	138	3
2026-02-11	16:28:01.850	-2.275	0.875	-2.03	0.964532	0.218868	0.119804	0.1395	0.5355	0.1785	0	53	138	3
2026-02-11	16:28:01.870	-1.61	0.42	-0.735	0.966728	0.218136	0.123464	0.1455	0.5355	0.18	0	53	138	3
2026-02-11	16:28:01.890	-1.085	-0.14	0.63	0.965508	0.227164	0.123952	0.1335	0.534	0.174	0	53	138	3
2026-02-11	16:28:01.910	-0.63	-0.7	1.645	0.97234	0.229604	0.128588	0.1335	0.534	0.174	0	53	138	3
2026-02-11	16:28:01.930	-0.21	-1.085	2.205	0.9699	0.233996	0.128832	0.1365	0.531	0.1755	0	53	138	3
2026-02-11	16:28:01.950	0.175	-1.47	2.52	0.970144	0.237656	0.13176	0.1395	0.5325	0.1785	0	53	138	3
2026-02-11	16:28:01.970	0.175	-1.82	2.73	0.971364	0.241316	0.1342	0.1395	0.534	0.18	0	53	138	3
2026-02-11	16:28:01.990	0.07	-2.17	2.905	0.969168	0.24034	0.135908	0.132	0.5355	0.1815	0	53	138	3
2026-02-11	16:28:02.010	-0.07	-2.695	3.115	0.9699	0.246196	0.137128	0.126	0.54	0.1815	0	48	137	3
2026-02-11	16:28:02.030	-0.245	-2.94	3.15	0.965752	0.24522	0.144204	0.1395	0.5385	0.1875	0	48	137	3
2026-02-11	16:28:02.050	-0.665	-3.185	3.22	0.968192	0.246928	0.145912	0.135	0.5295	0.183	0	48	137	3
2026-02-11	16:28:02.070	-1.085	-3.36	3.29	0.965264	0.2501	0.152256	0.129	0.5415	0.1815	0	48	137	3
2026-02-11	16:28:02.090	-1.505	-3.43	3.325	0.968436	0.25132	0.15372	0.1425	0.5355	0.1845	0	48	137	3
2026-02-11	16:28:02.110	-1.995	-3.325	3.255	0.970144	0.258152	0.160552	0.132	0.5385	0.195	0	48	137	3
2026-02-11	16:28:02.130	-2.485	-3.115	3.115	0.972828	0.2562	0.163236	0.1335	0.534	0.1875	0	48	137	3
2026-02-11	16:28:02.150	-2.905	-2.8	2.905	0.96868	0.256688	0.16714	0.135	0.534	0.18	0	48	137	3
2026-02-11	16:28:02.170	-3.01	-2.205	2.52	0.970632	0.255712	0.167628	0.132	0.537	0.18	0	48	137	3
2026-02-11	16:28:02.190	-2.625	-1.365	1.925	0.977464	0.258152	0.16836	0.1335	0.5355	0.1815	0	48	137	3
2026-02-11	16:28:02.210	-1.96	-0.42	1.19	0.976244	0.256688	0.165432	0.1365	0.537	0.1845	0	44	137	3
2026-02-11	16:28:02.230	-1.155	0.56	0.21	0.973804	0.255956	0.171288	0.1395	0.5385	0.186	0	44	137	3
2026-02-11	16:28:02.250	-0.175	1.47	-0.945	0.976732	0.25376	0.166164	0.132	0.543	0.186	0	44	137	3
2026-02-11	16:28:02.270	1.085	2.275	-2.17	0.979904	0.253272	0.16104	0.1395	0.54	0.18	0	44	137	3
2026-02-11	16:28:02.290	1.89	2.835	-3.255	0.976732	0.251808	0.156648	0.1335	0.5415	0.189	0	44	137	3
2026-02-11	16:28:02.310	2.065	3.15	-4.235	0.969656	0.247172	0.154452	0.1305	0.537	0.1845	0	44	137	3
2026-02-11	16:28:02.330	1.085	3.08	-5.425	0.968436	0.245464	0.146156	0.1305	0.537	0.1845	0	44	137	3
2026-02-11	16:28:02.350	0.35	2.94	-5.88	0.969656	0.236924	0.145912	0.135	0.54	0.1815	0	44	137	3
2026-02-11	16:28:02.370	0.07	2.835	-6.055	0.973316	0.230336	0.145424	0.138	0.543	0.177	0	44	137	3
2026-02-11	16:28:02.390	0.175	2.8	-5.985	0.970388	0.227652	0.14274	0.1365	0.534	0.1785	0	44	137	3
2026-02-11	16:28:02.410	0.63	2.695	-5.775	0.969412	0.219844	0.143472	0.1365	0.531	0.183	0	40	141	3
2026-02-11	16:28:02.430	0.98	2.485	-5.285	0.965508	0.217648	0.14396	0.135	0.5355	0.1815	0	40	141	3
2026-02-11	16:28:02.450	1.19	2.345	-4.62	0.96502	0.209596	0.138592	0.138	0.537	0.183	0	40	141	3
2026-02-11	16:28:02.470	1.47	2.205	-3.815	0.971608	0.213256	0.137372	0.1335	0.5445	0.18	0	40	141	3
2026-02-11	16:28:02.490	1.995	2.065	-2.87	0.965752	0.213012	0.135176	0.132	0.5355	0.18	0	40	141	3
2026-02-11	16:28:02.510	2.66	1.82	-1.925	0.973316	0.212768	0.13664	0.1335	0.5265	0.1815	0	40	141	3
2026-02-11	16:28:02.530	3.605	1.575	-1.015	0.969412	0.211792	0.134932	0.135	0.534	0.1875	0	40	141	3
2026-02-11	16:28:02.550	4.305	1.05	-0.35	0.968924	0.215696	0.129808	0.135	0.534	0.1875	0	40	141	3
2026-02-11	16:28:02.570	4.48	0.455	0.07	0.969656	0.221308	0.132736	0.135	0.537	0.186	0	40	141	3
2026-02-11	16:28:02.590	4.41	-0.21	0.455	0.969656	0.221064	0.137616	0.1365	0.54	0.183	0	40	141	3
2026-02-11	16:28:02.610	4.235	-0.91	0.77	0.96624	0.223504	0.137128	0.141	0.5385	0.1815	0	37	143	3
2026-02-11	16:28:02.630	3.85	-1.575	1.19	0.967216	0.227408	0.1403	0.1395	0.5325	0.1845	0	37	143	3
2026-02-11	16:28:02.650	3.395	-2.1	1.61	0.968924	0.2318	0.143472	0.1335	0.528	0.1845	0	37	143	3
2026-02-11	16:28:02.670	2.905	-2.38	2.135	0.968192	0.2318	0.149572	0.1425	0.534	0.1785	0	37	143	3
2026-02-11	16:28:02.690	2.52	-2.52	2.555	0.965264	0.233508	0.15494	0.135	0.5295	0.18	0	37	143	3
2026-02-11	16:28:02.710	2.87	-2.485	2.66	0.96624	0.233264	0.15982	0.135	0.5355	0.1875	0	37	143	3
2026-02-11	16:28:02.730	3.815	-2.275	2.66	0.969412	0.23912	0.16348	0.1365	0.5295	0.1755	0	37	143	3
2026-02-11	16:28:02.750	4.095	-1.47	2.38	0.971364	0.246196	0.166164	0.144	0.534	0.186	0	37	143	3
2026-02-11	16:28:02.770	3.15	-0.735	1.925	0.970632	0.250344	0.16836	0.141	0.537	0.186	0	37	143	3
2026-02-11	16:28:02.790	2.59	-0.42	1.47	0.975268	0.241072	0.161284	0.1305	0.537	0.186	0	37	143	3
2026-02-11	16:28:02.810	2.94	-0.14	1.12	0.980148	0.236436	0.155428	0.129	0.531	0.186	0	34	145	3
2026-02-11	16:28:02.830	4.34	0.14	0.77	0.980636	0.233264	0.150792	0.1365	0.534	0.1815	0	34	145	3
2026-02-11	16:28:02.850	5.495	0.525	0.315	0.982588	0.234728	0.14518	0.1395	0.5385	0.1785	0	34	145	3
2026-02-11	16:28:02.870	5.6	0.98	-0.14	0.976488	0.235948	0.141276	0.138	0.54	0.1845	0	34	145	3
2026-02-11	16:28:02.890	5.145	1.505	-0.28	0.978196	0.2257	0.133712	0.1335	0.54	0.174	0	34	145	3
2026-02-11	16:28:02.910	5.18	1.89	-0.105	0.972584	0.223504	0.129564	0.126	0.5355	0.189	0	34	145	3
2026-02-11	16:28:02.930	5.775	2.17	0.245	0.975756	0.2196	0.126392	0.144	0.543	0.186	0	34	145	3
2026-02-11	16:28:02.950	6.86	2.45	0.875	0.976732	0.222284	0.122488	0.129	0.543	0.1815	0	34	145	3
2026-02-11	16:28:02.970	8.785	2.52	1.925	0.975756	0.221552	0.109556	0.1275	0.543	0.189	0	34	145	3
2026-02-11	16:28:02.990	9.73	2.1	2.415	0.9699	0.227896	0.106628	0.132	0.5385	0.1875	0	34	145	3
2026-02-11	16:28:03.010	9.73	1.085	2.905	0.965996	0.227896	0.099796	0.1365	0.54	0.189	0	32	145	3
2026-02-11	16:28:03.030	8.225	-0.315	3.535	0.962092	0.235948	0.10248	0.129	0.5445	0.1875	0	32	145	3
2026-02-11	16:28:03.050	5.565	-2.065	4.515	0.955992	0.237168	0.105164	0.129	0.543	0.186	0	32	145	3
2026-02-11	16:28:03.070	2.52	-5.005	5.88	0.956724	0.247416	0.111508	0.1335	0.5445	0.1875	0	32	145	3
2026-02-11	16:28:03.090	-0.56	-7.07	7.42	0.96746	0.249612	0.1342	0.1305	0.546	0.189	0	32	145	3
2026-02-11	16:28:03.110	-2.73	-6.965	8.47	0.962336	0.242292	0.142496	0.1335	0.5505	0.186	0	32	145	3
2026-02-11	16:28:03.130	-1.47	-6.58	9.135	0.975756	0.262544	0.173972	0.1365	0.552	0.1845	0	32	145	3
2026-02-11	16:28:03.150	0.315	-5.67	9.03	0.969656	0.267424	0.181292	0.138	0.5445	0.183	0	32	145	3
2026-02-11	16:28:03.170	-0.91	-3.5	7.84	0.975268	0.280112	0.177388	0.1305	0.552	0.1905	0	32	145	3
2026-02-11	16:28:03.190	-6.265	0.56	5.425	0.979416	0.274256	0.197152	0.1305	0.552	0.1905	0	32	145	3
2026-02-11	16:28:03.210	-7.21	2.66	1.89	0.995764	0.276696	0.168604	0.1305	0.5505	0.1905	0	30	144	3
2026-02-11	16:28:03.230	-3.64	6.195	-3.815	1.00406	0.294264	0.174704	0.135	0.5505	0.1905	0	30	144	3
2026-02-11	16:28:03.250	3.955	10.85	-10.85	1.021628	0.380152	0.216916	0.1365	0.552	0.1905	0	30	144	3
2026-02-11	16:28:03.270	14.035	16.52	-21.035	1.043832	0.397476	0.242536	0.135	0.5535	0.189	0	30	144	3
2026-02-11	16:28:03.290	26.25	21.91	-33.67	1.083116	0.484828	0.275476	0.1335	0.552	0.1845	0	30	144	3
2026-02-11	16:28:03.310	35.42	27.475	-50.085	1.086044	0.54656	0.264496	0.129	0.5445	0.1845	0	30	144	3
2026-02-11	16:28:03.330	38.01	30.24	-71.89	1.13338	0.637084	0.291824	0.1275	0.546	0.177	0	30	144	3
2026-02-11	16:28:03.350	26.53	33.355	-97.44	1.172908	0.713456	0.305976	0.129	0.5295	0.171	0	30	144	3
2026-02-11	16:28:03.370	19.46	38.045	-126.56	1.220976	0.727608	0.2928	0.129	0.531	0.171	0	30	144	3
2026-02-11	16:28:03.390	13.86	45.08	-155.96	1.15778	0.72834	0.265228	0.1365	0.5115	0.1635	0	30	144	3
2026-02-11	16:28:03.410	3.78	48.265	-171.885	1.065792	0.68198	0.264984	0.1455	0.4905	0.1605	0	32	153	3
2026-02-11	16:28:03.430	-4.305	49.385	-169.925	0.925004	0.562908	0.26108	0.156	0.4605	0.156	0	32	153	3
2026-02-11	16:28:03.450	-16.8	47.845	-157.85	0.74542	0.442372	0.2379	0.165	0.4425	0.1485	0	32	153	3
2026-02-11	16:28:03.470	-22.61	42.7	-139.44	0.621468	0.353556	0.193248	0.171	0.432	0.1455	0	32	153	3
2026-02-11	16:28:03.490	-23.45	35.315	-119.14	0.570472	0.315492	0.191784	0.1815	0.4155	0.1365	0	32	153	3
2026-02-11	16:28:03.510	-23.73	29.4	-99.365	0.524844	0.294264	0.172752	0.183	0.399	0.1335	0	32	153	3
2026-02-11	16:28:03.530	-19.81	23.975	-80.465	0.521184	0.359412	0.169824	0.201	0.3825	0.129	0	32	153	3
2026-02-11	16:28:03.550	-19.11	19.075	-62.895	0.566568	0.40626	0.16958	0.2115	0.3795	0.1215	0	32	153	3
2026-02-11	16:28:03.570	-21.385	15.05	-46.865	0.596824	0.418216	0.188612	0.2145	0.378	0.12	0	32	153	3
2026-02-11	16:28:03.590	-26.495	10.465	-33.04	0.63684	0.429684	0.20374	0.219	0.3615	0.1125	0	32	153	3
2026-02-11	16:28:03.610	-33.495	4.165	-12.81	0.677344	0.44164	0.207156	0.21	0.3525	0.1095	0	43	169	3
2026-02-11	16:28:03.630	-36.365	0.91	-0.21	0.700524	0.449936	0.21106	0.2145	0.354	0.105	0	43	169	3
2026-02-11	16:28:03.650	-33.81	-2.31	10.71	0.711992	0.452376	0.219844	0.222	0.357	0.102	0	43	169	3
2026-02-11	16:28:03.670	-28.21	-5.285	19.705	0.721752	0.44652	0.217892	0.2175	0.357	0.1005	0	43	169	3
2026-02-11	16:28:03.690	-18.48	-8.05	27.86	0.728584	0.453352	0.227164	0.213	0.357	0.0975	0	43	169	3
2026-02-11	16:28:03.710	-9.485	-10.815	35.56	0.723704	0.45018	0.221308	0.2115	0.3555	0.102	0	43	169	3
2026-02-11	16:28:03.730	-4.83	-14.455	43.89	0.713456	0.43554	0.21472	0.204	0.3555	0.096	0	43	169	3
2026-02-11	16:28:03.750	1.925	-18.795	53.935	0.715652	0.411384	0.21838	0.207	0.3615	0.1035	0	43	169	3
2026-02-11	16:28:03.770	13.65	-24.325	65.94	0.708332	0.389912	0.223504	0.201	0.369	0.102	0	43	169	3
2026-02-11	16:28:03.790	25.445	-31.955	79.24	0.707844	0.36112	0.207644	0.1995	0.3765	0.1065	0	43	169	3
2026-02-11	16:28:03.810	30.485	-40.425	97.405	0.7564	0.33916	0.190076	0.192	0.387	0.111	0	59	183	3
2026-02-11	16:28:03.830	25.27	-44.905	115.675	0.82716	0.293776	0.16226	0.192	0.387	0.111	0	59	183	3
2026-02-11	16:28:03.850	17.255	-46.06	128.31	0.886696	0.272548	0.13298	0.177	0.4065	0.1245	0	59	183	3
2026-02-11	16:28:03.870	11.97	-47.005	138.95	0.95648	0.248392	0.116632	0.1635	0.438	0.141	0	59	183	3
2026-02-11	16:28:03.890	13.09	-47.53	148.435	1.046028	0.242292	0.124196	0.165	0.4485	0.144	0	59	183	3
2026-02-11	16:28:03.910	18.865	-47.145	155.295	1.135576	0.244732	0.134932	0.1575	0.465	0.144	0	59	183	3
2026-02-11	16:28:03.930	26.39	-45.395	159.565	1.228052	0.2867	0.162016	0.1395	0.4755	0.15	0	59	183	3
2026-02-11	16:28:03.950	30.135	-41.37	158.62	1.275632	0.311344	0.167872	0.1425	0.5025	0.1575	0	59	183	3
2026-02-11	16:28:03.970	34.195	-36.26	151.41	1.271972	0.338184	0.12566	0.1425	0.525	0.1605	0	59	183	3
2026-02-11	16:28:03.990	31.955	-32.515	139.055	1.252208	0.371612	0.154696	0.129	0.543	0.165	0	59	183	3
2026-02-11	16:28:04.010	23.415	-29.54	122.43	1.199748	0.363804	0.193248	0.1305	0.555	0.1755	0	77	188	3
2026-02-11	16:28:04.030	12.705	-27.405	97.37	1.150216	0.3416	0.213256	0.126	0.5775	0.1815	0	77	188	3
2026-02-11	16:28:04.050	8.855	-25.06	68.985	1.07116	0.366244	0.233752	0.132	0.597	0.1845	0	77	188	3
2026-02-11	16:28:04.070	1.295	-24.605	50.33	1.06872	0.301584	0.220332	0.129	0.6135	0.1905	0	77	188	3
2026-02-11	16:28:04.090	1.4	-21.805	33.25	1.038464	0.291824	0.216184	0.126	0.6135	0.1995	0	77	188	3
2026-02-11	16:28:04.110	3.255	-19.075	19.46	1.027484	0.32086	0.205692	0.132	0.615	0.207	0	77	188	3
2026-02-11	16:28:04.130	1.75	-14.945	7.105	1.028704	0.292556	0.20496	0.135	0.627	0.1995	0	77	188	3
2026-02-11	16:28:04.150	0.385	-10.15	-1.925	1.000888	0.292312	0.207156	0.1305	0.6255	0.2055	0	77	188	3
2026-02-11	16:28:04.170	-0.385	-6.16	-7.245	0.986736	0.287188	0.211792	0.1275	0.6285	0.21	0	77	188	3
2026-02-11	16:28:04.190	-0.945	-2.625	-10.045	0.96868	0.288896	0.210816	0.135	0.609	0.2145	0	77	188	3
2026-02-11	16:28:04.210	-1.05	0.7	-11.55	0.961604	0.288408	0.207156	0.129	0.6225	0.2115	0	96	189	3
2026-02-11	16:28:04.230	-0.84	3.535	-12.39	0.953796	0.278648	0.198372	0.1275	0.627	0.2025	0	96	189	3
2026-02-11	16:28:04.250	0.595	6.405	-13.265	0.9638	0.280112	0.178364	0.1305	0.615	0.2145	0	96	189	3
2026-02-11	16:28:04.270	-0.035	7.42	-14.28	0.97234	0.274988	0.169336	0.129	0.612	0.207	0	96	189	3
2026-02-11	16:28:04.290	-1.33	7.805	-15.89	0.984052	0.266692	0.165432	0.129	0.6135	0.1995	0	96	189	3
2026-02-11	16:28:04.310	-2.695	7.63	-18.305	0.99552	0.269132	0.165676	0.1305	0.618	0.1995	0	96	189	3
2026-02-11	16:28:04.330	-4.375	7.56	-21.315	1.008696	0.259372	0.16958	0.1275	0.612	0.2085	0	96	189	3
2026-02-11	16:28:04.350	-5.81	7.7	-24.64	1.013088	0.255956	0.177388	0.132	0.612	0.201	0	96	189	3
2026-02-11	16:28:04.370	-6.79	7.945	-28.455	1.016504	0.250344	0.180072	0.1305	0.6075	0.1995	0	96	189	3
2026-02-11	16:28:04.390	-7	8.925	-32.585	1.018456	0.241072	0.170312	0.1305	0.5985	0.201	0	96	189	3
2026-02-11	16:28:04.410	-6.44	10.43	-37.03	1.018944	0.238144	0.166896	0.1305	0.5925	0.198	0	109	189	3
2026-02-11	16:28:04.430	-5.04	12.495	-42	1.023092	0.231556	0.166652	0.1275	0.582	0.1935	0	109	189	3
2026-02-11	16:28:04.450	-2.975	15.68	-47.775	1.027484	0.217404	0.162504	0.1305	0.591	0.1905	0	109	189	3
2026-02-11	16:28:04.470	-0.245	19.005	-53.025	1.02846	0.210572	0.152256	0.1305	0.591	0.1905	0	109	189	3
2026-02-11	16:28:04.490	2.38	20.965	-56.455	1.030412	0.194224	0.148108	0.1275	0.579	0.1875	0	109	189	3
2026-02-11	16:28:04.510	5.39	22.47	-59.08	1.028704	0.194468	0.14274	0.126	0.567	0.1845	0	109	189	3
2026-02-11	16:28:04.530	8.505	23.38	-60.83	1.028216	0.196664	0.135176	0.135	0.5685	0.1875	0	109	189	3
2026-02-11	16:28:04.550	10.395	23.835	-61.495	1.01138	0.2013	0.124196	0.129	0.546	0.1815	0	109	189	3
2026-02-11	16:28:04.570	11.27	23.52	-61.355	1.000156	0.183244	0.10736	0.1275	0.5535	0.1695	0	109	189	3
2026-02-11	16:28:04.590	12.635	22.19	-60.305	0.982344	0.18788	0.094916	0.135	0.5355	0.1755	0	109	189	3
2026-02-11	16:28:04.610	12.53	19.845	-58.135	0.967704	0.183732	0.08418	0.1335	0.534	0.165	0	117	184	3
2026-02-11	16:28:04.630	12.11	16.555	-54.005	0.955016	0.177632	0.0732	0.1365	0.519	0.168	0	117	184	3
2026-02-11	16:28:04.650	11.97	12.425	-48.265	0.939888	0.189344	0.06954	0.1395	0.51	0.162	0	117	184	3
2026-02-11	16:28:04.670	7.14	6.09	-38.115	0.918416	0.190564	0.086132	0.1455	0.5145	0.165	0	117	184	3
2026-02-11	16:28:04.690	-0.49	-0.49	-25.445	0.890356	0.198372	0.113948	0.144	0.5085	0.1605	0	117	184	3
2026-02-11	16:28:04.710	-7.385	-5.145	-13.86	0.873032	0.206668	0.138104	0.1425	0.504	0.156	0	117	184	3
2026-02-11	16:28:04.730	-12.075	-8.435	-1.89	0.872788	0.215208	0.145424	0.1365	0.504	0.162	0	117	184	3
2026-02-11	16:28:04.750	-14.805	-10.43	9.66	0.880596	0.214232	0.15616	0.1395	0.498	0.1635	0	117	184	3
2026-02-11	16:28:04.770	-15.75	-10.71	19.845	0.896212	0.210084	0.163236	0.144	0.492	0.165	0	117	184	3
2026-02-11	16:28:04.790	-14.035	-9.59	28.175	0.924272	0.210572	0.167872	0.1455	0.5025	0.174	0	117	184	3
2026-02-11	16:28:04.810	-10.57	-7.175	34.86	0.956968	0.206424	0.169336	0.1425	0.501	0.1635	0	120	173	3
2026-02-11	16:28:04.830	-5.005	-3.745	39.865	0.969412	0.198616	0.15982	0.1365	0.51	0.165	0	120	173	3
2026-02-11	16:28:04.850	2.625	-0.49	43.33	1.006012	0.202276	0.156892	0.1395	0.516	0.174	0	120	173	3
2026-02-11	16:28:04.870	11.41	3.255	44.625	1.02114	0.209108	0.15616	0.1335	0.5115	0.1665	0	120	173	3
2026-02-11	16:28:04.890	29.05	9.1	40.915	1.022848	0.20618	0.114924	0.126	0.519	0.168	0	120	173	3
2026-02-11	16:28:04.910	40.67	10.92	35.49	1.031388	0.209108	0.091012	0.1305	0.525	0.1695	0	120	173	3
2026-02-11	16:28:04.930	49.63	10.99	29.155	1.03334	0.210572	0.071492	0.135	0.5325	0.1725	0	120	173	3
2026-02-11	16:28:04.950	55.405	8.54	23.24	1.038708	0.222284	0.063684	0.12	0.537	0.1755	0	120	173	3
2026-02-11	16:28:04.970	54.18	3.885	19.775	1.031632	0.251564	0.091256	0.1245	0.5445	0.1635	0	120	173	3
2026-02-11	16:28:04.990	43.47	-1.05	20.09	1.00406	0.283772	0.146156	0.1215	0.546	0.159	0	120	173	3
2026-02-11	16:28:05.010	28	-5.075	22.54	0.973316	0.308416	0.193004	0.129	0.5535	0.1725	0	119	162	3
2026-02-11	16:28:05.030	13.825	-6.965	25.97	0.9455	0.303536	0.195688	0.132	0.555	0.1755	0	119	162	3
2026-02-11	16:28:05.050	3.255	-7.28	29.68	0.934764	0.2928	0.19642	0.129	0.561	0.1725	0	119	162	3
2026-02-11	16:28:05.070	-3.605	-5.6	32.13	0.935496	0.27694	0.196908	0.1275	0.5625	0.18	0	119	162	3
2026-02-11	16:28:05.090	-4.095	-0.945	32.585	0.965996	0.232532	0.188856	0.1245	0.5655	0.177	0	119	162	3
2026-02-11	16:28:05.110	6.02	5.46	30.94	0.988688	0.203252	0.169336	0.1245	0.5655	0.177	0	119	162	3
2026-02-11	16:28:05.130	21.945	10.675	28.35	1.014064	0.18666	0.164944	0.1305	0.579	0.177	0	119	162	3
2026-02-11	16:28:05.150	41.02	16.24	24.605	1.009672	0.201056	0.150548	0.129	0.5805	0.1725	0	119	162	3
2026-02-11	16:28:05.170	58.87	20.79	19.215	0.989664	0.22082	0.124684	0.1215	0.582	0.18	0	119	162	3
2026-02-11	16:28:05.190	73.115	22.785	12.53	0.988444	0.23058	0.08906	0.12	0.591	0.1755	0	119	162	3
2026-02-11	16:28:05.210	83.475	22.26	5.285	1.016992	0.240096	0.059536	0.129	0.594	0.168	0	116	155	3
2026-02-11	16:28:05.230	86.975	18.2	0.105	1.056276	0.247904	0.05002	0.1155	0.6045	0.1725	0	116	155	3
2026-02-11	16:28:05.250	80.92	11.69	-1.645	1.052616	0.2745	0.08418	0.12	0.609	0.1575	0	116	155	3
2026-02-11	16:28:05.270	66.605	4.83	0	1.017968	0.314272	0.144448	0.114	0.6045	0.171	0	116	155	3
2026-02-11	16:28:05.290	46.76	-1.085	4.13	0.959896	0.342088	0.202276	0.1275	0.606	0.1635	0	116	155	3
2026-02-11	16:28:05.310	19.425	-6.685	10.71	0.914268	0.35868	0.2196	0.1185	0.6015	0.168	0	116	155	3
2026-02-11	16:28:05.330	-6.37	-9.94	15.855	0.895236	0.330376	0.220576	0.1185	0.6015	0.168	0	116	155	3
2026-02-11	16:28:05.350	-22.82	-10.395	16.765	0.90402	0.311344	0.232532	0.123	0.6135	0.1635	0	116	155	3
2026-02-11	16:28:05.370	-34.65	-8.19	15.61	0.920368	0.278404	0.2379	0.12	0.618	0.1635	0	116	155	3
2026-02-11	16:28:05.390	-36.925	-3.885	12.985	0.944036	0.243512	0.235704	0.117	0.6195	0.171	0	116	155	3
2026-02-11	16:28:05.410	-29.715	2.66	9.03	0.968924	0.203984	0.221796	0.1215	0.621	0.1725	0	112	153	3
2026-02-11	16:28:05.430	-12.425	10.15	3.955	0.991128	0.17202	0.199836	0.114	0.621	0.1635	0	112	153	3
2026-02-11	16:28:05.450	11.69	17.92	-1.4	1.001864	0.14884	0.175436	0.117	0.6225	0.1695	0	112	153	3
2026-02-11	16:28:05.470	39.235	25.2	-6.93	0.977464	0.152256	0.150792	0.12	0.615	0.1635	0	112	153	3
2026-02-11	16:28:05.490	63.77	30.275	-12.95	0.9577	0.16958	0.136396	0.1125	0.6195	0.162	0	112	153	3
2026-02-11	16:28:05.510	81.69	33.425	-19.6	0.950868	0.18422	0.125416	0.1155	0.615	0.162	0	112	153	3
2026-02-11	16:28:05.530	99.365	33.075	-25.935	0.996252	0.207888	0.071004	0.1215	0.615	0.1515	0	112	153	3
2026-02-11	16:28:05.550	103.425	29.715	-26.215	1.031876	0.242292	0.058072	0.1185	0.618	0.141	0	112	153	3
2026-02-11	16:28:05.570	95.935	25.305	-24.115	1.006256	0.277184	0.084424	0.1125	0.621	0.141	0	112	153	3
2026-02-11	16:28:05.590	79.94	19.285	-19.18	0.962336	0.301584	0.12688	0.114	0.6225	0.141	0	112	153	3
2026-02-11	16:28:05.610	61.775	12.53	-12.775	0.923296	0.3233	0.157624	0.117	0.615	0.1395	0	107	155	3
2026-02-11	16:28:05.630	41.37	6.055	-6.615	0.888648	0.318176	0.177144	0.111	0.612	0.1335	0	107	155	3
2026-02-11	16:28:05.650	20.055	0.7	-0.63	0.883524	0.279624	0.183488	0.1125	0.615	0.1335	0	107	155	3
2026-02-11	16:28:05.670	4.41	-3.36	4.55	0.900116	0.250588	0.172752	0.1155	0.621	0.135	0	107	155	3
2026-02-11	16:28:05.690	-3.15	-5.985	8.575	0.962092	0.232288	0.170556	0.117	0.6195	0.126	0	107	155	3
2026-02-11	16:28:05.710	-2.94	-5.04	11.76	0.996984	0.205448	0.20374	0.1155	0.618	0.141	0	107	155	3
2026-02-11	16:28:05.730	13.965	-0.525	13.86	1.020164	0.16226	0.256688	0.123	0.612	0.1365	0	107	155	3
2026-02-11	16:28:05.750	40.32	6.615	12.775	1.01504	0.17446	0.24888	0.1095	0.621	0.135	0	107	155	3
2026-02-11	16:28:05.770	55.615	12.25	10.045	1.00162	0.235704	0.196908	0.111	0.6225	0.138	0	107	155	3
2026-02-11	16:28:05.790	53.795	15.855	7.245	0.977952	0.272792	0.156892	0.114	0.627	0.135	0	107	155	3
2026-02-11	16:28:05.810	43.015	16.345	4.795	0.964532	0.251076	0.133956	0.111	0.6345	0.132	0	104	158	3
2026-02-11	16:28:05.830	32.69	13.685	3.045	0.962092	0.254736	0.128588	0.1125	0.6345	0.1245	0	104	158	3
2026-02-11	16:28:05.850	22.995	9.905	2.94	0.964288	0.242536	0.136152	0.1185	0.6255	0.1275	0	104	158	3
2026-02-11	16:28:05.870	16.45	6.405	5.075	0.948672	0.233752	0.1342	0.114	0.627	0.1275	0	104	158	3
2026-02-11	16:28:05.890	13.58	3.08	8.4	0.9272	0.241804	0.12566	0.1185	0.6315	0.1275	0	104	158	3
2026-02-11	16:28:05.910	8.26	-0.56	13.685	0.934276	0.2562	0.12932	0.108	0.63	0.1275	0	104	158	3
2026-02-11	16:28:05.930	-2.555	-2.87	20.545	0.936228	0.276452	0.146644	0.1035	0.636	0.12	0	104	158	3
2026-02-11	16:28:05.950	-19.215	-2.38	28.98	0.920612	0.272792	0.17812	0.1125	0.6465	0.123	0	104	158	3
2026-02-11	16:28:05.970	-30.31	1.4	35.035	0.875472	0.26474	0.197884	0.1125	0.648	0.1275	0	104	158	3
2026-02-11	16:28:05.990	-31.57	5.81	37.66	0.87474	0.238632	0.197884	0.12	0.639	0.1245	0	104	158	3
2026-02-11	16:28:06.010	-25.095	11.27	38.78	0.914268	0.209596	0.177144	0.12	0.6555	0.123	0	100	159	3
2026-02-11	16:28:06.030	-11.165	17.08	39.34	1.00528	0.199836	0.143228	0.1065	0.657	0.132	0	100	159	3
2026-02-11	16:28:06.050	7.175	23.065	39.97	1.119472	0.181536	0.105164	0.1155	0.663	0.1275	0	100	159	3
2026-02-11	16:28:06.070	29.645	27.615	42.49	1.290028	0.185684	0.077836	0.1125	0.6675	0.117	0	100	159	3
2026-02-11	16:28:06.090	53.41	34.755	45.185	1.389336	0.231068	0.054412	0.1215	0.6705	0.1125	0	100	159	3
2026-02-11	16:28:06.110	79.835	41.86	43.96	1.339072	0.196908	0.015616	0.1185	0.675	0.1125	0	100	159	3
2026-02-11	16:28:06.130	110.985	42.385	39.725	1.163636	0.211548	-0.016104	0.117	0.6825	0.108	0	100	159	3
2026-02-11	16:28:06.150	141.68	37.17	30.94	0.971608	0.233996	-0.012932	0.111	0.6975	0.099	0	100	159	3
2026-02-11	16:28:06.170	164.465	22.68	7.455	0.771284	0.25986	0.078812	0.126	0.693	0.0825	0	100	159	3
2026-02-11	16:28:06.190	154.77	10.99	-8.085	0.769576	0.284504	0.126148	0.114	0.6975	0.075	0	100	159	3
2026-02-11	16:28:06.210	125.02	1.155	-20.405	0.833992	0.3599	0.1525	0.117	0.6975	0.0705	0	99	154	3
2026-02-11	16:28:06.230	78.47	-4.34	-29.54	0.93574	0.388448	0.160308	0.1155	0.6975	0.0735	0	99	154	3
2026-02-11	16:28:06.250	30.87	-6.23	-36.225	1.039684	0.365024	0.126636	0.105	0.693	0.06	0	99	154	3
2026-02-11	16:28:06.270	-7.07	-5.39	-40.53	1.099952	0.318176	0.107116	0.1095	0.678	0.066	0	99	154	3
2026-02-11	16:28:06.290	-33.18	-2.835	-42.14	1.109956	0.225944	0.099552	0.1095	0.678	0.0645	0	99	154	3
2026-02-11	16:28:06.310	-43.05	0.91	-42.98	1.073112	0.158356	0.116144	0.108	0.696	0.0645	0	99	154	3
2026-02-11	16:28:06.330	-36.505	4.865	-44.275	1.009672	0.083936	0.13298	0.105	0.672	0.066	0	99	154	3
2026-02-11	16:28:06.350	-13.51	7.455	-44.87	0.951356	0.041724	0.14762	0.1095	0.672	0.072	0	99	154	3
2026-02-11	16:28:06.370	27.685	8.05	-42.28	0.8906	0.033672	0.16836	0.1005	0.6525	0.063	0	99	154	3
2026-02-11	16:28:06.390	66.5	7.91	-37.135	0.884744	0.07076	0.383812	0.1005	0.6525	0.063	0	99	154	3
2026-02-11	16:28:06.410	96.88	19.915	-25.165	0.867664	-0.2806	0.528992	0.108	0.6465	0.0615	0	101	150	3
2026-02-11	16:28:06.430	157.92	28.315	-5.95	0.902312	-0.211792	0.472628	0.096	0.648	0.0555	0	101	150	3
2026-02-11	16:28:06.450	215.6	37.59	6.16	0.925736	0.048556	0.505568	0.096	0.648	0.057	0	101	150	3
2026-02-11	16:28:06.470	228.83	47.355	19.95	0.942084	0.186904	0.513376	0.1035	0.636	0.0465	0	101	150	3
2026-02-11	16:28:06.490	214.375	53.025	34.51	0.911096	0.370148	0.393328	0.0975	0.639	0.0375	0	101	150	3
2026-02-11	16:28:06.510	184.24	52.115	44.975	0.872788	0.496784	0.273036	0.111	0.642	0.0255	0	101	150	3
2026-02-11	16:28:06.530	144.865	47.075	50.435	0.852536	0.528992	0.23546	0.108	0.6495	0.018	0	101	150	3
2026-02-11	16:28:06.550	99.505	40.425	54.145	0.82716	0.497516	0.22814	0.1155	0.6525	0.015	0	101	150	3
2026-02-11	16:28:06.570	44.59	32.305	56.805	0.860344	0.488244	0.21594	0.105	0.657	0.006	0	101	150	3
2026-02-11	16:28:06.590	-8.925	24.675	56.385	0.900848	0.427732	0.198128	0.1125	0.657	-0.006	0	101	150	3
2026-02-11	16:28:06.610	-39.305	20.65	53.305	0.92476	0.346236	0.176656	0.1125	0.657	-0.006	0	110	166	3
2026-02-11	16:28:06.630	-40.285	18.41	49.63	0.938668	0.272792	0.16592	0.1155	0.6705	-0.0045	0	110	166	3
2026-02-11	16:28:06.650	-27.16	16.1	45.71	0.948184	0.272304	0.168604	0.117	0.6885	-0.009	0	110	166	3
2026-02-11	16:28:06.670	-14.875	11.48	42.035	0.946964	0.247904	0.144692	0.1125	0.6885	-0.006	0	110	166	3
2026-02-11	16:28:06.690	-3.92	4.235	38.15	0.950868	0.233752	0.116876	0.117	0.705	-0.012	0	110	166	3
2026-02-11	16:28:06.710	3.57	-3.78	34.93	0.957944	0.2562	0.121512	0.12	0.705	-0.015	0	110	166	3
2026-02-11	16:28:06.730	7.07	-10.955	32.445	0.961848	0.243024	0.141276	0.12	0.705	-0.009	0	110	166	3
2026-02-11	16:28:06.750	14.875	-16.1	29.085	0.946964	0.264252	0.166164	0.1275	0.7155	0	0	110	166	3
2026-02-11	16:28:06.770	18.305	-18.935	25.76	0.924028	0.284992	0.19886	0.126	0.711	-0.003	0	110	166	3
2026-02-11	16:28:06.790	15.715	-20.86	22.54	0.892552	0.269132	0.202276	0.123	0.711	-0.006	0	110	166	3
2026-02-11	16:28:06.810	19.88	-22.4	16.52	0.901336	0.289628	0.24034	0.123	0.711	-0.006	0	120	185	3
2026-02-11	16:28:06.830	18.025	-22.575	13.51	0.978196	0.307684	0.291092	0.123	0.711	-0.006	0	120	185	3
2026-02-11	16:28:06.850	11.585	-21.56	12.11	1.054568	0.310856	0.358436	0.1245	0.723	-0.0015	0	120	185	3
2026-02-11	16:28:06.870	4.725	-17.5	11.375	1.033096	0.320372	0.384788	0.1245	0.726	0.003	0	120	185	3
2026-02-11	16:28:06.890	-0.525	-11.62	9.555	0.953064	0.305976	0.364048	0.1125	0.729	0.0075	0	120	185	3
2026-02-11	16:28:06.910	-1.715	-6.37	5.425	0.878644	0.285724	0.333304	0.1215	0.726	0.0045	0	120	185	3
2026-02-11	16:28:06.930	1.085	-3.08	-1.435	0.853024	0.288652	0.315736	0.117	0.729	0.003	0	120	185	3
2026-02-11	16:28:06.950	-0.28	0.035	-8.61	0.851804	0.25986	0.304024	0.126	0.723	0.0045	0	120	185	3
2026-02-11	16:28:06.970	-7.42	2.905	-14.7	0.897676	0.248148	0.280844	0.114	0.7305	0.0075	0	120	185	3
2026-02-11	16:28:06.990	-13.79	5.95	-20.195	0.962336	0.23546	0.252296	0.1245	0.7185	0	0	120	185	3
2026-02-11	16:28:07.010	-15.855	10.01	-22.925	1.056032	0.204472	0.22204	0.1215	0.7185	0.0015	0	129	203	3
2026-02-11	16:28:07.030	-8.855	13.51	-22.47	1.143872	0.170312	0.213012	0.12	0.72	0.003	0	129	203	3
2026-02-11	16:28:07.050	3.99	16.625	-20.965	1.173884	0.171776	0.213256	0.1185	0.7245	0.012	0	129	203	3
2026-02-11	16:28:07.070	16.73	20.37	-19.6	1.13216	0.183976	0.20252	0.114	0.7155	0.006	0	129	203	3
2026-02-11	16:28:07.090	29.645	23.73	-19.04	1.05652	0.190808	0.19032	0.123	0.7095	0.003	0	129	203	3
2026-02-11	16:28:07.110	40.74	26.04	-19.74	0.9943	0.203984	0.171044	0.126	0.711	-0.0045	0	129	203	3
2026-02-11	16:28:07.130	47.075	27.3	-21.945	0.953796	0.223016	0.15616	0.117	0.7095	-0.003	0	129	203	3
2026-02-11	16:28:07.150	47.67	27.405	-23.835	0.953796	0.22814	0.153476	0.123	0.696	-0.009	0	129	203	3
2026-02-11	16:28:07.170	45.605	26.95	-24.92	0.97722	0.230092	0.147132	0.1215	0.6975	-0.021	0	129	203	3
2026-02-11	16:28:07.190	41.86	26.425	-24.675	0.986248	0.21838	0.126636	0.1185	0.693	-0.0195	0	129	203	3
2026-02-11	16:28:07.210	39.55	25.235	-23.555	0.981612	0.207156	0.105164	0.114	0.69	-0.0285	0	136	214	3
2026-02-11	16:28:07.230	39.76	21.84	-21.385	0.972096	0.217648	0.084912	0.114	0.69	-0.0285	0	136	214	3
2026-02-11	16:28:07.250	39.97	16.8	-19.32	0.953308	0.216428	0.070272	0.114	0.69	-0.0285	0	136	214	3
2026-02-11	16:28:07.270	39.06	11.2	-17.22	0.932812	0.219844	0.066612	0.132	0.6765	-0.036	0	136	214	3
2026-02-11	16:28:07.290	35.315	4.305	-13.755	0.924272	0.230336	0.084668	0.12	0.669	-0.0465	0	136	214	3
2026-02-11	16:28:07.310	27.195	-3.08	-8.54	0.926956	0.246684	0.10858	0.1215	0.663	-0.042	0	136	214	3
2026-02-11	16:28:07.330	14.63	-9.905	-1.855	0.927688	0.258884	0.13664	0.114	0.6735	-0.048	0	136	214	3
2026-02-11	16:28:07.350	0.49	-15.575	5.565	0.9211	0.279136	0.149816	0.1185	0.6645	-0.048	0	136	214	3
2026-02-11	16:28:07.370	-13.685	-19.95	14	0.932324	0.271572	0.162016	0.117	0.666	-0.045	0	136	214	3
2026-02-11	16:28:07.390	-25.235	-22.575	22.26	0.935984	0.25986	0.180316	0.1125	0.6765	-0.039	0	136	214	3
2026-02-11	16:28:07.410	-30.555	-22.89	28.28	0.940376	0.225212	0.230824	0.114	0.6705	-0.033	0	138	208	2
2026-02-11	16:28:07.430	-22.75	-20.72	32.76	0.960872	0.183976	0.2745	0.1155	0.6735	-0.027	0	138	208	2
2026-02-11	16:28:07.450	3.99	-14.14	35.35	0.95648	0.217648	0.278648	0.117	0.678	-0.0225	0	138	208	2
2026-02-11	16:28:07.470	12.18	-9.59	34.51	0.97478	0.280112	0.280356	0.117	0.678	-0.0225	0	138	208	2
2026-02-11	16:28:07.490	3.885	-6.09	31.99	1.009184	0.301828	0.274012	0.1185	0.696	-0.027	0	138	208	2
2026-02-11	16:28:07.510	-5.705	-3.045	28.35	1.06018	0.27816	0.274744	0.1215	0.6945	-0.0225	0	138	208	2
2026-02-11	16:28:07.530	-7.875	0.84	24.29	1.085556	0.27328	0.289628	0.1305	0.705	-0.0165	0	138	208	2
2026-02-11	16:28:07.550	-8.33	7.385	19.425	1.057496	0.259128	0.288164	0.1275	0.702	-0.0195	0	138	208	2
2026-02-11	16:28:07.570	-2.94	14.07	13.79	0.976976	0.226188	0.269132	0.126	0.699	-0.021	0	138	208	2
2026-02-11	16:28:07.590	7.84	17.465	5.32	0.923784	0.21716	0.233508	0.1215	0.708	-0.0225	0	138	208	2
2026-02-11	16:28:07.610	17.85	19.81	-3.08	0.927444	0.222772	0.233752	0.123	0.714	-0.03	0	138	204	3
2026-02-11	16:28:07.630	23.555	22.785	-11.41	0.956968	0.227408	0.225456	0.129	0.7065	-0.0315	0	138	204	3
2026-02-11	16:28:07.650	25.655	25.62	-16.66	1.008208	0.215208	0.211304	0.126	0.7035	-0.0345	0	138	204	3
2026-02-11	16:28:07.670	32.69	30.695	-20.055	1.049932	0.183976	0.175192	0.1245	0.702	-0.0375	0	138	204	3
2026-02-11	16:28:07.690	43.4	33.775	-21.175	1.04066	0.170312	0.148108	0.126	0.7005	-0.045	0	138	204	3
2026-02-11	16:28:07.710	55.545	35.98	-21.49	1.003816	0.180072	0.129564	0.12	0.6975	-0.045	0	138	204	3
2026-02-11	16:28:07.730	64.82	36.26	-21.245	0.945988	0.18666	0.130296	0.132	0.6945	-0.054	0	138	204	3
2026-02-11	16:28:07.750	69.65	34.615	-20.37	0.897676	0.2013	0.116632	0.129	0.678	-0.0675	0	138	204	3
2026-02-11	16:28:07.770	70.805	31.29	-18.97	0.874496	0.20984	0.109312	0.132	0.678	-0.0675	0	138	204	3
2026-02-11	16:28:07.790	67.865	26.845	-15.96	0.863028	0.231068	0.097844	0.132	0.6735	-0.0795	0	138	204	3
2026-02-11	16:28:07.810	61.005	21.28	-11.06	0.871568	0.237656	0.09467199	0.138	0.66	-0.078	0	135	202	3
2026-02-11	16:28:07.830	52.85	15.015	-4.935	0.876692	0.238388	0.104432	0.138	0.6585	-0.078	0	135	202	3
2026-02-11	16:28:07.850	44.625	7.91	1.575	0.87596	0.257176	0.124928	0.1365	0.6585	-0.0825	0	135	202	3
2026-02-11	16:28:07.870	31.15	-2.345	8.715	0.858148	0.187148	0.13176	0.135	0.6555	-0.0885	0	135	202	3
2026-02-11	16:28:07.890	6.755	-14.49	17.08	0.787632	0.19154	0.001708	0.135	0.6525	-0.09	0	135	202	3
2026-02-11	16:28:07.910	-21.07	-35.84	23.555	0.772748	0.310856	-0.025376	0.129	0.6555	-0.0855	0	135	202	3
2026-02-11	16:28:07.930	-31.85	-57.855	27.79	0.850584	0.362828	0.12566	0.141	0.6555	-0.081	0	135	202	3
2026-02-11	16:28:07.950	-24.43	-62.475	32.76	0.904508	0.47824	0.377224	0.1335	0.666	-0.0705	0	135	202	3
2026-02-11	16:28:07.970	-31.325	-57.61	38.535	0.975268	0.290604	0.49898	0.1275	0.669	-0.0705	0	135	202	3
2026-02-11	16:28:07.990	-33.95	-49.385	43.645	0.978196	0.510204	0.532896	0.123	0.681	-0.0585	0	135	202	3
2026-02-11	16:28:08.010	-81.235	-51.765	52.395	0.96136	0.173972	0.254004	0.123	0.681	-0.0585	0	132	197	2
2026-02-11	16:28:08.030	-55.895	-56.805	50.61	1.08214	0.474824	0.446032	0.1245	0.693	-0.0435	0	132	197	2
2026-02-11	16:28:08.050	-54.11	-49.735	54.95	1.054568	0.408456	0.50508	0.1215	0.702	-0.0345	0	132	197	2
2026-02-11	16:28:08.070	-52.675	-43.68	53.095	1.026996	0.525332	0.413336	0.126	0.7065	-0.0285	0	132	197	2
2026-02-11	16:28:08.090	-81.725	-35.315	50.575	1.020408	0.477752	0.379664	0.1305	0.7125	-0.0225	0	132	197	2
2026-02-11	16:28:08.110	-107.1	-28.28	47.845	0.970144	0.373808	0.326716	0.1305	0.7125	-0.0225	0	132	197	2
2026-02-11	16:28:08.130	-121.555	-24.395	40.355	0.976732	0.455792	0.280356	0.123	0.735	0	0	132	197	2
2026-02-11	16:28:08.150	-151.375	-19.075	32.34	1.027728	0.336476	0.27938	0.129	0.75	0.0075	0	132	197	2
2026-02-11	16:28:08.170	-149.555	-10.92	26.04	0.99552	0.338916	0.281332	0.129	0.756	0.027	0	132	197	2
2026-02-11	16:28:08.190	-135.24	-4.725	18.655	1.007476	0.325252	0.244732	0.126	0.765	0.033	0	132	197	2
2026-02-11	16:28:08.210	-116.9	1.505	10.29	1.01504	0.335988	0.236924	0.1305	0.7665	0.039	0	132	210	3
2026-02-11	16:28:08.230	-105.945	8.68	1.435	1.012112	0.261568	0.223992	0.138	0.7665	0.0435	0	132	210	3
2026-02-11	16:28:08.250	-100.765	14.875	-6.23	1.005036	0.173972	0.214232	0.1335	0.7695	0.051	0	132	210	3
2026-02-11	16:28:08.270	-101.605	19.88	-15.155	0.99674	0.113948	0.199592	0.132	0.7695	0.054	0	132	210	3
2026-02-11	16:28:08.290	-104.545	24.185	-21.77	1.0004	0.059292	0.184464	0.1305	0.7695	0.0555	0	132	210	3
2026-02-11	16:28:08.310	-101.535	28.14	-29.54	1.013332	0.001708	0.119072	0.132	0.768	0.054	0	132	210	3
2026-02-11	16:28:08.330	-83.475	29.435	-33.005	1.031632	-0.039528	0.124684	0.129	0.7695	0.06	0	132	210	3
2026-02-11	16:28:08.350	-47.915	31.85	-42.42	1.047004	0.026596	0.113948	0.1275	0.762	0.0555	0	132	210	3
2026-02-11	16:28:08.370	4.025	35.315	-57.33	1.038952	0.065636	0.119804	0.117	0.7605	0.06	0	132	210	3
2026-02-11	16:28:08.390	47.6	34.51	-66.43	1.035048	0.137372	0.112972	0.1215	0.7455	0.0585	0	132	210	3
2026-02-11	16:28:08.410	67.76	31.115	-70.315	1.02114	0.14884	0.08784	0.126	0.7365	0.0435	0	134	221	3
2026-02-11	16:28:08.430	60.725	25.795	-75.285	1.023824	0.238632	0.101992	0.114	0.7305	0.0375	0	134	221	3
2026-02-11	16:28:08.450	32.83	21.07	-79.555	1.01382	0.282796	0.084912	0.1125	0.7215	0.033	0	134	221	3
2026-02-11	16:28:08.470	11.795	15.47	-81.445	0.973804	0.286212	0.081008	0.117	0.702	0.0375	0	134	221	3
2026-02-11	16:28:08.490	-6.055	9.38	-76.265	0.931836	0.235704	0.07564	0.1125	0.6945	0.0345	0	134	221	3
2026-02-11	16:28:08.510	-31.08	-0.28	-67.76	0.897676	0.24034	0.079788	0.1095	0.687	0.033	0	134	221	3
2026-02-11	16:28:08.530	-51.205	-9.485	-59.885	0.87962	0.241804	0.086132	0.1095	0.687	0.033	0	134	221	3
2026-02-11	16:28:08.550	-61.25	-15.575	-52.64	0.865224	0.231556	0.087596	0.0975	0.6645	0.033	0	134	221	3
2026-02-11	16:28:08.570	-67.76	-20.93	-43.96	0.867176	0.224968	0.078812	0.1065	0.663	0.0375	0	134	221	3
2026-02-11	16:28:08.590	-73.71	-25.55	-34.44	0.87108	0.211792	0.072956	0.105	0.663	0.0345	0	134	221	3
2026-02-11	16:28:08.610	-77.98	-29.225	-25.445	0.896944	0.206668	0.08662	0.099	0.6585	0.045	0	138	211	3
2026-02-11	16:28:08.630	-78.33	-31.465	-16.87	0.929152	0.206912	0.096136	0.0945	0.6585	0.0435	0	138	211	3
2026-02-11	16:28:08.650	-76.79	-32.69	-9.135	0.957944	0.217648	0.111752	0.102	0.654	0.051	0	138	211	3
2026-02-11	16:28:08.670	-75.495	-33.075	-1.925	0.990884	0.227896	0.131516	0.096	0.6495	0.06	0	138	211	3
2026-02-11	16:28:08.690	-74.69	-32.06	3.675	1.011624	0.233264	0.149084	0.099	0.6495	0.0585	0	138	211	3
2026-02-11	16:28:08.710	-73.045	-30.1	7.07	1.007232	0.236192	0.145424	0.1065	0.651	0.0645	0	138	211	3
2026-02-11	16:28:08.730	-69.475	-26.6	8.05	0.99796	0.233996	0.14518	0.1095	0.6525	0.072	0	138	211	3
2026-02-11	16:28:08.750	-65.485	-23.485	5.635	0.984784	0.220332	0.126636	0.1095	0.6525	0.072	0	138	211	3
2026-02-11	16:28:08.770	-57.505	-21.315	1.225	0.99064	0.212768	0.086132	0.108	0.654	0.0885	0	138	211	3
2026-02-11	16:28:08.790	-49.945	-20.37	-4.025	1.0065	0.202764	0.062952	0.108	0.6585	0.084	0	138	211	3
2026-02-11	16:28:08.810	-44.73	-21.77	-8.575	1.020164	0.203984	0.064904	0.099	0.6525	0.0915	0	140	188	3
2026-02-11	16:28:08.830	-42.07	-24.71	-11.76	1.028948	0.207644	0.084668	0.111	0.648	0.1035	0	140	188	3
2026-02-11	16:28:08.850	-43.225	-28.735	-12.005	1.026264	0.225456	0.12322	0.1065	0.651	0.1005	0	140	188	3
2026-02-11	16:28:08.870	-47.705	-32.725	-10.185	1.012844	0.256688	0.164944	0.1095	0.6435	0.1035	0	140	188	3
2026-02-11	16:28:08.890	-54.39	-35.805	-7.35	0.988688	0.27572	0.189588	0.1035	0.648	0.1065	0	140	188	3
2026-02-11	16:28:08.910	-61.845	-37.975	-4.13	0.964776	0.295972	0.1891	0.099	0.648	0.1095	0	140	188	3
2026-02-11	16:28:08.930	-70.98	-38.57	-1.155	0.955992	0.290604	0.186416	0.1035	0.6435	0.1125	0	140	188	3
2026-02-11	16:28:08.950	-79.45	-35.35	0.56	0.964044	0.253516	0.233264	0.1065	0.645	0.1155	0	140	188	3
2026-02-11	16:28:08.970	-73.43	-29.54	0.91	0.975756	0.20496	0.267424	0.0975	0.6435	0.1365	0	140	188	3
2026-02-11	16:28:08.990	-63.77	-22.295	0.875	0.987468	0.194712	0.269864	0.102	0.6435	0.135	0	140	188	3
2026-02-11	16:28:09.010	-55.09	-14.945	0.105	0.995032	0.210572	0.27084	0.1185	0.645	0.1335	0	139	171	3
2026-02-11	16:28:09.030	-50.75	-8.505	-1.47	1.016016	0.238876	0.256688	0.111	0.642	0.1335	0	139	171	3
2026-02-11	16:28:09.050	-50.505	-3.045	-3.01	1.02968	0.249124	0.238144	0.114	0.6375	0.1425	0	139	171	3
2026-02-11	16:28:09.070	-50.19	1.575	-4.9	1.035292	0.226432	0.203984	0.108	0.6465	0.1455	0	139	171	3
2026-02-11	16:28:09.090	-41.755	5.355	-8.155	1.030656	0.205692	0.149572	0.0975	0.642	0.147	0	139	171	3
2026-02-11	16:28:09.110	-27.93	8.015	-11.305	1.03456	0.158844	0.110044	0.102	0.636	0.144	0	139	171	3
2026-02-11	16:28:09.130	-11.375	10.15	-14.315	1.027728	0.174216	0.111264	0.1095	0.63	0.144	0	139	171	3
2026-02-11	16:28:09.150	1.855	10.465	-16.275	1.003084	0.198616	0.117364	0.111	0.6315	0.1395	0	139	171	3
2026-02-11	16:28:09.170	6.405	9.695	-15.68	0.984052	0.220576	0.131028	0.111	0.6345	0.1335	0	139	171	3
2026-02-11	16:28:09.190	4.165	8.645	-13.44	0.959408	0.240096	0.142252	0.12	0.633	0.1365	0	139	171	3
2026-02-11	16:28:09.210	-1.995	8.12	-10.535	0.93086	0.250344	0.142496	0.111	0.6225	0.132	0	136	167	3
2026-02-11	16:28:09.230	-8.785	7.84	-7.07	0.910852	0.242292	0.133956	0.1065	0.6195	0.129	0	136	167	3
2026-02-11	16:28:09.250	-14.245	7.945	-3.395	0.899628	0.220576	0.123708	0.096	0.627	0.1395	0	136	167	3
2026-02-11	16:28:09.270	-16.765	8.19	0.7	0.904264	0.20984	0.123464	0.108	0.6135	0.1245	0	136	167	3
2026-02-11	16:28:09.290	-15.225	9.17	4.655	0.926712	0.208132	0.12322	0.1125	0.624	0.1305	0	136	167	3
2026-02-11	16:28:09.310	-10.815	11.06	8.47	0.94794	0.205448	0.122488	0.1125	0.6195	0.132	0	136	167	3
2026-02-11	16:28:09.330	-3.605	13.37	11.62	0.966972	0.20496	0.109556	0.1095	0.615	0.1305	0	136	167	3
2026-02-11	16:28:09.350	6.755	15.295	13.51	0.980392	0.19886	0.083204	0.108	0.6195	0.1275	0	136	167	3
2026-02-11	16:28:09.370	24.29	15.47	14.42	1.005768	0.209108	0.046604	0.1095	0.624	0.1275	0	136	167	3
2026-02-11	16:28:09.390	33.355	12.95	14.63	1.009184	0.221064	0.030256	0.1095	0.624	0.1275	0	136	167	3
2026-02-11	16:28:09.410	39.025	8.295	15.295	1.019432	0.236924	0.029768	0.108	0.627	0.12	0	130	162	3
2026-02-11	16:28:09.430	39.83	2.415	16.765	1.00162	0.26474	0.052216	0.111	0.6315	0.1185	0	130	162	3
2026-02-11	16:28:09.450	33.81	-4.06	18.69	0.975268	0.29036	0.086132	0.1095	0.642	0.123	0	130	162	3
2026-02-11	16:28:09.470	23.66	-10.15	19.95	0.946476	0.311832	0.113948	0.114	0.633	0.12	0	130	162	3
2026-02-11	16:28:09.490	10.22	-15.61	20.86	0.933544	0.321348	0.122244	0.1095	0.636	0.111	0	130	162	3
2026-02-11	16:28:09.510	-4.935	-19.88	21.21	0.930616	0.321836	0.12566	0.114	0.642	0.1185	0	130	162	3
2026-02-11	16:28:09.530	-18.34	-22.82	20.475	0.93574	0.308416	0.137372	0.111	0.645	0.123	0	130	162	3
2026-02-11	16:28:09.550	-28.49	-24.115	18.655	0.94794	0.30012	0.152988	0.111	0.648	0.1245	0	130	162	3
2026-02-11	16:28:09.570	-35.91	-24.255	15.855	0.956968	0.281576	0.155672	0.1125	0.6525	0.126	0	130	162	3
2026-02-11	16:28:09.590	-37.24	-23.275	10.605	0.964776	0.256932	0.158356	0.114	0.6555	0.129	0	130	162	3
2026-02-11	16:28:09.610	-33.145	-21.98	6.86	0.970388	0.238632	0.169092	0.114	0.6435	0.1395	0	124	153	3
2026-02-11	16:28:09.630	-25.62	-19.915	2.8	0.971852	0.22814	0.187636	0.1125	0.6585	0.1425	0	124	153	3
2026-02-11	16:28:09.650	-12.145	-15.995	-1.645	0.965508	0.19642	0.268644	0.1005	0.6495	0.1395	0	124	153	3
2026-02-11	16:28:09.670	11.97	-9.66	-3.92	0.948184	0.110532	0.291824	0.111	0.651	0.1485	0	124	153	3
2026-02-11	16:28:09.690	36.295	-2.835	-5.67	0.934764	0.169092	0.321104	0.111	0.6615	0.1485	0	124	153	3
2026-02-11	16:28:09.710	41.405	7.385	-7.28	0.922564	0.164212	0.373076	0.1125	0.651	0.147	0	124	153	3
2026-02-11	16:28:09.730	38.885	16.17	-7.7	0.903532	0.179096	0.376248	0.111	0.6525	0.147	0	124	153	3
2026-02-11	16:28:09.750	34.965	19.005	-8.54	0.93086	0.177388	0.358192	0.114	0.6555	0.1455	0	124	153	3
2026-02-11	16:28:09.770	39.55	17.395	-11.445	0.970876	0.186172	0.319396	0.117	0.6585	0.1425	0	124	153	3
2026-02-11	16:28:09.790	47.495	13.125	-11.97	1.041636	0.220088	0.305976	0.111	0.6555	0.1335	0	124	153	3
2026-02-11	16:28:09.810	44.52	9.59	-9.38	1.071404	0.257176	0.31476	0.1065	0.651	0.126	0	119	159	3
2026-02-11	16:28:09.830	36.785	8.225	-6.825	1.06018	0.298412	0.305732	0.114	0.6405	0.1305	0	119	159	3
2026-02-11	16:28:09.850	27.09	8.12	-5.39	1.040172	0.317932	0.277428	0.114	0.645	0.126	0	119	159	3
2026-02-11	16:28:09.870	16.415	8.82	-5.425	1.015772	0.338184	0.256444	0.114	0.639	0.135	0	119	159	3
2026-02-11	16:28:09.890	3.605	10.115	-7.21	0.983076	0.354532	0.242536	0.1065	0.6495	0.129	0	119	159	3
2026-02-11	16:28:09.910	-7.525	11.76	-10.92	0.944768	0.348188	0.226188	0.105	0.648	0.1275	0	119	159	3
2026-02-11	16:28:09.930	-15.225	12.67	-15.715	0.9211	0.328424	0.200324	0.108	0.6525	0.123	0	119	159	3
2026-02-11	16:28:09.950	-22.155	12.25	-20.79	0.922564	0.303292	0.183732	0.105	0.648	0.1215	0	119	159	3
2026-02-11	16:28:09.970	-31.465	10.99	-24.43	0.927688	0.274988	0.173728	0.111	0.6405	0.1215	0	119	159	3
2026-02-11	16:28:09.990	-41.755	9.415	-25.69	0.946476	0.241804	0.164212	0.117	0.639	0.126	0	119	159	3
2026-02-11	16:28:10.010	-50.225	6.545	-24.115	0.966972	0.19398	0.15372	0.1155	0.642	0.1275	0	115	179	3
2026-02-11	16:28:10.030	-48.475	4.375	-21.735	0.967216	0.146644	0.150548	0.1155	0.642	0.1275	0	115	179	3
2026-02-11	16:28:10.050	-40.775	1.575	-18.795	0.963068	0.122976	0.15128	0.108	0.618	0.1215	0	115	179	3
2026-02-11	16:28:10.070	-30.415	-1.855	-15.715	0.95038	0.11834	0.166164	0.111	0.6165	0.1155	0	115	179	3
2026-02-11	16:28:10.090	-23.065	-5.775	-11.97	0.943304	0.115412	0.198372	0.1155	0.6165	0.1155	0	115	179	3
2026-02-11	16:28:10.110	-19.215	-9.59	-7.77	0.944036	0.110288	0.240096	0.117	0.627	0.117	0	115	179	3
2026-02-11	16:28:10.130	-14.91	-12.18	-3.78	0.94306	0.118584	0.282552	0.102	0.612	0.1125	0	115	179	3
2026-02-11	16:28:10.150	-8.61	-13.58	-0.525	0.946232	0.148596	0.315736	0.105	0.6105	0.1185	0	115	179	3
2026-02-11	16:28:10.170	-2.975	-14.07	1.75	0.947696	0.186172	0.326472	0.111	0.6075	0.123	0	115	179	3
2026-02-11	16:28:10.190	0.35	-14.315	3.15	0.950868	0.241072	0.324276	0.1095	0.609	0.126	0	115	179	3
2026-02-11	16:28:10.210	-0.595	-14.315	3.85	0.952576	0.289384	0.310368	0.111	0.6135	0.1275	0	113	196	3
2026-02-11	16:28:10.230	-9.835	-14.175	3.01	0.943304	0.335744	0.278404	0.114	0.615	0.126	0	113	196	3
2026-02-11	16:28:10.250	-18.655	-14.28	1.575	0.936716	0.354532	0.261568	0.108	0.6165	0.132	0	113	196	3
2026-02-11	16:28:10.270	-30.31	-14.735	-0.07	0.915976	0.354776	0.238388	0.1125	0.621	0.1365	0	113	196	3
2026-02-11	16:28:10.290	-41.51	-15.785	-1.925	0.896944	0.318908	0.21716	0.1155	0.6105	0.135	0	113	196	3
2026-02-11	16:28:10.310	-49.105	-17.92	-4.06	0.88816	0.309148	0.195932	0.1095	0.603	0.1365	0	113	196	3
2026-02-11	16:28:10.330	-56.7	-20.37	-6.405	0.882304	0.299144	0.187392	0.117	0.618	0.1365	0	113	196	3
2026-02-11	16:28:10.350	-63.735	-22.61	-8.575	0.890844	0.283284	0.189344	0.12	0.6165	0.138	0	113	196	3
2026-02-11	16:28:10.370	-68.495	-23.905	-10.36	0.908168	0.2623	0.198616	0.117	0.6105	0.144	0	113	196	3
2026-02-11	16:28:10.390	-73.605	-24.15	-10.465	0.945744	0.235216	0.21716	0.117	0.6015	0.1455	0	113	196	3
2026-02-11	16:28:10.410	-80.22	-24.01	-8.89	1.010892	0.205692	0.264252	0.123	0.603	0.1485	0	112	210	3
2026-02-11	16:28:10.430	-85.365	-22.505	-4.41	1.086044	0.126392	0.323788	0.12	0.606	0.153	0	112	210	3
2026-02-11	16:28:10.450	-80.885	-19.145	1.47	1.124352	0.0732	0.360632	0.1155	0.606	0.1545	0	112	210	3
2026-02-11	16:28:10.470	-66.15	-14.84	5.635	1.061156	0.065636	0.332328	0.1275	0.6	0.153	0	112	210	3
2026-02-11	16:28:10.490	-49.945	-12.565	7.63	1.005524	0.117608	0.289384	0.12	0.594	0.1605	0	112	210	3
2026-02-11	16:28:10.510	-43.33	-12.11	5.74	0.932324	0.221308	0.2135	0.123	0.5985	0.1605	0	112	210	3
2026-02-11	16:28:10.530	-50.12	-13.335	0.35	0.898896	0.281576	0.188368	0.1215	0.591	0.162	0	112	210	3
2026-02-11	16:28:10.550	-62.265	-13.195	-5.915	0.913536	0.306464	0.18788	0.1215	0.5895	0.162	0	112	210	3
2026-02-11	16:28:10.570	-71.295	-11.445	-10.185	0.923052	0.277428	0.15738	0.1215	0.5895	0.1575	0	112	210	3
2026-02-11	16:28:10.590	-76.265	-9.73	-11.515	0.945988	0.248148	0.113216	0.123	0.582	0.156	0	112	210	3
2026-02-11	16:28:10.610	-76.23	-7.665	-10.605	0.994788	0.232776	0.094916	0.1245	0.5775	0.1575	0	112	220	3
2026-02-11	16:28:10.630	-71.12	-4.2	-7.735	1.024556	0.224236	0.082472	0.126	0.5775	0.1605	0	112	220	3
2026-02-11	16:28:10.650	-54.11	1.75	-1.925	1.05164	0.203252	0.077836	0.1275	0.576	0.1635	0	112	220	3
2026-02-11	16:28:10.670	-39.865	6.02	0.945	1.03456	0.20252	0.088328	0.1275	0.576	0.1635	0	112	220	3
2026-02-11	16:28:10.690	-26.075	9.345	1.995	1.007476	0.21472	0.095648	0.1335	0.5745	0.153	0	112	220	3
2026-02-11	16:28:10.710	-14.665	11.375	1.015	0.971608	0.224968	0.09076799	0.1215	0.576	0.159	0	112	220	3
2026-02-11	16:28:10.730	-5.985	11.97	-1.33	0.956236	0.238144	0.08174	0.1245	0.57	0.15	0	112	220	3
2026-02-11	16:28:10.750	-1.12	11.305	-4.725	0.945744	0.249124	0.073932	0.126	0.5745	0.153	0	112	220	3
2026-02-11	16:28:10.770	0.595	10.185	-8.47	0.941352	0.25132	0.071492	0.126	0.5715	0.1515	0	112	220	3
2026-02-11	16:28:10.790	-0.245	8.61	-12.04	0.946232	0.257176	0.066368	0.126	0.567	0.15	0	112	220	3
2026-02-11	16:28:10.810	-3.045	6.755	-14.315	0.961848	0.25376	0.06222	0.126	0.561	0.15	0	113	211	3
2026-02-11	16:28:10.830	-6.545	4.9	-14.98	0.975756	0.24888	0.056852	0.1275	0.558	0.147	0	113	211	3
2026-02-11	16:28:10.850	-9.555	3.185	-14.56	0.978928	0.241804	0.050752	0.1305	0.561	0.144	0	113	211	3
2026-02-11	16:28:10.870	-10.955	0.28	-12.915	0.97356	0.232044	0.053924	0.132	0.564	0.144	0	113	211	3
2026-02-11	16:28:10.890	-9.59	-1.68	-11.655	0.959164	0.222772	0.053436	0.129	0.5535	0.15	0	113	211	3
2026-02-11	16:28:10.910	-6.895	-3.955	-10.57	0.944036	0.218624	0.053436	0.1245	0.5565	0.147	0	113	211	3
2026-02-11	16:28:10.930	-4.48	-6.685	-9.415	0.938668	0.223992	0.056852	0.1305	0.555	0.147	0	113	211	3
2026-02-11	16:28:10.950	-3.325	-9.59	-8.435	0.93818	0.232776	0.060756	0.1305	0.549	0.1545	0	113	211	3
2026-02-11	16:28:10.970	-3.85	-12.32	-7.21	0.93818	0.238632	0.06344	0.1365	0.5565	0.1515	0	113	211	3
2026-02-11	16:28:10.990	-5.46	-15.295	-5.46	0.952332	0.24034	0.0732	0.1335	0.5535	0.15	0	113	211	3
2026-02-11	16:28:11.010	-7.385	-18.2	-3.465	0.969656	0.244244	0.07442	0.1305	0.549	0.15	0	113	185	2
2026-02-11	16:28:11.030	-8.89	-21.07	-1.47	0.983808	0.240096	0.083448	0.126	0.546	0.153	0	113	185	2
2026-02-11	16:28:11.050	-9.765	-24.01	0.35	0.99796	0.243024	0.090524	0.129	0.5505	0.1575	0	113	185	2
2026-02-11	16:28:11.070	-10.745	-27.65	1.89	0.997228	0.250344	0.100284	0.129	0.552	0.1575	0	113	185	2
2026-02-11	16:28:11.090	-12.32	-31.08	2.205	0.985028	0.25742	0.120048	0.1245	0.549	0.156	0	113	185	2
2026-02-11	16:28:11.110	-14.315	-33.215	1.365	0.967704	0.261568	0.139568	0.1335	0.5445	0.1665	0	113	185	2
2026-02-11	16:28:11.130	-17.5	-34.72	-1.12	0.956968	0.263764	0.15616	0.135	0.5505	0.1665	0	113	185	2
2026-02-11	16:28:11.150	-20.44	-34.755	-3.57	0.977464	0.214964	0.259128	0.1395	0.549	0.1785	0	113	185	2
2026-02-11	16:28:11.170	-16.065	-30.275	-1.785	1.01626	0.041724	0.378444	0.1305	0.5475	0.1785	0	113	185	2
2026-02-11	16:28:11.190	5.18	-23.135	2.1	1.050908	0.01098	0.45872	0.132	0.5475	0.18	0	113	185	2
2026-02-11	16:28:11.210	33.11	-13.055	6.335	1.066524	0.002196	0.479216	0.135	0.5475	0.183	0	113	164	2
2026-02-11	16:28:11.230	56.49	-3.5	11.095	1.058228	0.12078	0.44286	0.1395	0.549	0.1845	0	113	164	2
2026-02-11	16:28:11.250	50.89	4.9	15.295	1.025288	0.286212	0.376492	0.141	0.5535	0.1875	0	113	164	2
2026-02-11	16:28:11.270	24.01	10.29	15.295	0.985516	0.331596	0.30866	0.138	0.555	0.189	0	113	164	2
2026-02-11	16:28:11.290	-2.695	12.39	8.855	0.961604	0.333792	0.240584	0.138	0.552	0.1875	0	113	164	2
2026-02-11	16:28:11.310	-22.4	12.355	2.31	0.948916	0.277428	0.173972	0.138	0.552	0.1875	0	113	164	2
2026-02-11	16:28:11.330	-32.69	11.445	-1.785	0.964288	0.298412	0.142252	0.135	0.5595	0.1935	0	113	164	2
2026-02-11	16:28:11.350	-41.895	10.64	-4.235	0.981612	0.267668	0.1098	0.129	0.5655	0.186	0	113	164	2
2026-02-11	16:28:11.370	-43.715	10.605	-5.355	0.97478	0.250344	0.103456	0.141	0.555	0.1815	0	113	164	2
2026-02-11	16:28:11.390	-38.08	9.73	-4.305	0.977708	0.215452	0.10248	0.138	0.5595	0.174	0	113	164	2
2026-02-11	16:28:11.410	-25.655	8.855	-2.73	0.980148	0.1952	0.103944	0.1365	0.5565	0.174	0	113	168	3
2026-02-11	16:28:11.430	-11.83	8.015	-1.19	0.975756	0.21228	0.114924	0.135	0.5505	0.1815	0	113	168	3
2026-02-11	16:28:11.450	-2.555	7.14	0.35	0.970144	0.237412	0.117608	0.1335	0.552	0.1785	0	113	168	3
2026-02-11	16:28:11.470	1.96	6.23	1.295	0.95648	0.242536	0.113216	0.132	0.552	0.1725	0	113	168	3
2026-02-11	16:28:11.490	3.885	5.285	0.91	0.946476	0.250832	0.108092	0.1335	0.5535	0.168	0	113	168	3
2026-02-11	16:28:11.510	2.73	2.835	-1.715	0.940864	0.257664	0.103944	0.1365	0.5535	0.168	0	113	168	3
2026-02-11	16:28:11.530	-0.035	0.7	-3.885	0.942816	0.262056	0.113948	0.12	0.5535	0.162	0	113	168	3
2026-02-11	16:28:11.550	-4.585	-1.54	-5.495	0.947208	0.261324	0.121024	0.1335	0.5505	0.1725	0	113	168	3
2026-02-11	16:28:11.570	-9.8	-3.465	-6.895	0.955016	0.253272	0.121268	0.132	0.549	0.1755	0	113	168	3
2026-02-11	16:28:11.590	-13.86	-5.25	-7.98	0.96136	0.246684	0.122488	0.1335	0.5595	0.1695	0	113	168	3
2026-02-11	16:28:11.610	-16.345	-6.72	-8.645	0.968924	0.242536	0.130052	0.1305	0.555	0.1695	0	113	171	3
2026-02-11	16:28:11.630	-17.64	-7.98	-8.75	0.979904	0.240096	0.136884	0.1305	0.5475	0.1695	0	113	171	3
2026-02-11	16:28:11.650	-18.655	-8.855	-8.47	0.976244	0.243268	0.143472	0.135	0.543	0.1695	0	113	171	3
2026-02-11	16:28:11.670	-19.425	-9.485	-7.98	0.976	0.238876	0.149572	0.138	0.543	0.1695	0	113	171	3
2026-02-11	16:28:11.690	-19.46	-9.975	-7.595	0.965508	0.235704	0.15372	0.1305	0.543	0.1725	0	113	171	3
2026-02-11	16:28:11.710	-18.76	-10.29	-7.455	0.96502	0.238144	0.165188	0.1335	0.546	0.171	0	113	171	3
2026-02-11	16:28:11.730	-17.71	-9.905	-7.7	0.967216	0.22204	0.185928	0.1425	0.549	0.1695	0	113	171	3
2026-02-11	16:28:11.750	-14.945	-8.89	-7.35	0.974536	0.20618	0.206912	0.141	0.5385	0.171	0	113	171	3
2026-02-11	16:28:11.770	-13.055	-7.035	-6.405	0.975268	0.19886	0.227896	0.138	0.5415	0.174	0	113	171	3
2026-02-11	16:28:11.790	-11.97	-4.76	-5.145	0.980636	0.183	0.240096	0.141	0.5325	0.171	0	113	171	3
2026-02-11	16:28:11.810	-11.235	-2.59	-3.85	0.991372	0.18056	0.244488	0.1365	0.537	0.1785	0	112	170	3
2026-02-11	16:28:11.830	-12.04	-0.665	-2.94	0.996008	0.178852	0.232288	0.135	0.537	0.18	0	112	170	3
2026-02-11	16:28:11.850	-13.615	0.385	-2.555	0.992104	0.183488	0.210328	0.1365	0.534	0.174	0	112	170	3
2026-02-11	16:28:11.870	-14.385	0.49	-3.36	0.996984	0.193736	0.193248	0.1335	0.534	0.1755	0	112	170	3
2026-02-11	16:28:11.890	-12.285	0.525	-4.935	0.9943	0.2013	0.179828	0.135	0.5295	0.1785	0	112	170	3
2026-02-11	16:28:11.910	-9.485	0.56	-6.475	0.987712	0.218868	0.169092	0.132	0.528	0.18	0	112	170	3
2026-02-11	16:28:11.930	-9.1	0.875	-7.525	0.991372	0.233996	0.160796	0.1275	0.531	0.1815	0	112	170	3
2026-02-11	16:28:11.950	-10.85	1.575	-7.63	0.988444	0.233508	0.155672	0.1275	0.531	0.1815	0	112	170	3
2026-02-11	16:28:11.970	-12.145	2.205	-6.965	0.9882	0.222528	0.1525	0.135	0.5325	0.1725	0	112	170	3
2026-02-11	16:28:11.990	-12.11	2.8	-6.09	0.981368	0.211548	0.15128	0.135	0.5295	0.1695	0	112	170	3
2026-02-11	16:28:12.010	-10.325	3.15	-5.46	0.970388	0.205692	0.14884	0.1425	0.5325	0.168	0	108	171	3
2026-02-11	16:28:12.030	-7.315	3.29	-5.145	0.963312	0.20496	0.142008	0.1395	0.528	0.171	0	108	171	3
2026-02-11	16:28:12.050	-4.69	3.22	-5.005	0.96136	0.2135	0.141032	0.1365	0.5265	0.171	0	108	171	3
2026-02-11	16:28:12.070	-2.975	3.045	-4.76	0.9638	0.214232	0.133468	0.138	0.5265	0.1665	0	108	171	3
2026-02-11	16:28:12.090	-2.24	2.8	-4.27	0.955748	0.213256	0.128832	0.1395	0.525	0.171	0	108	171	3
2026-02-11	16:28:12.110	-2.345	2.205	-3.43	0.954284	0.219844	0.122244	0.1395	0.5235	0.1725	0	108	171	3
2026-02-11	16:28:12.130	-3.15	1.015	-1.995	0.952332	0.217404	0.126148	0.141	0.522	0.168	0	108	171	3
2026-02-11	16:28:12.150	-4.2	-1.085	0.105	0.95404	0.216916	0.132004	0.141	0.522	0.1695	0	108	171	3
2026-02-11	16:28:12.170	-3.885	-2.555	1.47	0.953308	0.217648	0.133468	0.144	0.522	0.1665	0	108	171	3
2026-02-11	16:28:12.190	-3.08	-3.745	2.66	0.9577	0.221552	0.132248	0.1395	0.519	0.1635	0	108	171	3
2026-02-11	16:28:12.210	-2.205	-4.69	3.605	0.960384	0.228384	0.138104	0.1365	0.5145	0.1695	0	102	169	3
2026-02-11	16:28:12.230	-1.925	-5.565	4.095	0.963068	0.236192	0.1464	0.135	0.516	0.1665	0	102	169	3
2026-02-11	16:28:12.250	-2.135	-6.09	4.165	0.959164	0.234484	0.153232	0.1365	0.522	0.168	0	102	169	3
2026-02-11	16:28:12.270	-2.31	-6.51	3.99	0.964532	0.234972	0.15616	0.138	0.5235	0.1725	0	102	169	3
2026-02-11	16:28:12.290	-2.24	-6.72	3.605	0.972584	0.237656	0.15982	0.1365	0.5205	0.1725	0	102	169	3
2026-02-11	16:28:12.310	-1.855	-6.685	3.15	0.977708	0.237412	0.166896	0.1395	0.522	0.174	0	102	169	3
2026-02-11	16:28:12.330	-1.365	-6.16	2.485	0.976488	0.238144	0.167872	0.1365	0.5235	0.1725	0	102	169	3
2026-02-11	16:28:12.350	-0.665	-5.53	1.435	0.97356	0.235216	0.169092	0.132	0.528	0.171	0	102	169	3
2026-02-11	16:28:12.370	-0.035	-4.9	0.175	0.96868	0.238388	0.170556	0.135	0.534	0.1755	0	102	169	3
2026-02-11	16:28:12.390	0.49	-4.235	-0.77	0.9699	0.23668	0.174704	0.1395	0.528	0.1725	0	102	169	3
2026-02-11	16:28:12.410	1.26	-3.605	-1.47	0.970876	0.233264	0.17568	0.1395	0.519	0.177	0	95	166	3
2026-02-11	16:28:12.430	2.17	-2.835	-2.03	0.971608	0.224724	0.17934	0.1485	0.528	0.18	0	95	166	3
2026-02-11	16:28:12.450	3.78	-1.89	-2.31	0.973804	0.223748	0.18422	0.144	0.528	0.1755	0	95	166	3
2026-02-11	16:28:12.470	5.215	-0.805	-2.31	0.973804	0.222772	0.184952	0.138	0.5265	0.174	0	95	166	3
2026-02-11	16:28:12.490	5.95	0.175	-2.065	0.978196	0.221064	0.188612	0.141	0.5265	0.1725	0	95	166	3
2026-02-11	16:28:12.510	6.265	1.015	-1.82	0.974536	0.218868	0.186904	0.144	0.5265	0.1755	0	95	166	3
2026-02-11	16:28:12.530	6.405	1.575	-1.61	0.976	0.224968	0.181292	0.144	0.5235	0.18	0	95	166	3
2026-02-11	16:28:12.550	5.915	1.785	-1.26	0.974536	0.225944	0.180072	0.147	0.522	0.1785	0	95	166	3
2026-02-11	16:28:12.570	5.18	2.065	-0.735	0.971608	0.226432	0.166652	0.15	0.522	0.18	0	95	166	3
2026-02-11	16:28:12.590	4.445	2.45	-0.525	0.966484	0.223016	0.159576	0.1455	0.5265	0.177	0	95	166	3
2026-02-11	16:28:12.610	4.27	2.66	-0.49	0.966972	0.222284	0.15738	0.141	0.531	0.1755	0	87	165	3
2026-02-11	16:28:12.630	4.655	2.835	-0.455	0.968924	0.220576	0.153964	0.138	0.528	0.1755	0	87	165	3
2026-02-11	16:28:12.650	5.46	2.87	-0.105	0.972096	0.223748	0.153232	0.1365	0.5235	0.1755	0	87	165	3
2026-02-11	16:28:12.670	6.44	3.255	0.42	0.978684	0.223748	0.15616	0.1395	0.522	0.177	0	87	165	3
2026-02-11	16:28:12.690	7.49	3.955	0.875	0.984296	0.225944	0.14762	0.1395	0.528	0.1785	0	87	165	3
2026-02-11	16:28:12.710	8.75	4.97	1.05	0.982588	0.224968	0.14762	0.138	0.5295	0.174	0	87	165	3
2026-02-11	16:28:12.730	10.535	5.88	0.98	0.983076	0.22082	0.14884	0.1365	0.5265	0.1725	0	87	165	3
2026-02-11	16:28:12.750	12.95	6.72	0.77	0.976732	0.223992	0.146888	0.1365	0.525	0.177	0	87	165	3
2026-02-11	16:28:12.770	15.54	7.49	0.385	0.973316	0.225212	0.143472	0.141	0.525	0.171	0	87	165	3
2026-02-11	16:28:12.790	19.145	8.47	-0.28	0.969168	0.223748	0.133468	0.144	0.528	0.165	0	87	165	3
2026-02-11	16:28:12.810	21.21	8.89	-0.735	0.970388	0.223748	0.125904	0.1455	0.525	0.171	0	78	165	3
2026-02-11	16:28:12.830	22.61	8.82	-0.7	0.976	0.228628	0.122732	0.144	0.528	0.174	0	78	165	3
2026-02-11	16:28:12.850	23.065	8.26	-0.175	0.97234	0.232776	0.122	0.135	0.5295	0.1725	0	78	165	3
2026-02-11	16:28:12.870	22.54	7.245	0.735	0.962336	0.232288	0.11712	0.135	0.531	0.1725	0	78	165	3
2026-02-11	16:28:12.890	21.175	5.67	1.925	0.957212	0.237656	0.113948	0.1395	0.531	0.1755	0	78	165	3
2026-02-11	16:28:12.910	19.215	3.78	3.115	0.953308	0.241072	0.119804	0.138	0.5325	0.174	0	78	165	3
2026-02-11	16:28:12.930	16.835	1.785	4.375	0.951844	0.242536	0.127124	0.135	0.531	0.1725	0	78	165	3
2026-02-11	16:28:12.950	14.28	0.105	5.565	0.954772	0.251564	0.130784	0.1365	0.528	0.1725	0	78	165	3
2026-02-11	16:28:12.970	12.145	-1.015	6.475	0.958432	0.250344	0.142008	0.1395	0.531	0.1785	0	78	165	3
2026-02-11	16:28:12.990	12.67	-1.19	7.07	0.966972	0.24278	0.155672	0.1425	0.534	0.1845	0	78	165	3
2026-02-11	16:28:13.010	15.575	-0.56	7.105	0.971608	0.254004	0.178364	0.1425	0.5355	0.186	0	70	161	3
2026-02-11	16:28:13.030	18.06	0.525	6.685	0.971608	0.260592	0.186172	0.129	0.5325	0.1725	0	70	161	3
2026-02-11	16:28:13.050	20.3	1.47	6.09	0.976	0.265472	0.196176	0.1335	0.546	0.1755	0	70	161	3
2026-02-11	16:28:13.070	21.525	2.625	5.18	0.974536	0.273036	0.203008	0.129	0.5475	0.1785	0	70	161	3
2026-02-11	16:28:13.090	21.77	3.675	4.06	0.970632	0.27572	0.198128	0.129	0.5445	0.1785	0	70	161	3
2026-02-11	16:28:13.110	20.23	4.48	2.835	0.965264	0.281576	0.195444	0.135	0.5445	0.1785	0	70	161	3
2026-02-11	16:28:13.130	17.08	5.04	1.68	0.965264	0.28792	0.190076	0.138	0.5475	0.1785	0	70	161	3
2026-02-11	16:28:13.150	13.055	5.32	0.7	0.965264	0.283772	0.18056	0.1395	0.5505	0.174	0	70	161	3
2026-02-11	16:28:13.170	9.695	5.39	-0.21	0.972584	0.283284	0.174948	0.1365	0.549	0.174	0	70	161	3
2026-02-11	16:28:13.190	7.525	5.355	-0.945	0.972096	0.27206	0.166652	0.132	0.546	0.1725	0	70	161	3
2026-02-11	16:28:13.210	6.265	5.005	-1.645	0.971364	0.266936	0.16104	0.1335	0.5505	0.1725	0	63	160	3
2026-02-11	16:28:13.230	5.6	4.62	-2.135	0.974536	0.262544	0.159576	0.1335	0.5505	0.1725	0	63	160	3
2026-02-11	16:28:13.250	5.46	4.375	-2.45	0.97844	0.261812	0.152012	0.135	0.552	0.174	0	63	160	3
2026-02-11	16:28:13.270	5.11	4.095	-2.66	0.981612	0.26108	0.151036	0.1275	0.546	0.1755	0	63	160	3
2026-02-11	16:28:13.290	4.655	3.92	-2.73	0.980148	0.255468	0.153476	0.135	0.5505	0.1755	0	63	160	3
2026-02-11	16:28:13.310	4.025	3.675	-2.66	0.975756	0.24888	0.15738	0.138	0.552	0.177	0	63	160	3
2026-02-11	16:28:13.330	3.745	3.535	-2.45	0.971852	0.234972	0.156648	0.132	0.549	0.1755	0	63	160	3
2026-02-11	16:28:13.350	4.41	3.43	-2.17	0.97234	0.2257	0.157868	0.129	0.546	0.1755	0	63	160	3
2026-02-11	16:28:13.370	6.58	3.43	-1.96	0.97356	0.22936	0.161772	0.1305	0.5445	0.1725	0	63	160	3
2026-02-11	16:28:13.390	8.505	3.22	-1.575	0.974536	0.229116	0.160308	0.1305	0.5505	0.1665	0	63	160	3
2026-02-11	16:28:13.410	9.52	2.87	-1.19	0.976732	0.233752	0.16348	0.1275	0.549	0.1725	0	57	161	3
2026-02-11	16:28:13.430	8.715	2.03	-0.49	0.967216	0.239364	0.16226	0.129	0.5445	0.1785	0	57	161	3
2026-02-11	16:28:13.450	7.14	1.26	0	0.962824	0.24034	0.164456	0.1305	0.549	0.174	0	57	161	3
2026-02-11	16:28:13.470	5.565	0.525	0.35	0.960384	0.243756	0.163724	0.1335	0.5565	0.1635	0	57	161	3
2026-02-11	16:28:13.490	3.605	-0.105	0.875	0.9577	0.248148	0.165432	0.1305	0.552	0.165	0	57	161	3
2026-02-11	16:28:13.510	1.47	-0.735	1.54	0.964532	0.252296	0.166164	0.129	0.543	0.1665	0	57	161	3
2026-02-11	16:28:13.530	-0.525	-1.12	2.1	0.96258	0.2562	0.169092	0.1335	0.546	0.168	0	57	161	3
2026-02-11	16:28:13.550	-2.275	-1.435	2.38	0.95526	0.253028	0.166408	0.1365	0.552	0.1695	0	57	161	3
2026-02-11	16:28:13.570	-3.115	-1.61	2.31	0.959896	0.251076	0.1708	0.135	0.552	0.171	0	57	161	3
2026-02-11	16:28:13.590	-3.29	-1.4	1.925	0.954528	0.2501	0.171044	0.1335	0.5535	0.171	0	57	161	3
2026-02-11	16:28:13.610	-2.765	-1.225	1.4	0.955748	0.247416	0.170312	0.129	0.552	0.171	0	52	162	3
2026-02-11	16:28:13.630	-1.575	-0.595	0.595	0.961848	0.245464	0.171288	0.132	0.5505	0.165	0	52	162	3
2026-02-11	16:28:13.650	-0.49	0.07	-0.28	0.96014	0.250832	0.167384	0.135	0.552	0.159	0	52	162	3
2026-02-11	16:28:13.670	0.035	0.35	-0.735	0.967704	0.250588	0.165188	0.1305	0.549	0.177	0	52	162	3
2026-02-11	16:28:13.690	0.245	0.525	-1.05	0.963312	0.255224	0.163236	0.1335	0.552	0.1755	0	52	162	3
2026-02-11	16:28:13.710	0.21	0.455	-1.33	0.96136	0.25376	0.159088	0.135	0.5565	0.1725	0	52	162	3
2026-02-11	16:28:13.730	-0.245	0.14	-1.61	0.9638	0.253028	0.157868	0.132	0.5535	0.1695	0	52	162	3
2026-02-11	16:28:13.750	-0.98	-0.42	-1.68	0.966484	0.252052	0.155428	0.1335	0.5535	0.171	0	52	162	3
2026-02-11	16:28:13.770	-1.89	-0.945	-1.505	0.968192	0.245952	0.15616	0.1335	0.555	0.171	0	52	162	3
2026-02-11	16:28:13.790	-2.94	-1.61	-1.085	0.969412	0.244488	0.160308	0.132	0.5505	0.1665	0	52	162	3
2026-02-11	16:28:13.810	-3.745	-2.065	-0.595	0.9699	0.235704	0.166164	0.1335	0.5505	0.1665	0	47	164	3
2026-02-11	16:28:13.830	-3.99	-2.275	-0.14	0.970144	0.230824	0.167384	0.1335	0.555	0.171	0	47	164	3
2026-02-11	16:28:13.850	-3.955	-2.38	0.28	0.97234	0.223992	0.175192	0.1335	0.5565	0.1725	0	47	164	3
2026-02-11	16:28:13.870	-4.025	-2.415	0.595	0.969168	0.223016	0.1769	0.1335	0.5565	0.1725	0	47	164	3
2026-02-11	16:28:13.890	-4.235	-2.415	0.91	0.9699	0.223992	0.17568	0.1305	0.552	0.1695	0	47	164	3
2026-02-11	16:28:13.910	-4.095	-2.275	1.225	0.976732	0.22448	0.178364	0.132	0.555	0.171	0	47	164	3
2026-02-11	16:28:13.930	-3.57	-1.96	1.47	0.97356	0.23058	0.177632	0.1335	0.5535	0.1725	0	47	164	3
2026-02-11	16:28:13.950	-3.115	-1.575	1.61	0.967704	0.235948	0.172264	0.1335	0.549	0.171	0	47	164	3
2026-02-11	16:28:13.970	-2.73	-1.155	1.47	0.966972	0.237168	0.16836	0.132	0.5445	0.171	0	47	164	3
2026-02-11	16:28:13.990	-2.45	-0.805	1.12	0.966484	0.237412	0.166408	0.1305	0.5445	0.171	0	47	164	3
2026-02-11	16:28:14.010	-1.82	-0.525	0.735	0.96502	0.2379	0.160796	0.132	0.552	0.1725	0	42	165	3
2026-02-11	16:28:14.030	-1.505	-0.49	0.56	0.966972	0.239608	0.15738	0.1305	0.5535	0.1725	0	42	165	3
2026-02-11	16:28:14.050	-1.155	-0.56	0.42	0.963068	0.238388	0.157136	0.1305	0.5535	0.174	0	42	165	3
2026-02-11	16:28:14.070	-0.805	-0.84	0.455	0.968924	0.24156	0.152256	0.1305	0.552	0.1755	0	42	165	3
2026-02-11	16:28:14.090	-0.7	-1.05	0.525	0.968924	0.236924	0.153476	0.129	0.5475	0.168	0	42	165	3
2026-02-11	16:28:14.110	-0.63	-1.12	0.56	0.970144	0.235216	0.15738	0.1305	0.5505	0.171	0	42	165	3
2026-02-11	16:28:14.130	-0.455	-1.085	0.385	0.972584	0.237412	0.160064	0.132	0.555	0.1785	0	42	165	3
2026-02-11	16:28:14.150	-0.21	-0.945	0.14	0.974048	0.236192	0.164212	0.129	0.555	0.1785	0	42	165	3
2026-02-11	16:28:14.170	0.21	-0.7	-0.175	0.970144	0.228628	0.164456	0.129	0.5565	0.1755	0	42	165	3
2026-02-11	16:28:14.190	0.7	-0.455	-0.385	0.96502	0.228384	0.166652	0.129	0.558	0.174	0	42	165	3
2026-02-11	16:28:14.210	0.945	-0.35	-0.42	0.966728	0.230824	0.168604	0.135	0.5535	0.171	0	38	166	2
2026-02-11	16:28:14.230	1.12	-0.21	-0.315	0.96746	0.227408	0.169336	0.1395	0.5565	0.171	0	38	166	2
2026-02-11	16:28:14.250	1.435	-0.035	-0.07	0.970144	0.22814	0.165432	0.135	0.5595	0.1725	0	38	166	2
2026-02-11	16:28:14.270	1.435	0.105	0.385	0.967948	0.22936	0.167872	0.129	0.5535	0.171	0	38	166	2
2026-02-11	16:28:14.290	1.12	0.07	0.84	0.974292	0.233996	0.161284	0.126	0.5505	0.1725	0	38	166	2
2026-02-11	16:28:14.310	0.665	-0.035	0.735	0.974536	0.2318	0.161528	0.1275	0.558	0.1785	0	38	166	2
2026-02-11	16:28:14.330	0.63	-0.175	0.42	0.975024	0.229604	0.160308	0.129	0.555	0.1755	0	38	166	2
2026-02-11	16:28:14.350	0.98	-0.14	0	0.97356	0.2257	0.161284	0.129	0.5505	0.1725	0	38	166	2
2026-02-11	16:28:14.370	1.4	-0.035	-0.245	0.976976	0.221064	0.158356	0.129	0.552	0.1665	0	38	166	2
2026-02-11	16:28:14.390	2.1	0.175	-0.35	0.97478	0.219356	0.157624	0.1305	0.552	0.165	0	38	166	2
2026-02-11	16:28:14.410	3.045	0.525	-0.21	0.971364	0.21838	0.158112	0.135	0.5535	0.171	0	34	166	2
2026-02-11	16:28:14.430	3.99	0.805	0	0.966728	0.224968	0.155672	0.1335	0.558	0.174	0	34	166	2
2026-02-11	16:28:14.450	4.83	0.77	0.175	0.969656	0.23302	0.155672	0.1275	0.5565	0.174	0	34	166	2
2026-02-11	16:28:14.470	5.25	0.665	0.105	0.969656	0.237656	0.152988	0.1275	0.5535	0.174	0	34	166	2
2026-02-11	16:28:14.490	4.76	0.385	0.07	0.96624	0.246196	0.15494	0.129	0.555	0.1755	0	34	166	2
2026-02-11	16:28:14.510	3.85	0.07	0.14	0.963556	0.249612	0.161772	0.129	0.555	0.1725	0	34	166	2
2026-02-11	16:28:14.530	2.345	-0.105	0.245	0.963556	0.252296	0.160064	0.1305	0.5535	0.168	0	34	166	2
2026-02-11	16:28:14.550	1.05	-0.49	0.315	0.966484	0.245952	0.162748	0.132	0.558	0.1695	0	34	166	2
2026-02-11	16:28:14.570	0.49	-0.77	0.315	0.963556	0.250588	0.169824	0.1305	0.555	0.171	0	34	166	2
2026-02-11	16:28:14.590	0.21	-1.05	0.14	0.959896	0.247416	0.171044	0.1305	0.549	0.168	0	34	166	2
2026-02-11	16:28:14.610	-0.07	-1.155	0	0.963068	0.254492	0.17812	0.138	0.5505	0.171	0	31	166	2
2026-02-11	16:28:14.630	-0.7	-1.155	-0.14	0.966972	0.2562	0.181048	0.138	0.5475	0.1785	0	31	166	2
2026-02-11	16:28:14.650	-1.54	-0.91	-0.315	0.968436	0.261568	0.182268	0.1335	0.549	0.1785	0	31	166	2
2026-02-11	16:28:14.670	-3.045	-0.63	-0.455	0.970144	0.257664	0.18056	0.1335	0.552	0.171	0	31	166	2
2026-02-11	16:28:14.690	-4.9	-0.49	-0.805	0.96624	0.255956	0.177632	0.129	0.552	0.171	0	31	166	2
2026-02-11	16:28:14.710	-6.51	-0.35	-1.47	0.965508	0.243512	0.164944	0.126	0.552	0.1755	0	31	166	2
2026-02-11	16:28:14.730	-7.175	-0.42	-1.82	0.963556	0.236436	0.16348	0.132	0.555	0.174	0	31	166	2
2026-02-11	16:28:14.750	-7.63	-0.42	-1.925	0.96868	0.231312	0.159576	0.1335	0.5535	0.174	0	31	166	2
2026-02-11	16:28:14.770	-7.735	-0.385	-1.82	0.970144	0.227896	0.153232	0.1305	0.5535	0.1725	0	31	166	2
2026-02-11	16:28:14.790	-7.42	-0.315	-1.715	0.975024	0.223992	0.151036	0.132	0.555	0.1725	0	31	166	2
2026-02-11	16:28:14.810	-5.985	-0.245	-1.785	0.974292	0.224724	0.148108	0.129	0.555	0.177	0	28	166	2
2026-02-11	16:28:14.830	-4.41	-0.245	-1.995	0.975268	0.22814	0.147132	0.132	0.558	0.1785	0	28	166	2
2026-02-11	16:28:14.850	-3.395	-0.14	-2.415	0.974292	0.23424	0.146644	0.135	0.555	0.177	0	28	166	2
2026-02-11	16:28:14.870	-3.255	-0.07	-2.87	0.97478	0.235216	0.147376	0.1335	0.552	0.174	0	28	166	2
2026-02-11	16:28:14.890	-3.15	-0.035	-3.15	0.975512	0.228628	0.149816	0.138	0.5535	0.174	0	28	166	2
2026-02-11	16:28:14.910	-2.87	0	-3.325	0.975512	0.226432	0.150548	0.1365	0.555	0.177	0	28	166	2
2026-02-11	16:28:14.930	-1.785	0.175	-3.115	0.971608	0.219112	0.152744	0.129	0.555	0.18	0	28	166	2
2026-02-11	16:28:14.950	-0.875	0.245	-2.835	0.97234	0.221308	0.15494	0.129	0.5535	0.1755	0	28	166	2
2026-02-11	16:28:14.970	-0.14	0.245	-2.38	0.970632	0.218868	0.153232	0.1305	0.5505	0.1665	0	28	166	2
2026-02-11	16:28:14.990	0.28	0.14	-1.89	0.971364	0.2196	0.156404	0.1305	0.5475	0.168	0	28	166	2
2026-02-11	16:28:15.010	0.49	0	-1.505	0.972828	0.2196	0.156892	0.135	0.546	0.1695	0	26	165	2
2026-02-11	16:28:15.030	0.49	-0.175	-1.155	0.975512	0.21716	0.156404	0.132	0.546	0.171	0	26	165	2
2026-02-11	16:28:15.050	0.245	-0.315	-0.84	0.974536	0.227652	0.1586	0.1245	0.5475	0.1755	0	26	165	2
2026-02-11	16:28:15.070	0	-0.35	-0.63	0.972584	0.227896	0.160796	0.129	0.549	0.174	0	26	165	2
2026-02-11	16:28:15.090	-0.175	-0.385	-0.42	0.972584	0.2318	0.157868	0.1335	0.5505	0.1695	0	26	165	2
2026-02-11	16:28:15.110	-0.315	-0.385	-0.35	0.97478	0.228384	0.159576	0.135	0.5505	0.165	0	26	165	2
2026-02-11	16:28:15.130	0	-0.21	-0.56	0.976244	0.228628	0.1586	0.132	0.549	0.1695	0	26	165	2
2026-02-11	16:28:15.150	0.7	0.07	-0.7	0.976244	0.233264	0.152988	0.1305	0.5475	0.171	0	26	165	2
2026-02-11	16:28:15.170	1.12	0.105	-0.665	0.971364	0.230336	0.155428	0.132	0.5475	0.171	0	26	165	2
2026-02-11	16:28:15.190	1.47	0.07	-0.595	0.973072	0.2318	0.149084	0.135	0.5475	0.18	0	26	165	2
2026-02-11	16:28:15.210	1.505	-0.14	-0.525	0.975512	0.2318	0.151036	0.135	0.546	0.18	0	24	163	2
2026-02-11	16:28:15.230	1.61	-0.42	-0.42	0.970632	0.23302	0.152012	0.1335	0.5475	0.1755	0	24	163	2
2026-02-11	16:28:15.250	1.715	-0.595	-0.315	0.9699	0.234728	0.153232	0.1335	0.549	0.1725	0	24	163	2
2026-02-11	16:28:15.270	1.715	-0.77	-0.14	0.971852	0.232044	0.154208	0.1335	0.5505	0.174	0	24	163	2
2026-02-11	16:28:15.290	1.715	-0.805	0.14	0.974048	0.233508	0.162992	0.1335	0.546	0.171	0	24	163	2
2026-02-11	16:28:15.310	1.75	-0.77	0.385	0.972828	0.236924	0.16226	0.129	0.5475	0.171	0	24	163	2
2026-02-11	16:28:15.330	1.82	-0.63	0.595	0.974536	0.237412	0.162992	0.129	0.552	0.1755	0	24	163	2
2026-02-11	16:28:15.350	1.68	-0.56	0.77	0.973804	0.243024	0.160552	0.1335	0.5535	0.174	0	24	163	2
2026-02-11	16:28:15.370	1.26	-0.595	0.805	0.970144	0.242048	0.163236	0.132	0.5535	0.1755	0	24	163	2
2026-02-11	16:28:15.390	0.525	-0.595	0.945	0.97234	0.239852	0.16592	0.1305	0.552	0.174	0	24	163	2
2026-02-11	16:28:15.410	-0.21	-0.595	1.225	0.97234	0.234728	0.162992	0.1305	0.549	0.1755	0	22	162	2
2026-02-11	16:28:15.430	-0.35	-0.455	1.54	0.968436	0.229116	0.159576	0.129	0.549	0.1755	0	22	162	2
2026-02-11	16:28:15.450	-0.035	-0.42	1.82	0.972828	0.229848	0.1586	0.132	0.5475	0.174	0	22	162	2
2026-02-11	16:28:15.470	0.21	-0.28	1.96	0.969168	0.2257	0.156404	0.1305	0.543	0.1725	0	22	162	2
2026-02-11	16:28:15.490	0.28	-0.385	2.065	0.97234	0.227164	0.155184	0.129	0.552	0.1695	0	22	162	2
2026-02-11	16:28:15.510	0.28	-0.63	1.995	0.972828	0.230824	0.155916	0.135	0.555	0.171	0	22	162	2
2026-02-11	16:28:15.530	0.315	-0.875	1.89	0.96868	0.228628	0.155428	0.1335	0.5505	0.1725	0	22	162	2
2026-02-11	16:28:15.550	0.525	-1.015	1.925	0.969656	0.23302	0.1586	0.1305	0.549	0.177	0	22	162	2
2026-02-11	16:28:15.570	0.525	-0.945	1.96	0.97112	0.238144	0.160796	0.1365	0.549	0.1755	0	22	162	2
2026-02-11	16:28:15.590	0.385	-0.84	1.75	0.968192	0.24522	0.160552	0.132	0.5475	0.177	0	22	162	2
2026-02-11	16:28:15.610	0	-0.7	1.365	0.964044	0.24766	0.16226	0.129	0.5475	0.1815	0	20	161	2
2026-02-11	16:28:15.630	-0.595	-0.595	0.98	0.960384	0.24766	0.168116	0.132	0.549	0.177	0	20	161	2
2026-02-11	16:28:15.650	-0.945	-0.455	0.595	0.965752	0.243512	0.166164	0.1335	0.5475	0.171	0	20	161	2
2026-02-11	16:28:15.670	-0.805	-0.28	0.315	0.966972	0.244244	0.165188	0.132	0.552	0.171	0	20	161	2
2026-02-11	16:28:15.690	-0.665	-0.07	0.175	0.972096	0.249124	0.168604	0.1305	0.5565	0.174	0	20	161	2
2026-02-11	16:28:15.710	-1.05	0.07	0.07	0.966728	0.24888	0.168604	0.132	0.558	0.1755	0	20	161	2
2026-02-11	16:28:15.730	-1.575	0.14	-0.07	0.966484	0.246684	0.165676	0.1335	0.5565	0.1755	0	20	161	2
2026-02-11	16:28:15.750	-2.03	0.175	-0.35	0.967216	0.250588	0.165432	0.1305	0.552	0.1725	0	20	161	2
2026-02-11	16:28:15.770	-2.66	0.105	-0.875	0.96624	0.250588	0.16592	0.129	0.552	0.174	0	20	161	2
2026-02-11	16:28:15.790	-3.43	0	-1.33	0.965508	0.250344	0.16714	0.129	0.5535	0.1755	0	20	161	2
2026-02-11	16:28:15.810	-4.13	0	-1.505	0.970632	0.250344	0.161528	0.129	0.555	0.174	0	18	162	2
2026-02-11	16:28:15.830	-4.725	0.035	-1.61	0.9699	0.25132	0.165676	0.1305	0.555	0.1785	0	18	162	2
2026-02-11	16:28:15.850	-5.355	0.105	-1.75	0.968924	0.254004	0.168116	0.126	0.5535	0.177	0	18	162	2
2026-02-11	16:28:15.870	-6.195	0.21	-1.96	0.96746	0.24522	0.166164	0.126	0.552	0.1725	0	18	162	2
2026-02-11	16:28:15.890	-6.93	0.28	-2.24	0.969656	0.239608	0.166896	0.1275	0.549	0.174	0	18	162	2
2026-02-11	16:28:15.910	-6.965	0.525	-2.625	0.973804	0.23424	0.165432	0.1275	0.549	0.174	0	18	162	2
2026-02-11	16:28:15.930	-6.195	0.805	-3.08	0.970144	0.229848	0.163236	0.132	0.549	0.1755	0	18	162	2
2026-02-11	16:28:15.950	-5.39	1.05	-3.5	0.970876	0.232044	0.16104	0.132	0.552	0.18	0	18	162	2
2026-02-11	16:28:15.970	-4.515	1.295	-3.745	0.978684	0.227896	0.161284	0.135	0.5535	0.18	0	18	162	2
2026-02-11	16:28:15.990	-3.85	1.435	-3.675	0.971852	0.23302	0.158112	0.1365	0.5535	0.18	0	18	162	2
2026-02-11	16:28:16.010	-4.13	1.295	-3.5	0.972584	0.228384	0.15738	0.135	0.5505	0.174	0	17	163	2
2026-02-11	16:28:16.030	-4.41	1.05	-3.325	0.965996	0.231068	0.155428	0.132	0.5445	0.1695	0	17	163	2
2026-02-11	16:28:16.050	-4.13	0.91	-3.185	0.96868	0.228628	0.153232	0.129	0.546	0.1725	0	17	163	2
2026-02-11	16:28:16.070	-3.885	0.735	-2.905	0.9638	0.226432	0.155672	0.1275	0.5505	0.1725	0	17	163	2
2026-02-11	16:28:16.090	-3.64	0.525	-2.695	0.964776	0.230336	0.152744	0.129	0.549	0.168	0	17	163	2
2026-02-11	16:28:16.110	-3.745	0.245	-2.555	0.970388	0.229116	0.151768	0.132	0.5475	0.168	0	17	163	2
2026-02-11	16:28:16.130	-3.885	-0.035	-2.52	0.967216	0.225212	0.153476	0.132	0.5505	0.1725	0	17	163	2
2026-02-11	16:28:16.150	-3.815	-0.315	-2.59	0.965508	0.223992	0.153232	0.1365	0.546	0.171	0	17	163	2
2026-02-11	16:28:16.170	-3.71	-0.455	-2.625	0.965264	0.222772	0.151524	0.1335	0.5445	0.174	0	17	163	2
2026-02-11	16:28:16.190	-3.395	-0.525	-2.45	0.96746	0.221064	0.1525	0.129	0.549	0.18	0	17	163	2
2026-02-11	16:28:16.210	-2.555	-0.49	-1.925	0.971364	0.217648	0.149572	0.129	0.549	0.18	0	16	163	2
2026-02-11	16:28:16.230	-1.96	-0.49	-1.47	0.968436	0.216916	0.151036	0.1275	0.5445	0.1755	0	16	163	2
2026-02-11	16:28:16.250	-1.26	-0.665	-1.12	0.964044	0.221064	0.147132	0.129	0.54	0.171	0	16	163	2
2026-02-11	16:28:16.270	-0.385	-1.05	-0.735	0.968192	0.2196	0.14884	0.1275	0.543	0.1695	0	16	163	2
2026-02-11	16:28:16.290	0.385	-1.4	-0.315	0.968924	0.223748	0.154208	0.1275	0.5445	0.1695	0	16	163	2
2026-02-11	16:28:16.310	0.595	-1.61	0.07	0.968924	0.233752	0.158112	0.135	0.5415	0.1695	0	16	163	2
2026-02-11	16:28:16.330	0.455	-1.61	0.315	0.962336	0.228872	0.158844	0.1365	0.5445	0.1695	0	16	163	2
2026-02-11	16:28:16.350	0.315	-1.75	0.49	0.970144	0.236924	0.156648	0.1365	0.546	0.171	0	16	163	2
2026-02-11	16:28:16.370	0.21	-1.925	0.595	0.966484	0.233508	0.163724	0.1365	0.543	0.174	0	16	163	2
2026-02-11	16:28:16.390	0.07	-2.1	0.42	0.969168	0.234972	0.165676	0.1305	0.5415	0.1725	0	16	163	2
2026-02-11	16:28:16.410	-0.385	-2.275	0.175	0.969412	0.238388	0.171532	0.1275	0.5415	0.171	0	15	162	2
2026-02-11	16:28:16.430	-0.98	-2.1	-0.035	0.966728	0.23912	0.173484	0.132	0.543	0.1695	0	15	162	2
2026-02-11	16:28:16.450	-1.435	-1.715	-0.14	0.97112	0.236924	0.174704	0.1365	0.546	0.1725	0	15	162	2
2026-02-11	16:28:16.470	-1.68	-1.085	-0.245	0.970632	0.236192	0.176168	0.1335	0.546	0.177	0	15	162	2
2026-02-11	16:28:16.490	-1.47	-0.28	-0.63	0.970876	0.233996	0.171044	0.1305	0.5445	0.177	0	15	162	2
2026-02-11	16:28:16.510	-0.98	0.525	-0.875	0.978196	0.220576	0.16592	0.1305	0.5445	0.1755	0	15	162	2
2026-02-11	16:28:16.530	0.175	1.19	-1.05	0.975512	0.220088	0.163724	0.132	0.543	0.1785	0	15	162	2
2026-02-11	16:28:16.550	2.065	1.645	-1.225	0.978196	0.214964	0.152988	0.1335	0.5445	0.1785	0	15	162	2
2026-02-11	16:28:16.570	4.13	1.925	-1.4	0.976	0.216672	0.147864	0.135	0.5445	0.177	0	15	162	2
2026-02-11	16:28:16.590	5.285	1.855	-1.435	0.97234	0.220088	0.149328	0.1335	0.5415	0.174	0	15	162	2
2026-02-11	16:28:16.610	5.39	1.505	-1.085	0.973072	0.222284	0.148352	0.1305	0.5415	0.1695	0	14	162	2
2026-02-11	16:28:16.630	4.97	0.77	-0.385	0.964776	0.221796	0.148108	0.126	0.546	0.1725	0	14	162	2
2026-02-11	16:28:16.650	5.6	0.315	0.14	0.9638	0.225944	0.154208	0.1275	0.549	0.1725	0	14	162	2
2026-02-11	16:28:16.670	6.02	0.105	0.595	0.964044	0.23668	0.155184	0.1275	0.5475	0.171	0	14	162	2
2026-02-11	16:28:16.690	5.53	-0.035	1.015	0.967216	0.242048	0.157868	0.129	0.5415	0.171	0	14	162	2
2026-02-11	16:28:16.710	4.725	-0.07	1.225	0.970876	0.239608	0.164212	0.132	0.5445	0.1725	0	14	162	2
2026-02-11	16:28:16.730	4.235	-0.175	1.295	0.969656	0.24644	0.166164	0.135	0.5415	0.1725	0	14	162	2
2026-02-11	16:28:16.750	3.85	-0.21	1.26	0.971364	0.250344	0.167628	0.1365	0.543	0.1695	0	14	162	2
2026-02-11	16:28:16.770	3.535	-0.105	1.015	0.975268	0.251076	0.168848	0.135	0.5445	0.171	0	14	162	2
2026-02-11	16:28:16.790	3.395	0.035	0.77	0.969412	0.2501	0.1708	0.129	0.543	0.174	0	14	162	2
2026-02-11	16:28:16.810	3.01	0.245	0.28	0.971364	0.254736	0.1708	0.123	0.5505	0.1725	0	14	162	2
2026-02-11	16:28:16.830	2.52	0.455	-0.315	0.970632	0.249612	0.170556	0.1275	0.5535	0.174	0	14	162	2
2026-02-11	16:28:16.850	1.61	0.665	-1.085	0.96502	0.249124	0.166408	0.1275	0.5535	0.174	0	14	162	2
2026-02-11	16:28:16.870	1.085	0.665	-1.33	0.960384	0.244732	0.1647	0.132	0.555	0.1755	0	14	162	2
2026-02-11	16:28:16.890	1.015	0.49	-1.225	0.964532	0.239852	0.162504	0.141	0.5505	0.174	0	14	162	2
2026-02-11	16:28:16.910	0.945	0.35	-0.875	0.964532	0.241072	0.161528	0.1395	0.5445	0.1695	0	14	162	2
2026-02-11	16:28:16.930	0.42	0.07	-0.42	0.964044	0.241804	0.160308	0.129	0.5415	0.171	0	14	162	2
2026-02-11	16:28:16.950	-0.105	-0.245	-0.07	0.9699	0.24522	0.159332	0.1305	0.546	0.1725	0	14	162	2
2026-02-11	16:28:16.970	-0.63	-0.525	0.245	0.969412	0.246196	0.157624	0.135	0.5535	0.174	0	14	162	2
2026-02-11	16:28:16.990	-1.19	-0.84	0.315	0.973072	0.244244	0.160552	0.1305	0.549	0.1815	0	14	162	2
2026-02-11	16:28:17.010	-1.61	-1.05	0.14	0.968436	0.249368	0.159332	0.1275	0.546	0.18	0	13	162	2
2026-02-11	16:28:17.030	-2.38	-1.155	-0.175	0.967704	0.242292	0.164212	0.129	0.549	0.1725	0	13	162	2
2026-02-11	16:28:17.050	-2.73	-1.05	-0.7	0.968192	0.239852	0.16226	0.1365	0.5415	0.168	0	13	162	2
2026-02-11	16:28:17.070	-2.765	-0.7	-0.98	0.96868	0.23546	0.163724	0.1335	0.546	0.171	0	13	162	2
2026-02-11	16:28:17.090	-2.45	-0.315	-0.91	0.969412	0.227408	0.167872	0.1335	0.5535	0.1725	0	13	162	2
2026-02-11	16:28:17.110	-1.54	0.105	-0.7	0.972584	0.226676	0.16348	0.1335	0.552	0.1695	0	13	162	2
2026-02-11	16:28:17.130	-0.455	0.49	-0.455	0.970144	0.229116	0.158844	0.1305	0.546	0.1695	0	13	162	2
2026-02-11	16:28:17.150	0.245	0.77	-0.42	0.975512	0.233508	0.15494	0.132	0.543	0.1755	0	13	162	2
2026-02-11	16:28:17.170	0.77	0.84	-0.455	0.978684	0.23546	0.15128	0.132	0.543	0.1815	0	13	162	2
2026-02-11	16:28:17.190	1.295	0.77	-0.525	0.972584	0.23546	0.148596	0.132	0.543	0.177	0	13	162	2
2026-02-11	16:28:17.210	1.54	0.56	-0.455	0.971852	0.234484	0.152012	0.1335	0.5445	0.177	0	13	163	2
2026-02-11	16:28:17.230	1.61	0.315	-0.21	0.97112	0.235216	0.152256	0.132	0.546	0.1815	0	13	163	2
2026-02-11	16:28:17.250	1.61	0.175	0.07	0.968924	0.234972	0.154696	0.135	0.5475	0.1785	0	13	163	2
2026-02-11	16:28:17.270	1.61	0.07	0.49	0.966728	0.238144	0.16104	0.1275	0.546	0.174	0	13	163	2
2026-02-11	16:28:17.290	1.435	0	0.49	0.969656	0.23668	0.164212	0.1275	0.546	0.171	0	13	163	2
2026-02-11	16:28:17.310	1.225	0.105	0.385	0.974536	0.233264	0.163236	0.135	0.549	0.171	0	13	163	2
2026-02-11	16:28:17.330	1.365	0.315	0.385	0.974536	0.231556	0.1647	0.1365	0.546	0.1755	0	13	163	2
2026-02-11	16:28:17.350	1.89	0.595	0.525	0.978684	0.227164	0.165432	0.1335	0.5415	0.1755	0	13	163	2
2026-02-11	16:28:17.370	2.415	0.98	0.525	0.972584	0.228628	0.168848	0.1365	0.546	0.174	0	13	163	2
2026-02-11	16:28:17.390	2.8	1.4	0.385	0.976488	0.2318	0.162992	0.135	0.546	0.1725	0	13	163	2
2026-02-11	16:28:17.410	3.255	1.75	0.035	0.970876	0.228384	0.158844	0.1305	0.5415	0.177	0	13	163	2
2026-02-11	16:28:17.430	3.815	1.925	-0.21	0.970388	0.22448	0.154452	0.126	0.543	0.1785	0	13	163	2
2026-02-11	16:28:17.450	4.69	2.065	-0.315	0.969168	0.227408	0.155184	0.1245	0.549	0.174	0	13	163	2
2026-02-11	16:28:17.470	5.53	2.135	-0.28	0.971364	0.228872	0.152256	0.1335	0.5445	0.1785	0	13	163	2
2026-02-11	16:28:17.490	6.23	2.205	0.14	0.967216	0.224968	0.14884	0.1335	0.5445	0.1785	0	13	163	2
2026-02-11	16:28:17.510	6.93	2.1	0.455	0.969412	0.229116	0.150304	0.132	0.5475	0.1755	0	13	163	2
2026-02-11	16:28:17.530	7.665	1.995	0.7	0.968924	0.23302	0.151524	0.132	0.549	0.1725	0	13	163	2
2026-02-11	16:28:17.550	8.365	1.995	0.7	0.96868	0.233752	0.153476	0.135	0.5445	0.1755	0	13	163	2
2026-02-11	16:28:17.570	8.575	1.855	0.7	0.966728	0.234728	0.156648	0.1335	0.546	0.174	0	13	163	2
2026-02-11	16:28:17.590	8.61	1.785	0.595	0.96746	0.2379	0.160064	0.1335	0.5535	0.1725	0	13	163	2
2026-02-11	16:28:17.610	8.575	1.68	0.595	0.965508	0.235216	0.166896	0.135	0.558	0.177	0	12	162	2
2026-02-11	16:28:17.630	8.435	1.75	0.595	0.970876	0.238876	0.170068	0.129	0.555	0.177	0	12	162	2
2026-02-11	16:28:17.650	8.225	2.1	0.63	0.970632	0.235704	0.16836	0.129	0.5535	0.174	0	12	162	2
2026-02-11	16:28:17.670	8.4	2.625	0.56	0.970876	0.237412	0.170068	0.1335	0.552	0.174	0	12	162	2
2026-02-11	16:28:17.690	9.205	3.29	0.14	0.975024	0.233508	0.167384	0.132	0.5475	0.1815	0	12	162	2
2026-02-11	16:28:17.710	10.045	3.85	-0.28	0.971608	0.236192	0.160552	0.1335	0.5505	0.177	0	12	162	2
2026-02-11	16:28:17.730	10.64	4.025	-0.525	0.97234	0.23302	0.157868	0.1335	0.5535	0.171	0	12	162	2
2026-02-11	16:28:17.750	11.165	3.85	-0.56	0.968436	0.233264	0.15128	0.132	0.5565	0.1725	0	12	162	2
2026-02-11	16:28:17.770	11.375	3.36	-0.21	0.968924	0.230824	0.153232	0.1305	0.555	0.1725	0	12	162	2
2026-02-11	16:28:17.790	11.305	2.625	0.315	0.965508	0.235216	0.155428	0.132	0.552	0.171	0	12	162	2
2026-02-11	16:28:17.810	10.255	1.89	0.98	0.955748	0.237656	0.155916	0.132	0.5505	0.171	0	12	162	2
2026-02-11	16:28:17.830	8.715	1.015	1.855	0.958188	0.249124	0.161528	0.1305	0.5535	0.1695	0	12	162	2
2026-02-11	16:28:17.850	6.93	0.385	2.765	0.963068	0.249612	0.168604	0.129	0.5565	0.174	0	12	162	2
2026-02-11	16:28:17.870	5.425	-0.035	3.465	0.959164	0.24888	0.172508	0.126	0.552	0.1785	0	12	162	2
2026-02-11	16:28:17.890	4.83	-0.21	3.92	0.961604	0.254492	0.172508	0.1365	0.5625	0.1725	0	12	162	2
2026-02-11	16:28:17.910	3.99	-0.315	3.955	0.966484	0.258152	0.17568	0.123	0.555	0.1695	0	12	162	2
2026-02-11	16:28:17.930	3.36	-0.35	3.57	0.967704	0.268156	0.172508	0.1245	0.558	0.1725	0	12	162	2
2026-02-11	16:28:17.950	2.065	-0.42	2.8	0.966484	0.27084	0.174216	0.132	0.561	0.1755	0	12	162	2
2026-02-11	16:28:17.970	0.7	-0.455	1.715	0.964776	0.269132	0.17568	0.1335	0.5595	0.174	0	12	162	2
2026-02-11	16:28:17.990	-0.315	-0.49	0.56	0.963068	0.268156	0.171532	0.1335	0.5595	0.171	0	12	162	2
2026-02-11	16:28:18.010	-1.295	-0.385	-0.385	0.965264	0.267424	0.1708	0.132	0.5595	0.1695	0	11	162	2
2026-02-11	16:28:18.030	-2.135	-0.28	-1.015	0.965508	0.258884	0.171288	0.126	0.5595	0.168	0	11	162	2
2026-02-11	16:28:18.050	-2.625	-0.175	-1.33	0.967216	0.254004	0.168116	0.1245	0.564	0.171	0	11	162	2
2026-02-11	16:28:18.070	-2.94	-0.07	-1.365	0.965996	0.255712	0.167628	0.1245	0.5685	0.1755	0	11	162	2
2026-02-11	16:28:18.090	-3.22	-0.14	-1.4	0.970144	0.252784	0.162504	0.1305	0.561	0.168	0	11	162	2
2026-02-11	16:28:18.110	-4.025	-0.315	-1.4	0.968924	0.246928	0.160796	0.1335	0.5655	0.171	0	11	162	2
2026-02-11	16:28:18.130	-5.075	-0.665	-1.26	0.969168	0.237656	0.16104	0.1335	0.5655	0.171	0	11	162	2
2026-02-11	16:28:18.150	-5.39	-0.84	-1.12	0.964044	0.235948	0.167628	0.132	0.5595	0.174	0	11	162	2
2026-02-11	16:28:18.170	-5.495	-0.91	-1.085	0.967948	0.232044	0.166652	0.132	0.5535	0.1785	0	11	162	2
2026-02-11	16:28:18.190	-5.705	-0.945	-1.085	0.974292	0.232532	0.168604	0.132	0.5535	0.177	0	11	162	2
2026-02-11	16:28:18.210	-5.985	-0.77	-1.085	0.974292	0.243268	0.173484	0.132	0.5565	0.1725	0	11	165	2
2026-02-11	16:28:18.230	-6.51	-0.735	-1.715	0.983564	0.278892	0.194712	0.129	0.5565	0.174	0	11	165	2
2026-02-11	16:28:18.250	-0.91	0.245	-6.23	1.002108	0.261812	0.295728	0.1305	0.5565	0.1755	0	11	165	2
2026-02-11	16:28:18.270	25.69	4.515	-19.32	1.0553	0.275964	0.438712	0.129	0.5595	0.1725	0	11	165	2
2026-02-11	16:28:18.290	69.335	14.98	-44.345	1.11264	0.54168	0.547048	0.1245	0.558	0.1755	0	11	165	2
2026-02-11	16:28:18.310	106.015	31.745	-82.25	1.173396	0.892308	0.685396	0.1335	0.552	0.165	0	11	165	2
2026-02-11	16:28:18.330	106.47	53.655	-136.36	1.289296	1.295884	0.844972	0.129	0.5535	0.168	0	11	165	2
2026-02-11	16:28:18.350	60.165	78.96	-192.01	1.440088	1.414224	0.85888	0.135	0.5355	0.1665	0	11	165	2
2026-02-11	16:28:18.370	6.895	102.76	-230.405	1.561844	1.491328	0.874496	0.135	0.507	0.1545	0	11	165	2
2026-02-11	16:28:18.390	-34.23	126.595	-257.81	1.5433	1.375916	0.848144	0.1395	0.483	0.144	0	11	165	2
2026-02-11	16:28:18.410	-48.79	147.945	-282.38	1.530368	1.476932	0.815448	0.159	0.4515	0.129	0	20	200	2
2026-02-11	16:28:18.430	-65.695	167.02	-305.9	1.44814	1.477908	0.788852	0.1815	0.4185	0.105	0	20	200	2
2026-02-11	16:28:18.450	-88.62	182.315	-327.6	1.358348	1.525976	0.736392	0.207	0.3885	0.081	0	20	200	2
2026-02-11	16:28:18.470	-115.535	198.24	-346.255	1.286612	1.507676	0.710284	0.2385	0.351	0.054	0	20	200	2
2026-02-11	16:28:18.490	-130.725	210.735	-359.975	1.241472	1.457168	0.69662	0.2565	0.33	0.042	0	20	200	2
2026-02-11	16:28:18.510	-136.815	224	-370.79	1.117764	1.397632	0.656848	0.294	0.306	0.015	0	20	200	2
2026-02-11	16:28:18.530	-143.045	233.52	-379.225	1.054812	1.314428	0.5978	0.3435	0.2895	-0.0105	0	20	200	2
2026-02-11	16:28:18.550	-158.515	248.465	-380.52	0.884744	1.185596	0.43676	0.399	0.276	-0.03	0	20	200	2
2026-02-11	16:28:18.570	-164.535	255.99	-379.225	0.655628	1.004304	0.395036	0.4635	0.2685	-0.054	0	20	200	2
2026-02-11	16:28:18.590	-156.835	256.795	-376.11	0.481168	0.81008	0.408212	0.552	0.273	-0.0825	0	20	200	2
2026-02-11	16:28:18.610	-142.555	251.965	-372.085	0.456036	0.7381	0.30012	0.6135	0.2895	-0.0915	0	50	279	3
2026-02-11	16:28:18.630	-140.42	254.415	-365.995	0.231068	0.551196	0.14762	0.6795	0.303	-0.099	0	50	279	3
2026-02-11	16:28:18.650	-137.97	247.38	-359.975	0.186416	0.440176	0.052216	0.7335	0.3285	-0.1005	0	50	279	3
2026-02-11	16:28:18.670	-125.51	238.735	-352.835	0.101992	0.233508	-0.030256	0.7845	0.366	-0.0915	0	50	279	3
2026-02-11	16:28:18.690	-113.82	224.105	-342.685	-0.03294	0.104432	-0.048068	0.8325	0.405	-0.0735	0	50	279	3
2026-02-11	16:28:18.710	-100.625	207.865	-330.61	-0.052948	0.00854	-0.111508	0.855	0.4245	-0.063	0	50	279	3
2026-02-11	16:28:18.730	-84.42	190.225	-314.51	-0.204472	-0.081252	-0.13298	0.8835	0.468	-0.0495	0	50	279	3
2026-02-11	16:28:18.750	-71.645	164.22	-296.31	-0.134444	-0.166652	-0.104188	0.909	0.507	-0.0285	0	50	279	3
2026-02-11	16:28:18.770	-67.095	117.04	-268.8	-0.194468	-0.386008	-0.142008	0.909	0.507	-0.0285	0	50	279	3
2026-02-11	16:28:18.790	-70.805	85.225	-247.555	-0.21594	-0.511668	-0.27084	0.924	0.57	-0.0045	0	50	279	3
2026-02-11	16:28:18.810	-72.695	55.16	-221.865	-0.263764	-0.60512	-0.358924	0.9465	0.6465	0.0285	0	105	310	3
2026-02-11	16:28:18.830	-78.645	25.235	-185.92	-0.208132	-0.634888	-0.31354	0.945	0.675	0.0405	0	105	310	3
2026-02-11	16:28:18.850	-82.005	-1.47	-141.89	-0.219112	-0.790804	-0.272548	0.939	0.699	0.0435	0	105	310	3
2026-02-11	16:28:18.870	-68.705	-22.505	-101.78	-0.143716	-1.114592	-0.171288	0.939	0.7185	0.0495	0	105	310	3
2026-02-11	16:28:18.890	-27.265	-25.76	-63.98	-0.227896	-1.077504	0.133468	0.9345	0.735	0.048	0	105	310	3
2026-02-11	16:28:18.910	-14.805	-20.58	-31.465	-0.30134	-0.735416	0.083204	0.93	0.741	0.042	0	105	310	3
2026-02-11	16:28:18.930	-18.585	-17.605	-18.865	-0.413824	-0.401868	0.092964	0.924	0.7545	0.0465	0	105	310	3
2026-02-11	16:28:18.950	-34.51	-15.61	-19.565	-0.509228	-0.293044	0.044896	0.9255	0.7455	0.039	0	105	310	3
2026-02-11	16:28:18.970	-27.965	-15.19	-31.22	-0.552904	-0.390156	-0.055632	0.9285	0.7545	0.0435	0	105	310	3
2026-02-11	16:28:18.990	-16.205	-15.925	-36.155	-0.52704	-0.745664	-0.029036	0.9285	0.7545	0.0435	0	105	310	3
2026-02-11	16:28:19.010	-9.695	-14.84	-29.96	-0.537044	-0.980636	0.08906	0.927	0.759	0.039	0	186	264	3
2026-02-11	16:28:19.030	-10.64	-9.485	-19.075	-0.613904	-1.147288	0.211548	0.9195	0.768	0.0375	0	186	264	3
2026-02-11	16:28:19.050	-9.415	-5.635	-9.45	-0.670756	-1.220732	0.2379	0.9165	0.774	0.0375	0	186	264	3
2026-02-11	16:28:19.070	-1.995	0.77	2.1	-0.725412	-0.843996	0.012444	0.9165	0.771	0.0345	0	186	264	3
2026-02-11	16:28:19.090	-6.055	11.305	7.28	-0.761768	-0.676368	0.021228	0.921	0.7725	0.0345	0	186	264	3
2026-02-11	16:28:19.110	-9.135	15.785	8.4	-0.800076	-0.795928	-0.016348	0.93	0.7785	0.0345	0	186	264	3
2026-02-11	16:28:19.130	10.395	12.005	5.215	-0.710772	-0.638304	0.025376	0.918	0.777	0.045	0	186	264	3
2026-02-11	16:28:19.150	-1.26	12.775	1.19	-0.621712	-0.679052	0.061244	0.921	0.768	0.045	0	186	264	3
2026-02-11	16:28:19.170	-12.67	10.045	-0.665	-0.540704	-0.724436	-0.013908	0.9195	0.768	0.042	0	186	264	3
2026-02-11	16:28:19.190	-5.005	-1.085	0.49	-0.503128	-0.727608	-0.06832	0.9195	0.7635	0.0495	0	186	264	3
2026-02-11	16:28:19.210	11.76	-12.145	2.135	-0.528504	-0.741028	0.000732	0.9195	0.7635	0.0465	0	282	198	3
2026-02-11	16:28:19.230	23.31	-11.13	-0.315	-0.590724	-0.749568	0.102236	0.921	0.765	0.042	0	282	198	3
2026-02-11	16:28:19.250	26.67	-11.41	-2.94	-0.648064	-0.804712	0.261812	0.924	0.768	0.0375	0	282	198	3
2026-02-11	16:28:19.270	20.86	-17.465	-5.53	-0.670024	-0.925248	0.002928	0.924	0.771	0.039	0	282	198	3
2026-02-11	16:28:19.290	11.235	-6.755	-4.48	-0.719556	-0.625616	-0.04514	0.921	0.771	0.0375	0	282	198	3
2026-02-11	16:28:19.310	-17.43	2.275	0	-0.753472	-0.94794	0.09028	0.924	0.771	0.039	0	282	198	3
2026-02-11	16:28:19.330	-1.05	4.2	3.85	-0.73322	-0.769088	0.02684	0.9285	0.7725	0.0435	0	282	198	3
2026-02-11	16:28:19.350	-0.42	4.76	3.115	-0.670756	-0.731756	0.144692	0.9195	0.7785	0.0345	0	282	198	3
2026-02-11	16:28:19.370	-18.725	7.455	4.515	-0.60512	-0.783484	0.141032	0.927	0.7725	0.042	0	282	198	3
2026-02-11	16:28:19.390	-22.75	7	8.435	-0.556808	-0.77958	0.108824	0.921	0.774	0.036	0	282	198	3
2026-02-11	16:28:19.410	-19.075	-1.225	16.03	-0.5307	-0.651724	-0.092964	0.9255	0.7635	0.039	0	369	148	3
2026-02-11	16:28:19.430	-19.985	-10.01	15.855	-0.49898	-0.719068	0.038796	0.924	0.765	0.039	0	369	148	3
2026-02-11	16:28:19.450	-10.815	-12.53	17.955	-0.415776	-0.707112	0.299144	0.927	0.7635	0.039	0	369	148	3
2026-02-11	16:28:19.470	3.675	-2.905	23.87	-0.371124	-0.676856	0.481412	0.93	0.7605	0.0405	0	369	148	3
