yyyy-MM-dd	HH:mm:ss.fff	gyrX	gyrY	gyrZ	accX	accY	accZ	magX	magY	magZ	Marker	Energy	Angle	Classification
2026-02-11	16:27:49.610	-0.28	0.07	-0.49	0.038796	-0.00976	1.00772	-0.519	-1.419	-2.778	0	151	1009	1
2026-02-11	16:27:49.630	-0.315	0.035	-0.49	0.033428	-0.011224	1.00406	-0.5235	-1.41	-2.7795	0	151	1009	1
2026-02-11	16:27:49.650	-0.315	0.07	-0.49	0.035868	-0.009516	1.0065	-0.522	-1.413	-2.7825	0	151	1009	1
2026-02-11	16:27:49.670	-0.315	0.105	-0.49	0.03416	-0.008296	1.010404	-0.5175	-1.4145	-2.775	0	151	1009	1
2026-02-11	16:27:49.690	-0.28	0.07	-0.49	0.03172	-0.010248	1.009916	-0.5295	-1.413	-2.781	0	151	1009	1
2026-02-11	16:27:49.710	-0.315	0.07	-0.49	0.033916	-0.006832	1.009428	-0.519	-1.419	-2.7825	0	151	1009	1
2026-02-11	16:27:49.730	-0.28	0.07	-0.525	0.033184	-0.008296	1.009428	-0.5235	-1.41	-2.778	0	151	1009	1
2026-02-11	16:27:49.750	-0.315	0.035	-0.49	0.032208	-0.01098	1.0065	-0.5265	-1.4175	-2.781	0	151	1009	1
2026-02-11	16:27:49.770	-0.315	0.07	-0.49	0.037088	-0.010004	1.009916	-0.519	-1.413	-2.772	0	151	1009	1
2026-02-11	16:27:49.790	-0.315	0.07	-0.525	0.035868	-0.010004	1.006988	-0.5235	-1.419	-2.7825	0	151	1009	1
2026-02-11	16:27:49.810	-0.28	0.07	-0.49	0.033428	-0.008784	1.008208	-0.522	-1.4205	-2.784	0	126	1014	1
2026-02-11	16:27:49.830	-0.315	0.035	-0.525	0.037088	-0.010004	1.0065	-0.5175	-1.419	-2.7735	0	126	1014	1
2026-02-11	16:27:49.850	-0.315	0.07	-0.49	0.033184	-0.0122	1.00528	-0.5205	-1.419	-2.775	0	126	1014	1
2026-02-11	16:27:49.870	-0.315	0.07	-0.56	0.033916	-0.010492	1.008208	-0.522	-1.419	-2.7795	0	126	1014	1
2026-02-11	16:27:49.890	-0.315	0.07	-0.525	0.032696	-0.008296	1.006744	-0.5205	-1.419	-2.781	0	126	1014	1
2026-02-11	16:27:49.910	-0.315	0.035	-0.49	0.033184	-0.010248	1.0065	-0.5205	-1.419	-2.781	0	126	1014	1
2026-02-11	16:27:49.930	-0.315	0.07	-0.49	0.038308	-0.009272	1.008696	-0.5265	-1.4265	-2.781	0	126	1014	1
2026-02-11	16:27:49.950	-0.315	0.07	-0.525	0.032452	-0.00732	1.005036	-0.5235	-1.4205	-2.7735	0	126	1014	1
2026-02-11	16:27:49.970	-0.315	0.07	-0.525	0.032452	-0.009516	1.00406	-0.525	-1.4205	-2.7825	0	126	1014	1
2026-02-11	16:27:49.990	-0.315	0.105	-0.525	0.031476	-0.00976	1.006988	-0.519	-1.4205	-2.778	0	126	1014	1
2026-02-11	16:27:50.010	-0.28	0.07	-0.49	0.036112	-0.008784	1.003816	-0.5175	-1.4175	-2.778	0	106	1018	1
2026-02-11	16:27:50.030	-0.315	0.035	-0.49	0.034648	-0.00732	1.005768	-0.5205	-1.416	-2.7825	0	106	1018	1
2026-02-11	16:27:50.050	-0.28	0.07	-0.525	0.03904	-0.008784	1.007964	-0.519	-1.4175	-2.781	0	106	1018	1
2026-02-11	16:27:50.070	-0.315	0.07	-0.525	0.033916	-0.009272	1.009672	-0.5175	-1.4145	-2.7825	0	106	1018	1
2026-02-11	16:27:50.090	-0.315	0.07	-0.49	0.035136	-0.006344	1.007476	-0.5115	-1.4205	-2.781	0	106	1018	1
2026-02-11	16:27:50.110	-0.315	0.07	-0.49	0.03782	-0.010004	1.0065	-0.5205	-1.4145	-2.7795	0	106	1018	1
2026-02-11	16:27:50.130	-0.315	0.105	-0.49	0.033916	-0.01098	1.007476	-0.516	-1.419	-2.79	0	106	1018	1
2026-02-11	16:27:50.150	-0.315	0.07	-0.525	0.035624	-0.011712	1.005036	-0.5205	-1.4205	-2.769	0	106	1018	1
2026-02-11	16:27:50.170	-0.28	0.07	-0.525	0.035136	-0.007808	1.007476	-0.5265	-1.422	-2.7855	0	106	1018	1
2026-02-11	16:27:50.190	-0.315	0.105	-0.525	0.033428	-0.006344	1.008452	-0.522	-1.419	-2.778	0	106	1018	1
2026-02-11	16:27:50.210	-0.315	0.07	-0.525	0.035624	-0.010004	1.007232	-0.522	-1.416	-2.7795	0	90	1021	1
2026-02-11	16:27:50.230	-0.315	0.07	-0.525	0.036356	-0.011712	1.0065	-0.5205	-1.419	-2.775	0	90	1021	1
2026-02-11	16:27:50.250	-0.35	0.105	-0.525	0.036844	-0.010004	1.004548	-0.5175	-1.425	-2.775	0	90	1021	1
2026-02-11	16:27:50.270	-0.385	0.35	-0.525	0.03172	-0.009516	1.006744	-0.522	-1.4205	-2.7795	0	90	1021	1
2026-02-11	16:27:50.290	-0.315	0.14	-0.49	0.032696	-0.009516	1.009916	-0.5235	-1.4145	-2.775	0	90	1021	1
2026-02-11	16:27:50.310	-0.315	0.07	-0.49	0.037088	-0.009516	1.004304	-0.5205	-1.416	-2.772	0	90	1021	1
2026-02-11	16:27:50.330	-0.28	-0.07	-0.525	0.038308	-0.010736	1.007476	-0.5235	-1.422	-2.7765	0	90	1021	1
2026-02-11	16:27:50.350	-0.315	0	-0.49	0.035868	-0.010004	1.008208	-0.519	-1.4235	-2.7795	0	90	1021	1
2026-02-11	16:27:50.370	-0.28	0.07	-0.49	0.036112	-0.009028	1.008696	-0.5145	-1.422	-2.7795	0	90	1021	1
2026-02-11	16:27:50.390	-0.28	0.035	-0.49	0.034892	-0.011468	1.007476	-0.5205	-1.416	-2.778	0	90	1021	1
2026-02-11	16:27:50.410	-0.315	0	-0.56	0.037088	-0.009272	1.00894	-0.5205	-1.4265	-2.7765	0	76	1023	1
2026-02-11	16:27:50.430	-0.28	0.035	-0.49	0.03904	-0.008296	1.0065	-0.522	-1.419	-2.7855	0	76	1023	1
2026-02-11	16:27:50.450	-0.315	0.07	-0.455	0.035136	-0.009516	1.009184	-0.528	-1.4265	-2.7765	0	76	1023	1
2026-02-11	16:27:50.470	-0.315	0.07	-0.525	0.03172	-0.008052	1.005036	-0.522	-1.422	-2.7735	0	76	1023	1
2026-02-11	16:27:50.490	-0.35	0.105	-0.49	0.030744	-0.007564	1.007476	-0.5205	-1.4235	-2.7825	0	76	1023	1
2026-02-11	16:27:50.510	-0.315	0.07	-0.525	0.032208	-0.006588	1.009184	-0.522	-1.4235	-2.7795	0	76	1023	1
2026-02-11	16:27:50.530	-0.315	0	-0.525	0.032208	-0.011224	1.00772	-0.525	-1.4205	-2.7795	0	76	1023	1
2026-02-11	16:27:50.550	-0.35	0.07	-0.525	0.034648	-0.009516	1.007476	-0.5265	-1.4175	-2.7825	0	76	1023	1
2026-02-11	16:27:50.570	-0.315	0.07	-0.49	0.036844	-0.005368	1.007232	-0.5265	-1.4175	-2.7795	0	76	1023	1
2026-02-11	16:27:50.590	-0.315	0.105	-0.49	0.036356	-0.00732	1.004548	-0.5205	-1.416	-2.7735	0	76	1023	1
2026-02-11	16:27:48.610	-0.315	0	-0.49	0.03416	-0.009516	1.006988	-0.519	-1.4175	-2.7795	0	334	929	1
2026-02-11	16:27:48.630	-0.315	0.035	-0.56	0.035868	-0.011712	1.008208	-0.519	-1.4205	-2.781	0	334	929	1
2026-02-11	16:27:48.650	-0.28	0.035	-0.525	0.033428	-0.007564	1.007232	-0.5205	-1.425	-2.7825	0	334	929	1
2026-02-11	16:27:48.670	-0.315	0.035	-0.455	0.033672	-0.011224	1.006988	-0.525	-1.413	-2.7885	0	334	929	1
2026-02-11	16:27:48.690	-0.315	0.035	-0.525	0.034404	-0.011224	1.007964	-0.5205	-1.4235	-2.7825	0	334	929	1
2026-02-11	16:27:48.710	-0.28	0.07	-0.49	0.036356	-0.011224	1.005524	-0.5175	-1.4205	-2.7885	0	334	929	1
2026-02-11	16:27:48.730	-0.28	0.105	-0.525	0.033428	-0.007564	1.005524	-0.513	-1.4265	-2.7735	0	334	929	1
2026-02-11	16:27:48.750	-0.315	0.105	-0.49	0.032208	-0.010248	1.007964	-0.5265	-1.419	-2.7765	0	334	929	1
2026-02-11	16:27:48.770	-0.28	0.07	-0.49	0.034892	-0.009028	1.007476	-0.5175	-1.4175	-2.784	0	334	929	1
2026-02-11	16:27:48.790	-0.315	0.07	-0.49	0.03782	-0.010004	1.008452	-0.5175	-1.4175	-2.784	0	334	929	1
2026-02-11	16:27:48.810	-0.28	0.035	-0.525	0.035136	-0.008052	1.007964	-0.5205	-1.4175	-2.778	0	294	956	1
2026-02-11	16:27:48.830	-0.315	0.035	-0.525	0.037576	-0.008296	1.006256	-0.525	-1.4175	-2.7735	0	294	956	1
2026-02-11	16:27:48.850	-0.315	0.07	-0.525	0.036356	-0.009028	1.008696	-0.522	-1.4265	-2.7765	0	294	956	1
2026-02-11	16:27:48.870	-0.28	0.035	-0.525	0.038064	-0.009516	1.008452	-0.5205	-1.4145	-2.778	0	294	956	1
2026-02-11	16:27:48.890	-0.315	0.105	-0.49	0.031476	-0.013664	1.00894	-0.5235	-1.422	-2.7765	0	294	956	1
2026-02-11	16:27:48.910	-0.315	0.105	-0.49	0.033184	-0.011224	1.008208	-0.525	-1.4205	-2.778	0	294	956	1
2026-02-11	16:27:48.930	-0.315	0.105	-0.49	0.033428	-0.00854	1.008452	-0.519	-1.4205	-2.781	0	294	956	1
2026-02-11	16:27:48.950	-0.315	0.105	-0.525	0.03172	-0.010004	1.007964	-0.5145	-1.4175	-2.778	0	294	956	1
2026-02-11	16:27:48.970	-0.315	0.07	-0.525	0.03538	-0.010492	1.009184	-0.516	-1.422	-2.781	0	294	956	1
2026-02-11	16:27:48.990	-0.315	0.07	-0.525	0.030744	-0.007564	1.007964	-0.5235	-1.4265	-2.7765	0	294	956	1
2026-02-11	16:27:49.010	-0.315	0.035	-0.525	0.034892	-0.01464	1.003816	-0.5205	-1.4235	-2.7795	0	254	976	1
2026-02-11	16:27:49.030	-0.28	0.035	-0.525	0.03538	-0.010248	1.0065	-0.522	-1.422	-2.781	0	254	976	1
2026-02-11	16:27:49.050	-0.315	0.07	-0.56	0.03904	-0.013908	1.009672	-0.522	-1.4205	-2.7795	0	254	976	1
2026-02-11	16:27:49.070	-0.315	0.035	-0.49	0.03172	-0.008784	1.006744	-0.5235	-1.4175	-2.7825	0	254	976	1
2026-02-11	16:27:49.090	-0.28	0.07	-0.49	0.037576	-0.014396	1.004792	-0.525	-1.4175	-2.7825	0	254	976	1
2026-02-11	16:27:49.110	-0.28	0.07	-0.525	0.035868	-0.007564	1.008208	-0.522	-1.422	-2.781	0	254	976	1
2026-02-11	16:27:49.130	-0.315	0.07	-0.525	0.033672	-0.00976	1.00772	-0.522	-1.4235	-2.781	0	254	976	1
2026-02-11	16:27:49.150	-0.315	0.07	-0.525	0.03294	-0.009028	1.004304	-0.5205	-1.4205	-2.778	0	254	976	1
2026-02-11	16:27:49.170	-0.245	0.07	-0.49	0.03538	-0.00732	1.009184	-0.519	-1.4205	-2.7765	0	254	976	1
2026-02-11	16:27:49.190	-0.28	0	-0.525	0.032208	-0.010736	1.006744	-0.519	-1.4205	-2.7795	0	254	976	1
2026-02-11	16:27:49.210	-0.315	0	-0.525	0.03416	-0.012444	1.008208	-0.5175	-1.4175	-2.7825	0	215	991	1
2026-02-11	16:27:49.230	-0.28	0.035	-0.49	0.036112	-0.005856	1.007476	-0.5145	-1.419	-2.781	0	215	991	1
2026-02-11	16:27:49.250	-0.315	0.07	-0.49	0.030988	-0.007808	1.00772	-0.513	-1.4175	-2.781	0	215	991	1
2026-02-11	16:27:49.270	-0.35	0.035	-0.525	0.03294	-0.011224	1.006988	-0.5205	-1.419	-2.781	0	215	991	1
2026-02-11	16:27:49.290	-0.315	0.07	-0.49	0.0366	-0.011956	1.007232	-0.525	-1.4235	-2.778	0	215	991	1
2026-02-11	16:27:49.310	-0.28	0.07	-0.525	0.034404	-0.008784	1.00528	-0.5205	-1.4205	-2.7795	0	215	991	1
2026-02-11	16:27:49.330	-0.28	0.07	-0.49	0.035136	-0.008784	1.006988	-0.5205	-1.41	-2.7795	0	215	991	1
2026-02-11	16:27:49.350	-0.315	0.07	-0.525	0.0366	-0.010736	1.00894	-0.5235	-1.416	-2.775	0	215	991	1
2026-02-11	16:27:49.370	-0.315	0.07	-0.56	0.036112	-0.011956	1.006988	-0.525	-1.4235	-2.775	0	215	991	1
2026-02-11	16:27:49.390	-0.315	0.035	-0.49	0.035136	-0.007564	1.004304	-0.522	-1.419	-2.7795	0	215	991	1
2026-02-11	16:27:49.410	-0.28	0	-0.49	0.03538	-0.007564	1.008452	-0.522	-1.419	-2.778	0	180	1001	1
2026-02-11	16:27:49.430	-0.315	0.07	-0.525	0.035136	-0.008296	1.004792	-0.522	-1.4205	-2.7765	0	180	1001	1
2026-02-11	16:27:49.450	-0.315	0.035	-0.525	0.035868	-0.01098	1.01016	-0.525	-1.419	-2.7765	0	180	1001	1
2026-02-11	16:27:49.470	-0.315	0.035	-0.525	0.040016	-0.011712	1.0065	-0.522	-1.4175	-2.775	0	180	1001	1
2026-02-11	16:27:49.490	-0.315	0.07	-0.49	0.036844	-0.008052	1.009428	-0.522	-1.4175	-2.775	0	180	1001	1
2026-02-11	16:27:49.510	-0.315	0.07	-0.49	0.033672	-0.010248	1.00772	-0.5265	-1.4175	-2.775	0	180	1001	1
2026-02-11	16:27:49.530	-0.315	0.105	-0.525	0.037088	-0.009516	1.005768	-0.5205	-1.416	-2.778	0	180	1001	1
2026-02-11	16:27:49.550	-0.315	0.105	-0.525	0.037576	-0.009028	1.005768	-0.519	-1.419	-2.778	0	180	1001	1
2026-02-11	16:27:49.570	-0.28	0.07	-0.49	0.03416	-0.008296	1.0065	-0.5205	-1.4205	-2.7765	0	180	1001	1
2026-02-11	16:27:49.590	-0.28	0.07	-0.49	0.033428	-0.009516	1.007232	-0.519	-1.419	-2.778	0	180	1001	1
2026-02-11	16:27:49.610	-0.28	0.07	-0.49	0.038796	-0.00976	1.00772	-0.519	-1.419	-2.778	0	151	1009	1
2026-02-11	16:27:49.630	-0.315	0.035	-0.49	0.033428	-0.011224	1.00406	-0.5235	-1.41	-2.7795	0	151	1009	1
2026-02-11	16:27:49.650	-0.315	0.07	-0.49	0.035868	-0.009516	1.0065	-0.522	-1.413	-2.7825	0	151	1009	1
2026-02-11	16:27:49.670	-0.315	0.105	-0.49	0.03416	-0.008296	1.010404	-0.5175	-1.4145	-2.775	0	151	1009	1
2026-02-11	16:27:49.690	-0.28	0.07	-0.49	0.03172	-0.010248	1.009916	-0.5295	-1.413	-2.781	0	151	1009	1
2026-02-11	16:27:49.710	-0.315	0.07	-0.49	0.033916	-0.006832	1.009428	-0.519	-1.419	-2.7825	0	151	1009	1
2026-02-11	16:27:49.730	-0.28	0.07	-0.525	0.033184	-0.008296	1.009428	-0.5235	-1.41	-2.778	0	151	1009	1
2026-02-11	16:27:49.750	-0.315	0.035	-0.49	0.032208	-0.01098	1.0065	-0.5265	-1.4175	-2.781	0	151	1009	1
2026-02-11	16:27:49.770	-0.315	0.07	-0.49	0.037088	-0.010004	1.009916	-0.519	-1.413	-2.772	0	151	1009	1
2026-02-11	16:27:49.790	-0.315	0.07	-0.525	0.035868	-0.010004	1.006988	-0.5235	-1.419	-2.7825	0	151	1009	1
2026-02-11	16:27:49.810	-0.28	0.07	-0.49	0.033428	-0.008784	1.008208	-0.522	-1.4205	-2.784	0	126	1014	1
2026-02-11	16:27:49.830	-0.315	0.035	-0.525	0.037088	-0.010004	1.0065	-0.5175	-1.419	-2.7735	0	126	1014	1
2026-02-11	16:27:49.850	-0.315	0.07	-0.49	0.033184	-0.0122	1.00528	-0.5205	-1.419	-2.775	0	126	1014	1
2026-02-11	16:27:49.870	-0.315	0.07	-0.56	0.033916	-0.010492	1.008208	-0.522	-1.419	-2.7795	0	126	1014	1
2026-02-11	16:27:49.890	-0.315	0.07	-0.525	0.032696	-0.008296	1.006744	-0.5205	-1.419	-2.781	0	126	1014	1
2026-02-11	16:27:49.910	-0.315	0.035	-0.49	0.033184	-0.010248	1.0065	-0.5205	-1.419	-2.781	0	126	1014	1
2026-02-11	16:27:49.930	-0.315	0.07	-0.49	0.038308	-0.009272	1.008696	-0.5265	-1.4265	-2.781	0	126	1014	1
2026-02-11	16:27:49.950	-0.315	0.07	-0.525	0.032452	-0.00732	1.005036	-0.5235	-1.4205	-2.7735	0	126	1014	1
2026-02-11	16:27:49.970	-0.315	0.07	-0.525	0.032452	-0.009516	1.00406	-0.525	-1.4205	-2.7825	0	126	1014	1
2026-02-11	16:27:49.990	-0.315	0.105	-0.525	0.031476	-0.00976	1.006988	-0.519	-1.4205	-2.778	0	126	1014	1
2026-02-11	16:27:50.010	-0.28	0.07	-0.49	0.036112	-0.008784	1.003816	-0.5175	-1.4175	-2.778	0	106	1018	1
2026-02-11	16:27:50.030	-0.315	0.035	-0.49	0.034648	-0.00732	1.005768	-0.5205	-1.416	-2.7825	0	106	1018	1
2026-02-11	16:27:50.050	-0.28	0.07	-0.525	0.03904	-0.008784	1.007964	-0.519	-1.4175	-2.781	0	106	1018	1
2026-02-11	16:27:50.070	-0.315	0.07	-0.525	0.033916	-0.009272	1.009672	-0.5175	-1.4145	-2.7825	0	106	1018	1
2026-02-11	16:27:50.090	-0.315	0.07	-0.49	0.035136	-0.006344	1.007476	-0.5115	-1.4205	-2.781	0	106	1018	1
2026-02-11	16:27:50.110	-0.315	0.07	-0.49	0.03782	-0.010004	1.0065	-0.5205	-1.4145	-2.7795	0	106	1018	1
2026-02-11	16:27:50.130	-0.315	0.105	-0.49	0.033916	-0.01098	1.007476	-0.516	-1.419	-2.79	0	106	1018	1
2026-02-11	16:27:50.150	-0.315	0.07	-0.525	0.035624	-0.011712	1.005036	-0.5205	-1.4205	-2.769	0	106	1018	1
2026-02-11	16:27:50.170	-0.28	0.07	-0.525	0.035136	-0.007808	1.007476	-0.5265	-1.422	-2.7855	0	106	1018	1
2026-02-11	16:27:50.190	-0.315	0.105	-0.525	0.033428	-0.006344	1.008452	-0.522	-1.419	-2.778	0	106	1018	1
2026-02-11	16:27:50.210	-0.315	0.07	-0.525	0.035624	-0.010004	1.007232	-0.522	-1.416	-2.7795	0	90	1021	1
2026-02-11	16:27:50.230	-0.315	0.07	-0.525	0.036356	-0.011712	1.0065	-0.5205	-1.419	-2.775	0	90	1021	1
2026-02-11	16:27:50.250	-0.35	0.105	-0.525	0.036844	-0.010004	1.004548	-0.5175	-1.425	-2.775	0	90	1021	1
2026-02-11	16:27:50.270	-0.385	0.35	-0.525	0.03172	-0.009516	1.006744	-0.522	-1.4205	-2.7795	0	90	1021	1
2026-02-11	16:27:50.290	-0.315	0.14	-0.49	0.032696	-0.009516	1.009916	-0.5235	-1.4145	-2.775	0	90	1021	1
2026-02-11	16:27:50.310	-0.315	0.07	-0.49	0.037088	-0.009516	1.004304	-0.5205	-1.416	-2.772	0	90	1021	1
2026-02-11	16:27:50.330	-0.28	-0.07	-0.525	0.038308	-0.010736	1.007476	-0.5235	-1.422	-2.7765	0	90	1021	1
2026-02-11	16:27:50.350	-0.315	0	-0.49	0.035868	-0.010004	1.008208	-0.519	-1.4235	-2.7795	0	90	1021	1
2026-02-11	16:27:50.370	-0.28	0.07	-0.49	0.036112	-0.009028	1.008696	-0.5145	-1.422	-2.7795	0	90	1021	1
2026-02-11	16:27:50.390	-0.28	0.035	-0.49	0.034892	-0.011468	1.007476	-0.5205	-1.416	-2.778	0	90	1021	1
2026-02-11	16:27:58.410	-0.315	0.035	-0.49	0.036356	-0.010004	1.006012	-0.522	-1.419	-2.787	0	390	796	1
2026-02-11	16:27:58.430	-0.28	0.035	-0.49	0.034892	-0.008296	1.006744	-0.525	-1.4205	-2.781	0	390	796	1
2026-02-11	16:27:58.450	-0.315	0.035	-0.525	0.034892	-0.007076	1.007232	-0.528	-1.419	-2.7765	0	390	796	1
2026-02-11	16:27:58.470	-0.315	0	-0.525	0.034892	-0.011224	1.010648	-0.528	-1.4145	-2.7765	0	390	796	1
2026-02-11	16:27:58.490	-0.315	0.035	-0.49	0.036844	-0.008296	1.008452	-0.519	-1.419	-2.778	0	390	796	1
2026-02-11	16:27:58.510	-0.315	0.105	-0.525	0.032452	-0.012444	1.008208	-0.5145	-1.4265	-2.7795	0	390	796	1
2026-02-11	16:27:58.530	-0.315	0.035	-0.49	0.0366	-0.009516	1.009672	-0.5235	-1.4205	-2.781	0	390	796	1
2026-02-11	16:27:58.550	-0.28	0.035	-0.525	0.033184	-0.010736	1.00772	-0.525	-1.4145	-2.781	0	390	796	1
2026-02-11	16:27:58.570	-0.35	0.07	-0.49	0.037576	-0.011224	1.008696	-0.5235	-1.4205	-2.7825	0	390	796	1
2026-02-11	16:27:58.590	-0.35	0.105	-0.455	0.03172	-0.006832	1.006012	-0.525	-1.4205	-2.7795	0	390	796	1
2026-02-11	16:27:58.610	-0.35	0.105	-0.49	0.034648	-0.011712	1.009672	-0.516	-1.4175	-2.7765	0	383	859	1
2026-02-11	16:27:58.630	-0.35	0.175	-0.49	0.03172	-0.010004	1.010404	-0.51	-1.4175	-2.778	0	383	859	1
2026-02-11	16:27:58.650	-0.385	0.35	-0.49	0.033184	-0.005856	1.008452	-0.528	-1.416	-2.7795	0	383	859	1
2026-02-11	16:27:58.670	-0.455	0.7	-0.455	0.0366	-0.00732	1.007232	-0.528	-1.416	-2.7795	0	383	859	1
2026-02-11	16:27:58.690	-0.42	0.735	-0.455	0.034648	-0.011224	1.00528	-0.5145	-1.4145	-2.7795	0	383	859	1
2026-02-11	16:27:58.710	-0.385	0.665	-0.49	0.038552	-0.009028	1.005036	-0.5115	-1.419	-2.781	0	383	859	1
2026-02-11	16:27:58.730	-0.385	0.595	-0.49	0.035136	-0.010492	1.005768	-0.519	-1.4205	-2.7825	0	383	859	1
2026-02-11	16:27:58.750	-0.35	0.49	-0.49	0.036356	-0.010492	1.007232	-0.513	-1.4175	-2.781	0	383	859	1
2026-02-11	16:27:58.770	-0.385	0.455	-0.49	0.034404	-0.010492	1.007232	-0.513	-1.4145	-2.7825	0	383	859	1
2026-02-11	16:27:58.790	-0.385	0.42	-0.49	0.032452	-0.009516	1.006988	-0.519	-1.4145	-2.7855	0	383	859	1
2026-02-11	16:27:58.810	-0.385	0.42	-0.49	0.029768	-0.010736	1.008696	-0.5175	-1.4175	-2.787	0	359	905	1
2026-02-11	16:27:58.830	-0.35	0.175	-0.455	0.030988	-0.01098	1.00894	-0.516	-1.416	-2.7855	0	359	905	1
2026-02-11	16:27:58.850	-0.315	0.035	-0.49	0.034892	-0.009516	1.006256	-0.5235	-1.413	-2.7855	0	359	905	1
2026-02-11	16:27:58.870	-0.315	0.105	-0.525	0.03538	-0.012688	1.007964	-0.522	-1.4145	-2.781	0	359	905	1
2026-02-11	16:27:58.890	-0.385	0.385	-0.525	0.035868	-0.008296	1.010892	-0.5175	-1.416	-2.7795	0	359	905	1
2026-02-11	16:27:58.910	-0.35	0.595	-0.49	0.030744	-0.00854	1.00528	-0.519	-1.416	-2.7795	0	359	905	1
2026-02-11	16:27:58.930	-0.315	0.245	-0.525	0.033428	-0.009272	1.009428	-0.522	-1.416	-2.7765	0	359	905	1
2026-02-11	16:27:58.950	-0.35	0.315	-0.525	0.031232	-0.010736	1.007232	-0.5205	-1.419	-2.778	0	359	905	1
2026-02-11	16:27:58.970	-0.35	0.35	-0.49	0.034892	-0.012444	1.004548	-0.519	-1.4205	-2.7795	0	359	905	1
2026-02-11	16:27:58.990	-0.315	0.175	-0.49	0.032452	-0.00854	1.007476	-0.5145	-1.416	-2.775	0	359	905	1
2026-02-11	16:27:59.010	-0.315	0.035	-0.525	0.03172	-0.011224	1.008696	-0.5175	-1.4115	-2.7855	0	322	939	1
2026-02-11	16:27:59.030	-0.315	0	-0.525	0.02806	-0.008784	1.009428	-0.5235	-1.4235	-2.7825	0	322	939	1
2026-02-11	16:27:59.050	-0.315	-0.07	-0.525	0.033428	-0.007808	1.00772	-0.5265	-1.422	-2.784	0	322	939	1
2026-02-11	16:27:59.070	-0.28	-0.07	-0.525	0.031476	-0.008052	1.007476	-0.5205	-1.419	-2.7795	0	322	939	1
2026-02-11	16:27:59.090	-0.28	-0.07	-0.49	0.035868	-0.009516	1.0065	-0.5205	-1.4175	-2.784	0	322	939	1
2026-02-11	16:27:59.110	-0.315	0	-0.525	0.032208	-0.010736	1.008208	-0.513	-1.428	-2.781	0	322	939	1
2026-02-11	16:27:59.130	-0.315	0.14	-0.56	0.033428	-0.007564	1.005768	-0.516	-1.416	-2.7795	0	322	939	1
2026-02-11	16:27:59.150	-0.315	0.105	-0.525	0.030744	-0.009028	1.006744	-0.5175	-1.4055	-2.775	0	322	939	1
2026-02-11	16:27:59.170	-0.35	0.07	-0.49	0.034404	-0.01098	1.007232	-0.5205	-1.413	-2.775	0	322	939	1
2026-02-11	16:27:59.190	-0.35	0.105	-0.525	0.03172	-0.00854	1.0065	-0.5205	-1.4235	-2.778	0	322	939	1
2026-02-11	16:27:59.210	-0.315	0.035	-0.49	0.034892	-0.009272	1.008208	-0.519	-1.4235	-2.7795	0	282	964	1
2026-02-11	16:27:59.230	-0.315	0	-0.525	0.035624	-0.007808	1.008208	-0.522	-1.419	-2.7795	0	282	964	1
2026-02-11	16:27:59.250	-0.315	0.105	-0.525	0.032696	-0.011712	1.005768	-0.5235	-1.416	-2.7825	0	282	964	1
2026-02-11	16:27:59.270	-0.35	0.07	-0.525	0.033184	-0.010736	1.006988	-0.5235	-1.416	-2.7825	0	282	964	1
2026-02-11	16:27:59.290	-0.315	0.07	-0.49	0.032452	-0.00854	1.008696	-0.522	-1.419	-2.7795	0	282	964	1
2026-02-11	16:27:59.310	-0.315	0.07	-0.455	0.0305	-0.010492	1.010404	-0.519	-1.4145	-2.7795	0	282	964	1
2026-02-11	16:27:59.330	-0.315	0.07	-0.49	0.03294	-0.012444	1.00894	-0.519	-1.416	-2.7765	0	282	964	1
2026-02-11	16:27:59.350	-0.315	0.07	-0.49	0.035624	-0.012688	1.006744	-0.519	-1.419	-2.7795	0	282	964	1
2026-02-11	16:27:59.370	-0.315	0	-0.525	0.033184	-0.00732	1.00772	-0.519	-1.4205	-2.7855	0	282	964	1
2026-02-11	16:27:59.390	-0.315	0	-0.525	0.031964	-0.009028	1.01016	-0.5205	-1.4205	-2.7825	0	282	964	1
2026-02-11	16:27:59.410	-0.315	0	-0.49	0.0305	-0.011956	1.005524	-0.516	-1.4175	-2.7855	0	242	981	1
2026-02-11	16:27:59.430	-0.315	0	-0.49	0.03294	-0.0122	1.005768	-0.522	-1.4145	-2.787	0	242	981	1
2026-02-11	16:27:59.450	-0.315	-0.035	-0.525	0.033428	-0.009272	1.006988	-0.5175	-1.4175	-2.7825	0	242	981	1
2026-02-11	16:27:59.470	-0.315	0	-0.525	0.033672	-0.01098	1.009672	-0.516	-1.4145	-2.784	0	242	981	1
2026-02-11	16:27:59.490	-0.315	0	-0.525	0.033916	-0.010736	1.006012	-0.525	-1.419	-2.778	0	242	981	1
2026-02-11	16:27:59.510	-0.315	0.07	-0.525	0.034404	-0.010248	1.010404	-0.522	-1.419	-2.787	0	242	981	1
2026-02-11	16:27:59.530	-0.35	0.07	-0.525	0.03294	-0.009028	1.007476	-0.522	-1.422	-2.7735	0	242	981	1
2026-02-11	16:27:59.550	-0.315	0	-0.49	0.03294	-0.00732	1.008696	-0.519	-1.4265	-2.775	0	242	981	1
2026-02-11	16:27:59.570	-0.315	0	-0.525	0.033672	-0.009272	1.006988	-0.522	-1.4265	-2.778	0	242	981	1
2026-02-11	16:27:59.590	-0.315	-0.105	-0.525	0.032208	-0.009028	1.005768	-0.5235	-1.4205	-2.784	0	242	981	1
2026-02-11	16:27:59.610	-0.28	-0.175	-0.49	0.034892	-0.007808	1.007964	-0.522	-1.416	-2.7825	0	204	995	1
2026-02-11	16:27:59.630	-0.315	-0.175	-0.525	0.03294	-0.00976	1.008208	-0.5205	-1.419	-2.7795	0	204	995	1
2026-02-11	16:27:59.650	-0.315	-0.105	-0.49	0.034648	-0.009272	1.00772	-0.5235	-1.419	-2.7795	0	204	995	1
2026-02-11	16:27:59.670	-0.315	0	-0.525	0.034404	-0.011224	1.006988	-0.5235	-1.416	-2.778	0	204	995	1
2026-02-11	16:27:59.690	-0.315	0.07	-0.525	0.034404	-0.012444	1.007476	-0.5205	-1.416	-2.778	0	204	995	1
2026-02-11	16:27:59.710	-0.315	0.07	-0.525	0.035868	-0.008296	1.00772	-0.5235	-1.419	-2.775	0	204	995	1
2026-02-11	16:27:59.730	-0.315	0	-0.56	0.034648	-0.010736	1.008452	-0.5145	-1.4115	-2.7825	0	204	995	1
2026-02-11	16:27:59.750	-0.315	0.035	-0.525	0.033916	-0.010736	1.007964	-0.525	-1.4115	-2.7795	0	204	995	1
2026-02-11	16:27:59.770	-0.35	0.105	-0.49	0.034404	-0.00854	1.006744	-0.513	-1.4175	-2.7855	0	204	995	1
2026-02-11	16:27:59.790	-0.315	0.07	-0.49	0.027572	-0.008052	1.008696	-0.525	-1.4205	-2.7765	0	204	995	1
2026-02-11	16:27:59.810	-0.315	0	-0.525	0.035136	-0.010248	1.007232	-0.5235	-1.419	-2.7795	0	171	1004	1
2026-02-11	16:27:59.830	-0.315	-0.105	-0.525	0.032452	-0.008052	1.00772	-0.5235	-1.4205	-2.7735	0	171	1004	1
2026-02-11	16:27:59.850	-0.315	-0.105	-0.56	0.034892	-0.008784	1.005036	-0.5235	-1.4205	-2.7735	0	171	1004	1
2026-02-11	16:27:59.870	-0.315	-0.035	-0.56	0.037576	-0.011468	1.010648	-0.5205	-1.4175	-2.7795	0	171	1004	1
2026-02-11	16:27:59.890	-0.315	-0.07	-0.49	0.034648	-0.010004	1.003084	-0.5205	-1.416	-2.7855	0	171	1004	1
2026-02-11	16:27:59.910	-0.28	0	-0.49	0.0366	-0.007076	1.008452	-0.522	-1.4175	-2.787	0	171	1004	1
2026-02-11	16:27:59.930	-0.315	0.035	-0.525	0.033672	-0.010248	1.006744	-0.519	-1.422	-2.784	0	171	1004	1
2026-02-11	16:27:59.950	-0.315	0.07	-0.49	0.033916	-0.009028	1.006256	-0.5175	-1.4265	-2.7795	0	171	1004	1
2026-02-11	16:27:59.970	-0.315	0	-0.49	0.034648	-0.010248	1.005036	-0.5235	-1.4205	-2.778	0	171	1004	1
2026-02-11	16:27:59.990	-0.28	0	-0.49	0.032452	-0.010492	1.011136	-0.5265	-1.422	-2.778	0	171	1004	1
2026-02-11	16:28:00.010	-0.35	0.035	-0.525	0.033184	-0.00854	1.007964	-0.525	-1.428	-2.7795	0	143	1011	1
2026-02-11	16:28:00.030	-0.315	0.035	-0.525	0.033672	-0.008784	1.00528	-0.5265	-1.422	-2.781	0	143	1011	1
2026-02-11	16:28:00.050	-0.315	0.07	-0.49	0.03538	-0.009272	1.00894	-0.525	-1.416	-2.781	0	143	1011	1
2026-02-11	16:28:00.070	-0.315	0	-0.49	0.029524	-0.010248	1.007964	-0.522	-1.413	-2.7795	0	143	1011	1
2026-02-11	16:28:00.090	-0.315	0.07	-0.525	0.030744	-0.008784	1.009672	-0.525	-1.413	-2.781	0	143	1011	1
2026-02-11	16:28:00.110	-0.315	0.14	-0.525	0.034404	-0.011224	1.008208	-0.522	-1.419	-2.781	0	143	1011	1
2026-02-11	16:28:00.130	-0.315	0.105	-0.49	0.029036	-0.011712	1.01016	-0.5175	-1.4235	-2.781	0	143	1011	1
2026-02-11	16:28:00.150	-0.35	0.07	-0.49	0.030256	-0.011224	1.009184	-0.5175	-1.425	-2.781	0	143	1011	1
2026-02-11	16:28:00.170	-0.315	0	-0.525	0.035136	-0.010736	1.005524	-0.5175	-1.425	-2.784	0	143	1011	1
2026-02-11	16:28:00.190	-0.315	0	-0.525	0.03416	-0.010004	1.011868	-0.5235	-1.419	-2.784	0	143	1011	1
2026-02-11	16:28:00.210	-0.28	0	-0.525	0.035136	-0.011956	1.007476	-0.5235	-1.4235	-2.7855	0	119	1016	1
2026-02-11	16:28:00.230	-0.28	0	-0.49	0.03172	-0.01098	1.007964	-0.5205	-1.4205	-2.7855	0	119	1016	1
2026-02-11	16:28:00.250	-0.315	0	-0.49	0.03538	-0.008052	1.008696	-0.5175	-1.4175	-2.7825	0	119	1016	1
2026-02-11	16:28:00.270	-0.315	0	-0.525	0.033428	-0.008052	1.009672	-0.5175	-1.4175	-2.7765	0	119	1016	1
2026-02-11	16:28:00.290	-0.315	0.07	-0.525	0.031964	-0.01098	1.006744	-0.519	-1.4175	-2.7765	0	119	1016	1
2026-02-11	16:28:00.310	-0.315	0.105	-0.525	0.03172	-0.010736	1.0065	-0.516	-1.4175	-2.778	0	119	1016	1
2026-02-11	16:28:00.330	-0.315	0.105	-0.49	0.033184	-0.009028	1.009672	-0.516	-1.4175	-2.778	0	119	1016	1
2026-02-11	16:28:00.350	-0.315	0.07	-0.49	0.032696	-0.008052	1.00772	-0.5205	-1.4175	-2.7765	0	119	1016	1
2026-02-11	16:28:00.370	-0.35	0.105	-0.525	0.03416	-0.007076	1.0065	-0.5235	-1.422	-2.7795	0	119	1016	1
2026-02-11	16:28:00.390	-0.315	0	-0.49	0.03416	-0.00854	1.006988	-0.522	-1.419	-2.781	0	119	1016	1
2026-02-11	16:28:00.410	-0.35	-0.035	-0.525	0.035624	-0.00854	1.007476	-0.519	-1.4145	-2.7765	0	101	1020	1
2026-02-11	16:28:00.430	-0.315	0	-0.49	0.031964	-0.009516	1.006012	-0.5175	-1.4145	-2.775	0	101	1020	1
2026-02-11	16:28:00.450	-0.28	0.07	-0.49	0.032696	-0.0061	1.007964	-0.5175	-1.4145	-2.775	0	101	1020	1
2026-02-11	16:28:00.470	-0.35	0.07	-0.49	0.033428	-0.008296	1.006988	-0.5265	-1.4175	-2.787	0	101	1020	1
2026-02-11	16:28:00.490	-0.315	0.105	-0.525	0.031476	-0.012932	1.0065	-0.5205	-1.413	-2.7825	0	101	1020	1
2026-02-11	16:28:00.510	-0.315	0.105	-0.49	0.03538	-0.011468	1.00772	-0.522	-1.4205	-2.784	0	101	1020	1
2026-02-11	16:28:00.530	-0.315	0.14	-0.49	0.034648	-0.007808	1.007232	-0.5265	-1.4175	-2.7825	0	101	1020	1
2026-02-11	16:28:00.550	-0.35	0.14	-0.525	0.032696	-0.010736	1.008208	-0.5325	-1.4205	-2.7795	0	101	1020	1
2026-02-11	16:28:00.570	-0.315	0.07	-0.525	0.033672	-0.009028	1.008452	-0.5235	-1.416	-2.784	0	101	1020	1
2026-02-11	16:28:00.590	-0.35	0.14	-0.49	0.034648	-0.00732	1.008208	-0.522	-1.416	-2.7855	0	101	1020	1
2026-02-11	16:28:00.610	-0.315	0.35	-0.525	0.0305	-0.010736	1.005768	-0.522	-1.4175	-2.7795	0	85	1023	1
2026-02-11	16:28:00.630	-0.28	-0.035	-0.525	0.02928	-0.007808	1.00772	-0.522	-1.419	-2.772	0	85	1023	1
2026-02-11	16:28:00.650	-0.35	-0.07	-0.525	0.03416	-0.010004	1.00528	-0.5115	-1.4145	-2.7795	0	85	1023	1
2026-02-11	16:28:00.670	-0.35	-0.035	-0.525	0.036112	-0.011224	1.00894	-0.5205	-1.425	-2.769	0	85	1023	1
2026-02-11	16:28:00.690	-0.315	0.07	-0.525	0.034404	-0.008784	1.007476	-0.5325	-1.4175	-2.7795	0	85	1023	1
2026-02-11	16:28:00.710	-0.315	0.035	-0.525	0.035136	-0.007564	1.0065	-0.5265	-1.4235	-2.778	0	85	1023	1
2026-02-11	16:28:00.730	-0.28	0.07	-0.525	0.03294	-0.007564	1.008208	-0.5175	-1.422	-2.781	0	85	1023	1
2026-02-11	16:28:00.750	-0.315	0	-0.455	0.033672	-0.010248	1.005768	-0.528	-1.4205	-2.778	0	85	1023	1
2026-02-11	16:28:00.770	-0.28	0	-0.49	0.029768	-0.011712	1.007964	-0.522	-1.4205	-2.784	0	85	1023	1
2026-02-11	16:28:00.790	-0.315	0	-0.49	0.028792	-0.010492	1.005036	-0.522	-1.422	-2.778	0	85	1023	1
2026-02-11	16:28:00.810	-0.35	0.035	-0.525	0.037332	-0.012444	1.009672	-0.5265	-1.4265	-2.7825	0	72	1025	1
2026-02-11	16:28:00.830	-0.315	0.035	-0.525	0.034892	-0.011712	1.005524	-0.5325	-1.416	-2.7795	0	72	1025	1
2026-02-11	16:28:00.850	-0.35	0.07	-0.56	0.03294	-0.009028	1.006988	-0.525	-1.4235	-2.7735	0	72	1025	1
2026-02-11	16:28:00.870	-0.315	0.035	-0.49	0.03172	-0.009028	1.009916	-0.5235	-1.416	-2.7735	0	72	1025	1
2026-02-11	16:28:00.890	-0.315	0	-0.49	0.029036	-0.011712	1.008696	-0.513	-1.4145	-2.787	0	72	1025	1
2026-02-11	16:28:00.910	-0.28	-0.07	-0.49	0.032452	-0.008784	1.004548	-0.519	-1.419	-2.778	0	72	1025	1
2026-02-11	16:28:00.930	-0.28	-0.14	-0.49	0.034404	-0.011468	1.006012	-0.5235	-1.4205	-2.775	0	72	1025	1
2026-02-11	16:28:00.950	-0.245	-0.21	-0.49	0.031476	-0.01098	1.009916	-0.525	-1.4175	-2.775	0	72	1025	1
2026-02-11	16:28:00.970	-0.28	-0.245	-0.525	0.034892	-0.011224	1.00894	-0.525	-1.4145	-2.7765	0	72	1025	1
2026-02-11	16:28:00.990	-0.28	-0.175	-0.525	0.034648	-0.010492	1.0065	-0.513	-1.4145	-2.775	0	72	1025	1
2026-02-11	16:28:01.010	-0.28	-0.14	-0.49	0.032452	-0.011224	1.010404	-0.519	-1.422	-2.772	0	62	1026	1
2026-02-11	16:28:01.030	-0.315	-0.105	-0.525	0.034648	-0.00854	1.007232	-0.519	-1.419	-2.772	0	62	1026	1
2026-02-11	16:28:01.050	-0.315	0	-0.49	0.033184	-0.0122	1.008452	-0.5205	-1.4175	-2.7765	0	62	1026	1
2026-02-11	16:28:01.070	-0.28	0	-0.49	0.032208	-0.00976	1.008208	-0.522	-1.4205	-2.7795	0	62	1026	1
2026-02-11	16:28:01.090	-0.315	0.07	-0.49	0.035136	-0.009272	1.007964	-0.5145	-1.4205	-2.7795	0	62	1026	1
2026-02-11	16:28:01.110	-0.315	0.07	-0.525	0.034404	-0.010248	1.00772	-0.5145	-1.416	-2.778	0	62	1026	1
2026-02-11	16:28:01.130	-0.315	0.07	-0.49	0.034404	-0.012444	1.007232	-0.5145	-1.4115	-2.7735	0	62	1026	1
2026-02-11	16:28:01.150	-0.315	0.035	-0.49	0.032452	-0.007564	1.007964	-0.507	-1.4145	-2.7735	0	62	1026	1
2026-02-11	16:28:01.170	-0.35	0.035	-0.525	0.032696	-0.007808	1.004304	-0.51	-1.422	-2.7735	0	62	1026	1
2026-02-11	16:28:01.190	-0.315	0	-0.525	0.030988	-0.008052	1.008696	-0.519	-1.4205	-2.772	0	62	1026	1
2026-02-11	16:28:01.210	-0.315	0	-0.49	0.035136	-0.009516	1.007964	-0.5205	-1.419	-2.7735	0	53	1027	1
2026-02-11	16:28:01.230	-0.35	0	-0.49	0.033672	-0.010736	1.006744	-0.522	-1.419	-2.7855	0	53	1027	1
2026-02-11	16:28:01.250	-0.315	0	-0.49	0.035868	-0.008784	1.006012	-0.5145	-1.4145	-2.7765	0	53	1027	1
2026-02-11	16:28:01.270	-0.315	0.07	-0.525	0.032452	-0.01342	1.006012	-0.519	-1.419	-2.778	0	53	1027	1
2026-02-11	16:28:01.290	-0.35	0.07	-0.525	0.035868	-0.010248	1.009428	-0.519	-1.4175	-2.7705	0	53	1027	1
2026-02-11	16:28:01.310	-0.35	0.07	-0.49	0.033916	-0.009028	1.006744	-0.519	-1.416	-2.7645	0	53	1027	1
2026-02-11	16:28:01.330	-0.315	0.035	-0.49	0.036112	-0.009516	1.007964	-0.5175	-1.4175	-2.769	0	53	1027	1
2026-02-11	16:28:01.350	-0.315	0.035	-0.455	0.034648	-0.00854	1.007232	-0.5175	-1.416	-2.775	0	53	1027	1
2026-02-11	16:28:01.370	-0.315	0	-0.49	0.036844	-0.010248	1.004304	-0.5175	-1.4175	-2.778	0	53	1027	1
2026-02-11	16:28:01.390	-0.315	0	-0.525	0.032208	-0.009272	1.006988	-0.516	-1.419	-2.778	0	53	1027	1
2026-02-11	16:28:01.410	-0.315	0.035	-0.525	0.034892	-0.011468	1.006988	-0.513	-1.4175	-2.778	0	46	1028	1
2026-02-11	16:28:01.430	-0.35	0.07	-0.49	0.037088	-0.00854	1.005036	-0.528	-1.419	-2.775	0	46	1028	1
2026-02-11	16:28:01.450	-0.315	0.07	-0.49	0.032696	-0.010736	1.009184	-0.525	-1.419	-2.778	0	46	1028	1
2026-02-11	16:28:01.470	-0.315	0.035	-0.49	0.036356	-0.009516	1.007964	-0.5295	-1.425	-2.778	0	46	1028	1
2026-02-11	16:28:01.490	-0.315	0.07	-0.49	0.034892	-0.00976	1.00528	-0.5145	-1.419	-2.769	0	46	1028	1
2026-02-11	16:28:01.510	-0.315	0.105	-0.525	0.035624	-0.012444	1.00772	-0.525	-1.4175	-2.784	0	46	1028	1
2026-02-11	16:28:01.530	-0.35	0.07	-0.525	0.035624	-0.008784	1.006012	-0.522	-1.4205	-2.7645	0	46	1028	1
2026-02-11	16:28:01.550	-0.385	0.035	-0.56	0.033916	-0.010492	1.008208	-0.5085	-1.4115	-2.772	0	46	1028	1
2026-02-11	16:28:01.570	-0.35	0.035	-0.525	0.036356	-0.008052	1.009672	-0.51	-1.422	-2.775	0	46	1028	1
2026-02-11	16:28:01.590	-0.35	0.07	-0.49	0.033428	-0.011712	1.008696	-0.5115	-1.4175	-2.7735	0	46	1028	1
2026-02-11	16:28:01.610	-0.315	0.035	-0.525	0.033428	-0.008296	1.00894	-0.5145	-1.416	-2.7795	0	40	1029	1
2026-02-11	16:28:01.630	-0.315	0.07	-0.49	0.033184	-0.008052	1.008452	-0.5235	-1.422	-2.7855	0	40	1029	1
2026-02-11	16:28:01.650	-0.35	0.14	-0.49	0.036112	-0.010004	1.0065	-0.5235	-1.425	-2.7765	0	40	1029	1
2026-02-11	16:28:01.670	-0.385	0.175	-0.525	0.038064	-0.0122	1.006256	-0.5205	-1.4205	-2.775	0	40	1029	1
2026-02-11	16:28:01.690	-0.35	0.21	-0.49	0.037088	-0.010736	1.010404	-0.5205	-1.4175	-2.781	0	40	1029	1
2026-02-11	16:28:01.710	-0.385	0.245	-0.49	0.035868	-0.010736	1.008208	-0.519	-1.419	-2.781	0	40	1029	1
2026-02-11	16:28:01.730	-0.35	0.245	-0.49	0.033916	-0.008784	1.007476	-0.519	-1.422	-2.781	0	40	1029	1
2026-02-11	16:28:01.750	-0.385	0.315	-0.455	0.030744	-0.013176	1.005036	-0.519	-1.4235	-2.784	0	40	1029	1
2026-02-11	16:28:01.770	-0.35	0.245	-0.49	0.032696	-0.006588	1.008452	-0.519	-1.4235	-2.784	0	40	1029	1
2026-02-11	16:28:01.790	-0.35	0.175	-0.525	0.033184	-0.010004	1.005036	-0.519	-1.419	-2.7735	0	40	1029	1
2026-02-11	16:28:01.810	-0.35	0.14	-0.525	0.034648	-0.008784	1.008452	-0.5175	-1.419	-2.775	0	34	1029	1
2026-02-11	16:28:01.830	-0.35	0.21	-0.49	0.033916	-0.011956	1.007964	-0.516	-1.4205	-2.775	0	34	1029	1
2026-02-11	16:28:01.850	-0.315	0.175	-0.525	0.034648	-0.007808	1.008696	-0.516	-1.4175	-2.7735	0	34	1029	1
2026-02-11	16:28:01.870	-0.315	0.175	-0.455	0.034648	-0.00854	1.007964	-0.5175	-1.419	-2.769	0	34	1029	1
2026-02-11	16:28:01.890	-0.315	0.105	-0.525	0.030012	-0.011468	1.006988	-0.5145	-1.419	-2.775	0	34	1029	1
2026-02-11	16:28:01.910	-0.315	0.105	-0.525	0.033184	-0.007564	1.00772	-0.516	-1.416	-2.7795	0	34	1029	1
2026-02-11	16:28:01.930	-0.315	0.105	-0.525	0.033672	-0.00976	1.009916	-0.5205	-1.422	-2.7765	0	34	1029	1
2026-02-11	16:28:01.950	-0.315	0.105	-0.525	0.032452	-0.01098	1.007964	-0.5205	-1.425	-2.775	0	34	1029	1
2026-02-11	16:28:01.970	-0.315	0.105	-0.49	0.034404	-0.010736	1.006012	-0.5175	-1.4235	-2.7855	0	34	1029	1
2026-02-11	16:28:01.990	-0.315	0.105	-0.56	0.030744	-0.009272	1.009672	-0.522	-1.41	-2.784	0	34	1029	1
2026-02-11	16:28:02.010	-0.315	0.07	-0.525	0.03416	-0.011468	1.007964	-0.516	-1.416	-2.79	0	30	1029	1
2026-02-11	16:28:02.030	-0.315	0.105	-0.525	0.033428	-0.010248	1.0065	-0.519	-1.4205	-2.7855	0	30	1029	1
2026-02-11	16:28:02.050	-0.315	0.07	-0.525	0.033672	-0.00976	1.00772	-0.5205	-1.4175	-2.769	0	30	1029	1
2026-02-11	16:28:02.070	-0.315	0.07	-0.49	0.032208	-0.0122	1.008452	-0.5205	-1.4175	-2.781	0	30	1029	1
2026-02-11	16:28:02.090	-0.315	0.07	-0.525	0.030012	-0.00976	1.007964	-0.5205	-1.4235	-2.781	0	30	1029	1
2026-02-11	16:28:02.110	-0.315	0.07	-0.49	0.034648	-0.011224	1.005768	-0.5145	-1.419	-2.787	0	30	1029	1
2026-02-11	16:28:02.130	-0.35	0.07	-0.56	0.032696	-0.00976	1.00772	-0.5235	-1.419	-2.7825	0	30	1029	1
2026-02-11	16:28:02.150	-0.315	0.07	-0.455	0.033672	-0.005368	1.007476	-0.519	-1.4115	-2.7795	0	30	1029	1
2026-02-11	16:28:02.170	-0.28	0.105	-0.525	0.030744	-0.01098	1.007476	-0.5175	-1.4115	-2.7795	0	30	1029	1
2026-02-11	16:28:02.190	-0.315	0.07	-0.49	0.032696	-0.010492	1.01016	-0.5145	-1.422	-2.7855	0	30	1029	1
2026-02-11	16:28:02.210	-0.315	0.035	-0.525	0.033916	-0.009028	1.005768	-0.516	-1.419	-2.784	0	26	1030	1
2026-02-11	16:28:02.230	-0.315	0.07	-0.56	0.03172	-0.01098	1.0065	-0.519	-1.4175	-2.784	0	26	1030	1
2026-02-11	16:28:02.250	-0.315	0.07	-0.49	0.03416	-0.005368	1.008208	-0.519	-1.4175	-2.7855	0	26	1030	1
2026-02-11	16:28:02.270	-0.315	0.07	-0.525	0.033672	-0.010736	1.008452	-0.519	-1.413	-2.787	0	26	1030	1
2026-02-11	16:28:02.290	-0.315	0.035	-0.525	0.030988	-0.00976	1.007964	-0.5175	-1.4145	-2.787	0	26	1030	1
2026-02-11	16:28:02.310	-0.315	0.035	-0.56	0.031964	-0.012444	1.007964	-0.5175	-1.4175	-2.7885	0	26	1030	1
2026-02-11	16:28:02.330	-0.35	0.07	-0.525	0.034892	-0.01098	1.00772	-0.5265	-1.413	-2.7885	0	26	1030	1
2026-02-11	16:28:02.350	-0.35	0.07	-0.525	0.03538	-0.008052	1.006012	-0.5235	-1.416	-2.781	0	26	1030	1
2026-02-11	16:28:02.370	-0.35	0.105	-0.49	0.032696	-0.006832	1.008452	-0.5235	-1.4145	-2.793	0	26	1030	1
2026-02-11	16:28:02.390	-0.35	0.105	-0.525	0.034892	-0.011712	1.005524	-0.5265	-1.4145	-2.7825	0	26	1030	1
2026-02-11	16:28:02.410	-0.315	0.07	-0.525	0.033672	-0.011712	1.008696	-0.522	-1.4205	-2.787	0	22	1030	1
2026-02-11	16:28:02.430	-0.35	0.035	-0.49	0.033428	-0.010492	1.00772	-0.522	-1.4265	-2.7795	0	22	1030	1
2026-02-11	16:28:02.450	-0.315	0.035	-0.49	0.032696	-0.00854	1.005036	-0.516	-1.4205	-2.787	0	22	1030	1
2026-02-11	16:28:02.470	-0.315	0.105	-0.49	0.031232	-0.011712	1.00894	-0.5235	-1.4175	-2.787	0	22	1030	1
2026-02-11	16:28:02.490	-0.35	0.07	-0.525	0.033672	-0.010492	1.006256	-0.5235	-1.4175	-2.787	0	22	1030	1
2026-02-11	16:28:02.510	-0.35	0.035	-0.525	0.032452	-0.013908	1.005524	-0.5235	-1.419	-2.7855	0	22	1030	1
2026-02-11	16:28:02.530	-0.315	0.07	-0.49	0.032696	-0.008052	1.007476	-0.5235	-1.419	-2.781	0	22	1030	1
2026-02-11	16:28:02.550	-0.315	0.07	-0.49	0.033428	-0.010248	1.006744	-0.522	-1.416	-2.7825	0	22	1030	1
2026-02-11	16:28:02.570	-0.35	0.105	-0.49	0.03416	-0.010004	1.008696	-0.5235	-1.419	-2.79	0	22	1030	1
2026-02-11	16:28:02.590	-0.315	0.07	-0.525	0.0305	-0.00854	1.006012	-0.519	-1.4205	-2.787	0	22	1030	1
2026-02-11	16:28:02.610	-0.35	0.07	-0.49	0.032452	-0.011712	1.007964	-0.5145	-1.416	-2.781	0	19	1030	1
2026-02-11	16:28:02.630	-0.315	0.07	-0.49	0.033916	-0.012444	1.006012	-0.5175	-1.4145	-2.7795	0	19	1030	1
2026-02-11	16:28:02.650	-0.35	0.035	-0.49	0.031476	-0.010248	1.006744	-0.5205	-1.4205	-2.781	0	19	1030	1
2026-02-11	16:28:02.670	-0.315	0.035	-0.49	0.03416	-0.00732	1.007476	-0.519	-1.4235	-2.7825	0	19	1030	1
2026-02-11	16:28:02.690	-0.315	0.035	-0.49	0.033672	-0.009028	1.007964	-0.5205	-1.419	-2.7825	0	19	1030	1
2026-02-11	16:28:02.710	-0.315	0.035	-0.49	0.031964	-0.010736	1.007476	-0.522	-1.4175	-2.7825	0	19	1030	1
2026-02-11	16:28:02.730	-0.35	0.035	-0.525	0.036356	-0.008052	1.008208	-0.522	-1.413	-2.778	0	19	1030	1
2026-02-11	16:28:02.750	-0.315	0.035	-0.525	0.033672	-0.010492	1.00528	-0.528	-1.4145	-2.7765	0	19	1030	1
2026-02-11	16:28:02.770	-0.315	0.07	-0.525	0.032208	-0.009028	1.007476	-0.5235	-1.4205	-2.778	0	19	1030	1
2026-02-11	16:28:02.790	-0.315	0.07	-0.49	0.035624	-0.01098	1.006988	-0.519	-1.4205	-2.778	0	19	1030	1
2026-02-11	16:28:02.810	-0.35	0.07	-0.49	0.0305	-0.007076	1.007232	-0.525	-1.4175	-2.793	0	17	1030	1
2026-02-11	16:28:02.830	-0.315	0.07	-0.49	0.03172	-0.009028	1.010404	-0.5205	-1.4145	-2.7855	0	17	1030	1
2026-02-11	16:28:02.850	-0.28	0.105	-0.49	0.035136	-0.008052	1.006988	-0.513	-1.4145	-2.778	0	17	1030	1
2026-02-11	16:28:02.870	-0.35	0.07	-0.525	0.035624	-0.010004	1.007476	-0.5145	-1.4145	-2.778	0	17	1030	1
2026-02-11	16:28:02.890	-0.315	0.07	-0.525	0.034648	-0.010492	1.00772	-0.516	-1.4115	-2.778	0	17	1030	1
2026-02-11	16:28:02.910	-0.315	0.07	-0.525	0.030012	-0.007808	1.007964	-0.5145	-1.413	-2.7795	0	17	1030	1
2026-02-11	16:28:02.930	-0.315	0.07	-0.49	0.03538	-0.010004	1.006012	-0.516	-1.4145	-2.7795	0	17	1030	1
2026-02-11	16:28:02.950	-0.35	0.035	-0.525	0.034648	-0.010492	1.006988	-0.516	-1.416	-2.781	0	17	1030	1
2026-02-11	16:28:02.970	-0.35	0.035	-0.525	0.036356	-0.008784	1.008452	-0.519	-1.416	-2.7825	0	17	1030	1
2026-02-11	16:28:02.990	-0.315	0.035	-0.49	0.032696	-0.011956	1.007476	-0.522	-1.416	-2.7795	0	17	1030	1
2026-02-11	16:28:03.010	-0.315	0.035	-0.525	0.033428	-0.008784	1.007476	-0.525	-1.419	-2.781	0	15	1030	1
2026-02-11	16:28:03.030	-0.28	0.035	-0.49	0.033428	-0.00976	1.008208	-0.522	-1.416	-2.7795	0	15	1030	1
2026-02-11	16:28:03.050	-0.315	0	-0.525	0.033672	-0.00976	1.00528	-0.5205	-1.416	-2.778	0	15	1030	1
2026-02-11	16:28:03.070	-0.315	0.07	-0.525	0.033184	-0.006344	1.011136	-0.522	-1.4205	-2.778	0	15	1030	1
2026-02-11	16:28:03.090	-0.315	0.035	-0.49	0.03538	-0.00854	1.009184	-0.522	-1.4235	-2.7825	0	15	1030	1
2026-02-11	16:28:03.110	-0.315	0.035	-0.49	0.034648	-0.011468	1.004792	-0.51	-1.4175	-2.787	0	15	1030	1
2026-02-11	16:28:03.130	-0.315	0.07	-0.49	0.031232	-0.008784	1.008452	-0.5235	-1.4175	-2.7825	0	15	1030	1
2026-02-11	16:28:03.150	-0.315	0.07	-0.455	0.03172	-0.007564	1.011624	-0.5175	-1.4265	-2.7795	0	15	1030	1
2026-02-11	16:28:03.170	-0.35	0.035	-0.49	0.0305	-0.01098	1.007476	-0.516	-1.4145	-2.787	0	15	1030	1
2026-02-11	16:28:03.190	-0.35	0	-0.525	0.036112	-0.009028	1.006744	-0.5295	-1.422	-2.7915	0	15	1030	1
2026-02-11	16:28:03.210	-0.35	0.035	-0.49	0.033184	-0.009272	1.008452	-0.525	-1.4175	-2.784	0	13	1030	1
2026-02-11	16:28:03.230	-0.315	0	-0.49	0.033428	-0.008296	1.00772	-0.522	-1.419	-2.7855	0	13	1030	1
2026-02-11	16:28:03.250	-0.315	0	-0.49	0.03294	-0.009516	1.009184	-0.519	-1.4175	-2.7765	0	13	1030	1
2026-02-11	16:28:03.270	-0.28	0	-0.49	0.03538	-0.008296	1.007964	-0.5175	-1.413	-2.784	0	13	1030	1
2026-02-11	16:28:03.290	-0.315	-0.035	-0.525	0.030012	-0.011956	1.004792	-0.5265	-1.4175	-2.781	0	13	1030	1
2026-02-11	16:28:03.310	-0.28	-0.07	-0.525	0.032452	-0.008296	1.009184	-0.513	-1.422	-2.778	0	13	1030	1
2026-02-11	16:28:03.330	-0.28	-0.14	-0.525	0.031964	-0.009516	1.005524	-0.5175	-1.419	-2.7825	0	13	1030	1
2026-02-11	16:28:03.350	-0.245	-0.175	-0.49	0.030256	-0.014152	1.010404	-0.5175	-1.416	-2.781	0	13	1030	1
2026-02-11	16:28:03.370	-0.245	-0.28	-0.525	0.03416	-0.010004	1.006012	-0.5175	-1.416	-2.781	0	13	1030	1
2026-02-11	16:28:03.390	-0.28	-0.315	-0.49	0.0366	-0.011956	1.008696	-0.525	-1.4175	-2.781	0	13	1030	1
2026-02-11	16:28:03.410	-0.28	-0.21	-0.525	0.035868	-0.007076	1.012844	-0.525	-1.4145	-2.784	0	11	1030	1
2026-02-11	16:28:03.430	-0.315	-0.14	-0.525	0.034404	-0.01098	1.0065	-0.519	-1.4175	-2.781	0	11	1030	1
2026-02-11	16:28:03.450	-0.315	-0.035	-0.525	0.036356	-0.010492	1.007964	-0.537	-1.4145	-2.7825	0	11	1030	1
2026-02-11	16:28:03.470	-0.315	0	-0.49	0.03294	-0.008784	1.01016	-0.528	-1.4235	-2.7885	0	11	1030	1
2026-02-11	16:28:03.490	-0.315	0	-0.455	0.033672	-0.0122	1.007964	-0.5265	-1.419	-2.784	0	11	1030	1
2026-02-11	16:28:03.510	-0.315	0.035	-0.49	0.035868	-0.010492	1.01016	-0.519	-1.419	-2.7765	0	11	1030	1
2026-02-11	16:28:03.530	-0.28	0.07	-0.525	0.035868	-0.010492	1.007964	-0.5235	-1.419	-2.7885	0	11	1030	1
2026-02-11	16:28:03.550	-0.315	0.07	-0.455	0.035136	-0.009028	1.006256	-0.528	-1.419	-2.7795	0	11	1030	1
2026-02-11	16:28:03.570	-0.315	0.035	-0.525	0.034892	-0.009272	1.006256	-0.5205	-1.419	-2.7885	0	11	1030	1
2026-02-11	16:28:03.590	-0.315	0	-0.49	0.033672	-0.01464	1.00528	-0.516	-1.422	-2.7795	0	11	1030	1
2026-02-11	16:28:03.610	-0.35	0	-0.49	0.034648	-0.009516	1.006012	-0.522	-1.419	-2.7795	0	10	1030	1
2026-02-11	16:28:03.630	-0.315	0.035	-0.49	0.0366	-0.008296	1.007476	-0.525	-1.428	-2.7825	0	10	1030	1
2026-02-11	16:28:03.650	-0.315	0.035	-0.525	0.036112	-0.010248	1.008696	-0.525	-1.428	-2.7825	0	10	1030	1
2026-02-11	16:28:03.670	-0.315	0.07	-0.49	0.033916	-0.007076	1.0065	-0.528	-1.4235	-2.7825	0	10	1030	1
2026-02-11	16:28:03.690	-0.315	0.07	-0.525	0.033672	-0.008296	1.007964	-0.528	-1.422	-2.7795	0	10	1030	1
2026-02-11	16:28:03.710	-0.315	0.07	-0.525	0.038064	-0.009516	1.006012	-0.525	-1.422	-2.778	0	10	1030	1
2026-02-11	16:28:03.730	-0.35	0.07	-0.525	0.037088	-0.008296	1.006012	-0.525	-1.4175	-2.7855	0	10	1030	1
2026-02-11	16:28:03.750	-0.35	0.105	-0.525	0.03294	-0.010736	1.00772	-0.522	-1.416	-2.7885	0	10	1030	1
2026-02-11	16:28:03.770	-0.35	0.035	-0.455	0.034648	-0.009272	1.007476	-0.522	-1.419	-2.784	0	10	1030	1
2026-02-11	16:28:03.790	-0.315	0	-0.49	0.034648	-0.007076	1.006012	-0.525	-1.4175	-2.778	0	10	1030	1
2026-02-11	16:28:03.810	-0.315	0	-0.525	0.036356	-0.009516	1.007232	-0.525	-1.4145	-2.7795	0	9	1030	1
2026-02-11	16:28:03.830	-0.315	0	-0.49	0.030256	-0.011956	1.007964	-0.5235	-1.413	-2.787	0	9	1030	1
2026-02-11	16:28:03.850	-0.315	0.035	-0.525	0.032696	-0.00976	1.006988	-0.5235	-1.4115	-2.7855	0	9	1030	1
2026-02-11	16:28:03.870	-0.35	0.035	-0.49	0.033672	-0.00854	1.004792	-0.528	-1.413	-2.781	0	9	1030	1
2026-02-11	16:28:03.890	-0.35	0.035	-0.56	0.035624	-0.01098	1.00528	-0.5235	-1.4175	-2.784	0	9	1030	1
2026-02-11	16:28:03.910	-0.315	0.07	-0.49	0.038796	-0.007564	1.008208	-0.5205	-1.422	-2.775	0	9	1030	1
2026-02-11	16:28:03.930	-0.315	0.07	-0.525	0.03538	-0.008296	1.0065	-0.519	-1.428	-2.7885	0	9	1030	1
2026-02-11	16:28:03.950	-0.315	0.07	-0.525	0.033672	-0.007808	1.008208	-0.5205	-1.4235	-2.784	0	9	1030	1
2026-02-11	16:28:03.970	-0.315	0.07	-0.525	0.033916	-0.010492	1.006256	-0.5235	-1.416	-2.781	0	9	1030	1
2026-02-11	16:28:03.990	-0.315	0.035	-0.525	0.03172	-0.009028	1.006744	-0.5205	-1.416	-2.778	0	9	1030	1
2026-02-11	16:28:04.010	-0.28	0.035	-0.525	0.037332	-0.010004	1.006744	-0.5205	-1.4175	-2.7765	0	8	1030	1
2026-02-11	16:28:04.030	-0.28	0.07	-0.49	0.033916	-0.008052	1.009428	-0.5175	-1.416	-2.7765	0	8	1030	1
2026-02-11	16:28:04.050	-0.28	0.035	-0.525	0.032696	-0.00976	1.007476	-0.513	-1.4145	-2.7795	0	8	1030	1
2026-02-11	16:28:04.070	-0.315	0.035	-0.525	0.035624	-0.008784	1.007964	-0.519	-1.4115	-2.778	0	8	1030	1
2026-02-11	16:28:04.090	-0.315	0.07	-0.49	0.034404	-0.011712	1.006012	-0.5295	-1.4115	-2.772	0	8	1030	1
2026-02-11	16:28:04.110	-0.35	0.07	-0.49	0.036356	-0.011712	1.006988	-0.525	-1.4175	-2.775	0	8	1030	1
2026-02-11	16:28:04.130	-0.315	0.105	-0.525	0.033672	-0.008296	1.008452	-0.5175	-1.4205	-2.781	0	8	1030	1
2026-02-11	16:28:04.150	-0.315	0.035	-0.49	0.032452	-0.01098	1.007964	-0.519	-1.4205	-2.7795	0	8	1030	1
2026-02-11	16:28:04.170	-0.315	0.07	-0.525	0.034892	-0.012688	1.008452	-0.522	-1.4205	-2.7765	0	8	1030	1
2026-02-11	16:28:04.190	-0.28	0.035	-0.56	0.036112	-0.010004	1.005524	-0.5235	-1.4175	-2.7795	0	8	1030	1
2026-02-11	16:28:04.210	-0.35	0	-0.525	0.029036	-0.011468	1.005524	-0.522	-1.419	-2.787	0	7	1030	1
2026-02-11	16:28:04.230	-0.315	0.07	-0.49	0.033916	-0.0061	1.010404	-0.5235	-1.4235	-2.7915	0	7	1030	1
2026-02-11	16:28:04.250	-0.315	0.035	-0.49	0.033672	-0.00854	1.0065	-0.5265	-1.419	-2.781	0	7	1030	1
2026-02-11	16:28:04.270	-0.35	0.035	-0.49	0.03294	-0.010248	1.004548	-0.5265	-1.4145	-2.778	0	7	1030	1
2026-02-11	16:28:04.290	-0.315	0.07	-0.525	0.03904	-0.007808	1.005036	-0.5205	-1.419	-2.781	0	7	1030	1
2026-02-11	16:28:04.310	-0.315	0.105	-0.525	0.038308	-0.00976	1.009672	-0.5205	-1.4175	-2.7795	0	7	1030	1
2026-02-11	16:28:04.330	-0.315	0.035	-0.49	0.036112	-0.0061	1.006256	-0.513	-1.4175	-2.7795	0	7	1030	1
2026-02-11	16:28:04.350	-0.315	0.07	-0.525	0.033184	-0.009516	1.009672	-0.522	-1.425	-2.7825	0	7	1030	1
2026-02-11	16:28:04.370	-0.315	0.035	-0.49	0.032452	-0.011224	1.008452	-0.5265	-1.4205	-2.7795	0	7	1030	1
2026-02-11	16:28:04.390	-0.315	0	-0.525	0.034648	-0.007564	1.007964	-0.5265	-1.416	-2.7795	0	7	1030	1
2026-02-11	16:28:04.410	-0.35	0	-0.49	0.036112	-0.010004	1.0065	-0.5205	-1.419	-2.7825	0	6	1030	1
2026-02-11	16:28:04.430	-0.35	0.07	-0.525	0.032696	-0.01098	1.008452	-0.5235	-1.4145	-2.784	0	6	1030	1
2026-02-11	16:28:04.450	-0.35	0.07	-0.49	0.030988	-0.011956	1.006988	-0.519	-1.413	-2.781	0	6	1030	1
2026-02-11	16:28:04.470	-0.35	0.035	-0.49	0.036356	-0.009028	1.006012	-0.516	-1.4175	-2.778	0	6	1030	1
2026-02-11	16:28:04.490	-0.315	0.035	-0.525	0.0366	-0.00854	1.005768	-0.5205	-1.4205	-2.7795	0	6	1030	1
2026-02-11	16:28:04.510	-0.315	0.105	-0.49	0.030988	-0.009272	1.009184	-0.522	-1.422	-2.781	0	6	1030	1
2026-02-11	16:28:04.530	-0.315	0.07	-0.49	0.036112	-0.010004	1.008452	-0.522	-1.422	-2.781	0	6	1030	1
2026-02-11	16:28:04.550	-0.35	0.035	-0.49	0.033672	-0.008296	1.00772	-0.5205	-1.422	-2.784	0	6	1030	1
2026-02-11	16:28:04.570	-0.315	0	-0.525	0.03416	-0.009272	1.00772	-0.531	-1.416	-2.7795	0	6	1030	1
2026-02-11	16:28:04.590	-0.35	0.07	-0.49	0.03416	-0.0061	1.009184	-0.525	-1.416	-2.7855	0	6	1030	1
2026-02-11	16:28:04.610	-0.315	0.07	-0.525	0.030744	-0.011712	1.006988	-0.516	-1.419	-2.7855	0	6	1030	1
2026-02-11	16:28:04.630	-0.315	0.07	-0.49	0.031232	-0.013908	1.007964	-0.525	-1.416	-2.7795	0	6	1030	1
2026-02-11	16:28:04.650	-0.315	0.07	-0.49	0.03294	-0.00976	1.009184	-0.525	-1.416	-2.784	0	6	1030	1
2026-02-11	16:28:04.670	-0.315	0.035	-0.56	0.035868	-0.012688	1.006012	-0.519	-1.41	-2.781	0	6	1030	1
2026-02-11	16:28:04.690	-0.315	0.07	-0.49	0.036112	-0.010736	1.008208	-0.522	-1.413	-2.7795	0	6	1030	1
2026-02-11	16:28:04.710	-0.315	0.105	-0.49	0.031232	-0.007564	1.01016	-0.522	-1.4145	-2.7795	0	6	1030	1
2026-02-11	16:28:04.730	-0.35	0.07	-0.525	0.035136	-0.00854	1.008696	-0.5235	-1.4085	-2.7825	0	6	1030	1
2026-02-11	16:28:04.750	-0.315	0	-0.525	0.034648	-0.010736	1.006256	-0.5235	-1.4175	-2.787	0	6	1030	1
2026-02-11	16:28:04.770	-0.315	0	-0.525	0.035136	-0.009272	1.00772	-0.5295	-1.419	-2.79	0	6	1030	1
2026-02-11	16:28:04.790	-0.35	0	-0.525	0.036112	-0.013664	1.006988	-0.525	-1.416	-2.7825	0	6	1030	1
2026-02-11	16:28:04.810	-0.315	0.035	-0.525	0.035868	-0.01098	1.006256	-0.5205	-1.416	-2.778	0	5	1030	1
2026-02-11	16:28:04.830	-0.315	0.035	-0.525	0.036112	-0.009516	1.009672	-0.5205	-1.419	-2.781	0	5	1030	1
2026-02-11	16:28:04.850	-0.35	0.07	-0.525	0.033184	-0.010248	1.0065	-0.522	-1.422	-2.7855	0	5	1030	1
2026-02-11	16:28:04.870	-0.35	0.035	-0.525	0.032696	-0.01098	1.01016	-0.525	-1.4115	-2.775	0	5	1030	1
2026-02-11	16:28:04.890	-0.35	0.07	-0.49	0.036844	-0.012932	1.006256	-0.525	-1.4145	-2.7795	0	5	1030	1
2026-02-11	16:28:04.910	-0.35	0.07	-0.49	0.034404	-0.008296	1.007232	-0.5145	-1.416	-2.7825	0	5	1030	1
2026-02-11	16:28:04.930	-0.315	0.07	-0.49	0.0366	-0.008052	1.008696	-0.5205	-1.4145	-2.7765	0	5	1030	1
2026-02-11	16:28:04.950	-0.35	0.035	-0.525	0.0366	-0.010004	1.006988	-0.525	-1.4205	-2.7885	0	5	1030	1
2026-02-11	16:28:04.970	-0.315	0.035	-0.455	0.033916	-0.006588	1.007232	-0.5265	-1.4235	-2.784	0	5	1030	1
2026-02-11	16:28:04.990	-0.315	0.07	-0.525	0.036356	-0.00976	1.008208	-0.5235	-1.4145	-2.784	0	5	1030	1
2026-02-11	16:28:05.010	-0.35	0.105	-0.49	0.036356	-0.00976	1.007964	-0.528	-1.4175	-2.7855	0	5	1030	1
2026-02-11	16:28:05.030	-0.35	0.105	-0.525	0.032696	-0.010736	1.0065	-0.528	-1.4175	-2.778	0	5	1030	1
2026-02-11	16:28:05.050	-0.35	0.035	-0.525	0.035624	-0.008784	1.00894	-0.5295	-1.419	-2.775	0	5	1030	1
2026-02-11	16:28:05.070	-0.35	0.07	-0.525	0.03416	-0.012932	1.007232	-0.531	-1.4115	-2.784	0	5	1030	1
2026-02-11	16:28:05.090	-0.35	0.07	-0.49	0.034648	-0.009028	1.006744	-0.5265	-1.4175	-2.775	0	5	1030	1
2026-02-11	16:28:05.110	-0.315	0.07	-0.49	0.033916	-0.006588	1.009184	-0.525	-1.416	-2.7765	0	5	1030	1
2026-02-11	16:28:05.130	-0.315	0.035	-0.525	0.034892	-0.009516	1.009672	-0.519	-1.4145	-2.7795	0	5	1030	1
2026-02-11	16:28:05.150	-0.315	0.035	-0.49	0.037576	-0.011468	1.00772	-0.516	-1.422	-2.7795	0	5	1030	1
2026-02-11	16:28:05.170	-0.315	0.035	-0.525	0.035136	-0.00854	1.006012	-0.5205	-1.4235	-2.7825	0	5	1030	1
2026-02-11	16:28:05.190	-0.35	0.07	-0.525	0.034404	-0.01098	1.007232	-0.5265	-1.4175	-2.7795	0	5	1030	1
2026-02-11	16:28:05.210	-0.315	0.07	-0.525	0.033672	-0.010248	1.006988	-0.5235	-1.4175	-2.7765	0	5	1030	1
2026-02-11	16:28:05.230	-0.315	0.07	-0.525	0.031964	-0.008784	1.00528	-0.5205	-1.416	-2.778	0	5	1030	1
2026-02-11	16:28:05.250	-0.35	0.035	-0.56	0.034892	-0.009028	1.007476	-0.5175	-1.416	-2.784	0	5	1030	1
2026-02-11	16:28:05.270	-0.315	0.07	-0.49	0.035136	-0.010492	1.006012	-0.522	-1.4175	-2.787	0	5	1030	1
2026-02-11	16:28:05.290	-0.315	0.035	-0.49	0.033184	-0.012444	1.009184	-0.5265	-1.4175	-2.784	0	5	1030	1
2026-02-11	16:28:05.310	-0.315	0.07	-0.49	0.034404	-0.011224	1.01016	-0.5235	-1.4175	-2.7795	0	5	1030	1
2026-02-11	16:28:05.330	-0.35	0.035	-0.49	0.034648	-0.010736	1.00284	-0.5235	-1.419	-2.7765	0	5	1030	1
2026-02-11	16:28:05.350	-0.315	0.07	-0.525	0.038308	-0.007808	1.005524	-0.5235	-1.419	-2.778	0	5	1030	1
2026-02-11	16:28:05.370	-0.315	0.07	-0.49	0.033672	-0.00854	1.007232	-0.5205	-1.422	-2.7795	0	5	1030	1
2026-02-11	16:28:05.390	-0.315	0.07	-0.49	0.033672	-0.008052	1.006988	-0.5205	-1.422	-2.7795	0	5	1030	1
2026-02-11	16:28:05.410	-0.35	0.07	-0.525	0.03294	-0.008784	1.007476	-0.5175	-1.422	-2.781	0	4	1030	1
2026-02-11	16:28:05.430	-0.315	0.07	-0.525	0.035624	-0.006832	1.00772	-0.5235	-1.4205	-2.781	0	4	1030	1
2026-02-11	16:28:05.450	-0.315	0.035	-0.525	0.03416	-0.011468	1.009672	-0.5265	-1.422	-2.781	0	4	1030	1
2026-02-11	16:28:05.470	-0.315	0.07	-0.525	0.031964	-0.010004	1.006744	-0.522	-1.425	-2.7795	0	4	1030	1
2026-02-11	16:28:05.490	-0.315	0.07	-0.525	0.036356	-0.008052	1.005524	-0.522	-1.422	-2.778	0	4	1030	1
2026-02-11	16:28:05.510	-0.35	0.07	-0.49	0.033184	-0.010004	1.009184	-0.525	-1.419	-2.778	0	4	1030	1
2026-02-11	16:28:05.530	-0.315	0.035	-0.49	0.035868	-0.010736	1.008452	-0.522	-1.425	-2.7795	0	4	1030	1
2026-02-11	16:28:05.550	-0.315	0.07	-0.49	0.035868	-0.010004	1.006744	-0.525	-1.422	-2.7765	0	4	1030	1
2026-02-11	16:28:05.570	-0.315	0.035	-0.525	0.033916	-0.011712	1.005036	-0.525	-1.4145	-2.781	0	4	1030	1
2026-02-11	16:28:05.590	-0.28	0.105	-0.49	0.034892	-0.008052	1.00894	-0.519	-1.4145	-2.781	0	4	1030	1
2026-02-11	16:28:05.610	-0.315	0.035	-0.525	0.033184	-0.011712	1.01016	-0.525	-1.419	-2.778	0	4	1030	1
2026-02-11	16:28:05.630	-0.315	0.07	-0.525	0.034648	-0.010492	1.0065	-0.5295	-1.4205	-2.781	0	4	1030	1
2026-02-11	16:28:05.650	-0.315	0.035	-0.49	0.04026	-0.00976	1.010648	-0.525	-1.4205	-2.7765	0	4	1030	1
2026-02-11	16:28:05.670	-0.315	0.07	-0.49	0.032696	-0.010736	1.007476	-0.522	-1.419	-2.7735	0	4	1030	1
2026-02-11	16:28:05.690	-0.35	0.07	-0.49	0.03538	-0.010248	1.006256	-0.522	-1.4175	-2.775	0	4	1030	1
2026-02-11	16:28:05.710	-0.35	0.035	-0.49	0.034892	-0.011956	1.006256	-0.5235	-1.4205	-2.781	0	4	1030	1
2026-02-11	16:28:05.730	-0.315	0.07	-0.42	0.033428	-0.007808	1.007476	-0.5205	-1.422	-2.784	0	4	1030	1
2026-02-11	16:28:05.750	-0.315	0.07	-0.49	0.03294	-0.0061	1.008696	-0.5205	-1.4115	-2.784	0	4	1030	1
2026-02-11	16:28:05.770	-0.315	0.035	-0.49	0.031476	-0.012444	1.008452	-0.5235	-1.413	-2.781	0	4	1030	1
2026-02-11	16:28:05.790	-0.315	0.035	-0.49	0.036112	-0.01098	1.005524	-0.519	-1.419	-2.7765	0	4	1030	1
2026-02-11	16:28:05.810	-0.28	0.07	-0.525	0.0366	-0.007076	1.006744	-0.51	-1.419	-2.7825	0	4	1030	1
2026-02-11	16:28:05.830	-0.315	0.07	-0.49	0.037088	-0.011712	1.0065	-0.5205	-1.425	-2.7795	0	4	1030	1
2026-02-11	16:28:05.850	-0.315	0.035	-0.49	0.034648	-0.009516	1.011624	-0.531	-1.4205	-2.778	0	4	1030	1
2026-02-11	16:28:05.870	-0.315	0.035	-0.525	0.03416	-0.00854	1.007232	-0.5175	-1.419	-2.7735	0	4	1030	1
2026-02-11	16:28:05.890	-0.315	0.07	-0.525	0.035868	-0.009516	1.009184	-0.5175	-1.4175	-2.778	0	4	1030	1
2026-02-11	16:28:05.910	-0.35	0.07	-0.525	0.034648	-0.007808	1.0065	-0.5205	-1.4145	-2.7795	0	4	1030	1
2026-02-11	16:28:05.930	-0.315	0.07	-0.525	0.037332	-0.011468	1.007232	-0.5235	-1.4175	-2.7795	0	4	1030	1
2026-02-11	16:28:05.950	-0.35	0.035	-0.49	0.033184	-0.008296	1.007232	-0.5235	-1.422	-2.784	0	4	1030	1
2026-02-11	16:28:05.970	-0.315	0.035	-0.525	0.035868	-0.008296	1.00772	-0.525	-1.422	-2.7855	0	4	1030	1
2026-02-11	16:28:05.990	-0.35	0.07	-0.525	0.033916	-0.012444	1.006988	-0.525	-1.422	-2.7855	0	4	1030	1
2026-02-11	16:28:06.010	-0.315	0.07	-0.49	0.034404	-0.010004	1.006256	-0.5175	-1.4205	-2.778	0	3	1030	1
2026-02-11	16:28:06.030	-0.315	0.07	-0.525	0.032208	-0.011712	1.0065	-0.522	-1.4265	-2.7765	0	3	1030	1
2026-02-11	16:28:06.050	-0.315	0.07	-0.525	0.034892	-0.005856	1.005768	-0.5295	-1.4235	-2.7885	0	3	1030	1
2026-02-11	16:28:06.070	-0.315	0.035	-0.525	0.033916	-0.007564	1.009916	-0.5175	-1.425	-2.7855	0	3	1030	1
2026-02-11	16:28:06.090	-0.315	0.07	-0.525	0.038064	-0.010004	1.005768	-0.5205	-1.422	-2.7795	0	3	1030	1
2026-02-11	16:28:06.110	-0.315	0.035	-0.49	0.034404	-0.0061	1.00772	-0.516	-1.4145	-2.775	0	3	1030	1
2026-02-11	16:28:06.130	-0.315	0.035	-0.525	0.033916	-0.009516	1.00528	-0.5205	-1.4205	-2.775	0	3	1030	1
2026-02-11	16:28:06.150	-0.315	0.035	-0.49	0.03416	-0.012444	1.007476	-0.5265	-1.4205	-2.778	0	3	1030	1
2026-02-11	16:28:06.170	-0.315	0.07	-0.49	0.03172	-0.00854	1.006256	-0.516	-1.425	-2.778	0	3	1030	1
2026-02-11	16:28:06.190	-0.35	0.07	-0.49	0.032452	-0.007808	1.01016	-0.522	-1.4235	-2.7795	0	3	1030	1
2026-02-11	16:28:06.210	-0.315	0.035	-0.525	0.036356	-0.009516	1.009184	-0.5265	-1.413	-2.7825	0	3	1030	1
2026-02-11	16:28:06.230	-0.315	0.07	-0.49	0.035624	-0.009028	1.008208	-0.5175	-1.419	-2.781	0	3	1030	1
2026-02-11	16:28:06.250	-0.315	0.07	-0.49	0.03416	-0.01342	1.008452	-0.525	-1.425	-2.781	0	3	1030	1
2026-02-11	16:28:06.270	-0.28	0.07	-0.455	0.035136	-0.01098	1.005524	-0.525	-1.425	-2.781	0	3	1030	1
2026-02-11	16:28:06.290	-0.315	0.07	-0.49	0.03538	-0.008784	1.006988	-0.5235	-1.4205	-2.7795	0	3	1030	1
2026-02-11	16:28:06.310	-0.315	0.035	-0.525	0.0366	-0.008052	1.006744	-0.528	-1.4205	-2.775	0	3	1030	1
2026-02-11	16:28:06.330	-0.35	0.035	-0.49	0.035136	-0.009028	1.00894	-0.525	-1.419	-2.775	0	3	1030	1
2026-02-11	16:28:06.350	-0.315	0.07	-0.49	0.0366	-0.009516	1.005036	-0.522	-1.4175	-2.778	0	3	1030	1
2026-02-11	16:28:06.370	-0.35	0.035	-0.49	0.03538	-0.010492	1.0065	-0.525	-1.419	-2.781	0	3	1030	1
2026-02-11	16:28:06.390	-0.315	0.07	-0.525	0.033184	-0.010248	1.008208	-0.5235	-1.419	-2.784	0	3	1030	1
2026-02-11	16:28:06.410	-0.35	0.07	-0.49	0.035624	-0.011224	1.007476	-0.5235	-1.4145	-2.775	0	3	1030	1
2026-02-11	16:28:06.430	-0.315	0.07	-0.49	0.03538	-0.011224	1.005768	-0.525	-1.425	-2.775	0	3	1030	1
2026-02-11	16:28:06.450	-0.315	0.105	-0.49	0.03416	-0.009028	1.006988	-0.519	-1.422	-2.7795	0	3	1030	1
2026-02-11	16:28:06.470	-0.315	0.07	-0.525	0.0366	-0.011468	1.008696	-0.519	-1.4145	-2.7855	0	3	1030	1
2026-02-11	16:28:06.490	-0.315	0.07	-0.49	0.033428	-0.00732	1.00894	-0.525	-1.4235	-2.781	0	3	1030	1
2026-02-11	16:28:06.510	-0.35	0.07	-0.49	0.032452	-0.008784	1.006988	-0.5265	-1.41	-2.7735	0	3	1030	1
2026-02-11	16:28:06.530	-0.28	0.07	-0.49	0.035624	-0.009516	1.0065	-0.513	-1.422	-2.781	0	3	1030	1
2026-02-11	16:28:06.550	-0.35	0.07	-0.49	0.035136	-0.00732	1.005768	-0.522	-1.419	-2.778	0	3	1030	1
2026-02-11	16:28:06.570	-0.315	0.035	-0.525	0.032208	-0.00976	1.00772	-0.5235	-1.4175	-2.778	0	3	1030	1
2026-02-11	16:28:06.590	-0.28	0.035	-0.455	0.036844	-0.007808	1.006988	-0.522	-1.4205	-2.778	0	3	1030	1
2026-02-11	16:28:06.610	-0.315	0.07	-0.49	0.035868	-0.010248	1.008452	-0.5175	-1.419	-2.781	0	3	1030	1
2026-02-11	16:28:06.630	-0.35	0.035	-0.525	0.034892	-0.00976	1.007476	-0.5235	-1.4175	-2.781	0	3	1030	1
2026-02-11	16:28:06.650	-0.315	0.07	-0.49	0.03416	-0.010492	1.005036	-0.5265	-1.4205	-2.775	0	3	1030	1
2026-02-11	16:28:06.670	-0.315	0.07	-0.525	0.035136	-0.008784	1.005524	-0.522	-1.419	-2.7735	0	3	1030	1
2026-02-11	16:28:06.690	-0.315	0.07	-0.525	0.036356	-0.010736	1.01016	-0.5265	-1.416	-2.7795	0	3	1030	1
2026-02-11	16:28:06.710	-0.315	0.07	-0.49	0.036356	-0.009516	1.006744	-0.5235	-1.419	-2.784	0	3	1030	1
2026-02-11	16:28:06.730	-0.315	0.07	-0.49	0.035136	-0.007076	1.008452	-0.519	-1.419	-2.778	0	3	1030	1
2026-02-11	16:28:06.750	-0.35	0.07	-0.525	0.033428	-0.011224	1.008208	-0.5235	-1.4175	-2.7765	0	3	1030	1
2026-02-11	16:28:06.770	-0.315	0.035	-0.525	0.033428	-0.008296	1.006744	-0.5205	-1.419	-2.778	0	3	1030	1
2026-02-11	16:28:06.790	-0.315	0.035	-0.49	0.033672	-0.01098	1.008452	-0.5175	-1.419	-2.7705	0	3	1030	1
2026-02-11	16:28:06.810	-0.35	0.035	-0.49	0.033916	-0.010004	1.008208	-0.522	-1.4205	-2.7735	0	3	1030	1
2026-02-11	16:28:06.830	-0.315	0.07	-0.49	0.033184	-0.011468	1.005036	-0.525	-1.4205	-2.778	0	3	1030	1
2026-02-11	16:28:06.850	-0.315	0.105	-0.525	0.033672	-0.00732	1.0065	-0.5265	-1.419	-2.7765	0	3	1030	1
2026-02-11	16:28:06.870	-0.315	0.07	-0.49	0.034892	-0.006588	1.0065	-0.5205	-1.4205	-2.772	0	3	1030	1
2026-02-11	16:28:06.890	-0.35	0.07	-0.525	0.033916	-0.010736	1.010648	-0.5145	-1.419	-2.784	0	3	1030	1
2026-02-11	16:28:06.910	-0.315	0.035	-0.49	0.033672	-0.009028	1.00528	-0.519	-1.4145	-2.781	0	3	1030	1
2026-02-11	16:28:06.930	-0.35	0.07	-0.455	0.033916	-0.00854	1.008452	-0.522	-1.416	-2.781	0	3	1030	1
2026-02-11	16:28:06.950	-0.315	0.035	-0.525	0.03416	-0.00732	1.007964	-0.522	-1.419	-2.7795	0	3	1030	1
2026-02-11	16:28:06.970	-0.35	0.035	-0.49	0.03538	-0.010736	1.008208	-0.5175	-1.422	-2.7765	0	3	1030	1
2026-02-11	16:28:06.990	-0.28	0.07	-0.49	0.036112	-0.011956	1.009428	-0.519	-1.428	-2.772	0	3	1030	1
2026-02-11	16:28:07.010	-0.28	0.07	-0.525	0.032696	-0.010248	1.0065	-0.5235	-1.4235	-2.7735	0	3	1030	1
2026-02-11	16:28:07.030	-0.35	0.07	-0.525	0.038796	-0.010004	1.009428	-0.5205	-1.4145	-2.781	0	3	1030	1
2026-02-11	16:28:07.050	-0.315	0.035	-0.525	0.033672	-0.010248	1.005768	-0.522	-1.413	-2.781	0	3	1030	1
2026-02-11	16:28:07.070	-0.35	0.07	-0.525	0.03416	-0.008784	1.008208	-0.5235	-1.416	-2.7795	0	3	1030	1
2026-02-11	16:28:07.090	-0.28	0	-0.525	0.032208	-0.00488	1.007964	-0.519	-1.4145	-2.7795	0	3	1030	1
2026-02-11	16:28:07.110	-0.315	0.035	-0.525	0.033672	-0.007076	1.003572	-0.5235	-1.416	-2.781	0	3	1030	1
2026-02-11	16:28:07.130	-0.315	0.105	-0.49	0.038064	-0.008296	1.005768	-0.5205	-1.416	-2.787	0	3	1030	1
2026-02-11	16:28:07.150	-0.315	0.07	-0.525	0.034404	-0.008296	1.008452	-0.525	-1.428	-2.7765	0	3	1030	1
2026-02-11	16:28:07.170	-0.315	0.035	-0.56	0.03294	-0.011224	1.00772	-0.5265	-1.422	-2.778	0	3	1030	1
2026-02-11	16:28:07.190	-0.315	0.07	-0.49	0.03782	-0.011712	1.006988	-0.513	-1.4175	-2.781	0	3	1030	1
2026-02-11	16:28:07.210	-0.315	0.07	-0.525	0.035136	-0.010492	1.008452	-0.522	-1.419	-2.781	0	3	1030	1
2026-02-11	16:28:07.230	-0.35	0.035	-0.49	0.034648	-0.007564	1.004792	-0.5265	-1.4115	-2.7885	0	3	1030	1
2026-02-11	16:28:07.250	-0.315	0.07	-0.49	0.034892	-0.011224	1.006744	-0.525	-1.4295	-2.7885	0	3	1030	1
2026-02-11	16:28:07.270	-0.35	0.07	-0.525	0.035624	-0.00976	1.006744	-0.525	-1.422	-2.79	0	3	1030	1
2026-02-11	16:28:07.290	-0.315	0.07	-0.525	0.034404	-0.00854	1.005524	-0.525	-1.422	-2.79	0	3	1030	1
2026-02-11	16:28:07.310	-0.315	0.07	-0.49	0.035136	-0.007808	1.00406	-0.522	-1.4205	-2.781	0	3	1030	1
2026-02-11	16:28:07.330	-0.315	0.035	-0.525	0.033428	-0.008296	1.007476	-0.5205	-1.416	-2.7795	0	3	1030	1
2026-02-11	16:28:07.350	-0.315	0.035	-0.525	0.036112	-0.011224	1.006744	-0.5205	-1.416	-2.7855	0	3	1030	1
2026-02-11	16:28:07.370	-0.315	0.07	-0.525	0.035624	-0.009516	1.006988	-0.519	-1.4175	-2.784	0	3	1030	1
2026-02-11	16:28:07.390	-0.35	0.035	-0.49	0.033184	-0.007564	1.006988	-0.519	-1.4175	-2.784	0	3	1030	1
2026-02-11	16:28:07.410	-0.315	0.07	-0.525	0.031232	-0.010248	1.007232	-0.5265	-1.4145	-2.781	0	3	1030	1
2026-02-11	16:28:07.430	-0.315	0.035	-0.525	0.033916	-0.011468	1.009672	-0.525	-1.4115	-2.784	0	3	1030	1
2026-02-11	16:28:07.450	-0.28	0.07	-0.49	0.03416	-0.008784	1.009672	-0.522	-1.4235	-2.787	0	3	1030	1
2026-02-11	16:28:07.470	-0.315	0.07	-0.525	0.038552	-0.011712	1.006988	-0.522	-1.419	-2.787	0	3	1030	1
2026-02-11	16:28:07.490	-0.315	0.035	-0.49	0.034892	-0.009272	1.008208	-0.525	-1.4205	-2.784	0	3	1030	1
2026-02-11	16:28:07.510	-0.35	0.035	-0.49	0.033916	-0.010248	1.007232	-0.5265	-1.4205	-2.781	0	3	1030	1
2026-02-11	16:28:07.530	-0.35	0.07	-0.49	0.034404	-0.014152	1.006256	-0.5235	-1.416	-2.781	0	3	1030	1
2026-02-11	16:28:07.550	-0.35	0.07	-0.49	0.038308	-0.00854	1.00772	-0.522	-1.4145	-2.7825	0	3	1030	1
2026-02-11	16:28:07.570	-0.315	0.035	-0.525	0.036356	-0.010248	1.006988	-0.522	-1.4175	-2.781	0	3	1030	1
2026-02-11	16:28:07.590	-0.35	0.07	-0.525	0.033184	-0.008296	1.007476	-0.5235	-1.4235	-2.778	0	3	1030	1
2026-02-11	16:28:07.610	-0.315	0.07	-0.525	0.034404	-0.007564	1.003572	-0.5265	-1.4235	-2.7795	0	3	1030	1
2026-02-11	16:28:07.630	-0.35	0.07	-0.49	0.034648	-0.01098	1.007964	-0.5235	-1.4175	-2.784	0	3	1030	1
2026-02-11	16:28:07.650	-0.35	0	-0.525	0.036844	-0.011468	1.005768	-0.5235	-1.416	-2.784	0	3	1030	1
2026-02-11	16:28:07.670	-0.315	0.035	-0.49	0.031964	-0.010248	1.008452	-0.522	-1.4145	-2.7825	0	3	1030	1
2026-02-11	16:28:07.690	-0.315	0.07	-0.455	0.031964	-0.009516	1.006256	-0.5175	-1.4115	-2.7795	0	3	1030	1
2026-02-11	16:28:07.710	-0.315	0.035	-0.525	0.034892	-0.00976	1.006012	-0.5265	-1.422	-2.7795	0	3	1030	1
2026-02-11	16:28:07.730	-0.315	0.035	-0.525	0.0366	-0.011224	1.004792	-0.5295	-1.4205	-2.778	0	3	1030	1
2026-02-11	16:28:07.750	-0.35	0.035	-0.525	0.039528	-0.00976	1.0065	-0.5205	-1.4175	-2.778	0	3	1030	1
2026-02-11	16:28:07.770	-0.315	0.07	-0.49	0.03782	-0.012688	1.008696	-0.522	-1.4175	-2.784	0	3	1030	1
2026-02-11	16:28:07.790	-0.35	0.07	-0.49	0.03172	-0.008052	1.009184	-0.5265	-1.419	-2.79	0	3	1030	1
2026-02-11	16:28:07.810	-0.315	0.035	-0.49	0.033184	-0.009516	1.006744	-0.5175	-1.413	-2.784	0	3	1030	1
2026-02-11	16:28:07.830	-0.35	0.035	-0.525	0.034892	-0.008784	1.005036	-0.522	-1.422	-2.781	0	3	1030	1
2026-02-11	16:28:07.850	-0.35	0.07	-0.49	0.033672	-0.0122	1.005036	-0.519	-1.4205	-2.7795	0	3	1030	1
2026-02-11	16:28:07.870	-0.315	0.07	-0.525	0.034648	-0.010492	1.00894	-0.519	-1.4235	-2.7795	0	3	1030	1
2026-02-11	16:28:07.890	-0.35	0.035	-0.525	0.034892	-0.009516	1.00772	-0.519	-1.4235	-2.7795	0	3	1030	1
2026-02-11	16:28:07.910	-0.315	0.035	-0.525	0.031476	-0.006832	1.007964	-0.5205	-1.4205	-2.778	0	3	1030	1
2026-02-11	16:28:07.930	-0.245	0.035	-0.49	0.036112	-0.00854	1.01138	-0.516	-1.416	-2.781	0	3	1030	1
2026-02-11	16:28:07.950	-0.315	0.07	-0.49	0.033184	-0.0122	1.006256	-0.5235	-1.4205	-2.778	0	3	1030	1
2026-02-11	16:28:07.970	-0.315	0.035	-0.56	0.03416	-0.011712	1.006988	-0.5265	-1.4205	-2.781	0	3	1030	1
2026-02-11	16:28:07.990	-0.28	0	-0.49	0.037576	-0.00854	1.00528	-0.522	-1.4175	-2.7855	0	3	1030	1
2026-02-11	16:28:08.010	-0.28	0.105	-0.49	0.035868	-0.009272	1.007964	-0.5205	-1.4205	-2.784	0	3	1030	1
2026-02-11	16:28:08.030	-0.35	0.07	-0.49	0.035868	-0.011224	1.006988	-0.522	-1.4145	-2.778	0	3	1030	1
2026-02-11	16:28:08.050	-0.35	0.07	-0.49	0.032452	-0.008784	1.008696	-0.5205	-1.4265	-2.781	0	3	1030	1
2026-02-11	16:28:08.070	-0.315	0.07	-0.49	0.037576	-0.007808	1.011624	-0.5205	-1.419	-2.7795	0	3	1030	1
2026-02-11	16:28:08.090	-0.315	0	-0.49	0.039772	-0.009516	1.006012	-0.5175	-1.4205	-2.784	0	3	1030	1
2026-02-11	16:28:08.110	-0.35	0.035	-0.49	0.03782	-0.0122	1.00406	-0.5175	-1.4205	-2.784	0	3	1030	1
2026-02-11	16:28:08.130	-0.35	0.14	-0.525	0.031964	-0.009028	1.011624	-0.519	-1.422	-2.7855	0	3	1030	1
2026-02-11	16:28:08.150	-0.35	0.035	-0.525	0.030744	-0.008052	1.01016	-0.522	-1.422	-2.7825	0	3	1030	1
2026-02-11	16:28:08.170	-0.35	0	-0.525	0.036356	-0.008052	1.005768	-0.5235	-1.4175	-2.7765	0	3	1030	1
2026-02-11	16:28:08.190	-0.315	0.07	-0.56	0.038064	-0.00976	1.005524	-0.5265	-1.4205	-2.7795	0	3	1030	1
2026-02-11	16:28:08.210	-0.315	0.14	-0.525	0.033428	-0.009272	1.011624	-0.5235	-1.4235	-2.7855	0	3	1030	1
2026-02-11	16:28:08.230	-0.35	0.035	-0.525	0.032452	-0.008784	1.006744	-0.516	-1.4205	-2.7855	0	3	1030	1
2026-02-11	16:28:08.250	-0.315	0.07	-0.49	0.035868	-0.008784	1.007232	-0.513	-1.4205	-2.7825	0	3	1030	1
2026-02-11	16:28:08.270	-0.315	0.07	-0.525	0.03538	-0.008784	1.0065	-0.5205	-1.419	-2.781	0	3	1030	1
2026-02-11	16:28:08.290	-0.315	0.07	-0.525	0.033428	-0.00854	1.006988	-0.5205	-1.419	-2.781	0	3	1030	1
2026-02-11	16:28:08.310	-0.35	0.035	-0.49	0.031964	-0.008052	1.008208	-0.522	-1.4175	-2.7825	0	3	1030	1
2026-02-11	16:28:08.330	-0.35	0.035	-0.49	0.036112	-0.009028	1.010648	-0.5265	-1.4145	-2.7855	0	3	1030	1
2026-02-11	16:28:08.350	-0.315	0.07	-0.49	0.032208	-0.006344	1.00772	-0.5235	-1.4175	-2.784	0	3	1030	1
2026-02-11	16:28:08.370	-0.315	0.035	-0.49	0.03782	-0.009272	1.005524	-0.5175	-1.416	-2.784	0	3	1030	1
2026-02-11	16:28:08.390	-0.315	0.07	-0.49	0.033184	-0.010492	1.006256	-0.5205	-1.413	-2.7825	0	3	1030	1
2026-02-11	16:28:08.410	-0.35	0.07	-0.525	0.0366	-0.006588	1.008696	-0.528	-1.4145	-2.7795	0	3	1030	1
2026-02-11	16:28:08.430	-0.315	0.07	-0.455	0.034404	-0.009516	1.005036	-0.525	-1.419	-2.7795	0	3	1030	1
2026-02-11	16:28:08.450	-0.315	0.07	-0.49	0.033184	-0.011468	1.009184	-0.5235	-1.4205	-2.7765	0	3	1030	1
2026-02-11	16:28:08.470	-0.35	0.07	-0.525	0.035868	-0.010248	1.00528	-0.528	-1.413	-2.7765	0	3	1030	1
2026-02-11	16:28:08.490	-0.35	0.07	-0.49	0.036356	-0.00854	1.00894	-0.525	-1.4145	-2.7795	0	3	1030	1
2026-02-11	16:28:08.510	-0.315	0.035	-0.49	0.034648	-0.010004	1.006744	-0.5235	-1.4145	-2.781	0	3	1030	1
2026-02-11	16:28:08.530	-0.315	0.07	-0.49	0.030988	-0.00854	1.006744	-0.5235	-1.4175	-2.784	0	3	1030	1
2026-02-11	16:28:08.550	-0.315	0.07	-0.49	0.034404	-0.011956	1.006744	-0.5205	-1.422	-2.7825	0	3	1030	1
2026-02-11	16:28:08.570	-0.315	0.035	-0.49	0.033916	-0.0122	1.004304	-0.5235	-1.4205	-2.784	0	3	1030	1
2026-02-11	16:28:08.590	-0.315	0.07	-0.525	0.038796	-0.008052	1.008452	-0.528	-1.4175	-2.787	0	3	1030	1
2026-02-11	16:28:08.610	-0.35	0.07	-0.525	0.032208	-0.010736	1.006988	-0.522	-1.416	-2.781	0	3	1030	1
2026-02-11	16:28:08.630	-0.315	0.07	-0.525	0.03416	-0.007076	1.006012	-0.519	-1.4205	-2.772	0	3	1030	1
2026-02-11	16:28:08.650	-0.28	0.035	-0.49	0.037332	-0.00732	1.007232	-0.5205	-1.419	-2.778	0	3	1030	1
2026-02-11	16:28:08.670	-0.35	0.035	-0.525	0.03538	-0.00732	1.007476	-0.519	-1.4145	-2.787	0	3	1030	1
2026-02-11	16:28:08.690	-0.35	0.035	-0.525	0.03538	-0.00732	1.00772	-0.519	-1.4145	-2.787	0	3	1030	1
2026-02-11	16:28:08.710	-0.35	0.035	-0.525	0.033672	-0.010492	1.008696	-0.519	-1.4235	-2.778	0	3	1030	1
2026-02-11	16:28:08.730	-0.315	0.07	-0.525	0.033184	-0.012444	1.009672	-0.522	-1.4235	-2.772	0	3	1030	1
2026-02-11	16:28:08.750	-0.315	0.105	-0.525	0.035868	-0.010004	1.008208	-0.525	-1.419	-2.778	0	3	1030	1
2026-02-11	16:28:08.770	-0.35	0.035	-0.525	0.034648	-0.011468	1.005524	-0.5205	-1.4205	-2.7825	0	3	1030	1
2026-02-11	16:28:08.790	-0.315	0.07	-0.525	0.032452	-0.010248	1.009428	-0.516	-1.4235	-2.7855	0	3	1030	1
2026-02-11	16:28:08.810	-0.35	0.07	-0.49	0.035624	-0.009272	1.007476	-0.525	-1.4205	-2.7765	0	3	1030	1
2026-02-11	16:28:08.830	-0.315	0.07	-0.525	0.03782	-0.009272	1.006012	-0.5175	-1.413	-2.7735	0	3	1030	1
2026-02-11	16:28:08.850	-0.315	0.07	-0.49	0.037088	-0.010004	1.007476	-0.519	-1.4175	-2.7855	0	3	1030	1
2026-02-11	16:28:08.870	-0.315	0.07	-0.525	0.033916	-0.011224	1.006988	-0.5265	-1.4175	-2.778	0	3	1030	1
2026-02-11	16:28:08.890	-0.315	0.035	-0.525	0.0366	-0.009516	1.005768	-0.5175	-1.416	-2.778	0	3	1030	1
2026-02-11	16:28:08.910	-0.315	0.035	-0.525	0.037088	-0.00488	1.006988	-0.519	-1.4145	-2.7795	0	3	1030	1
2026-02-11	16:28:08.930	-0.315	0.035	-0.525	0.038552	-0.007564	1.010892	-0.522	-1.4175	-2.7825	0	3	1030	1
2026-02-11	16:28:08.950	-0.315	0.07	-0.525	0.034892	-0.008296	1.008452	-0.522	-1.416	-2.7795	0	3	1030	1
2026-02-11	16:28:08.970	-0.315	0.07	-0.525	0.03172	-0.006588	1.004304	-0.5235	-1.4115	-2.778	0	3	1030	1
2026-02-11	16:28:08.990	-0.35	0.07	-0.49	0.036112	-0.010004	1.00894	-0.5235	-1.4175	-2.784	0	3	1030	1
2026-02-11	16:28:09.010	-0.315	0.07	-0.525	0.037088	-0.007808	1.004792	-0.5235	-1.416	-2.7765	0	3	1030	1
2026-02-11	16:28:09.030	-0.315	0.07	-0.525	0.035624	-0.00976	1.009672	-0.525	-1.4235	-2.7795	0	3	1030	1
2026-02-11	16:28:09.050	-0.315	0.07	-0.525	0.036112	-0.005856	1.007232	-0.5205	-1.4175	-2.7825	0	3	1030	1
2026-02-11	16:28:09.070	-0.315	0.035	-0.49	0.037088	-0.009028	1.006012	-0.525	-1.422	-2.7855	0	3	1030	1
2026-02-11	16:28:09.090	-0.315	0.07	-0.49	0.032452	-0.00976	1.00772	-0.531	-1.4175	-2.7795	0	3	1030	1
2026-02-11	16:28:09.110	-0.315	0.07	-0.49	0.036844	-0.011956	1.008452	-0.525	-1.422	-2.781	0	3	1030	1
2026-02-11	16:28:09.130	-0.35	0.07	-0.49	0.038552	-0.011712	1.006744	-0.5205	-1.416	-2.778	0	3	1030	1
2026-02-11	16:28:09.150	-0.315	0.035	-0.525	0.033672	-0.008052	1.005524	-0.516	-1.4175	-2.7825	0	3	1030	1
2026-02-11	16:28:09.170	-0.315	0.035	-0.525	0.033672	-0.009516	1.005768	-0.513	-1.4115	-2.7795	0	3	1030	1
2026-02-11	16:28:09.190	-0.315	0.07	-0.525	0.034892	-0.008784	1.008208	-0.5205	-1.416	-2.7795	0	3	1030	1
2026-02-11	16:28:09.210	-0.35	0.07	-0.49	0.035624	-0.011468	1.00772	-0.5265	-1.419	-2.778	0	3	1030	1
2026-02-11	16:28:09.230	-0.315	0.07	-0.525	0.034404	-0.009272	1.009672	-0.5175	-1.4145	-2.784	0	3	1030	1
2026-02-11	16:28:09.250	-0.315	0.07	-0.56	0.03538	-0.006588	1.008208	-0.5175	-1.4145	-2.784	0	3	1030	1
2026-02-11	16:28:09.270	-0.35	0.035	-0.525	0.033428	-0.00976	1.007964	-0.519	-1.416	-2.781	0	3	1030	1
2026-02-11	16:28:09.290	-0.315	0.035	-0.56	0.036356	-0.009272	1.00406	-0.5235	-1.416	-2.7795	0	3	1030	1
2026-02-11	16:28:09.310	-0.315	0.07	-0.49	0.038552	-0.011224	1.011136	-0.5235	-1.416	-2.781	0	3	1030	1
2026-02-11	16:28:09.330	-0.35	0.07	-0.49	0.034648	-0.008052	1.006012	-0.519	-1.4175	-2.781	0	3	1030	1
2026-02-11	16:28:09.350	-0.35	0.07	-0.49	0.035136	-0.010248	1.007476	-0.5175	-1.4175	-2.781	0	3	1030	1
2026-02-11	16:28:09.370	-0.315	0.035	-0.49	0.03782	-0.0061	1.006012	-0.519	-1.4175	-2.781	0	3	1030	1
2026-02-11	16:28:09.390	-0.315	0.035	-0.56	0.036356	-0.009272	1.009184	-0.5205	-1.419	-2.781	0	3	1030	1
2026-02-11	16:28:09.410	-0.35	0.07	-0.49	0.031964	-0.010736	1.006256	-0.5145	-1.416	-2.7795	0	3	1030	1
2026-02-11	16:28:09.430	-0.315	0.07	-0.525	0.033428	-0.008052	1.00894	-0.522	-1.419	-2.778	0	3	1030	1
2026-02-11	16:28:09.450	-0.315	0.035	-0.525	0.032452	-0.009028	1.007232	-0.5235	-1.4175	-2.784	0	3	1030	1
2026-02-11	16:28:09.470	-0.315	0.035	-0.525	0.032696	-0.010004	1.008696	-0.51	-1.416	-2.772	0	3	1030	1
2026-02-11	16:28:09.490	-0.35	0.07	-0.49	0.035136	-0.010248	1.006744	-0.5325	-1.4205	-2.7855	0	3	1030	1
2026-02-11	16:28:09.510	-0.315	0.07	-0.525	0.03294	-0.007564	1.009672	-0.5145	-1.4205	-2.7855	0	3	1030	1
2026-02-11	16:28:09.530	-0.35	0.035	-0.525	0.035136	-0.00854	1.005768	-0.5235	-1.4205	-2.778	0	3	1030	1
2026-02-11	16:28:09.550	-0.35	0.07	-0.525	0.032208	-0.008296	1.00894	-0.5235	-1.4205	-2.778	0	3	1030	1
2026-02-11	16:28:09.570	-0.315	0.035	-0.49	0.03416	-0.005368	1.006744	-0.519	-1.4205	-2.781	0	3	1030	1
2026-02-11	16:28:09.590	-0.35	0.035	-0.455	0.036112	-0.006832	1.007964	-0.516	-1.4205	-2.781	0	3	1030	1
2026-02-11	16:28:09.610	-0.315	0.07	-0.525	0.03538	-0.011956	1.007232	-0.519	-1.4175	-2.781	0	3	1030	1
2026-02-11	16:28:09.630	-0.315	0.07	-0.525	0.03538	-0.008784	1.008452	-0.525	-1.416	-2.7825	0	3	1030	1
2026-02-11	16:28:09.650	-0.35	0.035	-0.49	0.033916	-0.010004	1.00894	-0.528	-1.4175	-2.7825	0	3	1030	1
2026-02-11	16:28:09.670	-0.315	0.035	-0.49	0.035868	-0.010004	1.008696	-0.5235	-1.4175	-2.778	0	3	1030	1
2026-02-11	16:28:09.690	-0.315	0.07	-0.525	0.035136	-0.008052	1.00772	-0.519	-1.4175	-2.775	0	3	1030	1
2026-02-11	16:28:09.710	-0.35	0.035	-0.49	0.03538	-0.010004	1.009428	-0.519	-1.413	-2.781	0	3	1030	1
2026-02-11	16:28:09.730	-0.35	0.07	-0.525	0.036112	-0.010736	1.008452	-0.519	-1.413	-2.784	0	3	1030	1
2026-02-11	16:28:09.750	-0.315	0.07	-0.49	0.037332	-0.010736	1.00772	-0.519	-1.4175	-2.778	0	3	1030	1
2026-02-11	16:28:09.770	-0.35	0.035	-0.49	0.035136	-0.012444	1.006744	-0.5205	-1.419	-2.775	0	3	1030	1
2026-02-11	16:28:09.790	-0.315	0.07	-0.525	0.03538	-0.00976	1.008208	-0.522	-1.4175	-2.7765	0	3	1030	1
2026-02-11	16:28:09.810	-0.315	0.07	-0.49	0.03782	-0.00732	1.006744	-0.5235	-1.4175	-2.781	0	3	1030	1
2026-02-11	16:28:09.830	-0.315	0.07	-0.49	0.034892	-0.006344	1.007232	-0.5235	-1.4175	-2.781	0	3	1030	1
2026-02-11	16:28:09.850	-0.315	0.035	-0.49	0.031476	-0.010492	1.0065	-0.522	-1.4175	-2.781	0	3	1030	1
2026-02-11	16:28:09.870	-0.315	0.07	-0.49	0.031232	-0.007564	1.009428	-0.5235	-1.419	-2.7855	0	3	1030	1
2026-02-11	16:28:09.890	-0.315	0.07	-0.49	0.033184	-0.01098	1.010892	-0.5115	-1.416	-2.775	0	3	1030	1
2026-02-11	16:28:09.910	-0.35	0.07	-0.525	0.035136	-0.011956	1.005768	-0.5235	-1.422	-2.781	0	3	1030	1
2026-02-11	16:28:09.930	-0.35	0.035	-0.525	0.033916	-0.010248	1.009916	-0.525	-1.416	-2.781	0	3	1030	1
2026-02-11	16:28:09.950	-0.35	0.035	-0.49	0.036844	-0.010248	1.00528	-0.5235	-1.413	-2.781	0	3	1030	1
2026-02-11	16:28:09.970	-0.35	0.07	-0.49	0.033184	-0.008784	1.00528	-0.5175	-1.4175	-2.778	0	3	1030	1
2026-02-11	16:28:09.990	-0.315	0.035	-0.49	0.036356	-0.009272	1.004792	-0.5175	-1.4175	-2.775	0	3	1030	1
2026-02-11	16:28:10.010	-0.35	0.035	-0.525	0.038064	-0.009028	1.00894	-0.519	-1.4145	-2.778	0	3	1030	1
2026-02-11	16:28:10.030	-0.315	0.035	-0.49	0.03416	-0.009272	1.008208	-0.5205	-1.416	-2.778	0	3	1030	1
2026-02-11	16:28:10.050	-0.35	0.07	-0.525	0.03538	-0.008784	1.006256	-0.522	-1.4145	-2.7795	0	3	1030	1
2026-02-11	16:28:10.070	-0.35	0.07	-0.49	0.03416	-0.008784	1.00772	-0.519	-1.4145	-2.778	0	3	1030	1
2026-02-11	16:28:10.090	-0.315	0.07	-0.49	0.035868	-0.010736	1.008208	-0.519	-1.419	-2.781	0	3	1030	1
2026-02-11	16:28:10.110	-0.35	0.07	-0.49	0.034404	-0.00854	1.007232	-0.519	-1.4205	-2.784	0	3	1030	1
2026-02-11	16:28:10.130	-0.35	0.07	-0.49	0.030744	-0.010248	1.003572	-0.5235	-1.416	-2.7825	0	3	1030	1
2026-02-11	16:28:10.150	-0.315	0.07	-0.525	0.03538	-0.006832	1.005524	-0.5235	-1.419	-2.7795	0	3	1030	1
2026-02-11	16:28:10.170	-0.315	0.035	-0.525	0.033428	-0.006832	1.01016	-0.5265	-1.4145	-2.7825	0	3	1030	1
2026-02-11	16:28:10.190	-0.315	0.035	-0.525	0.035868	-0.011468	1.004304	-0.528	-1.413	-2.79	0	3	1030	1
2026-02-11	16:28:10.210	-0.315	0.035	-0.525	0.030988	-0.010004	1.006744	-0.5175	-1.4205	-2.7795	0	3	1030	1
2026-02-11	16:28:10.230	-0.35	0.07	-0.49	0.033916	-0.009272	1.009184	-0.5175	-1.419	-2.778	0	3	1030	1
2026-02-11	16:28:10.250	-0.315	0.07	-0.525	0.036112	-0.009028	1.006256	-0.5175	-1.416	-2.778	0	3	1030	1
2026-02-11	16:28:10.270	-0.385	0.07	-0.525	0.02928	-0.011712	1.007476	-0.5175	-1.416	-2.7735	0	3	1030	1
2026-02-11	16:28:10.290	-0.315	0.07	-0.49	0.03416	-0.010492	1.00894	-0.5235	-1.4265	-2.7765	0	3	1030	1
2026-02-11	16:28:10.310	-0.35	0.07	-0.49	0.038552	-0.00854	1.007964	-0.525	-1.41	-2.7735	0	3	1030	1
2026-02-11	16:28:10.330	-0.35	0.07	-0.525	0.0366	-0.013176	1.00528	-0.519	-1.416	-2.775	0	3	1030	1
2026-02-11	16:28:10.350	-0.35	0.105	-0.49	0.034892	-0.00854	1.009184	-0.5235	-1.4205	-2.7855	0	3	1030	1
2026-02-11	16:28:10.370	-0.315	0.07	-0.525	0.032452	-0.01342	1.007476	-0.5145	-1.416	-2.778	0	3	1030	1
2026-02-11	16:28:10.390	-0.315	0.07	-0.49	0.035868	-0.008784	1.012356	-0.5145	-1.416	-2.778	0	3	1030	1
2026-02-11	16:28:10.410	-0.35	0.035	-0.525	0.036844	-0.006344	1.009672	-0.5175	-1.413	-2.7795	0	3	1030	1
2026-02-11	16:28:10.430	-0.35	0.035	-0.525	0.03294	-0.007808	0.998204	-0.5205	-1.41	-2.7825	0	3	1030	1
2026-02-11	16:28:10.450	-0.28	0.07	-0.49	0.035868	-0.010492	1.012356	-0.5175	-1.416	-2.7855	0	3	1030	1
2026-02-11	16:28:10.470	-0.35	0.07	-0.49	0.034648	-0.010248	1.008452	-0.5205	-1.4205	-2.7735	0	3	1030	1
2026-02-11	16:28:10.490	-0.315	0.035	-0.525	0.035624	-0.009272	1.004548	-0.519	-1.4175	-2.775	0	3	1030	1
2026-02-11	16:28:10.510	-0.35	0.105	-0.49	0.033184	-0.007808	1.007964	-0.519	-1.419	-2.781	0	3	1030	1
2026-02-11	16:28:10.530	-0.315	0.035	-0.49	0.034404	-0.009028	1.008696	-0.5235	-1.422	-2.7765	0	3	1030	1
2026-02-11	16:28:10.550	-0.35	0.035	-0.49	0.036356	-0.010248	1.004548	-0.519	-1.419	-2.784	0	3	1030	1
2026-02-11	16:28:10.570	-0.315	0.07	-0.49	0.038796	-0.008052	1.008452	-0.519	-1.4235	-2.781	0	3	1030	1
2026-02-11	16:28:10.590	-0.315	0.07	-0.49	0.034648	-0.00976	1.008208	-0.519	-1.4145	-2.781	0	3	1030	1
2026-02-11	16:28:10.610	-0.35	0.035	-0.49	0.03538	-0.006588	1.007232	-0.5205	-1.4145	-2.7795	0	3	1030	1
2026-02-11	16:28:10.630	-0.315	0.035	-0.49	0.038552	-0.010248	1.00894	-0.5235	-1.419	-2.7795	0	3	1030	1
2026-02-11	16:28:10.650	-0.315	0.07	-0.49	0.036356	-0.007808	1.006744	-0.522	-1.4235	-2.778	0	3	1030	1
2026-02-11	16:28:10.670	-0.315	0.07	-0.49	0.032208	-0.010736	1.01016	-0.528	-1.4175	-2.784	0	3	1030	1
2026-02-11	16:28:10.690	-0.315	0	-0.49	0.037088	-0.011956	1.008208	-0.525	-1.4175	-2.781	0	3	1030	1
2026-02-11	16:28:10.710	-0.35	0.035	-0.525	0.038552	-0.00854	1.007232	-0.519	-1.416	-2.7765	0	3	1030	1
2026-02-11	16:28:10.730	-0.315	0.07	-0.49	0.0366	-0.010492	1.011868	-0.5205	-1.416	-2.775	0	3	1030	1
2026-02-11	16:28:10.750	-0.35	0.07	-0.49	0.037332	-0.010248	1.008696	-0.5235	-1.419	-2.7795	0	3	1030	1
2026-02-11	16:28:10.770	-0.315	0.035	-0.49	0.033672	-0.00976	1.007476	-0.522	-1.416	-2.781	0	3	1030	1
2026-02-11	16:28:10.790	-0.385	0.07	-0.455	0.032208	-0.012688	1.008452	-0.5205	-1.416	-2.7795	0	3	1030	1
2026-02-11	16:28:10.810	-0.315	0.07	-0.455	0.033184	-0.00854	1.006256	-0.5205	-1.419	-2.778	0	3	1030	1
2026-02-11	16:28:10.830	-0.315	0.035	-0.525	0.033672	-0.009272	1.007964	-0.519	-1.4145	-2.7765	0	3	1030	1
2026-02-11	16:28:10.850	-0.35	0.035	-0.525	0.035136	-0.011468	1.00772	-0.5205	-1.413	-2.7795	0	3	1030	1
2026-02-11	16:28:10.870	-0.35	0.07	-0.525	0.034892	-0.010248	1.008452	-0.522	-1.416	-2.778	0	3	1030	1
2026-02-11	16:28:10.890	-0.315	0.07	-0.49	0.036356	-0.00854	1.006012	-0.5205	-1.4175	-2.7765	0	3	1030	1
2026-02-11	16:28:10.910	-0.315	0.07	-0.49	0.037088	-0.00854	1.006012	-0.5205	-1.416	-2.781	0	3	1030	1
2026-02-11	16:28:10.930	-0.315	0.035	-0.525	0.034648	-0.009272	1.006744	-0.5235	-1.416	-2.7825	0	3	1030	1
2026-02-11	16:28:10.950	-0.35	0.07	-0.49	0.033184	-0.011468	1.0065	-0.528	-1.4145	-2.7795	0	3	1030	1
2026-02-11	16:28:10.970	-0.315	0.035	-0.49	0.032696	-0.011956	1.008696	-0.531	-1.416	-2.7795	0	3	1030	1
2026-02-11	16:28:10.990	-0.35	0.105	-0.49	0.033184	-0.009028	1.009672	-0.525	-1.416	-2.7765	0	3	1030	1
2026-02-11	16:28:11.010	-0.315	0.035	-0.49	0.031232	-0.01342	1.007476	-0.5145	-1.4145	-2.778	0	3	1030	1
2026-02-11	16:28:11.030	-0.315	0.07	-0.525	0.035868	-0.008784	1.00894	-0.5175	-1.413	-2.784	0	3	1030	1
2026-02-11	16:28:11.050	-0.35	0.07	-0.49	0.035624	-0.011712	1.006988	-0.5235	-1.4115	-2.7825	0	3	1030	1
2026-02-11	16:28:11.070	-0.35	0.07	-0.455	0.033672	-0.010492	1.005524	-0.5175	-1.413	-2.781	0	3	1030	1
2026-02-11	16:28:11.090	-0.35	0.105	-0.49	0.030256	-0.0122	1.008208	-0.5175	-1.4205	-2.778	0	3	1030	1
2026-02-11	16:28:11.110	-0.315	0.07	-0.49	0.033428	-0.00732	1.01016	-0.519	-1.4205	-2.784	0	3	1030	1
2026-02-11	16:28:11.130	-0.35	0	-0.525	0.036844	-0.011468	1.005036	-0.5205	-1.413	-2.784	0	3	1030	1
2026-02-11	16:28:11.150	-0.35	0.07	-0.525	0.035136	-0.007076	1.008452	-0.5235	-1.4175	-2.778	0	3	1030	1
2026-02-11	16:28:11.170	-0.315	0.07	-0.525	0.036356	-0.007808	1.007964	-0.519	-1.422	-2.778	0	3	1030	1
2026-02-11	16:28:11.190	-0.35	0.035	-0.49	0.035868	-0.012932	1.00894	-0.519	-1.4175	-2.7825	0	3	1030	1
2026-02-11	16:28:11.210	-0.315	0.07	-0.49	0.034404	-0.008052	1.006744	-0.525	-1.416	-2.784	0	3	1030	1
2026-02-11	16:28:11.230	-0.315	0.07	-0.49	0.035868	-0.008296	1.00894	-0.5265	-1.4175	-2.7825	0	3	1030	1
2026-02-11	16:28:11.250	-0.35	0.035	-0.49	0.03172	-0.007564	1.00406	-0.528	-1.4205	-2.7825	0	3	1030	1
2026-02-11	16:28:11.270	-0.315	0.035	-0.525	0.033428	-0.008296	1.00772	-0.5205	-1.4175	-2.7795	0	3	1030	1
2026-02-11	16:28:11.290	-0.35	0.07	-0.525	0.033672	-0.011956	1.008208	-0.525	-1.422	-2.7795	0	3	1030	1
2026-02-11	16:28:11.310	-0.315	0.035	-0.525	0.034892	-0.010248	1.006256	-0.5265	-1.419	-2.7825	0	3	1030	1
2026-02-11	16:28:11.330	-0.35	0.035	-0.49	0.035868	-0.007808	1.006988	-0.5235	-1.4265	-2.781	0	3	1030	1
2026-02-11	16:28:11.350	-0.315	0.07	-0.49	0.033916	-0.008052	1.009428	-0.522	-1.419	-2.784	0	3	1030	1
2026-02-11	16:28:11.370	-0.315	0.07	-0.49	0.037332	-0.00732	1.008452	-0.5145	-1.422	-2.775	0	3	1030	1
2026-02-11	16:28:11.390	-0.35	0.035	-0.525	0.036844	-0.009516	1.0065	-0.522	-1.419	-2.7855	0	3	1030	1
2026-02-11	16:28:11.410	-0.35	0.07	-0.525	0.03416	-0.009028	1.003816	-0.513	-1.4175	-2.775	0	3	1030	1
2026-02-11	16:28:11.430	-0.35	0.07	-0.525	0.034648	-0.01098	1.00772	-0.522	-1.4205	-2.7825	0	3	1030	1
2026-02-11	16:28:11.450	-0.315	0.07	-0.525	0.033916	-0.009272	1.006988	-0.5175	-1.413	-2.7795	0	3	1030	1
2026-02-11	16:28:11.470	-0.35	0.07	-0.525	0.033916	-0.01098	1.008208	-0.516	-1.4205	-2.784	0	3	1030	1
2026-02-11	16:28:11.490	-0.315	0.07	-0.525	0.03416	-0.01098	1.008208	-0.5205	-1.422	-2.778	0	3	1030	1
2026-02-11	16:28:11.510	-0.315	0.035	-0.525	0.035136	-0.009516	1.005768	-0.5205	-1.4175	-2.781	0	3	1030	1
2026-02-11	16:28:11.530	-0.315	0.07	-0.49	0.033916	-0.00976	1.006988	-0.522	-1.413	-2.784	0	3	1030	1
2026-02-11	16:28:11.550	-0.35	0.07	-0.49	0.036844	-0.01098	1.007964	-0.522	-1.413	-2.784	0	3	1030	1
2026-02-11	16:28:11.570	-0.315	0.035	-0.49	0.036356	-0.008296	1.009428	-0.525	-1.419	-2.787	0	3	1030	1
2026-02-11	16:28:11.590	-0.315	0.035	-0.49	0.03538	-0.011468	1.006744	-0.522	-1.419	-2.7795	0	3	1030	1
2026-02-11	16:28:11.610	-0.315	0.035	-0.49	0.034404	-0.011468	1.00406	-0.5205	-1.4145	-2.7885	0	3	1030	1
2026-02-11	16:28:11.630	-0.315	0.035	-0.525	0.036356	-0.007076	1.009184	-0.516	-1.4175	-2.784	0	3	1030	1
2026-02-11	16:28:11.650	-0.315	0.07	-0.49	0.031964	-0.01098	1.00772	-0.516	-1.4175	-2.787	0	3	1030	1
2026-02-11	16:28:11.670	-0.28	0.07	-0.49	0.038308	-0.011224	1.005768	-0.5325	-1.419	-2.787	0	3	1030	1
2026-02-11	16:28:11.690	-0.315	0.035	-0.49	0.034648	-0.008296	1.010404	-0.5205	-1.413	-2.7795	0	3	1030	1
2026-02-11	16:28:11.710	-0.315	0	-0.525	0.035868	-0.009516	1.0065	-0.525	-1.4265	-2.7855	0	3	1030	1
2026-02-11	16:28:11.730	-0.315	0.035	-0.49	0.03904	-0.010736	1.00528	-0.525	-1.4175	-2.7855	0	3	1030	1
2026-02-11	16:28:11.750	-0.315	0.07	-0.525	0.035136	-0.010248	1.00772	-0.519	-1.419	-2.7855	0	3	1030	1
2026-02-11	16:28:11.770	-0.35	0.035	-0.49	0.03416	-0.010492	1.010648	-0.528	-1.428	-2.7855	0	3	1030	1
2026-02-11	16:28:11.790	-0.315	0	-0.49	0.030744	-0.007808	1.005768	-0.525	-1.422	-2.7855	0	3	1030	1
2026-02-11	16:28:11.810	-0.35	0.07	-0.525	0.033428	-0.011468	1.007964	-0.528	-1.4145	-2.7855	0	3	1030	1
2026-02-11	16:28:11.830	-0.35	0.035	-0.525	0.033916	-0.010004	1.009184	-0.5265	-1.4145	-2.7825	0	3	1030	1
2026-02-11	16:28:11.850	-0.315	0.035	-0.49	0.034892	-0.010004	1.007964	-0.522	-1.4145	-2.781	0	3	1030	1
2026-02-11	16:28:11.870	-0.315	0.07	-0.49	0.031964	-0.00976	1.008452	-0.5235	-1.4175	-2.7765	0	3	1030	1
2026-02-11	16:28:11.890	-0.315	0.035	-0.525	0.034404	-0.00976	1.00894	-0.5235	-1.4205	-2.7765	0	3	1030	1
2026-02-11	16:28:11.910	-0.28	0.105	-0.49	0.040748	-0.01098	0.992348	-0.5265	-1.419	-2.7825	0	3	1030	1
2026-02-11	16:28:11.930	-0.315	0.21	-0.49	0.017568	-0.008784	1.028216	-0.525	-1.419	-2.784	0	3	1030	1
2026-02-11	16:28:11.950	-0.385	-0.175	-0.49	0.047824	-0.00366	0.983076	-0.519	-1.416	-2.787	0	3	1030	1
2026-02-11	16:28:11.970	-0.28	0.14	-0.56	0.031232	-0.014884	1.01626	-0.5235	-1.413	-2.784	0	3	1030	1
2026-02-11	16:28:11.990	-0.315	0	-0.525	0.039772	-0.006344	1.000644	-0.519	-1.419	-2.7825	0	3	1030	1
2026-02-11	16:28:12.010	-0.35	0.07	-0.525	0.026596	-0.008296	1.019432	-0.519	-1.422	-2.7795	0	3	1030	1
2026-02-11	16:28:12.030	-0.315	0.14	-0.525	0.032208	-0.007564	0.996252	-0.525	-1.419	-2.778	0	3	1030	1
2026-02-11	16:28:12.050	-0.315	0.035	-0.455	0.030744	-0.010492	1.018212	-0.5265	-1.422	-2.7825	0	3	1030	1
2026-02-11	16:28:12.070	-0.35	0.035	-0.49	0.038796	-0.00976	1.000888	-0.525	-1.419	-2.784	0	3	1030	1
2026-02-11	16:28:12.090	-0.35	0.07	-0.49	0.036356	-0.009516	1.005524	-0.5235	-1.4145	-2.775	0	3	1030	1
2026-02-11	16:28:12.110	-0.28	0	-0.455	0.035624	-0.009516	1.003816	-0.5235	-1.4145	-2.775	0	3	1030	1
2026-02-11	16:28:12.130	-0.385	0.105	-0.49	0.031964	-0.011712	1.011624	-0.5205	-1.416	-2.778	0	3	1030	1
2026-02-11	16:28:12.150	-0.28	0	-0.49	0.039772	-0.008784	1.000888	-0.516	-1.419	-2.7825	0	3	1030	1
2026-02-11	16:28:12.170	-0.35	0.035	-0.49	0.032696	-0.009516	1.010648	-0.519	-1.4205	-2.7825	0	3	1030	1
2026-02-11	16:28:12.190	-0.28	0.07	-0.49	0.035136	-0.007808	1.009184	-0.5235	-1.419	-2.784	0	3	1030	1
2026-02-11	16:28:12.210	-0.35	0.035	-0.525	0.03538	-0.010248	1.006988	-0.522	-1.4145	-2.7825	0	3	1030	1
2026-02-11	16:28:12.230	-0.28	0	-0.525	0.036844	-0.007564	1.006256	-0.5205	-1.4115	-2.781	0	3	1030	1
2026-02-11	16:28:12.250	-0.35	0.105	-0.49	0.03294	-0.00976	1.014308	-0.5205	-1.416	-2.7825	0	3	1030	1
2026-02-11	16:28:12.270	-0.315	0	-0.49	0.036844	-0.005856	0.99918	-0.519	-1.419	-2.7825	0	3	1030	1
2026-02-11	16:28:12.290	-0.35	0.14	-0.49	0.034404	-0.010492	1.009672	-0.522	-1.419	-2.7795	0	3	1030	1
2026-02-11	16:28:12.310	-0.35	0.105	-0.525	0.031964	-0.009028	1.009428	-0.5265	-1.416	-2.7795	0	3	1030	1
2026-02-11	16:28:12.330	-0.385	0.035	-0.49	0.032696	-0.008784	1.004792	-0.525	-1.416	-2.7795	0	3	1030	1
2026-02-11	16:28:12.350	-0.315	0.07	-0.49	0.03294	-0.010492	1.007476	-0.525	-1.4205	-2.781	0	3	1030	1
2026-02-11	16:28:12.370	-0.35	0.07	-0.525	0.040992	-0.010248	1.009184	-0.5205	-1.419	-2.7825	0	3	1030	1
2026-02-11	16:28:12.390	-0.315	0.07	-0.525	0.032208	-0.007808	1.008696	-0.516	-1.416	-2.7825	0	3	1030	1
2026-02-11	16:28:12.410	-0.315	0.035	-0.525	0.033672	-0.00732	1.010404	-0.528	-1.416	-2.787	0	3	1030	1
2026-02-11	16:28:12.430	-0.28	0.035	-0.525	0.035624	-0.006832	1.010648	-0.522	-1.4115	-2.784	0	3	1030	1
2026-02-11	16:28:12.450	-0.35	0.105	-0.49	0.033428	-0.008052	1.011868	-0.5175	-1.422	-2.781	0	3	1030	1
2026-02-11	16:28:12.470	-0.28	0	-0.49	0.034648	-0.00854	1.003328	-0.5175	-1.4115	-2.784	0	3	1030	1
2026-02-11	16:28:12.490	-0.35	0.14	-0.525	0.033184	-0.010736	1.012844	-0.5235	-1.419	-2.7855	0	3	1030	1
2026-02-11	16:28:12.510	-0.35	0.035	-0.49	0.038552	-0.0122	1.005768	-0.5265	-1.4205	-2.79	0	3	1030	1
2026-02-11	16:28:12.530	-0.35	0.07	-0.49	0.035136	-0.011224	1.009184	-0.528	-1.419	-2.7855	0	3	1030	1
2026-02-11	16:28:12.550	-0.28	0.035	-0.525	0.03416	-0.007564	1.002108	-0.5235	-1.4145	-2.7825	0	3	1030	1
2026-02-11	16:28:12.570	-0.385	0.105	-0.525	0.032696	-0.010492	1.011868	-0.519	-1.4145	-2.7825	0	3	1030	1
2026-02-11	16:28:12.590	-0.315	0.035	-0.525	0.03416	-0.00732	1.0004	-0.5205	-1.4175	-2.787	0	3	1030	1
2026-02-11	16:28:12.610	-0.35	0.07	-0.525	0.035868	-0.009516	1.010404	-0.522	-1.4145	-2.7855	0	3	1030	1
2026-02-11	16:28:12.630	-0.315	0.07	-0.49	0.036844	-0.012444	1.00406	-0.525	-1.416	-2.781	0	3	1030	1
2026-02-11	16:28:12.650	-0.35	0.07	-0.525	0.032696	-0.009272	1.008696	-0.5265	-1.419	-2.7825	0	3	1030	1
2026-02-11	16:28:12.670	-0.28	0.035	-0.525	0.033672	-0.006344	1.003572	-0.5235	-1.419	-2.7855	0	3	1030	1
2026-02-11	16:28:12.690	-0.315	0.07	-0.49	0.032696	-0.009272	1.009428	-0.5235	-1.419	-2.7855	0	3	1030	1
2026-02-11	16:28:12.710	-0.315	0.07	-0.525	0.031476	-0.010004	1.010648	-0.5175	-1.419	-2.7825	0	3	1030	1
2026-02-11	16:28:12.730	-0.35	0.035	-0.525	0.032696	-0.008296	1.005524	-0.5265	-1.4205	-2.7885	0	3	1030	1
2026-02-11	16:28:12.750	-0.315	0	-0.525	0.04148	-0.010248	1.002108	-0.528	-1.4115	-2.7855	0	3	1030	1
2026-02-11	16:28:12.770	-0.315	0.105	-0.525	0.037576	-0.00488	1.008696	-0.525	-1.416	-2.7795	0	3	1030	1
2026-02-11	16:28:12.790	-0.315	0.14	-0.525	0.035868	-0.005612	1.008208	-0.516	-1.4145	-2.7795	0	3	1030	1
2026-02-11	16:28:12.810	-0.315	0.07	-0.49	0.033672	-0.00732	1.007964	-0.5205	-1.419	-2.775	0	4	1030	1
2026-02-11	16:28:12.830	-0.28	0	-0.49	0.033672	-0.012444	1.005524	-0.519	-1.4175	-2.781	0	4	1030	1
2026-02-11	16:28:12.850	-0.315	0.035	-0.49	0.038796	-0.007808	1.004548	-0.5265	-1.413	-2.784	0	4	1030	1
2026-02-11	16:28:12.870	-0.315	0.105	-0.49	0.037332	-0.008052	1.00528	-0.5175	-1.4235	-2.7825	0	4	1030	1
2026-02-11	16:28:12.890	-0.385	0.105	-0.49	0.034404	-0.009028	1.010648	-0.528	-1.422	-2.7765	0	4	1030	1
2026-02-11	16:28:12.910	-0.315	0.07	-0.49	0.029036	-0.010492	1.00772	-0.5205	-1.413	-2.7825	0	4	1030	1
2026-02-11	16:28:12.930	-0.315	0.035	-0.525	0.03172	-0.010492	1.006012	-0.519	-1.416	-2.778	0	4	1030	1
2026-02-11	16:28:12.950	-0.315	0.07	-0.525	0.035624	-0.00854	1.007232	-0.519	-1.4175	-2.784	0	4	1030	1
2026-02-11	16:28:12.970	-0.35	0.07	-0.49	0.0366	-0.010004	1.009184	-0.519	-1.4175	-2.784	0	4	1030	1
2026-02-11	16:28:12.990	-0.315	0.07	-0.49	0.033916	-0.010004	1.006988	-0.516	-1.4175	-2.7825	0	4	1030	1
2026-02-11	16:28:13.010	-0.35	0.07	-0.525	0.036844	-0.012444	1.00894	-0.516	-1.416	-2.781	0	4	1030	1
2026-02-11	16:28:13.030	-0.35	0.035	-0.525	0.036112	-0.009028	1.0065	-0.5175	-1.4145	-2.781	0	4	1030	1
2026-02-11	16:28:13.050	-0.35	0.035	-0.525	0.031964	-0.00732	1.008208	-0.5175	-1.416	-2.781	0	4	1030	1
2026-02-11	16:28:13.070	-0.315	0.035	-0.49	0.03172	-0.008784	1.009672	-0.5145	-1.416	-2.781	0	4	1030	1
2026-02-11	16:28:13.090	-0.315	0.07	-0.49	0.03416	-0.005612	1.006256	-0.525	-1.4115	-2.7825	0	4	1030	1
2026-02-11	16:28:13.110	-0.35	0	-0.49	0.037088	-0.00976	1.007232	-0.528	-1.4115	-2.7795	0	4	1030	1
2026-02-11	16:28:13.130	-0.35	0.035	-0.49	0.034404	-0.011468	1.007476	-0.525	-1.413	-2.7885	0	4	1030	1
2026-02-11	16:28:13.150	-0.35	0.035	-0.49	0.038308	-0.011956	1.006256	-0.531	-1.416	-2.7825	0	4	1030	1
2026-02-11	16:28:13.170	-0.315	0.07	-0.525	0.03416	-0.010492	1.009428	-0.5265	-1.4235	-2.781	0	4	1030	1
2026-02-11	16:28:13.190	-0.35	0.07	-0.525	0.028792	-0.010248	1.010404	-0.525	-1.4235	-2.7795	0	4	1030	1
2026-02-11	16:28:13.210	-0.315	0.035	-0.525	0.033916	-0.00732	1.004548	-0.525	-1.422	-2.781	0	4	1030	1
2026-02-11	16:28:13.230	-0.315	0.035	-0.525	0.038796	-0.011468	1.00894	-0.525	-1.4175	-2.784	0	4	1030	1
2026-02-11	16:28:13.250	-0.315	0.07	-0.525	0.03416	-0.010248	1.005768	-0.5205	-1.416	-2.7855	0	4	1030	1
2026-02-11	16:28:13.270	-0.315	0.105	-0.525	0.03172	-0.007808	1.0065	-0.516	-1.416	-2.7885	0	4	1030	1
2026-02-11	16:28:13.290	-0.315	0.105	-0.49	0.032208	-0.00976	1.008208	-0.522	-1.4205	-2.787	0	4	1030	1
2026-02-11	16:28:13.310	-0.315	0.035	-0.49	0.034892	-0.008296	1.00894	-0.525	-1.422	-2.784	0	4	1030	1
2026-02-11	16:28:13.330	-0.315	0.035	-0.49	0.039528	-0.009272	1.005036	-0.5205	-1.419	-2.784	0	4	1030	1
2026-02-11	16:28:13.350	-0.35	0.07	-0.525	0.035868	-0.009028	1.001864	-0.5205	-1.422	-2.784	0	4	1030	1
2026-02-11	16:28:13.370	-0.315	0.07	-0.49	0.031232	-0.011712	1.00894	-0.519	-1.422	-2.784	0	4	1030	1
2026-02-11	16:28:13.390	-0.315	0.035	-0.525	0.032208	-0.009272	1.005036	-0.5175	-1.419	-2.787	0	4	1030	1
2026-02-11	16:28:13.410	-0.35	0.07	-0.455	0.03782	-0.008784	1.006256	-0.516	-1.416	-2.7855	0	4	1030	1
2026-02-11	16:28:13.430	-0.35	0.035	-0.49	0.034892	-0.00732	1.008452	-0.528	-1.416	-2.7735	0	4	1030	1
2026-02-11	16:28:13.450	-0.315	0.035	-0.49	0.033184	-0.00976	1.003816	-0.5175	-1.4115	-2.784	0	4	1030	1
2026-02-11	16:28:13.470	-0.315	0.07	-0.525	0.034648	-0.009516	1.009916	-0.5175	-1.4175	-2.7825	0	4	1030	1
2026-02-11	16:28:13.490	-0.35	0.07	-0.525	0.031232	-0.009028	1.008452	-0.528	-1.4205	-2.787	0	4	1030	1
2026-02-11	16:28:13.510	-0.315	0.07	-0.525	0.033428	-0.005856	1.006744	-0.5175	-1.413	-2.7795	0	4	1030	1
2026-02-11	16:28:13.530	-0.315	0.07	-0.49	0.036112	-0.010004	1.005036	-0.519	-1.422	-2.7795	0	4	1030	1
2026-02-11	16:28:13.550	-0.315	0.105	-0.49	0.03416	-0.010248	1.009184	-0.519	-1.422	-2.7765	0	4	1030	1
2026-02-11	16:28:13.570	-0.28	0.07	-0.49	0.037088	-0.00732	1.007232	-0.5205	-1.4205	-2.778	0	4	1030	1
2026-02-11	16:28:13.590	-0.315	0.035	-0.49	0.030988	-0.007564	1.005524	-0.522	-1.4205	-2.781	0	4	1030	1
2026-02-11	16:28:13.610	-0.315	0.07	-0.525	0.035868	-0.00854	1.013332	-0.522	-1.4205	-2.781	0	4	1030	1
2026-02-11	16:28:13.630	-0.385	0.035	-0.525	0.036844	-0.008052	1.003084	-0.5295	-1.419	-2.7765	0	4	1030	1
2026-02-11	16:28:13.650	-0.315	0.07	-0.525	0.0366	-0.009516	1.003816	-0.522	-1.4235	-2.775	0	4	1030	1
2026-02-11	16:28:13.670	-0.35	0.14	-0.49	0.032208	-0.00732	1.008452	-0.5295	-1.413	-2.775	0	4	1030	1
2026-02-11	16:28:13.690	-0.315	0.07	-0.525	0.03538	-0.010492	1.006988	-0.516	-1.4115	-2.781	0	4	1030	1
2026-02-11	16:28:13.710	-0.315	0	-0.525	0.038064	-0.010736	1.005768	-0.525	-1.416	-2.7795	0	4	1030	1
2026-02-11	16:28:13.730	-0.315	0.105	-0.525	0.037332	-0.010248	1.013088	-0.519	-1.425	-2.7795	0	4	1030	1
2026-02-11	16:28:13.750	-0.35	0.07	-0.525	0.032696	-0.00976	1.005524	-0.519	-1.413	-2.7765	0	4	1030	1
2026-02-11	16:28:13.770	-0.315	0.035	-0.49	0.031964	-0.010248	1.007964	-0.519	-1.4175	-2.79	0	4	1030	1
2026-02-11	16:28:13.790	-0.315	0.07	-0.525	0.0305	-0.005124	1.010648	-0.516	-1.422	-2.7825	0	4	1030	1
2026-02-11	16:28:13.810	-0.315	0	-0.525	0.033428	-0.011224	1.00528	-0.516	-1.422	-2.7825	0	4	1030	1
2026-02-11	16:28:13.830	-0.315	0.07	-0.525	0.033428	-0.009272	1.010648	-0.5175	-1.419	-2.784	0	4	1030	1
2026-02-11	16:28:13.850	-0.35	0.07	-0.525	0.031232	-0.010492	1.005768	-0.525	-1.4175	-2.784	0	4	1030	1
2026-02-11	16:28:13.870	-0.315	0.07	-0.49	0.032208	-0.00854	1.008696	-0.528	-1.4205	-2.781	0	4	1030	1
2026-02-11	16:28:13.890	-0.35	0.035	-0.49	0.035624	-0.009272	1.003816	-0.5265	-1.419	-2.7825	0	4	1030	1
2026-02-11	16:28:13.910	-0.315	0.035	-0.49	0.037088	-0.010004	1.004548	-0.522	-1.416	-2.781	0	4	1030	1
2026-02-11	16:28:13.930	-0.315	0.07	-0.49	0.035624	-0.006832	1.00894	-0.525	-1.4175	-2.7825	0	4	1030	1
2026-02-11	16:28:13.950	-0.35	0.07	-0.49	0.03904	-0.008052	1.007476	-0.528	-1.413	-2.7795	0	4	1030	1
2026-02-11	16:28:13.970	-0.315	0.07	-0.49	0.034648	-0.013664	1.007232	-0.5205	-1.4145	-2.7765	0	4	1030	1
2026-02-11	16:28:13.990	-0.315	0.07	-0.49	0.033428	-0.011224	1.010892	-0.5175	-1.4235	-2.781	0	4	1030	1
2026-02-11	16:28:14.010	-0.315	0.035	-0.525	0.035624	-0.008052	1.00528	-0.519	-1.4265	-2.7855	0	4	1030	1
2026-02-11	16:28:14.030	-0.35	0.07	-0.49	0.036112	-0.009272	1.010648	-0.519	-1.4265	-2.7855	0	4	1030	1
2026-02-11	16:28:14.050	-0.35	0.035	-0.49	0.034648	-0.00854	1.008696	-0.522	-1.416	-2.778	0	4	1030	1
2026-02-11	16:28:14.070	-0.35	0	-0.49	0.033672	-0.009516	1.007476	-0.522	-1.413	-2.781	0	4	1030	1
2026-02-11	16:28:14.090	-0.315	0.035	-0.49	0.037088	-0.010248	1.009916	-0.519	-1.4145	-2.778	0	4	1030	1
2026-02-11	16:28:14.110	-0.35	0.07	-0.525	0.03294	-0.009516	1.009672	-0.519	-1.4175	-2.7735	0	4	1030	1
2026-02-11	16:28:14.130	-0.35	0.035	-0.56	0.034892	-0.00732	1.008452	-0.522	-1.4145	-2.781	0	4	1030	1
2026-02-11	16:28:14.150	-0.35	0.035	-0.56	0.037088	-0.009028	1.008208	-0.528	-1.416	-2.7855	0	4	1030	1
2026-02-11	16:28:14.170	-0.35	0.035	-0.49	0.038552	-0.006832	1.007232	-0.5265	-1.419	-2.7795	0	4	1030	1
2026-02-11	16:28:14.190	-0.35	0	-0.525	0.0366	-0.008784	1.00772	-0.519	-1.416	-2.781	0	4	1030	1
2026-02-11	16:28:14.210	-0.315	0	-0.49	0.038796	-0.008296	1.0004	-0.519	-1.413	-2.7795	0	4	1030	1
2026-02-11	16:28:14.230	-0.28	0.07	-0.525	0.035136	-0.00732	1.0126	-0.525	-1.4205	-2.7795	0	4	1030	1
2026-02-11	16:28:14.250	-0.35	0.105	-0.49	0.033184	-0.010248	1.010404	-0.5265	-1.4235	-2.778	0	4	1030	1
2026-02-11	16:28:14.270	-0.35	0	-0.49	0.03294	-0.00976	1.005524	-0.5235	-1.4205	-2.778	0	4	1030	1
2026-02-11	16:28:14.290	-0.315	0.07	-0.49	0.037088	-0.006588	1.005524	-0.525	-1.4145	-2.7825	0	4	1030	1
2026-02-11	16:28:14.310	-0.315	0.07	-0.525	0.036112	-0.009272	1.012356	-0.525	-1.4115	-2.781	0	4	1030	1
2026-02-11	16:28:14.330	-0.35	0	-0.49	0.033428	-0.00854	1.000888	-0.522	-1.4145	-2.7825	0	4	1030	1
2026-02-11	16:28:14.350	-0.28	0.035	-0.49	0.0366	-0.008784	1.012356	-0.525	-1.4175	-2.781	0	4	1030	1
2026-02-11	16:28:14.370	-0.28	0	-0.525	0.03294	-0.00854	1.008696	-0.525	-1.416	-2.7735	0	4	1030	1
2026-02-11	16:28:14.390	-0.35	0.035	-0.525	0.04148	-0.01098	1.00406	-0.5265	-1.4205	-2.7855	0	4	1030	1
2026-02-11	16:28:14.410	-0.28	0.07	-0.455	0.039528	-0.011468	1.012844	-0.522	-1.419	-2.7705	0	3	1030	1
2026-02-11	16:28:14.430	-0.315	0.035	-0.525	0.027572	-0.007076	1.005768	-0.519	-1.4145	-2.7795	0	3	1030	1
2026-02-11	16:28:14.450	-0.35	0.105	-0.525	0.038552	-0.009028	1.007964	-0.5205	-1.407	-2.7825	0	3	1030	1
2026-02-11	16:28:14.470	-0.315	0.035	-0.525	0.03782	-0.010248	1.014064	-0.516	-1.407	-2.784	0	3	1030	1
2026-02-11	16:28:14.490	-0.35	-0.035	-0.525	0.038796	-0.011224	0.991372	-0.5205	-1.419	-2.7735	0	3	1030	1
2026-02-11	16:28:14.510	-0.315	0.175	-0.525	0.038308	-0.011468	1.010404	-0.522	-1.4145	-2.7855	0	3	1030	1
2026-02-11	16:28:14.530	-0.35	0.175	-0.49	0.029524	-0.011224	1.018456	-0.5145	-1.4085	-2.7735	0	3	1030	1
2026-02-11	16:28:14.550	-0.35	-0.07	-0.49	0.032208	-0.011712	1.002352	-0.5235	-1.419	-2.7885	0	3	1030	1
2026-02-11	16:28:14.570	-0.28	0.035	-0.525	0.037576	-0.009028	1.006012	-0.5145	-1.413	-2.784	0	3	1030	1
2026-02-11	16:28:14.590	-0.385	0.07	-0.525	0.034892	-0.014396	1.001864	-0.5145	-1.413	-2.784	0	3	1030	1
2026-02-11	16:28:14.610	-0.35	0	-0.49	0.031232	-0.01098	1.00406	-0.528	-1.4145	-2.778	0	3	1030	1
2026-02-11	16:28:14.630	-0.28	0.14	-0.525	0.032696	-0.006588	1.01626	-0.522	-1.4175	-2.787	0	3	1030	1
2026-02-11	16:28:14.650	-0.385	0.035	-0.56	0.034404	-0.009028	1.005768	-0.525	-1.4085	-2.7855	0	3	1030	1
2026-02-11	16:28:14.670	-0.315	0	-0.525	0.03416	-0.00732	1.00528	-0.5175	-1.416	-2.7795	0	3	1030	1
2026-02-11	16:28:14.690	-0.28	0.105	-0.49	0.036356	-0.005856	1.008208	-0.525	-1.4265	-2.778	0	3	1030	1
2026-02-11	16:28:14.710	-0.35	0.035	-0.525	0.038308	-0.00854	1.006988	-0.5265	-1.4145	-2.7765	0	3	1030	1
2026-02-11	16:28:14.730	-0.385	0.14	-0.525	0.030988	-0.008052	1.009916	-0.51	-1.419	-2.775	0	3	1030	1
2026-02-11	16:28:14.750	-0.35	0.035	-0.525	0.038308	-0.010492	1.006744	-0.522	-1.4205	-2.7795	0	3	1030	1
2026-02-11	16:28:14.770	-0.35	0	-0.525	0.034892	-0.010492	1.004792	-0.516	-1.407	-2.7765	0	3	1030	1
2026-02-11	16:28:14.790	-0.28	0.07	-0.49	0.0366	-0.009272	1.008452	-0.525	-1.416	-2.7855	0	3	1030	1
2026-02-11	16:28:14.810	-0.35	0.07	-0.525	0.037088	-0.010736	1.006988	-0.519	-1.4175	-2.7735	0	3	1030	1
2026-02-11	16:28:14.830	-0.315	0.035	-0.455	0.033916	-0.011468	1.005524	-0.5235	-1.416	-2.778	0	3	1030	1
2026-02-11	16:28:14.850	-0.35	0.07	-0.525	0.03416	-0.009272	1.006012	-0.5235	-1.4205	-2.772	0	3	1030	1
2026-02-11	16:28:14.870	-0.315	0	-0.525	0.035624	-0.0122	1.00406	-0.5235	-1.4205	-2.772	0	3	1030	1
2026-02-11	16:28:14.890	-0.35	0.07	-0.49	0.032696	-0.006344	1.0065	-0.5265	-1.419	-2.778	0	3	1030	1
2026-02-11	16:28:14.910	-0.385	0.07	-0.49	0.031476	-0.014396	1.009916	-0.5235	-1.416	-2.7825	0	3	1030	1
2026-02-11	16:28:14.930	-0.315	0.035	-0.455	0.034892	-0.009028	1.006256	-0.5175	-1.413	-2.781	0	3	1030	1
2026-02-11	16:28:14.950	-0.35	0.035	-0.525	0.037576	-0.010248	1.007232	-0.5235	-1.4145	-2.781	0	3	1030	1
2026-02-11	16:28:14.970	-0.35	0.035	-0.525	0.03538	-0.011224	1.004548	-0.5235	-1.419	-2.778	0	3	1030	1
2026-02-11	16:28:14.990	-0.35	0.07	-0.525	0.035136	-0.009516	1.006988	-0.5175	-1.4205	-2.7795	0	3	1030	1
2026-02-11	16:28:15.010	-0.315	0.105	-0.56	0.033672	-0.011712	1.011136	-0.519	-1.422	-2.7825	0	4	1030	1
2026-02-11	16:28:15.030	-0.315	0.035	-0.49	0.032452	-0.009028	1.004304	-0.519	-1.4235	-2.778	0	4	1030	1
2026-02-11	16:28:15.050	-0.315	0.07	-0.49	0.032452	-0.00854	1.011136	-0.5205	-1.4205	-2.7765	0	4	1030	1
2026-02-11	16:28:15.070	-0.315	0.07	-0.49	0.03782	-0.00732	1.0065	-0.522	-1.4175	-2.778	0	4	1030	1
2026-02-11	16:28:15.090	-0.35	0.035	-0.49	0.039528	-0.00854	1.005524	-0.519	-1.416	-2.778	0	4	1030	1
2026-02-11	16:28:15.110	-0.315	0.035	-0.49	0.034648	-0.008784	1.006012	-0.5205	-1.416	-2.7765	0	4	1030	1
2026-02-11	16:28:15.130	-0.35	0.07	-0.49	0.036356	-0.010492	1.00772	-0.5235	-1.419	-2.778	0	4	1030	1
2026-02-11	16:28:15.150	-0.315	0	-0.525	0.03416	-0.00976	1.005768	-0.5235	-1.419	-2.778	0	4	1030	1
2026-02-11	16:28:15.170	-0.315	0	-0.49	0.038796	-0.010736	1.00284	-0.5235	-1.4205	-2.7795	0	4	1030	1
2026-02-11	16:28:15.190	-0.315	0.07	-0.49	0.0366	-0.006588	1.007232	-0.5205	-1.419	-2.781	0	4	1030	1
2026-02-11	16:28:15.210	-0.35	0.07	-0.525	0.034404	-0.01098	1.010648	-0.522	-1.4205	-2.7795	0	4	1030	1
2026-02-11	16:28:15.230	-0.35	0.035	-0.49	0.034892	-0.010492	1.009916	-0.531	-1.416	-2.7825	0	4	1030	1
2026-02-11	16:28:15.250	-0.35	0	-0.525	0.034892	-0.008784	1.0065	-0.5265	-1.416	-2.7855	0	4	1030	1
2026-02-11	16:28:15.270	-0.35	0.07	-0.49	0.037576	-0.011468	1.008696	-0.516	-1.416	-2.781	0	4	1030	1
2026-02-11	16:28:15.290	-0.35	0.07	-0.49	0.036844	-0.015372	1.009184	-0.519	-1.4115	-2.781	0	4	1030	1
2026-02-11	16:28:15.310	-0.35	0.07	-0.525	0.034648	-0.011468	1.006256	-0.5205	-1.416	-2.7825	0	4	1030	1
2026-02-11	16:28:15.330	-0.35	0.07	-0.49	0.03416	-0.010248	1.008208	-0.522	-1.416	-2.775	0	4	1030	1
2026-02-11	16:28:15.350	-0.35	0	-0.49	0.03538	-0.009516	1.009916	-0.522	-1.4145	-2.778	0	4	1030	1
2026-02-11	16:28:15.370	-0.315	0	-0.525	0.036844	-0.012688	1.008696	-0.5205	-1.419	-2.781	0	4	1030	1
2026-02-11	16:28:15.390	-0.315	0.07	-0.525	0.034648	-0.008052	1.008208	-0.522	-1.419	-2.775	0	4	1030	1
2026-02-11	16:28:15.410	-0.315	0.07	-0.49	0.032208	-0.007076	1.00894	-0.5205	-1.4145	-2.778	0	4	1030	1
2026-02-11	16:28:15.430	-0.315	0.035	-0.49	0.038064	-0.010248	1.00772	-0.5205	-1.413	-2.7825	0	4	1030	1
2026-02-11	16:28:15.450	-0.315	0.035	-0.455	0.035868	-0.00854	1.006988	-0.516	-1.4175	-2.7855	0	4	1030	1
2026-02-11	16:28:15.470	-0.315	0.07	-0.49	0.032452	-0.010248	1.005768	-0.519	-1.4175	-2.7795	0	4	1030	1
2026-02-11	16:28:15.490	-0.35	0.07	-0.49	0.032696	-0.010736	1.006744	-0.5145	-1.4145	-2.787	0	4	1030	1
2026-02-11	16:28:15.510	-0.315	0.035	-0.49	0.034648	-0.009516	1.00772	-0.525	-1.41	-2.7855	0	4	1030	1
2026-02-11	16:28:15.530	-0.35	0.035	-0.49	0.03294	-0.006344	1.005036	-0.519	-1.413	-2.7855	0	4	1030	1
2026-02-11	16:28:15.550	-0.35	0.035	-0.525	0.034648	-0.007564	1.006988	-0.513	-1.4175	-2.7855	0	4	1030	1
2026-02-11	16:28:15.570	-0.35	0.035	-0.49	0.038796	-0.00854	1.00772	-0.5235	-1.4115	-2.778	0	4	1030	1
2026-02-11	16:28:15.590	-0.315	0.07	-0.525	0.036112	-0.010248	1.0065	-0.522	-1.425	-2.781	0	4	1030	1
2026-02-11	16:28:15.610	-0.35	0.07	-0.525	0.032696	-0.007564	1.012112	-0.519	-1.416	-2.7825	0	3	1030	1
2026-02-11	16:28:15.630	-0.315	0.035	-0.49	0.037332	-0.008296	1.010404	-0.5205	-1.4175	-2.775	0	3	1030	1
2026-02-11	16:28:15.650	-0.35	0.035	-0.525	0.03416	-0.007564	1.002108	-0.522	-1.416	-2.7795	0	3	1030	1
2026-02-11	16:28:15.670	-0.315	0.07	-0.49	0.036356	-0.013176	1.009184	-0.522	-1.416	-2.7825	0	3	1030	1
2026-02-11	16:28:15.690	-0.35	0.07	-0.525	0.036112	-0.01098	1.007964	-0.519	-1.4145	-2.778	0	3	1030	1
2026-02-11	16:28:15.710	-0.35	0.035	-0.49	0.033916	-0.009028	1.0065	-0.519	-1.413	-2.775	0	3	1030	1
2026-02-11	16:28:15.730	-0.35	0.07	-0.525	0.034648	-0.00976	1.006744	-0.519	-1.413	-2.775	0	3	1030	1
2026-02-11	16:28:15.750	-0.35	0.035	-0.49	0.036844	-0.008296	1.004304	-0.5235	-1.413	-2.7855	0	3	1030	1
2026-02-11	16:28:15.770	-0.315	0.035	-0.525	0.03538	-0.00976	1.007476	-0.522	-1.4175	-2.781	0	3	1030	1
2026-02-11	16:28:15.790	-0.315	0.105	-0.49	0.034892	-0.006832	1.006256	-0.513	-1.41	-2.7795	0	3	1030	1
2026-02-11	16:28:15.810	-0.315	0.07	-0.49	0.036112	-0.008784	1.006744	-0.5235	-1.419	-2.7765	0	3	1030	1
2026-02-11	16:28:15.830	-0.315	0.035	-0.525	0.03904	-0.007808	1.006256	-0.525	-1.4205	-2.778	0	3	1030	1
2026-02-11	16:28:15.850	-0.35	0.035	-0.525	0.037332	-0.007564	1.006744	-0.519	-1.416	-2.7735	0	3	1030	1
2026-02-11	16:28:15.870	-0.315	0.07	-0.49	0.036112	-0.011468	1.006012	-0.5205	-1.413	-2.787	0	3	1030	1
2026-02-11	16:28:15.890	-0.35	0.07	-0.49	0.032452	-0.01098	1.0065	-0.5235	-1.4205	-2.787	0	3	1030	1
2026-02-11	16:28:15.910	-0.315	0.035	-0.525	0.032208	-0.010004	1.00894	-0.5265	-1.419	-2.7795	0	3	1030	1
2026-02-11	16:28:15.930	-0.315	0.035	-0.49	0.033916	-0.00976	1.006988	-0.5325	-1.416	-2.7795	0	3	1030	1
2026-02-11	16:28:15.950	-0.35	0	-0.49	0.033428	-0.010492	1.00528	-0.5205	-1.4205	-2.7825	0	3	1030	1
2026-02-11	16:28:15.970	-0.35	0.07	-0.56	0.036844	-0.008296	1.008452	-0.5235	-1.4145	-2.784	0	3	1030	1
2026-02-11	16:28:15.990	-0.315	0.07	-0.525	0.033428	-0.011224	1.005524	-0.5235	-1.425	-2.787	0	3	1030	1
2026-02-11	16:28:16.010	-0.35	0.035	-0.525	0.038308	-0.009516	1.007232	-0.5265	-1.4205	-2.781	0	3	1030	1
2026-02-11	16:28:16.030	-0.315	0.035	-0.525	0.03538	-0.009516	1.004548	-0.525	-1.4175	-2.775	0	3	1030	1
2026-02-11	16:28:16.050	-0.35	0.07	-0.525	0.03782	-0.011712	1.0065	-0.5175	-1.416	-2.7765	0	3	1030	1
2026-02-11	16:28:16.070	-0.315	0.105	-0.525	0.033428	-0.008296	1.007232	-0.5175	-1.4115	-2.781	0	3	1030	1
2026-02-11	16:28:16.090	-0.315	0.07	-0.49	0.035868	-0.009516	1.008452	-0.522	-1.419	-2.7825	0	3	1030	1
2026-02-11	16:28:16.110	-0.315	0.035	-0.49	0.036112	-0.00854	1.007232	-0.522	-1.419	-2.784	0	3	1030	1
2026-02-11	16:28:16.130	-0.315	0.07	-0.525	0.032452	-0.010004	1.007476	-0.5205	-1.413	-2.7855	0	3	1030	1
2026-02-11	16:28:16.150	-0.315	0.035	-0.525	0.035136	-0.005856	1.005036	-0.5115	-1.413	-2.7795	0	3	1030	1
2026-02-11	16:28:16.170	-0.315	0.035	-0.525	0.036356	-0.007808	1.006988	-0.5205	-1.4235	-2.7765	0	3	1030	1
2026-02-11	16:28:16.190	-0.315	0.07	-0.49	0.03416	-0.008052	1.00772	-0.516	-1.413	-2.7765	0	3	1030	1
2026-02-11	16:28:16.210	-0.35	0.07	-0.49	0.034404	-0.010248	1.007476	-0.519	-1.419	-2.7825	0	3	1030	1
2026-02-11	16:28:16.230	-0.35	0.07	-0.49	0.031964	-0.011956	1.00528	-0.5235	-1.416	-2.787	0	3	1030	1
2026-02-11	16:28:16.250	-0.35	0.07	-0.49	0.036356	-0.008296	1.00772	-0.5145	-1.4175	-2.7855	0	3	1030	1
2026-02-11	16:28:16.270	-0.35	0.07	-0.49	0.03416	-0.011956	1.009184	-0.522	-1.413	-2.7825	0	3	1030	1
2026-02-11	16:28:16.290	-0.315	0	-0.525	0.03538	-0.011468	1.007476	-0.5205	-1.4115	-2.7825	0	3	1030	1
2026-02-11	16:28:16.310	-0.315	0.035	-0.49	0.035136	-0.008784	1.004548	-0.5205	-1.4145	-2.7825	0	3	1030	1
2026-02-11	16:28:16.330	-0.35	0.035	-0.49	0.034404	-0.008296	1.007964	-0.5235	-1.4205	-2.781	0	3	1030	1
2026-02-11	16:28:16.350	-0.35	0.035	-0.49	0.035868	-0.01342	1.00772	-0.5235	-1.4235	-2.7765	0	3	1030	1
2026-02-11	16:28:16.370	-0.35	0.035	-0.49	0.034892	-0.007808	1.008452	-0.5235	-1.4265	-2.778	0	3	1030	1
2026-02-11	16:28:16.390	-0.315	0.07	-0.49	0.037576	-0.014396	1.007232	-0.519	-1.4205	-2.7795	0	3	1030	1
2026-02-11	16:28:16.410	-0.315	0.035	-0.49	0.03538	-0.00854	1.009428	-0.516	-1.416	-2.7795	0	3	1030	1
2026-02-11	16:28:16.430	-0.315	0.035	-0.49	0.035624	-0.007564	1.005036	-0.5175	-1.419	-2.7795	0	3	1030	1
2026-02-11	16:28:16.450	-0.315	0.105	-0.525	0.033916	-0.005612	1.009916	-0.5205	-1.422	-2.7795	0	3	1030	1
2026-02-11	16:28:16.470	-0.35	0.07	-0.49	0.037576	-0.009516	1.006256	-0.5205	-1.4205	-2.7825	0	3	1030	1
2026-02-11	16:28:16.490	-0.35	0.035	-0.49	0.033184	-0.01342	1.008208	-0.522	-1.4205	-2.7855	0	3	1030	1
2026-02-11	16:28:16.510	-0.315	0.035	-0.525	0.034404	-0.0122	1.00528	-0.5265	-1.419	-2.7825	0	3	1030	1
2026-02-11	16:28:16.530	-0.35	0.035	-0.49	0.032452	-0.007808	1.007476	-0.525	-1.413	-2.7765	0	3	1030	1
2026-02-11	16:28:16.550	-0.315	0.035	-0.49	0.03538	-0.009028	1.006988	-0.522	-1.4145	-2.7765	0	3	1030	1
2026-02-11	16:28:16.570	-0.315	0.07	-0.49	0.035868	-0.009028	1.009428	-0.5235	-1.4175	-2.7795	0	3	1030	1
2026-02-11	16:28:16.590	-0.35	0.035	-0.525	0.03538	-0.008784	1.0065	-0.522	-1.4145	-2.784	0	3	1030	1
2026-02-11	16:28:16.610	-0.35	0.07	-0.525	0.038064	-0.007564	1.008208	-0.5175	-1.416	-2.7705	0	3	1030	1
2026-02-11	16:28:16.630	-0.35	0.07	-0.525	0.036112	-0.009516	1.007476	-0.5205	-1.4145	-2.7855	0	3	1030	1
2026-02-11	16:28:16.650	-0.35	0.07	-0.525	0.033184	-0.009028	1.008208	-0.5205	-1.4145	-2.784	0	3	1030	1
2026-02-11	16:28:16.670	-0.315	0.035	-0.525	0.035136	-0.011468	1.007476	-0.5235	-1.4175	-2.784	0	3	1030	1
2026-02-11	16:28:16.690	-0.315	0.035	-0.525	0.037088	-0.013176	1.005524	-0.5235	-1.4145	-2.784	0	3	1030	1
2026-02-11	16:28:16.710	-0.315	0	-0.525	0.036844	-0.010492	1.009428	-0.522	-1.4145	-2.7825	0	3	1030	1
2026-02-11	16:28:16.730	-0.385	0.105	-0.525	0.030012	-0.00976	1.009184	-0.5235	-1.422	-2.7795	0	3	1030	1
2026-02-11	16:28:16.750	-0.35	-0.035	-0.49	0.034404	-0.007564	1.005768	-0.5205	-1.419	-2.7765	0	3	1030	1
2026-02-11	16:28:16.770	-0.28	0.07	-0.525	0.031964	-0.008784	1.011136	-0.519	-1.4145	-2.7765	0	3	1030	1
2026-02-11	16:28:16.790	-0.315	0.035	-0.525	0.03416	-0.008052	1.00772	-0.519	-1.4175	-2.7765	0	3	1030	1
2026-02-11	16:28:16.810	-0.28	0.07	-0.49	0.03538	-0.007564	1.008696	-0.516	-1.419	-2.7795	0	3	1030	1
2026-02-11	16:28:16.830	-0.35	0.07	-0.49	0.038064	-0.011956	1.007476	-0.5205	-1.419	-2.7795	0	3	1030	1
2026-02-11	16:28:16.850	-0.35	0.07	-0.525	0.036112	-0.01098	1.011624	-0.5265	-1.4205	-2.778	0	3	1030	1
2026-02-11	16:28:16.870	-0.315	0	-0.49	0.036844	-0.009516	1.002596	-0.513	-1.419	-2.7765	0	3	1030	1
2026-02-11	16:28:16.890	-0.315	0.07	-0.49	0.035868	-0.010004	1.00894	-0.5265	-1.413	-2.781	0	3	1030	1
2026-02-11	16:28:16.910	-0.315	0.105	-0.49	0.031964	-0.011224	1.012112	-0.5175	-1.413	-2.7885	0	3	1030	1
2026-02-11	16:28:16.930	-0.315	0	-0.56	0.033916	-0.008784	1.006256	-0.5205	-1.4145	-2.7795	0	3	1030	1
2026-02-11	16:28:16.950	-0.35	0.035	-0.525	0.038552	-0.010004	1.003816	-0.525	-1.419	-2.7855	0	3	1030	1
2026-02-11	16:28:16.970	-0.35	0.07	-0.525	0.035136	-0.01098	1.007476	-0.5175	-1.416	-2.79	0	3	1030	1
2026-02-11	16:28:16.990	-0.35	0.07	-0.525	0.03172	-0.009028	1.008208	-0.5145	-1.4205	-2.775	0	3	1030	1
2026-02-11	16:28:17.010	-0.35	0.035	-0.525	0.036356	-0.011712	1.006744	-0.519	-1.4205	-2.7735	0	3	1030	1
2026-02-11	16:28:17.030	-0.315	0.07	-0.525	0.033184	-0.008784	1.010648	-0.519	-1.416	-2.781	0	3	1030	1
2026-02-11	16:28:17.050	-0.35	0.035	-0.525	0.036844	-0.011224	1.009184	-0.516	-1.4235	-2.7855	0	3	1030	1
2026-02-11	16:28:17.070	-0.35	0.035	-0.49	0.034648	-0.009028	1.0065	-0.519	-1.413	-2.7795	0	3	1030	1
2026-02-11	16:28:17.090	-0.315	0.07	-0.49	0.04026	-0.011224	1.006012	-0.522	-1.4175	-2.7795	0	3	1030	1
2026-02-11	16:28:17.110	-0.35	0.035	-0.525	0.032208	-0.011224	1.009428	-0.5235	-1.416	-2.7795	0	3	1030	1
2026-02-11	16:28:17.130	-0.35	0.035	-0.49	0.03782	-0.010004	1.006988	-0.5235	-1.416	-2.7795	0	3	1030	1
2026-02-11	16:28:17.150	-0.315	0.07	-0.49	0.034892	-0.010736	1.007232	-0.516	-1.422	-2.778	0	3	1030	1
2026-02-11	16:28:17.170	-0.35	0.105	-0.525	0.030012	-0.010736	1.009672	-0.516	-1.416	-2.781	0	3	1030	1
2026-02-11	16:28:17.190	-0.35	0.035	-0.49	0.03172	-0.012688	1.007476	-0.516	-1.4115	-2.778	0	3	1030	1
2026-02-11	16:28:17.210	-0.315	0.035	-0.56	0.03538	-0.007564	1.0065	-0.522	-1.4175	-2.7795	0	3	1030	1
2026-02-11	16:28:17.230	-0.315	0.105	-0.49	0.034648	-0.008052	1.00772	-0.5235	-1.416	-2.787	0	3	1030	1
2026-02-11	16:28:17.250	-0.35	0.07	-0.525	0.033428	-0.012932	1.006744	-0.5205	-1.419	-2.7885	0	3	1030	1
2026-02-11	16:28:17.270	-0.315	0	-0.49	0.036112	-0.01098	1.003572	-0.507	-1.4145	-2.787	0	3	1030	1
2026-02-11	16:28:17.290	-0.28	0.07	-0.525	0.035136	-0.00976	1.011624	-0.513	-1.41	-2.7795	0	3	1030	1
2026-02-11	16:28:17.310	-0.35	0.035	-0.525	0.038308	-0.009516	1.005524	-0.5265	-1.413	-2.7795	0	3	1030	1
2026-02-11	16:28:17.330	-0.35	0.07	-0.49	0.034648	-0.009516	1.008208	-0.513	-1.4205	-2.7825	0	3	1030	1
2026-02-11	16:28:17.350	-0.315	0.035	-0.525	0.033916	-0.009516	1.0065	-0.5265	-1.4145	-2.781	0	3	1030	1
2026-02-11	16:28:17.370	-0.35	0.105	-0.525	0.035868	-0.007808	1.007964	-0.5205	-1.416	-2.7825	0	3	1030	1
2026-02-11	16:28:17.390	-0.35	0.07	-0.49	0.034892	-0.010248	1.008452	-0.5205	-1.4115	-2.778	0	3	1030	1
2026-02-11	16:28:17.410	-0.35	0.105	-0.49	0.036112	-0.009516	1.01016	-0.5205	-1.4115	-2.778	0	3	1030	1
2026-02-11	16:28:17.430	-0.35	0.07	-0.49	0.03172	-0.008296	1.00894	-0.522	-1.413	-2.7795	0	3	1030	1
2026-02-11	16:28:17.450	-0.315	0.035	-0.525	0.033672	-0.010492	1.007964	-0.5235	-1.4145	-2.781	0	3	1030	1
2026-02-11	16:28:17.470	-0.315	0	-0.49	0.036844	-0.00976	1.004304	-0.522	-1.4145	-2.778	0	3	1030	1
2026-02-11	16:28:17.490	-0.315	0.07	-0.525	0.034648	-0.011956	1.0065	-0.5175	-1.416	-2.7795	0	3	1030	1
2026-02-11	16:28:17.510	-0.35	0.07	-0.525	0.037088	-0.009028	1.006256	-0.519	-1.4175	-2.781	0	3	1030	1
2026-02-11	16:28:17.530	-0.315	0	-0.525	0.035624	-0.011712	1.008452	-0.522	-1.4145	-2.781	0	3	1030	1
2026-02-11	16:28:17.550	-0.35	0.035	-0.525	0.037332	-0.013908	1.010404	-0.522	-1.413	-2.781	0	3	1030	1
2026-02-11	16:28:17.570	-0.315	0.035	-0.525	0.036356	-0.011468	1.004304	-0.519	-1.416	-2.7795	0	3	1030	1
2026-02-11	16:28:17.590	-0.315	0.07	-0.455	0.034892	-0.009272	1.006256	-0.516	-1.416	-2.7795	0	3	1030	1
2026-02-11	16:28:17.610	-0.315	0.105	-0.49	0.033916	-0.012444	1.009428	-0.5145	-1.4145	-2.778	0	3	1030	1
2026-02-11	16:28:17.630	-0.35	0.035	-0.49	0.034404	-0.009272	1.005036	-0.516	-1.413	-2.778	0	3	1030	1
2026-02-11	16:28:17.650	-0.35	0.07	-0.49	0.036356	-0.011468	1.008452	-0.5205	-1.413	-2.775	0	3	1030	1
2026-02-11	16:28:17.670	-0.35	0.07	-0.525	0.030988	-0.008296	1.005768	-0.522	-1.413	-2.7795	0	3	1030	1
2026-02-11	16:28:17.690	-0.315	0.035	-0.525	0.031476	-0.010736	1.006744	-0.522	-1.413	-2.7795	0	3	1030	1
2026-02-11	16:28:17.710	-0.315	0.07	-0.49	0.03294	-0.010004	1.005036	-0.519	-1.4145	-2.7735	0	3	1030	1
2026-02-11	16:28:17.730	-0.315	0.07	-0.49	0.034648	-0.008296	1.010404	-0.5175	-1.419	-2.772	0	3	1030	1
2026-02-11	16:28:17.750	-0.315	0.035	-0.56	0.03416	-0.010736	1.008696	-0.525	-1.4235	-2.7765	0	3	1030	1
2026-02-11	16:28:17.770	-0.35	0.035	-0.525	0.033428	-0.011468	1.009184	-0.5235	-1.419	-2.778	0	3	1030	1
2026-02-11	16:28:17.790	-0.315	0.035	-0.49	0.034892	-0.009272	1.00772	-0.5145	-1.416	-2.775	0	3	1030	1
2026-02-11	16:28:17.810	-0.315	0.07	-0.49	0.037088	-0.011712	1.012844	-0.513	-1.4175	-2.775	0	3	1030	1
2026-02-11	16:28:17.830	-0.35	0.07	-0.525	0.035868	-0.008784	1.007232	-0.519	-1.4175	-2.778	0	3	1030	1
2026-02-11	16:28:17.850	-0.315	0.035	-0.49	0.031964	-0.009272	1.006988	-0.525	-1.413	-2.778	0	3	1030	1
2026-02-11	16:28:17.870	-0.35	0.035	-0.525	0.034404	-0.010248	1.008208	-0.525	-1.413	-2.778	0	3	1030	1
2026-02-11	16:28:17.890	-0.315	0.035	-0.525	0.035868	-0.009028	1.007476	-0.525	-1.413	-2.7795	0	3	1030	1
2026-02-11	16:28:17.910	-0.315	0.035	-0.525	0.035624	-0.009272	1.008208	-0.519	-1.4115	-2.781	0	3	1030	1
2026-02-11	16:28:17.930	-0.35	0.105	-0.455	0.032208	-0.011468	1.00772	-0.5175	-1.41	-2.7795	0	3	1030	1
2026-02-11	16:28:17.950	-0.315	0.035	-0.49	0.033184	-0.010004	1.009184	-0.519	-1.407	-2.7855	0	3	1030	1
2026-02-11	16:28:17.970	-0.315	0.07	-0.525	0.034404	-0.010736	1.008452	-0.5175	-1.4085	-2.793	0	3	1030	1
2026-02-11	16:28:17.990	-0.35	0.07	-0.525	0.037576	-0.009028	1.006744	-0.5235	-1.419	-2.7825	0	3	1030	1
2026-02-11	16:28:18.010	-0.35	0.07	-0.56	0.03294	-0.011712	1.008696	-0.522	-1.4175	-2.7735	0	3	1030	1
2026-02-11	16:28:18.030	-0.315	0.07	-0.525	0.035868	-0.008784	1.005036	-0.522	-1.413	-2.7795	0	3	1030	1
2026-02-11	16:28:18.050	-0.315	0.07	-0.49	0.0305	-0.008296	1.007232	-0.522	-1.4175	-2.781	0	3	1030	1
2026-02-11	16:28:18.070	-0.315	0.035	-0.525	0.033184	-0.008052	1.010892	-0.5205	-1.4115	-2.784	0	3	1030	1
2026-02-11	16:28:18.090	-0.35	0.035	-0.525	0.033916	-0.008052	1.007964	-0.5205	-1.4175	-2.7825	0	3	1030	1
2026-02-11	16:28:18.110	-0.35	0.035	-0.525	0.035624	-0.007564	1.00894	-0.5235	-1.419	-2.784	0	3	1030	1
2026-02-11	16:28:18.130	-0.315	0.035	-0.49	0.034404	-0.010492	1.00772	-0.516	-1.4145	-2.784	0	3	1030	1
2026-02-11	16:28:18.150	-0.35	0.035	-0.525	0.035136	-0.00976	1.01016	-0.519	-1.413	-2.7825	0	3	1030	1
2026-02-11	16:28:18.170	-0.315	0.07	-0.525	0.034892	-0.00854	1.007232	-0.522	-1.413	-2.784	0	3	1030	1
2026-02-11	16:28:18.190	-0.35	0.035	-0.49	0.037576	-0.008784	1.008208	-0.522	-1.416	-2.784	0	3	1030	1
2026-02-11	16:28:18.210	-0.35	0.07	-0.49	0.035624	-0.007564	1.007964	-0.5205	-1.4175	-2.781	0	3	1030	1
2026-02-11	16:28:18.230	-0.35	0.035	-0.455	0.03416	-0.0061	1.006012	-0.5205	-1.419	-2.7825	0	3	1030	1
2026-02-11	16:28:18.250	-0.315	0.07	-0.525	0.038552	-0.008296	1.007476	-0.522	-1.422	-2.7885	0	3	1030	1
2026-02-11	16:28:18.270	-0.35	0.035	-0.49	0.038552	-0.007076	1.009916	-0.522	-1.422	-2.7885	0	3	1030	1
2026-02-11	16:28:18.290	-0.315	0.105	-0.525	0.034892	-0.009516	1.006256	-0.522	-1.4175	-2.7765	0	3	1030	1
2026-02-11	16:28:18.310	-0.35	0.07	-0.525	0.03172	-0.00854	1.008696	-0.5265	-1.413	-2.7765	0	3	1030	1
2026-02-11	16:28:18.330	-0.315	0.07	-0.49	0.036844	-0.009516	1.004792	-0.522	-1.4235	-2.781	0	3	1030	1
2026-02-11	16:28:18.350	-0.315	0.07	-0.49	0.033428	-0.009272	1.01138	-0.525	-1.4145	-2.781	0	3	1030	1
2026-02-11	16:28:18.370	-0.315	0.07	-0.455	0.033428	-0.009272	1.007232	-0.51	-1.4145	-2.781	0	3	1030	1
2026-02-11	16:28:18.390	-0.315	0.035	-0.49	0.03416	-0.011468	1.009428	-0.525	-1.4175	-2.784	0	3	1030	1
2026-02-11	16:28:18.410	-0.315	0.035	-0.525	0.0366	-0.011224	1.005524	-0.5235	-1.422	-2.775	0	3	1030	1
2026-02-11	16:28:18.430	-0.35	0.035	-0.525	0.033916	-0.00854	1.007232	-0.516	-1.416	-2.7795	0	3	1030	1
2026-02-11	16:28:18.450	-0.35	0.07	-0.525	0.0305	-0.007808	1.006744	-0.525	-1.407	-2.784	0	3	1030	1
2026-02-11	16:28:18.470	-0.315	0.07	-0.525	0.030256	-0.010736	1.008696	-0.5205	-1.4175	-2.7735	0	3	1030	1
2026-02-11	16:28:18.490	-0.35	0.035	-0.56	0.035624	-0.00976	1.009184	-0.522	-1.4265	-2.778	0	3	1030	1
2026-02-11	16:28:18.510	-0.35	0.035	-0.525	0.037576	-0.010248	1.00528	-0.5235	-1.419	-2.7765	0	3	1030	1
2026-02-11	16:28:18.530	-0.35	0.07	-0.525	0.029768	-0.006588	1.00894	-0.5205	-1.404	-2.787	0	3	1030	1
2026-02-11	16:28:18.550	-0.385	0.07	-0.525	0.03538	-0.010004	1.007964	-0.5205	-1.41	-2.7825	0	3	1030	1
2026-02-11	16:28:18.570	-0.385	0.035	-0.525	0.035868	-0.00854	1.006256	-0.519	-1.4175	-2.781	0	3	1030	1
2026-02-11	16:28:18.590	-0.35	0.07	-0.49	0.033184	-0.010492	1.00772	-0.519	-1.416	-2.7795	0	3	1030	1
2026-02-11	16:28:18.610	-0.35	0.035	-0.525	0.034648	-0.007564	1.006012	-0.5175	-1.416	-2.7795	0	3	1030	1
2026-02-11	16:28:18.630	-0.315	0.07	-0.49	0.032452	-0.012444	1.008208	-0.5145	-1.416	-2.7825	0	3	1030	1
2026-02-11	16:28:18.650	-0.315	0.035	-0.56	0.0366	-0.010004	1.006744	-0.5145	-1.416	-2.784	0	3	1030	1
2026-02-11	16:28:18.670	-0.35	0.035	-0.49	0.034648	-0.005612	1.00894	-0.5205	-1.4145	-2.7735	0	3	1030	1
2026-02-11	16:28:18.690	-0.315	0.07	-0.49	0.035136	-0.011224	1.006744	-0.513	-1.407	-2.7765	0	3	1030	1
2026-02-11	16:28:18.710	-0.35	0.07	-0.49	0.036844	-0.009028	1.01016	-0.5205	-1.4205	-2.787	0	3	1030	1
2026-02-11	16:28:18.730	-0.35	0.035	-0.49	0.035624	-0.007808	1.006988	-0.522	-1.4205	-2.7795	0	3	1030	1
2026-02-11	16:28:18.750	-0.35	0.035	-0.525	0.036356	-0.010004	1.00528	-0.525	-1.4205	-2.7765	0	3	1030	1
