yyyy-MM-dd	HH:mm:ss.fff	gyrX	gyrY	gyrZ	accX	accY	accZ	magX	magY	magZ	Marker	Energy	Angle	Classification
2026-02-11	16:27:49.610	-0.07	-0.14	-0.105	-0.014884	0.032452	1.013332	-0.8685	5.4675	-5.1	0	110	1021	1
2026-02-11	16:27:49.630	-0.035	-0.175	-0.105	-0.010492	0.032452	1.011868	-0.8655	5.4645	-5.1015	0	110	1021	1
2026-02-11	16:27:49.650	-0.105	-0.175	-0.105	-0.011956	0.030012	1.014064	-0.8625	5.4645	-5.1	0	110	1021	1
2026-02-11	16:27:49.670	-0.035	-0.14	-0.105	-0.014884	0.031232	1.012112	-0.8655	5.457	-5.097	0	110	1021	1
2026-02-11	16:27:49.690	-0.07	-0.14	-0.105	-0.013908	0.031232	1.010648	-0.87	5.4525	-5.106	0	110	1021	1
2026-02-11	16:27:49.710	-0.07	-0.175	-0.105	-0.00976	0.031476	1.008208	-0.8715	5.4555	-5.109	0	110	1021	1
2026-02-11	16:27:49.730	-0.035	-0.14	-0.07	-0.01098	0.030988	1.009672	-0.87	5.451	-5.1	0	110	1021	1
2026-02-11	16:27:49.750	-0.07	-0.175	-0.105	-0.009516	0.029524	1.012112	-0.8655	5.448	-5.0955	0	110	1021	1
2026-02-11	16:27:49.770	-0.07	-0.175	-0.105	-0.010492	0.02928	1.012844	-0.8685	5.4525	-5.0955	0	110	1021	1
2026-02-11	16:27:49.790	-0.105	-0.175	-0.07	-0.00976	0.030744	1.010404	-0.8685	5.451	-5.1015	0	110	1021	1
2026-02-11	16:27:49.810	-0.035	-0.175	-0.105	-0.008296	0.030012	1.010404	-0.8505	5.4795	-5.0925	0	93	1025	1
2026-02-11	16:27:49.830	-0.035	-0.175	-0.105	-0.013664	0.029768	1.009672	-0.8565	5.4885	-5.094	0	93	1025	1
2026-02-11	16:27:49.850	-0.105	-0.175	-0.105	-0.009272	0.030744	1.011624	-0.849	5.4795	-5.0835	0	93	1025	1
2026-02-11	16:27:49.870	-0.105	-0.175	-0.105	-0.012444	0.031476	1.01504	-0.8415	5.4795	-5.0865	0	93	1025	1
2026-02-11	16:27:49.890	-0.035	-0.175	-0.105	-0.011468	0.02928	1.012112	-0.8595	5.478	-5.0895	0	93	1025	1
2026-02-11	16:27:49.910	0	-0.14	-0.07	-0.00732	0.033184	1.009428	-0.8595	5.487	-5.082	0	93	1025	1
2026-02-11	16:27:49.930	-0.07	-0.175	-0.07	-0.010492	0.028548	1.011136	-0.8595	5.487	-5.082	0	93	1025	1
2026-02-11	16:27:49.950	-0.035	-0.14	-0.105	-0.013176	0.033916	1.010648	-0.8535	5.4855	-5.082	0	93	1025	1
2026-02-11	16:27:49.970	-0.07	-0.21	-0.105	-0.009516	0.031232	1.010892	-0.8475	5.484	-5.0835	0	93	1025	1
2026-02-11	16:27:49.990	-0.035	-0.175	-0.105	-0.009272	0.03172	1.013576	-0.8445	5.4795	-5.082	0	93	1025	1
2026-02-11	16:27:50.010	-0.035	-0.175	-0.105	-0.011468	0.033916	1.008452	-0.84	5.4825	-5.0895	0	79	1027	1
2026-02-11	16:27:50.030	-0.07	-0.175	-0.105	-0.009272	0.03416	1.011868	-0.852	5.4795	-5.0805	0	79	1027	1
2026-02-11	16:27:50.050	-0.07	-0.175	-0.105	-0.009516	0.030744	1.014308	-0.858	5.478	-5.0895	0	79	1027	1
2026-02-11	16:27:50.070	-0.07	-0.175	-0.07	-0.012444	0.029524	1.009428	-0.87	5.46	-5.109	0	79	1027	1
2026-02-11	16:27:50.090	-0.035	-0.14	-0.07	-0.010248	0.030744	1.011868	-0.8565	5.4645	-5.106	0	79	1027	1
2026-02-11	16:27:50.110	-0.105	-0.175	-0.105	-0.013176	0.034404	1.012844	-0.8685	5.4765	-5.097	0	79	1027	1
2026-02-11	16:27:50.130	-0.07	-0.175	-0.105	-0.012932	0.034648	1.014796	-0.8595	5.4765	-5.0925	0	79	1027	1
2026-02-11	16:27:50.150	-0.07	-0.175	-0.07	-0.0122	0.03172	1.010404	-0.846	5.478	-5.0835	0	79	1027	1
2026-02-11	16:27:50.170	-0.07	-0.175	-0.07	-0.010004	0.027084	1.011624	-0.8475	5.478	-5.0925	0	79	1027	1
2026-02-11	16:27:50.190	-0.105	-0.175	-0.035	-0.0122	0.033916	1.012844	-0.8565	5.4705	-5.1075	0	79	1027	1
2026-02-11	16:27:50.210	-0.035	-0.175	-0.105	-0.014396	0.029036	1.01138	-0.8625	5.4675	-5.112	0	67	1029	1
2026-02-11	16:27:50.230	-0.07	-0.175	-0.07	-0.010736	0.033916	1.013332	-0.8565	5.4705	-5.109	0	67	1029	1
2026-02-11	16:27:50.250	-0.105	-0.175	-0.105	-0.015372	0.032696	1.0126	-0.855	5.4615	-5.1045	0	67	1029	1
2026-02-11	16:27:50.270	-0.35	-0.28	-0.07	-0.012932	0.02562	1.010892	-0.8625	5.454	-5.1045	0	67	1029	1
2026-02-11	16:27:50.290	-0.035	-0.14	-0.07	-0.01586	0.029036	1.018944	-0.864	5.454	-5.106	0	67	1029	1
2026-02-11	16:27:50.310	0.035	-0.14	-0.07	-0.018788	0.032208	1.015284	-0.873	5.4525	-5.0955	0	67	1029	1
2026-02-11	16:27:50.330	0	-0.21	-0.105	-0.011712	0.031476	1.006744	-0.8625	5.457	-5.097	0	67	1029	1
2026-02-11	16:27:50.350	-0.035	-0.175	-0.14	-0.01464	0.033916	1.01138	-0.873	5.457	-5.1015	0	67	1029	1
2026-02-11	16:27:50.370	-0.035	-0.175	-0.07	-0.012932	0.033428	1.01016	-0.8685	5.451	-5.1	0	67	1029	1
2026-02-11	16:27:50.390	-0.035	-0.14	-0.07	-0.0122	0.029768	1.013332	-0.8475	5.49	-5.094	0	67	1029	1
2026-02-11	16:27:50.410	0	-0.175	-0.105	-0.009272	0.030012	1.009916	-0.8505	5.4795	-5.0865	0	58	1030	1
2026-02-11	16:27:50.430	-0.07	-0.175	-0.07	-0.012444	0.034648	1.012356	-0.861	5.481	-5.094	0	58	1030	1
2026-02-11	16:27:50.450	-0.035	-0.175	-0.07	-0.011956	0.03294	1.009916	-0.8415	5.4825	-5.085	0	58	1030	1
2026-02-11	16:27:50.470	-0.14	-0.21	-0.07	-0.01098	0.032452	1.015772	-0.855	5.4795	-5.0895	0	58	1030	1
2026-02-11	16:27:50.490	-0.14	-0.175	-0.07	-0.009028	0.0305	1.013088	-0.855	5.4795	-5.0895	0	58	1030	1
2026-02-11	16:27:50.510	-0.035	-0.14	-0.105	-0.011224	0.029768	1.009672	-0.8445	5.4855	-5.091	0	58	1030	1
2026-02-11	16:27:50.530	-0.035	-0.14	-0.105	-0.011468	0.031232	1.009428	-0.8445	5.4885	-5.085	0	58	1030	1
2026-02-11	16:27:50.550	-0.105	-0.175	-0.07	-0.007808	0.032452	1.01138	-0.8535	5.481	-5.088	0	58	1030	1
2026-02-11	16:27:50.570	-0.105	-0.175	-0.07	-0.010492	0.033672	1.012356	-0.855	5.484	-5.0865	0	58	1030	1
2026-02-11	16:27:50.590	-0.14	-0.175	-0.07	-0.011956	0.032208	1.014796	-0.861	5.484	-5.094	0	58	1030	1
2026-02-11	16:27:48.610	-0.07	-0.14	-0.07	-0.012688	0.031964	1.01138	-0.8715	5.4525	-5.106	0	262	976	1
2026-02-11	16:27:48.630	-0.035	-0.175	-0.07	-0.011468	0.033184	1.012112	-0.876	5.4555	-5.1045	0	262	976	1
2026-02-11	16:27:48.650	-0.07	-0.14	-0.07	-0.010004	0.031964	1.01382	-0.873	5.454	-5.1015	0	262	976	1
2026-02-11	16:27:48.670	-0.07	-0.14	-0.07	-0.01098	0.027816	1.008208	-0.8685	5.445	-5.1105	0	262	976	1
2026-02-11	16:27:48.690	-0.035	-0.14	-0.105	-0.011712	0.032208	1.008696	-0.8715	5.451	-5.085	0	262	976	1
2026-02-11	16:27:48.710	-0.07	-0.14	-0.105	-0.012444	0.032452	1.009184	-0.8655	5.4735	-5.094	0	262	976	1
2026-02-11	16:27:48.730	-0.14	-0.175	-0.07	-0.013176	0.030744	1.0126	-0.852	5.481	-5.0955	0	262	976	1
2026-02-11	16:27:48.750	-0.07	-0.14	-0.105	-0.011956	0.030988	1.009672	-0.8475	5.484	-5.0835	0	262	976	1
2026-02-11	16:27:48.770	-0.07	-0.175	-0.07	-0.01098	0.031476	1.010892	-0.852	5.478	-5.0835	0	262	976	1
2026-02-11	16:27:48.790	-0.07	-0.14	-0.105	-0.009272	0.032696	1.011136	-0.846	5.478	-5.0835	0	262	976	1
2026-02-11	16:27:48.810	-0.035	-0.175	-0.07	-0.012444	0.03294	1.009428	-0.858	5.4825	-5.0805	0	223	992	1
2026-02-11	16:27:48.830	-0.07	-0.175	-0.07	-0.011468	0.030988	1.012844	-0.858	5.4825	-5.0805	0	223	992	1
2026-02-11	16:27:48.850	-0.035	-0.175	-0.07	-0.011712	0.033916	1.009672	-0.8535	5.4855	-5.0865	0	223	992	1
2026-02-11	16:27:48.870	-0.105	-0.14	-0.105	-0.007076	0.032208	1.013332	-0.855	5.484	-5.091	0	223	992	1
2026-02-11	16:27:48.890	-0.105	-0.175	-0.07	-0.00976	0.032208	1.012844	-0.8565	5.481	-5.0865	0	223	992	1
2026-02-11	16:27:48.910	-0.07	-0.175	-0.07	-0.010736	0.033916	1.01016	-0.864	5.4765	-5.0985	0	223	992	1
2026-02-11	16:27:48.930	-0.105	-0.175	-0.07	-0.011956	0.033184	1.012112	-0.87	5.475	-5.112	0	223	992	1
2026-02-11	16:27:48.950	-0.105	-0.14	-0.105	-0.012932	0.0305	1.011624	-0.8655	5.4795	-5.1105	0	223	992	1
2026-02-11	16:27:48.970	-0.07	-0.175	-0.105	-0.014152	0.029036	1.014064	-0.87	5.472	-5.0925	0	223	992	1
2026-02-11	16:27:48.990	-0.07	-0.175	-0.07	-0.014152	0.03416	1.012844	-0.855	5.4915	-5.0805	0	223	992	1
2026-02-11	16:27:49.010	0	-0.14	-0.14	-0.015128	0.031232	1.007476	-0.855	5.4915	-5.0805	0	187	1003	1
2026-02-11	16:27:49.030	-0.105	-0.14	-0.105	-0.012688	0.02928	1.014308	-0.861	5.478	-5.0955	0	187	1003	1
2026-02-11	16:27:49.050	-0.035	-0.14	-0.07	-0.00854	0.030256	1.012112	-0.8715	5.4675	-5.109	0	187	1003	1
2026-02-11	16:27:49.070	0	-0.175	-0.07	-0.008296	0.031232	1.009428	-0.8685	5.4795	-5.0955	0	187	1003	1
2026-02-11	16:27:49.090	-0.07	-0.175	-0.105	-0.011956	0.030744	1.011136	-0.8565	5.484	-5.085	0	187	1003	1
2026-02-11	16:27:49.110	-0.07	-0.175	-0.105	-0.0122	0.030988	1.00894	-0.858	5.472	-5.094	0	187	1003	1
2026-02-11	16:27:49.130	-0.035	-0.14	-0.07	-0.011224	0.03172	1.007964	-0.867	5.463	-5.1075	0	187	1003	1
2026-02-11	16:27:49.150	-0.07	-0.175	-0.105	-0.00976	0.030256	1.010404	-0.87	5.463	-5.112	0	187	1003	1
2026-02-11	16:27:49.170	-0.07	-0.14	-0.07	-0.012932	0.03294	1.011136	-0.873	5.4705	-5.112	0	187	1003	1
2026-02-11	16:27:49.190	0.035	-0.175	-0.105	-0.015372	0.031476	1.01138	-0.8745	5.4765	-5.112	0	187	1003	1
2026-02-11	16:27:49.210	0	-0.14	-0.105	-0.009516	0.030988	1.008208	-0.8625	5.451	-5.1015	0	157	1011	1
2026-02-11	16:27:49.230	-0.07	-0.14	-0.07	-0.01098	0.031476	1.009916	-0.8715	5.451	-5.0895	0	157	1011	1
2026-02-11	16:27:49.250	-0.035	-0.175	-0.105	-0.0122	0.029768	1.013332	-0.8505	5.484	-5.085	0	157	1011	1
2026-02-11	16:27:49.270	0	-0.14	-0.105	-0.014396	0.030988	1.00894	-0.843	5.4855	-5.0835	0	157	1011	1
2026-02-11	16:27:49.290	-0.07	-0.14	-0.07	-0.009272	0.032452	1.012844	-0.8475	5.484	-5.0925	0	157	1011	1
2026-02-11	16:27:49.310	-0.07	-0.14	-0.07	-0.010736	0.03294	1.010648	-0.849	5.484	-5.085	0	157	1011	1
2026-02-11	16:27:49.330	-0.035	-0.175	-0.105	-0.014152	0.030988	1.008452	-0.849	5.481	-5.0835	0	157	1011	1
2026-02-11	16:27:49.350	-0.105	-0.175	-0.07	-0.01098	0.032208	1.009916	-0.8505	5.4795	-5.085	0	157	1011	1
2026-02-11	16:27:49.370	-0.07	-0.175	-0.07	-0.007076	0.032452	1.009428	-0.8535	5.4915	-5.0835	0	157	1011	1
2026-02-11	16:27:49.390	-0.035	-0.14	-0.105	-0.01342	0.031232	1.011136	-0.8505	5.4855	-5.082	0	157	1011	1
2026-02-11	16:27:49.410	-0.07	-0.175	-0.07	-0.010492	0.028792	1.010404	-0.8505	5.4795	-5.0835	0	131	1017	1
2026-02-11	16:27:49.430	-0.07	-0.175	-0.07	-0.016104	0.03172	1.010404	-0.849	5.478	-5.0865	0	131	1017	1
2026-02-11	16:27:49.450	-0.07	-0.21	-0.07	-0.008784	0.0305	1.011136	-0.8475	5.4765	-5.088	0	131	1017	1
2026-02-11	16:27:49.470	-0.07	-0.175	-0.07	-0.011224	0.03172	1.012356	-0.864	5.4855	-5.088	0	131	1017	1
2026-02-11	16:27:49.490	-0.07	-0.175	-0.07	-0.013908	0.034404	1.013576	-0.858	5.4825	-5.0865	0	131	1017	1
2026-02-11	16:27:49.510	-0.07	-0.175	-0.07	-0.01098	0.032452	1.012844	-0.867	5.4615	-5.1045	0	131	1017	1
2026-02-11	16:27:49.530	-0.07	-0.175	-0.07	-0.012688	0.03294	1.012112	-0.87	5.4615	-5.112	0	131	1017	1
2026-02-11	16:27:49.550	-0.105	-0.175	-0.07	-0.010004	0.032452	1.012112	-0.8685	5.4645	-5.109	0	131	1017	1
2026-02-11	16:27:49.570	-0.07	-0.175	-0.07	-0.011468	0.029768	1.007232	-0.864	5.475	-5.0985	0	131	1017	1
2026-02-11	16:27:49.590	-0.035	-0.14	-0.07	-0.0122	0.031964	1.010648	-0.864	5.478	-5.094	0	131	1017	1
2026-02-11	16:27:49.610	-0.07	-0.14	-0.105	-0.014884	0.032452	1.013332	-0.8685	5.4675	-5.1	0	110	1021	1
2026-02-11	16:27:49.630	-0.035	-0.175	-0.105	-0.010492	0.032452	1.011868	-0.8655	5.4645	-5.1015	0	110	1021	1
2026-02-11	16:27:49.650	-0.105	-0.175	-0.105	-0.011956	0.030012	1.014064	-0.8625	5.4645	-5.1	0	110	1021	1
2026-02-11	16:27:49.670	-0.035	-0.14	-0.105	-0.014884	0.031232	1.012112	-0.8655	5.457	-5.097	0	110	1021	1
2026-02-11	16:27:49.690	-0.07	-0.14	-0.105	-0.013908	0.031232	1.010648	-0.87	5.4525	-5.106	0	110	1021	1
2026-02-11	16:27:49.710	-0.07	-0.175	-0.105	-0.00976	0.031476	1.008208	-0.8715	5.4555	-5.109	0	110	1021	1
2026-02-11	16:27:49.730	-0.035	-0.14	-0.07	-0.01098	0.030988	1.009672	-0.87	5.451	-5.1	0	110	1021	1
2026-02-11	16:27:49.750	-0.07	-0.175	-0.105	-0.009516	0.029524	1.012112	-0.8655	5.448	-5.0955	0	110	1021	1
2026-02-11	16:27:49.770	-0.07	-0.175	-0.105	-0.010492	0.02928	1.012844	-0.8685	5.4525	-5.0955	0	110	1021	1
2026-02-11	16:27:49.790	-0.105	-0.175	-0.07	-0.00976	0.030744	1.010404	-0.8685	5.451	-5.1015	0	110	1021	1
2026-02-11	16:27:49.810	-0.035	-0.175	-0.105	-0.008296	0.030012	1.010404	-0.8505	5.4795	-5.0925	0	93	1025	1
2026-02-11	16:27:49.830	-0.035	-0.175	-0.105	-0.013664	0.029768	1.009672	-0.8565	5.4885	-5.094	0	93	1025	1
2026-02-11	16:27:49.850	-0.105	-0.175	-0.105	-0.009272	0.030744	1.011624	-0.849	5.4795	-5.0835	0	93	1025	1
2026-02-11	16:27:49.870	-0.105	-0.175	-0.105	-0.012444	0.031476	1.01504	-0.8415	5.4795	-5.0865	0	93	1025	1
2026-02-11	16:27:49.890	-0.035	-0.175	-0.105	-0.011468	0.02928	1.012112	-0.8595	5.478	-5.0895	0	93	1025	1
2026-02-11	16:27:49.910	0	-0.14	-0.07	-0.00732	0.033184	1.009428	-0.8595	5.487	-5.082	0	93	1025	1
2026-02-11	16:27:49.930	-0.07	-0.175	-0.07	-0.010492	0.028548	1.011136	-0.8595	5.487	-5.082	0	93	1025	1
2026-02-11	16:27:49.950	-0.035	-0.14	-0.105	-0.013176	0.033916	1.010648	-0.8535	5.4855	-5.082	0	93	1025	1
2026-02-11	16:27:49.970	-0.07	-0.21	-0.105	-0.009516	0.031232	1.010892	-0.8475	5.484	-5.0835	0	93	1025	1
2026-02-11	16:27:49.990	-0.035	-0.175	-0.105	-0.009272	0.03172	1.013576	-0.8445	5.4795	-5.082	0	93	1025	1
2026-02-11	16:27:50.010	-0.035	-0.175	-0.105	-0.011468	0.033916	1.008452	-0.84	5.4825	-5.0895	0	79	1027	1
2026-02-11	16:27:50.030	-0.07	-0.175	-0.105	-0.009272	0.03416	1.011868	-0.852	5.4795	-5.0805	0	79	1027	1
2026-02-11	16:27:50.050	-0.07	-0.175	-0.105	-0.009516	0.030744	1.014308	-0.858	5.478	-5.0895	0	79	1027	1
2026-02-11	16:27:50.070	-0.07	-0.175	-0.07	-0.012444	0.029524	1.009428	-0.87	5.46	-5.109	0	79	1027	1
2026-02-11	16:27:50.090	-0.035	-0.14	-0.07	-0.010248	0.030744	1.011868	-0.8565	5.4645	-5.106	0	79	1027	1
2026-02-11	16:27:50.110	-0.105	-0.175	-0.105	-0.013176	0.034404	1.012844	-0.8685	5.4765	-5.097	0	79	1027	1
2026-02-11	16:27:50.130	-0.07	-0.175	-0.105	-0.012932	0.034648	1.014796	-0.8595	5.4765	-5.0925	0	79	1027	1
2026-02-11	16:27:50.150	-0.07	-0.175	-0.07	-0.0122	0.03172	1.010404	-0.846	5.478	-5.0835	0	79	1027	1
2026-02-11	16:27:50.170	-0.07	-0.175	-0.07	-0.010004	0.027084	1.011624	-0.8475	5.478	-5.0925	0	79	1027	1
2026-02-11	16:27:50.190	-0.105	-0.175	-0.035	-0.0122	0.033916	1.012844	-0.8565	5.4705	-5.1075	0	79	1027	1
2026-02-11	16:27:50.210	-0.035	-0.175	-0.105	-0.014396	0.029036	1.01138	-0.8625	5.4675	-5.112	0	67	1029	1
2026-02-11	16:27:50.230	-0.07	-0.175	-0.07	-0.010736	0.033916	1.013332	-0.8565	5.4705	-5.109	0	67	1029	1
2026-02-11	16:27:50.250	-0.105	-0.175	-0.105	-0.015372	0.032696	1.0126	-0.855	5.4615	-5.1045	0	67	1029	1
2026-02-11	16:27:50.270	-0.35	-0.28	-0.07	-0.012932	0.02562	1.010892	-0.8625	5.454	-5.1045	0	67	1029	1
2026-02-11	16:27:50.290	-0.035	-0.14	-0.07	-0.01586	0.029036	1.018944	-0.864	5.454	-5.106	0	67	1029	1
2026-02-11	16:27:50.310	0.035	-0.14	-0.07	-0.018788	0.032208	1.015284	-0.873	5.4525	-5.0955	0	67	1029	1
2026-02-11	16:27:50.330	0	-0.21	-0.105	-0.011712	0.031476	1.006744	-0.8625	5.457	-5.097	0	67	1029	1
2026-02-11	16:27:50.350	-0.035	-0.175	-0.14	-0.01464	0.033916	1.01138	-0.873	5.457	-5.1015	0	67	1029	1
2026-02-11	16:27:50.370	-0.035	-0.175	-0.07	-0.012932	0.033428	1.01016	-0.8685	5.451	-5.1	0	67	1029	1
2026-02-11	16:27:50.390	-0.035	-0.14	-0.07	-0.0122	0.029768	1.013332	-0.8475	5.49	-5.094	0	67	1029	1
2026-02-11	16:27:50.410	0	-0.175	-0.105	-0.009272	0.030012	1.009916	-0.8505	5.4795	-5.0865	0	58	1030	1
2026-02-11	16:27:50.430	-0.07	-0.175	-0.07	-0.012444	0.034648	1.012356	-0.861	5.481	-5.094	0	58	1030	1
2026-02-11	16:27:50.450	-0.035	-0.175	-0.07	-0.011956	0.03294	1.009916	-0.8415	5.4825	-5.085	0	58	1030	1
2026-02-11	16:27:50.470	-0.14	-0.21	-0.07	-0.01098	0.032452	1.015772	-0.855	5.4795	-5.0895	0	58	1030	1
2026-02-11	16:27:50.490	-0.14	-0.175	-0.07	-0.009028	0.0305	1.013088	-0.855	5.4795	-5.0895	0	58	1030	1
2026-02-11	16:27:50.510	-0.035	-0.14	-0.105	-0.011224	0.029768	1.009672	-0.8445	5.4855	-5.091	0	58	1030	1
2026-02-11	16:27:50.530	-0.035	-0.14	-0.105	-0.011468	0.031232	1.009428	-0.8445	5.4885	-5.085	0	58	1030	1
2026-02-11	16:27:50.550	-0.105	-0.175	-0.07	-0.007808	0.032452	1.01138	-0.8535	5.481	-5.088	0	58	1030	1
2026-02-11	16:27:50.570	-0.105	-0.175	-0.07	-0.010492	0.033672	1.012356	-0.855	5.484	-5.0865	0	58	1030	1
2026-02-11	16:27:50.590	-0.14	-0.175	-0.07	-0.011956	0.032208	1.014796	-0.861	5.484	-5.094	0	58	1030	1
2026-02-11	16:27:48.610	-0.07	-0.14	-0.07	-0.012688	0.031964	1.01138	-0.8715	5.4525	-5.106	0	262	976	1
2026-02-11	16:27:48.630	-0.035	-0.175	-0.07	-0.011468	0.033184	1.012112	-0.876	5.4555	-5.1045	0	262	976	1
2026-02-11	16:27:48.650	-0.07	-0.14	-0.07	-0.010004	0.031964	1.01382	-0.873	5.454	-5.1015	0	262	976	1
2026-02-11	16:27:48.670	-0.07	-0.14	-0.07	-0.01098	0.027816	1.008208	-0.8685	5.445	-5.1105	0	262	976	1
2026-02-11	16:27:48.690	-0.035	-0.14	-0.105	-0.011712	0.032208	1.008696	-0.8715	5.451	-5.085	0	262	976	1
2026-02-11	16:27:48.710	-0.07	-0.14	-0.105	-0.012444	0.032452	1.009184	-0.8655	5.4735	-5.094	0	262	976	1
2026-02-11	16:27:48.730	-0.14	-0.175	-0.07	-0.013176	0.030744	1.0126	-0.852	5.481	-5.0955	0	262	976	1
2026-02-11	16:27:48.750	-0.07	-0.14	-0.105	-0.011956	0.030988	1.009672	-0.8475	5.484	-5.0835	0	262	976	1
2026-02-11	16:27:48.770	-0.07	-0.175	-0.07	-0.01098	0.031476	1.010892	-0.852	5.478	-5.0835	0	262	976	1
2026-02-11	16:27:48.790	-0.07	-0.14	-0.105	-0.009272	0.032696	1.011136	-0.846	5.478	-5.0835	0	262	976	1
2026-02-11	16:27:48.810	-0.035	-0.175	-0.07	-0.012444	0.03294	1.009428	-0.858	5.4825	-5.0805	0	223	992	1
2026-02-11	16:27:48.830	-0.07	-0.175	-0.07	-0.011468	0.030988	1.012844	-0.858	5.4825	-5.0805	0	223	992	1
2026-02-11	16:27:48.850	-0.035	-0.175	-0.07	-0.011712	0.033916	1.009672	-0.8535	5.4855	-5.0865	0	223	992	1
2026-02-11	16:27:48.870	-0.105	-0.14	-0.105	-0.007076	0.032208	1.013332	-0.855	5.484	-5.091	0	223	992	1
2026-02-11	16:27:48.890	-0.105	-0.175	-0.07	-0.00976	0.032208	1.012844	-0.8565	5.481	-5.0865	0	223	992	1
2026-02-11	16:27:48.910	-0.07	-0.175	-0.07	-0.010736	0.033916	1.01016	-0.864	5.4765	-5.0985	0	223	992	1
2026-02-11	16:27:48.930	-0.105	-0.175	-0.07	-0.011956	0.033184	1.012112	-0.87	5.475	-5.112	0	223	992	1
2026-02-11	16:27:48.950	-0.105	-0.14	-0.105	-0.012932	0.0305	1.011624	-0.8655	5.4795	-5.1105	0	223	992	1
2026-02-11	16:27:48.970	-0.07	-0.175	-0.105	-0.014152	0.029036	1.014064	-0.87	5.472	-5.0925	0	223	992	1
2026-02-11	16:27:48.990	-0.07	-0.175	-0.07	-0.014152	0.03416	1.012844	-0.855	5.4915	-5.0805	0	223	992	1
2026-02-11	16:27:49.010	0	-0.14	-0.14	-0.015128	0.031232	1.007476	-0.855	5.4915	-5.0805	0	187	1003	1
2026-02-11	16:27:49.030	-0.105	-0.14	-0.105	-0.012688	0.02928	1.014308	-0.861	5.478	-5.0955	0	187	1003	1
2026-02-11	16:27:49.050	-0.035	-0.14	-0.07	-0.00854	0.030256	1.012112	-0.8715	5.4675	-5.109	0	187	1003	1
2026-02-11	16:27:49.070	0	-0.175	-0.07	-0.008296	0.031232	1.009428	-0.8685	5.4795	-5.0955	0	187	1003	1
2026-02-11	16:27:49.090	-0.07	-0.175	-0.105	-0.011956	0.030744	1.011136	-0.8565	5.484	-5.085	0	187	1003	1
2026-02-11	16:27:49.110	-0.07	-0.175	-0.105	-0.0122	0.030988	1.00894	-0.858	5.472	-5.094	0	187	1003	1
2026-02-11	16:27:49.130	-0.035	-0.14	-0.07	-0.011224	0.03172	1.007964	-0.867	5.463	-5.1075	0	187	1003	1
2026-02-11	16:27:49.150	-0.07	-0.175	-0.105	-0.00976	0.030256	1.010404	-0.87	5.463	-5.112	0	187	1003	1
2026-02-11	16:27:49.170	-0.07	-0.14	-0.07	-0.012932	0.03294	1.011136	-0.873	5.4705	-5.112	0	187	1003	1
2026-02-11	16:27:49.190	0.035	-0.175	-0.105	-0.015372	0.031476	1.01138	-0.8745	5.4765	-5.112	0	187	1003	1
2026-02-11	16:27:49.210	0	-0.14	-0.105	-0.009516	0.030988	1.008208	-0.8625	5.451	-5.1015	0	157	1011	1
2026-02-11	16:27:49.230	-0.07	-0.14	-0.07	-0.01098	0.031476	1.009916	-0.8715	5.451	-5.0895	0	157	1011	1
2026-02-11	16:27:49.250	-0.035	-0.175	-0.105	-0.0122	0.029768	1.013332	-0.8505	5.484	-5.085	0	157	1011	1
2026-02-11	16:27:49.270	0	-0.14	-0.105	-0.014396	0.030988	1.00894	-0.843	5.4855	-5.0835	0	157	1011	1
2026-02-11	16:27:49.290	-0.07	-0.14	-0.07	-0.009272	0.032452	1.012844	-0.8475	5.484	-5.0925	0	157	1011	1
2026-02-11	16:27:49.310	-0.07	-0.14	-0.07	-0.010736	0.03294	1.010648	-0.849	5.484	-5.085	0	157	1011	1
2026-02-11	16:27:49.330	-0.035	-0.175	-0.105	-0.014152	0.030988	1.008452	-0.849	5.481	-5.0835	0	157	1011	1
2026-02-11	16:27:49.350	-0.105	-0.175	-0.07	-0.01098	0.032208	1.009916	-0.8505	5.4795	-5.085	0	157	1011	1
2026-02-11	16:27:49.370	-0.07	-0.175	-0.07	-0.007076	0.032452	1.009428	-0.8535	5.4915	-5.0835	0	157	1011	1
2026-02-11	16:27:49.390	-0.035	-0.14	-0.105	-0.01342	0.031232	1.011136	-0.8505	5.4855	-5.082	0	157	1011	1
2026-02-11	16:27:59.410	-0.035	-0.175	-0.105	-0.013908	0.030988	1.013332	-0.867	5.4585	-5.0985	0	378	877	1
2026-02-11	16:27:59.430	0	-0.14	-0.105	-0.011956	0.030744	1.010892	-0.8625	5.4495	-5.0955	0	378	877	1
2026-02-11	16:27:59.450	-0.035	-0.175	-0.105	-0.010736	0.033428	1.011624	-0.852	5.4615	-5.088	0	378	877	1
2026-02-11	16:27:59.470	0	-0.14	-0.105	-0.011224	0.0305	1.011136	-0.843	5.478	-5.0805	0	378	877	1
2026-02-11	16:27:59.490	-0.105	-0.175	-0.105	-0.009516	0.030988	1.010892	-0.849	5.484	-5.0835	0	378	877	1
2026-02-11	16:27:59.510	-0.105	-0.175	-0.07	-0.010736	0.028304	1.009428	-0.852	5.484	-5.085	0	378	877	1
2026-02-11	16:27:59.530	0	-0.175	-0.07	-0.009028	0.0305	1.01138	-0.852	5.4795	-5.0775	0	378	877	1
2026-02-11	16:27:59.550	0	-0.175	-0.07	-0.00854	0.030256	1.011136	-0.8535	5.4795	-5.076	0	378	877	1
2026-02-11	16:27:59.570	0.07	-0.14	-0.105	-0.011712	0.027572	1.011868	-0.8535	5.481	-5.082	0	378	877	1
2026-02-11	16:27:59.590	0.14	-0.105	-0.07	-0.011468	0.028304	1.011624	-0.849	5.49	-5.076	0	378	877	1
2026-02-11	16:27:59.610	0.14	-0.105	-0.07	-0.009272	0.032208	1.0126	-0.8475	5.4825	-5.082	0	349	919	1
2026-02-11	16:27:59.630	0.14	-0.14	-0.07	-0.013176	0.029036	1.010648	-0.8505	5.4795	-5.0865	0	349	919	1
2026-02-11	16:27:59.650	-0.035	-0.14	-0.105	-0.008784	0.02928	1.011624	-0.846	5.484	-5.073	0	349	919	1
2026-02-11	16:27:59.670	-0.07	-0.21	-0.07	-0.007564	0.029768	1.01138	-0.855	5.4855	-5.0805	0	349	919	1
2026-02-11	16:27:59.690	-0.07	-0.175	-0.105	-0.012444	0.0305	1.011868	-0.855	5.4765	-5.0805	0	349	919	1
2026-02-11	16:27:59.710	-0.035	-0.14	-0.07	-0.010248	0.029768	1.008696	-0.8745	5.475	-5.1075	0	349	919	1
2026-02-11	16:27:59.730	-0.035	-0.175	-0.07	-0.009272	0.027816	1.009428	-0.8715	5.4615	-5.1015	0	349	919	1
2026-02-11	16:27:59.750	-0.07	-0.21	-0.07	-0.006588	0.026596	1.010892	-0.8715	5.4675	-5.1075	0	349	919	1
2026-02-11	16:27:59.770	-0.14	-0.175	-0.07	-0.013176	0.030988	1.010648	-0.8655	5.4765	-5.0955	0	349	919	1
2026-02-11	16:27:59.790	0.035	-0.14	-0.105	-0.00732	0.028548	1.010648	-0.864	5.4735	-5.0955	0	349	919	1
2026-02-11	16:27:59.810	0.07	-0.105	-0.07	-0.00976	0.032696	1.01138	-0.87	5.4645	-5.1075	0	311	950	1
2026-02-11	16:27:59.830	0.035	-0.14	-0.07	-0.010004	0.029768	1.01016	-0.8685	5.4675	-5.106	0	311	950	1
2026-02-11	16:27:59.850	0.035	-0.105	-0.105	-0.010004	0.029768	1.0126	-0.882	5.4675	-5.109	0	311	950	1
2026-02-11	16:27:59.870	0.07	-0.14	-0.105	-0.011224	0.028548	1.008452	-0.879	5.4615	-5.1045	0	311	950	1
2026-02-11	16:27:59.890	0	-0.14	-0.07	-0.00854	0.029768	1.008208	-0.858	5.4555	-5.0985	0	311	950	1
2026-02-11	16:27:59.910	-0.07	-0.21	-0.035	-0.01098	0.030012	1.013576	-0.861	5.445	-5.103	0	311	950	1
2026-02-11	16:27:59.930	0.07	-0.14	-0.105	-0.0122	0.02806	1.01016	-0.8685	5.451	-5.0985	0	311	950	1
2026-02-11	16:27:59.950	-0.035	-0.105	-0.07	-0.0122	0.031476	1.008208	-0.861	5.454	-5.097	0	311	950	1
2026-02-11	16:27:59.970	0	-0.14	-0.07	-0.012932	0.031232	1.012844	-0.852	5.4735	-5.0865	0	311	950	1
2026-02-11	16:27:59.990	-0.035	-0.21	-0.07	-0.010004	0.02928	1.010404	-0.8445	5.484	-5.082	0	311	950	1
2026-02-11	16:28:00.010	0	-0.175	-0.105	-0.01098	0.02928	1.011136	-0.849	5.4765	-5.0835	0	270	972	1
2026-02-11	16:28:00.030	-0.07	-0.175	-0.07	-0.011224	0.027084	1.010892	-0.861	5.478	-5.079	0	270	972	1
2026-02-11	16:28:00.050	-0.035	-0.175	-0.07	-0.01464	0.031232	1.011624	-0.858	5.4795	-5.082	0	270	972	1
2026-02-11	16:28:00.070	-0.07	-0.14	-0.07	-0.00976	0.030012	1.012844	-0.8535	5.4795	-5.0865	0	270	972	1
2026-02-11	16:28:00.090	-0.07	-0.175	-0.105	-0.013908	0.02928	1.01138	-0.8505	5.4735	-5.088	0	270	972	1
2026-02-11	16:28:00.110	-0.07	-0.21	-0.07	-0.010004	0.028548	1.012844	-0.8475	5.472	-5.088	0	270	972	1
2026-02-11	16:28:00.130	-0.105	-0.175	-0.07	-0.0122	0.028548	1.010404	-0.8475	5.4765	-5.0865	0	270	972	1
2026-02-11	16:28:00.150	0	-0.14	-0.105	-0.011224	0.030988	1.011136	-0.8505	5.478	-5.082	0	270	972	1
2026-02-11	16:28:00.170	-0.035	-0.21	-0.07	-0.011712	0.032208	1.010404	-0.849	5.4885	-5.082	0	270	972	1
2026-02-11	16:28:00.190	0	-0.175	-0.105	-0.012444	0.032208	1.009428	-0.8535	5.4825	-5.0895	0	270	972	1
2026-02-11	16:28:00.210	0	-0.175	-0.105	-0.015128	0.031232	1.009184	-0.861	5.499	-5.082	0	230	989	1
2026-02-11	16:28:00.230	0	-0.175	-0.07	-0.011468	0.030256	1.011868	-0.852	5.484	-5.0775	0	230	989	1
2026-02-11	16:28:00.250	-0.07	-0.175	-0.105	-0.009028	0.030988	1.01382	-0.8505	5.487	-5.0685	0	230	989	1
2026-02-11	16:28:00.270	-0.07	-0.21	-0.105	-0.010492	0.028792	1.011136	-0.8475	5.487	-5.0775	0	230	989	1
2026-02-11	16:28:00.290	-0.105	-0.175	-0.105	-0.0122	0.030012	1.013332	-0.8715	5.4735	-5.0955	0	230	989	1
2026-02-11	16:28:00.310	-0.07	-0.175	-0.105	-0.012688	0.0305	1.01016	-0.8715	5.4735	-5.0955	0	230	989	1
2026-02-11	16:28:00.330	0	-0.175	-0.105	-0.008052	0.032208	1.01138	-0.864	5.475	-5.091	0	230	989	1
2026-02-11	16:28:00.350	-0.07	-0.175	-0.07	-0.010492	0.034404	1.011868	-0.852	5.478	-5.085	0	230	989	1
2026-02-11	16:28:00.370	0	-0.105	-0.105	-0.013908	0.030744	1.013576	-0.858	5.472	-5.091	0	230	989	1
2026-02-11	16:28:00.390	0	-0.175	-0.105	-0.012688	0.029524	1.010404	-0.87	5.46	-5.103	0	230	989	1
2026-02-11	16:28:00.410	0	-0.175	-0.07	-0.0122	0.033184	1.014552	-0.87	5.454	-5.1075	0	194	1001	1
2026-02-11	16:28:00.430	0	-0.14	-0.07	-0.01098	0.03172	1.011136	-0.8775	5.463	-5.112	0	194	1001	1
2026-02-11	16:28:00.450	-0.07	-0.14	-0.105	-0.008296	0.03172	1.010892	-0.8685	5.4555	-5.0955	0	194	1001	1
2026-02-11	16:28:00.470	-0.105	-0.14	-0.105	-0.01342	0.02562	1.011136	-0.876	5.451	-5.1	0	194	1001	1
2026-02-11	16:28:00.490	-0.105	-0.21	-0.105	-0.00976	0.033428	1.011624	-0.876	5.451	-5.1	0	194	1001	1
2026-02-11	16:28:00.510	-0.14	-0.14	-0.105	-0.014152	0.031476	1.00894	-0.873	5.4525	-5.0985	0	194	1001	1
2026-02-11	16:28:00.530	-0.105	-0.175	-0.07	-0.0122	0.029524	1.013576	-0.8715	5.454	-5.0955	0	194	1001	1
2026-02-11	16:28:00.550	-0.07	-0.175	-0.07	-0.008296	0.034892	1.012356	-0.8685	5.454	-5.094	0	194	1001	1
2026-02-11	16:28:00.570	-0.14	-0.21	-0.105	-0.01098	0.029524	1.010892	-0.864	5.451	-5.0955	0	194	1001	1
2026-02-11	16:28:00.590	-0.35	-0.245	-0.105	-0.009272	0.024644	1.01016	-0.864	5.451	-5.091	0	194	1001	1
2026-02-11	16:28:00.610	0.035	-0.14	-0.07	-0.011712	0.031476	1.015528	-0.8565	5.475	-5.088	0	162	1010	1
2026-02-11	16:28:00.630	0.07	-0.175	-0.07	-0.012444	0.032208	1.011136	-0.8505	5.484	-5.085	0	162	1010	1
2026-02-11	16:28:00.650	0	-0.21	-0.105	-0.012444	0.02928	1.010892	-0.8475	5.475	-5.0835	0	162	1010	1
2026-02-11	16:28:00.670	-0.07	-0.175	-0.105	-0.010004	0.03172	1.014308	-0.8445	5.478	-5.0835	0	162	1010	1
2026-02-11	16:28:00.690	-0.035	-0.21	-0.105	-0.008784	0.030012	1.009672	-0.858	5.4735	-5.0865	0	162	1010	1
2026-02-11	16:28:00.710	-0.07	-0.175	-0.07	-0.010248	0.029036	1.014796	-0.867	5.49	-5.0835	0	162	1010	1
2026-02-11	16:28:00.730	0	-0.14	-0.105	-0.012444	0.030988	1.012844	-0.8595	5.4855	-5.0835	0	162	1010	1
2026-02-11	16:28:00.750	0	-0.14	-0.105	-0.01464	0.029768	1.010892	-0.8565	5.487	-5.079	0	162	1010	1
2026-02-11	16:28:00.770	0	-0.175	-0.105	-0.010004	0.02806	1.009672	-0.858	5.484	-5.0805	0	162	1010	1
2026-02-11	16:28:00.790	-0.035	-0.14	-0.105	-0.009272	0.030256	1.01138	-0.849	5.478	-5.0805	0	162	1010	1
2026-02-11	16:28:00.810	-0.07	-0.175	-0.105	-0.010492	0.029768	1.010648	-0.8505	5.475	-5.0835	0	136	1016	1
2026-02-11	16:28:00.830	-0.07	-0.175	-0.105	-0.01342	0.031232	1.014308	-0.8475	5.4825	-5.082	0	136	1016	1
2026-02-11	16:28:00.850	-0.07	-0.175	-0.105	-0.011712	0.028304	1.011624	-0.876	5.4615	-5.1075	0	136	1016	1
2026-02-11	16:28:00.870	0	-0.14	-0.07	-0.011224	0.03172	1.012844	-0.8715	5.46	-5.106	0	136	1016	1
2026-02-11	16:28:00.890	0.105	-0.14	-0.105	-0.011712	0.033672	1.01016	-0.8625	5.463	-5.103	0	136	1016	1
2026-02-11	16:28:00.910	0.105	-0.105	-0.105	-0.01098	0.031964	1.009672	-0.858	5.4735	-5.0925	0	136	1016	1
2026-02-11	16:28:00.930	0.21	-0.035	-0.105	-0.00976	0.031964	1.0126	-0.858	5.481	-5.085	0	136	1016	1
2026-02-11	16:28:00.950	0.175	-0.105	-0.07	-0.008052	0.031476	1.010892	-0.858	5.475	-5.088	0	136	1016	1
2026-02-11	16:28:00.970	0.14	-0.105	-0.07	-0.01342	0.029524	1.01138	-0.87	5.472	-5.1135	0	136	1016	1
2026-02-11	16:28:00.990	0.07	-0.14	-0.105	-0.013664	0.03172	1.012112	-0.8745	5.4675	-5.1075	0	136	1016	1
2026-02-11	16:28:01.010	0.105	-0.105	-0.105	-0.012444	0.03416	1.009184	-0.8655	5.4675	-5.1135	0	114	1021	1
2026-02-11	16:28:01.030	0	-0.14	-0.07	-0.011224	0.028304	1.011136	-0.8595	5.469	-5.103	0	114	1021	1
2026-02-11	16:28:01.050	-0.035	-0.175	-0.105	-0.0122	0.031476	1.014796	-0.861	5.463	-5.1045	0	114	1021	1
2026-02-11	16:28:01.070	-0.105	-0.14	-0.07	-0.011956	0.030988	1.009916	-0.8715	5.4525	-5.106	0	114	1021	1
2026-02-11	16:28:01.090	-0.07	-0.14	-0.105	-0.010492	0.030988	1.011136	-0.882	5.4555	-5.1045	0	114	1021	1
2026-02-11	16:28:01.110	-0.105	-0.14	-0.07	-0.012444	0.030012	1.01504	-0.8835	5.4585	-5.106	0	114	1021	1
2026-02-11	16:28:01.130	-0.07	-0.175	-0.105	-0.012688	0.030012	1.01016	-0.882	5.4525	-5.109	0	114	1021	1
2026-02-11	16:28:01.150	-0.035	-0.14	-0.105	-0.011224	0.028548	1.011624	-0.888	5.454	-5.109	0	114	1021	1
2026-02-11	16:28:01.170	-0.035	-0.175	-0.07	-0.013664	0.030012	1.008696	-0.8895	5.454	-5.106	0	114	1021	1
2026-02-11	16:28:01.190	-0.035	-0.175	-0.07	-0.013664	0.02806	1.011136	-0.8805	5.4555	-5.1045	0	114	1021	1
2026-02-11	16:28:01.210	-0.035	-0.175	-0.105	-0.010492	0.027328	1.009184	-0.873	5.4495	-5.1045	0	96	1025	1
2026-02-11	16:28:01.230	-0.07	-0.14	-0.07	-0.012688	0.02928	1.013332	-0.8745	5.4435	-5.106	0	96	1025	1
2026-02-11	16:28:01.250	-0.07	-0.14	-0.07	-0.0122	0.03172	1.00894	-0.876	5.454	-5.097	0	96	1025	1
2026-02-11	16:28:01.270	-0.07	-0.175	-0.105	-0.012932	0.030012	1.008452	-0.879	5.448	-5.0775	0	96	1025	1
2026-02-11	16:28:01.290	-0.07	-0.175	-0.07	-0.00976	0.0305	1.011136	-0.876	5.4885	-5.1	0	96	1025	1
2026-02-11	16:28:01.310	-0.07	-0.175	-0.105	-0.009028	0.034648	1.011868	-0.8805	5.481	-5.0985	0	96	1025	1
2026-02-11	16:28:01.330	-0.07	-0.14	-0.105	-0.01098	0.030988	1.010648	-0.876	5.4885	-5.109	0	96	1025	1
2026-02-11	16:28:01.350	-0.07	-0.14	-0.07	-0.010004	0.02928	1.009672	-0.876	5.478	-5.1	0	96	1025	1
2026-02-11	16:28:01.370	-0.035	-0.14	-0.105	-0.014152	0.032696	1.013332	-0.879	5.487	-5.1045	0	96	1025	1
2026-02-11	16:28:01.390	-0.035	-0.14	-0.07	-0.011712	0.031232	1.014796	-0.858	5.478	-5.0835	0	96	1025	1
2026-02-11	16:28:01.410	-0.07	-0.175	-0.07	-0.011712	0.030744	1.011136	-0.858	5.478	-5.0835	0	81	1027	1
2026-02-11	16:28:01.430	-0.105	-0.175	-0.07	-0.010248	0.029768	1.014552	-0.858	5.478	-5.0835	0	81	1027	1
2026-02-11	16:28:01.450	-0.035	-0.175	-0.07	-0.011956	0.033184	1.0126	-0.867	5.475	-5.0895	0	81	1027	1
2026-02-11	16:28:01.470	-0.035	-0.175	-0.07	-0.010492	0.031476	1.012112	-0.8475	5.478	-5.085	0	81	1027	1
2026-02-11	16:28:01.490	-0.105	-0.175	-0.105	-0.013176	0.029524	1.011624	-0.8595	5.481	-5.085	0	81	1027	1
2026-02-11	16:28:01.510	-0.07	-0.175	-0.105	-0.010004	0.033184	1.012356	-0.873	5.4795	-5.0955	0	81	1027	1
2026-02-11	16:28:01.530	-0.035	-0.21	-0.105	-0.010004	0.028792	1.009428	-0.8835	5.484	-5.1075	0	81	1027	1
2026-02-11	16:28:01.550	-0.07	-0.14	-0.07	-0.010004	0.030256	1.011136	-0.8775	5.4915	-5.097	0	81	1027	1
2026-02-11	16:28:01.570	-0.035	-0.14	-0.105	-0.01586	0.032208	1.012112	-0.879	5.478	-5.1105	0	81	1027	1
2026-02-11	16:28:01.590	-0.035	-0.175	-0.07	-0.012932	0.026596	1.01138	-0.873	5.484	-5.1075	0	81	1027	1
2026-02-11	16:28:01.610	-0.07	-0.21	-0.07	-0.00976	0.029768	1.012356	-0.861	5.4795	-5.0955	0	69	1029	1
2026-02-11	16:28:01.630	-0.105	-0.21	-0.07	-0.010248	0.03416	1.010892	-0.8475	5.478	-5.0835	0	69	1029	1
2026-02-11	16:28:01.650	-0.14	-0.21	-0.105	-0.013908	0.03172	1.01138	-0.849	5.4765	-5.0835	0	69	1029	1
2026-02-11	16:28:01.670	-0.14	-0.175	-0.07	-0.011468	0.030988	1.010892	-0.864	5.4645	-5.094	0	69	1029	1
2026-02-11	16:28:01.690	-0.21	-0.28	-0.07	-0.01098	0.030988	1.01016	-0.876	5.4615	-5.1015	0	69	1029	1
2026-02-11	16:28:01.710	-0.21	-0.245	-0.105	-0.0122	0.031232	1.01504	-0.8715	5.463	-5.1015	0	69	1029	1
2026-02-11	16:28:01.730	-0.28	-0.28	-0.07	-0.010736	0.029768	1.013088	-0.858	5.4735	-5.097	0	69	1029	1
2026-02-11	16:28:01.750	-0.245	-0.245	-0.07	-0.007564	0.03172	1.008452	-0.8475	5.4825	-5.0865	0	69	1029	1
2026-02-11	16:28:01.770	-0.175	-0.07	-0.105	-0.015372	0.029524	1.01138	-0.8505	5.4795	-5.0835	0	69	1029	1
2026-02-11	16:28:01.790	-0.105	-0.245	-0.105	-0.011956	0.031476	1.009672	-0.8505	5.4795	-5.0835	0	69	1029	1
2026-02-11	16:28:01.810	-0.175	-0.21	-0.105	-0.009028	0.033428	1.012356	-0.8745	5.4615	-5.103	0	59	1030	1
2026-02-11	16:28:01.830	-0.175	-0.21	-0.105	-0.015128	0.029036	1.01016	-0.882	5.4675	-5.121	0	59	1030	1
2026-02-11	16:28:01.850	-0.175	-0.21	-0.105	-0.010248	0.029768	1.012356	-0.87	5.4675	-5.1045	0	59	1030	1
2026-02-11	16:28:01.870	-0.14	-0.21	-0.105	-0.00976	0.030744	1.010892	-0.8655	5.4465	-5.1	0	59	1030	1
2026-02-11	16:28:01.890	-0.105	-0.21	-0.105	-0.008296	0.027816	1.011624	-0.867	5.4525	-5.097	0	59	1030	1
2026-02-11	16:28:01.910	-0.07	-0.245	-0.07	-0.013664	0.02928	1.011624	-0.867	5.454	-5.0925	0	59	1030	1
2026-02-11	16:28:01.930	-0.105	-0.21	-0.07	-0.011956	0.030012	1.01138	-0.87	5.4525	-5.091	0	59	1030	1
2026-02-11	16:28:01.950	-0.105	-0.175	-0.105	-0.012932	0.029768	1.008696	-0.8655	5.4465	-5.1	0	59	1030	1
2026-02-11	16:28:01.970	-0.105	-0.21	-0.07	-0.009028	0.03294	1.0126	-0.8655	5.4465	-5.1	0	59	1030	1
2026-02-11	16:28:01.990	-0.105	-0.175	-0.105	-0.007808	0.029768	1.011136	-0.87	5.451	-5.085	0	59	1030	1
2026-02-11	16:28:02.010	-0.105	-0.21	-0.105	-0.0122	0.031232	1.011136	-0.87	5.4495	-5.0925	0	51	1031	1
2026-02-11	16:28:02.030	-0.105	-0.21	-0.105	-0.009272	0.032452	1.012112	-0.87	5.451	-5.094	0	51	1031	1
2026-02-11	16:28:02.050	-0.105	-0.175	-0.105	-0.012688	0.030256	1.012844	-0.864	5.4615	-5.0895	0	51	1031	1
2026-02-11	16:28:02.070	-0.105	-0.175	-0.07	-0.010736	0.030988	1.010648	-0.873	5.4465	-5.0925	0	51	1031	1
2026-02-11	16:28:02.090	-0.07	-0.21	-0.105	-0.011956	0.02928	1.013332	-0.867	5.4495	-5.094	0	51	1031	1
2026-02-11	16:28:02.110	-0.035	-0.21	-0.105	-0.011956	0.028792	1.012112	-0.861	5.4525	-5.097	0	51	1031	1
2026-02-11	16:28:02.130	-0.07	-0.175	-0.105	-0.00976	0.033428	1.013088	-0.8655	5.457	-5.091	0	51	1031	1
2026-02-11	16:28:02.150	-0.07	-0.175	-0.07	-0.008296	0.029768	1.011624	-0.8625	5.454	-5.0925	0	51	1031	1
2026-02-11	16:28:02.170	-0.07	-0.175	-0.07	-0.010004	0.027084	1.009428	-0.8625	5.4525	-5.097	0	51	1031	1
2026-02-11	16:28:02.190	-0.07	-0.21	-0.105	-0.01342	0.032452	1.011624	-0.8655	5.4525	-5.094	0	51	1031	1
2026-02-11	16:28:02.210	-0.035	-0.14	-0.105	-0.011712	0.03416	1.00894	-0.867	5.4555	-5.088	0	44	1032	1
2026-02-11	16:28:02.230	-0.07	-0.175	-0.105	-0.010736	0.029768	1.012356	-0.864	5.4585	-5.088	0	44	1032	1
2026-02-11	16:28:02.250	-0.07	-0.21	-0.105	-0.010004	0.037088	1.01138	-0.861	5.4555	-5.094	0	44	1032	1
2026-02-11	16:28:02.270	-0.105	-0.245	-0.07	-0.00976	0.033184	1.010648	-0.8685	5.4555	-5.0955	0	44	1032	1
2026-02-11	16:28:02.290	-0.105	-0.21	-0.105	-0.009272	0.030012	1.012844	-0.867	5.454	-5.094	0	44	1032	1
2026-02-11	16:28:02.310	0	-0.14	-0.105	-0.010248	0.031232	1.0126	-0.864	5.448	-5.0925	0	44	1032	1
2026-02-11	16:28:02.330	-0.105	-0.21	-0.07	-0.0122	0.027816	1.01138	-0.8655	5.445	-5.0895	0	44	1032	1
2026-02-11	16:28:02.350	-0.105	-0.21	-0.105	-0.009516	0.031476	1.010648	-0.864	5.448	-5.088	0	44	1032	1
2026-02-11	16:28:02.370	-0.07	-0.21	-0.07	-0.013664	0.033672	1.012844	-0.858	5.457	-5.0895	0	44	1032	1
2026-02-11	16:28:02.390	-0.14	-0.175	-0.07	-0.007808	0.030744	1.012356	-0.8805	5.451	-5.109	0	44	1032	1
2026-02-11	16:28:02.410	-0.105	-0.14	-0.105	-0.009516	0.031964	1.01016	-0.8775	5.4555	-5.1	0	38	1033	1
2026-02-11	16:28:02.430	-0.035	-0.175	-0.105	-0.010492	0.030012	1.009672	-0.8745	5.457	-5.0895	0	38	1033	1
2026-02-11	16:28:02.450	-0.07	-0.175	-0.07	-0.009272	0.028304	1.006256	-0.8715	5.457	-5.0985	0	38	1033	1
2026-02-11	16:28:02.470	-0.105	-0.175	-0.07	-0.014152	0.030256	1.011624	-0.873	5.454	-5.097	0	38	1033	1
2026-02-11	16:28:02.490	-0.07	-0.175	-0.105	-0.010736	0.027816	1.01016	-0.87	5.454	-5.094	0	38	1033	1
2026-02-11	16:28:02.510	-0.105	-0.175	-0.105	-0.01098	0.035624	1.012112	-0.867	5.457	-5.0925	0	38	1033	1
2026-02-11	16:28:02.530	-0.105	-0.175	-0.07	-0.015616	0.02928	1.014796	-0.879	5.4555	-5.0955	0	38	1033	1
2026-02-11	16:28:02.550	-0.07	-0.14	-0.105	-0.009516	0.030012	1.0126	-0.8715	5.4525	-5.0985	0	38	1033	1
2026-02-11	16:28:02.570	-0.035	-0.175	-0.105	-0.00854	0.028548	1.011136	-0.867	5.46	-5.0985	0	38	1033	1
2026-02-11	16:28:02.590	-0.07	-0.175	-0.07	-0.010248	0.030256	1.015528	-0.8685	5.4555	-5.094	0	38	1033	1
2026-02-11	16:28:02.610	-0.07	-0.175	-0.105	-0.009516	0.033672	1.01016	-0.8685	5.4555	-5.091	0	33	1033	1
2026-02-11	16:28:02.630	-0.035	-0.175	-0.07	-0.010736	0.030256	1.012844	-0.8565	5.454	-5.0955	0	33	1033	1
2026-02-11	16:28:02.650	-0.035	-0.14	-0.105	-0.006588	0.030256	1.011136	-0.876	5.4495	-5.097	0	33	1033	1
2026-02-11	16:28:02.670	-0.035	-0.175	-0.07	-0.011712	0.030744	1.012844	-0.8685	5.451	-5.091	0	33	1033	1
2026-02-11	16:28:02.690	0	-0.14	-0.105	-0.01098	0.029524	1.011624	-0.858	5.448	-5.0925	0	33	1033	1
2026-02-11	16:28:02.710	-0.035	-0.175	-0.07	-0.008784	0.02684	1.013576	-0.8505	5.4615	-5.085	0	33	1033	1
2026-02-11	16:28:02.730	-0.105	-0.175	-0.105	-0.012688	0.030988	1.013576	-0.849	5.475	-5.079	0	33	1033	1
2026-02-11	16:28:02.750	-0.035	-0.175	-0.07	-0.01098	0.027572	1.009672	-0.855	5.478	-5.082	0	33	1033	1
2026-02-11	16:28:02.770	-0.105	-0.245	-0.07	-0.00976	0.028792	1.011624	-0.858	5.475	-5.091	0	33	1033	1
2026-02-11	16:28:02.790	-0.07	-0.175	-0.07	-0.011712	0.028304	1.012844	-0.864	5.466	-5.1	0	33	1033	1
2026-02-11	16:28:02.810	-0.07	-0.21	-0.105	-0.010004	0.026596	1.00894	-0.8625	5.469	-5.091	0	29	1034	1
2026-02-11	16:28:02.830	-0.105	-0.21	-0.07	-0.00732	0.029036	1.01016	-0.852	5.4795	-5.0775	0	29	1034	1
2026-02-11	16:28:02.850	-0.105	-0.175	-0.07	-0.010736	0.028304	1.008452	-0.8565	5.472	-5.0895	0	29	1034	1
2026-02-11	16:28:02.870	-0.07	-0.175	-0.105	-0.00976	0.03172	1.009916	-0.864	5.4615	-5.103	0	29	1034	1
2026-02-11	16:28:02.890	-0.105	-0.175	-0.07	-0.013176	0.030256	1.009184	-0.864	5.4615	-5.103	0	29	1034	1
2026-02-11	16:28:02.910	-0.07	-0.21	-0.105	-0.010004	0.031232	1.010892	-0.8685	5.457	-5.0955	0	29	1034	1
2026-02-11	16:28:02.930	-0.035	-0.175	-0.07	-0.011956	0.027572	1.010892	-0.8655	5.4435	-5.088	0	29	1034	1
2026-02-11	16:28:02.950	-0.035	-0.175	-0.105	-0.013176	0.028304	1.012356	-0.861	5.4525	-5.0925	0	29	1034	1
2026-02-11	16:28:02.970	-0.035	-0.21	-0.105	-0.010736	0.03172	1.011136	-0.8625	5.4555	-5.0985	0	29	1034	1
2026-02-11	16:28:02.990	-0.035	-0.175	-0.105	-0.0122	0.031476	1.009916	-0.8595	5.4525	-5.0925	0	29	1034	1
2026-02-11	16:28:03.010	-0.035	-0.175	-0.105	-0.008784	0.032208	1.009672	-0.861	5.4525	-5.091	0	25	1034	1
2026-02-11	16:28:03.030	-0.035	-0.175	-0.07	-0.010492	0.030988	1.007476	-0.8595	5.4495	-5.0925	0	25	1034	1
2026-02-11	16:28:03.050	-0.07	-0.21	-0.07	-0.00976	0.0305	1.01016	-0.8565	5.4465	-5.091	0	25	1034	1
2026-02-11	16:28:03.070	-0.07	-0.175	-0.105	-0.010736	0.028304	1.014796	-0.8565	5.4465	-5.091	0	25	1034	1
2026-02-11	16:28:03.090	-0.07	-0.14	-0.105	-0.010492	0.032452	1.01016	-0.861	5.451	-5.094	0	25	1034	1
2026-02-11	16:28:03.110	-0.07	-0.175	-0.105	-0.011468	0.029524	1.01016	-0.87	5.4555	-5.094	0	25	1034	1
2026-02-11	16:28:03.130	-0.07	-0.175	-0.105	-0.009028	0.033428	1.008696	-0.8745	5.454	-5.091	0	25	1034	1
2026-02-11	16:28:03.150	-0.035	-0.14	-0.07	-0.0122	0.028304	1.010404	-0.8715	5.4555	-5.091	0	25	1034	1
2026-02-11	16:28:03.170	-0.035	-0.175	-0.105	-0.013176	0.031476	1.010892	-0.867	5.445	-5.0895	0	25	1034	1
2026-02-11	16:28:03.190	-0.035	-0.175	-0.105	-0.010248	0.02928	1.011868	-0.8655	5.448	-5.0805	0	25	1034	1
2026-02-11	16:28:03.210	-0.035	-0.175	-0.07	-0.013176	0.032696	1.013576	-0.864	5.439	-5.088	0	21	1034	1
2026-02-11	16:28:03.230	-0.035	-0.175	-0.105	-0.0122	0.0305	1.0126	-0.87	5.4435	-5.088	0	21	1034	1
2026-02-11	16:28:03.250	0	-0.175	-0.07	-0.009272	0.031476	1.009428	-0.87	5.4435	-5.088	0	21	1034	1
2026-02-11	16:28:03.270	0	-0.14	-0.105	-0.0122	0.031232	1.01016	-0.8685	5.442	-5.0865	0	21	1034	1
2026-02-11	16:28:03.290	0.035	-0.105	-0.105	-0.011468	0.03172	1.012112	-0.867	5.4405	-5.0895	0	21	1034	1
2026-02-11	16:28:03.310	0.105	-0.105	-0.105	-0.010004	0.03172	1.006744	-0.8595	5.445	-5.094	0	21	1034	1
2026-02-11	16:28:03.330	0.105	-0.07	-0.105	-0.011468	0.02928	1.014308	-0.858	5.4465	-5.0925	0	21	1034	1
2026-02-11	16:28:03.350	0.105	-0.105	-0.105	-0.013176	0.03172	1.008696	-0.858	5.4465	-5.094	0	21	1034	1
2026-02-11	16:28:03.370	0.28	0	-0.105	-0.013908	0.032696	1.007964	-0.861	5.4465	-5.094	0	21	1034	1
2026-02-11	16:28:03.390	0.21	-0.07	-0.105	-0.01342	0.02928	1.012356	-0.867	5.445	-5.0925	0	21	1034	1
2026-02-11	16:28:03.410	0.175	-0.105	-0.07	-0.008296	0.032696	1.012112	-0.8625	5.445	-5.088	0	19	1034	1
2026-02-11	16:28:03.430	0.105	-0.14	-0.07	-0.010736	0.031232	1.011624	-0.858	5.4465	-5.085	0	19	1034	1
2026-02-11	16:28:03.450	-0.035	-0.14	-0.105	-0.010736	0.034404	1.011136	-0.8685	5.4495	-5.088	0	19	1034	1
2026-02-11	16:28:03.470	-0.035	-0.14	-0.105	-0.010004	0.029524	1.011868	-0.87	5.451	-5.0865	0	19	1034	1
2026-02-11	16:28:03.490	0	-0.175	-0.105	-0.010492	0.030256	1.007964	-0.8715	5.448	-5.0925	0	19	1034	1
2026-02-11	16:28:03.510	-0.105	-0.21	-0.07	-0.011956	0.032208	1.011868	-0.8655	5.445	-5.088	0	19	1034	1
2026-02-11	16:28:03.530	-0.035	-0.175	-0.07	-0.014152	0.031964	1.009184	-0.8655	5.445	-5.088	0	19	1034	1
2026-02-11	16:28:03.550	-0.105	-0.14	-0.07	-0.0122	0.031964	1.012356	-0.867	5.4465	-5.0925	0	19	1034	1
2026-02-11	16:28:03.570	-0.035	-0.14	-0.07	-0.011468	0.031232	1.010404	-0.864	5.4495	-5.0895	0	19	1034	1
2026-02-11	16:28:03.590	0	-0.175	-0.105	-0.0122	0.032208	1.012112	-0.864	5.451	-5.0835	0	19	1034	1
2026-02-11	16:28:03.610	-0.035	-0.14	-0.105	-0.011712	0.032696	1.010648	-0.861	5.4495	-5.0835	0	16	1034	1
2026-02-11	16:28:03.630	0	-0.175	-0.07	-0.00976	0.033184	1.010648	-0.8535	5.4435	-5.085	0	16	1034	1
2026-02-11	16:28:03.650	-0.07	-0.21	-0.07	-0.010492	0.0305	1.011624	-0.8565	5.4465	-5.091	0	16	1034	1
2026-02-11	16:28:03.670	-0.07	-0.21	-0.035	-0.011712	0.030988	1.013088	-0.8625	5.445	-5.085	0	16	1034	1
2026-02-11	16:28:03.690	-0.035	-0.21	-0.07	-0.009272	0.031232	1.010648	-0.864	5.4315	-5.082	0	16	1034	1
2026-02-11	16:28:03.710	-0.105	-0.175	-0.105	-0.013908	0.030988	1.012112	-0.855	5.4405	-5.0895	0	16	1034	1
2026-02-11	16:28:03.730	-0.105	-0.175	-0.07	-0.013664	0.03172	1.011136	-0.855	5.4465	-5.094	0	16	1034	1
2026-02-11	16:28:03.750	-0.105	-0.175	-0.105	-0.009028	0.030256	1.0126	-0.8685	5.448	-5.0895	0	16	1034	1
2026-02-11	16:28:03.770	-0.035	-0.175	-0.14	-0.010736	0.032452	1.00894	-0.8655	5.445	-5.085	0	16	1034	1
2026-02-11	16:28:03.790	-0.035	-0.175	-0.105	-0.013908	0.030012	1.01138	-0.8625	5.4465	-5.094	0	16	1034	1
2026-02-11	16:28:03.810	-0.035	-0.14	-0.07	-0.012688	0.029768	1.010892	-0.861	5.4435	-5.094	0	14	1034	1
2026-02-11	16:28:03.830	-0.035	-0.14	-0.105	-0.010736	0.031232	1.010404	-0.861	5.4435	-5.094	0	14	1034	1
2026-02-11	16:28:03.850	-0.035	-0.175	-0.105	-0.010492	0.032696	1.009916	-0.864	5.451	-5.0925	0	14	1034	1
2026-02-11	16:28:03.870	-0.07	-0.175	-0.07	-0.009516	0.032696	1.010892	-0.861	5.4495	-5.0895	0	14	1034	1
2026-02-11	16:28:03.890	-0.07	-0.175	-0.07	-0.01708	0.030988	1.011624	-0.858	5.445	-5.088	0	14	1034	1
2026-02-11	16:28:03.910	-0.035	-0.175	-0.07	-0.01098	0.030744	1.012112	-0.8625	5.445	-5.091	0	14	1034	1
2026-02-11	16:28:03.930	-0.105	-0.21	-0.07	-0.0122	0.02928	1.010892	-0.8655	5.4465	-5.0925	0	14	1034	1
2026-02-11	16:28:03.950	-0.035	-0.175	-0.07	-0.013176	0.031964	1.011624	-0.8655	5.4435	-5.0925	0	14	1034	1
2026-02-11	16:28:03.970	0	-0.175	-0.07	-0.010248	0.030988	1.010404	-0.864	5.4375	-5.0925	0	14	1034	1
2026-02-11	16:28:03.990	-0.035	-0.175	-0.07	-0.015372	0.030256	1.014552	-0.864	5.4375	-5.0925	0	14	1034	1
2026-02-11	16:28:04.010	-0.105	-0.175	-0.105	-0.014884	0.031232	1.013576	-0.858	5.4495	-5.0985	0	12	1034	1
2026-02-11	16:28:04.030	-0.035	-0.175	-0.105	-0.011224	0.028792	1.013576	-0.864	5.445	-5.097	0	12	1034	1
2026-02-11	16:28:04.050	-0.035	-0.175	-0.07	-0.01464	0.032452	1.014796	-0.867	5.4405	-5.0955	0	12	1034	1
2026-02-11	16:28:04.070	-0.105	-0.175	-0.105	-0.010004	0.03294	1.010404	-0.858	5.4585	-5.0895	0	12	1034	1
2026-02-11	16:28:04.090	-0.07	-0.21	-0.105	-0.006832	0.030256	1.010648	-0.849	5.4735	-5.0805	0	12	1034	1
2026-02-11	16:28:04.110	-0.14	-0.175	-0.07	-0.009272	0.031232	1.014308	-0.8445	5.472	-5.0805	0	12	1034	1
2026-02-11	16:28:04.130	-0.105	-0.14	-0.105	-0.010248	0.02806	1.0126	-0.8505	5.4675	-5.079	0	12	1034	1
2026-02-11	16:28:04.150	-0.07	-0.175	-0.07	-0.011224	0.030012	1.01138	-0.8595	5.4645	-5.076	0	12	1034	1
2026-02-11	16:28:04.170	-0.035	-0.175	-0.07	-0.012444	0.031476	1.01138	-0.8595	5.4645	-5.076	0	12	1034	1
2026-02-11	16:28:04.190	0	-0.175	-0.105	-0.01098	0.02928	1.01016	-0.867	5.448	-5.0865	0	12	1034	1
2026-02-11	16:28:04.210	-0.175	-0.21	-0.035	-0.013176	0.030012	1.017236	-0.867	5.4465	-5.0895	0	11	1034	1
2026-02-11	16:28:04.230	-0.07	-0.175	-0.105	-0.010736	0.033428	1.009428	-0.861	5.4405	-5.0955	0	11	1034	1
2026-02-11	16:28:04.250	0	-0.21	-0.105	-0.012688	0.029036	1.0126	-0.858	5.43	-5.091	0	11	1034	1
2026-02-11	16:28:04.270	-0.105	-0.21	-0.07	-0.010004	0.033184	1.010648	-0.8655	5.445	-5.085	0	11	1034	1
2026-02-11	16:28:04.290	-0.07	-0.14	-0.07	-0.011712	0.027816	1.010892	-0.8625	5.4495	-5.097	0	11	1034	1
2026-02-11	16:28:04.310	-0.105	-0.21	-0.07	-0.013908	0.033916	1.013088	-0.855	5.442	-5.088	0	11	1034	1
2026-02-11	16:28:04.330	-0.035	-0.14	-0.07	-0.012444	0.031964	1.010648	-0.861	5.4375	-5.088	0	11	1034	1
2026-02-11	16:28:04.350	-0.07	-0.175	-0.105	-0.010736	0.028548	1.011624	-0.861	5.4375	-5.088	0	11	1034	1
2026-02-11	16:28:04.370	0	-0.14	-0.105	-0.011468	0.031964	1.00894	-0.861	5.439	-5.0895	0	11	1034	1
2026-02-11	16:28:04.390	-0.035	-0.14	-0.105	-0.011224	0.031964	1.009916	-0.8595	5.4435	-5.088	0	11	1034	1
2026-02-11	16:28:04.410	-0.035	-0.21	-0.07	-0.01098	0.0305	1.009916	-0.8535	5.4405	-5.0865	0	10	1034	1
2026-02-11	16:28:04.430	-0.175	-0.21	-0.07	-0.012932	0.032208	1.015528	-0.8535	5.4405	-5.0835	0	10	1034	1
2026-02-11	16:28:04.450	0	-0.14	-0.105	-0.013908	0.030012	1.007964	-0.855	5.445	-5.088	0	10	1034	1
2026-02-11	16:28:04.470	-0.07	-0.175	-0.07	-0.0122	0.031964	1.009184	-0.864	5.4435	-5.0925	0	10	1034	1
2026-02-11	16:28:04.490	-0.105	-0.175	-0.07	-0.010248	0.032208	1.01504	-0.8655	5.4435	-5.0895	0	10	1034	1
2026-02-11	16:28:04.510	-0.105	-0.175	-0.07	-0.007564	0.031232	1.014064	-0.8655	5.445	-5.0895	0	10	1034	1
2026-02-11	16:28:04.530	-0.035	-0.14	-0.07	-0.011468	0.03172	1.012844	-0.8745	5.445	-5.091	0	10	1034	1
2026-02-11	16:28:04.550	0	-0.21	-0.105	-0.011956	0.031964	1.01138	-0.8655	5.442	-5.0925	0	10	1034	1
2026-02-11	16:28:04.570	0	-0.175	-0.105	-0.011712	0.033672	1.014552	-0.861	5.4405	-5.0925	0	10	1034	1
2026-02-11	16:28:04.590	-0.105	-0.21	-0.07	-0.012932	0.030744	1.011868	-0.864	5.439	-5.0895	0	10	1034	1
2026-02-11	16:28:04.610	-0.105	-0.175	-0.105	-0.010248	0.0305	1.009672	-0.8625	5.4375	-5.0895	0	9	1034	1
2026-02-11	16:28:04.630	-0.035	-0.175	-0.105	-0.01098	0.03294	1.01382	-0.8595	5.436	-5.091	0	9	1034	1
2026-02-11	16:28:04.650	-0.07	-0.175	-0.105	-0.010248	0.0305	1.010892	-0.8565	5.4345	-5.0895	0	9	1034	1
2026-02-11	16:28:04.670	-0.035	-0.175	-0.105	-0.008784	0.029524	1.008452	-0.855	5.4405	-5.088	0	9	1034	1
2026-02-11	16:28:04.690	-0.07	-0.21	-0.07	-0.010492	0.032696	1.012112	-0.861	5.4465	-5.0925	0	9	1034	1
2026-02-11	16:28:04.710	-0.105	-0.14	-0.07	-0.01098	0.032208	1.011868	-0.867	5.448	-5.0955	0	9	1034	1
2026-02-11	16:28:04.730	-0.035	-0.175	-0.07	-0.01342	0.031476	1.009184	-0.8565	5.436	-5.0835	0	9	1034	1
2026-02-11	16:28:04.750	-0.07	-0.175	-0.07	-0.00976	0.031964	1.014796	-0.8625	5.448	-5.085	0	9	1034	1
2026-02-11	16:28:04.770	-0.07	-0.175	-0.07	-0.008784	0.03172	1.010648	-0.8565	5.448	-5.088	0	9	1034	1
2026-02-11	16:28:04.790	-0.035	-0.175	-0.105	-0.011956	0.029768	1.010892	-0.8595	5.442	-5.088	0	9	1034	1
2026-02-11	16:28:04.810	-0.07	-0.14	-0.07	-0.013908	0.034404	1.01138	-0.861	5.4405	-5.094	0	8	1034	1
2026-02-11	16:28:04.830	-0.105	-0.21	-0.07	-0.01464	0.031476	1.011136	-0.867	5.4465	-5.091	0	8	1034	1
2026-02-11	16:28:04.850	-0.07	-0.21	-0.105	-0.010736	0.032452	1.012356	-0.861	5.442	-5.0835	0	8	1034	1
2026-02-11	16:28:04.870	-0.105	-0.21	-0.105	-0.012688	0.033916	1.008452	-0.8625	5.4405	-5.097	0	8	1034	1
2026-02-11	16:28:04.890	-0.07	-0.14	-0.105	-0.010004	0.030012	1.010648	-0.8595	5.451	-5.0865	0	8	1034	1
2026-02-11	16:28:04.910	-0.035	-0.21	-0.07	-0.012932	0.029768	1.011868	-0.861	5.4465	-5.0925	0	8	1034	1
2026-02-11	16:28:04.930	-0.07	-0.175	-0.07	-0.00854	0.033184	1.012844	-0.8655	5.445	-5.097	0	8	1034	1
2026-02-11	16:28:04.950	-0.07	-0.175	-0.105	-0.015372	0.030744	1.00894	-0.867	5.448	-5.094	0	8	1034	1
2026-02-11	16:28:04.970	-0.035	-0.175	-0.105	-0.01098	0.032208	1.010648	-0.867	5.448	-5.0895	0	8	1034	1
2026-02-11	16:28:04.990	-0.07	-0.175	-0.105	-0.013176	0.030988	1.0126	-0.861	5.448	-5.088	0	8	1034	1
2026-02-11	16:28:05.010	-0.07	-0.175	-0.07	-0.01708	0.028792	1.014552	-0.8625	5.448	-5.091	0	7	1034	1
2026-02-11	16:28:05.030	-0.035	-0.175	-0.105	-0.012688	0.03172	1.013332	-0.8685	5.448	-5.094	0	7	1034	1
2026-02-11	16:28:05.050	-0.105	-0.14	-0.105	-0.012688	0.032452	1.011624	-0.8655	5.4435	-5.0985	0	7	1034	1
2026-02-11	16:28:05.070	-0.07	-0.14	-0.07	-0.011224	0.036356	1.00894	-0.864	5.4405	-5.1	0	7	1034	1
2026-02-11	16:28:05.090	-0.07	-0.175	-0.07	-0.00732	0.027328	1.012112	-0.8685	5.4405	-5.091	0	7	1034	1
2026-02-11	16:28:05.110	0	-0.14	-0.105	-0.012688	0.031232	1.011868	-0.867	5.4465	-5.085	0	7	1034	1
2026-02-11	16:28:05.130	-0.035	-0.175	-0.07	-0.008296	0.0305	1.012844	-0.861	5.4465	-5.091	0	7	1034	1
2026-02-11	16:28:05.150	-0.035	-0.175	-0.105	-0.00976	0.030256	1.009916	-0.8625	5.4465	-5.0925	0	7	1034	1
2026-02-11	16:28:05.170	-0.07	-0.175	-0.105	-0.011956	0.032452	1.01016	-0.8655	5.4465	-5.091	0	7	1034	1
2026-02-11	16:28:05.190	-0.105	-0.175	-0.105	-0.014152	0.029524	1.014552	-0.867	5.4525	-5.091	0	7	1034	1
2026-02-11	16:28:05.210	-0.07	-0.175	-0.07	-0.0122	0.031964	1.011624	-0.8625	5.4495	-5.0865	0	6	1034	1
2026-02-11	16:28:05.230	-0.035	-0.175	-0.07	-0.009272	0.032452	1.009916	-0.8595	5.439	-5.0865	0	6	1034	1
2026-02-11	16:28:05.250	-0.07	-0.175	-0.105	-0.010736	0.029524	1.0126	-0.861	5.439	-5.0865	0	6	1034	1
2026-02-11	16:28:05.270	-0.07	-0.175	-0.105	-0.010736	0.033184	1.013576	-0.861	5.436	-5.0865	0	6	1034	1
2026-02-11	16:28:05.290	-0.105	-0.175	-0.07	-0.012688	0.032452	1.010892	-0.855	5.4375	-5.094	0	6	1034	1
2026-02-11	16:28:05.310	-0.035	-0.175	-0.07	-0.010736	0.031964	1.012844	-0.87	5.4405	-5.085	0	6	1034	1
2026-02-11	16:28:05.330	-0.07	-0.14	-0.105	-0.012688	0.03294	1.013088	-0.873	5.445	-5.0985	0	6	1034	1
2026-02-11	16:28:05.350	-0.07	-0.175	-0.105	-0.012932	0.03172	1.0126	-0.8625	5.4465	-5.0985	0	6	1034	1
2026-02-11	16:28:05.370	-0.07	-0.21	-0.07	-0.011468	0.031232	1.01382	-0.864	5.445	-5.088	0	6	1034	1
2026-02-11	16:28:05.390	-0.035	-0.175	-0.07	-0.010736	0.033672	1.010892	-0.8685	5.4435	-5.0865	0	6	1034	1
2026-02-11	16:28:05.410	-0.105	-0.21	-0.07	-0.005124	0.032452	1.013332	-0.867	5.4465	-5.1	0	6	1034	1
2026-02-11	16:28:05.430	-0.035	-0.175	-0.105	-0.010004	0.031964	1.01138	-0.8475	5.4765	-5.085	0	6	1034	1
2026-02-11	16:28:05.450	-0.07	-0.21	-0.105	-0.014152	0.031476	1.010648	-0.8475	5.4765	-5.085	0	6	1034	1
2026-02-11	16:28:05.470	-0.07	-0.175	-0.105	-0.00854	0.030012	1.011136	-0.8475	5.4675	-5.0805	0	6	1034	1
2026-02-11	16:28:05.490	-0.07	-0.175	-0.105	-0.010004	0.03294	1.009672	-0.8445	5.4615	-5.079	0	6	1034	1
2026-02-11	16:28:05.510	-0.035	-0.14	-0.105	-0.011468	0.031476	1.0126	-0.8445	5.4645	-5.0775	0	6	1034	1
2026-02-11	16:28:05.530	-0.035	-0.175	-0.105	-0.009028	0.028548	1.011624	-0.8445	5.4675	-5.0775	0	6	1034	1
2026-02-11	16:28:05.550	-0.07	-0.175	-0.07	-0.0122	0.030988	1.009428	-0.846	5.466	-5.076	0	6	1034	1
2026-02-11	16:28:05.570	-0.07	-0.175	-0.105	-0.013664	0.02928	1.01138	-0.849	5.469	-5.073	0	6	1034	1
2026-02-11	16:28:05.590	-0.07	-0.175	-0.105	-0.013908	0.032696	1.011868	-0.849	5.472	-5.0775	0	6	1034	1
2026-02-11	16:28:05.610	-0.035	-0.14	-0.07	-0.013176	0.026352	1.010404	-0.8475	5.4765	-5.079	0	5	1034	1
2026-02-11	16:28:05.630	-0.105	-0.175	-0.07	-0.009028	0.032208	1.009916	-0.8505	5.472	-5.079	0	5	1034	1
2026-02-11	16:28:05.650	-0.07	-0.175	-0.07	-0.01098	0.027816	1.013088	-0.8475	5.469	-5.0835	0	5	1034	1
2026-02-11	16:28:05.670	-0.07	-0.175	-0.07	-0.011712	0.030256	1.012112	-0.855	5.466	-5.088	0	5	1034	1
2026-02-11	16:28:05.690	-0.07	-0.175	-0.105	-0.012444	0.029524	1.012844	-0.8595	5.4675	-5.085	0	5	1034	1
2026-02-11	16:28:05.710	-0.035	-0.175	-0.105	-0.00976	0.031476	1.010404	-0.8445	5.4705	-5.082	0	5	1034	1
2026-02-11	16:28:05.730	-0.07	-0.175	-0.105	-0.00976	0.029036	1.011868	-0.8415	5.472	-5.082	0	5	1034	1
2026-02-11	16:28:05.750	-0.07	-0.175	-0.105	-0.011224	0.032208	1.01016	-0.8475	5.472	-5.082	0	5	1034	1
2026-02-11	16:28:05.770	-0.07	-0.175	-0.07	-0.01098	0.03294	1.0126	-0.8565	5.463	-5.0895	0	5	1034	1
2026-02-11	16:28:05.790	-0.07	-0.14	-0.105	-0.01098	0.033184	1.010404	-0.8655	5.463	-5.091	0	5	1034	1
2026-02-11	16:28:05.810	-0.105	-0.175	-0.105	-0.013664	0.03172	1.011868	-0.867	5.472	-5.082	0	5	1034	1
2026-02-11	16:28:05.830	-0.07	-0.175	-0.105	-0.011956	0.031964	1.011136	-0.8535	5.4735	-5.079	0	5	1034	1
2026-02-11	16:28:05.850	-0.035	-0.21	-0.105	-0.013908	0.03294	1.009184	-0.8445	5.4735	-5.0805	0	5	1034	1
2026-02-11	16:28:05.870	-0.07	-0.14	-0.105	-0.0122	0.03172	1.01382	-0.8595	5.469	-5.0835	0	5	1034	1
2026-02-11	16:28:05.890	-0.07	-0.175	-0.105	-0.0122	0.030256	1.009184	-0.858	5.4795	-5.091	0	5	1034	1
2026-02-11	16:28:05.910	-0.07	-0.14	-0.105	-0.014152	0.03172	1.010404	-0.8565	5.4735	-5.0805	0	5	1034	1
2026-02-11	16:28:05.930	-0.07	-0.175	-0.105	-0.010248	0.030256	1.011136	-0.8685	5.469	-5.0985	0	5	1034	1
2026-02-11	16:28:05.950	-0.07	-0.175	-0.105	-0.015616	0.03172	1.012112	-0.87	5.4585	-5.1075	0	5	1034	1
2026-02-11	16:28:05.970	-0.07	-0.175	-0.105	-0.011712	0.03172	1.008452	-0.8715	5.46	-5.103	0	5	1034	1
2026-02-11	16:28:05.990	-0.105	-0.175	-0.07	-0.0122	0.032208	1.010404	-0.846	5.4735	-5.082	0	5	1034	1
2026-02-11	16:28:06.010	-0.07	-0.175	-0.105	-0.011712	0.031476	1.013576	-0.846	5.4675	-5.0835	0	5	1034	1
2026-02-11	16:28:06.030	-0.07	-0.175	-0.105	-0.011224	0.030012	1.011868	-0.849	5.4705	-5.0805	0	5	1034	1
2026-02-11	16:28:06.050	-0.07	-0.14	-0.07	-0.00976	0.030988	1.01016	-0.8505	5.4705	-5.0775	0	5	1034	1
2026-02-11	16:28:06.070	-0.035	-0.14	-0.105	-0.009272	0.033916	1.011868	-0.8505	5.469	-5.0775	0	5	1034	1
2026-02-11	16:28:06.090	-0.07	-0.175	-0.105	-0.010736	0.031964	1.009916	-0.852	5.472	-5.0745	0	5	1034	1
2026-02-11	16:28:06.110	-0.07	-0.175	-0.07	-0.00976	0.028548	1.014796	-0.852	5.472	-5.0745	0	5	1034	1
2026-02-11	16:28:06.130	-0.035	-0.175	-0.07	-0.008784	0.0366	1.01016	-0.8535	5.4705	-5.0775	0	5	1034	1
2026-02-11	16:28:06.150	-0.105	-0.175	-0.105	-0.013664	0.031476	1.0126	-0.8475	5.4765	-5.0835	0	5	1034	1
2026-02-11	16:28:06.170	-0.035	-0.175	-0.105	-0.010248	0.0305	1.01138	-0.8505	5.4705	-5.07	0	5	1034	1
2026-02-11	16:28:06.190	-0.07	-0.21	-0.105	-0.011956	0.03416	1.010404	-0.8475	5.469	-5.076	0	5	1034	1
2026-02-11	16:28:06.210	-0.035	-0.21	-0.105	-0.011468	0.030988	1.0126	-0.8445	5.472	-5.079	0	4	1034	1
2026-02-11	16:28:06.230	-0.07	-0.21	-0.07	-0.010492	0.032208	1.011868	-0.8505	5.4675	-5.079	0	4	1034	1
2026-02-11	16:28:06.250	-0.07	-0.21	-0.105	-0.011712	0.028548	1.012844	-0.8505	5.4615	-5.079	0	4	1034	1
2026-02-11	16:28:06.270	-0.07	-0.175	-0.07	-0.012932	0.033672	1.015284	-0.8475	5.463	-5.079	0	4	1034	1
2026-02-11	16:28:06.290	-0.035	-0.21	-0.105	-0.013176	0.032452	1.010648	-0.846	5.4675	-5.0865	0	4	1034	1
2026-02-11	16:28:06.310	-0.035	-0.175	-0.14	-0.010736	0.03172	1.012844	-0.849	5.4705	-5.082	0	4	1034	1
2026-02-11	16:28:06.330	-0.07	-0.175	-0.07	-0.011956	0.032452	1.014064	-0.852	5.469	-5.079	0	4	1034	1
2026-02-11	16:28:06.350	-0.07	-0.175	-0.105	-0.010492	0.032452	1.011624	-0.849	5.469	-5.0805	0	4	1034	1
2026-02-11	16:28:06.370	-0.105	-0.21	-0.105	-0.0122	0.032452	1.009916	-0.8505	5.4735	-5.0805	0	4	1034	1
2026-02-11	16:28:06.390	-0.07	-0.21	-0.07	-0.01098	0.031964	1.012112	-0.8505	5.478	-5.0805	0	4	1034	1
2026-02-11	16:28:06.410	-0.07	-0.14	-0.07	-0.010736	0.033916	1.009672	-0.843	5.463	-5.0745	0	4	1034	1
2026-02-11	16:28:06.430	-0.07	-0.175	-0.105	-0.01098	0.033184	1.009672	-0.8445	5.472	-5.079	0	4	1034	1
2026-02-11	16:28:06.450	-0.105	-0.175	-0.07	-0.010736	0.032452	1.01382	-0.8415	5.475	-5.079	0	4	1034	1
2026-02-11	16:28:06.470	-0.07	-0.175	-0.07	-0.011468	0.026108	1.013088	-0.8505	5.481	-5.0745	0	4	1034	1
2026-02-11	16:28:06.490	-0.035	-0.14	-0.105	-0.011468	0.032452	1.010892	-0.846	5.469	-5.082	0	4	1034	1
2026-02-11	16:28:06.510	-0.035	-0.175	-0.105	-0.00854	0.031232	1.011868	-0.8475	5.4735	-5.0805	0	4	1034	1
2026-02-11	16:28:06.530	-0.07	-0.175	-0.105	-0.012444	0.02928	1.01138	-0.8535	5.4705	-5.079	0	4	1034	1
2026-02-11	16:28:06.550	-0.07	-0.175	-0.07	-0.011956	0.034648	1.010892	-0.8535	5.4705	-5.079	0	4	1034	1
2026-02-11	16:28:06.570	-0.07	-0.175	-0.07	-0.010248	0.030988	1.010892	-0.846	5.4705	-5.076	0	4	1034	1
2026-02-11	16:28:06.590	-0.07	-0.21	-0.07	-0.010004	0.031964	1.011868	-0.843	5.4675	-5.0745	0	4	1034	1
2026-02-11	16:28:06.610	-0.07	-0.175	-0.105	-0.01098	0.031476	1.010892	-0.843	5.4645	-5.079	0	4	1034	1
2026-02-11	16:28:06.630	-0.07	-0.21	-0.105	-0.011224	0.026352	1.009916	-0.84	5.4645	-5.082	0	4	1034	1
2026-02-11	16:28:06.650	-0.07	-0.21	-0.105	-0.009272	0.029524	1.011624	-0.846	5.472	-5.0775	0	4	1034	1
2026-02-11	16:28:06.670	-0.07	-0.175	-0.07	-0.010736	0.03172	1.012844	-0.8445	5.469	-5.0805	0	4	1034	1
2026-02-11	16:28:06.690	-0.07	-0.14	-0.07	-0.009272	0.031232	1.012112	-0.8655	5.4585	-5.1045	0	4	1034	1
2026-02-11	16:28:06.710	-0.035	-0.175	-0.105	-0.013908	0.031232	1.010404	-0.8625	5.4585	-5.1015	0	4	1034	1
2026-02-11	16:28:06.730	-0.07	-0.21	-0.07	-0.011224	0.029524	1.01382	-0.8565	5.454	-5.0955	0	4	1034	1
2026-02-11	16:28:06.750	-0.07	-0.175	-0.105	-0.011956	0.032208	1.011868	-0.858	5.46	-5.0925	0	4	1034	1
2026-02-11	16:28:06.770	-0.035	-0.175	-0.07	-0.014152	0.034404	1.009672	-0.8535	5.472	-5.0895	0	4	1034	1
2026-02-11	16:28:06.790	-0.035	-0.175	-0.105	-0.008296	0.031964	1.012112	-0.8475	5.4735	-5.0835	0	4	1034	1
2026-02-11	16:28:06.810	-0.105	-0.175	-0.105	-0.01586	0.03294	1.009916	-0.8475	5.4735	-5.0775	0	4	1034	1
2026-02-11	16:28:06.830	-0.105	-0.175	-0.105	-0.011712	0.032208	1.012112	-0.8595	5.469	-5.088	0	4	1034	1
2026-02-11	16:28:06.850	-0.07	-0.175	-0.105	-0.011224	0.030988	1.0126	-0.8685	5.4585	-5.103	0	4	1034	1
2026-02-11	16:28:06.870	-0.07	-0.175	-0.07	-0.010736	0.030256	1.008696	-0.864	5.4615	-5.097	0	4	1034	1
2026-02-11	16:28:06.890	-0.105	-0.21	-0.07	-0.009028	0.033916	1.014308	-0.855	5.472	-5.0835	0	4	1034	1
2026-02-11	16:28:06.910	-0.07	-0.175	-0.105	-0.012444	0.029768	1.010648	-0.849	5.4735	-5.0805	0	4	1034	1
2026-02-11	16:28:06.930	-0.07	-0.21	-0.07	-0.013664	0.029524	1.010648	-0.849	5.4735	-5.0805	0	4	1034	1
2026-02-11	16:28:06.950	-0.07	-0.175	-0.07	-0.012688	0.02928	1.010892	-0.849	5.472	-5.0775	0	4	1034	1
2026-02-11	16:28:06.970	-0.035	-0.175	-0.105	-0.01098	0.031964	1.013332	-0.8505	5.4705	-5.076	0	4	1034	1
2026-02-11	16:28:06.990	-0.07	-0.175	-0.07	-0.012688	0.032208	1.014064	-0.8535	5.4645	-5.0835	0	4	1034	1
2026-02-11	16:28:07.010	-0.035	-0.175	-0.105	-0.012444	0.033428	1.009184	-0.8625	5.478	-5.0745	0	3	1034	1
2026-02-11	16:28:07.030	-0.035	-0.21	-0.105	-0.006832	0.0305	1.01138	-0.867	5.463	-5.1	0	3	1034	1
2026-02-11	16:28:07.050	-0.105	-0.175	-0.105	-0.011712	0.033428	1.011868	-0.852	5.4735	-5.082	0	3	1034	1
2026-02-11	16:28:07.070	-0.07	-0.175	-0.105	-0.01098	0.030256	1.012844	-0.858	5.4705	-5.0745	0	3	1034	1
2026-02-11	16:28:07.090	0	-0.21	-0.07	-0.013908	0.030256	1.009672	-0.8505	5.469	-5.07	0	3	1034	1
2026-02-11	16:28:07.110	-0.07	-0.21	-0.105	-0.011712	0.03294	1.016016	-0.8565	5.46	-5.082	0	3	1034	1
2026-02-11	16:28:07.130	-0.07	-0.21	-0.07	-0.01098	0.030744	1.010404	-0.8625	5.4525	-5.0955	0	3	1034	1
2026-02-11	16:28:07.150	-0.07	-0.175	-0.07	-0.00976	0.031232	1.009428	-0.864	5.454	-5.094	0	3	1034	1
2026-02-11	16:28:07.170	-0.07	-0.175	-0.07	-0.008784	0.03172	1.011136	-0.8655	5.4465	-5.0895	0	3	1034	1
2026-02-11	16:28:07.190	-0.07	-0.175	-0.105	-0.008784	0.032452	1.009672	-0.876	5.442	-5.0925	0	3	1034	1
2026-02-11	16:28:07.210	-0.105	-0.175	-0.105	-0.013176	0.030012	1.011136	-0.858	5.448	-5.094	0	3	1034	1
2026-02-11	16:28:07.230	-0.07	-0.175	-0.07	-0.0122	0.033672	1.009916	-0.861	5.445	-5.0955	0	3	1034	1
2026-02-11	16:28:07.250	-0.07	-0.175	-0.105	-0.009516	0.033428	1.0126	-0.873	5.442	-5.091	0	3	1034	1
2026-02-11	16:28:07.270	-0.105	-0.175	-0.07	-0.012932	0.031964	1.012356	-0.861	5.4435	-5.0895	0	3	1034	1
2026-02-11	16:28:07.290	-0.07	-0.175	-0.105	-0.008784	0.030012	1.010404	-0.861	5.442	-5.0895	0	3	1034	1
2026-02-11	16:28:07.310	-0.035	-0.175	-0.105	-0.012444	0.029768	1.01138	-0.861	5.442	-5.0865	0	3	1034	1
2026-02-11	16:28:07.330	-0.035	-0.14	-0.105	-0.011468	0.03294	1.013576	-0.864	5.445	-5.0895	0	3	1034	1
2026-02-11	16:28:07.350	-0.035	-0.175	-0.07	-0.010004	0.028792	1.011624	-0.864	5.4465	-5.097	0	3	1034	1
2026-02-11	16:28:07.370	-0.035	-0.175	-0.07	-0.010492	0.030988	1.011868	-0.8595	5.4405	-5.0895	0	3	1034	1
2026-02-11	16:28:07.390	-0.07	-0.21	-0.105	-0.010736	0.030744	1.01138	-0.861	5.439	-5.0865	0	3	1034	1
2026-02-11	16:28:07.410	-0.07	-0.175	-0.105	-0.012444	0.033428	1.01016	-0.8595	5.442	-5.0895	0	3	1034	1
2026-02-11	16:28:07.430	-0.105	-0.175	-0.07	-0.010736	0.030012	1.012844	-0.858	5.445	-5.085	0	3	1034	1
2026-02-11	16:28:07.450	-0.07	-0.175	-0.105	-0.009272	0.029036	1.013088	-0.858	5.445	-5.085	0	3	1034	1
2026-02-11	16:28:07.470	-0.07	-0.175	-0.07	-0.010248	0.030012	1.011136	-0.8595	5.4435	-5.088	0	3	1034	1
2026-02-11	16:28:07.490	-0.035	-0.14	-0.105	-0.009516	0.030744	1.01016	-0.861	5.4495	-5.088	0	3	1034	1
2026-02-11	16:28:07.510	-0.14	-0.175	-0.07	-0.008052	0.031232	1.01138	-0.8595	5.4345	-5.091	0	3	1034	1
2026-02-11	16:28:07.530	-0.07	-0.21	-0.105	-0.014152	0.026108	1.0126	-0.8625	5.448	-5.091	0	3	1034	1
2026-02-11	16:28:07.550	-0.035	-0.175	-0.105	-0.009272	0.029524	1.011868	-0.8535	5.442	-5.1015	0	3	1034	1
2026-02-11	16:28:07.570	-0.07	-0.175	-0.105	-0.010736	0.0305	1.010404	-0.867	5.4465	-5.091	0	3	1034	1
2026-02-11	16:28:07.590	-0.105	-0.175	-0.105	-0.012688	0.030256	1.01138	-0.87	5.4495	-5.0865	0	3	1034	1
2026-02-11	16:28:07.610	-0.07	-0.175	-0.105	-0.00976	0.03294	1.0126	-0.8625	5.4465	-5.088	0	3	1034	1
2026-02-11	16:28:07.630	-0.035	-0.175	-0.07	-0.011712	0.031232	1.013088	-0.861	5.4345	-5.091	0	3	1034	1
2026-02-11	16:28:07.650	-0.07	-0.175	-0.07	-0.010248	0.031232	1.01138	-0.8565	5.439	-5.0865	0	3	1034	1
2026-02-11	16:28:07.670	-0.07	-0.175	-0.07	-0.01708	0.031232	1.011136	-0.8565	5.4495	-5.091	0	3	1034	1
2026-02-11	16:28:07.690	-0.105	-0.175	-0.07	-0.010248	0.031476	1.01138	-0.861	5.4465	-5.0835	0	3	1034	1
2026-02-11	16:28:07.710	-0.035	-0.175	-0.105	-0.0061	0.031476	1.010648	-0.858	5.4435	-5.0955	0	3	1034	1
2026-02-11	16:28:07.730	-0.07	-0.175	-0.07	-0.009272	0.03416	1.012112	-0.858	5.4405	-5.094	0	3	1034	1
2026-02-11	16:28:07.750	-0.035	-0.21	-0.105	-0.011956	0.032208	1.012356	-0.8745	5.448	-5.091	0	3	1034	1
2026-02-11	16:28:07.770	-0.07	-0.175	-0.07	-0.010736	0.030256	1.011868	-0.8625	5.4555	-5.0895	0	3	1034	1
2026-02-11	16:28:07.790	-0.035	-0.175	-0.105	-0.0122	0.029524	1.012112	-0.864	5.442	-5.097	0	3	1034	1
2026-02-11	16:28:07.810	-0.035	-0.14	-0.105	-0.011712	0.032208	1.010892	-0.867	5.4435	-5.091	0	3	1034	1
2026-02-11	16:28:07.830	-0.07	-0.21	-0.14	-0.011468	0.030256	1.007964	-0.8415	5.4705	-5.0775	0	3	1034	1
2026-02-11	16:28:07.850	-0.07	-0.175	-0.105	-0.010736	0.031964	1.010892	-0.8505	5.4705	-5.0775	0	3	1034	1
2026-02-11	16:28:07.870	-0.105	-0.21	-0.105	-0.014396	0.028792	1.01382	-0.858	5.4645	-5.0895	0	3	1034	1
2026-02-11	16:28:07.890	-0.035	-0.14	-0.07	-0.010736	0.03294	1.01016	-0.8595	5.46	-5.1	0	3	1034	1
2026-02-11	16:28:07.910	-0.035	-0.105	-0.035	-0.007564	0.031232	1.01138	-0.8625	5.4615	-5.1	0	3	1034	1
2026-02-11	16:28:07.930	-0.14	-0.175	-0.035	-0.011468	0.030256	1.014064	-0.8625	5.46	-5.0985	0	3	1034	1
2026-02-11	16:28:07.950	-0.07	-0.175	-0.105	-0.013908	0.031476	1.013576	-0.864	5.451	-5.0955	0	3	1034	1
2026-02-11	16:28:07.970	0	-0.21	-0.07	-0.00976	0.027328	1.010892	-0.867	5.442	-5.0895	0	3	1034	1
2026-02-11	16:28:07.990	-0.035	-0.175	-0.07	-0.01098	0.031476	1.007476	-0.8595	5.448	-5.0865	0	3	1034	1
2026-02-11	16:28:08.010	-0.105	-0.21	-0.105	-0.014152	0.032452	1.011624	-0.852	5.4525	-5.0865	0	3	1034	1
2026-02-11	16:28:08.030	-0.035	-0.175	-0.105	-0.00976	0.029036	1.007232	-0.852	5.4525	-5.0865	0	3	1034	1
2026-02-11	16:28:08.050	-0.14	-0.21	-0.07	-0.008296	0.029524	1.014064	-0.861	5.4405	-5.0955	0	3	1034	1
2026-02-11	16:28:08.070	0	-0.14	-0.105	-0.012688	0.031476	1.0126	-0.864	5.439	-5.0895	0	3	1034	1
2026-02-11	16:28:08.090	0	-0.175	-0.07	-0.015616	0.03172	1.009184	-0.8715	5.4435	-5.097	0	3	1034	1
2026-02-11	16:28:08.110	-0.035	-0.14	-0.105	-0.007564	0.03294	1.009428	-0.864	5.442	-5.0925	0	3	1034	1
2026-02-11	16:28:08.130	-0.21	-0.21	-0.07	-0.009516	0.027816	1.016748	-0.8565	5.445	-5.0865	0	3	1034	1
2026-02-11	16:28:08.150	-0.07	-0.21	-0.07	-0.011712	0.031476	1.01138	-0.864	5.4435	-5.073	0	3	1034	1
2026-02-11	16:28:08.170	0	-0.175	-0.105	-0.012444	0.033184	1.006256	-0.8385	5.4705	-5.0745	0	3	1034	1
2026-02-11	16:28:08.190	-0.07	-0.21	-0.105	-0.014884	0.030256	1.012356	-0.843	5.4735	-5.0745	0	3	1034	1
2026-02-11	16:28:08.210	-0.105	-0.21	-0.07	-0.01098	0.028792	1.009672	-0.8475	5.4765	-5.076	0	3	1034	1
2026-02-11	16:28:08.230	-0.035	-0.175	-0.105	-0.012932	0.034892	1.008452	-0.8655	5.4555	-5.0955	0	3	1034	1
2026-02-11	16:28:08.250	-0.07	-0.175	-0.07	-0.008784	0.0305	1.012844	-0.858	5.46	-5.1	0	3	1034	1
2026-02-11	16:28:08.270	-0.07	-0.14	-0.07	-0.011956	0.032208	1.012356	-0.864	5.46	-5.0985	0	3	1034	1
2026-02-11	16:28:08.290	-0.035	-0.175	-0.07	-0.011712	0.029524	1.009672	-0.8625	5.4405	-5.094	0	3	1034	1
2026-02-11	16:28:08.310	-0.07	-0.175	-0.07	-0.011224	0.031964	1.010892	-0.864	5.442	-5.1	0	3	1034	1
2026-02-11	16:28:08.330	-0.105	-0.21	-0.07	-0.012444	0.0366	1.013088	-0.861	5.4435	-5.1015	0	3	1034	1
2026-02-11	16:28:08.350	-0.07	-0.175	-0.07	-0.013664	0.030988	1.009672	-0.87	5.4435	-5.0895	0	3	1034	1
2026-02-11	16:28:08.370	-0.07	-0.175	-0.105	-0.013908	0.033184	1.009916	-0.855	5.4435	-5.091	0	3	1034	1
2026-02-11	16:28:08.390	-0.07	-0.175	-0.07	-0.011468	0.029036	1.012112	-0.8565	5.4495	-5.0925	0	3	1034	1
2026-02-11	16:28:08.410	-0.07	-0.175	-0.07	-0.009272	0.03416	1.013576	-0.8595	5.4495	-5.091	0	3	1034	1
2026-02-11	16:28:08.430	-0.035	-0.175	-0.105	-0.013664	0.032452	1.011624	-0.861	5.445	-5.091	0	3	1034	1
2026-02-11	16:28:08.450	-0.07	-0.175	-0.14	-0.012444	0.031232	1.013332	-0.87	5.448	-5.0925	0	3	1034	1
2026-02-11	16:28:08.470	-0.07	-0.14	-0.105	-0.011468	0.03294	1.011868	-0.8685	5.445	-5.091	0	3	1034	1
2026-02-11	16:28:08.490	-0.035	-0.14	-0.07	-0.0122	0.033184	1.012844	-0.8655	5.4405	-5.0895	0	3	1034	1
2026-02-11	16:28:08.510	-0.07	-0.21	-0.07	-0.011956	0.033428	1.00894	-0.8655	5.442	-5.088	0	3	1034	1
2026-02-11	16:28:08.530	-0.105	-0.175	-0.07	-0.012444	0.031476	1.014308	-0.858	5.4405	-5.0895	0	3	1034	1
2026-02-11	16:28:08.550	-0.07	-0.175	-0.07	-0.00854	0.0305	1.012356	-0.858	5.4375	-5.088	0	3	1034	1
2026-02-11	16:28:08.570	-0.035	-0.175	-0.105	-0.014396	0.031964	1.011624	-0.8595	5.439	-5.085	0	3	1034	1
2026-02-11	16:28:08.590	-0.07	-0.175	-0.07	-0.0122	0.033428	1.012112	-0.864	5.4465	-5.0895	0	3	1034	1
2026-02-11	16:28:08.610	-0.105	-0.175	-0.07	-0.007564	0.032208	1.012112	-0.864	5.4495	-5.091	0	3	1034	1
2026-02-11	16:28:08.630	-0.035	-0.175	-0.105	-0.0122	0.029036	1.011136	-0.861	5.448	-5.097	0	3	1034	1
2026-02-11	16:28:08.650	-0.07	-0.175	-0.07	-0.013908	0.031964	1.01138	-0.8565	5.4375	-5.088	0	3	1034	1
2026-02-11	16:28:08.670	-0.035	-0.175	-0.105	-0.011712	0.032696	1.01016	-0.855	5.442	-5.0895	0	3	1034	1
2026-02-11	16:28:08.690	-0.035	-0.21	-0.07	-0.012688	0.030256	1.012356	-0.8595	5.4435	-5.088	0	3	1034	1
2026-02-11	16:28:08.710	-0.14	-0.175	-0.105	-0.010248	0.030988	1.0126	-0.864	5.439	-5.091	0	3	1034	1
2026-02-11	16:28:08.730	-0.07	-0.14	-0.07	-0.007076	0.032452	1.012356	-0.861	5.4405	-5.0895	0	3	1034	1
2026-02-11	16:28:08.750	-0.035	-0.175	-0.105	-0.011468	0.031964	1.009184	-0.8595	5.4435	-5.0835	0	3	1034	1
2026-02-11	16:28:08.770	-0.105	-0.175	-0.07	-0.011956	0.033428	1.01382	-0.8565	5.442	-5.094	0	3	1034	1
2026-02-11	16:28:08.790	-0.07	-0.175	-0.07	-0.011712	0.030988	1.012112	-0.8625	5.448	-5.0925	0	3	1034	1
2026-02-11	16:28:08.810	-0.07	-0.21	-0.07	-0.011956	0.032208	1.011624	-0.8535	5.4405	-5.0925	0	3	1034	1
2026-02-11	16:28:08.830	-0.035	-0.175	-0.07	-0.0122	0.030012	1.01016	-0.8655	5.4375	-5.0955	0	3	1034	1
2026-02-11	16:28:08.850	-0.105	-0.175	-0.105	-0.0122	0.030744	1.0126	-0.858	5.439	-5.088	0	3	1034	1
2026-02-11	16:28:08.870	-0.07	-0.21	-0.07	-0.013176	0.030256	1.01138	-0.861	5.448	-5.0865	0	3	1034	1
2026-02-11	16:28:08.890	-0.035	-0.175	-0.105	-0.01464	0.032452	1.009184	-0.864	5.442	-5.091	0	3	1034	1
2026-02-11	16:28:08.910	-0.105	-0.175	-0.07	-0.010004	0.033428	1.011624	-0.858	5.4465	-5.076	0	3	1034	1
2026-02-11	16:28:08.930	-0.07	-0.175	-0.105	-0.008296	0.03172	1.01016	-0.8595	5.4435	-5.0895	0	3	1034	1
2026-02-11	16:28:08.950	-0.07	-0.175	-0.07	-0.013664	0.029768	1.008696	-0.858	5.4405	-5.088	0	3	1034	1
2026-02-11	16:28:08.970	-0.07	-0.14	-0.105	-0.012444	0.031476	1.011624	-0.858	5.4375	-5.088	0	3	1034	1
2026-02-11	16:28:08.990	-0.035	-0.21	-0.105	-0.011956	0.030256	1.01138	-0.855	5.442	-5.091	0	3	1034	1
2026-02-11	16:28:09.010	-0.07	-0.175	-0.07	-0.012688	0.03172	1.011136	-0.861	5.445	-5.088	0	3	1034	1
2026-02-11	16:28:09.030	-0.105	-0.175	-0.07	-0.010492	0.027572	1.01626	-0.8625	5.445	-5.0895	0	3	1034	1
2026-02-11	16:28:09.050	-0.035	-0.175	-0.07	-0.009272	0.032452	1.010404	-0.861	5.445	-5.097	0	3	1034	1
2026-02-11	16:28:09.070	0	-0.175	-0.105	-0.010004	0.030744	1.009916	-0.867	5.445	-5.0985	0	3	1034	1
2026-02-11	16:28:09.090	-0.105	-0.175	-0.105	-0.012444	0.028548	1.009916	-0.867	5.451	-5.094	0	3	1034	1
2026-02-11	16:28:09.110	-0.035	-0.175	-0.105	-0.014884	0.0305	1.01016	-0.8685	5.4555	-5.0925	0	3	1034	1
2026-02-11	16:28:09.130	-0.07	-0.14	-0.07	-0.0122	0.032208	1.01138	-0.8685	5.4555	-5.0925	0	3	1034	1
2026-02-11	16:28:09.150	-0.07	-0.175	-0.07	-0.01098	0.0305	1.01138	-0.864	5.445	-5.088	0	3	1034	1
2026-02-11	16:28:09.170	-0.07	-0.175	-0.105	-0.011468	0.030744	1.013332	-0.864	5.448	-5.091	0	3	1034	1
2026-02-11	16:28:09.190	-0.105	-0.21	-0.105	-0.01342	0.032208	1.01138	-0.8595	5.4465	-5.091	0	3	1034	1
2026-02-11	16:28:09.210	-0.035	-0.175	-0.105	-0.0122	0.030744	1.010648	-0.861	5.4405	-5.0895	0	3	1034	1
2026-02-11	16:28:09.230	-0.105	-0.175	-0.105	-0.010248	0.03294	1.0126	-0.861	5.4405	-5.0895	0	3	1034	1
2026-02-11	16:28:09.250	-0.07	-0.21	-0.105	-0.012932	0.029768	1.01382	-0.858	5.439	-5.0895	0	3	1034	1
2026-02-11	16:28:09.270	-0.035	-0.175	-0.105	-0.009516	0.029524	1.01016	-0.858	5.4375	-5.0895	0	3	1034	1
2026-02-11	16:28:09.290	-0.105	-0.21	-0.07	-0.009272	0.031232	1.011136	-0.8625	5.4435	-5.0895	0	3	1034	1
2026-02-11	16:28:09.310	-0.07	-0.21	-0.105	-0.011956	0.034648	1.014796	-0.87	5.4465	-5.091	0	3	1034	1
2026-02-11	16:28:09.330	-0.035	-0.175	-0.07	-0.008784	0.03294	1.012112	-0.867	5.4525	-5.0865	0	3	1034	1
2026-02-11	16:28:09.350	-0.07	-0.175	-0.07	-0.011468	0.031476	1.01382	-0.861	5.448	-5.0895	0	3	1034	1
2026-02-11	16:28:09.370	-0.07	-0.175	-0.105	-0.011712	0.033916	1.012112	-0.861	5.445	-5.094	0	3	1034	1
2026-02-11	16:28:09.390	-0.07	-0.21	-0.07	-0.014396	0.030988	1.0126	-0.8625	5.4405	-5.085	0	3	1034	1
2026-02-11	16:28:09.410	-0.035	-0.175	-0.07	-0.011712	0.028548	1.011868	-0.8625	5.4465	-5.1	0	3	1034	1
2026-02-11	16:28:09.430	-0.07	-0.175	-0.07	-0.009516	0.0305	1.010648	-0.876	5.442	-5.097	0	3	1034	1
2026-02-11	16:28:09.450	-0.07	-0.175	-0.105	-0.009028	0.031964	1.011624	-0.867	5.448	-5.088	0	3	1034	1
2026-02-11	16:28:09.470	-0.07	-0.175	-0.105	-0.011712	0.032696	1.010404	-0.873	5.4465	-5.097	0	3	1034	1
2026-02-11	16:28:09.490	-0.105	-0.175	-0.07	-0.013176	0.029768	1.010648	-0.873	5.4465	-5.097	0	3	1034	1
2026-02-11	16:28:09.510	-0.035	-0.175	-0.105	-0.011468	0.02806	1.009184	-0.858	5.46	-5.0865	0	3	1034	1
2026-02-11	16:28:09.530	-0.07	-0.175	-0.105	-0.007808	0.028792	1.011868	-0.8445	5.475	-5.076	0	3	1034	1
2026-02-11	16:28:09.550	-0.07	-0.21	-0.07	-0.011468	0.03172	1.013332	-0.849	5.475	-5.079	0	3	1034	1
2026-02-11	16:28:09.570	-0.035	-0.175	-0.105	-0.013908	0.028548	1.009672	-0.8535	5.466	-5.091	0	3	1034	1
2026-02-11	16:28:09.590	-0.07	-0.175	-0.07	-0.012444	0.03294	1.010892	-0.8625	5.4645	-5.1	0	3	1034	1
2026-02-11	16:28:09.610	-0.07	-0.21	-0.105	-0.011224	0.033184	1.011136	-0.867	5.469	-5.1	0	3	1034	1
2026-02-11	16:28:09.630	-0.07	-0.175	-0.105	-0.012932	0.02928	1.011136	-0.861	5.454	-5.097	0	3	1034	1
2026-02-11	16:28:09.650	-0.07	-0.175	-0.105	-0.0122	0.031476	1.008452	-0.8655	5.442	-5.0955	0	3	1034	1
2026-02-11	16:28:09.670	-0.105	-0.175	-0.07	-0.0122	0.032696	1.014308	-0.873	5.445	-5.0955	0	3	1034	1
2026-02-11	16:28:09.690	0	-0.175	-0.105	-0.012444	0.032696	1.012844	-0.87	5.448	-5.0925	0	3	1034	1
2026-02-11	16:28:09.710	-0.07	-0.175	-0.07	-0.011224	0.029036	1.012356	-0.867	5.4495	-5.091	0	3	1034	1
2026-02-11	16:28:09.730	-0.07	-0.21	-0.105	-0.011468	0.032208	1.009672	-0.864	5.445	-5.091	0	3	1034	1
2026-02-11	16:28:09.750	-0.07	-0.175	-0.105	-0.010004	0.025864	1.011136	-0.864	5.445	-5.0895	0	3	1034	1
2026-02-11	16:28:09.770	-0.07	-0.175	-0.105	-0.010248	0.029768	1.0126	-0.8655	5.4435	-5.091	0	3	1034	1
2026-02-11	16:28:09.790	-0.07	-0.175	-0.07	-0.0122	0.032452	1.012844	-0.864	5.442	-5.094	0	3	1034	1
2026-02-11	16:28:09.810	-0.035	-0.175	-0.105	-0.011468	0.031476	1.01138	-0.861	5.4435	-5.094	0	3	1034	1
2026-02-11	16:28:09.830	-0.07	-0.21	-0.07	-0.011712	0.031232	1.012356	-0.858	5.445	-5.088	0	3	1034	1
2026-02-11	16:28:09.850	-0.07	-0.175	-0.105	-0.010004	0.032696	1.009428	-0.858	5.4495	-5.082	0	3	1034	1
2026-02-11	16:28:09.870	-0.105	-0.175	-0.105	-0.010248	0.034404	1.011868	-0.852	5.4345	-5.094	0	3	1034	1
2026-02-11	16:28:09.890	-0.105	-0.21	-0.105	-0.0122	0.02928	1.009916	-0.8595	5.4435	-5.0895	0	3	1034	1
2026-02-11	16:28:09.910	-0.105	-0.175	-0.105	-0.012932	0.03172	1.014064	-0.8565	5.4405	-5.0895	0	3	1034	1
2026-02-11	16:28:09.930	-0.035	-0.175	-0.105	-0.009272	0.031476	1.012356	-0.858	5.448	-5.088	0	3	1034	1
2026-02-11	16:28:09.950	-0.07	-0.175	-0.07	-0.00976	0.02928	1.010648	-0.858	5.448	-5.0985	0	3	1034	1
2026-02-11	16:28:09.970	-0.105	-0.175	-0.105	-0.0122	0.033672	1.012112	-0.864	5.4435	-5.097	0	3	1034	1
2026-02-11	16:28:09.990	-0.035	-0.21	-0.07	-0.007564	0.029524	1.012844	-0.867	5.451	-5.0835	0	3	1034	1
2026-02-11	16:28:10.010	-0.07	-0.175	-0.07	-0.012932	0.030744	1.013576	-0.867	5.451	-5.0835	0	3	1034	1
2026-02-11	16:28:10.030	-0.105	-0.175	-0.07	-0.007564	0.029524	1.009672	-0.867	5.445	-5.0895	0	3	1034	1
2026-02-11	16:28:10.050	0	-0.175	-0.105	-0.009272	0.031476	1.012112	-0.87	5.4435	-5.0895	0	3	1034	1
2026-02-11	16:28:10.070	-0.105	-0.21	-0.07	-0.012444	0.02928	1.015284	-0.8685	5.445	-5.0895	0	3	1034	1
2026-02-11	16:28:10.090	-0.035	-0.175	-0.105	-0.010004	0.032208	1.011868	-0.861	5.448	-5.0865	0	3	1034	1
2026-02-11	16:28:10.110	-0.035	-0.175	-0.105	-0.009272	0.02562	1.011624	-0.858	5.4435	-5.0835	0	3	1034	1
2026-02-11	16:28:10.130	-0.07	-0.21	-0.07	-0.012444	0.030744	1.012112	-0.858	5.4405	-5.0805	0	3	1034	1
2026-02-11	16:28:10.150	-0.07	-0.175	-0.07	-0.011712	0.031232	1.012844	-0.867	5.445	-5.082	0	3	1034	1
2026-02-11	16:28:10.170	-0.035	-0.21	-0.105	-0.012444	0.032452	1.014552	-0.873	5.448	-5.085	0	3	1034	1
2026-02-11	16:28:10.190	-0.07	-0.21	-0.105	-0.01342	0.033916	1.0065	-0.8715	5.448	-5.091	0	3	1034	1
2026-02-11	16:28:10.210	-0.105	-0.175	-0.07	-0.014152	0.02928	1.013332	-0.8745	5.4525	-5.0955	0	3	1034	1
2026-02-11	16:28:10.230	0	-0.21	-0.07	-0.010736	0.027816	1.00528	-0.867	5.448	-5.0955	0	3	1034	1
2026-02-11	16:28:10.250	-0.105	-0.14	-0.105	-0.012444	0.033184	1.010404	-0.8655	5.4465	-5.097	0	3	1034	1
2026-02-11	16:28:10.270	-0.14	-0.14	-0.105	-0.01342	0.032208	1.009428	-0.8685	5.451	-5.094	0	3	1034	1
2026-02-11	16:28:10.290	-0.035	-0.175	-0.105	-0.0122	0.029768	1.011624	-0.8685	5.448	-5.088	0	3	1034	1
2026-02-11	16:28:10.310	-0.07	-0.175	-0.07	-0.013176	0.03416	1.009672	-0.8655	5.4435	-5.085	0	3	1034	1
2026-02-11	16:28:10.330	-0.07	-0.175	-0.07	-0.016104	0.030012	1.013576	-0.864	5.4465	-5.091	0	3	1034	1
2026-02-11	16:28:10.350	-0.035	-0.175	-0.105	-0.01098	0.028548	1.011136	-0.864	5.4495	-5.0925	0	3	1034	1
2026-02-11	16:28:10.370	-0.07	-0.21	-0.07	-0.00976	0.030744	1.0126	-0.861	5.445	-5.088	0	3	1034	1
2026-02-11	16:28:10.390	0.07	-0.175	-0.14	-0.010004	0.031476	1.01504	-0.8655	5.442	-5.0895	0	3	1034	1
2026-02-11	16:28:10.410	-0.14	-0.21	-0.07	-0.005612	0.034892	1.010892	-0.8745	5.442	-5.0895	0	3	1034	1
2026-02-11	16:28:10.430	-0.035	-0.175	-0.07	-0.010248	0.034892	1.009672	-0.8505	5.442	-5.082	0	3	1034	1
2026-02-11	16:28:10.450	-0.14	-0.21	-0.105	-0.006588	0.030988	1.018212	-0.858	5.4465	-5.091	0	3	1034	1
2026-02-11	16:28:10.470	0.07	-0.245	-0.105	-0.010492	0.033428	1.004304	-0.8565	5.4435	-5.0895	0	3	1034	1
2026-02-11	16:28:10.490	-0.175	-0.175	-0.07	-0.009516	0.031232	1.014552	-0.8565	5.436	-5.0895	0	3	1034	1
2026-02-11	16:28:10.510	-0.035	-0.21	-0.105	-0.010248	0.027816	1.014064	-0.87	5.4525	-5.088	0	3	1034	1
2026-02-11	16:28:10.530	-0.07	-0.175	-0.105	-0.0122	0.033672	1.008208	-0.855	5.445	-5.085	0	3	1034	1
2026-02-11	16:28:10.550	0	-0.175	-0.105	-0.009272	0.02806	1.014796	-0.8655	5.4465	-5.0895	0	3	1034	1
2026-02-11	16:28:10.570	-0.14	-0.175	-0.105	-0.012444	0.035136	1.013576	-0.8565	5.4345	-5.0835	0	3	1034	1
2026-02-11	16:28:10.590	-0.07	-0.21	-0.07	-0.013664	0.035136	1.01382	-0.8565	5.4345	-5.0835	0	3	1034	1
2026-02-11	16:28:10.610	-0.07	-0.175	-0.07	-0.010492	0.029768	1.011624	-0.8655	5.439	-5.0895	0	3	1034	1
2026-02-11	16:28:10.630	0	-0.14	-0.105	-0.011956	0.032452	1.009428	-0.8655	5.4405	-5.088	0	3	1034	1
2026-02-11	16:28:10.650	-0.14	-0.21	-0.105	-0.011468	0.031232	1.009672	-0.8565	5.4375	-5.085	0	3	1034	1
2026-02-11	16:28:10.670	-0.07	-0.175	-0.105	-0.013176	0.030744	1.013088	-0.858	5.4435	-5.0895	0	3	1034	1
2026-02-11	16:28:10.690	0	-0.14	-0.07	-0.012688	0.033428	1.00772	-0.8595	5.4465	-5.088	0	3	1034	1
2026-02-11	16:28:10.710	-0.07	-0.21	-0.07	-0.010492	0.031964	1.011136	-0.8565	5.4435	-5.0895	0	3	1034	1
2026-02-11	16:28:10.730	-0.105	-0.175	-0.105	-0.011224	0.02806	1.013576	-0.861	5.4435	-5.0925	0	3	1034	1
2026-02-11	16:28:10.750	-0.035	-0.21	-0.105	-0.009272	0.034404	1.011136	-0.861	5.4405	-5.0985	0	3	1034	1
2026-02-11	16:28:10.770	-0.105	-0.175	-0.07	-0.014396	0.027572	1.0126	-0.873	5.4405	-5.088	0	3	1034	1
2026-02-11	16:28:10.790	-0.07	-0.175	-0.07	-0.012688	0.030744	1.014064	-0.8565	5.454	-5.0835	0	3	1034	1
2026-02-11	16:28:10.810	-0.035	-0.175	-0.07	-0.016104	0.031476	1.014308	-0.8415	5.4705	-5.079	0	3	1034	1
2026-02-11	16:28:10.830	-0.035	-0.14	-0.105	-0.010248	0.031476	1.008208	-0.8445	5.472	-5.079	0	3	1034	1
2026-02-11	16:28:10.850	-0.105	-0.175	-0.105	-0.01098	0.034892	1.011868	-0.8565	5.466	-5.0925	0	3	1034	1
2026-02-11	16:28:10.870	-0.07	-0.21	-0.105	-0.011224	0.02928	1.012112	-0.858	5.4645	-5.088	0	3	1034	1
2026-02-11	16:28:10.890	-0.105	-0.175	-0.105	-0.012688	0.033428	1.015772	-0.849	5.4705	-5.067	0	3	1034	1
2026-02-11	16:28:10.910	0.035	-0.14	-0.105	-0.007808	0.031964	1.008696	-0.849	5.4705	-5.0655	0	3	1034	1
2026-02-11	16:28:10.930	-0.14	-0.175	-0.07	-0.01098	0.02562	1.014064	-0.8535	5.4615	-5.082	0	3	1034	1
2026-02-11	16:28:10.950	0.035	-0.175	-0.105	-0.010736	0.030012	1.009672	-0.861	5.4585	-5.1015	0	3	1034	1
2026-02-11	16:28:10.970	-0.175	-0.175	-0.07	-0.012444	0.031476	1.015772	-0.858	5.4555	-5.106	0	3	1034	1
2026-02-11	16:28:10.990	0	-0.21	-0.07	-0.010004	0.032696	1.012356	-0.8685	5.4495	-5.0865	0	3	1034	1
2026-02-11	16:28:11.010	-0.035	-0.21	-0.07	-0.013908	0.0305	1.01016	-0.8625	5.445	-5.088	0	3	1034	1
2026-02-11	16:28:11.030	-0.105	-0.14	-0.105	-0.010004	0.030988	1.015284	-0.861	5.4495	-5.088	0	3	1034	1
2026-02-11	16:28:11.050	-0.035	-0.21	-0.14	-0.009516	0.033428	1.00894	-0.8565	5.4525	-5.097	0	3	1034	1
2026-02-11	16:28:11.070	-0.07	-0.21	-0.07	-0.01342	0.033672	1.010648	-0.861	5.4405	-5.085	0	3	1034	1
2026-02-11	16:28:11.090	-0.175	-0.175	-0.07	-0.00854	0.031964	1.015772	-0.855	5.4465	-5.094	0	3	1034	1
2026-02-11	16:28:11.110	-0.035	-0.14	-0.105	-0.011224	0.030988	1.009184	-0.858	5.4405	-5.0895	0	3	1034	1
2026-02-11	16:28:11.130	-0.035	-0.175	-0.07	-0.008296	0.033184	1.008696	-0.8595	5.4405	-5.085	0	3	1034	1
2026-02-11	16:28:11.150	-0.07	-0.14	-0.07	-0.011956	0.031964	1.013088	-0.8625	5.4405	-5.0895	0	3	1034	1
2026-02-11	16:28:11.170	-0.035	-0.14	-0.105	-0.013908	0.030744	1.0126	-0.8655	5.442	-5.0955	0	3	1034	1
2026-02-11	16:28:11.190	-0.105	-0.175	-0.105	-0.0122	0.0305	1.013576	-0.8535	5.439	-5.0895	0	3	1034	1
2026-02-11	16:28:11.210	-0.105	-0.175	-0.105	-0.011468	0.0305	1.009428	-0.849	5.4405	-5.091	0	3	1034	1
2026-02-11	16:28:11.230	-0.105	-0.21	-0.105	-0.00976	0.031964	1.0126	-0.861	5.4405	-5.085	0	3	1034	1
2026-02-11	16:28:11.250	-0.035	-0.175	-0.14	-0.009028	0.030744	1.00772	-0.873	5.442	-5.088	0	3	1034	1
2026-02-11	16:28:11.270	-0.035	-0.175	-0.105	-0.011224	0.029768	1.01382	-0.867	5.442	-5.088	0	3	1034	1
2026-02-11	16:28:11.290	-0.07	-0.14	-0.07	-0.015128	0.032208	1.014064	-0.8625	5.445	-5.0805	0	3	1034	1
2026-02-11	16:28:11.310	-0.07	-0.175	-0.07	-0.013176	0.029036	1.008208	-0.861	5.4525	-5.094	0	3	1034	1
2026-02-11	16:28:11.330	-0.07	-0.14	-0.07	-0.0122	0.031476	1.01504	-0.861	5.445	-5.094	0	3	1034	1
2026-02-11	16:28:11.350	-0.14	-0.175	-0.105	-0.01464	0.029036	1.016504	-0.864	5.4405	-5.094	0	3	1034	1
2026-02-11	16:28:11.370	-0.035	-0.21	-0.14	-0.012688	0.030256	1.00894	-0.864	5.4435	-5.088	0	3	1034	1
2026-02-11	16:28:11.390	-0.07	-0.21	-0.105	-0.011468	0.02928	1.008208	-0.8595	5.4465	-5.0865	0	3	1034	1
2026-02-11	16:28:11.410	-0.105	-0.175	-0.105	-0.013908	0.029036	1.009428	-0.861	5.448	-5.0925	0	3	1034	1
2026-02-11	16:28:11.430	-0.07	-0.21	-0.105	-0.011468	0.032208	1.011868	-0.861	5.4435	-5.094	0	3	1034	1
2026-02-11	16:28:11.450	-0.105	-0.175	-0.105	-0.010248	0.030988	1.011868	-0.858	5.4435	-5.091	0	3	1034	1
2026-02-11	16:28:11.470	-0.035	-0.21	-0.105	-0.010736	0.028548	1.01138	-0.8685	5.445	-5.097	0	3	1034	1
2026-02-11	16:28:11.490	-0.105	-0.175	-0.07	-0.010492	0.030988	1.0126	-0.87	5.442	-5.097	0	3	1034	1
2026-02-11	16:28:11.510	0	-0.175	-0.07	-0.013176	0.033184	1.008696	-0.8625	5.4435	-5.091	0	3	1034	1
2026-02-11	16:28:11.530	-0.14	-0.175	-0.105	-0.01342	0.030256	1.010892	-0.861	5.4495	-5.0925	0	3	1034	1
2026-02-11	16:28:11.550	-0.105	-0.21	-0.07	-0.011712	0.031964	1.014308	-0.8595	5.445	-5.091	0	3	1034	1
2026-02-11	16:28:11.570	-0.07	-0.175	-0.105	-0.00976	0.02928	1.01382	-0.858	5.4405	-5.094	0	3	1034	1
2026-02-11	16:28:11.590	-0.035	-0.175	-0.105	-0.010248	0.032208	1.01138	-0.8715	5.445	-5.097	0	3	1034	1
2026-02-11	16:28:11.610	-0.07	-0.175	-0.07	-0.010248	0.031964	1.011868	-0.8655	5.445	-5.0955	0	3	1034	1
2026-02-11	16:28:11.630	-0.105	-0.175	-0.07	-0.009516	0.033916	1.014552	-0.855	5.439	-5.091	0	3	1034	1
2026-02-11	16:28:11.650	-0.035	-0.175	-0.105	-0.011468	0.031476	1.012356	-0.858	5.4435	-5.094	0	3	1034	1
2026-02-11	16:28:11.670	-0.07	-0.175	-0.07	-0.013664	0.032208	1.012112	-0.8535	5.4465	-5.0925	0	3	1034	1
2026-02-11	16:28:11.690	-0.07	-0.175	-0.07	-0.012444	0.032696	1.012112	-0.8655	5.439	-5.0895	0	3	1034	1
2026-02-11	16:28:11.710	0	-0.175	-0.07	-0.009028	0.029524	1.009184	-0.861	5.442	-5.091	0	3	1034	1
2026-02-11	16:28:11.730	-0.105	-0.175	-0.07	-0.016348	0.029524	1.01138	-0.861	5.4405	-5.091	0	3	1034	1
2026-02-11	16:28:11.750	-0.105	-0.175	-0.105	-0.011468	0.032696	1.01382	-0.8625	5.4435	-5.0805	0	3	1034	1
2026-02-11	16:28:11.770	0	-0.14	-0.105	-0.012444	0.029524	1.009672	-0.8625	5.4375	-5.085	0	3	1034	1
2026-02-11	16:28:11.790	-0.07	-0.175	-0.105	-0.013664	0.033672	1.009672	-0.8595	5.448	-5.091	0	3	1034	1
2026-02-11	16:28:11.810	-0.14	-0.175	-0.07	-0.010492	0.033916	1.015284	-0.858	5.442	-5.088	0	3	1034	1
2026-02-11	16:28:11.830	0	-0.175	-0.105	-0.011712	0.033184	1.0065	-0.858	5.4405	-5.091	0	3	1034	1
2026-02-11	16:28:11.850	-0.07	-0.175	-0.105	-0.010492	0.032208	1.008696	-0.8685	5.445	-5.0895	0	3	1034	1
2026-02-11	16:28:11.870	-0.07	-0.175	-0.105	-0.0122	0.029768	1.012112	-0.858	5.442	-5.0865	0	3	1034	1
2026-02-11	16:28:11.890	0.105	-0.175	-0.14	-0.0122	0.038308	0.986492	-0.8595	5.4435	-5.085	0	3	1034	1
2026-02-11	16:28:11.910	-1.435	-0.105	0.175	-0.01342	0.034404	1.064572	-0.8625	5.445	-5.0865	0	3	1034	1
2026-02-11	16:28:11.930	1.26	-0.28	-0.385	-0.00244	0.027328	0.98454	-0.8565	5.445	-5.0835	0	3	1034	1
2026-02-11	16:28:11.950	-0.245	-0.07	0	-0.019032	0.030988	1.021384	-0.858	5.4435	-5.0835	0	3	1034	1
2026-02-11	16:28:11.970	-0.455	-0.21	-0.035	-0.0122	0.034404	1.022848	-0.8685	5.442	-5.0895	0	3	1034	1
2026-02-11	16:28:11.990	0.595	-0.14	-0.21	-0.015128	0.031476	0.999668	-0.873	5.454	-5.0985	0	3	1034	1
2026-02-11	16:28:12.010	-0.42	-0.28	0	-0.009272	0.028548	1.01138	-0.8685	5.451	-5.0985	0	3	1034	1
2026-02-11	16:28:12.030	-0.245	-0.035	-0.035	-0.015372	0.031476	1.02236	-0.8595	5.439	-5.0925	0	3	1034	1
2026-02-11	16:28:12.050	0.21	-0.14	-0.105	-0.010248	0.030744	1.003084	-0.861	5.439	-5.0925	0	3	1034	1
2026-02-11	16:28:12.070	-0.245	-0.245	-0.035	-0.00854	0.028304	1.01748	-0.861	5.439	-5.0925	0	3	1034	1
2026-02-11	16:28:12.090	0.14	-0.14	-0.105	-0.010736	0.035624	1.003084	-0.867	5.436	-5.0925	0	3	1034	1
2026-02-11	16:28:12.110	-0.21	-0.175	-0.035	-0.013664	0.033184	1.01992	-0.8625	5.4495	-5.0925	0	3	1034	1
2026-02-11	16:28:12.130	-0.105	-0.14	-0.07	-0.011956	0.032452	1.011136	-0.8595	5.451	-5.0985	0	3	1034	1
2026-02-11	16:28:12.150	0.07	-0.21	-0.105	-0.009272	0.033428	1.00894	-0.8595	5.4465	-5.103	0	3	1034	1
2026-02-11	16:28:12.170	-0.14	-0.175	-0.07	-0.012444	0.0305	1.012844	-0.8595	5.4465	-5.0895	0	3	1034	1
2026-02-11	16:28:12.190	-0.105	-0.21	-0.07	-0.012932	0.031476	1.01504	-0.858	5.445	-5.091	0	3	1034	1
2026-02-11	16:28:12.210	0.035	-0.21	-0.105	-0.012932	0.031232	1.01138	-0.8595	5.4405	-5.088	0	3	1034	1
2026-02-11	16:28:12.230	-0.14	-0.14	-0.07	-0.013176	0.031964	1.01504	-0.864	5.442	-5.082	0	3	1034	1
2026-02-11	16:28:12.250	0.14	-0.21	-0.105	-0.011224	0.036356	1.001864	-0.8655	5.445	-5.079	0	3	1034	1
2026-02-11	16:28:12.270	-0.21	-0.175	-0.07	-0.0122	0.032452	1.013576	-0.8475	5.4705	-5.0625	0	3	1034	1
2026-02-11	16:28:12.290	-0.175	-0.175	-0.105	-0.010004	0.028792	1.016504	-0.8385	5.469	-5.07	0	3	1034	1
2026-02-11	16:28:12.310	0	-0.21	-0.105	-0.011956	0.032452	1.009184	-0.864	5.4525	-5.0985	0	3	1034	1
2026-02-11	16:28:12.330	-0.07	-0.14	-0.105	-0.014152	0.029524	1.0126	-0.8625	5.46	-5.091	0	3	1034	1
2026-02-11	16:28:12.350	-0.07	-0.21	-0.07	-0.009272	0.032452	1.016992	-0.867	5.457	-5.103	0	3	1034	1
2026-02-11	16:28:12.370	-0.07	-0.21	-0.105	-0.012688	0.031476	1.0065	-0.8625	5.4555	-5.0865	0	3	1034	1
2026-02-11	16:28:12.390	-0.105	-0.21	-0.105	-0.009028	0.02928	1.014552	-0.852	5.4525	-5.085	0	3	1034	1
2026-02-11	16:28:12.410	0.035	-0.14	-0.14	-0.008296	0.03416	1.006744	-0.8625	5.4405	-5.0865	0	4	1035	1
2026-02-11	16:28:12.430	-0.35	-0.175	-0.07	-0.01098	0.03294	1.023336	-0.8625	5.4405	-5.0865	0	4	1035	1
2026-02-11	16:28:12.450	0.175	-0.175	-0.14	-0.009516	0.034648	0.999668	-0.861	5.4435	-5.0895	0	4	1035	1
2026-02-11	16:28:12.470	-0.175	-0.175	-0.105	-0.010004	0.028792	1.01748	-0.8595	5.4465	-5.0925	0	4	1035	1
2026-02-11	16:28:12.490	-0.14	-0.175	-0.105	-0.010736	0.034892	1.010648	-0.858	5.442	-5.094	0	4	1035	1
2026-02-11	16:28:12.510	-0.105	-0.175	-0.07	-0.012932	0.03416	1.01382	-0.858	5.4405	-5.094	0	4	1035	1
2026-02-11	16:28:12.530	0.07	-0.175	-0.105	-0.011224	0.031964	1.005524	-0.8535	5.442	-5.0925	0	4	1035	1
2026-02-11	16:28:12.550	-0.175	-0.14	-0.035	-0.012444	0.032208	1.01626	-0.8595	5.442	-5.094	0	4	1035	1
2026-02-11	16:28:12.570	0	-0.245	-0.105	-0.011712	0.03172	1.009184	-0.8625	5.442	-5.094	0	4	1035	1
2026-02-11	16:28:12.590	-0.07	-0.21	-0.105	-0.011468	0.030744	1.009428	-0.8535	5.4405	-5.0925	0	4	1035	1
2026-02-11	16:28:12.610	-0.035	-0.175	-0.14	-0.010736	0.034404	1.011624	-0.8535	5.439	-5.0925	0	4	1035	1
2026-02-11	16:28:12.630	-0.07	-0.175	-0.105	-0.01342	0.031232	1.014552	-0.8595	5.448	-5.085	0	4	1035	1
2026-02-11	16:28:12.650	0	-0.175	-0.105	-0.010248	0.02928	1.01138	-0.8565	5.445	-5.0895	0	4	1035	1
2026-02-11	16:28:12.670	-0.105	-0.175	-0.105	-0.007076	0.033428	1.010404	-0.867	5.442	-5.091	0	4	1035	1
2026-02-11	16:28:12.690	-0.105	-0.175	-0.105	-0.009272	0.02928	1.01504	-0.867	5.4435	-5.0895	0	4	1035	1
2026-02-11	16:28:12.710	-0.105	-0.21	-0.105	-0.012444	0.030744	1.015528	-0.8625	5.4435	-5.088	0	4	1035	1
2026-02-11	16:28:12.730	0	-0.14	-0.105	-0.013908	0.033428	1.009184	-0.8595	5.4405	-5.0865	0	4	1035	1
2026-02-11	16:28:12.750	-0.07	-0.14	-0.105	-0.014884	0.03904	1.010892	-0.861	5.4405	-5.085	0	4	1035	1
2026-02-11	16:28:12.770	-0.175	-0.21	-0.07	-0.009516	0.032208	1.009428	-0.861	5.4435	-5.0865	0	4	1035	1
2026-02-11	16:28:12.790	-0.105	-0.245	-0.035	-0.007564	0.02684	1.012844	-0.861	5.445	-5.0865	0	4	1035	1
2026-02-11	16:28:12.810	0	-0.14	-0.105	-0.011956	0.03294	1.010892	-0.864	5.4435	-5.088	0	5	1035	1
2026-02-11	16:28:12.830	-0.035	-0.175	-0.105	-0.0122	0.035624	1.0126	-0.852	5.4435	-5.0865	0	5	1035	1
2026-02-11	16:28:12.850	-0.035	-0.175	-0.105	-0.014396	0.033184	1.006012	-0.852	5.472	-5.0865	0	5	1035	1
2026-02-11	16:28:12.870	-0.21	-0.21	-0.105	-0.010248	0.028792	1.01138	-0.846	5.4765	-5.076	0	5	1035	1
2026-02-11	16:28:12.890	-0.14	-0.21	-0.105	-0.010248	0.030256	1.01382	-0.846	5.469	-5.0715	0	5	1035	1
2026-02-11	16:28:12.910	0	-0.21	-0.07	-0.011956	0.031964	1.011624	-0.846	5.469	-5.0775	0	5	1035	1
2026-02-11	16:28:12.930	-0.07	-0.175	-0.14	-0.009028	0.032696	1.011624	-0.849	5.472	-5.0925	0	5	1035	1
2026-02-11	16:28:12.950	-0.14	-0.14	-0.07	-0.013176	0.031964	1.0126	-0.8625	5.451	-5.0955	0	5	1035	1
2026-02-11	16:28:12.970	-0.105	-0.175	-0.105	-0.011956	0.029524	1.01016	-0.867	5.46	-5.097	0	5	1035	1
2026-02-11	16:28:12.990	-0.07	-0.175	-0.105	-0.012444	0.030744	1.01382	-0.864	5.451	-5.097	0	5	1035	1
2026-02-11	16:28:13.010	-0.07	-0.175	-0.105	-0.008784	0.032208	1.01138	-0.8595	5.4435	-5.091	0	5	1035	1
2026-02-11	16:28:13.030	-0.035	-0.175	-0.105	-0.00976	0.030012	1.007476	-0.864	5.4465	-5.0865	0	5	1035	1
2026-02-11	16:28:13.050	-0.07	-0.175	-0.07	-0.010248	0.031964	1.012844	-0.8625	5.4465	-5.0865	0	5	1035	1
2026-02-11	16:28:13.070	-0.105	-0.175	-0.07	-0.00854	0.03172	1.011136	-0.858	5.445	-5.088	0	5	1035	1
2026-02-11	16:28:13.090	0	-0.175	-0.105	-0.008052	0.029036	1.009184	-0.858	5.4435	-5.088	0	5	1035	1
2026-02-11	16:28:13.110	-0.105	-0.21	-0.07	-0.009272	0.031476	1.010892	-0.858	5.445	-5.0895	0	5	1035	1
2026-02-11	16:28:13.130	0	-0.14	-0.105	-0.012932	0.03416	1.010892	-0.8625	5.4495	-5.0895	0	5	1035	1
2026-02-11	16:28:13.150	-0.105	-0.175	-0.105	-0.011956	0.033428	1.010404	-0.8625	5.4525	-5.085	0	5	1035	1
2026-02-11	16:28:13.170	-0.07	-0.175	-0.105	-0.011956	0.028548	1.012844	-0.8625	5.4525	-5.085	0	5	1035	1
2026-02-11	16:28:13.190	-0.035	-0.175	-0.105	-0.010492	0.028304	1.013088	-0.8595	5.4405	-5.0925	0	5	1035	1
2026-02-11	16:28:13.210	0	-0.14	-0.105	-0.011712	0.035136	1.007964	-0.864	5.442	-5.091	0	5	1034	1
2026-02-11	16:28:13.230	-0.07	-0.21	-0.07	-0.0122	0.031964	1.012356	-0.8625	5.4435	-5.0895	0	5	1034	1
2026-02-11	16:28:13.250	-0.035	-0.175	-0.07	-0.012444	0.029768	1.008696	-0.858	5.4405	-5.0895	0	5	1034	1
2026-02-11	16:28:13.270	-0.14	-0.175	-0.07	-0.008052	0.030012	1.013332	-0.858	5.439	-5.094	0	5	1034	1
2026-02-11	16:28:13.290	-0.07	-0.175	-0.105	-0.011956	0.030012	1.012844	-0.855	5.4435	-5.0955	0	5	1034	1
2026-02-11	16:28:13.310	-0.035	-0.175	-0.105	-0.010736	0.03294	1.014308	-0.8535	5.4465	-5.091	0	5	1034	1
2026-02-11	16:28:13.330	-0.035	-0.21	-0.105	-0.012932	0.033184	1.009672	-0.8535	5.4405	-5.091	0	5	1034	1
2026-02-11	16:28:13.350	-0.14	-0.175	-0.105	-0.017324	0.03172	1.010648	-0.8535	5.4375	-5.094	0	5	1034	1
2026-02-11	16:28:13.370	-0.035	-0.175	-0.105	-0.014152	0.030744	1.009184	-0.852	5.4465	-5.0835	0	5	1034	1
2026-02-11	16:28:13.390	-0.105	-0.14	-0.07	-0.010492	0.03172	1.01138	-0.8685	5.4375	-5.0955	0	5	1034	1
2026-02-11	16:28:13.410	-0.105	-0.175	-0.105	-0.0122	0.031964	1.012356	-0.8625	5.451	-5.0955	0	5	1034	1
2026-02-11	16:28:13.430	-0.035	-0.175	-0.105	-0.01464	0.03294	1.012356	-0.8625	5.4465	-5.0895	0	5	1034	1
2026-02-11	16:28:13.450	-0.035	-0.14	-0.105	-0.010492	0.030012	1.012844	-0.8655	5.4465	-5.094	0	5	1034	1
2026-02-11	16:28:13.470	-0.07	-0.21	-0.105	-0.00976	0.032452	1.011136	-0.867	5.439	-5.091	0	5	1034	1
2026-02-11	16:28:13.490	-0.035	-0.175	-0.105	-0.011956	0.03294	1.014552	-0.8565	5.4435	-5.0865	0	5	1034	1
2026-02-11	16:28:13.510	-0.035	-0.175	-0.105	-0.011956	0.032208	1.009184	-0.8685	5.4405	-5.085	0	5	1034	1
2026-02-11	16:28:13.530	-0.105	-0.175	-0.07	-0.01464	0.030256	1.014064	-0.8685	5.4405	-5.085	0	5	1034	1
2026-02-11	16:28:13.550	-0.105	-0.175	-0.07	-0.010492	0.0305	1.011624	-0.8655	5.4435	-5.0865	0	5	1034	1
2026-02-11	16:28:13.570	-0.07	-0.21	-0.105	-0.0122	0.029036	1.013332	-0.8625	5.451	-5.0895	0	5	1034	1
2026-02-11	16:28:13.590	0	-0.175	-0.07	-0.010736	0.031964	1.012112	-0.855	5.4495	-5.0805	0	5	1034	1
2026-02-11	16:28:13.610	-0.105	-0.175	-0.035	-0.01098	0.028304	1.02114	-0.852	5.46	-5.076	0	5	1034	1
2026-02-11	16:28:13.630	0.07	-0.21	-0.14	-0.01708	0.036356	1.00284	-0.8535	5.4735	-5.0745	0	5	1034	1
2026-02-11	16:28:13.650	-0.175	-0.14	-0.105	-0.010492	0.032208	1.016016	-0.8535	5.475	-5.082	0	5	1034	1
2026-02-11	16:28:13.670	-0.175	-0.21	-0.07	-0.010736	0.029036	1.015284	-0.858	5.4675	-5.0955	0	5	1034	1
2026-02-11	16:28:13.690	-0.035	-0.175	-0.105	-0.014396	0.03172	1.008208	-0.864	5.4555	-5.0955	0	5	1034	1
2026-02-11	16:28:13.710	-0.105	-0.14	-0.07	-0.01342	0.03538	1.011624	-0.8625	5.4525	-5.094	0	5	1034	1
2026-02-11	16:28:13.730	0	-0.245	-0.105	-0.013176	0.03416	1.014796	-0.852	5.448	-5.0895	0	5	1034	1
2026-02-11	16:28:13.750	-0.105	-0.14	-0.07	-0.011712	0.029768	1.010892	-0.8535	5.4435	-5.0895	0	5	1034	1
2026-02-11	16:28:13.770	-0.21	-0.175	-0.105	-0.009028	0.024156	1.017724	-0.861	5.439	-5.0895	0	5	1034	1
2026-02-11	16:28:13.790	0.035	-0.175	-0.105	-0.011224	0.03416	1.009916	-0.858	5.4435	-5.085	0	5	1034	1
2026-02-11	16:28:13.810	0	-0.175	-0.07	-0.013176	0.03416	1.009428	-0.858	5.442	-5.0865	0	4	1034	1
2026-02-11	16:28:13.830	-0.14	-0.21	-0.07	-0.010736	0.028548	1.01138	-0.8625	5.4405	-5.0865	0	4	1034	1
2026-02-11	16:28:13.850	-0.035	-0.175	-0.105	-0.010004	0.029768	1.007476	-0.8625	5.439	-5.0865	0	4	1034	1
2026-02-11	16:28:13.870	-0.175	-0.175	-0.07	-0.011956	0.030744	1.016748	-0.8595	5.4375	-5.0865	0	4	1034	1
2026-02-11	16:28:13.890	0.035	-0.175	-0.14	-0.011956	0.031476	1.009672	-0.8595	5.439	-5.0865	0	4	1034	1
2026-02-11	16:28:13.910	-0.14	-0.175	-0.07	-0.009516	0.030744	1.012844	-0.8625	5.445	-5.094	0	4	1034	1
2026-02-11	16:28:13.930	-0.14	-0.175	-0.105	-0.013664	0.030256	1.014064	-0.858	5.442	-5.0895	0	4	1034	1
2026-02-11	16:28:13.950	-0.035	-0.21	-0.105	-0.011468	0.02928	1.007476	-0.8655	5.4465	-5.0895	0	4	1034	1
2026-02-11	16:28:13.970	-0.105	-0.175	-0.07	-0.011956	0.032452	1.011624	-0.8595	5.439	-5.094	0	4	1034	1
2026-02-11	16:28:13.990	-0.07	-0.175	-0.07	-0.009516	0.033916	1.013088	-0.8625	5.442	-5.0925	0	4	1034	1
2026-02-11	16:28:14.010	-0.035	-0.14	-0.105	-0.0122	0.030744	1.006744	-0.8625	5.442	-5.0925	0	4	1035	1
2026-02-11	16:28:14.030	-0.14	-0.21	-0.07	-0.0122	0.03172	1.010892	-0.8505	5.4405	-5.091	0	4	1035	1
2026-02-11	16:28:14.050	-0.07	-0.175	-0.07	-0.00854	0.02928	1.01382	-0.858	5.442	-5.088	0	4	1035	1
2026-02-11	16:28:14.070	-0.035	-0.175	-0.105	-0.013908	0.028792	1.014552	-0.855	5.4465	-5.088	0	4	1035	1
2026-02-11	16:28:14.090	-0.035	-0.175	-0.105	-0.01342	0.03294	1.010892	-0.8595	5.445	-5.0895	0	4	1035	1
2026-02-11	16:28:14.110	-0.07	-0.175	-0.105	-0.010492	0.029036	1.014064	-0.8565	5.445	-5.0925	0	4	1035	1
2026-02-11	16:28:14.130	-0.035	-0.14	-0.105	-0.011956	0.032452	1.011624	-0.849	5.4585	-5.088	0	4	1035	1
2026-02-11	16:28:14.150	-0.035	-0.175	-0.07	-0.01098	0.032696	1.012112	-0.846	5.4675	-5.082	0	4	1035	1
2026-02-11	16:28:14.170	-0.035	-0.14	-0.07	-0.010492	0.033184	1.014064	-0.843	5.4675	-5.0745	0	4	1035	1
2026-02-11	16:28:14.190	-0.035	-0.175	-0.105	-0.014152	0.030988	1.01382	-0.8565	5.463	-5.0865	0	4	1035	1
2026-02-11	16:28:14.210	0.035	-0.14	-0.105	-0.00854	0.033916	1.007232	-0.8715	5.4585	-5.1015	0	4	1035	1
2026-02-11	16:28:14.230	-0.175	-0.21	-0.07	-0.013176	0.03294	1.0126	-0.8595	5.4585	-5.106	0	4	1035	1
2026-02-11	16:28:14.250	0	-0.21	-0.105	-0.009516	0.031964	1.010404	-0.8565	5.4585	-5.1075	0	4	1035	1
2026-02-11	16:28:14.270	0.07	-0.175	-0.105	-0.011224	0.033428	1.005524	-0.858	5.448	-5.097	0	4	1035	1
2026-02-11	16:28:14.290	-0.14	-0.14	-0.07	-0.012444	0.033916	1.014308	-0.8565	5.4375	-5.088	0	4	1035	1
2026-02-11	16:28:14.310	-0.14	-0.21	-0.07	-0.015128	0.03172	1.015772	-0.8565	5.439	-5.0895	0	4	1035	1
2026-02-11	16:28:14.330	0.07	-0.175	-0.105	-0.011956	0.02928	1.004792	-0.858	5.4435	-5.088	0	4	1035	1
2026-02-11	16:28:14.350	-0.105	-0.14	-0.105	-0.010736	0.033428	1.01504	-0.8625	5.439	-5.0895	0	4	1035	1
2026-02-11	16:28:14.370	-0.035	-0.14	-0.07	-0.011956	0.028548	1.009428	-0.867	5.439	-5.088	0	4	1035	1
2026-02-11	16:28:14.390	0.035	-0.21	-0.105	-0.00976	0.035624	1.007232	-0.861	5.4435	-5.091	0	4	1035	1
2026-02-11	16:28:14.410	-0.14	-0.14	-0.07	-0.010248	0.030256	1.016992	-0.858	5.439	-5.091	0	4	1035	1
2026-02-11	16:28:14.430	-0.21	-0.175	-0.105	-0.009028	0.029524	1.010892	-0.864	5.442	-5.0895	0	4	1035	1
2026-02-11	16:28:14.450	-0.035	-0.21	-0.105	-0.013908	0.031476	1.016504	-0.8685	5.448	-5.0925	0	4	1035	1
2026-02-11	16:28:14.470	0.175	-0.175	-0.105	-0.011956	0.03172	1.001376	-0.8625	5.445	-5.091	0	4	1035	1
2026-02-11	16:28:14.490	-0.035	-0.14	-0.07	-0.01464	0.033428	1.008696	-0.861	5.4465	-5.0925	0	4	1035	1
2026-02-11	16:28:14.510	-0.455	-0.245	-0.035	-0.009516	0.028304	1.025044	-0.87	5.448	-5.0925	0	4	1035	1
2026-02-11	16:28:14.530	0.035	-0.245	-0.105	-0.010004	0.026352	1.0065	-0.864	5.4435	-5.088	0	4	1035	1
2026-02-11	16:28:14.550	0.07	-0.07	-0.105	-0.012932	0.035136	1.009184	-0.861	5.4495	-5.0925	0	4	1035	1
2026-02-11	16:28:14.570	-0.21	-0.14	-0.07	-0.01586	0.035624	1.011136	-0.8625	5.442	-5.091	0	4	1035	1
2026-02-11	16:28:14.590	-0.035	-0.28	-0.105	-0.00976	0.033184	1.0126	-0.8625	5.4405	-5.0865	0	4	1035	1
2026-02-11	16:28:14.610	0.035	-0.175	-0.105	-0.011712	0.034404	1.00772	-0.8505	5.4375	-5.088	0	4	1035	1
2026-02-11	16:28:14.630	-0.245	-0.175	-0.07	-0.013664	0.027084	1.019676	-0.8505	5.4375	-5.088	0	4	1035	1
2026-02-11	16:28:14.650	0.14	-0.21	-0.105	-0.009028	0.033184	1.006988	-0.8535	5.442	-5.0865	0	4	1035	1
2026-02-11	16:28:14.670	-0.035	-0.175	-0.07	-0.00854	0.029524	1.010648	-0.858	5.4465	-5.091	0	4	1035	1
2026-02-11	16:28:14.690	-0.105	-0.175	-0.07	-0.010248	0.033184	1.009184	-0.8595	5.442	-5.094	0	4	1035	1
2026-02-11	16:28:14.710	-0.105	-0.21	-0.105	-0.011956	0.033672	1.011624	-0.8595	5.4405	-5.091	0	4	1035	1
2026-02-11	16:28:14.730	-0.14	-0.21	-0.105	-0.009516	0.025132	1.016016	-0.8535	5.448	-5.085	0	4	1035	1
2026-02-11	16:28:14.750	-0.035	-0.21	-0.105	-0.010736	0.02806	1.012356	-0.8655	5.4405	-5.0955	0	4	1035	1
2026-02-11	16:28:14.770	0.07	-0.14	-0.105	-0.01464	0.029768	1.005524	-0.8625	5.439	-5.0895	0	4	1035	1
2026-02-11	16:28:14.790	-0.14	-0.21	-0.07	-0.00854	0.033428	1.015528	-0.855	5.445	-5.091	0	4	1035	1
2026-02-11	16:28:14.810	0	-0.175	-0.105	-0.00976	0.031232	1.008452	-0.8595	5.4375	-5.0925	0	4	1035	1
2026-02-11	16:28:14.830	-0.175	-0.21	-0.07	-0.010492	0.031476	1.015284	-0.8595	5.442	-5.0895	0	4	1035	1
2026-02-11	16:28:14.850	-0.035	-0.21	-0.07	-0.011712	0.029036	1.012844	-0.8625	5.4495	-5.088	0	4	1035	1
2026-02-11	16:28:14.870	0	-0.21	-0.07	-0.012688	0.031476	1.00772	-0.8595	5.445	-5.0925	0	4	1035	1
2026-02-11	16:28:14.890	-0.14	-0.175	-0.07	-0.013664	0.03172	1.010648	-0.858	5.445	-5.088	0	4	1035	1
2026-02-11	16:28:14.910	-0.14	-0.175	-0.07	-0.011956	0.029036	1.012844	-0.8625	5.4465	-5.082	0	4	1035	1
2026-02-11	16:28:14.930	-0.035	-0.21	-0.07	-0.010492	0.030256	1.011136	-0.8625	5.4435	-5.0835	0	4	1035	1
2026-02-11	16:28:14.950	-0.035	-0.14	-0.07	-0.012688	0.029036	1.012844	-0.858	5.442	-5.0865	0	4	1035	1
2026-02-11	16:28:14.970	0	-0.175	-0.07	-0.013664	0.03416	1.008452	-0.8505	5.457	-5.0835	0	4	1035	1
2026-02-11	16:28:14.990	-0.07	-0.21	-0.105	-0.01342	0.030744	1.012844	-0.846	5.475	-5.079	0	4	1035	1
2026-02-11	16:28:15.010	-0.07	-0.175	-0.07	-0.01464	0.032696	1.013576	-0.846	5.475	-5.079	0	4	1035	1
2026-02-11	16:28:15.030	-0.035	-0.175	-0.105	-0.011224	0.032452	1.009184	-0.8625	5.4525	-5.1	0	4	1035	1
2026-02-11	16:28:15.050	-0.14	-0.14	-0.07	-0.01098	0.032696	1.0126	-0.87	5.463	-5.1045	0	4	1035	1
2026-02-11	16:28:15.070	-0.035	-0.175	-0.105	-0.015372	0.03294	1.010404	-0.87	5.457	-5.0955	0	4	1035	1
2026-02-11	16:28:15.090	-0.035	-0.175	-0.105	-0.01098	0.034404	1.008452	-0.8685	5.463	-5.1045	0	4	1035	1
2026-02-11	16:28:15.110	-0.14	-0.21	-0.07	-0.011224	0.031232	1.015528	-0.8685	5.4465	-5.0925	0	4	1035	1
2026-02-11	16:28:15.130	-0.14	-0.21	-0.07	-0.011224	0.02806	1.015772	-0.8625	5.4435	-5.091	0	4	1035	1
2026-02-11	16:28:15.150	0	-0.14	-0.105	-0.01098	0.029768	1.011868	-0.8595	5.442	-5.094	0	4	1035	1
2026-02-11	16:28:15.170	-0.035	-0.175	-0.07	-0.009516	0.032208	1.010648	-0.8625	5.4495	-5.091	0	4	1035	1
2026-02-11	16:28:15.190	-0.14	-0.175	-0.105	-0.012688	0.033184	1.013332	-0.864	5.4435	-5.0895	0	4	1035	1
2026-02-11	16:28:15.210	-0.105	-0.175	-0.105	-0.011224	0.030256	1.015528	-0.8655	5.4405	-5.091	0	4	1035	1
2026-02-11	16:28:15.230	0	-0.14	-0.105	-0.011468	0.03294	1.009672	-0.864	5.445	-5.094	0	4	1035	1
2026-02-11	16:28:15.250	-0.07	-0.175	-0.105	-0.013664	0.033184	1.012112	-0.87	5.4435	-5.082	0	4	1035	1
2026-02-11	16:28:15.270	-0.07	-0.21	-0.105	-0.014152	0.03172	1.010404	-0.864	5.4435	-5.091	0	4	1035	1
2026-02-11	16:28:15.290	-0.07	-0.175	-0.07	-0.014884	0.031964	1.011868	-0.8655	5.4405	-5.091	0	4	1035	1
2026-02-11	16:28:15.310	-0.07	-0.14	-0.07	-0.010004	0.032452	1.009184	-0.8625	5.442	-5.085	0	4	1035	1
2026-02-11	16:28:15.330	-0.105	-0.175	-0.105	-0.00976	0.034404	1.014064	-0.8595	5.4375	-5.0895	0	4	1035	1
2026-02-11	16:28:15.350	-0.035	-0.21	-0.105	-0.012444	0.032696	1.0126	-0.867	5.4465	-5.0895	0	4	1035	1
2026-02-11	16:28:15.370	-0.07	-0.175	-0.07	-0.007564	0.03416	1.01016	-0.8625	5.4465	-5.085	0	4	1035	1
2026-02-11	16:28:15.390	-0.105	-0.175	-0.07	-0.010248	0.030012	1.014308	-0.8595	5.4465	-5.0865	0	4	1035	1
2026-02-11	16:28:15.410	-0.035	-0.21	-0.07	-0.0122	0.034404	1.012356	-0.858	5.4465	-5.0895	0	4	1035	1
2026-02-11	16:28:15.430	-0.035	-0.175	-0.105	-0.011468	0.03416	1.00894	-0.8565	5.442	-5.0895	0	4	1035	1
2026-02-11	16:28:15.450	-0.035	-0.21	-0.105	-0.010004	0.031232	1.00894	-0.8625	5.4405	-5.091	0	4	1035	1
2026-02-11	16:28:15.470	-0.105	-0.175	-0.07	-0.008296	0.032696	1.011868	-0.8625	5.442	-5.091	0	4	1035	1
2026-02-11	16:28:15.490	-0.07	-0.21	-0.07	-0.012688	0.028304	1.016748	-0.858	5.439	-5.091	0	4	1035	1
2026-02-11	16:28:15.510	-0.035	-0.21	-0.105	-0.010736	0.03294	1.013576	-0.858	5.436	-5.088	0	4	1035	1
2026-02-11	16:28:15.530	-0.07	-0.175	-0.105	-0.012932	0.034648	1.010404	-0.855	5.439	-5.085	0	4	1035	1
2026-02-11	16:28:15.550	-0.07	-0.175	-0.07	-0.013664	0.031476	1.01138	-0.852	5.445	-5.085	0	4	1035	1
2026-02-11	16:28:15.570	0	-0.14	-0.105	-0.011956	0.029524	1.011868	-0.8595	5.4375	-5.088	0	4	1035	1
2026-02-11	16:28:15.590	-0.105	-0.175	-0.07	-0.01098	0.032452	1.012112	-0.8565	5.4435	-5.094	0	4	1035	1
2026-02-11	16:28:15.610	-0.07	-0.175	-0.105	-0.00854	0.032208	1.0126	-0.858	5.439	-5.0835	0	4	1035	1
2026-02-11	16:28:15.630	0	-0.175	-0.105	-0.009028	0.029036	1.010892	-0.8655	5.445	-5.0955	0	4	1035	1
2026-02-11	16:28:15.650	-0.07	-0.175	-0.07	-0.011468	0.030744	1.014064	-0.8505	5.4405	-5.091	0	4	1035	1
2026-02-11	16:28:15.670	-0.07	-0.175	-0.07	-0.0122	0.031476	1.013088	-0.8625	5.445	-5.091	0	4	1035	1
2026-02-11	16:28:15.690	-0.035	-0.175	-0.07	-0.012688	0.033184	1.007476	-0.8595	5.439	-5.0865	0	4	1035	1
2026-02-11	16:28:15.710	-0.07	-0.175	-0.07	-0.010736	0.033672	1.013576	-0.852	5.4405	-5.0985	0	4	1035	1
2026-02-11	16:28:15.730	-0.07	-0.21	-0.14	-0.010736	0.031476	1.010892	-0.861	5.4435	-5.088	0	4	1035	1
2026-02-11	16:28:15.750	-0.035	-0.21	-0.07	-0.0122	0.027328	1.014308	-0.8535	5.442	-5.0895	0	4	1035	1
2026-02-11	16:28:15.770	-0.07	-0.175	-0.07	-0.010492	0.030256	1.012356	-0.858	5.433	-5.094	0	4	1035	1
2026-02-11	16:28:15.790	-0.105	-0.21	-0.105	-0.009516	0.030012	1.016992	-0.8625	5.4405	-5.0895	0	4	1035	1
2026-02-11	16:28:15.810	0	-0.175	-0.07	-0.01098	0.0305	1.011136	-0.858	5.4435	-5.0835	0	4	1035	1
2026-02-11	16:28:15.830	-0.07	-0.175	-0.105	-0.01098	0.030744	1.009916	-0.8565	5.442	-5.088	0	4	1035	1
2026-02-11	16:28:15.850	-0.035	-0.175	-0.105	-0.0122	0.032452	1.01016	-0.876	5.4495	-5.091	0	4	1035	1
2026-02-11	16:28:15.870	-0.105	-0.21	-0.07	-0.010492	0.032696	1.010404	-0.861	5.4405	-5.0895	0	4	1035	1
2026-02-11	16:28:15.890	-0.105	-0.175	-0.07	-0.009516	0.030744	1.011868	-0.8595	5.4465	-5.0865	0	4	1035	1
2026-02-11	16:28:15.910	-0.035	-0.175	-0.105	-0.007076	0.0305	1.012844	-0.864	5.439	-5.091	0	4	1035	1
2026-02-11	16:28:15.930	0	-0.175	-0.105	-0.011224	0.033428	1.011136	-0.864	5.4405	-5.091	0	4	1035	1
2026-02-11	16:28:15.950	-0.105	-0.175	-0.07	-0.013908	0.033672	1.009672	-0.864	5.442	-5.091	0	4	1035	1
2026-02-11	16:28:15.970	-0.07	-0.21	-0.105	-0.00976	0.027816	1.014796	-0.864	5.4435	-5.0925	0	4	1035	1
2026-02-11	16:28:15.990	-0.07	-0.175	-0.07	-0.010736	0.029524	1.011136	-0.8625	5.4465	-5.0895	0	4	1035	1
2026-02-11	16:28:16.010	-0.035	-0.21	-0.07	-0.011956	0.031964	1.011136	-0.8595	5.4435	-5.076	0	4	1035	1
2026-02-11	16:28:16.030	-0.105	-0.14	-0.07	-0.014884	0.030256	1.009672	-0.852	5.4555	-5.07	0	4	1035	1
2026-02-11	16:28:16.050	-0.105	-0.175	-0.105	-0.011956	0.0305	1.006744	-0.846	5.472	-5.076	0	4	1035	1
2026-02-11	16:28:16.070	-0.105	-0.21	-0.105	-0.007564	0.03172	1.014064	-0.8475	5.478	-5.076	0	4	1035	1
2026-02-11	16:28:16.090	-0.035	-0.175	-0.105	-0.010248	0.030988	1.010648	-0.849	5.484	-5.0745	0	4	1035	1
2026-02-11	16:28:16.110	-0.07	-0.175	-0.07	-0.0122	0.034892	1.012112	-0.849	5.484	-5.0745	0	4	1035	1
2026-02-11	16:28:16.130	-0.07	-0.21	-0.07	-0.011224	0.032452	1.012844	-0.867	5.466	-5.0985	0	4	1035	1
2026-02-11	16:28:16.150	-0.105	-0.175	-0.035	-0.008052	0.030012	1.011624	-0.8595	5.4615	-5.097	0	4	1035	1
2026-02-11	16:28:16.170	-0.07	-0.21	-0.105	-0.011712	0.03172	1.010404	-0.8655	5.442	-5.1	0	4	1035	1
2026-02-11	16:28:16.190	-0.035	-0.14	-0.07	-0.014396	0.030012	1.01138	-0.867	5.448	-5.097	0	4	1035	1
2026-02-11	16:28:16.210	-0.035	-0.21	-0.07	-0.012688	0.031476	1.009672	-0.87	5.4525	-5.097	0	3	1035	1
2026-02-11	16:28:16.230	-0.07	-0.175	-0.105	-0.011224	0.031232	1.010892	-0.864	5.445	-5.1	0	3	1035	1
2026-02-11	16:28:16.250	-0.14	-0.175	-0.07	-0.011956	0.030988	1.013332	-0.8625	5.448	-5.0985	0	3	1035	1
2026-02-11	16:28:16.270	0	-0.175	-0.07	-0.01098	0.030988	1.010648	-0.867	5.4525	-5.0925	0	3	1035	1
2026-02-11	16:28:16.290	-0.105	-0.175	-0.07	-0.0122	0.033916	1.01138	-0.873	5.454	-5.0895	0	3	1035	1
2026-02-11	16:28:16.310	-0.035	-0.175	-0.105	-0.010492	0.028548	1.009672	-0.864	5.4465	-5.097	0	3	1035	1
2026-02-11	16:28:16.330	-0.105	-0.175	-0.105	-0.011468	0.030988	1.01016	-0.8625	5.4405	-5.0895	0	3	1035	1
2026-02-11	16:28:16.350	-0.07	-0.175	-0.07	-0.014152	0.030744	1.012356	-0.855	5.4765	-5.073	0	3	1035	1
2026-02-11	16:28:16.370	-0.035	-0.175	-0.105	-0.0122	0.02928	1.011868	-0.8475	5.478	-5.0775	0	3	1035	1
2026-02-11	16:28:16.390	-0.14	-0.175	-0.07	-0.010492	0.029768	1.013576	-0.843	5.472	-5.0805	0	3	1035	1
2026-02-11	16:28:16.410	-0.035	-0.175	-0.07	-0.008052	0.031476	1.007232	-0.8595	5.4615	-5.1045	0	3	1034	1
2026-02-11	16:28:16.430	-0.07	-0.175	-0.105	-0.011712	0.02928	1.0126	-0.8715	5.451	-5.103	0	3	1034	1
2026-02-11	16:28:16.450	-0.07	-0.21	-0.105	-0.01342	0.0305	1.012112	-0.8505	5.4585	-5.1135	0	3	1034	1
2026-02-11	16:28:16.470	-0.105	-0.175	-0.105	-0.01342	0.031476	1.010892	-0.8505	5.4585	-5.1135	0	3	1034	1
2026-02-11	16:28:16.490	-0.07	-0.14	-0.07	-0.00976	0.030988	1.010648	-0.8535	5.4495	-5.103	0	3	1034	1
2026-02-11	16:28:16.510	-0.07	-0.175	-0.105	-0.015128	0.03294	1.013088	-0.8595	5.4405	-5.0925	0	3	1034	1
2026-02-11	16:28:16.530	-0.035	-0.175	-0.07	-0.012444	0.030256	1.00772	-0.867	5.4435	-5.0925	0	3	1034	1
2026-02-11	16:28:16.550	-0.07	-0.175	-0.105	-0.009516	0.03294	1.00894	-0.864	5.4525	-5.0925	0	3	1034	1
2026-02-11	16:28:16.570	-0.07	-0.14	-0.07	-0.0122	0.032452	1.012844	-0.8565	5.4495	-5.0955	0	3	1034	1
2026-02-11	16:28:16.590	-0.035	-0.175	-0.105	-0.011224	0.0305	1.010404	-0.864	5.4435	-5.094	0	3	1034	1
2026-02-11	16:28:16.610	-0.07	-0.175	-0.105	-0.012688	0.0305	1.009916	-0.867	5.4465	-5.0895	0	3	1034	1
2026-02-11	16:28:16.630	-0.07	-0.21	-0.105	-0.012932	0.028792	1.012356	-0.861	5.4435	-5.0895	0	3	1034	1
2026-02-11	16:28:16.650	-0.07	-0.175	-0.105	-0.014152	0.034892	1.008208	-0.8595	5.4405	-5.0925	0	3	1034	1
2026-02-11	16:28:16.670	-0.035	-0.14	-0.105	-0.010736	0.03172	1.01138	-0.87	5.454	-5.091	0	3	1034	1
2026-02-11	16:28:16.690	-0.035	-0.175	-0.105	-0.011468	0.034892	1.009672	-0.864	5.445	-5.094	0	3	1034	1
2026-02-11	16:28:16.710	-0.175	-0.175	-0.105	-0.011712	0.03416	1.0187	-0.8625	5.448	-5.1	0	3	1034	1
2026-02-11	16:28:16.730	-0.035	-0.21	-0.105	-0.008784	0.027816	1.010648	-0.8775	5.448	-5.0955	0	3	1034	1
2026-02-11	16:28:16.750	0.035	-0.175	-0.105	-0.0122	0.03172	1.00894	-0.8685	5.442	-5.0925	0	3	1034	1
2026-02-11	16:28:16.770	-0.14	-0.21	-0.07	-0.011224	0.03538	1.01504	-0.8685	5.439	-5.0955	0	3	1034	1
2026-02-11	16:28:16.790	0	-0.21	-0.105	-0.011712	0.034404	1.009428	-0.8625	5.445	-5.097	0	3	1034	1
2026-02-11	16:28:16.810	-0.105	-0.175	-0.07	-0.015372	0.03172	1.0126	-0.8625	5.4495	-5.0925	0	3	1034	1
2026-02-11	16:28:16.830	-0.14	-0.175	-0.105	-0.01098	0.034404	1.015284	-0.8685	5.4465	-5.0895	0	3	1034	1
2026-02-11	16:28:16.850	-0.07	-0.21	-0.105	-0.0122	0.03294	1.012356	-0.8625	5.439	-5.094	0	3	1034	1
2026-02-11	16:28:16.870	0.035	-0.175	-0.07	-0.01098	0.033916	1.003572	-0.885	5.451	-5.0955	0	3	1034	1
2026-02-11	16:28:16.890	-0.175	-0.175	-0.07	-0.013176	0.03172	1.013576	-0.858	5.445	-5.1	0	3	1034	1
2026-02-11	16:28:16.910	0	-0.21	-0.105	-0.012444	0.030744	1.0126	-0.858	5.439	-5.1	0	3	1034	1
2026-02-11	16:28:16.930	0.035	-0.175	-0.07	-0.010248	0.03294	1.009672	-0.8685	5.448	-5.0985	0	3	1034	1
2026-02-11	16:28:16.950	-0.07	-0.14	-0.105	-0.009272	0.034892	1.00772	-0.8595	5.4555	-5.097	0	3	1034	1
2026-02-11	16:28:16.970	-0.14	-0.175	-0.105	-0.012444	0.02928	1.014796	-0.8385	5.472	-5.0865	0	3	1034	1
2026-02-11	16:28:16.990	-0.035	-0.175	-0.105	-0.0122	0.027572	1.012844	-0.855	5.4705	-5.0865	0	3	1034	1
2026-02-11	16:28:17.010	-0.07	-0.175	-0.105	-0.00854	0.03294	1.008696	-0.8595	5.4795	-5.094	0	3	1034	1
2026-02-11	16:28:17.030	-0.07	-0.175	-0.105	-0.011468	0.032696	1.014064	-0.8625	5.472	-5.0985	0	3	1034	1
2026-02-11	16:28:17.050	-0.035	-0.175	-0.105	-0.013908	0.029768	1.009916	-0.867	5.4615	-5.103	0	3	1034	1
2026-02-11	16:28:17.070	-0.07	-0.175	-0.07	-0.011956	0.031476	1.009672	-0.8655	5.4585	-5.1015	0	3	1034	1
2026-02-11	16:28:17.090	-0.14	-0.175	-0.07	-0.012444	0.033916	1.0126	-0.858	5.4525	-5.097	0	3	1034	1
2026-02-11	16:28:17.110	-0.07	-0.175	-0.07	-0.015372	0.032452	1.01138	-0.861	5.448	-5.0925	0	3	1034	1
2026-02-11	16:28:17.130	-0.07	-0.175	-0.07	-0.00854	0.034404	1.014796	-0.8685	5.4465	-5.0925	0	3	1034	1
2026-02-11	16:28:17.150	-0.105	-0.175	-0.105	-0.01342	0.033916	1.006988	-0.8655	5.448	-5.0955	0	3	1034	1
2026-02-11	16:28:17.170	-0.105	-0.175	-0.105	-0.013176	0.030988	1.012356	-0.8655	5.4495	-5.0925	0	3	1034	1
2026-02-11	16:28:17.190	0	-0.175	-0.14	-0.014152	0.032696	1.009428	-0.8685	5.4495	-5.088	0	3	1034	1
2026-02-11	16:28:17.210	-0.14	-0.175	-0.07	-0.011956	0.03294	1.012844	-0.8685	5.4495	-5.088	0	3	1034	1
2026-02-11	16:28:17.230	-0.14	-0.21	-0.07	-0.011712	0.029768	1.017724	-0.8655	5.448	-5.0985	0	3	1034	1
2026-02-11	16:28:17.250	0.035	-0.21	-0.105	-0.012444	0.031232	1.010404	-0.8715	5.4465	-5.1015	0	3	1034	1
2026-02-11	16:28:17.270	-0.105	-0.14	-0.14	-0.00732	0.031964	1.013576	-0.87	5.4495	-5.1	0	3	1034	1
2026-02-11	16:28:17.290	-0.035	-0.175	-0.105	-0.00732	0.032208	1.012112	-0.867	5.445	-5.0985	0	3	1034	1
2026-02-11	16:28:17.310	-0.105	-0.21	-0.07	-0.010492	0.031232	1.012112	-0.867	5.445	-5.0985	0	3	1034	1
2026-02-11	16:28:17.330	-0.07	-0.175	-0.07	-0.011224	0.02806	1.010648	-0.8625	5.4495	-5.1	0	3	1034	1
2026-02-11	16:28:17.350	-0.035	-0.175	-0.07	-0.011468	0.031232	1.012356	-0.8625	5.4495	-5.1015	0	3	1034	1
2026-02-11	16:28:17.370	0	-0.14	-0.105	-0.011712	0.032208	1.014308	-0.867	5.4495	-5.1015	0	3	1034	1
2026-02-11	16:28:17.390	-0.07	-0.175	-0.105	-0.012444	0.033428	1.009916	-0.8655	5.4465	-5.1015	0	3	1034	1
2026-02-11	16:28:17.410	-0.175	-0.175	-0.07	-0.010248	0.02806	1.014064	-0.867	5.451	-5.103	0	3	1034	1
2026-02-11	16:28:17.430	-0.07	-0.175	-0.105	-0.010248	0.033428	1.011868	-0.8595	5.445	-5.1015	0	3	1034	1
2026-02-11	16:28:17.450	-0.035	-0.175	-0.105	-0.00976	0.031964	1.012112	-0.867	5.4525	-5.103	0	3	1034	1
2026-02-11	16:28:17.470	0	-0.175	-0.07	-0.010004	0.03294	1.008696	-0.8655	5.4525	-5.1015	0	3	1034	1
2026-02-11	16:28:17.490	-0.105	-0.175	-0.07	-0.015372	0.032208	1.01138	-0.8655	5.448	-5.097	0	3	1034	1
2026-02-11	16:28:17.510	-0.035	-0.175	-0.105	-0.009028	0.030256	1.01016	-0.8655	5.454	-5.106	0	3	1034	1
2026-02-11	16:28:17.530	-0.07	-0.175	-0.105	-0.012932	0.033916	1.012356	-0.867	5.448	-5.097	0	3	1034	1
2026-02-11	16:28:17.550	-0.035	-0.21	-0.105	-0.012932	0.030988	1.012112	-0.8685	5.448	-5.0985	0	3	1034	1
2026-02-11	16:28:17.570	-0.07	-0.21	-0.105	-0.012932	0.032452	1.011136	-0.8685	5.448	-5.0985	0	3	1034	1
2026-02-11	16:28:17.590	-0.14	-0.21	-0.07	-0.010736	0.030256	1.01504	-0.8655	5.445	-5.1	0	3	1034	1
2026-02-11	16:28:17.610	-0.07	-0.175	-0.105	-0.008296	0.033184	1.010892	-0.867	5.445	-5.1	0	3	1034	1
2026-02-11	16:28:17.630	-0.07	-0.175	-0.07	-0.011224	0.032208	1.01016	-0.8685	5.448	-5.097	0	3	1034	1
2026-02-11	16:28:17.650	-0.105	-0.14	-0.105	-0.012688	0.03172	1.012112	-0.8655	5.4495	-5.0955	0	3	1034	1
2026-02-11	16:28:17.670	-0.105	-0.14	-0.105	-0.010736	0.03294	1.011136	-0.8715	5.451	-5.1015	0	3	1034	1
2026-02-11	16:28:17.690	-0.07	-0.175	-0.105	-0.013664	0.03172	1.013088	-0.867	5.4675	-5.0985	0	3	1034	1
2026-02-11	16:28:17.710	-0.035	-0.175	-0.07	-0.010248	0.034648	1.01138	-0.8535	5.481	-5.0865	0	3	1034	1
2026-02-11	16:28:17.730	-0.14	-0.21	-0.07	-0.012688	0.028548	1.013332	-0.8535	5.481	-5.0835	0	3	1034	1
2026-02-11	16:28:17.750	-0.07	-0.175	-0.105	-0.008296	0.02806	1.010892	-0.8535	5.4825	-5.085	0	3	1034	1
2026-02-11	16:28:17.770	-0.035	-0.21	-0.105	-0.011468	0.033916	1.011136	-0.861	5.4705	-5.0955	0	3	1034	1
2026-02-11	16:28:17.790	-0.035	-0.21	-0.105	-0.010492	0.030744	1.012844	-0.8715	5.46	-5.1075	0	3	1034	1
2026-02-11	16:28:17.810	-0.07	-0.175	-0.105	-0.01342	0.0305	1.011868	-0.87	5.4645	-5.1105	0	3	1034	1
2026-02-11	16:28:17.830	-0.035	-0.175	-0.07	-0.009028	0.031964	1.011624	-0.867	5.457	-5.109	0	3	1034	1
2026-02-11	16:28:17.850	-0.07	-0.175	-0.105	-0.012444	0.032208	1.012844	-0.8655	5.4435	-5.103	0	3	1034	1
2026-02-11	16:28:17.870	-0.07	-0.175	-0.105	-0.01098	0.031964	1.012844	-0.8655	5.442	-5.1	0	3	1034	1
2026-02-11	16:28:17.890	-0.07	-0.175	-0.07	-0.011468	0.034404	1.010892	-0.867	5.448	-5.0955	0	3	1034	1
2026-02-11	16:28:17.910	0	-0.175	-0.105	-0.007808	0.030256	1.01138	-0.864	5.448	-5.094	0	3	1034	1
2026-02-11	16:28:17.930	-0.07	-0.21	-0.07	-0.011224	0.031964	1.010404	-0.8595	5.4435	-5.097	0	3	1034	1
2026-02-11	16:28:17.950	-0.07	-0.21	-0.105	-0.015372	0.031476	1.009428	-0.8595	5.4435	-5.097	0	3	1034	1
2026-02-11	16:28:17.970	-0.105	-0.21	-0.105	-0.012688	0.031964	1.01138	-0.8715	5.4495	-5.097	0	3	1034	1
2026-02-11	16:28:17.990	-0.035	-0.175	-0.07	-0.007808	0.029524	1.009184	-0.8715	5.4435	-5.0985	0	3	1034	1
2026-02-11	16:28:18.010	-0.035	-0.21	-0.105	-0.011956	0.03172	1.013332	-0.867	5.4495	-5.094	0	3	1034	1
2026-02-11	16:28:18.030	-0.035	-0.175	-0.105	-0.011468	0.029524	1.01138	-0.873	5.457	-5.097	0	3	1034	1
2026-02-11	16:28:18.050	-0.035	-0.175	-0.07	-0.011468	0.031964	1.011624	-0.8715	5.448	-5.0955	0	3	1034	1
2026-02-11	16:28:18.070	-0.07	-0.14	-0.105	-0.01098	0.031964	1.014064	-0.873	5.448	-5.0925	0	3	1034	1
2026-02-11	16:28:18.090	-0.035	-0.175	-0.07	-0.012444	0.03294	1.009428	-0.8685	5.4555	-5.094	0	3	1034	1
2026-02-11	16:28:18.110	-0.035	-0.21	-0.105	-0.012688	0.034648	1.009672	-0.876	5.4495	-5.094	0	3	1034	1
2026-02-11	16:28:18.130	-0.07	-0.175	-0.105	-0.011224	0.032208	1.011136	-0.873	5.448	-5.094	0	3	1034	1
2026-02-11	16:28:18.150	-0.07	-0.175	-0.105	-0.011224	0.030744	1.011868	-0.876	5.448	-5.0955	0	3	1034	1
2026-02-11	16:28:18.170	-0.07	-0.175	-0.105	-0.011224	0.02806	1.009428	-0.8745	5.4525	-5.0985	0	3	1034	1
2026-02-11	16:28:18.190	-0.105	-0.175	-0.105	-0.014884	0.032696	1.010404	-0.8655	5.4525	-5.0955	0	3	1034	1
2026-02-11	16:28:18.210	-0.07	-0.14	-0.07	-0.009028	0.030744	1.009672	-0.867	5.454	-5.0985	0	3	1034	1
2026-02-11	16:28:18.230	-0.07	-0.21	-0.07	-0.010492	0.028792	1.0126	-0.8745	5.4555	-5.106	0	3	1034	1
2026-02-11	16:28:18.250	-0.07	-0.175	-0.07	-0.014884	0.033428	1.01138	-0.8685	5.451	-5.103	0	3	1034	1
2026-02-11	16:28:18.270	-0.07	-0.14	-0.07	-0.011712	0.032208	1.009672	-0.861	5.4495	-5.1	0	3	1034	1
2026-02-11	16:28:18.290	-0.07	-0.14	-0.105	-0.013908	0.030256	1.012356	-0.876	5.4525	-5.0985	0	3	1034	1
2026-02-11	16:28:18.310	-0.035	-0.175	-0.105	-0.01342	0.031476	1.008452	-0.8685	5.4525	-5.0985	0	3	1034	1
2026-02-11	16:28:18.330	-0.035	-0.175	-0.105	-0.011712	0.033916	1.012356	-0.8655	5.448	-5.1	0	3	1034	1
2026-02-11	16:28:18.350	-0.105	-0.21	-0.105	-0.011224	0.029524	1.0126	-0.87	5.448	-5.097	0	3	1034	1
2026-02-11	16:28:18.370	-0.07	-0.175	-0.105	-0.013176	0.029524	1.013088	-0.873	5.451	-5.0985	0	3	1034	1
2026-02-11	16:28:18.390	0	-0.175	-0.105	-0.01098	0.029768	1.00772	-0.867	5.448	-5.097	0	3	1034	1
2026-02-11	16:28:18.410	-0.07	-0.175	-0.105	-0.013908	0.034404	1.011624	-0.861	5.4435	-5.094	0	3	1034	1
2026-02-11	16:28:18.430	-0.105	-0.175	-0.07	-0.011468	0.029768	1.010404	-0.867	5.4435	-5.0955	0	3	1034	1
2026-02-11	16:28:18.450	-0.105	-0.21	-0.07	-0.011224	0.029768	1.01138	-0.8685	5.4465	-5.097	0	3	1034	1
2026-02-11	16:28:18.470	-0.105	-0.175	-0.105	-0.006832	0.031232	1.011624	-0.8595	5.4495	-5.097	0	3	1034	1
2026-02-11	16:28:18.490	-0.035	-0.175	-0.105	-0.009272	0.032208	1.011624	-0.8595	5.451	-5.097	0	3	1034	1
2026-02-11	16:28:18.510	-0.105	-0.14	-0.105	-0.011712	0.031964	1.009428	-0.864	5.4525	-5.094	0	3	1034	1
2026-02-11	16:28:18.530	-0.105	-0.175	-0.07	-0.015372	0.033184	1.009428	-0.8625	5.442	-5.094	0	3	1034	1
2026-02-11	16:28:18.550	-0.035	-0.21	-0.105	-0.009516	0.030012	1.007964	-0.87	5.4435	-5.0985	0	3	1034	1
2026-02-11	16:28:18.570	-0.07	-0.21	-0.105	-0.010248	0.032452	1.00894	-0.8715	5.4435	-5.0955	0	3	1034	1
2026-02-11	16:28:18.590	-0.07	-0.175	-0.105	-0.010492	0.03416	1.012112	-0.867	5.457	-5.1	0	3	1034	1
2026-02-11	16:28:18.610	-0.105	-0.21	-0.105	-0.011224	0.029768	1.011624	-0.864	5.454	-5.0955	0	3	1034	1
2026-02-11	16:28:18.630	-0.035	-0.175	-0.07	-0.011956	0.035136	1.011624	-0.8655	5.4495	-5.088	0	3	1034	1
2026-02-11	16:28:18.650	-0.035	-0.175	-0.105	-0.011224	0.033184	1.010648	-0.861	5.445	-5.0925	0	3	1034	1
2026-02-11	16:28:18.670	-0.07	-0.175	-0.105	-0.012688	0.030012	1.0126	-0.861	5.445	-5.0925	0	3	1034	1
2026-02-11	16:28:18.690	-0.14	-0.21	-0.105	-0.01098	0.029768	1.01138	-0.8625	5.448	-5.097	0	3	1034	1
2026-02-11	16:28:18.710	-0.14	-0.21	-0.07	-0.013176	0.030988	1.0126	-0.87	5.4435	-5.103	0	3	1034	1
2026-02-11	16:28:18.730	-0.035	-0.175	-0.14	-0.013664	0.030256	1.014552	-0.87	5.439	-5.0985	0	3	1034	1
2026-02-11	16:28:18.750	-0.035	-0.175	-0.105	-0.011224	0.033916	1.006744	-0.864	5.4435	-5.094	0	3	1034	1
2026-02-11	16:28:18.770	-0.07	-0.21	-0.07	-0.010248	0.030012	1.00894	-0.8625	5.448	-5.094	0	3	1034	1
2026-02-11	16:28:18.790	-0.105	-0.175	-0.07	-0.01098	0.031476	1.012112	-0.8685	5.442	-5.0955	0	3	1034	1
