yyyy-MM-dd	HH:mm:ss.fff	gyrX	gyrY	gyrZ	accX	accY	accZ	magX	magY	magZ	Marker	Energy	Angle	Classification
2026-02-12	16:02:08.810	-5.915	17.01	-15.435	0.891332	-0.6161	0.137128	0.1875	0.8685	-0.201	0	32	122	2
2026-02-12	16:02:08.830	-7.42	18.97	-16.345	0.89304	-0.598288	0.139568	0.1815	0.87	-0.1995	0	32	122	2
2026-02-12	16:02:08.850	-11.305	21.735	-16.835	0.869128	-0.595116	0.148352	0.1815	0.8715	-0.2025	0	32	122	2
2026-02-12	16:02:08.870	-13.545	23.765	-15.75	0.848876	-0.609512	0.162992	0.1875	0.8625	-0.1995	0	32	122	2
2026-02-12	16:02:08.890	-14.07	25.585	-13.93	0.83936	-0.621956	0.17934	0.183	0.8625	-0.2055	0	32	122	2
2026-02-12	16:02:08.910	-13.79	27.825	-12.425	0.831308	-0.638792	0.18666	0.1845	0.864	-0.207	0	32	122	2
2026-02-12	16:02:08.930	-14	30.205	-10.92	0.80032	-0.622932	0.190808	0.1815	0.858	-0.2025	0	32	122	2
2026-02-12	16:02:08.950	-16.87	32.55	-9.905	0.74664	-0.608048	0.172264	0.186	0.8595	-0.216	0	32	122	2
2026-02-12	16:02:08.970	-22.12	33.915	-8.855	0.693204	-0.589748	0.168116	0.1815	0.864	-0.207	0	32	122	2
2026-02-12	16:02:08.990	-30.03	34.125	-7.28	0.654164	-0.591456	0.178364	0.186	0.8655	-0.2175	0	32	122	2
2026-02-12	16:02:09.010	-37.905	34.3	-4.9	0.621468	-0.650748	0.205692	0.1965	0.87	-0.2055	0	32	125	3
2026-02-12	16:02:09.030	-36.19	34.02	-1.75	0.602192	-0.695156	0.209352	0.1935	0.867	-0.213	0	32	125	3
2026-02-12	16:02:09.050	-28.035	32.935	2.24	0.60634	-0.666608	0.222772	0.204	0.8715	-0.2115	0	32	125	3
2026-02-12	16:02:09.070	-27.265	31.185	5.565	0.616344	-0.630984	0.2501	0.204	0.8715	-0.2115	0	32	125	3
2026-02-12	16:02:09.090	-30.135	28.63	7.42	0.635376	-0.612928	0.241072	0.207	0.867	-0.204	0	32	125	3
2026-02-12	16:02:09.110	-33.32	26.005	8.365	0.653432	-0.592676	0.23912	0.1995	0.8835	-0.2085	0	32	125	3
2026-02-12	16:02:09.130	-37.52	23.275	8.54	0.673684	-0.57828	0.231312	0.21	0.888	-0.2085	0	32	125	3
2026-02-12	16:02:09.150	-39.27	19.915	7.315	0.675392	-0.562664	0.206668	0.2115	0.8835	-0.2085	0	32	125	3
2026-02-12	16:02:09.170	-41.265	15.575	4.655	0.666852	-0.539972	0.205448	0.2145	0.891	-0.2025	0	32	125	3
2026-02-12	16:02:09.190	-44.485	11.2	1.925	0.666364	-0.5368	0.232044	0.2235	0.894	-0.198	0	32	125	3
2026-02-12	16:02:09.210	-47.18	7.945	-0.245	0.692228	-0.5612	0.26596	0.219	0.8985	-0.1905	0	35	138	3
2026-02-12	16:02:09.230	-49.245	5.985	-1.89	0.722972	-0.583892	0.27084	0.216	0.903	-0.1905	0	35	138	3
2026-02-12	16:02:09.250	-50.505	4.9	-3.22	0.760548	-0.619272	0.247416	0.222	0.9135	-0.1785	0	35	138	3
2026-02-12	16:02:09.270	-44.31	3.255	-6.125	0.809348	-0.55754	0.208376	0.222	0.909	-0.18	0	35	138	3
2026-02-12	16:02:09.290	-33.285	2.59	-9.66	0.855708	-0.518988	0.185928	0.222	0.909	-0.18	0	35	138	3
2026-02-12	16:02:09.310	-18.97	4.62	-13.055	0.8784	-0.537288	0.220576	0.219	0.9195	-0.171	0	35	138	3
2026-02-12	16:02:09.330	-7.63	6.475	-17.605	0.93452	-0.68076	0.242292	0.2175	0.9105	-0.1605	0	35	138	3
2026-02-12	16:02:09.350	2.345	7.07	-17.885	1.010648	-0.772504	0.206668	0.21	0.918	-0.1635	0	35	138	3
2026-02-12	16:02:09.370	26.285	8.61	-20.37	1.021628	-0.701012	0.096624	0.21	0.918	-0.168	0	35	138	3
2026-02-12	16:02:09.390	19.81	4.06	-19.005	0.985272	-0.645136	0.031232	0.21	0.9165	-0.162	0	35	138	3
2026-02-12	16:02:09.410	11.165	1.785	-13.755	0.833016	-0.608536	0.058804	0.201	0.912	-0.168	0	42	156	3
2026-02-12	16:02:09.430	13.44	1.4	-9.31	0.742492	-0.604144	0.160308	0.2055	0.903	-0.183	0	42	156	3
2026-02-12	16:02:09.450	12.25	3.325	-3.745	0.65392	-0.584136	0.19764	0.204	0.909	-0.18	0	42	156	3
2026-02-12	16:02:09.470	1.33	7	1.05	0.600972	-0.561932	0.192516	0.201	0.9	-0.174	0	42	156	3
2026-02-12	16:02:09.490	-23.065	10.43	3.29	0.61122	-0.705892	0.110288	0.201	0.9	-0.174	0	42	156	3
2026-02-12	16:02:09.510	-29.085	11.025	4.235	0.685152	-0.797636	0.08662	0.201	0.9	-0.174	0	42	156	3
2026-02-12	16:02:09.530	-32.9	12.18	4.13	0.763964	-0.77836	0.139324	0.2175	0.906	-0.168	0	42	156	3
2026-02-12	16:02:09.550	-42.49	14.735	4.83	0.821548	-0.736392	0.136396	0.1995	0.9045	-0.171	0	42	156	3
2026-02-12	16:02:09.570	-53.865	19.53	6.93	0.837164	-0.73688	0.09516	0.207	0.9	-0.1695	0	42	156	3
2026-02-12	16:02:09.590	-52.99	24.01	9.905	0.792024	-0.73688	0.099552	0.207	0.912	-0.1725	0	42	156	3
2026-02-12	16:02:09.610	-44.975	25.62	11.795	0.722728	-0.645868	0.125904	0.21	0.9195	-0.1605	0	52	163	3
2026-02-12	16:02:09.630	-45.115	24.955	12.985	0.666852	-0.61122	0.139812	0.2235	0.9195	-0.162	0	52	163	3
2026-02-12	16:02:09.650	-48.72	22.925	13.125	0.65636	-0.6527	0.144936	0.231	0.921	-0.147	0	52	163	3
2026-02-12	16:02:09.670	-48.02	21.105	13.195	0.6649	-0.709552	0.13786	0.2265	0.939	-0.1425	0	52	163	3
2026-02-12	16:02:09.690	-39.41	19.075	13.055	0.690276	-0.743712	0.124928	0.2295	0.9345	-0.1455	0	52	163	3
2026-02-12	16:02:09.710	-28.945	17.43	13.09	0.694912	-0.751764	0.105896	0.234	0.93	-0.1485	0	52	163	3
2026-02-12	16:02:09.730	-22.61	15.75	12.74	0.70272	-0.727852	0.10004	0.2355	0.939	-0.1335	0	52	163	3
2026-02-12	16:02:09.750	-19.53	13.825	11.83	0.70516	-0.71614	0.091744	0.2475	0.9495	-0.1365	0	52	163	3
2026-02-12	16:02:09.770	-16.8	11.585	10.815	0.710528	-0.692716	0.092964	0.2565	0.9405	-0.132	0	52	163	3
2026-02-12	16:02:09.790	-15.155	9.38	9.975	0.712236	-0.700524	0.094428	0.246	0.9525	-0.1245	0	52	163	3
2026-02-12	16:02:07.810	-1.645	1.505	-0.98	0.741028	-0.676856	0.122488	0.1965	0.876	-0.183	0	62	122	2
2026-02-12	16:02:07.830	-1.47	1.47	-0.91	0.738832	-0.671488	0.122244	0.1905	0.8805	-0.195	0	62	122	2
2026-02-12	16:02:07.850	-1.435	1.47	-0.945	0.741272	-0.669292	0.119804	0.1815	0.8775	-0.192	0	62	122	2
2026-02-12	16:02:07.870	-1.4	1.47	-0.945	0.738832	-0.678564	0.124928	0.183	0.8835	-0.1935	0	62	122	2
2026-02-12	16:02:07.890	-1.05	1.26	-0.98	0.738344	-0.674416	0.121512	0.195	0.873	-0.189	0	62	122	2
2026-02-12	16:02:07.910	-0.945	1.085	-1.015	0.738832	-0.672464	0.121024	0.1905	0.8835	-0.189	0	62	122	2
2026-02-12	16:02:07.930	-0.77	0.91	-1.12	0.736392	-0.67466	0.122732	0.189	0.8745	-0.192	0	62	122	2
2026-02-12	16:02:07.950	-0.315	0.7	-1.05	0.733952	-0.674416	0.126392	0.189	0.885	-0.186	0	62	122	2
2026-02-12	16:02:07.970	0.07	0.49	-1.085	0.73688	-0.671976	0.125416	0.186	0.8745	-0.189	0	62	122	2
2026-02-12	16:02:07.990	0.105	0.175	-1.155	0.73932	-0.670024	0.12322	0.1875	0.882	-0.192	0	62	122	2
2026-02-12	16:02:08.010	0.35	-0.07	-1.05	0.740052	-0.673684	0.12688	0.1905	0.8805	-0.1935	0	54	123	2
2026-02-12	16:02:08.030	0.595	-0.315	-0.84	0.734684	-0.667584	0.120048	0.1875	0.8835	-0.186	0	54	123	2
2026-02-12	16:02:08.050	0.595	-0.525	-0.7	0.740784	-0.674172	0.122	0.183	0.876	-0.198	0	54	123	2
2026-02-12	16:02:08.070	0.98	-0.735	-0.7	0.739808	-0.679052	0.125416	0.186	0.8835	-0.189	0	54	123	2
2026-02-12	16:02:08.090	1.365	-0.84	-0.98	0.743956	-0.67466	0.119316	0.183	0.879	-0.192	0	54	123	2
2026-02-12	16:02:08.110	1.33	-0.875	-1.225	0.746152	-0.671244	0.122244	0.1875	0.8745	-0.198	0	54	123	2
2026-02-12	16:02:08.130	1.4	-0.875	-1.225	0.744444	-0.66978	0.126392	0.183	0.879	-0.189	0	54	123	2
2026-02-12	16:02:08.150	1.61	-0.77	-1.155	0.73932	-0.656848	0.127856	0.186	0.8775	-0.1965	0	54	123	2
2026-02-12	16:02:08.170	1.33	-0.84	-1.12	0.74298	-0.66368	0.130296	0.1875	0.8715	-0.192	0	54	123	2
2026-02-12	16:02:08.190	1.085	-1.05	-1.05	0.73566	-0.669292	0.127124	0.192	0.8805	-0.201	0	54	123	2
2026-02-12	16:02:08.210	1.295	-1.26	-0.91	0.743468	-0.669292	0.127612	0.183	0.8835	-0.1905	0	46	123	2
2026-02-12	16:02:08.230	1.505	-1.26	-0.805	0.74054	-0.670268	0.125416	0.186	0.879	-0.186	0	46	123	2
2026-02-12	16:02:08.250	1.505	-1.19	-0.735	0.751032	-0.669048	0.12566	0.195	0.879	-0.186	0	46	123	2
2026-02-12	16:02:08.270	1.54	-0.84	-0.56	0.747616	-0.669292	0.12566	0.2025	0.8745	-0.1965	0	46	123	2
2026-02-12	16:02:08.290	1.33	-0.525	-0.35	0.744444	-0.665388	0.122488	0.1785	0.882	-0.201	0	46	123	2
2026-02-12	16:02:08.310	0.805	-0.315	-0.21	0.746152	-0.667096	0.12078	0.1755	0.87	-0.186	0	46	123	2
2026-02-12	16:02:08.330	0.49	-0.14	-0.14	0.74298	-0.670024	0.12322	0.183	0.882	-0.1905	0	46	123	2
2026-02-12	16:02:08.350	0.455	-0.035	-0.07	0.745176	-0.675636	0.124196	0.183	0.8805	-0.1995	0	46	123	2
2026-02-12	16:02:08.370	0.665	0	-0.07	0.741516	-0.668804	0.129076	0.1845	0.873	-0.1935	0	46	123	2
2026-02-12	16:02:08.390	0.735	0.07	-0.035	0.743956	-0.659776	0.127124	0.177	0.876	-0.1875	0	46	123	2
2026-02-12	16:02:08.410	0.525	0.07	-0.035	0.748836	-0.662704	0.126636	0.186	0.879	-0.192	0	40	124	2
2026-02-12	16:02:08.430	0.665	0	0	0.748592	-0.663924	0.125416	0.186	0.8775	-0.1935	0	40	124	2
2026-02-12	16:02:08.450	0.7	-0.035	-0.035	0.748592	-0.662948	0.12322	0.1815	0.882	-0.192	0	40	124	2
2026-02-12	16:02:08.470	0.63	0	-0.14	0.747372	-0.663924	0.119316	0.186	0.879	-0.1905	0	40	124	2
2026-02-12	16:02:08.490	0.735	0.035	-0.28	0.74908	-0.66246	0.117852	0.1935	0.8715	-0.1905	0	40	124	2
2026-02-12	16:02:08.510	0.63	0.14	-0.28	0.758352	-0.666364	0.117852	0.183	0.8775	-0.195	0	40	124	2
2026-02-12	16:02:08.530	0.84	0.315	-0.175	0.771284	-0.66856	0.114436	0.189	0.8775	-0.192	0	40	124	2
2026-02-12	16:02:08.550	1.26	0.84	-0.21	0.78446	-0.67466	0.110044	0.189	0.873	-0.186	0	40	124	2
2026-02-12	16:02:08.570	1.61	1.47	-0.42	0.793488	-0.659288	0.10614	0.192	0.873	-0.198	0	40	124	2
2026-02-12	16:02:08.590	1.715	2.065	-1.225	0.79178	-0.643184	0.105652	0.195	0.876	-0.1905	0	40	124	2
2026-02-12	16:02:08.610	1.12	2.695	-2.66	0.797636	-0.620248	0.10492	0.186	0.8775	-0.1965	0	35	123	2
2026-02-12	16:02:08.630	-0.98	4.2	-4.48	0.802028	-0.615124	0.105652	0.186	0.8715	-0.192	0	35	123	2
2026-02-12	16:02:08.650	-2.485	6.335	-5.74	0.81374	-0.613416	0.107604	0.186	0.8715	-0.192	0	35	123	2
2026-02-12	16:02:08.670	-2.695	8.12	-7	0.807396	-0.601216	0.101748	0.1905	0.8745	-0.195	0	35	123	2
2026-02-12	16:02:08.690	-3.57	9.52	-8.82	0.808372	-0.585844	0.1037	0.192	0.8745	-0.189	0	35	123	2
2026-02-12	16:02:08.710	-4.515	10.605	-10.885	0.808616	-0.587552	0.104676	0.1815	0.8715	-0.195	0	35	123	2
2026-02-12	16:02:08.730	-5.355	11.62	-12.705	0.81374	-0.590724	0.106872	0.1875	0.8685	-0.2025	0	35	123	2
2026-02-12	16:02:08.750	-6.055	12.6	-13.965	0.830332	-0.603656	0.114924	0.1785	0.876	-0.1995	0	35	123	2
2026-02-12	16:02:08.770	-6.44	13.825	-14.595	0.859612	-0.626836	0.130296	0.1785	0.8715	-0.195	0	35	123	2
2026-02-12	16:02:08.790	-5.985	15.225	-14.875	0.884744	-0.636596	0.135664	0.18	0.87	-0.198	0	35	123	2
2026-02-12	16:02:08.810	-5.915	17.01	-15.435	0.891332	-0.6161	0.137128	0.1875	0.8685	-0.201	0	32	122	2
2026-02-12	16:02:08.830	-7.42	18.97	-16.345	0.89304	-0.598288	0.139568	0.1815	0.87	-0.1995	0	32	122	2
2026-02-12	16:02:08.850	-11.305	21.735	-16.835	0.869128	-0.595116	0.148352	0.1815	0.8715	-0.2025	0	32	122	2
2026-02-12	16:02:08.870	-13.545	23.765	-15.75	0.848876	-0.609512	0.162992	0.1875	0.8625	-0.1995	0	32	122	2
2026-02-12	16:02:08.890	-14.07	25.585	-13.93	0.83936	-0.621956	0.17934	0.183	0.8625	-0.2055	0	32	122	2
2026-02-12	16:02:08.910	-13.79	27.825	-12.425	0.831308	-0.638792	0.18666	0.1845	0.864	-0.207	0	32	122	2
2026-02-12	16:02:08.930	-14	30.205	-10.92	0.80032	-0.622932	0.190808	0.1815	0.858	-0.2025	0	32	122	2
2026-02-12	16:02:08.950	-16.87	32.55	-9.905	0.74664	-0.608048	0.172264	0.186	0.8595	-0.216	0	32	122	2
2026-02-12	16:02:08.970	-22.12	33.915	-8.855	0.693204	-0.589748	0.168116	0.1815	0.864	-0.207	0	32	122	2
2026-02-12	16:02:08.990	-30.03	34.125	-7.28	0.654164	-0.591456	0.178364	0.186	0.8655	-0.2175	0	32	122	2
2026-02-12	16:02:09.010	-37.905	34.3	-4.9	0.621468	-0.650748	0.205692	0.1965	0.87	-0.2055	0	32	125	3
2026-02-12	16:02:09.030	-36.19	34.02	-1.75	0.602192	-0.695156	0.209352	0.1935	0.867	-0.213	0	32	125	3
2026-02-12	16:02:09.050	-28.035	32.935	2.24	0.60634	-0.666608	0.222772	0.204	0.8715	-0.2115	0	32	125	3
2026-02-12	16:02:09.070	-27.265	31.185	5.565	0.616344	-0.630984	0.2501	0.204	0.8715	-0.2115	0	32	125	3
2026-02-12	16:02:09.090	-30.135	28.63	7.42	0.635376	-0.612928	0.241072	0.207	0.867	-0.204	0	32	125	3
2026-02-12	16:02:09.110	-33.32	26.005	8.365	0.653432	-0.592676	0.23912	0.1995	0.8835	-0.2085	0	32	125	3
2026-02-12	16:02:09.130	-37.52	23.275	8.54	0.673684	-0.57828	0.231312	0.21	0.888	-0.2085	0	32	125	3
2026-02-12	16:02:09.150	-39.27	19.915	7.315	0.675392	-0.562664	0.206668	0.2115	0.8835	-0.2085	0	32	125	3
2026-02-12	16:02:09.170	-41.265	15.575	4.655	0.666852	-0.539972	0.205448	0.2145	0.891	-0.2025	0	32	125	3
2026-02-12	16:02:09.190	-44.485	11.2	1.925	0.666364	-0.5368	0.232044	0.2235	0.894	-0.198	0	32	125	3
2026-02-12	16:02:09.210	-47.18	7.945	-0.245	0.692228	-0.5612	0.26596	0.219	0.8985	-0.1905	0	35	138	3
2026-02-12	16:02:09.230	-49.245	5.985	-1.89	0.722972	-0.583892	0.27084	0.216	0.903	-0.1905	0	35	138	3
2026-02-12	16:02:09.250	-50.505	4.9	-3.22	0.760548	-0.619272	0.247416	0.222	0.9135	-0.1785	0	35	138	3
2026-02-12	16:02:09.270	-44.31	3.255	-6.125	0.809348	-0.55754	0.208376	0.222	0.909	-0.18	0	35	138	3
2026-02-12	16:02:09.290	-33.285	2.59	-9.66	0.855708	-0.518988	0.185928	0.222	0.909	-0.18	0	35	138	3
2026-02-12	16:02:09.310	-18.97	4.62	-13.055	0.8784	-0.537288	0.220576	0.219	0.9195	-0.171	0	35	138	3
2026-02-12	16:02:09.330	-7.63	6.475	-17.605	0.93452	-0.68076	0.242292	0.2175	0.9105	-0.1605	0	35	138	3
2026-02-12	16:02:09.350	2.345	7.07	-17.885	1.010648	-0.772504	0.206668	0.21	0.918	-0.1635	0	35	138	3
2026-02-12	16:02:09.370	26.285	8.61	-20.37	1.021628	-0.701012	0.096624	0.21	0.918	-0.168	0	35	138	3
2026-02-12	16:02:09.390	19.81	4.06	-19.005	0.985272	-0.645136	0.031232	0.21	0.9165	-0.162	0	35	138	3
2026-02-12	16:02:09.410	11.165	1.785	-13.755	0.833016	-0.608536	0.058804	0.201	0.912	-0.168	0	42	156	3
2026-02-12	16:02:09.430	13.44	1.4	-9.31	0.742492	-0.604144	0.160308	0.2055	0.903	-0.183	0	42	156	3
2026-02-12	16:02:09.450	12.25	3.325	-3.745	0.65392	-0.584136	0.19764	0.204	0.909	-0.18	0	42	156	3
2026-02-12	16:02:09.470	1.33	7	1.05	0.600972	-0.561932	0.192516	0.201	0.9	-0.174	0	42	156	3
2026-02-12	16:02:09.490	-23.065	10.43	3.29	0.61122	-0.705892	0.110288	0.201	0.9	-0.174	0	42	156	3
2026-02-12	16:02:09.510	-29.085	11.025	4.235	0.685152	-0.797636	0.08662	0.201	0.9	-0.174	0	42	156	3
2026-02-12	16:02:09.530	-32.9	12.18	4.13	0.763964	-0.77836	0.139324	0.2175	0.906	-0.168	0	42	156	3
2026-02-12	16:02:09.550	-42.49	14.735	4.83	0.821548	-0.736392	0.136396	0.1995	0.9045	-0.171	0	42	156	3
2026-02-12	16:02:09.570	-53.865	19.53	6.93	0.837164	-0.73688	0.09516	0.207	0.9	-0.1695	0	42	156	3
2026-02-12	16:02:09.590	-52.99	24.01	9.905	0.792024	-0.73688	0.099552	0.207	0.912	-0.1725	0	42	156	3
2026-02-12	16:02:09.610	-44.975	25.62	11.795	0.722728	-0.645868	0.125904	0.21	0.9195	-0.1605	0	52	163	3
2026-02-12	16:02:09.630	-45.115	24.955	12.985	0.666852	-0.61122	0.139812	0.2235	0.9195	-0.162	0	52	163	3
2026-02-12	16:02:09.650	-48.72	22.925	13.125	0.65636	-0.6527	0.144936	0.231	0.921	-0.147	0	52	163	3
2026-02-12	16:02:09.670	-48.02	21.105	13.195	0.6649	-0.709552	0.13786	0.2265	0.939	-0.1425	0	52	163	3
2026-02-12	16:02:09.690	-39.41	19.075	13.055	0.690276	-0.743712	0.124928	0.2295	0.9345	-0.1455	0	52	163	3
2026-02-12	16:02:09.710	-28.945	17.43	13.09	0.694912	-0.751764	0.105896	0.234	0.93	-0.1485	0	52	163	3
2026-02-12	16:02:09.730	-22.61	15.75	12.74	0.70272	-0.727852	0.10004	0.2355	0.939	-0.1335	0	52	163	3
2026-02-12	16:02:09.750	-19.53	13.825	11.83	0.70516	-0.71614	0.091744	0.2475	0.9495	-0.1365	0	52	163	3
2026-02-12	16:02:09.770	-16.8	11.585	10.815	0.710528	-0.692716	0.092964	0.2565	0.9405	-0.132	0	52	163	3
2026-02-12	16:02:09.790	-15.155	9.38	9.975	0.712236	-0.700524	0.094428	0.246	0.9525	-0.1245	0	52	163	3
2026-02-12	16:02:07.810	-1.645	1.505	-0.98	0.741028	-0.676856	0.122488	0.1965	0.876	-0.183	0	62	122	2
2026-02-12	16:02:07.830	-1.47	1.47	-0.91	0.738832	-0.671488	0.122244	0.1905	0.8805	-0.195	0	62	122	2
2026-02-12	16:02:07.850	-1.435	1.47	-0.945	0.741272	-0.669292	0.119804	0.1815	0.8775	-0.192	0	62	122	2
2026-02-12	16:02:07.870	-1.4	1.47	-0.945	0.738832	-0.678564	0.124928	0.183	0.8835	-0.1935	0	62	122	2
2026-02-12	16:02:07.890	-1.05	1.26	-0.98	0.738344	-0.674416	0.121512	0.195	0.873	-0.189	0	62	122	2
2026-02-12	16:02:07.910	-0.945	1.085	-1.015	0.738832	-0.672464	0.121024	0.1905	0.8835	-0.189	0	62	122	2
2026-02-12	16:02:07.930	-0.77	0.91	-1.12	0.736392	-0.67466	0.122732	0.189	0.8745	-0.192	0	62	122	2
2026-02-12	16:02:07.950	-0.315	0.7	-1.05	0.733952	-0.674416	0.126392	0.189	0.885	-0.186	0	62	122	2
2026-02-12	16:02:07.970	0.07	0.49	-1.085	0.73688	-0.671976	0.125416	0.186	0.8745	-0.189	0	62	122	2
2026-02-12	16:02:07.990	0.105	0.175	-1.155	0.73932	-0.670024	0.12322	0.1875	0.882	-0.192	0	62	122	2
2026-02-12	16:02:08.010	0.35	-0.07	-1.05	0.740052	-0.673684	0.12688	0.1905	0.8805	-0.1935	0	54	123	2
2026-02-12	16:02:08.030	0.595	-0.315	-0.84	0.734684	-0.667584	0.120048	0.1875	0.8835	-0.186	0	54	123	2
2026-02-12	16:02:08.050	0.595	-0.525	-0.7	0.740784	-0.674172	0.122	0.183	0.876	-0.198	0	54	123	2
2026-02-12	16:02:08.070	0.98	-0.735	-0.7	0.739808	-0.679052	0.125416	0.186	0.8835	-0.189	0	54	123	2
2026-02-12	16:02:08.090	1.365	-0.84	-0.98	0.743956	-0.67466	0.119316	0.183	0.879	-0.192	0	54	123	2
2026-02-12	16:02:08.110	1.33	-0.875	-1.225	0.746152	-0.671244	0.122244	0.1875	0.8745	-0.198	0	54	123	2
2026-02-12	16:02:08.130	1.4	-0.875	-1.225	0.744444	-0.66978	0.126392	0.183	0.879	-0.189	0	54	123	2
2026-02-12	16:02:08.150	1.61	-0.77	-1.155	0.73932	-0.656848	0.127856	0.186	0.8775	-0.1965	0	54	123	2
2026-02-12	16:02:08.170	1.33	-0.84	-1.12	0.74298	-0.66368	0.130296	0.1875	0.8715	-0.192	0	54	123	2
2026-02-12	16:02:08.190	1.085	-1.05	-1.05	0.73566	-0.669292	0.127124	0.192	0.8805	-0.201	0	54	123	2
2026-02-12	16:02:08.210	1.295	-1.26	-0.91	0.743468	-0.669292	0.127612	0.183	0.8835	-0.1905	0	46	123	2
2026-02-12	16:02:08.230	1.505	-1.26	-0.805	0.74054	-0.670268	0.125416	0.186	0.879	-0.186	0	46	123	2
2026-02-12	16:02:08.250	1.505	-1.19	-0.735	0.751032	-0.669048	0.12566	0.195	0.879	-0.186	0	46	123	2
2026-02-12	16:02:08.270	1.54	-0.84	-0.56	0.747616	-0.669292	0.12566	0.2025	0.8745	-0.1965	0	46	123	2
2026-02-12	16:02:08.290	1.33	-0.525	-0.35	0.744444	-0.665388	0.122488	0.1785	0.882	-0.201	0	46	123	2
2026-02-12	16:02:08.310	0.805	-0.315	-0.21	0.746152	-0.667096	0.12078	0.1755	0.87	-0.186	0	46	123	2
2026-02-12	16:02:08.330	0.49	-0.14	-0.14	0.74298	-0.670024	0.12322	0.183	0.882	-0.1905	0	46	123	2
2026-02-12	16:02:08.350	0.455	-0.035	-0.07	0.745176	-0.675636	0.124196	0.183	0.8805	-0.1995	0	46	123	2
2026-02-12	16:02:08.370	0.665	0	-0.07	0.741516	-0.668804	0.129076	0.1845	0.873	-0.1935	0	46	123	2
2026-02-12	16:02:08.390	0.735	0.07	-0.035	0.743956	-0.659776	0.127124	0.177	0.876	-0.1875	0	46	123	2
2026-02-12	16:02:08.410	0.525	0.07	-0.035	0.748836	-0.662704	0.126636	0.186	0.879	-0.192	0	40	124	2
2026-02-12	16:02:08.430	0.665	0	0	0.748592	-0.663924	0.125416	0.186	0.8775	-0.1935	0	40	124	2
2026-02-12	16:02:08.450	0.7	-0.035	-0.035	0.748592	-0.662948	0.12322	0.1815	0.882	-0.192	0	40	124	2
2026-02-12	16:02:08.470	0.63	0	-0.14	0.747372	-0.663924	0.119316	0.186	0.879	-0.1905	0	40	124	2
2026-02-12	16:02:08.490	0.735	0.035	-0.28	0.74908	-0.66246	0.117852	0.1935	0.8715	-0.1905	0	40	124	2
2026-02-12	16:02:08.510	0.63	0.14	-0.28	0.758352	-0.666364	0.117852	0.183	0.8775	-0.195	0	40	124	2
2026-02-12	16:02:08.530	0.84	0.315	-0.175	0.771284	-0.66856	0.114436	0.189	0.8775	-0.192	0	40	124	2
2026-02-12	16:02:08.550	1.26	0.84	-0.21	0.78446	-0.67466	0.110044	0.189	0.873	-0.186	0	40	124	2
2026-02-12	16:02:08.570	1.61	1.47	-0.42	0.793488	-0.659288	0.10614	0.192	0.873	-0.198	0	40	124	2
2026-02-12	16:02:08.590	1.715	2.065	-1.225	0.79178	-0.643184	0.105652	0.195	0.876	-0.1905	0	40	124	2
2026-02-12	16:02:20.610	17.465	64.33	66.22	0.50142	-0.47702	0.024888	0.21	0.9075	0.072	0	370	16	3
2026-02-12	16:02:20.630	24.99	60.62	62.02	0.522404	-0.481656	0.07442	0.216	0.909	0.063	0	370	16	3
2026-02-12	16:02:20.650	33.215	57.365	58.59	0.549732	-0.471164	0.117608	0.2265	0.915	0.0585	0	370	16	3
2026-02-12	16:02:20.670	38.815	54.635	55.93	0.583404	-0.430904	0.158844	0.2265	0.9165	0.0465	0	370	16	3
2026-02-12	16:02:20.690	35.945	53.83	51.66	0.598044	-0.450668	0.227896	0.237	0.921	0.0435	0	370	16	3
2026-02-12	16:02:20.710	28.595	52.815	48.965	0.587796	-0.530212	0.256932	0.2505	0.9315	0.0195	0	370	16	3
2026-02-12	16:02:20.730	26.215	50.575	45.43	0.568276	-0.561444	0.263032	0.2565	0.933	0.018	0	370	16	3
2026-02-12	16:02:20.750	23.275	47.04	41.23	0.53558	-0.576572	0.315736	0.2565	0.9375	0.006	0	370	16	3
2026-02-12	16:02:20.770	21.945	43.19	35.245	0.514108	-0.560224	0.351848	0.264	0.939	0.006	0	370	16	3
2026-02-12	16:02:20.790	14.315	37.17	25.2	0.480436	-0.56242	0.345992	0.2715	0.942	0.006	0	370	16	3
2026-02-12	16:02:20.810	6.79	32.515	17.85	0.446276	-0.54168	0.352336	0.2715	0.942	0.006	0	366	15	3
2026-02-12	16:02:20.830	-1.855	27.545	10.22	0.437004	-0.566568	0.36966	0.2775	0.9465	-0.006	0	366	15	3
2026-02-12	16:02:20.850	-11.095	22.715	3.395	0.435784	-0.5612	0.4026	0.2805	0.945	-0.0105	0	366	15	3
2026-02-12	16:02:20.870	-21.315	19.25	-2.415	0.41358	-0.588284	0.43432	0.2805	0.948	-0.0045	0	366	15	3
2026-02-12	16:02:20.890	-28.28	17.15	-7.56	0.415044	-0.601704	0.487268	0.279	0.948	0.003	0	366	15	3
2026-02-12	16:02:20.910	-37.275	15.33	-12.285	0.423096	-0.615368	0.491416	0.285	0.948	-0.003	0	366	15	3
2026-02-12	16:02:20.930	-52.885	13.265	-14.805	0.437492	-0.698084	0.498248	0.2805	0.9465	0.0045	0	366	15	3
2026-02-12	16:02:20.950	-70.49	12.39	-13.545	0.456036	-0.820816	0.472628	0.2775	0.945	0.0045	0	366	15	3
2026-02-12	16:02:20.970	-84.665	11.34	-11.935	0.510692	-0.80032	0.512156	0.2805	0.939	0.018	0	366	15	3
2026-02-12	16:02:20.990	-106.785	4.935	-16.905	0.781776	-1.033828	0.567788	0.276	0.9465	0.0225	0	366	15	3
2026-02-12	16:02:21.010	-101.185	2.52	-10.71	1.207068	-1.58356	0.307928	0.2715	0.954	0.027	0	363	43	3
2026-02-12	16:02:21.030	-81.9	1.47	-5.705	1.070672	-1.292956	0.00854	0.264	0.9495	0.0585	0	363	43	3
2026-02-12	16:02:21.050	-34.475	-6.965	-18.865	0.893528	-0.589016	0.027084	0.2655	0.9525	0.063	0	363	43	3
2026-02-12	16:02:21.070	-29.855	-18.515	-38.64	0.727364	-0.182756	0.120048	0.258	0.951	0.075	0	363	43	3
2026-02-12	16:02:21.090	-57.96	-26.495	-50.645	0.6405	-0.381128	0.072224	0.261	0.9435	0.0885	0	363	43	3
2026-02-12	16:02:21.110	-54.74	-29.68	-58.625	0.617076	-0.557784	0.014152	0.258	0.9405	0.0885	0	363	43	3
2026-02-12	16:02:21.130	-35.14	-34.72	-62.72	0.677832	-0.637572	-0.014884	0.243	0.936	0.096	0	363	43	3
2026-02-12	16:02:21.150	-16.905	-40.355	-62.37	0.65026	-0.770552	-0.063196	0.237	0.924	0.099	0	363	43	3
2026-02-12	16:02:21.170	7.49	-46.2	-56.63	0.604144	-0.729072	-0.066612	0.2325	0.9165	0.105	0	363	43	3
2026-02-12	16:02:21.190	19.705	-49.455	-50.75	0.523136	-0.661728	-0.07808	0.2235	0.918	0.105	0	363	43	3
2026-02-12	16:02:21.210	18.9	-52.99	-44.345	0.506056	-0.625372	-0.080276	0.216	0.9195	0.105	0	363	101	3
2026-02-12	16:02:21.230	12.985	-54.145	-41.16	0.522648	-0.637328	-0.084912	0.216	0.9195	0.105	0	363	101	3
2026-02-12	16:02:21.250	13.825	-53.2	-39.515	0.55632	-0.62342	-0.063684	0.2115	0.9135	0.12	0	363	101	3
2026-02-12	16:02:21.270	17.605	-51.415	-37.485	0.572912	-0.610244	-0.041724	0.2055	0.8985	0.1215	0	363	101	3
2026-02-12	16:02:21.290	21.245	-49.945	-34.825	0.618296	-0.572424	-0.02562	0.21	0.9	0.114	0	363	101	3
2026-02-12	16:02:21.310	22.33	-48.755	-33.81	0.683932	-0.500688	-0.01952	0.1935	0.906	0.129	0	363	101	3
2026-02-12	16:02:21.330	20.3	-47.46	-33.005	0.741516	-0.488244	-0.000732	0.2055	0.906	0.1245	0	363	101	3
2026-02-12	16:02:21.350	15.925	-45.71	-32.06	0.793488	-0.521916	-0.001708	0.1995	0.8985	0.132	0	363	101	3
2026-02-12	16:02:21.370	13.3	-44.205	-31.115	0.834724	-0.573644	0.006832	0.195	0.8955	0.1395	0	363	101	3
2026-02-12	16:02:21.390	15.505	-43.82	-31.15	0.870592	-0.610488	-0.000732	0.189	0.888	0.1395	0	363	101	3
2026-02-12	16:02:21.410	21.945	-44.345	-32.655	0.899384	-0.60024	-0.018544	0.189	0.8895	0.1395	0	362	110	3
2026-02-12	16:02:21.430	26.81	-45.22	-37.94	0.88572	-0.551928	-0.055388	0.189	0.8925	0.1395	0	362	110	3
2026-02-12	16:02:21.450	25.095	-45.745	-40.81	0.848144	-0.614392	-0.08906	0.1845	0.882	0.1365	0	362	110	3
2026-02-12	16:02:21.470	24.99	-46.515	-41.3	0.771528	-0.663192	-0.13786	0.186	0.8895	0.1425	0	362	110	3
2026-02-12	16:02:21.490	29.33	-48.09	-40.39	0.734684	-0.708576	-0.118828	0.177	0.876	0.144	0	362	110	3
2026-02-12	16:02:21.510	34.16	-47.565	-37.52	0.715164	-0.694912	-0.061244	0.1785	0.876	0.1485	0	362	110	3
2026-02-12	16:02:21.530	33.88	-44.275	-34.58	0.721752	-0.686372	-0.031476	0.1725	0.879	0.1425	0	362	110	3
2026-02-12	16:02:21.550	33.6	-40.04	-30.555	0.724192	-0.650504	-0.076372	0.177	0.876	0.147	0	362	110	3
2026-02-12	16:02:21.570	31.675	-37.275	-27.72	0.755912	-0.637572	-0.073688	0.1695	0.87	0.141	0	362	110	3
2026-02-12	16:02:21.590	28.315	-33.74	-25.2	0.780068	-0.673196	-0.046604	0.165	0.8745	0.144	0	362	110	3
2026-02-12	16:02:21.610	28.105	-30.03	-23.275	0.81862	-0.66246	-0.048068	0.165	0.873	0.144	0	357	83	3
2026-02-12	16:02:21.630	26.145	-27.3	-23.59	0.870592	-0.654652	-0.089304	0.165	0.87	0.147	0	357	83	3
2026-02-12	16:02:21.650	28.105	-25.97	-30.555	0.980392	-0.673684	-0.101748	0.1635	0.8685	0.15	0	357	83	3
2026-02-12	16:02:21.670	28.35	-24.535	-37.975	1.089704	-0.678564	-0.073688	0.159	0.8655	0.1485	0	357	83	3
2026-02-12	16:02:21.690	24.15	-22.645	-44.59	1.222196	-0.673928	-0.105164	0.1575	0.867	0.144	0	357	83	3
2026-02-12	16:02:21.710	16.625	-21.665	-46.76	1.334192	-0.726388	-0.192516	0.159	0.8685	0.1425	0	357	83	3
2026-02-12	16:02:21.730	14.665	-19.215	-43.575	1.347124	-0.806664	-0.237656	0.15	0.8565	0.147	0	357	83	3
2026-02-12	16:02:21.750	24.15	-9.765	-40.285	1.182668	-0.767868	-0.146644	0.1485	0.8565	0.1515	0	357	83	3
2026-02-12	16:02:21.770	25.13	1.19	-38.22	1.118496	-0.68442	-0.026108	0.1395	0.8535	0.144	0	357	83	3
2026-02-12	16:02:21.790	11.76	12.075	-28.84	1.111664	-0.728584	-0.007808	0.1335	0.846	0.144	0	357	83	3
2026-02-12	16:02:21.810	9.38	22.295	-18.83	1.084336	-0.605364	-0.027572	0.1365	0.843	0.132	0	347	41	3
2026-02-12	16:02:21.830	16.45	28.07	-6.86	1.053104	-0.476288	-0.104188	0.138	0.846	0.129	0	347	41	3
2026-02-12	16:02:21.850	31.325	27.65	11.55	1.047492	-0.334768	-0.18788	0.1395	0.849	0.1275	0	347	41	3
2026-02-12	16:02:21.870	41.055	25.305	30.625	1.075308	-0.257664	-0.13176	0.1395	0.849	0.1275	0	347	41	3
2026-02-12	16:02:21.890	44.835	25.305	46.725	1.102148	-0.344284	-0.042212	0.129	0.8595	0.117	0	347	41	3
2026-02-12	16:02:21.910	54.215	27.825	61.635	1.074576	-0.40138	-0.024888	0.1425	0.864	0.111	0	347	41	3
2026-02-12	16:02:21.930	63.07	32.865	71.54	1.031144	-0.35502	-0.00244	0.147	0.867	0.093	0	347	41	3
2026-02-12	16:02:21.950	57.89	37.38	80.325	0.953064	-0.385032	-0.012444	0.159	0.8805	0.0915	0	347	41	3
2026-02-12	16:02:21.970	38.045	43.89	84.63	0.794708	-0.29524	0.002196	0.159	0.8925	0.0765	0	347	41	3
2026-02-12	16:02:21.990	23.38	45.22	83.72	0.666364	-0.24278	-0.031232	0.159	0.8925	0.0765	0	347	41	3
2026-02-12	16:02:22.010	14.105	42.7	77.77	0.567788	-0.257908	-0.065392	0.18	0.906	0.054	0	337	5	3
2026-02-12	16:02:22.030	18.165	39.48	70.84	0.537776	-0.28426	-0.047336	0.1875	0.9135	0.0525	0	337	5	3
2026-02-12	16:02:22.050	21.91	38.78	64.925	0.529724	-0.281088	0.029768	0.198	0.921	0.0495	0	337	5	3
2026-02-12	16:02:22.070	13.335	41.37	57.995	0.577548	-0.35868	0.102236	0.201	0.9225	0.0465	0	337	5	3
2026-02-12	16:02:22.090	15.225	43.155	54.635	0.597312	-0.392596	0.060268	0.207	0.9345	0.039	0	337	5	3
2026-02-12	16:02:22.110	14.91	42.595	53.06	0.588528	-0.399672	0.056852	0.2265	0.927	0.0255	0	337	5	3
2026-02-12	16:02:22.130	7.315	40.39	51.975	0.600484	-0.47092	0.0854	0.2355	0.945	0.024	0	337	5	3
2026-02-12	16:02:22.150	1.925	38.99	50.33	0.589992	-0.532652	0.127124	0.24	0.942	0.0195	0	337	5	3
2026-02-12	16:02:22.170	-1.96	38.08	48.965	0.578768	-0.590724	0.171288	0.2505	0.963	0.0165	0	337	5	3
2026-02-12	16:02:22.190	-4.095	37.555	46.025	0.570472	-0.619028	0.204228	0.2685	0.954	0.0165	0	337	5	3
2026-02-12	16:02:22.210	-6.51	36.435	41.685	0.545096	-0.647332	0.238388	0.2685	0.957	0.009	0	329	5	3
2026-02-12	16:02:22.230	-6.265	35	35.42	0.51362	-0.635132	0.24034	0.2685	0.96	0.0105	0	329	5	3
2026-02-12	16:02:22.250	-7.595	31.78	27.055	0.475312	-0.58926	0.241804	0.2745	0.9615	0.0135	0	329	5	3
2026-02-12	16:02:22.270	-14.175	27.02	17.885	0.443836	-0.55876	0.255468	0.279	0.963	0.0105	0	329	5	3
2026-02-12	16:02:22.290	-29.4	18.725	4.27	0.400404	-0.492148	0.306708	0.279	0.966	0.006	0	329	5	3
2026-02-12	16:02:22.310	-42.77	12.565	-3.605	0.395524	-0.510448	0.335988	0.288	0.9675	0.015	0	329	5	3
2026-02-12	16:02:22.330	-54.25	9.065	-10.955	0.36844	-0.54534	0.358436	0.2805	0.969	0.0195	0	329	5	3
2026-02-12	16:02:22.350	-62.02	6.3	-14.595	0.379664	-0.671244	0.375272	0.2895	0.975	0.0255	0	329	5	3
2026-02-12	16:02:22.370	-62.51	2.87	-15.295	0.363072	-0.742492	0.355508	0.2865	0.9705	0.0405	0	329	5	3
2026-02-12	16:02:22.390	-59.815	-2.38	-12.88	0.325008	-0.740052	0.232532	0.285	0.9615	0.051	0	329	5	3
2026-02-12	16:02:22.410	-53.095	-12.565	-9.59	0.380152	-0.761036	0.139568	0.282	0.9705	0.054	0	324	23	3
2026-02-12	16:02:22.430	-46.13	-22.785	-5.565	0.568276	-1.047004	0.225456	0.2835	0.9705	0.057	0	324	23	3
2026-02-12	16:02:22.450	-20.475	-26.46	2.345	0.752496	-1.139236	0.271816	0.2865	0.969	0.0645	0	324	23	3
2026-02-12	16:02:22.470	4.48	-25.515	12.32	0.99186	-1.336388	0.320372	0.2895	0.966	0.0735	0	324	23	3
2026-02-12	16:02:22.490	11.935	-16.24	31.29	1.07482	-1.55428	0.288896	0.2895	0.966	0.0735	0	324	23	3
2026-02-12	16:02:22.510	36.225	-10.045	46.2	1.08702	-1.458144	0.121268	0.2895	0.966	0.0735	0	324	23	3
2026-02-12	16:02:22.530	62.405	-11.55	40.81	1.081652	-1.107272	0.01098	0.309	0.9615	0.0735	0	324	23	3
2026-02-12	16:02:22.550	65.485	-15.47	31.01	1.021384	-0.803004	-0.017568	0.315	0.978	0.066	0	324	23	3
2026-02-12	16:02:22.570	46.27	-21.91	23.66	0.878644	-0.593896	-0.02928	0.333	0.984	0.0525	0	324	23	3
2026-02-12	16:02:22.590	19.53	-24.22	15.715	0.612196	-0.462136	0.062952	0.321	0.99	0.0495	0	324	23	3
2026-02-12	16:02:22.610	3.29	-26.005	3.01	0.424316	-0.371856	0.183732	0.3255	0.996	0.045	0	326	68	3
2026-02-12	16:02:22.630	-3.08	-31.115	-12.67	0.31354	-0.377468	0.143228	0.3285	0.9855	0.0405	0	326	68	3
2026-02-12	16:02:22.650	2.065	-38.185	-27.895	0.295972	-0.42334	-0.006832	0.327	0.984	0.051	0	326	68	3
2026-02-12	16:02:22.670	7.315	-46.865	-35.42	0.376492	-0.568032	-0.105652	0.3285	0.984	0.0615	0	326	68	3
2026-02-12	16:02:22.690	12.25	-59.045	-32.34	0.4941	-0.768356	-0.129076	0.327	0.987	0.06	0	326	68	3
2026-02-12	16:02:22.710	26.425	-73.01	-16.135	0.647088	-1.095804	-0.083204	0.324	0.987	0.0585	0	326	68	3
2026-02-12	16:02:22.730	52.71	-78.82	-9.835	0.6649	-0.960628	-0.121756	0.324	0.987	0.0585	0	326	68	3
2026-02-12	16:02:22.750	68.845	-83.79	-12.25	0.664168	-0.718336	-0.167384	0.309	0.9825	0.0495	0	326	68	3
2026-02-12	16:02:22.770	62.3	-90.265	-18.62	0.693692	-0.654164	-0.144204	0.3105	0.987	0.0495	0	326	68	3
2026-02-12	16:02:22.790	49.42	-96.075	-25.69	0.725656	-0.718092	-0.123952	0.3075	0.981	0.0435	0	326	68	3
2026-02-12	16:02:22.810	49.77	-97.475	-32.9	0.743956	-0.743468	-0.126148	0.312	0.9825	0.036	0	333	83	3
2026-02-12	16:02:22.830	61.075	-98.315	-38.85	0.739564	-0.694424	-0.121024	0.2955	0.9795	0.0405	0	333	83	3
2026-02-12	16:02:22.850	71.435	-98.455	-41.23	0.72956	-0.6588	-0.09028	0.297	0.981	0.036	0	333	83	3
2026-02-12	16:02:22.870	75.215	-96.74	-41.615	0.698816	-0.61976	-0.069296	0.2955	0.9825	0.0315	0	333	83	3
2026-02-12	16:02:22.890	72.695	-93.1	-42.77	0.675148	-0.60146	-0.055388	0.288	0.9765	0.027	0	333	83	3
2026-02-12	16:02:22.910	67.48	-87.955	-45.71	0.65148	-0.596092	-0.067832	0.282	0.969	0.024	0	333	83	3
2026-02-12	16:02:22.930	60.165	-80.535	-51.66	0.654896	-0.64416	-0.10126	0.2805	0.9705	0.024	0	333	83	3
2026-02-12	16:02:22.950	56.875	-76.37	-53.515	0.665632	-0.691496	-0.11712	0.264	0.9645	0.015	0	333	83	3
2026-02-12	16:02:22.970	55.405	-72.03	-54.04	0.688812	-0.718092	-0.114924	0.2535	0.96	0.006	0	333	83	3
2026-02-12	16:02:22.990	52.675	-66.92	-53.305	0.707356	-0.693448	-0.104432	0.2565	0.966	0	0	333	83	3
2026-02-12	16:02:23.010	49.49	-61.11	-52.5	0.712968	-0.659288	-0.103944	0.2445	0.9525	0.0045	0	338	59	3
2026-02-12	16:02:23.030	47.95	-55.545	-51.205	0.720044	-0.651724	-0.112728	0.2265	0.954	0.0015	0	338	59	3
2026-02-12	16:02:23.050	47.425	-50.05	-48.895	0.723704	-0.663924	-0.114436	0.2265	0.9435	-0.0015	0	338	59	3
2026-02-12	16:02:23.070	47.705	-44.905	-45.71	0.714432	-0.667584	-0.122488	0.225	0.9405	-0.0015	0	338	59	3
2026-02-12	16:02:23.090	48.405	-40.145	-42	0.708576	-0.687348	-0.120292	0.216	0.936	-0.003	0	338	59	3
2026-02-12	16:02:23.110	48.93	-35.035	-37.555	0.724436	-0.691496	-0.105652	0.2085	0.933	-0.006	0	338	59	3
2026-02-12	16:02:23.130	43.26	-27.44	-32.165	0.77348	-0.685152	-0.07515199	0.207	0.933	-0.0075	0	338	59	3
2026-02-12	16:02:23.150	32.865	-17.745	-27.615	0.878644	-0.725412	-0.021228	0.207	0.933	-0.0075	0	338	59	3
2026-02-12	16:02:23.170	27.09	-6.93	-25.62	0.962336	-0.656116	0.004636	0.186	0.927	-0.0195	0	338	59	3
2026-02-12	16:02:23.190	19.845	3.64	-27.265	0.992348	-0.597556	-0.0793	0.1845	0.9195	-0.03	0	338	59	3
2026-02-12	16:02:23.210	14.245	10.85	-28.28	0.982344	-0.685152	-0.166164	0.1815	0.9105	-0.027	0	336	21	3
2026-02-12	16:02:23.230	16.905	14.665	-23.94	1.018944	-0.877668	-0.185684	0.1815	0.9135	-0.033	0	336	21	3
2026-02-12	16:02:23.250	26.39	19.285	-13.86	1.058228	-1.024068	-0.171044	0.1725	0.909	-0.0405	0	336	21	3
2026-02-12	16:02:23.270	39.34	25.235	0.42	1.039928	-1.045052	-0.1464	0.174	0.906	-0.0405	0	336	21	3
2026-02-12	16:02:23.290	50.925	30.835	13.125	1.019432	-0.940864	-0.117364	0.177	0.9075	-0.045	0	336	21	3
2026-02-12	16:02:23.310	59.57	35.805	21.98	0.9821	-0.770308	-0.089548	0.177	0.9105	-0.0555	0	336	21	3
2026-02-12	16:02:23.330	58.905	37.59	27.825	1.007476	-0.560224	-0.069784	0.18	0.909	-0.0675	0	336	21	3
2026-02-12	16:02:23.350	53.9	36.435	40.215	0.987956	-0.357216	-0.034648	0.183	0.909	-0.072	0	336	21	3
2026-02-12	16:02:23.370	54.285	31.395	51.275	0.947452	-0.180316	0.006344	0.183	0.909	-0.072	0	336	21	3
2026-02-12	16:02:23.390	44.485	26.04	63.805	0.907924	-0.305732	0.07076	0.207	0.9075	-0.1005	0	336	21	3
2026-02-12	16:02:23.410	40.74	23.24	77.35	0.874496	-0.447496	0.139324	0.216	0.906	-0.117	0	329	11	3
2026-02-12	16:02:23.430	46.34	23.415	84.385	0.846436	-0.455792	0.175924	0.2175	0.924	-0.1245	0	329	11	3
2026-02-12	16:02:23.450	49.525	23.975	85.12	0.780312	-0.468724	0.154696	0.2385	0.9225	-0.135	0	329	11	3
2026-02-12	16:02:23.470	46.2	22.05	79.38	0.773724	-0.507276	0.09857599	0.246	0.924	-0.1395	0	329	11	3
2026-02-12	16:02:23.490	38.29	18.025	72.835	0.735416	-0.566324	0.079544	0.2535	0.9255	-0.144	0	329	11	3
2026-02-12	16:02:23.510	28	13.72	67.025	0.704184	-0.683688	0.095892	0.2655	0.933	-0.1455	0	329	11	3
2026-02-12	16:02:23.530	31.045	9.695	64.05	0.679296	-0.777384	0.122732	0.276	0.933	-0.1515	0	329	11	3
2026-02-12	16:02:23.550	47.005	4.025	64.12	0.675148	-0.826672	0.129076	0.2865	0.9345	-0.165	0	329	11	3
2026-02-12	16:02:23.570	74.585	-7.56	63.805	0.64538	-0.699304	0.15372	0.291	0.942	-0.1695	0	329	11	3
2026-02-12	16:02:23.590	84.91	-18.165	61.565	0.654164	-0.603168	0.1464	0.3105	0.933	-0.18	0	329	11	3
2026-02-12	16:02:23.610	87.22	-29.26	57.995	0.689788	-0.550952	0.175436	0.3135	0.936	-0.189	0	321	14	3
2026-02-12	16:02:23.630	85.855	-40.425	52.815	0.694668	-0.515572	0.2013	0.3195	0.936	-0.204	0	321	14	3
2026-02-12	16:02:23.650	78.75	-49.63	44.66	0.703452	-0.499224	0.210816	0.324	0.9285	-0.21	0	321	14	3
2026-02-12	16:02:23.670	67.2	-55.65	36.54	0.681248	-0.522892	0.20252	0.3225	0.915	-0.219	0	321	14	3
2026-02-12	16:02:23.690	53.725	-58.975	30.8	0.657092	-0.563152	0.184464	0.3255	0.9135	-0.219	0	321	14	3
2026-02-12	16:02:23.710	43.855	-59.85	28.63	0.651236	-0.65392	0.204716	0.3225	0.909	-0.2235	0	321	14	3
2026-02-12	16:02:23.730	46.9	-58.17	27.055	0.648308	-0.66612	0.194956	0.318	0.909	-0.2265	0	321	14	3
2026-02-12	16:02:23.750	51.065	-53.725	22.995	0.63562	-0.59048	0.239608	0.3165	0.909	-0.231	0	321	14	3
2026-02-12	16:02:23.770	51.205	-44.1	16.625	0.625616	-0.52216	0.34892	0.309	0.903	-0.24	0	321	14	3
2026-02-12	16:02:23.790	40.845	-29.12	13.44	0.59536	-0.599508	0.459208	0.306	0.9015	-0.2415	0	321	14	3
2026-02-12	16:02:23.810	28.875	-17.815	16.905	0.583648	-0.750056	0.455304	0.306	0.9045	-0.249	0	312	18	3
2026-02-12	16:02:23.830	13.055	-9.73	24.185	0.576572	-0.904508	0.404308	0.306	0.891	-0.249	0	312	18	3
2026-02-12	16:02:23.850	3.22	-2.555	30.345	0.549732	-0.945988	0.364048	0.312	0.897	-0.2535	0	312	18	3
2026-02-12	16:02:23.870	1.645	3.29	36.645	0.489708	-0.97722	0.353556	0.318	0.8925	-0.2535	0	312	18	3
2026-02-12	16:02:23.890	5.25	8.015	41.23	0.417484	-1.021872	0.392108	0.324	0.894	-0.2505	0	312	18	3
2026-02-12	16:02:23.910	17.08	10.885	43.54	0.34282	-0.963312	0.480436	0.3225	0.8955	-0.2505	0	312	18	3
2026-02-12	16:02:23.930	32.515	10.605	40.95	0.368196	-0.884744	0.53436	0.327	0.897	-0.255	0	312	18	3
2026-02-12	16:02:23.950	46.97	1.4	36.96	0.560712	-0.779824	0.54168	0.3345	0.897	-0.264	0	312	18	3
2026-02-12	16:02:23.970	32.2	-6.23	33.285	0.792756	-0.807884	0.58072	0.3405	0.8895	-0.27	0	312	18	3
2026-02-12	16:02:23.990	-29.26	-9.1	25.515	0.855708	-0.96868	0.397232	0.345	0.8835	-0.2715	0	312	18	3
2026-02-12	16:02:24.010	-41.93	-3.15	15.96	0.75396	-0.970876	0.300364	0.345	0.8835	-0.2715	0	305	86	3
2026-02-12	16:02:24.030	-43.05	-0.455	10.85	0.671976	-1.16388	0.228872	0.348	0.8955	-0.261	0	305	86	3
2026-02-12	16:02:24.050	-7.63	-6.3	0.805	0.592188	-0.699304	0.213744	0.3465	0.9075	-0.255	0	305	86	3
2026-02-12	16:02:24.070	3.01	-9.275	-16.555	0.60756	-0.12932	0.371124	0.3375	0.8985	-0.261	0	305	86	3
2026-02-12	16:02:24.090	-39.025	-9.66	-31.99	0.664656	-0.030988	0.407724	0.336	0.9015	-0.2595	0	305	86	3
2026-02-12	16:02:24.110	-98.35	-9.555	-42.665	0.769088	-0.317688	0.301828	0.339	0.9015	-0.2565	0	305	86	3
2026-02-12	16:02:24.130	-133.98	-2.66	-48.055	0.884256	-0.661728	0.210084	0.336	0.9105	-0.2445	0	305	86	3
2026-02-12	16:02:24.150	-126.07	9.485	-48.755	1.01626	-0.753716	0.097356	0.3195	0.9195	-0.2265	0	305	86	3
2026-02-12	16:02:24.170	-113.61	12.88	-49.7	1.052616	-0.793732	-0.138592	0.309	0.9255	-0.21	0	305	86	3
2026-02-12	16:02:24.190	-102.655	7.07	-43.995	0.955748	-0.865956	-0.366244	0.3075	0.9315	-0.1965	0	305	86	3
2026-02-12	16:02:24.210	-54.39	-16.24	-36.19	0.776164	-0.820084	-0.346968	0.3075	0.93	-0.1905	0	303	148	3
2026-02-12	16:02:24.230	-19.04	-27.055	-36.925	0.658556	-0.670756	-0.160064	0.294	0.9465	-0.171	0	303	148	3
2026-02-12	16:02:24.250	-5.39	-30.765	-37.52	0.57462	-0.58316	0.073688	0.288	0.942	-0.1695	0	303	148	3
2026-02-12	16:02:24.270	-16.625	-28.525	-37.31	0.550708	-0.626348	0.174948	0.273	0.9405	-0.1695	0	303	148	3
2026-02-12	16:02:24.290	-21.84	-25.585	-39.76	0.539484	-0.66368	0.091012	0.2745	0.9525	-0.159	0	303	148	3
2026-02-12	16:02:24.310	-14.56	-25.41	-42.21	0.55022	-0.589992	-0.015372	0.2685	0.9435	-0.159	0	303	148	3
2026-02-12	16:02:24.330	-10.605	-27.755	-43.61	0.555832	-0.558272	-0.068076	0.2595	0.93	-0.1545	0	303	148	3
2026-02-12	16:02:24.350	-5.495	-31.745	-44.1	0.564372	-0.567056	-0.054412	0.2535	0.9315	-0.1455	0	303	148	3
2026-02-12	16:02:24.370	1.365	-36.155	-43.12	0.574132	-0.560224	-0.014396	0.2445	0.933	-0.141	0	303	148	3
2026-02-12	16:02:24.390	7.84	-40.705	-41.825	0.58438	-0.550708	0.027328	0.231	0.9285	-0.1395	0	303	148	3
2026-02-12	16:02:24.410	13.055	-46.795	-40.285	0.6344	-0.57584	0.037576	0.222	0.9285	-0.1395	0	305	157	3
2026-02-12	16:02:24.430	18.725	-52.5	-39.655	0.711748	-0.641964	0.0305	0.2175	0.9285	-0.1395	0	305	157	3
2026-02-12	16:02:24.450	22.505	-56.105	-39.55	0.776164	-0.631716	-0.00122	0.2055	0.9135	-0.132	0	305	157	3
2026-02-12	16:02:24.470	24.325	-59.465	-42.385	0.816912	-0.57462	-0.045384	0.189	0.9105	-0.126	0	305	157	3
2026-02-12	16:02:24.490	25.9	-61.075	-45.815	0.831552	-0.549732	-0.104188	0.1785	0.8985	-0.129	0	305	157	3
2026-02-12	16:02:24.510	26.81	-61.18	-48.335	0.8357	-0.586576	-0.138348	0.174	0.8955	-0.12	0	305	157	3
2026-02-12	16:02:24.530	29.12	-60.9	-50.225	0.80276	-0.586576	-0.185196	0.1665	0.891	-0.1185	0	305	157	3
2026-02-12	16:02:24.550	28.91	-62.37	-50.33	0.816668	-0.6405	-0.204472	0.1575	0.8895	-0.117	0	305	157	3
2026-02-12	16:02:24.570	30.24	-63.315	-47.18	0.836188	-0.693936	-0.220576	0.147	0.885	-0.1185	0	305	157	3
2026-02-12	16:02:24.590	34.86	-62.545	-43.19	0.904752	-0.764696	-0.19032	0.1395	0.873	-0.117	0	305	157	3
2026-02-12	16:02:24.610	40.985	-59.57	-37.1	0.92476	-0.784704	-0.157868	0.132	0.864	-0.1095	0	307	122	3
2026-02-12	16:02:24.630	43.155	-51.03	-27.02	0.822768	-0.692716	-0.131516	0.1245	0.8625	-0.1065	0	307	122	3
2026-02-12	16:02:24.650	40.32	-46.2	-23.205	0.750056	-0.584136	-0.107848	0.1245	0.8625	-0.1065	0	307	122	3
2026-02-12	16:02:24.670	30.87	-39.83	-22.505	0.677588	-0.534116	-0.059048	0.108	0.8535	-0.1095	0	307	122	3
2026-02-12	16:02:24.690	22.715	-33.145	-23.555	0.655384	-0.513376	-0.02318	0.0975	0.8475	-0.108	0	307	122	3
2026-02-12	16:02:24.710	15.575	-27.72	-25.865	0.664412	-0.509716	-0.002928	0.105	0.855	-0.102	0	307	122	3
2026-02-12	16:02:24.730	7.175	-23.765	-27.615	0.687104	-0.566324	-0.045872	0.096	0.846	-0.1065	0	307	122	3
2026-02-12	16:02:24.750	8.05	-22.715	-31.29	0.711748	-0.565836	-0.105652	0.09	0.837	-0.1035	0	307	122	3
2026-02-12	16:02:24.770	10.85	-23.835	-36.26	0.784704	-0.589016	-0.101992	0.09	0.834	-0.0975	0	307	122	3
2026-02-12	16:02:24.790	13.93	-25.515	-41.93	0.91622	-0.64294	-0.09394	0.0825	0.8325	-0.096	0	307	122	3
2026-02-12	16:02:24.810	25.27	-27.475	-47.495	1.10044	-0.686128	-0.138592	0.0735	0.8265	-0.0945	0	305	67	3
2026-02-12	16:02:24.830	36.61	-30.835	-51.555	1.282952	-0.711504	-0.228628	0.069	0.822	-0.093	0	305	67	3
2026-02-12	16:02:24.850	41.44	-36.96	-46.935	1.411296	-0.807884	-0.310124	0.0675	0.825	-0.09	0	305	67	3
2026-02-12	16:02:24.870	47.04	-32.655	-38.64	1.305156	-0.91744	-0.170068	0.0495	0.8025	-0.099	0	305	67	3
2026-02-12	16:02:24.890	50.575	-20.93	-24.78	1.286612	-0.897432	-0.060756	0.045	0.798	-0.0855	0	305	67	3
2026-02-12	16:02:24.910	52.71	-6.44	-11.48	1.359568	-0.753716	-0.168848	0.0405	0.789	-0.0915	0	305	67	3
2026-02-12	16:02:24.930	54.18	9.38	-1.645	1.426912	-0.543876	-0.252052	0.042	0.786	-0.0945	0	305	67	3
2026-02-12	16:02:24.950	40.565	24.99	10.71	1.451312	-0.464088	-0.295728	0.0495	0.7815	-0.0975	0	305	67	3
2026-02-12	16:02:24.970	34.44	41.545	25.2	1.372012	-0.38918	-0.300364	0.045	0.7815	-0.1035	0	305	67	3
2026-02-12	16:02:24.990	37.31	55.965	41.58	1.271972	-0.312808	-0.240828	0.0435	0.7845	-0.114	0	305	67	3
2026-02-12	16:02:25.010	37.8	66.64	60.305	1.166808	-0.249124	-0.185928	0.054	0.792	-0.1245	0	303	10	3
2026-02-12	16:02:25.030	38.465	74.55	75.88	1.057008	-0.218624	-0.15372	0.06	0.798	-0.1395	0	303	10	3
2026-02-12	16:02:25.050	40.425	77.7	86.415	0.95038	-0.186416	-0.110532	0.066	0.804	-0.15	0	303	10	3
2026-02-12	16:02:25.070	29.19	79.94	89.355	0.81496	-0.210328	0.001708	0.069	0.81	-0.156	0	303	10	3
2026-02-12	16:02:25.090	13.09	83.02	86.415	0.717116	-0.252052	0.037088	0.1095	0.8325	-0.177	0	303	10	3
2026-02-12	16:02:25.110	-4.34	84.42	80.745	0.660264	-0.349164	0.016348	0.1155	0.852	-0.189	0	303	10	3
2026-02-12	16:02:25.130	-7.665	83.79	74.585	0.593164	-0.395036	-0.008296	0.147	0.8535	-0.1965	0	303	10	3
2026-02-12	16:02:25.150	2.905	80.185	66.64	0.54168	-0.377712	-0.009028	0.147	0.8595	-0.2055	0	303	10	3
2026-02-12	16:02:25.170	17.01	75.67	57.435	0.477996	-0.338428	0.038796	0.1515	0.8655	-0.219	0	303	10	3
2026-02-12	16:02:25.190	20.86	70.385	50.505	0.505568	-0.415532	0.129564	0.168	0.8685	-0.2295	0	303	10	3
2026-02-12	16:02:25.210	26.81	68.6	46.445	0.5124	-0.4636	0.19032	0.186	0.876	-0.2415	0	305	28	3
2026-02-12	16:02:25.230	26.005	66.92	43.505	0.549488	-0.50508	0.21838	0.195	0.8805	-0.2475	0	305	28	3
2026-02-12	16:02:25.250	16.1	64.295	42.805	0.564128	-0.5917	0.22692	0.207	0.8835	-0.2565	0	305	28	3
2026-02-12	16:02:25.270	11.83	59.185	42.875	0.509472	-0.605852	0.243268	0.2145	0.885	-0.2655	0	305	28	3
2026-02-12	16:02:25.290	10.885	55.545	39.935	0.451888	-0.568764	0.299388	0.2145	0.885	-0.2655	0	305	28	3
2026-02-12	16:02:25.310	7.455	51.87	34.965	0.412604	-0.538996	0.339892	0.255	0.8895	-0.2835	0	305	28	3
2026-02-12	16:02:25.330	0.315	49.84	27.37	0.39528	-0.498248	0.375272	0.258	0.894	-0.2895	0	305	28	3
2026-02-12	16:02:25.350	-9.73	46.935	18.34	0.364292	-0.441884	0.36722	0.2625	0.8925	-0.2865	0	305	28	3
2026-02-12	16:02:25.370	-25.83	42.98	8.015	0.34526	-0.411872	0.3538	0.273	0.8895	-0.2835	0	305	28	3
2026-02-12	16:02:25.390	-47.74	38.815	0.28	0.360144	-0.453596	0.460184	0.2835	0.8955	-0.285	0	305	28	3
2026-02-12	16:02:25.410	-65.415	35.98	-4.97	0.366488	-0.538508	0.502396	0.2865	0.9	-0.282	0	313	12	2
2026-02-12	16:02:25.430	-83.44	31.885	-10.71	0.414312	-0.64538	0.501176	0.2835	0.903	-0.2745	0	313	12	2
2026-02-12	16:02:25.450	-93.59	30.24	-15.12	0.56364	-0.905972	0.499956	0.2895	0.9135	-0.267	0	313	12	2
2026-02-12	16:02:25.470	-75.53	29.12	-13.825	0.938912	-1.10166	0.552416	0.2925	0.9255	-0.261	0	313	12	2
2026-02-12	16:02:25.490	-99.61	29.365	12.25	1.20902	-1.584292	0.42212	0.2895	0.933	-0.2595	0	313	12	2
2026-02-12	16:02:25.510	-85.575	28.84	3.045	0.911828	-0.964532	0.204228	0.3045	0.939	-0.2355	0	313	12	2
2026-02-12	16:02:25.530	-65.345	19.285	-12.495	0.819596	-0.675636	0.150792	0.3045	0.945	-0.228	0	313	12	2
2026-02-12	16:02:25.550	-71.26	10.325	-30.59	0.665388	-0.46116	0.331108	0.3045	0.954	-0.222	0	313	12	2
2026-02-12	16:02:25.570	-79.695	7.105	-52.045	0.688568	-0.484096	0.201788	0.303	0.9645	-0.2115	0	313	12	2
2026-02-12	16:02:25.590	-83.545	6.23	-65.38	0.693936	-0.678076	0.05978	0.2985	0.9645	-0.201	0	313	12	2
2026-02-12	16:02:25.610	-58.205	-0.84	-68.775	0.726144	-0.856196	-0.053924	0.2865	0.966	-0.1875	0	325	50	3
2026-02-12	16:02:25.630	-26.915	-10.5	-67.305	0.730048	-0.840336	-0.074664	0.2775	0.9705	-0.1785	0	325	50	3
2026-02-12	16:02:25.650	-10.115	-23.03	-59.43	0.640988	-0.765672	-0.091988	0.2685	0.969	-0.1725	0	325	50	3
2026-02-12	16:02:25.670	-5.705	-31.85	-52.045	0.558028	-0.678564	-0.085156	0.2565	0.9645	-0.1725	0	325	50	3
2026-02-12	16:02:25.690	-8.12	-42.595	-46.2	0.472872	-0.653432	-0.074908	0.246	0.96	-0.171	0	325	50	3
2026-02-12	16:02:25.710	-4.795	-49.77	-43.365	0.438956	-0.67832	-0.045872	0.2415	0.9585	-0.165	0	325	50	3
2026-02-12	16:02:25.730	-0.21	-52.15	-41.65	0.4575	-0.6954	0.004392	0.2235	0.9435	-0.156	0	325	50	3
2026-02-12	16:02:25.750	4.585	-51.94	-39.97	0.50752	-0.667584	0.038064	0.2025	0.942	-0.1485	0	325	50	3
2026-02-12	16:02:25.770	10.535	-50.365	-37.905	0.549244	-0.622444	0.002684	0.201	0.942	-0.147	0	325	50	3
2026-02-12	16:02:25.790	15.715	-48.86	-36.26	0.597556	-0.585844	-0.048312	0.198	0.9405	-0.1455	0	325	50	3
2026-02-12	16:02:25.810	19.88	-48.405	-36.54	0.654164	-0.498004	-0.08052	0.1905	0.933	-0.1425	0	336	89	3
2026-02-12	16:02:25.830	17.92	-49.21	-38.92	0.725412	-0.435296	-0.068076	0.18	0.9315	-0.1395	0	336	89	3
2026-02-12	16:02:25.850	12.81	-49.805	-39.655	0.764696	-0.488	-0.060512	0.1755	0.9315	-0.138	0	336	89	3
2026-02-12	16:02:25.870	11.83	-50.61	-40.425	0.79056	-0.533872	-0.057584	0.1725	0.9285	-0.135	0	336	89	3
2026-02-12	16:02:25.890	13.055	-50.96	-41.125	0.81496	-0.598288	-0.057584	0.1605	0.921	-0.132	0	336	89	3
2026-02-12	16:02:25.910	16.1	-50.54	-40.04	0.832772	-0.6588	-0.061976	0.1545	0.915	-0.1305	0	336	89	3
2026-02-12	16:02:25.930	18.025	-50.4	-38.85	0.80764	-0.65148	-0.091256	0.1545	0.915	-0.1305	0	336	89	3
2026-02-12	16:02:25.950	19.285	-51.135	-38.955	0.773724	-0.643428	-0.124196	0.1275	0.9	-0.1185	0	336	89	3
2026-02-12	16:02:25.970	23.275	-52.99	-39.13	0.720532	-0.675636	-0.130052	0.1245	0.897	-0.114	0	336	89	3
2026-02-12	16:02:25.990	29.925	-53.935	-39.655	0.692716	-0.676612	-0.102236	0.1185	0.891	-0.111	0	336	89	3
2026-02-12	16:02:26.010	32.83	-53.585	-39.165	0.696864	-0.698572	-0.056608	0.111	0.8895	-0.108	0	341	82	3
2026-02-12	16:02:26.030	32.97	-51.38	-37.03	0.725412	-0.766404	-0.013176	0.1005	0.882	-0.102	0	341	82	3
2026-02-12	16:02:26.050	35.49	-46.585	-34.125	0.754204	-0.766404	-0.018788	0.09	0.873	-0.102	0	341	82	3
2026-02-12	16:02:26.070	38.15	-41.125	-32.9	0.764452	-0.719068	-0.082716	0.0855	0.873	-0.1065	0	341	82	3
2026-02-12	16:02:26.090	36.19	-37.1	-34.055	0.779092	-0.716872	-0.101992	0.0855	0.867	-0.105	0	341	82	3
2026-02-12	16:02:26.110	34.195	-33.705	-37.03	0.834236	-0.762256	-0.091256	0.0795	0.8595	-0.099	0	341	82	3
2026-02-12	16:02:26.130	32.795	-27.65	-41.16	0.986736	-0.802028	-0.05612	0.0765	0.8595	-0.0975	0	341	82	3
2026-02-12	16:02:26.150	31.36	-24.5	-42.07	1.157292	-0.815204	-0.087352	0.0615	0.837	-0.105	0	341	82	3
2026-02-12	16:02:26.170	25.585	-21.7	-39.34	1.31516	-0.817156	-0.203984	0.0585	0.8325	-0.105	0	341	82	3
2026-02-12	16:02:26.190	17.605	-19.04	-36.12	1.394216	-0.779092	-0.367952	0.051	0.822	-0.1035	0	341	82	3
2026-02-12	16:02:26.210	30.415	-18.2	-34.72	1.433012	-0.77104	-0.368684	0.0465	0.8175	-0.1035	0	340	46	3
2026-02-12	16:02:26.230	44.765	-14.63	-26.25	1.39934	-0.711748	-0.223748	0.0405	0.8175	-0.108	0	340	46	3
2026-02-12	16:02:26.250	50.68	-4.515	-13.685	1.353712	-0.604388	-0.153964	0.036	0.813	-0.1095	0	340	46	3
2026-02-12	16:02:26.270	52.115	5.775	0.245	1.317844	-0.395768	-0.141764	0.036	0.8085	-0.1065	0	340	46	3
2026-02-12	16:02:26.290	48.02	13.02	16.625	1.25782	-0.18178	-0.178608	0.039	0.81	-0.108	0	340	46	3
2026-02-12	16:02:26.310	38.955	16.345	33.915	1.204628	-0.105408	-0.136152	0.0435	0.81	-0.114	0	340	46	3
2026-02-12	16:02:26.330	35.735	23.73	54.11	1.11142	-0.244488	-0.079788	0.042	0.8115	-0.12	0	340	46	3
2026-02-12	16:02:26.350	41.65	36.19	70.28	1.003572	-0.340624	-0.113216	0.0405	0.8145	-0.126	0	340	46	3
2026-02-12	16:02:26.370	43.365	44.555	78.19	0.860344	-0.34648	-0.150792	0.048	0.825	-0.1365	0	340	46	3
2026-02-12	16:02:26.390	38.045	48.93	81.2	0.730048	-0.362096	-0.099552	0.0675	0.84	-0.1485	0	340	46	3
2026-02-12	16:02:26.410	25.41	53.165	81.2	0.65758	-0.383812	-0.038796	0.0825	0.843	-0.156	0	339	0	3
2026-02-12	16:02:26.430	14.455	58.345	78.715	0.620736	-0.413092	0.035136	0.093	0.8445	-0.165	0	339	0	3
2026-02-12	16:02:26.450	13.685	62.475	75.775	0.632448	-0.44652	0.046848	0.1065	0.855	-0.171	0	339	0	3
2026-02-12	16:02:26.470	27.16	66.5	71.575	0.63074	-0.349652	0.060024	0.1215	0.8685	-0.1815	0	339	0	3
2026-02-12	16:02:26.490	27.405	68.18	65.45	0.659776	-0.287188	0.0671	0.132	0.8745	-0.1935	0	339	0	3
2026-02-12	16:02:26.510	18.165	70.63	59.57	0.667828	-0.305976	0.102968	0.1425	0.8715	-0.2025	0	339	0	3
2026-02-12	16:02:26.530	10.29	73.57	52.465	0.684176	-0.346236	0.138836	0.1545	0.8745	-0.21	0	339	0	3
2026-02-12	16:02:26.550	-0.84	78.225	42.595	0.685884	-0.436028	0.130296	0.1605	0.879	-0.213	0	339	0	3
2026-02-12	16:02:26.570	-10.57	80.22	36.015	0.671976	-0.578036	0.147132	0.174	0.888	-0.2175	0	339	0	3
2026-02-12	16:02:26.590	-6.965	79.94	32.795	0.623664	-0.634644	0.138836	0.1965	0.894	-0.2265	0	339	0	3
2026-02-12	16:02:26.610	0.42	77.735	27.965	0.589504	-0.629276	0.167628	0.2115	0.8955	-0.2355	0	338	22	3
2026-02-12	16:02:26.630	6.58	74.13	24.605	0.551928	-0.630496	0.24278	0.228	0.9015	-0.2415	0	338	22	3
2026-02-12	16:02:26.650	10.045	70.42	21.49	0.51728	-0.60634	0.299144	0.2385	0.9015	-0.249	0	338	22	3
2026-02-12	16:02:26.670	8.925	66.01	16.59	0.460672	-0.536068	0.337208	0.2445	0.903	-0.2535	0	338	22	3
2026-02-12	16:02:26.690	2.065	60.34	9.625	0.440176	-0.44896	0.3904	0.255	0.9015	-0.2595	0	338	22	3
2026-02-12	16:02:26.710	-15.785	55.475	1.47	0.37576	-0.39528	0.4331	0.267	0.9045	-0.2655	0	338	22	3
2026-02-12	16:02:26.730	-45.815	47.32	-5.18	0.349652	-0.497272	0.435296	0.273	0.906	-0.264	0	338	22	3
2026-02-12	16:02:26.750	-68.11	39.34	-10.85	0.349408	-0.649284	0.437736	0.2775	0.909	-0.264	0	338	22	3
2026-02-12	16:02:26.770	-78.505	31.01	-13.86	0.458232	-0.900848	0.495076	0.2805	0.918	-0.258	0	338	22	3
2026-02-12	16:02:26.790	-68.285	25.515	-15.295	0.677344	-0.888404	0.544608	0.279	0.9255	-0.252	0	338	22	3
2026-02-12	16:02:26.810	-83.475	15.26	-15.435	0.988444	-1.117276	0.49166	0.2805	0.933	-0.246	0	339	10	3
2026-02-12	16:02:26.830	-97.545	18.2	-11.83	1.03334	-1.146068	0.493856	0.285	0.9345	-0.2355	0	339	10	3
2026-02-12	16:02:26.850	-97.125	21.14	-20.265	1.01016	-0.950868	0.315736	0.2835	0.9435	-0.225	0	339	10	3
2026-02-12	16:02:26.870	-86.555	8.4	-22.33	0.912072	-0.955748	-0.055876	0.2865	0.954	-0.21	0	339	10	3
2026-02-12	16:02:26.890	-38.78	-4.69	-32.865	0.77104	-0.661728	-0.01952	0.285	0.9555	-0.1965	0	339	10	3
2026-02-12	16:02:26.910	-5.285	-17.15	-50.26	0.682468	-0.353556	0.077592	0.276	0.9585	-0.192	0	339	10	3
2026-02-12	16:02:26.930	-16.03	-28.49	-61.04	0.677344	-0.39284	0.089792	0.27	0.9585	-0.1875	0	339	10	3
2026-02-12	16:02:26.950	-26.285	-36.855	-63.77	0.680516	-0.581452	0.063196	0.255	0.9525	-0.186	0	339	10	3
2026-02-12	16:02:26.970	-30.31	-41.335	-63.91	0.685396	-0.623908	0.061488	0.237	0.9435	-0.1845	0	339	10	3
2026-02-12	16:02:26.990	-32.725	-46.655	-60.41	0.638548	-0.679052	-0.020008	0.2295	0.942	-0.1755	0	339	10	3
2026-02-12	16:02:27.010	-23.73	-48.265	-55.965	0.569984	-0.660752	-0.12444	0.219	0.936	-0.168	0	344	66	3
2026-02-12	16:02:27.030	-18.655	-52.115	-50.435	0.554856	-0.687104	-0.193492	0.2085	0.9375	-0.1605	0	344	66	3
2026-02-12	16:02:27.050	-12.25	-55.93	-46.55	0.559004	-0.72102	-0.195688	0.2025	0.9375	-0.153	0	344	66	3
2026-02-12	16:02:27.070	0.595	-57.75	-44.205	0.574864	-0.696864	-0.12322	0.1965	0.933	-0.1485	0	344	66	3
2026-02-12	16:02:27.090	11.55	-55.895	-41.825	0.60634	-0.65148	-0.04758	0.1845	0.927	-0.1425	0	344	66	3
2026-02-12	16:02:27.110	16.31	-52.745	-38.255	0.635376	-0.605364	-0.031232	0.1695	0.9195	-0.1365	0	344	66	3
2026-02-12	16:02:27.130	17.115	-48.685	-36.295	0.697352	-0.541436	-0.032208	0.1635	0.915	-0.1335	0	344	66	3
2026-02-12	16:02:27.150	12.74	-45.465	-35.42	0.723948	-0.503128	-0.060024	0.156	0.9105	-0.1305	0	344	66	3
2026-02-12	16:02:27.170	6.58	-44.1	-34.055	0.759816	-0.516792	-0.0915	0.1455	0.909	-0.129	0	344	66	3
2026-02-12	16:02:27.190	5.11	-42.805	-32.865	0.798368	-0.58682	-0.08906	0.138	0.9045	-0.1275	0	344	66	3
2026-02-12	16:02:27.210	9.765	-41.65	-30.695	0.847412	-0.655628	-0.057584	0.1305	0.9015	-0.123	0	346	81	3
2026-02-12	16:02:27.230	17.045	-40.775	-28.91	0.863272	-0.633668	-0.06466	0.1245	0.8955	-0.1185	0	346	81	3
2026-02-12	16:02:27.250	21.875	-40.565	-28.805	0.859368	-0.580964	-0.085888	0.12	0.8895	-0.1125	0	346	81	3
2026-02-12	16:02:27.270	22.4	-42.385	-29.47	0.856928	-0.558516	-0.103212	0.114	0.8895	-0.105	0	346	81	3
2026-02-12	16:02:27.290	24.71	-44.065	-32.06	0.83082	-0.546316	-0.126392	0.108	0.882	-0.102	0	346	81	3
2026-02-12	16:02:27.310	27.09	-45.395	-34.58	0.811544	-0.594384	-0.13298	0.1065	0.876	-0.1065	0	346	81	3
2026-02-12	16:02:27.330	33.04	-46.34	-36.015	0.7869	-0.660996	-0.13542	0.102	0.873	-0.1005	0	346	81	3
2026-02-12	16:02:27.350	40.775	-46.865	-37.31	0.749324	-0.6588	-0.130784	0.0945	0.8685	-0.0975	0	346	81	3
2026-02-12	16:02:27.370	43.12	-47.425	-38.045	0.7259	-0.678564	-0.120536	0.09	0.861	-0.096	0	346	81	3
2026-02-12	16:02:27.390	43.855	-46.27	-39.445	0.743712	-0.704672	-0.082472	0.0885	0.852	-0.0975	0	346	81	3
2026-02-12	16:02:27.410	41.545	-41.055	-40.74	0.829844	-0.760548	0.003416	0.0855	0.8475	-0.1005	0	344	58	3
2026-02-12	16:02:27.430	34.58	-34.16	-38.325	0.942084	-0.823744	0.061	0.078	0.84	-0.099	0	344	58	3
2026-02-12	16:02:27.450	24.535	-25.025	-32.515	1.089948	-0.856928	0.018056	0.069	0.8325	-0.0975	0	344	58	3
2026-02-12	16:02:27.470	16.835	-15.435	-23.695	1.183644	-0.872788	-0.152256	0.0645	0.8295	-0.096	0	344	58	3
2026-02-12	16:02:27.490	22.365	-6.825	-19.425	1.244888	-0.80886	-0.293288	0.06	0.825	-0.0915	0	344	58	3
2026-02-12	16:02:27.510	36.645	0.805	-20.615	1.31638	-0.716872	-0.250344	0.0555	0.822	-0.096	0	344	58	3
2026-02-12	16:02:27.530	45.78	8.715	-19.11	1.359568	-0.551928	-0.161528	0.054	0.822	-0.099	0	344	58	3
2026-02-12	16:02:27.550	40.81	17.185	-16.59	1.375184	-0.382592	-0.137616	0.0555	0.816	-0.102	0	344	58	3
2026-02-12	16:02:27.570	28.56	23.94	-10.605	1.353224	-0.328912	-0.185196	0.0555	0.81	-0.1125	0	344	58	3
2026-02-12	16:02:27.590	28.875	28.98	0.91	1.352248	-0.282552	-0.16592	0.0555	0.8115	-0.117	0	344	58	3
2026-02-12	16:02:27.610	34.335	35.42	21.105	1.299056	-0.284748	-0.093208	0.0585	0.813	-0.117	0	338	18	3
2026-02-12	16:02:27.630	47.845	41.58	42.91	1.197552	-0.298656	-0.122488	0.0585	0.813	-0.117	0	338	18	3
2026-02-12	16:02:27.650	63.49	44.555	56.035	1.129476	-0.326228	-0.149572	0.0645	0.8145	-0.132	0	338	18	3
2026-02-12	16:02:27.670	65.45	47.075	67.165	1.064328	-0.3172	-0.125416	0.0765	0.813	-0.15	0	338	18	3
2026-02-12	16:02:27.690	57.225	52.955	72.695	0.944768	-0.280356	-0.102968	0.0855	0.8175	-0.1635	0	338	18	3
2026-02-12	16:02:27.710	41.02	56.56	74.655	0.814716	-0.26718	-0.074176	0.0945	0.825	-0.174	0	338	18	3
2026-02-12	16:02:27.730	24.57	61.285	73.045	0.703208	-0.286944	-0.030012	0.1095	0.831	-0.1785	0	338	18	3
2026-02-12	16:02:27.750	10.99	65.905	71.89	0.610976	-0.390156	-0.006588	0.123	0.8355	-0.1875	0	338	18	3
2026-02-12	16:02:27.770	8.75	71.505	69.72	0.569496	-0.41358	0.049532	0.132	0.84	-0.1965	0	338	18	3
2026-02-12	16:02:27.790	10.29	75.11	67.76	0.559736	-0.410164	0.084912	0.144	0.8535	-0.2055	0	338	18	3
2026-02-12	16:02:27.810	11.83	77.175	63.455	0.559736	-0.41968	0.1037	0.1545	0.8625	-0.2145	0	335	16	3
2026-02-12	16:02:27.830	17.78	77.315	57.365	0.594872	-0.414556	0.125904	0.1635	0.8595	-0.2145	0	335	16	3
2026-02-12	16:02:27.850	19.845	77.315	50.085	0.5978	-0.36234	0.18178	0.183	0.864	-0.2265	0	335	16	3
2026-02-12	16:02:27.870	9.8	75.915	43.015	0.628056	-0.423584	0.22936	0.207	0.867	-0.246	0	335	16	3
2026-02-12	16:02:27.890	1.82	75.075	38.92	0.610488	-0.5429	0.269376	0.219	0.8685	-0.252	0	335	16	3
2026-02-12	16:02:27.910	3.605	73.185	34.72	0.594872	-0.576084	0.292556	0.234	0.876	-0.258	0	335	16	3
2026-02-12	16:02:27.930	4.235	68.635	32.165	0.554124	-0.623176	0.300608	0.2415	0.8775	-0.2715	0	335	16	3
2026-02-12	16:02:27.950	2.94	61.355	30.24	0.566568	-0.656116	0.324276	0.2505	0.8715	-0.276	0	335	16	3
2026-02-12	16:02:27.970	7.735	56.945	26.11	0.466772	-0.58682	0.357216	0.264	0.8745	-0.279	0	335	16	3
2026-02-12	16:02:27.990	7.56	48.405	21.245	0.461892	-0.52582	0.406504	0.279	0.8835	-0.288	0	335	16	3
2026-02-12	16:02:28.010	4.06	41.44	14.105	0.393572	-0.455304	0.441396	0.2865	0.8835	-0.2895	0	334	7	3
2026-02-12	16:02:28.030	-12.355	33.355	7.035	0.357948	-0.4026	0.437492	0.288	0.885	-0.2865	0	334	7	3
2026-02-12	16:02:28.050	-53.2	20.405	-2.24	0.334036	-0.467504	0.486292	0.294	0.885	-0.2895	0	334	7	3
2026-02-12	16:02:28.070	-78.33	13.3	-7.245	0.346968	-0.539484	0.51362	0.297	0.8895	-0.285	0	334	7	3
2026-02-12	16:02:28.090	-95.41	9.38	-12.075	0.397964	-0.67832	0.508008	0.297	0.9015	-0.2745	0	334	7	3
2026-02-12	16:02:28.110	-93.065	8.225	-15.925	0.614148	-0.936472	0.519232	0.297	0.9075	-0.261	0	334	7	3
2026-02-12	16:02:28.130	-71.54	11.375	-10.92	0.982588	-1.168028	0.569008	0.297	0.9105	-0.2505	0	334	7	3
2026-02-12	16:02:28.150	-82.355	21.63	11.865	1.339316	-1.547448	0.505812	0.297	0.918	-0.243	0	334	7	3
2026-02-12	16:02:28.170	-75.635	28.84	5.005	1.079944	-0.88816	0.302072	0.3015	0.924	-0.2355	0	334	7	3
2026-02-12	16:02:28.190	-55.86	19.355	-20.755	0.827648	-0.494832	-0.065636	0.3015	0.9315	-0.225	0	334	7	3
2026-02-12	16:02:28.210	-77.385	10.185	-36.4	0.72346	-0.53192	0.10736	0.2955	0.939	-0.2175	0	338	54	3
2026-02-12	16:02:28.230	-73.955	11.48	-65.695	0.725168	-0.31354	0.336476	0.2955	0.942	-0.2175	0	338	54	3
2026-02-12	16:02:28.250	-95.62	6.79	-88.795	0.790804	-0.376492	0.184464	0.2925	0.9405	-0.207	0	338	54	3
2026-02-12	16:02:28.270	-100.205	5.705	-91.77	0.839604	-0.937936	-0.043676	0.2925	0.9405	-0.207	0	338	54	3
2026-02-12	16:02:28.290	-82.425	2.695	-81.095	0.793976	-0.966972	-0.142496	0.273	0.939	-0.189	0	338	54	3
2026-02-12	16:02:28.310	-64.155	-7.49	-68.11	0.735172	-0.872788	-0.175924	0.2445	0.9435	-0.162	0	338	54	3
2026-02-12	16:02:28.330	-40.355	-17.535	-56	0.62708	-0.67344	-0.16348	0.237	0.945	-0.1515	0	338	54	3
2026-02-12	16:02:28.350	-28.56	-25.2	-45.08	0.561688	-0.633912	-0.110776	0.231	0.945	-0.1455	0	338	54	3
2026-02-12	16:02:28.370	-20.475	-29.54	-38.255	0.514108	-0.629276	-0.040748	0.2205	0.945	-0.1395	0	338	54	3
2026-02-12	16:02:28.390	-10.29	-29.995	-33.355	0.49776	-0.644404	0.031232	0.2145	0.9435	-0.1365	0	338	54	3
2026-02-12	16:02:28.410	-1.19	-26.88	-29.645	0.49654	-0.587552	0.070028	0.21	0.945	-0.135	0	347	104	3
2026-02-12	16:02:28.430	0.56	-22.785	-26.67	0.53802	-0.540216	0.041968	0.21	0.945	-0.1335	0	347	104	3
2026-02-12	16:02:28.450	-2.485	-19.74	-25.97	0.591212	-0.518256	-0.030744	0.204	0.936	-0.126	0	347	104	3
2026-02-12	16:02:28.470	-7.07	-20.055	-24.955	0.661728	-0.524112	-0.066612	0.2055	0.936	-0.1245	0	347	104	3
2026-02-12	16:02:28.490	-7.91	-22.295	-24.675	0.727364	-0.528504	-0.051484	0.1995	0.9315	-0.126	0	347	104	3
2026-02-12	16:02:28.510	-5.215	-25.2	-24.115	0.773724	-0.57218	-0.032452	0.1935	0.924	-0.1215	0	347	104	3
2026-02-12	16:02:28.530	1.61	-28.56	-23.275	0.806908	-0.619272	0.001708	0.183	0.921	-0.114	0	347	104	3
2026-02-12	16:02:28.550	7.7	-30.8	-22.085	0.838384	-0.683688	0.020984	0.177	0.924	-0.1155	0	347	104	3
2026-02-12	16:02:28.570	14.98	-32.305	-21.07	0.850584	-0.6832	-0.002684	0.174	0.924	-0.1155	0	347	104	3
2026-02-12	16:02:28.590	18.655	-34.51	-21.875	0.854488	-0.644648	-0.038064	0.168	0.9195	-0.1125	0	347	104	3
2026-02-12	16:02:28.610	18.935	-36.925	-25.375	0.836432	-0.60268	-0.067832	0.168	0.915	-0.1125	0	352	106	3
2026-02-12	16:02:28.630	20.125	-38.465	-30.415	0.803736	-0.633668	-0.077104	0.1605	0.915	-0.108	0	352	106	3
2026-02-12	16:02:28.650	21.945	-39.445	-32.69	0.772504	-0.691496	-0.076372	0.1515	0.915	-0.102	0	352	106	3
2026-02-12	16:02:28.670	26.425	-39.655	-33.74	0.739564	-0.704184	-0.076372	0.15	0.9075	-0.102	0	352	106	3
2026-02-12	16:02:28.690	33.985	-40.88	-35.315	0.682468	-0.680028	-0.09857599	0.15	0.8985	-0.108	0	352	106	3
2026-02-12	16:02:28.710	35.77	-41.965	-36.61	0.679784	-0.689056	-0.09467199	0.141	0.8955	-0.1065	0	352	106	3
2026-02-12	16:02:28.730	38.605	-43.05	-38.57	0.707356	-0.677344	-0.078568	0.1305	0.8865	-0.108	0	352	106	3
2026-02-12	16:02:28.750	40.74	-42.525	-41.895	0.7564	-0.681248	-0.042212	0.123	0.882	-0.1065	0	352	106	3
2026-02-12	16:02:28.770	40.145	-41.44	-45.115	0.873032	-0.704672	-0.000488	0.117	0.876	-0.1035	0	352	106	3
2026-02-12	16:02:28.790	36.4	-40.46	-45.395	1.051396	-0.78812	0.014152	0.1095	0.8655	-0.1065	0	352	106	3
2026-02-12	16:02:28.810	33.495	-38.08	-41.195	1.185596	-0.872544	-0.0793	0.1005	0.8565	-0.1095	0	352	77	3
2026-02-12	16:02:28.830	41.335	-35.84	-35.56	1.235372	-0.961604	-0.26962	0.0945	0.8505	-0.105	0	352	77	3
2026-02-12	16:02:28.850	57.715	-33.25	-33.11	1.310768	-0.88816	-0.207644	0.09	0.8505	-0.1005	0	352	77	3
2026-02-12	16:02:28.870	72.485	-24.01	-33.565	1.384212	-0.67832	-0.053924	0.087	0.84	-0.105	0	352	77	3
2026-02-12	16:02:28.890	61.145	-9.835	-23.695	1.449848	-0.569008	-0.065148	0.0765	0.84	-0.114	0	352	77	3
2026-02-12	16:02:28.910	50.68	2.73	-10.465	1.406904	-0.39894	-0.214476	0.0765	0.84	-0.114	0	352	77	3
2026-02-12	16:02:28.930	52.36	10.605	3.955	1.369328	-0.277916	-0.172264	0.075	0.8295	-0.114	0	352	77	3
2026-02-12	16:02:28.950	52.29	18.34	21.49	1.319796	-0.188612	-0.050752	0.078	0.816	-0.123	0	352	77	3
2026-02-12	16:02:28.970	49.35	25.76	41.965	1.237812	-0.24156	-0.033428	0.0855	0.813	-0.1305	0	352	77	3
2026-02-12	16:02:28.990	54.53	32.2	59.99	1.140212	-0.351848	-0.113704	0.0915	0.813	-0.1425	0	352	77	3
2026-02-12	16:02:29.010	67.725	38.465	70.105	1.03822	-0.305488	-0.11956	0.0975	0.8175	-0.156	0	349	36	3
2026-02-12	16:02:29.030	75.53	40.495	74.69	0.912072	-0.19764	-0.09394	0.105	0.8235	-0.162	0	349	36	3
2026-02-12	16:02:29.050	66.5	41.93	71.54	0.75884	-0.117364	-0.022204	0.1095	0.828	-0.165	0	349	36	3
2026-02-12	16:02:29.070	48.195	41.895	64.575	0.671976	-0.153232	0.08418	0.1335	0.828	-0.1815	0	349	36	3
2026-02-12	16:02:29.090	33.11	46.795	57.365	0.541924	-0.267424	0.115168	0.132	0.8325	-0.1905	0	349	36	3
2026-02-12	16:02:29.110	29.33	49.595	50.19	0.498004	-0.329156	0.088084	0.1425	0.8415	-0.195	0	349	36	3
2026-02-12	16:02:29.130	30.905	50.155	43.26	0.505324	-0.382104	0.04636	0.153	0.843	-0.2025	0	349	36	3
2026-02-12	16:02:29.150	32.375	49.98	39.83	0.543144	-0.448472	0.050752	0.1665	0.8415	-0.213	0	349	36	3
2026-02-12	16:02:29.170	35.21	49.14	38.675	0.615124	-0.529968	0.065148	0.171	0.843	-0.222	0	349	36	3
2026-02-12	16:02:29.190	36.435	49	40.145	0.686128	-0.564616	0.112728	0.1785	0.84	-0.231	0	349	36	3
2026-02-12	16:02:29.210	33.95	49.945	41.44	0.71736	-0.582184	0.189832	0.195	0.8385	-0.2415	0	348	9	3
2026-02-12	16:02:29.230	31.605	49.455	43.505	0.715652	-0.56364	0.212524	0.21	0.8445	-0.246	0	348	9	3
2026-02-12	16:02:29.250	24.99	48.51	43.19	0.697596	-0.601216	0.218868	0.213	0.8475	-0.243	0	348	9	3
2026-02-12	16:02:29.270	22.96	47.425	41.72	0.664412	-0.613416	0.248636	0.2175	0.84	-0.255	0	348	9	3
2026-02-12	16:02:29.290	23.135	46.97	38.045	0.596092	-0.580964	0.270596	0.231	0.84	-0.276	0	348	9	3
2026-02-12	16:02:29.310	15.89	44.66	34.125	0.55144	-0.554612	0.329644	0.2355	0.8445	-0.273	0	348	9	3
2026-02-12	16:02:29.330	3.99	42.21	26.81	0.482632	-0.5124	0.390644	0.2475	0.846	-0.279	0	348	9	3
2026-02-12	16:02:29.350	-2.52	38.465	19.495	0.451644	-0.450424	0.405528	0.255	0.846	-0.282	0	348	9	3
2026-02-12	16:02:29.370	-15.575	34.615	12.39	0.416996	-0.367952	0.434564	0.267	0.846	-0.2835	0	348	9	3
2026-02-12	16:02:29.390	-36.085	29.645	4.76	0.432368	-0.380152	0.4636	0.276	0.849	-0.282	0	348	9	3
2026-02-12	16:02:29.410	-58.17	25.27	-0.805	0.423584	-0.455792	0.457012	0.2865	0.852	-0.2805	0	348	28	3
2026-02-12	16:02:29.430	-73.955	21.035	-5.39	0.443104	-0.52948	0.464576	0.285	0.858	-0.276	0	348	28	3
2026-02-12	16:02:29.450	-85.785	17.885	-9.905	0.48068	-0.64172	0.44896	0.2835	0.8685	-0.2685	0	348	28	3
2026-02-12	16:02:29.470	-82.635	14.035	-14.385	0.64294	-0.779824	0.419924	0.2895	0.873	-0.264	0	348	28	3
2026-02-12	16:02:29.490	-68.915	12.67	-13.825	0.97112	-1.101416	0.47092	0.2895	0.882	-0.264	0	348	28	3
2026-02-12	16:02:29.510	-61.88	21.07	3.185	1.345416	-1.592344	0.41602	0.276	0.894	-0.2505	0	348	28	3
2026-02-12	16:02:29.530	-54.88	23.205	15.54	1.11264	-1.018456	0.365756	0.288	0.891	-0.2385	0	348	28	3
2026-02-12	16:02:29.550	-80.115	20.58	-6.37	0.548024	-0.501908	0.352336	0.288	0.891	-0.2385	0	348	28	3
2026-02-12	16:02:29.570	-90.37	18.795	-25.69	0.617564	-0.53558	0.476288	0.2865	0.8985	-0.2295	0	348	28	3
2026-02-12	16:02:29.590	-87.08	18.165	-44.31	0.710284	-0.5978	0.370392	0.291	0.906	-0.2175	0	348	28	3
2026-02-12	16:02:29.610	-84.735	20.23	-56.91	0.7198	-0.705892	0.144448	0.2865	0.9135	-0.2085	0	352	90	3
2026-02-12	16:02:29.630	-73.955	16.31	-58.31	0.777628	-0.818132	-0.054656	0.279	0.915	-0.198	0	352	90	3
2026-02-12	16:02:29.650	-48.23	4.235	-54.285	0.7991	-0.743468	-0.1159	0.2745	0.912	-0.1905	0	352	90	3
2026-02-12	16:02:29.670	-33.635	-9.415	-50.505	0.776164	-0.615856	-0.091744	0.2685	0.915	-0.1875	0	352	90	3
2026-02-12	16:02:29.690	-34.51	-20.965	-46.55	0.740052	-0.58316	-0.097112	0.267	0.918	-0.183	0	352	90	3
2026-02-12	16:02:29.710	-34.965	-31.71	-42.595	0.69174	-0.662704	-0.069296	0.2565	0.915	-0.1755	0	352	90	3
2026-02-12	16:02:29.730	-29.47	-40.18	-38.15	0.649772	-0.740296	-0.010492	0.2535	0.915	-0.1695	0	352	90	3
2026-02-12	16:02:29.750	-15.085	-46.095	-34.755	0.604632	-0.707112	0.057584	0.2475	0.912	-0.1635	0	352	90	3
2026-02-12	16:02:29.770	-4.235	-48.16	-32.76	0.568764	-0.594628	0.091256	0.237	0.912	-0.1575	0	352	90	3
2026-02-12	16:02:29.790	-2.555	-46.97	-34.895	0.56852	-0.515084	0.039528	0.225	0.906	-0.1485	0	352	90	3
2026-02-12	16:02:29.810	-5.81	-45.57	-38.115	0.60634	-0.557296	-0.040504	0.2175	0.897	-0.147	0	355	132	3
2026-02-12	16:02:29.830	-7.035	-45.045	-39.865	0.645868	-0.608292	-0.10004	0.2115	0.8955	-0.144	0	355	132	3
2026-02-12	16:02:29.850	-3.29	-45.36	-40.04	0.685396	-0.598044	-0.115656	0.204	0.897	-0.1395	0	355	132	3
2026-02-12	16:02:29.870	1.785	-45.71	-39.06	0.701988	-0.571936	-0.091256	0.1995	0.8985	-0.1395	0	355	132	3
2026-02-12	16:02:29.890	5.18	-46.34	-36.575	0.697352	-0.593164	-0.079544	0.1875	0.9	-0.129	0	355	132	3
2026-02-12	16:02:29.910	11.935	-47.495	-33.705	0.723216	-0.598044	-0.054168	0.183	0.894	-0.123	0	355	132	3
2026-02-12	16:02:29.930	16.59	-47.845	-32.515	0.764696	-0.571936	-0.022448	0.1725	0.876	-0.1305	0	355	132	3
2026-02-12	16:02:29.950	18.13	-47.425	-31.675	0.797148	-0.546316	-0.018544	0.168	0.8805	-0.114	0	355	132	3
2026-02-12	16:02:29.970	17.15	-45.64	-31.955	0.844728	-0.50752	-0.0183	0.1635	0.864	-0.111	0	355	132	3
2026-02-12	16:02:29.990	12.95	-44.03	-33.635	0.860344	-0.492636	-0.050996	0.1575	0.8655	-0.1095	0	355	132	3
2026-02-12	16:02:30.010	9.555	-43.855	-35.98	0.854488	-0.554856	-0.087596	0.15	0.8655	-0.1095	0	354	124	3
2026-02-12	16:02:30.030	9.66	-43.89	-37.31	0.823012	-0.657336	-0.10858	0.1395	0.8595	-0.105	0	354	124	3
2026-02-12	16:02:30.050	16.135	-43.4	-38.185	0.800076	-0.728096	-0.126392	0.1305	0.858	-0.099	0	354	124	3
2026-02-12	16:02:30.070	25.095	-42.56	-38.885	0.782264	-0.765672	-0.113704	0.1275	0.8505	-0.0945	0	354	124	3
2026-02-12	16:02:30.090	31.885	-40.985	-39.445	0.764208	-0.777872	-0.081496	0.1275	0.8415	-0.0945	0	354	124	3
2026-02-12	16:02:30.110	35.665	-38.01	-41.72	0.789584	-0.722728	-0.071004	0.1215	0.834	-0.0885	0	354	124	3
2026-02-12	16:02:30.130	34.79	-34.405	-46.095	0.887428	-0.681004	-0.011468	0.117	0.831	-0.0975	0	354	124	3
2026-02-12	16:02:30.150	29.085	-30.38	-49.35	1.033096	-0.686128	-0.022204	0.111	0.828	-0.0915	0	354	124	3
2026-02-12	16:02:30.170	22.435	-27.965	-48.37	1.17852	-0.731024	-0.09857599	0.1005	0.822	-0.0915	0	354	124	3
2026-02-12	16:02:30.190	23.485	-25.06	-37.905	1.2261	-0.907192	-0.31232	0.1005	0.822	-0.0915	0	354	124	3
2026-02-12	16:02:30.210	44.38	-21.315	-35.175	1.267336	-0.782996	-0.227164	0.096	0.813	-0.0915	0	349	84	3
2026-02-12	16:02:30.230	57.33	-13.965	-35.35	1.29564	-0.586088	-0.112972	0.087	0.7965	-0.0915	0	349	84	3
2026-02-12	16:02:30.250	49.875	-6.02	-29.225	1.315892	-0.562664	-0.115656	0.084	0.789	-0.0915	0	349	84	3
2026-02-12	16:02:30.270	41.86	2.135	-21.07	1.290028	-0.457744	-0.15738	0.081	0.7815	-0.093	0	349	84	3
2026-02-12	16:02:30.290	40.565	8.68	-9.17	1.276364	-0.396012	-0.16714	0.078	0.7755	-0.096	0	349	84	3
2026-02-12	16:02:30.310	47.215	16.31	6.93	1.26758	-0.314028	-0.137128	0.0705	0.7785	-0.093	0	349	84	3
2026-02-12	16:02:30.330	53.375	24.01	26.18	1.303692	-0.289872	-0.081984	0.09	0.7785	-0.099	0	349	84	3
2026-02-12	16:02:30.350	62.755	31.745	48.02	1.270752	-0.294996	-0.111752	0.0915	0.7845	-0.105	0	349	84	3
2026-02-12	16:02:30.370	71.365	39.445	63.98	1.17974	-0.24522	-0.184952	0.0945	0.7815	-0.114	0	349	84	3
2026-02-12	16:02:30.390	66.15	43.855	73.815	0.994056	-0.180072	-0.18178	0.1005	0.792	-0.123	0	349	84	3
2026-02-12	16:02:30.410	50.925	49.35	74.585	0.80032	-0.224968	-0.08784	0.1095	0.792	-0.132	0	343	32	3
2026-02-12	16:02:30.430	35.49	54.67	71.61	0.687836	-0.284748	-0.035868	0.123	0.801	-0.147	0	343	32	3
2026-02-12	16:02:30.450	20.475	62.685	66.08	0.604388	-0.319884	-0.010492	0.1335	0.8055	-0.159	0	343	32	3
2026-02-12	16:02:30.470	22.995	71.365	59.43	0.542656	-0.416752	-0.015616	0.147	0.8025	-0.168	0	343	32	3
2026-02-12	16:02:30.490	48.02	77.035	53.095	0.519232	-0.36722	-0.014396	0.153	0.8055	-0.1695	0	343	32	3
2026-02-12	16:02:30.510	52.43	75.95	43.855	0.557784	-0.279624	0.021472	0.1605	0.8115	-0.1755	0	343	32	3
2026-02-12	16:02:30.530	35.98	74.55	34.16	0.656848	-0.257176	0.081008	0.1695	0.813	-0.1875	0	343	32	3
2026-02-12	16:02:30.550	15.295	74.83	27.685	0.763476	-0.288408	0.141032	0.1815	0.8085	-0.198	0	343	32	3
2026-02-12	16:02:30.570	-2.52	75.775	25.235	0.815448	-0.390644	0.210084	0.192	0.807	-0.2145	0	343	32	3
2026-02-12	16:02:30.590	-11.2	77.28	24.955	0.800808	-0.479948	0.250588	0.1995	0.8115	-0.222	0	343	32	3
2026-02-12	16:02:30.610	-13.825	75.635	29.33	0.674172	-0.696864	0.244732	0.213	0.828	-0.228	0	340	1	3
2026-02-12	16:02:30.630	-0.28	70.805	30.1	0.552172	-0.71492	0.230092	0.222	0.8295	-0.231	0	340	1	3
2026-02-12	16:02:30.650	11.34	63.175	29.05	0.450912	-0.654652	0.293288	0.234	0.831	-0.237	0	340	1	3
2026-02-12	16:02:30.670	13.65	56.42	25.725	0.371368	-0.523868	0.391132	0.2415	0.8295	-0.243	0	340	1	3
2026-02-12	16:02:30.690	5.215	49.63	19.53	0.348188	-0.447496	0.420412	0.246	0.828	-0.249	0	340	1	3
2026-02-12	16:02:30.710	-10.57	41.51	13.02	0.310856	-0.347456	0.403088	0.2565	0.834	-0.2475	0	340	1	3
2026-02-12	16:02:30.730	-34.51	31.675	5.985	0.355264	-0.365268	0.439932	0.258	0.8325	-0.2535	0	340	1	3
2026-02-12	16:02:30.750	-59.255	21.28	0.875	0.400648	-0.441152	0.456524	0.2655	0.8445	-0.2565	0	340	1	3
2026-02-12	16:02:30.770	-79.485	16.17	-4.48	0.385032	-0.476288	0.437492	0.273	0.8475	-0.2415	0	340	1	3
2026-02-12	16:02:30.790	-96.915	10.5	-12.39	0.479948	-0.586088	0.41114	0.2775	0.852	-0.237	0	340	1	3
2026-02-12	16:02:30.810	-96.88	8.68	-20.545	0.730048	-0.715164	0.402844	0.2805	0.8565	-0.2325	0	341	26	3
2026-02-12	16:02:30.830	-118.335	16.45	-11.76	1.501088	-1.423496	0.3904	0.2805	0.8565	-0.2325	0	341	26	3
2026-02-12	16:02:30.850	-116.935	23.905	5.74	1.499868	-1.161684	0.173972	0.2775	0.87	-0.2145	0	341	26	3
2026-02-12	16:02:30.870	-101.535	17.885	-0.455	0.787632	-0.549976	0.087596	0.273	0.888	-0.192	0	341	26	3
2026-02-12	16:02:30.890	-97.58	12.075	-10.185	0.615124	-0.70272	0.427976	0.273	0.8955	-0.18	0	341	26	3
2026-02-12	16:02:30.910	-92.155	15.155	-25.06	0.579744	-0.57828	0.655384	0.276	0.9	-0.174	0	341	26	3
2026-02-12	16:02:30.930	-99.54	10.605	-42.91	0.614636	-0.443104	0.25254	0.2745	0.897	-0.1665	0	341	26	3
2026-02-12	16:02:30.950	-111.65	2.765	-51.135	0.652456	-0.71248	-0.028304	0.2655	0.906	-0.147	0	341	26	3
2026-02-12	16:02:30.970	-86.135	-1.61	-50.085	0.801296	-0.975268	-0.109556	0.261	0.9045	-0.144	0	341	26	3
2026-02-12	16:02:30.990	-38.99	-6.86	-46.41	0.843508	-0.819596	-0.11346	0.258	0.918	-0.1215	0	341	26	3
2026-02-12	16:02:31.010	5.565	-15.12	-49.735	0.795196	-0.593896	-0.188612	0.249	0.903	-0.1245	0	347	81	3
2026-02-12	16:02:31.030	23.345	-34.615	-45.815	0.745176	-0.571204	-0.181536	0.243	0.903	-0.123	0	347	81	3
2026-02-12	16:02:31.050	24.465	-48.37	-38.92	0.6954	-0.692716	-0.080032	0.2295	0.897	-0.1185	0	347	81	3
2026-02-12	16:02:31.070	34.895	-52.325	-33.915	0.631228	-0.65148	0.001708	0.213	0.8895	-0.1185	0	347	81	3
2026-02-12	16:02:31.090	33.39	-53.585	-30.275	0.60268	-0.571936	0.023424	0.2085	0.888	-0.1185	0	347	81	3
2026-02-12	16:02:31.110	22.89	-52.675	-27.23	0.60146	-0.5368	0.004148	0.207	0.8895	-0.114	0	347	81	3
2026-02-12	16:02:31.130	14.805	-49.875	-27.09	0.6222	-0.509472	-0.05124	0.2115	0.885	-0.1245	0	347	81	3
2026-02-12	16:02:31.150	9.1	-46.41	-27.965	0.646844	-0.508252	-0.12078	0.1905	0.8775	-0.1155	0	347	81	3
2026-02-12	16:02:31.170	6.825	-43.68	-28.735	0.671488	-0.534116	-0.15372	0.195	0.8745	-0.114	0	347	81	3
2026-02-12	16:02:31.190	7.805	-42.735	-28.21	0.693692	-0.531676	-0.136152	0.186	0.8685	-0.0975	0	347	81	3
2026-02-12	16:02:31.210	11.305	-42	-27.09	0.699792	-0.534116	-0.111264	0.174	0.8715	-0.0975	0	354	100	3
2026-02-12	16:02:31.230	15.575	-42.245	-24.535	0.7198	-0.550952	-0.083204	0.1755	0.864	-0.0915	0	354	100	3
2026-02-12	16:02:31.250	21.035	-43.085	-22.295	0.758352	-0.521916	-0.061732	0.171	0.8625	-0.105	0	354	100	3
2026-02-12	16:02:31.270	23.415	-43.925	-23.765	0.818864	-0.501176	-0.05246	0.1665	0.858	-0.099	0	354	100	3
2026-02-12	16:02:31.290	25.305	-43.19	-25.655	0.878888	-0.46482	-0.04026	0.159	0.852	-0.087	0	354	100	3
2026-02-12	16:02:31.310	23.52	-40.81	-29.995	0.934276	-0.427244	-0.030744	0.159	0.8475	-0.087	0	354	100	3
2026-02-12	16:02:31.330	16.52	-38.885	-34.16	0.972828	-0.483364	-0.077104	0.162	0.846	-0.093	0	354	100	3
2026-02-12	16:02:31.350	12.355	-38.465	-36.015	0.95526	-0.57828	-0.126392	0.1485	0.834	-0.078	0	354	100	3
2026-02-12	16:02:31.370	13.685	-38.78	-36.96	0.897188	-0.671732	-0.126148	0.138	0.849	-0.0795	0	354	100	3
2026-02-12	16:02:31.390	20.93	-38.5	-36.68	0.839116	-0.722728	-0.080276	0.1365	0.828	-0.0765	0	354	100	3
2026-02-12	16:02:31.410	29.47	-37.275	-36.12	0.759084	-0.698572	-0.064416	0.135	0.8265	-0.081	0	356	78	3
2026-02-12	16:02:31.430	28.245	-35.77	-35.07	0.710528	-0.720288	-0.073444	0.1275	0.8205	-0.072	0	356	78	3
2026-02-12	16:02:31.450	26.425	-33.32	-35.35	0.699548	-0.71248	-0.0671	0.1215	0.8175	-0.075	0	356	78	3
2026-02-12	16:02:31.470	27.545	-30.905	-37.415	0.74176	-0.653676	-0.027572	0.1215	0.8175	-0.075	0	356	78	3
2026-02-12	16:02:31.490	24.08	-31.395	-39.165	0.833504	-0.610488	-0.005368	0.1125	0.81	-0.0705	0	356	78	3
2026-02-12	16:02:31.510	25.27	-33.845	-43.4	0.955504	-0.590968	-0.044652	0.1005	0.804	-0.0675	0	356	78	3
2026-02-12	16:02:31.530	23.205	-36.785	-44.485	1.138016	-0.740296	-0.130052	0.096	0.8055	-0.069	0	356	78	3
2026-02-12	16:02:31.550	30.275	-38.675	-42.49	1.303936	-0.897676	-0.275964	0.093	0.7935	-0.057	0	356	78	3
2026-02-12	16:02:31.570	49.21	-37.765	-41.09	1.409832	-0.856196	-0.298168	0.0855	0.789	-0.057	0	356	78	3
2026-02-12	16:02:31.590	64.855	-29.61	-40.53	1.392996	-0.669048	-0.235704	0.0885	0.7815	-0.054	0	356	78	3
2026-02-12	16:02:31.610	62.615	-19.005	-35.56	1.382992	-0.49532	-0.203984	0.084	0.768	-0.045	0	352	36	3
2026-02-12	16:02:31.630	44.555	-10.5	-25.9	1.355664	-0.426024	-0.253272	0.0795	0.771	-0.0585	0	352	36	3
2026-02-12	16:02:31.650	33.32	-2.66	-10.92	1.341268	-0.349896	-0.298412	0.075	0.762	-0.0615	0	352	36	3
2026-02-12	16:02:31.670	33.075	15.365	14.63	1.318576	-0.22082	-0.176412	0.0735	0.765	-0.063	0	352	36	3
2026-02-12	16:02:31.690	29.89	35.21	42.63	1.264652	-0.190564	-0.122244	0.0765	0.768	-0.066	0	352	36	3
2026-02-12	16:02:31.710	29.33	49.245	61.11	1.171932	-0.26962	-0.202276	0.0825	0.771	-0.0675	0	352	36	3
2026-02-12	16:02:31.730	32.935	57.54	74.9	1.088972	-0.301828	-0.257908	0.087	0.7695	-0.066	0	352	36	3
2026-02-12	16:02:31.750	33.04	61.635	82.915	0.935252	-0.28304	-0.225456	0.09	0.7785	-0.0765	0	352	36	3
2026-02-12	16:02:31.770	26.11	62.475	86.03	0.812032	-0.18788	-0.116876	0.108	0.789	-0.096	0	352	36	3
2026-02-12	16:02:31.790	5.635	64.085	86.135	0.681248	-0.23058	-0.043432	0.1005	0.7935	-0.102	0	352	36	3
2026-02-12	16:02:31.810	-7.21	67.55	83.86	0.62342	-0.356728	-0.001708	0.1215	0.801	-0.1035	0	348	12	3
2026-02-12	16:02:31.830	0.28	73.465	80.01	0.608292	-0.396988	0.00366	0.1335	0.816	-0.108	0	348	12	3
2026-02-12	16:02:31.850	7.035	76.79	77.07	0.5978	-0.429928	0.029768	0.138	0.8355	-0.1215	0	348	12	3
2026-02-12	16:02:31.870	9.31	78.47	72.695	0.60878	-0.457988	0.058804	0.1545	0.843	-0.126	0	348	12	3
2026-02-12	16:02:31.890	22.75	79.275	68.565	0.621224	-0.450424	0.037576	0.159	0.846	-0.1335	0	348	12	3
2026-02-12	16:02:31.910	25.935	78.19	65.73	0.620492	-0.429928	0.041724	0.1725	0.8565	-0.1425	0	348	12	3
2026-02-12	16:02:31.930	23.415	75.985	62.265	0.598288	-0.44774	0.074176	0.1935	0.8625	-0.1575	0	348	12	3
2026-02-12	16:02:31.950	22.505	71.645	58.24	0.560712	-0.454816	0.142252	0.1995	0.858	-0.165	0	348	12	3
2026-02-12	16:02:31.970	19.18	68.705	50.855	0.532896	-0.467748	0.20008	0.2145	0.8595	-0.174	0	348	12	3
2026-02-12	16:02:31.990	17.045	65.625	42.7	0.529724	-0.542656	0.253272	0.2235	0.8625	-0.1815	0	348	12	3
2026-02-12	16:02:32.010	12.495	60.62	36.925	0.519964	-0.643916	0.28304	0.2385	0.873	-0.186	0	346	34	2
2026-02-12	16:02:32.030	9.695	54.25	32.55	0.541924	-0.733952	0.286456	0.249	0.882	-0.1905	0	346	34	2
2026-02-12	16:02:32.050	10.885	47.74	27.44	0.56242	-0.702232	0.335012	0.252	0.879	-0.195	0	346	34	2
2026-02-12	16:02:32.070	14.105	40.88	22.89	0.554368	-0.6405	0.346236	0.2685	0.882	-0.204	0	346	34	2
2026-02-12	16:02:32.090	13.965	34.895	15.05	0.499956	-0.500688	0.40016	0.276	0.882	-0.207	0	346	34	2
2026-02-12	16:02:32.110	-8.435	24.99	-0.525	0.449936	-0.346968	0.430904	0.276	0.882	-0.207	0	346	34	2
2026-02-12	16:02:32.130	-35.56	17.36	-10.185	0.414312	-0.393816	0.43066	0.27	0.882	-0.2085	0	346	34	2
2026-02-12	16:02:32.150	-61.39	10.64	-18.095	0.411628	-0.514108	0.427976	0.2655	0.8835	-0.2115	0	346	34	2
2026-02-12	16:02:32.170	-81.48	5.46	-23.275	0.432124	-0.643672	0.402112	0.276	0.879	-0.2055	0	346	34	2
2026-02-12	16:02:32.190	-83.58	2.66	-26.145	0.59536	-0.755424	0.35746	0.2715	0.897	-0.186	0	346	34	2
2026-02-12	16:02:32.210	-80.08	-4.025	-22.89	0.984052	-1.111176	0.261324	0.258	0.8895	-0.1815	0	346	0	3
2026-02-12	16:02:32.230	-75.32	0.805	-4.095	1.340292	-1.502064	0.49166	0.2745	0.906	-0.174	0	346	0	3
2026-02-12	16:02:32.250	-75.145	12.075	0.385	1.08702	-1.0004	0.383812	0.264	0.909	-0.165	0	346	0	3
2026-02-12	16:02:32.270	-92.05	15.435	-12.635	0.911828	-0.8479	0.040992	0.2655	0.9105	-0.153	0	346	0	3
2026-02-12	16:02:32.290	-86.275	8.05	-19.985	0.814472	-0.80032	0.1647	0.2595	0.915	-0.1455	0	346	0	3
2026-02-12	16:02:32.310	-68.11	9.485	-47.565	0.711504	-0.532652	0.26962	0.258	0.921	-0.129	0	346	0	3
2026-02-12	16:02:32.330	-82.285	10.255	-62.335	0.693936	-0.654652	0.071736	0.2505	0.9195	-0.1245	0	346	0	3
2026-02-12	16:02:32.350	-66.29	6.965	-63.665	0.741272	-0.796904	-0.027572	0.2445	0.9195	-0.12	0	346	0	3
2026-02-12	16:02:32.370	-38.745	-0.14	-59.045	0.717848	-0.765672	-0.0488	0.228	0.918	-0.102	0	346	0	3
2026-02-12	16:02:32.390	-20.615	-12.215	-54.145	0.704672	-0.623664	-0.104432	0.2235	0.9255	-0.1005	0	346	0	3
2026-02-12	16:02:32.410	-17.815	-20.86	-50.715	0.653432	-0.576816	-0.134688	0.222	0.909	-0.0975	0	350	58	3
2026-02-12	16:02:32.430	-18.795	-29.61	-47.075	0.625616	-0.624396	-0.116144	0.2145	0.918	-0.0855	0	350	58	3
2026-02-12	16:02:32.450	-15.575	-36.085	-41.755	0.559492	-0.690276	-0.070028	0.195	0.9105	-0.0885	0	350	58	3
2026-02-12	16:02:32.470	-5.32	-40.81	-38.36	0.535336	-0.673196	-0.02928	0.18	0.909	-0.084	0	350	58	3
2026-02-12	16:02:32.490	4.445	-43.015	-35.35	0.52704	-0.61488	0.003172	0.195	0.903	-0.078	0	350	58	3
2026-02-12	16:02:32.510	9.52	-43.05	-34.335	0.546804	-0.543632	0.016836	0.183	0.8955	-0.0675	0	350	58	3
2026-02-12	16:02:32.530	9.555	-42.07	-34.37	0.598532	-0.51484	-0.024156	0.171	0.9	-0.0645	0	350	58	3
2026-02-12	16:02:32.550	7.035	-40.81	-35.875	0.654408	-0.470676	-0.046604	0.165	0.891	-0.06	0	350	58	3
2026-02-12	16:02:32.570	2.975	-40.32	-36.75	0.703452	-0.460916	-0.050264	0.159	0.8835	-0.057	0	350	58	3
2026-02-12	16:02:32.590	-1.365	-40.425	-35.595	0.706136	-0.522404	-0.068076	0.1605	0.885	-0.0585	0	350	58	3
2026-02-12	16:02:32.610	0.875	-42.7	-33.6	0.753716	-0.574864	-0.08052	0.162	0.885	-0.051	0	353	79	3
2026-02-12	16:02:32.630	9.695	-45.36	-34.405	0.796172	-0.544364	-0.063196	0.138	0.879	-0.039	0	353	79	3
2026-02-12	16:02:32.650	17.71	-47.67	-36.96	0.857904	-0.54046	-0.046848	0.1365	0.8775	-0.039	0	353	79	3
2026-02-12	16:02:32.670	22.855	-49.56	-39.06	0.915976	-0.52826	-0.03172	0.135	0.873	-0.027	0	353	79	3
2026-02-12	16:02:32.690	23.275	-49.805	-41.72	0.934276	-0.551196	-0.070516	0.1215	0.8715	-0.039	0	353	79	3
2026-02-12	16:02:32.710	20.965	-50.575	-43.26	0.929396	-0.571204	-0.140056	0.123	0.858	-0.024	0	353	79	3
2026-02-12	16:02:32.730	18.445	-52.115	-42.84	0.881084	-0.635376	-0.184952	0.1215	0.8565	-0.0165	0	353	79	3
2026-02-12	16:02:32.750	22.47	-51.94	-38.85	0.788608	-0.70882	-0.104432	0.102	0.849	-0.0255	0	353	79	3
2026-02-12	16:02:32.770	29.575	-48.475	-34.685	0.73444	-0.714676	-0.073688	0.102	0.849	-0.0255	0	353	79	3
2026-02-12	16:02:32.790	32.48	-43.925	-29.26	0.695156	-0.691008	-0.071736	0.0945	0.8415	-0.0075	0	353	79	3
2026-02-12	16:02:32.810	32.585	-39.27	-25.97	0.686616	-0.644404	-0.051972	0.102	0.8385	-0.0015	0	349	62	3
2026-02-12	16:02:32.830	30.975	-33.355	-24.955	0.692716	-0.60512	-0.00976	0.0975	0.834	-0.0075	0	349	62	3
2026-02-12	16:02:32.850	29.085	-26.775	-23.625	0.71126	-0.590968	0.005612	0.0885	0.837	-0.003	0	349	62	3
2026-02-12	16:02:32.870	23.73	-21.56	-22.785	0.762744	-0.608292	-0.03294	0.075	0.834	0.003	0	349	62	3
2026-02-12	16:02:32.890	24.99	-18.655	-25.865	0.857416	-0.60756	-0.093208	0.084	0.8295	0.015	0	349	62	3
2026-02-12	16:02:32.910	27.335	-17.64	-32.55	1.003328	-0.624152	-0.09638	0.075	0.8295	0.009	0	349	62	3
2026-02-12	16:02:32.930	28	-15.89	-40.075	1.174616	-0.642452	-0.104432	0.0795	0.8205	0.0075	0	349	62	3
2026-02-12	16:02:32.950	21.49	-14.98	-45.15	1.343464	-0.658068	-0.210328	0.0705	0.8235	0.006	0	349	62	3
2026-02-12	16:02:32.970	11.2	-14.245	-43.68	1.431548	-0.769088	-0.257176	0.0645	0.816	0.0105	0	349	62	3
2026-02-12	16:02:32.990	12.6	-8.05	-38.57	1.373964	-0.818132	-0.218136	0.0585	0.8085	0.015	0	349	62	3
2026-02-12	16:02:33.010	18.41	-0.315	-33.32	1.369084	-0.767868	-0.188612	0.0615	0.81	0.0165	0	341	27	3
2026-02-12	16:02:33.030	21.105	7.42	-29.015	1.335656	-0.60024	-0.21472	0.06	0.8115	0.0135	0	341	27	3
2026-02-12	16:02:33.050	19.11	14.455	-25.585	1.280756	-0.436028	-0.216672	0.0585	0.81	0.0045	0	341	27	3
2026-02-12	16:02:33.070	11.655	20.44	-16.94	1.204384	-0.35868	-0.201788	0.0465	0.81	0.003	0	341	27	3
2026-02-12	16:02:33.090	14.245	25.585	-2.205	1.131184	-0.303536	-0.161528	0.039	0.804	0.0045	0	341	27	3
2026-02-12	16:02:33.110	24.15	30.66	14.805	1.0675	-0.270596	-0.17446	0.0435	0.8175	0	0	341	27	3
2026-02-12	16:02:33.130	35.49	32.69	32.235	1.022116	-0.267424	-0.167384	0.048	0.825	-0.0075	0	341	27	3
2026-02-12	16:02:33.150	48.965	35.875	45.885	0.986248	-0.263276	-0.092476	0.0555	0.8205	-0.018	0	341	27	3
2026-02-12	16:02:33.170	56.56	44.975	57.33	0.913292	-0.2562	-0.039772	0.0435	0.8355	-0.033	0	341	27	3
2026-02-12	16:02:33.190	43.575	54.95	66.185	0.855952	-0.301096	-0.032208	0.0615	0.837	-0.0495	0	341	27	3
2026-02-12	16:02:33.210	22.435	62.545	72.485	0.77104	-0.357216	-0.022204	0.0705	0.855	-0.063	0	334	15	3
2026-02-12	16:02:33.230	12.145	65.625	76.055	0.645868	-0.322324	-0.077836	0.078	0.8625	-0.0765	0	334	15	3
2026-02-12	16:02:33.250	10.08	62.615	75.46	0.578768	-0.254492	-0.085644	0.0915	0.8775	-0.0885	0	334	15	3
2026-02-12	16:02:33.270	8.505	58.38	73.5	0.578036	-0.255224	-0.03294	0.1035	0.8835	-0.0915	0	334	15	3
2026-02-12	16:02:33.290	5.74	54.915	71.435	0.61	-0.256688	0.050508	0.111	0.8895	-0.111	0	334	15	3
2026-02-12	16:02:33.310	3.57	52.78	70.14	0.631228	-0.340136	0.096136	0.1245	0.906	-0.117	0	334	15	3
2026-02-12	16:02:33.330	10.01	51.38	66.885	0.652456	-0.333792	0.071736	0.135	0.9135	-0.1275	0	334	15	3
2026-02-12	16:02:33.350	15.645	49.875	62.475	0.648308	-0.33794	0.049776	0.1515	0.9225	-0.1365	0	334	15	3
2026-02-12	16:02:33.370	13.685	47.11	58.835	0.648796	-0.351604	0.059048	0.159	0.927	-0.141	0	334	15	3
2026-02-12	16:02:33.390	1.75	44.03	52.64	0.633424	-0.444812	0.138348	0.165	0.9465	-0.159	0	334	15	3
2026-02-12	16:02:33.410	-2.1	41.965	48.65	0.608048	-0.494832	0.158844	0.1815	0.948	-0.156	0	328	37	3
2026-02-12	16:02:33.430	-6.405	40.145	44.45	0.564616	-0.5429	0.173728	0.189	0.942	-0.1635	0	328	37	3
2026-02-12	16:02:33.450	-10.22	38.185	38.535	0.53436	-0.5734	0.200568	0.2085	0.9435	-0.1665	0	328	37	3
2026-02-12	16:02:33.470	-14.175	36.435	32.725	0.511912	-0.595848	0.223748	0.204	0.9555	-0.168	0	328	37	3
2026-02-12	16:02:33.490	-17.885	34.93	25.865	0.49532	-0.571448	0.259372	0.2175	0.9585	-0.1725	0	328	37	3
2026-02-12	16:02:33.510	-24.85	33.845	18.69	0.468724	-0.548512	0.281576	0.228	0.9735	-0.165	0	328	37	3
2026-02-12	16:02:33.530	-34.895	32.025	11.62	0.427	-0.50996	0.298412	0.24	0.966	-0.1695	0	328	37	3
2026-02-12	16:02:33.550	-47.81	28.805	4.69	0.39894	-0.496052	0.2989	0.234	0.9705	-0.168	0	328	37	3
2026-02-12	16:02:33.570	-61.04	25.025	-2.065	0.389668	-0.523136	0.300608	0.2445	0.981	-0.1695	0	328	37	3
2026-02-12	16:02:33.590	-74.725	21.42	-8.61	0.394304	-0.578524	0.347944	0.246	0.984	-0.1545	0	328	37	3
2026-02-12	16:02:33.610	-82.285	19.775	-12.18	0.4392	-0.730048	0.415776	0.246	0.981	-0.147	0	325	13	2
2026-02-12	16:02:33.630	-73.885	19.635	-11.69	0.489708	-0.83692	0.403088	0.246	0.9945	-0.1335	0	325	13	2
2026-02-12	16:02:33.650	-54.18	18.025	-7.35	0.58072	-0.882792	0.325496	0.2535	1.005	-0.1305	0	325	13	2
2026-02-12	16:02:33.670	-34.265	15.05	0.805	0.73444	-0.997716	0.308172	0.2385	0.999	-0.126	0	325	13	2
2026-02-12	16:02:33.690	-14.245	13.37	12.565	0.884012	-1.009428	0.282308	0.2475	1.002	-0.12	0	325	13	2
2026-02-12	16:02:33.710	-15.505	13.615	24.78	0.998448	-1.157292	0.3355	0.2535	1.008	-0.123	0	325	13	2
2026-02-12	16:02:33.730	-26.74	20.125	36.19	0.935496	-1.181936	0.4026	0.2505	1.008	-0.12	0	325	13	2
2026-02-12	16:02:33.750	-37.975	26.88	43.155	0.855464	-1.246596	0.43798	0.27	1.017	-0.132	0	325	13	2
2026-02-12	16:02:33.770	-28.595	30.765	38.885	0.867176	-1.12362	0.310856	0.2745	1.0275	-0.1305	0	325	13	2
2026-02-12	16:02:33.790	-14.245	31.745	28.245	0.917684	-1.034804	0.151036	0.285	1.0305	-0.126	0	325	13	2
2026-02-12	16:02:33.810	17.115	27.125	14.735	1.0187	-0.884744	-0.030256	0.2985	1.0365	-0.132	0	327	46	3
2026-02-12	16:02:33.830	23.1	15.505	8.33	0.80764	-0.366488	-0.05246	0.2985	1.0365	-0.132	0	327	46	3
2026-02-12	16:02:33.850	-12.88	12.46	-2.695	0.549244	-0.333304	0.163724	0.3	1.032	-0.1485	0	327	46	3
2026-02-12	16:02:33.870	-27.02	7.42	-15.785	0.421388	-0.308904	0.128588	0.3015	1.032	-0.1455	0	327	46	3
2026-02-12	16:02:33.890	-22.155	-0.84	-31.01	0.367952	-0.319152	-0.04392	0.297	1.029	-0.1485	0	327	46	3
2026-02-12	16:02:33.910	-18.795	-11.515	-42.595	0.42944	-0.432124	-0.091012	0.285	1.029	-0.147	0	327	46	3
2026-02-12	16:02:33.930	-24.325	-22.295	-42.7	0.517036	-0.765428	-0.05612	0.2775	1.032	-0.1485	0	327	46	3
2026-02-12	16:02:33.950	-12.6	-30.1	-33.985	0.617564	-1.077504	-0.03172	0.2625	1.0245	-0.144	0	327	46	3
2026-02-12	16:02:33.970	21.28	-35.805	-25.515	0.671	-1.014552	-0.063196	0.27	1.0395	-0.1425	0	327	46	3
2026-02-12	16:02:33.990	43.75	-40.88	-23.03	0.705404	-0.803004	-0.086132	0.258	1.026	-0.141	0	327	46	3
2026-02-12	16:02:34.010	37.52	-46.025	-23.345	0.741028	-0.681736	-0.071492	0.243	1.0185	-0.1485	0	334	88	3
2026-02-12	16:02:34.030	21.14	-48.335	-29.47	0.759816	-0.641964	-0.037332	0.243	1.0185	-0.1485	0	334	88	3
2026-02-12	16:02:34.050	16.275	-49.07	-33.81	0.731512	-0.659532	-0.03904	0.228	1.0065	-0.1605	0	334	88	3
2026-02-12	16:02:34.070	19.11	-50.015	-35.84	0.719068	-0.633424	-0.033428	0.2265	1.0035	-0.159	0	334	88	3
2026-02-12	16:02:34.090	22.96	-50.82	-36.12	0.709308	-0.590236	-0.027816	0.201	1.0005	-0.1545	0	334	88	3
2026-02-12	16:02:34.110	22.785	-51.03	-35.945	0.701988	-0.590236	-0.021472	0.1905	1.002	-0.1515	0	334	88	3
2026-02-12	16:02:34.130	19.915	-50.155	-35.49	0.72346	-0.615368	-0.010248	0.1785	0.987	-0.1605	0	334	88	3
2026-02-12	16:02:34.150	18.515	-48.16	-35.805	0.730536	-0.630008	-0.012688	0.174	0.9795	-0.1575	0	334	88	3
2026-02-12	16:02:34.170	19.32	-46.305	-37.555	0.74176	-0.606828	-0.021472	0.171	0.975	-0.156	0	334	88	3
2026-02-12	16:02:34.190	18.9	-45.5	-39.095	0.751032	-0.648064	-0.02684	0.1545	0.9675	-0.159	0	334	88	3
2026-02-12	16:02:34.210	18.69	-44.94	-39.41	0.756156	-0.66002	-0.026596	0.1365	0.969	-0.156	0	339	87	3
2026-02-12	16:02:34.230	19.845	-42.875	-37.8	0.752496	-0.675148	-0.010248	0.135	0.951	-0.1515	0	339	87	3
2026-02-12	16:02:34.250	21.84	-39.76	-34.44	0.72712	-0.666852	-0.00244	0.135	0.951	-0.1515	0	339	87	3
2026-02-12	16:02:34.270	21.91	-36.54	-30.695	0.707112	-0.6893	0.000732	0.117	0.9375	-0.1515	0	339	87	3
2026-02-12	16:02:34.290	22.54	-32.235	-26.95	0.678076	-0.697596	-0.004636	0.1185	0.933	-0.1455	0	339	87	3
2026-02-12	16:02:34.310	24.465	-28.07	-22.4	0.65392	-0.682468	-0.015616	0.1035	0.924	-0.147	0	339	87	3
2026-02-12	16:02:34.330	24.815	-24.43	-18.865	0.613416	-0.6771	-0.039528	0.0945	0.9225	-0.141	0	339	87	3
2026-02-12	16:02:34.350	22.82	-22.505	-15.33	0.619516	-0.724192	-0.075884	0.096	0.915	-0.144	0	339	87	3
2026-02-12	16:02:34.370	20.79	-21.595	-11.62	0.674172	-0.751032	-0.060268	0.069	0.8985	-0.144	0	339	87	3
2026-02-12	16:02:34.390	18.06	-18.97	-9.66	0.773236	-0.758596	0.007564	0.0795	0.909	-0.1395	0	339	87	3
2026-02-12	16:02:34.410	14.63	-12.88	-9.625	0.87596	-0.729072	0.036112	0.078	0.9	-0.1485	0	336	65	3
2026-02-12	16:02:34.430	11.83	-5.075	-13.02	0.962336	-0.699548	0.008052	0.078	0.9015	-0.1395	0	336	65	3
2026-02-12	16:02:34.450	12.215	1.785	-20.055	0.980392	-0.714432	-0.090036	0.078	0.9015	-0.1395	0	336	65	3
2026-02-12	16:02:34.470	19.355	4.165	-23.905	0.951356	-0.837408	-0.130052	0.078	0.9015	-0.1395	0	336	65	3
2026-02-12	16:02:34.490	26.25	4.76	-20.965	0.953552	-0.940376	-0.078324	0.072	0.891	-0.141	0	336	65	3
2026-02-12	16:02:34.510	34.72	6.825	-16.03	0.942328	-0.9333	-0.03294	0.0735	0.8835	-0.1515	0	336	65	3
2026-02-12	16:02:34.530	39.935	9.8	-10.57	0.931104	-0.89792	-0.04636	0.0555	0.8835	-0.159	0	336	65	3
2026-02-12	16:02:34.550	42	10.675	-2.905	0.909144	-0.941596	-0.1159	0.0645	0.8775	-0.1515	0	336	65	3
2026-02-12	16:02:34.570	52.08	8.4	7.98	0.899628	-0.89182	-0.123708	0.066	0.8685	-0.162	0	336	65	3
2026-02-12	16:02:34.590	70.525	4.27	19.88	0.87962	-0.6588	-0.059292	0.0675	0.8655	-0.1665	0	336	65	3
2026-02-12	16:02:34.610	83.265	-0.35	32.095	0.846192	-0.454084	-0.002196	0.066	0.855	-0.174	0	327	37	3
2026-02-12	16:02:34.630	87.43	-3.5	44.03	0.82228	-0.310612	0.026596	0.0765	0.8595	-0.1965	0	327	37	3
2026-02-12	16:02:34.650	88.69	-6.125	53.025	0.810324	-0.212036	0.005124	0.081	0.858	-0.195	0	327	37	3
2026-02-12	16:02:34.670	78.12	-10.92	62.58	0.864004	-0.332328	0.046604	0.0855	0.858	-0.1935	0	327	37	3
2026-02-12	16:02:34.690	65.17	-9.17	64.925	0.91378	-0.48068	0.111996	0.0855	0.858	-0.204	0	327	37	3
2026-02-12	16:02:34.710	54.25	-3.885	64.61	0.933544	-0.603168	0.108336	0.09	0.8625	-0.2115	0	327	37	3
2026-02-12	16:02:34.730	48.545	2.765	60.76	0.935496	-0.674904	0.072468	0.105	0.8565	-0.2175	0	327	37	3
2026-02-12	16:02:34.750	43.575	7.98	58.38	0.883524	-0.758352	0.035868	0.111	0.8625	-0.2205	0	327	37	3
2026-02-12	16:02:34.770	39.795	10.115	59.43	0.8174	-0.772992	0.090036	0.1215	0.867	-0.2295	0	327	37	3
2026-02-12	16:02:34.790	38.36	11.41	64.015	0.751276	-0.795196	0.155916	0.1275	0.8745	-0.24	0	327	37	3
2026-02-12	16:02:34.810	45.29	11.095	68.25	0.66856	-0.732244	0.150548	0.1395	0.8805	-0.2385	0	316	20	3
2026-02-12	16:02:34.830	53.375	6.3	70.035	0.615612	-0.6771	0.106628	0.144	0.8775	-0.243	0	316	20	3
2026-02-12	16:02:34.850	54.425	-1.4	67.585	0.52826	-0.598044	0.094428	0.1545	0.8805	-0.2415	0	316	20	3
2026-02-12	16:02:34.870	50.225	-10.395	61.53	0.484096	-0.55266	0.117852	0.162	0.8805	-0.24	0	316	20	3
2026-02-12	16:02:34.890	44.695	-21.595	50.015	0.479704	-0.626104	0.18422	0.1695	0.882	-0.24	0	316	20	3
2026-02-12	16:02:34.910	47.53	-27.475	44.66	0.477264	-0.651236	0.210328	0.174	0.8925	-0.2535	0	316	20	3
2026-02-12	16:02:34.930	49	-31.71	39.9	0.463112	-0.616588	0.213256	0.171	0.8835	-0.264	0	316	20	3
2026-02-12	16:02:34.950	45.5	-35.945	34.405	0.439932	-0.567544	0.195688	0.1845	0.8805	-0.264	0	316	20	3
2026-02-12	16:02:34.970	34.545	-40.53	28.315	0.427	-0.517036	0.207888	0.1845	0.876	-0.261	0	316	20	3
2026-02-12	16:02:34.990	15.155	-43.715	21.14	0.415044	-0.501908	0.277672	0.177	0.8745	-0.264	0	316	20	3
2026-02-12	16:02:35.010	1.4	-46.13	13.02	0.408944	-0.549976	0.271816	0.177	0.879	-0.264	0	305	31	3
2026-02-12	16:02:35.030	-0.385	-47.95	5.425	0.435784	-0.588284	0.293532	0.18	0.8805	-0.2535	0	305	31	3
2026-02-12	16:02:35.050	-1.82	-46.27	0.245	0.449204	-0.587796	0.354776	0.18	0.8865	-0.2445	0	305	31	3
2026-02-12	16:02:35.070	-6.895	-43.68	-1.995	0.461648	-0.698572	0.354532	0.171	0.8835	-0.2445	0	305	31	3
2026-02-12	16:02:35.090	-7.315	-43.19	-2.065	0.465308	-0.749568	0.236436	0.162	0.882	-0.2445	0	305	31	3
2026-02-12	16:02:35.110	-9.345	-43.89	-0.035	0.531676	-0.818864	0.216916	0.162	0.882	-0.2445	0	305	31	3
2026-02-12	16:02:35.130	-8.575	-44.52	2.87	0.62098	-0.940132	0.255224	0.1635	0.8865	-0.2265	0	305	31	3
2026-02-12	16:02:35.150	-0.175	-42.7	6.51	0.743712	-0.904508	0.329644	0.1605	0.8895	-0.2175	0	305	31	3
2026-02-12	16:02:35.170	-13.265	-34.58	14.49	0.798856	-1.146312	0.366488	0.1545	0.891	-0.2115	0	305	31	3
2026-02-12	16:02:35.190	-20.265	-19.845	23.975	0.841556	-1.369328	0.404552	0.1575	0.8835	-0.2025	0	305	31	3
2026-02-12	16:02:35.210	-6.02	-13.615	34.37	0.929396	-1.746552	0.174704	0.153	0.894	-0.1935	0	297	70	3
2026-02-12	16:02:35.230	67.235	-13.65	31.745	1.0736	-1.371036	-0.021472	0.153	0.8955	-0.192	0	297	70	3
2026-02-12	16:02:35.250	97.72	-16.87	17.675	1.167296	-0.731512	0.016836	0.1665	0.9	-0.2025	0	297	70	3
2026-02-12	16:02:35.270	62.51	-25.13	6.65	1.107028	-0.596336	0.020252	0.1575	0.891	-0.2235	0	297	70	3
2026-02-12	16:02:35.290	31.115	-31.955	-3.22	0.864004	-0.422364	0.038064	0.1575	0.8865	-0.2235	0	297	70	3
2026-02-12	16:02:35.310	-11.935	-36.085	-19.985	0.468236	-0.391132	0.050752	0.159	0.882	-0.225	0	297	70	3
2026-02-12	16:02:35.330	-17.045	-46.165	-31.71	0.256444	-0.43188	-0.042944	0.159	0.882	-0.225	0	297	70	3
2026-02-12	16:02:35.350	-13.055	-60.62	-38.465	0.194224	-0.578524	-0.099796	0.1455	0.8745	-0.2025	0	297	70	3
2026-02-12	16:02:35.370	-3.01	-76.65	-35.21	0.233996	-0.787876	-0.122976	0.135	0.8775	-0.192	0	297	70	3
2026-02-12	16:02:35.390	21.91	-91.595	-28.77	0.371368	-0.896212	-0.094916	0.1245	0.867	-0.1845	0	297	70	3
2026-02-12	16:02:35.410	47.005	-100.66	-25.025	0.52216	-0.896944	-0.06222	0.1185	0.8685	-0.1785	0	297	98	3
2026-02-12	16:02:35.430	65.66	-103.95	-27.265	0.69296	-0.820816	-0.053192	0.108	0.8655	-0.177	0	297	98	3
2026-02-12	16:02:35.450	71.155	-104.65	-31.955	0.805444	-0.672708	-0.109068	0.096	0.8505	-0.162	0	297	98	3
2026-02-12	16:02:35.470	56.665	-104.3	-38.85	0.897676	-0.594628	-0.19032	0.0825	0.8415	-0.1665	0	297	98	3
2026-02-12	16:02:35.490	38.815	-106.505	-40.705	0.943304	-0.684664	-0.232288	0.0825	0.8385	-0.1545	0	297	98	3
2026-02-12	16:02:35.510	39.655	-105.175	-41.195	0.86986	-0.684908	-0.207156	0.0705	0.8355	-0.1395	0	297	98	3
2026-02-12	16:02:35.530	59.08	-105.805	-41.825	0.7259	-0.616588	-0.167384	0.0585	0.8355	-0.135	0	297	98	3
2026-02-12	16:02:35.550	64.54	-103.845	-42.945	0.657824	-0.568032	-0.103212	0.045	0.8115	-0.126	0	297	98	3
2026-02-12	16:02:35.570	61.775	-99.75	-45.64	0.621712	-0.58438	-0.06344	0.0345	0.8025	-0.123	0	297	98	3
2026-02-12	16:02:35.590	54.81	-93.065	-49.175	0.626348	-0.63074	-0.084424	0.0315	0.801	-0.099	0	297	98	3
2026-02-12	16:02:35.610	48.09	-86.835	-51.52	0.659288	-0.680028	-0.123952	0.024	0.786	-0.0915	0	303	82	3
2026-02-12	16:02:35.630	44.31	-80.57	-52.57	0.691252	-0.70638	-0.152012	0.0195	0.7755	-0.09	0	303	82	3
2026-02-12	16:02:35.650	43.155	-74.725	-52.43	0.718336	-0.708332	-0.181292	0.0015	0.774	-0.075	0	303	82	3
2026-02-12	16:02:35.670	44.345	-69.3	-51.66	0.760304	-0.673196	-0.170068	-0.003	0.7635	-0.0645	0	303	82	3
2026-02-12	16:02:35.690	42.49	-63.245	-49.84	0.7869	-0.64416	-0.148108	-0.0045	0.7575	-0.066	0	303	82	3
2026-02-12	16:02:35.710	37.345	-56.455	-47.775	0.79178	-0.590968	-0.12932	-0.0075	0.7455	-0.06	0	303	82	3
2026-02-12	16:02:35.730	25.655	-47.39	-46.41	0.765428	-0.559004	-0.127124	-0.009	0.741	-0.0525	0	303	82	3
2026-02-12	16:02:35.750	12.32	-39.795	-44.765	0.709308	-0.615124	-0.146888	-0.009	0.741	-0.0525	0	303	82	3
2026-02-12	16:02:35.770	8.575	-35	-41.79	0.701988	-0.678564	-0.1342	-0.0285	0.7125	-0.03	0	303	82	3
2026-02-12	16:02:35.790	11.025	-30.31	-38.78	0.714432	-0.672708	-0.113704	-0.024	0.717	-0.048	0	303	82	3
2026-02-12	16:02:35.810	15.19	-27.265	-38.43	0.751764	-0.636108	-0.101504	-0.024	0.7065	-0.03	0	306	38	3
2026-02-12	16:02:35.830	20.02	-26.04	-41.755	0.821792	-0.557296	-0.09394	-0.033	0.7035	-0.024	0	306	38	3
2026-02-12	16:02:35.850	20.615	-25.69	-48.86	0.904508	-0.51362	-0.095892	-0.0285	0.6975	-0.021	0	306	38	3
2026-02-12	16:02:35.870	19.11	-26.075	-56.525	0.977464	-0.540704	-0.111264	-0.039	0.684	-0.018	0	306	38	3
2026-02-12	16:02:35.890	17.71	-26.18	-63.14	1.00772	-0.54168	-0.147376	-0.036	0.6705	-0.0195	0	306	38	3
2026-02-12	16:02:35.910	12.95	-24.57	-70.28	1.017724	-0.542412	-0.219112	-0.0375	0.669	-0.0195	0	306	38	3
2026-02-12	16:02:35.930	-1.96	-24.08	-77.315	1.129476	-0.53192	-0.369904	-0.042	0.6645	-0.012	0	306	38	3
2026-02-12	16:02:35.950	-16.415	-22.61	-85.295	1.31882	-0.801784	-0.499712	-0.045	0.66	-0.0045	0	306	38	3
2026-02-12	16:02:35.970	2.87	-18.235	-86.17	1.35054	-0.742736	-0.260104	-0.045	0.66	-0.0045	0	306	38	3
2026-02-12	16:02:35.990	15.575	-7.07	-82.075	1.296616	-0.559736	-0.051972	-0.0435	0.6165	-0.003	0	306	38	3
2026-02-12	16:02:36.010	5.18	7.35	-73.78	1.214632	-0.627324	-0.022448	-0.0525	0.5985	0	0	307	13	3
2026-02-12	16:02:36.030	-1.89	19.46	-59.43	1.211948	-0.790316	-0.089548	-0.0585	0.5805	-0.0015	0	307	13	3
2026-02-12	16:02:36.050	15.085	24.815	-45.955	1.25172	-0.487756	-0.134932	-0.0525	0.5715	-0.0165	0	307	13	3
2026-02-12	16:02:36.070	28.385	26.46	-33.74	1.289296	-0.311832	-0.221796	-0.0495	0.567	-0.0045	0	307	13	3
2026-02-12	16:02:36.090	40.11	29.82	-16.24	1.257332	-0.259372	-0.283284	-0.0495	0.5625	-0.0165	0	307	13	3
2026-02-12	16:02:36.110	55.09	31.78	5.32	1.22854	-0.086376	-0.326716	-0.048	0.555	-0.0165	0	307	13	3
2026-02-12	16:02:36.130	51.905	32.375	24.08	1.184376	0.004148	-0.328668	-0.0495	0.552	-0.0225	0	307	13	3
2026-02-12	16:02:36.150	50.33	32.585	38.36	1.160464	0.00366	-0.2867	-0.0495	0.558	-0.0315	0	307	13	3
2026-02-12	16:02:36.170	58.065	36.995	56.315	1.110932	-0.118828	-0.154696	-0.0465	0.561	-0.036	0	307	13	3
2026-02-12	16:02:36.190	52.01	42.805	67.865	1.087264	-0.185684	-0.119804	-0.051	0.5745	-0.045	0	307	13	3
2026-02-12	16:02:36.210	47.46	50.295	76.86	1.065548	-0.219112	-0.142984	-0.0405	0.576	-0.0585	0	308	62	3
2026-02-12	16:02:36.230	42.105	58.905	82.18	0.990396	-0.186904	-0.155672	-0.0465	0.5925	-0.0645	0	308	62	3
2026-02-12	16:02:36.250	35.105	62.51	86.065	0.945256	-0.162016	-0.14884	-0.042	0.6045	-0.075	0	308	62	3
2026-02-12	16:02:36.270	24.955	64.015	88.83	0.89304	-0.173484	-0.113216	-0.033	0.615	-0.0825	0	308	62	3
2026-02-12	16:02:36.290	21	68.32	88.235	0.801784	-0.156892	-0.057584	-0.03	0.6435	-0.093	0	308	62	3
2026-02-12	16:02:36.310	17.815	71.995	84.875	0.770064	-0.233752	-0.02196	-0.0285	0.645	-0.1155	0	308	62	3
2026-02-12	16:02:36.330	15.575	73.78	83.335	0.737612	-0.318908	-0.008784	-0.021	0.6555	-0.1185	0	308	62	3
2026-02-12	16:02:36.350	15.645	74.55	82.18	0.70516	-0.399672	-0.020496	-0.012	0.672	-0.1275	0	308	62	3
2026-02-12	16:02:36.370	10.955	74.06	80.815	0.660996	-0.452132	0.036844	-0.009	0.6765	-0.1335	0	308	62	3
2026-02-12	16:02:36.390	5.88	72.345	78.12	0.62708	-0.515084	0.104432	-0.009	0.6765	-0.1335	0	308	62	3
2026-02-12	16:02:36.410	14.63	70.175	72.87	0.628788	-0.462136	0.149084	0.009	0.705	-0.168	0	312	89	3
2026-02-12	16:02:36.430	20.475	66.255	67.305	0.628544	-0.4636	0.167872	0.0195	0.7155	-0.168	0	312	89	3
2026-02-12	16:02:36.450	22.505	59.01	62.79	0.640012	-0.540948	0.183488	0.045	0.7275	-0.1875	0	312	89	3
2026-02-12	16:02:36.470	29.225	50.89	58.73	0.609268	-0.563396	0.214476	0.048	0.7365	-0.198	0	312	89	3
2026-02-12	16:02:36.490	35.665	42.945	52.78	0.603656	-0.551928	0.274988	0.051	0.7455	-0.2055	0	312	89	3
2026-02-12	16:02:36.510	36.365	36.085	47.355	0.558516	-0.518256	0.316956	0.0645	0.738	-0.2205	0	312	89	3
2026-02-12	16:02:36.530	39.2	28.49	37.765	0.535824	-0.411384	0.337696	0.066	0.7425	-0.222	0	312	89	3
2026-02-12	16:02:36.550	28.07	21.455	28.595	0.499956	-0.40504	0.382348	0.069	0.75	-0.225	0	312	89	3
2026-02-12	16:02:36.570	13.93	14.84	20.335	0.467016	-0.407968	0.4331	0.0765	0.7545	-0.228	0	312	89	3
2026-02-12	16:02:36.590	-9.94	5.075	9.555	0.36478	-0.430416	0.421876	0.081	0.756	-0.2295	0	312	89	3
2026-02-12	16:02:36.610	-27.825	-1.82	4.13	0.342576	-0.496296	0.427244	0.081	0.756	-0.2295	0	317	62	2
2026-02-12	16:02:36.630	-50.855	-9.03	1.4	0.368684	-0.593896	0.432612	0.0855	0.7635	-0.2325	0	317	62	2
2026-02-12	16:02:36.650	-78.82	-15.96	1.61	0.43676	-0.73322	0.438468	0.0825	0.768	-0.2295	0	317	62	2
2026-02-12	16:02:36.670	-97.86	-19.74	4.305	0.550464	-0.932812	0.439932	0.0735	0.771	-0.222	0	317	62	2
2026-02-12	16:02:36.690	-103.04	-22.61	7.63	0.833992	-1.145092	0.439444	0.0765	0.7815	-0.207	0	317	62	2
2026-02-12	16:02:36.710	-106.26	-29.435	12.88	1.203408	-1.40666	0.334524	0.066	0.7845	-0.189	0	317	62	2
2026-02-12	16:02:36.730	-99.96	-29.505	19.215	1.25904	-1.3603	0.260348	0.0705	0.789	-0.1815	0	317	62	2
2026-02-12	16:02:36.750	-71.12	-26.915	12.32	1.114104	-0.927444	0.152256	0.0765	0.801	-0.174	0	317	62	2
2026-02-12	16:02:36.770	-40.215	-25.83	-2.66	0.883036	-0.293776	0.235948	0.078	0.8055	-0.168	0	317	62	2
2026-02-12	16:02:36.790	-50.47	-24.29	-25.585	0.658556	-0.280356	0.177144	0.072	0.816	-0.1605	0	317	62	2
2026-02-12	16:02:36.810	-17.395	-21.63	-50.925	0.673928	-0.590968	0.030012	0.0675	0.828	-0.159	0	327	10	3
2026-02-12	16:02:36.830	34.93	-22.05	-59.045	0.656604	-0.632936	0.025864	0.06	0.8085	-0.147	0	327	10	3
2026-02-12	16:02:36.850	64.33	-26.075	-60.83	0.656604	-0.543144	0.012688	0.0555	0.7995	-0.1515	0	327	10	3
2026-02-12	16:02:36.870	32.97	-39.865	-49.91	0.704184	-0.653432	-0.003416	0.051	0.783	-0.1545	0	327	10	3
2026-02-12	16:02:36.890	6.195	-49.91	-41.37	0.69052	-0.773724	-0.070272	0.0435	0.789	-0.1485	0	327	10	3
2026-02-12	16:02:36.910	9.87	-55.3	-37.94	0.658312	-0.684908	-0.11468	0.0315	0.768	-0.138	0	327	10	3
2026-02-12	16:02:36.930	6.195	-61.005	-36.785	0.684176	-0.601216	-0.112728	0.027	0.759	-0.1275	0	327	10	3
2026-02-12	16:02:36.950	3.605	-63.77	-40.215	0.669048	-0.584624	-0.063928	0.024	0.7605	-0.126	0	327	10	3
2026-02-12	16:02:36.970	8.54	-65.45	-43.435	0.668804	-0.593164	-0.030988	0.018	0.7575	-0.1245	0	327	10	3
2026-02-12	16:02:36.990	13.685	-65.87	-44.695	0.655872	-0.583892	-0.055632	0.0135	0.75	-0.114	0	327	10	3
2026-02-12	16:02:37.010	17.99	-66.815	-47.74	0.671976	-0.47214	-0.091256	0.015	0.747	-0.102	0	338	60	3
2026-02-12	16:02:37.030	16.485	-69.51	-51.1	0.700524	-0.440176	-0.094184	0.015	0.747	-0.102	0	338	60	3
2026-02-12	16:02:37.050	13.51	-72.275	-50.33	0.744688	-0.517524	-0.078324	-0.0045	0.726	-0.078	0	338	60	3
2026-02-12	16:02:37.070	21.245	-72.94	-48.58	0.745176	-0.476532	-0.055388	-0.018	0.7185	-0.0615	0	338	60	3
2026-02-12	16:02:37.090	27.195	-72.555	-49.21	0.75518	-0.391376	-0.040504	-0.0195	0.714	-0.0645	0	338	60	3
2026-02-12	16:02:37.110	24.325	-73.5	-48.335	0.801784	-0.45872	-0.058072	-0.0285	0.696	-0.0495	0	338	60	3
2026-02-12	16:02:37.130	23.345	-73.955	-46.025	0.855952	-0.522648	-0.078568	-0.03	0.6945	-0.0345	0	338	60	3
2026-02-12	16:02:37.150	26.495	-72.73	-43.12	0.889624	-0.5612	-0.09467199	-0.0285	0.687	-0.0315	0	338	60	3
2026-02-12	16:02:37.170	27.23	-70.14	-40.985	0.885964	-0.586576	-0.139324	-0.0315	0.675	-0.021	0	338	60	3
2026-02-12	16:02:37.190	30.135	-67.13	-40.425	0.842288	-0.66124	-0.181536	-0.0345	0.6705	-0.0135	0	338	60	3
2026-02-12	16:02:37.210	36.89	-63.63	-39.585	0.81252	-0.753472	-0.142252	-0.039	0.6675	-0.006	0	344	60	3
2026-02-12	16:02:37.230	45.045	-49.49	-39.83	0.833748	-0.839848	-0.044408	-0.0435	0.666	0.0015	0	344	60	3
2026-02-12	16:02:37.250	40.81	-34.58	-42.455	0.898164	-0.833504	-0.023668	-0.0435	0.666	0.0015	0	344	60	3
2026-02-12	16:02:37.270	27.3	-20.58	-45.395	1.01626	-0.790316	-0.105408	-0.0495	0.6435	0.0225	0	344	60	3
2026-02-12	16:02:37.290	15.05	-9.24	-46.725	1.1712	-0.7381	-0.175436	-0.051	0.63	0.027	0	344	60	3
2026-02-12	16:02:37.310	3.92	-0.175	-45.92	1.309792	-0.678564	-0.302316	-0.051	0.6285	0.0285	0	344	60	3
2026-02-12	16:02:37.330	2.73	8.785	-44.345	1.421544	-0.666364	-0.298168	-0.06	0.627	0.027	0	344	60	3
2026-02-12	16:02:37.350	7.63	19.775	-33.81	1.551596	-0.679296	-0.17934	-0.0555	0.621	0.027	0	344	60	3
2026-02-12	16:02:37.370	12.775	34.195	-18.06	1.6165	-0.535092	-0.057584	-0.0525	0.612	0.0225	0	344	60	3
2026-02-12	16:02:37.390	18.06	49.875	-3.22	1.635776	-0.34282	-0.0183	-0.0555	0.603	0.0105	0	344	60	3
2026-02-12	16:02:37.410	29.435	61.39	14.49	1.581608	-0.251564	-0.065148	-0.057	0.5985	0.006	0	346	26	3
2026-02-12	16:02:37.430	41.23	66.815	36.82	1.504016	-0.135176	-0.130296	-0.0525	0.5985	-0.0015	0	346	26	3
2026-02-12	16:02:37.450	47.04	68.88	70.875	1.339316	-0.2501	-0.262056	-0.0495	0.6	-0.015	0	346	26	3
2026-02-12	16:02:37.470	56.42	70.875	85.855	1.18218	-0.220088	-0.256932	-0.0465	0.6255	-0.036	0	346	26	3
2026-02-12	16:02:37.490	52.955	76.37	91.105	1.009184	-0.225456	-0.142008	-0.036	0.642	-0.051	0	346	26	3
2026-02-12	16:02:37.510	32.9	83.58	92.015	0.828624	-0.205204	-0.057584	-0.0375	0.645	-0.066	0	346	26	3
2026-02-12	16:02:37.530	8.085	92.575	89.985	0.64904	-0.292068	-0.060268	-0.027	0.6615	-0.084	0	346	26	3
2026-02-12	16:02:37.550	-8.085	97.16	86.345	0.541192	-0.351604	-0.084912	-0.0285	0.675	-0.0915	0	346	26	3
2026-02-12	16:02:37.570	-9.975	97.44	81.095	0.41968	-0.269376	-0.099796	-0.0195	0.6795	-0.105	0	346	26	3
2026-02-12	16:02:37.590	-0.735	95.095	71.435	0.388448	-0.294752	-0.061732	-0.012	0.696	-0.126	0	346	26	3
2026-02-12	16:02:37.610	12.635	93.03	63.665	0.420412	-0.301584	0.01464	-0.0075	0.7095	-0.1365	0	351	13	3
2026-02-12	16:02:37.630	10.57	92.33	56.98	0.453352	-0.27328	0.131028	0.003	0.7125	-0.1545	0	351	13	3
2026-02-12	16:02:37.650	-5.25	91.21	47.985	0.541192	-0.373564	0.23546	0.0135	0.723	-0.174	0	351	13	3
2026-02-12	16:02:37.670	-10.255	90.16	40.53	0.606584	-0.465552	0.274256	0.0165	0.7305	-0.1815	0	351	13	3
2026-02-12	16:02:37.690	-12.285	88.095	36.68	0.593408	-0.521672	0.324032	0.0465	0.738	-0.204	0	351	13	3
2026-02-12	16:02:37.710	-14.7	84.84	31.71	0.5429	-0.547048	0.348188	0.045	0.7455	-0.219	0	351	13	3
2026-02-12	16:02:37.730	-13.825	77.35	27.265	0.473848	-0.586576	0.371368	0.0645	0.75	-0.2295	0	351	13	3
2026-02-12	16:02:37.750	-12.285	68.18	22.155	0.390888	-0.562908	0.427976	0.0735	0.7605	-0.234	0	351	13	3
2026-02-12	16:02:37.770	-14.805	55.825	16.31	0.384788	-0.511668	0.496052	0.075	0.762	-0.2415	0	351	13	3
2026-02-12	16:02:37.790	-19.04	44.52	10.045	0.328668	-0.475312	0.49776	0.0795	0.759	-0.252	0	351	13	3
2026-02-12	16:02:37.810	-28.42	33.67	3.255	0.347456	-0.5124	0.49776	0.0855	0.7575	-0.2565	0	359	8	3
2026-02-12	16:02:37.830	-38.745	23.205	-3.15	0.366	-0.503372	0.514596	0.0945	0.765	-0.2625	0	359	8	3
2026-02-12	16:02:37.850	-52.92	14.385	-8.155	0.387472	-0.51362	0.547292	0.0945	0.771	-0.264	0	359	8	3
2026-02-12	16:02:37.870	-81.025	6.755	-8.96	0.517524	-0.646844	0.584868	0.087	0.7755	-0.261	0	359	8	3
2026-02-12	16:02:37.890	-109.76	0.91	-9.73	0.738832	-0.830576	0.620004	0.087	0.7755	-0.261	0	359	8	3
2026-02-12	16:02:37.910	-142.31	0.49	-8.68	0.899628	-1.228052	0.432612	0.099	0.789	-0.243	0	359	8	3
2026-02-12	16:02:37.930	-123.235	5.845	-15.925	0.819108	-1.210728	0.265472	0.096	0.8025	-0.228	0	359	8	3
2026-02-12	16:02:37.950	-86.415	4.165	-26.39	0.94672	-0.97478	0.072224	0.093	0.813	-0.222	0	359	8	3
2026-02-12	16:02:37.970	-47.985	-8.47	-35.49	0.842044	-0.60146	0.10004	0.096	0.8175	-0.2205	0	359	8	3
2026-02-12	16:02:37.990	-31.045	-19.915	-54.845	0.818864	-0.396744	0.030744	0.09	0.8175	-0.2175	0	359	8	3
2026-02-12	16:02:38.010	-36.68	-34.79	-67.62	0.8845	-0.506788	-0.058316	0.0855	0.819	-0.216	0	371	50	3
2026-02-12	16:02:38.030	-38.395	-37.17	-68.355	0.86498	-0.624396	-0.064416	0.0765	0.813	-0.2115	0	371	50	3
2026-02-12	16:02:38.050	-36.05	-44.625	-65.625	0.747372	-0.659044	-0.073932	0.063	0.807	-0.1995	0	371	50	3
2026-02-12	16:02:38.070	-30.1	-55.72	-62.055	0.668804	-0.74176	-0.106628	0.0495	0.7965	-0.189	0	371	50	3
2026-02-12	16:02:38.090	-0.595	-66.255	-55.195	0.583404	-0.806176	-0.1464	0.042	0.789	-0.1845	0	371	50	3
2026-02-12	16:02:38.110	15.155	-70.315	-50.085	0.575352	-0.814228	-0.12688	0.036	0.7785	-0.1665	0	371	50	3
2026-02-12	16:02:38.130	22.54	-71.085	-47.18	0.568276	-0.74664	-0.080032	0.018	0.774	-0.165	0	371	50	3
2026-02-12	16:02:38.150	24.64	-70.105	-46.97	0.580964	-0.62708	-0.033184	0.015	0.7635	-0.1515	0	371	50	3
2026-02-12	16:02:38.170	23.03	-65.835	-47.705	0.570716	-0.573156	-0.044896	0.006	0.7545	-0.147	0	371	50	3
2026-02-12	16:02:38.190	23.275	-62.755	-48.265	0.591456	-0.511668	-0.096868	-0.0015	0.7515	-0.144	0	371	50	3
2026-02-12	16:02:38.210	25.445	-61.95	-50.61	0.603656	-0.427732	-0.126148	-0.0075	0.744	-0.135	0	383	86	3
2026-02-12	16:02:38.230	24.395	-63.21	-52.22	0.642696	-0.415776	-0.11834	-0.012	0.735	-0.1275	0	383	86	3
2026-02-12	16:02:38.250	24.815	-64.54	-52.01	0.683688	-0.457988	-0.098332	-0.0225	0.723	-0.1215	0	383	86	3
2026-02-12	16:02:38.270	27.51	-65.52	-49.735	0.73932	-0.516792	-0.078568	-0.033	0.711	-0.1095	0	383	86	3
2026-02-12	16:02:38.290	31.605	-65.45	-47.25	0.83448	-0.510692	-0.055876	-0.0375	0.702	-0.1005	0	383	86	3
2026-02-12	16:02:38.310	29.4	-65.31	-44.695	0.923784	-0.510448	-0.06344	-0.039	0.6975	-0.099	0	383	86	3
2026-02-12	16:02:38.330	23.45	-65.625	-42.735	0.987468	-0.542168	-0.141764	-0.048	0.6855	-0.0765	0	383	86	3
2026-02-12	16:02:38.350	23.31	-66.815	-42.42	1.019188	-0.53558	-0.199104	-0.06	0.6645	-0.0675	0	383	86	3
2026-02-12	16:02:38.370	23.52	-68.285	-40.075	0.988444	-0.6405	-0.196664	-0.0555	0.6735	-0.06	0	383	86	3
2026-02-12	16:02:38.390	31.185	-66.64	-36.96	0.908656	-0.693936	-0.1342	-0.0585	0.6675	-0.0585	0	383	86	3
2026-02-12	16:02:38.410	40.425	-61.04	-32.095	0.836676	-0.685396	-0.06466	-0.06	0.657	-0.0465	0	387	73	3
2026-02-12	16:02:38.430	40.845	-51.695	-26.88	0.783972	-0.696864	-0.022204	-0.063	0.651	-0.0315	0	387	73	3
2026-02-12	16:02:38.450	37.555	-39.585	-23.135	0.75518	-0.687592	-0.009272	-0.066	0.6465	-0.021	0	387	73	3
2026-02-12	16:02:38.470	31.85	-26.6	-22.33	0.772748	-0.62952	-0.051728	-0.0675	0.639	-0.0135	0	387	73	3
2026-02-12	16:02:38.490	20.475	-14.875	-24.29	0.821304	-0.619272	-0.127856	-0.0705	0.633	-0.012	0	387	73	3
2026-02-12	16:02:38.510	7.035	-0.035	-32.76	0.94428	-0.62586	-0.181292	-0.075	0.633	-0.0105	0	387	73	3
2026-02-12	16:02:38.530	9.555	11.025	-38.675	1.036268	-0.684908	-0.143228	-0.075	0.633	-0.0105	0	387	73	3
2026-02-12	16:02:38.550	19.635	21.42	-41.755	1.163148	-0.669048	-0.108336	-0.0675	0.6105	-0.0135	0	387	73	3
2026-02-12	16:02:38.570	16.73	27.755	-39.2	1.309304	-0.68198	-0.19398	-0.0825	0.603	-0.0165	0	387	73	3
2026-02-12	16:02:38.590	11.725	32.41	-30.905	1.408124	-0.756888	-0.2074	-0.078	0.597	-0.027	0	387	73	3
2026-02-12	16:02:38.610	11.585	40.32	-18.095	1.452532	-0.754448	-0.061488	-0.0735	0.5895	-0.033	0	385	34	3
2026-02-12	16:02:38.630	13.16	51.695	-5.04	1.502308	-0.666608	-0.038552	-0.0705	0.582	-0.042	0	385	34	3
2026-02-12	16:02:38.650	16.1	62.615	6.405	1.488888	-0.50996	-0.0671	-0.075	0.5835	-0.048	0	385	34	3
2026-02-12	16:02:38.670	22.015	71.085	19.075	1.427156	-0.332572	-0.048556	-0.0735	0.582	-0.057	0	385	34	3
2026-02-12	16:02:38.690	28.84	78.715	33.11	1.343952	-0.2135	-0.069784	-0.066	0.576	-0.0735	0	385	34	3
2026-02-12	16:02:38.710	36.61	83.615	49.175	1.213412	-0.169336	-0.144448	-0.0555	0.579	-0.09	0	385	34	3
2026-02-12	16:02:38.730	37.415	81.025	67.445	1.087752	-0.188612	-0.193492	-0.051	0.5835	-0.096	0	385	34	3
2026-02-12	16:02:38.750	33.46	77.49	73.255	1.00894	-0.1891	-0.081496	-0.042	0.6	-0.1245	0	385	34	3
2026-02-12	16:02:38.770	23.695	77.945	73.36	0.92476	-0.212524	0.041724	-0.0465	0.6	-0.1425	0	385	34	3
2026-02-12	16:02:38.790	13.825	80.29	69.44	0.834236	-0.25132	0.046848	-0.033	0.6165	-0.1575	0	385	34	3
2026-02-12	16:02:38.810	5.6	82.39	62.44	0.762256	-0.302072	0.039528	-0.0255	0.621	-0.162	0	381	3	3
2026-02-12	16:02:38.830	-1.26	82.845	57.925	0.707844	-0.3477	0.053192	-0.0135	0.6225	-0.174	0	381	3	3
2026-02-12	16:02:38.850	-2.38	81.34	55.86	0.65514	-0.380396	0.05002	-0.0075	0.6255	-0.192	0	381	3	3
2026-02-12	16:02:38.870	1.75	77.84	55.825	0.632936	-0.409676	0.08418	0	0.6345	-0.2055	0	381	3	3
2026-02-12	16:02:38.890	7.28	75.285	56.28	0.587796	-0.404064	0.119316	0.0105	0.639	-0.213	0	381	3	3
2026-02-12	16:02:38.910	12.25	72.24	54.95	0.56852	-0.348432	0.144204	0.018	0.6465	-0.2265	0	381	3	3
2026-02-12	16:02:38.930	5.495	69.44	52.465	0.546316	-0.35868	0.216184	0.03	0.6555	-0.237	0	381	3	3
2026-02-12	16:02:38.950	-2.66	67.165	50.645	0.524844	-0.45872	0.255468	0.039	0.6585	-0.243	0	381	3	3
2026-02-12	16:02:38.970	-3.255	65.73	47.25	0.485316	-0.465308	0.294508	0.0465	0.6705	-0.2595	0	381	3	3
2026-02-12	16:02:38.990	-8.68	62.86	44.415	0.446276	-0.508496	0.346724	0.0615	0.6675	-0.252	0	381	3	3
2026-02-12	16:02:39.010	-7.875	58.135	43.05	0.43798	-0.559248	0.393084	0.072	0.6795	-0.2775	0	377	7	2
2026-02-12	16:02:39.030	6.405	50.68	39.76	0.419924	-0.475068	0.4453	0.081	0.681	-0.2805	0	377	7	2
2026-02-12	16:02:39.050	13.475	39.095	34.72	0.416264	-0.460916	0.425292	0.09	0.6855	-0.2835	0	377	7	2
2026-02-12	16:02:39.070	7.42	30.45	28.63	0.504104	-0.458232	0.493368	0.0915	0.687	-0.294	0	377	7	2
2026-02-12	16:02:39.090	-0.77	22.925	21.35	0.464088	-0.427976	0.493368	0.0945	0.687	-0.3	0	377	7	2
2026-02-12	16:02:39.110	-18.34	13.615	13.125	0.460916	-0.457012	0.494832	0.1005	0.69	-0.3	0	377	7	2
2026-02-12	16:02:39.130	-37.485	7.525	6.86	0.427976	-0.500688	0.513376	0.1065	0.6915	-0.3015	0	377	7	2
2026-02-12	16:02:39.150	-66.885	0.28	-0.595	0.401136	-0.523136	0.551684	0.1095	0.69	-0.3015	0	377	7	2
2026-02-12	16:02:39.170	-84.805	-1.4	-2.03	0.47092	-0.667584	0.588772	0.1095	0.69	-0.3015	0	377	7	2
2026-02-12	16:02:39.190	-102.865	-0.21	-0.245	0.505812	-0.707844	0.54412	0.114	0.723	-0.2955	0	377	7	2
2026-02-12	16:02:39.210	-126.84	-2.59	-8.085	0.6466	-0.821304	0.511912	0.105	0.7215	-0.2895	0	377	47	3
2026-02-12	16:02:39.230	-123.48	4.34	-18.62	0.977708	-1.292224	0.47458	0.105	0.7275	-0.285	0	377	47	3
2026-02-12	16:02:39.250	-80.045	17.465	-25.27	1.12118	-1.497672	0.276452	0.108	0.7395	-0.279	0	377	47	3
2026-02-12	16:02:39.270	-34.23	19.565	-33.11	1.27856	-0.985028	0.051484	0.1095	0.7455	-0.282	0	377	47	3
2026-02-12	16:02:39.290	-37.975	5.915	-33.95	1.041148	-0.561932	-0.066856	0.1035	0.747	-0.2805	0	377	47	3
2026-02-12	16:02:39.310	-58.065	-0.595	-48.16	0.764452	-0.323544	-0.008296	0.102	0.7455	-0.276	0	377	47	3
2026-02-12	16:02:39.330	-82.95	-9.835	-59.5	0.702964	-0.458964	0.063684	0.105	0.747	-0.273	0	377	47	3
2026-02-12	16:02:39.350	-76.37	-19.25	-64.82	0.660996	-0.643428	0.081496	0.102	0.7455	-0.2685	0	377	47	3
2026-02-12	16:02:39.370	-38.57	-29.225	-64.54	0.659044	-0.660508	0.061	0.099	0.7425	-0.267	0	377	47	3
2026-02-12	16:02:39.390	-33.705	-34.23	-57.995	0.649284	-0.715164	0.030744	0.084	0.7305	-0.264	0	377	47	3
2026-02-12	16:02:39.410	-29.295	-40.46	-49.63	0.635864	-0.762744	-0.039528	0.0825	0.7305	-0.252	0	381	113	3
2026-02-12	16:02:39.430	-15.015	-43.75	-44.065	0.581696	-0.737124	-0.083936	0.0795	0.729	-0.2475	0	381	113	3
2026-02-12	16:02:39.450	-8.05	-46.375	-40.95	0.580232	-0.709796	-0.08052	0.072	0.7215	-0.2415	0	381	113	3
2026-02-12	16:02:39.470	-4.375	-47.46	-39.795	0.605364	-0.677832	-0.057828	0.066	0.714	-0.2385	0	381	113	3
2026-02-12	16:02:39.490	-1.33	-46.83	-40.6	0.61	-0.616344	-0.05124	0.0615	0.708	-0.2385	0	381	113	3
2026-02-12	16:02:39.510	4.2	-46.795	-42.315	0.634644	-0.55388	-0.06832	0.0495	0.7005	-0.231	0	381	113	3
2026-02-12	16:02:39.530	11.445	-48.3	-45.29	0.66734	-0.475556	-0.083204	0.0405	0.696	-0.222	0	381	113	3
2026-02-12	16:02:39.550	13.755	-51.345	-47.32	0.73444	-0.423584	-0.062952	0.039	0.6885	-0.219	0	381	113	3
2026-02-12	16:02:39.570	15.19	-53.9	-48.23	0.78324	-0.439932	-0.050996	0.033	0.675	-0.2145	0	381	113	3
2026-02-12	16:02:39.590	16.03	-55.72	-46.55	0.809104	-0.450424	-0.015128	0.0285	0.669	-0.213	0	381	113	3
2026-02-12	16:02:39.610	12.705	-55.16	-45.15	0.847412	-0.476532	-0.001464	0.0195	0.6675	-0.1995	0	384	129	3
2026-02-12	16:02:39.630	9.59	-55.16	-41.51	0.88206	-0.52094	-0.027816	0.0135	0.6495	-0.195	0	384	129	3
2026-02-12	16:02:39.650	7.77	-55.335	-39.375	0.891088	-0.514352	-0.057096	0.009	0.6465	-0.189	0	384	129	3
2026-02-12	16:02:39.670	4.165	-56.28	-38.115	0.87596	-0.5612	-0.079788	0.0045	0.636	-0.18	0	384	129	3
2026-02-12	16:02:39.690	0	-56.63	-36.785	0.863272	-0.66978	-0.089548	-0.0015	0.6285	-0.1725	0	384	129	3
2026-02-12	16:02:39.710	4.445	-55.65	-36.225	0.816912	-0.711016	-0.064172	-0.006	0.6285	-0.162	0	384	129	3
2026-02-12	16:02:39.730	10.64	-51.065	-37.065	0.778848	-0.785436	-0.016104	-0.0075	0.6255	-0.153	0	384	129	3
2026-02-12	16:02:39.750	13.44	-44.555	-35.7	0.758596	-0.864004	0.009272	-0.0105	0.6165	-0.147	0	384	129	3
2026-02-12	16:02:39.770	16.45	-35.84	-32.9	0.776652	-0.857172	0.018056	-0.015	0.609	-0.1425	0	384	129	3
2026-02-12	16:02:39.790	12.285	-22.435	-33.145	0.833748	-0.707356	-0.061	-0.021	0.6015	-0.138	0	384	129	3
2026-02-12	16:02:39.810	3.08	-10.5	-35.945	0.948184	-0.628544	-0.148352	-0.024	0.597	-0.135	0	383	102	2
2026-02-12	16:02:39.830	-2.835	-1.05	-40.355	1.071648	-0.598532	-0.160796	-0.0285	0.5895	-0.1365	0	383	102	2
2026-02-12	16:02:39.850	-1.645	8.785	-43.505	1.232932	-0.593164	-0.18056	-0.0225	0.5865	-0.135	0	383	102	2
2026-02-12	16:02:39.870	11.445	17.115	-44.975	1.420568	-0.61244	-0.297924	-0.0195	0.57	-0.135	0	383	102	2
2026-02-12	16:02:39.890	23.38	22.785	-46.165	1.59332	-0.580476	-0.282064	-0.024	0.5565	-0.141	0	383	102	2
2026-02-12	16:02:39.910	5.32	30.345	-38.78	1.652124	-0.588772	-0.223748	-0.021	0.5505	-0.147	0	383	102	2
2026-02-12	16:02:39.930	-13.615	34.93	-26.845	1.617964	-0.396012	-0.061732	-0.018	0.5385	-0.15	0	383	102	2
2026-02-12	16:02:39.950	-28.49	40.705	-12.46	1.47498	-0.30988	0.030988	-0.0135	0.5235	-0.1545	0	383	102	2
2026-02-12	16:02:39.970	-19.635	45.885	2.24	1.337364	-0.441884	0.033916	-0.009	0.5205	-0.1605	0	383	102	2
2026-02-12	16:02:39.990	14.21	47.6	18.095	1.244888	-0.345992	-0.025376	-0.003	0.525	-0.168	0	383	102	2
2026-02-12	16:02:40.010	48.58	46.62	44.135	1.087508	-0.293532	-0.094916	0.003	0.525	-0.174	0	379	55	3
