yyyy-MM-dd	HH:mm:ss.fff	gyrX	gyrY	gyrZ	accX	accY	accZ	magX	magY	magZ	Marker	Energy	Angle	Classification
2026-02-12	16:02:08.810	-14.49	-38.36	2.17	0.732488	0.736392	-0.043676	-0.0795	-0.399	0.2895	0	27	41	2
2026-02-12	16:02:08.830	-16.065	-41.265	1.715	0.733952	0.734684	-0.058804	-0.0795	-0.3975	0.288	0	27	41	2
2026-02-12	16:02:08.850	-17.045	-44.065	1.19	0.713944	0.733708	-0.069784	-0.078	-0.3915	0.2865	0	27	41	2
2026-02-12	16:02:08.870	-18.515	-46.9	1.015	0.700768	0.739564	-0.061732	-0.0855	-0.3885	0.2805	0	27	41	2
2026-02-12	16:02:08.890	-20.685	-48.965	0.735	0.687836	0.745176	-0.05002	-0.0885	-0.393	0.2775	0	27	41	2
2026-02-12	16:02:08.910	-22.4	-50.82	0.245	0.678808	0.755668	-0.040016	-0.0825	-0.3975	0.2805	0	27	41	2
2026-02-12	16:02:08.930	-23.065	-52.08	-0.63	0.672708	0.760792	-0.026352	-0.0825	-0.4005	0.2835	0	27	41	2
2026-02-12	16:02:08.950	-24.5	-52.745	-1.505	0.659532	0.752252	-0.010736	-0.087	-0.399	0.2835	0	27	41	2
2026-02-12	16:02:08.970	-27.895	-51.835	-1.4	0.667828	0.743468	0.008784	-0.0885	-0.3945	0.2805	0	27	41	2
2026-02-12	16:02:08.990	-30.73	-50.4	-0.735	0.693936	0.726632	0.012688	-0.0885	-0.3945	0.2805	0	27	41	2
2026-02-12	16:02:09.010	-33.32	-48.09	0.735	0.708088	0.717848	-0.00854	-0.084	-0.399	0.279	0	26	29	3
2026-02-12	16:02:09.030	-35.245	-45.675	2.695	0.729804	0.723216	-0.044652	-0.084	-0.387	0.2835	0	26	29	3
2026-02-12	16:02:09.050	-36.4	-44.135	5.53	0.759572	0.712236	-0.061244	-0.0825	-0.3915	0.279	0	26	29	3
2026-02-12	16:02:09.070	-35.35	-41.825	8.435	0.778848	0.70272	-0.064904	-0.0825	-0.3915	0.2745	0	26	29	3
2026-02-12	16:02:09.090	-32.655	-38.045	10.78	0.780312	0.715408	-0.073444	-0.0855	-0.39	0.2715	0	26	29	3
2026-02-12	16:02:09.110	-29.96	-33.145	12.285	0.75152	0.737612	-0.077104	-0.0945	-0.393	0.2655	0	26	29	3
2026-02-12	16:02:09.130	-28.77	-28.56	13.055	0.72468	0.7381	-0.080764	-0.0945	-0.393	0.2655	0	26	29	3
2026-02-12	16:02:09.150	-28.14	-23.8	13.685	0.700768	0.743956	-0.07564	-0.0915	-0.393	0.267	0	26	29	3
2026-02-12	16:02:09.170	-27.16	-18.69	13.86	0.681736	0.74054	-0.079544	-0.093	-0.3915	0.2655	0	26	29	3
2026-02-12	16:02:09.190	-26.635	-13.37	13.405	0.659288	0.74176	-0.083204	-0.093	-0.39	0.2655	0	26	29	3
2026-02-12	16:02:09.210	-26.635	-8.645	12.46	0.651236	0.752496	-0.07808	-0.1005	-0.387	0.264	0	27	11	3
2026-02-12	16:02:09.230	-27.09	-4.935	11.41	0.653188	0.75274	-0.08662	-0.099	-0.381	0.2595	0	27	11	3
2026-02-12	16:02:09.250	-26.04	-2.38	10.43	0.663436	0.75152	-0.110288	-0.099	-0.3825	0.2535	0	27	11	3
2026-02-12	16:02:09.270	-23.8	-0.945	9.765	0.696864	0.747372	-0.13786	-0.108	-0.381	0.249	0	27	11	3
2026-02-12	16:02:09.290	-23.345	-1.05	9.24	0.712236	0.740296	-0.152744	-0.1095	-0.3795	0.246	0	27	11	3
2026-02-12	16:02:09.310	-23.275	-1.96	7.735	0.709308	0.7381	-0.156892	-0.1095	-0.3795	0.246	0	27	11	3
2026-02-12	16:02:09.330	-22.015	-3.605	5.74	0.706624	0.727608	-0.157624	-0.108	-0.3795	0.231	0	27	11	3
2026-02-12	16:02:09.350	-22.995	-6.86	5.495	0.726144	0.701988	-0.133224	-0.1155	-0.3765	0.231	0	27	11	3
2026-02-12	16:02:09.370	-24.01	-9.835	7	0.758352	0.697352	-0.10614	-0.123	-0.3735	0.2295	0	27	11	3
2026-02-12	16:02:09.390	-24.675	-12.18	10.08	0.793732	0.65514	-0.07198	-0.114	-0.3705	0.225	0	27	11	3
2026-02-12	16:02:09.410	-22.96	-11.655	11.27	0.76128	0.659776	-0.038308	-0.123	-0.3735	0.2325	0	29	11	3
2026-02-12	16:02:09.430	-23.905	-11.375	10.78	0.736636	0.639036	-0.005856	-0.12	-0.366	0.228	0	29	11	3
2026-02-12	16:02:09.450	-26.705	-11.83	9.205	0.708088	0.589748	0.007808	-0.123	-0.369	0.2205	0	29	11	3
2026-02-12	16:02:09.470	-29.12	-13.125	9.065	0.688568	0.554856	0.015616	-0.1185	-0.375	0.2205	0	29	11	3
2026-02-12	16:02:09.490	-29.855	-15.505	10.08	0.705892	0.584624	0.034648	-0.126	-0.366	0.225	0	29	11	3
2026-02-12	16:02:09.510	-33.425	-17.99	11.9	0.743224	0.615612	0.050264	-0.1305	-0.3585	0.213	0	29	11	3
2026-02-12	16:02:09.530	-37.87	-20.825	14.07	0.811544	0.646844	0.04026	-0.1275	-0.3675	0.2115	0	29	11	3
2026-02-12	16:02:09.550	-45.78	-21.91	15.96	0.882304	0.636108	0.005612	-0.129	-0.36	0.2115	0	29	11	3
2026-02-12	16:02:09.570	-53.095	-21.56	17.185	0.910608	0.589504	-0.031964	-0.129	-0.36	0.2115	0	29	11	3
2026-02-12	16:02:09.590	-53.9	-19.425	16.905	0.8845	0.573156	-0.033428	-0.1305	-0.3525	0.1995	0	29	11	3
2026-02-12	16:02:09.610	-57.19	-17.78	15.785	0.832772	0.585356	-0.013908	-0.132	-0.3465	0.1875	0	35	26	3
2026-02-12	16:02:09.630	-67.55	-17.5	14.455	0.788364	0.610976	0.004148	-0.1335	-0.3495	0.1845	0	35	26	3
2026-02-12	16:02:09.650	-73.22	-18.62	11.305	0.74542	0.519964	0.026108	-0.1365	-0.3465	0.1785	0	35	26	3
2026-02-12	16:02:09.670	-62.405	-21.805	10.36	0.750788	0.5551	-0.007564	-0.156	-0.348	0.168	0	35	26	3
2026-02-12	16:02:09.690	-52.22	-27.615	7.84	0.785924	0.543144	0.012932	-0.1395	-0.342	0.1695	0	35	26	3
2026-02-12	16:02:09.710	-47.565	-30.31	8.085	0.835944	0.528016	0.1403	-0.147	-0.336	0.1665	0	35	26	3
2026-02-12	16:02:09.730	-45.08	-23.73	7.42	0.849608	0.535824	0.200568	-0.1485	-0.333	0.1635	0	35	26	3
2026-02-12	16:02:09.750	-44.87	-16.205	7.035	0.838872	0.567544	0.119804	-0.156	-0.3285	0.1635	0	35	26	3
2026-02-12	16:02:09.770	-39.375	-11.97	6.965	0.818864	0.520208	0.057584	-0.1605	-0.3285	0.156	0	35	26	3
2026-02-12	16:02:09.790	-25.76	-10.465	8.365	0.804468	0.534116	0.086132	-0.1605	-0.3255	0.1485	0	35	26	3
2026-02-12	16:02:07.810	-2.66	-2.835	-0.14	0.701744	0.718336	0.04758	-0.0705	-0.399	0.279	0	51	45	2
2026-02-12	16:02:07.830	-2.59	-2.835	-0.175	0.702964	0.715896	0.047824	-0.0735	-0.3975	0.279	0	51	45	2
2026-02-12	16:02:07.850	-2.695	-2.835	-0.14	0.70638	0.715652	0.046116	-0.0735	-0.396	0.279	0	51	45	2
2026-02-12	16:02:07.870	-2.45	-2.8	-0.175	0.708576	0.7137	0.044164	-0.0735	-0.396	0.2805	0	51	45	2
2026-02-12	16:02:07.890	-2.345	-2.695	-0.245	0.707844	0.7137	0.049288	-0.0735	-0.396	0.2805	0	51	45	2
2026-02-12	16:02:07.910	-2.31	-2.555	-0.315	0.708332	0.71492	0.046116	-0.075	-0.3945	0.2805	0	51	45	2
2026-02-12	16:02:07.930	-2.24	-2.45	-0.42	0.705404	0.71614	0.04636	-0.075	-0.3975	0.279	0	51	45	2
2026-02-12	16:02:07.950	-2.17	-2.345	-0.525	0.701744	0.718092	0.04514	-0.0735	-0.4005	0.279	0	51	45	2
2026-02-12	16:02:07.970	-2.065	-2.17	-0.56	0.702476	0.716872	0.04514	-0.0735	-0.402	0.279	0	51	45	2
2026-02-12	16:02:07.990	-2.135	-2.065	-0.56	0.709796	0.715408	0.045628	-0.0735	-0.4035	0.2775	0	51	45	2
2026-02-12	16:02:08.010	-1.96	-1.715	-0.63	0.711748	0.711504	0.044652	-0.0735	-0.405	0.2775	0	45	46	2
2026-02-12	16:02:08.030	-1.785	-1.505	-0.63	0.7137	0.712968	0.039772	-0.0705	-0.4035	0.276	0	45	46	2
2026-02-12	16:02:08.050	-1.54	-1.155	-0.665	0.71248	0.712968	0.044896	-0.069	-0.4005	0.273	0	45	46	2
2026-02-12	16:02:08.070	-1.19	-0.98	-0.665	0.708088	0.713944	0.045628	-0.075	-0.399	0.2745	0	45	46	2
2026-02-12	16:02:08.090	-1.05	-0.56	-0.7	0.701988	0.7137	0.047092	-0.0795	-0.4005	0.2775	0	45	46	2
2026-02-12	16:02:08.110	-0.84	-0.245	-0.91	0.700768	0.715408	0.05002	-0.072	-0.393	0.282	0	45	46	2
2026-02-12	16:02:08.130	-0.875	-0.035	-1.33	0.699304	0.72468	0.047336	-0.0765	-0.396	0.273	0	45	46	2
2026-02-12	16:02:08.150	-1.4	-0.07	-1.75	0.701988	0.720532	0.046848	-0.072	-0.39	0.279	0	45	46	2
2026-02-12	16:02:08.170	-1.47	0.07	-1.89	0.698816	0.720288	0.045384	-0.0705	-0.3945	0.2745	0	45	46	2
2026-02-12	16:02:08.190	-1.33	0.245	-1.785	0.69784	0.717848	0.04758	-0.072	-0.402	0.273	0	45	46	2
2026-02-12	16:02:08.210	-0.805	0.63	-1.645	0.702964	0.716628	0.043432	-0.066	-0.396	0.2805	0	39	46	2
2026-02-12	16:02:08.230	-0.63	0.805	-1.54	0.703208	0.718092	0.045628	-0.066	-0.4035	0.2745	0	39	46	2
2026-02-12	16:02:08.250	-0.84	0.805	-1.505	0.703452	0.716628	0.04636	-0.0795	-0.402	0.276	0	39	46	2
2026-02-12	16:02:08.270	-1.015	0.735	-1.365	0.701744	0.71492	0.049044	-0.0705	-0.3975	0.273	0	39	46	2
2026-02-12	16:02:08.290	-1.015	0.63	-1.33	0.70394	0.713944	0.048068	-0.0735	-0.3975	0.276	0	39	46	2
2026-02-12	16:02:08.310	-0.945	0.385	-1.26	0.707356	0.717604	0.043188	-0.075	-0.4065	0.2835	0	39	46	2
2026-02-12	16:02:08.330	-1.085	0.21	-1.26	0.7076	0.717116	0.047092	-0.0675	-0.393	0.2745	0	39	46	2
2026-02-12	16:02:08.350	-1.225	0.07	-1.26	0.7076	0.717604	0.049532	-0.072	-0.4035	0.2775	0	39	46	2
2026-02-12	16:02:08.370	-1.05	0.035	-1.33	0.700524	0.719068	0.05246	-0.0735	-0.4005	0.273	0	39	46	2
2026-02-12	16:02:08.390	-1.33	-0.14	-1.505	0.69784	0.72102	0.047092	-0.0735	-0.4005	0.273	0	39	46	2
2026-02-12	16:02:08.410	-1.54	-0.28	-1.575	0.696864	0.724192	0.048556	-0.075	-0.402	0.2715	0	34	46	2
2026-02-12	16:02:08.430	-1.715	-0.245	-1.785	0.698084	0.723704	0.051484	-0.0705	-0.4005	0.2745	0	34	46	2
2026-02-12	16:02:08.450	-1.785	-0.105	-2.1	0.692716	0.721508	0.047336	-0.0675	-0.3975	0.2805	0	34	46	2
2026-02-12	16:02:08.470	-1.82	0.035	-2.345	0.695156	0.715896	0.044164	-0.069	-0.396	0.2805	0	34	46	2
2026-02-12	16:02:08.490	-1.54	0.14	-2.31	0.689056	0.711748	0.047092	-0.0735	-0.396	0.273	0	34	46	2
2026-02-12	16:02:08.510	-1.085	0.14	-1.995	0.690764	0.704916	0.0488	-0.0645	-0.3945	0.279	0	34	46	2
2026-02-12	16:02:08.530	-0.455	-0.035	-1.61	0.691252	0.703696	0.039284	-0.075	-0.399	0.2745	0	34	46	2
2026-02-12	16:02:08.550	0.28	-0.595	-0.84	0.691984	0.701744	0.03172	-0.066	-0.3915	0.2775	0	34	46	2
2026-02-12	16:02:08.570	0.665	-1.505	0.42	0.694912	0.7015	0.033428	-0.0765	-0.4065	0.2715	0	34	46	2
2026-02-12	16:02:08.590	1.435	-2.275	1.82	0.692716	0.697596	0.034404	-0.0735	-0.399	0.2745	0	34	46	2
2026-02-12	16:02:08.610	2.66	-3.5	3.535	0.682468	0.701256	0.02318	-0.078	-0.3975	0.2745	0	30	45	2
2026-02-12	16:02:08.630	3.85	-5.46	5.04	0.674172	0.70394	0.020252	-0.0645	-0.399	0.276	0	30	45	2
2026-02-12	16:02:08.650	3.78	-8.33	6.3	0.671488	0.704184	0.01342	-0.063	-0.4005	0.2745	0	30	45	2
2026-02-12	16:02:08.670	2.59	-12.39	7.105	0.678076	0.715896	0.013176	-0.072	-0.399	0.282	0	30	45	2
2026-02-12	16:02:08.690	-0.07	-16.625	7.105	0.689788	0.728096	0.00732	-0.072	-0.399	0.282	0	30	45	2
2026-02-12	16:02:08.710	-2.66	-20.02	6.475	0.691984	0.727852	0.005368	-0.072	-0.4005	0.2805	0	30	45	2
2026-02-12	16:02:08.730	-5.04	-23.38	5.67	0.685884	0.721264	0.002196	-0.075	-0.4005	0.2835	0	30	45	2
2026-02-12	16:02:08.750	-7	-26.915	4.655	0.6893	0.72346	-0.011712	-0.078	-0.399	0.291	0	30	45	2
2026-02-12	16:02:08.770	-9.625	-30.835	3.605	0.698328	0.722972	-0.022692	-0.078	-0.3945	0.2895	0	30	45	2
2026-02-12	16:02:08.790	-12.18	-34.72	2.73	0.711504	0.731512	-0.037088	-0.0765	-0.393	0.2895	0	30	45	2
2026-02-12	16:02:08.810	-14.49	-38.36	2.17	0.732488	0.736392	-0.043676	-0.0795	-0.399	0.2895	0	27	41	2
2026-02-12	16:02:08.830	-16.065	-41.265	1.715	0.733952	0.734684	-0.058804	-0.0795	-0.3975	0.288	0	27	41	2
2026-02-12	16:02:08.850	-17.045	-44.065	1.19	0.713944	0.733708	-0.069784	-0.078	-0.3915	0.2865	0	27	41	2
2026-02-12	16:02:08.870	-18.515	-46.9	1.015	0.700768	0.739564	-0.061732	-0.0855	-0.3885	0.2805	0	27	41	2
2026-02-12	16:02:08.890	-20.685	-48.965	0.735	0.687836	0.745176	-0.05002	-0.0885	-0.393	0.2775	0	27	41	2
2026-02-12	16:02:08.910	-22.4	-50.82	0.245	0.678808	0.755668	-0.040016	-0.0825	-0.3975	0.2805	0	27	41	2
2026-02-12	16:02:08.930	-23.065	-52.08	-0.63	0.672708	0.760792	-0.026352	-0.0825	-0.4005	0.2835	0	27	41	2
2026-02-12	16:02:08.950	-24.5	-52.745	-1.505	0.659532	0.752252	-0.010736	-0.087	-0.399	0.2835	0	27	41	2
2026-02-12	16:02:08.970	-27.895	-51.835	-1.4	0.667828	0.743468	0.008784	-0.0885	-0.3945	0.2805	0	27	41	2
2026-02-12	16:02:08.990	-30.73	-50.4	-0.735	0.693936	0.726632	0.012688	-0.0885	-0.3945	0.2805	0	27	41	2
2026-02-12	16:02:09.010	-33.32	-48.09	0.735	0.708088	0.717848	-0.00854	-0.084	-0.399	0.279	0	26	29	3
2026-02-12	16:02:09.030	-35.245	-45.675	2.695	0.729804	0.723216	-0.044652	-0.084	-0.387	0.2835	0	26	29	3
2026-02-12	16:02:09.050	-36.4	-44.135	5.53	0.759572	0.712236	-0.061244	-0.0825	-0.3915	0.279	0	26	29	3
2026-02-12	16:02:09.070	-35.35	-41.825	8.435	0.778848	0.70272	-0.064904	-0.0825	-0.3915	0.2745	0	26	29	3
2026-02-12	16:02:09.090	-32.655	-38.045	10.78	0.780312	0.715408	-0.073444	-0.0855	-0.39	0.2715	0	26	29	3
2026-02-12	16:02:09.110	-29.96	-33.145	12.285	0.75152	0.737612	-0.077104	-0.0945	-0.393	0.2655	0	26	29	3
2026-02-12	16:02:09.130	-28.77	-28.56	13.055	0.72468	0.7381	-0.080764	-0.0945	-0.393	0.2655	0	26	29	3
2026-02-12	16:02:09.150	-28.14	-23.8	13.685	0.700768	0.743956	-0.07564	-0.0915	-0.393	0.267	0	26	29	3
2026-02-12	16:02:09.170	-27.16	-18.69	13.86	0.681736	0.74054	-0.079544	-0.093	-0.3915	0.2655	0	26	29	3
2026-02-12	16:02:09.190	-26.635	-13.37	13.405	0.659288	0.74176	-0.083204	-0.093	-0.39	0.2655	0	26	29	3
2026-02-12	16:02:09.210	-26.635	-8.645	12.46	0.651236	0.752496	-0.07808	-0.1005	-0.387	0.264	0	27	11	3
2026-02-12	16:02:09.230	-27.09	-4.935	11.41	0.653188	0.75274	-0.08662	-0.099	-0.381	0.2595	0	27	11	3
2026-02-12	16:02:09.250	-26.04	-2.38	10.43	0.663436	0.75152	-0.110288	-0.099	-0.3825	0.2535	0	27	11	3
2026-02-12	16:02:09.270	-23.8	-0.945	9.765	0.696864	0.747372	-0.13786	-0.108	-0.381	0.249	0	27	11	3
2026-02-12	16:02:09.290	-23.345	-1.05	9.24	0.712236	0.740296	-0.152744	-0.1095	-0.3795	0.246	0	27	11	3
2026-02-12	16:02:09.310	-23.275	-1.96	7.735	0.709308	0.7381	-0.156892	-0.1095	-0.3795	0.246	0	27	11	3
2026-02-12	16:02:09.330	-22.015	-3.605	5.74	0.706624	0.727608	-0.157624	-0.108	-0.3795	0.231	0	27	11	3
2026-02-12	16:02:09.350	-22.995	-6.86	5.495	0.726144	0.701988	-0.133224	-0.1155	-0.3765	0.231	0	27	11	3
2026-02-12	16:02:09.370	-24.01	-9.835	7	0.758352	0.697352	-0.10614	-0.123	-0.3735	0.2295	0	27	11	3
2026-02-12	16:02:09.390	-24.675	-12.18	10.08	0.793732	0.65514	-0.07198	-0.114	-0.3705	0.225	0	27	11	3
2026-02-12	16:02:09.410	-22.96	-11.655	11.27	0.76128	0.659776	-0.038308	-0.123	-0.3735	0.2325	0	29	11	3
2026-02-12	16:02:09.430	-23.905	-11.375	10.78	0.736636	0.639036	-0.005856	-0.12	-0.366	0.228	0	29	11	3
2026-02-12	16:02:09.450	-26.705	-11.83	9.205	0.708088	0.589748	0.007808	-0.123	-0.369	0.2205	0	29	11	3
2026-02-12	16:02:09.470	-29.12	-13.125	9.065	0.688568	0.554856	0.015616	-0.1185	-0.375	0.2205	0	29	11	3
2026-02-12	16:02:09.490	-29.855	-15.505	10.08	0.705892	0.584624	0.034648	-0.126	-0.366	0.225	0	29	11	3
2026-02-12	16:02:09.510	-33.425	-17.99	11.9	0.743224	0.615612	0.050264	-0.1305	-0.3585	0.213	0	29	11	3
2026-02-12	16:02:09.530	-37.87	-20.825	14.07	0.811544	0.646844	0.04026	-0.1275	-0.3675	0.2115	0	29	11	3
2026-02-12	16:02:09.550	-45.78	-21.91	15.96	0.882304	0.636108	0.005612	-0.129	-0.36	0.2115	0	29	11	3
2026-02-12	16:02:09.570	-53.095	-21.56	17.185	0.910608	0.589504	-0.031964	-0.129	-0.36	0.2115	0	29	11	3
2026-02-12	16:02:09.590	-53.9	-19.425	16.905	0.8845	0.573156	-0.033428	-0.1305	-0.3525	0.1995	0	29	11	3
2026-02-12	16:02:09.610	-57.19	-17.78	15.785	0.832772	0.585356	-0.013908	-0.132	-0.3465	0.1875	0	35	26	3
2026-02-12	16:02:09.630	-67.55	-17.5	14.455	0.788364	0.610976	0.004148	-0.1335	-0.3495	0.1845	0	35	26	3
2026-02-12	16:02:09.650	-73.22	-18.62	11.305	0.74542	0.519964	0.026108	-0.1365	-0.3465	0.1785	0	35	26	3
2026-02-12	16:02:09.670	-62.405	-21.805	10.36	0.750788	0.5551	-0.007564	-0.156	-0.348	0.168	0	35	26	3
2026-02-12	16:02:09.690	-52.22	-27.615	7.84	0.785924	0.543144	0.012932	-0.1395	-0.342	0.1695	0	35	26	3
2026-02-12	16:02:09.710	-47.565	-30.31	8.085	0.835944	0.528016	0.1403	-0.147	-0.336	0.1665	0	35	26	3
2026-02-12	16:02:09.730	-45.08	-23.73	7.42	0.849608	0.535824	0.200568	-0.1485	-0.333	0.1635	0	35	26	3
2026-02-12	16:02:09.750	-44.87	-16.205	7.035	0.838872	0.567544	0.119804	-0.156	-0.3285	0.1635	0	35	26	3
2026-02-12	16:02:09.770	-39.375	-11.97	6.965	0.818864	0.520208	0.057584	-0.1605	-0.3285	0.156	0	35	26	3
2026-02-12	16:02:09.790	-25.76	-10.465	8.365	0.804468	0.534116	0.086132	-0.1605	-0.3255	0.1485	0	35	26	3
2026-02-12	16:02:19.810	-36.785	52.43	-61.32	0.62708	0.295728	-0.025376	-0.2325	-0.1035	0.237	0	322	112	3
2026-02-12	16:02:19.830	-26.04	60.095	-54.075	0.614636	0.365024	-0.030744	-0.2295	-0.102	0.2325	0	322	112	3
2026-02-12	16:02:19.850	-19.74	66.745	-42.875	0.64416	0.466284	-0.085644	-0.2265	-0.1005	0.2295	0	322	112	3
2026-02-12	16:02:19.870	-23.45	68.285	-40.215	0.662948	0.488732	-0.089304	-0.222	-0.126	0.2145	0	322	112	3
2026-02-12	16:02:19.890	-22.925	69.965	-41.58	0.687836	0.546316	-0.050752	-0.2115	-0.1275	0.2025	0	322	112	3
2026-02-12	16:02:19.910	-25.935	72.45	-46.41	0.69052	0.572424	-0.022204	-0.207	-0.132	0.198	0	322	112	3
2026-02-12	16:02:19.930	-31.01	75.25	-51.765	0.660264	0.579744	0.033428	-0.204	-0.1395	0.189	0	322	112	3
2026-02-12	16:02:19.950	-31.36	77.42	-54.53	0.604144	0.578524	0.085156	-0.2025	-0.1365	0.1695	0	322	112	3
2026-02-12	16:02:19.970	-34.72	78.225	-53.445	0.558272	0.577304	0.125172	-0.189	-0.1545	0.1755	0	322	112	3
2026-02-12	16:02:19.990	-39.305	77.14	-52.325	0.528504	0.607316	0.153476	-0.1905	-0.159	0.153	0	322	112	3
2026-02-12	16:02:20.010	-35.525	73.15	-49.28	0.493856	0.60146	0.197884	-0.1905	-0.159	0.153	0	365	120	3
2026-02-12	16:02:20.030	-32.655	70.245	-44.135	0.497028	0.602192	0.218868	-0.1695	-0.1665	0.1275	0	365	120	3
2026-02-12	16:02:20.050	-27.895	63.175	-36.365	0.525088	0.514596	0.266692	-0.1665	-0.1575	0.1245	0	365	120	3
2026-02-12	16:02:20.070	-25.06	54.005	-25.865	0.567544	0.426268	0.2806	-0.1665	-0.1575	0.1245	0	365	120	3
2026-02-12	16:02:20.090	-14.595	51.275	-14.84	0.57584	0.406748	0.316468	-0.1605	-0.162	0.1125	0	365	120	3
2026-02-12	16:02:20.110	0.525	47.145	-4.235	0.599508	0.440664	0.350628	-0.147	-0.1665	0.099	0	365	120	3
2026-02-12	16:02:20.130	14.595	42.91	3.465	0.583892	0.51728	0.372588	-0.1425	-0.1695	0.096	0	365	120	3
2026-02-12	16:02:20.150	22.925	36.89	8.68	0.53192	0.5795	0.374296	-0.1395	-0.1695	0.0915	0	365	120	3
2026-02-12	16:02:20.170	30.31	30.52	11.025	0.470188	0.622688	0.425292	-0.135	-0.1665	0.087	0	365	120	3
2026-02-12	16:02:20.190	40.67	24.85	9.555	0.416508	0.682956	0.480192	-0.1365	-0.1695	0.0885	0	365	120	3
2026-02-12	16:02:20.210	51.17	20.44	5.845	0.392596	0.735416	0.50386	-0.135	-0.1755	0.09	0	387	74	2
2026-02-12	16:02:20.230	59.92	16.345	2.625	0.398208	0.731024	0.503372	-0.129	-0.1755	0.093	0	387	74	2
2026-02-12	16:02:20.250	69.825	12.845	2.45	0.412116	0.772748	0.455548	-0.135	-0.183	0.102	0	387	74	2
2026-02-12	16:02:20.270	69.195	10.535	0.77	0.557296	1.030168	0.399672	-0.138	-0.186	0.1035	0	387	74	2
2026-02-12	16:02:20.290	39.375	5.11	-4.27	0.95282	1.388604	0.25498	-0.132	-0.1875	0.1035	0	387	74	2
2026-02-12	16:02:20.310	8.82	-2.8	-11.9	1.432036	1.637728	0.396256	-0.1305	-0.1935	0.102	0	387	74	2
2026-02-12	16:02:20.330	16.8	-2.66	-13.755	1.17608	0.976488	0.549976	-0.129	-0.1995	0.105	0	387	74	2
2026-02-12	16:02:20.350	69.545	7.945	1.89	0.473116	0.802028	0.364536	-0.1305	-0.2025	0.1125	0	387	74	2
2026-02-12	16:02:20.370	48.405	5.705	10.99	0.439688	0.544608	0.335256	-0.1245	-0.204	0.1155	0	387	74	2
2026-02-12	16:02:20.390	38.36	1.925	27.79	0.455548	0.374052	0.237412	-0.1215	-0.21	0.1185	0	387	74	2
2026-02-12	16:02:20.410	51.38	-0.035	43.855	0.53924	0.556564	0.148108	-0.129	-0.213	0.12	0	398	14	3
2026-02-12	16:02:20.430	46.9	-9.24	49.84	0.6649	0.734928	0.056852	-0.141	-0.2115	0.126	0	398	14	3
2026-02-12	16:02:20.450	31.185	-19.075	52.08	0.749812	0.787632	-0.015128	-0.1395	-0.21	0.129	0	398	14	3
2026-02-12	16:02:20.470	16.765	-30.555	50.89	0.762744	0.701988	-0.07124799	-0.1425	-0.2115	0.1335	0	398	14	3
2026-02-12	16:02:20.490	15.82	-38.71	46.445	0.76006	0.622932	-0.084668	-0.1545	-0.207	0.1425	0	398	14	3
2026-02-12	16:02:20.510	21.525	-47.04	41.685	0.697596	0.598288	-0.065392	-0.159	-0.204	0.147	0	398	14	3
2026-02-12	16:02:20.530	22.785	-55.335	36.435	0.616344	0.60268	-0.056852	-0.1635	-0.204	0.1545	0	398	14	3
2026-02-12	16:02:20.550	25.165	-61.81	33.74	0.527528	0.69174	-0.04636	-0.1695	-0.201	0.1635	0	398	14	3
2026-02-12	16:02:20.570	16.135	-71.75	32.55	0.506544	0.693692	-0.02928	-0.18	-0.1995	0.1695	0	398	14	3
2026-02-12	16:02:20.590	6.965	-79.59	33.95	0.49044	0.654408	-0.032696	-0.186	-0.192	0.177	0	398	14	3
2026-02-12	16:02:20.610	-0.42	-86.835	36.75	0.511668	0.591456	-0.035624	-0.192	-0.1935	0.183	0	401	76	3
2026-02-12	16:02:20.630	-8.61	-93.695	40.11	0.581696	0.568276	-0.053192	-0.1995	-0.198	0.186	0	401	76	3
2026-02-12	16:02:20.650	-13.335	-95.095	39.025	0.637572	0.546316	-0.05856	-0.1995	-0.198	0.186	0	401	76	3
2026-02-12	16:02:20.670	-17.045	-95.34	37.345	0.687592	0.534116	-0.133712	-0.2145	-0.183	0.219	0	401	76	3
2026-02-12	16:02:20.690	-17.395	-94.745	34.72	0.717848	0.55388	-0.204228	-0.2265	-0.183	0.219	0	401	76	3
2026-02-12	16:02:20.710	-17.92	-94.465	31.395	0.727852	0.604144	-0.236924	-0.2175	-0.1785	0.2325	0	401	76	3
2026-02-12	16:02:20.730	-23.73	-93.17	28.14	0.72956	0.67466	-0.184464	-0.228	-0.1695	0.2505	0	401	76	3
2026-02-12	16:02:20.750	-35.595	-88.13	24.535	0.752984	0.720044	-0.133712	-0.2325	-0.165	0.252	0	401	76	3
2026-02-12	16:02:20.770	-39.725	-78.995	22.96	0.75762	0.699304	-0.156892	-0.2325	-0.1605	0.255	0	401	76	3
2026-02-12	16:02:20.790	-34.335	-68.67	22.68	0.750788	0.70394	-0.16226	-0.2385	-0.1575	0.264	0	401	76	3
2026-02-12	16:02:20.810	-29.295	-58.695	23.52	0.729804	0.669536	-0.16714	-0.2355	-0.153	0.2655	0	396	75	3
2026-02-12	16:02:20.830	-22.82	-48.65	26.145	0.739076	0.61	-0.165676	-0.2475	-0.153	0.273	0	396	75	3
2026-02-12	16:02:20.850	-11.41	-38.99	26.25	0.751764	0.620736	-0.155916	-0.2535	-0.1485	0.2805	0	396	75	3
2026-02-12	16:02:20.870	-4.06	-30.485	25.305	0.776896	0.677344	-0.109312	-0.243	-0.1425	0.279	0	396	75	3
2026-02-12	16:02:20.890	0.07	-20.755	23.765	0.780312	0.740052	-0.065636	-0.2535	-0.1365	0.2805	0	396	75	3
2026-02-12	16:02:20.910	3.08	-9.59	21.525	0.786656	0.781288	-0.0854	-0.2595	-0.1365	0.291	0	396	75	3
2026-02-12	16:02:20.930	1.365	-2.45	22.05	0.837408	0.744932	-0.125416	-0.2595	-0.1365	0.291	0	396	75	3
2026-02-12	16:02:20.950	-1.365	0.91	25.515	0.92232	0.711016	-0.146644	-0.2655	-0.1395	0.291	0	396	75	3
2026-02-12	16:02:20.970	-1.295	4.375	28.7	1.026752	0.737368	-0.198616	-0.2655	-0.1245	0.285	0	396	75	3
2026-02-12	16:02:20.990	4.235	5.915	29.54	1.178032	0.79178	-0.314272	-0.264	-0.12	0.2865	0	396	75	3
2026-02-12	16:02:21.010	13.02	6.16	28.28	1.313452	0.88084	-0.441884	-0.273	-0.1245	0.282	0	384	32	3
2026-02-12	16:02:21.030	11.69	7.42	24.85	1.419592	0.95038	-0.409432	-0.27	-0.114	0.285	0	384	32	3
2026-02-12	16:02:21.050	-4.48	15.05	19.74	1.42252	0.832528	-0.255712	-0.2775	-0.1095	0.291	0	384	32	3
2026-02-12	16:02:21.070	-12.46	24.99	12.355	1.3725	0.676856	-0.175192	-0.276	-0.111	0.2895	0	384	32	3
2026-02-12	16:02:21.090	-14.875	37.73	0.875	1.28954	0.558272	-0.147376	-0.2805	-0.1035	0.2835	0	384	32	3
2026-02-12	16:02:21.110	-15.785	50.225	-15.61	1.239032	0.551928	-0.181048	-0.2745	-0.1065	0.2805	0	384	32	3
2026-02-12	16:02:21.130	-21.315	58.52	-35.63	1.153876	0.528504	-0.280844	-0.279	-0.117	0.267	0	384	32	3
2026-02-12	16:02:21.150	-25.585	61.285	-53.235	1.013088	0.43798	-0.355996	-0.2775	-0.1155	0.2505	0	384	32	3
2026-02-12	16:02:21.170	-30.31	60.76	-63.595	0.853024	0.350872	-0.300608	-0.2715	-0.12	0.2475	0	384	32	3
2026-02-12	16:02:21.190	-32.13	63.245	-67.655	0.6954	0.237656	-0.127124	-0.276	-0.138	0.2295	0	384	32	3
2026-02-12	16:02:21.210	-20.685	69.965	-67.06	0.555588	0.244488	-0.05734	-0.276	-0.138	0.2295	0	373	27	3
2026-02-12	16:02:21.230	-13.72	76.44	-62.44	0.49654	0.2867	-0.086132	-0.2625	-0.147	0.216	0	373	27	3
2026-02-12	16:02:21.250	-5.425	79.59	-52.395	0.504348	0.373808	-0.092476	-0.2475	-0.1575	0.2025	0	373	27	3
2026-02-12	16:02:21.270	-6.58	78.96	-43.225	0.556076	0.458476	-0.087596	-0.2415	-0.165	0.195	0	373	27	3
2026-02-12	16:02:21.290	-14.42	79.31	-42	0.58926	0.499712	-0.084668	-0.2415	-0.1725	0.1815	0	373	27	3
2026-02-12	16:02:21.310	-24.64	79.135	-44.975	0.685152	0.510448	-0.03904	-0.237	-0.18	0.1665	0	373	27	3
2026-02-12	16:02:21.330	-32.795	82.6	-50.365	0.714676	0.556076	0.019032	-0.2265	-0.186	0.1545	0	373	27	3
2026-02-12	16:02:21.350	-36.47	86.52	-56.28	0.694424	0.5856	0.096136	-0.216	-0.1875	0.1455	0	373	27	3
2026-02-12	16:02:21.370	-35.07	89.495	-57.225	0.639768	0.589992	0.14396	-0.204	-0.192	0.132	0	373	27	3
2026-02-12	16:02:21.390	-32.62	90.405	-53.55	0.509472	0.685152	0.192272	-0.1965	-0.1965	0.1215	0	373	27	3
2026-02-12	16:02:21.410	-31.85	85.19	-50.33	0.553392	0.68808	0.244	-0.189	-0.201	0.1125	0	365	65	3
2026-02-12	16:02:21.430	-24.605	83.09	-45.92	0.495564	0.728584	0.257176	-0.1755	-0.2055	0.0975	0	365	65	3
2026-02-12	16:02:21.450	-18.9	75.04	-38.01	0.49166	0.633912	0.27816	-0.168	-0.207	0.0825	0	365	65	3
2026-02-12	16:02:21.470	-14.49	65.835	-31.57	0.510692	0.571692	0.317932	-0.1635	-0.21	0.0735	0	365	65	3
2026-02-12	16:02:21.490	-8.96	57.96	-13.055	0.555344	0.383568	0.339648	-0.1605	-0.2145	0.0735	0	365	65	3
2026-02-12	16:02:21.510	7.49	55.16	-2.765	0.565592	0.451644	0.328668	-0.153	-0.2115	0.0675	0	365	65	3
2026-02-12	16:02:21.530	15.995	49.245	6.58	0.557784	0.498248	0.36844	-0.1455	-0.21	0.0585	0	365	65	3
2026-02-12	16:02:21.550	19.075	43.12	13.895	0.519964	0.52826	0.407724	-0.135	-0.21	0.057	0	365	65	3
2026-02-12	16:02:21.570	23.275	37.415	18.69	0.460672	0.529968	0.416508	-0.1275	-0.213	0.0585	0	365	65	3
2026-02-12	16:02:21.590	31.955	31.955	19.355	0.421388	0.596092	0.439932	-0.132	-0.216	0.0525	0	365	65	3
2026-02-12	16:02:21.610	41.965	27.125	16.59	0.406504	0.71126	0.503372	-0.1365	-0.216	0.051	0	360	37	3
2026-02-12	16:02:21.630	49.21	22.785	13.545	0.401136	0.767624	0.543388	-0.138	-0.2145	0.0555	0	360	37	3
2026-02-12	16:02:21.650	59.395	18.725	10.15	0.399428	0.784704	0.541192	-0.1305	-0.216	0.054	0	360	37	3
2026-02-12	16:02:21.670	71.155	13.895	7.7	0.409188	0.831796	0.471652	-0.1275	-0.222	0.054	0	360	37	3
2026-02-12	16:02:21.690	66.99	6.965	6.615	0.585356	1.07848	0.416996	-0.126	-0.2325	0.0615	0	360	37	3
2026-02-12	16:02:21.710	40.04	5.46	-2.38	0.940132	1.574532	0.363072	-0.123	-0.234	0.0705	0	360	37	3
2026-02-12	16:02:21.730	14.455	4.27	-22.785	1.118496	1.682868	0.590236	-0.1245	-0.2295	0.0735	0	360	37	3
2026-02-12	16:02:21.750	23.45	-4.935	-20.755	0.723948	0.957944	0.598776	-0.1275	-0.234	0.072	0	360	37	3
2026-02-12	16:02:21.770	47.845	-5.11	-3.535	0.434076	0.611708	0.379176	-0.1275	-0.2415	0.0705	0	360	37	3
2026-02-12	16:02:21.790	55.09	-6.195	-0.56	0.496052	0.67954	0.274256	-0.1275	-0.2415	0.0705	0	360	37	3
2026-02-12	16:02:21.810	37.345	-10.29	9.52	0.611708	0.6527	0.229604	-0.12	-0.2535	0.0795	0	360	46	3
2026-02-12	16:02:21.830	16.485	-14.175	20.65	0.704916	0.54778	0.172752	-0.132	-0.2595	0.0915	0	360	46	3
2026-02-12	16:02:21.850	12.11	-18.725	26.88	0.77348	0.504104	0.144936	-0.141	-0.264	0.0915	0	360	46	3
2026-02-12	16:02:21.870	20.86	-20.685	37.135	0.793732	0.542168	0.09516	-0.1245	-0.264	0.078	0	360	46	3
2026-02-12	16:02:21.890	29.785	-20.335	42.28	0.803736	0.501176	0.010492	-0.141	-0.2655	0.0915	0	360	46	3
2026-02-12	16:02:21.910	46.55	-17.99	46.515	0.751764	0.541924	-0.055144	-0.141	-0.252	0.102	0	360	46	3
2026-02-12	16:02:21.930	60.165	-17.85	49	0.624152	0.676124	-0.104676	-0.147	-0.2475	0.105	0	360	46	3
2026-02-12	16:02:21.950	62.37	-22.75	47.25	0.557784	0.708088	-0.117364	-0.15	-0.264	0.1035	0	360	46	3
2026-02-12	16:02:21.970	61.81	-25.165	46.235	0.494832	0.762256	-0.081252	-0.1665	-0.2595	0.12	0	360	46	3
2026-02-12	16:02:21.990	57.82	-27.44	43.995	0.487268	0.77958	-0.039528	-0.1635	-0.261	0.132	0	360	46	3
2026-02-12	16:02:22.010	51.1	-27.72	42.035	0.474824	0.776408	-0.001464	-0.177	-0.261	0.144	0	363	113	3
2026-02-12	16:02:22.030	44.17	-26.18	40.285	0.501176	0.739808	0.004392	-0.18	-0.261	0.144	0	363	113	3
2026-02-12	16:02:22.050	33.39	-25.235	38.045	0.541924	0.678564	-0.044408	-0.183	-0.258	0.1485	0	363	113	3
2026-02-12	16:02:22.070	24.535	-24.675	36.26	0.565104	0.58438	-0.07686	-0.1875	-0.2565	0.153	0	363	113	3
2026-02-12	16:02:22.090	19.565	-25.795	34.615	0.60634	0.555344	-0.05856	-0.2085	-0.2565	0.168	0	363	113	3
2026-02-12	16:02:22.110	12.775	-26.075	32.48	0.624396	0.544364	-0.018544	-0.1995	-0.2505	0.1665	0	363	113	3
2026-02-12	16:02:22.130	8.295	-25.83	29.05	0.655872	0.572912	-0.010248	-0.2085	-0.2415	0.177	0	363	113	3
2026-02-12	16:02:22.150	4.83	-25.69	26.215	0.687348	0.565348	-0.028304	-0.2085	-0.2415	0.174	0	363	113	3
2026-02-12	16:02:22.170	2.625	-26.565	25.13	0.72224	0.589504	-0.058804	-0.21	-0.24	0.183	0	363	113	3
2026-02-12	16:02:22.190	0.42	-27.79	24.08	0.733952	0.624152	-0.063928	-0.2145	-0.234	0.1815	0	363	113	3
2026-02-12	16:02:22.210	-3.5	-28.91	23.24	0.732976	0.648064	-0.074664	-0.2175	-0.2265	0.1815	0	364	120	3
2026-02-12	16:02:22.230	-6.23	-29.155	24.08	0.721752	0.641232	-0.075396	-0.2295	-0.2325	0.1875	0	364	120	3
2026-02-12	16:02:22.250	-6.685	-28.7	26.88	0.7198	0.641232	-0.06344	-0.2235	-0.2325	0.186	0	364	120	3
2026-02-12	16:02:22.270	-5.74	-25.865	29.295	0.720532	0.657092	-0.061976	-0.231	-0.222	0.195	0	364	120	3
2026-02-12	16:02:22.290	-4.83	-22.12	30.065	0.735416	0.688568	-0.051972	-0.2325	-0.219	0.201	0	364	120	3
2026-02-12	16:02:22.310	-5.285	-17.395	28.7	0.715408	0.702476	-0.03782	-0.24	-0.2145	0.1875	0	364	120	3
2026-02-12	16:02:22.330	-0.63	-11.97	26.32	0.708332	0.684908	-0.030256	-0.2415	-0.2145	0.1965	0	364	120	3
2026-02-12	16:02:22.350	5.845	-4.48	23.52	0.691984	0.698816	-0.01342	-0.2415	-0.2145	0.1965	0	364	120	3
2026-02-12	16:02:22.370	8.925	1.505	19.775	0.689056	0.691252	-0.00366	-0.243	-0.2115	0.195	0	364	120	3
2026-02-12	16:02:22.390	11.935	8.155	14.35	0.668316	0.690764	-0.000976	-0.249	-0.2055	0.1935	0	364	120	3
2026-02-12	16:02:22.410	11.13	12.81	10.045	0.675392	0.632448	-0.017324	-0.2535	-0.2055	0.195	0	358	90	3
2026-02-12	16:02:22.430	10.675	15.05	9.52	0.72102	0.550952	-0.055876	-0.2505	-0.2055	0.1995	0	358	90	3
2026-02-12	16:02:22.450	15.61	14.56	11.97	0.834968	0.559492	-0.123708	-0.246	-0.201	0.198	0	358	90	3
2026-02-12	16:02:22.470	20.93	13.895	13.02	0.945012	0.681492	-0.171044	-0.2445	-0.2025	0.1935	0	358	90	3
2026-02-12	16:02:22.490	18.41	15.05	12.285	1.01992	0.857416	-0.174704	-0.2445	-0.201	0.195	0	358	90	3
2026-02-12	16:02:22.510	7.105	17.815	9.905	1.118008	0.943304	-0.145424	-0.2475	-0.195	0.192	0	358	90	3
2026-02-12	16:02:22.530	0.945	22.96	8.19	1.179496	0.890844	-0.107604	-0.252	-0.1935	0.183	0	358	90	3
2026-02-12	16:02:22.550	-1.085	30.24	9.485	1.209508	0.75884	-0.078812	-0.252	-0.1935	0.1845	0	358	90	3
2026-02-12	16:02:22.570	1.995	39.76	9.38	1.210484	0.740784	-0.083936	-0.249	-0.1935	0.1845	0	358	90	3
2026-02-12	16:02:22.590	4.095	47.67	6.965	1.167784	0.753472	-0.143716	-0.249	-0.192	0.1815	0	358	90	3
2026-02-12	16:02:22.610	1.785	50.085	-0.42	1.106052	0.704184	-0.180316	-0.252	-0.186	0.1695	0	347	47	3
2026-02-12	16:02:22.630	-8.12	50.505	-15.75	0.953064	0.460916	-0.149572	-0.2445	-0.1935	0.1635	0	347	47	3
2026-02-12	16:02:22.650	-16.415	50.155	-24.15	0.918416	0.253516	-0.106628	-0.2445	-0.192	0.1575	0	347	47	3
2026-02-12	16:02:22.670	-18.095	53.795	-30.45	0.89792	0.061488	-0.037088	-0.237	-0.195	0.147	0	347	47	3
2026-02-12	16:02:22.690	-6.02	59.36	-34.23	0.873764	-0.039528	0.005368	-0.228	-0.1995	0.135	0	347	47	3
2026-02-12	16:02:22.710	12.67	63.735	-37.135	0.930128	0.08662	0.020252	-0.2295	-0.204	0.1275	0	347	47	3
2026-02-12	16:02:22.730	26.565	69.125	-42.035	0.96624	0.300608	-0.000732	-0.222	-0.2085	0.123	0	347	47	3
2026-02-12	16:02:22.750	33.775	73.71	-43.365	0.98332	0.466284	0.032696	-0.213	-0.2115	0.117	0	347	47	3
2026-02-12	16:02:22.770	36.365	80.92	-40.425	0.951844	0.563396	0.08418	-0.207	-0.2205	0.1065	0	347	47	3
2026-02-12	16:02:22.790	43.925	89.39	-36.19	0.919392	0.610732	0.103212	-0.195	-0.228	0.102	0	347	47	3
2026-02-12	16:02:22.810	50.75	95.305	-33.495	0.860344	0.578524	0.029036	-0.189	-0.234	0.099	0	337	11	3
2026-02-12	16:02:22.830	53.41	98.28	-31.255	0.782264	0.569496	0.008784	-0.1815	-0.243	0.0945	0	337	11	3
2026-02-12	16:02:22.850	51.59	97.965	-28.7	0.6954	0.53924	0.041236	-0.1665	-0.249	0.093	0	337	11	3
2026-02-12	16:02:22.870	49.84	95.69	-27.93	0.668072	0.524844	0.08295999	-0.1575	-0.2565	0.087	0	337	11	3
2026-02-12	16:02:22.890	49.07	95.76	-26.81	0.610244	0.52826	0.108824	-0.1545	-0.2595	0.078	0	337	11	3
2026-02-12	16:02:22.910	51.135	92.925	-23.135	0.584136	0.573644	0.153232	-0.15	-0.261	0.0765	0	337	11	3
2026-02-12	16:02:22.930	53.165	90.86	-22.645	0.592676	0.575352	0.229604	-0.1215	-0.2775	0.078	0	337	11	3
2026-02-12	16:02:22.950	58.135	91.91	-19.32	0.548512	0.606096	0.28426	-0.111	-0.279	0.081	0	337	11	3
2026-02-12	16:02:22.970	60.445	89.95	-16.87	0.525576	0.578524	0.283528	-0.099	-0.2925	0.084	0	337	11	3
2026-02-12	16:02:22.990	66.325	88.13	-12.425	0.475312	0.526064	0.263276	-0.0885	-0.2925	0.0675	0	337	11	3
2026-02-12	16:02:23.010	73.675	83.335	-7.63	0.451156	0.474824	0.258884	-0.0885	-0.2985	0.069	0	327	9	3
2026-02-12	16:02:23.030	81.375	77.175	-1.12	0.445056	0.454572	0.296216	-0.0705	-0.303	0.0705	0	327	9	3
2026-02-12	16:02:23.050	92.085	74.62	7.07	0.388692	0.445788	0.317444	-0.0735	-0.306	0.0795	0	327	9	3
2026-02-12	16:02:23.070	100.87	69.895	15.05	0.383568	0.454084	0.324764	-0.0615	-0.3165	0.0975	0	327	9	3
2026-02-12	16:02:23.090	109.585	65.835	22.19	0.381128	0.520208	0.358192	-0.0645	-0.3255	0.1005	0	327	9	3
2026-02-12	16:02:23.110	112.455	62.44	28.945	0.403576	0.645624	0.434808	-0.0675	-0.33	0.102	0	327	9	3
2026-02-12	16:02:23.130	108.08	59.71	32.06	0.439688	0.791292	0.497516	-0.063	-0.3345	0.1155	0	327	9	3
2026-02-12	16:02:23.150	98.77	57.68	29.4	0.471164	0.978684	0.428464	-0.0585	-0.333	0.129	0	327	9	3
2026-02-12	16:02:23.170	88.095	52.22	21.105	0.582916	1.305156	0.26108	-0.06	-0.339	0.132	0	327	9	3
2026-02-12	16:02:23.190	58.24	26.355	-3.745	0.768112	1.498404	0.215452	-0.063	-0.345	0.1425	0	327	9	3
2026-02-12	16:02:23.210	21.525	0.28	-31.36	0.826428	1.225124	0.397476	-0.063	-0.345	0.1485	0	323	52	3
2026-02-12	16:02:23.230	18.585	-0.77	-48.685	0.805444	1.302472	0.66612	-0.0525	-0.3555	0.1635	0	323	52	3
2026-02-12	16:02:23.250	10.675	2.52	-58.065	0.77104	1.302228	0.60024	-0.0585	-0.3555	0.168	0	323	52	3
2026-02-12	16:02:23.270	-23.485	0.98	-61.46	0.853512	1.358104	0.437492	-0.042	-0.357	0.1575	0	323	52	3
2026-02-12	16:02:23.290	-79.8	-7.63	-62.16	0.920124	1.118008	0.317932	-0.03	-0.3675	0.153	0	323	52	3
2026-02-12	16:02:23.310	-128.17	-16.905	-55.405	1.026264	0.498248	0.2135	-0.0285	-0.3615	0.1575	0	323	52	3
2026-02-12	16:02:23.330	-124.04	-25.445	-28.77	0.980636	-0.070028	0.050508	-0.0165	-0.3645	0.1395	0	323	52	3
2026-02-12	16:02:23.350	-56.21	-22.925	-1.365	0.859856	-0.146888	-0.073688	-0.015	-0.3495	0.12	0	323	52	3
2026-02-12	16:02:23.370	5.215	-32.165	18.83	0.87962	0.038552	-0.187392	-0.015	-0.3525	0.114	0	323	52	3
2026-02-12	16:02:23.390	33.565	-37.555	28.455	0.80276	0.155184	-0.266692	-0.0105	-0.354	0.114	0	323	52	3
2026-02-12	16:02:23.410	51.03	-42.455	40.18	0.693204	0.245464	-0.280844	-0.0135	-0.357	0.1335	0	328	108	3
2026-02-12	16:02:23.430	70.105	-48.65	48.79	0.641964	0.479704	-0.262056	-0.027	-0.3525	0.1335	0	328	108	3
2026-02-12	16:02:23.450	79.205	-53.34	48.755	0.62952	0.77714	-0.228384	-0.0345	-0.354	0.141	0	328	108	3
2026-02-12	16:02:23.470	58.31	-57.715	44.66	0.773724	1.025532	-0.188124	-0.0435	-0.3585	0.168	0	328	108	3
2026-02-12	16:02:23.490	24.325	-54.985	38.185	0.963556	1.051396	-0.172996	-0.0435	-0.3585	0.168	0	328	108	3
2026-02-12	16:02:23.510	6.02	-40.81	33.005	0.93574	0.81618	-0.205448	-0.057	-0.3615	0.174	0	328	108	3
2026-02-12	16:02:23.530	7.595	-29.26	29.54	0.916708	0.585356	-0.181292	-0.072	-0.3615	0.1845	0	328	108	3
2026-02-12	16:02:23.550	21.98	-17.605	25.865	0.815204	0.46482	-0.157868	-0.081	-0.3555	0.1935	0	328	108	3
2026-02-12	16:02:23.570	45.675	-6.58	24.15	0.698084	0.49654	-0.145912	-0.0855	-0.357	0.1995	0	328	108	3
2026-02-12	16:02:23.590	64.47	2.8	25.13	0.6161	0.57584	-0.151036	-0.0855	-0.3585	0.204	0	328	108	3
2026-02-12	16:02:23.610	75.355	11.935	28.42	0.592676	0.645868	-0.175924	-0.0945	-0.3525	0.2115	0	342	108	3
2026-02-12	16:02:23.630	82.915	21.035	30.275	0.61732	0.740784	-0.178608	-0.099	-0.3495	0.2235	0	342	108	3
2026-02-12	16:02:23.650	86.905	31.325	28.805	0.64294	0.793732	-0.125904	-0.0975	-0.36	0.2355	0	342	108	3
2026-02-12	16:02:23.670	86.765	43.505	25.48	0.666364	0.799588	-0.055388	-0.102	-0.363	0.2445	0	342	108	3
2026-02-12	16:02:23.690	87.185	55.825	22.295	0.709552	0.709308	-0.005612	-0.108	-0.3555	0.2535	0	342	108	3
2026-02-12	16:02:23.710	94.08	68.075	19.425	0.718336	0.657336	-0.007076	-0.108	-0.354	0.2625	0	342	108	3
2026-02-12	16:02:23.730	103.075	76.51	16.8	0.685396	0.65758	-0.04148	-0.1155	-0.3615	0.261	0	342	108	3
2026-02-12	16:02:23.750	112.735	81.375	12.39	0.643916	0.762256	-0.044896	-0.102	-0.357	0.267	0	342	108	3
2026-02-12	16:02:23.770	113.155	82.565	5.25	0.557296	0.927688	-0.055388	-0.1095	-0.354	0.2805	0	342	108	3
2026-02-12	16:02:23.790	97.09	75.215	2.275	0.53802	0.931836	-0.050508	-0.108	-0.3585	0.2865	0	342	108	3
2026-02-12	16:02:23.810	73.92	63.245	0.385	0.560712	0.827892	-0.023668	-0.1125	-0.357	0.2985	0	354	68	3
2026-02-12	16:02:23.830	51.905	49.56	2.135	0.666608	0.693692	0.012444	-0.1155	-0.3495	0.309	0	354	68	3
2026-02-12	16:02:23.850	39.13	38.045	6.685	0.760792	0.630984	0.005612	-0.114	-0.3525	0.315	0	354	68	3
2026-02-12	16:02:23.870	32.55	27.895	12.845	0.830332	0.64538	-0.012932	-0.114	-0.354	0.3165	0	354	68	3
2026-02-12	16:02:23.890	26.075	17.045	18.76	0.890844	0.714188	-0.033916	-0.117	-0.351	0.3255	0	354	68	3
2026-02-12	16:02:23.910	17.605	6.86	20.825	0.921832	0.80032	-0.044164	-0.12	-0.3495	0.3285	0	354	68	3
2026-02-12	16:02:23.930	6.545	-2.555	23.415	0.916708	0.821792	-0.070516	-0.1215	-0.351	0.3285	0	354	68	3
2026-02-12	16:02:23.950	-0.875	-12.775	27.93	0.893528	0.775188	-0.155672	-0.126	-0.348	0.3315	0	354	68	3
2026-02-12	16:02:23.970	-1.12	-24.605	34.3	0.916708	0.746396	-0.209352	-0.1335	-0.345	0.33	0	354	68	3
2026-02-12	16:02:23.990	1.54	-33.495	40.635	0.964532	0.842044	-0.151768	-0.135	-0.345	0.3345	0	354	68	3
2026-02-12	16:02:24.010	-0.91	-29.47	42.525	0.935008	0.966728	0.01586	-0.1365	-0.3435	0.339	0	359	27	3
2026-02-12	16:02:24.030	-4.305	-22.12	41.685	0.909632	0.963312	0.059536	-0.1425	-0.3345	0.3375	0	359	27	3
2026-02-12	16:02:24.050	-3.43	-3.99	37.415	0.862052	0.95526	0.061732	-0.15	-0.327	0.3375	0	359	27	3
2026-02-12	16:02:24.070	-12.705	4.095	36.75	0.899872	0.834236	-0.052948	-0.15	-0.327	0.3375	0	359	27	3
2026-02-12	16:02:24.090	-23.59	8.4	36.82	1.022604	0.732244	-0.18422	-0.1605	-0.327	0.3375	0	359	27	3
2026-02-12	16:02:24.110	-35.385	11.69	35.49	1.16022	0.67954	-0.2318	-0.171	-0.3285	0.3375	0	359	27	3
2026-02-12	16:02:24.130	-46.2	13.79	25.9	1.233176	0.595116	-0.230824	-0.1695	-0.318	0.3375	0	359	27	3
2026-02-12	16:02:24.150	-57.015	15.19	13.265	1.256112	0.474336	-0.274744	-0.1845	-0.327	0.3225	0	359	27	3
2026-02-12	16:02:24.170	-63.175	14.63	-2.24	1.231956	0.22814	-0.305488	-0.177	-0.318	0.3165	0	359	27	3
2026-02-12	16:02:24.190	-58.1	15.085	-12.005	1.199748	0.108336	-0.240828	-0.1905	-0.3285	0.312	0	359	27	3
2026-02-12	16:02:24.210	-58.135	16.73	-18.445	1.097268	-0.025376	-0.18178	-0.183	-0.3285	0.2925	0	357	9	3
2026-02-12	16:02:24.230	-44.73	19.32	-24.675	1.059692	0.092964	-0.1952	-0.18	-0.327	0.297	0	357	9	3
2026-02-12	16:02:24.250	-34.615	24.045	-30.835	1.006988	0.30256	-0.245952	-0.18	-0.33	0.291	0	357	9	3
2026-02-12	16:02:24.270	-36.75	24.605	-36.715	0.989176	0.384056	-0.271572	-0.18	-0.3405	0.282	0	357	9	3
2026-02-12	16:02:24.290	-38.5	27.44	-41.51	0.94184	0.376736	-0.239608	-0.1785	-0.342	0.276	0	357	9	3
2026-02-12	16:02:24.310	-35.63	32.69	-46.55	0.895236	0.410408	-0.184464	-0.1755	-0.3405	0.27	0	357	9	3
2026-02-12	16:02:24.330	-27.125	40.775	-54.985	0.823988	0.37454	-0.145912	-0.1725	-0.342	0.264	0	357	9	3
2026-02-12	16:02:24.350	-18.76	48.825	-63.875	0.737124	0.364536	-0.08174	-0.1725	-0.342	0.264	0	357	9	3
2026-02-12	16:02:24.370	-16.765	54.495	-69.335	0.695644	0.388204	-0.027572	-0.1425	-0.3615	0.2325	0	357	9	3
2026-02-12	16:02:24.390	-16.695	58.94	-73.605	0.666852	0.437004	0.006832	-0.1335	-0.3705	0.2385	0	357	9	3
2026-02-12	16:02:24.410	-20.16	62.895	-76.685	0.628788	0.43798	0.023668	-0.117	-0.375	0.2265	0	354	46	3
2026-02-12	16:02:24.430	-22.89	68.32	-73.85	0.616832	0.50142	0.040016	-0.1125	-0.3795	0.216	0	354	46	3
2026-02-12	16:02:24.450	-24.115	71.295	-74.865	0.615368	0.543144	0.101748	-0.1035	-0.3765	0.207	0	354	46	3
2026-02-12	16:02:24.470	-25.41	75.075	-72.8	0.629764	0.661484	0.160064	-0.096	-0.39	0.195	0	354	46	3
2026-02-12	16:02:24.490	-30.87	76.02	-70.945	0.651724	0.734684	0.194956	-0.0705	-0.3885	0.1905	0	354	46	3
2026-02-12	16:02:24.510	-36.4	73.78	-67.76	0.660264	0.743956	0.170068	-0.0645	-0.402	0.18	0	354	46	3
2026-02-12	16:02:24.530	-38.99	68.25	-62.16	0.69784	0.613416	0.177144	-0.0435	-0.396	0.1665	0	354	46	3
2026-02-12	16:02:24.550	-30.8	66.5	-54.81	0.668316	0.619272	0.219844	-0.0315	-0.405	0.159	0	354	46	3
2026-02-12	16:02:24.570	-25.13	63.595	-46.06	0.711016	0.55876	0.307684	-0.0165	-0.4035	0.156	0	354	46	3
2026-02-12	16:02:24.590	-22.96	58.8	-35.595	0.675636	0.51484	0.309392	-0.0135	-0.4065	0.1425	0	354	46	3
2026-02-12	16:02:24.610	-16.8	52.465	-19.705	0.679784	0.404308	0.318908	0	-0.3975	0.132	0	350	47	3
2026-02-12	16:02:24.630	-4.025	46.515	-4.06	0.589504	0.47702	0.335744	0	-0.3975	0.132	0	350	47	3
2026-02-12	16:02:24.650	1.365	40.215	6.545	0.54168	0.5185	0.349408	0.003	-0.402	0.126	0	350	47	3
2026-02-12	16:02:24.670	6.72	34.475	11.865	0.448472	0.529724	0.328912	0.0075	-0.402	0.126	0	350	47	3
2026-02-12	16:02:24.690	15.925	29.855	16.73	0.377224	0.569496	0.350384	0.0105	-0.4005	0.129	0	350	47	3
2026-02-12	16:02:24.710	22.75	24.535	17.64	0.362096	0.661972	0.3477	0.0105	-0.399	0.132	0	350	47	3
2026-02-12	16:02:24.730	26.95	19.775	15.925	0.362096	0.72102	0.388204	0.0045	-0.4035	0.138	0	350	47	3
2026-02-12	16:02:24.750	30.765	16.03	12.11	0.371612	0.72224	0.44896	0	-0.4095	0.1395	0	350	47	3
2026-02-12	16:02:24.770	38.325	14.28	8.47	0.376736	0.656848	0.442616	0.006	-0.411	0.144	0	350	47	3
2026-02-12	16:02:24.790	53.97	15.19	7.385	0.404064	0.648796	0.481168	0.012	-0.414	0.147	0	350	47	3
2026-02-12	16:02:24.810	71.225	18.025	7.245	0.486292	0.81374	0.491172	0.003	-0.4155	0.1575	0	347	6	3
2026-02-12	16:02:24.830	69.195	20.58	4.41	0.736392	1.177544	0.455304	-0.003	-0.42	0.1515	0	347	6	3
2026-02-12	16:02:24.850	52.535	27.405	-10.85	1.0614	1.737524	0.431148	0	-0.4155	0.1695	0	347	6	3
2026-02-12	16:02:24.870	33.915	26.39	-25.83	1.04188	1.6348	0.538508	0	-0.4245	0.1695	0	347	6	3
2026-02-12	16:02:24.890	11.97	13.055	-13.72	0.67466	0.783484	0.505812	0.0045	-0.426	0.1905	0	347	6	3
2026-02-12	16:02:24.910	29.54	12.075	10.29	0.55754	0.304268	0.413092	0.018	-0.4305	0.1845	0	347	6	3
2026-02-12	16:02:24.930	57.05	8.4	28.21	0.650016	0.51972	0.28914	0.015	-0.4305	0.1905	0	347	6	3
2026-02-12	16:02:24.950	57.96	-0.455	53.655	0.838628	0.727852	0.207644	0.0075	-0.4305	0.201	0	347	6	3
2026-02-12	16:02:24.970	47.425	-12.32	70.175	0.870592	0.868884	0.09394	-0.006	-0.4305	0.2085	0	347	6	3
2026-02-12	16:02:24.990	34.685	-28.14	76.125	0.837652	0.81008	0.017568	-0.0135	-0.429	0.2145	0	347	6	3
2026-02-12	16:02:25.010	35.63	-42.035	70.56	0.759816	0.661972	-0.040504	-0.024	-0.426	0.2205	0	349	87	3
2026-02-12	16:02:25.030	45.885	-53.795	60.27	0.659044	0.630496	-0.04392	-0.042	-0.423	0.2295	0	349	87	3
2026-02-12	16:02:25.050	47.53	-66.115	50.82	0.543388	0.61488	-0.033184	-0.0525	-0.423	0.2385	0	349	87	3
2026-02-12	16:02:25.070	42.91	-77.21	41.93	0.438224	0.625128	-0.012444	-0.0645	-0.423	0.249	0	349	87	3
2026-02-12	16:02:25.090	33.32	-86.555	35.945	0.345016	0.651724	0	-0.072	-0.429	0.2595	0	349	87	3
2026-02-12	16:02:25.110	21.665	-96.39	33.845	0.319884	0.675636	0.010004	-0.0795	-0.426	0.2715	0	349	87	3
2026-02-12	16:02:25.130	10.08	-104.16	35.105	0.352092	0.692716	0.014152	-0.0855	-0.4155	0.282	0	349	87	3
2026-02-12	16:02:25.150	-4.41	-109.935	40.25	0.432856	0.692716	-0.045384	-0.0855	-0.4155	0.288	0	349	87	3
2026-02-12	16:02:25.170	-16.695	-111.125	43.015	0.521428	0.661728	-0.115656	-0.099	-0.4095	0.309	0	349	87	3
2026-02-12	16:02:25.190	-26.985	-111.405	43.4	0.622688	0.6466	-0.154208	-0.1095	-0.417	0.3	0	349	87	3
2026-02-12	16:02:25.210	-35.63	-111.09	42.28	0.698572	0.614148	-0.175924	-0.12	-0.411	0.3105	0	353	125	3
2026-02-12	16:02:25.230	-37.555	-111.02	39.62	0.774456	0.560956	-0.183732	-0.1185	-0.4035	0.3075	0	353	125	3
2026-02-12	16:02:25.250	-33.985	-109.9	37.45	0.818864	0.540704	-0.1891	-0.1305	-0.408	0.321	0	353	125	3
2026-02-12	16:02:25.270	-27.72	-107.8	35.665	0.810324	0.575108	-0.196176	-0.138	-0.405	0.3105	0	353	125	3
2026-02-12	16:02:25.290	-21.035	-104.86	33.565	0.787144	0.619272	-0.199104	-0.132	-0.402	0.3225	0	353	125	3
2026-02-12	16:02:25.310	-17.01	-100.45	33.985	0.740784	0.61488	-0.194956	-0.1425	-0.3945	0.3255	0	353	125	3
2026-02-12	16:02:25.330	-10.85	-94.325	35.525	0.716384	0.653188	-0.195688	-0.153	-0.3975	0.3315	0	353	125	3
2026-02-12	16:02:25.350	-7.21	-81.165	38.045	0.701744	0.7015	-0.149572	-0.153	-0.3975	0.3315	0	353	125	3
2026-02-12	16:02:25.370	-7.56	-69.65	38.115	0.69052	0.729072	-0.111752	-0.153	-0.3975	0.3315	0	353	125	3
2026-02-12	16:02:25.390	-8.82	-56.28	36.785	0.69052	0.745664	-0.07808	-0.1635	-0.381	0.354	0	353	125	3
2026-02-12	16:02:25.410	-12.67	-41.72	36.12	0.6832	0.756156	-0.110532	-0.1665	-0.378	0.3585	0	356	100	3
2026-02-12	16:02:25.430	-16.905	-27.475	36.575	0.73444	0.769332	-0.171532	-0.171	-0.3735	0.36	0	356	100	3
2026-02-12	16:02:25.450	-22.05	-13.895	39.305	0.821792	0.763232	-0.243268	-0.1635	-0.3705	0.351	0	356	100	3
2026-02-12	16:02:25.470	-24.78	-3.395	42.28	0.985516	0.717848	-0.346724	-0.18	-0.3705	0.36	0	356	100	3
2026-02-12	16:02:25.490	-23.24	2.905	42.07	1.1163	0.782752	-0.445788	-0.1875	-0.3645	0.357	0	356	100	3
2026-02-12	16:02:25.510	-21.42	8.19	32.97	1.194868	0.96502	-0.422852	-0.201	-0.363	0.345	0	356	100	3
2026-02-12	16:02:25.530	-22.26	19.04	25.165	1.26636	0.926224	-0.332328	-0.192	-0.3585	0.3465	0	356	100	3
2026-02-12	16:02:25.550	-25.83	31.85	22.505	1.399096	0.783972	-0.363072	-0.204	-0.36	0.3375	0	356	100	3
2026-02-12	16:02:25.570	-27.405	40.005	14.28	1.459608	0.64294	-0.393328	-0.204	-0.36	0.3375	0	356	100	3
2026-02-12	16:02:25.590	-24.675	46.865	1.295	1.375184	0.629764	-0.381128	-0.207	-0.357	0.3255	0	356	100	3
2026-02-12	16:02:25.610	-29.75	53.69	-15.54	1.257576	0.425536	-0.355508	-0.2115	-0.357	0.3105	0	356	29	3
2026-02-12	16:02:25.630	-28.035	58.345	-32.83	1.170224	0.347456	-0.375272	-0.21	-0.36	0.306	0	356	29	3
2026-02-12	16:02:25.650	-29.435	60.13	-50.4	1.039684	0.361852	-0.413092	-0.2085	-0.363	0.294	0	356	29	3
2026-02-12	16:02:25.670	-39.655	58.03	-62.02	0.892308	0.26352	-0.387716	-0.204	-0.366	0.279	0	356	29	3
2026-02-12	16:02:25.690	-46.515	58.065	-64.925	0.781776	0.194956	-0.255712	-0.195	-0.3705	0.27	0	356	29	3
2026-02-12	16:02:25.710	-41.965	63.455	-63.175	0.68076	0.1952	-0.130784	-0.1845	-0.375	0.2595	0	356	29	3
2026-02-12	16:02:25.730	-32.655	71.26	-58.73	0.633668	0.226676	-0.093696	-0.174	-0.381	0.246	0	356	29	3
2026-02-12	16:02:25.750	-15.575	77.49	-57.82	0.621468	0.357704	-0.121512	-0.1635	-0.3855	0.234	0	356	29	3
2026-02-12	16:02:25.770	-9.1	82.285	-51.94	0.633424	0.434564	-0.132736	-0.159	-0.387	0.231	0	356	29	3
2026-02-12	16:02:25.790	-8.61	85.75	-51.38	0.60146	0.477996	-0.101504	-0.1425	-0.3915	0.2115	0	356	29	3
2026-02-12	16:02:25.810	-11.48	87.185	-49.07	0.646844	0.482876	-0.058316	-0.123	-0.405	0.2025	0	359	49	3
2026-02-12	16:02:25.830	-16.24	88.515	-52.78	0.65514	0.492636	-0.0183	-0.12	-0.4095	0.1935	0	359	49	3
2026-02-12	16:02:25.850	-23.73	92.05	-52.045	0.659044	0.5124	0.058316	-0.1095	-0.4005	0.1755	0	359	49	3
2026-02-12	16:02:25.870	-32.445	94.43	-48.93	0.598776	0.53314	0.12688	-0.096	-0.405	0.1785	0	359	49	3
2026-02-12	16:02:25.890	-32.55	94.08	-44.765	0.575352	0.551684	0.184464	-0.096	-0.405	0.1695	0	359	49	3
2026-02-12	16:02:25.910	-21.245	90.09	-39.2	0.54412	0.62586	0.278892	-0.0885	-0.4095	0.1545	0	359	49	3
2026-02-12	16:02:25.930	-17.045	86.625	-34.195	0.55876	0.660996	0.322812	-0.066	-0.414	0.144	0	359	49	3
2026-02-12	16:02:25.950	-20.16	84.98	-28.385	0.49776	0.659288	0.343552	-0.0525	-0.4155	0.1365	0	359	49	3
2026-02-12	16:02:25.970	-23.45	77.35	-21.56	0.526308	0.494832	0.369172	-0.0495	-0.417	0.129	0	359	49	3
2026-02-12	16:02:25.990	-12.18	67.76	-10.325	0.517036	0.416264	0.349652	-0.0465	-0.417	0.123	0	359	49	3
2026-02-12	16:02:26.010	2.135	60.69	-0.77	0.50386	0.378932	0.358192	-0.024	-0.414	0.114	0	362	72	3
2026-02-12	16:02:26.030	19.46	56.245	7.105	0.479704	0.4819	0.393572	-0.0255	-0.4215	0.108	0	362	72	3
2026-02-12	16:02:26.050	34.3	49.7	12.075	0.467504	0.611708	0.425536	-0.0195	-0.411	0.114	0	362	72	3
2026-02-12	16:02:26.070	45.255	40.285	13.16	0.451156	0.658068	0.467992	-0.018	-0.417	0.1095	0	362	72	3
2026-02-12	16:02:26.090	54.565	33.53	12.775	0.429196	0.664656	0.503128	-0.015	-0.429	0.1125	0	362	72	3
2026-02-12	16:02:26.110	65.59	28.385	12.215	0.436028	0.652944	0.531188	-0.0105	-0.4185	0.123	0	362	72	3
2026-02-12	16:02:26.130	75.95	26.355	13.545	0.460428	0.791292	0.522648	-0.0165	-0.4245	0.138	0	362	72	3
2026-02-12	16:02:26.150	71.645	24.85	9.485	0.61976	1.051396	0.47336	-0.0195	-0.4335	0.1395	0	362	72	3
2026-02-12	16:02:26.170	56.98	24.29	-4.48	0.919636	1.410808	0.535336	-0.0135	-0.429	0.153	0	362	72	3
2026-02-12	16:02:26.190	53.935	17.78	-18.69	1.07604	1.532808	0.555344	-0.0165	-0.429	0.159	0	362	72	3
2026-02-12	16:02:26.210	30.205	8.365	-17.185	1.165588	1.326628	0.415776	-0.0105	-0.4365	0.1785	0	368	13	3
2026-02-12	16:02:26.230	17.22	4.935	-10.5	0.844484	0.702476	0.412604	-0.0165	-0.4335	0.1725	0	368	13	3
2026-02-12	16:02:26.250	38.395	-6.895	16.52	0.437248	0.401624	0.162016	-0.0045	-0.4425	0.1755	0	368	13	3
2026-02-12	16:02:26.270	21.875	-17.57	39.445	0.54778	0.337696	0.044652	-0.009	-0.444	0.1815	0	368	13	3
2026-02-12	16:02:26.290	27.335	-24.01	59.255	0.643916	0.405772	-0.051972	-0.018	-0.444	0.192	0	368	13	3
2026-02-12	16:02:26.310	42.945	-32.375	69.265	0.792756	0.584136	-0.070516	-0.03	-0.4365	0.195	0	368	13	3
2026-02-12	16:02:26.330	53.305	-42.315	70.63	0.853756	0.818376	-0.07808	-0.045	-0.432	0.2025	0	368	13	3
2026-02-12	16:02:26.350	46.445	-54.95	60.865	0.817644	0.883768	-0.101992	-0.06	-0.4335	0.219	0	368	13	3
2026-02-12	16:02:26.370	34.825	-61.635	50.715	0.64172	0.78568	-0.092232	-0.0675	-0.432	0.2265	0	368	13	3
2026-02-12	16:02:26.390	27.3	-67.13	44.31	0.509228	0.671244	-0.041724	-0.0735	-0.4305	0.231	0	368	13	3
2026-02-12	16:02:26.410	29.995	-70.385	41.265	0.438712	0.60512	-0.011224	-0.084	-0.429	0.243	0	378	60	3
2026-02-12	16:02:26.430	35.735	-72.485	41.44	0.40382	0.593652	-0.027816	-0.096	-0.4305	0.255	0	378	60	3
2026-02-12	16:02:26.450	38.57	-74.235	43.715	0.423096	0.585112	-0.06588	-0.1035	-0.435	0.261	0	378	60	3
2026-02-12	16:02:26.470	36.47	-76.685	45.92	0.459696	0.632448	-0.088816	-0.1125	-0.4245	0.267	0	378	60	3
2026-02-12	16:02:26.490	24.605	-79.59	47.25	0.526552	0.6588	-0.108824	-0.117	-0.423	0.2805	0	378	60	3
2026-02-12	16:02:26.510	7.49	-81.445	46.48	0.580232	0.64782	-0.126392	-0.1275	-0.4125	0.294	0	378	60	3
2026-02-12	16:02:26.530	-10.745	-83.37	40.74	0.63684	0.61244	-0.162992	-0.1395	-0.4125	0.297	0	378	60	3
2026-02-12	16:02:26.550	-14.63	-84.665	35.84	0.684176	0.607804	-0.188368	-0.144	-0.405	0.303	0	378	60	3
2026-02-12	16:02:26.570	-15.785	-84.98	32.2	0.718092	0.618052	-0.1952	-0.1515	-0.399	0.315	0	378	60	3
2026-02-12	16:02:26.590	-18.83	-84.525	29.96	0.745176	0.620492	-0.16958	-0.1545	-0.4005	0.318	0	378	60	3
2026-02-12	16:02:26.610	-21.56	-82.145	27.685	0.759328	0.6283	-0.17568	-0.1545	-0.402	0.321	0	385	78	3
2026-02-12	16:02:26.630	-22.365	-78.085	26.425	0.779336	0.616588	-0.180316	-0.156	-0.396	0.3285	0	385	78	3
2026-02-12	16:02:26.650	-20.545	-72.485	26.11	0.795196	0.624396	-0.210328	-0.162	-0.387	0.3315	0	385	78	3
2026-02-12	16:02:26.670	-16.975	-65.73	25.97	0.808128	0.643184	-0.222772	-0.1665	-0.3885	0.336	0	385	78	3
2026-02-12	16:02:26.690	-13.93	-57.54	25.795	0.799588	0.672708	-0.21472	-0.168	-0.3855	0.3375	0	385	78	3
2026-02-12	16:02:26.710	-10.29	-47.635	26.46	0.786412	0.687592	-0.187148	-0.168	-0.381	0.336	0	385	78	3
2026-02-12	16:02:26.730	-7.595	-36.435	27.86	0.770308	0.717116	-0.16958	-0.1725	-0.381	0.342	0	385	78	3
2026-02-12	16:02:26.750	-6.965	-25.095	29.61	0.793	0.749324	-0.144448	-0.1785	-0.378	0.348	0	385	78	3
2026-02-12	16:02:26.770	-9.625	-13.475	32.2	0.843752	0.754204	-0.118096	-0.183	-0.3795	0.348	0	385	78	3
2026-02-12	16:02:26.790	-11.725	-2.8	33.81	0.954284	0.79544	-0.160308	-0.1965	-0.378	0.3465	0	385	78	3
2026-02-12	16:02:26.810	-17.57	4.55	31.99	1.172908	0.838628	-0.282552	-0.207	-0.3765	0.3465	0	386	41	3
2026-02-12	16:02:26.830	-14.07	9.835	25.445	1.248792	0.941596	-0.402844	-0.207	-0.3765	0.3465	0	386	41	3
2026-02-12	16:02:26.850	-12.145	14.63	18.935	1.303448	0.92232	-0.328912	-0.2085	-0.3675	0.3345	0	386	41	3
2026-02-12	16:02:26.870	-15.82	22.855	17.325	1.312476	0.719312	-0.234728	-0.207	-0.36	0.327	0	386	41	3
2026-02-12	16:02:26.890	-14.805	33.6	13.335	1.28466	0.599264	-0.216672	-0.21	-0.36	0.327	0	386	41	3
2026-02-12	16:02:26.910	-11.865	44.03	4.725	1.250744	0.53558	-0.247416	-0.216	-0.3675	0.321	0	386	41	3
2026-02-12	16:02:26.930	-12.88	52.36	-8.715	1.167784	0.51972	-0.294996	-0.2145	-0.354	0.315	0	386	41	3
2026-02-12	16:02:26.950	-23.94	55.545	-25.375	1.103856	0.479948	-0.294264	-0.21	-0.357	0.3075	0	386	41	3
2026-02-12	16:02:26.970	-37.905	56.42	-43.61	1.00284	0.45994	-0.330132	-0.204	-0.3585	0.306	0	386	41	3
2026-02-12	16:02:26.990	-50.435	53.725	-56.77	0.890844	0.370392	-0.31354	-0.2025	-0.36	0.2955	0	386	41	3
2026-02-12	16:02:27.010	-56.14	53.655	-63.665	0.78934	0.366	-0.202032	-0.195	-0.3675	0.279	0	383	22	3
2026-02-12	16:02:27.030	-60.48	56.665	-65.52	0.704184	0.305976	-0.080764	-0.1845	-0.3705	0.264	0	383	22	3
2026-02-12	16:02:27.050	-55.405	61.005	-65.38	0.678564	0.304024	-0.052216	-0.18	-0.372	0.2445	0	383	22	3
2026-02-12	16:02:27.070	-36.61	66.92	-64.365	0.657092	0.38918	-0.072224	-0.171	-0.381	0.237	0	383	22	3
2026-02-12	16:02:27.090	-29.61	70.105	-62.37	0.672464	0.477996	-0.088816	-0.1635	-0.3855	0.2385	0	383	22	3
2026-02-12	16:02:27.110	-34.23	73.745	-60.305	0.669536	0.446764	-0.098088	-0.1635	-0.3855	0.2385	0	383	22	3
2026-02-12	16:02:27.130	-36.015	76.335	-59.325	0.657824	0.42578	-0.049288	-0.1275	-0.3885	0.21	0	383	22	3
2026-02-12	16:02:27.150	-40.67	79.24	-57.715	0.698816	0.464332	0.014396	-0.117	-0.3975	0.1905	0	383	22	3
2026-02-12	16:02:27.170	-42.07	83.72	-57.995	0.671732	0.532408	0.056852	-0.099	-0.396	0.171	0	383	22	3
2026-02-12	16:02:27.190	-45.92	85.085	-56.42	0.630252	0.521672	0.086132	-0.087	-0.402	0.165	0	383	22	3
2026-02-12	16:02:27.210	-45.675	86.38	-49.805	0.611952	0.477752	0.137372	-0.0705	-0.405	0.153	0	379	68	3
2026-02-12	16:02:27.230	-36.47	85.33	-41.72	0.57096	0.508252	0.20008	-0.0645	-0.4005	0.135	0	379	68	3
2026-02-12	16:02:27.250	-23.555	83.335	-35.315	0.55876	0.561932	0.281088	-0.0555	-0.4005	0.126	0	379	68	3
2026-02-12	16:02:27.270	-13.51	80.92	-29.085	0.538508	0.622688	0.316224	-0.0345	-0.3945	0.123	0	379	68	3
2026-02-12	16:02:27.290	-8.47	79.205	-21.945	0.510692	0.590724	0.32818	-0.0285	-0.3945	0.111	0	379	68	3
2026-02-12	16:02:27.310	1.26	74.235	-13.685	0.493856	0.531188	0.367464	-0.021	-0.405	0.099	0	379	68	3
2026-02-12	16:02:27.330	13.405	68.88	-5.18	0.45506	0.542412	0.403332	-0.0105	-0.399	0.105	0	379	68	3
2026-02-12	16:02:27.350	23.625	60.935	3.78	0.461648	0.543632	0.431392	-0.012	-0.405	0.1065	0	379	68	3
2026-02-12	16:02:27.370	40.915	50.47	10.885	0.392108	0.523868	0.444568	-0.0075	-0.405	0.1065	0	379	68	3
2026-02-12	16:02:27.390	58.31	41.37	16.1	0.352092	0.547292	0.495076	-0.0075	-0.405	0.1065	0	379	68	3
2026-02-12	16:02:27.410	68.46	37.94	17.535	0.358924	0.688568	0.524844	-0.0015	-0.4095	0.114	0	374	49	3
2026-02-12	16:02:27.430	66.57	34.72	14.7	0.491416	0.90768	0.498492	0.0015	-0.414	0.132	0	374	49	3
2026-02-12	16:02:27.450	49.21	28.245	7.735	0.747372	1.159	0.458476	-0.003	-0.417	0.1485	0	374	49	3
2026-02-12	16:02:27.470	32.375	22.47	-3.045	1.124352	1.338584	0.522892	-0.006	-0.42	0.15	0	374	49	3
2026-02-12	16:02:27.490	56.49	15.715	-12.565	1.064816	1.295152	0.626104	-0.0015	-0.4185	0.15	0	374	49	3
2026-02-12	16:02:27.510	63.14	-0.28	-7.77	0.686128	0.9943	0.28304	0.0045	-0.4185	0.1545	0	374	49	3
2026-02-12	16:02:27.530	48.86	-11.025	-5.88	0.530212	0.780068	0.169824	0	-0.423	0.1605	0	374	49	3
2026-02-12	16:02:27.550	28.315	-18.165	8.33	0.45506	0.476044	0.226676	0.0045	-0.4245	0.1695	0	374	49	3
2026-02-12	16:02:27.570	17.605	-25.83	31.325	0.496784	0.357704	0.146888	-0.003	-0.4245	0.1785	0	374	49	3
2026-02-12	16:02:27.590	28.735	-33.005	43.89	0.61366	0.535092	0.052948	-0.006	-0.426	0.183	0	374	49	3
2026-02-12	16:02:27.610	37.24	-40.95	45.29	0.803248	0.787144	0.031476	-0.0135	-0.4275	0.189	0	374	25	3
2026-02-12	16:02:27.630	29.96	-51.59	42.77	0.8418	0.868396	0.004148	-0.012	-0.423	0.186	0	374	25	3
2026-02-12	16:02:27.650	20.93	-64.995	35	0.75518	0.781288	-0.064172	-0.0285	-0.429	0.1965	0	374	25	3
2026-02-12	16:02:27.670	24.78	-73.29	30.275	0.612928	0.659044	-0.074176	-0.0285	-0.429	0.1965	0	374	25	3
2026-02-12	16:02:27.690	34.125	-77.595	30.555	0.526064	0.640744	-0.056364	-0.0405	-0.426	0.21	0	374	25	3
2026-02-12	16:02:27.710	42.035	-80.395	34.37	0.464088	0.668316	-0.050508	-0.054	-0.42	0.228	0	374	25	3
2026-02-12	16:02:27.730	37.135	-82.04	37.275	0.427	0.67344	-0.05368	-0.0585	-0.4155	0.24	0	374	25	3
2026-02-12	16:02:27.750	26.915	-82.215	41.125	0.410652	0.656604	-0.058072	-0.066	-0.4125	0.2475	0	374	25	3
2026-02-12	16:02:27.770	18.305	-82.985	45.01	0.42944	0.61732	-0.091012	-0.081	-0.4125	0.2565	0	374	25	3
2026-02-12	16:02:27.790	10.5	-85.225	48.265	0.490684	0.61854	-0.132492	-0.093	-0.408	0.2655	0	374	25	3
2026-02-12	16:02:27.810	1.365	-87.535	49.49	0.562664	0.613904	-0.148352	-0.096	-0.402	0.267	0	374	73	3
2026-02-12	16:02:27.830	-5.74	-89.32	48.615	0.618296	0.608292	-0.155916	-0.105	-0.396	0.276	0	374	73	3
2026-02-12	16:02:27.850	-11.025	-90.965	45.78	0.672464	0.608536	-0.168116	-0.1095	-0.3945	0.285	0	374	73	3
2026-02-12	16:02:27.870	-16.52	-92.015	43.75	0.698328	0.5978	-0.197884	-0.1155	-0.3945	0.291	0	374	73	3
2026-02-12	16:02:27.890	-20.685	-93.1	41.16	0.735172	0.632692	-0.216916	-0.1275	-0.393	0.297	0	374	73	3
2026-02-12	16:02:27.910	-24.92	-94.5	37.695	0.752008	0.65148	-0.232288	-0.132	-0.39	0.3015	0	374	73	3
2026-02-12	16:02:27.930	-25.305	-94.815	33.95	0.781288	0.679784	-0.216184	-0.1425	-0.3885	0.3015	0	374	73	3
2026-02-12	16:02:27.950	-21.63	-91.385	31.5	0.795684	0.682468	-0.194224	-0.1485	-0.39	0.3	0	374	73	3
2026-02-12	16:02:27.970	-15.05	-86.24	30.905	0.799588	0.690032	-0.19276	-0.1485	-0.381	0.321	0	374	73	3
2026-02-12	16:02:27.990	-8.96	-79.415	31.115	0.778848	0.703696	-0.167628	-0.1545	-0.3795	0.321	0	374	73	3
2026-02-12	16:02:28.010	-6.335	-69.265	32.235	0.750788	0.720288	-0.138592	-0.159	-0.372	0.3255	0	372	60	3
2026-02-12	16:02:28.030	-4.935	-55.58	33.425	0.707844	0.722484	-0.124928	-0.165	-0.369	0.336	0	372	60	3
2026-02-12	16:02:28.050	-3.29	-40.915	35.14	0.690032	0.72712	-0.154208	-0.1635	-0.363	0.3255	0	372	60	3
2026-02-12	16:02:28.070	-3.78	-25.935	37.24	0.719068	0.706868	-0.178852	-0.165	-0.363	0.3315	0	372	60	3
2026-02-12	16:02:28.090	-4.095	-8.12	40.635	0.776408	0.677344	-0.217404	-0.1695	-0.36	0.3375	0	372	60	3
2026-02-12	16:02:28.110	2.135	13.265	43.54	0.855708	0.664412	-0.293044	-0.174	-0.3525	0.3375	0	372	60	3
2026-02-12	16:02:28.130	15.155	30.45	44.835	1.012844	0.655628	-0.434564	-0.1815	-0.3495	0.339	0	372	60	3
2026-02-12	16:02:28.150	26.635	38.675	43.015	1.178764	0.80642	-0.538996	-0.1965	-0.351	0.3375	0	372	60	3
2026-02-12	16:02:28.170	33.18	45.185	30.205	1.220488	1.040416	-0.477508	-0.201	-0.3435	0.3375	0	372	60	3
2026-02-12	16:02:28.190	28.315	51.66	19.635	1.325652	0.971608	-0.289384	-0.1995	-0.3375	0.342	0	372	60	3
2026-02-12	16:02:28.210	15.96	60.165	14.28	1.38836	0.82106	-0.1952	-0.204	-0.3345	0.3405	0	366	4	3
2026-02-12	16:02:28.230	1.12	64.225	2.73	1.321504	0.717604	-0.310124	-0.2085	-0.3315	0.339	0	366	4	3
2026-02-12	16:02:28.250	-15.645	60.725	-8.75	1.216096	0.648064	-0.313296	-0.2115	-0.3345	0.3255	0	366	4	3
2026-02-12	16:02:28.270	-37.135	58.975	-23.52	1.090436	0.520452	-0.2074	-0.204	-0.3315	0.3225	0	366	4	3
2026-02-12	16:02:28.290	-49.14	58.17	-39.445	1.021628	0.48068	-0.161284	-0.207	-0.3345	0.3105	0	366	4	3
2026-02-12	16:02:28.310	-61.46	55.545	-56.595	0.926712	0.461404	-0.214964	-0.2025	-0.3465	0.294	0	366	4	3
2026-02-12	16:02:28.330	-78.61	50.75	-68.32	0.829356	0.330132	-0.221552	-0.1875	-0.3375	0.2775	0	366	4	3
2026-02-12	16:02:28.350	-81.165	46.34	-72.31	0.736636	0.238632	-0.132004	-0.18	-0.3465	0.2625	0	366	4	3
2026-02-12	16:02:28.370	-76.265	45.99	-69.195	0.606828	0.107116	-0.079788	-0.165	-0.351	0.246	0	366	4	3
2026-02-12	16:02:28.390	-59.57	45.92	-65.24	0.559248	0.169336	-0.085644	-0.15	-0.3525	0.225	0	366	4	3
2026-02-12	16:02:28.410	-43.715	46.48	-59.22	0.526552	0.308172	-0.117852	-0.15	-0.3555	0.2145	0	362	62	3
2026-02-12	16:02:28.430	-41.615	45.325	-50.645	0.528504	0.416752	-0.125172	-0.1365	-0.3645	0.213	0	362	62	3
2026-02-12	16:02:28.450	-47.25	43.295	-44.73	0.589504	0.457744	-0.130296	-0.1245	-0.3675	0.1995	0	362	62	3
2026-02-12	16:02:28.470	-49.91	43.785	-42.98	0.674172	0.498736	-0.096136	-0.1245	-0.3675	0.192	0	362	62	3
2026-02-12	16:02:28.490	-53.795	46.55	-45.43	0.778848	0.5185	-0.008784	-0.111	-0.366	0.1785	0	362	62	3
2026-02-12	16:02:28.510	-55.58	49.49	-52.15	0.839604	0.575596	0.038308	-0.111	-0.366	0.1785	0	362	62	3
2026-02-12	16:02:28.530	-55.475	52.5	-56.105	0.824476	0.578036	0.099308	-0.0945	-0.3675	0.1605	0	362	62	3
2026-02-12	16:02:28.550	-54.6	53.76	-55.265	0.724924	0.512888	0.159332	-0.0735	-0.372	0.141	0	362	62	3
2026-02-12	16:02:28.570	-48.93	53.06	-53.48	0.6466	0.580476	0.197884	-0.0615	-0.3735	0.1335	0	362	62	3
2026-02-12	16:02:28.590	-41.825	52.605	-50.155	0.61244	0.645868	0.229116	-0.054	-0.3705	0.1245	0	362	62	3
2026-02-12	16:02:28.610	-39.2	49.105	-44.94	0.57706	0.659776	0.267912	-0.054	-0.3675	0.123	0	358	90	3
2026-02-12	16:02:28.630	-36.085	45.045	-37.275	0.56608	0.546072	0.286456	-0.036	-0.3735	0.111	0	358	90	3
2026-02-12	16:02:28.650	-24.36	41.58	-28.525	0.535824	0.47214	0.283772	-0.0285	-0.3735	0.0975	0	358	90	3
2026-02-12	16:02:28.670	-6.335	38.675	-17.955	0.567544	0.440176	0.33306	-0.0195	-0.3705	0.093	0	358	90	3
2026-02-12	16:02:28.690	12.775	38.885	-8.05	0.560712	0.454572	0.370636	-0.0135	-0.363	0.096	0	358	90	3
2026-02-12	16:02:28.710	29.995	37.94	0.14	0.543632	0.483852	0.3782	-0.006	-0.363	0.0975	0	358	90	3
2026-02-12	16:02:28.730	45.465	35.35	6.23	0.504836	0.507276	0.394792	-0.003	-0.369	0.0885	0	358	90	3
2026-02-12	16:02:28.750	59.92	34.02	11.97	0.45628	0.53558	0.411384	-0.009	-0.3705	0.105	0	358	90	3
2026-02-12	16:02:28.770	73.465	33.845	15.295	0.45628	0.708332	0.396012	-0.003	-0.375	0.108	0	358	90	3
2026-02-12	16:02:28.790	59.255	33.53	6.93	0.786656	1.221464	0.343796	-0.003	-0.375	0.108	0	358	90	3
2026-02-12	16:02:28.810	30.24	35.56	-12.145	1.199016	1.596492	0.46238	-0.0015	-0.3765	0.12	0	357	51	3
2026-02-12	16:02:28.830	32.095	30.485	-27.405	1.172908	1.34078	0.648308	0	-0.381	0.1335	0	357	51	3
2026-02-12	16:02:28.850	49.035	16.38	-16.38	0.77226	0.805444	0.396012	0.0045	-0.384	0.1365	0	357	51	3
2026-02-12	16:02:28.870	52.745	16.625	-5.985	0.543144	0.688568	0.275964	0.009	-0.39	0.1455	0	357	51	3
2026-02-12	16:02:28.890	46.62	12.285	3.71	0.524356	0.546072	0.234484	0.0105	-0.396	0.1545	0	357	51	3
2026-02-12	16:02:28.910	32.725	6.965	24.465	0.566568	0.449936	0.126148	0.012	-0.399	0.159	0	357	51	3
2026-02-12	16:02:28.930	38.64	-1.295	38.5	0.61	0.512888	0.05124	0.009	-0.4005	0.1635	0	357	51	3
2026-02-12	16:02:28.950	49.525	-10.36	42.315	0.751276	0.75518	0.027328	0.0015	-0.3945	0.171	0	357	51	3
2026-02-12	16:02:28.970	48.895	-20.3	41.37	0.778116	0.82106	0.019276	-0.0045	-0.3915	0.1785	0	357	51	3
2026-02-12	16:02:28.990	45.57	-30.555	36.855	0.697108	0.743468	-0.039284	-0.009	-0.3945	0.183	0	357	51	3
2026-02-12	16:02:29.010	44.03	-37.765	31.99	0.581208	0.64416	-0.09516	-0.0165	-0.393	0.189	0	358	22	3
2026-02-12	16:02:29.030	47.705	-42.49	30.03	0.472628	0.600728	-0.099308	-0.03	-0.393	0.201	0	358	22	3
2026-02-12	16:02:29.050	48.965	-48.545	30.345	0.41968	0.616832	-0.077348	-0.036	-0.393	0.2115	0	358	22	3
2026-02-12	16:02:29.070	42.945	-55.685	31.955	0.393572	0.682956	-0.055876	-0.036	-0.3945	0.2145	0	358	22	3
2026-02-12	16:02:29.090	33.075	-59.115	33.915	0.407236	0.72712	-0.065636	-0.036	-0.3945	0.2145	0	358	22	3
2026-02-12	16:02:29.110	18.41	-63.21	33.95	0.450424	0.722972	-0.076372	-0.057	-0.396	0.24	0	358	22	3
2026-02-12	16:02:29.130	5.39	-66.15	34.055	0.514352	0.695644	-0.080276	-0.06	-0.393	0.246	0	358	22	3
2026-02-12	16:02:29.150	-2.205	-68.355	33.32	0.610976	0.651236	-0.091988	-0.0705	-0.3915	0.246	0	358	22	3
2026-02-12	16:02:29.170	-2.555	-67.305	32.2	0.67344	0.63928	-0.095892	-0.0765	-0.387	0.2625	0	358	22	3
2026-02-12	16:02:29.190	-1.435	-66.99	30.66	0.740296	0.60146	-0.09857599	-0.0765	-0.3825	0.261	0	358	22	3
2026-02-12	16:02:29.210	-0.91	-65.555	30.065	0.755912	0.579256	-0.112972	-0.081	-0.3765	0.2595	0	359	56	3
2026-02-12	16:02:29.230	1.435	-65.345	29.995	0.750788	0.604144	-0.142252	-0.0885	-0.3765	0.261	0	359	56	3
2026-02-12	16:02:29.250	3.22	-65.975	29.4	0.73078	0.631228	-0.15372	-0.0915	-0.378	0.2655	0	359	56	3
2026-02-12	16:02:29.270	3.815	-67.27	29.505	0.708332	0.682712	-0.167384	-0.096	-0.375	0.2715	0	359	56	3
2026-02-12	16:02:29.290	0.91	-67.97	29.96	0.71126	0.717116	-0.151524	-0.102	-0.3705	0.279	0	359	56	3
2026-02-12	16:02:29.310	-1.33	-66.64	31.185	0.697596	0.706624	-0.131028	-0.108	-0.3675	0.2805	0	359	56	3
2026-02-12	16:02:29.330	-0.63	-64.54	33.565	0.684908	0.694912	-0.125904	-0.1125	-0.3675	0.2865	0	359	56	3
2026-02-12	16:02:29.350	1.47	-58.135	33.565	0.685396	0.732488	-0.124196	-0.114	-0.369	0.297	0	359	56	3
2026-02-12	16:02:29.370	1.05	-53.025	33.18	0.694668	0.72834	-0.128832	-0.114	-0.369	0.297	0	359	56	3
2026-02-12	16:02:29.390	1.19	-46.865	33.635	0.70028	0.726144	-0.1342	-0.1185	-0.363	0.3045	0	359	56	3
2026-02-12	16:02:29.410	1.015	-39.9	34.265	0.711748	0.7442	-0.127612	-0.1335	-0.357	0.3105	0	355	40	3
2026-02-12	16:02:29.430	-0.175	-31.885	35.175	0.711504	0.760792	-0.139812	-0.141	-0.3495	0.3135	0	355	40	3
2026-02-12	16:02:29.450	-3.36	-24.15	36.365	0.731024	0.773968	-0.15006	-0.1485	-0.3495	0.3195	0	355	40	3
2026-02-12	16:02:29.470	-7.7	-17.5	38.36	0.801296	0.759572	-0.195688	-0.1395	-0.351	0.315	0	355	40	3
2026-02-12	16:02:29.490	-14	-13.545	41.65	0.945256	0.751032	-0.225212	-0.153	-0.3465	0.318	0	355	40	3
2026-02-12	16:02:29.510	-20.195	-8.575	40.495	1.021872	0.812276	-0.244732	-0.1515	-0.345	0.3165	0	355	40	3
2026-02-12	16:02:29.530	-18.2	-2.24	31.745	1.035048	0.969412	-0.339404	-0.165	-0.336	0.3195	0	355	40	3
2026-02-12	16:02:29.550	-17.92	3.64	23.555	1.119716	0.995276	-0.328912	-0.1695	-0.3345	0.3105	0	355	40	3
2026-02-12	16:02:29.570	-19.81	8.015	23.485	1.2017	0.904264	-0.317932	-0.174	-0.3255	0.315	0	355	40	3
2026-02-12	16:02:29.590	-24.185	10.29	23.065	1.308084	0.871568	-0.3538	-0.1755	-0.3345	0.3045	0	355	40	3
2026-02-12	16:02:29.610	-31.325	12.075	20.475	1.394704	0.74664	-0.371612	-0.168	-0.324	0.306	0	347	7	3
2026-02-12	16:02:29.630	-23.695	24.815	2.765	1.259528	0.521672	-0.30744	-0.186	-0.3225	0.297	0	347	7	3
2026-02-12	16:02:29.650	-19.46	36.085	-12.635	1.189012	0.442616	-0.259128	-0.1815	-0.321	0.2925	0	347	7	3
2026-02-12	16:02:29.670	-27.685	45.29	-30.24	1.114836	0.464332	-0.30256	-0.174	-0.3195	0.2835	0	347	7	3
2026-02-12	16:02:29.690	-45.815	48.755	-45.115	0.966484	0.352824	-0.338916	-0.168	-0.3225	0.279	0	347	7	3
2026-02-12	16:02:29.710	-58.415	48.93	-52.115	0.818376	0.297436	-0.243024	-0.162	-0.3285	0.27	0	347	7	3
2026-02-12	16:02:29.730	-59.325	52.465	-55.37	0.69784	0.2684	-0.132248	-0.1545	-0.3285	0.2535	0	347	7	3
2026-02-12	16:02:29.750	-48.615	60.2	-54.285	0.575596	0.321592	-0.109312	-0.147	-0.333	0.243	0	347	7	3
2026-02-12	16:02:29.770	-35.49	66.01	-53.55	0.557296	0.451888	-0.1159	-0.144	-0.339	0.24	0	347	7	3
2026-02-12	16:02:29.790	-28.175	69.37	-52.815	0.59902	0.537288	-0.132248	-0.135	-0.3375	0.2295	0	347	7	3
2026-02-12	16:02:29.810	-28.35	72.73	-51.835	0.651724	0.60878	-0.156648	-0.1245	-0.351	0.222	0	341	66	3
2026-02-12	16:02:29.830	-31.57	75.425	-52.605	0.719556	0.584868	-0.127856	-0.1155	-0.336	0.2115	0	341	66	3
2026-02-12	16:02:29.850	-31.395	78.4	-54.635	0.753472	0.508984	-0.041968	-0.105	-0.348	0.1965	0	341	66	3
2026-02-12	16:02:29.870	-33.6	80.99	-55.02	0.747372	0.40992	0.00488	-0.099	-0.354	0.1935	0	341	66	3
2026-02-12	16:02:29.890	-32.585	83.965	-54.81	0.725656	0.438224	0.029768	-0.0735	-0.3555	0.1695	0	341	66	3
2026-02-12	16:02:29.910	-40.495	88.165	-49	0.622688	0.469212	0.072712	-0.063	-0.348	0.1725	0	341	66	3
2026-02-12	16:02:29.930	-44.765	88.62	-40.635	0.551928	0.44408	0.127368	-0.0525	-0.354	0.162	0	341	66	3
2026-02-12	16:02:29.950	-36.365	86.8	-33.985	0.467992	0.498736	0.188124	-0.0375	-0.3585	0.144	0	341	66	3
2026-02-12	16:02:29.970	-28.56	80.71	-28.175	0.465552	0.5856	0.208132	-0.03	-0.3525	0.135	0	341	66	3
2026-02-12	16:02:29.990	-20.335	74.34	-26.145	0.46604	0.60146	0.23058	-0.0225	-0.3495	0.1305	0	341	66	3
2026-02-12	16:02:30.010	-12.355	68.355	-22.575	0.440176	0.580964	0.281576	-0.015	-0.3525	0.12	0	336	90	3
2026-02-12	16:02:30.030	-3.605	59.64	-16.38	0.464332	0.513132	0.345504	-0.006	-0.3525	0.1185	0	336	90	3
2026-02-12	16:02:30.050	8.12	52.99	-6.825	0.50386	0.476532	0.374296	0	-0.3495	0.1185	0	336	90	3
2026-02-12	16:02:30.070	24.71	47.565	2.73	0.516304	0.499956	0.392596	0.003	-0.3525	0.1125	0	336	90	3
2026-02-12	16:02:30.090	42.07	41.265	10.535	0.505812	0.57584	0.428708	0.0015	-0.354	0.117	0	336	90	3
2026-02-12	16:02:30.110	56.07	35	15.89	0.44408	0.610976	0.444568	0.0045	-0.354	0.123	0	336	90	3
2026-02-12	16:02:30.130	66.78	28.42	19.355	0.416508	0.697352	0.415532	0.0075	-0.363	0.1275	0	336	90	3
2026-02-12	16:02:30.150	66.395	20.965	17.885	0.539972	0.913048	0.343308	0	-0.3645	0.138	0	336	90	3
2026-02-12	16:02:30.170	44.87	12.53	8.47	0.88572	1.351028	0.288652	0	-0.3645	0.144	0	336	90	3
2026-02-12	16:02:30.190	18.865	6.79	-18.235	1.328336	1.545252	0.574376	0.006	-0.366	0.144	0	336	90	3
2026-02-12	16:02:30.210	30.345	-10.255	-23.415	0.867908	0.860344	0.482388	0.006	-0.366	0.144	0	336	45	3
2026-02-12	16:02:30.230	31.115	-11.69	-11.76	0.580232	0.595604	0.324276	0.0075	-0.366	0.1605	0	336	45	3
2026-02-12	16:02:30.250	33.985	-11.165	-6.58	0.498736	0.530212	0.332816	0.0105	-0.3705	0.1575	0	336	45	3
2026-02-12	16:02:30.270	16.555	-14.28	10.85	0.515084	0.401624	0.24766	0.0135	-0.3675	0.168	0	336	45	3
2026-02-12	16:02:30.290	7.84	-17.185	30.94	0.596824	0.42822	0.101016	0.006	-0.369	0.1725	0	336	45	3
2026-02-12	16:02:30.310	26.075	-25.375	39.515	0.746884	0.617076	-0.000976	0	-0.372	0.171	0	336	45	3
2026-02-12	16:02:30.330	42.42	-33.075	42.945	0.8479	0.791048	-0.047336	-0.006	-0.3615	0.18	0	336	45	3
2026-02-12	16:02:30.350	46.935	-41.09	42.49	0.8113	0.775188	-0.097844	-0.018	-0.369	0.183	0	336	45	3
2026-02-12	16:02:30.370	50.54	-46.305	39.795	0.694668	0.691496	-0.1403	-0.018	-0.3645	0.1875	0	336	45	3
2026-02-12	16:02:30.390	50.05	-50.96	38.955	0.567788	0.607072	-0.123708	-0.0225	-0.3675	0.198	0	336	45	3
2026-02-12	16:02:30.410	52.64	-54.32	39.375	0.47092	0.610244	-0.092964	-0.0315	-0.372	0.2085	0	339	23	3
2026-02-12	16:02:30.430	54.32	-57.96	40.11	0.419436	0.675392	-0.056852	-0.0405	-0.3675	0.2175	0	339	23	3
2026-02-12	16:02:30.450	48.23	-61.425	41.09	0.417484	0.72224	-0.028548	-0.051	-0.3675	0.2295	0	339	23	3
2026-02-12	16:02:30.470	35.735	-65.24	41.65	0.434076	0.713944	-0.039772	-0.0585	-0.366	0.24	0	339	23	3
2026-02-12	16:02:30.490	23.94	-69.615	40.46	0.500688	0.69662	-0.080032	-0.0615	-0.366	0.2445	0	339	23	3
2026-02-12	16:02:30.510	17.85	-72.835	39.41	0.565592	0.63928	-0.126392	-0.072	-0.3585	0.255	0	339	23	3
2026-02-12	16:02:30.530	15.26	-75.74	37.625	0.616588	0.586332	-0.170556	-0.0765	-0.351	0.2655	0	339	23	3
2026-02-12	16:02:30.550	13.86	-79.065	34.195	0.643916	0.60146	-0.188124	-0.093	-0.351	0.2775	0	339	23	3
2026-02-12	16:02:30.570	7.595	-81.55	30.555	0.654408	0.610244	-0.189588	-0.0975	-0.357	0.2835	0	339	23	3
2026-02-12	16:02:30.590	-3.01	-83.545	27.335	0.65392	0.609024	-0.195444	-0.0975	-0.354	0.2925	0	339	23	3
2026-02-12	16:02:30.610	-10.955	-85.68	24.01	0.679052	0.633424	-0.208376	-0.105	-0.3465	0.297	0	342	45	3
2026-02-12	16:02:30.630	-17.5	-87.745	22.015	0.722972	0.651724	-0.21838	-0.108	-0.348	0.2925	0	342	45	3
2026-02-12	16:02:30.650	-21.105	-89.355	22.75	0.743224	0.630496	-0.226188	-0.1065	-0.342	0.294	0	342	45	3
2026-02-12	16:02:30.670	-20.335	-90.16	25.76	0.777628	0.630252	-0.22204	-0.1125	-0.3405	0.3	0	342	45	3
2026-02-12	16:02:30.690	-16.485	-87.605	29.435	0.81862	0.694912	-0.16226	-0.117	-0.339	0.306	0	342	45	3
2026-02-12	16:02:30.710	-14.245	-79.1	31.64	0.821304	0.75396	-0.08418	-0.126	-0.33	0.3165	0	342	45	3
2026-02-12	16:02:30.730	-10.885	-64.575	31.885	0.793976	0.77104	-0.046848	-0.132	-0.333	0.315	0	342	45	3
2026-02-12	16:02:30.750	-3.43	-42.105	31.71	0.734928	0.764452	-0.095404	-0.123	-0.327	0.318	0	342	45	3
2026-02-12	16:02:30.770	9.205	-19.775	34.475	0.701012	0.752984	-0.162748	-0.123	-0.327	0.318	0	342	45	3
2026-02-12	16:02:30.790	15.89	-3.745	37.45	0.707844	0.7442	-0.232288	-0.1305	-0.3225	0.324	0	342	45	3
2026-02-12	16:02:30.810	10.64	6.58	39.76	0.833748	0.748592	-0.321104	-0.144	-0.3225	0.3285	0	342	17	3
2026-02-12	16:02:30.830	-0.525	12.95	40.145	1.008452	0.761524	-0.325496	-0.1485	-0.3195	0.333	0	342	17	3
2026-02-12	16:02:30.850	-10.605	16.59	34.335	1.086776	0.85522	-0.383812	-0.1515	-0.315	0.3375	0	342	17	3
2026-02-12	16:02:30.870	-20.37	19.775	23.905	1.026752	0.88816	-0.406016	-0.1575	-0.3135	0.33	0	342	17	3
2026-02-12	16:02:30.890	-21	22.4	22.68	1.032364	0.784704	-0.369904	-0.1575	-0.3075	0.321	0	342	17	3
2026-02-12	16:02:30.910	-22.015	24.29	24.395	1.049932	0.812764	-0.432124	-0.159	-0.303	0.3195	0	342	17	3
2026-02-12	16:02:30.930	-29.82	21.84	21.21	1.186572	0.836188	-0.480436	-0.1635	-0.3015	0.3225	0	342	17	3
2026-02-12	16:02:30.950	-36.435	20.37	13.545	1.314428	0.749568	-0.488244	-0.1755	-0.3015	0.312	0	342	17	3
2026-02-12	16:02:30.970	-37.835	22.785	1.68	1.406172	0.554612	-0.36966	-0.1725	-0.3075	0.303	0	342	17	3
2026-02-12	16:02:30.990	-33.95	33.705	-11.935	1.388848	0.409188	-0.237412	-0.177	-0.2985	0.3015	0	342	17	3
2026-02-12	16:02:31.010	-34.125	48.895	-30.065	1.315648	0.451156	-0.228872	-0.177	-0.306	0.2955	0	339	45	3
2026-02-12	16:02:31.030	-45.325	64.4	-55.615	1.011868	0.433344	-0.30256	-0.168	-0.303	0.2955	0	339	45	3
2026-02-12	16:02:31.050	-52.43	67.76	-63.035	0.830576	0.370636	-0.266448	-0.1605	-0.306	0.285	0	339	45	3
2026-02-12	16:02:31.070	-51.065	71.225	-64.785	0.658556	0.278892	-0.178364	-0.1485	-0.309	0.2625	0	339	45	3
2026-02-12	16:02:31.090	-44.275	76.02	-62.825	0.560224	0.326472	-0.089304	-0.1425	-0.315	0.2475	0	339	45	3
2026-02-12	16:02:31.110	-33.565	80.325	-61.425	0.532408	0.382104	-0.074664	-0.1365	-0.321	0.237	0	339	45	3
2026-02-12	16:02:31.130	-23.59	82.425	-59.01	0.565836	0.456524	-0.08295999	-0.12	-0.324	0.225	0	339	45	3
2026-02-12	16:02:31.150	-18.76	82.915	-54.845	0.620004	0.5063	-0.101016	-0.108	-0.33	0.2205	0	339	45	3
2026-02-12	16:02:31.170	-16.765	83.265	-51.135	0.692716	0.544608	-0.103944	-0.1065	-0.3345	0.2115	0	339	45	3
2026-02-12	16:02:31.190	-18.515	83.65	-50.4	0.756644	0.544608	-0.061976	-0.1035	-0.336	0.201	0	339	45	3
2026-02-12	16:02:31.210	-18.655	84.42	-51.52	0.792268	0.574376	0.042212	-0.093	-0.3345	0.195	0	339	102	3
2026-02-12	16:02:31.230	-14.875	81.97	-57.855	0.794952	0.603656	0.063928	-0.0795	-0.3375	0.189	0	339	102	3
2026-02-12	16:02:31.250	-10.675	78.19	-64.015	0.566568	0.370636	0.075884	-0.072	-0.339	0.1875	0	339	102	3
2026-02-12	16:02:31.270	-9.415	78.015	-57.19	0.417972	0.329644	0.12078	-0.072	-0.339	0.1875	0	339	102	3
2026-02-12	16:02:31.290	-10.745	76.72	-48.58	0.316224	0.42944	0.141764	-0.0405	-0.3465	0.1575	0	339	102	3
2026-02-12	16:02:31.310	-19.075	72.345	-38.325	0.311832	0.555832	0.182024	-0.0315	-0.3585	0.1665	0	339	102	3
2026-02-12	16:02:31.330	-22.26	64.68	-33.145	0.375516	0.638792	0.23058	-0.024	-0.3405	0.1485	0	339	102	3
2026-02-12	16:02:31.350	-16.73	56.49	-27.09	0.429684	0.604632	0.29158	-0.009	-0.3495	0.1425	0	339	102	3
2026-02-12	16:02:31.370	-7.035	50.785	-17.85	0.510448	0.598776	0.35258	-0.0015	-0.348	0.1455	0	339	102	3
2026-02-12	16:02:31.390	4.235	46.76	-8.12	0.563884	0.616344	0.366488	0.0015	-0.351	0.1365	0	339	102	3
2026-02-12	16:02:31.410	14.105	43.05	1.505	0.565836	0.613416	0.352824	0.0015	-0.3525	0.138	0	339	104	2
2026-02-12	16:02:31.430	25.725	38.325	9.87	0.531432	0.597068	0.376736	0.0075	-0.3585	0.1455	0	339	104	2
2026-02-12	16:02:31.450	39.97	33.425	16.45	0.476532	0.590968	0.41114	0.003	-0.36	0.1365	0	339	104	2
2026-02-12	16:02:31.470	59.745	29.75	22.715	0.384056	0.658068	0.393084	0.0015	-0.357	0.15	0	339	104	2
2026-02-12	16:02:31.490	63.735	24.045	23.59	0.448228	0.803248	0.329156	0	-0.36	0.156	0	339	104	2
2026-02-12	16:02:31.510	55.055	19.425	19.985	0.653188	1.16998	0.30866	0	-0.3645	0.162	0	339	104	2
2026-02-12	16:02:31.530	29.015	16.625	2.87	0.985516	1.613572	0.341112	0.006	-0.363	0.1695	0	339	104	2
2026-02-12	16:02:31.550	14.21	9.8	-22.015	1.136552	1.646024	0.534604	-0.009	-0.3645	0.1725	0	339	104	2
2026-02-12	16:02:31.570	21.245	-4.2	-26.46	0.81984	1.01626	0.567056	-0.003	-0.372	0.1755	0	339	104	2
2026-02-12	16:02:31.590	28.175	-10.185	-17.92	0.540704	0.712724	0.363804	0.006	-0.3585	0.1725	0	339	104	2
2026-02-12	16:02:31.610	27.545	-9.52	-9.59	0.52216	0.685396	0.288408	-0.0015	-0.3645	0.18	0	344	39	3
2026-02-12	16:02:31.630	8.4	-10.57	8.645	0.573888	0.491904	0.20618	0.0045	-0.369	0.183	0	344	39	3
2026-02-12	16:02:31.650	10.08	-17.36	26.285	0.638792	0.516304	0.102236	0	-0.3645	0.1845	0	344	39	3
2026-02-12	16:02:31.670	17.99	-27.195	37.345	0.749568	0.681492	0.053192	0.0015	-0.375	0.1905	0	344	39	3
2026-02-12	16:02:31.690	14.175	-40.04	39.025	0.81374	0.71736	-0.00976	-0.012	-0.3705	0.186	0	344	39	3
2026-02-12	16:02:31.710	15.89	-46.445	39.48	0.71492	0.66246	-0.086376	-0.0135	-0.369	0.192	0	344	39	3
2026-02-12	16:02:31.730	25.585	-51.1	39.06	0.5917	0.604632	-0.119804	-0.021	-0.3675	0.2025	0	344	39	3
2026-02-12	16:02:31.750	39.13	-54.425	36.715	0.506544	0.630008	-0.09272	-0.033	-0.3675	0.207	0	344	39	3
2026-02-12	16:02:31.770	47.495	-56.63	36.015	0.428708	0.675392	-0.055632	-0.042	-0.3645	0.2145	0	344	39	3
2026-02-12	16:02:31.790	45.64	-59.535	35.175	0.401624	0.709308	-0.048068	-0.0495	-0.36	0.225	0	344	39	3
2026-02-12	16:02:31.810	35.42	-62.3	36.61	0.410896	0.683932	-0.060756	-0.0525	-0.357	0.231	0	351	29	3
2026-02-12	16:02:31.830	24.395	-64.68	38.255	0.444568	0.667096	-0.078568	-0.066	-0.357	0.2385	0	351	29	3
2026-02-12	16:02:31.850	15.19	-65.59	39.865	0.497028	0.644648	-0.099064	-0.078	-0.36	0.249	0	351	29	3
2026-02-12	16:02:31.870	9.065	-66.29	40.81	0.558516	0.621224	-0.11712	-0.0825	-0.3585	0.255	0	351	29	3
2026-02-12	16:02:31.890	3.99	-67.585	41.125	0.632692	0.64172	-0.13298	-0.087	-0.3525	0.2625	0	351	29	3
2026-02-12	16:02:31.910	-4.76	-68.81	37.415	0.732976	0.604388	-0.154452	-0.087	-0.3495	0.27	0	351	29	3
2026-02-12	16:02:31.930	-9.065	-69.09	34.93	0.754936	0.534116	-0.191052	-0.102	-0.3585	0.2715	0	351	29	3
2026-02-12	16:02:31.950	-6.79	-70.875	32.34	0.772016	0.535824	-0.26596	-0.1155	-0.348	0.2805	0	351	29	3
2026-02-12	16:02:31.970	-5.845	-74.62	30.73	0.761524	0.554856	-0.293044	-0.1095	-0.339	0.291	0	351	29	3
2026-02-12	16:02:31.990	-7.63	-79.695	31.36	0.738832	0.577548	-0.259372	-0.1185	-0.348	0.2925	0	351	29	3
2026-02-12	16:02:32.010	-7.525	-83.23	33.635	0.733708	0.62952	-0.2013	-0.123	-0.3345	0.291	0	355	43	3
2026-02-12	16:02:32.030	-5.215	-83.895	36.995	0.73566	0.673928	-0.151768	-0.129	-0.3345	0.2955	0	355	43	3
2026-02-12	16:02:32.050	1.295	-80.885	38.92	0.737124	0.747616	-0.110532	-0.1365	-0.3345	0.3105	0	355	43	3
2026-02-12	16:02:32.070	6.58	-74.97	37.94	0.74298	0.79666	-0.09467199	-0.1365	-0.3255	0.306	0	355	43	3
2026-02-12	16:02:32.090	9.24	-65.835	37.31	0.72712	0.811788	-0.105408	-0.1395	-0.324	0.3075	0	355	43	3
2026-02-12	16:02:32.110	7.455	-55.265	35.21	0.706868	0.811544	-0.109068	-0.1455	-0.3195	0.3165	0	355	43	3
2026-02-12	16:02:32.130	3.78	-43.505	32.725	0.690764	0.80764	-0.116388	-0.147	-0.3195	0.324	0	355	43	3
2026-02-12	16:02:32.150	-0.07	-27.72	32.515	0.706136	0.76738	-0.116876	-0.15	-0.318	0.33	0	355	43	3
2026-02-12	16:02:32.170	-4.865	-12.355	35.105	0.752252	0.710284	-0.125904	-0.1545	-0.3165	0.336	0	355	43	3
2026-02-12	16:02:32.190	-7.35	-2.345	37.87	0.84302	0.709796	-0.209352	-0.165	-0.3045	0.3465	0	355	43	3
2026-02-12	16:02:32.210	-13.615	2.485	39.585	1.006256	0.722484	-0.284748	-0.1755	-0.3045	0.3375	0	354	10	3
2026-02-12	16:02:32.230	-17.395	4.97	36.26	1.08336	0.935984	-0.37576	-0.1845	-0.3015	0.3375	0	354	10	3
2026-02-12	16:02:32.250	-16.94	6.755	23.45	1.169004	1.106052	-0.396988	-0.18	-0.2955	0.3345	0	354	10	3
2026-02-12	16:02:32.270	-17.92	10.29	19.215	1.229516	0.95404	-0.376004	-0.1845	-0.3015	0.3375	0	354	10	3
2026-02-12	16:02:32.290	-21.105	16.87	22.295	1.281	0.778848	-0.383812	-0.1845	-0.291	0.3195	0	354	10	3
2026-02-12	16:02:32.310	-25.27	22.05	23.695	1.2993	0.652456	-0.464576	-0.1935	-0.291	0.3285	0	354	10	3
2026-02-12	16:02:32.330	-26.81	23.94	18.48	1.2444	0.632692	-0.455548	-0.198	-0.282	0.3225	0	354	10	3
2026-02-12	16:02:32.350	-35.875	25.515	6.545	1.2139	0.5795	-0.33184	-0.2085	-0.285	0.321	0	354	10	3
2026-02-12	16:02:32.370	-53.62	30.45	-8.295	1.221464	0.529724	-0.287432	-0.2055	-0.2865	0.3075	0	354	10	3
2026-02-12	16:02:32.390	-70.315	37.205	-27.79	1.165588	0.462624	-0.376492	-0.198	-0.2835	0.3045	0	354	10	3
2026-02-12	16:02:32.410	-79.975	40.705	-43.47	1.027972	0.27572	-0.430172	-0.2025	-0.2865	0.2835	0	351	51	3
2026-02-12	16:02:32.430	-69.895	44.555	-52.885	0.820816	0.203008	-0.275476	-0.1965	-0.294	0.2715	0	351	51	3
2026-02-12	16:02:32.450	-53.55	52.745	-56.245	0.657824	0.222284	-0.1098	-0.1965	-0.294	0.2715	0	351	51	3
2026-02-12	16:02:32.470	-40.67	61.985	-56.595	0.5795	0.366732	-0.061976	-0.1845	-0.3015	0.2565	0	351	51	3
2026-02-12	16:02:32.490	-35.105	70.35	-57.05	0.57828	0.49898	-0.034892	-0.171	-0.3135	0.2325	0	351	51	3
2026-02-12	16:02:32.510	-43.365	75.32	-56.07	0.578768	0.573888	-0.073688	-0.165	-0.3195	0.219	0	351	51	3
2026-02-12	16:02:32.530	-52.325	78.225	-56.49	0.619516	0.557052	-0.120048	-0.1545	-0.3225	0.2055	0	351	51	3
2026-02-12	16:02:32.550	-55.09	81.55	-56.91	0.60512	0.516792	-0.131028	-0.1455	-0.3285	0.192	0	351	51	3
2026-02-12	16:02:32.570	-54.985	80.675	-57.645	0.61244	0.45628	-0.080032	-0.138	-0.333	0.18	0	351	51	3
2026-02-12	16:02:32.590	-54.32	81.655	-58.695	0.638792	0.471164	-0.011468	-0.126	-0.3345	0.1635	0	351	51	3
2026-02-12	16:02:32.610	-52.64	85.575	-58.1	0.62708	0.4697	0.057584	-0.111	-0.3375	0.153	0	349	105	3
2026-02-12	16:02:32.630	-49.665	87.78	-53.655	0.586332	0.466528	0.111752	-0.105	-0.3405	0.15	0	349	105	3
2026-02-12	16:02:32.650	-41.58	87.605	-48.72	0.541192	0.562664	0.151036	-0.096	-0.3285	0.1335	0	349	105	3
2026-02-12	16:02:32.670	-33.285	85.295	-42.21	0.515816	0.681004	0.219844	-0.0825	-0.342	0.1185	0	349	105	3
2026-02-12	16:02:32.690	-30.31	77.77	-35.42	0.537288	0.712724	0.272304	-0.075	-0.3435	0.105	0	349	105	3
2026-02-12	16:02:32.710	-27.79	67.55	-28.035	0.538752	0.65636	0.334768	-0.063	-0.339	0.1035	0	349	105	3
2026-02-12	16:02:32.730	-21.455	58.31	-17.22	0.52948	0.478972	0.325008	-0.063	-0.339	0.1035	0	349	105	3
2026-02-12	16:02:32.750	-9.345	52.885	-4.655	0.55876	0.41114	0.355508	-0.048	-0.336	0.093	0	349	105	3
2026-02-12	16:02:32.770	2.73	49.245	6.615	0.555588	0.430172	0.37576	-0.0315	-0.339	0.0825	0	349	105	3
2026-02-12	16:02:32.790	11.935	43.68	14.14	0.535092	0.4514	0.399184	-0.03	-0.3435	0.0795	0	349	105	3
2026-02-12	16:02:32.810	18.06	37.275	19.915	0.483608	0.484828	0.387716	-0.0285	-0.342	0.0765	0	349	96	2
2026-02-12	16:02:32.830	26.53	30.52	22.505	0.413336	0.565104	0.388204	-0.0285	-0.3435	0.0735	0	349	96	2
2026-02-12	16:02:32.850	34.195	21.315	19.81	0.357948	0.631716	0.443104	-0.033	-0.342	0.075	0	349	96	2
2026-02-12	16:02:32.870	40.11	12.39	15.995	0.356728	0.622444	0.50142	-0.0315	-0.3435	0.078	0	349	96	2
2026-02-12	16:02:32.890	52.395	7.56	12.6	0.389424	0.682712	0.515084	-0.0285	-0.348	0.0885	0	349	96	2
2026-02-12	16:02:32.910	68.705	5.53	9.275	0.416508	0.819596	0.493124	-0.0345	-0.3495	0.0975	0	349	96	2
2026-02-12	16:02:32.930	71.995	0.735	3.92	0.590724	1.128256	0.403332	-0.0375	-0.3525	0.1005	0	349	96	2
2026-02-12	16:02:32.950	44.765	-1.47	-6.685	0.93818	1.517436	0.3843	-0.0375	-0.357	0.105	0	349	96	2
2026-02-12	16:02:32.970	25.13	4.83	-24.185	1.222196	1.666764	0.788608	-0.036	-0.36	0.1125	0	349	96	2
2026-02-12	16:02:32.990	33.005	5.075	-14.14	0.77226	0.926956	0.55388	-0.036	-0.36	0.12	0	349	96	2
2026-02-12	16:02:33.010	61.495	9.905	-5.53	0.566324	0.696132	0.41602	-0.0375	-0.363	0.123	0	353	15	3
2026-02-12	16:02:33.030	74.725	5.88	-1.855	0.602192	0.719068	0.330376	-0.036	-0.3615	0.1335	0	353	15	3
2026-02-12	16:02:33.050	59.29	5.81	12.705	0.69418	0.668072	0.244	-0.0315	-0.3735	0.138	0	353	15	3
2026-02-12	16:02:33.070	43.4	5.67	21.63	0.747616	0.658312	0.193492	-0.033	-0.387	0.147	0	353	15	3
2026-02-12	16:02:33.090	36.015	0.875	26.39	0.74664	0.626104	0.127856	-0.036	-0.384	0.144	0	353	15	3
2026-02-12	16:02:33.110	32.9	-3.535	30.59	0.735416	0.57218	0.046848	-0.039	-0.3795	0.1605	0	353	15	3
2026-02-12	16:02:33.130	35.21	-7.245	36.715	0.721752	0.475068	-0.019032	-0.0465	-0.3825	0.1635	0	353	15	3
2026-02-12	16:02:33.150	48.37	-11.69	42.42	0.680028	0.502884	-0.066124	-0.057	-0.39	0.174	0	353	15	3
2026-02-12	16:02:33.170	59.64	-16.59	44.24	0.604144	0.628056	-0.095892	-0.063	-0.3825	0.1755	0	353	15	3
2026-02-12	16:02:33.190	58.94	-23.135	41.825	0.565348	0.720776	-0.085888	-0.0705	-0.3855	0.1875	0	353	15	3
2026-02-12	16:02:33.210	48.93	-27.65	39.41	0.508984	0.754692	-0.03172	-0.075	-0.384	0.1935	0	359	71	3
2026-02-12	16:02:33.230	43.015	-30.905	34.685	0.48068	0.746152	0.010492	-0.081	-0.3855	0.201	0	359	71	3
2026-02-12	16:02:33.250	42.14	-30.555	31.71	0.476776	0.721752	0.049776	-0.0855	-0.3855	0.21	0	359	71	3
2026-02-12	16:02:33.270	40.565	-28.875	29.4	0.488732	0.675148	0.005612	-0.0915	-0.381	0.219	0	359	71	3
2026-02-12	16:02:33.290	36.4	-27.545	27.685	0.498492	0.600972	-0.052704	-0.0975	-0.378	0.222	0	359	71	3
2026-02-12	16:02:33.310	31.5	-27.055	27.65	0.499712	0.606584	-0.071004	-0.1065	-0.387	0.2415	0	359	71	3
2026-02-12	16:02:33.330	20.965	-27.265	25.445	0.529724	0.596092	-0.032208	-0.111	-0.3795	0.2415	0	359	71	3
2026-02-12	16:02:33.350	12.635	-26.705	23.87	0.535824	0.643428	-0.013664	-0.117	-0.378	0.246	0	359	71	3
2026-02-12	16:02:33.370	4.305	-27.3	22.19	0.579012	0.658068	-0.030744	-0.129	-0.375	0.2535	0	359	71	3
2026-02-12	16:02:33.390	-1.715	-27.23	21.21	0.619028	0.644892	-0.047336	-0.129	-0.3765	0.2535	0	359	71	3
2026-02-12	16:02:33.410	-5.145	-27.475	21.035	0.655628	0.64172	-0.05002	-0.1215	-0.384	0.255	0	361	101	3
2026-02-12	16:02:33.430	-7.245	-27.65	20.825	0.681492	0.673928	-0.029768	-0.129	-0.3735	0.252	0	361	101	3
2026-02-12	16:02:33.450	-9.31	-27.265	19.39	0.718336	0.698572	-0.01586	-0.1305	-0.372	0.2595	0	361	101	3
2026-02-12	16:02:33.470	-9.275	-23.835	18.585	0.720776	0.708088	-0.01952	-0.132	-0.3705	0.258	0	361	101	3
2026-02-12	16:02:33.490	-8.785	-20.125	18.935	0.70638	0.719068	-0.035136	-0.1365	-0.378	0.258	0	361	101	3
2026-02-12	16:02:33.510	-9.24	-17.71	19.005	0.6954	0.720044	-0.042944	-0.15	-0.3675	0.2595	0	361	101	3
2026-02-12	16:02:33.530	-8.05	-14.875	19.075	0.63928	0.682468	-0.044408	-0.1515	-0.3705	0.261	0	361	101	3
2026-02-12	16:02:33.550	-1.505	-10.955	21.175	0.589504	0.657824	-0.023912	-0.1575	-0.3735	0.261	0	361	101	3
2026-02-12	16:02:33.570	5.145	-7.455	24.78	0.571204	0.660264	-0.011468	-0.159	-0.369	0.264	0	361	101	3
2026-02-12	16:02:33.590	8.225	-3.85	27.895	0.579012	0.693204	-0.011956	-0.165	-0.3615	0.267	0	361	101	3
2026-02-12	16:02:33.610	7.455	-1.4	28	0.604632	0.749324	-0.028548	-0.171	-0.36	0.2685	0	356	86	2
2026-02-12	16:02:33.630	4.83	2.135	25.725	0.628544	0.81984	-0.069784	-0.1725	-0.36	0.2715	0	356	86	2
2026-02-12	16:02:33.650	-1.855	1.645	20.545	0.68076	0.848388	-0.090524	-0.1755	-0.354	0.27	0	356	86	2
2026-02-12	16:02:33.670	-11.06	-0.77	15.505	0.760548	0.781776	-0.059048	-0.1785	-0.354	0.267	0	356	86	2
2026-02-12	16:02:33.690	-13.51	-0.98	13.02	0.826916	0.684664	-0.064172	-0.183	-0.354	0.2685	0	356	86	2
2026-02-12	16:02:33.710	-7.035	2.065	12.285	0.835456	0.675392	-0.137616	-0.186	-0.3495	0.2625	0	356	86	2
2026-02-12	16:02:33.730	-0.56	3.185	11.025	0.85644	0.803492	-0.119072	-0.186	-0.354	0.261	0	356	86	2
2026-02-12	16:02:33.750	0.105	3.5	8.4	0.921588	0.97356	-0.083936	-0.1875	-0.351	0.264	0	356	86	2
2026-02-12	16:02:33.770	-3.745	4.2	4.27	0.98332	1.078968	-0.122488	-0.189	-0.3465	0.261	0	356	86	2
2026-02-12	16:02:33.790	-15.4	1.96	2.52	1.047004	1.004548	-0.134688	-0.189	-0.348	0.2595	0	356	86	2
2026-02-12	16:02:33.810	-25.41	1.47	4.48	1.103856	0.867664	-0.089304	-0.1875	-0.3495	0.258	0	345	51	3
2026-02-12	16:02:33.830	-31.43	5.005	5.775	1.144848	0.736636	-0.078812	-0.195	-0.354	0.2565	0	345	51	3
2026-02-12	16:02:33.850	-31.045	12.635	-2.17	1.047736	0.677588	-0.116144	-0.192	-0.3495	0.2535	0	345	51	3
2026-02-12	16:02:33.870	-41.09	15.155	-14.175	0.9394	0.553392	-0.1159	-0.1935	-0.3465	0.2505	0	345	51	3
2026-02-12	16:02:33.890	-53.095	13.86	-26.32	0.87596	0.352336	-0.078812	-0.1905	-0.351	0.246	0	345	51	3
2026-02-12	16:02:33.910	-57.365	13.615	-34.965	0.88206	0.201056	-0.02318	-0.1845	-0.354	0.234	0	345	51	3
2026-02-12	16:02:33.930	-56.07	17.535	-40.39	0.915732	0.152744	0.0122	-0.1875	-0.3585	0.2235	0	345	51	3
2026-02-12	16:02:33.950	-45.64	23.765	-45.045	1.00162	0.254004	-0.005612	-0.18	-0.366	0.2115	0	345	51	3
2026-02-12	16:02:33.970	-30.52	31.465	-49	1.057008	0.398208	0.008296	-0.168	-0.3675	0.1995	0	345	51	3
2026-02-12	16:02:33.990	-16.66	41.055	-48.23	1.055788	0.522892	0.043432	-0.159	-0.3705	0.1935	0	345	51	3
2026-02-12	16:02:34.010	-0.56	55.3	-47.285	0.951112	0.586088	0.04758	-0.1545	-0.375	0.192	0	333	17	3
2026-02-12	16:02:34.030	10.045	61.565	-46.76	0.879864	0.592676	0.031232	-0.1455	-0.3795	0.192	0	333	17	3
2026-02-12	16:02:34.050	20.825	67.48	-44.45	0.777628	0.581696	0.014152	-0.135	-0.384	0.1905	0	333	17	3
2026-02-12	16:02:34.070	23.1	70.735	-42.175	0.705648	0.593408	0.058804	-0.126	-0.3855	0.1845	0	333	17	3
2026-02-12	16:02:34.090	16.73	72.905	-37.975	0.654408	0.570716	0.123952	-0.1185	-0.39	0.1785	0	333	17	3
2026-02-12	16:02:34.110	10.885	74.06	-33.845	0.59902	0.535336	0.135664	-0.117	-0.3945	0.177	0	333	17	3
2026-02-12	16:02:34.130	15.155	73.92	-29.61	0.577304	0.555588	0.139568	-0.117	-0.3945	0.177	0	333	17	3
2026-02-12	16:02:34.150	18.445	71.12	-24.955	0.588528	0.605852	0.182024	-0.09	-0.4095	0.171	0	333	17	3
2026-02-12	16:02:34.170	17.675	68.18	-19.845	0.572668	0.594628	0.207888	-0.078	-0.4155	0.1665	0	333	17	3
2026-02-12	16:02:34.190	20.475	66.57	-15.75	0.556808	0.600484	0.223016	-0.072	-0.411	0.1635	0	333	17	3
2026-02-12	16:02:34.210	22.225	62.37	-10.57	0.540948	0.575596	0.205936	-0.072	-0.417	0.1725	0	322	8	3
2026-02-12	16:02:34.230	26.25	58.135	-4.375	0.50996	0.553636	0.220332	-0.0645	-0.42	0.165	0	322	8	3
2026-02-12	16:02:34.250	29.54	51.555	1.89	0.488244	0.504104	0.233508	-0.0615	-0.4155	0.1695	0	322	8	3
2026-02-12	16:02:34.270	34.44	43.96	9.065	0.4697	0.463356	0.236192	-0.057	-0.4245	0.1665	0	322	8	3
2026-02-12	16:02:34.290	42.84	35.98	16.52	0.454328	0.468236	0.249124	-0.0615	-0.4215	0.174	0	322	8	3
2026-02-12	16:02:34.310	50.4	29.75	22.96	0.446764	0.51118	0.280112	-0.063	-0.423	0.1785	0	322	8	3
2026-02-12	16:02:34.330	53.585	24.22	28.035	0.467748	0.570716	0.345992	-0.0705	-0.4245	0.18	0	322	8	3
2026-02-12	16:02:34.350	51.975	20.16	30.45	0.514108	0.608536	0.412116	-0.0675	-0.42	0.189	0	322	8	3
2026-02-12	16:02:34.370	51.625	18.165	30.94	0.531676	0.667096	0.379176	-0.072	-0.4215	0.1965	0	322	8	3
2026-02-12	16:02:34.390	50.61	12.425	27.37	0.585112	0.779336	0.272792	-0.0765	-0.4245	0.204	0	322	8	3
2026-02-12	16:02:34.410	54.215	3.5	20.405	0.686616	0.98942	0.25132	-0.0765	-0.4245	0.204	0	314	38	3
2026-02-12	16:02:34.430	57.575	-4.83	13.16	0.733952	1.065792	0.228628	-0.09	-0.4215	0.2295	0	314	38	3
2026-02-12	16:02:34.450	58.24	-11.305	4.06	0.742492	1.087996	0.271572	-0.0975	-0.4185	0.237	0	314	38	3
2026-02-12	16:02:34.470	59.5	-8.645	-9.8	0.74664	1.212924	0.426024	-0.09	-0.4245	0.252	0	314	38	3
2026-02-12	16:02:34.490	48.615	0.56	-25.305	0.760792	1.361032	0.547536	-0.102	-0.423	0.258	0	314	38	3
2026-02-12	16:02:34.510	14.105	8.015	-33.145	0.774212	1.216584	0.38918	-0.0915	-0.4215	0.2685	0	314	38	3
2026-02-12	16:02:34.530	-19.25	9.87	-34.09	0.942328	1.118984	0.215208	-0.0855	-0.426	0.273	0	314	38	3
2026-02-12	16:02:34.550	-40.425	4.725	-32.76	1.186328	0.935496	0.21838	-0.087	-0.4335	0.2655	0	314	38	3
2026-02-12	16:02:34.570	-52.99	-1.715	-26.46	1.302716	0.567788	0.301828	-0.0735	-0.432	0.2565	0	314	38	3
2026-02-12	16:02:34.590	-50.4	7.805	-14.315	1.035536	0.150792	0.116144	-0.0795	-0.4215	0.2475	0	314	38	3
2026-02-12	16:02:34.610	-20.265	20.965	4.41	0.743956	0.07076	-0.076128	-0.069	-0.4275	0.24	0	311	91	3
2026-02-12	16:02:34.630	5.215	18.515	14.7	0.63684	0.132004	-0.14884	-0.069	-0.4275	0.24	0	311	91	3
2026-02-12	16:02:34.650	22.645	11.935	23.94	0.526064	0.122732	-0.169336	-0.075	-0.4365	0.24	0	311	91	3
2026-02-12	16:02:34.670	57.015	3.43	31.745	0.608048	0.525088	-0.069784	-0.0735	-0.4245	0.237	0	311	91	3
2026-02-12	16:02:34.690	66.395	-1.82	26.495	0.715652	0.866444	-0.060512	-0.0765	-0.423	0.2505	0	311	91	3
2026-02-12	16:02:34.710	51.905	1.26	19.635	0.812276	0.977464	-0.097112	-0.081	-0.42	0.2655	0	311	91	3
2026-02-12	16:02:34.730	32.55	0.665	16.31	0.934764	0.938668	-0.07515199	-0.084	-0.4215	0.2685	0	311	91	3
2026-02-12	16:02:34.750	19.74	4.48	16.45	0.9699	0.681248	-0.07686	-0.0915	-0.4215	0.2775	0	311	91	3
2026-02-12	16:02:34.770	24.325	12.845	21.035	0.950624	0.500444	-0.08174	-0.096	-0.417	0.282	0	311	91	3
2026-02-12	16:02:34.790	39.34	21.665	23.625	0.85644	0.48556	-0.099064	-0.096	-0.414	0.282	0	311	91	3
2026-02-12	16:02:34.810	53.83	26.53	25.515	0.756644	0.56364	-0.087108	-0.102	-0.4125	0.2895	0	316	112	3
2026-02-12	16:02:34.830	59.955	27.685	26.425	0.709064	0.591456	-0.059536	-0.1095	-0.4125	0.2955	0	316	112	3
2026-02-12	16:02:34.850	64.785	29.575	28.385	0.6527	0.61488	-0.025864	-0.1125	-0.4095	0.309	0	316	112	3
2026-02-12	16:02:34.870	70.07	31.045	30.8	0.62098	0.623176	-0.007808	-0.1125	-0.4035	0.315	0	316	112	3
2026-02-12	16:02:34.890	75.495	32.62	33.74	0.621712	0.64172	0.003904	-0.1215	-0.399	0.321	0	316	112	3
2026-02-12	16:02:34.910	77.175	33.67	35.42	0.646844	0.675392	0.012688	-0.132	-0.393	0.333	0	316	112	3
2026-02-12	16:02:34.930	75.88	35.175	35.735	0.67832	0.692228	0.01586	-0.1335	-0.393	0.336	0	316	112	3
2026-02-12	16:02:34.950	74.515	38.605	33.075	0.667096	0.729316	0.022692	-0.1335	-0.4005	0.3495	0	316	112	3
2026-02-12	16:02:34.970	71.015	40.39	30.38	0.640256	0.775676	0.053192	-0.138	-0.393	0.3555	0	316	112	3
2026-02-12	16:02:34.990	66.885	41.44	26.565	0.600484	0.8113	0.074908	-0.1485	-0.381	0.369	0	316	112	3
2026-02-12	16:02:35.010	61.075	41.615	22.4	0.560956	0.837652	0.085644	-0.156	-0.375	0.375	0	322	97	3
2026-02-12	16:02:35.030	54.32	41.125	17.64	0.526064	0.844972	0.07686	-0.159	-0.3795	0.375	0	322	97	3
2026-02-12	16:02:35.050	46.9	40.215	12.985	0.510204	0.8418	0.05368	-0.165	-0.3765	0.381	0	322	97	3
2026-02-12	16:02:35.070	40.705	38.78	7.98	0.501176	0.844972	0.045628	-0.171	-0.3645	0.3855	0	322	97	3
2026-02-12	16:02:35.090	35.49	36.26	3.535	0.51484	0.834968	0.037576	-0.168	-0.36	0.387	0	322	97	3
2026-02-12	16:02:35.110	28	32.48	1.085	0.574132	0.76738	0.02928	-0.1665	-0.3585	0.384	0	322	97	3
2026-02-12	16:02:35.130	19.915	28.35	2.1	0.652944	0.691252	-0.029524	-0.1725	-0.3555	0.3795	0	322	97	3
2026-02-12	16:02:35.150	14.315	23.73	5.565	0.74298	0.656848	-0.087108	-0.174	-0.354	0.384	0	322	97	3
2026-02-12	16:02:35.170	14	20.09	10.325	0.82228	0.698328	-0.098332	-0.174	-0.3555	0.39	0	322	97	3
2026-02-12	16:02:35.190	16.24	20.335	13.055	0.856928	0.812032	-0.049044	-0.18	-0.357	0.39	0	322	97	3
2026-02-12	16:02:35.210	15.12	22.085	12.565	0.920124	0.995276	0.034404	-0.18	-0.354	0.393	0	324	73	3
2026-02-12	16:02:35.230	2.87	22.435	9.45	1.188768	1.000156	0.11346	-0.174	-0.351	0.3945	0	324	73	3
2026-02-12	16:02:35.250	-1.68	28	8.96	1.352248	0.960872	-0.04026	-0.174	-0.351	0.3945	0	324	73	3
2026-02-12	16:02:35.270	-8.225	31.675	9.835	1.414224	0.829844	-0.144448	-0.186	-0.345	0.3795	0	324	73	3
2026-02-12	16:02:35.290	-12.88	34.265	7.385	1.300764	0.65758	-0.204716	-0.1905	-0.348	0.372	0	324	73	3
2026-02-12	16:02:35.310	-22.225	34.965	0.21	1.109468	0.468968	-0.187636	-0.1965	-0.348	0.3705	0	324	73	3
2026-02-12	16:02:35.330	-29.96	35.665	-9.625	0.926468	0.253272	-0.029524	-0.192	-0.348	0.3675	0	324	73	3
2026-02-12	16:02:35.350	-29.015	39.865	-17.29	0.823744	0.11102	0.198372	-0.1965	-0.3525	0.36	0	324	73	3
2026-02-12	16:02:35.370	-16.31	50.295	-25.48	0.836188	0.10248	0.326228	-0.1815	-0.354	0.354	0	324	73	3
2026-02-12	16:02:35.390	4.235	64.26	-31.99	0.921344	0.214964	0.237412	-0.1905	-0.354	0.348	0	324	73	3
2026-02-12	16:02:35.410	25.445	73.045	-36.435	0.976244	0.393084	0.136884	-0.1875	-0.3555	0.3375	0	324	51	3
2026-02-12	16:02:35.430	34.93	77.455	-35.315	0.992104	0.643916	0.057096	-0.1935	-0.3555	0.3435	0	324	51	3
2026-02-12	16:02:35.450	31.255	80.22	-32.55	0.954772	0.76738	0.040748	-0.177	-0.3645	0.339	0	324	51	3
2026-02-12	16:02:35.470	22.225	82.705	-29.96	0.867664	0.70272	0.071736	-0.1815	-0.363	0.33	0	324	51	3
2026-02-12	16:02:35.490	17.675	85.68	-29.82	0.75762	0.614392	0.081496	-0.171	-0.3645	0.3315	0	324	51	3
2026-02-12	16:02:35.510	11.795	89.39	-26.88	0.643428	0.527528	0.131516	-0.171	-0.3645	0.3315	0	324	51	3
2026-02-12	16:02:35.530	8.61	90.685	-25.55	0.587064	0.512644	0.16226	-0.171	-0.3645	0.3315	0	324	51	3
2026-02-12	16:02:35.550	10.22	92.855	-24.29	0.597312	0.523624	0.221552	-0.1635	-0.369	0.3075	0	324	51	3
2026-02-12	16:02:35.570	17.815	94.22	-23.31	0.612928	0.65758	0.272548	-0.168	-0.3675	0.303	0	324	51	3
2026-02-12	16:02:35.590	20.755	92.12	-23.87	0.613416	0.771528	0.321348	-0.159	-0.378	0.291	0	324	51	3
2026-02-12	16:02:35.610	13.475	87.43	-24.15	0.576572	0.738832	0.36844	-0.1515	-0.3765	0.294	0	325	52	3
2026-02-12	16:02:35.630	7.14	84.07	-21.945	0.519476	0.610488	0.393572	-0.15	-0.378	0.285	0	325	52	3
2026-02-12	16:02:35.650	4.375	79.485	-16.835	0.495564	0.488976	0.46116	-0.144	-0.384	0.279	0	325	52	3
2026-02-12	16:02:35.670	11.76	80.64	-10.15	0.462136	0.513132	0.50508	-0.147	-0.375	0.273	0	325	52	3
2026-02-12	16:02:35.690	9.065	82.775	-5.25	0.451644	0.626348	0.492392	-0.144	-0.393	0.279	0	325	52	3
2026-02-12	16:02:35.710	-16.45	86.275	-3.255	0.41358	0.732	0.496052	-0.1395	-0.3825	0.2655	0	325	52	3
2026-02-12	16:02:35.730	-42.665	80.605	-4.305	0.398452	0.737612	0.460916	-0.141	-0.384	0.261	0	325	52	3
2026-02-12	16:02:35.750	-42.14	65.52	-5.88	0.371856	0.591212	0.467748	-0.135	-0.387	0.246	0	325	52	3
2026-02-12	16:02:35.770	-22.61	51.59	-7.245	0.316224	0.471896	0.531188	-0.1335	-0.3915	0.2355	0	325	52	3
2026-02-12	16:02:35.790	-5.145	34.055	-5.355	0.278404	0.375516	0.57828	-0.1275	-0.384	0.222	0	325	52	3
2026-02-12	16:02:35.810	7.385	27.055	0.595	0.250344	0.430416	0.58804	-0.1305	-0.3885	0.219	0	327	101	2
2026-02-12	16:02:35.830	19.635	20.685	5.285	0.229116	0.619516	0.585112	-0.132	-0.39	0.2145	0	327	101	2
2026-02-12	16:02:35.850	29.225	12.67	3.885	0.219112	0.801784	0.619028	-0.129	-0.381	0.216	0	327	101	2
2026-02-12	16:02:35.870	36.82	2.905	-0.735	0.214476	0.872788	0.670268	-0.1245	-0.3825	0.2205	0	327	101	2
2026-02-12	16:02:35.890	41.51	-3.29	-5.285	0.172996	0.875472	0.698816	-0.123	-0.3855	0.222	0	327	101	2
2026-02-12	16:02:35.910	39.795	-11.55	-8.155	0.238876	0.887428	0.578036	-0.123	-0.381	0.231	0	327	101	2
2026-02-12	16:02:35.930	27.125	-28.21	-12.25	0.651236	0.911096	0.580232	-0.126	-0.384	0.237	0	327	101	2
2026-02-12	16:02:35.950	33.215	-36.68	-18.13	1.022116	1.15168	0.67832	-0.1275	-0.3915	0.2415	0	327	101	2
2026-02-12	16:02:35.970	59.29	-33.95	-24.92	1.213412	1.613084	0.626836	-0.1185	-0.3975	0.255	0	327	101	2
2026-02-12	16:02:35.990	62.405	-29.435	-35.105	0.966972	1.65066	0.54778	-0.108	-0.402	0.267	0	327	101	2
2026-02-12	16:02:36.010	36.505	-29.19	-40.04	0.512888	0.9333	0.554856	-0.108	-0.399	0.279	0	334	192	3
2026-02-12	16:02:36.030	24.36	-31.08	-21.35	0.279624	0.08686399	0.582428	-0.108	-0.3975	0.285	0	334	192	3
2026-02-12	16:02:36.050	43.47	-30.8	11.795	0.41236	-0.088816	0.337208	-0.1035	-0.402	0.288	0	334	192	3
2026-02-12	16:02:36.070	104.86	-36.68	37.24	0.8906	0.584136	0.179584	-0.108	-0.399	0.2955	0	334	192	3
2026-02-12	16:02:36.090	99.96	-39.2	29.61	1.125328	0.989176	0.170556	-0.1125	-0.3975	0.3105	0	334	192	3
2026-02-12	16:02:36.110	59.325	-37.8	30.835	1.184376	0.913048	0.07905599	-0.1125	-0.393	0.3345	0	334	192	3
2026-02-12	16:02:36.130	35.595	-37.415	32.13	1.059204	0.65636	0.002928	-0.117	-0.387	0.3465	0	334	192	3
2026-02-12	16:02:36.150	41.3	-34.02	31.745	0.867176	0.512644	-0.010004	-0.123	-0.3825	0.3585	0	334	192	3
2026-02-12	16:02:36.170	55.615	-34.37	36.015	0.73078	0.535092	-0.000488	-0.126	-0.378	0.3675	0	334	192	3
2026-02-12	16:02:36.190	59.78	-36.785	42.175	0.620248	0.620248	-0.037088	-0.132	-0.3735	0.3765	0	334	192	3
2026-02-12	16:02:36.210	57.365	-37.31	46.375	0.510692	0.684908	-0.079544	-0.138	-0.366	0.39	0	349	260	3
2026-02-12	16:02:36.230	58.275	-41.72	47.985	0.509228	0.717848	-0.118828	-0.1455	-0.363	0.402	0	349	260	3
2026-02-12	16:02:36.250	60.095	-46.76	46.305	0.531188	0.757132	-0.16226	-0.1455	-0.36	0.414	0	349	260	3
2026-02-12	16:02:36.270	54.845	-50.05	44.835	0.546804	0.730048	-0.175192	-0.147	-0.351	0.4245	0	349	260	3
2026-02-12	16:02:36.290	47.565	-49.84	43.155	0.561932	0.749324	-0.175436	-0.156	-0.3405	0.438	0	349	260	3
2026-02-12	16:02:36.310	35.945	-49.21	42.35	0.606828	0.706868	-0.172508	-0.156	-0.336	0.45	0	349	260	3
2026-02-12	16:02:36.330	22.785	-48.86	42.91	0.641476	0.652212	-0.167628	-0.1575	-0.3315	0.4545	0	349	260	3
2026-02-12	16:02:36.350	4.025	-50.715	44.625	0.691252	0.553636	-0.162016	-0.162	-0.327	0.459	0	349	260	3
2026-02-12	16:02:36.370	0.56	-52.465	45.465	0.70882	0.52948	-0.142496	-0.162	-0.327	0.459	0	349	260	3
2026-02-12	16:02:36.390	0.7	-54.355	45.71	0.73444	0.542656	-0.145424	-0.165	-0.318	0.474	0	349	260	3
2026-02-12	16:02:36.410	2.03	-56.525	44.485	0.746396	0.535824	-0.178364	-0.174	-0.306	0.483	0	367	244	3
2026-02-12	16:02:36.430	4.655	-57.89	42.245	0.7564	0.590724	-0.198128	-0.1665	-0.309	0.4845	0	367	244	3
2026-02-12	16:02:36.450	2.695	-57.995	40.355	0.759816	0.591944	-0.212768	-0.1755	-0.309	0.4935	0	367	244	3
2026-02-12	16:02:36.470	1.75	-57.68	39.025	0.770064	0.57462	-0.223504	-0.1695	-0.294	0.5025	0	367	244	3
2026-02-12	16:02:36.490	5.425	-56.35	36.925	0.76738	0.578768	-0.217404	-0.174	-0.294	0.4995	0	367	244	3
2026-02-12	16:02:36.510	8.05	-54.39	35.14	0.748348	0.574376	-0.24034	-0.171	-0.2895	0.519	0	367	244	3
2026-02-12	16:02:36.530	10.885	-52.22	34.02	0.748836	0.603412	-0.244976	-0.1695	-0.2925	0.5145	0	367	244	3
2026-02-12	16:02:36.550	11.69	-47.985	33.075	0.739076	0.647088	-0.2196	-0.168	-0.285	0.5295	0	367	244	3
2026-02-12	16:02:36.570	11.165	-42.21	30.625	0.727852	0.677832	-0.194956	-0.1725	-0.273	0.5385	0	367	244	3
2026-02-12	16:02:36.590	10.22	-35	28.56	0.73688	0.694424	-0.140544	-0.1725	-0.2745	0.5445	0	367	244	3
2026-02-12	16:02:36.610	8.26	-25.235	26.53	0.746396	0.712968	-0.06466	-0.1665	-0.2745	0.5355	0	379	165	3
2026-02-12	16:02:36.630	3.675	-7.595	23.24	0.801296	0.736392	-0.009028	-0.1665	-0.2745	0.5355	0	379	165	3
2026-02-12	16:02:36.650	-0.14	4.62	23.345	0.856928	0.695644	-0.013176	-0.1665	-0.2745	0.5355	0	379	165	3
2026-02-12	16:02:36.670	-4.13	14.63	29.225	0.945012	0.642208	-0.087596	-0.18	-0.264	0.546	0	379	165	3
2026-02-12	16:02:36.690	-1.12	22.26	34.195	1.11386	0.732732	-0.246684	-0.186	-0.258	0.5445	0	379	165	3
2026-02-12	16:02:36.710	6.545	26.25	33.88	1.296616	0.820328	-0.476776	-0.1875	-0.2535	0.5475	0	379	165	3
2026-02-12	16:02:36.730	7.735	28.98	32.41	1.44326	0.97478	-0.508496	-0.1905	-0.252	0.537	0	379	165	3
2026-02-12	16:02:36.750	0.98	36.82	29.4	1.486692	0.934032	-0.376004	-0.192	-0.2505	0.54	0	379	165	3
2026-02-12	16:02:36.770	-6.965	47.67	22.715	1.415932	0.850096	-0.324764	-0.2055	-0.243	0.5265	0	379	165	3
2026-02-12	16:02:36.790	-14.63	58.45	10.745	1.342244	0.686616	-0.327692	-0.2115	-0.2475	0.5295	0	379	165	3
2026-02-12	16:02:36.810	-22.68	67.97	-1.015	1.22244	0.457744	-0.3294	-0.2175	-0.255	0.5235	0	386	67	3
2026-02-12	16:02:36.830	-23.345	75.285	-15.365	1.114836	0.371612	-0.335256	-0.225	-0.24	0.5205	0	386	67	3
2026-02-12	16:02:36.850	-25.13	77.35	-33.04	1.008696	0.44652	-0.339892	-0.225	-0.246	0.5085	0	386	67	3
2026-02-12	16:02:36.870	-36.05	76.09	-49.105	0.903776	0.467504	-0.256932	-0.2355	-0.249	0.4875	0	386	67	3
2026-02-12	16:02:36.890	-37.73	76.02	-60.76	0.803492	0.395524	-0.151036	-0.2265	-0.258	0.4845	0	386	67	3
2026-02-12	16:02:36.910	-19.775	80.115	-67.725	0.632936	0.32818	-0.067588	-0.228	-0.261	0.4725	0	386	67	3
2026-02-12	16:02:36.930	-11.69	83.335	-66.43	0.6161	0.430904	-0.06954	-0.225	-0.273	0.462	0	386	67	3
2026-02-12	16:02:36.950	-17.15	85.54	-62.02	0.636108	0.447008	-0.042212	-0.2235	-0.288	0.4395	0	386	67	3
2026-02-12	16:02:36.970	-23.415	86.765	-55.3	0.647088	0.411872	-0.081252	-0.219	-0.2955	0.4275	0	386	67	3
2026-02-12	16:02:36.990	-25.13	84.42	-50.015	0.658068	0.375272	-0.126148	-0.2085	-0.3045	0.4215	0	386	67	3
2026-02-12	16:02:37.010	-28	82.845	-45.78	0.693692	0.4087	-0.054412	-0.2025	-0.3135	0.4065	0	389	16	3
2026-02-12	16:02:37.030	-28.735	83.755	-45.99	0.728828	0.471652	0.04636	-0.204	-0.3195	0.39	0	389	16	3
2026-02-12	16:02:37.050	-25.095	84.735	-46.865	0.702476	0.526064	0.112484	-0.2025	-0.321	0.3825	0	389	16	3
2026-02-12	16:02:37.070	-26.11	83.09	-46.375	0.650504	0.450668	0.132248	-0.1935	-0.327	0.372	0	389	16	3
2026-02-12	16:02:37.090	-25.62	81.375	-42.945	0.524356	0.393084	0.137372	-0.1905	-0.3345	0.3585	0	389	16	3
2026-02-12	16:02:37.110	-18.445	77.945	-37.1	0.465308	0.381372	0.173484	-0.1905	-0.339	0.3465	0	389	16	3
2026-02-12	16:02:37.130	-9.87	74.235	-30.975	0.43554	0.443104	0.24034	-0.186	-0.3435	0.339	0	389	16	3
2026-02-12	16:02:37.150	-3.71	67.095	-21.385	0.394792	0.43676	0.264496	-0.18	-0.3435	0.33	0	389	16	3
2026-02-12	16:02:37.170	6.72	56.245	-10.255	0.451644	0.415044	0.357704	-0.1815	-0.3435	0.321	0	389	16	3
2026-02-12	16:02:37.190	21.42	52.01	-0.7	0.464576	0.462136	0.43676	-0.177	-0.3465	0.318	0	389	16	3
2026-02-12	16:02:37.210	39.375	48.37	4.55	0.471896	0.61976	0.47702	-0.174	-0.348	0.3165	0	390	39	3
2026-02-12	16:02:37.230	55.37	45.43	5.25	0.415776	0.763964	0.529724	-0.1755	-0.348	0.3195	0	390	39	3
2026-02-12	16:02:37.250	65.275	41.02	4.13	0.368196	0.84546	0.573156	-0.174	-0.3435	0.324	0	390	39	3
2026-02-12	16:02:37.270	70.98	35.98	-1.19	0.3965	0.927932	0.585356	-0.1725	-0.3465	0.321	0	390	39	3
2026-02-12	16:02:37.290	66.71	30.205	-11.725	0.570472	1.067012	0.551928	-0.1755	-0.348	0.3285	0	390	39	3
2026-02-12	16:02:37.310	63.105	22.435	-23.555	0.832528	1.11874	0.540948	-0.177	-0.3495	0.3375	0	390	39	3
2026-02-12	16:02:37.330	77.21	16.975	-23.695	0.92842	1.327848	0.414068	-0.177	-0.348	0.342	0	390	39	3
2026-02-12	16:02:37.350	49.385	2.905	-21.595	0.992592	1.00528	0.221064	-0.174	-0.342	0.3525	0	390	39	3
2026-02-12	16:02:37.370	36.19	-16.625	-16.275	0.87962	0.831308	0.205204	-0.168	-0.3465	0.3615	0	390	39	3
2026-02-12	16:02:37.390	16.485	-33.495	0.105	0.701256	0.583404	0.160552	-0.1635	-0.3525	0.3645	0	390	39	3
2026-02-12	16:02:37.410	-2.17	-41.02	18.27	0.637328	0.397476	0.044896	-0.168	-0.351	0.3705	0	392	12	3
2026-02-12	16:02:37.430	-1.645	-52.605	34.125	0.716384	0.369904	-0.0549	-0.165	-0.3465	0.372	0	392	12	3
2026-02-12	16:02:37.450	18.935	-66.22	45.535	0.784216	0.490684	-0.08784	-0.174	-0.3435	0.3855	0	392	12	3
2026-02-12	16:02:37.470	39.445	-77.98	52.78	0.726876	0.697596	-0.101992	-0.1695	-0.3375	0.3975	0	392	12	3
2026-02-12	16:02:37.490	40.425	-92.155	54.985	0.629032	0.77958	-0.123708	-0.1725	-0.327	0.4065	0	392	12	3
2026-02-12	16:02:37.510	31.5	-103.95	51.73	0.510448	0.828868	-0.141032	-0.1785	-0.321	0.4125	0	392	12	3
2026-02-12	16:02:37.530	17.395	-112.91	47.88	0.44286	0.788364	-0.109312	-0.1755	-0.3225	0.4365	0	392	12	3
2026-02-12	16:02:37.550	3.92	-118.3	47.39	0.411872	0.688812	-0.05856	-0.18	-0.315	0.444	0	392	12	3
2026-02-12	16:02:37.570	-1.47	-119.875	49.56	0.420412	0.591456	-0.04514	-0.1815	-0.306	0.456	0	392	12	3
2026-02-12	16:02:37.590	2.17	-118.58	54.005	0.448228	0.578524	-0.08174	-0.183	-0.306	0.471	0	392	12	3
2026-02-12	16:02:37.610	-6.545	-119.595	57.82	0.499224	0.527284	-0.194956	-0.1815	-0.3045	0.4815	0	394	57	3
2026-02-12	16:02:37.630	-17.85	-122.605	60.025	0.559492	0.50874	-0.241072	-0.1785	-0.2955	0.489	0	394	57	3
2026-02-12	16:02:37.650	-27.23	-125.02	59.36	0.643184	0.528016	-0.274988	-0.177	-0.285	0.504	0	394	57	3
2026-02-12	16:02:37.670	-34.195	-125.195	56.28	0.7259	0.583892	-0.28792	-0.1725	-0.279	0.5175	0	394	57	3
2026-02-12	16:02:37.690	-33.04	-121.17	51.695	0.787632	0.623664	-0.300364	-0.168	-0.276	0.525	0	394	57	3
2026-02-12	16:02:37.710	-26.985	-112.91	48.58	0.814228	0.640256	-0.341844	-0.168	-0.2745	0.5295	0	394	57	3
2026-02-12	16:02:37.730	-20.02	-103.95	45.5	0.844728	0.607804	-0.363316	-0.1635	-0.2685	0.537	0	394	57	3
2026-02-12	16:02:37.750	-12.215	-94.15	43.645	0.851072	0.616588	-0.314028	-0.162	-0.2685	0.5415	0	394	57	3
2026-02-12	16:02:37.770	-6.685	-81.27	42.945	0.83326	0.660996	-0.238632	-0.1545	-0.2655	0.5385	0	394	57	3
2026-02-12	16:02:37.790	-4.445	-65.275	42.385	0.827648	0.7381	-0.183976	-0.1545	-0.267	0.564	0	394	57	3
2026-02-12	16:02:37.810	-3.815	-45.325	40.075	0.824232	0.81984	-0.111996	-0.15	-0.261	0.5625	0	395	41	3
2026-02-12	16:02:37.830	-6.09	-18.34	36.4	0.835944	0.860588	-0.086132	-0.156	-0.2565	0.5775	0	395	41	3
2026-02-12	16:02:37.850	-10.255	6.72	32.165	0.853756	0.823256	-0.13908	-0.153	-0.2535	0.5775	0	395	41	3
2026-02-12	16:02:37.870	-15.925	21.455	29.26	0.937692	0.792512	-0.239852	-0.156	-0.252	0.573	0	395	41	3
2026-02-12	16:02:37.890	-24.955	29.015	27.615	1.099464	0.752496	-0.349408	-0.1605	-0.2535	0.567	0	395	41	3
2026-02-12	16:02:37.910	-26.355	35.28	25.585	1.192184	0.76616	-0.438956	-0.168	-0.2505	0.564	0	395	41	3
2026-02-12	16:02:37.930	-13.37	41.685	20.09	1.24562	0.770552	-0.478972	-0.1755	-0.252	0.5595	0	395	41	3
2026-02-12	16:02:37.950	-4.795	49	13.93	1.268556	0.743468	-0.441884	-0.1785	-0.2535	0.552	0	395	41	3
2026-02-12	16:02:37.970	-9.03	54.425	9.555	1.329556	0.66734	-0.388448	-0.1875	-0.2535	0.543	0	395	41	3
2026-02-12	16:02:37.990	-20.09	59.36	-0.105	1.360544	0.551928	-0.340136	-0.192	-0.255	0.54	0	395	41	3
2026-02-12	16:02:38.010	-31.08	63.35	-13.72	1.319064	0.467016	-0.38674	-0.192	-0.2505	0.5355	0	392	19	3
2026-02-12	16:02:38.030	-41.265	64.61	-30.835	1.241716	0.367952	-0.438468	-0.195	-0.2535	0.525	0	392	19	3
2026-02-12	16:02:38.050	-47.495	62.09	-47.67	1.1102	0.3233	-0.410896	-0.201	-0.261	0.5145	0	392	19	3
2026-02-12	16:02:38.070	-55.405	60.095	-64.12	0.954528	0.316712	-0.287676	-0.2025	-0.264	0.51	0	392	19	3
2026-02-12	16:02:38.090	-57.575	63.805	-73.045	0.811544	0.24156	-0.148352	-0.2025	-0.264	0.51	0	392	19	3
2026-02-12	16:02:38.110	-49.21	70.14	-72.415	0.71736	0.329644	-0.086132	-0.1905	-0.303	0.4725	0	392	19	3
2026-02-12	16:02:38.130	-42.21	76.44	-71.26	0.673684	0.386984	-0.072468	-0.177	-0.3135	0.4605	0	392	19	3
2026-02-12	16:02:38.150	-30.205	77.91	-65.52	0.634156	0.360632	-0.108336	-0.18	-0.318	0.4485	0	392	19	3
2026-02-12	16:02:38.170	-19.635	77.56	-55.615	0.590968	0.3599	-0.141032	-0.171	-0.327	0.429	0	392	19	3
2026-02-12	16:02:38.190	-20.37	76.195	-51.31	0.615612	0.404308	-0.160064	-0.162	-0.333	0.432	0	392	19	3
2026-02-12	16:02:38.210	-33.11	78.715	-49.105	0.655384	0.430172	-0.083936	-0.165	-0.3405	0.4185	0	391	87	3
2026-02-12	16:02:38.230	-40.635	83.335	-50.715	0.684908	0.501176	0.035868	-0.1545	-0.342	0.405	0	391	87	3
2026-02-12	16:02:38.250	-42.63	86.135	-54.53	0.676368	0.532652	0.104188	-0.1575	-0.342	0.3915	0	391	87	3
2026-02-12	16:02:38.270	-41.65	87.955	-53.655	0.599264	0.449936	0.125416	-0.1485	-0.363	0.372	0	391	87	3
2026-02-12	16:02:38.290	-32.795	89.67	-49.875	0.5124	0.454328	0.191296	-0.141	-0.363	0.366	0	391	87	3
2026-02-12	16:02:38.310	-20.16	87.605	-46.375	0.496052	0.554368	0.233264	-0.1395	-0.3615	0.3585	0	391	87	3
2026-02-12	16:02:38.330	-10.99	83.09	-41.72	0.461648	0.633424	0.273036	-0.126	-0.375	0.351	0	391	87	3
2026-02-12	16:02:38.350	-13.58	68.25	-29.96	0.501176	0.538508	0.323788	-0.126	-0.375	0.351	0	391	87	3
2026-02-12	16:02:38.370	-10.5	63.035	-16.45	0.510692	0.418948	0.383568	-0.126	-0.375	0.351	0	391	87	3
2026-02-12	16:02:38.390	-2.135	59.255	-3.99	0.53924	0.449448	0.379176	-0.12	-0.3765	0.333	0	391	87	3
2026-02-12	16:02:38.410	8.785	56.42	4.27	0.527772	0.495564	0.421388	-0.111	-0.378	0.3225	0	390	99	3
2026-02-12	16:02:38.430	22.19	53.095	10.115	0.458232	0.564616	0.454816	-0.1245	-0.381	0.324	0	390	99	3
2026-02-12	16:02:38.450	33.32	47.25	13.09	0.37332	0.651724	0.4758	-0.126	-0.387	0.324	0	390	99	3
2026-02-12	16:02:38.470	40.985	40.18	11.34	0.322324	0.748104	0.518988	-0.1275	-0.372	0.3165	0	390	99	3
2026-02-12	16:02:38.490	47.25	31.5	7.455	0.303048	0.773236	0.532164	-0.1245	-0.378	0.318	0	390	99	3
2026-02-12	16:02:38.510	54.425	23.38	4.76	0.299876	0.746152	0.540216	-0.1335	-0.3765	0.33	0	390	99	3
2026-02-12	16:02:38.530	64.68	18.62	2.73	0.342576	0.778604	0.541436	-0.1365	-0.3765	0.336	0	390	99	3
2026-02-12	16:02:38.550	76.125	18.76	-2.345	0.482632	1.043344	0.507032	-0.132	-0.3735	0.3375	0	390	99	3
2026-02-12	16:02:38.570	74.76	17.255	-12.32	0.798124	1.354688	0.506544	-0.1305	-0.3675	0.348	0	390	99	3
2026-02-12	16:02:38.590	73.36	17.43	-20.405	1.043832	1.586	0.589748	-0.1335	-0.369	0.36	0	390	99	3
2026-02-12	16:02:38.610	54.215	6.09	-19.565	0.93574	1.165832	0.25132	-0.138	-0.3645	0.3585	0	392	29	3
2026-02-12	16:02:38.630	45.57	-11.865	-14.91	0.724192	0.452376	0.282308	-0.129	-0.372	0.369	0	392	29	3
2026-02-12	16:02:38.650	54.145	-16.73	3.045	0.552172	0.39894	0.225944	-0.123	-0.369	0.3795	0	392	29	3
2026-02-12	16:02:38.670	44.415	-19.845	21.28	0.590968	0.4392	0.076372	-0.12	-0.3645	0.3975	0	392	29	3
2026-02-12	16:02:38.690	29.435	-25.27	34.685	0.653432	0.587308	0.0122	-0.1245	-0.36	0.4065	0	392	29	3
2026-02-12	16:02:38.710	9.625	-38.045	41.825	0.781776	0.738344	-0.061244	-0.126	-0.357	0.414	0	392	29	3
2026-02-12	16:02:38.730	10.815	-56.385	42.175	0.87474	0.939888	-0.10126	-0.132	-0.351	0.417	0	392	29	3
2026-02-12	16:02:38.750	19.635	-71.295	38.535	0.78446	0.97966	-0.138104	-0.1425	-0.345	0.42	0	392	29	3
2026-02-12	16:02:38.770	22.05	-81.725	35.42	0.638548	0.895724	-0.172996	-0.1395	-0.3435	0.4305	0	392	29	3
2026-02-12	16:02:38.790	20.93	-90.265	33.775	0.528504	0.774456	-0.15128	-0.138	-0.3405	0.441	0	392	29	3
2026-02-12	16:02:38.810	23.87	-95.235	36.295	0.473848	0.6954	-0.11102	-0.144	-0.336	0.444	0	398	49	3
2026-02-12	16:02:38.830	26.425	-95.305	43.715	0.396988	0.640988	-0.084424	-0.141	-0.3285	0.4575	0	398	49	3
2026-02-12	16:02:38.850	18.725	-97.965	50.995	0.417484	0.577304	-0.102968	-0.135	-0.3255	0.474	0	398	49	3
2026-02-12	16:02:38.870	12.705	-96.705	56.35	0.438224	0.535092	-0.139568	-0.135	-0.3195	0.4815	0	398	49	3
2026-02-12	16:02:38.890	7.105	-96.495	60.06	0.481412	0.521428	-0.160552	-0.1425	-0.3105	0.495	0	398	49	3
2026-02-12	16:02:38.910	-3.255	-98.21	61.74	0.569496	0.545828	-0.207888	-0.1365	-0.3045	0.5025	0	398	49	3
2026-02-12	16:02:38.930	-10.745	-99.085	60.06	0.611708	0.559248	-0.224968	-0.1335	-0.3	0.5055	0	398	49	3
2026-02-12	16:02:38.950	-15.82	-100.73	57.26	0.651236	0.592432	-0.227652	-0.1365	-0.297	0.5145	0	398	49	3
2026-02-12	16:02:38.970	-16.24	-101.815	53.725	0.705648	0.59292	-0.236436	-0.1365	-0.291	0.525	0	398	49	3
2026-02-12	16:02:38.990	-13.055	-100.765	52.465	0.735416	0.62586	-0.256688	-0.132	-0.288	0.5355	0	398	49	3
2026-02-12	16:02:39.010	-11.34	-99.4	51.415	0.78202	0.636596	-0.272548	-0.126	-0.282	0.5385	0	403	62	3
2026-02-12	16:02:39.030	-9.345	-95.83	51.24	0.803736	0.649528	-0.281332	-0.1275	-0.2805	0.543	0	403	62	3
2026-02-12	16:02:39.050	-4.445	-89.915	49.49	0.819108	0.691984	-0.264496	-0.1275	-0.2775	0.552	0	403	62	3
2026-02-12	16:02:39.070	0.385	-81.585	47.915	0.799344	0.743224	-0.218868	-0.1215	-0.2715	0.5595	0	403	62	3
2026-02-12	16:02:39.090	1.68	-70.175	46.55	0.745176	0.784216	-0.160064	-0.1185	-0.27	0.5685	0	403	62	3
2026-02-12	16:02:39.110	-1.645	-55.965	44.695	0.736392	0.835212	-0.0854	-0.1185	-0.2625	0.5745	0	403	62	3
2026-02-12	16:02:39.130	-5.845	-37.555	41.965	0.735172	0.863272	-0.042212	-0.12	-0.261	0.5775	0	403	62	3
2026-02-12	16:02:39.150	-11.69	-17.71	38.955	0.74176	0.85766	-0.054656	-0.1185	-0.258	0.582	0	403	62	3
2026-02-12	16:02:39.170	-18.69	0.525	37.975	0.79422	0.805688	-0.135664	-0.1185	-0.252	0.582	0	403	62	3
2026-02-12	16:02:39.190	-28.77	19.635	38.115	0.969656	0.806176	-0.308416	-0.123	-0.2535	0.582	0	403	62	3
2026-02-12	16:02:39.210	-34.895	25.165	37.45	1.12606	0.815692	-0.449692	-0.126	-0.252	0.567	0	403	18	3
2026-02-12	16:02:39.230	-33.915	28.735	36.05	1.274168	0.76372	-0.529968	-0.141	-0.258	0.564	0	403	18	3
2026-02-12	16:02:39.250	-21.945	30.975	30.625	1.373476	0.781776	-0.558516	-0.1545	-0.2595	0.5655	0	403	18	3
2026-02-12	16:02:39.270	-19.88	35.735	22.155	1.39812	0.73322	-0.484584	-0.147	-0.2565	0.558	0	403	18	3
2026-02-12	16:02:39.290	-28.105	40.705	13.825	1.38592	0.60146	-0.348432	-0.156	-0.261	0.558	0	403	18	3
2026-02-12	16:02:39.310	-32.025	50.61	2.905	1.260992	0.486048	-0.286456	-0.162	-0.264	0.546	0	403	18	3
2026-02-12	16:02:39.330	-33.88	59.395	-12.39	1.18462	0.512644	-0.286456	-0.162	-0.2625	0.5475	0	403	18	3
2026-02-12	16:02:39.350	-42.28	64.75	-33.005	1.106784	0.537288	-0.367708	-0.1545	-0.2655	0.5295	0	403	18	3
2026-02-12	16:02:39.370	-54.075	63.35	-52.325	1.009916	0.471896	-0.465552	-0.1605	-0.273	0.516	0	403	18	3
2026-02-12	16:02:39.390	-62.79	58.17	-66.64	0.922808	0.382836	-0.406504	-0.159	-0.273	0.5145	0	403	18	3
2026-02-12	16:02:39.410	-65.205	56	-74.55	0.869616	0.355752	-0.240828	-0.1665	-0.288	0.5055	0	401	54	3
2026-02-12	16:02:39.430	-59.325	60.27	-77.245	0.751764	0.240828	-0.1281	-0.1485	-0.297	0.489	0	401	54	3
2026-02-12	16:02:39.450	-44.695	68.215	-74.445	0.672708	0.277428	-0.093208	-0.141	-0.303	0.48	0	401	54	3
2026-02-12	16:02:39.470	-33.915	72.17	-67.48	0.650992	0.424316	-0.101016	-0.138	-0.3225	0.4695	0	401	54	3
2026-02-12	16:02:39.490	-29.855	72.275	-57.225	0.620736	0.391376	-0.15494	-0.129	-0.324	0.4515	0	401	54	3
2026-02-12	16:02:39.510	-29.155	70.56	-50.575	0.63074	0.436272	-0.165432	-0.123	-0.33	0.447	0	401	54	3
2026-02-12	16:02:39.530	-35.7	70.315	-48.685	0.67222	0.520208	-0.07905599	-0.129	-0.33	0.435	0	401	54	3
2026-02-12	16:02:39.550	-44.065	72.52	-50.12	0.6832	0.5307	0.009028	-0.117	-0.336	0.423	0	401	54	3
2026-02-12	16:02:39.570	-46.41	73.5	-50.785	0.630008	0.519476	0.044652	-0.1125	-0.345	0.4215	0	401	54	3
2026-02-12	16:02:39.590	-49.665	72.905	-48.79	0.559492	0.465308	0.065636	-0.1065	-0.348	0.4095	0	401	54	3
2026-02-12	16:02:39.610	-52.99	73.675	-43.12	0.471896	0.465552	0.149084	-0.1035	-0.351	0.3945	0	398	109	3
2026-02-12	16:02:39.630	-42.525	70.91	-39.55	0.44896	0.537288	0.253516	-0.1005	-0.3495	0.3885	0	398	109	3
2026-02-12	16:02:39.650	-31.43	64.61	-35.245	0.437248	0.595604	0.275232	-0.096	-0.3615	0.375	0	398	109	3
2026-02-12	16:02:39.670	-25.025	56.875	-29.715	0.431148	0.50264	0.277428	-0.0945	-0.36	0.363	0	398	109	3
2026-02-12	16:02:39.690	-13.965	49.35	-21.91	0.485072	0.450912	0.317932	-0.087	-0.369	0.354	0	398	109	3
2026-02-12	16:02:39.710	-2.345	42.805	-11.795	0.545828	0.441884	0.37576	-0.0885	-0.36	0.354	0	398	109	3
2026-02-12	16:02:39.730	14.385	40.32	-0.07	0.546072	0.545096	0.429928	-0.0855	-0.3735	0.3405	0	398	109	3
2026-02-12	16:02:39.750	30.87	34.545	5.74	0.495076	0.689056	0.49654	-0.0855	-0.3735	0.3405	0	398	109	3
2026-02-12	16:02:39.770	35.35	27.23	6.825	0.440664	0.732	0.535092	-0.0885	-0.3705	0.348	0	398	109	3
2026-02-12	16:02:39.790	41.44	19.635	4.515	0.36844	0.695644	0.50508	-0.0885	-0.3645	0.354	0	398	109	3
2026-02-12	16:02:39.810	58.45	9.66	0.63	0.327692	0.72712	0.5002	-0.09	-0.3615	0.357	0	397	89	3
2026-02-12	16:02:39.830	67.9	0.315	-4.97	0.357704	0.91256	0.495564	-0.093	-0.36	0.369	0	397	89	3
2026-02-12	16:02:39.850	55.195	-5.005	-15.225	0.5185	1.060424	0.456768	-0.093	-0.354	0.3795	0	397	89	3
2026-02-12	16:02:39.870	56.42	-15.855	-24.395	0.68564	0.992104	0.54168	-0.0975	-0.3525	0.39	0	397	89	3
2026-02-12	16:02:39.890	59.64	-23.065	-16.31	0.781776	1.221708	0.258152	-0.093	-0.354	0.402	0	397	89	3
2026-02-12	16:02:39.910	4.06	-28.28	-3.675	1.094828	1.257088	-0.039528	-0.0885	-0.354	0.4065	0	397	89	3
2026-02-12	16:02:39.930	-13.545	-40.075	-4.935	1.297348	1.017724	0.218136	-0.087	-0.357	0.4065	0	397	89	3
2026-02-12	16:02:39.950	19.88	-52.955	-0.805	0.87474	0.8357	0.269132	-0.081	-0.3585	0.4065	0	397	89	3
2026-02-12	16:02:39.970	9.03	-53.235	10.675	0.573888	0.516792	0.145668	-0.0795	-0.357	0.4125	0	397	89	3
2026-02-12	16:02:39.990	-2.31	-57.505	23.835	0.539484	0.316468	0.0122	-0.0795	-0.3495	0.4185	0	397	89	3
