yyyy-MM-dd	HH:mm:ss.fff	gyrX	gyrY	gyrZ	accX	accY	accZ	magX	magY	magZ	Marker	Energy	Angle	Classification
2026-02-11	16:36:27.010	3.815	-19.18	-21.35	-0.002196	0.00488	0.983564	-0.225	-1.2165	-2.787	0	130	1027	1
2026-02-11	16:36:27.030	1.645	-17.115	-23.065	-0.013176	0.009028	1.013332	-0.2355	-1.221	-2.7855	0	130	1027	1
2026-02-11	16:36:27.050	-1.19	-14.875	-24.43	0.006344	0.012688	1.037488	-0.231	-1.2195	-2.787	0	130	1027	1
2026-02-11	16:36:27.070	-3.92	-12.425	-25.13	0.010248	0.025132	1.047492	-0.234	-1.212	-2.7885	0	130	1027	1
2026-02-11	16:36:27.090	-5.11	-9.66	-25.83	-0.003904	0.032208	1.059204	-0.2385	-1.2105	-2.7885	0	130	1027	1
2026-02-11	16:36:27.110	-4.865	-6.545	-27.475	0.006344	0.018544	1.095316	-0.2385	-1.2075	-2.7945	0	130	1027	1
2026-02-11	16:36:27.130	-4.34	-2.31	-30.765	0.05734	0.001952	1.111664	-0.2385	-1.2105	-2.784	0	130	1027	1
2026-02-11	16:36:27.150	-2.625	-0.14	-33.005	0.073688	0.008052	1.086776	-0.234	-1.206	-2.7885	0	130	1027	1
2026-02-11	16:36:27.170	0.77	1.68	-35.315	0.057096	0.014396	1.06384	-0.2355	-1.2	-2.7945	0	130	1027	1
2026-02-11	16:36:27.190	4.515	1.785	-37.415	0.066612	0.01098	1.082872	-0.2415	-1.2	-2.79	0	130	1027	1
2026-02-11	16:36:27.210	6.44	0.35	-38.185	0.111752	0.00732	1.148508	-0.2415	-1.1985	-2.7855	0	126	1021	1
2026-02-11	16:36:27.230	6.09	-0.63	-37.345	0.131272	0.016592	1.160952	-0.246	-1.197	-2.784	0	126	1021	1
2026-02-11	16:36:27.250	5.81	-1.855	-36.05	0.149084	0.014152	1.148996	-0.246	-1.197	-2.7825	0	126	1021	1
2026-02-11	16:36:27.270	5.985	-4.235	-34.86	0.16836	0.011712	1.131916	-0.243	-1.1955	-2.7825	0	126	1021	1
2026-02-11	16:36:27.290	6.37	-7.175	-34.44	0.193736	0.004392	1.08824	-0.243	-1.1925	-2.7855	0	126	1021	1
2026-02-11	16:36:27.310	8.085	-8.68	-36.015	0.183976	0.005612	1.006744	-0.246	-1.194	-2.787	0	126	1021	1
2026-02-11	16:36:27.330	12.005	-8.015	-40.005	0.170068	0.005368	0.913048	-0.2475	-1.2015	-2.787	0	126	1021	1
2026-02-11	16:36:27.350	17.29	-7.245	-44.695	0.16958	0.010248	0.843996	-0.252	-1.2	-2.787	0	126	1021	1
2026-02-11	16:36:27.370	22.575	-6.685	-49.07	0.185928	0.026596	0.848388	-0.252	-1.2	-2.7855	0	126	1021	1
2026-02-11	16:36:27.390	25.515	-3.955	-52.43	0.255224	0.034648	0.930128	-0.2535	-1.2045	-2.787	0	126	1021	1
2026-02-11	16:36:27.410	22.225	-2.135	-52.64	0.30012	0.042456	1.01016	-0.258	-1.2045	-2.7885	0	123	1027	1
2026-02-11	16:36:27.430	14.28	-3.64	-50.33	0.288896	0.04392	1.044808	-0.2565	-1.209	-2.7945	0	123	1027	1
2026-02-11	16:36:27.450	4.2	-6.3	-46.935	0.269864	0.044896	1.04432	-0.2625	-1.2	-2.79	0	123	1027	1
2026-02-11	16:36:27.470	-5.04	-8.96	-43.26	0.257664	0.036356	0.997716	-0.261	-1.2075	-2.7975	0	123	1027	1
2026-02-11	16:36:27.490	-10.675	-12.39	-40.32	0.224236	0.033672	0.941596	-0.267	-1.2	-2.793	0	123	1027	1
2026-02-11	16:36:27.510	-12.215	-16.31	-39.13	0.196664	0.032696	0.898164	-0.2655	-1.2105	-2.796	0	123	1027	1
2026-02-11	16:36:27.530	-10.885	-19.215	-39.235	0.169336	0.038064	0.88816	-0.273	-1.194	-2.7915	0	123	1027	1
2026-02-11	16:36:27.550	-8.05	-19.81	-39.795	0.144204	0.043676	0.900848	-0.2715	-1.1895	-2.7915	0	123	1027	1
2026-02-11	16:36:27.570	-5.565	-18.235	-39.935	0.1464	0.035868	0.944524	-0.273	-1.1895	-2.79	0	123	1027	1
2026-02-11	16:36:27.590	-4.935	-15.54	-39.025	0.142496	0.03782	0.971852	-0.2805	-1.1895	-2.7885	0	123	1027	1
2026-02-11	16:36:27.610	-5.565	-12.845	-37.135	0.157624	0.047336	0.987956	-0.285	-1.185	-2.787	0	122	1027	1
2026-02-11	16:36:27.630	-6.51	-10.605	-34.195	0.161528	0.049288	0.993324	-0.285	-1.1835	-2.7915	0	122	1027	1
2026-02-11	16:36:27.650	-6.93	-7.84	-30.835	0.151524	0.046604	1.00406	-0.285	-1.179	-2.793	0	122	1027	1
2026-02-11	16:36:27.670	-6.86	-2.345	-25.83	0.159576	0.03294	1.036268	-0.285	-1.1775	-2.79	0	122	1027	1
2026-02-11	16:36:27.690	-7.735	2.065	-21.98	0.168116	0.026596	1.044808	-0.285	-1.1775	-2.79	0	122	1027	1
2026-02-11	16:36:27.710	-8.855	5.985	-17.815	0.15616	0.034892	1.034072	-0.2865	-1.179	-2.7825	0	122	1027	1
2026-02-11	16:36:27.730	-9.135	7.84	-14.175	0.159332	0.02806	1.04798	-0.288	-1.1745	-2.7885	0	122	1027	1
2026-02-11	16:36:27.750	-8.89	10.185	-11.305	0.153476	0.018544	1.080676	-0.291	-1.1715	-2.787	0	122	1027	1
2026-02-11	16:36:27.770	-9.1	13.44	-9.17	0.1464	0.008784	1.115568	-0.288	-1.173	-2.787	0	122	1027	1
2026-02-11	16:36:27.790	-10.43	16.94	-7.245	0.139812	0.00976	1.107028	-0.285	-1.173	-2.7855	0	122	1027	1
2026-02-11	16:36:27.810	-11.27	18.62	-5.6	0.134932	0.017568	1.07116	-0.285	-1.1685	-2.7765	0	120	1026	1
2026-02-11	16:36:27.830	-10.43	18.795	-4.865	0.12688	0.018056	1.053836	-0.2835	-1.1655	-2.781	0	120	1026	1
2026-02-11	16:36:27.850	-8.435	18.725	-4.935	0.122976	0.013176	1.06506	-0.2865	-1.1625	-2.787	0	120	1026	1
2026-02-11	16:36:27.870	-7.28	19.075	-4.34	0.132248	-0.000976	1.094096	-0.2835	-1.173	-2.7825	0	120	1026	1
2026-02-11	16:36:27.890	-7.49	19.53	-2.275	0.13542	-0.016592	1.1041	-0.279	-1.1625	-2.781	0	120	1026	1
2026-02-11	16:36:27.910	-8.575	18.585	0.98	0.125416	-0.025376	1.097756	-0.27	-1.1655	-2.784	0	120	1026	1
2026-02-11	16:36:27.930	-9.8	14.665	5.46	0.118828	-0.039284	1.08092	-0.267	-1.1655	-2.7825	0	120	1026	1
2026-02-11	16:36:27.950	-9.73	9.205	9.03	0.146888	-0.051972	1.069208	-0.267	-1.1655	-2.7825	0	120	1026	1
2026-02-11	16:36:27.970	-8.575	5.39	10.92	0.171776	-0.0549	1.05164	-0.2625	-1.161	-2.778	0	120	1026	1
2026-02-11	16:36:27.990	-6.3	3.78	11.795	0.17446	-0.050508	0.99552	-0.255	-1.1625	-2.7705	0	120	1026	1
2026-02-11	16:36:26.010	15.89	-3.5	-65.03	0.110532	0.06222	0.846192	-0.21	-1.335	-2.796	0	147	1026	1
2026-02-11	16:36:26.030	20.685	-3.955	-67.095	0.109556	0.06222	0.875228	-0.21	-1.335	-2.796	0	147	1026	1
2026-02-11	16:36:26.050	21.805	-5.775	-69.44	0.143716	0.078568	0.991372	-0.2115	-1.329	-2.8035	0	147	1026	1
2026-02-11	16:36:26.070	15.75	-5.95	-68.95	0.157868	0.090524	1.05408	-0.2115	-1.3245	-2.8005	0	147	1026	1
2026-02-11	16:36:26.090	6.335	-5.46	-67.2	0.1586	0.097844	1.066036	-0.2115	-1.32	-2.8005	0	147	1026	1
2026-02-11	16:36:26.110	-3.43	-5.6	-65.485	0.133468	0.101504	1.02602	-0.207	-1.32	-2.802	0	147	1026	1
2026-02-11	16:36:26.130	-10.29	-6.895	-64.575	0.105408	0.097844	0.9638	-0.204	-1.323	-2.799	0	147	1026	1
2026-02-11	16:36:26.150	-13.16	-9.03	-64.4	0.086132	0.092964	0.900604	-0.2085	-1.3155	-2.796	0	147	1026	1
2026-02-11	16:36:26.170	-12.005	-12.32	-64.645	0.08174	0.088572	0.863516	-0.2115	-1.3035	-2.8005	0	147	1026	1
2026-02-11	16:36:26.190	-8.68	-15.365	-64.75	0.083204	0.091256	0.86986	-0.2085	-1.302	-2.8005	0	147	1026	1
2026-02-11	16:36:26.210	-5.005	-16.485	-63.875	0.094916	0.079788	0.910852	-0.21	-1.296	-2.7975	0	144	1029	1
2026-02-11	16:36:26.230	-2.485	-15.715	-61.915	0.08295999	0.078812	0.936716	-0.213	-1.287	-2.799	0	144	1029	1
2026-02-11	16:36:26.250	-1.05	-14.21	-59.255	0.072468	0.084912	0.944524	-0.2145	-1.2795	-2.799	0	144	1029	1
2026-02-11	16:36:26.270	-0.14	-12.705	-56.245	0.059536	0.09638	0.960384	-0.216	-1.2765	-2.7975	0	144	1029	1
2026-02-11	16:36:26.290	0.14	-11.025	-52.5	0.06466	0.091012	1.0126	-0.216	-1.275	-2.7975	0	144	1029	1
2026-02-11	16:36:26.310	-1.785	-6.895	-46.27	0.082472	0.077592	1.057984	-0.2175	-1.2705	-2.7945	0	144	1029	1
2026-02-11	16:36:26.330	-3.325	-1.4	-39.445	0.067832	0.077348	1.032608	-0.2175	-1.269	-2.7915	0	144	1029	1
2026-02-11	16:36:26.350	-2.415	2.135	-34.86	0.045872	0.063684	1.034072	-0.222	-1.2615	-2.802	0	144	1029	1
2026-02-11	16:36:26.370	-1.435	4.655	-30.73	0.038064	0.036356	1.07604	-0.219	-1.26	-2.799	0	144	1029	1
2026-02-11	16:36:26.390	-1.75	7.875	-26.67	0.05002	0.038064	1.106296	-0.213	-1.2585	-2.79	0	144	1029	1
2026-02-11	16:36:26.410	-1.89	11.83	-23.87	0.03538	0.049044	1.097512	-0.2145	-1.266	-2.796	0	141	1027	1
2026-02-11	16:36:26.430	-1.26	14.665	-22.61	0.01586	0.053192	1.093608	-0.2115	-1.2525	-2.796	0	141	1027	1
2026-02-11	16:36:26.450	-1.365	16.03	-22.33	0.006588	0.043676	1.122156	-0.21	-1.2585	-2.805	0	141	1027	1
2026-02-11	16:36:26.470	-3.675	16.555	-21.945	0.008052	0.027816	1.13216	-0.2055	-1.254	-2.793	0	141	1027	1
2026-02-11	16:36:26.490	-7	16.38	-20.72	0	0.02684	1.136064	-0.2115	-1.251	-2.7975	0	141	1027	1
2026-02-11	16:36:26.510	-10.045	15.995	-18.655	0.010492	0.0183	1.129232	-0.204	-1.242	-2.79	0	141	1027	1
2026-02-11	16:36:26.530	-12.635	14.84	-16.17	0.003416	0.005124	1.101172	-0.1965	-1.254	-2.787	0	141	1027	1
2026-02-11	16:36:26.550	-14.21	12.81	-13.93	-0.000976	-0.008296	1.08336	-0.1965	-1.2495	-2.7885	0	141	1027	1
2026-02-11	16:36:26.570	-14.735	10.64	-12.32	-0.023912	-0.01464	1.052128	-0.201	-1.242	-2.7855	0	141	1027	1
2026-02-11	16:36:26.590	-13.755	4.97	-11.515	-0.005612	-0.0183	1.057008	-0.204	-1.2405	-2.7825	0	141	1027	1
2026-02-11	16:36:36.610	13.51	-0.14	-14.21	0.251564	-0.011224	0.982832	-0.3495	-1.0995	-2.7615	0	416	851	1
2026-02-11	16:36:36.630	12.32	2.66	-13.02	0.249368	-0.021472	0.98088	-0.348	-1.101	-2.76	0	416	851	1
2026-02-11	16:36:36.650	10.64	4.655	-12.11	0.258884	-0.02562	0.98698	-0.354	-1.095	-2.7705	0	416	851	1
2026-02-11	16:36:36.670	8.4	5.81	-11.095	0.27328	-0.022936	1.00528	-0.3435	-1.104	-2.7705	0	416	851	1
2026-02-11	16:36:36.690	5.565	6.79	-9.45	0.294996	-0.02074	1.021628	-0.348	-1.1085	-2.7675	0	416	851	1
2026-02-11	16:36:36.710	2.275	6.615	-7.07	0.292312	-0.02806	1.001864	-0.351	-1.113	-2.763	0	416	851	1
2026-02-11	16:36:36.730	-0.665	4.375	-4.725	0.253516	-0.023668	0.96258	-0.3465	-1.1115	-2.7615	0	416	851	1
2026-02-11	16:36:36.750	-2.065	0.98	-3.045	0.219844	-0.015372	0.923784	-0.351	-1.11	-2.7705	0	416	851	1
2026-02-11	16:36:36.770	-1.295	-1.365	-2.135	0.188368	-0.00244	0.904264	-0.3525	-1.113	-2.7645	0	416	851	1
2026-02-11	16:36:36.790	1.155	-1.995	-2.17	0.155184	-0.010736	0.91744	-0.351	-1.1175	-2.769	0	416	851	1
2026-02-11	16:36:36.810	1.715	-1.4	-1.68	0.136884	-0.014152	0.944036	-0.351	-1.1175	-2.769	0	394	900	1
2026-02-11	16:36:36.830	0.665	-0.455	-0.49	0.132736	-0.008784	0.938424	-0.3495	-1.1145	-2.7705	0	394	900	1
2026-02-11	16:36:36.850	0.56	0.595	0.175	0.123952	0.00366	0.938912	-0.351	-1.107	-2.7675	0	394	900	1
2026-02-11	16:36:36.870	0.98	1.085	0.665	0.122244	0.006832	0.972584	-0.354	-1.1025	-2.7705	0	394	900	1
2026-02-11	16:36:36.890	0.525	2.135	2.38	0.13786	0.000732	1.004304	-0.3495	-1.11	-2.7675	0	394	900	1
2026-02-11	16:36:36.910	-0.455	4.795	5.915	0.14762	-0.001708	1.008452	-0.3525	-1.1145	-2.769	0	394	900	1
2026-02-11	16:36:36.930	-0.56	7.77	10.395	0.1525	-0.007808	1.003572	-0.3555	-1.11	-2.769	0	394	900	1
2026-02-11	16:36:36.950	0.315	9.8	15.19	0.148596	-0.018544	1.014064	-0.3465	-1.107	-2.763	0	394	900	1
2026-02-11	16:36:36.970	1.505	11.235	20.23	0.156892	-0.034404	1.054812	-0.342	-1.107	-2.766	0	394	900	1
2026-02-11	16:36:36.990	1.96	13.545	25.305	0.179828	-0.060512	1.097512	-0.339	-1.1055	-2.766	0	394	900	1
2026-02-11	16:36:37.010	1.505	16.24	30.59	0.177388	-0.07124799	1.09312	-0.3345	-1.107	-2.7675	0	360	931	1
2026-02-11	16:36:37.030	1.575	17.5	35.035	0.165432	-0.069784	1.063596	-0.3285	-1.1115	-2.7675	0	360	931	1
2026-02-11	16:36:37.050	3.185	17.08	38.325	0.161772	-0.070272	1.052372	-0.3255	-1.1115	-2.769	0	360	931	1
2026-02-11	16:36:37.070	5.11	14.42	43.295	0.178364	-0.075396	1.101904	-0.33	-1.113	-2.772	0	360	931	1
2026-02-11	16:36:37.090	4.165	12.635	47.355	0.188124	-0.073688	1.123376	-0.315	-1.1175	-2.7705	0	360	931	1
2026-02-11	16:36:37.110	1.715	9.87	51.275	0.166896	-0.0732	1.121424	-0.318	-1.119	-2.769	0	360	931	1
2026-02-11	16:36:37.130	-1.505	5.985	54.075	0.124196	-0.0732	1.098488	-0.315	-1.1175	-2.769	0	360	931	1
2026-02-11	16:36:37.150	-4.69	1.365	54.845	0.123952	-0.08662	1.094584	-0.309	-1.1145	-2.766	0	360	931	1
2026-02-11	16:36:37.170	-7.945	-3.255	54.915	0.18056	-0.107604	1.100684	-0.3075	-1.1175	-2.7675	0	360	931	1
2026-02-11	16:36:37.190	-10.57	-5.075	55.51	0.23058	-0.1281	1.070184	-0.306	-1.119	-2.769	0	360	931	1
2026-02-11	16:36:37.210	-10.29	-3.605	56.07	0.218136	-0.131272	0.974292	-0.306	-1.1145	-2.7645	0	323	961	1
2026-02-11	16:36:37.230	-5.39	-1.015	55.16	0.189588	-0.134688	0.867908	-0.309	-1.1145	-2.7675	0	323	961	1
2026-02-11	16:36:37.250	2.1	1.225	53.41	0.198616	-0.14884	0.822524	-0.2985	-1.1175	-2.769	0	323	961	1
2026-02-11	16:36:37.270	8.82	3.01	52.64	0.24644	-0.161528	0.862784	-0.297	-1.1235	-2.766	0	323	961	1
2026-02-11	16:36:37.290	11.76	4.13	54.18	0.272792	-0.15616	0.951844	-0.2985	-1.1295	-2.7645	0	323	961	1
2026-02-11	16:36:37.310	10.745	4.585	57.26	0.259616	-0.16226	0.984296	-0.291	-1.1295	-2.766	0	323	961	1
2026-02-11	16:36:37.330	6.65	4.935	60.9	0.216184	-0.127612	0.952088	-0.2925	-1.1295	-2.763	0	323	961	1
2026-02-11	16:36:37.350	2.065	4.865	63.07	0.16592	-0.100528	0.94306	-0.294	-1.1265	-2.76	0	323	961	1
2026-02-11	16:36:37.370	-1.05	3.36	63.07	0.137616	-0.082472	0.916952	-0.288	-1.143	-2.769	0	323	961	1
2026-02-11	16:36:37.390	-2.94	0.175	62.09	0.114192	-0.048312	0.88572	-0.2895	-1.1385	-2.7645	0	323	961	1
2026-02-11	16:36:37.410	-2.485	-4.06	60.095	0.083204	-0.021228	0.846924	-0.2715	-1.1505	-2.76	0	287	979	1
2026-02-11	16:36:37.430	0.35	-8.295	56.98	0.065636	0.003904	0.837164	-0.27	-1.1385	-2.7705	0	287	979	1
2026-02-11	16:36:37.450	4.48	-10.885	52.99	0.058316	0.012932	0.855464	-0.2775	-1.1505	-2.7765	0	287	979	1
2026-02-11	16:36:37.470	8.085	-11.725	48.58	0.04026	0.024156	0.89304	-0.2745	-1.146	-2.769	0	287	979	1
2026-02-11	16:36:37.490	9.625	-11.9	44.17	0.029036	0.0244	0.933544	-0.279	-1.149	-2.769	0	287	979	1
2026-02-11	16:36:37.510	8.855	-12.005	40.53	0.024156	0.025132	0.961848	-0.276	-1.158	-2.7735	0	287	979	1
2026-02-11	16:36:37.530	7.21	-11.48	37.87	0.020008	0.03294	0.966484	-0.2805	-1.161	-2.7825	0	287	979	1
2026-02-11	16:36:37.550	6.825	-9.87	35.595	0.020496	0.044896	0.973804	-0.285	-1.1595	-2.778	0	287	979	1
2026-02-11	16:36:37.570	7.42	-8.505	33.215	0.027572	0.0427	0.99308	-0.279	-1.167	-2.7735	0	287	979	1
2026-02-11	16:36:37.590	7.84	-7.49	30.45	0.025376	0.042212	1.01748	-0.273	-1.167	-2.7705	0	287	979	1
2026-02-11	16:36:37.610	7.875	-5.285	25.165	0.0183	0.049776	1.057008	-0.2745	-1.173	-2.772	0	256	981	1
2026-02-11	16:36:37.630	7.77	-4.235	20.86	0.016592	0.051484	1.077504	-0.2745	-1.173	-2.772	0	256	981	1
2026-02-11	16:36:37.650	7.595	-3.465	16.03	0.046604	0.052704	1.10532	-0.2805	-1.1715	-2.769	0	256	981	1
2026-02-11	16:36:37.670	7.49	-2.03	11.06	0.07515199	0.050996	1.119228	-0.2805	-1.176	-2.7675	0	256	981	1
2026-02-11	16:36:37.690	8.575	0.56	5.95	0.083448	0.041968	1.10776	-0.27	-1.176	-2.772	0	256	981	1
2026-02-11	16:36:37.710	10.71	3.85	0.63	0.067832	0.03538	1.080676	-0.2775	-1.176	-2.769	0	256	981	1
2026-02-11	16:36:37.730	12.775	5.985	-4.375	0.066368	0.038796	1.07848	-0.2745	-1.1895	-2.775	0	256	981	1
2026-02-11	16:36:37.750	13.545	5.705	-8.365	0.09028	0.037576	1.094584	-0.2805	-1.188	-2.778	0	256	981	1
2026-02-11	16:36:37.770	13.44	5.425	-11.375	0.114924	0.04636	1.113616	-0.2745	-1.1865	-2.7765	0	256	981	1
2026-02-11	16:36:37.790	12.39	7	-13.685	0.137616	0.04392	1.136064	-0.2715	-1.182	-2.778	0	256	981	1
2026-02-11	16:36:37.810	9.73	8.12	-15.19	0.149816	0.0366	1.121668	-0.285	-1.1865	-2.772	0	231	990	1
2026-02-11	16:36:37.830	6.65	7.07	-16.695	0.140788	0.030012	1.077016	-0.279	-1.188	-2.778	0	231	990	1
2026-02-11	16:36:37.850	4.515	4.06	-18.865	0.171044	0.02074	1.037	-0.282	-1.1895	-2.778	0	231	990	1
2026-02-11	16:36:37.870	4.165	2.1	-22.05	0.198616	0.00244	0.984296	-0.273	-1.1985	-2.772	0	231	990	1
2026-02-11	16:36:37.890	5.145	2.03	-24.815	0.216428	-0.013664	0.94184	-0.273	-1.1985	-2.772	0	231	990	1
2026-02-11	16:36:37.910	5.985	2.205	-25.725	0.236192	-0.013664	0.934032	-0.276	-1.1895	-2.7735	0	231	990	1
2026-02-11	16:36:37.930	5.67	3.15	-25.025	0.244244	-0.00976	0.94184	-0.2745	-1.1835	-2.7705	0	231	990	1
2026-02-11	16:36:37.950	4.41	4.375	-23.065	0.258152	0	0.94916	-0.27	-1.182	-2.7705	0	231	990	1
2026-02-11	16:36:37.970	2.625	4.655	-20.755	0.262788	0.008296	0.961604	-0.27	-1.1835	-2.7735	0	231	990	1
2026-02-11	16:36:37.990	0	4.2	-18.235	0.280112	0.00976	1.001132	-0.273	-1.188	-2.775	0	231	990	1
2026-02-11	16:36:38.010	-4.305	3.36	-14.91	0.271084	0.007564	1.007232	-0.2745	-1.188	-2.7765	0	211	1004	1
2026-02-11	16:36:38.030	-8.575	1.435	-11.69	0.243512	0.015616	0.970388	-0.273	-1.182	-2.7735	0	211	1004	1
2026-02-11	16:36:38.050	-10.43	-1.645	-9.94	0.2013	0.022448	0.921588	-0.2745	-1.1775	-2.7735	0	211	1004	1
2026-02-11	16:36:38.070	-9.66	-4.9	-10.15	0.171776	0.01952	0.9089	-0.276	-1.173	-2.772	0	211	1004	1
2026-02-11	16:36:38.090	-7.595	-7.14	-11.2	0.156404	0.025864	0.910852	-0.273	-1.17	-2.7705	0	211	1004	1
2026-02-11	16:36:38.110	-5.355	-8.19	-11.935	0.172996	0.027572	0.937204	-0.2715	-1.1775	-2.7765	0	211	1004	1
2026-02-11	16:36:38.130	-3.78	-7.98	-11.445	0.189588	0.021716	0.947452	-0.2715	-1.1745	-2.769	0	211	1004	1
2026-02-11	16:36:38.150	-2.31	-7.175	-9.555	0.186416	0.0122	0.950624	-0.282	-1.1655	-2.7645	0	211	1004	1
2026-02-11	16:36:38.170	-1.75	-6.265	-7.63	0.19886	0.005124	0.967216	-0.276	-1.173	-2.766	0	211	1004	1
2026-02-11	16:36:38.190	-1.61	-4.165	-4.69	0.204228	-0.000732	0.973316	-0.276	-1.176	-2.766	0	211	1004	1
2026-02-11	16:36:38.210	-1.61	-0.7	-0.63	0.21838	0.003172	0.983076	-0.2805	-1.173	-2.766	0	195	1008	1
2026-02-11	16:36:38.230	-2.24	2.275	4.305	0.198128	0.001708	0.9882	-0.279	-1.1715	-2.7645	0	195	1008	1
2026-02-11	16:36:38.250	-3.325	4.235	7.63	0.14274	0	0.995276	-0.2775	-1.1685	-2.766	0	195	1008	1
2026-02-11	16:36:38.270	-4.06	7	6.055	0.114924	0.010004	1.023336	-0.279	-1.17	-2.769	0	195	1008	1
2026-02-11	16:36:38.290	-4.48	10.15	3.115	0.116144	0.030256	1.043588	-0.2775	-1.1715	-2.769	0	195	1008	1
2026-02-11	16:36:38.310	-5.18	12.985	1.295	0.098332	0.052704	1.067988	-0.27	-1.167	-2.769	0	195	1008	1
2026-02-11	16:36:38.330	-6.79	14.7	0.245	0.083204	0.058072	1.09312	-0.2655	-1.167	-2.769	0	195	1008	1
2026-02-11	16:36:38.350	-9.03	14.735	-0.56	0.088572	0.068564	1.093608	-0.27	-1.167	-2.7705	0	195	1008	1
2026-02-11	16:36:38.370	-9.59	14.84	-1.68	0.099064	0.078568	1.092876	-0.2715	-1.1595	-2.7675	0	195	1008	1
2026-02-11	16:36:38.390	-8.785	17.71	-3.185	0.087596	0.094184	1.078236	-0.2685	-1.158	-2.766	0	195	1008	1
2026-02-11	16:36:38.410	-8.33	17.5	-5.39	0.066124	0.099796	1.067012	-0.2655	-1.1625	-2.7645	0	181	1012	1
2026-02-11	16:36:38.430	-8.785	15.435	-7.245	0.083204	0.077836	1.114348	-0.2595	-1.164	-2.76	0	181	1012	1
2026-02-11	16:36:38.450	-10.15	15.575	-7.105	0.105408	0.063684	1.12484	-0.2595	-1.161	-2.763	0	181	1012	1
2026-02-11	16:36:38.470	-11.025	16.765	-6.02	0.077104	0.062708	1.089216	-0.2565	-1.1625	-2.757	0	181	1012	1
2026-02-11	16:36:38.490	-9.87	17.605	-5.915	0.030012	0.047092	1.045296	-0.2505	-1.1535	-2.745	0	181	1012	1
2026-02-11	16:36:38.510	-7.35	18.34	-7.07	0.043676	0.03416	1.038708	-0.258	-1.146	-2.7555	0	181	1012	1
2026-02-11	16:36:38.530	-5.005	19.705	-8.085	0.091256	0.007808	1.047736	-0.2475	-1.1565	-2.754	0	181	1012	1
2026-02-11	16:36:38.550	-4.655	20.475	-7.735	0.117364	-0.011224	1.058228	-0.2475	-1.143	-2.745	0	181	1012	1
2026-02-11	16:36:38.570	-7.28	18.935	-6.09	0.160796	-0.03904	1.07116	-0.234	-1.146	-2.7495	0	181	1012	1
2026-02-11	16:36:38.590	-12.005	16.66	-3.465	0.207644	-0.075884	1.057252	-0.234	-1.1475	-2.7465	0	181	1012	1
2026-02-11	16:36:38.610	-16.66	16.275	-0.56	0.179828	-0.098088	0.957456	-0.2355	-1.1505	-2.7435	0	168	1022	1
2026-02-11	16:36:38.630	-17.465	16.52	0.385	0.155672	-0.111264	0.900116	-0.2325	-1.149	-2.7435	0	168	1022	1
2026-02-11	16:36:38.650	-16.065	16.415	0.49	0.119072	-0.138592	0.867176	-0.2265	-1.1415	-2.745	0	168	1022	1
2026-02-11	16:36:38.670	-14.805	15.75	0.42	0.09857599	-0.153232	0.883768	-0.2235	-1.134	-2.7435	0	168	1022	1
2026-02-11	16:36:38.690	-16.17	14.665	1.12	0.09272	-0.171288	0.925004	-0.2235	-1.1325	-2.7405	0	168	1022	1
2026-02-11	16:36:38.710	-19.67	12.775	2.415	0.066124	-0.178608	0.949404	-0.2235	-1.1325	-2.7405	0	168	1022	1
2026-02-11	16:36:38.730	-22.61	9.065	3.395	0.037576	-0.159088	0.920856	-0.225	-1.1295	-2.7405	0	168	1022	1
2026-02-11	16:36:38.750	-23.415	3.815	4.27	0.0488	-0.137616	0.923296	-0.222	-1.1235	-2.7375	0	168	1022	1
2026-02-11	16:36:38.770	-22.295	-2.52	5.565	0.089792	-0.132736	0.943548	-0.2295	-1.116	-2.7345	0	168	1022	1
2026-02-11	16:36:38.790	-19.915	-9.59	7.805	0.071492	-0.12322	0.919392	-0.219	-1.125	-2.742	0	168	1022	1
2026-02-11	16:36:38.810	-15.05	-17.22	9.345	0.026596	-0.111752	0.887916	-0.228	-1.1205	-2.736	0	159	1024	1
2026-02-11	16:36:38.830	-7.805	-23.03	9.345	0.014396	-0.108824	0.893284	-0.2145	-1.1145	-2.739	0	159	1024	1
2026-02-11	16:36:38.850	-0.525	-25.375	8.715	0.008296	-0.101748	0.897432	-0.2265	-1.1175	-2.745	0	159	1024	1
2026-02-11	16:36:38.870	5.74	-25.795	8.12	0.003172	-0.08784	0.897676	-0.234	-1.1115	-2.736	0	159	1024	1
2026-02-11	16:36:38.890	10.57	-25.06	7.84	0.026352	-0.086376	0.95648	-0.2295	-1.1175	-2.7495	0	159	1024	1
2026-02-11	16:36:38.910	12.04	-22.4	8.225	0.0427	-0.105408	1.018456	-0.2325	-1.1175	-2.745	0	159	1024	1
2026-02-11	16:36:38.930	9.555	-18.375	9.345	0.046116	-0.101748	1.057496	-0.234	-1.122	-2.736	0	159	1024	1
2026-02-11	16:36:38.950	5.635	-14.07	10.115	0.048068	-0.103456	1.047248	-0.2325	-1.1205	-2.7405	0	159	1024	1
2026-02-11	16:36:38.970	1.68	-8.89	8.61	-0.01098	-0.10004	1.001864	-0.2325	-1.1205	-2.7405	0	159	1024	1
2026-02-11	16:36:38.990	0.77	-6.16	5.425	-0.025864	-0.102968	1.000888	-0.2355	-1.1235	-2.742	0	159	1024	1
2026-02-11	16:36:39.010	0.77	-4.305	1.295	-0.028548	-0.099796	1.008452	-0.2385	-1.119	-2.742	0	152	1016	1
2026-02-11	16:36:39.030	0.175	-3.78	-2.555	-0.016104	-0.108336	1.045296	-0.2445	-1.1175	-2.742	0	152	1016	1
2026-02-11	16:36:39.050	-1.96	-2.52	-5.04	-0.002684	-0.097356	1.042856	-0.2445	-1.122	-2.745	0	152	1016	1
2026-02-11	16:36:39.070	-3.57	0.105	-6.685	-0.006588	-0.086376	1.012356	-0.243	-1.116	-2.748	0	152	1016	1
2026-02-11	16:36:39.090	-3.43	2.415	-8.085	-0.006832	-0.083204	0.98942	-0.246	-1.11	-2.7465	0	152	1016	1
2026-02-11	16:36:39.110	-2.31	2.8	-8.82	0.027328	-0.080032	0.983564	-0.24	-1.119	-2.736	0	152	1016	1
2026-02-11	16:36:39.130	0.84	2.695	-9.415	0.065392	-0.079788	1.000156	-0.2415	-1.1265	-2.7375	0	152	1016	1
2026-02-11	16:36:39.150	6.93	2.415	-10.78	0.070516	-0.078812	1.01504	-0.2445	-1.116	-2.7345	0	152	1016	1
2026-02-11	16:36:39.170	10.99	0.14	-12.075	0.061488	-0.093208	0.998204	-0.246	-1.1205	-2.73	0	152	1016	1
2026-02-11	16:36:39.190	13.125	-0.21	-12.705	0.042944	-0.089304	0.995764	-0.2445	-1.116	-2.745	0	152	1016	1
2026-02-11	16:36:39.210	14.07	1.015	-12.425	0.027572	-0.08052	1.0065	-0.2445	-1.1295	-2.736	0	145	1013	1
2026-02-11	16:36:39.230	13.195	2.24	-11.2	0.015616	-0.07686	1.025288	-0.24	-1.1265	-2.748	0	145	1013	1
2026-02-11	16:36:39.250	11.515	3.01	-9.94	0.006588	-0.08295999	1.057008	-0.243	-1.1235	-2.7435	0	145	1013	1
2026-02-11	16:36:39.270	10.5	2.975	-9.59	0.022936	-0.077836	1.063108	-0.2475	-1.1235	-2.7435	0	145	1013	1
2026-02-11	16:36:39.290	11.13	1.89	-9.765	0.032696	-0.068076	1.053592	-0.243	-1.128	-2.745	0	145	1013	1
2026-02-11	16:36:39.310	13.405	0.35	-10.64	0.051484	-0.057828	1.031632	-0.2385	-1.134	-2.7435	0	145	1013	1
2026-02-11	16:36:39.330	17.08	0.21	-12.32	0.08295999	-0.04758	1.027972	-0.24	-1.131	-2.745	0	145	1013	1
2026-02-11	16:36:39.350	21.035	2.1	-13.86	0.114192	-0.048068	1.016992	-0.2445	-1.1295	-2.7435	0	145	1013	1
2026-02-11	16:36:39.370	23.8	4.935	-14.665	0.126636	-0.033184	1.011136	-0.246	-1.137	-2.742	0	145	1013	1
2026-02-11	16:36:39.390	25.165	8.12	-15.085	0.155916	-0.012688	1.0126	-0.243	-1.14	-2.7465	0	145	1013	1
2026-02-11	16:36:39.410	24.255	11.2	-14.77	0.197884	-0.001708	1.040416	-0.243	-1.137	-2.7435	0	138	1016	1
2026-02-11	16:36:39.430	20.37	13.475	-13.44	0.231068	0.010004	1.075796	-0.24	-1.1385	-2.7405	0	138	1016	1
2026-02-11	16:36:39.450	13.965	16.24	-11.585	0.244488	0.025132	1.086044	-0.234	-1.1415	-2.739	0	138	1016	1
2026-02-11	16:36:39.470	6.545	18.55	-9.94	0.2379	0.033916	1.060668	-0.231	-1.1445	-2.7375	0	138	1016	1
2026-02-11	16:36:39.490	0.035	18.795	-9.345	0.208376	0.041724	1.005524	-0.2325	-1.149	-2.742	0	138	1016	1
2026-02-11	16:36:39.510	-4.27	13.965	-11.55	0.165676	0.047824	0.938668	-0.231	-1.149	-2.7435	0	138	1016	1
2026-02-11	16:36:39.530	-3.745	7.56	-14.035	0.164456	0.040504	0.931348	-0.234	-1.146	-2.7315	0	138	1016	1
2026-02-11	16:36:39.550	-2.765	1.295	-15.505	0.166408	0.033428	0.936228	-0.234	-1.143	-2.736	0	138	1016	1
2026-02-11	16:36:39.570	-2.1	-3.64	-15.47	0.15128	0.030744	0.937692	-0.2295	-1.146	-2.7345	0	138	1016	1
2026-02-11	16:36:39.590	-1.435	-8.12	-14.21	0.127612	0.030988	0.951112	-0.231	-1.143	-2.7345	0	138	1016	1
2026-02-11	16:36:39.610	-0.035	-12.355	-12.53	0.112972	0.028304	0.961116	-0.2325	-1.14	-2.742	0	132	1021	1
2026-02-11	16:36:39.630	1.26	-15.4	-10.92	0.104676	0.020984	0.959408	-0.231	-1.14	-2.742	0	132	1021	1
2026-02-11	16:36:39.650	2.03	-17.01	-9.555	0.099796	0.02318	0.958188	-0.231	-1.1415	-2.739	0	132	1021	1
2026-02-11	16:36:39.670	2.94	-17.99	-8.295	0.10492	0.022448	0.971852	-0.24	-1.14	-2.745	0	132	1021	1
2026-02-11	16:36:39.690	3.675	-18.27	-6.3	0.12444	0.016836	0.992836	-0.246	-1.14	-2.7435	0	132	1021	1
2026-02-11	16:36:39.710	3.605	-17.5	-3.465	0.149816	0.011712	1.004548	-0.2445	-1.14	-2.739	0	132	1021	1
2026-02-11	16:36:39.730	3.29	-15.435	0	0.186172	0.009272	1.021872	-0.2505	-1.134	-2.745	0	132	1021	1
2026-02-11	16:36:39.750	3.045	-12.18	3.5	0.20008	0.009272	1.031144	-0.255	-1.1355	-2.7465	0	132	1021	1
2026-02-11	16:36:39.770	2.415	-9.59	6.51	0.174216	0.016348	1.005768	-0.258	-1.143	-2.7435	0	132	1021	1
2026-02-11	16:36:39.790	2.485	-8.96	7.42	0.170312	0.020496	1.011624	-0.2595	-1.1475	-2.745	0	132	1021	1
2026-02-11	16:36:39.810	2.1	-8.855	7.175	0.182512	0.030012	1.034072	-0.252	-1.1445	-2.745	0	126	1022	1
2026-02-11	16:36:39.830	1.12	-7.77	6.755	0.173972	0.041968	1.03578	-0.255	-1.1355	-2.7405	0	126	1022	1
2026-02-11	16:36:39.850	0.105	-6.58	6.195	0.145668	0.041968	1.01382	-0.252	-1.1415	-2.751	0	126	1022	1
2026-02-11	16:36:39.870	-1.085	-6.475	5.6	0.130052	0.04026	1.016992	-0.2565	-1.1475	-2.745	0	126	1022	1
2026-02-11	16:36:39.890	-2.345	-6.475	5.425	0.132248	0.04392	1.009672	-0.2595	-1.146	-2.7435	0	126	1022	1
2026-02-11	16:36:39.910	-3.045	-5.915	5.845	0.118096	0.05246	0.993324	-0.2595	-1.1475	-2.739	0	126	1022	1
2026-02-11	16:36:39.930	-2.94	-5.67	6.93	0.109068	0.045628	0.992836	-0.2565	-1.152	-2.7525	0	126	1022	1
2026-02-11	16:36:39.950	-2.73	-5.495	8.855	0.112972	0.037576	1.002108	-0.2685	-1.1475	-2.748	0	126	1022	1
2026-02-11	16:36:39.970	-2.17	-4.62	10.78	0.113948	0.032696	0.998204	-0.2685	-1.14	-2.7435	0	126	1022	1
2026-02-11	16:36:39.990	-0.63	-3.605	11.865	0.1037	0.022204	0.990152	-0.264	-1.1445	-2.742	0	126	1022	1
2026-02-11	16:36:40.010	1.435	-4.025	12.565	0.120536	0.027328	1.003572	-0.264	-1.1445	-2.742	0	119	1023	1
2026-02-11	16:36:40.030	2.065	-4.445	13.02	0.153476	0.024156	1.020652	-0.2595	-1.1445	-2.7525	0	119	1023	1
2026-02-11	16:36:40.050	2.275	-3.99	13.615	0.170556	0.012932	1.019432	-0.2625	-1.1475	-2.745	0	119	1023	1
2026-02-11	16:36:40.070	2.8	-3.36	12.95	0.144448	0.0122	0.991128	-0.2595	-1.146	-2.7465	0	119	1023	1
2026-02-11	16:36:40.090	3.745	-3.43	11.515	0.130052	0.0061	0.988932	-0.2565	-1.1445	-2.748	0	119	1023	1
2026-02-11	16:36:40.110	3.85	-3.22	10.045	0.117852	0.010004	1.005036	-0.258	-1.1565	-2.742	0	119	1023	1
2026-02-11	16:36:40.130	3.22	-1.435	8.89	0.1342	0.01464	1.01138	-0.261	-1.1415	-2.742	0	119	1023	1
2026-02-11	16:36:40.150	2.205	1.155	8.47	0.13054	0.013176	1.019432	-0.267	-1.149	-2.7525	0	119	1023	1
2026-02-11	16:36:40.170	0.49	3.36	8.47	0.120536	0.015372	1.020408	-0.2595	-1.149	-2.751	0	119	1023	1
2026-02-11	16:36:40.190	-1.68	4.62	8.225	0.103212	0.014152	1.012356	-0.2625	-1.158	-2.7495	0	119	1023	1
2026-02-11	16:36:40.210	-3.57	4.935	7.63	0.107604	0.015128	1.003084	-0.261	-1.155	-2.745	0	112	1023	1
2026-02-11	16:36:40.230	-4.34	4.55	7.035	0.117364	0.015128	0.994788	-0.27	-1.1535	-2.733	0	112	1023	1
2026-02-11	16:36:40.250	-4.34	3.535	6.72	0.103456	0.008052	0.989176	-0.2535	-1.1505	-2.754	0	112	1023	1
2026-02-11	16:36:40.270	-3.885	2.24	6.615	0.098332	0.004148	0.996496	-0.252	-1.158	-2.7465	0	112	1023	1
2026-02-11	16:36:40.290	-3.57	1.295	6.965	0.101992	0.004148	0.999668	-0.258	-1.1505	-2.7585	0	112	1023	1
2026-02-11	16:36:40.310	-2.8	0.14	7.735	0.100284	0.011712	0.994544	-0.2535	-1.152	-2.742	0	112	1023	1
2026-02-11	16:36:40.330	-1.645	-1.47	8.155	0.102236	0.012444	1.00406	-0.2535	-1.152	-2.742	0	112	1023	1
2026-02-11	16:36:40.350	-0.77	-2.17	8.19	0.094428	0.011712	0.993324	-0.2535	-1.1505	-2.739	0	112	1023	1
2026-02-11	16:36:40.370	0.28	-2.065	7.595	0.075396	0.01098	0.992836	-0.2535	-1.1505	-2.739	0	112	1023	1
2026-02-11	16:36:40.390	1.085	-1.68	6.37	0.07124799	0.010248	0.993324	-0.2505	-1.1475	-2.742	0	112	1023	1
2026-02-11	16:36:40.410	1.225	-1.61	5.425	0.088572	0.007808	0.998204	-0.2595	-1.1505	-2.751	0	103	1024	1
2026-02-11	16:36:40.430	0.665	-1.82	4.97	0.092476	0.010492	0.98698	-0.2595	-1.155	-2.751	0	103	1024	1
2026-02-11	16:36:40.450	-0.385	-2.03	4.55	0.088572	0.009272	1.003084	-0.255	-1.1535	-2.742	0	103	1024	1
2026-02-11	16:36:40.470	-1.855	-1.785	3.78	0.087596	0.000732	1.01992	-0.2595	-1.1505	-2.7435	0	103	1024	1
2026-02-11	16:36:40.490	-3.22	-0.91	3.15	0.10004	-0.013664	1.020408	-0.261	-1.1475	-2.7465	0	103	1024	1
2026-02-11	16:36:40.510	-4.235	0.07	3.15	0.09028	-0.020008	1.001132	-0.2595	-1.149	-2.7465	0	103	1024	1
2026-02-11	16:36:40.530	-4.2	0.315	3.325	0.09028	-0.0305	0.9882	-0.2565	-1.149	-2.7465	0	103	1024	1
2026-02-11	16:36:40.550	-3.22	0.14	3.325	0.07515199	-0.04026	0.986248	-0.2565	-1.1475	-2.748	0	103	1024	1
2026-02-11	16:36:40.570	-1.225	0.315	3.675	0.079544	-0.054656	0.995764	-0.2565	-1.149	-2.7495	0	103	1024	1
2026-02-11	16:36:40.590	2.065	1.365	5.635	0.080032	-0.047336	0.99552	-0.258	-1.149	-2.7495	0	103	1024	1
2026-02-11	16:36:40.610	1.89	1.12	7.77	0.07442	-0.048312	1.012844	-0.258	-1.1505	-2.748	0	95	1023	1
2026-02-11	16:36:40.630	-0.14	1.855	9.87	0.076372	-0.047824	1.004792	-0.255	-1.155	-2.745	0	95	1023	1
2026-02-11	16:36:40.650	-2.03	2.975	11.095	0.062464	-0.030012	0.973072	-0.2505	-1.1535	-2.748	0	95	1023	1
2026-02-11	16:36:40.670	-2.835	2.905	11.305	0.039772	-0.02684	0.931104	-0.2505	-1.1505	-2.748	0	95	1023	1
2026-02-11	16:36:40.690	-3.395	1.575	10.71	0.039772	-0.012444	0.915488	-0.2565	-1.1535	-2.7495	0	95	1023	1
2026-02-11	16:36:40.710	-4.9	-0.245	9.8	0.06222	0.004148	0.923296	-0.258	-1.1535	-2.751	0	95	1023	1
2026-02-11	16:36:40.730	-7.56	-2.835	8.47	0.07442	0.022448	0.919148	-0.2505	-1.1505	-2.7495	0	95	1023	1
2026-02-11	16:36:40.750	-10.745	-5.53	6.265	0.073932	0.046116	0.9272	-0.2475	-1.1565	-2.7525	0	95	1023	1
2026-02-11	16:36:40.770	-13.44	-8.225	2.94	0.08418	0.049532	0.937448	-0.255	-1.155	-2.751	0	95	1023	1
2026-02-11	16:36:40.790	-16.485	-11.235	-0.805	0.089792	0.045384	0.94672	-0.2565	-1.1505	-2.751	0	95	1023	1
2026-02-11	16:36:40.810	-19.705	-14.21	-4.445	0.090524	0.07076	0.909144	-0.2565	-1.1475	-2.7525	0	87	1018	1
2026-02-11	16:36:40.830	-20.125	-17.045	-8.26	0.08052	0.099796	0.868396	-0.255	-1.1475	-2.748	0	87	1018	1
2026-02-11	16:36:40.850	-17.535	-20.965	-13.58	0.078568	0.106628	0.907436	-0.2565	-1.1445	-2.7435	0	87	1018	1
2026-02-11	16:36:40.870	-16.275	-23.695	-18.095	0.103212	0.119072	0.976732	-0.258	-1.14	-2.7435	0	87	1018	1
2026-02-11	16:36:40.890	-17.15	-24.29	-20.23	0.140056	0.13054	1.024556	-0.2685	-1.131	-2.7315	0	87	1018	1
2026-02-11	16:36:40.910	-19.565	-25.725	-20.755	0.172508	0.149572	1.059936	-0.264	-1.137	-2.7465	0	87	1018	1
2026-02-11	16:36:40.930	-23.73	-28.77	-19.67	0.183244	0.147132	1.076284	-0.2715	-1.1325	-2.745	0	87	1018	1
2026-02-11	16:36:40.950	-28.385	-32.515	-18.095	0.179096	0.141032	1.043344	-0.282	-1.1295	-2.751	0	87	1018	1
2026-02-11	16:36:40.970	-30.59	-35.875	-17.43	0.16958	0.142252	0.972584	-0.2745	-1.116	-2.7435	0	87	1018	1
2026-02-11	16:36:40.990	-28.14	-39.515	-19.005	0.171776	0.135664	0.983808	-0.288	-1.116	-2.7375	0	87	1018	1
2026-02-11	16:36:41.010	-23.94	-41.51	-22.05	0.149084	0.12078	0.974536	-0.3045	-1.104	-2.7345	0	81	1011	1
2026-02-11	16:36:41.030	-19.53	-41.02	-26.25	0.142984	0.107116	0.988932	-0.3105	-1.1055	-2.7405	0	81	1011	1
2026-02-11	16:36:41.050	-15.575	-37.765	-30.065	0.16226	0.095892	1.00162	-0.309	-1.098	-2.7435	0	81	1011	1
2026-02-11	16:36:41.070	-12.075	-33.18	-32.41	0.192516	0.07808	1.010892	-0.3135	-1.0965	-2.739	0	81	1011	1
2026-02-11	16:36:41.090	-9.52	-28.98	-32.585	0.234972	0.055632	1.037244	-0.3195	-1.0965	-2.7435	0	81	1011	1
2026-02-11	16:36:41.110	-8.855	-25.305	-30.59	0.267424	0.027084	1.089704	-0.321	-1.095	-2.742	0	81	1011	1
2026-02-11	16:36:41.130	-11.34	-17.78	-25.41	0.266936	0.003172	1.107272	-0.3225	-1.0935	-2.7405	0	81	1011	1
2026-02-11	16:36:41.150	-12.215	-12.845	-22.82	0.265472	-0.014396	1.104832	-0.3225	-1.0935	-2.7405	0	81	1011	1
2026-02-11	16:36:41.170	-13.055	-9.345	-21.105	0.255468	-0.040504	1.12362	-0.3405	-1.0845	-2.739	0	81	1011	1
2026-02-11	16:36:41.190	-14.28	-6.23	-19.285	0.230824	-0.09516	1.158512	-0.3405	-1.077	-2.7345	0	81	1011	1
2026-02-11	16:36:41.210	-14.175	-1.61	-16.17	0.241072	-0.125172	1.189988	-0.3375	-1.074	-2.736	0	79	1014	1
2026-02-11	16:36:41.230	-10.745	5.46	-13.37	0.25986	-0.128344	1.185108	-0.3375	-1.0755	-2.7375	0	79	1014	1
2026-02-11	16:36:41.250	-5.355	13.44	-11.585	0.27084	-0.137128	1.179008	-0.351	-1.071	-2.7315	0	79	1014	1
2026-02-11	16:36:41.270	-1.435	19.11	-9.415	0.243024	-0.187636	1.18218	-0.3465	-1.0665	-2.73	0	79	1014	1
2026-02-11	16:36:41.290	-0.7	23.17	-5.495	0.240828	-0.178852	1.136552	-0.3435	-1.071	-2.7285	0	79	1014	1
2026-02-11	16:36:41.310	0.665	28.455	-1.19	0.27816	-0.166896	1.088728	-0.3435	-1.0725	-2.733	0	79	1014	1
2026-02-11	16:36:41.330	3.29	33.25	2.73	0.304268	-0.16348	1.067988	-0.336	-1.068	-2.73	0	79	1014	1
2026-02-11	16:36:41.350	4.725	34.895	6.72	0.314028	-0.170068	1.084336	-0.3315	-1.062	-2.727	0	79	1014	1
2026-02-11	16:36:41.370	3.185	35.28	10.36	0.348676	-0.18788	1.131916	-0.333	-1.074	-2.727	0	79	1014	1
2026-02-11	16:36:41.390	-1.26	38.01	13.51	0.34892	-0.191784	1.072624	-0.3285	-1.068	-2.7255	0	79	1014	1
2026-02-11	16:36:41.410	-3.815	39.83	14.875	0.304268	-0.206912	0.965996	-0.3285	-1.068	-2.7255	0	82	1033	1
2026-02-11	16:36:41.430	-4.865	35.84	15.96	0.279868	-0.211304	0.921832	-0.315	-1.0695	-2.7255	0	82	1033	1
2026-02-11	16:36:41.450	-6.16	28.14	18.2	0.289872	-0.231556	0.93208	-0.3015	-1.0695	-2.7255	0	82	1033	1
2026-02-11	16:36:41.470	-7.35	21.98	21.21	0.275476	-0.225944	0.943792	-0.3	-1.068	-2.724	0	82	1033	1
2026-02-11	16:36:41.490	-7.21	19.705	24.08	0.249856	-0.203984	0.92598	-0.2985	-1.065	-2.7285	0	82	1033	1
2026-02-11	16:36:41.510	-5.495	18.795	25.76	0.194224	-0.172264	0.88084	-0.2955	-1.068	-2.733	0	82	1033	1
2026-02-11	16:36:41.530	-3.22	15.785	25.83	0.140056	-0.162016	0.854488	-0.2895	-1.065	-2.73	0	82	1033	1
2026-02-11	16:36:41.550	-1.855	11.2	24.71	0.11102	-0.159332	0.853512	-0.288	-1.0635	-2.7285	0	82	1033	1
2026-02-11	16:36:41.570	-1.365	7.035	22.89	0.100284	-0.161772	0.837896	-0.285	-1.068	-2.7225	0	82	1033	1
2026-02-11	16:36:41.590	-1.05	3.99	21.35	0.0915	-0.160552	0.817888	-0.276	-1.065	-2.718	0	82	1033	1
2026-02-11	16:36:41.610	-0.525	2.03	20.93	0.085888	-0.157624	0.829356	-0.282	-1.068	-2.733	0	88	1039	1
2026-02-11	16:36:41.630	-0.7	0.455	21.21	0.107116	-0.1525	0.860344	-0.285	-1.068	-2.7195	0	88	1039	1
2026-02-11	16:36:41.650	-1.995	-0.14	21.525	0.114924	-0.140788	0.871568	-0.276	-1.0695	-2.727	0	88	1039	1
2026-02-11	16:36:41.670	-3.36	-1.435	22.68	0.097112	-0.113948	0.851804	-0.2865	-1.0695	-2.7315	0	88	1039	1
2026-02-11	16:36:41.690	-3.185	-4.2	23.415	0.079544	-0.112728	0.874008	-0.282	-1.0665	-2.7315	0	88	1039	1
2026-02-11	16:36:41.710	-3.5	-6.755	22.995	0.056364	-0.106872	0.92842	-0.2775	-1.0665	-2.727	0	88	1039	1
2026-02-11	16:36:41.730	-4.305	-6.3	21.245	0.038552	-0.083692	0.949892	-0.279	-1.0695	-2.7285	0	88	1039	1
2026-02-11	16:36:41.750	-4.305	-4.445	18.48	0.025132	-0.063196	0.956236	-0.2805	-1.0725	-2.727	0	88	1039	1
2026-02-11	16:36:41.770	-3.71	-4.445	15.855	0.02684	-0.061732	0.98576	-0.2835	-1.077	-2.724	0	88	1039	1
2026-02-11	16:36:41.790	-2.94	-5.425	13.58	0.02928	-0.055876	1.00894	-0.2835	-1.0755	-2.73	0	88	1039	1
2026-02-11	16:36:41.810	-0.875	-5.355	10.29	0.020008	-0.047092	1.030656	-0.279	-1.0725	-2.7285	0	98	1025	1
2026-02-11	16:36:41.830	2.52	-4.13	5.145	0.012444	-0.014884	1.040172	-0.279	-1.0695	-2.7255	0	98	1025	1
2026-02-11	16:36:41.850	6.195	-3.115	-1.715	0.014396	-0.022936	1.058472	-0.282	-1.0695	-2.7255	0	98	1025	1
2026-02-11	16:36:41.870	7.875	-3.99	-7.735	0.033428	-0.034404	1.09556	-0.2865	-1.0725	-2.7255	0	98	1025	1
2026-02-11	16:36:41.890	7.07	-5.39	-11.62	0.06734399	-0.028304	1.119228	-0.285	-1.0755	-2.73	0	98	1025	1
2026-02-11	16:36:41.910	6.265	-5.355	-14.455	0.100772	-0.03172	1.119472	-0.285	-1.0755	-2.7345	0	98	1025	1
2026-02-11	16:36:41.930	7.35	-4.83	-18.655	0.136396	-0.0549	1.103368	-0.288	-1.074	-2.7315	0	98	1025	1
2026-02-11	16:36:41.950	8.96	-6.335	-23.485	0.141276	-0.082228	1.079944	-0.2895	-1.0725	-2.7315	0	98	1025	1
2026-02-11	16:36:41.970	9.835	-10.29	-27.615	0.173728	-0.095892	1.062376	-0.303	-1.074	-2.7315	0	98	1025	1
2026-02-11	16:36:41.990	11.06	-15.82	-31.185	0.2318	-0.105164	1.060912	-0.306	-1.0755	-2.7345	0	98	1025	1
2026-02-11	16:36:42.010	12.74	-21.245	-33.32	0.311588	-0.121268	1.116056	-0.3075	-1.077	-2.73	0	107	1017	1
2026-02-11	16:36:42.030	13.755	-23.38	-33.81	0.36112	-0.138104	1.142896	-0.3165	-1.0725	-2.7315	0	107	1017	1
2026-02-11	16:36:42.050	14.595	-22.295	-33.775	0.36844	-0.136884	1.102636	-0.3135	-1.077	-2.739	0	107	1017	1
2026-02-11	16:36:42.070	17.325	-20.895	-34.755	0.346236	-0.122244	1.036024	-0.3165	-1.0845	-2.73	0	107	1017	1
2026-02-11	16:36:42.090	21.77	-20.02	-37.66	0.321104	-0.108336	0.997472	-0.327	-1.0845	-2.7315	0	107	1017	1
2026-02-11	16:36:42.110	26.145	-19.04	-41.65	0.354044	-0.09028	1.017724	-0.327	-1.086	-2.736	0	107	1017	1
2026-02-11	16:36:42.130	27.615	-15.715	-45.01	0.3904	-0.066124	1.01992	-0.336	-1.0875	-2.7405	0	107	1017	1
2026-02-11	16:36:42.150	25.865	-10.115	-47.11	0.41358	-0.031232	1.014308	-0.342	-1.0875	-2.7435	0	107	1017	1
2026-02-11	16:36:42.170	21.91	-4.025	-47.705	0.415288	-0.00732	1.040172	-0.339	-1.089	-2.742	0	107	1017	1
2026-02-11	16:36:42.190	15.61	1.785	-47.04	0.404552	0.00366	1.051884	-0.345	-1.095	-2.742	0	107	1017	1
2026-02-11	16:36:42.210	5.39	9.485	-45.78	0.362828	0.018056	1.032364	-0.348	-1.0995	-2.745	0	116	1024	1
2026-02-11	16:36:42.230	-1.47	12.705	-44.695	0.334524	0.017324	0.99186	-0.348	-1.0995	-2.745	0	116	1024	1
2026-02-11	16:36:42.250	-8.435	12.81	-43.295	0.310124	0.02074	0.981124	-0.354	-1.0995	-2.754	0	116	1024	1
2026-02-11	16:36:42.270	-14.735	12.18	-41.965	0.300364	0.023668	0.979172	-0.351	-1.1055	-2.7495	0	116	1024	1
2026-02-11	16:36:42.290	-19.775	12.145	-40.39	0.284992	0.029768	0.97844	-0.3495	-1.101	-2.748	0	116	1024	1
2026-02-11	16:36:42.310	-23.73	11.83	-38.465	0.253516	0.02928	0.948428	-0.354	-1.101	-2.7435	0	116	1024	1
2026-02-11	16:36:42.330	-25.76	9.17	-37.03	0.218868	0.029036	0.90524	-0.351	-1.0935	-2.745	0	116	1024	1
2026-02-11	16:36:42.350	-25.2	5.46	-37.415	0.209352	0.010248	0.872544	-0.357	-1.098	-2.754	0	116	1024	1
2026-02-11	16:36:42.370	-23.345	2.975	-38.92	0.188124	-0.011224	0.831308	-0.36	-1.092	-2.7495	0	116	1024	1
2026-02-11	16:36:42.390	-20.335	0.49	-40.39	0.177144	-0.023668	0.78568	-0.36	-1.095	-2.754	0	116	1024	1
2026-02-11	16:36:42.410	-16.17	-1.68	-41.475	0.18788	-0.024644	0.77592	-0.3735	-1.089	-2.7465	0	124	1026	1
2026-02-11	16:36:42.430	-12.845	-2.275	-41.195	0.20252	-0.039528	0.8052	-0.363	-1.086	-2.7495	0	124	1026	1
2026-02-11	16:36:42.450	-12.11	-3.115	-38.045	0.2196	-0.059536	0.853512	-0.369	-1.0755	-2.739	0	124	1026	1
2026-02-11	16:36:42.470	-14.07	-3.78	-31.115	0.221064	-0.076372	0.8906	-0.366	-1.083	-2.7465	0	124	1026	1
2026-02-11	16:36:42.490	-14.91	-2.52	-24.395	0.217404	-0.083692	0.92598	-0.366	-1.083	-2.7465	0	124	1026	1
2026-02-11	16:36:42.510	-13.86	-0.63	-20.125	0.230092	-0.091012	0.975024	-0.3705	-1.0785	-2.742	0	124	1026	1
2026-02-11	16:36:42.530	-12.81	-0.91	-15.785	0.236192	-0.103944	1.020652	-0.375	-1.071	-2.7435	0	124	1026	1
2026-02-11	16:36:42.550	-11.76	-3.5	-10.955	0.278648	-0.114192	1.086288	-0.3735	-1.0665	-2.7465	0	124	1026	1
2026-02-11	16:36:42.570	-10.885	-6.265	-5.46	0.32208	-0.135176	1.166076	-0.378	-1.068	-2.7435	0	124	1026	1
2026-02-11	16:36:42.590	-10.885	-6.72	0.84	0.324764	-0.1586	1.222928	-0.384	-1.071	-2.7405	0	124	1026	1
2026-02-11	16:36:42.610	-11.69	-5.495	7.875	0.320128	-0.181292	1.247816	-0.3825	-1.0635	-2.7405	0	130	1018	1
2026-02-11	16:36:42.630	-12.74	-3.85	14.49	0.338184	-0.204472	1.231712	-0.381	-1.0665	-2.7375	0	130	1018	1
2026-02-11	16:36:42.650	-12.74	-3.15	20.755	0.368684	-0.243512	1.187792	-0.384	-1.062	-2.736	0	130	1018	1
2026-02-11	16:36:42.670	-11.235	-2.66	27.335	0.339892	-0.2562	1.128744	-0.3825	-1.059	-2.7405	0	130	1018	1
2026-02-11	16:36:42.690	-9.1	-2.38	33.985	0.30256	-0.238388	1.117276	-0.372	-1.0605	-2.727	0	130	1018	1
2026-02-11	16:36:42.710	-8.505	-2.905	40.285	0.343308	-0.2196	1.168028	-0.3765	-1.0605	-2.7345	0	130	1018	1
2026-02-11	16:36:42.730	-10.08	-3.675	46.97	0.381128	-0.222772	1.17486	-0.3675	-1.0605	-2.73	0	130	1018	1
2026-02-11	16:36:42.750	-8.365	-4.025	53.55	0.314028	-0.229848	1.043832	-0.363	-1.0575	-2.733	0	130	1018	1
2026-02-11	16:36:42.770	-1.295	-4.445	51.45	0.263764	-0.249124	0.929884	-0.3645	-1.0575	-2.7345	0	130	1018	1
2026-02-11	16:36:42.790	8.61	-4.76	46.375	0.23302	-0.255468	0.833016	-0.3645	-1.0605	-2.742	0	130	1018	1
2026-02-11	16:36:42.810	18.025	-5.25	42.49	0.2318	-0.24766	0.8174	-0.363	-1.0605	-2.7405	0	135	1024	1
2026-02-11	16:36:42.830	23.31	-6.37	41.93	0.25986	-0.256932	0.884744	-0.357	-1.059	-2.736	0	135	1024	1
2026-02-11	16:36:42.850	22.785	-5.46	43.68	0.268156	-0.258884	0.965264	-0.36	-1.0635	-2.7405	0	135	1024	1
2026-02-11	16:36:42.870	18.235	-0.91	45.745	0.25742	-0.252784	0.996252	-0.363	-1.0695	-2.7435	0	135	1024	1
2026-02-11	16:36:42.890	12.46	3.745	47.46	0.232044	-0.24644	0.967948	-0.3525	-1.074	-2.745	0	135	1024	1
2026-02-11	16:36:42.910	7.315	4.935	48.65	0.216428	-0.24278	0.937692	-0.345	-1.0815	-2.751	0	135	1024	1
2026-02-11	16:36:42.930	3.57	3.78	49.035	0.199348	-0.233264	0.898408	-0.348	-1.083	-2.7495	0	135	1024	1
2026-02-11	16:36:42.950	1.61	1.365	49.245	0.164212	-0.216428	0.857172	-0.3435	-1.083	-2.745	0	135	1024	1
2026-02-11	16:36:42.970	1.61	-1.995	49.455	0.13786	-0.203984	0.846192	-0.339	-1.0875	-2.7435	0	135	1024	1
2026-02-11	16:36:42.990	2.415	-4.725	49.175	0.13542	-0.17568	0.872788	-0.3465	-1.0905	-2.7495	0	135	1024	1
2026-02-11	16:36:43.010	3.78	-4.55	48.055	0.134688	-0.151768	0.866932	-0.3435	-1.089	-2.757	0	140	1023	1
2026-02-11	16:36:43.030	6.475	-2.17	47.11	0.10736	-0.110288	0.822768	-0.3375	-1.0875	-2.7585	0	140	1023	1
2026-02-11	16:36:43.050	9.415	-0.07	46.515	0.088328	-0.098088	0.796904	-0.33	-1.0935	-2.7525	0	140	1023	1
2026-02-11	16:36:43.070	10.99	1.54	45.85	0.084912	-0.09882	0.784704	-0.3345	-1.0905	-2.7465	0	140	1023	1
2026-02-11	16:36:43.090	10.955	3.185	45.43	0.08662	-0.082472	0.783728	-0.336	-1.098	-2.757	0	140	1023	1
2026-02-11	16:36:43.110	10.325	5.25	45.115	0.086132	-0.061976	0.806176	-0.333	-1.098	-2.754	0	140	1023	1
2026-02-11	16:36:43.130	9.205	7.21	45.115	0.10126	-0.0366	0.858392	-0.33	-1.101	-2.7525	0	140	1023	1
2026-02-11	16:36:43.150	6.58	8.82	45.465	0.11346	-0.027816	0.951356	-0.3255	-1.1055	-2.7525	0	140	1023	1
2026-02-11	16:36:43.170	2.275	11.06	45.15	0.097356	-0.016592	0.98576	-0.321	-1.1055	-2.7525	0	140	1023	1
2026-02-11	16:36:43.190	-1.085	13.09	42.77	0.049044	-0.004148	0.975268	-0.315	-1.1025	-2.754	0	140	1023	1
2026-02-11	16:36:43.210	-1.925	13.055	38.255	0.022692	0.000976	0.968436	-0.3105	-1.0995	-2.7585	0	145	1005	1
2026-02-11	16:36:43.230	-0.63	10.92	32.55	0.009028	0.011956	0.980636	-0.3135	-1.1025	-2.7555	0	145	1005	1
2026-02-11	16:36:43.250	2.485	8.12	26.25	0.009272	0.00976	1.029436	-0.306	-1.1055	-2.7465	0	145	1005	1
2026-02-11	16:36:43.270	6.02	5.95	19.6	0.02928	-0.005856	1.136064	-0.297	-1.1085	-2.754	0	145	1005	1
2026-02-11	16:36:43.290	5.74	3.745	13.055	0.134444	-0.049044	1.248304	-0.297	-1.1145	-2.76	0	145	1005	1
2026-02-11	16:36:43.310	2.73	1.61	8.785	0.121512	-0.05368	1.178276	-0.297	-1.1145	-2.76	0	145	1005	1
2026-02-11	16:36:43.330	4.095	-3.325	3.465	0.07198	-0.048312	1.087264	-0.303	-1.1055	-2.7555	0	145	1005	1
2026-02-11	16:36:43.350	9.1	-11.165	-4.445	0.079544	-0.040504	1.075064	-0.2955	-1.1145	-2.742	0	145	1005	1
2026-02-11	16:36:43.370	13.475	-18.06	-12.005	0.165188	-0.056364	1.10898	-0.303	-1.1205	-2.7555	0	145	1005	1
2026-02-11	16:36:43.390	15.575	-22.68	-16.695	0.265472	-0.081008	1.164124	-0.312	-1.116	-2.7555	0	145	1005	1
2026-02-11	16:36:43.410	15.855	-22.575	-19.005	0.32086	-0.104188	1.161928	-0.309	-1.1205	-2.757	0	149	999	1
2026-02-11	16:36:43.430	16.38	-17.64	-21.455	0.3172	-0.112484	1.074088	-0.309	-1.1175	-2.7615	0	149	999	1
2026-02-11	16:36:43.450	18.83	-12.25	-24.78	0.296216	-0.101992	0.99918	-0.315	-1.125	-2.76	0	149	999	1
2026-02-11	16:36:43.470	21.245	-8.54	-27.58	0.300364	-0.100284	0.988444	-0.3165	-1.122	-2.7555	0	149	999	1
2026-02-11	16:36:43.490	20.72	-5.495	-28.035	0.338916	-0.091012	1.015528	-0.321	-1.1295	-2.7585	0	149	999	1
2026-02-11	16:36:43.510	17.78	-2.73	-26.04	0.37454	-0.07564	1.050908	-0.3315	-1.137	-2.751	0	149	999	1
2026-02-11	16:36:43.530	13.405	1.54	-22.855	0.404064	-0.049532	1.09312	-0.3255	-1.1295	-2.766	0	149	999	1
2026-02-11	16:36:43.550	8.155	6.58	-19.39	0.394304	-0.044164	1.098244	-0.324	-1.137	-2.7585	0	149	999	1
2026-02-11	16:36:43.570	1.085	8.995	-15.19	0.321348	-0.038064	1.015284	-0.324	-1.137	-2.7585	0	149	999	1
2026-02-11	16:36:43.590	-1.19	6.44	-14.21	0.28426	-0.049044	0.962824	-0.324	-1.137	-2.7585	0	149	999	1
2026-02-11	16:36:43.610	-2.24	2.765	-13.965	0.243024	-0.0549	0.908168	-0.324	-1.137	-2.754	0	153	1009	1
2026-02-11	16:36:43.630	-2.1	-0.455	-13.265	0.2135	-0.05856	0.850828	-0.315	-1.1385	-2.757	0	153	1009	1
2026-02-11	16:36:43.650	-0.91	-3.465	-11.48	0.211792	-0.06344	0.836432	-0.318	-1.1415	-2.7555	0	153	1009	1
2026-02-11	16:36:43.670	0.21	-4.55	-8.715	0.207644	-0.06832	0.842776	-0.315	-1.134	-2.7615	0	153	1009	1
2026-02-11	16:36:43.690	1.19	-3.115	-5.6	0.172996	-0.06466	0.805688	-0.327	-1.1415	-2.772	0	153	1009	1
2026-02-11	16:36:43.710	2.73	-0.98	-2.94	0.142496	-0.060024	0.785192	-0.3285	-1.146	-2.7765	0	153	1009	1
2026-02-11	16:36:43.730	4.095	0.315	-0.525	0.142252	-0.06832	0.812032	-0.333	-1.1355	-2.7795	0	153	1009	1
2026-02-11	16:36:43.750	4.165	1.4	2.66	0.160796	-0.066612	0.852048	-0.3345	-1.143	-2.7735	0	153	1009	1
2026-02-11	16:36:43.770	3.255	2.975	6.3	0.178364	-0.0671	0.880596	-0.333	-1.143	-2.772	0	153	1009	1
2026-02-11	16:36:43.790	2.205	4.725	10.15	0.193492	-0.065148	0.906216	-0.336	-1.146	-2.7765	0	153	1009	1
2026-02-11	16:36:43.810	1.47	6.37	14.21	0.196664	-0.060268	0.930616	-0.327	-1.1415	-2.775	0	156	1009	1
2026-02-11	16:36:43.830	1.54	8.61	19.775	0.217648	-0.080276	1.00284	-0.327	-1.146	-2.772	0	156	1009	1
2026-02-11	16:36:43.850	0.945	10.745	26.32	0.241072	-0.10004	1.07482	-0.327	-1.146	-2.772	0	156	1009	1
2026-02-11	16:36:43.870	0.245	12.46	31.85	0.244488	-0.10126	1.077748	-0.3255	-1.1475	-2.7705	0	156	1009	1
2026-02-11	16:36:43.890	1.435	13.3	36.54	0.251076	-0.098088	1.08458	-0.3225	-1.1475	-2.775	0	156	1009	1
2026-02-11	16:36:43.910	3.395	13.51	40.285	0.265472	-0.104188	1.118008	-0.3195	-1.1475	-2.775	0	156	1009	1
2026-02-11	16:36:43.930	4.27	13.405	43.96	0.2928	-0.112972	1.147776	-0.3135	-1.152	-2.775	0	156	1009	1
2026-02-11	16:36:43.950	3.29	12.215	49.105	0.286944	-0.107604	1.143628	-0.309	-1.1505	-2.7765	0	156	1009	1
2026-02-11	16:36:43.970	1.89	9.73	55.125	0.268156	-0.090036	1.138992	-0.3045	-1.1475	-2.7735	0	156	1009	1
2026-02-11	16:36:43.990	1.295	7.42	60.795	0.273524	-0.081984	1.159	-0.3	-1.149	-2.772	0	156	1009	1
2026-02-11	16:36:44.010	1.12	6.125	66.85	0.28304	-0.09272	1.185108	-0.297	-1.149	-2.7705	0	157	1008	1
2026-02-11	16:36:44.030	0.84	5.215	69.405	0.283528	-0.096868	1.184376	-0.2955	-1.1505	-2.772	0	157	1008	1
2026-02-11	16:36:44.050	0.98	3.185	71.47	0.251564	-0.122	1.13216	-0.2895	-1.1565	-2.778	0	157	1008	1
2026-02-11	16:36:44.070	3.325	0.84	71.26	0.20984	-0.141764	1.028216	-0.2865	-1.161	-2.7795	0	157	1008	1
2026-02-11	16:36:44.090	9.975	-0.56	68.495	0.170556	-0.159576	0.941108	-0.2865	-1.161	-2.7795	0	157	1008	1
2026-02-11	16:36:44.110	24.045	2.03	62.37	0.143716	-0.171044	0.929884	-0.2865	-1.161	-2.7795	0	157	1008	1
2026-02-11	16:36:44.130	30.45	5.88	59.465	0.145424	-0.171776	0.96136	-0.2865	-1.1685	-2.778	0	157	1008	1
2026-02-11	16:36:44.150	32.13	8.645	58.205	0.148108	-0.157624	0.996252	-0.288	-1.182	-2.781	0	157	1008	1
2026-02-11	16:36:44.170	30.03	10.465	57.645	0.131272	-0.127612	1.013088	-0.291	-1.1895	-2.784	0	157	1008	1
2026-02-11	16:36:44.190	25.55	12.145	56.455	0.10248	-0.10736	1.02968	-0.2895	-1.194	-2.787	0	157	1008	1
2026-02-11	16:36:44.210	19.25	13.405	55.195	0.0976	-0.101748	1.036024	-0.2835	-1.2	-2.787	0	156	1018	1
2026-02-11	16:36:44.230	12.39	13.475	54.495	0.088816	-0.095648	1.00528	-0.2805	-1.206	-2.7855	0	156	1018	1
2026-02-11	16:36:44.250	7.105	13.265	53.62	0.077836	-0.070516	0.946476	-0.279	-1.2165	-2.7855	0	156	1018	1
2026-02-11	16:36:44.270	4.76	13.125	52.15	0.078568	-0.044408	0.906216	-0.276	-1.2195	-2.784	0	156	1018	1
2026-02-11	16:36:44.290	4.025	12.705	50.96	0.083448	-0.03416	0.890112	-0.2745	-1.221	-2.784	0	156	1018	1
2026-02-11	16:36:44.310	3.605	12.285	50.365	0.069784	-0.030988	0.882792	-0.273	-1.2285	-2.787	0	156	1018	1
2026-02-11	16:36:44.330	3.045	12.81	49.77	0.062708	-0.015372	0.859856	-0.2685	-1.23	-2.79	0	156	1018	1
2026-02-11	16:36:44.350	2.905	13.09	48.475	0.055876	0.013176	0.833016	-0.2655	-1.2315	-2.787	0	156	1018	1
2026-02-11	16:36:44.370	3.57	11.585	45.815	0.057096	0.033916	0.82228	-0.264	-1.2315	-2.787	0	156	1018	1
2026-02-11	16:36:44.390	3.92	10.22	42.595	0.05124	0.03782	0.826184	-0.2625	-1.23	-2.787	0	156	1018	1
2026-02-11	16:36:44.410	3.29	10.115	40.25	0.035136	0.044408	0.827648	-0.258	-1.23	-2.796	0	155	1018	1
2026-02-11	16:36:44.430	2.415	9.695	38.325	0.034892	0.054412	0.830332	-0.2625	-1.2435	-2.7795	0	155	1018	1
2026-02-11	16:36:44.450	1.05	8.295	36.75	0.020008	0.063928	0.840824	-0.255	-1.2465	-2.7855	0	155	1018	1
2026-02-11	16:36:44.470	-0.98	6.86	35.56	-0.00122	0.062464	0.859368	-0.261	-1.2435	-2.784	0	155	1018	1
2026-02-11	16:36:44.490	-3.5	5.635	34.3	-0.0061	0.053924	0.896212	-0.261	-1.251	-2.778	0	155	1018	1
2026-02-11	16:36:44.510	-6.09	4.9	32.935	0.002684	0.05246	0.917196	-0.249	-1.2525	-2.787	0	155	1018	1
2026-02-11	16:36:44.530	-7.63	4.515	31.185	-0.004636	0.068808	0.912072	-0.2535	-1.251	-2.784	0	155	1018	1
2026-02-11	16:36:44.550	-7.77	4.165	28.98	-0.026596	0.069784	0.92354	-0.258	-1.2525	-2.79	0	155	1018	1
2026-02-11	16:36:44.570	-7.245	3.64	26.32	-0.02562	0.060024	0.940132	-0.249	-1.2495	-2.7825	0	155	1018	1
2026-02-11	16:36:44.590	-6.58	3.535	23.73	-0.008296	0.047336	0.943548	-0.2475	-1.251	-2.784	0	155	1018	1
2026-02-11	16:36:44.610	-4.655	4.725	20.93	-0.01342	0.049044	0.933544	-0.246	-1.254	-2.79	0	154	1001	1
2026-02-11	16:36:44.630	-0.98	7.105	17.325	-0.019032	0.071492	0.925004	-0.249	-1.2555	-2.79	0	154	1001	1
2026-02-11	16:36:44.650	5.005	9.94	12.005	-0.018056	0.08052	0.953796	-0.252	-1.254	-2.784	0	154	1001	1
2026-02-11	16:36:44.670	6.65	11.13	10.64	-0.023668	0.09076799	0.992592	-0.252	-1.254	-2.784	0	154	1001	1
2026-02-11	16:36:44.690	6.3	12.53	10.815	-0.031964	0.116144	1.026996	-0.252	-1.254	-2.79	0	154	1001	1
2026-02-11	16:36:44.710	5.705	14.21	11.445	-0.057584	0.136884	1.048468	-0.2445	-1.2585	-2.781	0	154	1001	1
2026-02-11	16:36:44.730	5.285	15.155	11.585	-0.089304	0.137372	1.093852	-0.2415	-1.257	-2.784	0	154	1001	1
2026-02-11	16:36:44.750	3.36	14.105	10.99	-0.09272	0.122976	1.166808	-0.2445	-1.257	-2.787	0	154	1001	1
2026-02-11	16:36:44.770	0.21	11.9	9.8	-0.095648	0.11712	1.234396	-0.237	-1.266	-2.7825	0	154	1001	1
2026-02-11	16:36:44.790	-2.415	10.045	7.315	-0.08906	0.093208	1.272216	-0.2355	-1.2585	-2.7885	0	154	1001	1
2026-02-11	16:36:44.810	-3.885	6.265	3.92	-0.042212	0.03904	1.285636	-0.2415	-1.2675	-2.787	0	153	994	1
2026-02-11	16:36:44.830	-5.425	-0.595	1.61	-0.006344	-0.013908	1.305644	-0.237	-1.2645	-2.7825	0	153	994	1
2026-02-11	16:36:44.850	-7.42	-8.855	1.155	0.029524	-0.06344	1.344196	-0.2295	-1.2615	-2.7765	0	153	994	1
2026-02-11	16:36:44.870	-9.695	-15.925	1.365	0.0732	-0.094184	1.326384	-0.231	-1.26	-2.775	0	153	994	1
2026-02-11	16:36:44.890	-9.065	-19.145	0.035	0.091012	-0.102968	1.233664	-0.2385	-1.26	-2.7915	0	153	994	1
2026-02-11	16:36:44.910	0.42	-14.98	-6.265	0.0488	-0.08906	1.075796	-0.2475	-1.26	-2.778	0	153	994	1
2026-02-11	16:36:44.930	14.56	-8.26	-15.785	0.027328	-0.07905599	1.000156	-0.2475	-1.26	-2.778	0	153	994	1
2026-02-11	16:36:44.950	22.82	-3.5	-22.47	0.088084	-0.070272	1.024068	-0.2475	-1.2585	-2.781	0	153	994	1
2026-02-11	16:36:44.970	26.04	0.385	-26.46	0.176168	-0.059048	1.045784	-0.249	-1.2615	-2.7825	0	153	994	1
2026-02-11	16:36:44.990	25.41	4.13	-27.86	0.228872	-0.052216	1.069208	-0.2445	-1.2675	-2.7855	0	153	994	1
2026-02-11	16:36:45.010	20.895	8.96	-27.265	0.202276	-0.048556	1.075796	-0.24	-1.266	-2.784	0	155	1017	1
2026-02-11	16:36:45.030	13.825	13.09	-25.55	0.163236	-0.032696	1.031388	-0.2415	-1.2675	-2.778	0	155	1017	1
2026-02-11	16:36:45.050	7.315	14.49	-24.5	0.130052	-0.026596	0.97112	-0.243	-1.2735	-2.7765	0	155	1017	1
2026-02-11	16:36:45.070	2.66	13.125	-24.78	0.110776	-0.02074	0.931104	-0.237	-1.2705	-2.778	0	155	1017	1
2026-02-11	16:36:45.090	-0.525	10.535	-25.55	0.106628	-0.021716	0.914024	-0.2355	-1.266	-2.7825	0	155	1017	1
2026-02-11	16:36:45.110	-2.73	8.645	-26.25	0.077836	-0.023424	0.894504	-0.2385	-1.266	-2.7855	0	155	1017	1
2026-02-11	16:36:45.130	-4.095	6.44	-26.81	0.030744	-0.020008	0.875472	-0.231	-1.275	-2.784	0	155	1017	1
2026-02-11	16:36:45.150	-4.655	3.115	-27.475	0.004148	-0.0305	0.846436	-0.234	-1.269	-2.781	0	155	1017	1
2026-02-11	16:36:45.170	-4.655	-0.28	-28.455	0.009028	-0.009272	0.81862	-0.228	-1.269	-2.7825	0	155	1017	1
2026-02-11	16:36:45.190	-4.025	-3.465	-30.765	-0.003904	0.004392	0.797148	-0.237	-1.2675	-2.7855	0	155	1017	1
2026-02-11	16:36:45.210	-4.165	-5.845	-31.815	-0.018788	0.013908	0.785924	-0.237	-1.2645	-2.7885	0	157	1032	1
2026-02-11	16:36:45.230	-4.9	-8.12	-32.305	-0.00732	0.023912	0.793244	-0.2385	-1.26	-2.79	0	157	1032	1
2026-02-11	16:36:45.250	-6.545	-9.765	-32.2	0.012444	0.029036	0.80398	-0.2385	-1.26	-2.7885	0	157	1032	1
2026-02-11	16:36:45.270	-8.96	-11.375	-31.465	0.024156	0.031476	0.804468	-0.2385	-1.2585	-2.7855	0	157	1032	1
2026-02-11	16:36:45.290	-11.515	-12.915	-30.59	0.014396	0.0366	0.823988	-0.2385	-1.257	-2.7825	0	157	1032	1
2026-02-11	16:36:45.310	-13.72	-13.335	-29.82	0.021472	0.034404	0.845948	-0.2415	-1.251	-2.787	0	157	1032	1
2026-02-11	16:36:45.330	-15.54	-13.79	-28.49	0.0488	0.03172	0.877912	-0.2445	-1.242	-2.79	0	157	1032	1
2026-02-11	16:36:45.350	-17.045	-14.315	-26.32	0.071736	0.0366	0.910608	-0.243	-1.242	-2.787	0	157	1032	1
2026-02-11	16:36:45.370	-18.095	-14.035	-24.15	0.086376	0.038308	0.9394	-0.243	-1.2405	-2.784	0	157	1032	1
2026-02-11	16:36:45.390	-18.165	-12.565	-22.26	0.074664	0.029768	0.967948	-0.249	-1.233	-2.784	0	157	1032	1
2026-02-11	16:36:45.410	-17.675	-11.305	-20.44	0.078812	0.02806	1.009184	-0.255	-1.227	-2.787	0	160	1019	1
2026-02-11	16:36:45.430	-17.29	-11.06	-18.06	0.081984	0.029524	1.02358	-0.2505	-1.2255	-2.787	0	160	1019	1
2026-02-11	16:36:45.450	-15.575	-10.57	-14.42	0.100772	0.027084	1.07726	-0.2505	-1.224	-2.784	0	160	1019	1
2026-02-11	16:36:45.470	-13.195	-7.875	-10.5	0.107116	0.021472	1.133868	-0.2565	-1.224	-2.784	0	160	1019	1
2026-02-11	16:36:45.490	-11.83	-4.865	-7.28	0.112728	0.018544	1.191208	-0.255	-1.215	-2.796	0	160	1019	1
2026-02-11	16:36:45.510	-11.41	-2.555	-4.13	0.159332	-0.001464	1.258796	-0.2565	-1.2105	-2.7975	0	160	1019	1
2026-02-11	16:36:45.530	-11.655	-0.07	-1.12	0.179828	-0.019276	1.2871	-0.249	-1.206	-2.79	0	160	1019	1
2026-02-11	16:36:45.550	-10.71	3.08	1.33	0.163236	-0.053924	1.269288	-0.2535	-1.203	-2.787	0	160	1019	1
2026-02-11	16:36:45.570	-7.98	5.635	2.45	0.1403	-0.091988	1.2444	-0.2445	-1.206	-2.784	0	160	1019	1
2026-02-11	16:36:45.590	-4.76	6.37	2.66	0.122732	-0.10248	1.23464	-0.249	-1.2075	-2.7915	0	160	1019	1
2026-02-11	16:36:45.610	-3.01	5.32	3.465	0.139812	-0.115656	1.258796	-0.2625	-1.209	-2.787	0	161	1017	1
2026-02-11	16:36:45.630	-4.445	3.08	5.775	0.158844	-0.12932	1.297104	-0.258	-1.206	-2.787	0	161	1017	1
2026-02-11	16:36:45.650	-8.19	1.295	8.855	0.166652	-0.153232	1.306132	-0.2505	-1.2015	-2.784	0	161	1017	1
2026-02-11	16:36:45.670	-12.005	0.98	11.235	0.142252	-0.159576	1.264896	-0.2475	-1.1985	-2.787	0	161	1017	1
2026-02-11	16:36:45.690	-13.72	1.75	11.445	0.113704	-0.159576	1.152656	-0.2445	-1.2	-2.787	0	161	1017	1
2026-02-11	16:36:45.710	-11.97	2.94	9.59	0.070272	-0.16958	1.023092	-0.2445	-1.2015	-2.7825	0	161	1017	1
2026-02-11	16:36:45.730	-3.605	3.43	4.13	0.045628	-0.186416	0.914512	-0.2475	-1.203	-2.784	0	161	1017	1
2026-02-11	16:36:45.750	1.82	3.22	0.175	0.068076	-0.205936	0.94672	-0.2475	-1.203	-2.784	0	161	1017	1
2026-02-11	16:36:45.770	4.06	3.85	-1.61	0.101504	-0.211304	0.994544	-0.2415	-1.191	-2.781	0	161	1017	1
2026-02-11	16:36:45.790	3.535	7.175	-1.12	0.105408	-0.200568	0.999668	-0.252	-1.2045	-2.7975	0	161	1017	1
2026-02-11	16:36:45.810	1.68	11.515	0.14	0.072956	-0.190076	0.988932	-0.24	-1.197	-2.7855	0	163	1039	1
2026-02-11	16:36:45.830	-1.085	14.28	1.085	0.02928	-0.180804	0.99064	-0.2415	-1.197	-2.793	0	163	1039	1
2026-02-11	16:36:45.850	-5.25	15.015	1.47	0.001708	-0.174948	0.972584	-0.2475	-1.209	-2.787	0	163	1039	1
2026-02-11	16:36:45.870	-8.645	15.05	0.91	-0.012932	-0.1647	0.933544	-0.2385	-1.2015	-2.79	0	163	1039	1
2026-02-11	16:36:45.890	-9.87	14.805	-0.875	-0.03416	-0.146644	0.884256	-0.2445	-1.2	-2.7915	0	163	1039	1
2026-02-11	16:36:45.910	-9.8	13.44	-3.29	-0.050752	-0.133712	0.854732	-0.234	-1.2015	-2.7915	0	163	1039	1
2026-02-11	16:36:45.930	-9.275	11.795	-5.39	-0.044896	-0.123952	0.845216	-0.231	-1.194	-2.7825	0	163	1039	1
2026-02-11	16:36:45.950	-8.61	11.41	-6.79	-0.03538	-0.108824	0.8235	-0.2295	-1.2	-2.7915	0	163	1039	1
2026-02-11	16:36:45.970	-7.63	11.69	-7.49	-0.036356	-0.092476	0.796172	-0.2325	-1.1955	-2.793	0	163	1039	1
2026-02-11	16:36:45.990	-6.72	10.85	-7.49	-0.035624	-0.073444	0.757132	-0.225	-1.1955	-2.7855	0	163	1039	1
2026-02-11	16:36:46.010	-5.845	8.33	-7.49	-0.034648	-0.066856	0.745176	-0.225	-1.191	-2.784	0	166	1045	1
2026-02-11	16:36:46.030	-4.97	6.615	-8.015	-0.034404	-0.063928	0.758596	-0.2265	-1.191	-2.7855	0	166	1045	1
2026-02-11	16:36:46.050	-4.48	6.09	-8.505	-0.019032	-0.068564	0.777872	-0.2235	-1.1925	-2.7915	0	166	1045	1
2026-02-11	16:36:46.070	-5.145	5.495	-8.26	-0.02562	-0.06344	0.800808	-0.225	-1.1895	-2.7885	0	166	1045	1
2026-02-11	16:36:46.090	-6.475	3.885	-7.7	-0.05124	-0.047824	0.844484	-0.2205	-1.185	-2.784	0	166	1045	1
2026-02-11	16:36:46.110	-7.07	2.24	-8.12	-0.07686	-0.026352	0.891088	-0.216	-1.182	-2.784	0	166	1045	1
2026-02-11	16:36:46.130	-6.3	2.135	-10.395	-0.095648	-0.006588	0.92964	-0.219	-1.182	-2.781	0	166	1045	1
2026-02-11	16:36:46.150	-4.76	1.26	-14.105	-0.113216	-0.004148	0.961848	-0.216	-1.185	-2.7825	0	166	1045	1
2026-02-11	16:36:46.170	-3.08	-2.24	-18.48	-0.112728	-0.010492	1.017236	-0.219	-1.1745	-2.7825	0	166	1045	1
2026-02-11	16:36:46.190	-1.015	-5.39	-23.835	-0.091256	-0.005856	1.080676	-0.219	-1.1715	-2.778	0	166	1045	1
2026-02-11	16:36:46.210	0.98	-5.355	-29.505	-0.064904	-0.009272	1.146068	-0.2145	-1.1835	-2.7855	0	168	1024	1
2026-02-11	16:36:46.230	1.12	-4.235	-33.67	-0.065392	-0.028304	1.159	-0.225	-1.173	-2.7735	0	168	1024	1
2026-02-11	16:36:46.250	0.735	-3.815	-36.89	-0.111508	-0.041968	1.133624	-0.2205	-1.17	-2.7735	0	168	1024	1
2026-02-11	16:36:46.270	2.695	-3.255	-41.895	-0.111996	-0.078812	1.13582	-0.228	-1.1745	-2.784	0	168	1024	1
2026-02-11	16:36:46.290	4.9	-0.875	-44.345	-0.058804	-0.09467199	1.155828	-0.225	-1.1745	-2.781	0	168	1024	1
2026-02-11	16:36:46.310	7.525	2.87	-45.5	-0.000732	-0.108092	1.16754	-0.2235	-1.176	-2.778	0	168	1024	1
2026-02-11	16:36:46.330	10.43	6.23	-45.745	0.0427	-0.124684	1.163392	-0.231	-1.17	-2.7765	0	168	1024	1
2026-02-11	16:36:46.350	13.44	7.7	-46.235	0.064172	-0.134444	1.120204	-0.231	-1.164	-2.778	0	168	1024	1
2026-02-11	16:36:46.370	16.975	6.65	-47.425	0.071736	-0.150792	1.087264	-0.225	-1.1655	-2.778	0	168	1024	1
2026-02-11	16:36:46.390	19.81	3.29	-48.405	0.088084	-0.158844	1.061644	-0.225	-1.164	-2.778	0	168	1024	1
2026-02-11	16:36:46.410	21.35	-0.315	-48.37	0.129808	-0.15616	1.043344	-0.231	-1.164	-2.7825	0	171	1017	1
2026-02-11	16:36:46.430	22.61	-2.065	-48.125	0.183244	-0.143716	1.006012	-0.2325	-1.1655	-2.7855	0	171	1017	1
2026-02-11	16:36:46.450	24.955	-2.415	-48.58	0.20374	-0.138836	0.96624	-0.2265	-1.164	-2.7795	0	171	1017	1
2026-02-11	16:36:46.470	28.175	-3.605	-49.84	0.205692	-0.135664	0.933788	-0.2295	-1.1655	-2.784	0	171	1017	1
2026-02-11	16:36:46.490	30.345	-6.3	-50.96	0.216428	-0.135176	0.953064	-0.231	-1.167	-2.79	0	171	1017	1
2026-02-11	16:36:46.510	29.785	-8.435	-50.645	0.251564	-0.13908	0.981856	-0.234	-1.1715	-2.79	0	171	1017	1
2026-02-11	16:36:46.530	26.005	-10.815	-48.37	0.23668	-0.103944	0.971608	-0.2385	-1.1775	-2.7915	0	171	1017	1
2026-02-11	16:36:46.550	21.14	-13.615	-46.095	0.227408	-0.0854	0.972584	-0.237	-1.179	-2.79	0	171	1017	1
2026-02-11	16:36:46.570	15.05	-15.225	-43.785	0.211304	-0.07686	1.003572	-0.2415	-1.179	-2.7885	0	171	1017	1
2026-02-11	16:36:46.590	8.085	-14.665	-41.195	0.17934	-0.06588	1.003572	-0.2445	-1.182	-2.7885	0	171	1017	1
2026-02-11	16:36:46.610	1.365	-13.195	-39.48	0.10736	-0.068808	1.004304	-0.2475	-1.179	-2.7855	0	172	1021	1
2026-02-11	16:36:46.630	-6.265	-12.67	-39.235	0.062952	-0.080764	1.000156	-0.2535	-1.182	-2.7885	0	172	1021	1
2026-02-11	16:36:46.650	-14.875	-11.9	-40.075	0.044408	-0.09028	0.997716	-0.258	-1.1835	-2.79	0	172	1021	1
2026-02-11	16:36:46.670	-21.735	-8.645	-41.3	0.053924	-0.072224	0.982588	-0.2565	-1.1745	-2.7915	0	172	1021	1
2026-02-11	16:36:46.690	-25.27	-2.94	-42.14	0.059292	-0.059048	0.946476	-0.2565	-1.17	-2.7885	0	172	1021	1
2026-02-11	16:36:46.710	-28.245	1.89	-41.02	0.089304	-0.0671	0.912316	-0.258	-1.1655	-2.7885	0	172	1021	1
2026-02-11	16:36:46.730	-31.08	4.27	-37.45	0.125904	-0.0671	0.90036	-0.2625	-1.155	-2.793	0	172	1021	1
2026-02-11	16:36:46.750	-31.99	5.635	-32.445	0.155428	-0.082228	0.916952	-0.267	-1.149	-2.79	0	172	1021	1
2026-02-11	16:36:46.770	-30.24	6.79	-26.915	0.149084	-0.082228	0.892796	-0.267	-1.14	-2.7795	0	172	1021	1
2026-02-11	16:36:46.790	-25.725	6.965	-22.12	0.11224	-0.084424	0.868152	-0.2625	-1.134	-2.772	0	172	1021	1
2026-02-11	16:36:46.810	-17.605	3.815	-17.99	0.082716	-0.101016	0.880108	-0.2595	-1.137	-2.7705	0	171	1020	1
2026-02-11	16:36:46.830	-13.195	1.26	-16.45	0.075396	-0.105164	0.9089	-0.2595	-1.137	-2.7705	0	171	1020	1
2026-02-11	16:36:46.850	-9.345	-0.98	-14.945	0.083204	-0.094428	0.932812	-0.255	-1.1295	-2.781	0	171	1020	1
2026-02-11	16:36:46.870	-6.3	-3.64	-12.355	0.093696	-0.081252	0.920368	-0.264	-1.122	-2.775	0	171	1020	1
2026-02-11	16:36:46.890	-3.745	-7.28	-9.17	0.066856	-0.057584	0.88816	-0.2625	-1.1325	-2.775	0	171	1020	1
2026-02-11	16:36:46.910	-0.35	-10.675	-6.65	0.066856	-0.058072	0.915244	-0.2595	-1.1235	-2.769	0	171	1020	1
2026-02-11	16:36:46.930	2.905	-11.55	-4.48	0.07515199	-0.063928	0.945256	-0.2685	-1.1205	-2.7795	0	171	1020	1
2026-02-11	16:36:46.950	5.32	-10.745	-2.17	0.067832	-0.052948	0.931836	-0.2715	-1.125	-2.769	0	171	1020	1
2026-02-11	16:36:46.970	7.595	-11.2	0.035	0.05978	-0.037332	0.910364	-0.2715	-1.1265	-2.7795	0	171	1020	1
2026-02-11	16:36:46.990	10.57	-12.88	1.54	0.072712	-0.033184	0.949404	-0.2685	-1.122	-2.7795	0	171	1020	1
2026-02-11	16:36:47.010	12.985	-12.74	2.905	0.094916	-0.032696	1.023092	-0.2655	-1.125	-2.784	0	167	1009	1
2026-02-11	16:36:47.030	13.265	-9.87	5.67	0.110776	-0.028548	1.06018	-0.2745	-1.1325	-2.7855	0	167	1009	1
2026-02-11	16:36:47.050	11.41	-6.895	10.08	0.12078	-0.028304	1.067744	-0.276	-1.131	-2.781	0	167	1009	1
2026-02-11	16:36:47.070	9.205	-5.04	14.84	0.07808	-0.015616	1.03822	-0.276	-1.131	-2.781	0	167	1009	1
2026-02-11	16:36:47.090	9.8	-3.185	16.38	0.028304	-0.022692	1.046516	-0.276	-1.131	-2.781	0	167	1009	1
2026-02-11	16:36:47.110	10.78	-1.925	15.82	0.036356	-0.0366	1.096536	-0.273	-1.1355	-2.784	0	167	1009	1
2026-02-11	16:36:47.130	10.43	-1.085	15.54	0.032452	-0.030256	1.128256	-0.2715	-1.1415	-2.7885	0	167	1009	1
2026-02-11	16:36:47.150	9.8	0.945	15.505	0.029036	-0.012444	1.157048	-0.2685	-1.1475	-2.787	0	167	1009	1
2026-02-11	16:36:47.170	9.275	4.655	15.575	0.051484	-0.00732	1.196332	-0.27	-1.1415	-2.7855	0	167	1009	1
2026-02-11	16:36:47.190	7.525	7.525	16.52	0.089792	-0.0122	1.24562	-0.27	-1.1535	-2.787	0	167	1009	1
2026-02-11	16:36:47.210	4.13	9.135	18.27	0.1098	-0.020496	1.253428	-0.2775	-1.1445	-2.79	0	161	1010	1
2026-02-11	16:36:47.230	0.665	9.975	20.23	0.120048	-0.03294	1.242448	-0.2715	-1.149	-2.796	0	161	1010	1
2026-02-11	16:36:47.250	-2.73	9.52	22.855	0.132492	-0.060512	1.227808	-0.2715	-1.155	-2.7915	0	161	1010	1
2026-02-11	16:36:47.270	-5.88	6.685	26.075	0.136396	-0.080032	1.19316	-0.2595	-1.1445	-2.7885	0	161	1010	1
2026-02-11	16:36:47.290	-7.84	2.345	28.245	0.145668	-0.099308	1.191208	-0.264	-1.152	-2.784	0	161	1010	1
2026-02-11	16:36:47.310	-8.54	-1.435	28.77	0.173484	-0.110044	1.184376	-0.258	-1.1505	-2.781	0	161	1010	1
2026-02-11	16:36:47.330	-7.735	-3.815	28.105	0.17202	-0.119072	1.13826	-0.264	-1.146	-2.793	0	161	1010	1
2026-02-11	16:36:47.350	-0.98	-5.81	25.515	0.13542	-0.112728	0.99552	-0.2535	-1.155	-2.7885	0	161	1010	1
2026-02-11	16:36:47.370	6.58	-7.175	22.785	0.10248	-0.101016	0.935496	-0.2535	-1.1505	-2.787	0	161	1010	1
2026-02-11	16:36:47.390	12.88	-9.03	20.16	0.092476	-0.104188	0.93818	-0.2535	-1.1505	-2.7855	0	161	1010	1
2026-02-11	16:36:47.410	15.225	-10.57	18.375	0.111508	-0.109068	0.972828	-0.2565	-1.1565	-2.7885	0	155	1032	1
2026-02-11	16:36:47.430	14.14	-11.235	17.325	0.144936	-0.115168	1.006744	-0.264	-1.161	-2.796	0	155	1032	1
2026-02-11	16:36:47.450	10.57	-11.2	16.625	0.180804	-0.125172	1.034804	-0.2655	-1.1655	-2.799	0	155	1032	1
2026-02-11	16:36:47.470	5.53	-10.71	16.38	0.183	-0.12932	1.023824	-0.2625	-1.17	-2.796	0	155	1032	1
2026-02-11	16:36:47.490	0.945	-10.36	16.31	0.159088	-0.133956	1.001376	-0.2655	-1.17	-2.79	0	155	1032	1
2026-02-11	16:36:47.510	-2.45	-11.27	15.365	0.134932	-0.13786	0.972096	-0.2655	-1.1655	-2.7915	0	155	1032	1
2026-02-11	16:36:47.530	-4.655	-14.315	13.895	0.119072	-0.140056	0.933056	-0.264	-1.167	-2.7915	0	155	1032	1
2026-02-11	16:36:47.550	-4.55	-17.36	12.145	0.116144	-0.129564	0.910852	-0.2625	-1.167	-2.7915	0	155	1032	1
2026-02-11	16:36:47.570	-2.345	-17.36	10.78	0.104676	-0.121024	0.90524	-0.264	-1.17	-2.796	0	155	1032	1
2026-02-11	16:36:47.590	0.245	-14.63	10.22	0.071004	-0.10126	0.879864	-0.2715	-1.176	-2.7975	0	155	1032	1
2026-02-11	16:36:47.610	2.625	-10.92	10.08	0.027572	-0.08052	0.863272	-0.2745	-1.1745	-2.7975	0	149	1045	1
2026-02-11	16:36:47.630	3.64	-7.63	9.66	0.022936	-0.050996	0.85522	-0.273	-1.173	-2.796	0	149	1045	1
2026-02-11	16:36:47.650	3.535	-3.955	9.59	0.043676	-0.043432	0.851316	-0.2775	-1.1685	-2.7885	0	149	1045	1
2026-02-11	16:36:47.670	3.01	0.175	10.01	0.064172	-0.040016	0.854976	-0.279	-1.173	-2.7915	0	149	1045	1
2026-02-11	16:36:47.690	2.24	4.305	10.535	0.056852	-0.04636	0.849364	-0.2805	-1.1775	-2.7915	0	149	1045	1
2026-02-11	16:36:47.710	0.63	7.77	11.48	0.035868	-0.056608	0.840092	-0.279	-1.1745	-2.7915	0	149	1045	1
2026-02-11	16:36:47.730	-1.085	9.485	12.53	0.036356	-0.059536	0.829844	-0.276	-1.1715	-2.796	0	149	1045	1
2026-02-11	16:36:47.750	-2.31	10.325	13.335	0.066368	-0.062952	0.85766	-0.273	-1.173	-2.7915	0	149	1045	1
2026-02-11	16:36:47.770	-3.395	11.76	14.28	0.087108	-0.064904	0.891332	-0.267	-1.176	-2.79	0	149	1045	1
2026-02-11	16:36:47.790	-4.9	13.09	15.715	0.070028	-0.064416	0.918904	-0.27	-1.1775	-2.7945	0	149	1045	1
2026-02-11	16:36:47.810	-7.105	12.915	17.01	0.04026	-0.06588	0.935252	-0.2685	-1.179	-2.7915	0	145	1032	1
2026-02-11	16:36:47.830	-9.73	11.305	18.025	0.02806	-0.068808	0.952576	-0.264	-1.179	-2.79	0	145	1032	1
2026-02-11	16:36:47.850	-11.48	9.31	18.375	0.025132	-0.06222	0.964776	-0.2655	-1.1775	-2.79	0	145	1032	1
2026-02-11	16:36:47.870	-10.71	7.945	17.675	0.0122	-0.049044	0.944036	-0.261	-1.1745	-2.79	0	145	1032	1
2026-02-11	16:36:47.890	-5.25	6.195	15.47	-0.02318	-0.056852	0.930128	-0.258	-1.173	-2.7915	0	145	1032	1
2026-02-11	16:36:47.910	-2.065	4.585	14.35	-0.023668	-0.06734399	0.948916	-0.258	-1.173	-2.7915	0	145	1032	1
2026-02-11	16:36:47.930	-0.175	3.71	13.65	-0.0122	-0.06466	0.97112	-0.252	-1.1745	-2.7885	0	145	1032	1
2026-02-11	16:36:47.950	1.155	4.585	13.615	-0.00488	-0.056852	0.97356	-0.249	-1.179	-2.7915	0	145	1032	1
2026-02-11	16:36:47.970	2.695	5.845	14.21	-0.016104	-0.041724	0.951844	-0.246	-1.185	-2.7915	0	145	1032	1
2026-02-11	16:36:47.990	4.83	5.74	14.595	-0.008296	-0.0244	0.952576	-0.2415	-1.176	-2.7855	0	145	1032	1
2026-02-11	16:36:48.010	7.14	5.075	15.05	0.00854	-0.013908	0.979416	-0.2415	-1.1805	-2.7885	0	140	1010	1
2026-02-11	16:36:48.030	9.17	5.46	15.925	0.029768	-0.011468	0.98942	-0.2445	-1.191	-2.7855	0	140	1010	1
2026-02-11	16:36:48.050	10.71	5.635	17.64	0.044164	-0.006344	0.997716	-0.2445	-1.1865	-2.7975	0	140	1010	1
2026-02-11	16:36:48.070	11.34	3.745	19.74	0.047336	-0.017324	1.021384	-0.243	-1.191	-2.799	0	140	1010	1
2026-02-11	16:36:48.090	10.815	1.085	21.315	0.04148	-0.02928	1.05408	-0.2415	-1.188	-2.7885	0	140	1010	1
2026-02-11	16:36:48.110	9.87	0.28	22.295	0.036356	-0.026352	1.067744	-0.249	-1.1985	-2.7975	0	140	1010	1
2026-02-11	16:36:48.130	9.065	0	23.1	0.068808	-0.025376	1.091168	-0.243	-1.2	-2.796	0	140	1010	1
2026-02-11	16:36:48.150	7.945	-1.365	24.29	0.110044	-0.024156	1.09922	-0.243	-1.2015	-2.7945	0	140	1010	1
2026-02-11	16:36:48.170	7.665	-5.81	25.13	0.133712	-0.024156	1.069696	-0.243	-1.2045	-2.793	0	140	1010	1
2026-02-11	16:36:48.190	7.665	-9.555	25.13	0.142008	-0.029768	1.070184	-0.243	-1.209	-2.793	0	140	1010	1
2026-02-11	16:36:48.210	7	-13.37	25.27	0.131028	-0.019032	1.051884	-0.2385	-1.203	-2.7975	0	135	1001	1
2026-02-11	16:36:48.230	7.7	-17.255	23.905	0.10004	-0.020008	1.012844	-0.24	-1.215	-2.799	0	135	1001	1
2026-02-11	16:36:48.250	11.305	-20.265	19.985	0.110044	-0.022204	1.002108	-0.243	-1.215	-2.7945	0	135	1001	1
2026-02-11	16:36:48.270	16.415	-19.915	14.735	0.111996	-0.02928	1.00894	-0.2445	-1.218	-2.799	0	135	1001	1
2026-02-11	16:36:48.290	20.93	-17.115	9.905	0.117364	-0.026596	1.014552	-0.252	-1.227	-2.802	0	135	1001	1
2026-02-11	16:36:48.310	23.695	-14	6.79	0.134688	-0.025132	1.015772	-0.258	-1.2225	-2.799	0	135	1001	1
2026-02-11	16:36:48.330	24.64	-11.06	4.27	0.13664	-0.027328	1.01016	-0.252	-1.236	-2.796	0	135	1001	1
2026-02-11	16:36:48.350	23.87	-8.295	2.065	0.173728	-0.032696	1.034316	-0.252	-1.2405	-2.8005	0	135	1001	1
2026-02-11	16:36:48.370	20.545	-5.04	0.525	0.218624	-0.050752	1.066036	-0.2535	-1.239	-2.799	0	135	1001	1
2026-02-11	16:36:48.390	15.435	-1.155	0.315	0.23912	-0.065636	1.065548	-0.264	-1.2405	-2.8065	0	135	1001	1
2026-02-11	16:36:48.410	10.78	2.8	0.42	0.228872	-0.073444	1.044808	-0.2625	-1.245	-2.808	0	130	1007	1
2026-02-11	16:36:48.430	6.23	6.475	0.42	0.2074	-0.085644	1.021628	-0.261	-1.2435	-2.8095	0	130	1007	1
2026-02-11	16:36:48.450	2.31	8.75	1.155	0.187148	-0.077104	0.991616	-0.2565	-1.2435	-2.808	0	130	1007	1
2026-02-11	16:36:48.470	0.175	9.87	2.8	0.176168	-0.065636	0.97722	-0.2505	-1.2495	-2.799	0	130	1007	1
2026-02-11	16:36:48.490	-1.33	9.695	4.2	0.164212	-0.059536	0.973804	-0.2475	-1.254	-2.796	0	130	1007	1
2026-02-11	16:36:48.510	-2.555	9.065	5.88	0.15128	-0.049044	0.979416	-0.2445	-1.2495	-2.805	0	130	1007	1
2026-02-11	16:36:48.530	-3.36	8.365	7.385	0.149328	-0.0366	0.985516	-0.246	-1.245	-2.8035	0	130	1007	1
2026-02-11	16:36:48.550	-4.27	7.595	8.82	0.141032	-0.033428	0.98454	-0.246	-1.251	-2.7945	0	130	1007	1
2026-02-11	16:36:48.570	-5.46	6.195	10.395	0.134444	-0.033916	0.970876	-0.243	-1.2585	-2.7945	0	130	1007	1
2026-02-11	16:36:48.590	-6.265	4.515	12.11	0.146644	-0.042456	0.953796	-0.243	-1.2585	-2.799	0	130	1007	1
2026-02-11	16:36:48.610	-6.16	3.01	14.21	0.146888	-0.04392	0.930372	-0.2385	-1.2555	-2.8035	0	124	1015	1
2026-02-11	16:36:48.630	-4.9	1.82	16.975	0.145424	-0.040992	0.924516	-0.234	-1.251	-2.802	0	124	1015	1
2026-02-11	16:36:48.650	-3.15	1.365	20.475	0.139324	-0.027328	0.933544	-0.2325	-1.248	-2.799	0	124	1015	1
2026-02-11	16:36:48.670	-1.645	1.925	24.325	0.136152	-0.020008	0.9699	-0.2415	-1.2555	-2.796	0	124	1015	1
2026-02-11	16:36:48.690	-0.735	3.815	27.79	0.142008	-0.013664	0.999668	-0.2385	-1.2525	-2.8005	0	124	1015	1
2026-02-11	16:36:48.710	-0.595	6.755	32.725	0.152012	-0.01952	1.025044	-0.2385	-1.2525	-2.8005	0	124	1015	1
2026-02-11	16:36:48.730	-1.26	7.56	36.435	0.148352	-0.022448	1.029436	-0.237	-1.2555	-2.7945	0	124	1015	1
2026-02-11	16:36:48.750	-1.645	8.155	40.215	0.139568	-0.03538	1.04188	-0.2355	-1.26	-2.796	0	124	1015	1
2026-02-11	16:36:48.770	-1.645	9.205	43.75	0.133468	-0.052216	1.046272	-0.2355	-1.2585	-2.8005	0	124	1015	1
2026-02-11	16:36:48.790	-1.295	10.01	47.11	0.126636	-0.060756	1.050908	-0.2355	-1.266	-2.796	0	124	1015	1
2026-02-11	16:36:48.810	-0.56	10.325	50.155	0.108092	-0.060024	1.05652	-0.231	-1.275	-2.7945	0	118	1019	1
2026-02-11	16:36:48.830	0.35	10.605	52.535	0.10004	-0.060756	1.084092	-0.225	-1.2735	-2.79	0	118	1019	1
2026-02-11	16:36:48.850	1.015	11.725	54.46	0.092476	-0.052216	1.083848	-0.2295	-1.275	-2.7855	0	118	1019	1
2026-02-11	16:36:48.870	1.645	13.23	56.56	0.09467199	-0.036356	1.079944	-0.2265	-1.2765	-2.7915	0	118	1019	1
2026-02-11	16:36:48.890	2.415	13.335	59.43	0.08686399	-0.022936	1.073112	-0.222	-1.2825	-2.7915	0	118	1019	1
2026-02-11	16:36:48.910	2.52	11.375	62.86	0.089548	-0.012444	1.073844	-0.225	-1.2885	-2.7915	0	118	1019	1
2026-02-11	16:36:48.930	2.485	8.68	66.29	0.084424	-0.0061	1.062376	-0.225	-1.287	-2.796	0	118	1019	1
2026-02-11	16:36:48.950	3.325	6.475	69.335	0.087352	-0.005368	1.053104	-0.2205	-1.29	-2.7945	0	118	1019	1
2026-02-11	16:36:48.970	4.795	4.55	72.555	0.07442	-0.008052	1.038952	-0.2175	-1.293	-2.7945	0	118	1019	1
2026-02-11	16:36:48.990	5.11	2.905	74.725	0.068808	-0.0122	1.032364	-0.2175	-1.293	-2.7945	0	118	1019	1
2026-02-11	16:36:49.010	4.025	1.225	75.6	0.083692	-0.020984	1.027728	-0.2295	-1.314	-2.793	0	111	1025	1
2026-02-11	16:36:49.030	2.695	0	75.215	0.07564	-0.029524	1.01138	-0.228	-1.317	-2.784	0	111	1025	1
2026-02-11	16:36:49.050	2.695	0.665	73.29	0.08662	-0.02562	0.980636	-0.2295	-1.323	-2.7975	0	111	1025	1
2026-02-11	16:36:49.070	4.095	2.625	70.875	0.101748	-0.034404	0.938424	-0.2175	-1.329	-2.793	0	111	1025	1
2026-02-11	16:36:49.090	6.055	4.69	68.6	0.132004	-0.042456	0.935984	-0.231	-1.3335	-2.793	0	111	1025	1
2026-02-11	16:36:49.110	7.14	6.965	66.885	0.13542	-0.052948	0.9333	-0.225	-1.3305	-2.793	0	111	1025	1
2026-02-11	16:36:49.130	7.035	9.555	65.38	0.126392	-0.051972	0.92964	-0.2325	-1.338	-2.796	0	111	1025	1
2026-02-11	16:36:49.150	6.055	11.06	64.05	0.112484	-0.058804	0.926712	-0.24	-1.3425	-2.7915	0	111	1025	1
2026-02-11	16:36:49.170	3.465	11.025	63.245	0.117608	-0.06954	0.962336	-0.237	-1.3455	-2.7915	0	111	1025	1
2026-02-11	16:36:49.190	-0.49	9.87	62.965	0.11346	-0.079544	0.987712	-0.2385	-1.3485	-2.7945	0	111	1025	1
2026-02-11	16:36:49.210	-4.97	7.98	62.51	0.080276	-0.082716	0.987712	-0.24	-1.353	-2.7945	0	104	1029	1
2026-02-11	16:36:49.230	-9.24	4.76	61.53	0.043676	-0.081008	0.98454	-0.2355	-1.3575	-2.7945	0	104	1029	1
2026-02-11	16:36:49.250	-13.86	-2.275	57.995	-0.015372	-0.074908	0.953552	-0.231	-1.3575	-2.7945	0	104	1029	1
2026-02-11	16:36:49.270	-14.525	-7.665	53.9	-0.030744	-0.065392	0.947452	-0.2475	-1.3545	-2.7975	0	104	1029	1
2026-02-11	16:36:49.290	-13.51	-12.04	49.77	-0.005124	-0.063684	0.976244	-0.246	-1.368	-2.799	0	104	1029	1
2026-02-11	16:36:49.310	-12.355	-14.49	46.935	0.024644	-0.068076	0.987468	-0.2535	-1.371	-2.8035	0	104	1029	1
2026-02-11	16:36:49.330	-11.13	-15.96	45.57	0.032452	-0.066612	0.980148	-0.2415	-1.3695	-2.802	0	104	1029	1
2026-02-11	16:36:49.350	-9.66	-17.255	44.87	0.029524	-0.060268	0.968436	-0.2565	-1.3695	-2.796	0	104	1029	1
2026-02-11	16:36:49.370	-7.595	-17.99	44.17	0.013908	-0.044896	0.955748	-0.264	-1.3635	-2.799	0	104	1029	1
2026-02-11	16:36:49.390	-4.725	-17.255	42.98	0.014152	-0.032696	0.955504	-0.2715	-1.371	-2.7975	0	104	1029	1
2026-02-11	16:36:49.410	-1.855	-15.155	41.755	0.029036	-0.013664	0.986004	-0.2745	-1.3725	-2.802	0	99	1024	1
2026-02-11	16:36:49.430	-0.245	-12.32	40.845	0.029524	-0.003904	1.01138	-0.2715	-1.38	-2.8005	0	99	1024	1
2026-02-11	16:36:49.450	0	-10.08	39.935	0.008296	0.009516	1.029436	-0.2835	-1.38	-2.799	0	99	1024	1
2026-02-11	16:36:49.470	-0.665	-8.68	38.01	-0.003904	0.010004	1.04798	-0.273	-1.374	-2.796	0	99	1024	1
2026-02-11	16:36:49.490	-1.82	-7.035	35.175	-0.008052	0.016104	1.04798	-0.282	-1.383	-2.799	0	99	1024	1
2026-02-11	16:36:49.510	-2.765	-5.005	30.87	-0.011712	0.019276	1.019432	-0.2865	-1.374	-2.8095	0	99	1024	1
2026-02-11	16:36:49.530	-2.73	-4.445	26.32	-0.013908	0.01952	1.003328	-0.2865	-1.374	-2.8095	0	99	1024	1
2026-02-11	16:36:49.550	-2.415	-4.97	22.645	0.000244	0.017812	1.010648	-0.288	-1.377	-2.802	0	99	1024	1
2026-02-11	16:36:49.570	-2.765	-5.39	19.285	0.019764	0.011224	1.019676	-0.291	-1.3785	-2.802	0	99	1024	1
2026-02-11	16:36:49.590	-3.64	-5.285	16.345	0.028792	0.007808	1.009672	-0.297	-1.377	-2.8035	0	99	1024	1
2026-02-11	16:36:49.610	-3.92	-5.075	13.65	0.030744	0.002196	0.994544	-0.2985	-1.377	-2.802	0	94	1020	1
2026-02-11	16:36:49.630	-3.57	-4.795	11.06	0.010492	-0.004148	0.983076	-0.2985	-1.3815	-2.8035	0	94	1020	1
2026-02-11	16:36:49.650	-2.94	-4.55	8.225	-0.001708	-0.00244	0.972584	-0.3015	-1.38	-2.8005	0	94	1020	1
2026-02-11	16:36:49.670	-2.275	-4.2	5.39	-0.005368	-0.001952	0.992592	-0.3045	-1.3755	-2.8005	0	94	1020	1
2026-02-11	16:36:49.690	-2.38	-2.695	2.905	0.000976	-0.000976	1.006744	-0.3045	-1.3755	-2.802	0	94	1020	1
2026-02-11	16:36:49.710	-2.695	-0.245	0.49	-0.005856	0.014884	0.975756	-0.2985	-1.377	-2.7975	0	94	1020	1
2026-02-11	16:36:49.730	-1.61	1.33	-2.17	-0.00244	0.024644	0.942816	-0.306	-1.3725	-2.7975	0	94	1020	1
2026-02-11	16:36:49.750	0.91	1.225	-4.41	-0.000732	0.030744	0.929396	-0.306	-1.374	-2.8065	0	94	1020	1
2026-02-11	16:36:49.770	3.815	0.28	-5.565	0.003416	0.035868	0.939644	-0.306	-1.3815	-2.802	0	94	1020	1
2026-02-11	16:36:49.790	7.49	-0.875	-6.02	0.013664	0.036356	0.96502	-0.309	-1.3755	-2.805	0	94	1020	1
2026-02-11	16:36:49.810	9.485	-1.4	-6.44	0.020252	0.0244	0.9943	-0.306	-1.3785	-2.8035	0	89	1018	1
2026-02-11	16:36:49.830	10.71	-0.805	-6.965	0.012688	0.01586	1.000156	-0.303	-1.38	-2.8035	0	89	1018	1
2026-02-11	16:36:49.850	11.97	-0.21	-7.595	0.000732	0.016348	0.99064	-0.2985	-1.383	-2.808	0	89	1018	1
2026-02-11	16:36:49.870	13.44	-1.155	-8.365	0.016104	0.008052	1.001864	-0.3	-1.392	-2.808	0	89	1018	1
2026-02-11	16:36:49.890	14.14	-3.5	-8.855	0.03904	-0.002928	1.026752	-0.309	-1.395	-2.8065	0	89	1018	1
2026-02-11	16:36:49.910	14.315	-5.565	-8.925	0.049776	-0.013176	1.048712	-0.3075	-1.395	-2.805	0	89	1018	1
2026-02-11	16:36:49.930	14.42	-6.895	-8.855	0.073932	-0.023668	1.069696	-0.3045	-1.395	-2.805	0	89	1018	1
2026-02-11	16:36:49.950	14.105	-7.945	-8.575	0.091012	-0.037332	1.079212	-0.306	-1.3965	-2.808	0	89	1018	1
2026-02-11	16:36:49.970	13.16	-9.17	-8.19	0.088572	-0.051972	1.060668	-0.306	-1.395	-2.805	0	89	1018	1
2026-02-11	16:36:49.990	12.18	-10.92	-8.085	0.087596	-0.05978	1.035048	-0.306	-1.395	-2.802	0	89	1018	1
2026-02-11	16:36:50.010	12.215	-13.755	-8.155	0.105896	-0.047824	1.011868	-0.3075	-1.3995	-2.802	0	85	1018	1
2026-02-11	16:36:50.030	12.985	-15.505	-8.05	0.140788	-0.04636	1.021872	-0.3105	-1.404	-2.805	0	85	1018	1
2026-02-11	16:36:50.050	13.09	-16.695	-7.385	0.16348	-0.036112	1.035048	-0.312	-1.404	-2.8065	0	85	1018	1
2026-02-11	16:36:50.070	11.585	-16.66	-6.825	0.134444	-0.02318	1.011624	-0.309	-1.3995	-2.8065	0	85	1018	1
2026-02-11	16:36:50.090	9.975	-16.415	-7.455	0.110288	-0.011712	0.998692	-0.315	-1.413	-2.802	0	85	1018	1
2026-02-11	16:36:50.110	8.4	-15.05	-8.995	0.113704	-0.003172	1.000644	-0.318	-1.407	-2.799	0	85	1018	1
2026-02-11	16:36:50.130	6.895	-12.18	-10.99	0.119316	0.004392	1.003816	-0.3255	-1.4175	-2.802	0	85	1018	1
2026-02-11	16:36:50.150	5.53	-8.225	-13.02	0.140544	0.008784	1.014308	-0.327	-1.413	-2.808	0	85	1018	1
2026-02-11	16:36:50.170	3.71	-3.92	-14.07	0.172996	0.003416	1.016504	-0.3285	-1.4115	-2.802	0	85	1018	1
2026-02-11	16:36:50.190	1.155	-0.595	-14	0.202276	0.000976	1.023336	-0.3315	-1.422	-2.805	0	85	1018	1
2026-02-11	16:36:50.210	-1.96	1.225	-13.335	0.229116	-0.007808	1.016992	-0.3285	-1.4205	-2.8005	0	82	1022	1
2026-02-11	16:36:50.230	-4.865	2.345	-12.11	0.251808	-0.014396	1.012844	-0.324	-1.4175	-2.7975	0	82	1022	1
2026-02-11	16:36:50.250	-7.35	2.975	-9.73	0.298656	-0.02074	1.025044	-0.321	-1.41	-2.8005	0	82	1022	1
2026-02-11	16:36:50.270	-10.01	2.66	-5.81	0.323788	-0.030988	1.024556	-0.3165	-1.407	-2.805	0	82	1022	1
2026-02-11	16:36:50.290	-12.565	0.35	-1.19	0.323056	-0.03172	1.020896	-0.3195	-1.4085	-2.8065	0	82	1022	1
2026-02-11	16:36:50.310	-14.56	-3.36	3.045	0.29646	-0.037088	1.02358	-0.3195	-1.4115	-2.805	0	82	1022	1
2026-02-11	16:36:50.330	-15.715	-8.12	6.405	0.209352	-0.036844	0.970632	-0.315	-1.4145	-2.805	0	82	1022	1
2026-02-11	16:36:50.350	-12.845	-10.08	5.46	0.161772	-0.033184	0.95648	-0.315	-1.4145	-2.805	0	82	1022	1
2026-02-11	16:36:50.370	-9.52	-10.15	3.465	0.158112	-0.034648	0.978928	-0.333	-1.404	-2.8065	0	82	1022	1
2026-02-11	16:36:50.390	-8.295	-9.065	2.695	0.168604	-0.034648	0.993324	-0.336	-1.398	-2.8095	0	82	1022	1
2026-02-11	16:36:50.410	-8.575	-7.35	3.745	0.162992	-0.035868	0.979416	-0.3345	-1.401	-2.811	0	81	1025	1
2026-02-11	16:36:50.430	-8.575	-5.11	5.67	0.164456	-0.03538	0.963068	-0.324	-1.398	-2.8095	0	81	1025	1
2026-02-11	16:36:50.450	-8.015	-3.22	8.155	0.15982	-0.030988	0.964532	-0.3255	-1.3935	-2.8065	0	81	1025	1
2026-02-11	16:36:50.470	-7.595	-1.89	10.745	0.177632	-0.033184	0.985516	-0.33	-1.395	-2.8095	0	81	1025	1
2026-02-11	16:36:50.490	-7.84	-0.07	13.79	0.19032	-0.039284	0.992592	-0.33	-1.3845	-2.808	0	81	1025	1
2026-02-11	16:36:50.510	-7.35	2.135	17.22	0.204716	-0.032452	0.984296	-0.333	-1.389	-2.805	0	81	1025	1
2026-02-11	16:36:50.530	-5.495	3.675	20.265	0.205936	-0.032208	0.987468	-0.3345	-1.3995	-2.808	0	81	1025	1
2026-02-11	16:36:50.550	-3.08	4.655	23.275	0.212768	-0.037088	1.014552	-0.333	-1.389	-2.8125	0	81	1025	1
2026-02-11	16:36:50.570	-1.435	6.475	26.565	0.211792	-0.02684	1.01016	-0.336	-1.3905	-2.8155	0	81	1025	1
2026-02-11	16:36:50.590	0.665	6.58	30.94	0.207888	-0.012932	1.01382	-0.3405	-1.395	-2.8035	0	81	1025	1
2026-02-11	16:36:50.610	2.17	5.46	35	0.223504	-0.007808	1.046028	-0.336	-1.392	-2.808	0	80	1026	1
2026-02-11	16:36:50.630	1.82	5.565	37.555	0.20862	-0.010492	1.060424	-0.3345	-1.392	-2.8125	0	80	1026	1
2026-02-11	16:36:50.650	1.05	6.475	39.13	0.199104	-0.017568	1.047248	-0.336	-1.3935	-2.8125	0	80	1026	1
2026-02-11	16:36:50.670	1.4	7.875	40.775	0.198128	-0.01952	1.029436	-0.336	-1.3965	-2.814	0	80	1026	1
2026-02-11	16:36:50.690	1.575	7.735	42.945	0.21472	-0.03416	1.02724	-0.3405	-1.398	-2.808	0	80	1026	1
2026-02-11	16:36:50.710	0.455	3.605	45.15	0.218136	-0.06832	1.054324	-0.342	-1.3995	-2.805	0	80	1026	1
2026-02-11	16:36:50.730	-0.91	-0.7	47.145	0.221064	-0.100284	1.05896	-0.3405	-1.401	-2.811	0	80	1026	1
2026-02-11	16:36:50.750	-1.12	-1.96	49.315	0.230336	-0.1037	1.048468	-0.3435	-1.407	-2.8125	0	80	1026	1
2026-02-11	16:36:50.770	-0.315	-1.715	51.38	0.21716	-0.106384	1.01992	-0.345	-1.3965	-2.814	0	80	1026	1
2026-02-11	16:36:50.790	0.805	-3.92	53.515	0.21716	-0.121756	0.997472	-0.354	-1.404	-2.8155	0	80	1026	1
2026-02-11	16:36:50.810	2.73	-7.56	55.02	0.22448	-0.1403	0.996008	-0.3495	-1.404	-2.811	0	79	1028	1
2026-02-11	16:36:50.830	5.635	-9.135	55.79	0.220576	-0.166896	0.987468	-0.3615	-1.404	-2.814	0	79	1028	1
2026-02-11	16:36:50.850	9.275	-8.015	55.615	0.187148	-0.173728	0.980636	-0.3675	-1.401	-2.8095	0	79	1028	1
2026-02-11	16:36:50.870	12.775	-4.585	53.34	0.178852	-0.169824	0.980392	-0.3525	-1.4115	-2.8035	0	79	1028	1
2026-02-11	16:36:50.890	13.09	-3.535	51.94	0.191296	-0.159332	0.9943	-0.36	-1.4145	-2.8035	0	79	1028	1
2026-02-11	16:36:50.910	12.25	-2.38	52.01	0.197152	-0.15494	1.016992	-0.3735	-1.4145	-2.8095	0	79	1028	1
2026-02-11	16:36:50.930	10.185	0.91	51.87	0.155672	-0.142008	1.006988	-0.384	-1.413	-2.8095	0	79	1028	1
2026-02-11	16:36:50.950	7.35	3.92	50.925	0.120048	-0.119072	0.978196	-0.3885	-1.4175	-2.805	0	79	1028	1
2026-02-11	16:36:50.970	3.815	4.27	49.945	0.110532	-0.099796	0.966484	-0.387	-1.419	-2.8035	0	79	1028	1
2026-02-11	16:36:50.990	0.105	2.975	48.895	0.10492	-0.083936	0.991128	-0.387	-1.419	-2.8035	0	79	1028	1
2026-02-11	16:36:51.010	-3.325	1.435	47.915	0.105652	-0.086376	0.996984	-0.3885	-1.422	-2.8035	0	79	1028	1
2026-02-11	16:36:51.030	-5.985	0.49	47.005	0.08662	-0.07686	0.973804	-0.3915	-1.419	-2.805	0	79	1028	1
2026-02-11	16:36:51.050	-7.315	-0.56	45.395	0.075396	-0.052948	0.944036	-0.393	-1.4145	-2.8065	0	79	1028	1
2026-02-11	16:36:51.070	-7.21	-2.765	42.595	0.063196	-0.062952	0.928176	-0.399	-1.419	-2.8095	0	79	1028	1
2026-02-11	16:36:51.090	-5.705	-5.74	39.62	0.07198	-0.061976	0.917684	-0.402	-1.419	-2.8125	0	79	1028	1
2026-02-11	16:36:51.110	-3.22	-8.295	37.03	0.095648	-0.0549	0.925736	-0.4065	-1.419	-2.814	0	79	1028	1
2026-02-11	16:36:51.130	-0.875	-10.395	34.755	0.110044	-0.047824	0.952576	-0.4125	-1.416	-2.808	0	79	1028	1
2026-02-11	16:36:51.150	-0.245	-11.34	32.97	0.101504	-0.047824	0.966484	-0.4125	-1.4115	-2.805	0	79	1028	1
2026-02-11	16:36:51.170	-0.245	-11.095	31.43	0.089304	-0.036844	0.95892	-0.414	-1.416	-2.805	0	79	1028	1
2026-02-11	16:36:51.190	0.63	-10.535	29.435	0.091988	-0.022936	0.952332	-0.4215	-1.416	-2.8095	0	79	1028	1
2026-02-11	16:36:51.210	1.995	-9.8	27.615	0.07686	-0.01708	0.961848	-0.432	-1.4175	-2.8155	0	79	1024	1
2026-02-11	16:36:51.230	2.66	-8.575	25.165	0.062952	-0.013176	0.981368	-0.435	-1.4205	-2.8125	0	79	1024	1
2026-02-11	16:36:51.250	2.135	-6.895	22.085	0.066368	-0.003172	0.99796	-0.4275	-1.419	-2.808	0	79	1024	1
2026-02-11	16:36:51.270	1.365	-5.005	18.62	0.061976	0.010004	0.989664	-0.429	-1.41	-2.808	0	79	1024	1
2026-02-11	16:36:51.290	1.26	-3.465	14.98	0.06222	0.018788	0.98576	-0.4305	-1.41	-2.808	0	79	1024	1
2026-02-11	16:36:51.310	0.91	-2.73	11.725	0.066612	0.019276	0.999424	-0.435	-1.422	-2.805	0	79	1024	1
2026-02-11	16:36:51.330	0.035	-2.205	8.75	0.061244	0.019032	0.992348	-0.441	-1.4205	-2.802	0	79	1024	1
2026-02-11	16:36:51.350	-0.7	-1.435	5.95	0.061488	0.021472	0.98942	-0.438	-1.4175	-2.805	0	79	1024	1
2026-02-11	16:36:51.370	-0.98	-1.015	3.5	0.052704	0.020496	0.999912	-0.435	-1.4175	-2.808	0	79	1024	1
2026-02-11	16:36:51.390	-0.875	-1.015	0.77	0.037576	0.020008	1.003084	-0.435	-1.4145	-2.808	0	79	1024	1
2026-02-11	16:36:51.410	0.175	-0.385	-3.605	0.035868	0.021716	1.014552	-0.435	-1.413	-2.8095	0	79	1017	1
2026-02-11	16:36:51.430	0.455	0.735	-6.09	0.02684	0.018788	1.011136	-0.435	-1.413	-2.8095	0	79	1017	1
2026-02-11	16:36:51.450	0.665	1.575	-8.085	0.01098	0.019764	1.004548	-0.435	-1.4205	-2.8125	0	79	1017	1
2026-02-11	16:36:51.470	0.84	1.82	-9.555	0.02318	0.016348	1.011136	-0.4425	-1.416	-2.8065	0	79	1017	1
2026-02-11	16:36:51.490	0.35	1.715	-10.22	0.042212	0.01098	1.013332	-0.4395	-1.4145	-2.8065	0	79	1017	1
2026-02-11	16:36:51.510	-0.315	1.33	-10.255	0.055632	0.00244	1.015284	-0.444	-1.413	-2.805	0	79	1017	1
2026-02-11	16:36:51.530	-0.455	1.505	-10.43	0.070028	-0.016104	1.043344	-0.4335	-1.419	-2.8155	0	79	1017	1
2026-02-11	16:36:51.550	-0.49	2.905	-10.36	0.110044	-0.043676	1.079944	-0.438	-1.4175	-2.811	0	79	1017	1
2026-02-11	16:36:51.570	-0.105	5.355	-9.345	0.11224	-0.07564	1.0309	-0.4335	-1.4145	-2.8035	0	79	1017	1
2026-02-11	16:36:51.590	2.94	4.515	-8.61	0.0915	-0.090036	1.000156	-0.432	-1.4235	-2.82	0	79	1017	1
2026-02-11	16:36:51.610	8.68	0.77	-9.555	0.124684	-0.080276	1.017236	-0.435	-1.4265	-2.808	0	79	1017	1
2026-02-11	16:36:51.630	15.155	-1.435	-11.27	0.182268	-0.065148	1.071892	-0.426	-1.419	-2.808	0	79	1017	1
2026-02-11	16:36:51.650	20.895	-2.135	-12.425	0.214476	-0.073932	1.1407	-0.429	-1.416	-2.8125	0	79	1017	1
2026-02-11	16:36:51.670	23.205	-2.415	-12.355	0.185684	-0.083936	1.18706	-0.4305	-1.4205	-2.8095	0	79	1017	1
2026-02-11	16:36:51.690	20.685	-4.76	-11.865	0.1464	-0.072712	1.199016	-0.4305	-1.4205	-2.8095	0	79	1017	1
2026-02-11	16:36:51.710	15.61	-10.255	-12.705	0.16836	-0.066368	1.219268	-0.4305	-1.4235	-2.808	0	79	1017	1
2026-02-11	16:36:51.730	10.08	-16.765	-14.945	0.194468	-0.0732	1.243424	-0.429	-1.431	-2.808	0	79	1017	1
2026-02-11	16:36:51.750	5.565	-20.51	-18.235	0.211304	-0.076616	1.238544	-0.435	-1.437	-2.8065	0	79	1017	1
2026-02-11	16:36:51.770	2.87	-20.3	-22.47	0.218136	-0.07564	1.190476	-0.441	-1.4355	-2.8035	0	79	1017	1
2026-02-11	16:36:51.790	2.1	-17.885	-27.65	0.228872	-0.073444	1.119472	-0.441	-1.434	-2.8035	0	79	1017	1
2026-02-11	16:36:51.810	2.45	-15.225	-32.865	0.277184	-0.070272	1.06506	-0.4365	-1.443	-2.8065	0	80	1032	1
2026-02-11	16:36:51.830	2.66	-12.04	-36.61	0.341356	-0.088328	1.060912	-0.4365	-1.434	-2.802	0	80	1032	1
2026-02-11	16:36:51.850	1.12	-7.105	-38.01	0.352092	-0.093452	1.029924	-0.4275	-1.437	-2.799	0	80	1032	1
2026-02-11	16:36:51.870	-0.105	0	-38.255	0.359412	-0.076372	0.984296	-0.4335	-1.4355	-2.7945	0	80	1032	1
2026-02-11	16:36:51.890	-0.035	7.98	-37.765	0.38796	-0.064172	0.960872	-0.432	-1.437	-2.8035	0	80	1032	1
2026-02-11	16:36:51.910	-0.175	15.12	-36.295	0.427732	-0.030988	0.943792	-0.429	-1.4385	-2.811	0	80	1032	1
2026-02-11	16:36:51.930	-1.61	20.475	-33.88	0.426024	-0.023912	1.006256	-0.42	-1.4385	-2.808	0	80	1032	1
2026-02-11	16:36:51.950	-5.74	25.235	-30.205	0.38186	-0.012444	0.996984	-0.417	-1.4415	-2.802	0	80	1032	1
2026-02-11	16:36:51.970	-8.75	26.005	-28.84	0.332084	-0.005856	0.960384	-0.408	-1.44	-2.8065	0	80	1032	1
2026-02-11	16:36:51.990	-10.815	23.24	-28.98	0.288164	-0.004148	0.910608	-0.399	-1.443	-2.8095	0	80	1032	1
2026-02-11	16:36:52.010	-11.445	18.13	-30.31	0.25376	0	0.868884	-0.393	-1.443	-2.8125	0	85	1047	1
2026-02-11	16:36:52.030	-10.745	12.74	-32.2	0.232044	0.000244	0.863028	-0.39	-1.4385	-2.8155	0	85	1047	1
2026-02-11	16:36:52.050	-9.52	7.7	-34.23	0.210816	-0.010492	0.859124	-0.3915	-1.434	-2.814	0	85	1047	1
2026-02-11	16:36:52.070	-8.54	3.78	-36.015	0.194224	-0.016836	0.865956	-0.384	-1.431	-2.8185	0	85	1047	1
2026-02-11	16:36:52.090	-8.82	0.77	-36.715	0.196176	-0.014884	0.868884	-0.381	-1.434	-2.82	0	85	1047	1
2026-02-11	16:36:52.110	-9.975	-2.66	-36.225	0.199104	-0.013908	0.871812	-0.3825	-1.4355	-2.8185	0	85	1047	1
2026-02-11	16:36:52.130	-10.78	-5.705	-35.315	0.194224	-0.016104	0.866932	-0.378	-1.4295	-2.8155	0	85	1047	1
2026-02-11	16:36:52.150	-10.605	-6.895	-34.37	0.18544	-0.023668	0.856684	-0.372	-1.425	-2.8155	0	85	1047	1
2026-02-11	16:36:52.170	-9.45	-6.72	-33.18	0.184952	-0.026108	0.854	-0.3705	-1.4265	-2.8125	0	85	1047	1
2026-02-11	16:36:52.190	-8.225	-5.985	-31.675	0.191784	-0.033428	0.877424	-0.369	-1.4235	-2.8155	0	85	1047	1
2026-02-11	16:36:52.210	-7.945	-4.2	-29.435	0.190076	-0.02928	0.888404	-0.369	-1.419	-2.817	0	91	1039	1
2026-02-11	16:36:52.230	-7.7	-2.45	-27.3	0.19276	-0.015616	0.890112	-0.372	-1.419	-2.814	0	91	1039	1
2026-02-11	16:36:52.250	-6.755	-0.91	-25.935	0.195688	-0.01708	0.914268	-0.36	-1.4145	-2.8185	0	91	1039	1
2026-02-11	16:36:52.270	-6.02	1.54	-24.15	0.189832	-0.01464	0.946232	-0.363	-1.413	-2.8125	0	91	1039	1
2026-02-11	16:36:52.290	-6.44	4.095	-22.295	0.19276	-0.020984	0.965264	-0.366	-1.413	-2.817	0	91	1039	1
2026-02-11	16:36:52.310	-7.735	5.705	-19.95	0.185684	-0.021472	0.958676	-0.3645	-1.413	-2.8185	0	91	1039	1
2026-02-11	16:36:52.330	-8.26	6.615	-17.71	0.199348	-0.018544	0.954528	-0.3615	-1.4145	-2.8185	0	91	1039	1
2026-02-11	16:36:52.350	-8.505	6.93	-15.19	0.211792	-0.018788	0.969656	-0.3555	-1.41	-2.8185	0	91	1039	1
2026-02-11	16:36:52.370	-9.24	6.3	-12.18	0.211792	-0.02074	0.98942	-0.3555	-1.407	-2.8155	0	91	1039	1
2026-02-11	16:36:52.390	-10.255	4.725	-9.415	0.203252	-0.016348	0.996496	-0.357	-1.4085	-2.8155	0	91	1039	1
2026-02-11	16:36:52.410	-10.255	2.38	-7.665	0.189588	-0.016836	0.987956	-0.3555	-1.407	-2.8185	0	96	1017	1
2026-02-11	16:36:52.430	-8.82	0.385	-7.21	0.169336	-0.010004	0.970876	-0.3555	-1.404	-2.8215	0	96	1017	1
2026-02-11	16:36:52.450	-5.915	-0.665	-7.49	0.165432	0.002196	0.975268	-0.354	-1.3995	-2.8215	0	96	1017	1
2026-02-11	16:36:52.470	-3.675	-1.015	-7.315	0.155428	0.0122	0.979904	-0.3465	-1.3995	-2.8215	0	96	1017	1
2026-02-11	16:36:52.490	-2.94	-0.91	-6.125	0.153964	0.023424	0.99064	-0.345	-1.4025	-2.8245	0	96	1017	1
2026-02-11	16:36:52.510	-3.535	0	-5.39	0.164456	0.019032	0.994788	-0.345	-1.4025	-2.8245	0	96	1017	1
2026-02-11	16:36:52.530	-4.34	1.365	-4.935	0.165432	0.025376	0.981612	-0.3495	-1.4025	-2.832	0	96	1017	1
2026-02-11	16:36:52.550	-4.655	3.115	-5.075	0.156404	0.041968	0.970144	-0.351	-1.4025	-2.814	0	96	1017	1
2026-02-11	16:36:52.570	-4.55	5.04	-5.495	0.163724	0.046604	0.975512	-0.3495	-1.398	-2.817	0	96	1017	1
2026-02-11	16:36:52.590	-5.25	6.685	-5.74	0.162016	0.051484	0.978196	-0.345	-1.395	-2.811	0	96	1017	1
2026-02-11	16:36:52.610	-6.615	7.245	-5.705	0.173972	0.047824	1.00162	-0.3495	-1.392	-2.8215	0	99	1003	1
2026-02-11	16:36:52.630	-8.365	7.315	-5.215	0.182756	0.054412	1.02846	-0.336	-1.392	-2.823	0	99	1003	1
2026-02-11	16:36:52.650	-10.185	7.7	-5.355	0.168116	0.05856	1.039196	-0.3465	-1.3965	-2.82	0	99	1003	1
2026-02-11	16:36:52.670	-11.515	8.05	-6.72	0.145668	0.070028	1.021384	-0.3345	-1.3935	-2.823	0	99	1003	1
2026-02-11	16:36:52.690	-11.76	7.28	-9.065	0.143228	0.066368	1.022604	-0.3405	-1.392	-2.817	0	99	1003	1
2026-02-11	16:36:52.710	-11.41	5.565	-10.85	0.151524	0.049776	1.032364	-0.3405	-1.3845	-2.8245	0	99	1003	1
2026-02-11	16:36:52.730	-10.395	4.13	-11.48	0.160064	0.035868	1.07604	-0.339	-1.383	-2.8275	0	99	1003	1
2026-02-11	16:36:52.750	-9.765	3.08	-10.71	0.160796	0.02074	1.113372	-0.3285	-1.38	-2.8215	0	99	1003	1
2026-02-11	16:36:52.770	-8.645	0.385	-9.24	0.132004	-0.020496	1.155828	-0.3285	-1.38	-2.8215	0	99	1003	1
2026-02-11	16:36:52.790	-5.67	-1.47	-9.065	0.124684	-0.052704	1.202432	-0.33	-1.3815	-2.823	0	99	1003	1
2026-02-11	16:36:52.810	-2.24	0	-8.82	0.135664	-0.066856	1.212192	-0.333	-1.383	-2.826	0	100	1006	1
2026-02-11	16:36:52.830	0.21	1.96	-7.175	0.14518	-0.072956	1.200236	-0.336	-1.377	-2.82	0	100	1006	1
2026-02-11	16:36:52.850	1.05	1.295	-3.85	0.177632	-0.086132	1.222196	-0.3345	-1.38	-2.814	0	100	1006	1
2026-02-11	16:36:52.870	-0.595	-0.77	0.21	0.217892	-0.097112	1.258064	-0.3225	-1.3785	-2.811	0	100	1006	1
2026-02-11	16:36:52.890	-4.585	-2.905	4.095	0.244	-0.120048	1.278804	-0.327	-1.38	-2.814	0	100	1006	1
2026-02-11	16:36:52.910	-9.73	-4.76	7.385	0.261812	-0.14518	1.255868	-0.33	-1.3695	-2.811	0	100	1006	1
2026-02-11	16:36:52.930	-13.16	-6.825	9.555	0.248636	-0.154452	1.161684	-0.327	-1.3695	-2.814	0	100	1006	1
2026-02-11	16:36:52.950	-12.215	-9.065	9.765	0.21594	-0.15616	1.061888	-0.3255	-1.371	-2.82	0	100	1006	1
2026-02-11	16:36:52.970	-6.755	-10.745	7.875	0.186172	-0.16592	0.966972	-0.321	-1.3725	-2.8125	0	100	1006	1
2026-02-11	16:36:52.990	1.4	-10.185	4.41	0.172264	-0.175436	0.935984	-0.336	-1.3635	-2.8245	0	100	1006	1
2026-02-11	16:36:53.010	7.98	-6.86	0.805	0.178852	-0.198616	0.959652	-0.342	-1.365	-2.8305	0	101	1030	1
2026-02-11	16:36:53.030	7.805	-3.885	-0.175	0.215452	-0.22936	1.015528	-0.339	-1.371	-2.8215	0	101	1030	1
2026-02-11	16:36:53.050	1.68	-3.045	2.73	0.186416	-0.244244	0.99918	-0.339	-1.3725	-2.82	0	101	1030	1
2026-02-11	16:36:53.070	-1.435	-2.555	5.915	0.15982	-0.246928	0.966484	-0.3405	-1.371	-2.826	0	101	1030	1
2026-02-11	16:36:53.090	-1.225	-1.855	8.155	0.134688	-0.245708	0.953552	-0.3405	-1.3695	-2.829	0	101	1030	1
2026-02-11	16:36:53.110	0.49	-0.315	8.89	0.1037	-0.238876	0.948672	-0.3405	-1.3665	-2.8245	0	101	1030	1
2026-02-11	16:36:53.130	1.68	1.82	8.26	0.0671	-0.237168	0.920124	-0.345	-1.368	-2.8245	0	101	1030	1
2026-02-11	16:36:53.150	1.89	3.255	7.525	0.05368	-0.228628	0.888892	-0.3465	-1.374	-2.826	0	101	1030	1
2026-02-11	16:36:53.170	1.645	3.57	7.805	0.058072	-0.222528	0.855708	-0.342	-1.377	-2.829	0	101	1030	1
2026-02-11	16:36:53.190	1.225	3.92	9.66	0.066368	-0.2013	0.852536	-0.3405	-1.3755	-2.8305	0	101	1030	1
2026-02-11	16:36:53.210	-0.245	5.565	13.055	0.092232	-0.1952	0.887184	-0.342	-1.3755	-2.8275	0	104	1044	1
2026-02-11	16:36:53.230	-3.885	8.855	17.465	0.0976	-0.177144	0.875228	-0.342	-1.3785	-2.8245	0	104	1044	1
2026-02-11	16:36:53.250	-8.47	11.55	21.385	0.102236	-0.147864	0.842532	-0.3435	-1.377	-2.8275	0	104	1044	1
2026-02-11	16:36:53.270	-11.69	11.13	23.905	0.109312	-0.133712	0.799344	-0.345	-1.377	-2.8245	0	104	1044	1
2026-02-11	16:36:53.290	-12.985	9.485	25.795	0.115412	-0.123464	0.775676	-0.3405	-1.3785	-2.826	0	104	1044	1
2026-02-11	16:36:53.310	-12.565	9.8	27.3	0.07905599	-0.1098	0.75762	-0.342	-1.3755	-2.832	0	104	1044	1
2026-02-11	16:36:53.330	-12.04	9.52	26.95	0.0793	-0.10736	0.768356	-0.3435	-1.371	-2.8335	0	104	1044	1
2026-02-11	16:36:53.350	-11.795	7.49	26.04	0.070028	-0.10736	0.787632	-0.3345	-1.368	-2.829	0	104	1044	1
2026-02-11	16:36:53.370	-11.375	5.285	25.62	0.058072	-0.103456	0.81618	-0.333	-1.368	-2.8275	0	104	1044	1
2026-02-11	16:36:53.390	-10.535	4.2	24.85	0.043188	-0.099308	0.844484	-0.339	-1.368	-2.829	0	104	1044	1
2026-02-11	16:36:53.410	-9.555	2.8	24.185	0.046848	-0.094428	0.892308	-0.3435	-1.365	-2.8275	0	109	1027	1
2026-02-11	16:36:53.430	-10.36	1.085	24.08	0.05368	-0.087596	0.923784	-0.3435	-1.362	-2.8275	0	109	1027	1
2026-02-11	16:36:53.450	-11.795	-2.765	23.94	0.042456	-0.055876	0.920368	-0.342	-1.359	-2.8305	0	109	1027	1
2026-02-11	16:36:53.470	-11.06	-9.485	22.575	0.024156	-0.0549	0.908656	-0.3465	-1.359	-2.832	0	109	1027	1
2026-02-11	16:36:53.490	-6.79	-16.94	20.125	0.009516	-0.071492	0.936716	-0.345	-1.362	-2.8335	0	109	1027	1
2026-02-11	16:36:53.510	-1.085	-21.035	17.85	0.008296	-0.101016	1.014796	-0.3465	-1.3605	-2.8305	0	109	1027	1
2026-02-11	16:36:53.530	2.66	-21.56	16.555	0.001464	-0.103212	1.085068	-0.354	-1.356	-2.826	0	109	1027	1
2026-02-11	16:36:53.550	4.865	-21.175	14.105	-0.033916	-0.08662	1.096048	-0.36	-1.3605	-2.826	0	109	1027	1
2026-02-11	16:36:53.570	7.315	-22.82	8.295	-0.029768	-0.066124	1.121668	-0.36	-1.365	-2.829	0	109	1027	1
2026-02-11	16:36:53.590	8.89	-23.73	2.24	0.034404	-0.066856	1.194868	-0.36	-1.365	-2.829	0	109	1027	1
2026-02-11	16:36:53.610	8.575	-20.16	-1.61	0.061732	-0.06734399	1.198772	-0.3675	-1.3575	-2.8215	0	115	1004	1
2026-02-11	16:36:53.630	8.4	-14.525	-4.865	0.081496	-0.060512	1.162172	-0.36	-1.362	-2.8245	0	115	1004	1
2026-02-11	16:36:53.650	8.89	-11.935	-7.42	0.15372	-0.066368	1.153388	-0.363	-1.362	-2.8245	0	115	1004	1
2026-02-11	16:36:53.670	9.205	-12.95	-9.38	0.21594	-0.08906	1.161928	-0.3675	-1.3605	-2.823	0	115	1004	1
2026-02-11	16:36:53.690	9.835	-16.1	-11.585	0.21228	-0.129076	1.184132	-0.3735	-1.359	-2.8185	0	115	1004	1
2026-02-11	16:36:53.710	10.745	-18.62	-15.33	0.223504	-0.158112	1.214632	-0.378	-1.3725	-2.8275	0	115	1004	1
2026-02-11	16:36:53.730	12.215	-18.165	-20.195	0.224236	-0.160308	1.162416	-0.375	-1.374	-2.823	0	115	1004	1
2026-02-11	16:36:53.750	16.345	-15.645	-25.62	0.22082	-0.143228	1.089948	-0.3825	-1.3695	-2.817	0	115	1004	1
2026-02-11	16:36:53.770	22.155	-11.41	-30.975	0.251808	-0.128588	1.055056	-0.384	-1.3695	-2.8245	0	115	1004	1
2026-02-11	16:36:53.790	26.6	-6.195	-34.965	0.299876	-0.127124	1.046272	-0.369	-1.368	-2.817	0	115	1004	1
2026-02-11	16:36:53.810	28.105	-0.945	-36.365	0.322324	-0.122	1.050176	-0.378	-1.3845	-2.8215	0	122	1010	1
2026-02-11	16:36:53.830	26.565	4.375	-35.315	0.343308	-0.111996	1.036268	-0.3795	-1.389	-2.8155	0	122	1010	1
2026-02-11	16:36:53.850	20.475	10.92	-30.065	0.359168	-0.10004	1.07238	-0.3825	-1.3935	-2.8095	0	122	1010	1
2026-02-11	16:36:53.870	14.84	15.4	-26.67	0.332572	-0.097356	1.061888	-0.375	-1.3905	-2.8095	0	122	1010	1
2026-02-11	16:36:53.890	9.765	20.02	-24.43	0.293044	-0.089792	1.027972	-0.3555	-1.3995	-2.817	0	122	1010	1
2026-02-11	16:36:53.910	4.795	22.61	-22.925	0.267668	-0.083448	0.987468	-0.357	-1.3965	-2.8095	0	122	1010	1
2026-02-11	16:36:53.930	0.35	21.56	-22.155	0.250344	-0.071004	0.935496	-0.366	-1.4025	-2.8095	0	122	1010	1
2026-02-11	16:36:53.950	-1.68	17.85	-22.54	0.22692	-0.054656	0.89792	-0.3525	-1.392	-2.8125	0	122	1010	1
2026-02-11	16:36:53.970	-1.19	13.965	-24.43	0.204472	-0.043188	0.883524	-0.3555	-1.398	-2.808	0	122	1010	1
2026-02-11	16:36:53.990	-0.49	11.41	-26.46	0.181048	-0.025132	0.859612	-0.3435	-1.3995	-2.8095	0	122	1010	1
2026-02-11	16:36:54.010	-0.735	8.435	-27.37	0.178608	-0.015372	0.838872	-0.345	-1.4025	-2.811	0	128	1023	1
2026-02-11	16:36:54.030	-1.47	4.165	-27.265	0.174704	-0.016104	0.833992	-0.3435	-1.395	-2.8095	0	128	1023	1
2026-02-11	16:36:54.050	-2.59	0.245	-26.39	0.170068	-0.008296	0.837164	-0.3405	-1.401	-2.8155	0	128	1023	1
2026-02-11	16:36:54.070	-3.57	-2.345	-25.41	0.171532	-0.006344	0.83082	-0.3315	-1.3935	-2.805	0	128	1023	1
2026-02-11	16:36:54.090	-4.025	-3.71	-24.29	0.174948	-0.004148	0.825208	-0.336	-1.3875	-2.8125	0	128	1023	1
2026-02-11	16:36:54.110	-4.795	-3.71	-22.085	0.157624	-0.010004	0.820084	-0.3465	-1.395	-2.817	0	128	1023	1
2026-02-11	16:36:54.130	-6.615	-2.835	-19.215	0.148352	-0.004148	0.816912	-0.342	-1.3935	-2.814	0	128	1023	1
2026-02-11	16:36:54.150	-7.77	-2.835	-16.8	0.14762	-0.00244	0.8357	-0.3375	-1.3905	-2.814	0	128	1023	1
2026-02-11	16:36:54.170	-7.945	-3.29	-15.295	0.144692	-0.005368	0.872544	-0.336	-1.389	-2.817	0	128	1023	1
2026-02-11	16:36:54.190	-7.98	-3.045	-14.665	0.142252	-0.00488	0.899872	-0.336	-1.3905	-2.82	0	128	1023	1
2026-02-11	16:36:54.210	-8.4	-3.115	-14.28	0.144936	-0.008052	0.93086	-0.3405	-1.392	-2.814	0	134	1016	1
2026-02-11	16:36:54.230	-9.31	-3.99	-13.335	0.160552	-0.006832	0.959896	-0.3405	-1.3905	-2.811	0	134	1016	1
2026-02-11	16:36:54.250	-10.5	-4.62	-11.725	0.15738	-0.005368	0.967704	-0.336	-1.3875	-2.811	0	134	1016	1
2026-02-11	16:36:54.270	-10.885	-4.795	-9.94	0.149084	0.001952	0.950868	-0.333	-1.383	-2.814	0	134	1016	1
2026-02-11	16:36:54.290	-9.625	-5.355	-8.435	0.160064	-0.000488	0.980636	-0.3345	-1.38	-2.8155	0	134	1016	1
2026-02-11	16:36:54.310	-7.84	-5.845	-7.07	0.16836	-0.015616	1.021628	-0.339	-1.3785	-2.8155	0	134	1016	1
2026-02-11	16:36:54.330	-6.895	-5.11	-5.39	0.186904	-0.026352	1.084336	-0.342	-1.3785	-2.82	0	134	1016	1
2026-02-11	16:36:54.350	-6.545	-3.465	-3.325	0.211548	-0.034648	1.146068	-0.3405	-1.3785	-2.8275	0	134	1016	1
2026-02-11	16:36:54.370	-6.65	-1.33	-1.015	0.213744	-0.029768	1.162416	-0.3405	-1.377	-2.814	0	134	1016	1
2026-02-11	16:36:54.390	-5.845	1.4	0.49	0.190808	-0.03294	1.170224	-0.333	-1.374	-2.817	0	134	1016	1
2026-02-11	16:36:54.410	-5.39	2.8	1.295	0.185196	-0.037576	1.191208	-0.336	-1.3695	-2.8215	0	137	1005	1
2026-02-11	16:36:54.430	-5.705	5.32	2.415	0.171288	-0.031964	1.202676	-0.3345	-1.3695	-2.8215	0	137	1005	1
2026-02-11	16:36:54.450	-6.825	7.63	3.15	0.18544	-0.015616	1.247816	-0.3345	-1.371	-2.82	0	137	1005	1
2026-02-11	16:36:54.470	-9.87	8.68	3.78	0.209108	-0.033916	1.314672	-0.336	-1.3635	-2.82	0	137	1005	1
2026-02-11	16:36:54.490	-14.91	9.03	4.06	0.201056	-0.05856	1.346148	-0.333	-1.359	-2.814	0	137	1005	1
2026-02-11	16:36:54.510	-19.81	8.54	3.605	0.203984	-0.09028	1.341756	-0.3345	-1.3635	-2.8185	0	137	1005	1
2026-02-11	16:36:54.530	-23.485	6.3	3.08	0.219356	-0.127124	1.301984	-0.333	-1.3665	-2.823	0	137	1005	1
2026-02-11	16:36:54.550	-24.29	2.625	1.82	0.219844	-0.1647	1.193892	-0.3315	-1.359	-2.8155	0	137	1005	1
2026-02-11	16:36:54.570	-19.46	0.7	-1.26	0.21838	-0.174704	1.05164	-0.3315	-1.3515	-2.811	0	137	1005	1
2026-02-11	16:36:54.590	-9.1	3.22	-5.495	0.197396	-0.16958	0.932568	-0.33	-1.347	-2.8125	0	137	1005	1
2026-02-11	16:36:54.610	2.38	8.575	-8.785	0.198128	-0.172264	0.916952	-0.33	-1.3455	-2.814	0	140	1023	1
2026-02-11	16:36:54.630	9.345	13.72	-8.96	0.23668	-0.17202	0.96868	-0.3315	-1.347	-2.8155	0	140	1023	1
2026-02-11	16:36:54.650	9.415	17.22	-4.445	0.257176	-0.163968	0.994544	-0.3255	-1.347	-2.8065	0	140	1023	1
2026-02-11	16:36:54.670	6.125	19.635	0.35	0.237656	-0.1464	0.997228	-0.3195	-1.3455	-2.8005	0	140	1023	1
2026-02-11	16:36:54.690	3.22	21.98	2.45	0.207156	-0.133956	0.970388	-0.3075	-1.3545	-2.802	0	140	1023	1
2026-02-11	16:36:54.710	0.98	23.17	2.8	0.172996	-0.141276	0.93452	-0.3195	-1.3545	-2.814	0	140	1023	1
2026-02-11	16:36:54.730	-0.84	21.49	2.03	0.13298	-0.14884	0.874252	-0.315	-1.3545	-2.811	0	140	1023	1
2026-02-11	16:36:54.750	-1.61	17.15	0.875	0.102724	-0.156404	0.836676	-0.3165	-1.3575	-2.8035	0	140	1023	1
2026-02-11	16:36:54.770	-1.26	12.145	-0.21	0.084912	-0.15494	0.832284	-0.303	-1.3515	-2.8035	0	140	1023	1
2026-02-11	16:36:54.790	0.14	8.155	-1.33	0.07808	-0.144692	0.823256	-0.294	-1.3485	-2.808	0	140	1023	1
2026-02-11	16:36:54.810	1.715	5.845	-2.17	0.074176	-0.130296	0.823744	-0.3	-1.3515	-2.805	0	144	1038	1
2026-02-11	16:36:54.830	2.73	4.2	-2.135	0.057828	-0.114436	0.803736	-0.297	-1.3635	-2.8215	0	144	1038	1
2026-02-11	16:36:54.850	2.94	1.61	-1.61	0.037332	-0.107604	0.789096	-0.294	-1.362	-2.8035	0	144	1038	1
2026-02-11	16:36:54.870	2.31	-1.365	-0.84	0.0183	-0.101992	0.779824	-0.297	-1.3605	-2.799	0	144	1038	1
2026-02-11	16:36:54.890	1.4	-3.745	0.105	0.028548	-0.09394	0.772992	-0.2985	-1.3605	-2.799	0	144	1038	1
2026-02-11	16:36:54.910	1.015	-5.565	1.015	0.052216	-0.088816	0.776652	-0.3015	-1.359	-2.8005	0	144	1038	1
2026-02-11	16:36:54.930	1.19	-5.04	2.66	0.030988	-0.090524	0.819108	-0.3075	-1.3575	-2.799	0	144	1038	1
2026-02-11	16:36:54.950	0.805	-1.96	3.92	0.015616	-0.088572	0.859124	-0.3075	-1.3575	-2.799	0	144	1038	1
2026-02-11	16:36:54.970	0.315	1.96	4.375	0.03172	-0.091744	0.884012	-0.309	-1.365	-2.805	0	144	1038	1
2026-02-11	16:36:54.990	0.21	4.97	4.235	0.031232	-0.08686399	0.898896	-0.306	-1.356	-2.811	0	144	1038	1
2026-02-11	16:36:55.010	0.525	7.49	3.92	0.020984	-0.071004	0.89914	-0.306	-1.3575	-2.8035	0	147	1021	1
2026-02-11	16:36:55.030	1.155	9.555	3.815	0.02684	-0.060512	0.909876	-0.306	-1.359	-2.805	0	147	1021	1
2026-02-11	16:36:55.050	1.085	9.205	4.025	0.018788	-0.044652	0.939644	-0.306	-1.35	-2.805	0	147	1021	1
2026-02-11	16:36:55.070	-0.105	7	3.92	0.008296	-0.051484	0.99674	-0.3075	-1.3545	-2.811	0	147	1021	1
2026-02-11	16:36:55.090	-2.17	5.915	3.255	-0.009272	-0.057096	1.032852	-0.309	-1.3575	-2.808	0	147	1021	1
2026-02-11	16:36:55.110	-3.535	5.53	1.61	-0.031476	-0.056852	1.051152	-0.3105	-1.365	-2.817	0	147	1021	1
2026-02-11	16:36:55.130	-3.675	3.955	-0.91	-0.046848	-0.044896	1.045052	-0.3105	-1.359	-2.8065	0	147	1021	1
2026-02-11	16:36:55.150	-2.73	1.225	-4.445	-0.064416	-0.035136	1.058228	-0.3075	-1.3605	-2.8185	0	147	1021	1
2026-02-11	16:36:55.170	-1.19	-1.785	-8.925	-0.055876	-0.033184	1.08214	-0.3	-1.3635	-2.811	0	147	1021	1
2026-02-11	16:36:55.190	1.19	-4.165	-15.12	-0.016592	-0.043188	1.113128	-0.3	-1.3635	-2.808	0	147	1021	1
2026-02-11	16:36:55.210	3.43	-4.725	-19.95	0.057096	-0.065148	1.145824	-0.3	-1.3635	-2.808	0	150	1002	1
2026-02-11	16:36:55.230	4.2	-4.13	-21.84	0.08906	-0.083692	1.151436	-0.297	-1.359	-2.808	0	150	1002	1
2026-02-11	16:36:55.250	4.34	-5.005	-23.03	0.081984	-0.085156	1.141676	-0.2955	-1.3575	-2.8065	0	150	1002	1
2026-02-11	16:36:55.270	3.185	-9.415	-23.765	0.11468	-0.091012	1.185596	-0.2955	-1.356	-2.802	0	150	1002	1
2026-02-11	16:36:55.290	-0.91	-16.52	-23.275	0.194224	-0.097356	1.274168	-0.3015	-1.353	-2.805	0	150	1002	1
2026-02-11	16:36:55.310	-6.37	-20.65	-22.75	0.237656	-0.11102	1.281	-0.3045	-1.3545	-2.8095	0	150	1002	1
2026-02-11	16:36:55.330	-8.225	-17.605	-24.325	0.2074	-0.110776	1.192916	-0.3045	-1.35	-2.8095	0	150	1002	1
2026-02-11	16:36:55.350	-5.845	-11.585	-28.28	0.189588	-0.115168	1.081408	-0.306	-1.3485	-2.8095	0	150	1002	1
2026-02-11	16:36:55.370	-1.96	-6.93	-32.41	0.2013	-0.122732	0.998204	-0.306	-1.344	-2.808	0	150	1002	1
2026-02-11	16:36:55.390	1.89	-2.555	-34.86	0.23424	-0.105408	0.961116	-0.3045	-1.3395	-2.8095	0	150	1002	1
2026-02-11	16:36:55.410	5.495	2.73	-34.685	0.30134	-0.092476	0.979172	-0.3075	-1.3425	-2.802	0	153	1010	1
2026-02-11	16:36:55.430	7.63	9.065	-31.185	0.368684	-0.074176	1.035048	-0.3015	-1.344	-2.7945	0	153	1010	1
2026-02-11	16:36:55.450	7.525	14.91	-25.62	0.361608	-0.056852	1.06262	-0.3	-1.3455	-2.8065	0	153	1010	1
2026-02-11	16:36:55.470	5.145	17.5	-19.04	0.30988	-0.046116	1.055788	-0.291	-1.3395	-2.8035	0	153	1010	1
2026-02-11	16:36:55.490	3.43	16.38	-16.73	0.274012	-0.036844	1.009428	-0.2955	-1.3425	-2.8035	0	153	1010	1
2026-02-11	16:36:55.510	3.36	13.755	-15.68	0.227896	-0.033184	0.933788	-0.294	-1.3485	-2.8035	0	153	1010	1
2026-02-11	16:36:55.530	4.76	9.1	-15.645	0.176656	-0.037088	0.872056	-0.2895	-1.35	-2.8005	0	153	1010	1
2026-02-11	16:36:55.550	5.915	2.975	-16.065	0.126636	-0.033428	0.846192	-0.291	-1.3455	-2.802	0	153	1010	1
2026-02-11	16:36:55.570	6.125	-2.8	-16.485	0.102236	-0.033672	0.852536	-0.2835	-1.344	-2.802	0	153	1010	1
2026-02-11	16:36:55.590	5.74	-6.44	-17.185	0.099552	-0.035624	0.849852	-0.282	-1.3485	-2.8005	0	153	1010	1
2026-02-11	16:36:55.610	5.145	-7.105	-17.745	0.088084	-0.040504	0.835212	-0.288	-1.356	-2.8065	0	156	1021	1
2026-02-11	16:36:55.630	4.865	-6.405	-17.92	0.05246	-0.028548	0.7991	-0.285	-1.3575	-2.802	0	156	1021	1
2026-02-11	16:36:55.650	4.935	-7.665	-18.305	0.044896	-0.016348	0.771528	-0.2865	-1.3575	-2.7975	0	156	1021	1
2026-02-11	16:36:55.670	5.005	-10.36	-18.83	0.07564	-0.015128	0.798612	-0.285	-1.3545	-2.8005	0	156	1021	1
2026-02-11	16:36:55.690	4.13	-11.06	-18.13	0.103456	-0.0122	0.828136	-0.2805	-1.35	-2.8035	0	156	1021	1
2026-02-11	16:36:55.710	2.625	-9.8	-16.24	0.108092	0.001708	0.840336	-0.285	-1.35	-2.8035	0	156	1021	1
2026-02-11	16:36:55.730	0.91	-7.595	-13.37	0.110776	0.00732	0.857416	-0.2865	-1.3515	-2.8005	0	156	1021	1
2026-02-11	16:36:55.750	-1.33	-5.6	-9.765	0.1098	-0.002928	0.897432	-0.285	-1.3545	-2.799	0	156	1021	1
2026-02-11	16:36:55.770	-3.57	-4.305	-6.72	0.113948	-0.009272	0.941108	-0.294	-1.35	-2.811	0	156	1021	1
2026-02-11	16:36:55.790	-5.705	-2.135	-4.585	0.127368	-0.007808	0.975756	-0.279	-1.35	-2.8065	0	156	1021	1
2026-02-11	16:36:55.810	-7.245	1.05	-2.87	0.122244	-0.005856	1.00284	-0.288	-1.3485	-2.8065	0	158	1011	1
2026-02-11	16:36:55.830	-8.82	4.515	-1.645	0.125904	-0.015372	1.04554	-0.2745	-1.353	-2.796	0	158	1011	1
2026-02-11	16:36:55.850	-11.34	6.965	-0.105	0.112972	-0.027816	1.064328	-0.2925	-1.3455	-2.7975	0	158	1011	1
2026-02-11	16:36:55.870	-13.65	5.95	2.695	0.113704	-0.040992	1.085556	-0.2895	-1.341	-2.8005	0	158	1011	1
2026-02-11	16:36:55.890	-14.875	3.57	6.055	0.118096	-0.04636	1.107272	-0.2835	-1.3365	-2.793	0	158	1011	1
2026-02-11	16:36:55.910	-13.65	3.36	8.435	0.12078	-0.043188	1.150216	-0.2835	-1.329	-2.781	0	158	1011	1
2026-02-11	16:36:55.930	-11.165	6.545	9.45	0.10614	-0.042212	1.149972	-0.2835	-1.3275	-2.7915	0	158	1011	1
2026-02-11	16:36:55.950	-8.68	9.485	9.485	0.055388	-0.029524	1.103856	-0.285	-1.3275	-2.8035	0	158	1011	1
2026-02-11	16:36:55.970	-5.985	9.45	9.17	0.0366	-0.024156	1.090436	-0.285	-1.3275	-2.802	0	158	1011	1
2026-02-11	16:36:55.990	-3.955	8.47	9.975	0.055144	-0.029524	1.146556	-0.2805	-1.3215	-2.805	0	158	1011	1
2026-02-11	16:36:56.010	-3.85	9.38	13.09	0.106384	-0.038552	1.229272	-0.2775	-1.3185	-2.8095	0	159	1007	1
2026-02-11	16:36:56.030	-4.13	10.5	14.245	0.112484	-0.038552	1.225612	-0.2775	-1.3185	-2.8095	0	159	1007	1
2026-02-11	16:36:56.050	-3.255	8.155	14.455	0.121512	-0.043432	1.21024	-0.279	-1.329	-2.805	0	159	1007	1
2026-02-11	16:36:56.070	-2.835	1.75	15.085	0.161284	-0.077836	1.25538	-0.2715	-1.323	-2.805	0	159	1007	1
2026-02-11	16:36:56.090	-4.585	-6.86	17.43	0.1952	-0.1342	1.285148	-0.273	-1.332	-2.8005	0	159	1007	1
2026-02-11	16:36:56.110	-7.875	-13.79	21.14	0.1891	-0.16226	1.257332	-0.2865	-1.326	-2.799	0	159	1007	1
2026-02-11	16:36:56.130	-9.31	-17.36	24.15	0.188124	-0.176168	1.192916	-0.285	-1.3275	-2.802	0	159	1007	1
2026-02-11	16:36:56.150	-7.77	-19.845	24.745	0.180804	-0.164944	1.097268	-0.288	-1.323	-2.796	0	159	1007	1
2026-02-11	16:36:56.170	-2.73	-22.12	22.12	0.189344	-0.142252	1.009916	-0.2955	-1.3275	-2.7915	0	159	1007	1
2026-02-11	16:36:56.190	4.55	-22.715	17.92	0.203252	-0.128588	0.944524	-0.2985	-1.3245	-2.8005	0	159	1007	1
2026-02-11	16:36:56.210	12.425	-20.545	14.665	0.211548	-0.142008	0.915488	-0.3015	-1.3245	-2.799	0	159	1028	1
2026-02-11	16:36:56.230	18.41	-16.135	13.335	0.216916	-0.16714	0.919148	-0.3045	-1.332	-2.799	0	159	1028	1
2026-02-11	16:36:56.250	21.14	-10.325	13.755	0.230824	-0.171044	0.956236	-0.3075	-1.3365	-2.802	0	159	1028	1
2026-02-11	16:36:56.270	18.97	-1.82	15.925	0.244	-0.155428	1.0065	-0.303	-1.3425	-2.793	0	159	1028	1
2026-02-11	16:36:56.290	13.58	4.935	17.92	0.206424	-0.152012	0.97234	-0.303	-1.3425	-2.793	0	159	1028	1
2026-02-11	16:36:56.310	10.675	8.015	17.535	0.182268	-0.152256	0.946232	-0.3015	-1.3455	-2.793	0	159	1028	1
2026-02-11	16:36:56.330	7.525	10.885	16.345	0.16348	-0.161284	0.94672	-0.312	-1.353	-2.799	0	159	1028	1
2026-02-11	16:36:56.350	2.485	12.075	15.925	0.121268	-0.156892	0.924272	-0.312	-1.356	-2.799	0	159	1028	1
2026-02-11	16:36:56.370	-2.03	10.43	16.1	0.091256	-0.149816	0.888892	-0.3075	-1.3575	-2.7945	0	159	1028	1
2026-02-11	16:36:56.390	-4.62	8.015	16.45	0.076616	-0.146644	0.859368	-0.3105	-1.3605	-2.799	0	159	1028	1
2026-02-11	16:36:56.410	-5.32	6.02	17.43	0.061732	-0.141764	0.842532	-0.3105	-1.359	-2.802	0	159	1041	1
2026-02-11	16:36:56.430	-4.62	3.885	19.11	0.045628	-0.130784	0.826428	-0.312	-1.3575	-2.799	0	159	1041	1
2026-02-11	16:36:56.450	-3.01	1.575	21.21	0.029524	-0.118584	0.809592	-0.3195	-1.3665	-2.796	0	159	1041	1
2026-02-11	16:36:56.470	-1.645	-0.84	23.065	0.039284	-0.10126	0.792512	-0.312	-1.365	-2.8035	0	159	1041	1
2026-02-11	16:36:56.490	-0.56	-4.375	24.22	0.047336	-0.095892	0.783972	-0.312	-1.356	-2.7915	0	159	1041	1
2026-02-11	16:36:56.510	0.56	-8.085	24.955	0.049044	-0.081252	0.789096	-0.3165	-1.3635	-2.793	0	159	1041	1
2026-02-11	16:36:56.530	2.03	-10.78	25.34	0.059048	-0.069784	0.794952	-0.318	-1.353	-2.7975	0	159	1041	1
2026-02-11	16:36:56.550	3.99	-14.525	25.725	0.065148	-0.093696	0.85156	-0.3225	-1.368	-2.799	0	159	1041	1
2026-02-11	16:36:56.570	3.57	-13.93	25.935	0.057828	-0.081984	0.89914	-0.3255	-1.365	-2.7975	0	159	1041	1
2026-02-11	16:36:56.590	2.835	-10.43	25.515	0.04514	-0.05612	0.919148	-0.3315	-1.3635	-2.799	0	159	1041	1
2026-02-11	16:36:56.610	3.675	-7.14	24.22	0.0549	-0.048556	0.961604	-0.3285	-1.362	-2.799	0	158	1026	1
2026-02-11	16:36:56.630	2.87	-4.9	22.785	0.061976	-0.054168	1.005768	-0.327	-1.362	-2.7945	0	158	1026	1
2026-02-11	16:36:56.650	0.7	-3.465	21.14	0.069052	-0.053436	1.033096	-0.327	-1.3635	-2.79	0	158	1026	1
2026-02-11	16:36:56.670	-0.805	-1.155	18.69	0.049532	-0.04514	1.028704	-0.33	-1.3635	-2.796	0	158	1026	1
2026-02-11	16:36:56.690	-0.035	0.98	15.225	0.030744	-0.041724	1.033584	-0.3285	-1.3665	-2.8005	0	158	1026	1
2026-02-11	16:36:56.710	2.065	1.75	10.29	0.030012	-0.055388	1.085312	-0.33	-1.368	-2.796	0	158	1026	1
2026-02-11	16:36:56.730	2.205	2.1	5.145	0.03172	-0.069296	1.162904	-0.339	-1.3755	-2.7945	0	158	1026	1
2026-02-11	16:36:56.750	-0.91	2.625	0.665	0.034404	-0.054656	1.190964	-0.3345	-1.371	-2.796	0	158	1026	1
2026-02-11	16:36:56.770	-4.34	2.73	-3.92	0.035624	-0.04514	1.193648	-0.3315	-1.368	-2.7945	0	158	1026	1
2026-02-11	16:36:56.790	-6.86	2.905	-8.47	0.06222	-0.042456	1.19072	-0.333	-1.368	-2.7975	0	158	1026	1
2026-02-11	16:36:56.810	-8.89	2.1	-12.95	0.078568	-0.040016	1.174372	-0.3345	-1.3605	-2.7945	0	157	1013	1
2026-02-11	16:36:56.830	-10.36	-0.84	-17.22	0.103456	-0.043676	1.165344	-0.3345	-1.362	-2.79	0	157	1013	1
2026-02-11	16:36:56.850	-12.005	-5.635	-20.055	0.152012	-0.06832	1.186328	-0.33	-1.362	-2.802	0	157	1013	1
2026-02-11	16:36:56.870	-13.895	-9.835	-21.91	0.225456	-0.0915	1.207068	-0.33	-1.3575	-2.7885	0	157	1013	1
2026-02-11	16:36:56.890	-14.63	-10.64	-23.17	0.2562	-0.100284	1.1712	-0.327	-1.359	-2.7885	0	157	1013	1
2026-02-11	16:36:56.910	-13.405	-8.19	-24.185	0.26474	-0.106872	1.080188	-0.3195	-1.3515	-2.802	0	157	1013	1
2026-02-11	16:36:56.930	-10.36	-4.48	-24.745	0.243024	-0.103944	0.958188	-0.321	-1.347	-2.793	0	157	1013	1
2026-02-11	16:36:56.950	-5.53	-0.63	-24.675	0.238876	-0.079544	0.901824	-0.324	-1.3485	-2.7915	0	157	1013	1
2026-02-11	16:36:56.970	-0.63	3.64	-24.045	0.284016	-0.062708	0.905484	-0.3285	-1.344	-2.7915	0	157	1013	1
2026-02-11	16:36:56.990	1.26	8.435	-22.435	0.33672	-0.057584	0.965752	-0.3315	-1.3395	-2.7915	0	157	1013	1
2026-02-11	16:36:57.010	0.455	11.515	-19.635	0.351116	-0.064172	0.929884	-0.33	-1.3425	-2.793	0	157	1021	1
2026-02-11	16:36:57.030	-0.14	12.005	-17.43	0.312564	-0.044652	0.958432	-0.3195	-1.3455	-2.7915	0	157	1021	1
2026-02-11	16:36:57.050	-0.42	11.41	-16.415	0.259128	-0.050752	0.95038	-0.315	-1.347	-2.7915	0	157	1021	1
2026-02-11	16:36:57.070	-0.035	8.995	-16.45	0.224968	-0.05002	0.940132	-0.3195	-1.347	-2.7975	0	157	1021	1
2026-02-11	16:36:57.090	0.84	2.94	-17.255	0.182756	-0.052216	0.907436	-0.321	-1.344	-2.7975	0	157	1021	1
2026-02-11	16:36:57.110	1.82	-2.065	-17.64	0.14274	-0.050264	0.875716	-0.3195	-1.3425	-2.7945	0	157	1021	1
2026-02-11	16:36:57.130	3.92	-5.845	-18.27	0.105896	-0.038308	0.85644	-0.324	-1.344	-2.793	0	157	1021	1
2026-02-11	16:36:57.150	6.37	-7.56	-18.935	0.092964	-0.030744	0.853024	-0.3105	-1.347	-2.7945	0	157	1021	1
2026-02-11	16:36:57.170	7.805	-7.735	-19.075	0.097112	-0.027084	0.860832	-0.318	-1.3455	-2.787	0	157	1021	1
2026-02-11	16:36:57.190	7.805	-7.07	-18.235	0.116876	-0.035136	0.864736	-0.3255	-1.3455	-2.79	0	157	1021	1
2026-02-11	16:36:57.210	7.035	-5.425	-16.66	0.131516	-0.036844	0.860832	-0.3285	-1.341	-2.781	0	157	1022	1
2026-02-11	16:36:57.230	6.02	-3.045	-14.84	0.13298	-0.040504	0.847412	-0.324	-1.3515	-2.7855	0	157	1022	1
2026-02-11	16:36:57.250	4.9	-1.33	-13.02	0.126148	-0.047336	0.82838	-0.318	-1.3545	-2.7915	0	157	1022	1
2026-02-11	16:36:57.270	3.85	-1.295	-11.585	0.138348	-0.043676	0.847412	-0.321	-1.3515	-2.787	0	157	1022	1
2026-02-11	16:36:57.290	2.73	-1.015	-10.43	0.157136	-0.052216	0.923296	-0.321	-1.3515	-2.787	0	157	1022	1
2026-02-11	16:36:57.310	0.035	1.785	-8.82	0.177388	-0.058072	0.998692	-0.327	-1.3515	-2.79	0	157	1022	1
2026-02-11	16:36:57.330	-4.655	4.865	-6.335	0.159332	-0.05368	0.996008	-0.318	-1.347	-2.7885	0	157	1022	1
2026-02-11	16:36:57.350	-8.33	4.55	-4.2	0.130784	-0.044652	0.967216	-0.3225	-1.35	-2.787	0	157	1022	1
2026-02-11	16:36:57.370	-7.77	2.73	-3.29	0.144936	-0.038308	1.002596	-0.3225	-1.35	-2.787	0	157	1022	1
2026-02-11	16:36:57.390	-5.285	3.08	-2.625	0.1586	-0.041968	1.049932	-0.321	-1.344	-2.784	0	157	1022	1
2026-02-11	16:36:57.410	-3.64	3.745	-1.365	0.154208	-0.045872	1.061644	-0.324	-1.341	-2.7795	0	156	1010	1
2026-02-11	16:36:57.430	-2.555	2.66	0	0.146644	-0.054168	1.082872	-0.3165	-1.344	-2.781	0	156	1010	1
2026-02-11	16:36:57.450	-1.54	2.205	1.4	0.144448	-0.052704	1.128012	-0.306	-1.3455	-2.7825	0	156	1010	1
2026-02-11	16:36:57.470	-1.155	3.5	2.975	0.159332	-0.051484	1.162416	-0.321	-1.344	-2.7825	0	156	1010	1
2026-02-11	16:36:57.490	-1.96	5.985	5.005	0.142252	-0.04026	1.150704	-0.318	-1.341	-2.781	0	156	1010	1
2026-02-11	16:36:57.510	-2.8	6.825	7.105	0.13786	-0.02562	1.11996	-0.3165	-1.338	-2.787	0	156	1010	1
2026-02-11	16:36:57.530	-2.17	5.88	8.645	0.140544	-0.031232	1.136064	-0.3225	-1.341	-2.79	0	156	1010	1
2026-02-11	16:36:57.550	-1.26	5.285	9.905	0.160308	-0.045384	1.185352	-0.306	-1.3455	-2.7855	0	156	1010	1
2026-02-11	16:36:57.570	-2.065	4.515	11.41	0.16592	-0.05856	1.197796	-0.309	-1.335	-2.7795	0	156	1010	1
2026-02-11	16:36:57.590	-4.69	0	12.985	0.20862	-0.085644	1.202188	-0.3165	-1.344	-2.79	0	156	1010	1
2026-02-11	16:36:57.610	-7.805	-6.545	14.63	0.249124	-0.112972	1.1895	-0.312	-1.338	-2.7855	0	154	1013	1
2026-02-11	16:36:57.630	-9.38	-11.48	16.135	0.238632	-0.149328	1.102392	-0.3195	-1.332	-2.787	0	154	1013	1
2026-02-11	16:36:57.650	-7.28	-13.16	16.45	0.218136	-0.171776	0.993568	-0.3195	-1.338	-2.7885	0	154	1013	1
2026-02-11	16:36:57.670	-3.395	-12.11	16.275	0.223504	-0.177388	0.935252	-0.3225	-1.3365	-2.7825	0	154	1013	1
2026-02-11	16:36:57.690	1.05	-8.61	16.695	0.243756	-0.18056	0.936228	-0.324	-1.332	-2.7795	0	154	1013	1
2026-02-11	16:36:57.710	3.99	-3.57	18.13	0.271328	-0.196664	0.978928	-0.324	-1.3365	-2.7765	0	154	1013	1
2026-02-11	16:36:57.730	4.165	0.84	19.215	0.272792	-0.199592	0.99186	-0.3255	-1.3365	-2.775	0	154	1013	1
2026-02-11	16:36:57.750	3.885	3.325	19.11	0.252296	-0.185684	0.979416	-0.324	-1.338	-2.778	0	154	1013	1
2026-02-11	16:36:57.770	4.445	4.095	18.585	0.2379	-0.174216	0.982832	-0.3225	-1.3455	-2.778	0	154	1013	1
2026-02-11	16:36:57.790	4.305	4.48	18.305	0.200324	-0.165188	0.971364	-0.321	-1.347	-2.7825	0	154	1013	1
