yyyy-MM-dd	HH:mm:ss.fff	gyrX	gyrY	gyrZ	accX	accY	accZ	magX	magY	magZ	Marker	Energy	Angle	Classification
2026-02-11	16:36:27.010	39.725	-3.255	50.61	0.951356	-0.280112	0.22692	-0.6915	0.363	0.1935	0	352	371	2
2026-02-11	16:36:27.030	36.75	-5.775	47.285	1.00772	-0.297436	0.232288	-0.6915	0.363	0.1935	0	352	371	2
2026-02-11	16:36:27.050	34.265	-8.05	45.22	1.093364	-0.29158	0.244976	-0.681	0.363	0.1875	0	352	371	2
2026-02-11	16:36:27.070	29.925	-7.42	45.43	1.067012	-0.265228	0.241804	-0.6765	0.3645	0.186	0	352	371	2
2026-02-11	16:36:27.090	25.34	-8.575	47.565	1.014796	-0.2501	0.23302	-0.672	0.36	0.1845	0	352	371	2
2026-02-11	16:36:27.110	23.205	-12.285	50.785	0.978196	-0.257664	0.232288	-0.669	0.3735	0.189	0	352	371	2
2026-02-11	16:36:27.130	23.03	-16.87	54.74	0.976244	-0.260836	0.242048	-0.6645	0.3765	0.186	0	352	371	2
2026-02-11	16:36:27.150	24.5	-20.3	59.115	0.950624	-0.266692	0.22692	-0.66	0.3765	0.177	0	352	371	2
2026-02-11	16:36:27.170	29.61	-24.64	61.705	0.930616	-0.267668	0.226676	-0.669	0.3765	0.186	0	352	371	2
2026-02-11	16:36:27.190	36.855	-29.085	61.88	0.894016	-0.26596	0.236436	-0.6645	0.3885	0.171	0	352	371	2
2026-02-11	16:36:27.210	44.1	-33.565	60.375	0.8601	-0.259372	0.258884	-0.6525	0.378	0.1785	0	332	353	3
2026-02-11	16:36:27.230	49.875	-38.115	57.925	0.850828	-0.249612	0.287188	-0.648	0.3825	0.18	0	332	353	3
2026-02-11	16:36:27.250	54.005	-42.14	54.215	0.870592	-0.234484	0.307196	-0.639	0.384	0.1785	0	332	353	3
2026-02-11	16:36:27.270	56.945	-44.31	49.315	0.892552	-0.222284	0.315248	-0.648	0.381	0.18	0	332	353	3
2026-02-11	16:36:27.290	57.505	-44.625	43.47	0.878644	-0.211548	0.316956	-0.654	0.3825	0.177	0	332	353	3
2026-02-11	16:36:27.310	55.09	-45.08	37.1	0.874252	-0.208132	0.317932	-0.657	0.3765	0.1755	0	332	353	3
2026-02-11	16:36:27.330	48.475	-44.52	27.16	0.857172	-0.212524	0.33184	-0.657	0.3765	0.1755	0	332	353	3
2026-02-11	16:36:27.350	43.995	-44.135	21.245	0.860588	-0.214232	0.341356	-0.6585	0.3735	0.177	0	332	353	3
2026-02-11	16:36:27.370	39.445	-43.645	15.785	0.878888	-0.218624	0.35136	-0.6645	0.363	0.1725	0	332	353	3
2026-02-11	16:36:27.390	36.26	-43.295	10.465	0.914756	-0.223504	0.360144	-0.6675	0.3645	0.171	0	332	353	3
2026-02-11	16:36:27.410	34.055	-42.28	4.9	0.952576	-0.232044	0.37698	-0.6735	0.357	0.1785	0	311	332	3
2026-02-11	16:36:27.430	30.73	-39.97	-0.385	0.955748	-0.23302	0.376004	-0.678	0.363	0.18	0	311	332	3
2026-02-11	16:36:27.450	26.39	-37.8	-5.005	0.973804	-0.237168	0.378932	-0.687	0.354	0.1755	0	311	332	3
2026-02-11	16:36:27.470	22.61	-35.7	-9.1	0.988932	-0.24766	0.392596	-0.684	0.345	0.1785	0	311	332	3
2026-02-11	16:36:27.490	19.18	-33.355	-11.97	0.99796	-0.257664	0.409676	-0.693	0.354	0.18	0	311	332	3
2026-02-11	16:36:27.510	15.89	-30.03	-12.775	0.979416	-0.257908	0.414068	-0.69	0.3435	0.1785	0	311	332	3
2026-02-11	16:36:27.530	13.545	-27.65	-12.39	0.9638	-0.263276	0.408456	-0.6945	0.339	0.1845	0	311	332	3
2026-02-11	16:36:27.550	12.95	-25.445	-10.955	0.940376	-0.26352	0.397964	-0.7035	0.3435	0.1815	0	311	332	3
2026-02-11	16:36:27.570	14.385	-23.38	-9.275	0.925004	-0.270596	0.39528	-0.6975	0.339	0.189	0	311	332	3
2026-02-11	16:36:27.590	17.01	-21.455	-7.805	0.907192	-0.263032	0.394548	-0.711	0.333	0.1875	0	311	332	3
2026-02-11	16:36:27.610	20.195	-19.355	-7.56	0.905484	-0.273524	0.398696	-0.7035	0.33	0.183	0	288	328	3
2026-02-11	16:36:27.630	24.29	-16.17	-9.1	0.908168	-0.2623	0.40504	-0.7155	0.33	0.192	0	288	328	3
2026-02-11	16:36:27.650	23.485	-13.79	-11.235	0.931836	-0.265472	0.410652	-0.72	0.327	0.186	0	288	328	3
2026-02-11	16:36:27.670	19.845	-10.395	-13.685	0.976732	-0.243268	0.421388	-0.723	0.3195	0.177	0	288	328	3
2026-02-11	16:36:27.690	11.55	-6.195	-16.03	0.991616	-0.234484	0.420412	-0.7155	0.3165	0.189	0	288	328	3
2026-02-11	16:36:27.710	-1.4	-1.295	-17.64	0.975756	-0.227652	0.408944	-0.72	0.312	0.1845	0	288	328	3
2026-02-11	16:36:27.730	-15.89	2.695	-18.445	0.95526	-0.24644	0.39162	-0.7275	0.3165	0.183	0	288	328	3
2026-02-11	16:36:27.750	-26.88	5.425	-17.57	0.956236	-0.260348	0.390644	-0.7305	0.3075	0.1845	0	288	328	3
2026-02-11	16:36:27.770	-32.83	7.945	-15.61	0.947208	-0.279136	0.381372	-0.7215	0.3105	0.1875	0	288	328	3
2026-02-11	16:36:27.790	-34.895	9.135	-12.74	0.941596	-0.294508	0.3721	-0.717	0.3105	0.1815	0	288	328	3
2026-02-11	16:36:27.810	-32.48	9.975	-9.975	0.938912	-0.315248	0.364536	-0.729	0.3135	0.1845	0	263	339	3
2026-02-11	16:36:27.830	-27.475	10.71	-7.35	0.936472	-0.3111	0.356972	-0.723	0.3225	0.1965	0	263	339	3
2026-02-11	16:36:27.850	-23.485	11.515	-5.25	0.926712	-0.291336	0.35258	-0.714	0.3225	0.192	0	263	339	3
2026-02-11	16:36:27.870	-21.245	11.375	-4.13	0.930616	-0.283284	0.346724	-0.726	0.318	0.1935	0	263	339	3
2026-02-11	16:36:27.890	-20.195	11.165	-4.235	0.931592	-0.281088	0.347212	-0.7185	0.318	0.183	0	263	339	3
2026-02-11	16:36:27.910	-20.16	11.025	-4.97	0.927688	-0.274744	0.344772	-0.717	0.321	0.1785	0	263	339	3
2026-02-11	16:36:27.930	-20.965	10.605	-6.615	0.917684	-0.276696	0.33672	-0.7215	0.33	0.1875	0	263	339	3
2026-02-11	16:36:27.950	-21.49	10.01	-8.785	0.915976	-0.277672	0.333792	-0.7215	0.33	0.1875	0	263	339	3
2026-02-11	16:36:27.970	-21.455	9.695	-10.465	0.918172	-0.279868	0.33184	-0.7215	0.3225	0.186	0	263	339	3
2026-02-11	16:36:27.990	-22.05	9.8	-11.9	0.905972	-0.282552	0.324276	-0.723	0.3315	0.192	0	263	339	3
2026-02-11	16:36:26.010	22.33	2.205	19.6	0.973316	-0.2562	0.104188	-0.69	0.432	0.252	0	481	326	2
2026-02-11	16:36:26.030	16.66	0	19.425	1.000644	-0.241804	0.128588	-0.675	0.4245	0.243	0	481	326	2
2026-02-11	16:36:26.050	7.42	-2.31	19.845	0.972584	-0.246928	0.154452	-0.6735	0.42	0.2475	0	481	326	2
2026-02-11	16:36:26.070	-2.485	-4.34	20.405	0.96746	-0.250588	0.187392	-0.6735	0.432	0.243	0	481	326	2
2026-02-11	16:36:26.090	-12.04	-5.845	22.75	1.025776	-0.265716	0.220088	-0.678	0.438	0.246	0	481	326	2
2026-02-11	16:36:26.110	-18.06	-4.865	26.845	1.083604	-0.259616	0.219844	-0.678	0.438	0.246	0	481	326	2
2026-02-11	16:36:26.130	-24.78	-3.955	28.28	1.193892	-0.225944	0.15738	-0.672	0.4425	0.2505	0	481	326	2
2026-02-11	16:36:26.150	-36.54	-4.69	27.65	1.265384	-0.213012	0.1037	-0.666	0.447	0.252	0	481	326	2
2026-02-11	16:36:26.170	-47.95	-7.35	24.15	1.232932	-0.208376	0.100284	-0.666	0.4455	0.249	0	481	326	2
2026-02-11	16:36:26.190	-54.845	-15.68	17.185	1.150704	-0.227408	0.137372	-0.6585	0.4605	0.264	0	481	326	2
2026-02-11	16:36:26.210	-53.375	-26.81	8.96	0.97356	-0.28426	0.230336	-0.666	0.459	0.273	0	451	277	3
2026-02-11	16:36:26.230	-42.14	-38.605	4.795	0.740784	-0.337208	0.355996	-0.663	0.4665	0.2775	0	451	277	3
2026-02-11	16:36:26.250	-17.885	-48.825	4.76	0.598044	-0.361364	0.43798	-0.666	0.4725	0.279	0	451	277	3
2026-02-11	16:36:26.270	11.83	-57.12	8.015	0.565348	-0.381128	0.454816	-0.6585	0.474	0.2895	0	451	277	3
2026-02-11	16:36:26.290	32.935	-58.24	13.475	0.589992	-0.333304	0.43066	-0.6705	0.4815	0.291	0	451	277	3
2026-02-11	16:36:26.310	47.67	-56.315	14.875	0.714188	-0.242292	0.3721	-0.6675	0.48	0.2895	0	451	277	3
2026-02-11	16:36:26.330	66.71	-57.365	9.59	0.886452	-0.15738	0.329644	-0.6765	0.477	0.2895	0	451	277	3
2026-02-11	16:36:26.350	82.32	-59.15	-2.52	1.05408	-0.121024	0.356484	-0.678	0.477	0.2895	0	451	277	3
2026-02-11	16:36:26.370	92.295	-60.165	-18.935	1.175104	-0.116144	0.403088	-0.6765	0.465	0.2745	0	451	277	3
2026-02-11	16:36:26.390	69.685	-64.4	-38.745	1.3115	0.295484	0.603412	-0.693	0.4575	0.2595	0	451	277	3
2026-02-11	16:36:26.410	-36.155	-28.35	-46.445	1.073844	-0.826672	1.008452	-0.696	0.441	0.2445	0	418	267	3
2026-02-11	16:36:26.430	-34.965	-10.64	-40.495	0.8662	-0.623664	1.194136	-0.7095	0.4275	0.2595	0	418	267	3
2026-02-11	16:36:26.450	-71.75	1.295	-35.525	0.73444	-0.649772	1.042368	-0.723	0.4125	0.282	0	418	267	3
2026-02-11	16:36:26.470	-67.83	-5.845	-40.775	0.676856	-0.543144	0.783728	-0.723	0.411	0.291	0	418	267	3
2026-02-11	16:36:26.490	-28.035	-15.575	-39.41	0.65636	-0.325984	0.6405	-0.726	0.426	0.2955	0	418	267	3
2026-02-11	16:36:26.510	6.685	-21.84	-34.02	0.71004	-0.411872	0.524112	-0.7275	0.4305	0.306	0	418	267	3
2026-02-11	16:36:26.530	43.435	-24.15	-27.895	0.787388	-0.343308	0.446764	-0.7335	0.4275	0.3075	0	418	267	3
2026-02-11	16:36:26.550	63.77	-25.305	-26.635	0.86498	-0.287432	0.35502	-0.741	0.414	0.3105	0	418	267	3
2026-02-11	16:36:26.570	82.53	-22.295	-25.095	0.955016	-0.365268	0.299632	-0.7455	0.408	0.312	0	418	267	3
2026-02-11	16:36:26.590	95.165	-16.73	-27.3	1.024068	-0.298168	0.325008	-0.753	0.4035	0.3015	0	418	267	3
2026-02-11	16:36:26.610	88.515	-7.175	-29.54	1.07238	-0.299144	0.325496	-0.756	0.3915	0.2925	0	392	312	3
2026-02-11	16:36:26.630	76.09	4.83	-32.235	1.070184	-0.26718	0.30622	-0.7605	0.384	0.279	0	392	312	3
2026-02-11	16:36:26.650	57.085	12.88	-37.345	1.125572	-0.208132	0.349652	-0.7545	0.3795	0.2835	0	392	312	3
2026-02-11	16:36:26.670	33.845	21.035	-41.615	1.161684	-0.2135	0.434076	-0.7575	0.372	0.276	0	392	312	3
2026-02-11	16:36:26.690	13.65	29.82	-41.405	1.099952	-0.262788	0.500932	-0.762	0.36	0.27	0	392	312	3
2026-02-11	16:36:26.710	-2.205	38.955	-32.025	1.025532	-0.337208	0.560468	-0.756	0.354	0.2625	0	392	312	3
2026-02-11	16:36:26.730	-7.735	42.63	-20.685	0.955504	-0.351604	0.5002	-0.753	0.3555	0.2625	0	392	312	3
2026-02-11	16:36:26.750	-12.355	44.03	-7.28	0.929152	-0.34526	0.412604	-0.75	0.3525	0.2565	0	392	312	3
2026-02-11	16:36:26.770	-13.335	45.325	7.595	0.863028	-0.331108	0.3233	-0.75	0.348	0.252	0	392	312	3
2026-02-11	16:36:26.790	-9.45	41.86	20.615	0.854244	-0.319884	0.270108	-0.7545	0.351	0.2475	0	392	312	3
2026-02-11	16:36:26.810	-3.15	38.325	30.24	0.820816	-0.33428	0.219844	-0.7455	0.348	0.2415	0	371	359	3
2026-02-11	16:36:26.830	8.26	33.285	36.19	0.815692	-0.344528	0.215208	-0.738	0.36	0.237	0	371	359	3
2026-02-11	16:36:26.850	23.905	27.615	38.43	0.794708	-0.368684	0.216672	-0.732	0.3585	0.231	0	371	359	3
2026-02-11	16:36:26.870	38.85	24.045	39.445	0.802028	-0.364292	0.238388	-0.7305	0.366	0.231	0	371	359	3
2026-02-11	16:36:26.890	48.195	20.405	40.775	0.788608	-0.359168	0.233996	-0.7245	0.3735	0.2145	0	371	359	3
2026-02-11	16:36:26.910	52.99	17.465	42.455	0.777872	-0.327692	0.232532	-0.714	0.372	0.2205	0	371	359	3
2026-02-11	16:36:26.930	51.94	15.505	46.795	0.711992	-0.289872	0.217892	-0.7035	0.3645	0.2115	0	371	359	3
2026-02-11	16:36:26.950	48.475	9.695	50.505	0.770064	-0.246684	0.217892	-0.7095	0.3585	0.204	0	371	359	3
2026-02-11	16:36:26.970	44.695	4.305	52.395	0.84058	-0.24766	0.221064	-0.6945	0.363	0.192	0	371	359	3
2026-02-11	16:36:26.990	42.385	0.49	52.605	0.893284	-0.260348	0.22692	-0.6885	0.372	0.1965	0	371	359	3
2026-02-11	16:36:27.010	39.725	-3.255	50.61	0.951356	-0.280112	0.22692	-0.6915	0.363	0.1935	0	352	371	2
2026-02-11	16:36:27.030	36.75	-5.775	47.285	1.00772	-0.297436	0.232288	-0.6915	0.363	0.1935	0	352	371	2
2026-02-11	16:36:27.050	34.265	-8.05	45.22	1.093364	-0.29158	0.244976	-0.681	0.363	0.1875	0	352	371	2
2026-02-11	16:36:27.070	29.925	-7.42	45.43	1.067012	-0.265228	0.241804	-0.6765	0.3645	0.186	0	352	371	2
2026-02-11	16:36:27.090	25.34	-8.575	47.565	1.014796	-0.2501	0.23302	-0.672	0.36	0.1845	0	352	371	2
2026-02-11	16:36:27.110	23.205	-12.285	50.785	0.978196	-0.257664	0.232288	-0.669	0.3735	0.189	0	352	371	2
2026-02-11	16:36:27.130	23.03	-16.87	54.74	0.976244	-0.260836	0.242048	-0.6645	0.3765	0.186	0	352	371	2
2026-02-11	16:36:27.150	24.5	-20.3	59.115	0.950624	-0.266692	0.22692	-0.66	0.3765	0.177	0	352	371	2
2026-02-11	16:36:27.170	29.61	-24.64	61.705	0.930616	-0.267668	0.226676	-0.669	0.3765	0.186	0	352	371	2
2026-02-11	16:36:27.190	36.855	-29.085	61.88	0.894016	-0.26596	0.236436	-0.6645	0.3885	0.171	0	352	371	2
2026-02-11	16:36:27.210	44.1	-33.565	60.375	0.8601	-0.259372	0.258884	-0.6525	0.378	0.1785	0	332	353	3
2026-02-11	16:36:27.230	49.875	-38.115	57.925	0.850828	-0.249612	0.287188	-0.648	0.3825	0.18	0	332	353	3
2026-02-11	16:36:27.250	54.005	-42.14	54.215	0.870592	-0.234484	0.307196	-0.639	0.384	0.1785	0	332	353	3
2026-02-11	16:36:27.270	56.945	-44.31	49.315	0.892552	-0.222284	0.315248	-0.648	0.381	0.18	0	332	353	3
2026-02-11	16:36:27.290	57.505	-44.625	43.47	0.878644	-0.211548	0.316956	-0.654	0.3825	0.177	0	332	353	3
2026-02-11	16:36:27.310	55.09	-45.08	37.1	0.874252	-0.208132	0.317932	-0.657	0.3765	0.1755	0	332	353	3
2026-02-11	16:36:27.330	48.475	-44.52	27.16	0.857172	-0.212524	0.33184	-0.657	0.3765	0.1755	0	332	353	3
2026-02-11	16:36:27.350	43.995	-44.135	21.245	0.860588	-0.214232	0.341356	-0.6585	0.3735	0.177	0	332	353	3
2026-02-11	16:36:27.370	39.445	-43.645	15.785	0.878888	-0.218624	0.35136	-0.6645	0.363	0.1725	0	332	353	3
2026-02-11	16:36:27.390	36.26	-43.295	10.465	0.914756	-0.223504	0.360144	-0.6675	0.3645	0.171	0	332	353	3
2026-02-11	16:36:27.410	34.055	-42.28	4.9	0.952576	-0.232044	0.37698	-0.6735	0.357	0.1785	0	311	332	3
2026-02-11	16:36:27.430	30.73	-39.97	-0.385	0.955748	-0.23302	0.376004	-0.678	0.363	0.18	0	311	332	3
2026-02-11	16:36:27.450	26.39	-37.8	-5.005	0.973804	-0.237168	0.378932	-0.687	0.354	0.1755	0	311	332	3
2026-02-11	16:36:27.470	22.61	-35.7	-9.1	0.988932	-0.24766	0.392596	-0.684	0.345	0.1785	0	311	332	3
2026-02-11	16:36:27.490	19.18	-33.355	-11.97	0.99796	-0.257664	0.409676	-0.693	0.354	0.18	0	311	332	3
2026-02-11	16:36:27.510	15.89	-30.03	-12.775	0.979416	-0.257908	0.414068	-0.69	0.3435	0.1785	0	311	332	3
2026-02-11	16:36:27.530	13.545	-27.65	-12.39	0.9638	-0.263276	0.408456	-0.6945	0.339	0.1845	0	311	332	3
2026-02-11	16:36:27.550	12.95	-25.445	-10.955	0.940376	-0.26352	0.397964	-0.7035	0.3435	0.1815	0	311	332	3
2026-02-11	16:36:27.570	14.385	-23.38	-9.275	0.925004	-0.270596	0.39528	-0.6975	0.339	0.189	0	311	332	3
2026-02-11	16:36:27.590	17.01	-21.455	-7.805	0.907192	-0.263032	0.394548	-0.711	0.333	0.1875	0	311	332	3
2026-02-11	16:36:37.610	13.335	35.105	75.775	0.77836	-0.240096	0.11834	-0.81	0.3885	0.5055	0	381	240	3
2026-02-11	16:36:37.630	13.23	33.355	75.145	0.759816	-0.227652	0.121512	-0.8055	0.4035	0.5055	0	381	240	3
2026-02-11	16:36:37.650	14.805	29.365	74.445	0.762988	-0.250344	0.115656	-0.7995	0.4095	0.5085	0	381	240	3
2026-02-11	16:36:37.670	20.825	25.55	71.925	0.745908	-0.231312	0.096136	-0.7905	0.414	0.5025	0	381	240	3
2026-02-11	16:36:37.690	26.985	21.49	66.01	0.74542	-0.240828	0.083448	-0.7875	0.4185	0.495	0	381	240	3
2026-02-11	16:36:37.710	33.81	16.415	61.32	0.792268	-0.241804	0.083692	-0.783	0.426	0.4935	0	381	240	3
2026-02-11	16:36:37.730	41.405	13.02	56.385	0.787876	-0.24766	0.081984	-0.7785	0.432	0.492	0	381	240	3
2026-02-11	16:36:37.750	49	7.7	47.285	0.835456	-0.231068	0.093452	-0.7725	0.441	0.4815	0	381	240	3
2026-02-11	16:36:37.770	54.635	3.15	36.155	0.925248	-0.222528	0.097112	-0.7695	0.444	0.474	0	381	240	3
2026-02-11	16:36:37.790	56.315	0.21	27.16	0.967704	-0.220332	0.099552	-0.762	0.4425	0.4695	0	381	240	3
2026-02-11	16:36:37.810	55.51	-2.66	15.155	1.026508	-0.213256	0.115412	-0.7605	0.4515	0.4605	0	360	237	3
2026-02-11	16:36:37.830	51.66	-5.705	4.27	1.075064	-0.184464	0.13298	-0.7665	0.447	0.4515	0	360	237	3
2026-02-11	16:36:37.850	40.425	-8.89	-8.785	1.144116	-0.185684	0.149084	-0.7605	0.453	0.4575	0	360	237	3
2026-02-11	16:36:37.870	26.845	-13.825	-19.495	1.282708	-0.182756	0.161284	-0.7605	0.453	0.4575	0	360	237	3
2026-02-11	16:36:37.890	17.745	-17.43	-27.265	1.356152	-0.21106	0.164944	-0.762	0.4455	0.45	0	360	237	3
2026-02-11	16:36:37.910	12.95	-19.39	-34.3	1.376404	-0.192516	0.188856	-0.765	0.4365	0.441	0	360	237	3
2026-02-11	16:36:37.930	11.095	-23.52	-44.52	1.438136	-0.1525	0.197152	-0.771	0.438	0.441	0	360	237	3
2026-02-11	16:36:37.950	4.585	-26.18	-58.555	1.468148	-0.14762	0.155428	-0.7755	0.4335	0.4455	0	360	237	3
2026-02-11	16:36:37.970	-5.075	-29.015	-73.71	1.408368	-0.184708	0.126392	-0.7845	0.4215	0.45	0	360	237	3
2026-02-11	16:36:37.990	-10.15	-35.7	-86.065	1.305644	-0.199836	0.196664	-0.792	0.411	0.453	0	360	237	3
2026-02-11	16:36:38.010	-6.16	-45.92	-95.095	1.175104	-0.263032	0.330864	-0.792	0.4065	0.456	0	337	218	3
2026-02-11	16:36:38.030	3.395	-48.3	-94.255	1.08824	-0.246684	0.403332	-0.8085	0.399	0.4605	0	337	218	3
2026-02-11	16:36:38.050	16.38	-47.46	-86.66	1.014796	-0.242048	0.435052	-0.8145	0.39	0.468	0	337	218	3
2026-02-11	16:36:38.070	24.115	-41.37	-73.815	0.940132	-0.156892	0.438468	-0.8235	0.372	0.474	0	337	218	3
2026-02-11	16:36:38.090	10.78	-32.69	-61.46	0.903288	-0.090524	0.35624	-0.825	0.363	0.4725	0	337	218	3
2026-02-11	16:36:38.110	-12.32	-22.225	-50.33	0.877424	-0.014152	0.240096	-0.828	0.3585	0.4725	0	337	218	3
2026-02-11	16:36:38.130	-35.595	-11.69	-41.755	0.84546	0.00976	0.175192	-0.831	0.3615	0.4725	0	337	218	3
2026-02-11	16:36:38.150	-63.07	-2.52	-32.13	0.795928	-0.006588	0.175436	-0.8385	0.3495	0.477	0	337	218	3
2026-02-11	16:36:38.170	-79.345	3.99	-23.66	0.7442	-0.06222	0.209352	-0.84	0.3405	0.4725	0	337	218	3
2026-02-11	16:36:38.190	-81.69	6.44	-19.285	0.732244	-0.105164	0.245708	-0.8505	0.327	0.4725	0	337	218	3
2026-02-11	16:36:38.210	-79.03	7.91	-16.8	0.720044	-0.15372	0.2745	-0.8595	0.3165	0.4815	0	318	214	3
2026-02-11	16:36:38.230	-72.94	9.1	-14.91	0.717604	-0.148352	0.310368	-0.8625	0.312	0.489	0	318	214	3
2026-02-11	16:36:38.250	-68.215	9.625	-14.63	0.709796	-0.210816	0.324764	-0.8625	0.3105	0.4935	0	318	214	3
2026-02-11	16:36:38.270	-60.445	9.975	-15.19	0.684664	-0.16958	0.318908	-0.861	0.3045	0.498	0	318	214	3
2026-02-11	16:36:38.290	-58.31	8.82	-16.765	0.695156	-0.153232	0.315492	-0.8655	0.3045	0.5055	0	318	214	3
2026-02-11	16:36:38.310	-58.8	6.86	-19.53	0.7259	-0.175192	0.318664	-0.8685	0.306	0.5115	0	318	214	3
2026-02-11	16:36:38.330	-59.395	5.915	-21.49	0.762012	-0.214964	0.321836	-0.858	0.2925	0.513	0	318	214	3
2026-02-11	16:36:38.350	-57.4	6.16	-21.7	0.808616	-0.241316	0.316468	-0.87	0.294	0.5145	0	318	214	3
2026-02-11	16:36:38.370	-54.6	7.665	-19.705	0.859856	-0.244732	0.292068	-0.8655	0.294	0.516	0	318	214	3
2026-02-11	16:36:38.390	-51.485	9.38	-17.57	0.899384	-0.239852	0.27816	-0.8625	0.297	0.5205	0	318	214	3
2026-02-11	16:36:38.410	-49.665	10.85	-15.19	0.917196	-0.22448	0.278404	-0.8715	0.294	0.5115	0	303	225	3
2026-02-11	16:36:38.430	-49.315	10.92	-12.425	0.919392	-0.231068	0.292312	-0.8715	0.294	0.5115	0	303	225	3
2026-02-11	16:36:38.450	-52.185	8.155	-12.635	0.944768	-0.247904	0.307928	-0.8655	0.285	0.516	0	303	225	3
2026-02-11	16:36:38.470	-53.585	4.76	-14.49	0.98454	-0.266936	0.313052	-0.87	0.282	0.5205	0	303	225	3
2026-02-11	16:36:38.490	-52.08	0.84	-17.71	1.020896	-0.287188	0.304268	-0.8745	0.2745	0.5265	0	303	225	3
2026-02-11	16:36:38.510	-48.405	-4.235	-21.56	1.070428	-0.294752	0.295972	-0.876	0.27	0.528	0	303	225	3
2026-02-11	16:36:38.530	-44.625	-10.815	-25.935	1.139724	-0.316224	0.302316	-0.876	0.2745	0.528	0	303	225	3
2026-02-11	16:36:38.550	-40.075	-17.255	-30.17	1.200236	-0.32086	0.325984	-0.8775	0.273	0.5325	0	303	225	3
2026-02-11	16:36:38.570	-36.155	-24.15	-32.865	1.264408	-0.343796	0.35502	-0.882	0.267	0.537	0	303	225	3
2026-02-11	16:36:38.590	-29.26	-30.45	-33.985	1.331996	-0.38064	0.391376	-0.8835	0.258	0.5415	0	303	225	3
2026-02-11	16:36:38.610	-14.245	-35.175	-32.34	1.352492	-0.446032	0.4087	-0.885	0.2535	0.5475	0	290	245	3
2026-02-11	16:36:38.630	9.31	-36.54	-25.025	1.31638	-0.452132	0.41724	-0.8775	0.2595	0.5505	0	290	245	3
2026-02-11	16:36:38.650	41.965	-37.275	-11.655	1.20902	-0.436272	0.36966	-0.876	0.237	0.5535	0	290	245	3
2026-02-11	16:36:38.670	81.2	-38.325	5.25	1.109224	-0.403576	0.327936	-0.888	0.2385	0.561	0	290	245	3
2026-02-11	16:36:38.690	118.58	-38.255	24.745	1.057496	-0.362096	0.287188	-0.885	0.252	0.5655	0	290	245	3
2026-02-11	16:36:38.710	139.72	-31.465	44.1	1.009428	-0.287432	0.286944	-0.8865	0.243	0.564	0	290	245	3
2026-02-11	16:36:38.730	137.375	-23.59	60.62	0.963068	-0.204228	0.295728	-0.879	0.258	0.5655	0	290	245	3
2026-02-11	16:36:38.750	112.42	-9.17	79.1	0.870348	-0.181292	0.286212	-0.876	0.2655	0.567	0	290	245	3
2026-02-11	16:36:38.770	92.47	-2.66	81.55	0.867176	-0.263276	0.264984	-0.8685	0.2805	0.5595	0	290	245	3
2026-02-11	16:36:38.790	73.045	6.44	85.33	0.83326	-0.22936	0.252296	-0.861	0.303	0.546	0	290	245	3
2026-02-11	16:36:38.810	57.085	13.265	84.77	0.799832	-0.32818	0.2135	-0.8565	0.3195	0.5385	0	278	266	3
2026-02-11	16:36:38.830	48.93	19.74	85.715	0.744932	-0.311588	0.204472	-0.852	0.3405	0.5295	0	278	266	3
2026-02-11	16:36:38.850	49	24.255	87.99	0.725412	-0.30134	0.188124	-0.8445	0.3585	0.519	0	278	266	3
2026-02-11	16:36:38.870	50.575	27.93	88.865	0.68564	-0.329156	0.169824	-0.8325	0.3765	0.516	0	278	266	3
2026-02-11	16:36:38.890	54.215	28.735	88.095	0.75518	-0.38674	0.187148	-0.8205	0.396	0.5175	0	278	266	3
2026-02-11	16:36:38.910	60.2	31.71	90.545	0.773236	-0.40504	0.1891	-0.813	0.4035	0.519	0	278	266	3
2026-02-11	16:36:38.930	66.325	33.005	92.225	0.82228	-0.391864	0.175436	-0.8175	0.4245	0.507	0	278	266	3
2026-02-11	16:36:38.950	70.525	32.445	90.79	0.880596	-0.394548	0.160064	-0.798	0.426	0.5055	0	278	266	3
2026-02-11	16:36:38.970	74.41	31.36	85.855	0.93452	-0.39162	0.155916	-0.7875	0.4395	0.495	0	278	266	3
2026-02-11	16:36:38.990	74.165	32.13	79.905	0.956724	-0.3904	0.160064	-0.783	0.447	0.483	0	278	266	3
2026-02-11	16:36:39.010	69.3	33.11	73.465	0.969168	-0.38308	0.16348	-0.7725	0.459	0.468	0	268	270	3
2026-02-11	16:36:39.030	60.095	33.845	67.62	0.94184	-0.356484	0.169336	-0.759	0.4635	0.4575	0	268	270	3
2026-02-11	16:36:39.050	39.83	31.955	56.035	0.896212	-0.37576	0.166652	-0.759	0.4635	0.4575	0	268	270	3
2026-02-11	16:36:39.070	26.565	29.085	49.245	0.881084	-0.360632	0.160552	-0.7455	0.4725	0.441	0	268	270	3
2026-02-11	16:36:39.090	13.755	27.09	43.47	0.874496	-0.375028	0.15128	-0.7335	0.489	0.4185	0	268	270	3
2026-02-11	16:36:39.110	5.775	24.29	38.92	0.886208	-0.38918	0.137372	-0.735	0.495	0.417	0	268	270	3
2026-02-11	16:36:39.130	3.885	19.495	33.285	0.919636	-0.398696	0.133956	-0.732	0.495	0.42	0	268	270	3
2026-02-11	16:36:39.150	5.11	13.3	26.145	0.97234	-0.386252	0.150548	-0.7215	0.5025	0.414	0	268	270	3
2026-02-11	16:36:39.170	7.875	5.74	17.185	1.023336	-0.394548	0.176412	-0.7095	0.5055	0.4125	0	268	270	3
2026-02-11	16:36:39.190	11.725	-1.435	7.56	1.04676	-0.384544	0.203496	-0.7065	0.5025	0.414	0	268	270	3
2026-02-11	16:36:39.210	16.345	-9.345	-2.94	1.086044	-0.365756	0.237412	-0.711	0.504	0.405	0	258	257	3
2026-02-11	16:36:39.230	21.77	-19.81	-14.035	1.1407	-0.362584	0.28792	-0.7035	0.504	0.4095	0	258	257	3
2026-02-11	16:36:39.250	29.435	-30.345	-24.15	1.210728	-0.321836	0.321104	-0.708	0.5085	0.4035	0	258	257	3
2026-02-11	16:36:39.270	37.59	-38.395	-34.825	1.226344	-0.281576	0.322324	-0.7095	0.507	0.4035	0	258	257	3
2026-02-11	16:36:39.290	43.225	-44.695	-47.915	1.205848	-0.214476	0.309636	-0.72	0.492	0.396	0	258	257	3
2026-02-11	16:36:39.310	43.365	-53.585	-63.49	1.236592	-0.217648	0.339404	-0.726	0.489	0.4005	0	258	257	3
2026-02-11	16:36:39.330	42.665	-58.135	-80.465	1.239032	-0.24278	0.415532	-0.741	0.489	0.4065	0	258	257	3
2026-02-11	16:36:39.350	41.195	-52.955	-86.135	1.151924	-0.243756	0.448472	-0.741	0.489	0.4065	0	258	257	3
2026-02-11	16:36:39.370	39.095	-43.015	-80.745	1.070428	-0.186172	0.413092	-0.7515	0.468	0.4065	0	258	257	3
2026-02-11	16:36:39.390	31.465	-30.87	-71.085	0.994544	-0.068808	0.332328	-0.7725	0.444	0.405	0	258	257	3
2026-02-11	16:36:39.410	11.06	-19.285	-59.99	0.977952	-0.021716	0.238388	-0.783	0.435	0.4035	0	248	249	3
2026-02-11	16:36:39.430	-16.03	-6.65	-52.85	0.939156	0.058072	0.19032	-0.789	0.4275	0.4095	0	248	249	3
2026-02-11	16:36:39.450	-48.37	1.995	-49.14	0.906948	0.004636	0.133468	-0.792	0.4215	0.4155	0	248	249	3
2026-02-11	16:36:39.470	-76.055	10.5	-48.37	0.888892	-0.056852	0.161528	-0.7905	0.417	0.4215	0	248	249	3
2026-02-11	16:36:39.490	-98.21	15.89	-49.63	0.857416	-0.1464	0.18666	-0.795	0.4155	0.4305	0	248	249	3
2026-02-11	16:36:39.510	-110.075	18.515	-50.295	0.822524	-0.229604	0.208376	-0.807	0.4095	0.4275	0	248	249	3
2026-02-11	16:36:39.530	-112.105	19.775	-50.365	0.772016	-0.279868	0.226676	-0.8025	0.4065	0.4245	0	248	249	3
2026-02-11	16:36:39.550	-104.895	17.395	-49.175	0.724924	-0.316224	0.241072	-0.816	0.411	0.435	0	248	249	3
2026-02-11	16:36:39.570	-87.885	13.055	-46.97	0.681248	-0.327448	0.243756	-0.8145	0.4005	0.438	0	248	249	3
2026-02-11	16:36:39.590	-67.2	7.14	-43.82	0.645136	-0.315492	0.243756	-0.822	0.39	0.4455	0	248	249	3
2026-02-11	16:36:39.610	-49.42	1.365	-40.215	0.613416	-0.307928	0.240096	-0.8235	0.3795	0.453	0	241	249	3
2026-02-11	16:36:39.630	-35.21	-4.725	-35.63	0.615368	-0.277916	0.248148	-0.8205	0.3765	0.45	0	241	249	3
2026-02-11	16:36:39.650	-29.19	-7.805	-31.745	0.622688	-0.24522	0.247172	-0.8205	0.3765	0.45	0	241	249	3
2026-02-11	16:36:39.670	-31.36	-8.715	-30.555	0.658556	-0.240828	0.22936	-0.8295	0.3675	0.4575	0	241	249	3
2026-02-11	16:36:39.690	-35.945	-8.82	-31.675	0.69662	-0.24644	0.205692	-0.84	0.357	0.4665	0	241	249	3
2026-02-11	16:36:39.710	-39.445	-9.31	-34.44	0.733708	-0.261812	0.199836	-0.8415	0.354	0.4725	0	241	249	3
2026-02-11	16:36:39.730	-40.145	-10.36	-38.605	0.770308	-0.28792	0.223992	-0.8445	0.3435	0.474	0	241	249	3
2026-02-11	16:36:39.750	-39.165	-12.18	-43.19	0.789584	-0.29768	0.258884	-0.8505	0.3375	0.477	0	241	249	3
2026-02-11	16:36:39.770	-36.75	-15.225	-47.18	0.8174	-0.33794	0.281332	-0.855	0.3345	0.483	0	241	249	3
2026-02-11	16:36:39.790	-30.87	-19.005	-50.085	0.841312	-0.314516	0.30866	-0.8535	0.3315	0.4845	0	241	249	3
2026-02-11	16:36:39.810	-25.515	-23.45	-51.31	0.838384	-0.331108	0.323056	-0.861	0.324	0.4875	0	235	250	3
2026-02-11	16:36:39.830	-17.78	-28.21	-50.505	0.849608	-0.347944	0.335012	-0.861	0.3195	0.4995	0	235	250	3
2026-02-11	16:36:39.850	-8.05	-32.305	-47.075	0.866932	-0.35868	0.356728	-0.8685	0.3165	0.498	0	235	250	3
2026-02-11	16:36:39.870	3.395	-34.685	-41.23	0.876936	-0.36478	0.378688	-0.87	0.306	0.5085	0	235	250	3
2026-02-11	16:36:39.890	14.91	-36.33	-34.125	0.921832	-0.351116	0.395768	-0.8685	0.3015	0.513	0	235	250	3
2026-02-11	16:36:39.910	25.095	-37.24	-26.705	1.002108	-0.34282	0.403576	-0.8775	0.294	0.5145	0	235	250	3
2026-02-11	16:36:39.930	36.225	-36.89	-19.32	1.144604	-0.333304	0.416508	-0.8805	0.288	0.522	0	235	250	3
2026-02-11	16:36:39.950	44.485	-36.295	-13.825	1.330532	-0.339648	0.444324	-0.8805	0.288	0.522	0	235	250	3
2026-02-11	16:36:39.970	49.35	-34.72	-11.62	1.503528	-0.354288	0.476044	-0.879	0.2895	0.5265	0	235	250	3
2026-02-11	16:36:39.990	53.305	-28.7	-9.275	1.56648	-0.36844	0.48556	-0.879	0.2895	0.5355	0	235	250	3
2026-02-11	16:36:40.010	57.575	-21.105	-6.125	1.497428	-0.37942	0.49166	-0.8775	0.288	0.5355	0	231	263	3
2026-02-11	16:36:40.030	64.05	-12.81	0.07	1.34688	-0.385764	0.47214	-0.876	0.2865	0.531	0	231	263	3
2026-02-11	16:36:40.050	71.505	-5.25	10.325	1.151924	-0.375028	0.438468	-0.873	0.2865	0.5325	0	231	263	3
2026-02-11	16:36:40.070	81.235	2.835	25.13	0.93452	-0.349652	0.401136	-0.8715	0.291	0.534	0	231	263	3
2026-02-11	16:36:40.090	90.895	8.995	42.805	0.772016	-0.2989	0.3416	-0.864	0.2895	0.534	0	231	263	3
2026-02-11	16:36:40.110	97.65	12.81	59.815	0.745664	-0.2562	0.273524	-0.87	0.3	0.528	0	231	263	3
2026-02-11	16:36:40.130	102.41	16.415	73.57	0.806176	-0.266448	0.239608	-0.8655	0.312	0.5175	0	231	263	3
2026-02-11	16:36:40.150	107.59	20.895	79.45	0.964532	-0.269132	0.20862	-0.858	0.3225	0.5085	0	231	263	3
2026-02-11	16:36:40.170	119.91	26.635	79.625	1.121424	-0.237168	0.220576	-0.858	0.3435	0.5025	0	231	263	3
2026-02-11	16:36:40.190	121.94	35.105	78.015	1.159732	-0.26352	0.249124	-0.855	0.3495	0.4995	0	231	263	3
2026-02-11	16:36:40.210	118.65	44.38	74.34	1.14192	-0.285236	0.271084	-0.843	0.357	0.4785	0	231	286	3
2026-02-11	16:36:40.230	105.98	52.605	62.055	1.123376	-0.297436	0.21106	-0.8295	0.369	0.4605	0	231	286	3
2026-02-11	16:36:40.250	90.825	57.785	52.43	1.14436	-0.3416	0.190564	-0.822	0.3765	0.438	0	231	286	3
2026-02-11	16:36:40.270	84.28	62.335	50.855	1.072624	-0.287432	0.16714	-0.8145	0.3885	0.408	0	231	286	3
2026-02-11	16:36:40.290	74.795	63.49	48.195	1.0553	-0.317932	0.12688	-0.801	0.396	0.3915	0	231	286	3
2026-02-11	16:36:40.310	68.355	65.135	48.65	1.01382	-0.268644	0.088328	-0.792	0.405	0.378	0	231	286	3
2026-02-11	16:36:40.330	60.445	65.8	50.575	1.010404	-0.283772	0.047092	-0.789	0.4125	0.369	0	231	286	3
2026-02-11	16:36:40.350	56.105	65.905	54.88	0.991128	-0.261568	0.013908	-0.7755	0.423	0.357	0	231	286	3
2026-02-11	16:36:40.370	50.925	63.665	57.715	0.993324	-0.284504	-0.016592	-0.7695	0.4305	0.3495	0	231	286	3
2026-02-11	16:36:40.390	50.155	61.95	61.565	0.98576	-0.29768	-0.055388	-0.7605	0.435	0.336	0	231	286	3
2026-02-11	16:36:40.410	52.92	58.275	64.05	1.010404	-0.22692	-0.04636	-0.7455	0.429	0.318	0	231	284	3
2026-02-11	16:36:40.430	49.245	54.075	65.03	0.985272	-0.26352	-0.053924	-0.7395	0.435	0.3105	0	231	284	3
2026-02-11	16:36:40.450	47.495	48.895	65.73	0.959652	-0.223992	-0.0427	-0.7275	0.4425	0.294	0	231	284	3
2026-02-11	16:36:40.470	43.015	40.915	63.14	0.980148	-0.243024	-0.046848	-0.714	0.441	0.288	0	231	284	3
2026-02-11	16:36:40.490	38.115	32.76	58.24	0.981612	-0.18422	-0.014884	-0.7065	0.4515	0.276	0	231	284	3
2026-02-11	16:36:40.510	27.09	24.64	51.625	0.91256	-0.222772	-0.011956	-0.6975	0.456	0.2625	0	231	284	3
2026-02-11	16:36:40.530	15.4	9.975	39.375	0.928908	-0.200324	0.018788	-0.69	0.4545	0.273	0	231	284	3
2026-02-11	16:36:40.550	6.895	-0.07	30.94	0.959652	-0.233508	0.053436	-0.681	0.459	0.2625	0	231	284	3
2026-02-11	16:36:40.570	3.15	-9.695	21.84	1.04188	-0.217648	0.077104	-0.672	0.4605	0.258	0	231	284	3
2026-02-11	16:36:40.590	3.045	-16.345	10.885	1.163636	-0.232044	0.090036	-0.675	0.4635	0.261	0	231	284	3
2026-02-11	16:36:40.610	1.225	-23.03	-4.27	1.24806	-0.240096	0.086132	-0.675	0.4665	0.255	0	231	244	3
2026-02-11	16:36:40.630	-3.185	-28.35	-19.565	1.199992	-0.270352	0.098332	-0.6705	0.4635	0.2565	0	231	244	3
2026-02-11	16:36:40.650	-8.925	-34.475	-32.55	1.035048	-0.27938	0.1464	-0.6705	0.462	0.264	0	231	244	3
2026-02-11	16:36:40.670	-15.645	-42.105	-39.69	0.833748	-0.285968	0.24522	-0.6765	0.4575	0.267	0	231	244	3
2026-02-11	16:36:40.690	-13.72	-49.07	-37.1	0.669536	-0.325496	0.364292	-0.6915	0.465	0.27	0	231	244	3
2026-02-11	16:36:40.710	-3.815	-54.355	-25.2	0.58194	-0.295484	0.440176	-0.6975	0.456	0.285	0	231	244	3
2026-02-11	16:36:40.730	5.74	-59.675	-8.575	0.629032	-0.26718	0.429684	-0.708	0.4605	0.2835	0	231	244	3
2026-02-11	16:36:40.750	17.465	-63.525	6.825	0.740052	-0.242536	0.34404	-0.7155	0.4575	0.279	0	231	244	3
2026-02-11	16:36:40.770	33.635	-67.41	17.605	0.880596	-0.241316	0.28914	-0.7215	0.4545	0.2895	0	231	244	3
2026-02-11	16:36:40.790	51.485	-69.65	22.82	1.027972	-0.24644	0.277672	-0.717	0.4485	0.2955	0	231	244	3
2026-02-11	16:36:40.810	72.695	-68.425	22.26	1.081652	-0.240828	0.334524	-0.726	0.4485	0.2925	0	231	213	3
2026-02-11	16:36:40.830	88.62	-61.46	16.625	1.055056	-0.191296	0.460428	-0.7275	0.444	0.2955	0	231	213	3
2026-02-11	16:36:40.850	81.235	-56.385	9.345	0.998936	-0.150304	0.528016	-0.729	0.435	0.291	0	231	213	3
2026-02-11	16:36:40.870	64.75	-52.99	1.435	0.935008	-0.148108	0.570716	-0.7365	0.423	0.2865	0	231	213	3
2026-02-11	16:36:40.890	48.23	-50.82	-5.04	0.88084	-0.155184	0.576328	-0.744	0.417	0.285	0	231	213	3
2026-02-11	16:36:40.910	36.645	-49.63	-8.12	0.843996	-0.183976	0.54534	-0.744	0.414	0.279	0	231	213	3
2026-02-11	16:36:40.930	35	-48.23	-9.765	0.8296	-0.222772	0.513132	-0.7455	0.4095	0.285	0	231	213	3
2026-02-11	16:36:40.950	38.57	-45.605	-9.975	0.817888	-0.243512	0.487024	-0.747	0.408	0.2955	0	231	213	3
2026-02-11	16:36:40.970	46.9	-42.385	-10.43	0.821304	-0.262788	0.476776	-0.7455	0.4005	0.291	0	231	213	3
2026-02-11	16:36:40.990	55.125	-38.045	-10.71	0.823256	-0.264008	0.46726	-0.7575	0.402	0.297	0	231	213	3
2026-02-11	16:36:41.010	62.405	-33.04	-11.795	0.828136	-0.277428	0.451156	-0.7605	0.3975	0.3	0	231	229	3
2026-02-11	16:36:41.030	68.215	-27.37	-13.055	0.832284	-0.251076	0.436516	-0.7605	0.39	0.294	0	231	229	3
2026-02-11	16:36:41.050	68.705	-21.63	-15.085	0.830332	-0.24766	0.428708	-0.7665	0.384	0.2895	0	231	229	3
2026-02-11	16:36:41.070	65.625	-15.925	-16.975	0.832528	-0.238144	0.4209	-0.771	0.378	0.291	0	231	229	3
2026-02-11	16:36:41.090	58.345	-10.045	-17.255	0.819596	-0.258152	0.401868	-0.768	0.3765	0.2895	0	231	229	3
2026-02-11	16:36:41.110	48.195	-4.515	-16.485	0.811544	-0.280844	0.375272	-0.771	0.366	0.279	0	231	229	3
2026-02-11	16:36:41.130	29.19	1.12	-11.34	0.87474	-0.304756	0.322324	-0.78	0.3645	0.2775	0	231	229	3
2026-02-11	16:36:41.150	19.215	2.38	-6.195	0.972096	-0.308172	0.295972	-0.78	0.36	0.27	0	231	229	3
2026-02-11	16:36:41.170	12.74	2.73	-0.455	1.082872	-0.328424	0.275232	-0.783	0.351	0.2625	0	231	229	3
2026-02-11	16:36:41.190	6.055	1.925	4.34	1.22976	-0.342088	0.245952	-0.7875	0.345	0.261	0	231	229	3
2026-02-11	16:36:41.210	-2.03	0.105	7.07	1.414468	-0.38796	0.229604	-0.7845	0.345	0.264	0	231	270	3
2026-02-11	16:36:41.230	-5.215	-0.875	8.89	1.558916	-0.424316	0.230092	-0.777	0.3465	0.2655	0	231	270	3
2026-02-11	16:36:41.250	-2.275	-0.035	9.94	1.551596	-0.47946	0.244	-0.774	0.3495	0.264	0	231	270	3
2026-02-11	16:36:41.270	5.04	1.47	13.685	1.327604	-0.495564	0.224236	-0.777	0.3555	0.2535	0	231	270	3
2026-02-11	16:36:41.290	14.315	0.455	22.365	0.97844	-0.47458	0.1769	-0.777	0.348	0.264	0	231	270	3
2026-02-11	16:36:41.310	19.705	-4.55	36.435	0.701256	-0.434808	0.09394	-0.777	0.3465	0.2715	0	231	270	3
2026-02-11	16:36:41.330	30.975	-15.19	53.9	0.622688	-0.42212	-0.00732	-0.777	0.357	0.246	0	231	270	3
2026-02-11	16:36:41.350	48.37	-27.755	68.11	0.711748	-0.399428	-0.051484	-0.7665	0.354	0.252	0	231	270	3
2026-02-11	16:36:41.370	66.22	-36.925	78.05	0.90036	-0.423096	-0.02806	-0.7665	0.351	0.255	0	231	270	3
2026-02-11	16:36:41.390	88.48	-41.72	83.615	1.074088	-0.460428	0.044652	-0.768	0.3585	0.243	0	231	270	3
2026-02-11	16:36:41.410	111.405	-36.505	86.065	1.157536	-0.468968	0.088572	-0.765	0.3645	0.2385	0	232	285	3
2026-02-11	16:36:41.430	122.71	-27.65	87.115	1.151436	-0.418704	0.09272	-0.765	0.3645	0.2385	0	232	285	3
2026-02-11	16:36:41.450	118.895	-21.35	87.115	1.124596	-0.340868	0.078568	-0.759	0.366	0.2235	0	232	285	3
2026-02-11	16:36:41.470	106.4	-16.275	87.64	1.126548	-0.305976	0.081984	-0.7455	0.372	0.2115	0	232	285	3
2026-02-11	16:36:41.490	92.75	-11.655	90.02	1.047492	-0.243512	0.113216	-0.7305	0.378	0.216	0	232	285	3
2026-02-11	16:36:41.510	75.18	-7.84	91.14	1.01138	-0.232532	0.139812	-0.723	0.3795	0.222	0	232	285	3
2026-02-11	16:36:41.530	53.69	-3.885	90.65	0.979416	-0.259616	0.120292	-0.72	0.378	0.2235	0	232	285	3
2026-02-11	16:36:41.550	39.27	-0.91	88.515	0.960628	-0.256444	0.093696	-0.714	0.369	0.216	0	232	285	3
2026-02-11	16:36:41.570	33.6	0.42	84.665	0.9455	-0.270108	0.078324	-0.714	0.381	0.219	0	232	285	3
2026-02-11	16:36:41.590	33.705	0.875	79.345	0.915732	-0.26108	0.086132	-0.7095	0.3795	0.216	0	232	285	3
2026-02-11	16:36:41.610	35.56	1.295	72.415	0.87718	-0.257664	0.098332	-0.7035	0.384	0.216	0	235	261	3
2026-02-11	16:36:41.630	37.835	0.42	62.825	0.879132	-0.244	0.113216	-0.699	0.3825	0.2115	0	235	261	3
2026-02-11	16:36:41.650	37.485	0.105	51.73	0.870592	-0.243756	0.126392	-0.6975	0.3885	0.207	0	235	261	3
2026-02-11	16:36:41.670	35.385	-0.105	39.795	0.886452	-0.234972	0.113948	-0.6915	0.39	0.2115	0	235	261	3
2026-02-11	16:36:41.690	33.285	-1.82	28.035	0.897676	-0.218868	0.112728	-0.681	0.396	0.2085	0	235	261	3
2026-02-11	16:36:41.710	32.2	-5.565	12.39	0.933544	-0.221796	0.135176	-0.6975	0.3915	0.195	0	235	261	3
2026-02-11	16:36:41.730	30.765	-8.715	-2.835	1.0004	-0.22204	0.155672	-0.693	0.3915	0.1995	0	235	261	3
2026-02-11	16:36:41.750	27.79	-11.585	-15.4	1.070428	-0.21472	0.152744	-0.693	0.3885	0.1965	0	235	261	3
2026-02-11	16:36:41.770	22.435	-13.93	-29.05	1.156072	-0.202764	0.169092	-0.6915	0.381	0.195	0	235	261	3
2026-02-11	16:36:41.790	16.38	-17.36	-42.455	1.288808	-0.223992	0.184464	-0.693	0.378	0.1965	0	235	261	3
2026-02-11	16:36:41.810	13.44	-18.48	-55.09	1.35054	-0.238144	0.183732	-0.7035	0.375	0.1965	0	236	225	3
2026-02-11	16:36:41.830	13.44	-20.09	-69.23	1.347368	-0.267912	0.174216	-0.711	0.3705	0.198	0	236	225	3
2026-02-11	16:36:41.850	16.345	-23.835	-83.23	1.390068	-0.274012	0.165432	-0.7095	0.3675	0.195	0	236	225	3
2026-02-11	16:36:41.870	19.53	-27.79	-96.46	1.421056	-0.275964	0.164944	-0.7185	0.342	0.1875	0	236	225	3
2026-02-11	16:36:41.890	23.765	-30.415	-107.45	1.40178	-0.24156	0.17324	-0.735	0.342	0.195	0	236	225	3
2026-02-11	16:36:41.910	22.68	-32.165	-116.27	1.375428	-0.240584	0.20984	-0.7425	0.327	0.201	0	236	225	3
2026-02-11	16:36:41.930	18.48	-33.635	-123.06	1.3176	-0.241072	0.231556	-0.753	0.318	0.2055	0	236	225	3
2026-02-11	16:36:41.950	10.395	-30.415	-122.675	1.19438	-0.265716	0.25254	-0.7575	0.2925	0.204	0	236	225	3
2026-02-11	16:36:41.970	0.98	-24.57	-113.435	1.017724	-0.24156	0.247416	-0.774	0.288	0.1995	0	236	225	3
2026-02-11	16:36:41.990	-11.095	-20.195	-98.21	0.881816	-0.25864	0.199348	-0.774	0.2745	0.198	0	236	225	3
2026-02-11	16:36:42.010	-17.85	-19.985	-72.38	0.827404	-0.156892	0.156648	-0.7815	0.258	0.1965	0	235	201	3
2026-02-11	16:36:42.030	-20.055	-20.58	-56.21	0.858392	-0.149084	0.189344	-0.792	0.237	0.198	0	235	201	3
2026-02-11	16:36:42.050	-24.71	-19.18	-42.35	0.860344	-0.185684	0.241804	-0.804	0.228	0.1995	0	235	201	3
2026-02-11	16:36:42.070	-28.945	-15.295	-32.06	0.827648	-0.202764	0.287188	-0.807	0.2235	0.2055	0	235	201	3
2026-02-11	16:36:42.090	-39.06	-9.03	-25.375	0.770552	-0.207644	0.311832	-0.8025	0.222	0.2145	0	235	201	3
2026-02-11	16:36:42.110	-54.215	-3.29	-19.32	0.70394	-0.231556	0.2928	-0.807	0.219	0.2205	0	235	201	3
2026-02-11	16:36:42.130	-63.735	0.455	-14.98	0.666364	-0.1891	0.297436	-0.81	0.2205	0.222	0	235	201	3
2026-02-11	16:36:42.150	-71.12	2.835	-9.8	0.64416	-0.192272	0.326228	-0.8085	0.2265	0.219	0	235	201	3
2026-02-11	16:36:42.170	-74.97	5.215	-5.775	0.6405	-0.20008	0.34038	-0.8055	0.2325	0.2295	0	235	201	3
2026-02-11	16:36:42.190	-76.86	8.47	-3.045	0.644404	-0.224968	0.327692	-0.804	0.234	0.237	0	235	201	3
2026-02-11	16:36:42.210	-74.515	11.2	-1.05	0.663436	-0.2318	0.307684	-0.8055	0.2445	0.2325	0	235	200	3
2026-02-11	16:36:42.230	-70.7	12.985	1.225	0.708088	-0.237656	0.293776	-0.7965	0.255	0.237	0	235	200	3
2026-02-11	16:36:42.250	-62.51	13.615	3.465	0.833748	-0.260592	0.316468	-0.7965	0.255	0.237	0	235	200	3
2026-02-11	16:36:42.270	-55.65	12.425	3.745	0.91988	-0.25864	0.36234	-0.795	0.2625	0.24	0	235	200	3
2026-02-11	16:36:42.290	-46.655	9.415	2.905	0.992836	-0.285724	0.393084	-0.798	0.276	0.2445	0	235	200	3
2026-02-11	16:36:42.310	-35.805	7.525	2.695	1.019188	-0.257664	0.446764	-0.804	0.282	0.2415	0	235	200	3
2026-02-11	16:36:42.330	-29.75	7.77	-0.42	1.005768	-0.359168	0.43554	-0.801	0.2835	0.243	0	235	200	3
2026-02-11	16:36:42.350	-13.09	3.325	1.295	1.02724	-0.299388	0.37942	-0.795	0.288	0.2475	0	235	200	3
2026-02-11	16:36:42.370	-2.38	-1.225	2.31	1.06506	-0.27816	0.381128	-0.798	0.291	0.2415	0	235	200	3
2026-02-11	16:36:42.390	-2.625	-3.325	6.475	1.13338	-0.281088	0.386496	-0.801	0.2895	0.243	0	235	200	3
2026-02-11	16:36:42.410	-10.01	-3.815	9.45	1.188524	-0.32452	0.37942	-0.798	0.2895	0.249	0	236	223	3
2026-02-11	16:36:42.430	-20.79	-4.41	13.125	1.29076	-0.277428	0.376248	-0.804	0.2865	0.252	0	236	223	3
2026-02-11	16:36:42.450	-34.58	-2.59	16.03	1.362984	-0.307928	0.343064	-0.795	0.288	0.2505	0	236	223	3
2026-02-11	16:36:42.470	-44.765	-3.01	16.135	1.281732	-0.398208	0.318908	-0.8055	0.297	0.252	0	236	223	3
2026-02-11	16:36:42.490	-35.77	-6.3	19.565	1.17974	-0.4575	0.340624	-0.801	0.3015	0.2535	0	236	223	3
2026-02-11	16:36:42.510	-15.505	-7	26.145	0.995032	-0.503372	0.310856	-0.801	0.312	0.2505	0	236	223	3
2026-02-11	16:36:42.530	6.195	-8.19	33.075	0.838872	-0.448228	0.234972	-0.804	0.315	0.249	0	236	223	3
2026-02-11	16:36:42.550	20.545	-8.575	40.775	0.87474	-0.400404	0.208864	-0.801	0.3195	0.252	0	236	223	3
2026-02-11	16:36:42.570	30.905	-7.49	50.365	0.860344	-0.458964	0.183244	-0.798	0.3255	0.246	0	236	223	3
2026-02-11	16:36:42.590	47.145	-8.505	62.195	0.895724	-0.40382	0.171288	-0.795	0.336	0.237	0	236	223	3
2026-02-11	16:36:42.610	59.71	-5.565	72.1	0.93208	-0.388936	0.178608	-0.7905	0.3465	0.234	0	237	251	3
2026-02-11	16:36:42.630	66.22	-1.89	77.595	0.94794	-0.35014	0.17934	-0.792	0.354	0.237	0	237	251	3
2026-02-11	16:36:42.650	64.715	3.115	79.45	0.90402	-0.339648	0.166896	-0.7845	0.3705	0.24	0	237	251	3
2026-02-11	16:36:42.670	60.76	6.79	81.55	0.83936	-0.271084	0.165432	-0.7695	0.384	0.2445	0	237	251	3
2026-02-11	16:36:42.690	46.585	9.765	83.125	0.74176	-0.241804	0.155672	-0.762	0.387	0.249	0	237	251	3
2026-02-11	16:36:42.710	30.87	9.45	83.79	0.710284	-0.233996	0.126148	-0.759	0.3885	0.252	0	237	251	3
2026-02-11	16:36:42.730	23.1	7.455	83.58	0.71858	-0.2562	0.132736	-0.753	0.3915	0.2475	0	237	251	3
2026-02-11	16:36:42.750	21.945	5.46	81.095	0.764696	-0.238144	0.155428	-0.7425	0.396	0.24	0	237	251	3
2026-02-11	16:36:42.770	23.31	4.655	75.565	0.770552	-0.275964	0.13298	-0.7365	0.399	0.2325	0	237	251	3
2026-02-11	16:36:42.790	28.665	2.415	67.095	0.833992	-0.25864	0.142008	-0.729	0.4005	0.228	0	237	251	3
2026-02-11	16:36:42.810	33.145	1.19	57.855	0.901336	-0.265472	0.142252	-0.7245	0.405	0.2265	0	236	258	3
2026-02-11	16:36:42.830	39.935	-1.26	45.955	0.974536	-0.253028	0.1586	-0.72	0.411	0.219	0	236	258	3
2026-02-11	16:36:42.850	42.35	-1.645	32.2	1.073356	-0.240096	0.171044	-0.7125	0.411	0.216	0	236	258	3
2026-02-11	16:36:42.870	41.755	-2.625	18.62	1.162904	-0.238388	0.17446	-0.714	0.4095	0.2145	0	236	258	3
2026-02-11	16:36:42.890	37.485	-2.59	5.775	1.18218	-0.210572	0.162504	-0.7155	0.408	0.207	0	236	258	3
2026-02-11	16:36:42.910	29.645	-4.55	-6.51	1.214388	-0.19642	0.182512	-0.7125	0.408	0.1995	0	236	258	3
2026-02-11	16:36:42.930	20.79	-7	-22.645	1.231468	-0.174216	0.198616	-0.7125	0.414	0.1995	0	236	258	3
2026-02-11	16:36:42.950	15.47	-6.93	-33.18	1.204628	-0.125904	0.171044	-0.708	0.405	0.195	0	236	258	3
2026-02-11	16:36:42.970	9.625	-8.365	-46.41	1.271728	-0.108336	0.152012	-0.7275	0.396	0.2085	0	236	258	3
2026-02-11	16:36:42.990	3.64	-9.905	-61.95	1.367864	-0.09394	0.127856	-0.723	0.393	0.204	0	236	258	3
2026-02-11	16:36:43.010	-2.555	-9.135	-77.7	1.38958	-0.121024	0.127368	-0.723	0.3855	0.204	0	235	243	3
2026-02-11	16:36:43.030	-8.33	-7.315	-91.98	1.351516	-0.156404	0.152256	-0.729	0.375	0.2055	0	235	243	3
2026-02-11	16:36:43.050	-16.135	-4.9	-101.71	1.22732	-0.153964	0.137128	-0.7335	0.369	0.1995	0	235	243	3
2026-02-11	16:36:43.070	-22.855	-6.37	-109.27	1.102148	-0.20008	0.136396	-0.7395	0.36	0.1995	0	235	243	3
2026-02-11	16:36:43.090	-23.765	-8.4	-107.905	1.018944	-0.18544	0.172264	-0.7545	0.3495	0.2055	0	235	243	3
2026-02-11	16:36:43.110	-24.43	-11.445	-100.87	0.976732	-0.153232	0.20252	-0.7635	0.339	0.207	0	235	243	3
2026-02-11	16:36:43.130	-27.09	-14.14	-89.635	0.99308	-0.120536	0.193492	-0.7695	0.3285	0.204	0	235	243	3
2026-02-11	16:36:43.150	-29.19	-14.84	-76.825	0.975268	-0.096624	0.182268	-0.7755	0.324	0.2025	0	235	243	3
2026-02-11	16:36:43.170	-32.865	-15.12	-66.045	0.955748	-0.108336	0.182512	-0.7785	0.318	0.207	0	235	243	3
2026-02-11	16:36:43.190	-39.2	-13.965	-56.77	0.880596	-0.110044	0.19276	-0.789	0.312	0.2085	0	235	243	3
2026-02-11	16:36:43.210	-46.795	-12.915	-51.8	0.803004	-0.126392	0.22692	-0.7965	0.3075	0.2085	0	234	224	3
2026-02-11	16:36:43.230	-53.27	-12.075	-49.175	0.744932	-0.145912	0.259128	-0.8055	0.2835	0.2115	0	234	224	3
2026-02-11	16:36:43.250	-57.89	-11.725	-47.39	0.721996	-0.175192	0.27694	-0.813	0.285	0.2205	0	234	224	3
2026-02-11	16:36:43.270	-59.465	-9.835	-46.62	0.67466	-0.213744	0.279136	-0.8235	0.2775	0.222	0	234	224	3
2026-02-11	16:36:43.290	-58.135	-8.785	-45.99	0.662704	-0.229116	0.294508	-0.8145	0.279	0.2205	0	234	224	3
2026-02-11	16:36:43.310	-58.275	-7.175	-43.715	0.665388	-0.243756	0.303048	-0.8145	0.2835	0.231	0	234	224	3
2026-02-11	16:36:43.330	-55.965	-5.32	-40.915	0.676124	-0.233264	0.316712	-0.8205	0.2805	0.2445	0	234	224	3
2026-02-11	16:36:43.350	-53.865	-4.27	-38.78	0.69662	-0.249612	0.325496	-0.822	0.279	0.2475	0	234	224	3
2026-02-11	16:36:43.370	-49.595	-4.515	-37.135	0.7442	-0.26596	0.366732	-0.828	0.282	0.252	0	234	224	3
2026-02-11	16:36:43.390	-41.965	-4.69	-34.615	0.786656	-0.29646	0.414556	-0.834	0.2805	0.2505	0	234	224	3
2026-02-11	16:36:43.410	-32.305	-5.04	-32.095	0.847412	-0.30622	0.444324	-0.834	0.2775	0.2535	0	233	220	3
2026-02-11	16:36:43.430	-22.085	-4.795	-29.54	0.899628	-0.317444	0.4575	-0.8325	0.2775	0.2565	0	233	220	3
2026-02-11	16:36:43.450	-13.195	-3.885	-26.565	0.95282	-0.30866	0.473848	-0.8355	0.276	0.258	0	233	220	3
2026-02-11	16:36:43.470	-9.695	-2.415	-23.45	1.01504	-0.297436	0.472384	-0.834	0.273	0.2595	0	233	220	3
2026-02-11	16:36:43.490	-17.465	-0.63	-18.41	1.136552	-0.282064	0.447008	-0.8295	0.2745	0.2565	0	233	220	3
2026-02-11	16:36:43.510	-28.315	-0.105	-14.63	1.2139	-0.299144	0.43554	-0.8295	0.2745	0.2565	0	233	220	3
2026-02-11	16:36:43.530	-36.26	0.035	-8.995	1.235616	-0.34282	0.431392	-0.84	0.27	0.267	0	233	220	3
2026-02-11	16:36:43.550	-40.67	-0.875	-1.435	1.231956	-0.355752	0.428464	-0.849	0.2715	0.267	0	233	220	3
2026-02-11	16:36:43.570	-44.135	-4.025	6.895	1.272216	-0.381128	0.418216	-0.8445	0.27	0.2655	0	233	220	3
2026-02-11	16:36:43.590	-41.51	-7.63	14.56	1.33956	-0.424804	0.396012	-0.843	0.2745	0.2685	0	233	220	3
2026-02-11	16:36:43.610	-32.97	-9.275	21.07	1.330288	-0.468236	0.384056	-0.8415	0.2805	0.273	0	233	245	3
2026-02-11	16:36:43.630	-16.03	-9.135	28.455	1.225856	-0.505324	0.377712	-0.8385	0.288	0.2745	0	233	245	3
2026-02-11	16:36:43.650	8.575	-8.19	39.095	1.10166	-0.500688	0.3538	-0.8415	0.2925	0.276	0	233	245	3
2026-02-11	16:36:43.670	32.13	-6.335	54.18	1.025776	-0.477508	0.26352	-0.837	0.2895	0.276	0	233	245	3
2026-02-11	16:36:43.690	58.38	-3.605	73.885	0.99186	-0.416996	0.20496	-0.8355	0.291	0.276	0	233	245	3
2026-02-11	16:36:43.710	83.125	0.91	88.76	0.939644	-0.336476	0.215696	-0.837	0.3	0.276	0	233	245	3
2026-02-11	16:36:43.730	89.145	1.82	96.355	0.970388	-0.267668	0.249124	-0.828	0.306	0.2655	0	233	245	3
2026-02-11	16:36:43.750	80.71	9.485	100.38	0.955504	-0.31476	0.241072	-0.8205	0.3075	0.2505	0	233	245	3
2026-02-11	16:36:43.770	69.755	16.8	99.715	0.975756	-0.265472	0.237412	-0.813	0.318	0.2355	0	233	245	3
2026-02-11	16:36:43.790	48.65	26.915	102.095	0.933544	-0.23912	0.188612	-0.81	0.327	0.2295	0	233	245	3
2026-02-11	16:36:43.810	33.565	31.5	101.815	0.851072	-0.246196	0.167872	-0.81	0.327	0.2295	0	234	273	3
2026-02-11	16:36:43.830	23.905	32.585	99.225	0.806176	-0.258152	0.136884	-0.765	0.3735	0.243	0	234	273	3
2026-02-11	16:36:43.850	19.215	32.725	97.755	0.782508	-0.259128	0.133956	-0.765	0.384	0.2445	0	234	273	3
2026-02-11	16:36:43.870	15.715	32.305	96.775	0.778116	-0.254248	0.138348	-0.7545	0.387	0.24	0	234	273	3
2026-02-11	16:36:43.890	13.72	30.555	94.745	0.7991	-0.256932	0.135664	-0.738	0.3945	0.2355	0	234	273	3
2026-02-11	16:36:43.910	14.98	28.875	93.415	0.786656	-0.251808	0.116876	-0.732	0.399	0.2325	0	234	273	3
2026-02-11	16:36:43.930	17.115	25.9	86.905	0.78202	-0.243268	0.111752	-0.723	0.4035	0.228	0	234	273	3
2026-02-11	16:36:43.950	19.81	22.295	78.015	0.817156	-0.244732	0.122732	-0.7065	0.411	0.2235	0	234	273	3
2026-02-11	16:36:43.970	23.555	18.935	70.245	0.894748	-0.24034	0.131272	-0.699	0.417	0.219	0	234	273	3
2026-02-11	16:36:43.990	24.78	19.39	61.81	0.862784	-0.255468	0.116632	-0.6885	0.423	0.216	0	234	273	3
2026-02-11	16:36:44.010	26.845	13.37	49.28	0.974292	-0.238388	0.1342	-0.678	0.4275	0.2085	0	234	273	3
2026-02-11	16:36:44.030	29.54	10.255	37.1	1.032608	-0.210328	0.153232	-0.669	0.429	0.2025	0	234	273	3
2026-02-11	16:36:44.050	26.95	6.44	24.815	1.1102	-0.210816	0.14396	-0.657	0.435	0.198	0	234	273	3
2026-02-11	16:36:44.070	23.205	0.525	6.895	1.218292	-0.203496	0.155428	-0.6555	0.435	0.189	0	234	273	3
2026-02-11	16:36:44.090	18.515	-5.6	-12.18	1.306132	-0.20984	0.160308	-0.6585	0.432	0.186	0	234	273	3
2026-02-11	16:36:44.110	15.645	-10.675	-26.74	1.33102	-0.227896	0.182756	-0.6615	0.423	0.1875	0	234	273	3
2026-02-11	16:36:44.130	17.92	-14.805	-37.835	1.309792	-0.244488	0.208376	-0.6615	0.4215	0.183	0	234	273	3
2026-02-11	16:36:44.150	22.75	-17.71	-48.37	1.297836	-0.218868	0.207644	-0.672	0.4125	0.1905	0	234	273	3
2026-02-11	16:36:44.170	19.46	-19.705	-58.8	1.278804	-0.180316	0.162016	-0.6765	0.411	0.189	0	234	273	3
2026-02-11	16:36:44.190	12.25	-20.895	-69.3	1.23952	-0.161528	0.138104	-0.6855	0.4065	0.183	0	234	273	3
2026-02-11	16:36:44.210	5.18	-23.905	-80.08	1.20292	-0.17568	0.16714	-0.693	0.399	0.1845	0	233	253	3
2026-02-11	16:36:44.230	0.77	-25.655	-87.99	1.089948	-0.207888	0.211548	-0.699	0.3885	0.189	0	233	253	3
2026-02-11	16:36:44.250	-1.365	-26.81	-90.72	0.973316	-0.231068	0.234728	-0.711	0.378	0.1935	0	233	253	3
2026-02-11	16:36:44.270	-3.115	-28.245	-88.235	0.868152	-0.222772	0.248636	-0.7185	0.369	0.198	0	233	253	3
2026-02-11	16:36:44.290	-7.595	-30.73	-82.53	0.870104	-0.219844	0.281088	-0.729	0.36	0.201	0	233	253	3
2026-02-11	16:36:44.310	-13.93	-32.095	-76.51	0.955992	-0.200812	0.297192	-0.738	0.3555	0.198	0	233	253	3
2026-02-11	16:36:44.330	-21.7	-30.415	-71.015	1.00162	-0.19276	0.29402	-0.7455	0.351	0.1995	0	233	253	3
2026-02-11	16:36:44.350	-29.75	-28.385	-68.25	1.030412	-0.204228	0.297924	-0.7575	0.345	0.2055	0	233	253	3
2026-02-11	16:36:44.370	-39.095	-23.66	-66.955	0.977952	-0.218624	0.300852	-0.7605	0.3405	0.2055	0	233	253	3
2026-02-11	16:36:44.390	-48.02	-18.865	-66.29	0.882792	-0.233264	0.321836	-0.7605	0.3405	0.2055	0	233	253	3
2026-02-11	16:36:44.410	-54.81	-16.38	-65.1	0.78568	-0.268888	0.334524	-0.7875	0.315	0.2055	0	232	238	3
2026-02-11	16:36:44.430	-55.965	-14.945	-61.74	0.692228	-0.234728	0.356728	-0.789	0.303	0.2175	0	232	238	3
2026-02-11	16:36:44.450	-59.045	-14.49	-57.505	0.638792	-0.297192	0.349896	-0.795	0.3	0.222	0	232	238	3
2026-02-11	16:36:44.470	-57.33	-13.86	-53.55	0.606828	-0.277428	0.341112	-0.8025	0.294	0.234	0	232	238	3
2026-02-11	16:36:44.490	-53.305	-13.93	-49.42	0.600484	-0.292312	0.323544	-0.8025	0.294	0.24	0	232	238	3
2026-02-11	16:36:44.510	-46.585	-13.37	-47.005	0.604876	-0.304756	0.31964	-0.804	0.294	0.246	0	232	238	3
2026-02-11	16:36:44.530	-39.025	-12.25	-44.625	0.640256	-0.299388	0.32574	-0.8115	0.294	0.2565	0	232	238	3
2026-02-11	16:36:44.550	-32.935	-10.745	-42.455	0.70028	-0.30378	0.344284	-0.816	0.2895	0.255	0	232	238	3
2026-02-11	16:36:44.570	-27.79	-9.38	-41.405	0.759816	-0.291824	0.352824	-0.8205	0.285	0.2565	0	232	238	3
2026-02-11	16:36:44.590	-24.57	-8.12	-41.965	0.859368	-0.285724	0.377468	-0.8235	0.285	0.2655	0	232	238	3
2026-02-11	16:36:44.610	-25.9	-6.125	-42.595	0.95038	-0.27572	0.387716	-0.8235	0.2865	0.264	0	229	244	3
2026-02-11	16:36:44.630	-31.92	-3.92	-43.4	1.031144	-0.27328	0.380396	-0.822	0.282	0.2625	0	229	244	3
2026-02-11	16:36:44.650	-44.17	-2.695	-44.24	1.134844	-0.271084	0.383568	-0.825	0.2775	0.264	0	229	244	3
2026-02-11	16:36:44.670	-70.07	-0.805	-42.28	1.273924	-0.331596	0.367464	-0.8295	0.2805	0.264	0	229	244	3
2026-02-11	16:36:44.690	-87.64	0.385	-36.26	1.25904	-0.362096	0.356484	-0.8355	0.2745	0.2685	0	229	244	3
2026-02-11	16:36:44.710	-103.46	-2.1	-27.58	1.2688	-0.392596	0.358924	-0.8385	0.2805	0.2835	0	229	244	3
2026-02-11	16:36:44.730	-105.84	-7.28	-16.94	1.286368	-0.443592	0.351604	-0.828	0.2715	0.2865	0	229	244	3
2026-02-11	16:36:44.750	-88.2	-12.845	-3.78	1.27734	-0.517524	0.337696	-0.834	0.2805	0.288	0	229	244	3
2026-02-11	16:36:44.770	-53.97	-17.535	11.445	1.253916	-0.564372	0.310612	-0.837	0.288	0.2925	0	229	244	3
2026-02-11	16:36:44.790	-9.73	-20.895	27.685	1.221708	-0.601948	0.28426	-0.8355	0.2895	0.2985	0	229	244	3
2026-02-11	16:36:44.810	36.015	-21.035	45.71	1.171444	-0.566812	0.25742	-0.837	0.2925	0.306	0	229	265	3
2026-02-11	16:36:44.830	73.535	-18.48	64.26	1.1041	-0.479704	0.230092	-0.8385	0.294	0.3045	0	229	265	3
2026-02-11	16:36:44.850	98.98	-14.91	82.285	1.051152	-0.377956	0.219356	-0.834	0.297	0.3045	0	229	265	3
2026-02-11	16:36:44.870	116.375	-10.885	97.93	1.041636	-0.306952	0.163724	-0.8295	0.303	0.3045	0	229	265	3
2026-02-11	16:36:44.890	130.41	-5.74	113.015	0.955016	-0.238144	0.193492	-0.822	0.309	0.2985	0	229	265	3
2026-02-11	16:36:44.910	121.905	-3.395	113.365	1.001132	-0.245708	0.202764	-0.8175	0.315	0.2865	0	229	265	3
2026-02-11	16:36:44.930	101.955	3.395	110.11	0.960628	-0.270108	0.197884	-0.8115	0.321	0.273	0	229	265	3
2026-02-11	16:36:44.950	77.91	10.675	103.46	0.86864	-0.24156	0.201056	-0.7995	0.3285	0.261	0	229	265	3
2026-02-11	16:36:44.970	58.625	14.21	98	0.784704	-0.239852	0.179584	-0.7935	0.3345	0.2535	0	229	265	3
2026-02-11	16:36:44.990	48.44	16.45	96.005	0.762988	-0.242048	0.168116	-0.762	0.3795	0.2445	0	229	265	3
2026-02-11	16:36:45.010	39.9	18.095	90.72	0.737368	-0.256688	0.146156	-0.75	0.3885	0.252	0	229	275	3
2026-02-11	16:36:45.030	36.33	19.005	85.26	0.722972	-0.261812	0.118584	-0.75	0.393	0.258	0	229	275	3
2026-02-11	16:36:45.050	36.4	20.16	81.34	0.733708	-0.239852	0.122732	-0.7425	0.393	0.2565	0	229	275	3
2026-02-11	16:36:45.070	35.455	20.65	76.685	0.764696	-0.23302	0.124684	-0.7305	0.396	0.2505	0	229	275	3
2026-02-11	16:36:45.090	34.58	21.07	70.7	0.80398	-0.224724	0.1159	-0.723	0.4005	0.243	0	229	275	3
2026-02-11	16:36:45.110	33.81	22.75	61.32	0.843264	-0.211304	0.121024	-0.72	0.4035	0.2385	0	229	275	3
2026-02-11	16:36:45.130	31.92	22.61	50.925	0.905728	-0.193736	0.128344	-0.714	0.405	0.231	0	229	275	3
2026-02-11	16:36:45.150	23.555	23.695	39.62	0.997472	-0.206424	0.14152	-0.702	0.4035	0.2205	0	229	275	3
2026-02-11	16:36:45.170	15.75	22.575	27.86	1.08702	-0.21716	0.130784	-0.6975	0.405	0.222	0	229	275	3
2026-02-11	16:36:45.190	9.17	21.49	16.485	1.160952	-0.221796	0.110288	-0.693	0.405	0.225	0	229	275	3
2026-02-11	16:36:45.210	4.97	19.04	4.13	1.273924	-0.231068	0.13054	-0.687	0.405	0.2175	0	230	261	3
2026-02-11	16:36:45.230	4.655	15.785	-7.035	1.320528	-0.265228	0.154452	-0.6855	0.4065	0.2085	0	230	261	3
2026-02-11	16:36:45.250	10.535	11.515	-17.29	1.2688	-0.275232	0.154452	-0.684	0.4065	0.21	0	230	261	3
2026-02-11	16:36:45.270	19.11	5.145	-24.29	1.29198	-0.251808	0.194468	-0.6825	0.4065	0.2145	0	230	261	3
2026-02-11	16:36:45.290	23.24	0.245	-29.4	1.382992	-0.223504	0.206668	-0.687	0.393	0.2055	0	230	261	3
2026-02-11	16:36:45.310	17.85	-0.35	-33.775	1.480104	-0.204228	0.221796	-0.6885	0.39	0.2025	0	230	261	3
2026-02-11	16:36:45.330	1.085	1.785	-37.94	1.482056	-0.146644	0.221064	-0.69	0.387	0.198	0	230	261	3
2026-02-11	16:36:45.350	-25.62	4.76	-42.49	1.340536	-0.116632	0.162016	-0.6915	0.3855	0.1935	0	230	261	3
2026-02-11	16:36:45.370	-45.465	2.975	-46.795	1.108492	-0.141032	0.110776	-0.6945	0.3825	0.195	0	230	261	3
2026-02-11	16:36:45.390	-46.13	-5.88	-48.615	0.889624	-0.122	0.14762	-0.699	0.381	0.1995	0	230	261	3
2026-02-11	16:36:45.410	-35.42	-19.005	-48.405	0.804468	-0.10736	0.236436	-0.702	0.381	0.201	0	231	239	3
2026-02-11	16:36:45.430	-14.77	-29.925	-48.615	0.798368	-0.112972	0.28792	-0.7065	0.384	0.2055	0	231	239	3
2026-02-11	16:36:45.450	9.59	-36.645	-51.17	0.846924	-0.104432	0.289872	-0.7155	0.384	0.213	0	231	239	3
2026-02-11	16:36:45.470	24.08	-37.31	-55.86	0.864492	-0.07905599	0.266936	-0.723	0.3735	0.2175	0	231	239	3
2026-02-11	16:36:45.490	24.885	-34.895	-63.875	0.832528	-0.089304	0.209108	-0.7305	0.3645	0.2205	0	231	239	3
2026-02-11	16:36:45.510	19.145	-31.29	-73.29	0.761524	-0.077836	0.18422	-0.741	0.3585	0.2145	0	231	239	3
2026-02-11	16:36:45.530	6.335	-28.735	-81.655	0.696132	-0.088328	0.22082	-0.75	0.348	0.21	0	231	239	3
2026-02-11	16:36:45.550	-7.07	-26.18	-88.305	0.651236	-0.172264	0.289872	-0.7515	0.3405	0.2115	0	231	239	3
2026-02-11	16:36:45.570	-11.76	-23.73	-85.26	0.659044	-0.209352	0.315736	-0.7515	0.3405	0.2115	0	231	239	3
2026-02-11	16:36:45.590	-13.125	-19.705	-81.585	0.65636	-0.194712	0.307684	-0.783	0.297	0.219	0	231	239	3
2026-02-11	16:36:45.610	-19.215	-15.47	-76.44	0.683932	-0.228872	0.295728	-0.7935	0.282	0.225	0	234	226	3
2026-02-11	16:36:45.630	-28.49	-12.845	-70.14	0.7259	-0.235216	0.289384	-0.792	0.282	0.2265	0	234	226	3
2026-02-11	16:36:45.650	-36.47	-9.8	-62.51	0.787876	-0.203984	0.304512	-0.795	0.2745	0.2325	0	234	226	3
2026-02-11	16:36:45.670	-45.5	-8.085	-56.21	0.831552	-0.227408	0.322812	-0.8025	0.2685	0.2415	0	234	226	3
2026-02-11	16:36:45.690	-52.955	-7.455	-50.365	0.878156	-0.266936	0.353312	-0.804	0.264	0.246	0	234	226	3
2026-02-11	16:36:45.710	-57.12	-7.77	-45.29	0.930372	-0.282308	0.375272	-0.807	0.264	0.2445	0	234	226	3
2026-02-11	16:36:45.730	-57.96	-8.82	-40.565	1.009916	-0.334768	0.385032	-0.8085	0.2685	0.246	0	234	226	3
2026-02-11	16:36:45.750	-52.535	-10.395	-38.045	1.073356	-0.341112	0.388936	-0.81	0.264	0.255	0	234	226	3
2026-02-11	16:36:45.770	-44.38	-12.495	-35.91	1.131184	-0.36356	0.402356	-0.8115	0.2595	0.258	0	234	226	3
2026-02-11	16:36:45.790	-34.055	-14.91	-33.74	1.170224	-0.37454	0.425292	-0.816	0.2595	0.258	0	234	226	3
2026-02-11	16:36:45.810	-23.765	-17.255	-30.73	1.18096	-0.37454	0.437248	-0.8205	0.2565	0.264	0	238	236	3
2026-02-11	16:36:45.830	-15.085	-20.195	-26.285	1.194136	-0.359412	0.433588	-0.8205	0.2505	0.27	0	238	236	3
2026-02-11	16:36:45.850	-3.745	-25.445	-15.295	1.260748	-0.360388	0.421876	-0.822	0.249	0.273	0	238	236	3
2026-02-11	16:36:45.870	10.605	-26.985	-7.63	1.331752	-0.372832	0.43432	-0.831	0.2505	0.2745	0	238	236	3
2026-02-11	16:36:45.890	27.685	-24.78	1.26	1.348832	-0.385276	0.450668	-0.8325	0.2475	0.279	0	238	236	3
2026-02-11	16:36:45.910	41.51	-17.85	12.74	1.279292	-0.363316	0.439688	-0.834	0.246	0.2775	0	238	236	3
2026-02-11	16:36:45.930	47.18	-8.295	28.63	1.134356	-0.326228	0.390644	-0.834	0.246	0.2775	0	238	236	3
2026-02-11	16:36:45.950	48.055	0.7	47.075	1.018456	-0.267424	0.319152	-0.8355	0.2475	0.2805	0	238	236	3
2026-02-11	16:36:45.970	44.73	7.77	66.185	0.95526	-0.232044	0.275476	-0.831	0.246	0.279	0	238	236	3
2026-02-11	16:36:45.990	39.235	12.53	82.845	0.947208	-0.199348	0.270596	-0.822	0.2505	0.2715	0	238	236	3
2026-02-11	16:36:46.010	31.85	17.15	98.105	0.99552	-0.251808	0.242536	-0.8205	0.255	0.267	0	240	263	3
2026-02-11	16:36:46.030	30.24	22.855	102.725	0.964288	-0.224968	0.21716	-0.8145	0.2565	0.2625	0	240	263	3
2026-02-11	16:36:46.050	19.67	27.37	103.88	0.948184	-0.23546	0.202032	-0.804	0.267	0.2475	0	240	263	3
2026-02-11	16:36:46.070	15.715	31.5	103.67	0.91744	-0.243756	0.189344	-0.795	0.2865	0.2385	0	240	263	3
2026-02-11	16:36:46.090	12.67	33.6	103.25	0.843264	-0.255712	0.177388	-0.7875	0.3075	0.2385	0	240	263	3
2026-02-11	16:36:46.110	9.135	33.985	99.47	0.789584	-0.2806	0.17812	-0.7755	0.324	0.24	0	240	263	3
2026-02-11	16:36:46.130	6.86	33.74	96.425	0.742248	-0.235948	0.170556	-0.7665	0.339	0.2445	0	240	263	3
2026-02-11	16:36:46.150	3.115	30.765	89.39	0.735904	-0.243512	0.15128	-0.765	0.348	0.246	0	240	263	3
2026-02-11	16:36:46.170	4.795	28.035	84.245	0.775432	-0.249124	0.146644	-0.726	0.369	0.2535	0	240	263	3
2026-02-11	16:36:46.190	7.945	25.445	77.315	0.824476	-0.257908	0.14884	-0.7275	0.372	0.2445	0	240	263	3
2026-02-11	16:36:46.210	12.845	24.22	69.86	0.873764	-0.235216	0.140788	-0.723	0.369	0.2445	0	241	278	3
2026-02-11	16:36:46.230	16.135	22.575	61.495	0.9577	-0.236436	0.132004	-0.711	0.372	0.24	0	241	278	3
2026-02-11	16:36:46.250	16.8	22.505	51.8	1.053348	-0.206668	0.147132	-0.7035	0.381	0.2355	0	241	278	3
2026-02-11	16:36:46.270	13.195	22.75	42.245	1.09678	-0.224236	0.1403	-0.7035	0.3855	0.2355	0	241	278	3
2026-02-11	16:36:46.290	8.68	20.755	32.62	1.185108	-0.215452	0.132492	-0.6975	0.3855	0.2295	0	241	278	3
2026-02-11	16:36:46.310	3.955	18.41	23.275	1.2688	-0.214232	0.141032	-0.69	0.3825	0.2295	0	241	278	3
2026-02-11	16:36:46.330	1.225	15.365	14.35	1.32614	-0.213744	0.141032	-0.6795	0.3825	0.2265	0	241	278	3
2026-02-11	16:36:46.350	1.085	11.97	6.405	1.298812	-0.201056	0.14518	-0.6765	0.384	0.222	0	241	278	3
2026-02-11	16:36:46.370	4.165	9.24	-3.43	1.217804	-0.168604	0.139324	-0.681	0.387	0.2265	0	241	278	3
2026-02-11	16:36:46.390	5.39	4.06	-14	1.227564	-0.138592	0.136884	-0.6795	0.384	0.225	0	241	278	3
2026-02-11	16:36:46.410	4.06	-1.05	-26.145	1.252696	-0.110776	0.095404	-0.678	0.381	0.219	0	240	265	3
2026-02-11	16:36:46.430	3.395	-6.685	-42.7	1.167296	-0.058804	0.06832	-0.678	0.3825	0.219	0	240	265	3
2026-02-11	16:36:46.450	5.95	-13.86	-61.67	1.041148	0.057584	0.049776	-0.678	0.3825	0.219	0	240	265	3
2026-02-11	16:36:46.470	10.675	-19.88	-78.68	0.91134	0.17568	0.049288	-0.6975	0.3645	0.2265	0	240	265	3
2026-02-11	16:36:46.490	12.18	-30.38	-96.635	0.908412	0.11346	0.130052	-0.702	0.3615	0.2175	0	240	265	3
2026-02-11	16:36:46.510	11.34	-38.57	-106.12	1.00528	-0.0122	0.257908	-0.708	0.357	0.219	0	240	265	3
2026-02-11	16:36:46.530	8.715	-40.705	-108.605	1.10166	-0.060268	0.29158	-0.72	0.3435	0.228	0	240	265	3
2026-02-11	16:36:46.550	6.37	-36.715	-106.925	1.121424	-0.016836	0.257908	-0.7275	0.33	0.231	0	240	265	3
2026-02-11	16:36:46.570	1.505	-31.815	-102.095	1.108248	0.066368	0.184708	-0.7365	0.324	0.2295	0	240	265	3
2026-02-11	16:36:46.590	-3.64	-29.4	-98	1.046516	0.035624	0.161772	-0.744	0.3165	0.231	0	240	265	3
2026-02-11	16:36:46.610	-6.16	-29.19	-91.7	1.00162	0.059048	0.218624	-0.753	0.3045	0.2295	0	239	239	3
2026-02-11	16:36:46.630	-16.38	-29.085	-87.78	0.918416	-0.006832	0.300608	-0.768	0.2865	0.2235	0	239	239	3
2026-02-11	16:36:46.650	-31.675	-27.545	-82.915	0.835944	-0.066856	0.344528	-0.7755	0.2655	0.228	0	239	239	3
2026-02-11	16:36:46.670	-46.97	-24.605	-77.945	0.773968	-0.156404	0.323788	-0.783	0.249	0.237	0	239	239	3
2026-02-11	16:36:46.690	-55.125	-20.895	-73.22	0.73932	-0.168848	0.266448	-0.786	0.2415	0.2415	0	239	239	3
2026-02-11	16:36:46.710	-58.03	-17.71	-69.79	0.702964	-0.183244	0.257664	-0.789	0.231	0.2505	0	239	239	3
2026-02-11	16:36:46.730	-56.875	-15.82	-65.17	0.686128	-0.243512	0.353312	-0.7905	0.222	0.2565	0	239	239	3
2026-02-11	16:36:46.750	-49.28	-14.105	-61.565	0.701744	-0.285968	0.409432	-0.7905	0.222	0.2565	0	239	239	3
2026-02-11	16:36:46.770	-42.455	-12.145	-57.89	0.771528	-0.300608	0.420656	-0.8025	0.2295	0.255	0	239	239	3
2026-02-11	16:36:46.790	-40.845	-10.325	-54.6	0.888404	-0.3111	0.415776	-0.8115	0.2145	0.27	0	239	239	3
2026-02-11	16:36:46.810	-38.5	-8.47	-52.08	1.013576	-0.316224	0.398696	-0.8115	0.216	0.2655	0	239	231	3
2026-02-11	16:36:46.830	-34.545	-6.65	-50.4	1.120936	-0.322812	0.3782	-0.816	0.213	0.2655	0	239	231	3
2026-02-11	16:36:46.850	-30.8	-5.705	-48.93	1.202188	-0.354288	0.358192	-0.819	0.207	0.27	0	239	231	3
2026-02-11	16:36:46.870	-21.42	-6.44	-45.675	1.24074	-0.406504	0.379176	-0.8175	0.204	0.2685	0	239	231	3
2026-02-11	16:36:46.890	-10.675	-8.575	-38.29	1.262944	-0.421632	0.426756	-0.816	0.198	0.2685	0	239	231	3
2026-02-11	16:36:46.910	-4.375	-9.835	-25.305	1.257088	-0.42944	0.434808	-0.8205	0.1935	0.2715	0	239	231	3
2026-02-11	16:36:46.930	1.085	-11.515	-7	1.243912	-0.387228	0.404552	-0.8235	0.189	0.2715	0	239	231	3
2026-02-11	16:36:46.950	8.995	-15.12	13.09	1.272704	-0.34648	0.386008	-0.819	0.1845	0.27	0	239	231	3
2026-02-11	16:36:46.970	22.75	-17.465	31.36	1.277096	-0.355264	0.40016	-0.8175	0.1875	0.2715	0	239	231	3
2026-02-11	16:36:46.990	35.42	-16.1	48.755	1.225856	-0.358924	0.421876	-0.816	0.192	0.2775	0	239	231	3
2026-02-11	16:36:47.010	39.9	-10.22	65.275	1.17608	-0.349164	0.418704	-0.816	0.195	0.282	0	239	250	3
2026-02-11	16:36:47.030	39.41	4.97	89.04	1.048468	-0.295972	0.309148	-0.816	0.198	0.285	0	239	250	3
2026-02-11	16:36:47.050	38.99	14.455	104.65	1.03212	-0.29524	0.243756	-0.81	0.21	0.282	0	239	250	3
2026-02-11	16:36:47.070	44.17	23.03	119.945	1.006012	-0.166408	0.214232	-0.8115	0.222	0.282	0	239	250	3
2026-02-11	16:36:47.090	37.975	30.8	127.82	1.0126	-0.223016	0.226432	-0.798	0.2295	0.279	0	239	250	3
2026-02-11	16:36:47.110	33.635	35.245	129.71	1.057008	-0.17568	0.207644	-0.7965	0.2355	0.273	0	239	250	3
2026-02-11	16:36:47.130	29.26	40.495	126.35	1.043588	-0.242292	0.19398	-0.7875	0.246	0.258	0	239	250	3
2026-02-11	16:36:47.150	25.235	43.4	124.25	1.013576	-0.225944	0.208864	-0.7755	0.27	0.246	0	239	250	3
2026-02-11	16:36:47.170	19.74	46.2	121.835	0.903044	-0.1952	0.208376	-0.7635	0.3	0.2535	0	239	250	3
2026-02-11	16:36:47.190	10.99	46.305	115.885	0.812764	-0.236192	0.172752	-0.7485	0.3225	0.264	0	239	250	3
2026-02-11	16:36:47.210	8.4	44.59	111.545	0.754204	-0.203008	0.1647	-0.735	0.3405	0.267	0	240	271	3
2026-02-11	16:36:47.230	8.085	40.88	105.84	0.736392	-0.221308	0.119804	-0.723	0.348	0.2655	0	240	271	3
2026-02-11	16:36:47.250	14.56	36.435	100.17	0.723216	-0.22204	0.109556	-0.714	0.3495	0.2655	0	240	271	3
2026-02-11	16:36:47.270	23.905	31.22	93.87	0.767868	-0.238388	0.120048	-0.7005	0.351	0.2625	0	240	271	3
2026-02-11	16:36:47.290	34.65	27.125	89.005	0.774456	-0.240096	0.123464	-0.693	0.354	0.255	0	240	271	3
2026-02-11	16:36:47.310	42.7	22.89	75.53	0.793488	-0.196664	0.122244	-0.69	0.3615	0.252	0	240	271	3
2026-02-11	16:36:47.330	43.82	19.285	62.16	0.909144	-0.180316	0.127124	-0.6885	0.3675	0.249	0	240	271	3
2026-02-11	16:36:47.350	39.2	18.095	56.28	0.982832	-0.166408	0.151768	-0.6585	0.3615	0.237	0	240	271	3
2026-02-11	16:36:47.370	29.505	16.905	42.245	1.08702	-0.15128	0.157624	-0.66	0.363	0.2265	0	240	271	3
2026-02-11	16:36:47.390	17.5	13.58	28.805	1.18828	-0.16714	0.14152	-0.6615	0.3645	0.225	0	240	271	3
2026-02-11	16:36:47.410	7.035	10.885	16.94	1.214632	-0.163968	0.13786	-0.6615	0.366	0.2205	0	239	266	3
2026-02-11	16:36:47.430	-1.645	5.46	4.06	1.241716	-0.182756	0.126636	-0.654	0.3705	0.2235	0	239	266	3
2026-02-11	16:36:47.450	-6.895	-1.575	-10.43	1.272704	-0.19032	0.161528	-0.6525	0.3735	0.2265	0	239	266	3
2026-02-11	16:36:47.470	-4.865	-9.415	-22.295	1.264408	-0.194956	0.176168	-0.654	0.372	0.2205	0	239	266	3
2026-02-11	16:36:47.490	1.61	-12.985	-32.375	1.132892	-0.185928	0.156404	-0.657	0.3705	0.225	0	239	266	3
2026-02-11	16:36:47.510	6.09	-20.72	-45.115	1.189256	-0.135664	0.151036	-0.657	0.3675	0.2295	0	239	266	3
2026-02-11	16:36:47.530	6.93	-26.635	-59.64	1.256356	-0.120536	0.132736	-0.663	0.3645	0.2325	0	239	266	3
2026-02-11	16:36:47.550	6.09	-32.585	-75.705	1.309304	-0.116632	0.12566	-0.6735	0.3555	0.2415	0	239	266	3
2026-02-11	16:36:47.570	7.875	-37.73	-92.505	1.302228	-0.13298	0.149084	-0.681	0.348	0.2415	0	239	266	3
2026-02-11	16:36:47.590	8.995	-41.195	-107.205	1.222928	-0.14396	0.177876	-0.69	0.3375	0.24	0	239	266	3
2026-02-11	16:36:47.610	7.07	-45.395	-118.685	1.1163	-0.219112	0.223504	-0.693	0.3285	0.2415	0	238	245	3
2026-02-11	16:36:47.630	10.115	-46.34	-116.48	1.034072	-0.213012	0.267424	-0.693	0.3285	0.2415	0	238	245	3
2026-02-11	16:36:47.650	8.19	-45.64	-108.745	1.019432	-0.184708	0.301096	-0.7215	0.294	0.2535	0	238	245	3
2026-02-11	16:36:47.670	-0.315	-42.98	-98.595	1.023336	-0.15616	0.275476	-0.738	0.291	0.2565	0	238	245	3
2026-02-11	16:36:47.690	-14.805	-39.2	-86.1	1.025776	-0.120536	0.244244	-0.741	0.279	0.255	0	238	245	3
2026-02-11	16:36:47.710	-29.995	-35.14	-75.495	0.999424	-0.124684	0.217404	-0.747	0.27	0.2535	0	238	245	3
2026-02-11	16:36:47.730	-42.35	-32.585	-67.2	0.959408	-0.168116	0.243512	-0.759	0.2625	0.249	0	238	245	3
2026-02-11	16:36:47.750	-50.68	-30.66	-58.905	0.897432	-0.22448	0.29768	-0.7665	0.2475	0.246	0	238	245	3
2026-02-11	16:36:47.770	-55.825	-27.93	-50.19	0.810324	-0.252296	0.347212	-0.771	0.2385	0.2535	0	238	245	3
2026-02-11	16:36:47.790	-58.065	-25.48	-42.77	0.72834	-0.244976	0.376248	-0.777	0.234	0.267	0	238	245	3
2026-02-11	16:36:47.810	-60.06	-22.61	-36.82	0.651236	-0.28426	0.378688	-0.7785	0.2325	0.279	0	235	232	3
2026-02-11	16:36:47.830	-55.44	-19.95	-32.55	0.603412	-0.240828	0.366	-0.7815	0.234	0.2895	0	235	232	3
2026-02-11	16:36:47.850	-52.71	-17.955	-29.015	0.576328	-0.260592	0.361852	-0.7815	0.2355	0.2925	0	235	232	3
2026-02-11	16:36:47.870	-47.075	-15.68	-26.915	0.566812	-0.264984	0.372344	-0.7845	0.2325	0.2985	0	235	232	3
2026-02-11	16:36:47.890	-39.34	-13.51	-25.41	0.589748	-0.283284	0.395036	-0.7845	0.234	0.306	0	235	232	3
2026-02-11	16:36:47.910	-25.27	-9.345	-21.805	0.669536	-0.303048	0.437004	-0.783	0.2385	0.306	0	235	232	3
2026-02-11	16:36:47.930	-12.705	-6.44	-19.425	0.756644	-0.300852	0.442372	-0.783	0.2385	0.306	0	235	232	3
2026-02-11	16:36:47.950	-1.47	-2.94	-17.325	0.857904	-0.29036	0.449448	-0.792	0.234	0.3135	0	235	232	3
2026-02-11	16:36:47.970	4.025	0.98	-16.38	0.926956	-0.283772	0.393816	-0.801	0.24	0.3075	0	235	232	3
2026-02-11	16:36:47.990	5.11	1.33	-16.415	1.017724	-0.309392	0.311344	-0.801	0.237	0.3135	0	235	232	3
2026-02-11	16:36:48.010	13.685	-4.375	-14.42	1.212924	-0.328912	0.308172	-0.798	0.231	0.315	0	233	244	3
2026-02-11	16:36:48.030	30.625	-7.245	-7.35	1.456436	-0.279624	0.389424	-0.795	0.228	0.3105	0	233	244	3
2026-02-11	16:36:48.050	42.525	-2.45	4.445	1.41642	-0.250344	0.417484	-0.801	0.2235	0.312	0	233	244	3
2026-02-11	16:36:48.070	37.8	-3.605	19.915	1.331264	-0.243756	0.377468	-0.7935	0.2175	0.3135	0	233	244	3
2026-02-11	16:36:48.090	25.375	-6.72	31.78	1.2749	-0.237168	0.351116	-0.792	0.2235	0.3135	0	233	244	3
2026-02-11	16:36:48.110	8.925	-10.5	38.57	1.310036	-0.247172	0.352824	-0.801	0.2235	0.315	0	233	244	3
2026-02-11	16:36:48.130	-10.325	-9.765	41.545	1.312476	-0.284504	0.359656	-0.7995	0.225	0.3165	0	233	244	3
2026-02-11	16:36:48.150	-24.605	-4.725	42.21	1.272704	-0.334768	0.3477	-0.7965	0.231	0.3135	0	233	244	3
2026-02-11	16:36:48.170	-25.34	6.545	45.605	1.078236	-0.330132	0.292068	-0.798	0.2295	0.312	0	233	244	3
2026-02-11	16:36:48.190	-20.335	12.285	50.82	1.001132	-0.374052	0.235704	-0.7995	0.246	0.3315	0	233	244	3
2026-02-11	16:36:48.210	-3.36	18.025	60.55	0.903288	-0.282796	0.19764	-0.795	0.2385	0.3225	0	233	269	3
2026-02-11	16:36:48.230	11.06	21.175	66.045	0.865956	-0.26596	0.147864	-0.789	0.246	0.312	0	233	269	3
2026-02-11	16:36:48.250	19.985	23.03	65.905	0.863272	-0.20984	0.13908	-0.7875	0.2445	0.3045	0	233	269	3
2026-02-11	16:36:48.270	25.165	23.31	61.32	0.914268	-0.319396	0.136396	-0.7845	0.252	0.3015	0	233	269	3
2026-02-11	16:36:48.290	30.66	25.2	57.4	0.91622	-0.257176	0.143716	-0.78	0.2655	0.2925	0	233	269	3
2026-02-11	16:36:48.310	29.575	23.205	57.085	0.886452	-0.326228	0.147132	-0.774	0.282	0.288	0	233	269	3
2026-02-11	16:36:48.330	35.84	23.065	55.09	0.837408	-0.285236	0.154208	-0.771	0.3015	0.291	0	233	269	3
2026-02-11	16:36:48.350	36.12	22.225	55.125	0.776164	-0.286212	0.152012	-0.765	0.315	0.303	0	233	269	3
2026-02-11	16:36:48.370	35.805	20.265	55.16	0.721752	-0.26108	0.134444	-0.759	0.3225	0.3135	0	233	269	3
2026-02-11	16:36:48.390	35.105	17.325	55.405	0.69174	-0.2623	0.101016	-0.759	0.3225	0.3165	0	233	269	3
2026-02-11	16:36:48.410	37.065	13.125	55.265	0.701012	-0.27938	0.08906	-0.759	0.3195	0.318	0	234	276	3
2026-02-11	16:36:48.430	43.05	9.94	56.91	0.71614	-0.272548	0.10858	-0.7575	0.318	0.315	0	234	276	3
2026-02-11	16:36:48.450	49.7	8.085	53.935	0.788608	-0.23424	0.15006	-0.7665	0.324	0.315	0	234	276	3
2026-02-11	16:36:48.470	53.62	8.015	49.595	0.88694	-0.27816	0.160308	-0.75	0.3225	0.3045	0	234	276	3
2026-02-11	16:36:48.490	59.325	9.555	48.72	0.976	-0.234972	0.1769	-0.756	0.324	0.3015	0	234	276	3
2026-02-11	16:36:48.510	57.435	11.48	46.2	1.074576	-0.2196	0.191052	-0.7455	0.327	0.303	0	234	276	3
2026-02-11	16:36:48.530	49.98	14.21	41.44	1.206824	-0.188612	0.179096	-0.7515	0.3375	0.2955	0	234	276	3
2026-02-11	16:36:48.550	35.14	17.57	36.54	1.32858	-0.153232	0.20008	-0.738	0.3375	0.2955	0	234	276	3
2026-02-11	16:36:48.570	21.245	19.635	28	1.387384	-0.052948	0.173728	-0.741	0.336	0.291	0	234	276	3
2026-02-11	16:36:48.590	2.765	23.415	16.275	1.403976	0.060024	0.101016	-0.7425	0.336	0.2865	0	234	276	3
2026-02-11	16:36:48.610	-24.71	23.94	-1.365	1.41032	0.117852	0.000732	-0.741	0.3435	0.2895	0	236	258	3
2026-02-11	16:36:48.630	-51.24	18.095	-23.59	1.291492	0.024888	0.05246	-0.744	0.3435	0.2865	0	236	258	3
2026-02-11	16:36:48.650	-65.1	9.765	-46.585	1.26392	-0.072468	0.140544	-0.747	0.3375	0.2835	0	236	258	3
2026-02-11	16:36:48.670	-70.105	5.81	-60.655	1.28466	-0.1464	0.127612	-0.741	0.348	0.3015	0	236	258	3
2026-02-11	16:36:48.690	-62.125	2.31	-68.705	1.306132	-0.107848	0.08784	-0.7485	0.3495	0.3015	0	236	258	3
2026-02-11	16:36:48.710	-45.745	-4.9	-78.61	1.241228	-0.14762	0.057828	-0.7575	0.3435	0.3045	0	236	258	3
2026-02-11	16:36:48.730	-16.065	-13.72	-85.855	1.113616	-0.174704	0.071492	-0.759	0.336	0.2985	0	236	258	3
2026-02-11	16:36:48.750	10.57	-23.765	-85.505	1.045052	-0.2074	0.127856	-0.7665	0.333	0.3045	0	236	258	3
2026-02-11	16:36:48.770	31.815	-32.305	-81.27	0.997472	-0.1647	0.180316	-0.774	0.3345	0.309	0	236	258	3
2026-02-11	16:36:48.790	41.615	-39.76	-73.675	1.043344	-0.176168	0.214232	-0.7845	0.312	0.3075	0	236	258	3
2026-02-11	16:36:48.810	46.445	-42.105	-64.47	1.055788	-0.157624	0.227896	-0.7875	0.303	0.3105	0	238	229	3
2026-02-11	16:36:48.830	44.52	-41.02	-55.44	1.032364	-0.13664	0.208864	-0.804	0.297	0.306	0	238	229	3
2026-02-11	16:36:48.850	33.11	-37.8	-48.685	0.970632	-0.131516	0.187148	-0.807	0.285	0.303	0	238	229	3
2026-02-11	16:36:48.870	10.185	-34.02	-43.435	0.844972	-0.110044	0.206424	-0.807	0.285	0.303	0	238	229	3
2026-02-11	16:36:48.890	-15.82	-31.36	-40.005	0.726144	-0.124928	0.274744	-0.807	0.285	0.303	0	238	229	3
2026-02-11	16:36:48.910	-33.53	-30.59	-35.875	0.66124	-0.174704	0.31354	-0.8175	0.255	0.306	0	238	229	3
2026-02-11	16:36:48.930	-40.775	-28.735	-33.005	0.611952	-0.213988	0.339892	-0.825	0.2415	0.318	0	238	229	3
2026-02-11	16:36:48.950	-43.505	-26.81	-30.8	0.586088	-0.250588	0.316224	-0.825	0.24	0.3255	0	238	229	3
2026-02-11	16:36:48.970	-39.655	-24.36	-29.89	0.576084	-0.268888	0.30134	-0.825	0.237	0.333	0	238	229	3
2026-02-11	16:36:48.990	-34.09	-22.4	-30.485	0.593652	-0.276452	0.293776	-0.831	0.243	0.333	0	238	229	3
2026-02-11	16:36:49.010	-27.23	-20.545	-30.625	0.617808	-0.257176	0.311588	-0.8265	0.2325	0.342	0	240	213	3
2026-02-11	16:36:49.030	-22.715	-18.585	-31.57	0.65392	-0.24522	0.324764	-0.8295	0.237	0.3495	0	240	213	3
2026-02-11	16:36:49.050	-22.89	-16.065	-32.305	0.68686	-0.235704	0.3538	-0.837	0.2355	0.3585	0	240	213	3
2026-02-11	16:36:49.070	-25.41	-14.49	-31.57	0.737368	-0.2379	0.377224	-0.8295	0.2355	0.3555	0	240	213	3
2026-02-11	16:36:49.090	-28.595	-13.3	-30.17	0.821304	-0.241804	0.391864	-0.837	0.2325	0.354	0	240	213	3
2026-02-11	16:36:49.110	-30.485	-12.25	-29.085	0.899384	-0.247904	0.402112	-0.84	0.231	0.3555	0	240	213	3
2026-02-11	16:36:49.130	-30.45	-10.85	-27.02	1.007476	-0.250832	0.427488	-0.8475	0.228	0.36	0	240	213	3
2026-02-11	16:36:49.150	-27.72	-8.96	-24.29	1.100928	-0.265472	0.437492	-0.8475	0.222	0.363	0	240	213	3
2026-02-11	16:36:49.170	-19.635	-7.77	-21.945	1.14436	-0.267424	0.417728	-0.8505	0.228	0.3765	0	240	213	3
2026-02-11	16:36:49.190	-11.165	-6.16	-19.04	1.161196	-0.260592	0.393084	-0.8535	0.2175	0.375	0	240	213	3
2026-02-11	16:36:49.210	-8.645	-5.6	-14.91	1.197308	-0.251564	0.390888	-0.8625	0.2235	0.3765	0	242	226	3
2026-02-11	16:36:49.230	-14	-4.935	-10.29	1.258064	-0.2379	0.403332	-0.855	0.213	0.378	0	242	226	3
2026-02-11	16:36:49.250	-25.935	-4.76	-5.635	1.345416	-0.2379	0.41602	-0.8565	0.2295	0.381	0	242	226	3
2026-02-11	16:36:49.270	-32.97	-4.095	-1.085	1.393972	-0.262544	0.393328	-0.861	0.219	0.402	0	242	226	3
2026-02-11	16:36:49.290	-28.035	-3.78	3.64	1.453752	-0.27816	0.396256	-0.861	0.2175	0.393	0	242	226	3
2026-02-11	16:36:49.310	-22.155	1.925	8.575	1.390312	-0.290848	0.428952	-0.8565	0.2235	0.3945	0	242	226	3
2026-02-11	16:36:49.330	-19.425	6.93	13.825	1.239032	-0.330376	0.367952	-0.861	0.2325	0.3975	0	242	226	3
2026-02-11	16:36:49.350	-7.735	15.435	29.785	1.094828	-0.32452	0.285724	-0.8625	0.231	0.4065	0	242	226	3
2026-02-11	16:36:49.370	2.17	16.485	42.07	1.055788	-0.212524	0.206424	-0.8595	0.2385	0.4095	0	242	226	3
2026-02-11	16:36:49.390	3.85	17.5	57.54	1.035048	-0.208864	0.151768	-0.873	0.246	0.405	0	242	226	3
2026-02-11	16:36:49.410	9.8	23.87	71.61	0.93696	-0.18544	0.148352	-0.8625	0.258	0.411	0	245	256	3
2026-02-11	16:36:49.430	4.69	23.17	77.77	0.90036	-0.224724	0.20252	-0.867	0.267	0.4035	0	245	256	3
2026-02-11	16:36:49.450	1.12	24.78	76.405	0.923052	-0.256444	0.19886	-0.8655	0.2925	0.399	0	245	256	3
2026-02-11	16:36:49.470	-4.165	25.76	72.905	0.962824	-0.294752	0.183732	-0.855	0.3075	0.3855	0	245	256	3
2026-02-11	16:36:49.490	-6.58	27.16	73.185	0.974048	-0.30866	0.158112	-0.861	0.3345	0.3705	0	245	256	3
2026-02-11	16:36:49.510	-4.795	28.245	78.4	0.874252	-0.319396	0.129564	-0.8505	0.363	0.366	0	245	256	3
2026-02-11	16:36:49.530	-1.26	28.525	80.22	0.823988	-0.290604	0.095648	-0.843	0.3945	0.354	0	245	256	3
2026-02-11	16:36:49.550	0.91	28.315	80.78	0.770308	-0.278892	0.067588	-0.831	0.4215	0.36	0	245	256	3
2026-02-11	16:36:49.570	2.275	28.105	80.325	0.689788	-0.27206	0.067588	-0.81	0.4545	0.357	0	245	256	3
2026-02-11	16:36:49.590	4.585	24.64	78.4	0.681492	-0.266448	0.07076	-0.807	0.4605	0.3525	0	245	256	3
2026-02-11	16:36:49.610	8.96	21	76.825	0.668072	-0.280844	0.072956	-0.795	0.4815	0.354	0	248	266	3
2026-02-11	16:36:49.630	16.31	17.255	73.605	0.661484	-0.286944	0.073444	-0.774	0.474	0.333	0	248	266	3
2026-02-11	16:36:49.650	26.355	12.215	69.125	0.698816	-0.299876	0.071492	-0.7665	0.486	0.321	0	248	266	3
2026-02-11	16:36:49.670	38.605	7.7	66.5	0.700524	-0.288164	0.074908	-0.759	0.4875	0.3105	0	248	266	3
2026-02-11	16:36:49.690	47.285	3.92	58.8	0.727608	-0.278648	0.099308	-0.747	0.48	0.3015	0	248	266	3
2026-02-11	16:36:49.710	54.075	-1.4	48.965	0.801784	-0.277428	0.116144	-0.7515	0.486	0.2775	0	248	266	3
2026-02-11	16:36:49.730	57.96	-5.355	40.565	0.87596	-0.269376	0.1342	-0.7365	0.4875	0.2685	0	248	266	3
2026-02-11	16:36:49.750	59.255	-7.875	33.565	0.942816	-0.272548	0.14152	-0.7275	0.4755	0.2505	0	248	266	3
2026-02-11	16:36:49.770	60.025	-9.975	28.42	1.005768	-0.264496	0.159088	-0.729	0.4695	0.2385	0	248	266	3
2026-02-11	16:36:49.790	59.64	-11.62	22.89	1.040416	-0.254736	0.178852	-0.7245	0.462	0.2205	0	248	266	3
2026-02-11	16:36:49.810	60.13	-13.265	16.45	1.063108	-0.244732	0.214232	-0.732	0.462	0.2175	0	249	246	3
2026-02-11	16:36:49.830	58.975	-13.545	11.34	1.053348	-0.218868	0.2501	-0.7275	0.4485	0.2025	0	249	246	3
2026-02-11	16:36:49.850	54.775	-14.49	7.42	1.118008	-0.197884	0.287188	-0.723	0.4425	0.201	0	249	246	3
2026-02-11	16:36:49.870	52.465	-13.055	4.725	1.139724	-0.143472	0.300364	-0.738	0.441	0.1935	0	249	246	3
2026-02-11	16:36:49.890	44.73	-10.92	-3.955	1.180716	-0.09882	0.287432	-0.7365	0.4335	0.186	0	249	246	3
2026-02-11	16:36:49.910	30.345	-8.925	-16.555	1.221708	-0.077836	0.249612	-0.7275	0.4155	0.186	0	249	246	3
2026-02-11	16:36:49.930	10.885	-9.485	-34.86	1.32736	-0.090524	0.223992	-0.744	0.4185	0.18	0	249	246	3
2026-02-11	16:36:49.950	-2.94	-5.775	-51.415	1.211948	-0.172996	0.227408	-0.747	0.4065	0.177	0	249	246	3
2026-02-11	16:36:49.970	-12.075	-6.58	-66.29	1.128256	-0.202764	0.2684	-0.747	0.4095	0.183	0	249	246	3
2026-02-11	16:36:49.990	-12.39	-7.56	-75.355	0.971852	-0.249612	0.265472	-0.7515	0.393	0.1875	0	249	246	3
2026-02-11	16:36:50.010	-4.375	-9.31	-80.955	0.784948	-0.363316	0.297924	-0.7575	0.387	0.1875	0	248	229	3
2026-02-11	16:36:50.030	10.325	-11.655	-74.795	0.761768	-0.352824	0.335012	-0.765	0.381	0.1875	0	248	229	3
2026-02-11	16:36:50.050	26.04	-14.595	-65.905	0.817644	-0.216184	0.348676	-0.765	0.375	0.1845	0	248	229	3
2026-02-11	16:36:50.070	34.23	-16.975	-57.26	0.863272	-0.15616	0.3172	-0.7725	0.372	0.177	0	248	229	3
2026-02-11	16:36:50.090	39.06	-17.01	-50.68	0.85522	-0.151036	0.2806	-0.786	0.3525	0.165	0	248	229	3
2026-02-11	16:36:50.110	33.565	-15.89	-46.305	0.814716	-0.163236	0.265716	-0.801	0.336	0.1575	0	248	229	3
2026-02-11	16:36:50.130	18.34	-14.63	-46.13	0.793732	-0.154696	0.294996	-0.8085	0.3165	0.1485	0	248	229	3
2026-02-11	16:36:50.150	-1.995	-12.845	-48.685	0.796172	-0.206424	0.328668	-0.822	0.3045	0.15	0	248	229	3
2026-02-11	16:36:50.170	-18.48	-8.96	-51.38	0.81008	-0.22204	0.344284	-0.8145	0.2925	0.153	0	248	229	3
2026-02-11	16:36:50.190	-35.875	-3.395	-52.36	0.82716	-0.2623	0.326716	-0.831	0.276	0.159	0	248	229	3
2026-02-11	16:36:50.210	-57.12	2.1	-52.57	0.848388	-0.276208	0.278404	-0.831	0.27	0.171	0	245	230	3
2026-02-11	16:36:50.230	-78.68	5.74	-52.22	0.887428	-0.305732	0.219844	-0.846	0.2775	0.174	0	245	230	3
2026-02-11	16:36:50.250	-93.03	7.7	-50.995	0.884988	-0.303048	0.178852	-0.834	0.267	0.1845	0	245	230	3
2026-02-11	16:36:50.270	-96.635	5.355	-48.3	0.855952	-0.357216	0.148108	-0.8355	0.282	0.186	0	245	230	3
2026-02-11	16:36:50.290	-86.695	-0.91	-44.555	0.837896	-0.365756	0.17324	-0.8445	0.279	0.189	0	245	230	3
2026-02-11	16:36:50.310	-55.16	-13.615	-38.325	0.833748	-0.4514	0.232532	-0.8475	0.2835	0.1905	0	245	230	3
2026-02-11	16:36:50.330	-21.525	-21.945	-35.385	0.848388	-0.49654	0.284748	-0.8415	0.276	0.198	0	245	230	3
2026-02-11	16:36:50.350	16.52	-28.735	-31.325	0.865712	-0.5002	0.310124	-0.852	0.2775	0.2055	0	245	230	3
2026-02-11	16:36:50.370	46.095	-32.935	-25.305	0.8784	-0.443348	0.325984	-0.858	0.276	0.204	0	245	230	3
2026-02-11	16:36:50.390	64.68	-34.895	-17.71	0.908168	-0.42334	0.338672	-0.864	0.2595	0.201	0	245	230	3
2026-02-11	16:36:50.410	75.88	-33.81	-9.52	0.90036	-0.351116	0.35746	-0.8655	0.2535	0.207	0	240	240	3
2026-02-11	16:36:50.430	74.76	-31.15	-0.455	0.887916	-0.29768	0.355752	-0.867	0.2385	0.219	0	240	240	3
2026-02-11	16:36:50.450	64.505	-28.665	8.12	0.915976	-0.254492	0.354532	-0.8775	0.234	0.219	0	240	240	3
2026-02-11	16:36:50.470	50.155	-26.81	14.455	1.017968	-0.261568	0.36478	-0.8745	0.225	0.2235	0	240	240	3
2026-02-11	16:36:50.490	40.705	-24.08	18.27	1.130696	-0.287188	0.375028	-0.882	0.225	0.2325	0	240	240	3
2026-02-11	16:36:50.510	37.135	-21.875	20.09	1.291004	-0.335744	0.3843	-0.8865	0.2205	0.2265	0	240	240	3
2026-02-11	16:36:50.530	40.25	-19.985	18.655	1.500356	-0.377468	0.44164	-0.876	0.222	0.2385	0	240	240	3
2026-02-11	16:36:50.550	46.375	-13.265	16.24	1.604544	-0.414312	0.475312	-0.8835	0.2145	0.231	0	240	240	3
2026-02-11	16:36:50.570	49.385	-3.71	16.24	1.593808	-0.418704	0.474824	-0.8775	0.216	0.237	0	240	240	3
2026-02-11	16:36:50.590	46.13	10.08	23.135	1.30662	-0.375516	0.405284	-0.879	0.2055	0.24	0	240	240	3
2026-02-11	16:36:50.610	40.285	18.025	38.29	0.996008	-0.328424	0.343064	-0.8835	0.207	0.2325	0	235	259	3
2026-02-11	16:36:50.630	37.905	19.145	56.91	0.823744	-0.275232	0.28548	-0.882	0.2115	0.243	0	235	259	3
2026-02-11	16:36:50.650	43.33	17.255	75.11	0.79178	-0.284504	0.168604	-0.8715	0.2145	0.234	0	235	259	3
2026-02-11	16:36:50.670	55.86	15.435	87.92	0.839116	-0.19276	0.112728	-0.8685	0.2145	0.219	0	235	259	3
2026-02-11	16:36:50.690	59.22	11.445	96.95	0.975024	-0.2562	0.084424	-0.8685	0.2205	0.2205	0	235	259	3
2026-02-11	16:36:50.710	82.67	8.785	98.56	1.036512	-0.399184	0.100284	-0.8625	0.2265	0.2235	0	235	259	3
2026-02-11	16:36:50.730	119.105	5.6	88.725	1.089948	-0.230092	0.165188	-0.852	0.234	0.216	0	235	259	3
2026-02-11	16:36:50.750	139.125	6.965	69.895	1.107028	-0.389424	0.223016	-0.8535	0.24	0.207	0	235	259	3
2026-02-11	16:36:50.770	149.975	10.22	63.735	1.103856	-0.361608	0.278404	-0.8445	0.2355	0.198	0	235	259	3
2026-02-11	16:36:50.790	136.605	13.65	54.075	1.000644	-0.359656	0.226432	-0.8415	0.228	0.192	0	235	259	3
2026-02-11	16:36:50.810	121.94	16.73	48.265	0.937936	-0.33184	0.154696	-0.831	0.225	0.1875	0	232	272	3
2026-02-11	16:36:50.830	112.945	19.74	45.01	0.853024	-0.271084	0.133468	-0.822	0.234	0.1725	0	232	272	3
2026-02-11	16:36:50.850	103.285	22.33	41.685	0.78812	-0.264252	0.09516	-0.822	0.2325	0.1725	0	232	272	3
2026-02-11	16:36:50.870	95.34	25.515	39.095	0.781288	-0.26108	0.078324	-0.8175	0.228	0.1725	0	232	272	3
2026-02-11	16:36:50.890	86.1	30.695	37.555	0.792024	-0.277916	0.061	-0.8085	0.2235	0.174	0	232	272	3
2026-02-11	16:36:50.910	82.215	33.95	34.65	0.819596	-0.284992	0.074664	-0.804	0.216	0.171	0	232	272	3
2026-02-11	16:36:50.930	79.24	36.575	29.925	0.866932	-0.27938	0.079788	-0.7995	0.2115	0.165	0	232	272	3
2026-02-11	16:36:50.950	73.955	39.13	24.255	0.911828	-0.26352	0.080032	-0.7965	0.201	0.165	0	232	272	3
2026-02-11	16:36:50.970	63.525	40.635	17.92	0.9699	-0.261324	0.084668	-0.7995	0.195	0.162	0	232	272	3
2026-02-11	16:36:50.990	48.65	42.07	12.145	1.037244	-0.24766	0.070272	-0.786	0.2025	0.147	0	232	272	3
2026-02-11	16:36:51.010	30.03	42.385	7.805	1.06506	-0.228872	0.072224	-0.7815	0.1875	0.1395	0	229	258	3
2026-02-11	16:36:51.030	9.415	40.81	5.46	1.069696	-0.215208	0.069296	-0.7815	0.186	0.129	0	229	258	3
2026-02-11	16:36:51.050	-12.32	36.715	5.39	1.089216	-0.2074	0.07442	-0.7695	0.1965	0.1245	0	229	258	3
2026-02-11	16:36:51.070	-30.52	30.345	7.455	1.143872	-0.227652	0.090036	-0.7695	0.195	0.12	0	229	258	3
2026-02-11	16:36:51.090	-41.615	23.765	8.26	1.241472	-0.173484	0.102968	-0.762	0.1935	0.1245	0	229	258	3
2026-02-11	16:36:51.110	-49.035	17.395	2.835	1.341268	-0.11834	0.052948	-0.756	0.2025	0.12	0	229	258	3
2026-02-11	16:36:51.130	-59.92	11.235	-8.4	1.398852	-0.108092	-0.025376	-0.753	0.2115	0.12	0	229	258	3
2026-02-11	16:36:51.150	-68.985	0.77	-22.855	1.328824	-0.149084	-0.035624	-0.753	0.213	0.1215	0	229	258	3
2026-02-11	16:36:51.170	-69.055	-15.715	-38.955	1.064084	-0.268888	0.05734	-0.753	0.2175	0.12	0	229	258	3
2026-02-11	16:36:51.190	-56.035	-35.315	-45.92	0.759572	-0.332084	0.19276	-0.756	0.2235	0.1275	0	229	258	3
2026-02-11	16:36:51.210	-26.705	-51.205	-39.865	0.569252	-0.343552	0.270352	-0.7635	0.2235	0.135	0	228	225	3
2026-02-11	16:36:51.230	21.315	-67.235	-25.69	0.583892	-0.242048	0.310856	-0.765	0.2205	0.1395	0	228	225	3
2026-02-11	16:36:51.250	67.865	-82.04	-10.43	0.74054	-0.209108	0.334768	-0.777	0.216	0.1425	0	228	225	3
2026-02-11	16:36:51.270	109.095	-87.78	2.625	0.877424	-0.21228	0.335012	-0.7845	0.2055	0.1545	0	228	225	3
2026-02-11	16:36:51.290	133.525	-88.41	11.095	1.003084	-0.159576	0.305	-0.792	0.2055	0.1605	0	228	225	3
2026-02-11	16:36:51.310	133.35	-83.09	13.965	1.05042	-0.11468	0.294264	-0.8055	0.186	0.168	0	228	225	3
2026-02-11	16:36:51.330	115.71	-74.13	10.5	1.008208	-0.049288	0.315492	-0.8115	0.1845	0.1755	0	228	225	3
2026-02-11	16:36:51.350	85.155	-66.15	3.5	0.977952	-0.023912	0.387716	-0.8175	0.1605	0.1785	0	228	225	3
2026-02-11	16:36:51.370	51.205	-59.36	-3.745	0.969656	-0.040748	0.44774	-0.8295	0.1485	0.1965	0	228	225	3
2026-02-11	16:36:51.390	25.41	-53.41	-9.31	0.94306	-0.107604	0.507032	-0.8415	0.1485	0.2145	0	228	225	3
2026-02-11	16:36:51.410	13.3	-49.455	-11.13	0.930616	-0.154208	0.58194	-0.8355	0.1395	0.213	0	228	212	3
2026-02-11	16:36:51.430	9.975	-43.89	-9.625	0.89548	-0.227652	0.640012	-0.843	0.132	0.2235	0	228	212	3
2026-02-11	16:36:51.450	15.575	-39.165	-7	0.869616	-0.191784	0.650992	-0.8445	0.135	0.237	0	228	212	3
2026-02-11	16:36:51.470	12.88	-29.505	-2.03	0.86254	-0.215696	0.66856	-0.8505	0.1425	0.234	0	228	212	3
2026-02-11	16:36:51.490	7.455	-18.935	1.295	0.844972	-0.177388	0.612684	-0.8505	0.1425	0.234	0	228	212	3
2026-02-11	16:36:51.510	3.325	-13.02	3.255	0.843996	-0.190564	0.529724	-0.8595	0.138	0.255	0	228	212	3
2026-02-11	16:36:51.530	7.49	-3.08	1.96	0.802272	-0.197152	0.476776	-0.858	0.1365	0.252	0	228	212	3
2026-02-11	16:36:51.550	8.82	4.445	2.52	0.805688	-0.242292	0.417972	-0.861	0.141	0.2505	0	228	212	3
2026-02-11	16:36:51.570	12.495	11.025	3.5	0.831796	-0.28182	0.383324	-0.8535	0.144	0.2505	0	228	212	3
2026-02-11	16:36:51.590	12.495	16.975	4.06	0.89914	-0.287676	0.372832	-0.843	0.1425	0.255	0	228	212	3
2026-02-11	16:36:51.610	5.985	20.72	1.96	1.019676	-0.292556	0.364292	-0.8565	0.1425	0.2475	0	231	245	3
2026-02-11	16:36:51.630	-2.275	22.015	-1.4	1.166564	-0.28182	0.358436	-0.858	0.141	0.2415	0	231	245	3
2026-02-11	16:36:51.650	-12.565	22.995	-5.285	1.286368	-0.306464	0.3599	-0.852	0.141	0.24	0	231	245	3
2026-02-11	16:36:51.670	-26.18	23.415	-10.045	1.352004	-0.344284	0.343064	-0.846	0.1395	0.24	0	231	245	3
2026-02-11	16:36:51.690	-44.94	21.945	-13.72	1.348832	-0.388936	0.32574	-0.852	0.1305	0.234	0	231	245	3
2026-02-11	16:36:51.710	-63.385	15.68	-16.135	1.321748	-0.42578	0.29036	-0.846	0.141	0.228	0	231	245	3
2026-02-11	16:36:51.730	-72.66	5.005	-16.555	1.328092	-0.490928	0.25376	-0.8415	0.147	0.225	0	231	245	3
2026-02-11	16:36:51.750	-62.72	-7.35	-14.595	1.347368	-0.476288	0.226432	-0.8325	0.15	0.2265	0	231	245	3
2026-02-11	16:36:51.770	-32.515	-24.045	-7.035	1.280024	-0.580476	0.173972	-0.8415	0.1515	0.2325	0	231	245	3
2026-02-11	16:36:51.790	8.015	-33.18	3.955	1.196088	-0.617076	0.100772	-0.8445	0.1575	0.225	0	231	245	3
2026-02-11	16:36:51.810	57.96	-39.62	19.775	1.111908	-0.598532	0.056364	-0.852	0.1575	0.237	0	236	282	3
2026-02-11	16:36:51.830	100.765	-42.105	40.11	0.98698	-0.55266	-0.002196	-0.849	0.1515	0.243	0	236	282	3
2026-02-11	16:36:51.850	130.48	-41.615	60.62	0.931104	-0.437248	-0.041968	-0.855	0.156	0.2535	0	236	282	3
2026-02-11	16:36:51.870	141.715	-37.66	75.32	0.917928	-0.364048	-0.077104	-0.852	0.15	0.2505	0	236	282	3
2026-02-11	16:36:51.890	137.13	-31.535	89.18	0.886452	-0.291092	-0.083936	-0.8505	0.141	0.2535	0	236	282	3
2026-02-11	16:36:51.910	119.7	-26.74	98.175	0.8723	-0.24156	-0.038552	-0.861	0.1545	0.252	0	236	282	3
2026-02-11	16:36:51.930	98.105	-23.065	102.48	0.859856	-0.328424	-0.01464	-0.8565	0.156	0.2475	0	236	282	3
2026-02-11	16:36:51.950	85.925	-19.635	104.545	0.841556	-0.247904	0.022204	-0.8595	0.1635	0.252	0	236	282	3
2026-02-11	16:36:51.970	70.035	-17.57	105.28	0.800076	-0.35624	0.003416	-0.858	0.183	0.246	0	236	282	3
2026-02-11	16:36:51.990	68.04	-16.73	104.405	0.784704	-0.33916	-0.004636	-0.8565	0.2085	0.2505	0	236	282	3
2026-02-11	16:36:52.010	70.56	-17.15	102.585	0.761768	-0.3233	-0.000732	-0.8565	0.2085	0.2505	0	243	273	3
2026-02-11	16:36:52.030	72.835	-17.92	100.765	0.779824	-0.343552	0.004636	-0.8505	0.234	0.279	0	243	273	3
2026-02-11	16:36:52.050	81.97	-17.605	94.885	0.780312	-0.302316	0.030256	-0.846	0.24	0.2955	0	243	273	3
2026-02-11	16:36:52.070	86.87	-16.765	86.31	0.79056	-0.317444	0.044164	-0.846	0.24	0.2955	0	243	273	3
2026-02-11	16:36:52.090	89.705	-14.875	78.96	0.82594	-0.305976	0.049044	-0.843	0.2475	0.294	0	243	273	3
2026-02-11	16:36:52.110	89.18	-13.055	69.79	0.900604	-0.310124	0.0427	-0.8505	0.2445	0.2895	0	243	273	3
2026-02-11	16:36:52.130	86.94	-9.73	60.795	0.981856	-0.27938	0.05002	-0.843	0.2565	0.2835	0	243	273	3
2026-02-11	16:36:52.150	82.425	-7.105	50.155	1.050664	-0.28548	0.05246	-0.8535	0.2445	0.279	0	243	273	3
2026-02-11	16:36:52.170	78.61	-6.16	40.18	1.15168	-0.271572	0.065392	-0.849	0.2565	0.273	0	243	273	3
2026-02-11	16:36:52.190	73.22	-5.075	29.785	1.242204	-0.257908	0.071736	-0.843	0.2535	0.264	0	243	273	3
2026-02-11	16:36:52.210	65.345	-4.55	18.76	1.343464	-0.255468	0.071736	-0.8415	0.252	0.267	0	250	227	2
2026-02-11	16:36:52.230	57.96	-4.655	6.44	1.398608	-0.215208	0.07515199	-0.843	0.2625	0.2715	0	250	227	2
2026-02-11	16:36:52.250	50.715	-3.395	-5.88	1.398608	-0.184464	0.092232	-0.843	0.2535	0.2625	0	250	227	2
2026-02-11	16:36:52.270	42.28	-4.305	-18.76	1.367132	-0.161284	0.107604	-0.8445	0.2475	0.255	0	250	227	2
2026-02-11	16:36:52.290	31.745	-5.11	-31.36	1.295884	-0.118828	0.094184	-0.8445	0.246	0.255	0	250	227	2
2026-02-11	16:36:52.310	20.3	-8.19	-43.82	1.267092	-0.088084	0.100284	-0.852	0.2385	0.2565	0	250	227	2
2026-02-11	16:36:52.330	9.1	-10.08	-56.735	1.25538	-0.092476	0.077348	-0.8475	0.222	0.2565	0	250	227	2
2026-02-11	16:36:52.350	-3.185	-14.105	-76.58	1.202432	-0.062708	0.02562	-0.849	0.216	0.2625	0	250	227	2
2026-02-11	16:36:52.370	-5.495	-18.795	-90.335	1.206336	-0.088572	0.024156	-0.849	0.216	0.2625	0	250	227	2
2026-02-11	16:36:52.390	-3.78	-23.975	-103.53	1.192672	-0.172264	0.071736	-0.8565	0.195	0.2565	0	250	227	2
2026-02-11	16:36:52.410	-0.28	-28.245	-111.65	1.13826	-0.259128	0.168604	-0.858	0.1815	0.2625	0	255	180	3
2026-02-11	16:36:52.430	6.16	-30.975	-112.175	1.069696	-0.28914	0.225212	-0.8625	0.159	0.264	0	255	180	3
2026-02-11	16:36:52.450	12.215	-32.095	-104.16	1.026508	-0.258884	0.229116	-0.8625	0.1545	0.27	0	255	180	3
2026-02-11	16:36:52.470	12.74	-31.36	-92.785	1.001132	-0.168848	0.197152	-0.8655	0.1335	0.267	0	255	180	3
2026-02-11	16:36:52.490	6.37	-32.34	-81.27	0.99186	-0.151524	0.171288	-0.8685	0.1275	0.2715	0	255	180	3
2026-02-11	16:36:52.510	-0.945	-33.915	-71.47	0.954284	-0.124684	0.176656	-0.8775	0.0915	0.276	0	255	180	3
2026-02-11	16:36:52.530	-11.655	-36.645	-65.205	0.89914	-0.178364	0.237168	-0.879	0.081	0.2715	0	255	180	3
2026-02-11	16:36:52.550	-24.29	-37.625	-61.005	0.810568	-0.210816	0.307928	-0.876	0.0675	0.285	0	255	180	3
2026-02-11	16:36:52.570	-35.175	-37.065	-58.03	0.723704	-0.264984	0.349164	-0.8775	0.0585	0.297	0	255	180	3
2026-02-11	16:36:52.590	-40.005	-35.56	-56.105	0.648308	-0.280356	0.3599	-0.879	0.048	0.3045	0	255	180	3
2026-02-11	16:36:52.610	-40.53	-33.215	-52.675	0.592676	-0.302804	0.340868	-0.879	0.054	0.312	0	258	160	3
2026-02-11	16:36:52.630	-33.845	-29.995	-49.56	0.557052	-0.292068	0.320372	-0.8745	0.042	0.3015	0	258	160	3
2026-02-11	16:36:52.650	-25.585	-27.23	-45.71	0.557052	-0.261812	0.34038	-0.8745	0.042	0.3015	0	258	160	3
2026-02-11	16:36:52.670	-20.335	-25.2	-42.84	0.59658	-0.2867	0.393572	-0.885	0.036	0.3165	0	258	160	3
2026-02-11	16:36:52.690	-15.925	-21.665	-38.465	0.643672	-0.284748	0.425048	-0.876	0.03	0.3195	0	258	160	3
2026-02-11	16:36:52.710	-12.705	-17.71	-34.37	0.734684	-0.261568	0.441884	-0.8805	0.03	0.321	0	258	160	3
2026-02-11	16:36:52.730	-12.355	-13.3	-31.325	0.86742	-0.253028	0.447496	-0.879	0.024	0.3255	0	258	160	3
2026-02-11	16:36:52.750	-14.245	-8.68	-29.505	1.018212	-0.235216	0.449204	-0.87	0.0165	0.327	0	258	160	3
2026-02-11	16:36:52.770	-20.16	-3.43	-27.93	1.166564	-0.244488	0.442616	-0.8685	0.0135	0.327	0	258	160	3
2026-02-11	16:36:52.790	-31.115	2.8	-26.355	1.281976	-0.231312	0.431148	-0.8685	0.021	0.324	0	258	160	3
2026-02-11	16:36:52.810	-47.565	8.47	-23.695	1.336632	-0.248636	0.420412	-0.8775	0.0075	0.3195	0	260	181	3
2026-02-11	16:36:52.830	-62.72	11.795	-18.97	1.334436	-0.2928	0.417484	-0.873	0.006	0.3165	0	260	181	3
2026-02-11	16:36:52.850	-73.185	12.005	-9.8	1.302716	-0.335988	0.432856	-0.8715	0.009	0.312	0	260	181	3
2026-02-11	16:36:52.870	-80.535	8.89	3.395	1.281244	-0.36722	0.44164	-0.864	0.0075	0.3015	0	260	181	3
2026-02-11	16:36:52.890	-77.84	3.99	18.025	1.24562	-0.395036	0.435784	-0.873	0.0165	0.3075	0	260	181	3
2026-02-11	16:36:52.910	-61.32	-0.945	32.9	1.170468	-0.432612	0.41968	-0.867	0.024	0.306	0	260	181	3
2026-02-11	16:36:52.930	-27.825	-5.845	51.31	1.093364	-0.478728	0.374296	-0.8685	0.0285	0.2895	0	260	181	3
2026-02-11	16:36:52.950	12.005	-7.42	69.475	1.125084	-0.514596	0.293044	-0.87	0.0405	0.2925	0	260	181	3
2026-02-11	16:36:52.970	52.92	-3.325	87.255	1.039928	-0.504592	0.206424	-0.873	0.0525	0.2955	0	260	181	3
2026-02-11	16:36:52.990	90.405	-0.91	99.26	1.013088	-0.315004	0.19154	-0.879	0.0555	0.294	0	260	181	3
2026-02-11	16:36:53.010	106.505	5.46	104.3	1.020408	-0.312808	0.235948	-0.882	0.0675	0.2985	0	264	226	3
2026-02-11	16:36:53.030	112.245	12.81	101.115	1.020408	-0.28914	0.223504	-0.891	0.0735	0.2925	0	264	226	3
2026-02-11	16:36:53.050	107.8	18.76	94.57	1.019432	-0.276452	0.239608	-0.891	0.0795	0.291	0	264	226	3
2026-02-11	16:36:53.070	92.995	27.86	91.84	0.973804	-0.231068	0.22692	-0.8895	0.0945	0.282	0	264	226	3
2026-02-11	16:36:53.090	70.84	33.95	88.445	0.866688	-0.223016	0.206424	-0.8835	0.102	0.2775	0	264	226	3
2026-02-11	16:36:53.110	50.12	36.05	86.17	0.8235	-0.25864	0.178364	-0.885	0.1245	0.273	0	264	226	3
2026-02-11	16:36:53.130	37.905	39.69	85.715	0.762988	-0.238632	0.165432	-0.8745	0.135	0.2805	0	264	226	3
2026-02-11	16:36:53.150	26.145	41.79	86.835	0.710284	-0.238144	0.138104	-0.873	0.147	0.2805	0	264	226	3
2026-02-11	16:36:53.170	19.005	41.755	88.06	0.695644	-0.243756	0.116876	-0.8685	0.168	0.27	0	264	226	3
2026-02-11	16:36:53.190	17.08	41.02	91.595	0.69784	-0.235948	0.11956	-0.873	0.177	0.27	0	264	226	3
2026-02-11	16:36:53.210	18.865	39.27	93.905	0.754692	-0.2257	0.132736	-0.87	0.1845	0.2625	0	265	252	3
2026-02-11	16:36:53.230	26.635	37.8	93.94	0.85522	-0.242536	0.114924	-0.867	0.1845	0.249	0	265	252	3
2026-02-11	16:36:53.250	31.99	37.24	88.725	1.016992	-0.16714	0.143228	-0.867	0.1845	0.249	0	265	252	3
2026-02-11	16:36:53.270	30.905	33.95	81.585	1.198772	-0.194956	0.127368	-0.855	0.201	0.231	0	265	252	3
2026-02-11	16:36:53.290	28.805	33.705	72.415	1.337608	-0.174704	0.099796	-0.849	0.21	0.2205	0	265	252	3
2026-02-11	16:36:53.310	18.62	35.14	61.46	1.3908	-0.1098	0.113216	-0.8475	0.219	0.2115	0	265	252	3
2026-02-11	16:36:53.330	6.895	30.45	43.715	1.45302	-0.082472	0.09272	-0.84	0.228	0.2085	0	265	252	3
2026-02-11	16:36:53.350	-5.95	26.74	23.52	1.4274	-0.040992	0.072468	-0.8415	0.237	0.1965	0	265	252	3
2026-02-11	16:36:53.370	-20.09	21.175	2.065	1.394948	-0.023668	0.05002	-0.831	0.24	0.1995	0	265	252	3
2026-02-11	16:36:53.390	-31.395	12.18	-20.37	1.284172	-0.068808	0.072468	-0.8265	0.2415	0.192	0	265	252	3
2026-02-11	16:36:53.410	-34.93	1.785	-42.035	1.204384	-0.115656	0.140544	-0.8355	0.2385	0.1965	0	266	244	3
2026-02-11	16:36:53.430	-32.13	-8.645	-63	1.21878	-0.16592	0.166896	-0.8265	0.246	0.192	0	266	244	3
2026-02-11	16:36:53.450	-28.35	-14.84	-81.06	1.186572	-0.16958	0.103944	-0.8265	0.228	0.192	0	266	244	3
2026-02-11	16:36:53.470	-22.47	-22.365	-96.6	1.194136	-0.170556	0.072224	-0.831	0.222	0.1965	0	266	244	3
2026-02-11	16:36:53.490	-11.9	-28.77	-109.165	1.126548	-0.199104	0.08784	-0.846	0.2085	0.195	0	266	244	3
2026-02-11	16:36:53.510	0.07	-37.8	-117.88	1.041148	-0.243756	0.176412	-0.846	0.201	0.201	0	266	244	3
2026-02-11	16:36:53.530	10.815	-46.41	-118.09	1.001132	-0.247904	0.257176	-0.846	0.201	0.201	0	266	244	3
2026-02-11	16:36:53.550	14.595	-51.345	-112.98	1.013332	-0.214232	0.312076	-0.8595	0.1665	0.2085	0	266	244	3
2026-02-11	16:36:53.570	17.745	-53.62	-106.295	1.011624	-0.203252	0.329156	-0.8565	0.1485	0.2175	0	266	244	3
2026-02-11	16:36:53.590	15.75	-53.2	-99.575	0.976488	-0.195444	0.31354	-0.876	0.126	0.2325	0	266	244	3
2026-02-11	16:36:53.610	5.005	-50.75	-95.27	0.906216	-0.177632	0.29036	-0.8685	0.1035	0.2295	0	266	223	3
2026-02-11	16:36:53.630	-12.075	-47.915	-91.175	0.844972	-0.249124	0.267668	-0.882	0.0885	0.234	0	266	223	3
2026-02-11	16:36:53.650	-23.345	-44.1	-88.935	0.756888	-0.199104	0.297436	-0.876	0.0675	0.237	0	266	223	3
2026-02-11	16:36:53.670	-35.315	-40.95	-84.49	0.688324	-0.24522	0.344772	-0.8805	0.051	0.243	0	266	223	3
2026-02-11	16:36:53.690	-40.81	-37.24	-79.345	0.662216	-0.2562	0.38674	-0.876	0.042	0.249	0	266	223	3
2026-02-11	16:36:53.710	-43.365	-32.095	-72.835	0.639524	-0.277184	0.386008	-0.8835	0.0315	0.255	0	266	223	3
2026-02-11	16:36:53.730	-43.505	-26.845	-67.27	0.626348	-0.257664	0.366	-0.879	0.0255	0.2625	0	266	223	3
2026-02-11	16:36:53.750	-47.11	-22.26	-61.495	0.62464	-0.271328	0.345748	-0.879	0.0165	0.264	0	266	223	3
2026-02-11	16:36:53.770	-49.035	-18.515	-56.7	0.657092	-0.253516	0.354776	-0.8775	0.0135	0.2565	0	266	223	3
2026-02-11	16:36:53.790	-51.345	-15.295	-50.505	0.710284	-0.259616	0.392352	-0.876	0.0225	0.27	0	266	223	3
2026-02-11	16:36:53.810	-54.46	-10.465	-40.985	0.8174	-0.257664	0.444324	-0.867	0.0105	0.2685	0	264	223	3
2026-02-11	16:36:53.830	-56.945	-7.595	-36.05	0.896212	-0.271816	0.44286	-0.87	0.003	0.2655	0	264	223	3
2026-02-11	16:36:53.850	-57.33	-6.02	-32.27	0.992348	-0.285968	0.454816	-0.873	-0.003	0.264	0	264	223	3
2026-02-11	16:36:53.870	-53.585	-4.76	-28.49	1.067988	-0.302316	0.486292	-0.8685	0	0.258	0	264	223	3
2026-02-11	16:36:53.890	-48.125	-3.36	-24.185	1.13216	-0.302804	0.50386	-0.8655	-0.0015	0.2595	0	264	223	3
2026-02-11	16:36:53.910	-44.8	-1.995	-19.39	1.180228	-0.299632	0.480924	-0.8595	0.0045	0.255	0	264	223	3
2026-02-11	16:36:53.930	-42.735	-1.54	-14.385	1.230004	-0.294752	0.452376	-0.867	0.006	0.258	0	264	223	3
2026-02-11	16:36:53.950	-41.23	-2.135	-8.785	1.2749	-0.301828	0.443592	-0.864	0.006	0.252	0	264	223	3
2026-02-11	16:36:53.970	-39.2	-2.625	-1.75	1.264164	-0.316956	0.436272	-0.864	0	0.2445	0	264	223	3
2026-02-11	16:36:53.990	-35.28	-3.675	6.44	1.206336	-0.322568	0.44408	-0.8655	0.0045	0.249	0	264	223	3
2026-02-11	16:36:54.010	-31.5	-6.09	15.47	1.15534	-0.340624	0.449448	-0.867	0.009	0.246	0	263	254	3
2026-02-11	16:36:54.030	-24.36	-7.245	25.095	1.0858	-0.366976	0.432612	-0.855	0.0075	0.237	0	263	254	3
2026-02-11	16:36:54.050	-11.06	-8.68	35.455	1.054568	-0.392352	0.416264	-0.873	0.012	0.2475	0	263	254	3
2026-02-11	16:36:54.070	5.18	-8.365	46.34	1.0858	-0.395768	0.393816	-0.8655	0.0255	0.2445	0	263	254	3
2026-02-11	16:36:54.090	22.715	-4.9	57.54	1.132648	-0.404064	0.3477	-0.87	0.021	0.24	0	263	254	3
2026-02-11	16:36:54.110	55.79	6.195	81.34	1.108004	-0.346968	0.266936	-0.87	0.021	0.24	0	263	254	3
2026-02-11	16:36:54.130	66.605	15.82	93.275	1.05652	-0.28914	0.246196	-0.87	0.021	0.24	0	263	254	3
2026-02-11	16:36:54.150	66.29	20.965	99.75	1.054812	-0.272792	0.250588	-0.879	0.0375	0.2385	0	263	254	3
2026-02-11	16:36:54.170	60.06	26.985	101.675	1.031388	-0.269376	0.252052	-0.8775	0.0435	0.234	0	263	254	3
2026-02-11	16:36:54.190	50.015	30.94	99.925	1.056764	-0.269864	0.23668	-0.879	0.042	0.2205	0	263	254	3
2026-02-11	16:36:54.210	38.465	35.945	99.05	1.037976	-0.2318	0.219112	-0.87	0.0645	0.2175	0	260	290	3
2026-02-11	16:36:54.230	24.465	39.34	97.965	1.043344	-0.274256	0.205448	-0.8715	0.0825	0.201	0	260	290	3
2026-02-11	16:36:54.250	12.985	43.82	98.42	0.937692	-0.255712	0.182024	-0.8595	0.105	0.1995	0	260	290	3
2026-02-11	16:36:54.270	3.64	45.99	99.505	0.869372	-0.273036	0.150304	-0.8475	0.1275	0.2025	0	260	290	3
2026-02-11	16:36:54.290	0.84	45.5	100.59	0.804956	-0.240096	0.133224	-0.8385	0.138	0.204	0	260	290	3
2026-02-11	16:36:54.310	-1.015	41.965	102.585	0.794464	-0.243024	0.146156	-0.834	0.138	0.198	0	260	290	3
2026-02-11	16:36:54.330	-0.315	39.375	103.845	0.772504	-0.24522	0.135664	-0.8325	0.1485	0.1935	0	260	290	3
2026-02-11	16:36:54.350	4.69	36.19	103.985	0.733952	-0.242292	0.105164	-0.834	0.1575	0.1845	0	260	290	3
2026-02-11	16:36:54.370	12.18	31.815	102.865	0.736148	-0.205448	0.089304	-0.816	0.168	0.174	0	260	290	3
2026-02-11	16:36:54.390	21.84	26.775	96.39	0.740052	-0.23546	0.109312	-0.813	0.1755	0.1695	0	260	290	3
2026-02-11	16:36:54.410	31.885	22.05	87.325	0.7808	-0.199836	0.141032	-0.813	0.1755	0.1695	0	256	296	3
2026-02-11	16:36:54.430	34.685	19.145	74.2	0.866444	-0.19398	0.157136	-0.813	0.1755	0.1695	0	256	296	3
2026-02-11	16:36:54.450	35.14	17.43	60.515	0.906704	-0.183976	0.144692	-0.7935	0.2025	0.1515	0	256	296	3
2026-02-11	16:36:54.470	32.235	12.285	43.05	1.046272	-0.17202	0.153476	-0.786	0.1965	0.1485	0	256	296	3
2026-02-11	16:36:54.490	25.235	7.105	23.8	1.167784	-0.16714	0.157868	-0.789	0.1995	0.129	0	256	296	3
2026-02-11	16:36:54.510	16.345	1.26	3.22	1.273436	-0.174704	0.17324	-0.789	0.1965	0.1305	0	256	296	3
2026-02-11	16:36:54.530	7.175	-5.775	-18.97	1.34932	-0.202764	0.197152	-0.786	0.183	0.138	0	256	296	3
2026-02-11	16:36:54.550	3.29	-13.3	-38.85	1.364692	-0.238632	0.221308	-0.783	0.1815	0.1335	0	256	296	3
2026-02-11	16:36:54.570	6.895	-20.65	-56.735	1.37616	-0.245464	0.253028	-0.786	0.1815	0.1335	0	256	296	3
2026-02-11	16:36:54.590	11.585	-28.49	-72.31	1.354444	-0.227896	0.241804	-0.7905	0.168	0.1305	0	256	296	3
2026-02-11	16:36:54.610	13.79	-36.68	-87.01	1.347612	-0.203252	0.197884	-0.795	0.1515	0.138	0	251	276	3
2026-02-11	16:36:54.630	15.295	-44.135	-101.01	1.30662	-0.177388	0.166408	-0.795	0.1455	0.141	0	251	276	3
2026-02-11	16:36:54.650	16.275	-52.22	-112.63	1.260748	-0.201056	0.173972	-0.804	0.126	0.1545	0	251	276	3
2026-02-11	16:36:54.670	22.05	-58.31	-119.455	1.15656	-0.215696	0.228628	-0.8055	0.1095	0.1575	0	251	276	3
2026-02-11	16:36:54.690	37.94	-64.33	-115.99	1.03456	-0.255712	0.31842	-0.8085	0.0975	0.168	0	251	276	3
2026-02-11	16:36:54.710	42.77	-63.98	-104.72	1.013576	-0.241072	0.374784	-0.8085	0.0735	0.174	0	251	276	3
2026-02-11	16:36:54.730	35.035	-58.625	-90.615	1.041148	-0.169092	0.407968	-0.8085	0.051	0.1815	0	251	276	3
2026-02-11	16:36:54.750	20.23	-48.755	-77.21	1.037	-0.15494	0.335012	-0.819	0.0405	0.1995	0	251	276	3
2026-02-11	16:36:54.770	0.49	-36.75	-67.375	1.004304	-0.0732	0.269376	-0.8115	0.0285	0.2055	0	251	276	3
2026-02-11	16:36:54.790	-30.275	-26.81	-59.99	0.951356	-0.098088	0.204472	-0.8175	0.0195	0.201	0	251	276	3
2026-02-11	16:36:54.810	-56.455	-18.9	-56.49	0.879132	-0.110532	0.20618	-0.819	0.006	0.2055	0	247	258	3
2026-02-11	16:36:54.830	-75.985	-14.385	-53.83	0.79422	-0.200812	0.251564	-0.813	-0.003	0.207	0	247	258	3
2026-02-11	16:36:54.850	-83.65	-12.005	-50.855	0.69174	-0.244976	0.303048	-0.819	-0.006	0.1995	0	247	258	3
2026-02-11	16:36:54.870	-83.37	-10.675	-48.65	0.618052	-0.290604	0.325984	-0.8175	-0.0075	0.2025	0	247	258	3
2026-02-11	16:36:54.890	-76.475	-10.78	-46.41	0.566324	-0.312076	0.338428	-0.8055	-0.003	0.198	0	247	258	3
2026-02-11	16:36:54.910	-64.89	-11.165	-44.38	0.538996	-0.336232	0.327448	-0.801	0	0.195	0	247	258	3
2026-02-11	16:36:54.930	-49.84	-12.005	-43.225	0.536068	-0.30012	0.33184	-0.8025	-0.0075	0.2025	0	247	258	3
2026-02-11	16:36:54.950	-40.18	-13.405	-43.295	0.559248	-0.27328	0.356728	-0.8025	-0.0045	0.207	0	247	258	3
2026-02-11	16:36:54.970	-33.285	-13.72	-43.26	0.638792	-0.267912	0.409188	-0.801	-0.0015	0.204	0	247	258	3
2026-02-11	16:36:54.990	-28.245	-12.355	-43.4	0.735416	-0.263032	0.435052	-0.801	-0.0015	0.204	0	247	258	3
2026-02-11	16:36:55.010	-26.005	-10.71	-44.065	0.838384	-0.259372	0.446276	-0.798	-0.006	0.1995	0	245	259	3
2026-02-11	16:36:55.030	-24.465	-8.96	-44.73	0.960384	-0.2501	0.463356	-0.7965	-0.0105	0.195	0	245	259	3
2026-02-11	16:36:55.050	-25.9	-6.055	-44.66	1.058228	-0.258396	0.4819	-0.792	-0.015	0.1995	0	245	259	3
2026-02-11	16:36:55.070	-31.15	-2.485	-42.945	1.131916	-0.248148	0.507032	-0.7935	-0.012	0.1935	0	245	259	3
2026-02-11	16:36:55.090	-41.125	0.91	-39.025	1.192916	-0.24156	0.508496	-0.7935	-0.015	0.1875	0	245	259	3
2026-02-11	16:36:55.110	-53.025	3.325	-32.445	1.2322	-0.256688	0.479704	-0.7845	-0.021	0.183	0	245	259	3
2026-02-11	16:36:55.130	-58.45	3.325	-22.925	1.270264	-0.294996	0.44652	-0.786	-0.024	0.18	0	245	259	3
2026-02-11	16:36:55.150	-57.61	2.345	-10.57	1.280512	-0.293288	0.43432	-0.7815	-0.0225	0.1755	0	245	259	3
2026-02-11	16:36:55.170	-54.845	-0.07	2.52	1.296372	-0.317688	0.456036	-0.7665	-0.0165	0.165	0	245	259	3
2026-02-11	16:36:55.190	-45.43	-1.54	15.26	1.316624	-0.331596	0.453596	-0.774	-0.015	0.159	0	245	259	3
2026-02-11	16:36:55.210	-31.01	-1.505	26.005	1.287832	-0.360632	0.448716	-0.768	-0.0015	0.1605	0	245	285	3
2026-02-11	16:36:55.230	-16.87	-2.135	34.44	1.295396	-0.367708	0.421876	-0.7695	-0.0045	0.15	0	245	285	3
2026-02-11	16:36:55.250	-4.83	3.185	43.89	1.231956	-0.382592	0.39162	-0.765	-0.0045	0.1485	0	245	285	3
2026-02-11	16:36:55.270	7.63	11.725	59.045	1.101416	-0.334036	0.327204	-0.756	0	0.1485	0	245	285	3
2026-02-11	16:36:55.290	10.43	18.97	72.905	1.021628	-0.311344	0.257908	-0.747	0.0015	0.1365	0	245	285	3
2026-02-11	16:36:55.310	9.695	24.605	84.525	0.977952	-0.271328	0.219356	-0.7395	0.003	0.126	0	245	285	3
2026-02-11	16:36:55.330	7.56	26.845	93.415	0.979416	-0.271328	0.194712	-0.7425	-0.003	0.117	0	245	285	3
2026-02-11	16:36:55.350	7.385	28.315	100.1	0.97844	-0.259616	0.169092	-0.735	0.003	0.108	0	245	285	3
2026-02-11	16:36:55.370	9.065	28.315	102.305	0.996008	-0.29036	0.152988	-0.726	0.006	0.093	0	245	285	3
2026-02-11	16:36:55.390	12.81	30.485	101.5	0.976976	-0.305	0.142496	-0.726	0.0105	0.09	0	245	285	3
2026-02-11	16:36:55.410	18.9	30.765	98.665	0.926224	-0.322568	0.144936	-0.7155	0.006	0.099	0	247	310	3
2026-02-11	16:36:55.430	26.11	31.29	94.675	0.866444	-0.305	0.140544	-0.7185	0.0195	0.0975	0	247	310	3
2026-02-11	16:36:55.450	28.385	29.47	90.825	0.7808	-0.259616	0.13176	-0.714	0.0105	0.096	0	247	310	3
2026-02-11	16:36:55.470	23.94	26.775	85.225	0.717116	-0.250832	0.104676	-0.7125	0.0075	0.1035	0	247	310	3
2026-02-11	16:36:55.490	19.67	22.015	79.73	0.669048	-0.232776	0.0793	-0.7155	0.0135	0.12	0	247	310	3
2026-02-11	16:36:55.510	16.275	15.33	75.355	0.632692	-0.246196	0.062464	-0.72	0.003	0.1215	0	247	310	3
2026-02-11	16:36:55.530	16.975	7.84	71.68	0.611708	-0.238144	0.060268	-0.726	0.0015	0.1305	0	247	310	3
2026-02-11	16:36:55.550	21.595	0.35	68.145	0.591212	-0.2623	0.05124	-0.744	0.0075	0.138	0	247	310	3
2026-02-11	16:36:55.570	38.64	-10.465	61.25	0.636108	-0.272548	0.072224	-0.7425	0.006	0.1455	0	247	310	3
2026-02-11	16:36:55.590	52.64	-17.115	55.125	0.699304	-0.260836	0.088084	-0.759	0.0075	0.1575	0	247	310	3
2026-02-11	16:36:55.610	65.1	-24.465	47.005	0.80154	-0.251808	0.133468	-0.7755	0.009	0.171	0	249	300	3
2026-02-11	16:36:55.630	74.095	-28.805	37.52	0.928176	-0.244	0.168116	-0.792	0.0105	0.183	0	249	300	3
2026-02-11	16:36:55.650	80.395	-30.8	29.33	1.019432	-0.225456	0.206912	-0.8055	0.012	0.201	0	249	300	3
2026-02-11	16:36:55.670	78.75	-31.71	19.565	1.087264	-0.212524	0.221308	-0.8085	0.015	0.219	0	249	300	3
2026-02-11	16:36:55.690	69.335	-32.515	9.87	1.164856	-0.180072	0.229604	-0.819	0.0195	0.2355	0	249	300	3
2026-02-11	16:36:55.710	53.795	-32.305	-0.21	1.221952	-0.160796	0.232776	-0.831	0.018	0.246	0	249	300	3
2026-02-11	16:36:55.730	36.68	-33.11	-11.06	1.281	-0.156648	0.25376	-0.837	0.015	0.255	0	249	300	3
2026-02-11	16:36:55.750	22.61	-34.16	-20.755	1.227076	-0.164944	0.267912	-0.8415	0.009	0.267	0	249	300	3
2026-02-11	16:36:55.770	14.525	-35.98	-32.83	1.229516	-0.198372	0.292068	-0.834	0.0105	0.279	0	249	300	3
2026-02-11	16:36:55.790	13.58	-36.05	-45.92	1.209996	-0.198616	0.313784	-0.843	0.0105	0.2805	0	249	300	3
2026-02-11	16:36:55.810	13.58	-34.405	-59.85	1.238544	-0.169336	0.294752	-0.8505	0.015	0.294	0	251	273	3
2026-02-11	16:36:55.830	5.39	-30.975	-73.675	1.252696	-0.134444	0.193248	-0.8415	0.003	0.3105	0	251	273	3
2026-02-11	16:36:55.850	-10.01	-30.03	-92.995	1.280268	-0.015128	0.111752	-0.837	-0.0075	0.309	0	251	273	3
2026-02-11	16:36:55.870	-25.62	-31.325	-115.01	1.255868	0.0793	0.13054	-0.837	-0.0075	0.309	0	251	273	3
2026-02-11	16:36:55.890	-41.02	-35.56	-130.9	1.311012	-0.07686	0.240828	-0.8295	-0.027	0.3165	0	251	273	3
2026-02-11	16:36:55.910	-48.37	-33.775	-134.19	1.220732	-0.20618	0.299144	-0.8235	-0.0465	0.3255	0	251	273	3
2026-02-11	16:36:55.930	-44.73	-29.54	-126.63	1.149728	-0.181292	0.35868	-0.813	-0.057	0.33	0	251	273	3
2026-02-11	16:36:55.950	-35.175	-22.505	-106.82	1.04798	-0.195932	0.338916	-0.795	-0.0855	0.3285	0	251	273	3
2026-02-11	16:36:55.970	-20.37	-17.605	-79.38	1.05042	-0.014396	0.256932	-0.7965	-0.0825	0.3315	0	251	273	3
2026-02-11	16:36:55.990	-17.71	-11.515	-59.43	0.991616	0.08418	0.178852	-0.786	-0.093	0.327	0	251	273	3
2026-02-11	16:36:54.010	-31.5	-6.09	15.47	1.15534	-0.340624	0.449448	-0.867	0.009	0.246	0	263	254	3
2026-02-11	16:36:54.030	-24.36	-7.245	25.095	1.0858	-0.366976	0.432612	-0.855	0.0075	0.237	0	263	254	3
2026-02-11	16:36:54.050	-11.06	-8.68	35.455	1.054568	-0.392352	0.416264	-0.873	0.012	0.2475	0	263	254	3
2026-02-11	16:36:54.070	5.18	-8.365	46.34	1.0858	-0.395768	0.393816	-0.8655	0.0255	0.2445	0	263	254	3
2026-02-11	16:36:54.090	22.715	-4.9	57.54	1.132648	-0.404064	0.3477	-0.87	0.021	0.24	0	263	254	3
2026-02-11	16:36:54.110	55.79	6.195	81.34	1.108004	-0.346968	0.266936	-0.87	0.021	0.24	0	263	254	3
2026-02-11	16:36:54.130	66.605	15.82	93.275	1.05652	-0.28914	0.246196	-0.87	0.021	0.24	0	263	254	3
2026-02-11	16:36:54.150	66.29	20.965	99.75	1.054812	-0.272792	0.250588	-0.879	0.0375	0.2385	0	263	254	3
2026-02-11	16:36:54.170	60.06	26.985	101.675	1.031388	-0.269376	0.252052	-0.8775	0.0435	0.234	0	263	254	3
2026-02-11	16:36:54.190	50.015	30.94	99.925	1.056764	-0.269864	0.23668	-0.879	0.042	0.2205	0	263	254	3
2026-02-11	16:36:54.210	38.465	35.945	99.05	1.037976	-0.2318	0.219112	-0.87	0.0645	0.2175	0	260	290	3
2026-02-11	16:36:54.230	24.465	39.34	97.965	1.043344	-0.274256	0.205448	-0.8715	0.0825	0.201	0	260	290	3
2026-02-11	16:36:54.250	12.985	43.82	98.42	0.937692	-0.255712	0.182024	-0.8595	0.105	0.1995	0	260	290	3
2026-02-11	16:36:54.270	3.64	45.99	99.505	0.869372	-0.273036	0.150304	-0.8475	0.1275	0.2025	0	260	290	3
2026-02-11	16:36:54.290	0.84	45.5	100.59	0.804956	-0.240096	0.133224	-0.8385	0.138	0.204	0	260	290	3
2026-02-11	16:36:54.310	-1.015	41.965	102.585	0.794464	-0.243024	0.146156	-0.834	0.138	0.198	0	260	290	3
2026-02-11	16:36:54.330	-0.315	39.375	103.845	0.772504	-0.24522	0.135664	-0.8325	0.1485	0.1935	0	260	290	3
2026-02-11	16:36:54.350	4.69	36.19	103.985	0.733952	-0.242292	0.105164	-0.834	0.1575	0.1845	0	260	290	3
2026-02-11	16:36:54.370	12.18	31.815	102.865	0.736148	-0.205448	0.089304	-0.816	0.168	0.174	0	260	290	3
2026-02-11	16:36:54.390	21.84	26.775	96.39	0.740052	-0.23546	0.109312	-0.813	0.1755	0.1695	0	260	290	3
2026-02-11	16:36:56.410	-81.795	-19.145	17.5	1.0553	-0.29646	0.332084	-0.729	-0.03	0.1665	0	255	234	3
2026-02-11	16:36:56.430	-77.7	-23.135	17.955	1.095804	-0.271328	0.382836	-0.7365	-0.018	0.1695	0	255	234	3
2026-02-11	16:36:56.450	-77.595	-27.65	16.765	1.142652	-0.22814	0.472628	-0.744	-0.012	0.1755	0	255	234	3
2026-02-11	16:36:56.470	-87.535	-28.805	13.755	1.180228	-0.122488	0.666364	-0.753	-0.003	0.1785	0	255	234	3
2026-02-11	16:36:56.490	-120.96	-26.005	6.23	1.228784	-0.037576	0.766648	-0.7605	0.0015	0.183	0	255	234	3
2026-02-11	16:36:56.510	-161.56	-19.915	-9.695	1.330532	-0.063928	0.804956	-0.765	0.009	0.189	0	255	234	3
2026-02-11	16:36:56.530	-198.1	-10.745	-28.035	1.384944	-0.231312	0.804956	-0.762	0.03	0.189	0	255	234	3
2026-02-11	16:36:56.550	-190.82	1.225	-39.095	1.39568	-0.593164	0.706624	-0.7695	0.0435	0.192	0	255	234	3
2026-02-11	16:36:56.570	-118.195	15.225	-41.3	1.22	-0.736148	0.5002	-0.774	0.0465	0.195	0	255	234	3
2026-02-11	16:36:56.590	30.905	27.755	-19.53	0.867176	-0.539728	0.271816	-0.774	0.0465	0.195	0	255	234	3
2026-02-11	16:36:56.610	103.215	28.28	-2.275	0.760548	-0.361364	0.257908	-0.7725	0.0405	0.192	0	257	260	3
2026-02-11	16:36:56.630	134.61	31.325	12.11	0.743468	-0.170068	0.2928	-0.7665	0.033	0.198	0	257	260	3
2026-02-11	16:36:56.650	131.705	36.82	22.505	0.8296	-0.040992	0.337696	-0.7635	0.0225	0.2085	0	257	260	3
2026-02-11	16:36:56.670	98.735	44.485	25.795	0.935984	0.018056	0.37332	-0.7635	0.0135	0.219	0	257	260	3
2026-02-11	16:36:56.690	44.695	50.54	23.905	1.107272	-0.032208	0.397232	-0.7635	0.009	0.2235	0	257	260	3
2026-02-11	16:36:56.710	-10.605	58.66	24.36	1.217804	-0.128344	0.3538	-0.759	0.0075	0.2205	0	257	260	3
2026-02-11	16:36:56.730	-48.65	69.335	27.475	1.24928	-0.172508	0.285236	-0.753	0.0165	0.2205	0	257	260	3
2026-02-11	16:36:56.750	-79.17	77.7	30.135	1.19682	-0.226188	0.227896	-0.7515	0.0315	0.216	0	257	260	3
2026-02-11	16:36:56.770	-100.275	81.27	32.165	1.11264	-0.279624	0.16958	-0.7425	0.0495	0.21	0	257	260	3
2026-02-11	16:36:56.790	-111.335	82.285	38.185	1.004548	-0.31598	0.13542	-0.7335	0.06	0.21	0	257	260	3
2026-02-11	16:36:54.810	-56.455	-18.9	-56.49	0.879132	-0.110532	0.20618	-0.819	0.006	0.2055	0	247	258	3
2026-02-11	16:36:54.830	-75.985	-14.385	-53.83	0.79422	-0.200812	0.251564	-0.813	-0.003	0.207	0	247	258	3
2026-02-11	16:36:54.850	-83.65	-12.005	-50.855	0.69174	-0.244976	0.303048	-0.819	-0.006	0.1995	0	247	258	3
2026-02-11	16:36:54.870	-83.37	-10.675	-48.65	0.618052	-0.290604	0.325984	-0.8175	-0.0075	0.2025	0	247	258	3
2026-02-11	16:36:54.890	-76.475	-10.78	-46.41	0.566324	-0.312076	0.338428	-0.8055	-0.003	0.198	0	247	258	3
2026-02-11	16:36:54.910	-64.89	-11.165	-44.38	0.538996	-0.336232	0.327448	-0.801	0	0.195	0	247	258	3
2026-02-11	16:36:54.930	-49.84	-12.005	-43.225	0.536068	-0.30012	0.33184	-0.8025	-0.0075	0.2025	0	247	258	3
2026-02-11	16:36:54.950	-40.18	-13.405	-43.295	0.559248	-0.27328	0.356728	-0.8025	-0.0045	0.207	0	247	258	3
2026-02-11	16:36:54.970	-33.285	-13.72	-43.26	0.638792	-0.267912	0.409188	-0.801	-0.0015	0.204	0	247	258	3
2026-02-11	16:36:54.990	-28.245	-12.355	-43.4	0.735416	-0.263032	0.435052	-0.801	-0.0015	0.204	0	247	258	3
2026-02-11	16:36:57.010	-19.53	11.34	57.96	0.795196	-0.1586	0.213012	-0.687	0.2535	0.207	0	266	299	3
2026-02-11	16:36:57.030	-16.905	8.085	47.285	0.834236	-0.15982	0.258884	-0.6795	0.2625	0.207	0	266	299	3
2026-02-11	16:36:57.050	-13.86	6.65	28.105	0.87718	-0.166652	0.294264	-0.678	0.273	0.2085	0	266	299	3
2026-02-11	16:36:57.070	-11.655	5.985	3.255	0.933056	-0.160796	0.317688	-0.675	0.276	0.21	0	266	299	3
2026-02-11	16:36:57.090	-17.99	7.665	-17.955	0.906216	-0.165432	0.31964	-0.675	0.279	0.2055	0	266	299	3
2026-02-11	16:36:57.110	-29.855	7.595	-39.2	0.948428	-0.142008	0.293044	-0.6705	0.282	0.204	0	266	299	3
2026-02-11	16:36:57.130	-39.165	3.815	-63.91	1.06018	-0.165188	0.27938	-0.672	0.285	0.2055	0	266	299	3
2026-02-11	16:36:57.150	-40.915	-0.84	-91.07	1.159976	-0.198128	0.291092	-0.6705	0.2835	0.207	0	266	299	3
2026-02-11	16:36:57.170	-40.705	-7.665	-119.28	1.281	-0.232288	0.320372	-0.6705	0.276	0.2115	0	266	299	3
2026-02-11	16:36:57.190	-36.855	-13.09	-145.775	1.275388	-0.341356	0.377224	-0.681	0.27	0.2115	0	266	299	3
2026-02-11	16:36:55.210	-31.01	-1.505	26.005	1.287832	-0.360632	0.448716	-0.768	-0.0015	0.1605	0	245	285	3
2026-02-11	16:36:55.230	-16.87	-2.135	34.44	1.295396	-0.367708	0.421876	-0.7695	-0.0045	0.15	0	245	285	3
2026-02-11	16:36:55.250	-4.83	3.185	43.89	1.231956	-0.382592	0.39162	-0.765	-0.0045	0.1485	0	245	285	3
2026-02-11	16:36:55.270	7.63	11.725	59.045	1.101416	-0.334036	0.327204	-0.756	0	0.1485	0	245	285	3
2026-02-11	16:36:55.290	10.43	18.97	72.905	1.021628	-0.311344	0.257908	-0.747	0.0015	0.1365	0	245	285	3
2026-02-11	16:36:55.310	9.695	24.605	84.525	0.977952	-0.271328	0.219356	-0.7395	0.003	0.126	0	245	285	3
2026-02-11	16:36:55.330	7.56	26.845	93.415	0.979416	-0.271328	0.194712	-0.7425	-0.003	0.117	0	245	285	3
2026-02-11	16:36:55.350	7.385	28.315	100.1	0.97844	-0.259616	0.169092	-0.735	0.003	0.108	0	245	285	3
2026-02-11	16:36:55.370	9.065	28.315	102.305	0.996008	-0.29036	0.152988	-0.726	0.006	0.093	0	245	285	3
2026-02-11	16:36:55.390	12.81	30.485	101.5	0.976976	-0.305	0.142496	-0.726	0.0105	0.09	0	245	285	3
2026-02-11	16:36:57.410	-196.175	48.44	-93.555	0.962092	-0.3721	0.19764	-0.7245	0.1815	0.2055	0	266	283	3
2026-02-11	16:36:57.430	-220.64	48.055	-90.125	0.775432	-0.427244	0.207888	-0.7155	0.1845	0.2085	0	266	283	3
2026-02-11	16:36:57.450	-225.155	42.84	-79.835	0.636352	-0.403576	0.179828	-0.7095	0.1935	0.2055	0	266	283	3
2026-02-11	16:36:57.470	-209.125	31.675	-67.375	0.57462	-0.335256	0.145912	-0.708	0.21	0.207	0	266	283	3
2026-02-11	16:36:57.490	-180.705	16.52	-56.28	0.569252	-0.31598	0.11468	-0.7065	0.222	0.213	0	266	283	3
2026-02-11	16:36:57.510	-142.765	-0.665	-46.165	0.608292	-0.358192	0.088816	-0.7065	0.2295	0.2205	0	266	283	3
2026-02-11	16:36:57.530	-99.61	-15.82	-38.29	0.66612	-0.39284	0.111264	-0.708	0.234	0.2265	0	266	283	3
2026-02-11	16:36:57.550	-64.19	-27.335	-34.125	0.726632	-0.387716	0.138836	-0.7155	0.2415	0.2325	0	266	283	3
2026-02-11	16:36:57.570	-38.85	-35.77	-34.44	0.780068	-0.375272	0.170556	-0.72	0.243	0.24	0	266	283	3
2026-02-11	16:36:57.590	-23.8	-41.895	-36.61	0.83204	-0.344528	0.201544	-0.7215	0.243	0.243	0	266	283	3
2026-02-11	16:36:57.610	-18.865	-46.9	-40.25	0.889868	-0.33794	0.243512	-0.723	0.243	0.2475	0	266	270	3
2026-02-11	16:36:57.630	-24.465	-51.66	-44.59	0.963312	-0.302804	0.3172	-0.723	0.24	0.252	0	266	270	3
2026-02-11	16:36:57.650	-36.89	-55.51	-46.48	1.020896	-0.287188	0.396012	-0.7305	0.2385	0.2565	0	266	270	3
2026-02-11	16:36:57.670	-49.42	-57.575	-44.17	1.06262	-0.272792	0.46238	-0.7455	0.24	0.27	0	266	270	3
2026-02-11	16:36:57.690	-59.535	-60.795	-39.165	1.182424	-0.27084	0.564616	-0.7545	0.2355	0.2775	0	266	270	3
2026-02-11	16:36:57.710	-68.67	-62.475	-28.385	1.347856	-0.271328	0.64904	-0.756	0.2295	0.285	0	266	270	3
2026-02-11	16:36:57.730	-77.385	-64.365	-14.98	1.704096	-0.271084	0.765672	-0.762	0.228	0.2985	0	266	270	3
2026-02-11	16:36:57.750	-75.355	-57.785	-0.315	2.035204	-0.315736	0.851804	-0.771	0.2295	0.3135	0	266	270	3
2026-02-11	16:36:57.770	-53.48	-29.33	18.27	1.712636	-0.234972	0.797636	-0.777	0.237	0.3225	0	266	270	3
2026-02-11	16:36:57.790	-9.205	-4.27	29.05	1.069452	-0.212036	0.584624	-0.7785	0.2475	0.327	0	266	270	3
2026-02-11	16:36:57.810	33.005	2.17	26.95	0.890844	-0.091012	0.38796	-0.777	0.246	0.333	0	268	277	3
2026-02-11	16:36:57.830	60.375	11.97	40.285	0.781532	0.017568	0.290848	-0.7725	0.237	0.3345	0	268	277	3
2026-02-11	16:36:57.850	73.605	25.34	56.91	0.75274	0.114924	0.341356	-0.7695	0.231	0.333	0	268	277	3
2026-02-11	16:36:57.870	44.17	39.83	69.86	0.692716	0.10004	0.392596	-0.7665	0.234	0.33	0	268	277	3
2026-02-11	16:36:57.890	-4.025	52.115	66.5	0.720776	0.00244	0.432856	-0.765	0.2355	0.3225	0	268	277	3
2026-02-11	16:36:57.910	-37.87	60.375	49.56	0.865956	-0.184464	0.454328	-0.762	0.2385	0.312	0	268	277	3
2026-02-11	16:36:57.930	-51.485	72.135	37.66	1.114592	-0.171532	0.404552	-0.759	0.243	0.3075	0	268	277	3
2026-02-11	16:36:57.950	-63.07	82.845	37.905	1.200236	-0.12932	0.382104	-0.75	0.2475	0.3015	0	268	277	3
2026-02-11	16:36:57.970	-90.615	97.16	32.41	1.188768	-0.237656	0.30256	-0.7335	0.258	0.288	0	268	277	3
2026-02-11	16:36:57.990	-109.69	105.91	28.665	1.159976	-0.272304	0.229604	-0.7215	0.27	0.282	0	268	277	3
2026-02-11	16:36:58.010	-123.97	107.975	28.875	1.1651	-0.28914	0.196664	-0.7125	0.2865	0.2805	0	274	309	3
2026-02-11	16:36:58.030	-137.48	106.96	35.665	1.159244	-0.260104	0.2013	-0.6975	0.3	0.2805	0	274	309	3
2026-02-11	16:36:58.050	-144.69	103.88	44.73	1.11508	-0.249612	0.196908	-0.6855	0.309	0.2835	0	274	309	3
