yyyy-MM-dd	HH:mm:ss.fff	gyrX	gyrY	gyrZ	accX	accY	accZ	magX	magY	magZ	Marker	Energy	Angle	Classification
2026-02-12	15:39:54.010	-85.155	-46.13	-46.48	-0.927688	-0.457012	-0.22814	0.8985	0.6135	0.1845	0	204	230	3
2026-02-12	15:39:54.030	-69.02	-42.84	-40.46	-0.898164	-0.472872	-0.231312	0.9075	0.621	0.1785	0	204	230	3
2026-02-12	15:39:54.050	-49.105	-38.395	-33.11	-0.899628	-0.444568	-0.220088	0.909	0.6195	0.1755	0	204	230	3
2026-02-12	15:39:54.070	-36.365	-35.56	-27.265	-0.889136	-0.33916	-0.198372	0.9135	0.621	0.1695	0	204	230	3
2026-02-12	15:39:54.090	-36.47	-33.285	-24.115	-0.852048	-0.286212	-0.183976	0.9075	0.624	0.168	0	204	230	3
2026-02-12	15:39:54.110	-41.86	-30.59	-22.575	-0.84546	-0.260348	-0.188856	0.9075	0.624	0.1665	0	204	230	3
2026-02-12	15:39:54.130	-51.835	-29.12	-22.085	-0.86864	-0.238388	-0.22326	0.9135	0.6285	0.1635	0	204	230	3
2026-02-12	15:39:54.150	-63.7	-31.29	-23.94	-0.914024	-0.274256	-0.263032	0.9135	0.627	0.1605	0	204	230	3
2026-02-12	15:39:54.170	-81.375	-39.445	-28.945	-0.970388	-0.397476	-0.28914	0.9135	0.6225	0.159	0	204	230	3
2026-02-12	15:39:54.190	-84.805	-45.15	-30.66	-0.98088	-0.528992	-0.273524	0.9135	0.6225	0.159	0	204	230	3
2026-02-12	15:39:52.210	-7.175	-3.92	5.635	-0.704672	-0.658068	-0.095404	0.846	0.7245	0.246	0	152	136	3
2026-02-12	15:39:52.230	-8.33	-6.895	9.1	-0.728828	-0.66612	-0.098088	0.846	0.7185	0.249	0	152	136	3
2026-02-12	15:39:52.250	-9.835	-13.615	12.915	-0.743224	-0.70272	-0.098088	0.8445	0.72	0.252	0	152	136	3
2026-02-12	15:39:52.270	-10.115	-17.36	15.225	-0.721996	-0.732976	-0.104676	0.8445	0.72	0.252	0	152	136	3
2026-02-12	15:39:52.290	-7.595	-19.11	18.34	-0.707356	-0.743712	-0.10004	0.843	0.717	0.243	0	152	136	3
2026-02-12	15:39:52.310	-5.18	-18.69	21.77	-0.708332	-0.737124	-0.094184	0.8475	0.717	0.246	0	152	136	3
2026-02-12	15:39:52.330	-1.05	-17.465	24.43	-0.716872	-0.748104	-0.088328	0.855	0.7185	0.2475	0	152	136	3
2026-02-12	15:39:52.350	3.745	-15.645	27.72	-0.719556	-0.766404	-0.081252	0.861	0.717	0.243	0	152	136	3
2026-02-12	15:39:52.370	9.415	-13.09	31.78	-0.736636	-0.749324	-0.054656	0.8625	0.7125	0.24	0	152	136	3
2026-02-12	15:39:52.390	14.315	-11.725	35.455	-0.758108	-0.708576	-0.027572	0.8625	0.7035	0.234	0	152	136	3
2026-02-12	15:39:52.410	16.415	-12.635	38.535	-0.754204	-0.652944	-0.005124	0.867	0.6945	0.231	0	157	138	3
2026-02-12	15:39:52.430	14.49	-14.245	41.37	-0.786656	-0.56852	0.0183	0.8685	0.693	0.2295	0	157	138	3
2026-02-12	15:39:52.450	7	-17.85	43.015	-0.809836	-0.520452	0.01342	0.873	0.693	0.228	0	157	138	3
2026-02-12	15:39:52.470	-14.105	-24.22	42.105	-0.854732	-0.504348	-0.05002	0.8775	0.6915	0.228	0	157	138	3
2026-02-12	15:39:52.490	-15.33	-28.735	36.26	-0.82838	-0.51972	-0.064172	0.8775	0.6705	0.222	0	157	138	3
2026-02-12	15:39:52.510	-6.65	-27.3	30.87	-0.76128	-0.428952	-0.026596	0.8865	0.6705	0.2175	0	157	138	3
2026-02-12	15:39:52.530	1.435	-20.37	28.315	-0.7442	-0.321104	0.00122	0.885	0.672	0.222	0	157	138	3
2026-02-12	15:39:52.550	5.88	-14.28	24.325	-0.781288	-0.2257	0.021228	0.8835	0.672	0.2175	0	157	138	3
2026-02-12	15:39:52.570	3.01	-10.605	16.555	-0.866688	-0.149572	0.025864	0.8865	0.6675	0.2085	0	157	138	3
2026-02-12	15:39:52.590	-11.97	-6.195	7.875	-0.948184	-0.109312	0.047092	0.891	0.666	0.2055	0	157	138	3
2026-02-12	15:39:52.610	-38.71	0.875	1.085	-1.054568	-0.183732	0.03294	0.891	0.6615	0.2025	0	160	121	3
2026-02-12	15:39:52.630	-66.045	7.07	-4.48	-1.161196	-0.323056	-0.024888	0.8925	0.6615	0.2055	0	160	121	3
2026-02-12	15:39:52.650	-89.04	10.71	-7.07	-1.183888	-0.541192	-0.105164	0.891	0.657	0.213	0	160	121	3
2026-02-12	15:39:52.670	-92.68	11.55	-4.375	-1.067988	-0.695644	-0.182512	0.888	0.6525	0.216	0	160	121	3
2026-02-12	15:39:52.690	-68.32	10.92	-0.91	-0.887672	-0.66246	-0.153476	0.888	0.6525	0.216	0	160	121	3
2026-02-12	15:39:52.710	-49.945	11.935	-0.875	-0.76006	-0.556564	-0.117852	0.885	0.6375	0.219	0	160	121	3
2026-02-12	15:39:52.730	-37.625	13.475	-3.605	-0.67832	-0.4453	-0.111996	0.882	0.6345	0.2175	0	160	121	3
2026-02-12	15:39:52.750	-35.77	13.405	-10.99	-0.63928	-0.400648	-0.133956	0.8865	0.6345	0.2235	0	160	121	3
2026-02-12	15:39:52.770	-37.59	11.55	-18.795	-0.65758	-0.366732	-0.148596	0.891	0.633	0.231	0	160	121	3
2026-02-12	15:39:52.790	-37.94	8.295	-27.405	-0.683444	-0.386252	-0.154452	0.882	0.633	0.2325	0	160	121	3
2026-02-12	15:39:52.810	-37.1	7.245	-34.02	-0.709064	-0.395768	-0.151036	0.876	0.6345	0.234	0	164	104	3
2026-02-12	15:39:52.830	-34.405	11.235	-35.315	-0.760792	-0.400404	-0.146156	0.876	0.6345	0.231	0	164	104	3
2026-02-12	15:39:52.850	-31.605	12.74	-35.105	-0.797636	-0.442616	-0.170556	0.876	0.6345	0.2295	0	164	104	3
2026-02-12	15:39:52.870	-23.73	14.98	-34.72	-0.925004	-0.500688	-0.210084	0.8745	0.636	0.2385	0	164	104	3
2026-02-12	15:39:52.890	-10.92	13.895	-33.88	-0.98942	-0.571204	-0.234484	0.87	0.639	0.246	0	164	104	3
2026-02-12	15:39:52.910	-4.97	14.7	-28.7	-1.015284	-0.582672	-0.281088	0.87	0.639	0.246	0	164	104	3
2026-02-12	15:39:52.930	1.715	15.96	-21.77	-1.058716	-0.576084	-0.3233	0.87	0.6495	0.246	0	164	104	3
2026-02-12	15:39:52.950	5.74	16.415	-17.675	-1.071648	-0.586576	-0.30988	0.867	0.654	0.2475	0	164	104	3
2026-02-12	15:39:52.970	11.585	18.34	-16.765	-1.05652	-0.592676	-0.264984	0.8655	0.6525	0.2475	0	164	104	3
2026-02-12	15:39:52.990	9.45	24.045	-14.84	-1.062376	-0.615124	-0.244976	0.8625	0.6555	0.2535	0	164	104	3
2026-02-12	15:39:53.010	-7.84	27.615	-13.02	-1.006988	-0.708332	-0.253516	0.8625	0.66	0.2565	0	170	109	3
2026-02-12	15:39:53.030	-17.78	28.14	-12.145	-0.947208	-0.829112	-0.302316	0.858	0.6615	0.255	0	170	109	3
2026-02-12	15:39:53.050	-6.825	26.215	-11.13	-0.85278	-0.863272	-0.331352	0.858	0.6615	0.2595	0	170	109	3
2026-02-12	15:39:53.070	11.9	19.11	-12.53	-0.732	-0.79666	-0.371368	0.8595	0.663	0.267	0	170	109	3
2026-02-12	15:39:53.090	26.845	6.055	-14.14	-0.60024	-0.680028	-0.40016	0.8535	0.6645	0.2715	0	170	109	3
2026-02-12	15:39:53.110	39.34	-14.35	-19.04	-0.499956	-0.484828	-0.427976	0.852	0.663	0.273	0	170	109	3
2026-02-12	15:39:53.130	33.95	-26.67	-23.94	-0.511668	-0.410652	-0.426268	0.8475	0.666	0.261	0	170	109	3
2026-02-12	15:39:53.150	15.645	-35.525	-25.445	-0.583892	-0.442372	-0.453108	0.8565	0.6855	0.2565	0	170	109	3
2026-02-12	15:39:53.170	-5.88	-32.375	-20.23	-0.634644	-0.546804	-0.467748	0.8595	0.681	0.252	0	170	109	3
2026-02-12	15:39:53.190	-5.6	-21.21	-16.87	-0.58316	-0.647332	-0.460184	0.858	0.6855	0.2505	0	170	109	3
2026-02-12	15:39:53.210	-0.455	-13.16	-10.57	-0.570228	-0.685884	-0.440664	0.8565	0.6885	0.252	0	178	146	3
2026-02-12	15:39:53.230	-1.015	-3.325	-2.975	-0.5856	-0.818132	-0.398696	0.8565	0.6825	0.249	0	178	146	3
2026-02-12	15:39:53.250	5.635	10.255	8.54	-0.60634	-0.8967	-0.362096	0.8595	0.6825	0.2445	0	178	146	3
2026-02-12	15:39:53.270	21.805	21.665	18.375	-0.609756	-0.884256	-0.364048	0.864	0.6885	0.2475	0	178	146	3
2026-02-12	15:39:53.290	40.775	29.75	23.695	-0.613416	-0.809592	-0.386008	0.8595	0.6885	0.252	0	178	146	3
2026-02-12	15:39:53.310	55.615	31.465	24.745	-0.615124	-0.714188	-0.391132	0.858	0.6855	0.2535	0	178	146	3
2026-02-12	15:39:53.330	58.555	27.44	21.875	-0.622688	-0.627812	-0.36478	0.8595	0.684	0.2505	0	178	146	3
2026-02-12	15:39:53.350	50.82	22.96	16.625	-0.662704	-0.60634	-0.357704	0.8655	0.6945	0.2565	0	178	146	3
2026-02-12	15:39:53.370	44.555	19.46	12.355	-0.67344	-0.635132	-0.354532	0.8505	0.687	0.2565	0	178	146	3
2026-02-12	15:39:53.390	40.39	18.76	11.375	-0.679052	-0.639036	-0.324764	0.852	0.69	0.255	0	178	146	3
2026-02-12	15:39:53.410	36.26	21.21	12.425	-0.713212	-0.6527	-0.293288	0.8505	0.6975	0.2535	0	188	201	3
2026-02-12	15:39:53.430	33.005	25.41	14.525	-0.737612	-0.680028	-0.256688	0.8475	0.6945	0.2565	0	188	201	3
2026-02-12	15:39:53.450	30.73	29.75	17.535	-0.744688	-0.679784	-0.22326	0.849	0.693	0.2595	0	188	201	3
2026-02-12	15:39:53.470	26.985	32.83	21.49	-0.750056	-0.659776	-0.203008	0.849	0.699	0.2595	0	188	201	3
2026-02-12	15:39:53.490	23.625	34.335	24.71	-0.770308	-0.639768	-0.188124	0.843	0.6975	0.2655	0	188	201	3
2026-02-12	15:39:53.510	20.09	33.145	26.635	-0.76616	-0.594384	-0.175192	0.8385	0.696	0.2685	0	188	201	3
2026-02-12	15:39:53.530	11.585	21.735	24.08	-0.7564	-0.504836	-0.169336	0.8385	0.6975	0.27	0	188	201	3
2026-02-12	15:39:53.550	2.52	10.57	21.42	-0.772992	-0.441396	-0.153232	0.8475	0.6855	0.2685	0	188	201	3
2026-02-12	15:39:53.570	-9.52	-5.88	17.43	-0.765916	-0.410896	-0.170068	0.843	0.6885	0.27	0	188	201	3
2026-02-12	15:39:53.590	-21.84	-23.45	15.925	-0.74298	-0.439444	-0.197152	0.837	0.684	0.27	0	188	201	3
2026-02-12	15:39:51.610	15.05	7.77	-27.475	-1.052616	-0.458476	-0.16592	0.858	0.6585	0.264	0	121	55	3
2026-02-12	15:39:51.630	13.125	6.405	-26.145	-1.114104	-0.460916	-0.165432	0.858	0.6585	0.264	0	121	55	3
2026-02-12	15:39:51.650	3.92	4.2	-24.64	-1.157048	-0.581696	-0.185196	0.8625	0.684	0.2685	0	121	55	3
2026-02-12	15:39:51.670	4.2	2.275	-25.725	-1.055056	-0.64416	-0.138592	0.8595	0.681	0.2655	0	121	55	3
2026-02-12	15:39:51.690	10.465	4.515	-25.795	-0.945988	-0.695888	-0.164456	0.8565	0.678	0.2625	0	121	55	3
2026-02-12	15:39:51.710	18.41	-0.91	-24.675	-0.819596	-0.721996	-0.260104	0.8535	0.681	0.261	0	121	55	3
2026-02-12	15:39:51.730	28.77	-13.055	-23.065	-0.710284	-0.71614	-0.316224	0.8505	0.684	0.261	0	121	55	3
2026-02-12	15:39:51.750	38.115	-30.03	-23.345	-0.613172	-0.664656	-0.29402	0.852	0.6855	0.264	0	121	55	3
2026-02-12	15:39:51.770	33.95	-44.31	-26.46	-0.583404	-0.57584	-0.228384	0.8535	0.6915	0.264	0	121	55	3
2026-02-12	15:39:51.790	10.885	-53.48	-29.155	-0.588528	-0.546072	-0.196908	0.855	0.6975	0.2595	0	121	55	3
2026-02-12	15:39:51.810	-22.05	-50.505	-28.91	-0.617808	-0.56852	-0.186416	0.861	0.7035	0.2475	0	131	81	3
2026-02-12	15:39:51.830	-45.675	-25.06	-31.36	-0.62708	-0.767136	-0.245952	0.867	0.7035	0.24	0	131	81	3
2026-02-12	15:39:51.850	-31.57	-17.08	-30.765	-0.630984	-0.792024	-0.252052	0.8625	0.705	0.237	0	131	81	3
2026-02-12	15:39:51.870	-14.49	-9.485	-26.88	-0.630984	-0.771284	-0.282552	0.867	0.705	0.2415	0	131	81	3
2026-02-12	15:39:51.890	-1.225	-4.69	-23.03	-0.61366	-0.79178	-0.261324	0.864	0.7065	0.24	0	131	81	3
2026-02-12	15:39:51.910	10.15	1.19	-15.785	-0.632448	-0.75884	-0.232532	0.861	0.711	0.237	0	131	81	3
2026-02-12	15:39:51.930	18.13	4.55	-10.395	-0.608292	-0.710284	-0.188368	0.8655	0.717	0.2355	0	131	81	3
2026-02-12	15:39:51.950	19.53	8.4	-7.665	-0.616588	-0.677344	-0.156404	0.864	0.717	0.237	0	131	81	3
2026-02-12	15:39:51.970	14.21	11.305	-6.615	-0.63196	-0.687104	-0.145668	0.8565	0.717	0.24	0	131	81	3
2026-02-12	15:39:51.990	9.275	13.37	-6.195	-0.626348	-0.726388	-0.148596	0.8565	0.7215	0.234	0	131	81	3
2026-02-12	15:39:54.010	-85.155	-46.13	-46.48	-0.927688	-0.457012	-0.22814	0.8985	0.6135	0.1845	0	204	230	3
2026-02-12	15:39:54.030	-69.02	-42.84	-40.46	-0.898164	-0.472872	-0.231312	0.9075	0.621	0.1785	0	204	230	3
2026-02-12	15:39:54.050	-49.105	-38.395	-33.11	-0.899628	-0.444568	-0.220088	0.909	0.6195	0.1755	0	204	230	3
2026-02-12	15:39:54.070	-36.365	-35.56	-27.265	-0.889136	-0.33916	-0.198372	0.9135	0.621	0.1695	0	204	230	3
2026-02-12	15:39:54.090	-36.47	-33.285	-24.115	-0.852048	-0.286212	-0.183976	0.9075	0.624	0.168	0	204	230	3
2026-02-12	15:39:54.110	-41.86	-30.59	-22.575	-0.84546	-0.260348	-0.188856	0.9075	0.624	0.1665	0	204	230	3
2026-02-12	15:39:54.130	-51.835	-29.12	-22.085	-0.86864	-0.238388	-0.22326	0.9135	0.6285	0.1635	0	204	230	3
2026-02-12	15:39:54.150	-63.7	-31.29	-23.94	-0.914024	-0.274256	-0.263032	0.9135	0.627	0.1605	0	204	230	3
2026-02-12	15:39:54.170	-81.375	-39.445	-28.945	-0.970388	-0.397476	-0.28914	0.9135	0.6225	0.159	0	204	230	3
2026-02-12	15:39:54.190	-84.805	-45.15	-30.66	-0.98088	-0.528992	-0.273524	0.9135	0.6225	0.159	0	204	230	3
2026-02-12	15:39:52.210	-7.175	-3.92	5.635	-0.704672	-0.658068	-0.095404	0.846	0.7245	0.246	0	152	136	3
2026-02-12	15:39:52.230	-8.33	-6.895	9.1	-0.728828	-0.66612	-0.098088	0.846	0.7185	0.249	0	152	136	3
2026-02-12	15:39:52.250	-9.835	-13.615	12.915	-0.743224	-0.70272	-0.098088	0.8445	0.72	0.252	0	152	136	3
2026-02-12	15:39:52.270	-10.115	-17.36	15.225	-0.721996	-0.732976	-0.104676	0.8445	0.72	0.252	0	152	136	3
2026-02-12	15:39:52.290	-7.595	-19.11	18.34	-0.707356	-0.743712	-0.10004	0.843	0.717	0.243	0	152	136	3
2026-02-12	15:39:52.310	-5.18	-18.69	21.77	-0.708332	-0.737124	-0.094184	0.8475	0.717	0.246	0	152	136	3
2026-02-12	15:39:52.330	-1.05	-17.465	24.43	-0.716872	-0.748104	-0.088328	0.855	0.7185	0.2475	0	152	136	3
2026-02-12	15:39:52.350	3.745	-15.645	27.72	-0.719556	-0.766404	-0.081252	0.861	0.717	0.243	0	152	136	3
2026-02-12	15:39:52.370	9.415	-13.09	31.78	-0.736636	-0.749324	-0.054656	0.8625	0.7125	0.24	0	152	136	3
2026-02-12	15:39:52.390	14.315	-11.725	35.455	-0.758108	-0.708576	-0.027572	0.8625	0.7035	0.234	0	152	136	3
2026-02-12	15:39:52.410	16.415	-12.635	38.535	-0.754204	-0.652944	-0.005124	0.867	0.6945	0.231	0	157	138	3
2026-02-12	15:39:52.430	14.49	-14.245	41.37	-0.786656	-0.56852	0.0183	0.8685	0.693	0.2295	0	157	138	3
2026-02-12	15:39:52.450	7	-17.85	43.015	-0.809836	-0.520452	0.01342	0.873	0.693	0.228	0	157	138	3
2026-02-12	15:39:52.470	-14.105	-24.22	42.105	-0.854732	-0.504348	-0.05002	0.8775	0.6915	0.228	0	157	138	3
2026-02-12	15:39:52.490	-15.33	-28.735	36.26	-0.82838	-0.51972	-0.064172	0.8775	0.6705	0.222	0	157	138	3
2026-02-12	15:39:52.510	-6.65	-27.3	30.87	-0.76128	-0.428952	-0.026596	0.8865	0.6705	0.2175	0	157	138	3
2026-02-12	15:39:52.530	1.435	-20.37	28.315	-0.7442	-0.321104	0.00122	0.885	0.672	0.222	0	157	138	3
2026-02-12	15:39:52.550	5.88	-14.28	24.325	-0.781288	-0.2257	0.021228	0.8835	0.672	0.2175	0	157	138	3
2026-02-12	15:39:52.570	3.01	-10.605	16.555	-0.866688	-0.149572	0.025864	0.8865	0.6675	0.2085	0	157	138	3
2026-02-12	15:39:52.590	-11.97	-6.195	7.875	-0.948184	-0.109312	0.047092	0.891	0.666	0.2055	0	157	138	3
2026-02-12	15:39:52.610	-38.71	0.875	1.085	-1.054568	-0.183732	0.03294	0.891	0.6615	0.2025	0	160	121	3
2026-02-12	15:39:52.630	-66.045	7.07	-4.48	-1.161196	-0.323056	-0.024888	0.8925	0.6615	0.2055	0	160	121	3
2026-02-12	15:39:52.650	-89.04	10.71	-7.07	-1.183888	-0.541192	-0.105164	0.891	0.657	0.213	0	160	121	3
2026-02-12	15:39:52.670	-92.68	11.55	-4.375	-1.067988	-0.695644	-0.182512	0.888	0.6525	0.216	0	160	121	3
2026-02-12	15:39:52.690	-68.32	10.92	-0.91	-0.887672	-0.66246	-0.153476	0.888	0.6525	0.216	0	160	121	3
2026-02-12	15:39:52.710	-49.945	11.935	-0.875	-0.76006	-0.556564	-0.117852	0.885	0.6375	0.219	0	160	121	3
2026-02-12	15:39:52.730	-37.625	13.475	-3.605	-0.67832	-0.4453	-0.111996	0.882	0.6345	0.2175	0	160	121	3
2026-02-12	15:39:52.750	-35.77	13.405	-10.99	-0.63928	-0.400648	-0.133956	0.8865	0.6345	0.2235	0	160	121	3
2026-02-12	15:39:52.770	-37.59	11.55	-18.795	-0.65758	-0.366732	-0.148596	0.891	0.633	0.231	0	160	121	3
2026-02-12	15:39:52.790	-37.94	8.295	-27.405	-0.683444	-0.386252	-0.154452	0.882	0.633	0.2325	0	160	121	3
2026-02-12	15:39:52.810	-37.1	7.245	-34.02	-0.709064	-0.395768	-0.151036	0.876	0.6345	0.234	0	164	104	3
2026-02-12	15:39:52.830	-34.405	11.235	-35.315	-0.760792	-0.400404	-0.146156	0.876	0.6345	0.231	0	164	104	3
2026-02-12	15:39:52.850	-31.605	12.74	-35.105	-0.797636	-0.442616	-0.170556	0.876	0.6345	0.2295	0	164	104	3
2026-02-12	15:39:52.870	-23.73	14.98	-34.72	-0.925004	-0.500688	-0.210084	0.8745	0.636	0.2385	0	164	104	3
2026-02-12	15:39:52.890	-10.92	13.895	-33.88	-0.98942	-0.571204	-0.234484	0.87	0.639	0.246	0	164	104	3
2026-02-12	15:39:52.910	-4.97	14.7	-28.7	-1.015284	-0.582672	-0.281088	0.87	0.639	0.246	0	164	104	3
2026-02-12	15:39:52.930	1.715	15.96	-21.77	-1.058716	-0.576084	-0.3233	0.87	0.6495	0.246	0	164	104	3
2026-02-12	15:39:52.950	5.74	16.415	-17.675	-1.071648	-0.586576	-0.30988	0.867	0.654	0.2475	0	164	104	3
2026-02-12	15:39:52.970	11.585	18.34	-16.765	-1.05652	-0.592676	-0.264984	0.8655	0.6525	0.2475	0	164	104	3
2026-02-12	15:39:52.990	9.45	24.045	-14.84	-1.062376	-0.615124	-0.244976	0.8625	0.6555	0.2535	0	164	104	3
2026-02-12	15:39:53.010	-7.84	27.615	-13.02	-1.006988	-0.708332	-0.253516	0.8625	0.66	0.2565	0	170	109	3
2026-02-12	15:39:53.030	-17.78	28.14	-12.145	-0.947208	-0.829112	-0.302316	0.858	0.6615	0.255	0	170	109	3
2026-02-12	15:39:53.050	-6.825	26.215	-11.13	-0.85278	-0.863272	-0.331352	0.858	0.6615	0.2595	0	170	109	3
2026-02-12	15:39:53.070	11.9	19.11	-12.53	-0.732	-0.79666	-0.371368	0.8595	0.663	0.267	0	170	109	3
2026-02-12	15:39:53.090	26.845	6.055	-14.14	-0.60024	-0.680028	-0.40016	0.8535	0.6645	0.2715	0	170	109	3
2026-02-12	15:39:53.110	39.34	-14.35	-19.04	-0.499956	-0.484828	-0.427976	0.852	0.663	0.273	0	170	109	3
2026-02-12	15:39:53.130	33.95	-26.67	-23.94	-0.511668	-0.410652	-0.426268	0.8475	0.666	0.261	0	170	109	3
2026-02-12	15:39:53.150	15.645	-35.525	-25.445	-0.583892	-0.442372	-0.453108	0.8565	0.6855	0.2565	0	170	109	3
2026-02-12	15:39:53.170	-5.88	-32.375	-20.23	-0.634644	-0.546804	-0.467748	0.8595	0.681	0.252	0	170	109	3
2026-02-12	15:39:53.190	-5.6	-21.21	-16.87	-0.58316	-0.647332	-0.460184	0.858	0.6855	0.2505	0	170	109	3
2026-02-12	15:40:03.210	6.23	-57.085	40.53	-1.224636	-0.150304	-0.184708	0.867	0.723	0.21	0	364	119	3
2026-02-12	15:40:03.230	-12.25	-78.015	31.78	-1.885632	-0.298656	-0.157868	0.8715	0.711	0.198	0	364	119	3
2026-02-12	15:40:03.250	-17.325	-72.205	5.67	-1.179008	-0.636108	0.155916	0.8895	0.711	0.189	0	364	119	3
2026-02-12	15:40:03.270	-10.78	-22.47	11.235	-1.258308	-0.537044	0.22448	0.8925	0.7095	0.186	0	364	119	3
2026-02-12	15:40:03.290	-35.735	6.79	23.17	-1.160952	-0.572424	0.064416	0.9	0.705	0.1785	0	364	119	3
2026-02-12	15:40:03.310	-52.29	16.31	29.785	-1.073356	-0.816668	-0.043188	0.8865	0.7005	0.18	0	364	119	3
2026-02-12	15:40:03.330	-13.02	15.995	27.93	-0.877668	-0.648064	0.070516	0.8895	0.693	0.1845	0	364	119	3
2026-02-12	15:40:03.350	12.25	17.325	23.625	-0.700524	-0.382592	0.148108	0.8895	0.693	0.1845	0	364	119	3
2026-02-12	15:40:03.370	-1.26	13.545	12.425	-0.65026	-0.28182	0.10126	0.8955	0.6885	0.1935	0	364	119	3
2026-02-12	15:40:03.390	-21.875	3.465	-2.345	-0.594384	-0.299632	0.019276	0.8865	0.6825	0.1935	0	364	119	3
2026-02-12	15:40:03.410	-33.285	-8.575	-17.675	-0.59536	-0.334768	-0.040504	0.8985	0.681	0.1905	0	345	88	3
2026-02-12	15:40:03.430	-38.815	-16.485	-30.38	-0.635376	-0.363804	-0.077836	0.8835	0.6855	0.1935	0	345	88	3
2026-02-12	15:40:03.450	-43.54	-18.48	-40.81	-0.697108	-0.3477	-0.091012	0.8925	0.684	0.1935	0	345	88	3
2026-02-12	15:40:03.470	-46.41	-18.2	-48.79	-0.763232	-0.404796	-0.083692	0.882	0.6915	0.1875	0	345	88	3
2026-02-12	15:40:03.490	-45.815	-17.815	-54.6	-0.77958	-0.463356	-0.063928	0.8895	0.696	0.189	0	345	88	3
2026-02-12	15:40:03.510	-38.885	-9.45	-56.665	-0.820328	-0.477264	-0.033428	0.8895	0.6915	0.186	0	345	88	3
2026-02-12	15:40:03.530	-29.54	-3.71	-57.12	-0.85278	-0.520452	-0.021228	0.8895	0.6945	0.1905	0	345	88	3
2026-02-12	15:40:03.550	-21.875	-0.14	-49.875	-0.896456	-0.576328	-0.0244	0.885	0.7035	0.186	0	345	88	3
2026-02-12	15:40:03.570	-15.68	3.255	-42.07	-0.916708	-0.620492	0.00732	0.8745	0.7065	0.1905	0	345	88	3
2026-02-12	15:40:03.590	-1.33	8.33	-34.44	-0.92842	-0.589992	0.064172	0.87	0.714	0.192	0	345	88	3
2026-02-12	15:40:03.610	2.59	14.875	-26.565	-0.922564	-0.505812	0.063928	0.8745	0.7245	0.1935	0	331	61	2
2026-02-12	15:40:03.630	-3.78	23.065	-19.985	-0.912072	-0.506788	0.026108	0.873	0.726	0.195	0	331	61	2
2026-02-12	15:40:03.650	-7.735	28.245	-15.295	-0.935252	-0.537044	-0.005368	0.879	0.7245	0.201	0	331	61	2
2026-02-12	15:40:03.670	-10.57	30.555	-10.955	-0.988444	-0.599752	-0.012932	0.873	0.726	0.195	0	331	61	2
2026-02-12	15:40:03.690	-12.075	30.975	-7.175	-0.976732	-0.705892	0.043432	0.8745	0.7395	0.201	0	331	61	2
2026-02-12	15:40:03.710	-11.165	30.66	-4.515	-0.981856	-0.756156	0.10248	0.864	0.729	0.2025	0	331	61	2
2026-02-12	15:40:03.730	-16.205	30.8	-3.57	-0.954528	-0.801784	0.112972	0.867	0.732	0.2205	0	331	61	2
2026-02-12	15:40:03.750	-19.705	31.01	-7.07	-0.835456	-0.826184	0.030256	0.8625	0.735	0.219	0	331	61	2
2026-02-12	15:40:03.770	-24.43	33.705	-13.09	-0.732732	-0.783972	-0.1159	0.858	0.726	0.2265	0	331	61	2
2026-02-12	15:40:03.790	-21.385	33.495	-17.115	-0.641476	-0.756888	-0.252784	0.855	0.7305	0.2295	0	331	61	2
2026-02-12	15:40:03.810	-5.53	24.78	-20.37	-0.526064	-0.6954	-0.32208	0.852	0.7395	0.237	0	319	44	3
2026-02-12	15:40:03.830	8.89	13.615	-24.01	-0.460428	-0.613172	-0.324764	0.8565	0.7305	0.2295	0	319	44	3
2026-02-12	15:40:03.850	10.955	8.995	-26.39	-0.485316	-0.566324	-0.331108	0.8415	0.7365	0.237	0	319	44	3
2026-02-12	15:40:03.870	8.47	6.195	-27.125	-0.542168	-0.575108	-0.342088	0.849	0.7365	0.237	0	319	44	3
2026-02-12	15:40:03.890	5.355	9.1	-24.675	-0.604632	-0.549244	-0.327936	0.8415	0.7275	0.24	0	319	44	3
2026-02-12	15:40:03.910	-3.57	16.45	-20.895	-0.65514	-0.612928	-0.297192	0.8295	0.741	0.2325	0	319	44	3
2026-02-12	15:40:03.930	-9.065	24.85	-14.665	-0.679296	-0.724192	-0.234728	0.831	0.753	0.243	0	319	44	3
2026-02-12	15:40:03.950	-4.095	34.825	-6.02	-0.70028	-0.880352	-0.16104	0.831	0.7515	0.2535	0	319	44	3
2026-02-12	15:40:03.970	13.545	44.555	7.98	-0.723948	-0.962824	-0.145912	0.837	0.741	0.2535	0	319	44	3
2026-02-12	15:40:03.990	34.16	45.745	16.415	-0.724924	-0.95404	-0.176412	0.8295	0.75	0.258	0	319	44	3
2026-02-12	15:40:04.010	40.88	45.57	20.475	-0.73688	-0.904996	-0.20862	0.828	0.7485	0.2595	0	310	58	3
2026-02-12	15:40:04.030	64.295	35.49	17.815	-0.659288	-0.796172	-0.243024	0.828	0.7545	0.261	0	310	58	3
2026-02-12	15:40:04.050	59.57	27.23	14.105	-0.683688	-0.628544	-0.263764	0.8205	0.75	0.2655	0	310	58	3
2026-02-12	15:40:04.070	41.265	18.2	10.99	-0.69784	-0.647088	-0.299144	0.8205	0.7545	0.255	0	310	58	3
2026-02-12	15:40:04.090	35.595	9.555	6.93	-0.707112	-0.666364	-0.304512	0.819	0.7575	0.2625	0	310	58	3
2026-02-12	15:40:04.110	35.805	4.97	3.99	-0.670512	-0.604144	-0.236924	0.8265	0.756	0.2565	0	310	58	3
2026-02-12	15:40:04.130	26.215	7.21	3.15	-0.679784	-0.625616	-0.176168	0.8115	0.7605	0.252	0	310	58	3
2026-02-12	15:40:04.150	17.01	12.355	4.935	-0.677832	-0.718092	-0.137372	0.8205	0.759	0.2565	0	310	58	3
2026-02-12	15:40:04.170	15.47	19.495	9.87	-0.655628	-0.773968	-0.101992	0.8175	0.765	0.252	0	310	58	3
2026-02-12	15:40:04.190	28.49	28.49	21.525	-0.6588	-0.801784	-0.07442	0.813	0.7635	0.2535	0	310	58	3
2026-02-12	15:40:04.210	38.01	31.71	28.525	-0.671732	-0.756644	-0.057096	0.8235	0.7605	0.255	0	302	90	3
2026-02-12	15:40:04.230	47.11	32.27	31.535	-0.689056	-0.726388	-0.029768	0.8205	0.765	0.261	0	302	90	3
2026-02-12	15:40:04.250	51.905	33.285	32.725	-0.733708	-0.72956	-0.017812	0.8175	0.7605	0.255	0	302	90	3
2026-02-12	15:40:04.270	46.97	32.06	34.93	-0.760792	-0.729072	-0.021472	0.8205	0.7635	0.258	0	302	90	3
2026-02-12	15:40:04.290	43.085	29.855	37.485	-0.79056	-0.735172	-0.000976	0.8145	0.7725	0.252	0	302	90	3
2026-02-12	15:40:04.310	40.915	25.935	39.13	-0.757132	-0.696132	-0.00366	0.8145	0.756	0.249	0	302	90	3
2026-02-12	15:40:04.330	42.28	22.645	40.495	-0.770796	-0.647332	0.00366	0.819	0.759	0.2565	0	302	90	3
2026-02-12	15:40:04.350	37.975	17.01	41.965	-0.715408	-0.566324	0.012688	0.816	0.7635	0.258	0	302	90	3
2026-02-12	15:40:04.370	32.13	12.565	42.525	-0.671244	-0.476776	0.010736	0.822	0.756	0.2625	0	302	90	3
2026-02-12	15:40:04.390	30.24	4.305	39.48	-0.60512	-0.377468	0.017324	0.822	0.7515	0.2595	0	302	90	3
2026-02-12	15:40:04.410	23.59	-7.77	34.125	-0.532408	-0.29524	-0.015616	0.8205	0.7545	0.2505	0	292	106	3
2026-02-12	15:40:04.430	18.585	-17.465	29.925	-0.500444	-0.30866	-0.024156	0.8175	0.7455	0.2475	0	292	106	3
2026-02-12	15:40:04.450	18.165	-27.02	25.165	-0.564372	-0.183	-0.019276	0.8295	0.7425	0.2475	0	292	106	3
2026-02-12	15:40:04.470	-6.825	-34.23	17.5	-0.91744	-0.05612	-0.105896	0.825	0.7365	0.237	0	292	106	3
2026-02-12	15:40:04.490	-51.03	-30.835	9.205	-1.40788	-0.293044	-0.189344	0.84	0.741	0.2325	0	292	106	3
2026-02-12	15:40:04.510	-55.16	-28.875	-3.885	-1.382992	-0.617564	-0.180804	0.843	0.7395	0.2415	0	292	106	3
2026-02-12	15:40:04.530	-18.41	-17.78	-9.1	-1.34078	-0.558272	-0.078568	0.8415	0.7305	0.2385	0	292	106	3
2026-02-12	15:40:04.550	-29.855	-2.415	-0.77	-1.324188	-0.519476	-0.209108	0.84	0.744	0.249	0	292	106	3
2026-02-12	15:40:04.570	-62.895	6.965	8.47	-1.21268	-0.712724	-0.23424	0.84	0.7335	0.2415	0	292	106	3
2026-02-12	15:40:04.590	-44.415	10.01	15.75	-0.991128	-0.808128	-0.083448	0.84	0.726	0.246	0	292	106	3
2026-02-12	15:40:04.610	13.475	21.07	24.22	-0.719068	-0.625616	0.12322	0.8445	0.7215	0.2475	0	286	104	3
2026-02-12	15:40:04.630	27.475	28.385	25.305	-0.613904	-0.426756	0.12566	0.8505	0.717	0.249	0	286	104	3
2026-02-12	15:40:04.650	19.005	30.8	17.535	-0.594384	-0.293044	0.040016	0.837	0.7185	0.2505	0	286	104	3
2026-02-12	15:40:04.670	1.89	25.095	2.17	-0.60512	-0.235216	-0.062708	0.8505	0.708	0.2475	0	286	104	3
2026-02-12	15:40:04.690	-17.08	17.78	-14.35	-0.658068	-0.25376	-0.13908	0.846	0.7125	0.264	0	286	104	3
2026-02-12	15:40:04.710	-27.965	8.82	-28.63	-0.716872	-0.276452	-0.18422	0.8385	0.711	0.252	0	286	104	3
2026-02-12	15:40:04.730	-35.56	0.42	-39.585	-0.764696	-0.297924	-0.18788	0.837	0.7185	0.267	0	286	104	3
2026-02-12	15:40:04.750	-42.665	-6.23	-47.565	-0.823256	-0.326228	-0.201056	0.834	0.711	0.261	0	286	104	3
2026-02-12	15:40:04.770	-47.425	-9.975	-51.52	-0.8601	-0.381616	-0.219112	0.831	0.72	0.2655	0	286	104	3
2026-02-12	15:40:04.790	-49.07	-10.43	-50.61	-0.88328	-0.434808	-0.210572	0.822	0.7245	0.264	0	286	104	3
2026-02-12	15:40:04.810	-50.925	-8.505	-46.69	-0.9394	-0.468236	-0.208864	0.822	0.7335	0.264	0	285	99	3
2026-02-12	15:40:04.830	-55.895	-4.27	-37.66	-0.998448	-0.578036	-0.231556	0.825	0.729	0.264	0	285	99	3
2026-02-12	15:40:04.850	-46.9	-0.49	-31.115	-0.974536	-0.651968	-0.223016	0.822	0.729	0.282	0	285	99	3
2026-02-12	15:40:04.870	-30.835	5.775	-21.945	-0.9516	-0.650748	-0.1708	0.816	0.7185	0.2715	0	285	99	3
2026-02-12	15:40:04.890	-19.67	11.27	-13.23	-0.90036	-0.645868	-0.1159	0.816	0.72	0.2715	0	285	99	3
2026-02-12	15:40:04.910	-3.5	16.38	-7.385	-0.847656	-0.664168	-0.100528	0.813	0.7215	0.273	0	285	99	3
2026-02-12	15:40:04.930	13.965	19.88	-4.27	-0.8479	-0.630496	-0.10736	0.8115	0.735	0.2745	0	285	99	3
2026-02-12	15:40:04.950	15.33	21.91	-3.955	-0.93818	-0.584868	-0.115168	0.8175	0.7215	0.2805	0	285	99	3
2026-02-12	15:40:04.970	0.14	21.735	-6.37	-1.02114	-0.69052	-0.180804	0.816	0.723	0.2865	0	285	99	3
2026-02-12	15:40:04.990	-2.975	18.2	-9.94	-1.021384	-0.787876	-0.264008	0.81	0.7275	0.279	0	285	99	3
2026-02-12	15:40:05.010	0.945	15.19	-14.035	-0.9638	-0.761768	-0.318908	0.801	0.7185	0.285	0	285	108	3
2026-02-12	15:40:05.030	-2.87	8.015	-20.37	-0.808372	-0.739076	-0.364536	0.807	0.732	0.285	0	285	108	3
2026-02-12	15:40:05.050	3.185	-0.455	-25.235	-0.633424	-0.733708	-0.372344	0.807	0.732	0.285	0	285	108	3
2026-02-12	15:40:05.070	16.1	-4.48	-25.375	-0.542412	-0.643428	-0.325008	0.807	0.732	0.285	0	285	108	3
2026-02-12	15:40:05.090	20.895	-7.07	-26.915	-0.485072	-0.59414	-0.290604	0.798	0.732	0.285	0	285	108	3
2026-02-12	15:40:05.110	18.41	-6.93	-28.84	-0.478728	-0.58072	-0.303536	0.7995	0.7425	0.2805	0	285	108	3
2026-02-12	15:40:05.130	13.265	-3.92	-28.385	-0.512644	-0.610732	-0.310856	0.7965	0.741	0.2835	0	285	108	3
2026-02-12	15:40:05.150	8.715	2.1	-24.57	-0.571936	-0.620004	-0.291824	0.8025	0.7485	0.2745	0	285	108	3
2026-02-12	15:40:05.170	5.11	8.505	-21.175	-0.627812	-0.681492	-0.27938	0.798	0.753	0.279	0	285	108	3
2026-02-12	15:40:05.190	2.8	17.535	-17.15	-0.667828	-0.76128	-0.275476	0.801	0.7575	0.282	0	285	108	3
2026-02-12	15:40:05.210	6.825	25.725	-11.165	-0.631472	-0.848632	-0.283528	0.798	0.7545	0.2865	0	284	135	3
2026-02-12	15:40:05.230	18.27	33.705	-1.47	-0.623176	-0.886696	-0.293776	0.795	0.759	0.2775	0	284	135	3
2026-02-12	15:40:05.250	30.8	36.785	7.875	-0.619272	-0.848388	-0.310612	0.7905	0.759	0.2775	0	284	135	3
2026-02-12	15:40:05.270	40.32	35.805	11.515	-0.631716	-0.794952	-0.349164	0.789	0.7605	0.285	0	284	135	3
2026-02-12	15:40:05.290	45.955	31.255	11.83	-0.627812	-0.715896	-0.321348	0.789	0.762	0.2925	0	284	135	3
2026-02-12	15:40:05.310	39.655	25.76	8.155	-0.62708	-0.726388	-0.3111	0.786	0.7575	0.291	0	284	135	3
2026-02-12	15:40:05.330	35.105	21.56	5.95	-0.631472	-0.73688	-0.301828	0.7755	0.762	0.291	0	284	135	3
2026-02-12	15:40:05.350	36.645	18.235	5.145	-0.650992	-0.735416	-0.291092	0.7815	0.765	0.279	0	284	135	3
2026-02-12	15:40:05.370	39.2	17.325	4.62	-0.671488	-0.788852	-0.26596	0.7725	0.7725	0.285	0	284	135	3
2026-02-12	15:40:05.390	44.1	17.815	7.455	-0.66856	-0.850828	-0.235216	0.78	0.771	0.282	0	284	135	3
2026-02-12	15:40:05.410	47.18	16.205	12.845	-0.649772	-0.84668	-0.214476	0.774	0.777	0.2835	0	282	172	3
2026-02-12	15:40:05.430	59.85	15.82	17.57	-0.668316	-0.874496	-0.183	0.771	0.78	0.2775	0	282	172	3
2026-02-12	15:40:05.450	81.795	13.79	20.02	-0.681248	-0.842776	-0.124196	0.777	0.7815	0.273	0	282	172	3
2026-02-12	15:40:05.470	112.945	8.33	24.5	-0.711016	-0.810812	-0.099796	0.777	0.7815	0.273	0	282	172	3
2026-02-12	15:40:05.490	119.105	0.98	28.91	-0.685152	-0.719312	-0.05246	0.777	0.7905	0.261	0	282	172	3
2026-02-12	15:40:05.510	124.6	-1.295	28.945	-0.69906	-0.674416	0.004392	0.7785	0.7995	0.2505	0	282	172	3
2026-02-12	15:40:05.530	132.51	-2.73	30.275	-0.651236	-0.66124	0.041236	0.7815	0.795	0.252	0	282	172	3
2026-02-12	15:40:05.550	144.305	0.84	33.425	-0.757376	-0.570472	0.02074	0.783	0.81	0.2325	0	282	172	3
2026-02-12	15:40:05.570	115.465	-10.43	40.495	-0.695644	-0.571448	0.065636	0.7905	0.813	0.2325	0	282	172	3
2026-02-12	15:40:05.590	87.92	-15.47	46.235	-0.695644	-0.367952	0.038064	0.7905	0.813	0.2175	0	282	172	3
2026-02-12	15:40:05.610	49.77	-20.055	48.58	-0.624884	-0.32574	0.080032	0.8025	0.822	0.204	0	278	185	3
2026-02-12	15:40:05.630	26.775	-17.885	51.555	-0.546804	-0.282308	0.122732	0.801	0.81	0.201	0	278	185	3
2026-02-12	15:40:05.650	10.045	-17.675	50.785	-0.48434	-0.210084	0.168116	0.813	0.8085	0.2025	0	278	185	3
2026-02-12	15:40:05.670	-14.84	-23.135	48.195	-0.566812	-0.137616	0.092964	0.81	0.81	0.189	0	278	185	3
2026-02-12	15:40:05.690	-36.82	-29.015	39.375	-0.736148	-0.07124799	0.002928	0.81	0.81	0.189	0	278	185	3
2026-02-12	15:40:05.710	-62.895	-24.92	22.61	-1.105564	0.030744	-0.012932	0.8175	0.795	0.192	0	278	185	3
2026-02-12	15:40:05.730	-98.49	-20.86	4.97	-1.444236	-0.260348	-0.114192	0.8265	0.78	0.195	0	278	185	3
2026-02-12	15:40:05.750	-107.555	-21.35	-8.785	-1.353224	-0.517524	-0.141032	0.8325	0.7725	0.1935	0	278	185	3
2026-02-12	15:40:05.770	-101.92	-20.16	-11.9	-1.378112	-0.649772	-0.174704	0.8295	0.768	0.195	0	278	185	3
2026-02-12	15:40:05.790	-102.865	-14.28	-4.725	-1.528904	-0.726876	-0.17812	0.837	0.762	0.2055	0	278	185	3
2026-02-12	15:40:05.810	-121.24	-12.25	5.425	-1.398608	-0.9699	-0.145912	0.8325	0.7605	0.207	0	278	163	3
2026-02-12	15:40:05.830	-109.13	-18.55	19.95	-1.032852	-1.026264	0.09028	0.8355	0.753	0.2145	0	278	163	3
2026-02-12	15:40:05.850	-63.175	-20.895	24.85	-0.655628	-0.76616	0.277428	0.837	0.756	0.2235	0	278	163	3
2026-02-12	15:40:05.870	-35.735	-7.49	24.99	-0.575108	-0.50142	0.140788	0.84	0.735	0.228	0	278	163	3
2026-02-12	15:40:05.890	-23.975	-6.93	17.92	-0.591212	-0.396988	-0.063196	0.846	0.729	0.2205	0	278	163	3
2026-02-12	15:40:05.910	-13.86	-23.66	4.165	-0.599996	-0.333304	-0.142008	0.843	0.729	0.219	0	278	163	3
2026-02-12	15:40:05.930	-13.58	-33.005	-6.825	-0.645136	-0.212524	-0.117364	0.8445	0.7245	0.2145	0	278	163	3
2026-02-12	15:40:05.950	-26.005	-33.845	-16.765	-0.737612	-0.214964	-0.155428	0.8475	0.7215	0.21	0	278	163	3
2026-02-12	15:40:05.970	-46.585	-32.515	-28.14	-0.806176	-0.270108	-0.13908	0.852	0.723	0.2115	0	278	163	3
2026-02-12	15:40:05.990	-61.285	-29.995	-37.625	-0.86864	-0.3965	-0.12566	0.846	0.7215	0.2115	0	278	163	3
2026-02-12	15:40:06.010	-62.965	-21.63	-43.61	-0.946232	-0.642452	-0.084424	0.846	0.7215	0.2115	0	285	130	3
2026-02-12	15:40:06.030	-59.57	-17.885	-40.67	-0.923052	-0.75518	-0.055144	0.8505	0.7245	0.21	0	285	130	3
2026-02-12	15:40:06.050	-47.11	-6.755	-27.825	-0.938424	-0.723704	-0.012688	0.8415	0.723	0.21	0	285	130	3
2026-02-12	15:40:06.070	-28.245	-0.315	-21.175	-0.945256	-0.631716	-0.034892	0.846	0.7245	0.21	0	285	130	3
2026-02-12	15:40:06.090	-13.86	-2.205	-19.74	-0.946476	-0.570716	-0.054656	0.8385	0.7305	0.2175	0	285	130	3
2026-02-12	15:40:06.110	-5.915	-5.95	-19.88	-0.84058	-0.482632	-0.019032	0.8445	0.729	0.213	0	285	130	3
2026-02-12	15:40:06.130	-8.645	-2.695	-18.9	-0.842288	-0.441152	-0.053924	0.8415	0.7275	0.21	0	285	130	3
2026-02-12	15:40:06.150	-17.36	-3.15	-18.9	-0.893284	-0.504592	-0.113216	0.8445	0.729	0.213	0	285	130	3
2026-02-12	15:40:06.170	-21.91	-8.435	-18.725	-0.889624	-0.612928	-0.10004	0.849	0.7335	0.2205	0	285	130	3
2026-02-12	15:40:06.190	-21.875	-8.645	-18.13	-0.850828	-0.649284	-0.077592	0.84	0.7365	0.2025	0	285	130	3
2026-02-12	15:40:06.210	-25.585	-3.85	-17.01	-0.85034	-0.715896	-0.0793	0.843	0.7275	0.21	0	293	106	3
2026-02-12	15:40:06.230	-26.985	-0.91	-16.135	-0.831308	-0.798856	-0.123464	0.8445	0.7365	0.21	0	293	106	3
2026-02-12	15:40:06.250	-20.58	-0.735	-16.38	-0.770308	-0.794952	-0.14762	0.843	0.738	0.2175	0	293	106	3
2026-02-12	15:40:06.270	-10.185	-1.155	-16.485	-0.718824	-0.74908	-0.170556	0.8355	0.7335	0.213	0	293	106	3
2026-02-12	15:40:06.290	-2.485	-3.5	-17.255	-0.664168	-0.711504	-0.171532	0.849	0.732	0.2175	0	293	106	3
2026-02-12	15:40:06.310	-0.945	-7.525	-17.85	-0.621712	-0.677832	-0.19886	0.837	0.7335	0.213	0	293	106	3
2026-02-12	15:40:06.330	-3.605	-11.095	-18.585	-0.598776	-0.660752	-0.188612	0.837	0.7335	0.213	0	293	106	3
2026-02-12	15:40:06.350	-8.4	-11.165	-17.5	-0.627812	-0.704428	-0.183488	0.84	0.7395	0.2115	0	293	106	3
2026-02-12	15:40:06.370	-12.04	-9.45	-15.12	-0.654896	-0.716628	-0.159332	0.8445	0.744	0.2085	0	293	106	3
2026-02-12	15:40:06.390	-8.575	-3.01	-13.615	-0.643916	-0.731512	-0.165676	0.846	0.7425	0.207	0	293	106	3
2026-02-12	15:40:06.410	7.28	18.305	-11.585	-0.68198	-0.799588	-0.150304	0.8475	0.753	0.213	0	296	100	3
2026-02-12	15:40:06.430	24.29	24.675	-9.345	-0.694424	-0.826428	-0.190808	0.837	0.747	0.213	0	296	100	3
2026-02-12	15:40:06.450	37.415	24.29	-7.07	-0.68076	-0.8357	-0.206668	0.831	0.75	0.216	0	296	100	3
2026-02-12	15:40:06.470	48.825	25.165	-3.15	-0.659532	-0.829356	-0.175192	0.831	0.7545	0.213	0	296	100	3
2026-02-12	15:40:06.490	65.8	30.065	1.225	-0.637816	-0.711992	-0.088572	0.828	0.7575	0.2085	0	296	100	3
2026-02-12	15:40:06.510	63.945	33.285	4.725	-0.648064	-0.794952	-0.142496	0.8265	0.7605	0.21	0	296	100	3
2026-02-12	15:40:06.530	72.695	33.39	8.96	-0.660996	-0.837652	-0.112972	0.8205	0.765	0.21	0	296	100	3
2026-02-12	15:40:06.550	83.72	33.145	12.845	-0.638548	-0.791536	-0.031232	0.8235	0.7635	0.21	0	296	100	3
2026-02-12	15:40:06.570	74.13	35.28	17.815	-0.700524	-0.721752	-0.08295999	0.825	0.768	0.207	0	296	100	3
2026-02-12	15:40:06.590	57.26	26.6	20.72	-0.697352	-0.632692	-0.08174	0.8235	0.774	0.204	0	296	100	3
2026-02-12	15:40:06.610	33.775	15.785	20.965	-0.707844	-0.611952	-0.108336	0.825	0.765	0.207	0	294	106	2
2026-02-12	15:40:06.630	20.65	9.415	21	-0.735904	-0.742736	-0.03538	0.819	0.765	0.21	0	294	106	2
2026-02-12	15:40:06.650	8.925	5.425	25.165	-0.72956	-0.69662	0.076372	0.828	0.7755	0.2085	0	294	106	2
2026-02-12	15:40:06.670	-19.95	2.59	29.33	-0.76128	-0.623664	0.064904	0.8325	0.768	0.207	0	294	106	2
2026-02-12	15:40:06.690	-32.305	0.7	30.03	-0.795196	-0.586088	0.000976	0.8295	0.7605	0.2055	0	294	106	2
2026-02-12	15:40:06.710	-5.74	0.84	25.34	-0.836188	-0.66124	-0.090036	0.831	0.762	0.195	0	294	106	2
2026-02-12	15:40:06.730	41.44	-1.12	19.67	-0.815204	-0.560712	0.106872	0.8355	0.759	0.1995	0	294	106	2
2026-02-12	15:40:06.750	25.2	6.37	18.025	-0.815448	-0.554612	0.093696	0.84	0.7545	0.1965	0	294	106	2
2026-02-12	15:40:06.770	15.12	6.335	18.795	-0.810324	-0.568032	0.0183	0.84	0.753	0.201	0	294	106	2
2026-02-12	15:40:06.790	18.585	6.93	19.81	-0.803004	-0.62708	0.0793	0.8415	0.75	0.201	0	294	106	2
2026-02-12	15:40:06.810	25.235	7.315	23.415	-0.76372	-0.694912	0.153476	0.843	0.747	0.1965	0	286	100	2
2026-02-12	15:40:06.830	26.53	7.245	30.555	-0.677344	-0.64172	0.197396	0.84	0.753	0.201	0	286	100	2
2026-02-12	15:40:06.850	28.945	10.71	38.29	-0.58194	-0.675392	0.155672	0.8475	0.741	0.198	0	286	100	2
2026-02-12	15:40:06.870	26.67	13.545	47.6	-0.577304	-0.503616	0.066856	0.8385	0.738	0.198	0	286	100	2
2026-02-12	15:40:06.890	16.87	6.265	52.5	-0.545096	-0.178852	0.039528	0.8505	0.7395	0.198	0	286	100	2
2026-02-12	15:40:06.910	-8.785	-0.91	51.135	-0.522404	-0.099796	0.027084	0.8505	0.732	0.192	0	286	100	2
2026-02-12	15:40:06.930	-28.63	-7.315	47.18	-0.598288	-0.129808	0.035868	0.849	0.7275	0.201	0	286	100	2
2026-02-12	15:40:06.950	-26.985	-17.465	40.46	-0.625616	-0.076616	0.063928	0.855	0.726	0.204	0	286	100	2
2026-02-12	15:40:06.970	-42.07	-13.51	32.76	-1.02846	0.001464	-0.018056	0.855	0.726	0.204	0	286	100	2
2026-02-12	15:40:06.990	-66.92	-15.645	19.18	-1.51036	-0.122976	-0.125172	0.858	0.714	0.198	0	286	100	2
2026-02-12	15:40:07.010	-89.81	-26.005	3.465	-1.492304	-0.37942	-0.171776	0.8625	0.7005	0.192	0	279	77	3
2026-02-12	15:40:07.030	-124.81	-4.725	2.485	-1.433988	-0.572912	-0.217648	0.8625	0.699	0.192	0	279	77	3
2026-02-12	15:40:07.050	-118.615	5.635	10.465	-1.549888	-0.60146	-0.210572	0.87	0.6885	0.201	0	279	77	3
2026-02-12	15:40:07.070	-109.655	13.02	13.055	-1.416908	-0.76982	-0.242536	0.873	0.6915	0.2025	0	279	77	3
2026-02-12	15:40:07.090	-102.69	3.99	13.055	-1.126304	-0.780312	-0.122244	0.8625	0.681	0.207	0	279	77	3
2026-02-12	15:40:07.110	-87.43	0.805	15.925	-0.86376	-0.826672	-0.03416	0.864	0.66	0.213	0	279	77	3
2026-02-12	15:40:07.130	-62.545	5.495	22.155	-0.686128	-0.691008	-0.051484	0.8595	0.6645	0.219	0	279	77	3
2026-02-12	15:40:07.150	-33.145	9.905	19.985	-0.624152	-0.534848	-0.090036	0.867	0.6495	0.2145	0	279	77	3
2026-02-12	15:40:07.170	-4.375	3.395	5.81	-0.577548	-0.355508	-0.09638	0.8685	0.6465	0.213	0	279	77	3
2026-02-12	15:40:07.190	1.47	-4.725	-10.99	-0.61366	-0.24766	-0.128832	0.8685	0.6465	0.2205	0	279	77	3
2026-02-12	15:40:07.210	-10.185	-11.585	-22.365	-0.685884	-0.220332	-0.154208	0.867	0.651	0.222	0	279	64	3
2026-02-12	15:40:07.230	-22.26	-16.345	-32.795	-0.779824	-0.226188	-0.166652	0.8655	0.657	0.216	0	279	64	3
2026-02-12	15:40:07.250	-29.435	-17.5	-41.51	-0.864736	-0.265472	-0.171776	0.867	0.6585	0.216	0	279	64	3
2026-02-12	15:40:07.270	-31.92	-14.385	-46.76	-0.916464	-0.337452	-0.176168	0.8655	0.6585	0.2145	0	279	64	3
2026-02-12	15:40:07.290	-31.43	-10.92	-45.745	-0.98942	-0.363072	-0.143716	0.864	0.657	0.213	0	279	64	3
2026-02-12	15:40:07.310	-30.905	-8.575	-42	-1.015528	-0.472628	-0.132736	0.864	0.666	0.2085	0	279	64	3
2026-02-12	15:40:07.330	-26.355	-7.385	-37.59	-1.038952	-0.532896	-0.143716	0.867	0.669	0.2085	0	279	64	3
2026-02-12	15:40:07.350	-17.955	-4.025	-30.555	-1.029436	-0.553636	-0.136396	0.8685	0.6765	0.213	0	279	64	3
2026-02-12	15:40:07.370	-8.05	0.945	-20.86	-0.976976	-0.575352	-0.119072	0.867	0.6795	0.213	0	279	64	3
2026-02-12	15:40:07.390	8.645	9.275	-7.07	-0.884012	-0.470432	-0.0427	0.867	0.6795	0.213	0	279	64	3
2026-02-12	15:40:07.410	14.14	18.83	-3.115	-0.936472	-0.407236	-0.056608	0.861	0.681	0.213	0	282	70	3
2026-02-12	15:40:07.430	9.275	21.385	-4.865	-0.962336	-0.432856	-0.123464	0.8565	0.681	0.213	0	282	70	3
2026-02-12	15:40:07.450	-2.1	17.675	-9.555	-0.947696	-0.458232	-0.153964	0.858	0.684	0.2175	0	282	70	3
2026-02-12	15:40:07.470	-10.64	12.285	-14.63	-0.935252	-0.583892	-0.187392	0.861	0.69	0.2235	0	282	70	3
2026-02-12	15:40:07.490	-9.38	5.775	-19.39	-0.866688	-0.677344	-0.185928	0.8565	0.684	0.2145	0	282	70	3
2026-02-12	15:40:07.510	-1.82	3.08	-22.015	-0.795684	-0.721752	-0.210084	0.8625	0.684	0.2235	0	282	70	3
2026-02-12	15:40:07.530	5.845	0.945	-24.64	-0.719068	-0.70516	-0.225212	0.855	0.6855	0.2235	0	282	70	3
2026-02-12	15:40:07.550	9.45	0.735	-28	-0.666364	-0.640744	-0.224968	0.861	0.687	0.219	0	282	70	3
2026-02-12	15:40:07.570	6.72	3.535	-28.49	-0.66612	-0.640988	-0.277184	0.8505	0.6885	0.2295	0	282	70	3
2026-02-12	15:40:07.590	0.35	4.585	-29.015	-0.680028	-0.62464	-0.337208	0.8535	0.699	0.219	0	282	70	3
2026-02-12	15:40:07.610	-8.855	4.48	-27.51	-0.685152	-0.65636	-0.368684	0.8535	0.699	0.219	0	284	90	3
2026-02-12	15:40:07.630	-7.875	6.965	-25.69	-0.687836	-0.684176	-0.335012	0.849	0.705	0.222	0	284	90	3
2026-02-12	15:40:07.650	-4.725	12.845	-22.295	-0.687836	-0.704184	-0.324032	0.846	0.7125	0.228	0	284	90	3
2026-02-12	15:40:07.670	9.03	19.425	-18.445	-0.696376	-0.689056	-0.282552	0.846	0.7155	0.2295	0	284	90	3
2026-02-12	15:40:07.690	17.745	23.135	-14.595	-0.68686	-0.722484	-0.242536	0.846	0.717	0.2295	0	284	90	3
2026-02-12	15:40:07.710	21.455	25.34	-11.13	-0.693936	-0.69662	-0.220332	0.8475	0.7155	0.225	0	284	90	3
2026-02-12	15:40:07.730	25.655	27.125	-9.45	-0.684176	-0.685396	-0.204228	0.8415	0.717	0.237	0	284	90	3
2026-02-12	15:40:07.750	29.89	28.875	-7.875	-0.675392	-0.669292	-0.213988	0.8385	0.726	0.2385	0	284	90	3
2026-02-12	15:40:07.770	30.975	27.825	-6.65	-0.661728	-0.648552	-0.216916	0.828	0.7215	0.231	0	284	90	3
2026-02-12	15:40:07.790	30.485	26.88	-6.825	-0.68198	-0.62952	-0.214232	0.8295	0.7245	0.2295	0	284	90	3
2026-02-12	15:40:07.810	31.045	24.045	-7.525	-0.7015	-0.674416	-0.20618	0.834	0.7305	0.2385	0	283	123	3
2026-02-12	15:40:07.830	32.655	22.715	-6.405	-0.7076	-0.682224	-0.189344	0.828	0.7335	0.2385	0	283	123	3
2026-02-12	15:40:07.850	33.04	22.155	-4.34	-0.711992	-0.68076	-0.161772	0.8235	0.741	0.237	0	283	123	3
2026-02-12	15:40:07.870	33.285	22.225	-3.045	-0.716384	-0.709308	-0.13054	0.822	0.744	0.237	0	283	123	3
2026-02-12	15:40:07.890	36.085	22.12	-3.465	-0.700768	-0.724436	-0.12932	0.819	0.744	0.24	0	283	123	3
2026-02-12	15:40:07.910	36.4	22.085	-2.275	-0.698328	-0.763232	-0.162992	0.816	0.7455	0.243	0	283	123	3
2026-02-12	15:40:07.930	38.15	22.12	1.715	-0.696132	-0.740296	-0.150304	0.825	0.7485	0.237	0	283	123	3
2026-02-12	15:40:07.950	43.4	21.945	4.445	-0.712236	-0.71492	-0.135664	0.816	0.7635	0.234	0	283	123	3
2026-02-12	15:40:07.970	49.98	21.105	5.915	-0.693692	-0.762256	-0.124684	0.816	0.7515	0.2445	0	283	123	3
2026-02-12	15:40:07.990	59.675	21.875	7.385	-0.672952	-0.7686	-0.1159	0.8145	0.753	0.2385	0	283	123	3
2026-02-12	15:40:08.010	69.685	23.45	8.89	-0.680516	-0.78934	-0.111264	0.8115	0.747	0.2445	0	277	148	3
2026-02-12	15:40:08.030	83.65	26.88	11.165	-0.694424	-0.813008	-0.040504	0.81	0.7635	0.2325	0	277	148	3
2026-02-12	15:40:08.050	95.725	30.345	9.52	-0.610488	-0.92232	-0.013908	0.807	0.762	0.231	0	277	148	3
2026-02-12	15:40:08.070	110.355	34.685	6.79	-0.602924	-0.88938	0.00488	0.804	0.7665	0.2295	0	277	148	3
2026-02-12	15:40:08.090	115.815	36.645	3.465	-0.67344	-0.853024	-0.078812	0.807	0.7785	0.2205	0	277	148	3
2026-02-12	15:40:08.110	110.18	34.265	-0.805	-0.710528	-0.755912	-0.107848	0.8115	0.7875	0.2115	0	277	148	3
2026-02-12	15:40:08.130	89.74	29.47	-6.545	-0.763964	-0.63806	-0.08052	0.81	0.7905	0.213	0	277	148	3
2026-02-12	15:40:08.150	63.28	28	-9.275	-0.823988	-0.645136	-0.06222	0.8025	0.7875	0.213	0	277	148	3
2026-02-12	15:40:08.170	48.475	25.34	-6.825	-0.83692	-0.659532	-0.04392	0.8025	0.8055	0.207	0	277	148	3
2026-02-12	15:40:08.190	45.08	21.385	0.665	-0.809592	-0.598288	-0.012932	0.7965	0.7995	0.21	0	277	148	3
2026-02-12	15:40:08.210	45.605	17.885	8.96	-0.786168	-0.487268	0.017324	0.792	0.81	0.2085	0	268	148	3
2026-02-12	15:40:08.230	31.675	13.055	19.81	-0.90768	-0.282064	0.009272	0.7995	0.81	0.2085	0	268	148	3
2026-02-12	15:40:08.250	7.175	4.795	35.91	-0.988932	-0.095648	0.019764	0.7995	0.81	0.2085	0	268	148	3
2026-02-12	15:40:08.270	-25.725	-22.54	43.645	-0.710284	-0.2379	0.114436	0.8025	0.807	0.2055	0	268	148	3
2026-02-12	15:40:08.290	-42.49	-41.79	49.455	-0.494344	-0.366488	0.336964	0.804	0.798	0.2055	0	268	148	3
2026-02-12	15:40:08.310	-45.955	-40.565	54.215	-0.500932	-0.379908	0.3477	0.8055	0.7875	0.1995	0	268	148	3
2026-02-12	15:40:08.330	-61.215	-23.275	66.29	-0.982832	-0.368684	0.073444	0.81	0.7845	0.1935	0	268	148	3
2026-02-12	15:40:08.350	-39.025	-41.895	77.105	-1.267824	-0.3782	-0.104432	0.8235	0.7815	0.2025	0	268	148	3
2026-02-12	15:40:08.370	-22.855	-38.5	64.47	-1.27368	-0.303536	-0.186172	0.831	0.7665	0.1995	0	268	148	3
2026-02-12	15:40:08.390	-36.225	-27.44	44.59	-1.109956	-0.324032	-0.20252	0.837	0.759	0.192	0	268	148	3
2026-02-12	15:40:08.410	-59.36	-27.79	29.575	-1.178764	-0.408944	-0.244244	0.8475	0.7605	0.1965	0	261	124	3
2026-02-12	15:40:08.430	-85.785	-28.665	17.045	-1.137528	-0.585356	-0.25254	0.837	0.744	0.195	0	261	124	3
2026-02-12	15:40:08.450	-108.675	-25.375	10.08	-0.939888	-0.759084	-0.127368	0.852	0.729	0.195	0	261	124	3
2026-02-12	15:40:08.470	-91.945	-20.685	8.47	-0.618296	-0.790316	0.069296	0.8475	0.7245	0.1965	0	261	124	3
2026-02-12	15:40:08.490	-66.85	-2.24	7.175	-0.523624	-0.611952	0.084912	0.846	0.7155	0.204	0	261	124	3
2026-02-12	15:40:08.510	-47.005	7.315	4.06	-0.605852	-0.49898	-0.020008	0.8535	0.7125	0.2055	0	261	124	3
2026-02-12	15:40:08.530	-30.87	1.785	-2.765	-0.713456	-0.44164	-0.108336	0.852	0.7155	0.2025	0	261	124	3
2026-02-12	15:40:08.550	-23.24	0.175	-9.59	-0.7076	-0.305244	-0.143472	0.846	0.72	0.2055	0	261	124	3
2026-02-12	15:40:08.570	-26.39	1.26	-16.625	-0.71492	-0.278892	-0.186904	0.8595	0.7095	0.2085	0	261	124	3
2026-02-12	15:40:08.590	-36.365	-3.22	-21.455	-0.87352	-0.333792	-0.199348	0.8535	0.705	0.2115	0	261	124	3
2026-02-12	15:40:08.610	-37.66	-10.15	-26.075	-0.936228	-0.422852	-0.187636	0.861	0.7125	0.207	0	260	102	3
2026-02-12	15:40:08.630	-38.745	-15.96	-28.63	-0.915488	-0.438712	-0.182512	0.8505	0.7155	0.2145	0	260	102	3
2026-02-12	15:40:08.650	-41.23	-17.64	-27.93	-0.937448	-0.521184	-0.199836	0.843	0.7035	0.207	0	260	102	3
2026-02-12	15:40:08.670	-29.645	-15.19	-22.715	-0.9516	-0.62952	-0.144448	0.852	0.708	0.21	0	260	102	3
2026-02-12	15:40:08.690	-12.005	-9.975	-18.865	-0.919636	-0.633668	-0.099552	0.8505	0.711	0.2085	0	260	102	3
2026-02-12	15:40:08.710	1.575	-1.995	-14.665	-0.897676	-0.56486	-0.079788	0.8475	0.717	0.2115	0	260	102	3
2026-02-12	15:40:08.730	7.98	4.655	-11.69	-0.884012	-0.520696	-0.089792	0.849	0.7185	0.2145	0	260	102	3
2026-02-12	15:40:08.750	9.765	9.625	-10.745	-0.8784	-0.47336	-0.118096	0.846	0.714	0.2145	0	260	102	3
2026-02-12	15:40:08.770	4.515	12.425	-10.955	-0.934276	-0.469944	-0.142252	0.8415	0.711	0.2145	0	260	102	3
2026-02-12	15:40:08.790	-5.74	14.735	-11.235	-0.993568	-0.5246	-0.15128	0.8505	0.7185	0.2205	0	260	102	3
2026-02-12	15:40:08.810	-13.545	15.26	-10.955	-0.961116	-0.559248	-0.136152	0.843	0.7275	0.228	0	259	97	3
2026-02-12	15:40:08.830	-19.88	17.885	-9.66	-0.941108	-0.566568	-0.142496	0.8475	0.723	0.2115	0	259	97	3
2026-02-12	15:40:08.850	-24.78	19.53	-7.805	-0.895968	-0.641964	-0.1647	0.8415	0.723	0.2205	0	259	97	3
2026-02-12	15:40:08.870	-27.3	15.575	-6.125	-0.78934	-0.68076	-0.1708	0.8445	0.7305	0.225	0	259	97	3
2026-02-12	15:40:08.890	-23.45	10.885	-4.2	-0.713212	-0.692472	-0.228628	0.84	0.729	0.228	0	259	97	3
2026-02-12	15:40:08.910	-22.155	10.675	-2.24	-0.680516	-0.632692	-0.275232	0.837	0.7245	0.2325	0	259	97	3
2026-02-12	15:40:08.930	-27.965	6.335	-1.155	-0.670268	-0.560468	-0.298168	0.8355	0.7185	0.24	0	259	97	3
2026-02-12	15:40:08.950	-40.845	1.645	-1.4	-0.620736	-0.535824	-0.276208	0.8355	0.7155	0.243	0	259	97	3
2026-02-12	15:40:08.970	-46.725	6.055	-4.06	-0.643916	-0.58438	-0.271328	0.8355	0.711	0.2385	0	259	97	3
2026-02-12	15:40:08.990	-42.77	9.485	-8.295	-0.660752	-0.725412	-0.313296	0.837	0.7095	0.237	0	259	97	3
2026-02-12	15:40:09.010	-27.265	11.095	-11.795	-0.676612	-0.772016	-0.309148	0.831	0.708	0.24	0	257	111	3
2026-02-12	15:40:09.030	-8.33	13.79	-14.14	-0.668316	-0.808372	-0.30866	0.834	0.7065	0.246	0	257	111	3
2026-02-12	15:40:09.050	14.455	21.7	-10.045	-0.692472	-0.752496	-0.27328	0.837	0.711	0.252	0	257	111	3
2026-02-12	15:40:09.070	28.21	26.67	-8.085	-0.694424	-0.684664	-0.261568	0.8265	0.711	0.2535	0	257	111	3
2026-02-12	15:40:09.090	29.89	25.445	-8.47	-0.713944	-0.681248	-0.300852	0.8205	0.714	0.255	0	257	111	3
2026-02-12	15:40:09.110	30.415	20.09	-8.085	-0.718824	-0.664168	-0.306464	0.8205	0.72	0.255	0	257	111	3
2026-02-12	15:40:09.130	30.275	17.955	-4.83	-0.731512	-0.665632	-0.292068	0.822	0.726	0.258	0	257	111	3
2026-02-12	15:40:09.150	32.865	16.135	-2.625	-0.719068	-0.665632	-0.285968	0.8205	0.726	0.2595	0	257	111	3
2026-02-12	15:40:09.170	35.455	17.465	-1.26	-0.719556	-0.6527	-0.278892	0.816	0.7275	0.258	0	257	111	3
2026-02-12	15:40:09.190	33.81	19.285	0.77	-0.731756	-0.68564	-0.276452	0.816	0.729	0.255	0	257	111	3
2026-02-12	15:40:09.210	32.69	21.735	2.87	-0.732	-0.702964	-0.276208	0.8205	0.732	0.2535	0	252	143	3
2026-02-12	15:40:09.230	36.26	23.1	5.46	-0.735904	-0.740784	-0.270352	0.8205	0.744	0.255	0	252	143	3
2026-02-12	15:40:09.250	47.565	21.84	8.155	-0.732244	-0.7564	-0.228628	0.8115	0.732	0.2565	0	252	143	3
2026-02-12	15:40:09.270	57.33	19.775	10.71	-0.721996	-0.69784	-0.20252	0.8145	0.738	0.252	0	252	143	3
2026-02-12	15:40:09.290	62.335	17.08	13.16	-0.709796	-0.697108	-0.1952	0.8025	0.7395	0.2565	0	252	143	3
2026-02-12	15:40:09.310	61.39	14.98	17.325	-0.737368	-0.62952	-0.152012	0.8025	0.7395	0.2565	0	252	143	3
2026-02-12	15:40:09.330	56.84	13.055	18.725	-0.74298	-0.607804	-0.143716	0.8025	0.7395	0.2535	0	252	143	3
2026-02-12	15:40:09.350	51.835	12.075	19.11	-0.768356	-0.593164	-0.13176	0.8085	0.744	0.249	0	252	143	3
2026-02-12	15:40:09.370	47.145	11.48	19.845	-0.7991	-0.623664	-0.101504	0.8115	0.7545	0.2415	0	252	143	3
2026-02-12	15:40:09.390	48.44	11.165	21.315	-0.781288	-0.655384	-0.039772	0.813	0.759	0.237	0	252	143	3
2026-02-12	15:40:09.410	54.88	12.88	23.625	-0.767868	-0.683444	0.000244	0.8145	0.7575	0.237	0	245	170	3
2026-02-12	15:40:09.430	59.43	13.615	26.04	-0.800808	-0.608292	-0.009516	0.8055	0.756	0.237	0	245	170	3
2026-02-12	15:40:09.450	51.905	14.805	27.125	-0.853512	-0.529236	0.025376	0.819	0.753	0.2415	0	245	170	3
2026-02-12	15:40:09.470	42.63	13.86	23.52	-0.7991	-0.517524	0.075396	0.813	0.759	0.237	0	245	170	3
2026-02-12	15:40:09.490	40.53	17.99	18.62	-0.7503	-0.532652	0.032208	0.822	0.762	0.2385	0	245	170	3
2026-02-12	15:40:09.510	46.48	20.3	17.5	-0.74176	-0.472872	-0.040992	0.8115	0.7575	0.2415	0	245	170	3
2026-02-12	15:40:09.530	50.54	13.895	21.525	-0.708088	-0.324276	-0.081984	0.81	0.7605	0.24	0	245	170	3
2026-02-12	15:40:09.550	39.34	4.515	25.025	-0.657092	-0.233264	-0.055388	0.813	0.765	0.2325	0	245	170	3
2026-02-12	15:40:09.570	8.33	-4.935	27.3	-0.703452	-0.191052	-0.012932	0.816	0.7605	0.228	0	245	170	3
2026-02-12	15:40:09.590	-35.385	-18.865	25.48	-0.84424	-0.189344	-0.030012	0.8145	0.7545	0.231	0	245	170	3
2026-02-12	15:40:09.610	-72.8	-37.135	20.965	-0.930372	-0.286944	-0.083204	0.816	0.7515	0.2325	0	236	167	2
2026-02-12	15:40:09.630	-94.395	-36.68	21.14	-1.102392	-0.330376	-0.156648	0.8175	0.747	0.2325	0	236	167	2
2026-02-12	15:40:09.650	-97.58	-41.475	16.905	-1.14436	-0.45872	-0.179096	0.822	0.747	0.234	0	236	167	2
2026-02-12	15:40:09.670	-77.315	-38.955	15.54	-1.223416	-0.551928	-0.171776	0.8325	0.7335	0.234	0	236	167	2
2026-02-12	15:40:09.690	-46.2	-36.225	12.915	-1.224636	-0.557296	-0.164212	0.84	0.726	0.2385	0	236	167	2
2026-02-12	15:40:09.710	-37.695	-25.97	10.395	-1.202432	-0.51606	-0.1769	0.8445	0.7215	0.228	0	236	167	2
2026-02-12	15:40:09.730	-48.895	-14.21	4.76	-1.103368	-0.608536	-0.17812	0.84	0.714	0.237	0	236	167	2
2026-02-12	15:40:09.750	-47.495	-10.85	5.32	-0.889136	-0.66002	-0.08418	0.84	0.7095	0.237	0	236	167	2
2026-02-12	15:40:09.770	-34.65	-6.72	8.05	-0.747128	-0.613172	-0.036844	0.84	0.7065	0.234	0	236	167	2
2026-02-12	15:40:09.790	-15.05	-7.245	7.77	-0.617808	-0.494588	-0.041968	0.846	0.7035	0.234	0	236	167	2
2026-02-12	15:40:09.810	-4.655	-6.16	4.165	-0.591456	-0.35624	-0.0732	0.849	0.7005	0.2355	0	231	152	3
2026-02-12	15:40:09.830	-10.5	-5.635	-3.255	-0.66734	-0.281332	-0.12566	0.843	0.7035	0.234	0	231	152	3
2026-02-12	15:40:09.850	-24.57	-7.21	-11.865	-0.750056	-0.239852	-0.182512	0.84	0.705	0.2325	0	231	152	3
2026-02-12	15:40:09.870	-39.375	-9.8	-18.62	-0.804224	-0.206424	-0.21106	0.8505	0.702	0.2355	0	231	152	3
2026-02-12	15:40:09.890	-58.905	-13.545	-23.52	-0.805444	-0.235216	-0.228872	0.8475	0.6945	0.237	0	231	152	3
2026-02-12	15:40:09.910	-73.15	-17.115	-27.545	-0.8235	-0.326716	-0.231312	0.843	0.6945	0.2295	0	231	152	3
2026-02-12	15:40:09.930	-68.915	-20.02	-30.94	-0.890844	-0.40138	-0.206424	0.843	0.6975	0.2385	0	231	152	3
2026-02-12	15:40:09.950	-33.95	-19.67	-31.885	-0.970388	-0.546072	-0.208132	0.8475	0.702	0.2415	0	231	152	3
2026-02-12	15:40:09.970	-4.69	-17.57	-28.91	-0.997228	-0.544608	-0.225212	0.846	0.7005	0.237	0	231	152	3
2026-02-12	15:40:09.990	9.065	-13.58	-24.255	-1.021628	-0.520452	-0.226188	0.8445	0.7005	0.234	0	231	152	3
2026-02-12	15:40:10.010	12.39	-9.345	-19.6	-0.986492	-0.564128	-0.243024	0.8415	0.7035	0.2355	0	229	144	3
2026-02-12	15:40:10.030	9.135	-4.2	-13.16	-0.940376	-0.554124	-0.205448	0.8415	0.708	0.2325	0	229	144	3
2026-02-12	15:40:10.050	-1.645	2.66	-6.965	-0.931104	-0.553392	-0.092232	0.846	0.7095	0.231	0	229	144	3
2026-02-12	15:40:10.070	-8.96	9.905	-3.255	-0.911828	-0.606096	-0.071736	0.846	0.711	0.2325	0	229	144	3
2026-02-12	15:40:10.090	-5.18	12.74	-4.06	-0.88328	-0.611464	-0.130784	0.8475	0.7035	0.2295	0	229	144	3
2026-02-12	15:40:10.110	-0.945	12.075	-6.545	-0.870348	-0.579744	-0.18666	0.843	0.711	0.24	0	229	144	3
2026-02-12	15:40:10.130	-1.365	7.63	-10.185	-0.854976	-0.579988	-0.231312	0.84	0.714	0.2325	0	229	144	3
2026-02-12	15:40:10.150	-5.6	-0.805	-17.22	-0.821304	-0.586088	-0.257908	0.84	0.711	0.243	0	229	144	3
2026-02-12	15:40:10.170	-11.97	-7.455	-25.34	-0.750544	-0.605608	-0.265472	0.84	0.711	0.243	0	229	144	3
2026-02-12	15:40:10.190	-17.045	-7.63	-29.925	-0.696864	-0.6588	-0.26718	0.8385	0.711	0.243	0	229	144	3
2026-02-12	15:40:10.210	-16.415	-5.635	-31.71	-0.654408	-0.689788	-0.258884	0.8415	0.7125	0.2415	0	228	149	3
2026-02-12	15:40:10.230	-9.485	-1.96	-30.66	-0.641232	-0.723704	-0.2562	0.8415	0.717	0.2385	0	228	149	3
2026-02-12	15:40:10.250	1.855	3.08	-27.265	-0.645136	-0.742004	-0.25132	0.8295	0.7215	0.2385	0	228	149	3
2026-02-12	15:40:10.270	13.545	8.365	-24.22	-0.65148	-0.669536	-0.213988	0.831	0.7245	0.2415	0	228	149	3
2026-02-12	15:40:10.290	16.52	13.755	-21.07	-0.680028	-0.628544	-0.206912	0.8385	0.729	0.2415	0	228	149	3
2026-02-12	15:40:10.310	15.225	19.53	-17.22	-0.71858	-0.633912	-0.229116	0.8355	0.7335	0.246	0	228	149	3
2026-02-12	15:40:10.330	14.7	22.05	-13.3	-0.69296	-0.64294	-0.25498	0.8355	0.7335	0.2415	0	228	149	3
2026-02-12	15:40:10.350	13.965	23.205	-8.96	-0.690032	-0.659288	-0.261324	0.8205	0.735	0.2445	0	228	149	3
2026-02-12	15:40:10.370	14.91	22.61	-4.27	-0.68686	-0.656848	-0.233508	0.828	0.7365	0.249	0	228	149	3
2026-02-12	15:40:10.390	14.77	22.75	-1.12	-0.6771	-0.658312	-0.189588	0.8235	0.738	0.2475	0	228	149	3
2026-02-12	15:40:10.410	14.84	23.555	0.245	-0.67832	-0.675392	-0.172508	0.819	0.741	0.2505	0	225	165	3
2026-02-12	15:40:10.430	16.8	24.605	1.295	-0.701012	-0.701988	-0.185684	0.8175	0.7395	0.2535	0	225	165	3
2026-02-12	15:40:10.450	22.26	23.17	2.31	-0.702476	-0.7381	-0.194224	0.816	0.738	0.255	0	225	165	3
2026-02-12	15:40:10.470	28.735	21.14	4.13	-0.694668	-0.716384	-0.180072	0.816	0.744	0.261	0	225	165	3
2026-02-12	15:40:10.490	32.725	21.245	5.95	-0.695888	-0.691496	-0.143716	0.8145	0.7455	0.2625	0	225	165	3
2026-02-12	15:40:10.510	33.705	22.26	7	-0.686128	-0.690276	-0.138104	0.813	0.7425	0.2595	0	225	165	3
2026-02-12	15:40:10.530	35.07	23.695	8.015	-0.696132	-0.696376	-0.151036	0.807	0.7455	0.264	0	225	165	3
2026-02-12	15:40:10.550	38.605	24.01	9.205	-0.706868	-0.717116	-0.16592	0.8115	0.75	0.2625	0	225	165	3
2026-02-12	15:40:10.570	43.19	23.66	11.305	-0.726632	-0.730292	-0.159332	0.807	0.756	0.249	0	225	165	3
2026-02-12	15:40:10.590	47.74	23.905	15.61	-0.7503	-0.717848	-0.115168	0.8115	0.7515	0.2565	0	225	165	3
2026-02-12	15:40:10.610	50.96	25.305	17.535	-0.771528	-0.705892	-0.102724	0.8055	0.753	0.258	0	221	176	3
2026-02-12	15:40:10.630	54.355	26.985	17.78	-0.818132	-0.711748	-0.1098	0.798	0.756	0.2595	0	221	176	3
2026-02-12	15:40:10.650	54.67	25.69	18.235	-0.80642	-0.727364	-0.113704	0.798	0.759	0.255	0	221	176	3
2026-02-12	15:40:10.670	54.32	24.535	19.705	-0.809836	-0.720532	-0.092964	0.801	0.7635	0.2535	0	221	176	3
2026-02-12	15:40:10.690	55.23	22.89	21.21	-0.822524	-0.718092	-0.081008	0.7995	0.768	0.255	0	221	176	3
2026-02-12	15:40:10.710	54.25	22.12	22.435	-0.847412	-0.684176	-0.070516	0.798	0.7695	0.255	0	221	176	3
2026-02-12	15:40:10.730	46.2	19.355	23.38	-0.81374	-0.643428	-0.093696	0.807	0.771	0.255	0	221	176	3
2026-02-12	15:40:10.750	34.65	15.225	25.34	-0.754936	-0.573156	-0.137616	0.795	0.7725	0.2565	0	221	176	3
2026-02-12	15:40:10.770	22.995	15.085	31.71	-0.679052	-0.512156	-0.09516	0.801	0.7725	0.2445	0	221	176	3
2026-02-12	15:40:10.790	12.915	23.38	46.48	-0.671488	-0.328424	0.015128	0.8055	0.768	0.2505	0	221	176	3
2026-02-12	15:40:10.810	-9.94	23.345	50.47	-0.626836	-0.233996	0.072224	0.8055	0.762	0.252	0	214	172	3
2026-02-12	15:40:10.830	-31.115	24.29	52.045	-0.606584	-0.272548	0.010248	0.807	0.756	0.255	0	214	172	3
2026-02-12	15:40:10.850	-41.72	18.62	57.54	-0.583892	-0.307928	0.01708	0.8115	0.75	0.2625	0	214	172	3
2026-02-12	15:40:10.870	-38.71	6.755	54.39	-0.529968	-0.356728	-0.00366	0.8115	0.738	0.27	0	214	172	3
2026-02-12	15:40:10.890	-25.655	-0.7	48.93	-0.644648	-0.359412	-0.074908	0.8085	0.726	0.27	0	214	172	3
2026-02-12	15:40:10.910	-14.035	-1.575	40.81	-1.151924	-0.308416	-0.215696	0.81	0.7215	0.267	0	214	172	3
2026-02-12	15:40:10.930	-0.595	-17.325	14.49	-1.520852	-0.42578	-0.336232	0.81	0.7215	0.267	0	214	172	3
2026-02-12	15:40:10.950	8.365	-28.875	-10.185	-1.521096	-0.42212	-0.344772	0.822	0.726	0.261	0	214	172	3
2026-02-12	15:40:10.970	-6.37	-26.355	-12.67	-1.387628	-0.462868	-0.358192	0.825	0.717	0.261	0	214	172	3
2026-02-12	15:40:10.990	-20.895	-23.73	-4.585	-1.308572	-0.442372	-0.315004	0.8235	0.7245	0.2685	0	214	172	3
2026-02-12	15:40:11.010	-38.99	-22.96	-2.87	-1.158512	-0.43798	-0.184464	0.825	0.7185	0.258	0	211	159	3
2026-02-12	15:40:11.030	-53.27	-21.385	-6.72	-0.947452	-0.460184	-0.05856	0.825	0.717	0.258	0	211	159	3
2026-02-12	15:40:11.050	-49.105	-17.115	-6.79	-0.804712	-0.45628	-0.033916	0.8265	0.717	0.258	0	211	159	3
2026-02-12	15:40:11.070	-41.02	-15.925	-7.735	-0.698572	-0.434564	-0.058804	0.828	0.7095	0.2595	0	211	159	3
2026-02-12	15:40:11.090	-35.595	-15.435	-11.375	-0.66124	-0.361608	-0.104188	0.828	0.7035	0.261	0	211	159	3
2026-02-12	15:40:11.110	-31.57	-18.62	-17.605	-0.667096	-0.29646	-0.150304	0.8325	0.7035	0.261	0	211	159	3
2026-02-12	15:40:11.130	-32.34	-17.43	-22.645	-0.704672	-0.255712	-0.17324	0.834	0.7035	0.2625	0	211	159	3
2026-02-12	15:40:11.150	-39.83	-14.77	-27.16	-0.726632	-0.244244	-0.208864	0.831	0.705	0.261	0	211	159	3
2026-02-12	15:40:11.170	-47.565	-16.065	-32.445	-0.756888	-0.27572	-0.2257	0.837	0.7065	0.2565	0	211	159	3
2026-02-12	15:40:11.190	-49.245	-16.205	-37.66	-0.81862	-0.31476	-0.230092	0.828	0.7035	0.264	0	211	159	3
2026-02-12	15:40:11.210	-45.29	-17.22	-41.3	-0.870592	-0.367708	-0.22936	0.8355	0.7035	0.2565	0	213	154	3
2026-02-12	15:40:11.230	-38.745	-17.185	-42.105	-0.965508	-0.460184	-0.233508	0.8355	0.7035	0.2565	0	213	154	3
2026-02-12	15:40:11.250	-34.405	-18.095	-39.165	-0.978928	-0.509228	-0.2257	0.8295	0.7065	0.258	0	213	154	3
2026-02-12	15:40:11.270	-29.575	-16.03	-32.095	-1.004792	-0.552172	-0.206912	0.8235	0.711	0.2625	0	213	154	3
2026-02-12	15:40:11.290	-27.44	-12.355	-22.505	-1.013332	-0.551684	-0.175924	0.825	0.7125	0.2655	0	213	154	3
2026-02-12	15:40:11.310	-28.07	-7.49	-14.525	-1.003816	-0.553392	-0.145912	0.828	0.7125	0.27	0	213	154	3
2026-02-12	15:40:11.330	-25.235	-2.73	-8.82	-0.99186	-0.567788	-0.1464	0.828	0.7125	0.2655	0	213	154	3
2026-02-12	15:40:11.350	-21.315	0.595	-5.32	-0.962092	-0.568032	-0.159576	0.8265	0.711	0.264	0	213	154	3
2026-02-12	15:40:11.370	-20.44	1.155	-3.675	-0.945744	-0.541436	-0.187636	0.825	0.7125	0.27	0	213	154	3
2026-02-12	15:40:11.390	-24.43	-1.19	-4.515	-0.96014	-0.581452	-0.257176	0.825	0.7065	0.2685	0	213	154	3
2026-02-12	15:40:11.410	-25.655	-9.135	-9.38	-0.92598	-0.61366	-0.285968	0.8325	0.7035	0.2655	0	217	159	3
2026-02-12	15:40:11.430	-20.09	-19.88	-15.68	-0.830576	-0.631472	-0.267668	0.8265	0.7125	0.267	0	217	159	3
2026-02-12	15:40:11.450	-11.235	-28.035	-19.04	-0.743712	-0.632692	-0.248392	0.8265	0.7125	0.267	0	217	159	3
2026-02-12	15:40:11.470	-3.43	-31.29	-20.055	-0.676368	-0.628056	-0.256932	0.828	0.708	0.264	0	217	159	3
2026-02-12	15:40:11.490	1.995	-31.15	-19.25	-0.629276	-0.586088	-0.27572	0.8295	0.708	0.261	0	217	159	3
2026-02-12	15:40:11.510	5.425	-28.735	-17.78	-0.61976	-0.56608	-0.289872	0.831	0.711	0.255	0	217	159	3
2026-02-12	15:40:11.530	6.58	-24.185	-15.61	-0.637572	-0.558272	-0.287188	0.8355	0.7125	0.249	0	217	159	3
2026-02-12	15:40:11.550	5.285	-15.75	-13.72	-0.663436	-0.589504	-0.306952	0.8325	0.7185	0.2535	0	217	159	3
2026-02-12	15:40:11.570	1.855	-6.195	-10.465	-0.657336	-0.643184	-0.326472	0.8325	0.723	0.258	0	217	159	3
2026-02-12	15:40:11.590	0.035	3.185	-5.355	-0.673684	-0.684176	-0.329156	0.837	0.723	0.2595	0	217	159	3
2026-02-12	15:40:11.610	1.19	11.095	-0.035	-0.685152	-0.74542	-0.301096	0.8325	0.717	0.2535	0	219	176	3
2026-02-12	15:40:11.630	7.28	17.22	3.08	-0.694668	-0.792268	-0.263276	0.828	0.7185	0.2445	0	219	176	3
2026-02-12	15:40:11.650	23.275	25.2	4.865	-0.693692	-0.78202	-0.227896	0.8355	0.723	0.2565	0	219	176	3
2026-02-12	15:40:11.670	31.43	29.33	5.46	-0.713456	-0.764696	-0.240828	0.837	0.72	0.255	0	219	176	3
2026-02-12	15:40:11.690	39.375	27.965	3.745	-0.699304	-0.735172	-0.243268	0.831	0.7245	0.258	0	219	176	3
2026-02-12	15:40:11.710	43.68	25.48	1.33	-0.6954	-0.667828	-0.220088	0.8235	0.7245	0.261	0	219	176	3
2026-02-12	15:40:11.730	43.82	24.745	-0.7	-0.715164	-0.656604	-0.210572	0.825	0.7215	0.2595	0	219	176	3
2026-02-12	15:40:11.750	44.415	26.285	-1.19	-0.739808	-0.621224	-0.213256	0.828	0.723	0.255	0	219	176	3
2026-02-12	15:40:11.770	43.855	27.755	-1.19	-0.74542	-0.63928	-0.207644	0.8205	0.726	0.2565	0	219	176	3
2026-02-12	15:40:11.790	44.59	30.065	0.91	-0.719068	-0.629276	-0.200568	0.8145	0.7305	0.264	0	219	176	3
2026-02-12	15:40:11.810	46.06	32.06	3.92	-0.709552	-0.619516	-0.193492	0.8085	0.741	0.267	0	220	196	3
2026-02-12	15:40:11.830	45.99	33.81	7.385	-0.722484	-0.638548	-0.177632	0.8175	0.7365	0.267	0	220	196	3
2026-02-12	15:40:11.850	47.845	34.055	10.045	-0.728584	-0.634156	-0.151524	0.8115	0.7455	0.264	0	220	196	3
2026-02-12	15:40:11.870	50.995	34.02	13.93	-0.72468	-0.642208	-0.106872	0.816	0.7485	0.2715	0	220	196	3
2026-02-12	15:40:11.890	53.55	33.32	16.065	-0.742492	-0.63562	-0.080276	0.8145	0.7485	0.2685	0	220	196	3
2026-02-12	15:40:11.910	58.1	30.94	16.765	-0.772504	-0.655384	-0.081008	0.8145	0.7545	0.264	0	220	196	3
2026-02-12	15:40:11.930	62.755	29.085	19.11	-0.802272	-0.625128	-0.07686	0.8115	0.759	0.2625	0	220	196	3
2026-02-12	15:40:11.950	60.095	22.505	19.88	-0.81496	-0.624396	-0.064904	0.8055	0.756	0.2625	0	220	196	3
2026-02-12	15:40:11.970	57.12	20.335	24.325	-0.864004	-0.605608	-0.040016	0.804	0.7545	0.261	0	220	196	3
2026-02-12	15:40:11.990	56.14	15.33	26.04	-0.849852	-0.55144	-0.007564	0.807	0.759	0.2625	0	220	196	3
2026-02-12	15:40:12.010	48.3	13.79	28.525	-0.856196	-0.497272	-0.02684	0.81	0.7635	0.2655	0	217	199	3
2026-02-12	15:40:12.030	37.03	8.33	31.185	-0.843508	-0.428464	-0.021472	0.7995	0.7665	0.2595	0	217	199	3
2026-02-12	15:40:12.050	25.165	0.98	34.51	-0.810812	-0.378688	-0.005368	0.8115	0.7635	0.2535	0	217	199	3
2026-02-12	15:40:12.070	10.57	-11.445	41.23	-0.737124	-0.37698	0.029768	0.8085	0.759	0.2505	0	217	199	3
2026-02-12	15:40:12.090	-7.525	-24.78	48.86	-0.659044	-0.369172	0.009028	0.8115	0.753	0.2505	0	217	199	3
2026-02-12	15:40:12.110	-17.01	-35.175	52.185	-0.665388	-0.360144	-0.008784	0.822	0.744	0.249	0	217	199	3
2026-02-12	15:40:12.130	-10.815	-44.765	50.19	-0.752496	-0.348676	-0.013664	0.8265	0.7425	0.243	0	217	199	3
2026-02-12	15:40:12.150	-7.455	-46.375	42.805	-0.982588	-0.273036	0.004148	0.828	0.7395	0.2385	0	217	199	3
2026-02-12	15:40:12.170	-11.515	-43.995	27.545	-1.171688	-0.38308	-0.050264	0.8355	0.7305	0.234	0	217	199	3
2026-02-12	15:40:12.190	1.855	-30.8	20.02	-1.288076	-0.30256	-0.073688	0.8445	0.729	0.231	0	217	199	3
2026-02-12	15:40:12.210	-7.385	-20.335	13.37	-1.303692	-0.177388	-0.083448	0.8445	0.7245	0.2295	0	214	177	3
2026-02-12	15:40:12.230	-38.78	-14.735	6.475	-1.33834	-0.320372	-0.151768	0.8415	0.72	0.231	0	214	177	3
2026-02-12	15:40:12.250	-52.5	-11.445	2.87	-1.338096	-0.418704	-0.15494	0.849	0.7245	0.225	0	214	177	3
2026-02-12	15:40:12.270	-61.53	-10.36	1.82	-1.221464	-0.521184	-0.078324	0.8505	0.717	0.225	0	214	177	3
2026-02-12	15:40:12.290	-52.15	-15.155	0.315	-0.965264	-0.598288	0.039772	0.8505	0.72	0.234	0	214	177	3
2026-02-12	15:40:12.310	-30.87	-14.84	-2.1	-0.747128	-0.478972	0.057096	0.849	0.7155	0.231	0	214	177	3
2026-02-12	15:40:12.330	-22.575	-12.95	-7.035	-0.65636	-0.353312	-0.019764	0.8535	0.7125	0.2295	0	214	177	3
2026-02-12	15:40:12.350	-25.48	-13.37	-16.765	-0.677588	-0.293776	-0.094428	0.8595	0.711	0.231	0	214	177	3
2026-02-12	15:40:12.370	-31.395	-17.255	-27.79	-0.705648	-0.251808	-0.107116	0.8595	0.705	0.2295	0	214	177	3
2026-02-12	15:40:12.390	-39.48	-15.4	-36.68	-0.701256	-0.235704	-0.122244	0.8625	0.7065	0.2295	0	214	177	3
2026-02-12	15:40:12.410	-44.94	-15.47	-43.435	-0.687348	-0.265716	-0.14274	0.864	0.7125	0.234	0	214	147	3
2026-02-12	15:40:12.430	-47.915	-16.03	-47.705	-0.735904	-0.274012	-0.180316	0.8565	0.714	0.2355	0	214	147	3
2026-02-12	15:40:12.450	-52.08	-14.7	-48.79	-0.819352	-0.318908	-0.198616	0.852	0.7155	0.2355	0	214	147	3
2026-02-12	15:40:12.470	-55.825	-14.63	-48.545	-0.939888	-0.375272	-0.213012	0.855	0.7215	0.2325	0	214	147	3
2026-02-12	15:40:12.490	-61.6	-14.56	-44.765	-0.998936	-0.461648	-0.230824	0.8505	0.723	0.2295	0	214	147	3
2026-02-12	15:40:12.510	-55.965	-12.425	-34.895	-0.993324	-0.568764	-0.227896	0.843	0.7215	0.2325	0	214	147	3
2026-02-12	15:40:12.530	-42.98	-7.455	-25.13	-1.007232	-0.62586	-0.197884	0.843	0.726	0.234	0	214	147	3
2026-02-12	15:40:12.550	-28.56	-1.015	-15.365	-1.005524	-0.640256	-0.1403	0.8445	0.723	0.24	0	214	147	3
2026-02-12	15:40:12.570	-24.01	9.905	-6.44	-1.028216	-0.688324	-0.110776	0.8445	0.72	0.243	0	214	147	3
2026-02-12	15:40:12.590	-23.205	19.74	0.56	-0.958188	-0.751764	-0.113704	0.8445	0.723	0.2445	0	214	147	3
2026-02-12	15:40:12.610	-12.11	26.915	5.635	-0.873764	-0.735904	-0.131028	0.8385	0.7215	0.252	0	217	133	3
2026-02-12	15:40:12.630	5.075	26.915	8.295	-0.810568	-0.688568	-0.194224	0.8295	0.7215	0.255	0	217	133	3
2026-02-12	15:40:12.650	17.08	21.805	8.085	-0.760304	-0.638792	-0.243024	0.8325	0.72	0.2535	0	217	133	3
2026-02-12	15:40:12.670	22.12	11.795	3.815	-0.72956	-0.58316	-0.243268	0.8385	0.72	0.2565	0	217	133	3
2026-02-12	15:40:12.690	19.6	-0.805	-4.48	-0.704916	-0.55388	-0.237168	0.8355	0.726	0.2565	0	217	133	3
2026-02-12	15:40:12.710	14.63	-14.56	-13.615	-0.67832	-0.55266	-0.22082	0.8295	0.7185	0.252	0	217	133	3
2026-02-12	15:40:12.730	12.18	-21.875	-20.02	-0.669292	-0.557784	-0.199592	0.8295	0.7185	0.252	0	217	133	3
2026-02-12	15:40:12.750	3.115	-20.125	-22.33	-0.678564	-0.5429	-0.212036	0.8385	0.7245	0.246	0	217	133	3
2026-02-12	15:40:12.770	-3.955	-13.335	-21.35	-0.705892	-0.615124	-0.257908	0.8445	0.7335	0.2445	0	217	133	3
2026-02-12	15:40:12.790	-6.16	-5.18	-18.13	-0.71614	-0.684664	-0.28914	0.8415	0.732	0.2445	0	217	133	3
2026-02-12	15:40:12.810	-3.745	3.675	-13.16	-0.71248	-0.732244	-0.262544	0.843	0.732	0.24	0	220	138	3
2026-02-12	15:40:12.830	0.42	12.565	-6.475	-0.720776	-0.783972	-0.235704	0.843	0.7395	0.2415	0	220	138	3
2026-02-12	15:40:12.850	6.895	18.725	-0.665	-0.715408	-0.773724	-0.216916	0.837	0.7455	0.246	0	220	138	3
2026-02-12	15:40:12.870	13.545	22.295	2.415	-0.691496	-0.756156	-0.208376	0.8355	0.7425	0.2505	0	220	138	3
2026-02-12	15:40:12.890	19.95	24.185	3.29	-0.678076	-0.73566	-0.205936	0.837	0.741	0.2535	0	220	138	3
2026-02-12	15:40:12.910	25.095	25.69	2.415	-0.687836	-0.667584	-0.177144	0.8295	0.7395	0.249	0	220	138	3
2026-02-12	15:40:12.930	24.185	23.625	-2.17	-0.677344	-0.659532	-0.180804	0.8295	0.738	0.258	0	220	138	3
2026-02-12	15:40:12.950	22.82	23.45	-4.095	-0.715164	-0.668072	-0.220332	0.828	0.7425	0.2565	0	220	138	3
2026-02-12	15:40:12.970	24.5	23.59	-2.485	-0.733464	-0.66978	-0.22326	0.8265	0.7485	0.2535	0	220	138	3
2026-02-12	15:40:12.990	27.23	25.165	0.735	-0.732	-0.631716	-0.18666	0.822	0.7515	0.255	0	220	138	3
2026-02-12	15:40:13.010	27.79	28.525	3.5	-0.734684	-0.62464	-0.171532	0.822	0.7575	0.2565	0	222	155	3
2026-02-12	15:40:13.030	26.74	31.36	6.3	-0.720776	-0.611708	-0.16104	0.8205	0.7575	0.2565	0	222	155	3
2026-02-12	15:40:13.050	27.72	33.915	9.31	-0.72102	-0.644404	-0.162748	0.8175	0.7515	0.258	0	222	155	3
2026-02-12	15:40:13.070	33.53	34.58	12.915	-0.729804	-0.668804	-0.163236	0.813	0.7545	0.2595	0	222	155	3
2026-02-12	15:40:13.090	42.805	34.755	17.92	-0.739076	-0.706868	-0.160064	0.81	0.7545	0.267	0	222	155	3
2026-02-12	15:40:13.110	54.145	33.04	23.205	-0.733464	-0.701988	-0.117608	0.8115	0.753	0.273	0	222	155	3
2026-02-12	15:40:13.130	65.17	33.635	27.86	-0.759572	-0.66734	-0.080032	0.8115	0.759	0.267	0	222	155	3
2026-02-12	15:40:13.150	76.51	33.18	31.36	-0.75884	-0.652944	-0.026108	0.8115	0.759	0.267	0	222	155	3
2026-02-12	15:40:13.170	83.72	33.67	31.92	-0.76128	-0.618052	0.007076	0.8085	0.762	0.2655	0	222	155	3
2026-02-12	15:40:13.190	81.69	32.2	30.87	-0.805932	-0.569496	-0.020008	0.8085	0.768	0.264	0	222	155	3
2026-02-12	15:40:13.210	69.51	25.795	28.105	-0.86864	-0.510204	-0.028548	0.81	0.7695	0.264	0	220	164	3
2026-02-12	15:40:13.230	60.69	18.62	26.25	-0.902068	-0.493124	0.003416	0.81	0.7665	0.255	0	220	164	3
2026-02-12	15:40:13.250	55.755	10.01	22.61	-0.86742	-0.493368	0.049776	0.8145	0.7695	0.252	0	220	164	3
2026-02-12	15:40:13.270	48.195	7.455	22.155	-0.923052	-0.49044	0.065148	0.8115	0.7755	0.252	0	220	164	3
2026-02-12	15:40:13.290	39.935	4.55	23.38	-0.925248	-0.457988	0.052704	0.81	0.78	0.2475	0	220	164	3
2026-02-12	15:40:13.310	28.98	3.605	26.81	-0.910608	-0.481168	0.07808	0.813	0.7815	0.2475	0	220	164	3
2026-02-12	15:40:13.330	24.57	3.08	32.34	-0.839848	-0.41236	0.136152	0.8175	0.7755	0.24	0	220	164	3
2026-02-12	15:40:13.350	16.555	9.31	36.26	-0.718092	-0.339892	0.174704	0.825	0.7785	0.243	0	220	164	3
2026-02-12	15:40:13.370	3.57	13.79	43.785	-0.687592	-0.345992	0.079544	0.825	0.7785	0.243	0	220	164	3
2026-02-12	15:40:13.390	-13.825	11.445	54.11	-0.654408	-0.236924	0.03294	0.8235	0.771	0.246	0	220	164	3
2026-02-12	15:40:13.410	-24.955	-0.805	54.67	-0.596336	-0.217404	-0.012932	0.8295	0.7635	0.249	0	217	144	2
2026-02-12	15:40:13.430	-26.915	-10.85	50.96	-0.680028	-0.21838	-0.003172	0.834	0.756	0.2475	0	217	144	2
2026-02-12	15:40:13.450	-27.405	-13.37	38.78	-0.999912	-0.173484	-0.022448	0.8355	0.747	0.2475	0	217	144	2
2026-02-12	15:40:13.470	-38.885	-11.095	15.715	-1.41032	-0.316712	-0.182512	0.8415	0.741	0.2475	0	217	144	2
2026-02-12	15:40:13.490	-38.885	-15.89	-0.91	-1.545252	-0.401136	-0.236436	0.84	0.738	0.2475	0	217	144	2
2026-02-12	15:40:13.510	-40.775	-10.535	-3.99	-1.554036	-0.440908	-0.354532	0.837	0.735	0.2475	0	217	144	2
2026-02-12	15:40:13.530	-49.735	-8.26	-1.505	-1.429352	-0.47458	-0.416508	0.84	0.732	0.2475	0	217	144	2
2026-02-12	15:40:13.550	-57.085	-10.71	-1.54	-1.312964	-0.494588	-0.307928	0.8415	0.729	0.258	0	217	144	2
2026-02-12	15:40:13.570	-54.6	-14.42	-3.675	-1.018456	-0.481412	-0.07124799	0.8385	0.7275	0.252	0	217	144	2
2026-02-12	15:40:13.590	-48.335	-10.815	-7.14	-0.772504	-0.447008	0.068564	0.84	0.7185	0.2535	0	217	144	2
2026-02-12	15:40:13.610	-48.44	-4.305	-9.8	-0.644648	-0.444324	0.014884	0.8445	0.7125	0.258	0	218	121	3
2026-02-12	15:40:13.630	-43.4	-1.995	-14.35	-0.59536	-0.397964	-0.114192	0.849	0.714	0.264	0	218	121	3
2026-02-12	15:40:13.650	-37.24	-5.495	-21.07	-0.62586	-0.329156	-0.166896	0.8445	0.714	0.264	0	218	121	3
2026-02-12	15:40:13.670	-32.725	-11.585	-29.12	-0.697352	-0.26474	-0.176412	0.843	0.7095	0.2625	0	218	121	3
2026-02-12	15:40:13.690	-35.42	-11.585	-34.44	-0.733708	-0.224968	-0.187148	0.846	0.708	0.2625	0	218	121	3
2026-02-12	15:40:13.710	-38.36	-9.03	-37.52	-0.73566	-0.2379	-0.201788	0.843	0.7125	0.267	0	218	121	3
2026-02-12	15:40:13.730	-40.915	-7.56	-39.62	-0.765428	-0.224236	-0.201788	0.843	0.7185	0.2685	0	218	121	3
2026-02-12	15:40:13.750	-51.275	-3.5	-38.85	-0.852536	-0.271816	-0.224724	0.8445	0.72	0.2655	0	218	121	3
2026-02-12	15:40:13.770	-55.16	-2.31	-37.835	-0.890844	-0.376004	-0.246928	0.8445	0.711	0.27	0	218	121	3
2026-02-12	15:40:13.790	-42.385	-0.21	-31.99	-0.928908	-0.43432	-0.225456	0.843	0.717	0.267	0	218	121	3
2026-02-12	15:40:13.810	-35.245	0.735	-25.935	-0.937936	-0.479704	-0.213256	0.8385	0.7155	0.2685	0	223	116	3
2026-02-12	15:40:13.830	-26.775	2.135	-19.67	-0.97234	-0.528992	-0.194468	0.8295	0.7125	0.2715	0	223	116	3
2026-02-12	15:40:13.850	-14.455	2.625	-14.525	-0.97112	-0.535092	-0.185928	0.8265	0.7125	0.276	0	223	116	3
2026-02-12	15:40:13.870	-5.005	3.955	-9.555	-0.956236	-0.485316	-0.199104	0.828	0.7155	0.2805	0	223	116	3
2026-02-12	15:40:13.890	0.14	4.865	-5.95	-0.93818	-0.446276	-0.20984	0.8325	0.717	0.2835	0	223	116	3
2026-02-12	15:40:13.910	1.75	4.165	-5.53	-0.975024	-0.428464	-0.246928	0.834	0.717	0.2865	0	223	116	3
2026-02-12	15:40:13.930	3.885	0.875	-7.525	-1.01504	-0.465796	-0.271572	0.8295	0.7185	0.2835	0	223	116	3
2026-02-12	15:40:13.950	4.935	-1.365	-9.135	-1.038464	-0.559492	-0.23424	0.825	0.7185	0.2805	0	223	116	3
2026-02-12	15:40:13.970	4.305	-1.19	-9.065	-1.029192	-0.614148	-0.174216	0.8265	0.717	0.2835	0	223	116	3
2026-02-12	15:40:13.990	1.89	2.73	-8.085	-0.987468	-0.655384	-0.149816	0.8175	0.723	0.285	0	223	116	3
2026-02-12	15:40:14.010	7.245	6.895	-7.945	-0.926468	-0.698816	-0.143228	0.8175	0.7245	0.285	0	228	130	3
2026-02-12	15:40:14.030	14.525	9.485	-8.085	-0.869616	-0.72712	-0.173484	0.8205	0.729	0.285	0	228	130	3
2026-02-12	15:40:14.050	26.005	11.025	-10.08	-0.77958	-0.707112	-0.2318	0.8205	0.7275	0.288	0	228	130	3
2026-02-12	15:40:14.070	35.315	9.73	-11.305	-0.708332	-0.595604	-0.274988	0.8175	0.729	0.291	0	228	130	3
2026-02-12	15:40:14.090	35.21	5.565	-13.86	-0.704916	-0.55632	-0.298656	0.816	0.7335	0.285	0	228	130	3
2026-02-12	15:40:14.110	33.74	-1.785	-16.73	-0.684908	-0.509716	-0.308904	0.822	0.7395	0.285	0	228	130	3
2026-02-12	15:40:14.130	27.545	-5.775	-18.83	-0.696132	-0.471164	-0.309392	0.8265	0.7485	0.2865	0	228	130	3
2026-02-12	15:40:14.150	16.45	-7.875	-21.28	-0.68686	-0.512888	-0.299144	0.819	0.75	0.288	0	228	130	3
2026-02-12	15:40:14.170	8.715	-4.9	-21.63	-0.685884	-0.605852	-0.269376	0.8205	0.75	0.2865	0	228	130	3
2026-02-12	15:40:14.190	10.22	0.21	-18.76	-0.660996	-0.663436	-0.210572	0.825	0.7485	0.282	0	228	130	3
2026-02-12	15:40:14.210	16.975	10.465	-13.44	-0.652212	-0.71858	-0.182268	0.819	0.7455	0.2835	0	232	153	3
2026-02-12	15:40:14.230	28.245	20.3	-8.4	-0.653188	-0.689544	-0.203008	0.816	0.75	0.2835	0	232	153	3
2026-02-12	15:40:14.250	34.335	23.345	-6.51	-0.668804	-0.654408	-0.215696	0.813	0.7605	0.2835	0	232	153	3
2026-02-12	15:40:14.270	34.51	22.96	-5.915	-0.684908	-0.637572	-0.210328	0.81	0.7695	0.2805	0	232	153	3
2026-02-12	15:40:14.290	32.585	21.105	-6.51	-0.68564	-0.593896	-0.194712	0.8025	0.7665	0.2805	0	232	153	3
2026-02-12	15:40:14.310	27.93	19.39	-7.315	-0.686128	-0.581208	-0.197152	0.804	0.768	0.285	0	232	153	3
2026-02-12	15:40:14.330	21.14	17.045	-7	-0.69418	-0.591944	-0.215208	0.81	0.777	0.2865	0	232	153	3
2026-02-12	15:40:14.350	17.08	15.575	-5.25	-0.70394	-0.644648	-0.19032	0.804	0.7785	0.285	0	232	153	3
2026-02-12	15:40:14.370	17.29	16.765	-3.08	-0.69174	-0.673684	-0.164456	0.798	0.777	0.285	0	232	153	3
2026-02-12	15:40:14.390	18.585	20.02	-0.49	-0.672708	-0.659288	-0.14762	0.798	0.7785	0.2865	0	232	153	3
2026-02-12	15:40:14.410	19.6	23.73	2.135	-0.670512	-0.644404	-0.162748	0.798	0.783	0.288	0	233	174	3
2026-02-12	15:40:14.430	22.96	25.83	4.9	-0.693448	-0.688324	-0.164212	0.798	0.783	0.288	0	233	174	3
2026-02-12	15:40:14.450	29.4	25.06	7.7	-0.649284	-0.692228	-0.104432	0.7935	0.786	0.291	0	233	174	3
2026-02-12	15:40:14.470	33.67	28.56	12.635	-0.636596	-0.652212	-0.048312	0.789	0.7845	0.2955	0	233	174	3
2026-02-12	15:40:14.490	32.2	34.125	15.015	-0.692472	-0.683932	-0.051484	0.789	0.7815	0.288	0	233	174	3
2026-02-12	15:40:14.510	33.495	40.005	15.61	-0.796172	-0.734928	-0.078812	0.786	0.789	0.2895	0	233	174	3
2026-02-12	15:40:14.530	42.875	40.46	17.01	-0.86498	-0.757376	-0.09076799	0.78	0.7965	0.294	0	233	174	3
2026-02-12	15:40:14.550	52.15	41.72	22.645	-0.844972	-0.755668	-0.06734399	0.777	0.795	0.2895	0	233	174	3
2026-02-12	15:40:14.570	56.105	45.57	27.685	-0.889136	-0.794708	-0.042944	0.777	0.7995	0.288	0	233	174	3
2026-02-12	15:40:14.590	56.35	48.895	33.39	-0.973804	-0.803736	-0.108824	0.774	0.8055	0.2925	0	233	174	3
2026-02-12	15:40:14.610	60.025	45.5	39.06	-0.951112	-0.786412	-0.146644	0.7725	0.804	0.297	0	230	178	3
2026-02-12	15:40:14.630	65.45	36.89	44.94	-0.932324	-0.65514	-0.154452	0.771	0.81	0.288	0	230	178	3
2026-02-12	15:40:14.650	64.26	23.03	45.815	-0.878644	-0.586088	-0.101504	0.774	0.8115	0.288	0	230	178	3
2026-02-12	15:40:14.670	59.465	8.54	42.035	-0.804468	-0.440908	-0.05612	0.7815	0.813	0.285	0	230	178	3
2026-02-12	15:40:14.690	44.345	-4.375	36.225	-0.732732	-0.336476	-0.053192	0.7785	0.8115	0.2805	0	230	178	3
2026-02-12	15:40:14.710	22.505	-16.66	31.325	-0.71614	-0.172508	-0.088572	0.7815	0.8115	0.2805	0	230	178	3
2026-02-12	15:40:14.730	-1.925	-27.37	29.365	-0.654164	-0.110776	-0.119316	0.792	0.813	0.276	0	230	178	3
2026-02-12	15:40:14.750	-18.235	-41.23	25.27	-0.542168	-0.02318	-0.028304	0.795	0.8115	0.2715	0	230	178	3
2026-02-12	15:40:14.770	-34.475	-53.55	16.66	-0.487268	-0.111508	0.023424	0.795	0.8085	0.2685	0	230	178	3
2026-02-12	15:40:14.790	-45.78	-50.995	14.035	-0.643184	-0.170068	0.023424	0.798	0.804	0.2685	0	230	178	3
2026-02-12	15:40:14.810	-58.17	-45.955	8.54	-0.9333	-0.13664	-0.065392	0.8055	0.7995	0.2625	0	228	165	3
2026-02-12	15:40:14.830	-78.47	-40.25	0	-1.32858	-0.278404	-0.221552	0.8115	0.798	0.2535	0	228	165	3
2026-02-12	15:40:14.850	-96.915	-37.87	-5.88	-1.50304	-0.64172	-0.430172	0.8145	0.789	0.2595	0	228	165	3
2026-02-12	15:40:14.870	-77.385	-31.955	-5.075	-1.517924	-0.74176	-0.482388	0.8145	0.783	0.264	0	228	165	3
2026-02-12	15:40:14.890	-64.925	-28.315	2.625	-1.405196	-0.665632	-0.40504	0.8175	0.7755	0.2715	0	228	165	3
2026-02-12	15:40:14.910	-70.455	-21.665	9.66	-1.13216	-0.719556	-0.288164	0.8235	0.7695	0.27	0	228	165	3
2026-02-12	15:40:14.930	-53.2	-14.805	13.44	-0.871568	-0.64416	-0.076616	0.825	0.762	0.27	0	228	165	3
2026-02-12	15:40:14.950	-18.375	-5.635	15.015	-0.652212	-0.54168	0.056608	0.825	0.756	0.273	0	228	165	3
2026-02-12	15:40:14.970	6.335	9.625	13.16	-0.564128	-0.419924	0.038796	0.8325	0.753	0.2715	0	228	165	3
2026-02-12	15:40:14.990	11.375	15.575	9.17	-0.576816	-0.36234	-0.043188	0.8385	0.756	0.279	0	228	165	3
2026-02-12	15:40:15.010	10.815	8.33	-1.61	-0.588284	-0.264984	-0.096868	0.8295	0.759	0.2805	0	233	156	3
2026-02-12	15:40:15.030	-0.42	-2.17	-16.94	-0.623908	-0.19276	-0.137616	0.825	0.7575	0.2775	0	233	156	3
2026-02-12	15:40:15.050	-16.17	-9.24	-31.185	-0.746884	-0.270596	-0.197396	0.8265	0.756	0.2775	0	233	156	3
2026-02-12	15:40:15.070	-24.325	-20.44	-41.685	-0.981612	-0.290604	-0.264008	0.8265	0.756	0.27	0	233	156	3
2026-02-12	15:40:15.090	-26.53	-27.65	-41.895	-0.960628	-0.344528	-0.260348	0.8205	0.7605	0.273	0	233	156	3
2026-02-12	15:40:15.110	-28.245	-31.045	-40.215	-0.885964	-0.445788	-0.243268	0.825	0.7665	0.2775	0	233	156	3
2026-02-12	15:40:15.130	-22.96	-28.35	-34.02	-0.866688	-0.49776	-0.183244	0.831	0.768	0.2745	0	233	156	3
2026-02-12	15:40:15.150	-16.03	-23.73	-25.83	-0.835212	-0.49166	-0.122	0.8235	0.7725	0.27	0	233	156	3
2026-02-12	15:40:15.170	-12.67	-14.525	-17.605	-0.834968	-0.450912	-0.101748	0.822	0.7755	0.2655	0	233	156	3
2026-02-12	15:40:15.190	-10.745	-4.41	-13.09	-0.91012	-0.396012	-0.146888	0.822	0.774	0.2715	0	233	156	3
2026-02-12	15:40:15.210	-9.905	0.7	-12.67	-0.960628	-0.416264	-0.247172	0.819	0.7755	0.2745	0	241	154	3
2026-02-12	15:40:15.230	-7.14	0.875	-12.74	-0.978684	-0.452376	-0.287432	0.819	0.777	0.27	0	241	154	3
2026-02-12	15:40:15.250	-7.84	-0.105	-11.2	-0.965264	-0.49166	-0.22448	0.8175	0.7755	0.279	0	241	154	3
2026-02-12	15:40:15.270	-13.335	1.96	-8.225	-0.944524	-0.541436	-0.101016	0.8175	0.7725	0.2865	0	241	154	3
2026-02-12	15:40:15.290	-14.21	5.32	-6.79	-0.94306	-0.598288	-0.011712	0.8175	0.7725	0.2865	0	241	154	3
2026-02-12	15:40:15.310	-8.505	8.54	-7.035	-0.913292	-0.665388	0.02196	0.816	0.7755	0.279	0	241	154	3
2026-02-12	15:40:15.330	-2.94	13.755	-7.35	-0.928664	-0.696132	0.010004	0.81	0.777	0.276	0	241	154	3
2026-02-12	15:40:15.350	-1.4	16.905	-7.245	-0.951112	-0.68076	-0.054168	0.813	0.7785	0.2835	0	241	154	3
2026-02-12	15:40:15.370	5.32	14.105	-9.45	-0.931836	-0.6649	-0.14274	0.819	0.78	0.2805	0	241	154	3
2026-02-12	15:40:15.390	15.295	5.46	-13.93	-0.884012	-0.551684	-0.206424	0.816	0.7785	0.2805	0	241	154	3
2026-02-12	15:40:15.410	15.435	-7.525	-20.72	-0.846436	-0.487756	-0.236924	0.81	0.783	0.285	0	246	155	3
2026-02-12	15:40:15.430	9.065	-17.99	-26.495	-0.779824	-0.49776	-0.219112	0.8085	0.7875	0.282	0	246	155	3
2026-02-12	15:40:15.450	2.73	-22.82	-28.035	-0.75152	-0.507032	-0.20618	0.8115	0.7905	0.2805	0	246	155	3
2026-02-12	15:40:15.470	-0.42	-24.675	-28	-0.72834	-0.526064	-0.189832	0.807	0.792	0.279	0	246	155	3
2026-02-12	15:40:15.490	-6.965	-22.05	-25.375	-0.714188	-0.594384	-0.180804	0.8025	0.7905	0.279	0	246	155	3
2026-02-12	15:40:15.510	-7.56	-16.1	-21	-0.689544	-0.642208	-0.178608	0.8055	0.7965	0.276	0	246	155	3
2026-02-12	15:40:15.530	-3.745	-9.835	-16.94	-0.68076	-0.660264	-0.162504	0.807	0.801	0.2775	0	246	155	3
2026-02-12	15:40:15.550	-3.29	-3.5	-14.175	-0.65758	-0.69906	-0.157136	0.807	0.7995	0.276	0	246	155	3
2026-02-12	15:40:15.570	-3.15	2.73	-12.285	-0.643184	-0.732	-0.151524	0.8085	0.8025	0.2715	0	246	155	3
2026-02-12	15:40:15.590	0.385	7.245	-10.885	-0.63318	-0.746152	-0.148108	0.804	0.8055	0.27	0	246	155	3
2026-02-12	15:40:15.610	6.195	10.22	-10.64	-0.637084	-0.714432	-0.137128	0.7995	0.804	0.27	0	248	155	3
2026-02-12	15:40:15.630	8.54	13.16	-11.655	-0.643428	-0.684664	-0.128588	0.798	0.8085	0.273	0	248	155	3
2026-02-12	15:40:15.650	7.595	14.385	-14.63	-0.646112	-0.65636	-0.122976	0.7935	0.8145	0.2745	0	248	155	3
2026-02-12	15:40:15.670	5.11	15.925	-17.36	-0.66124	-0.632692	-0.12322	0.789	0.8145	0.2745	0	248	155	3
2026-02-12	15:40:15.690	2.625	16.275	-19.32	-0.668072	-0.643916	-0.116876	0.7905	0.8145	0.273	0	248	155	3
2026-02-12	15:40:15.710	2.59	17.08	-18.725	-0.672952	-0.65514	-0.107848	0.792	0.813	0.285	0	248	155	3
2026-02-12	15:40:15.730	1.33	18.655	-17.01	-0.685396	-0.65636	-0.109556	0.786	0.8145	0.282	0	248	155	3
2026-02-12	15:40:15.750	-0.63	20.72	-13.195	-0.716384	-0.641476	-0.1525	0.78	0.819	0.2775	0	248	155	3
2026-02-12	15:40:15.770	-3.465	18.2	-11.13	-0.73322	-0.651968	-0.15494	0.7785	0.819	0.2775	0	248	155	3
2026-02-12	15:40:15.790	-5.81	17.71	-6.755	-0.763476	-0.709796	-0.150792	0.7815	0.8205	0.282	0	248	155	3
2026-02-12	15:40:15.810	-5.18	13.755	-3.57	-0.76006	-0.78324	-0.129808	0.7785	0.816	0.2835	0	246	154	2
2026-02-12	15:40:15.830	-0.805	13.335	2.66	-0.752984	-0.774212	-0.11102	0.7725	0.8145	0.288	0	246	154	2
2026-02-12	15:40:15.850	1.925	10.885	8.295	-0.760548	-0.784216	-0.13054	0.771	0.8205	0.2925	0	246	154	2
2026-02-12	15:40:15.870	5.11	7.735	12.775	-0.779824	-0.787388	-0.137616	0.7695	0.8205	0.291	0	246	154	2
2026-02-12	15:40:15.890	7.07	4.025	16.205	-0.78812	-0.82106	-0.140544	0.7695	0.8205	0.2865	0	246	154	2
2026-02-12	15:40:15.910	12.845	0.385	20.825	-0.805688	-0.8235	-0.122	0.7665	0.819	0.2835	0	246	154	2
2026-02-12	15:40:15.930	18.2	-2.345	25.515	-0.809348	-0.76006	-0.088328	0.7665	0.819	0.2835	0	246	154	2
2026-02-12	15:40:15.950	18.095	-2.03	27.72	-0.8662	-0.745664	-0.03782	0.777	0.8205	0.282	0	246	154	2
2026-02-12	15:40:15.970	15.015	-2.205	27.615	-0.926956	-0.77958	-0.071736	0.783	0.8175	0.2805	0	246	154	2
2026-02-12	15:40:15.990	6.685	-3.045	29.785	-0.913292	-0.777384	-0.173972	0.7815	0.8115	0.2805	0	246	154	2
2026-02-12	15:40:16.010	7.385	-7.035	38.745	-0.839848	-0.789828	-0.113704	0.7845	0.813	0.2805	0	240	149	3
2026-02-12	15:40:16.030	29.995	-12.565	45.85	-0.70028	-0.73688	0.056608	0.789	0.81	0.279	0	240	149	3
2026-02-12	15:40:16.050	46.83	-10.92	48.86	-0.606828	-0.604632	0.04514	0.795	0.804	0.276	0	240	149	3
2026-02-12	15:40:16.070	49.56	-12.425	49.49	-0.540704	-0.353068	-0.023424	0.798	0.8115	0.2715	0	240	149	3
2026-02-12	15:40:16.090	42.63	-23.275	46.445	-0.460428	-0.148108	-0.026596	0.8025	0.8115	0.264	0	240	149	3
2026-02-12	15:40:16.110	22.54	-35.49	40.705	-0.392352	-0.059048	0.0122	0.8085	0.7995	0.258	0	240	149	3
2026-02-12	15:40:16.130	-1.19	-44.45	36.855	-0.39772	-0.194712	0.029036	0.8115	0.795	0.2565	0	240	149	3
2026-02-12	15:40:16.150	-1.54	-50.435	34.72	-0.440176	-0.314516	-0.011712	0.8145	0.7935	0.255	0	240	149	3
2026-02-12	15:40:16.170	6.51	-46.34	33.705	-0.684664	-0.184464	0.011956	0.8235	0.7905	0.2445	0	240	149	3
2026-02-12	15:40:16.190	-10.115	-36.505	26.88	-1.27978	-0.2135	0.02928	0.834	0.789	0.2355	0	240	149	3
2026-02-12	15:40:16.210	-33.005	-37.1	5.39	-1.87148	-0.51362	-0.130296	0.837	0.7845	0.231	0	235	133	3
2026-02-12	15:40:16.230	-43.155	-25.795	2.94	-1.541592	-0.544852	-0.205692	0.8415	0.78	0.2325	0	235	133	3
2026-02-12	15:40:16.250	-50.855	-8.505	11.165	-1.501576	-0.403088	-0.193248	0.846	0.7815	0.2355	0	235	133	3
2026-02-12	15:40:16.270	-91.7	9.205	26.39	-1.493524	-0.708576	-0.222528	0.849	0.7785	0.237	0	235	133	3
2026-02-12	15:40:16.290	-87.92	1.995	28.07	-1.202432	-0.930372	-0.091012	0.8535	0.771	0.243	0	235	133	3
2026-02-12	15:40:16.310	-24.22	-6.755	27.125	-0.90768	-0.835456	0.097112	0.8505	0.7575	0.2445	0	235	133	3
2026-02-12	15:40:16.330	23.73	-3.92	28.525	-0.691252	-0.464332	0.163724	0.846	0.7515	0.2445	0	235	133	3
2026-02-12	15:40:16.350	24.29	-1.75	11.76	-0.577792	-0.259372	0.081984	0.8475	0.756	0.246	0	235	133	3
2026-02-12	15:40:16.370	5.95	-9.905	-7.245	-0.57584	-0.271328	0.003416	0.852	0.7545	0.2475	0	235	133	3
2026-02-12	15:40:16.390	-17.71	-21.315	-25.97	-0.621712	-0.232776	-0.06832	0.8565	0.7515	0.2445	0	235	133	3
2026-02-12	15:40:16.410	-26.39	-30.065	-41.37	-0.671	-0.310856	-0.088328	0.852	0.753	0.24	0	240	113	3
2026-02-12	15:40:16.430	-25.585	-29.96	-49.91	-0.766648	-0.323788	-0.107604	0.8505	0.753	0.2385	0	240	113	3
2026-02-12	15:40:16.450	-19.88	-26.25	-53.795	-0.834236	-0.396012	-0.148108	0.8535	0.753	0.2385	0	240	113	3
2026-02-12	15:40:16.470	-16.38	-18.445	-50.47	-0.884256	-0.39772	-0.147376	0.8475	0.7605	0.237	0	240	113	3
2026-02-12	15:40:16.490	-20.405	-17.43	-45.115	-0.933788	-0.418216	-0.179584	0.843	0.768	0.2355	0	240	113	3
2026-02-12	15:40:16.510	-25.13	-18.41	-37.31	-1.024068	-0.480924	-0.148352	0.849	0.7755	0.234	0	240	113	3
2026-02-12	15:40:16.530	-16.24	-18.83	-28.21	-0.999424	-0.559736	-0.07076	0.8505	0.7755	0.24	0	240	113	3
2026-02-12	15:40:16.550	0.245	-12.74	-15.4	-0.920368	-0.499712	0.030256	0.846	0.7755	0.2385	0	240	113	3
2026-02-12	15:40:16.570	2.66	-3.675	-4.69	-0.895236	-0.4697	0.034648	0.846	0.7785	0.231	0	240	113	3
2026-02-12	15:40:16.590	2.31	-0.245	-0.455	-0.926712	-0.460428	0.022936	0.843	0.7755	0.2295	0	240	113	3
2026-02-12	15:40:16.610	5.355	0.035	-0.175	-0.955748	-0.435052	0.045872	0.84	0.7755	0.231	0	250	97	3
2026-02-12	15:40:16.630	0.035	1.645	-1.75	-1.001132	-0.502396	0.030256	0.84	0.777	0.2295	0	250	97	3
2026-02-12	15:40:16.650	-9.94	-0.805	-3.43	-1.006988	-0.563396	0.014884	0.843	0.7725	0.2265	0	250	97	3
2026-02-12	15:40:16.670	-18.76	-5.81	-4.935	-1.005768	-0.59292	0.00488	0.849	0.774	0.231	0	250	97	3
2026-02-12	15:40:16.690	-22.785	-11.655	-7.315	-0.975268	-0.642208	0.008784	0.8475	0.7785	0.2325	0	250	97	3
2026-02-12	15:40:16.710	-23.38	-15.19	-12.215	-0.928908	-0.711016	0.018544	0.8475	0.774	0.231	0	250	97	3
2026-02-12	15:40:16.730	-19.705	-14	-15.54	-0.8784	-0.725656	-0.004636	0.852	0.777	0.2295	0	250	97	3
2026-02-12	15:40:16.750	-16.31	-10.535	-16.905	-0.80398	-0.723948	-0.100284	0.843	0.78	0.2295	0	250	97	3
2026-02-12	15:40:16.770	-9.31	-9.065	-14.245	-0.74176	-0.60756	-0.175436	0.834	0.777	0.2325	0	250	97	3
2026-02-12	15:40:16.790	-0.315	-16.625	-16.205	-0.671244	-0.56974	-0.1952	0.837	0.777	0.231	0	250	97	3
2026-02-12	15:40:16.810	9.66	-22.645	-18.585	-0.637328	-0.567788	-0.156404	0.84	0.7785	0.2295	0	257	82	3
2026-02-12	15:40:16.830	7.56	-23.345	-19.145	-0.611464	-0.562176	-0.110044	0.84	0.78	0.2265	0	257	82	3
2026-02-12	15:40:16.850	0.805	-19.145	-17.64	-0.611708	-0.606584	-0.051972	0.84	0.7815	0.225	0	257	82	3
2026-02-12	15:40:16.870	-2.835	-10.15	-14.455	-0.629032	-0.64538	-0.020496	0.846	0.786	0.219	0	257	82	3
2026-02-12	15:40:16.890	-4.095	1.82	-10.465	-0.66978	-0.696132	-0.033428	0.8475	0.786	0.219	0	257	82	3
2026-02-12	15:40:16.910	-3.99	11.935	-7.49	-0.6832	-0.72346	-0.071492	0.84	0.789	0.2235	0	257	82	3
2026-02-12	15:40:16.930	0.245	20.195	-3.99	-0.675148	-0.743468	-0.092964	0.843	0.795	0.222	0	257	82	3
2026-02-12	15:40:16.950	8.33	25.585	-1.155	-0.671488	-0.751764	-0.107116	0.8415	0.798	0.225	0	257	82	3
2026-02-12	15:40:16.970	18.515	28.035	0.42	-0.684176	-0.711992	-0.118096	0.8325	0.7965	0.2295	0	257	82	3
2026-02-12	15:40:16.990	27.755	24.99	0.56	-0.676124	-0.636596	-0.106628	0.828	0.7935	0.231	0	257	82	3
2026-02-12	15:40:17.010	24.78	22.12	0.84	-0.699792	-0.593164	-0.10126	0.831	0.795	0.2295	0	260	75	3
2026-02-12	15:40:17.030	15.155	19.635	0.7	-0.750056	-0.596336	-0.09028	0.831	0.7965	0.2265	0	260	75	3
2026-02-12	15:40:17.050	6.685	18.13	0.49	-0.775676	-0.65758	-0.074664	0.8295	0.798	0.2295	0	260	75	3
2026-02-12	15:40:17.070	4.235	20.055	3.465	-0.775188	-0.72346	-0.055632	0.831	0.798	0.2325	0	260	75	3
2026-02-12	15:40:17.090	8.19	24.325	10.045	-0.748104	-0.76006	-0.035624	0.831	0.7965	0.231	0	260	75	3
2026-02-12	15:40:17.110	17.325	30.065	16.8	-0.724436	-0.731268	-0.030012	0.831	0.798	0.234	0	260	75	3
2026-02-12	15:40:17.130	25.48	36.085	22.26	-0.730536	-0.682712	-0.0488	0.831	0.795	0.2385	0	260	75	3
2026-02-12	15:40:17.150	29.82	38.01	25.41	-0.738832	-0.63196	-0.034404	0.825	0.7935	0.2385	0	260	75	3
2026-02-12	15:40:17.170	30.835	38.22	25.585	-0.741028	-0.604388	0.005368	0.822	0.789	0.24	0	260	75	3
2026-02-12	15:40:17.190	29.225	37.485	23.205	-0.748348	-0.600484	0.02074	0.8235	0.7905	0.2475	0	260	75	3
2026-02-12	15:40:17.210	30.065	37.345	21.455	-0.784704	-0.612196	0.012444	0.8265	0.795	0.2535	0	258	72	2
2026-02-12	15:40:17.230	33.355	35.14	19.915	-0.8296	-0.587064	0.00854	0.8235	0.7935	0.249	0	258	72	2
2026-02-12	15:40:17.250	35.77	31.395	18.06	-0.863028	-0.583892	0.01464	0.819	0.795	0.246	0	258	72	2
2026-02-12	15:40:17.270	35.42	25.83	15.085	-0.906704	-0.596336	0.020496	0.816	0.792	0.2475	0	258	72	2
2026-02-12	15:40:17.290	35.385	27.405	19.04	-0.943548	-0.573888	0.042944	0.816	0.789	0.2505	0	258	72	2
2026-02-12	15:40:17.310	32.585	25.97	20.93	-0.930372	-0.583892	0.065148	0.8205	0.795	0.255	0	258	72	2
2026-02-12	15:40:17.330	29.085	27.23	21.105	-0.970144	-0.592188	0.05124	0.822	0.7935	0.252	0	258	72	2
2026-02-12	15:40:17.350	28.35	26.355	21.525	-0.991128	-0.595116	0.054656	0.822	0.792	0.2535	0	258	72	2
2026-02-12	15:40:17.370	24.255	24.605	19.67	-0.974048	-0.519476	0.068564	0.8205	0.7935	0.2565	0	258	72	2
2026-02-12	15:40:17.390	11.76	28.175	17.92	-0.994788	-0.484828	0.043676	0.8145	0.7905	0.252	0	258	72	2
2026-02-12	15:40:17.410	0.665	31.78	21	-0.883036	-0.48312	0.047336	0.8145	0.789	0.255	0	251	61	3
2026-02-12	15:40:17.430	-3.395	34.755	24.185	-0.787632	-0.433344	0.013176	0.8145	0.792	0.258	0	251	61	3
2026-02-12	15:40:17.450	-3.395	30.17	25.69	-0.777872	-0.335988	0.01464	0.816	0.789	0.2565	0	251	61	3
2026-02-12	15:40:17.470	-8.995	14.315	28.595	-0.791536	-0.173484	0.125416	0.816	0.7815	0.2595	0	251	61	3
2026-02-12	15:40:17.490	-34.335	-7.595	27.79	-0.663436	-0.131516	0.101748	0.816	0.777	0.267	0	251	61	3
2026-02-12	15:40:17.510	-60.305	-26.075	25.76	-0.549244	-0.25254	0.014884	0.813	0.774	0.27	0	251	61	3
2026-02-12	15:40:17.530	-52.92	-45.815	21.91	-0.502152	-0.278892	0.023912	0.8085	0.771	0.2685	0	251	61	3
2026-02-12	15:40:17.550	-26.32	-60.41	12.67	-0.439688	-0.326472	0.012688	0.816	0.765	0.264	0	251	61	3
2026-02-12	15:40:17.570	-3.43	-57.995	13.16	-0.695156	-0.291824	-0.01952	0.8265	0.7635	0.261	0	251	61	3
2026-02-12	15:40:17.590	-6.125	-46.725	2.24	-1.368596	-0.307928	-0.182756	0.8295	0.762	0.255	0	251	61	3
2026-02-12	15:40:17.610	-14.14	-47.39	-22.085	-1.689456	-0.569496	-0.311832	0.831	0.7545	0.2475	0	244	44	3
2026-02-12	15:40:17.630	-14.14	-26.775	-22.82	-1.46156	-0.488976	-0.199592	0.834	0.7515	0.2445	0	244	44	3
2026-02-12	15:40:17.650	-46.865	-14.455	-10.675	-1.464976	-0.515816	-0.306708	0.834	0.759	0.243	0	244	44	3
2026-02-12	15:40:17.670	-63.28	-8.995	-1.785	-1.281732	-0.556808	-0.31598	0.8385	0.7635	0.243	0	244	44	3
2026-02-12	15:40:17.690	-59.395	-10.745	2.03	-1.00284	-0.576328	-0.17812	0.8385	0.7605	0.2445	0	244	44	3
2026-02-12	15:40:17.710	-38.85	-13.755	3.64	-0.747128	-0.470432	0.005368	0.8385	0.756	0.246	0	244	44	3
2026-02-12	15:40:17.730	-23.8	-11.06	1.12	-0.593408	-0.438468	0.072224	0.8385	0.75	0.249	0	244	44	3
2026-02-12	15:40:17.750	-15.26	-7.245	-3.29	-0.549732	-0.419192	0.051972	0.84	0.747	0.2505	0	244	44	3
2026-02-12	15:40:17.770	-11.585	-6.405	-10.885	-0.552416	-0.3721	0.011468	0.8415	0.7455	0.249	0	244	44	3
2026-02-12	15:40:17.790	-16.555	-2.24	-19.18	-0.570716	-0.31598	-0.008052	0.837	0.747	0.2505	0	244	44	3
2026-02-12	15:40:17.810	-26.285	1.855	-30.135	-0.6588	-0.35014	-0.037088	0.84	0.747	0.2535	0	242	43	3
2026-02-12	15:40:17.830	-27.02	2.625	-40.32	-0.825696	-0.40504	-0.096868	0.8385	0.744	0.2535	0	242	43	3
2026-02-12	15:40:17.850	-8.505	-1.61	-48.16	-0.920124	-0.48556	-0.174948	0.834	0.747	0.2565	0	242	43	3
2026-02-12	15:40:17.870	15.785	-5.6	-50.26	-0.958188	-0.53314	-0.195688	0.8295	0.756	0.255	0	242	43	3
2026-02-12	15:40:17.890	37.275	-7.595	-45.92	-0.998448	-0.516304	-0.134932	0.825	0.765	0.255	0	242	43	3
2026-02-12	15:40:17.910	40.985	-8.19	-35.875	-0.990152	-0.5246	-0.093452	0.828	0.7725	0.252	0	242	43	3
2026-02-12	15:40:17.930	27.58	-4.34	-25.06	-0.93818	-0.413824	-0.03172	0.825	0.7755	0.249	0	242	43	3
2026-02-12	15:40:17.950	3.92	2.73	-17.955	-0.890112	-0.417972	-0.047336	0.822	0.7815	0.2535	0	242	43	3
2026-02-12	15:40:17.970	0.77	7.105	-13.72	-0.86132	-0.392352	-0.078568	0.8235	0.786	0.2475	0	242	43	3
2026-02-12	15:40:17.990	-4.55	6.125	-13.16	-0.880352	-0.302072	-0.106872	0.819	0.786	0.2445	0	242	43	3
2026-02-12	15:40:18.010	-14.28	-0.77	-18.095	-0.91378	-0.404552	-0.011468	0.816	0.7875	0.2475	0	244	49	3
2026-02-12	15:40:18.030	-11.9	-6.335	-22.155	-0.94428	-0.487512	0.030256	0.8145	0.7905	0.2475	0	244	49	3
2026-02-12	15:40:18.050	-12.11	-14.175	-26.95	-0.993324	-0.602924	0.025864	0.8115	0.7935	0.2475	0	244	49	3
2026-02-12	15:40:18.070	-14.28	-20.335	-28.175	-1.011136	-0.748836	0	0.8055	0.7935	0.2505	0	244	49	3
2026-02-12	15:40:18.090	-10.605	-25.48	-26.845	-0.97234	-0.77958	-0.020008	0.804	0.801	0.2505	0	244	49	3
2026-02-12	15:40:18.110	-5.18	-29.33	-24.57	-0.91622	-0.71858	-0.052948	0.807	0.804	0.243	0	244	49	3
2026-02-12	15:40:18.130	-5.845	-29.96	-23.905	-0.94672	-0.648064	-0.139812	0.81	0.8025	0.237	0	244	49	3
2026-02-12	15:40:18.150	-14.91	-27.265	-25.83	-0.892552	-0.661728	-0.208864	0.8055	0.807	0.237	0	244	49	3
2026-02-12	15:40:18.170	-22.82	-23.905	-27.65	-0.794708	-0.703208	-0.229848	0.8025	0.807	0.237	0	244	49	3
2026-02-12	15:40:18.190	-21.56	-20.16	-25.9	-0.699792	-0.77348	-0.199592	0.8085	0.7995	0.24	0	244	49	3
2026-02-12	15:40:18.210	-11.795	-17.29	-20.37	-0.601216	-0.784948	-0.165676	0.8085	0.8025	0.2385	0	246	58	3
2026-02-12	15:40:18.230	1.05	-13.86	-13.72	-0.552416	-0.756156	-0.132004	0.8085	0.81	0.234	0	246	58	3
2026-02-12	15:40:18.250	7.665	-9.66	-9.17	-0.532408	-0.686616	-0.109312	0.807	0.81	0.2385	0	246	58	3
2026-02-12	15:40:18.270	8.89	-3.255	-8.365	-0.586088	-0.629764	-0.10004	0.8025	0.807	0.24	0	246	58	3
2026-02-12	15:40:18.290	8.61	1.19	-8.68	-0.596336	-0.604632	-0.090524	0.801	0.8085	0.234	0	246	58	3
2026-02-12	15:40:18.310	3.325	5.565	-9.38	-0.61366	-0.558272	-0.127124	0.801	0.8145	0.234	0	246	58	3
2026-02-12	15:40:18.330	-10.92	9.485	-11.305	-0.6405	-0.55754	-0.15128	0.8025	0.8205	0.2355	0	246	58	3
2026-02-12	15:40:18.350	-24.395	11.305	-14.525	-0.65758	-0.597068	-0.193004	0.804	0.8235	0.2355	0	246	58	3
2026-02-12	15:40:18.370	-40.425	11.235	-16.415	-0.6954	-0.595604	-0.229604	0.8025	0.819	0.2385	0	246	58	3
2026-02-12	15:40:18.390	-55.02	10.01	-17.395	-0.728584	-0.663924	-0.260104	0.7965	0.819	0.2415	0	246	58	3
2026-02-12	15:40:18.410	-51.765	7.665	-18.83	-0.706868	-0.739808	-0.247172	0.7965	0.819	0.249	0	247	72	3
2026-02-12	15:40:18.430	-37.73	6.44	-17.92	-0.626836	-0.875472	-0.110288	0.789	0.816	0.252	0	247	72	3
2026-02-12	15:40:18.450	-16.695	13.125	-12.6	-0.585844	-0.9272	0.045384	0.7875	0.81	0.2535	0	247	72	3
2026-02-12	15:40:18.470	5.46	25.55	-3.115	-0.581452	-0.916708	0.068564	0.789	0.8085	0.261	0	247	72	3
2026-02-12	15:40:18.490	19.285	35	2.275	-0.624396	-0.797392	-0.026352	0.7845	0.813	0.2685	0	247	72	3
2026-02-12	15:40:18.510	23.765	35	1.68	-0.650992	-0.739808	-0.08906	0.7815	0.813	0.264	0	247	72	3
2026-02-12	15:40:18.530	26.635	31.85	0.455	-0.656604	-0.73444	-0.092964	0.783	0.8115	0.264	0	247	72	3
2026-02-12	15:40:18.550	27.055	31.71	0.7	-0.669048	-0.73078	-0.07564	0.777	0.813	0.2685	0	247	72	3
2026-02-12	15:40:18.570	28.98	33.495	1.19	-0.69296	-0.709796	-0.086132	0.768	0.8145	0.264	0	247	72	3
2026-02-12	15:40:18.590	29.89	34.93	1.96	-0.71736	-0.70028	-0.07442	0.765	0.8175	0.261	0	247	72	3
2026-02-12	15:40:18.610	31.71	34.335	2.59	-0.706136	-0.706624	-0.058072	0.7665	0.8235	0.2625	0	246	84	2
2026-02-12	15:40:18.630	33.425	34.09	3.955	-0.708332	-0.689544	-0.073444	0.7665	0.8235	0.264	0	246	84	2
2026-02-12	15:40:18.650	33.005	31.325	6.405	-0.731268	-0.634644	-0.11346	0.759	0.8295	0.27	0	246	84	2
2026-02-12	15:40:18.670	31.5	24.01	8.19	-0.732244	-0.642452	-0.080276	0.7575	0.831	0.27	0	246	84	2
2026-02-12	15:40:18.690	30.24	16.66	9.94	-0.72102	-0.68686	0.003416	0.7605	0.828	0.2655	0	246	84	2
2026-02-12	15:40:18.710	32.095	15.26	14.28	-0.73566	-0.741028	0.016348	0.7575	0.8325	0.2625	0	246	84	2
2026-02-12	15:40:18.730	34.405	15.575	19.005	-0.780312	-0.765184	-0.030012	0.7575	0.8385	0.258	0	246	84	2
2026-02-12	15:40:18.750	39.2	13.23	22.085	-0.81618	-0.773968	-0.026596	0.7575	0.8415	0.258	0	246	84	2
2026-02-12	15:40:18.770	45.535	12.215	23.345	-0.831308	-0.834968	0.0183	0.7605	0.8415	0.255	0	246	84	2
2026-02-12	15:40:18.790	52.185	14.245	25.27	-0.844728	-0.858148	0.059292	0.7635	0.837	0.2505	0	246	84	2
2026-02-12	15:40:18.810	55.055	16.59	27.86	-0.8784	-0.850096	0.079788	0.759	0.8385	0.2505	0	241	84	3
2026-02-12	15:40:18.830	55.02	16.065	30.03	-0.882548	-0.820572	0.098088	0.756	0.843	0.2445	0	241	84	3
2026-02-12	15:40:18.850	52.92	14.035	31.22	-0.86986	-0.762744	0.141032	0.7575	0.8445	0.2415	0	241	84	3
2026-02-12	15:40:18.870	50.505	11.515	32.97	-0.814716	-0.685396	0.188612	0.765	0.8475	0.243	0	241	84	3
2026-02-12	15:40:18.890	42.63	12.565	37.03	-0.7869	-0.528748	0.171776	0.7755	0.8475	0.234	0	241	84	3
2026-02-12	15:40:18.910	7.42	1.995	42.945	-0.719556	-0.266204	0.044408	0.78	0.8475	0.228	0	241	84	3
2026-02-12	15:40:18.930	-21.63	-19.005	46.13	-0.551928	-0.244488	-0.00732	0.7785	0.8415	0.231	0	241	84	3
2026-02-12	15:40:18.950	-30.94	-39.06	47.705	-0.38064	-0.2867	-0.018788	0.7755	0.8325	0.2355	0	241	84	3
2026-02-12	15:40:18.970	-22.89	-50.89	47.285	-0.29524	-0.206424	-0.056852	0.78	0.825	0.234	0	241	84	3
2026-02-12	15:40:18.990	-32.795	-49.105	47.915	-0.659532	-0.035868	-0.076616	0.7965	0.825	0.228	0	241	84	3
2026-02-12	15:40:19.010	-42.805	-51.485	36.085	-1.242204	-0.224236	-0.06588	0.8025	0.825	0.2235	0	237	65	3
2026-02-12	15:40:19.030	-44.835	-65.24	-4.585	-1.386896	-0.579988	-0.049776	0.7995	0.81	0.219	0	237	65	3
2026-02-12	15:40:19.050	-29.54	-47.18	-17.675	-1.244156	-0.76372	0.052948	0.8055	0.7995	0.222	0	237	65	3
2026-02-12	15:40:19.070	-31.71	-5.81	7.595	-1.214632	-0.7381	-0.004636	0.8085	0.801	0.2235	0	237	65	3
2026-02-12	15:40:19.090	-31.325	23.625	30.31	-1.166076	-0.700036	-0.16104	0.81	0.7995	0.2235	0	237	65	3
2026-02-12	15:40:19.110	-20.755	24.01	28.35	-1.000888	-0.652456	-0.115412	0.8145	0.795	0.2295	0	237	65	3
2026-02-12	15:40:19.130	-1.26	18.06	18.585	-0.811788	-0.528016	0.04636	0.813	0.786	0.2325	0	237	65	3
2026-02-12	15:40:19.150	-3.5	17.115	11.585	-0.701988	-0.404064	0.065392	0.81	0.786	0.2355	0	237	65	3
2026-02-12	15:40:19.170	-17.99	14.315	0.455	-0.6344	-0.343064	-0.027084	0.81	0.7875	0.2385	0	237	65	3
2026-02-12	15:40:19.190	-33.005	8.68	-13.3	-0.64782	-0.299876	-0.113704	0.81	0.7845	0.237	0	237	65	3
2026-02-12	15:40:19.210	-40.565	-1.26	-27.545	-0.662704	-0.321592	-0.13786	0.8085	0.7875	0.24	0	238	49	3
2026-02-12	15:40:19.230	-43.995	-7.49	-38.78	-0.701988	-0.34404	-0.13176	0.804	0.7875	0.243	0	238	49	3
2026-02-12	15:40:19.250	-42.665	-7.14	-44.205	-0.724924	-0.382592	-0.116388	0.801	0.7875	0.2445	0	238	49	3
2026-02-12	15:40:19.270	-40.32	-0.98	-45.22	-0.765184	-0.388936	-0.097112	0.798	0.7875	0.2475	0	238	49	3
2026-02-12	15:40:19.290	-42.07	5.39	-43.47	-0.81374	-0.467748	-0.129564	0.7935	0.786	0.2535	0	238	49	3
2026-02-12	15:40:19.310	-41.825	11.375	-38.745	-0.871812	-0.552904	-0.156892	0.789	0.789	0.261	0	238	49	3
2026-02-12	15:40:19.330	-25.725	16.24	-30.555	-0.942572	-0.562176	-0.148596	0.7875	0.795	0.2655	0	238	49	3
2026-02-12	15:40:19.350	-9.135	17.605	-24.255	-0.978684	-0.569008	-0.097356	0.783	0.7935	0.264	0	238	49	3
2026-02-12	15:40:19.370	0.28	17.01	-20.405	-0.96014	-0.618784	-0.06832	0.7785	0.795	0.2625	0	238	49	3
2026-02-12	15:40:19.390	9.905	19.635	-16.275	-0.957212	-0.57096	-0.092476	0.774	0.7935	0.2655	0	238	49	3
2026-02-12	15:40:19.410	19.215	19.74	-13.405	-0.959164	-0.597068	-0.151524	0.771	0.7935	0.2715	0	241	47	3
2026-02-12	15:40:19.430	27.965	17.045	-11.27	-0.991128	-0.612684	-0.136396	0.768	0.798	0.273	0	241	47	3
2026-02-12	15:40:19.450	33.81	13.335	-10.92	-0.972828	-0.70516	-0.080032	0.7635	0.801	0.2745	0	241	47	3
2026-02-12	15:40:19.470	40.67	14.245	-9.94	-0.93452	-0.711504	-0.029524	0.762	0.8025	0.27	0	241	47	3
2026-02-12	15:40:19.490	42.105	19.775	-7.665	-0.93086	-0.716384	-0.053924	0.7635	0.81	0.2685	0	241	47	3
2026-02-12	15:40:19.510	35.525	21.14	-7.63	-0.902556	-0.7259	-0.162748	0.7605	0.8175	0.2685	0	241	47	3
2026-02-12	15:40:19.530	28.385	14.735	-11.62	-0.81618	-0.697596	-0.268888	0.753	0.8205	0.264	0	241	47	3
2026-02-12	15:40:19.550	17.885	-1.225	-23.31	-0.674904	-0.68564	-0.22814	0.747	0.8235	0.2625	0	241	47	3
2026-02-12	15:40:19.570	10.5	-4.655	-28.14	-0.599264	-0.694424	-0.196664	0.7455	0.825	0.261	0	241	47	3
2026-02-12	15:40:19.590	4.83	-3.465	-29.12	-0.567056	-0.740296	-0.217404	0.7425	0.831	0.264	0	241	47	3
2026-02-12	15:40:19.610	3.85	-0.35	-28	-0.582916	-0.732488	-0.23058	0.7455	0.8355	0.261	0	244	61	3
2026-02-12	15:40:19.630	9.555	0.98	-25.795	-0.578036	-0.714676	-0.207156	0.744	0.837	0.258	0	244	61	3
2026-02-12	15:40:19.650	15.4	7.98	-19.74	-0.601216	-0.66124	-0.16836	0.738	0.8325	0.2595	0	244	61	3
2026-02-12	15:40:19.670	18.41	16.625	-13.09	-0.643184	-0.6588	-0.16226	0.738	0.8325	0.258	0	244	61	3
2026-02-12	15:40:19.690	18.235	22.33	-8.855	-0.679052	-0.656604	-0.167384	0.7335	0.84	0.2565	0	244	61	3
2026-02-12	15:40:19.710	18.305	23.59	-5.53	-0.67588	-0.669292	-0.158112	0.7275	0.846	0.2565	0	244	61	3
2026-02-12	15:40:19.730	18.305	23.94	-0.875	-0.679052	-0.700524	-0.150304	0.726	0.8445	0.2565	0	244	61	3
2026-02-12	15:40:19.750	19.74	21.805	4.83	-0.663192	-0.696376	-0.147864	0.7275	0.843	0.2565	0	244	61	3
2026-02-12	15:40:19.770	18.165	17.99	7.455	-0.663192	-0.678564	-0.16836	0.726	0.849	0.2535	0	244	61	3
2026-02-12	15:40:19.790	14.91	14.035	7.77	-0.660996	-0.658312	-0.139324	0.723	0.852	0.2565	0	244	61	3
2026-02-12	15:40:19.810	10.85	12.18	7.35	-0.669292	-0.676368	-0.103212	0.7245	0.8505	0.255	0	244	85	3
2026-02-12	15:40:19.830	8.12	12.11	6.895	-0.653432	-0.710528	-0.065392	0.7275	0.846	0.252	0	244	85	3
2026-02-12	15:40:19.850	7	16.345	7.98	-0.689056	-0.714188	-0.057584	0.7215	0.8415	0.255	0	244	85	3
2026-02-12	15:40:19.870	3.99	20.16	9.555	-0.804956	-0.643184	-0.101016	0.7215	0.8445	0.258	0	244	85	3
2026-02-12	15:40:19.890	1.47	13.545	7.945	-0.838628	-0.613904	-0.134444	0.726	0.8505	0.261	0	244	85	3
2026-02-12	15:40:19.910	-1.995	2.17	5.985	-0.777384	-0.624152	-0.11834	0.7185	0.849	0.2625	0	244	85	3
2026-02-12	15:40:19.930	-4.2	-4.97	6.86	-0.707112	-0.650748	-0.078324	0.714	0.8445	0.2595	0	244	85	3
2026-02-12	15:40:19.950	-4.025	-9.485	8.925	-0.666364	-0.644892	-0.034648	0.7185	0.843	0.255	0	244	85	3
2026-02-12	15:40:19.970	-5.11	-11.97	9.835	-0.702232	-0.636108	-0.04758	0.7215	0.843	0.2535	0	244	85	3
2026-02-12	15:40:19.990	-6.825	-15.015	7.91	-0.72956	-0.641964	-0.056364	0.7215	0.843	0.2535	0	244	85	3
2026-02-12	15:40:20.010	-7.42	-17.5	7.07	-0.722972	-0.68442	-0.038552	0.723	0.8445	0.258	0	240	100	2
2026-02-12	15:40:20.030	-4.69	-15.33	10.115	-0.734196	-0.706624	-0.0244	0.726	0.843	0.261	0	240	100	2
2026-02-12	15:40:20.050	-1.4	-11.165	13.965	-0.75152	-0.699792	-0.005124	0.732	0.8385	0.2625	0	240	100	2
2026-02-12	15:40:20.070	1.365	-6.545	17.36	-0.79178	-0.694912	-0.006344	0.732	0.8355	0.264	0	240	100	2
2026-02-12	15:40:20.090	3.115	-3.85	19.495	-0.854976	-0.706868	-0.020496	0.7335	0.8355	0.261	0	240	100	2
2026-02-12	15:40:20.110	9.24	-5.74	21.595	-0.8723	-0.75762	0.005124	0.7365	0.837	0.258	0	240	100	2
2026-02-12	15:40:20.130	21.665	-6.475	26.25	-0.859612	-0.761036	0.064416	0.7395	0.837	0.258	0	240	100	2
2026-02-12	15:40:20.150	30.03	-3.15	31.43	-0.858392	-0.714676	0.098332	0.7425	0.834	0.2535	0	240	100	2
2026-02-12	15:40:20.170	34.125	0.7	35.49	-0.8906	-0.68442	0.072468	0.744	0.8325	0.2505	0	240	100	2
2026-02-12	15:40:20.190	34.335	1.33	39.06	-0.91988	-0.610488	0.05612	0.7425	0.834	0.2475	0	240	100	2
2026-02-12	15:40:20.210	30.065	-1.05	41.37	-0.850584	-0.575596	0.08052	0.7455	0.8355	0.24	0	231	94	3
2026-02-12	15:40:20.230	17.57	-1.925	42.14	-0.798368	-0.54046	0.06954	0.753	0.831	0.2385	0	231	94	3
2026-02-12	15:40:20.250	9.8	-4.62	42.035	-0.739808	-0.569496	0.026108	0.7575	0.828	0.243	0	231	94	3
2026-02-12	15:40:20.270	13.44	-10.15	39.795	-0.64294	-0.485072	0.0488	0.7605	0.8265	0.2385	0	231	94	3
2026-02-12	15:40:20.290	20.86	-16.065	35.945	-0.547292	-0.419924	0.048068	0.765	0.822	0.234	0	231	94	3
2026-02-12	15:40:20.310	23.38	-22.05	31.255	-0.514596	-0.3416	0.000244	0.771	0.8175	0.2355	0	231	94	3
2026-02-12	15:40:20.330	15.82	-27.755	25.655	-0.597556	-0.18544	-0.0366	0.7755	0.8175	0.2325	0	231	94	3
2026-02-12	15:40:20.350	-4.69	-30.73	13.615	-0.815448	-0.20496	-0.007564	0.78	0.813	0.225	0	231	94	3
2026-02-12	15:40:20.370	-30.835	-30.1	-10.255	-0.988688	-0.303292	-0.078324	0.7815	0.8145	0.219	0	231	94	3
2026-02-12	15:40:20.390	-59.955	-15.82	-25.69	-1.153632	-0.348188	-0.134444	0.7785	0.8145	0.2205	0	231	94	3
2026-02-12	15:40:20.410	-65.065	0.245	-20.545	-1.198772	-0.515328	-0.166896	0.777	0.8085	0.2265	0	223	74	3
2026-02-12	15:40:20.430	-59.15	16.73	-7.91	-1.2322	-0.402356	-0.1647	0.7725	0.813	0.234	0	223	74	3
2026-02-12	15:40:20.450	-76.895	23.835	-4.34	-1.189256	-0.629764	-0.181536	0.7695	0.81	0.2415	0	223	74	3
2026-02-12	15:40:20.470	-77.035	21.21	2.66	-1.073356	-0.703208	-0.118096	0.771	0.7995	0.246	0	223	74	3
2026-02-12	15:40:20.490	-58.835	16.73	7.07	-0.940864	-0.638548	-0.024888	0.768	0.795	0.255	0	223	74	3
2026-02-12	15:40:20.510	-42.98	13.335	7.035	-0.779824	-0.510204	-0.007076	0.765	0.7935	0.2625	0	223	74	3
2026-02-12	15:40:20.530	-38.43	12.705	1.54	-0.659044	-0.395524	-0.025864	0.7665	0.7875	0.2685	0	223	74	3
2026-02-12	15:40:20.550	-43.855	12.495	-6.09	-0.630496	-0.333304	-0.05856	0.768	0.78	0.27	0	223	74	3
2026-02-12	15:40:20.570	-51.8	8.855	-16.8	-0.640744	-0.32574	-0.105408	0.7665	0.7785	0.273	0	223	74	3
2026-02-12	15:40:20.590	-56.84	2.38	-28.385	-0.672464	-0.313784	-0.147376	0.7605	0.7785	0.282	0	223	74	3
2026-02-12	15:40:20.610	-58.905	-4.06	-43.645	-0.758108	-0.325008	-0.144692	0.7545	0.7755	0.291	0	219	64	3
2026-02-12	15:40:20.630	-60.655	-5.46	-49.385	-0.793732	-0.407968	-0.162016	0.759	0.774	0.2925	0	219	64	3
2026-02-12	15:40:20.650	-59.64	-4.585	-49.735	-0.871812	-0.444812	-0.158844	0.7575	0.7725	0.2925	0	219	64	3
2026-02-12	15:40:20.670	-55.72	-7.49	-48.3	-0.94672	-0.457988	-0.19032	0.75	0.774	0.2925	0	219	64	3
2026-02-12	15:40:20.690	-53.41	-12.985	-46.2	-0.993812	-0.479216	-0.21228	0.7515	0.777	0.294	0	219	64	3
2026-02-12	15:40:20.710	-50.435	-18.445	-42.805	-1.025288	-0.568032	-0.230336	0.75	0.7695	0.3015	0	219	64	3
2026-02-12	15:40:20.730	-41.16	-23.275	-37.485	-1.026996	-0.634644	-0.221552	0.7455	0.7635	0.3045	0	219	64	3
2026-02-12	15:40:20.750	-28.35	-24.5	-29.155	-0.971364	-0.687836	-0.18056	0.741	0.7635	0.306	0	219	64	3
2026-02-12	15:40:20.770	-14.21	-22.435	-20.055	-0.896212	-0.632448	-0.156648	0.735	0.7635	0.3045	0	219	64	3
2026-02-12	15:40:20.790	-0.14	-15.645	-14.735	-0.894748	-0.594872	-0.17324	0.7395	0.765	0.3045	0	219	64	3
2026-02-12	15:40:20.810	9.415	-9.835	-12.39	-0.898652	-0.600728	-0.199836	0.7455	0.7695	0.3075	0	218	73	3
2026-02-12	15:40:20.830	11.48	-3.92	-10.64	-0.854732	-0.651724	-0.21106	0.738	0.768	0.303	0	218	73	3
2026-02-12	15:40:20.850	5.88	0.945	-8.4	-0.84424	-0.707844	-0.215696	0.741	0.7665	0.2985	0	218	73	3
2026-02-12	15:40:20.870	-2.87	4.585	-7.63	-0.855708	-0.776652	-0.242292	0.7455	0.7725	0.3015	0	218	73	3
2026-02-12	15:40:20.890	-10.815	3.36	-10.15	-0.795196	-0.854976	-0.2928	0.741	0.7755	0.303	0	218	73	3
2026-02-12	15:40:20.910	-12.705	0.63	-13.65	-0.702232	-0.867908	-0.355508	0.7425	0.774	0.2985	0	218	73	3
2026-02-12	15:40:20.930	-13.265	-3.255	-17.045	-0.59658	-0.814716	-0.373808	0.741	0.774	0.3015	0	218	73	3
2026-02-12	15:40:20.950	-11.97	-5.39	-20.895	-0.518988	-0.765916	-0.359412	0.738	0.7755	0.3045	0	218	73	3
2026-02-12	15:40:20.970	-10.08	-6.615	-24.535	-0.477508	-0.711016	-0.352092	0.741	0.7695	0.3015	0	218	73	3
2026-02-12	15:40:20.990	-7.14	-6.93	-27.755	-0.464088	-0.739076	-0.350872	0.7365	0.7695	0.3045	0	218	73	3
2026-02-12	15:40:21.010	-3.57	-2.905	-26.88	-0.478484	-0.715652	-0.309148	0.7305	0.777	0.312	0	218	104	3
2026-02-12	15:40:21.030	4.025	8.82	-20.23	-0.50996	-0.737124	-0.299144	0.7305	0.774	0.3075	0	218	104	3
2026-02-12	15:40:21.050	15.855	22.12	-11.9	-0.562176	-0.720044	-0.306708	0.735	0.777	0.3	0	218	104	3
2026-02-12	15:40:21.070	24.675	29.645	-7.21	-0.589992	-0.723704	-0.325252	0.735	0.78	0.3045	0	218	104	3
2026-02-12	15:40:21.090	28.84	34.37	-3.115	-0.595604	-0.70516	-0.304268	0.7305	0.78	0.3075	0	218	104	3
2026-02-12	15:40:21.110	28.945	37.8	1.435	-0.589748	-0.712724	-0.289872	0.723	0.7815	0.3105	0	218	104	3
2026-02-12	15:40:21.130	29.015	39.62	4.165	-0.614148	-0.715408	-0.297192	0.7185	0.783	0.3105	0	218	104	3
2026-02-12	15:40:21.150	30.52	37.415	4.2	-0.619028	-0.7076	-0.293776	0.7155	0.786	0.3045	0	218	104	3
2026-02-12	15:40:21.170	31.465	34.23	5.88	-0.601948	-0.713456	-0.257176	0.714	0.789	0.3105	0	218	104	3
2026-02-12	15:40:21.190	29.82	34.3	10.115	-0.61122	-0.710528	-0.216916	0.7095	0.7935	0.3165	0	218	104	3
2026-02-12	15:40:21.210	26.845	33.915	13.685	-0.642208	-0.708332	-0.191296	0.705	0.798	0.315	0	220	149	2
2026-02-12	15:40:21.230	23.415	31.535	15.225	-0.677344	-0.683688	-0.194224	0.7035	0.7965	0.309	0	220	149	2
2026-02-12	15:40:21.250	17.92	25.34	16.345	-0.686616	-0.66856	-0.220088	0.6975	0.7935	0.309	0	220	149	2
2026-02-12	15:40:21.270	15.61	22.575	19.005	-0.68808	-0.687104	-0.244976	0.6975	0.7965	0.309	0	220	149	2
2026-02-12	15:40:21.290	15.995	19.04	22.61	-0.686372	-0.676856	-0.246196	0.699	0.7995	0.3105	0	220	149	2
2026-02-12	15:40:21.310	17.325	16.87	24.255	-0.698816	-0.612196	-0.204228	0.699	0.7995	0.315	0	220	149	2
2026-02-12	15:40:21.330	15.365	15.505	24.92	-0.704916	-0.626104	-0.197152	0.702	0.792	0.3105	0	220	149	2
2026-02-12	15:40:21.350	10.15	15.05	26.005	-0.720532	-0.655384	-0.189588	0.7035	0.792	0.3075	0	220	149	2
2026-02-12	15:40:21.370	6.79	12.39	26.04	-0.727852	-0.690032	-0.207156	0.7005	0.7965	0.309	0	220	149	2
2026-02-12	15:40:21.390	8.225	7.945	25.06	-0.73566	-0.681248	-0.211304	0.6975	0.798	0.306	0	220	149	2
2026-02-12	15:40:21.410	11.76	2.625	25.27	-0.735416	-0.658068	-0.191296	0.7035	0.795	0.306	0	219	183	2
2026-02-12	15:40:21.430	12.53	-2.345	24.22	-0.737124	-0.66368	-0.178608	0.7095	0.792	0.309	0	219	183	2
2026-02-12	15:40:21.450	13.895	-3.5	24.045	-0.762256	-0.676124	-0.166164	0.708	0.792	0.3075	0	219	183	2
2026-02-12	15:40:21.470	19.355	-5.775	23.905	-0.771284	-0.701012	-0.136884	0.711	0.7905	0.306	0	219	183	2
2026-02-12	15:40:21.490	24.71	-5.39	25.795	-0.777384	-0.729804	-0.105164	0.714	0.7935	0.303	0	219	183	2
2026-02-12	15:40:21.510	31.815	-0.7	30.24	-0.827404	-0.701256	-0.065148	0.7125	0.795	0.3015	0	219	183	2
2026-02-12	15:40:21.530	36.68	-0.595	29.68	-0.821792	-0.6832	-0.06588	0.711	0.792	0.3	0	219	183	2
2026-02-12	15:40:21.550	40.46	5.145	31.15	-0.876448	-0.6344	-0.07564	0.714	0.7875	0.3	0	219	183	2
2026-02-12	15:40:21.570	39.305	2.66	30.45	-0.911584	-0.65148	-0.08662	0.7185	0.792	0.2985	0	219	183	2
2026-02-12	15:40:21.590	41.195	-0.84	30.765	-0.91134	-0.663192	-0.060512	0.7245	0.7935	0.2955	0	219	183	2
2026-02-12	15:40:21.610	44.66	-2.73	36.4	-0.901092	-0.67222	-0.01098	0.726	0.7905	0.288	0	214	191	3
2026-02-12	15:40:21.630	47.635	-8.155	38.78	-0.86376	-0.624884	0.028304	0.7275	0.7905	0.2865	0	214	191	3
2026-02-12	15:40:21.650	46.97	-11.095	40.88	-0.885964	-0.518988	0.02318	0.729	0.7905	0.2835	0	214	191	3
2026-02-12	15:40:21.670	40.25	-18.2	41.23	-0.86986	-0.38796	0.02684	0.735	0.7965	0.27	0	214	191	3
2026-02-12	15:40:21.690	23.59	-26.74	39.235	-0.832528	-0.325252	-0.01708	0.744	0.7995	0.264	0	214	191	3
2026-02-12	15:40:21.710	9.1	-32.55	34.79	-0.85522	-0.332084	-0.050752	0.7485	0.798	0.2625	0	214	191	3
2026-02-12	15:40:21.730	4.375	-37.8	29.19	-0.800808	-0.338672	-0.05002	0.753	0.795	0.264	0	214	191	3
2026-02-12	15:40:21.750	4.655	-40.355	21.84	-0.76616	-0.224724	-0.035868	0.762	0.786	0.264	0	214	191	3
2026-02-12	15:40:21.770	2.52	-35.875	14.21	-0.823012	-0.143716	-0.02074	0.765	0.7845	0.2595	0	214	191	3
2026-02-12	15:40:21.790	-8.855	-29.26	3.22	-0.884012	-0.070516	0.028304	0.765	0.789	0.252	0	214	191	3
2026-02-12	15:40:21.810	-36.26	-17.36	-7.875	-0.956724	-0.08052	0.026352	0.768	0.7875	0.246	0	209	171	3
2026-02-12	15:40:21.830	-66.36	-3.5	-19.075	-1.072868	-0.237656	-0.00976	0.7665	0.7815	0.249	0	209	171	3
2026-02-12	15:40:21.850	-81.69	4.76	-27.37	-1.174616	-0.455792	-0.089548	0.7695	0.777	0.2595	0	209	171	3
2026-02-12	15:40:21.870	-78.68	9.065	-25.9	-1.157048	-0.65392	-0.147132	0.7695	0.777	0.267	0	209	171	3
2026-02-12	15:40:21.890	-65.275	6.685	-21.105	-0.906948	-0.558028	-0.114192	0.759	0.7725	0.2655	0	209	171	3
2026-02-12	15:40:21.910	-65.38	8.645	-19.915	-0.810812	-0.45506	-0.09857599	0.7605	0.7725	0.273	0	209	171	3
2026-02-12	15:40:21.930	-66.115	10.85	-23.205	-0.775676	-0.432124	-0.09516	0.762	0.768	0.2805	0	209	171	3
2026-02-12	15:40:21.950	-66.71	10.15	-28.14	-0.770552	-0.427488	-0.131028	0.756	0.7575	0.2805	0	209	171	3
2026-02-12	15:40:21.970	-62.3	5.04	-34.16	-0.748836	-0.440664	-0.14762	0.7515	0.759	0.285	0	209	171	3
2026-02-12	15:40:21.990	-54.74	1.19	-38.115	-0.740784	-0.4514	-0.142252	0.7485	0.7545	0.297	0	209	171	3
2026-02-12	15:40:22.010	-45.15	-2.31	-40.6	-0.749324	-0.433832	-0.170556	0.747	0.7545	0.3	0	207	144	3
2026-02-12	15:40:22.030	-38.535	-7.56	-41.335	-0.772504	-0.389668	-0.23424	0.741	0.7545	0.2985	0	207	144	3
2026-02-12	15:40:22.050	-39.725	-16.555	-42.84	-0.804956	-0.40748	-0.27816	0.741	0.75	0.303	0	207	144	3
2026-02-12	15:40:22.070	-38.36	-28	-47.005	-0.81618	-0.502396	-0.311832	0.747	0.75	0.3045	0	207	144	3
2026-02-12	15:40:22.090	-31.43	-33.53	-48.755	-0.874496	-0.55632	-0.314516	0.738	0.7485	0.303	0	207	144	3
2026-02-12	15:40:22.110	-13.16	-30.765	-44.485	-0.8845	-0.7076	-0.316468	0.735	0.75	0.2985	0	207	144	3
2026-02-12	15:40:22.130	-1.505	-23.24	-39.41	-0.88328	-0.706868	-0.253272	0.735	0.7515	0.2955	0	207	144	3
2026-02-12	15:40:22.150	0.77	-8.785	-34.965	-0.929884	-0.747616	-0.251564	0.732	0.753	0.2955	0	207	144	3
2026-02-12	15:40:22.170	1.785	4.55	-29.855	-0.879376	-0.762744	-0.337452	0.735	0.7605	0.294	0	207	144	3
2026-02-12	15:40:22.190	3.115	14.14	-22.715	-0.893528	-0.760792	-0.357948	0.732	0.765	0.294	0	207	144	3
2026-02-12	15:40:22.210	-1.855	24.535	-12.005	-0.900604	-0.903288	-0.36966	0.726	0.765	0.294	0	207	142	3
2026-02-12	15:40:22.230	6.475	23.52	-3.255	-0.773724	-0.914024	-0.357948	0.7245	0.7665	0.2955	0	207	142	3
2026-02-12	15:40:22.250	15.26	18.41	-0.49	-0.648064	-0.811056	-0.319396	0.726	0.7695	0.2985	0	207	142	3
2026-02-12	15:40:22.270	11.445	15.47	-1.47	-0.548756	-0.76738	-0.269864	0.723	0.7725	0.3015	0	207	142	3
2026-02-12	15:40:22.290	3.255	13.335	-4.06	-0.49654	-0.749324	-0.278404	0.7185	0.7725	0.3	0	207	142	3
2026-02-12	15:40:22.310	-3.325	9.87	-11.06	-0.497028	-0.75884	-0.276696	0.7185	0.7695	0.3	0	207	142	3
2026-02-12	15:40:22.330	-0.56	10.675	-18.2	-0.547536	-0.76982	-0.306708	0.717	0.7665	0.303	0	207	142	3
2026-02-12	15:40:22.350	10.675	11.62	-19.88	-0.557052	-0.763476	-0.305732	0.7185	0.7695	0.2985	0	207	142	3
2026-02-12	15:40:22.370	24.71	14.63	-18.2	-0.580476	-0.75762	-0.317932	0.7155	0.7725	0.3015	0	207	142	3
2026-02-12	15:40:22.390	35.14	15.47	-15.89	-0.596092	-0.71736	-0.332328	0.705	0.7755	0.3045	0	207	142	3
2026-02-12	15:40:22.410	38.92	16.8	-12.145	-0.58438	-0.663436	-0.352092	0.699	0.777	0.297	0	210	168	3
2026-02-12	15:40:22.430	35.42	18.83	-6.475	-0.57584	-0.619272	-0.34038	0.702	0.78	0.2955	0	210	168	3
2026-02-12	15:40:22.450	27.965	20.685	-2.45	-0.576816	-0.631228	-0.310124	0.705	0.7845	0.297	0	210	168	3
2026-02-12	15:40:22.470	20.755	21.525	-0.63	-0.594872	-0.686128	-0.284504	0.702	0.7905	0.3	0	210	168	3
2026-02-12	15:40:22.490	18.06	22.715	2.135	-0.595604	-0.73444	-0.253516	0.6975	0.795	0.3	0	210	168	3
2026-02-12	15:40:22.510	19.495	24.99	7.175	-0.588528	-0.766648	-0.197884	0.6915	0.7905	0.3	0	210	168	3
2026-02-12	15:40:22.530	28.14	29.855	14.805	-0.624152	-0.771528	-0.170556	0.687	0.7905	0.2985	0	210	168	3
2026-02-12	15:40:22.550	32.13	29.82	17.22	-0.678564	-0.740784	-0.206424	0.6915	0.798	0.2925	0	210	168	3
2026-02-12	15:40:22.570	34.23	25.235	17.675	-0.707356	-0.716628	-0.22814	0.6915	0.801	0.2925	0	210	168	3
2026-02-12	15:40:22.590	35.49	20.125	17.99	-0.70516	-0.73444	-0.204472	0.6885	0.7995	0.2985	0	210	168	3
2026-02-12	15:40:22.610	37.485	17.99	19.915	-0.683444	-0.725412	-0.141764	0.687	0.801	0.303	0	212	199	2
2026-02-12	15:40:22.630	37.17	19.145	21.735	-0.674172	-0.686128	-0.12688	0.6855	0.8055	0.3	0	212	199	2
2026-02-12	15:40:22.650	33.95	19.775	22.365	-0.650016	-0.698816	-0.146644	0.687	0.804	0.2895	0	212	199	2
2026-02-12	15:40:22.670	37.73	21.35	24.395	-0.682224	-0.665876	-0.14274	0.69	0.804	0.2805	0	212	199	2
2026-02-12	15:40:22.690	41.895	21.14	24.675	-0.662704	-0.651724	-0.102236	0.6945	0.807	0.2775	0	212	199	2
2026-02-12	15:40:22.710	43.96	23.17	24.92	-0.681492	-0.666608	-0.094428	0.693	0.8085	0.279	0	212	199	2
2026-02-12	15:40:22.730	46.655	23.765	26.355	-0.723216	-0.653432	-0.101992	0.6945	0.81	0.2805	0	212	199	2
2026-02-12	15:40:22.750	46.235	22.33	28.455	-0.762988	-0.657092	-0.101504	0.702	0.8115	0.282	0	212	199	2
2026-02-12	15:40:22.770	44.17	18.095	29.995	-0.771528	-0.697596	-0.07905599	0.699	0.816	0.279	0	212	199	2
2026-02-12	15:40:22.790	44.065	16.38	33.005	-0.793488	-0.680516	-0.034404	0.696	0.822	0.2775	0	212	199	2
2026-02-12	15:40:22.810	43.75	14.77	35.175	-0.8174	-0.694912	-0.008052	0.696	0.822	0.273	0	212	208	3
2026-02-12	15:40:22.830	45.185	11.725	35.91	-0.8235	-0.710528	-0.016104	0.6975	0.819	0.2655	0	212	208	3
2026-02-12	15:40:22.850	49.14	7.595	36.96	-0.843996	-0.691252	-0.021716	0.6975	0.819	0.264	0	212	208	3
2026-02-12	15:40:22.870	51.835	2.555	37.415	-0.843264	-0.662948	-0.001708	0.6975	0.822	0.264	0	212	208	3
2026-02-12	15:40:22.890	52.64	-1.295	37.66	-0.805688	-0.639768	0.026596	0.7035	0.8235	0.2565	0	212	208	3
2026-02-12	15:40:22.910	51.065	-2.03	37.205	-0.764452	-0.592432	0.049044	0.711	0.8205	0.249	0	212	208	3
2026-02-12	15:40:22.930	44.345	-0.84	36.61	-0.790072	-0.515084	0.051484	0.714	0.822	0.2445	0	212	208	3
2026-02-12	15:40:22.950	33.95	-6.79	35.07	-0.811056	-0.481656	0.073932	0.7155	0.825	0.24	0	212	208	3
2026-02-12	15:40:22.970	28.245	-15.96	33.46	-0.791536	-0.543632	0.116144	0.7185	0.822	0.2355	0	212	208	3
2026-02-12	15:40:22.990	26.215	-18.76	35.7	-0.795196	-0.554856	0.129808	0.7215	0.822	0.2325	0	212	208	3
2026-02-12	15:40:23.010	19.145	-16.485	36.68	-0.943792	-0.4514	0.052704	0.729	0.822	0.234	0	210	182	3
2026-02-12	15:40:23.030	7.525	-20.79	30.205	-1.037732	-0.302804	-0.02562	0.7335	0.8175	0.2265	0	210	182	3
