yyyy-MM-dd	HH:mm:ss.fff	gyrX	gyrY	gyrZ	accX	accY	accZ	magX	magY	magZ	Marker	Energy	Angle	Classification
2026-02-12	15:39:54.010	146.37	-167.335	152.25	1.486448	0.2318	0.334524	-0.249	0.1665	0.153	0	181	178	3
2026-02-12	15:39:54.030	97.23	-160.02	149.87	1.441064	0.23424	0.448228	-0.2535	0.1785	0.1635	0	181	178	3
2026-02-12	15:39:54.050	24.36	-148.365	144.76	1.34566	0.205936	0.446032	-0.2475	0.189	0.18	0	181	178	3
2026-02-12	15:39:54.070	-44.87	-138.355	135.835	1.245376	0.155916	0.331596	-0.246	0.204	0.1965	0	181	178	3
2026-02-12	15:39:54.090	-86.555	-131.53	122.08	1.14436	0.170556	0.198372	-0.2475	0.222	0.2205	0	181	178	3
2026-02-12	15:39:54.110	-113.365	-128.52	105.735	1.085068	0.21716	0.092964	-0.2355	0.243	0.2415	0	181	178	3
2026-02-12	15:39:54.130	-135.45	-128.345	88.585	1.102148	0.214476	0.056364	-0.2295	0.2595	0.264	0	181	178	3
2026-02-12	15:39:54.150	-141.89	-126.735	70.875	1.144116	0.129564	0.05002	-0.2235	0.2715	0.294	0	181	178	3
2026-02-12	15:39:54.170	-120.225	-119.98	54.18	1.160952	0.019276	0.054656	-0.216	0.2805	0.3165	0	181	178	3
2026-02-12	15:39:54.190	-74.76	-110.985	39.97	1.159	-0.052216	0.048312	-0.2115	0.288	0.3405	0	181	178	3
2026-02-12	15:39:54.210	-19.11	-103.32	28.35	1.177056	-0.0915	0.05368	-0.2085	0.294	0.3645	0	190	185	3
2026-02-12	15:39:54.230	37.625	-95.9	16.73	1.194868	-0.112972	0.095648	-0.2025	0.2985	0.381	0	190	185	3
2026-02-12	15:39:54.250	95.165	-87.22	3.43	1.176324	-0.10492	0.139812	-0.1965	0.2955	0.39	0	190	185	3
2026-02-12	15:39:54.270	170.45	-73.92	-16.45	1.118252	-0.051728	0.216916	-0.1935	0.294	0.393	0	190	185	3
2026-02-12	15:39:54.290	204.54	-63.49	-26.635	1.096048	-0.086376	0.281332	-0.186	0.303	0.378	0	190	185	3
2026-02-12	15:39:54.310	237.3	-51.1	-35.735	1.091168	-0.068076	0.273524	-0.201	0.3015	0.366	0	190	185	3
2026-02-12	15:39:54.330	266.84	-41.79	-44.485	1.069696	0.021716	0.245708	-0.204	0.306	0.3465	0	190	185	3
2026-02-12	15:39:54.350	272.65	-35.84	-50.785	1.044076	0.083692	0.301096	-0.2085	0.3075	0.327	0	190	185	3
2026-02-12	15:39:54.370	248.605	-27.755	-53.48	1.002108	0.087596	0.343552	-0.21	0.294	0.3075	0	190	185	3
2026-02-12	15:39:54.390	216.685	-19.145	-56.945	0.929884	0.119072	0.315004	-0.21	0.2865	0.288	0	190	185	3
2026-02-12	15:39:54.410	179.025	-14.14	-61.25	0.892552	0.151036	0.339892	-0.216	0.2775	0.2775	0	199	192	3
2026-02-12	15:39:54.430	127.05	-9.625	-66.43	0.874984	0.121512	0.415532	-0.2265	0.2775	0.258	0	199	192	3
2026-02-12	15:39:54.450	73.15	-2.345	-70.315	0.897432	0.038064	0.466772	-0.24	0.2655	0.2445	0	199	192	3
2026-02-12	15:39:54.470	32.48	7.7	-72.03	0.95038	-0.024888	0.45994	-0.237	0.252	0.252	0	199	192	3
2026-02-12	15:39:54.490	6.195	17.885	-73.01	1.029436	-0.051728	0.460184	-0.2475	0.24	0.2385	0	199	192	3
2026-02-12	15:39:54.510	-12.285	29.995	-73.745	1.086288	-0.074908	0.453352	-0.255	0.2295	0.24	0	199	192	3
2026-02-12	15:39:54.530	-26.25	48.825	-73.15	1.138992	-0.119072	0.419924	-0.255	0.219	0.234	0	199	192	3
2026-02-12	15:39:54.550	-31.15	68.81	-70.595	1.229028	-0.151036	0.354776	-0.255	0.219	0.234	0	199	192	3
2026-02-12	15:39:54.570	-25.97	84.07	-69.195	1.281244	-0.16714	0.29158	-0.255	0.219	0.234	0	199	192	3
2026-02-12	15:39:54.590	-17.675	97.615	-67.69	1.297836	-0.202764	0.277428	-0.2625	0.192	0.2175	0	199	192	3
2026-02-12	15:39:54.610	-5.075	109.515	-65.485	1.298324	-0.215452	0.260348	-0.2505	0.1905	0.1995	0	207	215	3
2026-02-12	15:39:54.630	12.95	118.79	-65.73	1.292468	-0.16836	0.266448	-0.267	0.186	0.186	0	207	215	3
2026-02-12	15:39:54.650	31.71	126.315	-69.125	1.271728	-0.125416	0.291092	-0.2505	0.165	0.1695	0	207	215	3
2026-02-12	15:39:54.670	52.29	132.79	-73.01	1.24196	-0.12688	0.328912	-0.258	0.15	0.1575	0	207	215	3
2026-02-12	15:39:54.690	78.015	137.865	-77.35	1.23586	-0.096136	0.354532	-0.246	0.1395	0.132	0	207	215	3
2026-02-12	15:39:54.710	103.46	140.49	-83.09	1.223416	-0.050508	0.346724	-0.243	0.1275	0.114	0	207	215	3
2026-02-12	15:39:54.730	118.3	138.53	-87.395	1.207312	-0.006588	0.317932	-0.237	0.1245	0.0915	0	207	215	3
2026-02-12	15:39:54.750	124.46	133.105	-88.795	1.22	0.03172	0.30622	-0.2235	0.0945	0.0765	0	207	215	3
2026-02-12	15:39:54.770	119.245	127.26	-87.535	1.203164	0.095892	0.305732	-0.2175	0.078	0.057	0	207	215	3
2026-02-12	15:39:54.790	97.37	120.575	-85.295	1.146068	0.147864	0.2928	-0.207	0.051	0.042	0	207	215	3
2026-02-12	15:39:54.810	43.05	102.725	-77.595	1.074088	0.20862	0.211304	-0.207	0.051	0.042	0	211	243	3
2026-02-12	15:39:54.830	6.895	83.545	-69.65	1.041636	0.249124	0.124196	-0.192	0.0285	0.021	0	211	243	3
2026-02-12	15:39:54.850	-32.305	60.34	-59.675	1.039684	0.235948	0.12932	-0.174	0.0075	-0.0045	0	211	243	3
2026-02-12	15:39:54.870	-73.78	40.18	-46.34	1.022116	0.208132	0.157136	-0.1665	0.0045	-0.012	0	211	243	3
2026-02-12	15:39:54.890	-112.63	24.185	-31.64	1.001864	0.18056	0.1891	-0.162	0.0075	-0.015	0	211	243	3
2026-02-12	15:39:54.910	-146.58	10.395	-16.24	1.003816	0.13542	0.222284	-0.1605	0.0105	-0.012	0	211	243	3
2026-02-12	15:39:54.930	-169.155	-0.105	-2.135	1.011624	0.122976	0.256932	-0.156	0.024	-0.015	0	211	243	3
2026-02-12	15:39:54.950	-187.145	-6.51	9.625	0.980636	0.106384	0.260592	-0.1545	0.045	-0.0135	0	211	243	3
2026-02-12	15:39:54.970	-197.295	-10.605	17.885	0.94794	0.076616	0.228384	-0.156	0.0675	-0.009	0	211	243	3
2026-02-12	15:39:54.990	-193.515	-12.845	22.575	0.900848	0.043432	0.186416	-0.1545	0.0915	-0.0075	0	211	243	3
2026-02-12	15:39:53.010	-2.31	-28.28	11.095	1.228296	-0.090036	0.311588	-0.2325	0.24	0.4305	0	169	181	3
2026-02-12	15:39:53.030	26.565	-11.795	5.18	1.172176	-0.03416	0.329888	-0.2355	0.237	0.4365	0	169	181	3
2026-02-12	15:39:53.050	42.525	6.685	-2.1	1.112884	0.0122	0.288408	-0.234	0.24	0.4335	0	169	181	3
2026-02-12	15:39:53.070	54.635	25.62	-11.97	1.03578	0.058072	0.204716	-0.2385	0.2385	0.4275	0	169	181	3
2026-02-12	15:39:53.090	60.515	41.265	-24.22	0.94916	0.093208	0.145668	-0.2385	0.2415	0.42	0	169	181	3
2026-02-12	15:39:53.110	55.72	51.73	-37.45	0.903044	0.113216	0.115168	-0.2355	0.2415	0.4095	0	169	181	3
2026-02-12	15:39:53.130	42.875	57.225	-50.155	0.929396	0.106628	0.117852	-0.24	0.234	0.399	0	169	181	3
2026-02-12	15:39:53.150	31.08	62.615	-60.13	0.960872	0.07515199	0.132492	-0.2475	0.2325	0.3915	0	169	181	3
2026-02-12	15:39:53.170	21.595	67.445	-65.66	0.989908	0.060024	0.148596	-0.255	0.2265	0.3855	0	169	181	3
2026-02-12	15:39:53.190	7.735	73.36	-65.31	1.148264	0.084424	0.212524	-0.2595	0.2235	0.381	0	169	181	3
2026-02-12	15:39:53.210	-0.875	81.55	-61.285	1.170224	0.131516	0.218136	-0.2595	0.2235	0.381	0	170	208	3
2026-02-12	15:39:53.230	-8.19	88.725	-57.26	1.167052	0.169336	0.20984	-0.273	0.207	0.3465	0	170	208	3
2026-02-12	15:39:53.250	-18.655	93.59	-52.5	1.267824	0.20374	0.202276	-0.279	0.201	0.3375	0	170	208	3
2026-02-12	15:39:53.270	-28.63	100.555	-48.65	1.355664	0.185684	0.166652	-0.282	0.1875	0.3195	0	170	208	3
2026-02-12	15:39:53.290	-29.4	109.165	-47.81	1.275876	0.1769	0.11224	-0.2805	0.1785	0.309	0	170	208	3
2026-02-12	15:39:53.310	-29.89	111.44	-49.07	1.217316	0.158356	0.07198	-0.2835	0.168	0.285	0	170	208	3
2026-02-12	15:39:53.330	-29.155	108.08	-51.38	1.285392	0.132248	0.068564	-0.294	0.1665	0.2805	0	170	208	3
2026-02-12	15:39:53.350	-22.75	105.735	-53.55	1.269532	0.146888	0.07686	-0.2865	0.159	0.2655	0	170	208	3
2026-02-12	15:39:53.370	-16.73	101.64	-56.14	1.222196	0.148108	0.097112	-0.291	0.1545	0.258	0	170	208	3
2026-02-12	15:39:53.390	-11.34	95.235	-57.785	1.207556	0.160796	0.122	-0.285	0.141	0.24	0	170	208	3
2026-02-12	15:39:53.410	-11.55	89.355	-57.89	1.258796	0.171288	0.161528	-0.285	0.1395	0.2235	0	172	214	3
2026-02-12	15:39:53.430	-15.12	87.325	-56.35	1.26148	0.176656	0.162748	-0.2895	0.123	0.2115	0	172	214	3
2026-02-12	15:39:53.450	-20.475	86.275	-52.92	1.21146	0.179828	0.131516	-0.2865	0.1215	0.207	0	172	214	3
2026-02-12	15:39:53.470	-26.53	84.84	-49.07	1.1895	0.178852	0.090036	-0.285	0.12	0.2025	0	172	214	3
2026-02-12	15:39:53.490	-31.045	84.28	-45.955	1.168028	0.157624	0.052216	-0.2805	0.1035	0.18	0	172	214	3
2026-02-12	15:39:53.510	-32.41	83.65	-43.015	1.140944	0.136396	0.02684	-0.276	0.0945	0.1665	0	172	214	3
2026-02-12	15:39:53.530	-31.22	83.09	-40.6	1.083116	0.129564	0.015128	-0.2745	0.0915	0.159	0	172	214	3
2026-02-12	15:39:53.550	-28.49	81.795	-39.235	1.03822	0.108824	0.014396	-0.276	0.0975	0.1485	0	172	214	3
2026-02-12	15:39:53.570	-22.435	80.29	-38.465	1.008452	0.092476	0.013176	-0.2625	0.093	0.1335	0	172	214	3
2026-02-12	15:39:53.590	-13.51	78.295	-37.555	0.947696	0.075396	0.00854	-0.2625	0.0855	0.1245	0	172	214	3
2026-02-12	15:39:53.610	-2.695	74.2	-36.995	0.874984	0.05856	0.026352	-0.255	0.087	0.111	0	173	196	3
2026-02-12	15:39:53.630	6.405	68.495	-37.275	0.837652	0.055144	0.07905599	-0.252	0.081	0.1095	0	173	196	3
2026-02-12	15:39:53.650	9.59	62.125	-36.925	0.88206	0.047824	0.120292	-0.2475	0.072	0.1005	0	173	196	3
2026-02-12	15:39:53.670	9.415	56.07	-32.9	0.91988	0.050752	0.136884	-0.243	0.0675	0.093	0	173	196	3
2026-02-12	15:39:53.690	7.21	49.595	-26.215	0.8845	0.042212	0.149572	-0.237	0.063	0.075	0	173	196	3
2026-02-12	15:39:53.710	3.92	40.215	-18.585	0.851072	0.016348	0.179096	-0.237	0.0585	0.0795	0	173	196	3
2026-02-12	15:39:53.730	-4.55	22.155	-0.735	0.841312	-0.00854	0.23058	-0.2415	0.063	0.0765	0	173	196	3
2026-02-12	15:39:53.750	-12.39	8.925	14.63	0.82106	-0.029524	0.280356	-0.2355	0.0585	0.0705	0	173	196	3
2026-02-12	15:39:53.770	-22.645	-5.04	30.555	0.8052	-0.068808	0.359168	-0.2265	0.0585	0.066	0	173	196	3
2026-02-12	15:39:53.790	-36.33	-17.15	47.635	0.801296	-0.133224	0.456524	-0.222	0.0645	0.0675	0	173	196	3
2026-02-12	15:39:53.810	-48.58	-24.15	66.85	0.770308	-0.207156	0.48434	-0.225	0.0705	0.069	0	176	177	2
2026-02-12	15:39:53.830	-38.57	-31.43	83.125	0.705648	-0.24766	0.416996	-0.2265	0.0825	0.0765	0	176	177	2
2026-02-12	15:39:53.850	-2.765	-44.38	94.325	0.69296	-0.255956	0.323056	-0.228	0.0945	0.0825	0	176	177	2
2026-02-12	15:39:53.870	45.08	-60.13	106.295	0.704672	-0.251808	0.230336	-0.2325	0.105	0.0855	0	176	177	2
2026-02-12	15:39:53.890	89.495	-77.385	119.735	0.769332	-0.168116	0.141032	-0.234	0.117	0.093	0	176	177	2
2026-02-12	15:39:53.910	117.565	-96.25	131.53	0.877424	-0.071004	0.081252	-0.234	0.126	0.1005	0	176	177	2
2026-02-12	15:39:53.930	136.185	-115.115	139.16	1.006988	0.01342	0.080764	-0.234	0.1335	0.1065	0	176	177	2
2026-02-12	15:39:53.950	150.535	-132.195	145.425	1.153876	0.08418	0.09272	-0.237	0.144	0.1155	0	176	177	2
2026-02-12	15:39:53.970	161.98	-146.405	149.905	1.286124	0.160064	0.08418	-0.2415	0.1515	0.132	0	176	177	2
2026-02-12	15:39:53.990	167.44	-161.385	151.515	1.412516	0.220088	0.154208	-0.246	0.156	0.1455	0	176	177	2
2026-02-12	15:39:54.010	146.37	-167.335	152.25	1.486448	0.2318	0.334524	-0.249	0.1665	0.153	0	181	178	3
2026-02-12	15:39:54.030	97.23	-160.02	149.87	1.441064	0.23424	0.448228	-0.2535	0.1785	0.1635	0	181	178	3
2026-02-12	15:39:54.050	24.36	-148.365	144.76	1.34566	0.205936	0.446032	-0.2475	0.189	0.18	0	181	178	3
2026-02-12	15:39:54.070	-44.87	-138.355	135.835	1.245376	0.155916	0.331596	-0.246	0.204	0.1965	0	181	178	3
2026-02-12	15:39:54.090	-86.555	-131.53	122.08	1.14436	0.170556	0.198372	-0.2475	0.222	0.2205	0	181	178	3
2026-02-12	15:39:54.110	-113.365	-128.52	105.735	1.085068	0.21716	0.092964	-0.2355	0.243	0.2415	0	181	178	3
2026-02-12	15:39:54.130	-135.45	-128.345	88.585	1.102148	0.214476	0.056364	-0.2295	0.2595	0.264	0	181	178	3
2026-02-12	15:39:54.150	-141.89	-126.735	70.875	1.144116	0.129564	0.05002	-0.2235	0.2715	0.294	0	181	178	3
2026-02-12	15:39:54.170	-120.225	-119.98	54.18	1.160952	0.019276	0.054656	-0.216	0.2805	0.3165	0	181	178	3
2026-02-12	15:39:54.190	-74.76	-110.985	39.97	1.159	-0.052216	0.048312	-0.2115	0.288	0.3405	0	181	178	3
2026-02-12	15:39:54.210	-19.11	-103.32	28.35	1.177056	-0.0915	0.05368	-0.2085	0.294	0.3645	0	190	185	3
2026-02-12	15:39:54.230	37.625	-95.9	16.73	1.194868	-0.112972	0.095648	-0.2025	0.2985	0.381	0	190	185	3
2026-02-12	15:39:54.250	95.165	-87.22	3.43	1.176324	-0.10492	0.139812	-0.1965	0.2955	0.39	0	190	185	3
2026-02-12	15:39:54.270	170.45	-73.92	-16.45	1.118252	-0.051728	0.216916	-0.1935	0.294	0.393	0	190	185	3
2026-02-12	15:39:54.290	204.54	-63.49	-26.635	1.096048	-0.086376	0.281332	-0.186	0.303	0.378	0	190	185	3
2026-02-12	15:39:54.310	237.3	-51.1	-35.735	1.091168	-0.068076	0.273524	-0.201	0.3015	0.366	0	190	185	3
2026-02-12	15:39:54.330	266.84	-41.79	-44.485	1.069696	0.021716	0.245708	-0.204	0.306	0.3465	0	190	185	3
2026-02-12	15:39:54.350	272.65	-35.84	-50.785	1.044076	0.083692	0.301096	-0.2085	0.3075	0.327	0	190	185	3
2026-02-12	15:39:54.370	248.605	-27.755	-53.48	1.002108	0.087596	0.343552	-0.21	0.294	0.3075	0	190	185	3
2026-02-12	15:39:54.390	216.685	-19.145	-56.945	0.929884	0.119072	0.315004	-0.21	0.2865	0.288	0	190	185	3
2026-02-12	15:39:54.410	179.025	-14.14	-61.25	0.892552	0.151036	0.339892	-0.216	0.2775	0.2775	0	199	192	3
2026-02-12	15:39:54.430	127.05	-9.625	-66.43	0.874984	0.121512	0.415532	-0.2265	0.2775	0.258	0	199	192	3
2026-02-12	15:39:54.450	73.15	-2.345	-70.315	0.897432	0.038064	0.466772	-0.24	0.2655	0.2445	0	199	192	3
2026-02-12	15:39:54.470	32.48	7.7	-72.03	0.95038	-0.024888	0.45994	-0.237	0.252	0.252	0	199	192	3
2026-02-12	15:39:54.490	6.195	17.885	-73.01	1.029436	-0.051728	0.460184	-0.2475	0.24	0.2385	0	199	192	3
2026-02-12	15:39:54.510	-12.285	29.995	-73.745	1.086288	-0.074908	0.453352	-0.255	0.2295	0.24	0	199	192	3
2026-02-12	15:39:54.530	-26.25	48.825	-73.15	1.138992	-0.119072	0.419924	-0.255	0.219	0.234	0	199	192	3
2026-02-12	15:39:54.550	-31.15	68.81	-70.595	1.229028	-0.151036	0.354776	-0.255	0.219	0.234	0	199	192	3
2026-02-12	15:39:54.570	-25.97	84.07	-69.195	1.281244	-0.16714	0.29158	-0.255	0.219	0.234	0	199	192	3
2026-02-12	15:39:54.590	-17.675	97.615	-67.69	1.297836	-0.202764	0.277428	-0.2625	0.192	0.2175	0	199	192	3
2026-02-12	15:39:54.610	-5.075	109.515	-65.485	1.298324	-0.215452	0.260348	-0.2505	0.1905	0.1995	0	207	215	3
2026-02-12	15:39:54.630	12.95	118.79	-65.73	1.292468	-0.16836	0.266448	-0.267	0.186	0.186	0	207	215	3
2026-02-12	15:39:54.650	31.71	126.315	-69.125	1.271728	-0.125416	0.291092	-0.2505	0.165	0.1695	0	207	215	3
2026-02-12	15:39:54.670	52.29	132.79	-73.01	1.24196	-0.12688	0.328912	-0.258	0.15	0.1575	0	207	215	3
2026-02-12	15:39:54.690	78.015	137.865	-77.35	1.23586	-0.096136	0.354532	-0.246	0.1395	0.132	0	207	215	3
2026-02-12	15:39:54.710	103.46	140.49	-83.09	1.223416	-0.050508	0.346724	-0.243	0.1275	0.114	0	207	215	3
2026-02-12	15:39:54.730	118.3	138.53	-87.395	1.207312	-0.006588	0.317932	-0.237	0.1245	0.0915	0	207	215	3
2026-02-12	15:39:54.750	124.46	133.105	-88.795	1.22	0.03172	0.30622	-0.2235	0.0945	0.0765	0	207	215	3
2026-02-12	15:39:54.770	119.245	127.26	-87.535	1.203164	0.095892	0.305732	-0.2175	0.078	0.057	0	207	215	3
2026-02-12	15:39:54.790	97.37	120.575	-85.295	1.146068	0.147864	0.2928	-0.207	0.051	0.042	0	207	215	3
2026-02-12	15:39:54.810	43.05	102.725	-77.595	1.074088	0.20862	0.211304	-0.207	0.051	0.042	0	211	243	3
2026-02-12	15:39:54.830	6.895	83.545	-69.65	1.041636	0.249124	0.124196	-0.192	0.0285	0.021	0	211	243	3
2026-02-12	15:39:54.850	-32.305	60.34	-59.675	1.039684	0.235948	0.12932	-0.174	0.0075	-0.0045	0	211	243	3
2026-02-12	15:39:54.870	-73.78	40.18	-46.34	1.022116	0.208132	0.157136	-0.1665	0.0045	-0.012	0	211	243	3
2026-02-12	15:39:54.890	-112.63	24.185	-31.64	1.001864	0.18056	0.1891	-0.162	0.0075	-0.015	0	211	243	3
2026-02-12	15:39:54.910	-146.58	10.395	-16.24	1.003816	0.13542	0.222284	-0.1605	0.0105	-0.012	0	211	243	3
2026-02-12	15:39:54.930	-169.155	-0.105	-2.135	1.011624	0.122976	0.256932	-0.156	0.024	-0.015	0	211	243	3
2026-02-12	15:39:54.950	-187.145	-6.51	9.625	0.980636	0.106384	0.260592	-0.1545	0.045	-0.0135	0	211	243	3
2026-02-12	15:39:54.970	-197.295	-10.605	17.885	0.94794	0.076616	0.228384	-0.156	0.0675	-0.009	0	211	243	3
2026-02-12	15:39:54.990	-193.515	-12.845	22.575	0.900848	0.043432	0.186416	-0.1545	0.0915	-0.0075	0	211	243	3
2026-02-12	15:39:53.010	-2.31	-28.28	11.095	1.228296	-0.090036	0.311588	-0.2325	0.24	0.4305	0	169	181	3
2026-02-12	15:39:53.030	26.565	-11.795	5.18	1.172176	-0.03416	0.329888	-0.2355	0.237	0.4365	0	169	181	3
2026-02-12	15:39:53.050	42.525	6.685	-2.1	1.112884	0.0122	0.288408	-0.234	0.24	0.4335	0	169	181	3
2026-02-12	15:39:53.070	54.635	25.62	-11.97	1.03578	0.058072	0.204716	-0.2385	0.2385	0.4275	0	169	181	3
2026-02-12	15:39:53.090	60.515	41.265	-24.22	0.94916	0.093208	0.145668	-0.2385	0.2415	0.42	0	169	181	3
2026-02-12	15:39:53.110	55.72	51.73	-37.45	0.903044	0.113216	0.115168	-0.2355	0.2415	0.4095	0	169	181	3
2026-02-12	15:39:53.130	42.875	57.225	-50.155	0.929396	0.106628	0.117852	-0.24	0.234	0.399	0	169	181	3
2026-02-12	15:39:53.150	31.08	62.615	-60.13	0.960872	0.07515199	0.132492	-0.2475	0.2325	0.3915	0	169	181	3
2026-02-12	15:39:53.170	21.595	67.445	-65.66	0.989908	0.060024	0.148596	-0.255	0.2265	0.3855	0	169	181	3
2026-02-12	15:39:53.190	7.735	73.36	-65.31	1.148264	0.084424	0.212524	-0.2595	0.2235	0.381	0	169	181	3
2026-02-12	15:39:53.210	-0.875	81.55	-61.285	1.170224	0.131516	0.218136	-0.2595	0.2235	0.381	0	170	208	3
2026-02-12	15:39:53.230	-8.19	88.725	-57.26	1.167052	0.169336	0.20984	-0.273	0.207	0.3465	0	170	208	3
2026-02-12	15:39:53.250	-18.655	93.59	-52.5	1.267824	0.20374	0.202276	-0.279	0.201	0.3375	0	170	208	3
2026-02-12	15:39:53.270	-28.63	100.555	-48.65	1.355664	0.185684	0.166652	-0.282	0.1875	0.3195	0	170	208	3
2026-02-12	15:39:53.290	-29.4	109.165	-47.81	1.275876	0.1769	0.11224	-0.2805	0.1785	0.309	0	170	208	3
2026-02-12	15:39:53.310	-29.89	111.44	-49.07	1.217316	0.158356	0.07198	-0.2835	0.168	0.285	0	170	208	3
2026-02-12	15:39:53.330	-29.155	108.08	-51.38	1.285392	0.132248	0.068564	-0.294	0.1665	0.2805	0	170	208	3
2026-02-12	15:39:53.350	-22.75	105.735	-53.55	1.269532	0.146888	0.07686	-0.2865	0.159	0.2655	0	170	208	3
2026-02-12	15:39:53.370	-16.73	101.64	-56.14	1.222196	0.148108	0.097112	-0.291	0.1545	0.258	0	170	208	3
2026-02-12	15:39:53.390	-11.34	95.235	-57.785	1.207556	0.160796	0.122	-0.285	0.141	0.24	0	170	208	3
2026-02-12	15:39:53.410	-11.55	89.355	-57.89	1.258796	0.171288	0.161528	-0.285	0.1395	0.2235	0	172	214	3
2026-02-12	15:39:53.430	-15.12	87.325	-56.35	1.26148	0.176656	0.162748	-0.2895	0.123	0.2115	0	172	214	3
2026-02-12	15:39:53.450	-20.475	86.275	-52.92	1.21146	0.179828	0.131516	-0.2865	0.1215	0.207	0	172	214	3
2026-02-12	15:39:53.470	-26.53	84.84	-49.07	1.1895	0.178852	0.090036	-0.285	0.12	0.2025	0	172	214	3
2026-02-12	15:39:53.490	-31.045	84.28	-45.955	1.168028	0.157624	0.052216	-0.2805	0.1035	0.18	0	172	214	3
2026-02-12	15:39:53.510	-32.41	83.65	-43.015	1.140944	0.136396	0.02684	-0.276	0.0945	0.1665	0	172	214	3
2026-02-12	15:39:53.530	-31.22	83.09	-40.6	1.083116	0.129564	0.015128	-0.2745	0.0915	0.159	0	172	214	3
2026-02-12	15:39:53.550	-28.49	81.795	-39.235	1.03822	0.108824	0.014396	-0.276	0.0975	0.1485	0	172	214	3
2026-02-12	15:39:53.570	-22.435	80.29	-38.465	1.008452	0.092476	0.013176	-0.2625	0.093	0.1335	0	172	214	3
2026-02-12	15:39:53.590	-13.51	78.295	-37.555	0.947696	0.075396	0.00854	-0.2625	0.0855	0.1245	0	172	214	3
2026-02-12	15:39:53.610	-2.695	74.2	-36.995	0.874984	0.05856	0.026352	-0.255	0.087	0.111	0	173	196	3
2026-02-12	15:39:53.630	6.405	68.495	-37.275	0.837652	0.055144	0.07905599	-0.252	0.081	0.1095	0	173	196	3
2026-02-12	15:39:53.650	9.59	62.125	-36.925	0.88206	0.047824	0.120292	-0.2475	0.072	0.1005	0	173	196	3
2026-02-12	15:39:53.670	9.415	56.07	-32.9	0.91988	0.050752	0.136884	-0.243	0.0675	0.093	0	173	196	3
2026-02-12	15:39:53.690	7.21	49.595	-26.215	0.8845	0.042212	0.149572	-0.237	0.063	0.075	0	173	196	3
2026-02-12	15:39:53.710	3.92	40.215	-18.585	0.851072	0.016348	0.179096	-0.237	0.0585	0.0795	0	173	196	3
2026-02-12	15:39:53.730	-4.55	22.155	-0.735	0.841312	-0.00854	0.23058	-0.2415	0.063	0.0765	0	173	196	3
2026-02-12	15:39:53.750	-12.39	8.925	14.63	0.82106	-0.029524	0.280356	-0.2355	0.0585	0.0705	0	173	196	3
2026-02-12	15:39:53.770	-22.645	-5.04	30.555	0.8052	-0.068808	0.359168	-0.2265	0.0585	0.066	0	173	196	3
2026-02-12	15:39:53.790	-36.33	-17.15	47.635	0.801296	-0.133224	0.456524	-0.222	0.0645	0.0675	0	173	196	3
2026-02-12	15:39:53.810	-48.58	-24.15	66.85	0.770308	-0.207156	0.48434	-0.225	0.0705	0.069	0	176	177	2
2026-02-12	15:39:53.830	-38.57	-31.43	83.125	0.705648	-0.24766	0.416996	-0.2265	0.0825	0.0765	0	176	177	2
2026-02-12	15:39:53.850	-2.765	-44.38	94.325	0.69296	-0.255956	0.323056	-0.228	0.0945	0.0825	0	176	177	2
2026-02-12	15:39:53.870	45.08	-60.13	106.295	0.704672	-0.251808	0.230336	-0.2325	0.105	0.0855	0	176	177	2
2026-02-12	15:39:53.890	89.495	-77.385	119.735	0.769332	-0.168116	0.141032	-0.234	0.117	0.093	0	176	177	2
2026-02-12	15:39:53.910	117.565	-96.25	131.53	0.877424	-0.071004	0.081252	-0.234	0.126	0.1005	0	176	177	2
2026-02-12	15:39:53.930	136.185	-115.115	139.16	1.006988	0.01342	0.080764	-0.234	0.1335	0.1065	0	176	177	2
2026-02-12	15:39:53.950	150.535	-132.195	145.425	1.153876	0.08418	0.09272	-0.237	0.144	0.1155	0	176	177	2
2026-02-12	15:39:53.970	161.98	-146.405	149.905	1.286124	0.160064	0.08418	-0.2415	0.1515	0.132	0	176	177	2
2026-02-12	15:39:53.990	167.44	-161.385	151.515	1.412516	0.220088	0.154208	-0.246	0.156	0.1455	0	176	177	2
2026-02-12	15:39:54.010	146.37	-167.335	152.25	1.486448	0.2318	0.334524	-0.249	0.1665	0.153	0	181	178	3
2026-02-12	15:39:54.030	97.23	-160.02	149.87	1.441064	0.23424	0.448228	-0.2535	0.1785	0.1635	0	181	178	3
2026-02-12	15:39:54.050	24.36	-148.365	144.76	1.34566	0.205936	0.446032	-0.2475	0.189	0.18	0	181	178	3
2026-02-12	15:39:54.070	-44.87	-138.355	135.835	1.245376	0.155916	0.331596	-0.246	0.204	0.1965	0	181	178	3
2026-02-12	15:39:54.090	-86.555	-131.53	122.08	1.14436	0.170556	0.198372	-0.2475	0.222	0.2205	0	181	178	3
2026-02-12	15:39:54.110	-113.365	-128.52	105.735	1.085068	0.21716	0.092964	-0.2355	0.243	0.2415	0	181	178	3
2026-02-12	15:39:54.130	-135.45	-128.345	88.585	1.102148	0.214476	0.056364	-0.2295	0.2595	0.264	0	181	178	3
2026-02-12	15:39:54.150	-141.89	-126.735	70.875	1.144116	0.129564	0.05002	-0.2235	0.2715	0.294	0	181	178	3
2026-02-12	15:39:54.170	-120.225	-119.98	54.18	1.160952	0.019276	0.054656	-0.216	0.2805	0.3165	0	181	178	3
2026-02-12	15:39:54.190	-74.76	-110.985	39.97	1.159	-0.052216	0.048312	-0.2115	0.288	0.3405	0	181	178	3
2026-02-12	15:39:54.210	-19.11	-103.32	28.35	1.177056	-0.0915	0.05368	-0.2085	0.294	0.3645	0	190	185	3
2026-02-12	15:39:54.230	37.625	-95.9	16.73	1.194868	-0.112972	0.095648	-0.2025	0.2985	0.381	0	190	185	3
2026-02-12	15:39:54.250	95.165	-87.22	3.43	1.176324	-0.10492	0.139812	-0.1965	0.2955	0.39	0	190	185	3
2026-02-12	15:39:54.270	170.45	-73.92	-16.45	1.118252	-0.051728	0.216916	-0.1935	0.294	0.393	0	190	185	3
2026-02-12	15:39:54.290	204.54	-63.49	-26.635	1.096048	-0.086376	0.281332	-0.186	0.303	0.378	0	190	185	3
2026-02-12	15:39:54.310	237.3	-51.1	-35.735	1.091168	-0.068076	0.273524	-0.201	0.3015	0.366	0	190	185	3
2026-02-12	15:39:54.330	266.84	-41.79	-44.485	1.069696	0.021716	0.245708	-0.204	0.306	0.3465	0	190	185	3
2026-02-12	15:39:54.350	272.65	-35.84	-50.785	1.044076	0.083692	0.301096	-0.2085	0.3075	0.327	0	190	185	3
2026-02-12	15:39:54.370	248.605	-27.755	-53.48	1.002108	0.087596	0.343552	-0.21	0.294	0.3075	0	190	185	3
2026-02-12	15:39:54.390	216.685	-19.145	-56.945	0.929884	0.119072	0.315004	-0.21	0.2865	0.288	0	190	185	3
2026-02-12	15:39:54.410	179.025	-14.14	-61.25	0.892552	0.151036	0.339892	-0.216	0.2775	0.2775	0	199	192	3
2026-02-12	15:39:54.430	127.05	-9.625	-66.43	0.874984	0.121512	0.415532	-0.2265	0.2775	0.258	0	199	192	3
2026-02-12	15:39:54.450	73.15	-2.345	-70.315	0.897432	0.038064	0.466772	-0.24	0.2655	0.2445	0	199	192	3
2026-02-12	15:39:54.470	32.48	7.7	-72.03	0.95038	-0.024888	0.45994	-0.237	0.252	0.252	0	199	192	3
2026-02-12	15:39:54.490	6.195	17.885	-73.01	1.029436	-0.051728	0.460184	-0.2475	0.24	0.2385	0	199	192	3
2026-02-12	15:39:54.510	-12.285	29.995	-73.745	1.086288	-0.074908	0.453352	-0.255	0.2295	0.24	0	199	192	3
2026-02-12	15:39:54.530	-26.25	48.825	-73.15	1.138992	-0.119072	0.419924	-0.255	0.219	0.234	0	199	192	3
2026-02-12	15:39:54.550	-31.15	68.81	-70.595	1.229028	-0.151036	0.354776	-0.255	0.219	0.234	0	199	192	3
2026-02-12	15:39:54.570	-25.97	84.07	-69.195	1.281244	-0.16714	0.29158	-0.255	0.219	0.234	0	199	192	3
2026-02-12	15:39:54.590	-17.675	97.615	-67.69	1.297836	-0.202764	0.277428	-0.2625	0.192	0.2175	0	199	192	3
2026-02-12	15:39:54.610	-5.075	109.515	-65.485	1.298324	-0.215452	0.260348	-0.2505	0.1905	0.1995	0	207	215	3
2026-02-12	15:39:54.630	12.95	118.79	-65.73	1.292468	-0.16836	0.266448	-0.267	0.186	0.186	0	207	215	3
2026-02-12	15:39:54.650	31.71	126.315	-69.125	1.271728	-0.125416	0.291092	-0.2505	0.165	0.1695	0	207	215	3
2026-02-12	15:39:54.670	52.29	132.79	-73.01	1.24196	-0.12688	0.328912	-0.258	0.15	0.1575	0	207	215	3
2026-02-12	15:39:54.690	78.015	137.865	-77.35	1.23586	-0.096136	0.354532	-0.246	0.1395	0.132	0	207	215	3
2026-02-12	15:39:54.710	103.46	140.49	-83.09	1.223416	-0.050508	0.346724	-0.243	0.1275	0.114	0	207	215	3
2026-02-12	15:39:54.730	118.3	138.53	-87.395	1.207312	-0.006588	0.317932	-0.237	0.1245	0.0915	0	207	215	3
2026-02-12	15:39:54.750	124.46	133.105	-88.795	1.22	0.03172	0.30622	-0.2235	0.0945	0.0765	0	207	215	3
2026-02-12	15:39:54.770	119.245	127.26	-87.535	1.203164	0.095892	0.305732	-0.2175	0.078	0.057	0	207	215	3
2026-02-12	15:39:54.790	97.37	120.575	-85.295	1.146068	0.147864	0.2928	-0.207	0.051	0.042	0	207	215	3
2026-02-12	15:39:54.810	43.05	102.725	-77.595	1.074088	0.20862	0.211304	-0.207	0.051	0.042	0	211	243	3
2026-02-12	15:39:54.830	6.895	83.545	-69.65	1.041636	0.249124	0.124196	-0.192	0.0285	0.021	0	211	243	3
2026-02-12	15:39:54.850	-32.305	60.34	-59.675	1.039684	0.235948	0.12932	-0.174	0.0075	-0.0045	0	211	243	3
2026-02-12	15:39:54.870	-73.78	40.18	-46.34	1.022116	0.208132	0.157136	-0.1665	0.0045	-0.012	0	211	243	3
2026-02-12	15:39:54.890	-112.63	24.185	-31.64	1.001864	0.18056	0.1891	-0.162	0.0075	-0.015	0	211	243	3
2026-02-12	15:39:54.910	-146.58	10.395	-16.24	1.003816	0.13542	0.222284	-0.1605	0.0105	-0.012	0	211	243	3
2026-02-12	15:39:54.930	-169.155	-0.105	-2.135	1.011624	0.122976	0.256932	-0.156	0.024	-0.015	0	211	243	3
2026-02-12	15:39:54.950	-187.145	-6.51	9.625	0.980636	0.106384	0.260592	-0.1545	0.045	-0.0135	0	211	243	3
2026-02-12	15:39:54.970	-197.295	-10.605	17.885	0.94794	0.076616	0.228384	-0.156	0.0675	-0.009	0	211	243	3
2026-02-12	15:39:54.990	-193.515	-12.845	22.575	0.900848	0.043432	0.186416	-0.1545	0.0915	-0.0075	0	211	243	3
2026-02-12	15:39:53.010	-2.31	-28.28	11.095	1.228296	-0.090036	0.311588	-0.2325	0.24	0.4305	0	169	181	3
2026-02-12	15:39:53.030	26.565	-11.795	5.18	1.172176	-0.03416	0.329888	-0.2355	0.237	0.4365	0	169	181	3
2026-02-12	15:39:53.050	42.525	6.685	-2.1	1.112884	0.0122	0.288408	-0.234	0.24	0.4335	0	169	181	3
2026-02-12	15:39:53.070	54.635	25.62	-11.97	1.03578	0.058072	0.204716	-0.2385	0.2385	0.4275	0	169	181	3
2026-02-12	15:39:53.090	60.515	41.265	-24.22	0.94916	0.093208	0.145668	-0.2385	0.2415	0.42	0	169	181	3
2026-02-12	15:39:53.110	55.72	51.73	-37.45	0.903044	0.113216	0.115168	-0.2355	0.2415	0.4095	0	169	181	3
2026-02-12	15:39:53.130	42.875	57.225	-50.155	0.929396	0.106628	0.117852	-0.24	0.234	0.399	0	169	181	3
2026-02-12	15:39:53.150	31.08	62.615	-60.13	0.960872	0.07515199	0.132492	-0.2475	0.2325	0.3915	0	169	181	3
2026-02-12	15:39:53.170	21.595	67.445	-65.66	0.989908	0.060024	0.148596	-0.255	0.2265	0.3855	0	169	181	3
2026-02-12	15:39:53.190	7.735	73.36	-65.31	1.148264	0.084424	0.212524	-0.2595	0.2235	0.381	0	169	181	3
2026-02-12	15:39:53.210	-0.875	81.55	-61.285	1.170224	0.131516	0.218136	-0.2595	0.2235	0.381	0	170	208	3
2026-02-12	15:39:53.230	-8.19	88.725	-57.26	1.167052	0.169336	0.20984	-0.273	0.207	0.3465	0	170	208	3
2026-02-12	15:39:53.250	-18.655	93.59	-52.5	1.267824	0.20374	0.202276	-0.279	0.201	0.3375	0	170	208	3
2026-02-12	15:39:53.270	-28.63	100.555	-48.65	1.355664	0.185684	0.166652	-0.282	0.1875	0.3195	0	170	208	3
2026-02-12	15:39:53.290	-29.4	109.165	-47.81	1.275876	0.1769	0.11224	-0.2805	0.1785	0.309	0	170	208	3
2026-02-12	15:39:53.310	-29.89	111.44	-49.07	1.217316	0.158356	0.07198	-0.2835	0.168	0.285	0	170	208	3
2026-02-12	15:39:53.330	-29.155	108.08	-51.38	1.285392	0.132248	0.068564	-0.294	0.1665	0.2805	0	170	208	3
2026-02-12	15:39:53.350	-22.75	105.735	-53.55	1.269532	0.146888	0.07686	-0.2865	0.159	0.2655	0	170	208	3
2026-02-12	15:39:53.370	-16.73	101.64	-56.14	1.222196	0.148108	0.097112	-0.291	0.1545	0.258	0	170	208	3
2026-02-12	15:39:53.390	-11.34	95.235	-57.785	1.207556	0.160796	0.122	-0.285	0.141	0.24	0	170	208	3
2026-02-12	15:39:53.410	-11.55	89.355	-57.89	1.258796	0.171288	0.161528	-0.285	0.1395	0.2235	0	172	214	3
2026-02-12	15:39:53.430	-15.12	87.325	-56.35	1.26148	0.176656	0.162748	-0.2895	0.123	0.2115	0	172	214	3
2026-02-12	15:39:53.450	-20.475	86.275	-52.92	1.21146	0.179828	0.131516	-0.2865	0.1215	0.207	0	172	214	3
2026-02-12	15:39:53.470	-26.53	84.84	-49.07	1.1895	0.178852	0.090036	-0.285	0.12	0.2025	0	172	214	3
2026-02-12	15:39:53.490	-31.045	84.28	-45.955	1.168028	0.157624	0.052216	-0.2805	0.1035	0.18	0	172	214	3
2026-02-12	15:39:53.510	-32.41	83.65	-43.015	1.140944	0.136396	0.02684	-0.276	0.0945	0.1665	0	172	214	3
2026-02-12	15:39:53.530	-31.22	83.09	-40.6	1.083116	0.129564	0.015128	-0.2745	0.0915	0.159	0	172	214	3
2026-02-12	15:39:53.550	-28.49	81.795	-39.235	1.03822	0.108824	0.014396	-0.276	0.0975	0.1485	0	172	214	3
2026-02-12	15:39:53.570	-22.435	80.29	-38.465	1.008452	0.092476	0.013176	-0.2625	0.093	0.1335	0	172	214	3
2026-02-12	15:39:53.590	-13.51	78.295	-37.555	0.947696	0.075396	0.00854	-0.2625	0.0855	0.1245	0	172	214	3
2026-02-12	15:39:53.610	-2.695	74.2	-36.995	0.874984	0.05856	0.026352	-0.255	0.087	0.111	0	173	196	3
2026-02-12	15:39:53.630	6.405	68.495	-37.275	0.837652	0.055144	0.07905599	-0.252	0.081	0.1095	0	173	196	3
2026-02-12	15:39:53.650	9.59	62.125	-36.925	0.88206	0.047824	0.120292	-0.2475	0.072	0.1005	0	173	196	3
2026-02-12	15:39:53.670	9.415	56.07	-32.9	0.91988	0.050752	0.136884	-0.243	0.0675	0.093	0	173	196	3
2026-02-12	15:39:53.690	7.21	49.595	-26.215	0.8845	0.042212	0.149572	-0.237	0.063	0.075	0	173	196	3
2026-02-12	15:39:53.710	3.92	40.215	-18.585	0.851072	0.016348	0.179096	-0.237	0.0585	0.0795	0	173	196	3
2026-02-12	15:39:53.730	-4.55	22.155	-0.735	0.841312	-0.00854	0.23058	-0.2415	0.063	0.0765	0	173	196	3
2026-02-12	15:39:53.750	-12.39	8.925	14.63	0.82106	-0.029524	0.280356	-0.2355	0.0585	0.0705	0	173	196	3
2026-02-12	15:39:53.770	-22.645	-5.04	30.555	0.8052	-0.068808	0.359168	-0.2265	0.0585	0.066	0	173	196	3
2026-02-12	15:39:53.790	-36.33	-17.15	47.635	0.801296	-0.133224	0.456524	-0.222	0.0645	0.0675	0	173	196	3
2026-02-12	15:39:53.810	-48.58	-24.15	66.85	0.770308	-0.207156	0.48434	-0.225	0.0705	0.069	0	176	177	2
2026-02-12	15:39:53.830	-38.57	-31.43	83.125	0.705648	-0.24766	0.416996	-0.2265	0.0825	0.0765	0	176	177	2
2026-02-12	15:39:53.850	-2.765	-44.38	94.325	0.69296	-0.255956	0.323056	-0.228	0.0945	0.0825	0	176	177	2
2026-02-12	15:39:53.870	45.08	-60.13	106.295	0.704672	-0.251808	0.230336	-0.2325	0.105	0.0855	0	176	177	2
2026-02-12	15:39:53.890	89.495	-77.385	119.735	0.769332	-0.168116	0.141032	-0.234	0.117	0.093	0	176	177	2
2026-02-12	15:39:53.910	117.565	-96.25	131.53	0.877424	-0.071004	0.081252	-0.234	0.126	0.1005	0	176	177	2
2026-02-12	15:39:53.930	136.185	-115.115	139.16	1.006988	0.01342	0.080764	-0.234	0.1335	0.1065	0	176	177	2
2026-02-12	15:39:53.950	150.535	-132.195	145.425	1.153876	0.08418	0.09272	-0.237	0.144	0.1155	0	176	177	2
2026-02-12	15:39:53.970	161.98	-146.405	149.905	1.286124	0.160064	0.08418	-0.2415	0.1515	0.132	0	176	177	2
2026-02-12	15:39:53.990	167.44	-161.385	151.515	1.412516	0.220088	0.154208	-0.246	0.156	0.1455	0	176	177	2
2026-02-12	15:39:54.010	146.37	-167.335	152.25	1.486448	0.2318	0.334524	-0.249	0.1665	0.153	0	181	178	3
2026-02-12	15:39:54.030	97.23	-160.02	149.87	1.441064	0.23424	0.448228	-0.2535	0.1785	0.1635	0	181	178	3
2026-02-12	15:39:54.050	24.36	-148.365	144.76	1.34566	0.205936	0.446032	-0.2475	0.189	0.18	0	181	178	3
2026-02-12	15:39:54.070	-44.87	-138.355	135.835	1.245376	0.155916	0.331596	-0.246	0.204	0.1965	0	181	178	3
2026-02-12	15:39:54.090	-86.555	-131.53	122.08	1.14436	0.170556	0.198372	-0.2475	0.222	0.2205	0	181	178	3
2026-02-12	15:39:54.110	-113.365	-128.52	105.735	1.085068	0.21716	0.092964	-0.2355	0.243	0.2415	0	181	178	3
2026-02-12	15:39:54.130	-135.45	-128.345	88.585	1.102148	0.214476	0.056364	-0.2295	0.2595	0.264	0	181	178	3
2026-02-12	15:39:54.150	-141.89	-126.735	70.875	1.144116	0.129564	0.05002	-0.2235	0.2715	0.294	0	181	178	3
2026-02-12	15:39:54.170	-120.225	-119.98	54.18	1.160952	0.019276	0.054656	-0.216	0.2805	0.3165	0	181	178	3
2026-02-12	15:39:54.190	-74.76	-110.985	39.97	1.159	-0.052216	0.048312	-0.2115	0.288	0.3405	0	181	178	3
2026-02-12	15:39:54.210	-19.11	-103.32	28.35	1.177056	-0.0915	0.05368	-0.2085	0.294	0.3645	0	190	185	3
2026-02-12	15:39:54.230	37.625	-95.9	16.73	1.194868	-0.112972	0.095648	-0.2025	0.2985	0.381	0	190	185	3
2026-02-12	15:39:54.250	95.165	-87.22	3.43	1.176324	-0.10492	0.139812	-0.1965	0.2955	0.39	0	190	185	3
2026-02-12	15:39:54.270	170.45	-73.92	-16.45	1.118252	-0.051728	0.216916	-0.1935	0.294	0.393	0	190	185	3
2026-02-12	15:39:54.290	204.54	-63.49	-26.635	1.096048	-0.086376	0.281332	-0.186	0.303	0.378	0	190	185	3
2026-02-12	15:39:54.310	237.3	-51.1	-35.735	1.091168	-0.068076	0.273524	-0.201	0.3015	0.366	0	190	185	3
2026-02-12	15:39:54.330	266.84	-41.79	-44.485	1.069696	0.021716	0.245708	-0.204	0.306	0.3465	0	190	185	3
2026-02-12	15:39:54.350	272.65	-35.84	-50.785	1.044076	0.083692	0.301096	-0.2085	0.3075	0.327	0	190	185	3
2026-02-12	15:39:54.370	248.605	-27.755	-53.48	1.002108	0.087596	0.343552	-0.21	0.294	0.3075	0	190	185	3
2026-02-12	15:39:54.390	216.685	-19.145	-56.945	0.929884	0.119072	0.315004	-0.21	0.2865	0.288	0	190	185	3
2026-02-12	15:39:54.410	179.025	-14.14	-61.25	0.892552	0.151036	0.339892	-0.216	0.2775	0.2775	0	199	192	3
2026-02-12	15:39:54.430	127.05	-9.625	-66.43	0.874984	0.121512	0.415532	-0.2265	0.2775	0.258	0	199	192	3
2026-02-12	15:39:54.450	73.15	-2.345	-70.315	0.897432	0.038064	0.466772	-0.24	0.2655	0.2445	0	199	192	3
2026-02-12	15:39:54.470	32.48	7.7	-72.03	0.95038	-0.024888	0.45994	-0.237	0.252	0.252	0	199	192	3
2026-02-12	15:39:54.490	6.195	17.885	-73.01	1.029436	-0.051728	0.460184	-0.2475	0.24	0.2385	0	199	192	3
2026-02-12	15:39:54.510	-12.285	29.995	-73.745	1.086288	-0.074908	0.453352	-0.255	0.2295	0.24	0	199	192	3
2026-02-12	15:39:54.530	-26.25	48.825	-73.15	1.138992	-0.119072	0.419924	-0.255	0.219	0.234	0	199	192	3
2026-02-12	15:39:54.550	-31.15	68.81	-70.595	1.229028	-0.151036	0.354776	-0.255	0.219	0.234	0	199	192	3
2026-02-12	15:39:54.570	-25.97	84.07	-69.195	1.281244	-0.16714	0.29158	-0.255	0.219	0.234	0	199	192	3
2026-02-12	15:39:54.590	-17.675	97.615	-67.69	1.297836	-0.202764	0.277428	-0.2625	0.192	0.2175	0	199	192	3
2026-02-12	15:39:54.610	-5.075	109.515	-65.485	1.298324	-0.215452	0.260348	-0.2505	0.1905	0.1995	0	207	215	3
2026-02-12	15:39:54.630	12.95	118.79	-65.73	1.292468	-0.16836	0.266448	-0.267	0.186	0.186	0	207	215	3
2026-02-12	15:39:54.650	31.71	126.315	-69.125	1.271728	-0.125416	0.291092	-0.2505	0.165	0.1695	0	207	215	3
2026-02-12	15:39:54.670	52.29	132.79	-73.01	1.24196	-0.12688	0.328912	-0.258	0.15	0.1575	0	207	215	3
2026-02-12	15:39:54.690	78.015	137.865	-77.35	1.23586	-0.096136	0.354532	-0.246	0.1395	0.132	0	207	215	3
2026-02-12	15:39:54.710	103.46	140.49	-83.09	1.223416	-0.050508	0.346724	-0.243	0.1275	0.114	0	207	215	3
2026-02-12	15:39:54.730	118.3	138.53	-87.395	1.207312	-0.006588	0.317932	-0.237	0.1245	0.0915	0	207	215	3
2026-02-12	15:39:54.750	124.46	133.105	-88.795	1.22	0.03172	0.30622	-0.2235	0.0945	0.0765	0	207	215	3
2026-02-12	15:39:54.770	119.245	127.26	-87.535	1.203164	0.095892	0.305732	-0.2175	0.078	0.057	0	207	215	3
2026-02-12	15:39:54.790	97.37	120.575	-85.295	1.146068	0.147864	0.2928	-0.207	0.051	0.042	0	207	215	3
2026-02-12	15:39:54.810	43.05	102.725	-77.595	1.074088	0.20862	0.211304	-0.207	0.051	0.042	0	211	243	3
2026-02-12	15:39:54.830	6.895	83.545	-69.65	1.041636	0.249124	0.124196	-0.192	0.0285	0.021	0	211	243	3
2026-02-12	15:39:54.850	-32.305	60.34	-59.675	1.039684	0.235948	0.12932	-0.174	0.0075	-0.0045	0	211	243	3
2026-02-12	15:39:54.870	-73.78	40.18	-46.34	1.022116	0.208132	0.157136	-0.1665	0.0045	-0.012	0	211	243	3
2026-02-12	15:39:54.890	-112.63	24.185	-31.64	1.001864	0.18056	0.1891	-0.162	0.0075	-0.015	0	211	243	3
2026-02-12	15:39:54.910	-146.58	10.395	-16.24	1.003816	0.13542	0.222284	-0.1605	0.0105	-0.012	0	211	243	3
2026-02-12	15:39:54.930	-169.155	-0.105	-2.135	1.011624	0.122976	0.256932	-0.156	0.024	-0.015	0	211	243	3
2026-02-12	15:39:54.950	-187.145	-6.51	9.625	0.980636	0.106384	0.260592	-0.1545	0.045	-0.0135	0	211	243	3
2026-02-12	15:39:54.970	-197.295	-10.605	17.885	0.94794	0.076616	0.228384	-0.156	0.0675	-0.009	0	211	243	3
2026-02-12	15:39:54.990	-193.515	-12.845	22.575	0.900848	0.043432	0.186416	-0.1545	0.0915	-0.0075	0	211	243	3
2026-02-12	15:39:53.010	-2.31	-28.28	11.095	1.228296	-0.090036	0.311588	-0.2325	0.24	0.4305	0	169	181	3
2026-02-12	15:39:53.030	26.565	-11.795	5.18	1.172176	-0.03416	0.329888	-0.2355	0.237	0.4365	0	169	181	3
2026-02-12	15:39:53.050	42.525	6.685	-2.1	1.112884	0.0122	0.288408	-0.234	0.24	0.4335	0	169	181	3
2026-02-12	15:39:53.070	54.635	25.62	-11.97	1.03578	0.058072	0.204716	-0.2385	0.2385	0.4275	0	169	181	3
2026-02-12	15:39:53.090	60.515	41.265	-24.22	0.94916	0.093208	0.145668	-0.2385	0.2415	0.42	0	169	181	3
2026-02-12	15:39:53.110	55.72	51.73	-37.45	0.903044	0.113216	0.115168	-0.2355	0.2415	0.4095	0	169	181	3
2026-02-12	15:39:53.130	42.875	57.225	-50.155	0.929396	0.106628	0.117852	-0.24	0.234	0.399	0	169	181	3
2026-02-12	15:39:53.150	31.08	62.615	-60.13	0.960872	0.07515199	0.132492	-0.2475	0.2325	0.3915	0	169	181	3
2026-02-12	15:39:53.170	21.595	67.445	-65.66	0.989908	0.060024	0.148596	-0.255	0.2265	0.3855	0	169	181	3
2026-02-12	15:39:53.190	7.735	73.36	-65.31	1.148264	0.084424	0.212524	-0.2595	0.2235	0.381	0	169	181	3
2026-02-12	15:39:53.210	-0.875	81.55	-61.285	1.170224	0.131516	0.218136	-0.2595	0.2235	0.381	0	170	208	3
2026-02-12	15:39:53.230	-8.19	88.725	-57.26	1.167052	0.169336	0.20984	-0.273	0.207	0.3465	0	170	208	3
2026-02-12	15:39:53.250	-18.655	93.59	-52.5	1.267824	0.20374	0.202276	-0.279	0.201	0.3375	0	170	208	3
2026-02-12	15:39:53.270	-28.63	100.555	-48.65	1.355664	0.185684	0.166652	-0.282	0.1875	0.3195	0	170	208	3
2026-02-12	15:39:53.290	-29.4	109.165	-47.81	1.275876	0.1769	0.11224	-0.2805	0.1785	0.309	0	170	208	3
2026-02-12	15:39:53.310	-29.89	111.44	-49.07	1.217316	0.158356	0.07198	-0.2835	0.168	0.285	0	170	208	3
2026-02-12	15:39:53.330	-29.155	108.08	-51.38	1.285392	0.132248	0.068564	-0.294	0.1665	0.2805	0	170	208	3
2026-02-12	15:39:53.350	-22.75	105.735	-53.55	1.269532	0.146888	0.07686	-0.2865	0.159	0.2655	0	170	208	3
2026-02-12	15:39:53.370	-16.73	101.64	-56.14	1.222196	0.148108	0.097112	-0.291	0.1545	0.258	0	170	208	3
2026-02-12	15:39:53.390	-11.34	95.235	-57.785	1.207556	0.160796	0.122	-0.285	0.141	0.24	0	170	208	3
2026-02-12	15:39:53.410	-11.55	89.355	-57.89	1.258796	0.171288	0.161528	-0.285	0.1395	0.2235	0	172	214	3
2026-02-12	15:39:53.430	-15.12	87.325	-56.35	1.26148	0.176656	0.162748	-0.2895	0.123	0.2115	0	172	214	3
2026-02-12	15:39:53.450	-20.475	86.275	-52.92	1.21146	0.179828	0.131516	-0.2865	0.1215	0.207	0	172	214	3
2026-02-12	15:39:53.470	-26.53	84.84	-49.07	1.1895	0.178852	0.090036	-0.285	0.12	0.2025	0	172	214	3
2026-02-12	15:39:53.490	-31.045	84.28	-45.955	1.168028	0.157624	0.052216	-0.2805	0.1035	0.18	0	172	214	3
2026-02-12	15:39:53.510	-32.41	83.65	-43.015	1.140944	0.136396	0.02684	-0.276	0.0945	0.1665	0	172	214	3
2026-02-12	15:39:53.530	-31.22	83.09	-40.6	1.083116	0.129564	0.015128	-0.2745	0.0915	0.159	0	172	214	3
2026-02-12	15:39:53.550	-28.49	81.795	-39.235	1.03822	0.108824	0.014396	-0.276	0.0975	0.1485	0	172	214	3
2026-02-12	15:39:53.570	-22.435	80.29	-38.465	1.008452	0.092476	0.013176	-0.2625	0.093	0.1335	0	172	214	3
2026-02-12	15:39:53.590	-13.51	78.295	-37.555	0.947696	0.075396	0.00854	-0.2625	0.0855	0.1245	0	172	214	3
2026-02-12	15:39:53.610	-2.695	74.2	-36.995	0.874984	0.05856	0.026352	-0.255	0.087	0.111	0	173	196	3
2026-02-12	15:39:53.630	6.405	68.495	-37.275	0.837652	0.055144	0.07905599	-0.252	0.081	0.1095	0	173	196	3
2026-02-12	15:39:53.650	9.59	62.125	-36.925	0.88206	0.047824	0.120292	-0.2475	0.072	0.1005	0	173	196	3
2026-02-12	15:39:53.670	9.415	56.07	-32.9	0.91988	0.050752	0.136884	-0.243	0.0675	0.093	0	173	196	3
2026-02-12	15:39:53.690	7.21	49.595	-26.215	0.8845	0.042212	0.149572	-0.237	0.063	0.075	0	173	196	3
2026-02-12	15:39:53.710	3.92	40.215	-18.585	0.851072	0.016348	0.179096	-0.237	0.0585	0.0795	0	173	196	3
2026-02-12	15:39:53.730	-4.55	22.155	-0.735	0.841312	-0.00854	0.23058	-0.2415	0.063	0.0765	0	173	196	3
2026-02-12	15:39:53.750	-12.39	8.925	14.63	0.82106	-0.029524	0.280356	-0.2355	0.0585	0.0705	0	173	196	3
2026-02-12	15:39:53.770	-22.645	-5.04	30.555	0.8052	-0.068808	0.359168	-0.2265	0.0585	0.066	0	173	196	3
2026-02-12	15:39:53.790	-36.33	-17.15	47.635	0.801296	-0.133224	0.456524	-0.222	0.0645	0.0675	0	173	196	3
2026-02-12	15:39:53.810	-48.58	-24.15	66.85	0.770308	-0.207156	0.48434	-0.225	0.0705	0.069	0	176	177	2
2026-02-12	15:39:53.830	-38.57	-31.43	83.125	0.705648	-0.24766	0.416996	-0.2265	0.0825	0.0765	0	176	177	2
2026-02-12	15:39:53.850	-2.765	-44.38	94.325	0.69296	-0.255956	0.323056	-0.228	0.0945	0.0825	0	176	177	2
2026-02-12	15:39:53.870	45.08	-60.13	106.295	0.704672	-0.251808	0.230336	-0.2325	0.105	0.0855	0	176	177	2
2026-02-12	15:39:53.890	89.495	-77.385	119.735	0.769332	-0.168116	0.141032	-0.234	0.117	0.093	0	176	177	2
2026-02-12	15:39:53.910	117.565	-96.25	131.53	0.877424	-0.071004	0.081252	-0.234	0.126	0.1005	0	176	177	2
2026-02-12	15:39:53.930	136.185	-115.115	139.16	1.006988	0.01342	0.080764	-0.234	0.1335	0.1065	0	176	177	2
2026-02-12	15:39:53.950	150.535	-132.195	145.425	1.153876	0.08418	0.09272	-0.237	0.144	0.1155	0	176	177	2
2026-02-12	15:39:53.970	161.98	-146.405	149.905	1.286124	0.160064	0.08418	-0.2415	0.1515	0.132	0	176	177	2
2026-02-12	15:39:53.990	167.44	-161.385	151.515	1.412516	0.220088	0.154208	-0.246	0.156	0.1455	0	176	177	2
2026-02-12	15:39:54.010	146.37	-167.335	152.25	1.486448	0.2318	0.334524	-0.249	0.1665	0.153	0	181	178	3
2026-02-12	15:39:54.030	97.23	-160.02	149.87	1.441064	0.23424	0.448228	-0.2535	0.1785	0.1635	0	181	178	3
2026-02-12	15:39:54.050	24.36	-148.365	144.76	1.34566	0.205936	0.446032	-0.2475	0.189	0.18	0	181	178	3
2026-02-12	15:39:54.070	-44.87	-138.355	135.835	1.245376	0.155916	0.331596	-0.246	0.204	0.1965	0	181	178	3
2026-02-12	15:39:54.090	-86.555	-131.53	122.08	1.14436	0.170556	0.198372	-0.2475	0.222	0.2205	0	181	178	3
2026-02-12	15:39:54.110	-113.365	-128.52	105.735	1.085068	0.21716	0.092964	-0.2355	0.243	0.2415	0	181	178	3
2026-02-12	15:39:54.130	-135.45	-128.345	88.585	1.102148	0.214476	0.056364	-0.2295	0.2595	0.264	0	181	178	3
2026-02-12	15:39:54.150	-141.89	-126.735	70.875	1.144116	0.129564	0.05002	-0.2235	0.2715	0.294	0	181	178	3
2026-02-12	15:39:54.170	-120.225	-119.98	54.18	1.160952	0.019276	0.054656	-0.216	0.2805	0.3165	0	181	178	3
2026-02-12	15:39:54.190	-74.76	-110.985	39.97	1.159	-0.052216	0.048312	-0.2115	0.288	0.3405	0	181	178	3
2026-02-12	15:39:54.210	-19.11	-103.32	28.35	1.177056	-0.0915	0.05368	-0.2085	0.294	0.3645	0	190	185	3
2026-02-12	15:39:54.230	37.625	-95.9	16.73	1.194868	-0.112972	0.095648	-0.2025	0.2985	0.381	0	190	185	3
2026-02-12	15:39:54.250	95.165	-87.22	3.43	1.176324	-0.10492	0.139812	-0.1965	0.2955	0.39	0	190	185	3
2026-02-12	15:39:54.270	170.45	-73.92	-16.45	1.118252	-0.051728	0.216916	-0.1935	0.294	0.393	0	190	185	3
2026-02-12	15:39:54.290	204.54	-63.49	-26.635	1.096048	-0.086376	0.281332	-0.186	0.303	0.378	0	190	185	3
2026-02-12	15:39:54.310	237.3	-51.1	-35.735	1.091168	-0.068076	0.273524	-0.201	0.3015	0.366	0	190	185	3
2026-02-12	15:39:54.330	266.84	-41.79	-44.485	1.069696	0.021716	0.245708	-0.204	0.306	0.3465	0	190	185	3
2026-02-12	15:39:54.350	272.65	-35.84	-50.785	1.044076	0.083692	0.301096	-0.2085	0.3075	0.327	0	190	185	3
2026-02-12	15:39:54.370	248.605	-27.755	-53.48	1.002108	0.087596	0.343552	-0.21	0.294	0.3075	0	190	185	3
2026-02-12	15:39:54.390	216.685	-19.145	-56.945	0.929884	0.119072	0.315004	-0.21	0.2865	0.288	0	190	185	3
2026-02-12	15:39:54.410	179.025	-14.14	-61.25	0.892552	0.151036	0.339892	-0.216	0.2775	0.2775	0	199	192	3
2026-02-12	15:39:54.430	127.05	-9.625	-66.43	0.874984	0.121512	0.415532	-0.2265	0.2775	0.258	0	199	192	3
2026-02-12	15:39:54.450	73.15	-2.345	-70.315	0.897432	0.038064	0.466772	-0.24	0.2655	0.2445	0	199	192	3
2026-02-12	15:39:54.470	32.48	7.7	-72.03	0.95038	-0.024888	0.45994	-0.237	0.252	0.252	0	199	192	3
2026-02-12	15:39:54.490	6.195	17.885	-73.01	1.029436	-0.051728	0.460184	-0.2475	0.24	0.2385	0	199	192	3
2026-02-12	15:39:54.510	-12.285	29.995	-73.745	1.086288	-0.074908	0.453352	-0.255	0.2295	0.24	0	199	192	3
2026-02-12	15:39:54.530	-26.25	48.825	-73.15	1.138992	-0.119072	0.419924	-0.255	0.219	0.234	0	199	192	3
2026-02-12	15:39:54.550	-31.15	68.81	-70.595	1.229028	-0.151036	0.354776	-0.255	0.219	0.234	0	199	192	3
2026-02-12	15:39:54.570	-25.97	84.07	-69.195	1.281244	-0.16714	0.29158	-0.255	0.219	0.234	0	199	192	3
2026-02-12	15:39:54.590	-17.675	97.615	-67.69	1.297836	-0.202764	0.277428	-0.2625	0.192	0.2175	0	199	192	3
2026-02-12	15:39:54.610	-5.075	109.515	-65.485	1.298324	-0.215452	0.260348	-0.2505	0.1905	0.1995	0	207	215	3
2026-02-12	15:39:54.630	12.95	118.79	-65.73	1.292468	-0.16836	0.266448	-0.267	0.186	0.186	0	207	215	3
2026-02-12	15:39:54.650	31.71	126.315	-69.125	1.271728	-0.125416	0.291092	-0.2505	0.165	0.1695	0	207	215	3
2026-02-12	15:39:54.670	52.29	132.79	-73.01	1.24196	-0.12688	0.328912	-0.258	0.15	0.1575	0	207	215	3
2026-02-12	15:39:54.690	78.015	137.865	-77.35	1.23586	-0.096136	0.354532	-0.246	0.1395	0.132	0	207	215	3
2026-02-12	15:39:54.710	103.46	140.49	-83.09	1.223416	-0.050508	0.346724	-0.243	0.1275	0.114	0	207	215	3
2026-02-12	15:39:54.730	118.3	138.53	-87.395	1.207312	-0.006588	0.317932	-0.237	0.1245	0.0915	0	207	215	3
2026-02-12	15:39:54.750	124.46	133.105	-88.795	1.22	0.03172	0.30622	-0.2235	0.0945	0.0765	0	207	215	3
2026-02-12	15:39:54.770	119.245	127.26	-87.535	1.203164	0.095892	0.305732	-0.2175	0.078	0.057	0	207	215	3
2026-02-12	15:39:54.790	97.37	120.575	-85.295	1.146068	0.147864	0.2928	-0.207	0.051	0.042	0	207	215	3
2026-02-12	15:39:54.810	43.05	102.725	-77.595	1.074088	0.20862	0.211304	-0.207	0.051	0.042	0	211	243	3
2026-02-12	15:39:54.830	6.895	83.545	-69.65	1.041636	0.249124	0.124196	-0.192	0.0285	0.021	0	211	243	3
2026-02-12	15:39:54.850	-32.305	60.34	-59.675	1.039684	0.235948	0.12932	-0.174	0.0075	-0.0045	0	211	243	3
2026-02-12	15:39:54.870	-73.78	40.18	-46.34	1.022116	0.208132	0.157136	-0.1665	0.0045	-0.012	0	211	243	3
2026-02-12	15:39:54.890	-112.63	24.185	-31.64	1.001864	0.18056	0.1891	-0.162	0.0075	-0.015	0	211	243	3
2026-02-12	15:39:54.910	-146.58	10.395	-16.24	1.003816	0.13542	0.222284	-0.1605	0.0105	-0.012	0	211	243	3
2026-02-12	15:39:54.930	-169.155	-0.105	-2.135	1.011624	0.122976	0.256932	-0.156	0.024	-0.015	0	211	243	3
2026-02-12	15:39:54.950	-187.145	-6.51	9.625	0.980636	0.106384	0.260592	-0.1545	0.045	-0.0135	0	211	243	3
2026-02-12	15:39:54.970	-197.295	-10.605	17.885	0.94794	0.076616	0.228384	-0.156	0.0675	-0.009	0	211	243	3
2026-02-12	15:39:54.990	-193.515	-12.845	22.575	0.900848	0.043432	0.186416	-0.1545	0.0915	-0.0075	0	211	243	3
2026-02-12	15:39:53.010	-2.31	-28.28	11.095	1.228296	-0.090036	0.311588	-0.2325	0.24	0.4305	0	169	181	3
2026-02-12	15:39:53.030	26.565	-11.795	5.18	1.172176	-0.03416	0.329888	-0.2355	0.237	0.4365	0	169	181	3
2026-02-12	15:39:53.050	42.525	6.685	-2.1	1.112884	0.0122	0.288408	-0.234	0.24	0.4335	0	169	181	3
2026-02-12	15:39:53.070	54.635	25.62	-11.97	1.03578	0.058072	0.204716	-0.2385	0.2385	0.4275	0	169	181	3
2026-02-12	15:39:53.090	60.515	41.265	-24.22	0.94916	0.093208	0.145668	-0.2385	0.2415	0.42	0	169	181	3
2026-02-12	15:39:53.110	55.72	51.73	-37.45	0.903044	0.113216	0.115168	-0.2355	0.2415	0.4095	0	169	181	3
2026-02-12	15:39:53.130	42.875	57.225	-50.155	0.929396	0.106628	0.117852	-0.24	0.234	0.399	0	169	181	3
2026-02-12	15:39:53.150	31.08	62.615	-60.13	0.960872	0.07515199	0.132492	-0.2475	0.2325	0.3915	0	169	181	3
2026-02-12	15:39:53.170	21.595	67.445	-65.66	0.989908	0.060024	0.148596	-0.255	0.2265	0.3855	0	169	181	3
2026-02-12	15:39:53.190	7.735	73.36	-65.31	1.148264	0.084424	0.212524	-0.2595	0.2235	0.381	0	169	181	3
2026-02-12	15:39:53.210	-0.875	81.55	-61.285	1.170224	0.131516	0.218136	-0.2595	0.2235	0.381	0	170	208	3
2026-02-12	15:39:53.230	-8.19	88.725	-57.26	1.167052	0.169336	0.20984	-0.273	0.207	0.3465	0	170	208	3
2026-02-12	15:39:53.250	-18.655	93.59	-52.5	1.267824	0.20374	0.202276	-0.279	0.201	0.3375	0	170	208	3
2026-02-12	15:39:53.270	-28.63	100.555	-48.65	1.355664	0.185684	0.166652	-0.282	0.1875	0.3195	0	170	208	3
2026-02-12	15:39:53.290	-29.4	109.165	-47.81	1.275876	0.1769	0.11224	-0.2805	0.1785	0.309	0	170	208	3
2026-02-12	15:39:53.310	-29.89	111.44	-49.07	1.217316	0.158356	0.07198	-0.2835	0.168	0.285	0	170	208	3
2026-02-12	15:39:53.330	-29.155	108.08	-51.38	1.285392	0.132248	0.068564	-0.294	0.1665	0.2805	0	170	208	3
2026-02-12	15:39:53.350	-22.75	105.735	-53.55	1.269532	0.146888	0.07686	-0.2865	0.159	0.2655	0	170	208	3
2026-02-12	15:39:53.370	-16.73	101.64	-56.14	1.222196	0.148108	0.097112	-0.291	0.1545	0.258	0	170	208	3
2026-02-12	15:39:53.390	-11.34	95.235	-57.785	1.207556	0.160796	0.122	-0.285	0.141	0.24	0	170	208	3
2026-02-12	15:39:53.410	-11.55	89.355	-57.89	1.258796	0.171288	0.161528	-0.285	0.1395	0.2235	0	172	214	3
2026-02-12	15:39:53.430	-15.12	87.325	-56.35	1.26148	0.176656	0.162748	-0.2895	0.123	0.2115	0	172	214	3
2026-02-12	15:39:53.450	-20.475	86.275	-52.92	1.21146	0.179828	0.131516	-0.2865	0.1215	0.207	0	172	214	3
2026-02-12	15:39:53.470	-26.53	84.84	-49.07	1.1895	0.178852	0.090036	-0.285	0.12	0.2025	0	172	214	3
2026-02-12	15:39:53.490	-31.045	84.28	-45.955	1.168028	0.157624	0.052216	-0.2805	0.1035	0.18	0	172	214	3
2026-02-12	15:39:53.510	-32.41	83.65	-43.015	1.140944	0.136396	0.02684	-0.276	0.0945	0.1665	0	172	214	3
2026-02-12	15:39:53.530	-31.22	83.09	-40.6	1.083116	0.129564	0.015128	-0.2745	0.0915	0.159	0	172	214	3
2026-02-12	15:39:53.550	-28.49	81.795	-39.235	1.03822	0.108824	0.014396	-0.276	0.0975	0.1485	0	172	214	3
2026-02-12	15:39:53.570	-22.435	80.29	-38.465	1.008452	0.092476	0.013176	-0.2625	0.093	0.1335	0	172	214	3
2026-02-12	15:39:53.590	-13.51	78.295	-37.555	0.947696	0.075396	0.00854	-0.2625	0.0855	0.1245	0	172	214	3
2026-02-12	15:39:53.610	-2.695	74.2	-36.995	0.874984	0.05856	0.026352	-0.255	0.087	0.111	0	173	196	3
2026-02-12	15:39:53.630	6.405	68.495	-37.275	0.837652	0.055144	0.07905599	-0.252	0.081	0.1095	0	173	196	3
2026-02-12	15:39:53.650	9.59	62.125	-36.925	0.88206	0.047824	0.120292	-0.2475	0.072	0.1005	0	173	196	3
2026-02-12	15:39:53.670	9.415	56.07	-32.9	0.91988	0.050752	0.136884	-0.243	0.0675	0.093	0	173	196	3
2026-02-12	15:39:53.690	7.21	49.595	-26.215	0.8845	0.042212	0.149572	-0.237	0.063	0.075	0	173	196	3
2026-02-12	15:39:53.710	3.92	40.215	-18.585	0.851072	0.016348	0.179096	-0.237	0.0585	0.0795	0	173	196	3
2026-02-12	15:39:53.730	-4.55	22.155	-0.735	0.841312	-0.00854	0.23058	-0.2415	0.063	0.0765	0	173	196	3
2026-02-12	15:39:53.750	-12.39	8.925	14.63	0.82106	-0.029524	0.280356	-0.2355	0.0585	0.0705	0	173	196	3
2026-02-12	15:39:53.770	-22.645	-5.04	30.555	0.8052	-0.068808	0.359168	-0.2265	0.0585	0.066	0	173	196	3
2026-02-12	15:39:53.790	-36.33	-17.15	47.635	0.801296	-0.133224	0.456524	-0.222	0.0645	0.0675	0	173	196	3
2026-02-12	15:39:53.810	-48.58	-24.15	66.85	0.770308	-0.207156	0.48434	-0.225	0.0705	0.069	0	176	177	2
2026-02-12	15:39:53.830	-38.57	-31.43	83.125	0.705648	-0.24766	0.416996	-0.2265	0.0825	0.0765	0	176	177	2
2026-02-12	15:39:53.850	-2.765	-44.38	94.325	0.69296	-0.255956	0.323056	-0.228	0.0945	0.0825	0	176	177	2
2026-02-12	15:39:53.870	45.08	-60.13	106.295	0.704672	-0.251808	0.230336	-0.2325	0.105	0.0855	0	176	177	2
2026-02-12	15:39:53.890	89.495	-77.385	119.735	0.769332	-0.168116	0.141032	-0.234	0.117	0.093	0	176	177	2
2026-02-12	15:39:53.910	117.565	-96.25	131.53	0.877424	-0.071004	0.081252	-0.234	0.126	0.1005	0	176	177	2
2026-02-12	15:39:53.930	136.185	-115.115	139.16	1.006988	0.01342	0.080764	-0.234	0.1335	0.1065	0	176	177	2
2026-02-12	15:39:53.950	150.535	-132.195	145.425	1.153876	0.08418	0.09272	-0.237	0.144	0.1155	0	176	177	2
2026-02-12	15:39:53.970	161.98	-146.405	149.905	1.286124	0.160064	0.08418	-0.2415	0.1515	0.132	0	176	177	2
2026-02-12	15:39:53.990	167.44	-161.385	151.515	1.412516	0.220088	0.154208	-0.246	0.156	0.1455	0	176	177	2
2026-02-12	15:39:54.010	146.37	-167.335	152.25	1.486448	0.2318	0.334524	-0.249	0.1665	0.153	0	181	178	3
2026-02-12	15:39:54.030	97.23	-160.02	149.87	1.441064	0.23424	0.448228	-0.2535	0.1785	0.1635	0	181	178	3
2026-02-12	15:39:54.050	24.36	-148.365	144.76	1.34566	0.205936	0.446032	-0.2475	0.189	0.18	0	181	178	3
2026-02-12	15:39:54.070	-44.87	-138.355	135.835	1.245376	0.155916	0.331596	-0.246	0.204	0.1965	0	181	178	3
2026-02-12	15:39:54.090	-86.555	-131.53	122.08	1.14436	0.170556	0.198372	-0.2475	0.222	0.2205	0	181	178	3
2026-02-12	15:39:54.110	-113.365	-128.52	105.735	1.085068	0.21716	0.092964	-0.2355	0.243	0.2415	0	181	178	3
2026-02-12	15:39:54.130	-135.45	-128.345	88.585	1.102148	0.214476	0.056364	-0.2295	0.2595	0.264	0	181	178	3
2026-02-12	15:39:54.150	-141.89	-126.735	70.875	1.144116	0.129564	0.05002	-0.2235	0.2715	0.294	0	181	178	3
2026-02-12	15:39:54.170	-120.225	-119.98	54.18	1.160952	0.019276	0.054656	-0.216	0.2805	0.3165	0	181	178	3
2026-02-12	15:39:54.190	-74.76	-110.985	39.97	1.159	-0.052216	0.048312	-0.2115	0.288	0.3405	0	181	178	3
2026-02-12	15:39:54.210	-19.11	-103.32	28.35	1.177056	-0.0915	0.05368	-0.2085	0.294	0.3645	0	190	185	3
2026-02-12	15:39:54.230	37.625	-95.9	16.73	1.194868	-0.112972	0.095648	-0.2025	0.2985	0.381	0	190	185	3
2026-02-12	15:39:54.250	95.165	-87.22	3.43	1.176324	-0.10492	0.139812	-0.1965	0.2955	0.39	0	190	185	3
2026-02-12	15:39:54.270	170.45	-73.92	-16.45	1.118252	-0.051728	0.216916	-0.1935	0.294	0.393	0	190	185	3
2026-02-12	15:39:54.290	204.54	-63.49	-26.635	1.096048	-0.086376	0.281332	-0.186	0.303	0.378	0	190	185	3
2026-02-12	15:39:54.310	237.3	-51.1	-35.735	1.091168	-0.068076	0.273524	-0.201	0.3015	0.366	0	190	185	3
2026-02-12	15:39:54.330	266.84	-41.79	-44.485	1.069696	0.021716	0.245708	-0.204	0.306	0.3465	0	190	185	3
2026-02-12	15:39:54.350	272.65	-35.84	-50.785	1.044076	0.083692	0.301096	-0.2085	0.3075	0.327	0	190	185	3
2026-02-12	15:39:54.370	248.605	-27.755	-53.48	1.002108	0.087596	0.343552	-0.21	0.294	0.3075	0	190	185	3
2026-02-12	15:39:54.390	216.685	-19.145	-56.945	0.929884	0.119072	0.315004	-0.21	0.2865	0.288	0	190	185	3
2026-02-12	15:39:54.410	179.025	-14.14	-61.25	0.892552	0.151036	0.339892	-0.216	0.2775	0.2775	0	199	192	3
2026-02-12	15:39:54.430	127.05	-9.625	-66.43	0.874984	0.121512	0.415532	-0.2265	0.2775	0.258	0	199	192	3
2026-02-12	15:39:54.450	73.15	-2.345	-70.315	0.897432	0.038064	0.466772	-0.24	0.2655	0.2445	0	199	192	3
2026-02-12	15:39:54.470	32.48	7.7	-72.03	0.95038	-0.024888	0.45994	-0.237	0.252	0.252	0	199	192	3
2026-02-12	15:39:54.490	6.195	17.885	-73.01	1.029436	-0.051728	0.460184	-0.2475	0.24	0.2385	0	199	192	3
2026-02-12	15:39:54.510	-12.285	29.995	-73.745	1.086288	-0.074908	0.453352	-0.255	0.2295	0.24	0	199	192	3
2026-02-12	15:39:54.530	-26.25	48.825	-73.15	1.138992	-0.119072	0.419924	-0.255	0.219	0.234	0	199	192	3
2026-02-12	15:39:54.550	-31.15	68.81	-70.595	1.229028	-0.151036	0.354776	-0.255	0.219	0.234	0	199	192	3
2026-02-12	15:39:54.570	-25.97	84.07	-69.195	1.281244	-0.16714	0.29158	-0.255	0.219	0.234	0	199	192	3
2026-02-12	15:39:54.590	-17.675	97.615	-67.69	1.297836	-0.202764	0.277428	-0.2625	0.192	0.2175	0	199	192	3
2026-02-12	15:40:10.610	-58.38	16.415	-69.545	1.007476	0.366	0.181048	-0.291	-0.0135	0.18	0	402	245	3
2026-02-12	15:40:10.630	-73.045	11.865	-62.3	1.008208	0.337208	0.195932	-0.2925	-0.006	0.1695	0	402	245	3
2026-02-12	15:40:10.650	-83.475	8.96	-54.145	1.024312	0.307684	0.197884	-0.2895	-0.012	0.1755	0	402	245	3
2026-02-12	15:40:10.670	-89.775	7.21	-45.15	1.062132	0.286944	0.177388	-0.2835	-0.0105	0.1755	0	402	245	3
2026-02-12	15:40:10.690	-90.895	6.615	-36.295	1.103368	0.249612	0.1403	-0.291	-0.021	0.177	0	402	245	3
2026-02-12	15:40:10.710	-85.295	5.985	-27.58	1.090192	0.216916	0.09394	-0.2835	-0.024	0.1635	0	402	245	3
2026-02-12	15:40:10.730	-74.375	3.745	-18.305	1.067256	0.196176	0.020984	-0.285	-0.0165	0.1665	0	402	245	3
2026-02-12	15:40:10.750	-59.745	-0.665	-9.38	1.07726	0.193004	-0.080764	-0.2805	-0.0165	0.165	0	402	245	3
2026-02-12	15:40:10.770	-31.675	-8.435	-1.82	1.020896	0.089792	-0.217404	-0.2805	-0.0165	0.165	0	402	245	3
2026-02-12	15:40:10.790	15.925	-15.33	-5.25	0.872544	-0.085888	-0.232776	-0.2805	-0.012	0.1665	0	402	245	3
2026-02-12	15:40:10.810	64.68	-22.75	-9.45	0.792756	-0.039284	-0.167872	-0.282	-0.0105	0.1725	0	369	223	3
2026-02-12	15:40:10.830	93.8	-27.09	-13.3	0.674904	0.020984	-0.059048	-0.2835	-0.0165	0.1755	0	369	223	3
2026-02-12	15:40:10.850	94.045	-31.15	-15.575	0.590968	0.02196	0.082716	-0.2835	-0.021	0.1785	0	369	223	3
2026-02-12	15:40:10.870	71.33	-31.99	-10.395	0.537776	0.003172	0.256688	-0.285	-0.03	0.1845	0	369	223	3
2026-02-12	15:40:10.890	41.125	-30.415	6.825	0.67588	-0.04148	0.249368	-0.285	-0.0375	0.189	0	369	223	3
2026-02-12	15:40:10.910	41.3	-33.005	38.92	1.006256	0.106384	0.18056	-0.291	-0.036	0.1935	0	369	223	3
2026-02-12	15:40:10.930	43.96	-37.38	71.715	1.146556	0.341844	0.158356	-0.294	-0.033	0.2025	0	369	223	3
2026-02-12	15:40:10.950	21.14	-38.85	92.54	1.090192	0.341356	0.192272	-0.294	-0.0255	0.207	0	369	223	3
2026-02-12	15:40:10.970	-5.075	-45.395	111.615	1.15656	0.169824	0.149084	-0.2925	-0.0105	0.2115	0	369	223	3
2026-02-12	15:40:10.990	-2.765	-56.735	130.55	1.207312	0.130784	0.139324	-0.297	0.0075	0.222	0	369	223	3
2026-02-12	15:40:11.010	4.76	-71.26	151.165	1.234152	0.16836	0.277916	-0.303	0.024	0.2265	0	342	191	3
2026-02-12	15:40:11.030	-14.945	-81.76	171.43	1.21512	0.235704	0.544608	-0.303	0.0315	0.228	0	342	191	3
2026-02-12	15:40:11.050	-38.15	-81.235	171.745	1.075552	0.183	0.663924	-0.3015	0.0555	0.2415	0	342	191	3
2026-02-12	15:40:11.070	-41.965	-79.835	164.15	0.94916	0.130784	0.609268	-0.294	0.0945	0.264	0	342	191	3
2026-02-12	15:40:11.090	-42	-80.115	155.47	0.919148	0.130052	0.521184	-0.2895	0.117	0.276	0	342	191	3
2026-02-12	15:40:11.110	-50.05	-79.03	148.015	0.95282	0.172264	0.458232	-0.2895	0.1365	0.291	0	342	191	3
2026-02-12	15:40:11.130	-63.455	-74.375	139.895	0.949892	0.191296	0.371124	-0.2835	0.159	0.3045	0	342	191	3
2026-02-12	15:40:11.150	-64.4	-69.93	129.99	0.944768	0.13298	0.303048	-0.2715	0.1815	0.315	0	342	191	3
2026-02-12	15:40:11.170	-54.215	-67.97	118.44	0.996496	0.121512	0.275476	-0.2655	0.1965	0.3315	0	342	191	3
2026-02-12	15:40:11.190	-44.975	-64.75	106.435	1.053348	0.123708	0.282064	-0.2595	0.2145	0.3465	0	342	191	3
2026-02-12	15:40:11.210	-42.98	-58.94	94.43	1.06628	0.132492	0.305244	-0.249	0.228	0.36	0	321	195	3
2026-02-12	15:40:11.230	-47.53	-51.765	80.955	1.07848	0.10004	0.34526	-0.2385	0.234	0.372	0	321	195	3
2026-02-12	15:40:11.250	-40.635	-42.35	64.54	1.066036	0.042212	0.367708	-0.234	0.246	0.3795	0	321	195	3
2026-02-12	15:40:11.270	-22.925	-33.565	45.675	1.095072	0.00244	0.363804	-0.2295	0.2565	0.3885	0	321	195	3
2026-02-12	15:40:11.290	5.18	-21.805	22.715	1.154364	-0.031232	0.334036	-0.222	0.261	0.396	0	321	195	3
2026-02-12	15:40:11.310	36.47	-8.26	1.89	1.189744	-0.01464	0.325008	-0.219	0.264	0.396	0	321	195	3
2026-02-12	15:40:11.330	59.22	5.075	-13.72	1.163636	-0.014396	0.326228	-0.216	0.267	0.408	0	321	195	3
2026-02-12	15:40:11.350	82.88	18.13	-30.275	1.127524	0.010492	0.296216	-0.2175	0.27	0.393	0	321	195	3
2026-02-12	15:40:11.370	100.94	29.05	-46.655	1.092388	0.0366	0.266448	-0.2175	0.273	0.384	0	321	195	3
2026-02-12	15:40:11.390	108.605	36.645	-61.565	1.07604	0.056608	0.270108	-0.2235	0.261	0.366	0	321	195	3
2026-02-12	15:40:11.410	106.82	42.315	-74.095	1.059448	0.055388	0.271572	-0.222	0.264	0.3645	0	304	223	3
2026-02-12	15:40:11.430	101.64	46.445	-84.35	1.03334	0.062464	0.240828	-0.2355	0.2505	0.3495	0	304	223	3
2026-02-12	15:40:11.450	94.955	48.65	-92.4	0.99186	0.084912	0.216428	-0.243	0.246	0.33	0	304	223	3
2026-02-12	15:40:11.470	83.265	48.37	-98.105	0.955748	0.09028	0.24156	-0.2385	0.2355	0.324	0	304	223	3
2026-02-12	15:40:11.490	70.28	47.95	-101.22	0.923296	0.09638	0.27084	-0.2505	0.2205	0.3105	0	304	223	3
2026-02-12	15:40:11.510	60.795	46.795	-102.83	0.917684	0.111508	0.278404	-0.264	0.201	0.2985	0	304	223	3
2026-02-12	15:40:11.530	52.955	44.485	-102.655	0.96502	0.131516	0.289384	-0.2685	0.195	0.291	0	304	223	3
2026-02-12	15:40:11.550	48.86	43.05	-101.57	0.992104	0.175924	0.298656	-0.2685	0.1755	0.2775	0	304	223	3
2026-02-12	15:40:11.570	20.02	40.705	-98.77	1.027972	0.283528	0.317444	-0.2715	0.168	0.27	0	304	223	3
2026-02-12	15:40:11.590	-10.955	39.97	-96.845	1.057496	0.323544	0.31232	-0.2775	0.15	0.2595	0	304	223	3
2026-02-12	15:40:11.610	-36.4	40.74	-94.92	1.076528	0.340624	0.298656	-0.285	0.1335	0.2505	0	287	249	3
2026-02-12	15:40:11.630	-45.185	43.12	-94.43	1.090924	0.368684	0.296216	-0.2865	0.12	0.2505	0	287	249	3
2026-02-12	15:40:11.650	-40.88	44.765	-96.25	1.118496	0.401868	0.299144	-0.291	0.117	0.246	0	287	249	3
2026-02-12	15:40:11.670	-37.835	45.5	-98.14	1.120692	0.422608	0.308416	-0.297	0.105	0.237	0	287	249	3
2026-02-12	15:40:11.690	-36.61	46.725	-99.33	1.104344	0.412848	0.322568	-0.288	0.096	0.2355	0	287	249	3
2026-02-12	15:40:11.710	-29.785	48.3	-100.31	1.084336	0.393328	0.325496	-0.297	0.0825	0.2235	0	287	249	3
2026-02-12	15:40:11.730	-15.155	49.7	-101.71	1.055544	0.429684	0.307196	-0.2925	0.0705	0.2235	0	287	249	3
2026-02-12	15:40:11.750	-2.03	48.23	-103.495	1.040416	0.470188	0.288164	-0.2955	0.0555	0.21	0	287	249	3
2026-02-12	15:40:11.770	0.28	44.835	-102.76	1.033584	0.497028	0.313784	-0.3	0.045	0.2085	0	287	249	3
2026-02-12	15:40:11.790	-10.465	43.26	-99.26	1.012356	0.513864	0.327204	-0.288	0.0315	0.1995	0	287	249	3
2026-02-12	15:40:11.810	-28.735	42.42	-94.92	0.9882	0.517524	0.3111	-0.2985	0.012	0.195	0	272	266	3
2026-02-12	15:40:11.830	-46.97	39.62	-90.3	0.954284	0.483364	0.275232	-0.2955	0.0045	0.1935	0	272	266	3
2026-02-12	15:40:11.850	-61.355	36.12	-83.405	0.931592	0.461892	0.256932	-0.2955	0.0045	0.1935	0	272	266	3
2026-02-12	15:40:11.870	-71.925	34.615	-74.55	0.931104	0.44164	0.233508	-0.2955	-0.0105	0.1815	0	272	266	3
2026-02-12	15:40:11.890	-78.365	33.11	-65.205	0.923784	0.425048	0.200568	-0.294	-0.027	0.174	0	272	266	3
2026-02-12	15:40:11.910	-83.51	28.875	-56.91	0.950624	0.397232	0.182024	-0.288	-0.03	0.1725	0	272	266	3
2026-02-12	15:40:11.930	-89.81	24.255	-47.74	0.938912	0.360876	0.162016	-0.285	-0.0345	0.162	0	272	266	3
2026-02-12	15:40:11.950	-93.695	19.74	-37.485	0.917684	0.314516	0.131028	-0.288	-0.039	0.1575	0	272	266	3
2026-02-12	15:40:11.970	-88.795	15.085	-27.125	0.9882	0.2745	0.07686	-0.2835	-0.039	0.1515	0	272	266	3
2026-02-12	15:40:11.990	-72.555	12.145	-17.885	1.015528	0.226676	-0.02074	-0.279	-0.039	0.1425	0	272	266	3
2026-02-12	15:40:12.010	-47.425	5.32	-8.68	0.93086	0.180316	-0.155428	-0.285	-0.042	0.1425	0	260	266	3
2026-02-12	15:40:12.030	-40.74	-1.75	-2.905	0.8723	0.120536	-0.244488	-0.2835	-0.0405	0.141	0	260	266	3
2026-02-12	15:40:12.050	-34.51	-12.075	5.775	0.81496	0.040748	-0.333792	-0.2775	-0.0405	0.144	0	260	266	3
2026-02-12	15:40:12.070	-24.92	-22.12	14.07	0.754448	0.057828	-0.323544	-0.279	-0.0375	0.147	0	260	266	3
2026-02-12	15:40:12.090	-27.545	-34.37	18.55	0.672952	0.104188	-0.143228	-0.2835	-0.033	0.1425	0	260	266	3
2026-02-12	15:40:12.110	-69.615	-45.43	23.065	0.693448	0.009028	0.184464	-0.2805	-0.0315	0.141	0	260	266	3
2026-02-12	15:40:12.130	-79.835	-42.175	29.75	0.736392	-0.048556	0.221308	-0.2805	-0.0315	0.141	0	260	266	3
2026-02-12	15:40:12.150	-61.565	-50.75	44.555	0.957212	-0.03294	0.13054	-0.2865	-0.012	0.165	0	260	266	3
2026-02-12	15:40:12.170	-23.065	-66.675	61.11	1.028704	0.008296	0.138592	-0.2865	-0.003	0.1695	0	260	266	3
2026-02-12	15:40:12.190	16.45	-82.635	70.245	1.02114	-0.039772	0.212768	-0.2865	-0.003	0.1695	0	260	266	3
2026-02-12	15:40:12.210	43.33	-97.09	80.535	1.152412	-0.006344	0.317444	-0.2895	0.009	0.18	0	253	233	2
2026-02-12	15:40:12.230	34.65	-106.54	95.27	1.230492	0.03416	0.407968	-0.2955	0.024	0.1995	0	253	233	2
2026-02-12	15:40:12.250	14.455	-113.855	109.725	1.252696	0.102724	0.4575	-0.303	0.0315	0.2145	0	253	233	2
2026-02-12	15:40:12.270	9.52	-121.275	119.315	1.193892	0.126392	0.46238	-0.3075	0.048	0.2265	0	253	233	2
2026-02-12	15:40:12.290	18.34	-130.41	122.675	1.142164	0.161528	0.526064	-0.309	0.0675	0.2415	0	253	233	2
2026-02-12	15:40:12.310	3.15	-135.275	123.55	1.115324	0.17568	0.65514	-0.3105	0.0825	0.2655	0	253	233	2
2026-02-12	15:40:12.330	-31.64	-131.6	122.71	1.063352	0.125172	0.638548	-0.306	0.096	0.288	0	253	233	2
2026-02-12	15:40:12.350	-55.405	-126.035	118.86	1.023092	0.074908	0.524844	-0.3	0.1155	0.3045	0	253	233	2
2026-02-12	15:40:12.370	-69.23	-120.505	111.265	1.001132	0.064904	0.464088	-0.2955	0.135	0.3225	0	253	233	2
2026-02-12	15:40:12.390	-81.095	-112.28	101.885	1.009184	0.071492	0.471652	-0.2925	0.1425	0.336	0	253	233	2
2026-02-12	15:40:12.410	-83.86	-102.865	93.065	1.008208	0.02806	0.406748	-0.282	0.1695	0.3765	0	253	225	3
2026-02-12	15:40:12.430	-66.745	-96.32	82.74	1.027728	-0.031964	0.351848	-0.2775	0.195	0.3975	0	253	225	3
2026-02-12	15:40:12.450	-40.11	-90.615	73.43	1.1102	-0.04392	0.354288	-0.267	0.198	0.4185	0	253	225	3
2026-02-12	15:40:12.470	-18.585	-82.285	63.84	1.169736	-0.028792	0.395036	-0.261	0.2025	0.429	0	253	225	3
2026-02-12	15:40:12.490	-4.2	-70	52.71	1.157292	-0.043676	0.441152	-0.252	0.21	0.4335	0	253	225	3
2026-02-12	15:40:12.510	11.025	-56.91	39.095	1.174372	-0.078324	0.415532	-0.2385	0.216	0.456	0	253	225	3
2026-02-12	15:40:12.530	35.7	-43.19	24.395	1.154608	-0.074176	0.340868	-0.2355	0.2265	0.4605	0	253	225	3
2026-02-12	15:40:12.550	59.01	-32.515	10.5	1.183156	-0.038552	0.310856	-0.234	0.228	0.4605	0	253	225	3
2026-02-12	15:40:12.570	67.9	-23.52	-0.98	1.306132	-0.04636	0.34282	-0.231	0.2385	0.4575	0	253	225	3
2026-02-12	15:40:12.590	76.93	-8.925	-11.095	1.231468	-0.020984	0.360144	-0.2265	0.237	0.4605	0	253	225	3
2026-02-12	15:40:12.610	86.31	6.335	-21.875	1.090924	-0.006588	0.356972	-0.2265	0.2355	0.4545	0	255	253	3
2026-02-12	15:40:12.630	90.44	18.585	-31.745	0.993568	0.019276	0.325984	-0.231	0.2325	0.4515	0	255	253	3
2026-02-12	15:40:12.650	85.54	32.34	-44.1	0.921832	0.07198	0.278404	-0.2385	0.2385	0.4425	0	255	253	3
2026-02-12	15:40:12.670	71.82	38.465	-51.275	0.907192	0.085156	0.2867	-0.2415	0.237	0.435	0	255	253	3
2026-02-12	15:40:12.690	50.96	44.17	-57.47	0.891088	0.07515199	0.29768	-0.2445	0.2355	0.42	0	255	253	3
2026-02-12	15:40:12.710	33.985	49.28	-62.055	0.91012	0.026352	0.306464	-0.246	0.2265	0.4095	0	255	253	3
2026-02-12	15:40:12.730	32.515	55.265	-64.82	0.970632	0.007076	0.306464	-0.255	0.213	0.4005	0	255	253	3
2026-02-12	15:40:12.750	38.535	62.405	-66.57	1.0431	0.028548	0.285236	-0.264	0.2055	0.3885	0	255	253	3
2026-02-12	15:40:12.770	50.75	69.965	-69.51	1.069452	0.069296	0.255224	-0.264	0.2055	0.384	0	255	253	3
2026-02-12	15:40:12.790	59.64	75.88	-73.395	1.075308	0.138592	0.250588	-0.276	0.1935	0.3735	0	255	253	3
2026-02-12	15:40:12.810	58.66	79.94	-77.665	1.131428	0.23302	0.261324	-0.2715	0.1935	0.3615	0	255	281	3
2026-02-12	15:40:12.830	50.4	83.93	-83.615	1.227808	0.29036	0.26474	-0.2835	0.18	0.351	0	255	281	3
2026-02-12	15:40:12.850	45.395	89.81	-91.245	1.204628	0.329644	0.24034	-0.294	0.1635	0.3285	0	255	281	3
2026-02-12	15:40:12.870	40.985	91.42	-100.03	1.192184	0.367708	0.205692	-0.2925	0.1485	0.3135	0	255	281	3
2026-02-12	15:40:12.890	32.27	89.67	-107.345	1.169736	0.372832	0.1891	-0.3045	0.138	0.3075	0	255	281	3
2026-02-12	15:40:12.910	19.005	84.07	-113.96	1.133868	0.385764	0.197152	-0.303	0.123	0.291	0	255	281	3
2026-02-12	15:40:12.930	15.505	76.755	-122.64	1.116056	0.423828	0.239852	-0.303	0.123	0.291	0	255	281	3
2026-02-12	15:40:12.950	23.485	71.61	-129.885	1.11752	0.448716	0.278648	-0.3045	0.096	0.2655	0	255	281	3
2026-02-12	15:40:12.970	33.355	67.655	-134.89	1.112152	0.481412	0.297436	-0.309	0.06	0.231	0	255	281	3
2026-02-12	15:40:12.990	39.445	63.945	-137.9	1.084336	0.529724	0.316712	-0.309	0.0405	0.222	0	255	281	3
2026-02-12	15:40:13.010	34.86	60.62	-138.46	1.038464	0.566812	0.313296	-0.3045	0.0165	0.216	0	254	292	3
2026-02-12	15:40:13.030	24.045	56.49	-137.795	0.987224	0.586332	0.267912	-0.3015	-0.0075	0.201	0	254	292	3
2026-02-12	15:40:13.050	8.12	51.555	-134.155	0.937448	0.582916	0.248392	-0.2955	-0.027	0.189	0	254	292	3
2026-02-12	15:40:13.070	-10.71	47.635	-127.785	0.91256	0.580232	0.306952	-0.291	-0.0465	0.186	0	254	292	3
2026-02-12	15:40:13.090	-34.16	48.37	-119.7	0.915244	0.5429	0.46848	-0.2865	-0.063	0.174	0	254	292	3
2026-02-12	15:40:13.110	-55.195	58.275	-111.125	0.891332	0.48922	0.578768	-0.2805	-0.075	0.1605	0	254	292	3
2026-02-12	15:40:13.130	-62.405	72.94	-102.025	0.827404	0.415532	0.490928	-0.2715	-0.09	0.15	0	254	292	3
2026-02-12	15:40:13.150	-41.37	81.34	-92.995	0.751032	0.384788	0.287188	-0.2625	-0.096	0.1365	0	254	292	3
2026-02-12	15:40:13.170	-8.225	75.95	-83.58	0.705404	0.416264	0.1403	-0.2565	-0.102	0.1215	0	254	292	3
2026-02-12	15:40:13.190	15.54	52.675	-67.935	0.6649	0.449936	0.120292	-0.2535	-0.1095	0.1155	0	254	292	3
2026-02-12	15:40:13.210	14.28	36.61	-56.49	0.663924	0.435784	0.179584	-0.2535	-0.1095	0.1155	0	254	295	3
2026-02-12	15:40:13.230	8.68	22.82	-43.225	0.685152	0.408944	0.213256	-0.237	-0.1305	0.0945	0	254	295	3
2026-02-12	15:40:13.250	5.46	10.36	-29.505	0.69662	0.371368	0.1769	-0.231	-0.144	0.093	0	254	295	3
2026-02-12	15:40:13.270	10.85	-2.555	-16.135	0.723948	0.30866	0.068808	-0.2235	-0.132	0.084	0	254	295	3
2026-02-12	15:40:13.290	23.17	-17.78	-1.47	0.699792	0.261324	-0.008784	-0.231	-0.1425	0.096	0	254	295	3
2026-02-12	15:40:13.310	29.89	-33.95	14.665	0.708332	0.242536	-0.050752	-0.231	-0.1395	0.096	0	254	295	3
2026-02-12	15:40:13.330	25.62	-47.39	28.35	0.707356	0.272304	-0.021228	-0.237	-0.141	0.0945	0	254	295	3
2026-02-12	15:40:13.350	1.19	-56	37.975	0.693936	0.30012	0.097844	-0.234	-0.1395	0.099	0	254	295	3
2026-02-12	15:40:13.370	-42.455	-57.19	44.17	0.6466	0.29524	0.238632	-0.2355	-0.135	0.1035	0	254	295	3
2026-02-12	15:40:13.390	-97.65	-52.36	48.895	0.586332	0.324276	0.28792	-0.2475	-0.1305	0.1125	0	254	295	3
2026-02-12	15:40:13.410	-149.8	-48.055	50.68	0.5856	0.29768	0.283284	-0.2595	-0.12	0.12	0	256	281	2
2026-02-12	15:40:13.430	-182.35	-47.39	50.54	0.6832	0.243268	0.23302	-0.2625	-0.1035	0.1185	0	256	281	2
2026-02-12	15:40:13.450	-175.665	-57.015	58.73	0.936472	0.144692	0.122244	-0.267	-0.0885	0.12	0	256	281	2
2026-02-12	15:40:13.470	-135.66	-71.855	77.455	1.040416	0.0854	0.077104	-0.2745	-0.0825	0.1215	0	256	281	2
2026-02-12	15:40:13.490	-77.175	-86.1	86.835	1.122644	-0.00732	0.076372	-0.2805	-0.0345	0.1215	0	256	281	2
2026-02-12	15:40:13.510	-13.195	-104.825	95.305	1.257088	0.020008	0.144448	-0.288	-0.018	0.132	0	256	281	2
2026-02-12	15:40:13.530	23.625	-118.895	106.26	1.304668	0.038308	0.361608	-0.291	-0.0015	0.1455	0	256	281	2
2026-02-12	15:40:13.550	33.565	-122.465	120.96	1.311012	0.097844	0.626348	-0.303	0.0015	0.177	0	256	281	2
2026-02-12	15:40:13.570	31.395	-116.095	133.35	1.208044	0.127612	0.70028	-0.3045	0.024	0.192	0	256	281	2
2026-02-12	15:40:13.590	44.905	-112.315	136.5	1.106296	0.11834	0.619028	-0.3105	0.0375	0.204	0	256	281	2
2026-02-12	15:40:13.610	63.175	-113.085	135.345	1.027484	0.18788	0.511424	-0.3135	0.054	0.2205	0	260	267	3
2026-02-12	15:40:13.630	56.98	-114.625	135.345	1.00894	0.23912	0.541192	-0.315	0.066	0.2415	0	260	267	3
2026-02-12	15:40:13.650	26.145	-111.51	136.43	1.025532	0.22082	0.549732	-0.3195	0.0975	0.2565	0	260	267	3
2026-02-12	15:40:13.670	6.055	-104.055	134.89	1.03578	0.192516	0.5307	-0.306	0.1095	0.282	0	260	267	3
2026-02-12	15:40:13.690	3.78	-95.83	131.39	1.040172	0.17202	0.488244	-0.312	0.129	0.2865	0	260	267	3
2026-02-12	15:40:13.710	15.82	-87.57	125.23	1.05042	0.173728	0.481412	-0.3015	0.1455	0.303	0	260	267	3
2026-02-12	15:40:13.730	31.01	-74.41	117.075	1.1163	0.148108	0.452376	-0.3	0.171	0.315	0	260	267	3
2026-02-12	15:40:13.750	44.8	-67.095	110.95	1.131428	0.149084	0.432368	-0.294	0.1875	0.318	0	260	267	3
2026-02-12	15:40:13.770	54.81	-61.46	102.795	1.13948	0.1647	0.455792	-0.282	0.2085	0.33	0	260	267	3
2026-02-12	15:40:13.790	53.235	-55.265	92.365	1.11874	0.201056	0.501664	-0.27	0.2205	0.3405	0	260	267	3
2026-02-12	15:40:13.810	37.94	-47.985	80.955	1.087996	0.180072	0.510692	-0.2655	0.2295	0.345	0	265	288	3
2026-02-12	15:40:13.830	21.175	-42.49	68.355	1.100928	0.164212	0.487024	-0.2595	0.2415	0.351	0	265	288	3
2026-02-12	15:40:13.850	8.295	-35.35	55.09	1.05774	0.144448	0.464332	-0.255	0.2565	0.36	0	265	288	3
2026-02-12	15:40:13.870	-3.29	-28.49	41.16	1.020164	0.140788	0.461404	-0.2445	0.261	0.3615	0	265	288	3
2026-02-12	15:40:13.890	-18.305	-22.05	27.055	1.017968	0.111508	0.454572	-0.2355	0.267	0.363	0	265	288	3
2026-02-12	15:40:13.910	-27.44	-14.455	13.09	1.018456	0.059292	0.427488	-0.2355	0.27	0.3645	0	265	288	3
2026-02-12	15:40:13.930	-24.185	-6.86	-0.91	1.056276	0.010492	0.375272	-0.234	0.2685	0.363	0	265	288	3
2026-02-12	15:40:13.950	-9.835	-0.7	-13.16	1.105808	-0.012688	0.326228	-0.234	0.2685	0.363	0	265	288	3
2026-02-12	15:40:13.970	6.3	4.69	-22.155	1.125572	-0.016592	0.323788	-0.2355	0.267	0.372	0	265	288	3
2026-02-12	15:40:13.990	22.155	11.48	-29.365	1.104344	-0.006344	0.344284	-0.2415	0.2625	0.369	0	265	288	3
2026-02-12	15:40:14.010	31.115	18.025	-34.65	1.0492	0.031964	0.34282	-0.2445	0.264	0.36	0	267	325	3
2026-02-12	15:40:14.030	31.92	22.085	-37.8	1.014552	0.053192	0.336476	-0.252	0.2655	0.354	0	267	325	3
2026-02-12	15:40:14.050	28.63	27.055	-41.09	0.976	0.081008	0.317688	-0.2535	0.261	0.357	0	267	325	3
2026-02-12	15:40:14.070	22.365	31.78	-45.955	0.958676	0.08906	0.293532	-0.258	0.258	0.3495	0	267	325	3
2026-02-12	15:40:14.090	14.875	36.365	-51.485	0.924272	0.093208	0.252052	-0.264	0.255	0.3375	0	267	325	3
2026-02-12	15:40:14.110	5.495	38.71	-57.19	0.933056	0.100284	0.222772	-0.264	0.249	0.3315	0	267	325	3
2026-02-12	15:40:14.130	-6.86	40.005	-62.615	0.976732	0.102236	0.202032	-0.2685	0.249	0.327	0	267	325	3
2026-02-12	15:40:14.150	-18.795	42	-66.78	1.012112	0.09638	0.187148	-0.2745	0.246	0.3165	0	267	325	3
2026-02-12	15:40:14.170	-21.63	45.22	-70.665	1.013088	0.100772	0.188124	-0.2775	0.234	0.312	0	267	325	3
2026-02-12	15:40:14.190	-19.495	48.055	-75.53	1.021872	0.14274	0.195932	-0.2865	0.228	0.309	0	267	325	3
2026-02-12	15:40:14.210	-24.115	50.4	-79.345	1.08946	0.163724	0.217404	-0.2955	0.219	0.3015	0	264	342	3
2026-02-12	15:40:14.230	-29.05	56.28	-81.76	1.107028	0.166896	0.205448	-0.3	0.213	0.2955	0	264	342	3
2026-02-12	15:40:14.250	-21.945	62.265	-84.945	1.061644	0.1708	0.180072	-0.3045	0.207	0.288	0	264	342	3
2026-02-12	15:40:14.270	4.2	63.35	-91.07	1.008208	0.222284	0.134444	-0.306	0.201	0.2835	0	264	342	3
2026-02-12	15:40:14.290	14.84	59.29	-92.96	1.025532	0.28304	0.162992	-0.3165	0.177	0.2775	0	264	342	3
2026-02-12	15:40:14.310	17.115	56.105	-93.87	1.035536	0.331596	0.2135	-0.3255	0.171	0.2625	0	264	342	3
2026-02-12	15:40:14.330	16.94	53.55	-95.025	1.035536	0.364536	0.25498	-0.321	0.1455	0.2535	0	264	342	3
2026-02-12	15:40:14.350	14.525	50.645	-94.955	1.069696	0.387472	0.2684	-0.3375	0.147	0.2535	0	264	342	3
2026-02-12	15:40:14.370	14.525	47.53	-93.905	1.078724	0.4209	0.263032	-0.3345	0.1335	0.249	0	264	342	3
2026-02-12	15:40:14.390	8.47	43.89	-92.61	1.071648	0.451888	0.287188	-0.3375	0.1155	0.234	0	264	342	3
2026-02-12	15:40:14.410	-6.58	41.44	-92.365	1.055544	0.463356	0.293044	-0.342	0.102	0.2355	0	257	330	3
2026-02-12	15:40:14.430	-22.61	39.9	-93.415	1.035292	0.443836	0.2501	-0.345	0.0825	0.2325	0	257	330	3
2026-02-12	15:40:14.450	-32.865	37.275	-94.08	1.015772	0.430416	0.1952	-0.3615	0.066	0.222	0	257	330	3
2026-02-12	15:40:14.470	-42	32.375	-92.015	1.024556	0.412848	0.150792	-0.3585	0.0525	0.225	0	257	330	3
2026-02-12	15:40:14.490	-50.61	24.92	-86.52	1.089216	0.39162	0.109068	-0.369	0.039	0.222	0	257	330	3
2026-02-12	15:40:14.510	-52.675	16.555	-79.38	1.106052	0.367708	0.089304	-0.36	0.018	0.2235	0	257	330	3
2026-02-12	15:40:14.530	-54.075	4.305	-71.225	1.050176	0.333548	0.103944	-0.3495	0.0135	0.2235	0	257	330	3
2026-02-12	15:40:14.550	-61.285	-8.89	-62.825	1.1285	0.300852	0.111996	-0.3495	0.0135	0.2235	0	257	330	3
2026-02-12	15:40:14.570	-64.54	-17.255	-56.14	1.206824	0.259372	0.120048	-0.36	-0.009	0.228	0	257	330	3
2026-02-12	15:40:14.590	-66.115	-23.94	-47.6	1.159	0.223016	0.122976	-0.3525	-0.0255	0.2235	0	257	330	3
2026-02-12	15:40:14.610	-71.19	-30.45	-36.645	1.086776	0.188856	0.1159	-0.3585	-0.0315	0.222	0	249	301	3
2026-02-12	15:40:14.630	-77.49	-35.385	-23.45	1.053592	0.0915	0.083204	-0.354	-0.039	0.228	0	249	301	3
2026-02-12	15:40:14.650	-72.905	-37.59	-9.52	0.958676	0.090524	0.029524	-0.3615	-0.0405	0.231	0	249	301	3
2026-02-12	15:40:14.670	-66.885	-41.195	0	0.85888	0.081984	-0.003904	-0.3525	-0.0435	0.228	0	249	301	3
2026-02-12	15:40:14.690	-61.25	-44.03	6.895	0.778604	0.049776	0.105896	-0.351	-0.039	0.2385	0	249	301	3
2026-02-12	15:40:14.710	-77.7	-37.485	17.01	0.72834	0.061	0.3233	-0.3555	-0.042	0.2505	0	249	301	3
2026-02-12	15:40:14.730	-122.535	-18.725	35	0.580964	-0.076616	0.38064	-0.36	-0.0405	0.255	0	249	301	3
2026-02-12	15:40:14.750	-151.935	-2.59	59.85	0.424804	-0.235216	0.360632	-0.3525	-0.039	0.261	0	249	301	3
2026-02-12	15:40:14.770	-145.285	1.575	80.465	0.455548	-0.035868	0.27328	-0.357	-0.03	0.2535	0	249	301	3
2026-02-12	15:40:14.790	-121.59	-7.35	86.835	0.793976	0.051972	0.209108	-0.3555	0	0.246	0	249	301	3
2026-02-12	15:40:14.810	-87.675	-13.23	98.315	0.843752	-0.088572	-0.10614	-0.3555	0	0.246	0	243	264	3
2026-02-12	15:40:14.830	-61.67	-39.795	99.785	1.112884	-0.042212	-0.183732	-0.354	0.0225	0.249	0	243	264	3
2026-02-12	15:40:14.850	-41.685	-64.155	102.41	1.336876	-0.077836	-0.074664	-0.351	0.0525	0.2565	0	243	264	3
2026-02-12	15:40:14.870	-1.4	-76.405	100.38	1.465464	-0.188124	0.067588	-0.351	0.0705	0.267	0	243	264	3
2026-02-12	15:40:14.890	47.6	-92.855	92.61	1.570384	-0.242048	0.279868	-0.351	0.087	0.282	0	243	264	3
2026-02-12	15:40:14.910	82.075	-102.06	85.365	1.350296	-0.210328	0.428952	-0.3495	0.099	0.3015	0	243	264	3
2026-02-12	15:40:14.930	96.845	-106.855	82.6	1.1163	-0.082228	0.543388	-0.348	0.114	0.315	0	243	264	3
2026-02-12	15:40:14.950	93.52	-106.575	79.59	0.944768	0.008052	0.620492	-0.3465	0.129	0.327	0	243	264	3
2026-02-12	15:40:14.970	81.76	-102.795	72.94	0.829844	0.049288	0.589016	-0.3435	0.144	0.339	0	243	264	3
2026-02-12	15:40:14.990	65.975	-100.59	66.955	0.772016	0.066856	0.477508	-0.3405	0.1575	0.354	0	243	264	3
2026-02-12	15:40:15.010	46.025	-97.93	65.1	0.78934	0.080032	0.377468	-0.333	0.1695	0.369	0	244	241	3
2026-02-12	15:40:15.030	22.4	-95.97	65.52	0.885232	0.068808	0.25742	-0.324	0.1785	0.3825	0	244	241	3
2026-02-12	15:40:15.050	1.925	-93.625	63.98	0.903044	0.079544	0.144204	-0.3195	0.1875	0.396	0	244	241	3
2026-02-12	15:40:15.070	-15.715	-94.045	59.99	0.97356	0.057584	0.083204	-0.318	0.192	0.4035	0	244	241	3
2026-02-12	15:40:15.090	-26.915	-95.9	53.935	1.12118	0.028548	0.10126	-0.318	0.192	0.4035	0	244	241	3
2026-02-12	15:40:15.110	-28.945	-90.86	47.355	1.13704	-0.013664	0.134688	-0.2895	0.2115	0.444	0	244	241	3
2026-02-12	15:40:15.130	-21.14	-83.965	38.045	1.053348	-0.025376	0.177388	-0.285	0.2205	0.4545	0	244	241	3
2026-02-12	15:40:15.150	-15.015	-80.955	28.035	1.046272	-0.03538	0.295972	-0.282	0.2295	0.471	0	244	241	3
2026-02-12	15:40:15.170	-19.915	-73.465	21.175	1.080676	-0.107604	0.42822	-0.2805	0.2295	0.4815	0	244	241	3
2026-02-12	15:40:15.190	-12.775	-61.25	13.86	1.076528	-0.169336	0.462868	-0.27	0.2355	0.492	0	244	241	3
2026-02-12	15:40:15.210	14.42	-50.505	4.655	1.074576	-0.152988	0.452864	-0.264	0.234	0.501	0	249	242	3
2026-02-12	15:40:15.230	44.905	-41.02	-4.235	1.090192	-0.101016	0.428708	-0.2655	0.2355	0.507	0	249	242	3
2026-02-12	15:40:15.250	61.565	-30.66	-12.285	1.10166	-0.09638	0.42334	-0.258	0.237	0.5145	0	249	242	3
2026-02-12	15:40:15.270	70.595	-18.62	-19.145	1.105808	-0.137616	0.414068	-0.255	0.237	0.5145	0	249	242	3
2026-02-12	15:40:15.290	81.655	-7.98	-26.25	1.0919	-0.115412	0.367952	-0.2595	0.2415	0.513	0	249	242	3
2026-02-12	15:40:15.310	88.97	-1.54	-31.71	1.066036	-0.072956	0.323788	-0.2595	0.243	0.5115	0	249	242	3
2026-02-12	15:40:15.330	87.22	0.665	-35.7	1.10776	-0.033184	0.306464	-0.2625	0.2445	0.504	0	249	242	3
2026-02-12	15:40:15.350	64.47	6.895	-34.37	1.141188	-0.016836	0.366976	-0.267	0.246	0.5025	0	249	242	3
2026-02-12	15:40:15.370	49.21	14.595	-32.76	1.104832	0.000976	0.355508	-0.273	0.2355	0.498	0	249	242	3
2026-02-12	15:40:15.390	38.64	22.26	-32.97	1.037976	0.031232	0.323056	-0.2745	0.246	0.489	0	249	242	3
2026-02-12	15:40:15.410	25.935	28.805	-34.65	0.972828	0.054168	0.302316	-0.282	0.237	0.489	0	253	261	3
2026-02-12	15:40:15.430	9.555	34.055	-39.095	0.977952	0.049776	0.305	-0.291	0.222	0.4755	0	253	261	3
2026-02-12	15:40:15.450	-4.655	41.475	-45.465	0.983808	0.018788	0.28792	-0.288	0.231	0.468	0	253	261	3
2026-02-12	15:40:15.470	-12.18	48.93	-51.695	0.987956	-0.012444	0.250832	-0.294	0.213	0.471	0	253	261	3
2026-02-12	15:40:15.490	-11.83	55.09	-56.595	0.979172	-0.023424	0.204228	-0.3015	0.2025	0.456	0	253	261	3
2026-02-12	15:40:15.510	-5.6	58.975	-59.57	0.972828	-0.015616	0.213012	-0.3135	0.1995	0.459	0	253	261	3
2026-02-12	15:40:15.530	-0.14	62.755	-61.425	1.132892	-0.009516	0.25498	-0.3105	0.183	0.4455	0	253	261	3
2026-02-12	15:40:15.550	15.82	73.885	-63.385	1.11996	0.020252	0.214964	-0.327	0.1695	0.435	0	253	261	3
2026-02-12	15:40:15.570	37.625	82.04	-67.34	1.07116	0.051972	0.154696	-0.339	0.165	0.432	0	253	261	3
2026-02-12	15:40:15.590	58.835	84.245	-72.59	1.033828	0.11712	0.127124	-0.333	0.159	0.405	0	253	261	3
2026-02-12	15:40:15.610	66.36	81.83	-77.735	1.06018	0.172996	0.20862	-0.333	0.132	0.3945	0	252	276	3
2026-02-12	15:40:15.630	67.795	81.935	-80.08	1.081164	0.198372	0.232288	-0.342	0.12	0.3795	0	252	276	3
2026-02-12	15:40:15.650	84.84	81.55	-83.825	1.045052	0.19886	0.219844	-0.3555	0.108	0.354	0	252	276	3
2026-02-12	15:40:15.670	104.055	78.96	-86.52	1.007232	0.255956	0.227164	-0.3615	0.0945	0.336	0	252	276	3
2026-02-12	15:40:15.690	109.515	75.39	-88.305	1.003572	0.394548	0.26718	-0.36	0.075	0.3225	0	252	276	3
2026-02-12	15:40:15.710	96.915	72.415	-91.245	1.05042	0.502152	0.282308	-0.3585	0.069	0.318	0	252	276	3
2026-02-12	15:40:15.730	74.025	70.035	-93.87	1.067256	0.519476	0.260348	-0.363	0.048	0.294	0	252	276	3
2026-02-12	15:40:15.750	53.515	67.48	-96.04	1.048224	0.53802	0.24278	-0.354	0.0315	0.2835	0	252	276	3
2026-02-12	15:40:15.770	38.885	63.14	-98.525	1.051152	0.547292	0.226676	-0.354	0.0255	0.273	0	252	276	3
2026-02-12	15:40:15.790	29.225	57.82	-98.42	1.081896	0.549732	0.274012	-0.3585	0.0045	0.258	0	252	276	3
2026-02-12	15:40:15.810	18.585	55.195	-95.095	1.076284	0.55022	0.327936	-0.3465	-0.015	0.249	0	249	277	3
2026-02-12	15:40:15.830	9.8	53.83	-92.435	1.050908	0.528016	0.295484	-0.3525	-0.03	0.237	0	249	277	3
2026-02-12	15:40:15.850	9.38	50.085	-89.25	1.01138	0.496784	0.251076	-0.351	-0.045	0.234	0	249	277	3
2026-02-12	15:40:15.870	9.24	41.51	-82.39	0.979904	0.510692	0.268888	-0.345	-0.06	0.216	0	249	277	3
2026-02-12	15:40:15.890	-0.63	32.445	-74.025	0.9516	0.530212	0.304756	-0.345	-0.06	0.216	0	249	277	3
2026-02-12	15:40:15.910	-12.005	25.305	-67.095	0.920856	0.508984	0.29646	-0.339	-0.0795	0.21	0	249	277	3
2026-02-12	15:40:15.930	-25.235	17.78	-58.135	0.892552	0.49898	0.274012	-0.3315	-0.102	0.201	0	249	277	3
2026-02-12	15:40:15.950	-44.59	10.675	-47.53	0.92964	0.48068	0.25986	-0.3225	-0.108	0.1965	0	249	277	3
2026-02-12	15:40:15.970	-62.545	6.685	-36.715	1.00406	0.373808	0.221552	-0.315	-0.1125	0.192	0	249	277	3
2026-02-12	15:40:15.990	-64.015	6.79	-24.99	0.944524	0.258884	0.154208	-0.3165	-0.1125	0.186	0	249	277	3
2026-02-12	15:40:16.010	-52.29	6.09	-14.14	0.834968	0.177876	0.039772	-0.3165	-0.1095	0.1785	0	246	271	3
2026-02-12	15:40:16.030	-30.03	-0.455	-3.15	0.784704	0.129564	-0.06222	-0.3135	-0.1095	0.177	0	246	271	3
2026-02-12	15:40:16.050	-6.37	-10.85	6.44	0.723216	0.122244	-0.094184	-0.312	-0.1065	0.1785	0	246	271	3
2026-02-12	15:40:16.070	12.005	-21.7	15.61	0.643916	-0.010492	-0.062708	-0.309	-0.1065	0.18	0	246	271	3
2026-02-12	15:40:16.090	20.51	-28.77	27.23	0.619272	0.02318	0.022448	-0.3135	-0.111	0.186	0	246	271	3
2026-02-12	15:40:16.110	7.77	-30.38	36.085	0.579012	0.0976	0.06588	-0.3165	-0.108	0.1875	0	246	271	3
2026-02-12	15:40:16.130	-19.81	-32.095	40.25	0.52216	0.152256	0.088572	-0.3165	-0.105	0.192	0	246	271	3
2026-02-12	15:40:16.150	-89.04	-40.425	46.795	0.597312	0.12078	0.182268	-0.3165	-0.102	0.198	0	246	271	3
2026-02-12	15:40:16.170	-142.1	-42.91	58.835	0.856196	0.060512	0.194956	-0.3165	-0.102	0.198	0	246	271	3
2026-02-12	15:40:16.190	-161	-45.64	80.92	1.260748	0.027084	0.043432	-0.336	-0.063	0.2025	0	246	271	3
2026-02-12	15:40:16.210	-131.845	-55.475	96.915	1.397876	0.133224	-0.00488	-0.3285	-0.042	0.213	0	246	246	3
2026-02-12	15:40:16.230	-99.33	-67.095	98.315	1.316136	-0.020984	0.096868	-0.3345	-0.024	0.2085	0	246	246	3
2026-02-12	15:40:16.250	-53.9	-79.52	98.525	1.416664	-0.099552	0.147376	-0.336	0	0.2235	0	246	246	3
2026-02-12	15:40:16.270	-17.045	-86.31	107.17	1.406172	-0.065636	0.208376	-0.336	0	0.234	0	246	246	3
2026-02-12	15:40:16.290	6.685	-91.105	114.205	1.23952	0.005856	0.311344	-0.351	0.018	0.246	0	246	246	3
2026-02-12	15:40:16.310	37.31	-94.43	108.955	1.020408	0.046604	0.384544	-0.345	0.042	0.2625	0	246	246	3
2026-02-12	15:40:16.330	70.84	-99.68	96.25	0.876692	0.118584	0.387472	-0.3435	0.051	0.27	0	246	246	3
2026-02-12	15:40:16.350	68.985	-109.725	93.275	0.865468	0.189588	0.467992	-0.3465	0.0615	0.2835	0	246	246	3
2026-02-12	15:40:16.370	26.11	-115.115	99.645	0.95892	0.23424	0.600728	-0.3465	0.0705	0.3015	0	246	246	3
2026-02-12	15:40:16.390	-19.145	-108.815	103.95	0.975756	0.202276	0.568032	-0.3405	0.087	0.3195	0	246	246	3
2026-02-12	15:40:16.410	-42.455	-99.015	102.2	0.952332	0.206912	0.480192	-0.342	0.102	0.3375	0	251	229	3
2026-02-12	15:40:16.430	-63.77	-91.735	100.73	0.994788	0.236924	0.447984	-0.3435	0.108	0.348	0	251	229	3
2026-02-12	15:40:16.450	-76.44	-85.715	97.965	1.034316	0.178608	0.385764	-0.3165	0.144	0.3735	0	251	229	3
2026-02-12	15:40:16.470	-60.13	-81.2	92.085	1.05286	0.087596	0.309148	-0.327	0.159	0.402	0	251	229	3
2026-02-12	15:40:16.490	-24.92	-78.47	83.895	1.104832	0.078812	0.320128	-0.3105	0.165	0.4245	0	251	229	3
2026-02-12	15:40:16.510	2.905	-73.78	72.59	1.165588	0.094916	0.422364	-0.3015	0.177	0.432	0	251	229	3
2026-02-12	15:40:16.530	19.145	-62.195	57.505	1.092632	0.064172	0.525576	-0.3	0.186	0.4365	0	251	229	3
2026-02-12	15:40:16.550	27.895	-51.205	42.385	1.084824	0.020008	0.568276	-0.279	0.201	0.4485	0	251	229	3
2026-02-12	15:40:16.570	39.305	-39.48	28.945	1.083848	0.018544	0.542168	-0.2745	0.204	0.456	0	251	229	3
2026-02-12	15:40:16.590	51.205	-28.315	15.96	1.146312	0.05246	0.499712	-0.279	0.216	0.4575	0	251	229	3
2026-02-12	15:40:16.610	58.485	-14.14	3.22	1.136064	0.06832	0.407968	-0.276	0.2205	0.4575	0	257	248	3
2026-02-12	15:40:16.630	64.505	-1.645	-9.765	1.089948	0.066856	0.338916	-0.279	0.2265	0.4545	0	257	248	3
2026-02-12	15:40:16.650	66.85	7.595	-20.86	1.06384	0.043432	0.32452	-0.2895	0.2295	0.4515	0	257	248	3
2026-02-12	15:40:16.670	68.53	15.435	-30.31	1.061644	0.0366	0.321104	-0.2685	0.219	0.45	0	257	248	3
2026-02-12	15:40:16.690	64.085	25.795	-41.615	1.068232	0.058804	0.323788	-0.279	0.2265	0.432	0	257	248	3
2026-02-12	15:40:16.710	56.945	30.45	-47.775	1.112152	0.074664	0.28548	-0.285	0.222	0.4275	0	257	248	3
2026-02-12	15:40:16.730	49.63	35.28	-51.415	1.103856	0.070028	0.268888	-0.291	0.216	0.4185	0	257	248	3
2026-02-12	15:40:16.750	40.215	39.83	-53.515	1.056764	0.063684	0.299388	-0.294	0.21	0.4095	0	257	248	3
2026-02-12	15:40:16.770	31.85	45.325	-56.42	1.001376	0.060512	0.315004	-0.297	0.2025	0.402	0	257	248	3
2026-02-12	15:40:16.790	26.53	50.05	-60.9	0.979416	0.056364	0.293288	-0.3	0.195	0.3915	0	257	248	3
2026-02-12	15:40:16.810	25.795	52.815	-65.24	0.970876	0.061244	0.278404	-0.306	0.186	0.381	0	259	281	3
2026-02-12	15:40:16.830	27.265	53.83	-69.37	0.961604	0.077348	0.29158	-0.3165	0.18	0.372	0	259	281	3
2026-02-12	15:40:16.850	25.165	53.865	-72.135	0.986492	0.0915	0.295484	-0.3225	0.174	0.3615	0	259	281	3
2026-02-12	15:40:16.870	27.58	54.04	-73.99	1.0065	0.109556	0.281088	-0.3225	0.1635	0.3525	0	259	281	3
2026-02-12	15:40:16.890	35.7	53.725	-75.425	1.025044	0.148596	0.261812	-0.3225	0.1575	0.351	0	259	281	3
2026-02-12	15:40:16.910	39.235	53.2	-75.04	1.045784	0.196664	0.265472	-0.3225	0.1575	0.351	0	259	281	3
2026-02-12	15:40:16.930	41.16	53.095	-74.48	1.072136	0.218136	0.232532	-0.33	0.1275	0.324	0	259	281	3
2026-02-12	15:40:16.950	65.625	48.825	-76.37	1.102392	0.232288	0.159088	-0.345	0.117	0.3225	0	259	281	3
2026-02-12	15:40:16.970	97.195	40.005	-77.735	1.069696	0.299876	0.195932	-0.345	0.117	0.3225	0	259	281	3
2026-02-12	15:40:16.990	95.445	32.235	-75.985	1.07116	0.40382	0.324276	-0.3435	0.102	0.309	0	259	281	3
2026-02-12	15:40:17.010	65.065	30.555	-72.765	1.095804	0.44896	0.391132	-0.345	0.081	0.2865	0	256	299	3
2026-02-12	15:40:17.030	28.525	33.845	-70.525	1.097512	0.448472	0.344772	-0.3465	0.072	0.2805	0	256	299	3
2026-02-12	15:40:17.050	0.035	36.54	-68.95	1.088972	0.437248	0.251564	-0.348	0.0645	0.2775	0	256	299	3
2026-02-12	15:40:17.070	-26.285	37.485	-66.465	1.075552	0.470188	0.22204	-0.351	0.054	0.2715	0	256	299	3
2026-02-12	15:40:17.090	-51.205	38.57	-64.365	1.089948	0.473604	0.23302	-0.3525	0.042	0.267	0	256	299	3
2026-02-12	15:40:17.110	-67.69	41.3	-63.105	1.108004	0.450912	0.255956	-0.351	0.0315	0.258	0	256	299	3
2026-02-12	15:40:17.130	-70.98	46.095	-63.525	1.092144	0.397232	0.245952	-0.3465	0.021	0.249	0	256	299	3
2026-02-12	15:40:17.150	-56.07	50.19	-65.73	1.056032	0.360632	0.23668	-0.3435	0.0135	0.24	0	256	299	3
2026-02-12	15:40:17.170	-38.535	51.275	-67.62	1.006988	0.361852	0.245708	-0.3405	0.006	0.2325	0	256	299	3
2026-02-12	15:40:17.190	-26.215	50.365	-69.125	0.99064	0.370636	0.273036	-0.342	-0.0015	0.2265	0	256	299	3
2026-02-12	15:40:17.210	-15.96	50.225	-70.805	0.97356	0.36966	0.283528	-0.339	-0.012	0.2205	0	249	301	3
2026-02-12	15:40:17.230	0.14	48.44	-72.87	0.887916	0.372344	0.262788	-0.336	-0.018	0.219	0	249	301	3
2026-02-12	15:40:17.250	2.1	42.595	-70.98	0.871812	0.397476	0.271816	-0.336	-0.018	0.219	0	249	301	3
2026-02-12	15:40:17.270	-5.005	36.645	-65.975	0.914512	0.402844	0.297924	-0.324	-0.0405	0.1905	0	249	301	3
2026-02-12	15:40:17.290	-14.385	33.46	-59.22	0.910364	0.394548	0.288896	-0.33	-0.063	0.1875	0	249	301	3
2026-02-12	15:40:17.310	-22.54	30.03	-51.345	0.894504	0.37698	0.263032	-0.3195	-0.069	0.183	0	249	301	3
2026-02-12	15:40:17.330	-29.925	25.235	-42.665	0.884744	0.377224	0.222772	-0.3195	-0.0735	0.171	0	249	301	3
2026-02-12	15:40:17.350	-42.35	18.725	-32.865	0.875472	0.382104	0.202764	-0.321	-0.0765	0.171	0	249	301	3
2026-02-12	15:40:17.370	-59.815	11.83	-23.52	0.896456	0.345748	0.176656	-0.3165	-0.0795	0.1755	0	249	301	3
2026-02-12	15:40:17.390	-73.57	6.405	-15.54	0.909144	0.29402	0.152012	-0.318	-0.0765	0.171	0	249	301	3
2026-02-12	15:40:17.410	-83.72	3.885	-9.275	0.929884	0.242048	0.091744	-0.312	-0.072	0.1725	0	241	289	3
2026-02-12	15:40:17.430	-82.145	5.95	-8.295	1.007476	0.153232	-0.067832	-0.3135	-0.0705	0.1545	0	241	289	3
2026-02-12	15:40:17.450	-64.225	10.78	-12.005	0.880596	0.06466	-0.252296	-0.312	-0.0675	0.1575	0	241	289	3
2026-02-12	15:40:17.470	-17.71	6.965	-18.445	0.653188	-0.127124	-0.32452	-0.309	-0.0645	0.1515	0	241	289	3
2026-02-12	15:40:17.490	50.295	-6.895	-26.005	0.51972	0.001952	-0.196664	-0.309	-0.0675	0.153	0	241	289	3
2026-02-12	15:40:17.510	69.23	-19.67	-33.81	0.402112	0.112484	0.07564	-0.309	-0.0705	0.1545	0	241	289	3
2026-02-12	15:40:17.530	44.87	-26.215	-39.2	0.353068	0.169092	0.359412	-0.3105	-0.078	0.165	0	241	289	3
2026-02-12	15:40:17.550	-26.18	-24.325	-30.31	0.510204	0.197884	0.51972	-0.3105	-0.09	0.171	0	241	289	3
2026-02-12	15:40:17.570	-90.58	-20.58	-5.285	0.823988	-0.035136	0.384544	-0.306	-0.0975	0.168	0	241	289	3
2026-02-12	15:40:17.590	-78.19	-29.05	37.555	1.084824	0.097356	0.30744	-0.2985	-0.0885	0.171	0	241	289	3
2026-02-12	15:40:17.610	-46.13	-37.87	70.14	0.957212	0.222284	0.201056	-0.3075	-0.0825	0.174	0	236	260	2
2026-02-12	15:40:17.630	5.18	-54.985	93.45	1.194624	0.053924	0.16104	-0.3105	-0.0705	0.1755	0	236	260	2
2026-02-12	15:40:17.650	51.8	-80.43	131.775	1.375916	0.113704	0.2013	-0.3195	-0.054	0.183	0	236	260	2
2026-02-12	15:40:17.670	74.97	-94.395	160.545	1.299788	0.139324	0.387716	-0.321	-0.0465	0.198	0	236	260	2
2026-02-12	15:40:17.690	89.775	-103.6	178.5	1.235616	0.20862	0.532164	-0.3285	-0.0315	0.213	0	236	260	2
2026-02-12	15:40:17.710	100.415	-108.045	184.275	1.117032	0.295972	0.59536	-0.339	0	0.222	0	236	260	2
2026-02-12	15:40:17.730	92.68	-112.42	182.945	1.03578	0.414556	0.66368	-0.3375	0.012	0.249	0	236	260	2
2026-02-12	15:40:17.750	42.875	-115.22	178.99	1.018944	0.488	0.762012	-0.3375	0.042	0.2655	0	236	260	2
2026-02-12	15:40:17.770	-75.04	-113.61	174.405	1.026508	0.350872	0.62342	-0.348	0.0795	0.2805	0	236	260	2
2026-02-12	15:40:17.790	-118.93	-112.98	166.53	1.0126	0.203496	0.481656	-0.339	0.105	0.3	0	236	260	2
2026-02-12	15:40:17.810	-118.965	-114.135	156.275	1.0553	0.164456	0.414312	-0.3255	0.141	0.333	0	238	256	3
2026-02-12	15:40:17.830	-109.41	-112.805	148.47	1.153388	0.140056	0.423584	-0.3135	0.159	0.3555	0	238	256	3
2026-02-12	15:40:17.850	-93.905	-105.455	138.705	1.21512	0.073688	0.393572	-0.3045	0.1785	0.3765	0	238	256	3
2026-02-12	15:40:17.870	-60.795	-95.62	124.635	1.167296	0.04758	0.35258	-0.294	0.1995	0.396	0	238	256	3
2026-02-12	15:40:17.890	-21.21	-88.55	109.2	1.150948	0.05612	0.390156	-0.2835	0.216	0.414	0	238	256	3
2026-02-12	15:40:17.910	18.515	-79.03	90.09	1.128012	0.064172	0.505324	-0.276	0.2295	0.429	0	238	256	3
2026-02-12	15:40:17.930	53.235	-65.065	66.255	1.110444	0.06588	0.57584	-0.2655	0.24	0.4395	0	238	256	3
2026-02-12	15:40:17.950	77.525	-47.705	41.755	1.051884	0.063684	0.564372	-0.2565	0.2505	0.4455	0	238	256	3
2026-02-12	15:40:17.970	98.07	-31.5	19.915	1.019432	0.093208	0.530456	-0.2505	0.258	0.4485	0	238	256	3
2026-02-12	15:40:17.990	111.58	-16.275	0.385	1.008452	0.13176	0.483852	-0.2445	0.264	0.4455	0	238	256	3
2026-02-12	15:40:18.010	124.25	2.66	-22.295	0.954528	0.18056	0.382592	-0.2445	0.267	0.441	0	244	287	3
2026-02-12	15:40:18.030	135.835	10.535	-37.8	0.967948	0.104676	0.238388	-0.243	0.2685	0.432	0	244	287	3
2026-02-12	15:40:18.050	165.76	13.195	-49.595	0.918172	-0.025864	0.116144	-0.243	0.2715	0.4245	0	244	287	3
2026-02-12	15:40:18.070	188.72	6.93	-49.77	0.925248	0.000244	0.146644	-0.2475	0.2715	0.411	0	244	287	3
2026-02-12	15:40:18.090	182.63	0.35	-46.9	1.05408	0.196664	0.248636	-0.2565	0.2745	0.3855	0	244	287	3
2026-02-12	15:40:18.110	156.8	5.25	-48.51	1.04798	0.34892	0.279136	-0.264	0.267	0.3675	0	244	287	3
2026-02-12	15:40:18.130	125.72	7.455	-53.13	1.128744	0.385032	0.260836	-0.27	0.2625	0.357	0	244	287	3
2026-02-12	15:40:18.150	82.81	8.96	-52.29	1.239276	0.40016	0.266692	-0.2745	0.261	0.345	0	244	287	3
2026-02-12	15:40:18.170	28.665	13.405	-53.55	1.245132	0.377956	0.248392	-0.279	0.255	0.3375	0	244	287	3
2026-02-12	15:40:18.190	-20.615	16.59	-62.65	1.183888	0.288164	0.202032	-0.279	0.2535	0.336	0	244	287	3
2026-02-12	15:40:18.210	-55.755	18.06	-75.46	1.109712	0.1769	0.171288	-0.2775	0.2445	0.333	0	249	314	3
2026-02-12	15:40:18.230	-87.605	18.375	-85.61	1.105076	0.10858	0.177388	-0.2895	0.2295	0.3315	0	249	314	3
2026-02-12	15:40:18.250	-113.015	21.945	-95.62	1.152412	0.064416	0.169824	-0.297	0.216	0.336	0	249	314	3
2026-02-12	15:40:18.270	-118.965	29.4	-107.87	1.12484	0.03172	0.12444	-0.3	0.2025	0.3405	0	249	314	3
2026-02-12	15:40:18.290	-110.53	35.455	-118.51	1.070672	0.025864	0.074908	-0.3105	0.1875	0.342	0	249	314	3
2026-02-12	15:40:18.310	-84.07	39.655	-123.48	1.040904	0.0671	0.050996	-0.312	0.1785	0.3435	0	249	314	3
2026-02-12	15:40:18.330	-68.18	40.74	-119.245	1.085312	0.0976	0.059536	-0.3225	0.144	0.342	0	249	314	3
2026-02-12	15:40:18.350	-46.55	43.75	-112.49	1.038952	0.131516	0.030012	-0.324	0.126	0.3315	0	249	314	3
2026-02-12	15:40:18.370	-30.45	43.4	-103.25	1.005768	0.20618	0.036356	-0.33	0.1005	0.333	0	249	314	3
2026-02-12	15:40:18.390	-39.2	41.895	-88.48	1.136552	0.210816	0.096136	-0.333	0.0795	0.3225	0	249	314	3
2026-02-12	15:40:18.410	-43.19	49.035	-71.085	1.159488	0.193248	0.011468	-0.336	0.0765	0.318	0	252	303	3
2026-02-12	15:40:18.430	-33.635	54.495	-55.58	1.034316	0.187636	-0.078568	-0.3405	0.057	0.309	0	252	303	3
2026-02-12	15:40:18.450	-19.075	50.05	-44.485	0.956724	0.192272	-0.156892	-0.339	0.051	0.3045	0	252	303	3
2026-02-12	15:40:18.470	3.815	39.515	-37.17	0.868396	0.221552	-0.229116	-0.3465	0.042	0.2985	0	252	303	3
2026-02-12	15:40:18.490	31.22	20.02	-36.26	0.822036	0.3233	-0.226676	-0.3405	0.0375	0.2895	0	252	303	3
2026-02-12	15:40:18.510	42.035	-4.655	-39.76	0.820328	0.384788	-0.111508	-0.3375	0.033	0.294	0	252	303	3
2026-02-12	15:40:18.530	26.145	-27.51	-43.61	0.895724	0.385032	0.074664	-0.339	0.0315	0.282	0	252	303	3
2026-02-12	15:40:18.550	-1.365	-41.615	-44.695	1.019676	0.312808	0.259128	-0.3345	0.024	0.291	0	252	303	3
2026-02-12	15:40:18.570	-10.78	-41.125	-43.54	1.039928	0.382348	0.359656	-0.3315	0.0075	0.303	0	252	303	3
2026-02-12	15:40:18.590	-22.785	-36.015	-47.46	0.966484	0.516548	0.345016	-0.333	0	0.3075	0	252	303	3
2026-02-12	15:40:18.610	-46.2	-32.655	-54.39	1.0004	0.568032	0.31232	-0.3405	-0.009	0.3135	0	255	256	3
2026-02-12	15:40:18.630	-63	-25.48	-61.985	0.973072	0.586332	0.193736	-0.3465	-0.0105	0.3165	0	255	256	3
2026-02-12	15:40:18.650	-68.11	-22.225	-70.77	0.907924	0.659776	0.133468	-0.339	-0.015	0.318	0	255	256	3
2026-02-12	15:40:18.670	-76.125	-21.595	-77.42	0.88572	0.726876	0.219844	-0.3285	-0.0255	0.318	0	255	256	3
2026-02-12	15:40:18.690	-90.335	-18.865	-80.01	0.912072	0.741272	0.331352	-0.336	-0.0375	0.3225	0	255	256	3
2026-02-12	15:40:18.710	-104.09	-12.285	-80.29	0.9089	0.672708	0.390888	-0.333	-0.0495	0.324	0	255	256	3
2026-02-12	15:40:18.730	-108.43	-5.915	-77.28	0.927932	0.599264	0.424316	-0.321	-0.063	0.3225	0	255	256	3
2026-02-12	15:40:18.750	-103.425	-1.365	-72.8	0.989908	0.576572	0.449936	-0.321	-0.0765	0.3195	0	255	256	3
2026-02-12	15:40:18.770	-101.08	2.765	-67.9	1.053592	0.54778	0.466284	-0.327	-0.0825	0.3075	0	255	256	3
2026-02-12	15:40:18.790	-97.44	7.84	-63.945	1.122644	0.482632	0.462624	-0.312	-0.0885	0.306	0	255	256	3
2026-02-12	15:40:18.810	-85.19	15.19	-62.02	1.10776	0.433588	0.422608	-0.3165	-0.117	0.312	0	259	226	3
2026-02-12	15:40:18.830	-69.58	19.88	-62.02	1.05774	0.417728	0.358924	-0.3105	-0.1125	0.2955	0	259	226	3
2026-02-12	15:40:18.850	-56.385	21.105	-60.41	1.0858	0.193004	0.17812	-0.3105	-0.1125	0.2955	0	259	226	3
2026-02-12	15:40:18.870	-20.02	22.435	-50.61	0.95526	-0.154696	0.101504	-0.303	-0.1245	0.2895	0	259	226	3
2026-02-12	15:40:18.890	32.76	27.44	-37.275	0.801784	-0.195688	0.1647	-0.294	-0.1395	0.279	0	259	226	3
2026-02-12	15:40:18.910	52.71	30.695	-25.935	0.74054	-0.04026	0.248392	-0.294	-0.1425	0.273	0	259	226	3
2026-02-12	15:40:18.930	35.875	36.12	-16.555	0.627812	0.037332	0.306464	-0.2955	-0.147	0.2715	0	259	226	3
2026-02-12	15:40:18.950	9.205	44.345	-8.925	0.511668	0.020496	0.294508	-0.2895	-0.1485	0.2715	0	259	226	3
2026-02-12	15:40:18.970	-5.495	49.805	-1.89	0.45994	-0.0854	0.151524	-0.288	-0.1485	0.267	0	259	226	3
2026-02-12	15:40:18.990	4.375	40.88	11.515	0.71248	-0.054412	-0.105408	-0.294	-0.1485	0.261	0	259	226	3
2026-02-12	15:40:19.010	22.365	13.895	35.7	1.20902	0.268156	-0.101504	-0.2895	-0.1485	0.255	0	265	225	3
2026-02-12	15:40:19.030	5.215	2.94	60.27	1.163148	0.433588	0.053924	-0.291	-0.1485	0.249	0	265	225	3
2026-02-12	15:40:19.050	-35	-5.32	74.795	1.080432	0.336476	0.213256	-0.2925	-0.1425	0.2475	0	265	225	3
2026-02-12	15:40:19.070	-55.09	-18.83	88.97	1.08946	0.153964	0.286212	-0.2925	-0.1335	0.252	0	265	225	3
2026-02-12	15:40:19.090	-30.31	-30.065	101.92	1.007476	0.112484	0.313784	-0.2985	-0.117	0.2565	0	265	225	3
2026-02-12	15:40:19.110	32.725	-43.575	105.84	0.895968	0.122244	0.41724	-0.303	-0.1005	0.2595	0	265	225	3
2026-02-12	15:40:19.130	100.8	-50.715	105.175	0.818864	0.272792	0.496296	-0.303	-0.096	0.2625	0	265	225	3
2026-02-12	15:40:19.150	115.955	-50.225	106.61	0.724436	0.528016	0.440664	-0.321	-0.066	0.2865	0	265	225	3
2026-02-12	15:40:19.170	82.74	-52.08	110.11	0.63806	0.672464	0.37576	-0.3165	-0.051	0.291	0	265	225	3
2026-02-12	15:40:19.190	39.41	-55.72	111.405	0.665388	0.692228	0.405528	-0.33	-0.045	0.3075	0	265	225	3
2026-02-12	15:40:19.210	12.565	-54.005	107.975	0.762988	0.639524	0.423584	-0.318	-0.0165	0.3045	0	274	231	3
2026-02-12	15:40:19.230	8.365	-45.885	100.345	0.804468	0.595848	0.343064	-0.3225	-0.0075	0.3105	0	274	231	3
2026-02-12	15:40:19.250	19.005	-37.625	87.885	0.746152	0.58804	0.296948	-0.324	0.0075	0.3195	0	274	231	3
2026-02-12	15:40:19.270	31.85	-34.755	73.57	0.782508	0.576816	0.281332	-0.321	0.0195	0.33	0	274	231	3
2026-02-12	15:40:19.290	48.125	-33.215	60.97	0.821548	0.541924	0.332084	-0.3225	0.03	0.339	0	274	231	3
2026-02-12	15:40:19.310	65.87	-31.5	50.82	0.808128	0.520452	0.396012	-0.3285	0.042	0.3405	0	274	231	3
2026-02-12	15:40:19.330	82.81	-31.22	41.79	0.840336	0.488732	0.443104	-0.3315	0.048	0.3405	0	274	231	3
2026-02-12	15:40:19.350	102.375	-29.925	35	0.88572	0.441884	0.462624	-0.324	0.054	0.3495	0	274	231	3
2026-02-12	15:40:19.370	126.77	-25.795	29.505	0.930372	0.45628	0.449204	-0.321	0.063	0.3525	0	274	231	3
2026-02-12	15:40:19.390	104.51	-20.44	25.27	0.917196	0.744688	0.317688	-0.324	0.0675	0.3465	0	274	231	3
2026-02-12	15:40:19.410	29.015	-21.175	22.155	0.926224	0.723948	0.29402	-0.327	0.069	0.3585	0	283	253	3
2026-02-12	15:40:19.430	-17.85	-22.155	13.51	0.99918	0.610244	0.288164	-0.3195	0.081	0.366	0	283	253	3
2026-02-12	15:40:19.450	-29.96	-21.735	5.145	1.075552	0.51484	0.289628	-0.3225	0.09	0.3615	0	283	253	3
2026-02-12	15:40:19.470	-23.835	-19.53	-3.605	1.109224	0.43432	0.256444	-0.318	0.0855	0.372	0	283	253	3
2026-02-12	15:40:19.490	-9.03	-18.27	-12.04	1.168272	0.399428	0.227896	-0.312	0.0825	0.3675	0	283	253	3
2026-02-12	15:40:19.510	9.625	-15.54	-19.04	1.170468	0.43554	0.223504	-0.309	0.0735	0.375	0	283	253	3
2026-02-12	15:40:19.530	22.295	-10.815	-26.11	1.111176	0.452864	0.21838	-0.315	0.0765	0.384	0	283	253	3
2026-02-12	15:40:19.550	32.13	-7.175	-35.14	1.061156	0.45506	0.1952	-0.3135	0.0795	0.378	0	283	253	3
2026-02-12	15:40:19.570	31.22	-4.795	-43.96	1.049688	0.489952	0.164944	-0.318	0.069	0.375	0	283	253	3
2026-02-12	15:40:19.590	12.67	-3.85	-51.275	1.059448	0.474336	0.147132	-0.3165	0.0705	0.3825	0	283	253	3
2026-02-12	15:40:19.610	-13.02	-3.395	-56.805	1.072136	0.4453	0.152012	-0.318	0.0675	0.393	0	288	271	3
2026-02-12	15:40:19.630	-38.465	-2.59	-60.55	1.06628	0.396988	0.146644	-0.312	0.0495	0.3825	0	288	271	3
2026-02-12	15:40:19.650	-62.44	-0.315	-65.555	1.068476	0.365024	0.134688	-0.3165	0.0465	0.381	0	288	271	3
2026-02-12	15:40:19.670	-67.06	2.485	-70.245	1.089216	0.344284	0.142252	-0.3165	0.0345	0.381	0	288	271	3
2026-02-12	15:40:19.690	-57.96	7.35	-77.105	1.086288	0.328424	0.121756	-0.315	0.018	0.3795	0	288	271	3
2026-02-12	15:40:19.710	-44.45	10.71	-83.685	1.07604	0.331596	0.125172	-0.309	0.009	0.3765	0	288	271	3
2026-02-12	15:40:19.730	-37.03	13.58	-87.885	1.065792	0.326716	0.131272	-0.3105	-0.0015	0.378	0	288	271	3
2026-02-12	15:40:19.750	-32.9	16.73	-90.23	1.044808	0.356484	0.122244	-0.309	-0.018	0.3795	0	288	271	3
2026-02-12	15:40:19.770	-33.355	18.935	-90.475	1.028948	0.378932	0.123952	-0.3105	-0.0345	0.3735	0	288	271	3
2026-02-12	15:40:19.790	-32.935	21.21	-89.95	1.015772	0.404796	0.1586	-0.3135	-0.0525	0.366	0	288	271	3
2026-02-12	15:40:19.810	-35.105	24.92	-87.57	0.993324	0.412848	0.249124	-0.3105	-0.066	0.3615	0	288	266	3
2026-02-12	15:40:19.830	-39.515	31.885	-82.495	0.952332	0.410408	0.34526	-0.3105	-0.0705	0.3615	0	288	266	3
2026-02-12	15:40:19.850	-37.415	38.99	-78.225	0.904508	0.419192	0.343308	-0.309	-0.0825	0.3525	0	288	266	3
2026-02-12	15:40:19.870	-32.935	42.035	-73.325	0.861076	0.464576	0.363804	-0.3	-0.0885	0.3495	0	288	266	3
2026-02-12	15:40:19.890	-35.14	44.24	-68.425	0.893528	0.510448	0.419436	-0.2985	-0.102	0.345	0	288	266	3
2026-02-12	15:40:19.910	-39.235	51.205	-63.42	0.885476	0.545096	0.416264	-0.2985	-0.114	0.333	0	288	266	3
2026-02-12	15:40:19.930	-44.87	55.16	-58.87	0.859368	0.57584	0.38308	-0.2985	-0.114	0.333	0	288	266	3
2026-02-12	15:40:19.950	-47.075	56.14	-54.25	0.872788	0.575596	0.377712	-0.2925	-0.123	0.318	0	288	266	3
2026-02-12	15:40:19.970	-48.65	57.89	-48.615	0.8418	0.561444	0.410164	-0.285	-0.138	0.3	0	288	266	3
2026-02-12	15:40:19.990	-48.65	59.605	-43.26	0.820328	0.551196	0.41114	-0.2835	-0.144	0.291	0	288	266	3
2026-02-12	15:40:20.010	-48.545	60.2	-37.135	0.8052	0.552172	0.403088	-0.2805	-0.147	0.2805	0	282	262	2
2026-02-12	15:40:20.030	-51.45	59.22	-30.765	0.804224	0.53436	0.416752	-0.273	-0.153	0.2685	0	282	262	2
2026-02-12	15:40:20.050	-53.165	58.975	-24.745	0.796904	0.488244	0.389668	-0.27	-0.1575	0.2595	0	282	262	2
2026-02-12	15:40:20.070	-50.995	56.945	-18.62	0.768112	0.478484	0.339892	-0.27	-0.156	0.2445	0	282	262	2
2026-02-12	15:40:20.090	-52.22	50.26	-12.775	0.741516	0.456524	0.291824	-0.267	-0.156	0.2325	0	282	262	2
2026-02-12	15:40:20.110	-55.23	40.635	-6.405	0.728828	0.426268	0.25376	-0.2655	-0.159	0.2265	0	282	262	2
2026-02-12	15:40:20.130	-60.97	28.875	1.225	0.696376	0.398452	0.200812	-0.2625	-0.1575	0.216	0	282	262	2
2026-02-12	15:40:20.150	-75.46	14.945	10.325	0.707112	0.400648	0.145912	-0.2595	-0.156	0.2115	0	282	262	2
2026-02-12	15:40:20.170	-95.06	2.835	20.79	0.752984	0.321592	0.092232	-0.2565	-0.1515	0.204	0	282	262	2
2026-02-12	15:40:20.190	-106.225	-10.045	37.625	0.745176	0.249612	-0.024888	-0.2535	-0.1455	0.1965	0	282	262	2
2026-02-12	15:40:20.210	-102.445	-19.74	48.09	0.679784	0.170556	-0.10004	-0.2535	-0.1455	0.1965	0	274	265	2
2026-02-12	15:40:20.230	-82.005	-32.025	57.4	0.611708	0.122976	-0.132736	-0.2655	-0.126	0.1905	0	274	265	2
2026-02-12	15:40:20.250	-52.955	-45.815	65.975	0.563152	0.132004	-0.125904	-0.2715	-0.108	0.189	0	274	265	2
2026-02-12	15:40:20.270	-31.22	-61.495	74.27	0.524844	0.153232	-0.074664	-0.279	-0.1005	0.1965	0	274	265	2
2026-02-12	15:40:20.290	-25.445	-77.77	81.025	0.54778	0.186416	0.057828	-0.276	-0.087	0.207	0	274	265	2
2026-02-12	15:40:20.310	-28.07	-89.145	82.495	0.588528	0.097844	0.22204	-0.285	-0.0735	0.21	0	274	265	2
2026-02-12	15:40:20.330	-8.085	-92.785	80.71	0.73078	0.085644	0.321104	-0.291	-0.0675	0.222	0	274	265	2
2026-02-12	15:40:20.350	-0.21	-95.97	94.22	1.045052	0.093452	0.2501	-0.294	-0.0555	0.234	0	274	265	2
2026-02-12	15:40:20.370	9.485	-102.725	116.34	1.222196	0.15494	0.18544	-0.306	-0.036	0.249	0	274	265	2
2026-02-12	15:40:20.390	11.13	-109.445	130.935	1.21634	0.232044	0.165432	-0.3045	-0.0225	0.2625	0	274	265	2
2026-02-12	15:40:20.410	4.165	-117.88	136.92	1.35054	0.223016	0.152988	-0.3045	-0.009	0.285	0	268	249	2
2026-02-12	15:40:20.430	-7.945	-124.635	138.39	1.43228	0.20374	0.123708	-0.306	0.003	0.2925	0	268	249	2
2026-02-12	15:40:20.450	-2.975	-135.66	136.92	1.520364	0.112728	0.18544	-0.3105	0.0255	0.3075	0	268	249	2
2026-02-12	15:40:20.470	29.785	-140.35	129.115	1.490352	0.066856	0.446276	-0.3135	0.0375	0.315	0	268	249	2
2026-02-12	15:40:20.490	42.98	-135.975	118.895	1.397144	0.048556	0.59902	-0.303	0.078	0.357	0	268	249	2
2026-02-12	15:40:20.510	43.89	-128.485	107.835	1.231956	0.020252	0.58804	-0.303	0.0945	0.3795	0	268	249	2
2026-02-12	15:40:20.530	47.67	-121.205	98.91	1.118984	0.040504	0.509472	-0.2955	0.1125	0.4035	0	268	249	2
2026-02-12	15:40:20.550	51.065	-114.24	91.98	1.032852	0.08174	0.487024	-0.291	0.117	0.414	0	268	249	2
2026-02-12	15:40:20.570	44.17	-106.61	87.535	0.991128	0.094184	0.468968	-0.282	0.1425	0.426	0	268	249	2
2026-02-12	15:40:20.590	33.425	-99.785	84.14	0.986492	0.102724	0.404552	-0.264	0.15	0.4365	0	268	249	2
2026-02-12	15:40:20.610	25.48	-94.99	81.97	0.993812	0.099796	0.3477	-0.2625	0.168	0.456	0	269	244	3
2026-02-12	15:40:20.630	20.23	-91.42	79.975	1.037488	0.094184	0.33916	-0.2625	0.1755	0.459	0	269	244	3
2026-02-12	15:40:20.650	12.635	-86.275	76.545	1.130208	0.060268	0.355752	-0.2445	0.1965	0.483	0	269	244	3
2026-02-12	15:40:20.670	11.27	-75.845	70.49	1.094096	0.011224	0.346968	-0.24	0.1965	0.4785	0	269	244	3
2026-02-12	15:40:20.690	24.255	-65.8	61.6	1.022116	-0.022936	0.347456	-0.2295	0.21	0.489	0	269	244	3
2026-02-12	15:40:20.710	42.385	-59.115	49.77	1.064572	-0.051728	0.378932	-0.216	0.2265	0.495	0	269	244	3
2026-02-12	15:40:20.730	77.875	-43.365	35.42	1.09556	-0.150548	0.412116	-0.207	0.222	0.4905	0	269	244	3
2026-02-12	15:40:20.750	119.105	-31.325	23.765	1.028948	-0.10248	0.365756	-0.2025	0.2325	0.4935	0	269	244	3
2026-02-12	15:40:20.770	149.73	-22.575	10.045	1.033584	-0.022692	0.34038	-0.195	0.249	0.495	0	269	244	3
2026-02-12	15:40:20.790	162.155	-14.84	-3.885	1.045052	0.027816	0.327448	-0.1935	0.261	0.489	0	269	244	3
2026-02-12	15:40:20.810	161.455	-6.895	-17.955	1.052128	0.05246	0.293288	-0.1935	0.2655	0.4815	0	272	263	3
2026-02-12	15:40:20.830	156.765	-1.505	-31.64	1.085068	0.047336	0.211792	-0.195	0.2715	0.4665	0	272	263	3
2026-02-12	15:40:20.850	153.65	0.14	-45.045	1.047736	0.090524	0.144692	-0.198	0.2805	0.4545	0	272	263	3
2026-02-12	15:40:20.870	130.06	-2.695	-54.6	1.086532	0.116144	0.22204	-0.201	0.2865	0.438	0	272	263	3
2026-02-12	15:40:20.890	81.34	-0.595	-57.47	1.141432	0.133224	0.287188	-0.2085	0.2895	0.423	0	272	263	3
2026-02-12	15:40:20.910	35.245	8.19	-60.76	1.12362	0.095648	0.2379	-0.207	0.279	0.4215	0	272	263	3
2026-02-12	15:40:20.930	15.015	17.535	-66.115	1.061156	0.032208	0.152012	-0.2085	0.2685	0.4155	0	272	263	3
2026-02-12	15:40:20.950	12.25	23.555	-71.155	1.016504	-0.016348	0.084912	-0.2145	0.264	0.4125	0	272	263	3
2026-02-12	15:40:20.970	14.28	27.02	-75.46	0.976	-0.017812	0.065392	-0.219	0.255	0.4155	0	272	263	3
2026-02-12	15:40:20.990	11.165	29.26	-81.235	0.974536	0.006588	0.090036	-0.225	0.2475	0.414	0	272	263	3
2026-02-12	15:40:21.010	5.705	31.36	-87.92	0.97478	0.023668	0.116388	-0.225	0.2475	0.414	0	273	274	3
2026-02-12	15:40:21.030	2.555	32.165	-92.54	0.988444	0.070272	0.15372	-0.237	0.234	0.402	0	273	274	3
2026-02-12	15:40:21.050	-9.73	34.055	-94.57	1.047248	0.126148	0.189832	-0.2535	0.2175	0.39	0	273	274	3
2026-02-12	15:40:21.070	-29.645	38.745	-94.465	1.093852	0.165188	0.161284	-0.258	0.2055	0.3855	0	273	274	3
2026-02-12	15:40:21.090	-44.625	45.01	-94.185	1.04798	0.182024	0.117608	-0.267	0.189	0.3765	0	273	274	3
2026-02-12	15:40:21.110	-58.73	47.915	-93.94	1.129232	0.216184	0.165188	-0.276	0.174	0.372	0	273	274	3
2026-02-12	15:40:21.130	-78.4	55.93	-92.54	1.360056	0.248148	0.236436	-0.276	0.1605	0.3705	0	273	274	3
2026-02-12	15:40:21.150	-90.72	76.72	-90.335	1.324676	0.26474	0.191296	-0.279	0.147	0.372	0	273	274	3
2026-02-12	15:40:21.170	-88.515	91.105	-91.77	1.263676	0.251564	0.114192	-0.285	0.1305	0.369	0	273	274	3
2026-02-12	15:40:21.190	-75.635	97.58	-93.625	1.226344	0.287432	0.065636	-0.288	0.117	0.351	0	273	274	3
2026-02-12	15:40:21.210	-65.38	98.525	-96.285	1.214876	0.315492	0.07564	-0.2925	0.1065	0.339	0	270	263	3
2026-02-12	15:40:21.230	-66.92	96.215	-99.33	1.181204	0.294508	0.144448	-0.3015	0.0915	0.33	0	270	263	3
2026-02-12	15:40:21.250	-62.09	94.395	-104.72	1.108004	0.220576	0.222284	-0.3	0.084	0.321	0	270	263	3
2026-02-12	15:40:21.270	-33.215	90.09	-114.415	0.981124	0.23668	0.292068	-0.2925	0.084	0.3195	0	270	263	3
2026-02-12	15:40:21.290	-17.815	84.035	-118.965	0.960628	0.290604	0.327692	-0.2925	0.084	0.3195	0	270	263	3
2026-02-12	15:40:21.310	-10.57	76.615	-120.715	0.939156	0.356972	0.363316	-0.303	0.03	0.2775	0	270	263	3
2026-02-12	15:40:21.330	-8.82	69.37	-120.82	0.923296	0.410164	0.379176	-0.2925	0.018	0.264	0	270	263	3
2026-02-12	15:40:21.350	-6.685	62.755	-119.14	0.902556	0.44896	0.381372	-0.2955	0	0.2565	0	270	263	3
2026-02-12	15:40:21.370	-9.835	55.545	-115.57	0.883768	0.497516	0.399672	-0.2895	-0.009	0.2415	0	270	263	3
2026-02-12	15:40:21.390	-26.145	48.16	-110.04	0.882792	0.537288	0.432612	-0.2895	-0.0345	0.2385	0	270	263	3
2026-02-12	15:40:21.410	-49.315	43.4	-104.755	0.859612	0.549	0.430904	-0.2835	-0.0495	0.225	0	265	251	3
2026-02-12	15:40:21.430	-71.26	39.235	-99.715	0.817156	0.535824	0.384544	-0.2895	-0.0585	0.2205	0	265	251	3
2026-02-12	15:40:21.450	-86.73	32.34	-94.745	0.791048	0.509472	0.342576	-0.2715	-0.0705	0.2115	0	265	251	3
2026-02-12	15:40:21.470	-98.525	22.26	-89.145	0.776408	0.47458	0.343308	-0.2835	-0.078	0.204	0	265	251	3
2026-02-12	15:40:21.490	-108.99	12.25	-82.11	0.7686	0.422608	0.388204	-0.273	-0.0825	0.2085	0	265	251	3
2026-02-12	15:40:21.510	-118.125	4.97	-72.835	0.78202	0.366732	0.423096	-0.2685	-0.0975	0.1905	0	265	251	3
2026-02-12	15:40:21.530	-115.535	-2.17	-60.235	0.820328	0.27206	0.397476	-0.2655	-0.0885	0.186	0	265	251	3
2026-02-12	15:40:21.550	-95.48	-9.765	-48.3	0.830332	0.216428	0.335256	-0.2655	-0.0885	0.186	0	265	251	3
2026-02-12	15:40:21.570	-75.075	-17.92	-38.115	0.838384	0.130052	0.221552	-0.2595	-0.105	0.18	0	265	251	3
2026-02-12	15:40:21.590	-34.755	-28.315	-26.145	0.88572	0.027084	0.111752	-0.258	-0.1035	0.1815	0	265	251	3
2026-02-12	15:40:21.610	10.08	-39.445	-15.12	0.877668	0.057828	0.074664	-0.2505	-0.102	0.18	0	261	258	3
2026-02-12	15:40:21.630	40.67	-50.19	-5.81	0.835212	0.103944	0.107604	-0.2625	-0.102	0.183	0	261	258	3
2026-02-12	15:40:21.650	48.965	-59.955	4.62	0.814716	0.153476	0.149084	-0.255	-0.099	0.195	0	261	258	3
2026-02-12	15:40:21.670	30.24	-67.445	19.425	0.79422	0.213744	0.202276	-0.2595	-0.1035	0.1995	0	261	258	3
2026-02-12	15:40:21.690	-10.325	-72.73	35.455	0.79666	0.179584	0.254736	-0.2625	-0.114	0.213	0	261	258	3
2026-02-12	15:40:21.710	-50.68	-76.02	53.13	0.81984	0.11834	0.24888	-0.2685	-0.1095	0.225	0	261	258	3
2026-02-12	15:40:21.730	-82.425	-78.995	71.33	0.821792	0.110776	0.19886	-0.2685	-0.096	0.2295	0	261	258	3
2026-02-12	15:40:21.750	-103.81	-83.125	84.665	0.795684	0.094916	0.16958	-0.2775	-0.084	0.2325	0	261	258	3
2026-02-12	15:40:21.770	-105.105	-89.845	92.89	0.83448	0.019764	0.177632	-0.2835	-0.075	0.2475	0	261	258	3
2026-02-12	15:40:21.790	-75.845	-95.13	98.91	0.883036	-0.012444	0.221308	-0.294	-0.051	0.2505	0	261	258	3
2026-02-12	15:40:21.810	-22.575	-101.71	109.445	0.953064	-0.026596	0.256444	-0.2865	-0.0405	0.267	0	258	262	3
2026-02-12	15:40:21.830	15.155	-110.04	115.5	1.08092	-0.015616	0.256932	-0.2925	-0.024	0.276	0	258	262	3
2026-02-12	15:40:21.850	66.92	-116.48	118.335	1.1773	0.081008	0.295972	-0.3015	-0.003	0.2955	0	258	262	3
2026-02-12	15:40:21.870	124.565	-118.58	118.195	1.234884	0.171044	0.3599	-0.3015	0.012	0.3165	0	258	262	3
2026-02-12	15:40:21.890	172.2	-115.675	118.86	1.2444	0.218868	0.44042	-0.2985	0.033	0.3345	0	258	262	3
2026-02-12	15:40:21.910	204.995	-107.73	119.91	1.21268	0.259128	0.461892	-0.294	0.0495	0.348	0	258	262	3
2026-02-12	15:40:21.930	225.365	-96.635	120.715	1.142896	0.304512	0.417972	-0.2865	0.0675	0.36	0	258	262	3
2026-02-12	15:40:21.950	229.705	-87.535	119.98	1.078724	0.355996	0.353312	-0.2865	0.0855	0.375	0	258	262	3
2026-02-12	15:40:21.970	214.9	-81.235	119	1.019188	0.393816	0.31842	-0.2835	0.108	0.381	0	258	262	3
2026-02-12	15:40:21.990	182.56	-77.77	118.335	1.002596	0.418704	0.312076	-0.2745	0.129	0.3825	0	258	262	3
2026-02-12	15:40:22.010	129.08	-73.885	116.585	0.991128	0.424072	0.304268	-0.2715	0.1395	0.3855	0	255	267	3
2026-02-12	15:40:22.030	95.725	-71.645	113.33	0.938668	0.398696	0.315736	-0.264	0.162	0.39	0	255	267	3
2026-02-12	15:40:22.050	53.655	-70.77	107.8	0.93208	0.356972	0.370148	-0.255	0.189	0.399	0	255	267	3
2026-02-12	15:40:22.070	1.68	-65.87	102.445	1.04188	0.250344	0.412848	-0.2475	0.2025	0.408	0	255	267	3
2026-02-12	15:40:22.090	-11.235	-53.69	96.25	1.04066	0.06734399	0.333304	-0.243	0.2115	0.414	0	255	267	3
2026-02-12	15:40:22.110	21.455	-48.02	91.49	1.01138	-0.002928	0.2623	-0.216	0.2355	0.4245	0	255	267	3
2026-02-12	15:40:22.130	66.22	-49.805	88.725	1.18096	-0.005856	0.19886	-0.2115	0.2415	0.432	0	255	267	3
2026-02-12	15:40:22.150	115.01	-51.765	85.33	1.256112	0.091988	0.19398	-0.2085	0.249	0.4305	0	255	267	3
2026-02-12	15:40:22.170	142.065	-51.065	77.105	1.14558	0.218868	0.288408	-0.1965	0.2625	0.4245	0	255	267	3
2026-02-12	15:40:22.190	130.445	-53.375	64.05	1.209996	0.29158	0.471408	-0.186	0.276	0.42	0	255	267	3
2026-02-12	15:40:22.210	84.91	-47.145	49.91	1.212924	0.318908	0.620492	-0.18	0.2895	0.42	0	252	281	3
2026-02-12	15:40:22.230	29.19	-31.57	29.155	1.103612	0.310856	0.657824	-0.1725	0.294	0.4155	0	252	281	3
2026-02-12	15:40:22.250	-29.75	-14.63	1.925	1.057008	0.2806	0.56608	-0.1665	0.2985	0.4095	0	252	281	3
2026-02-12	15:40:22.270	-82.425	3.85	-26.775	1.03944	0.230092	0.43554	-0.1605	0.303	0.414	0	252	281	3
2026-02-12	15:40:22.290	-123.48	23.345	-52.29	1.082872	0.162504	0.293288	-0.162	0.297	0.423	0	252	281	3
2026-02-12	15:40:22.310	-139.755	42.35	-74.83	1.203164	0.044408	0.182024	-0.1725	0.288	0.4275	0	252	281	3
2026-02-12	15:40:22.330	-122.22	63.315	-94.255	1.194624	-0.022692	0.0915	-0.1785	0.279	0.4335	0	252	281	3
2026-02-12	15:40:22.350	-79.765	85.645	-114.975	1.105808	-0.074908	0.059292	-0.18	0.273	0.438	0	252	281	3
2026-02-12	15:40:22.370	-60.375	93.765	-121.66	1.164612	-0.114436	0.104676	-0.18	0.273	0.438	0	252	281	3
2026-02-12	15:40:22.390	-37.31	102.55	-124.355	1.181448	-0.09882	0.149084	-0.2175	0.219	0.426	0	252	281	3
2026-02-12	15:40:22.410	-8.015	109.865	-126.805	1.108004	-0.03782	0.166408	-0.2265	0.204	0.42	0	250	296	3
2026-02-12	15:40:22.430	17.675	111.475	-131.005	1.054812	0.0732	0.221552	-0.255	0.192	0.4035	0	250	296	3
2026-02-12	15:40:22.450	22.05	109.34	-133.42	1.1163	0.185684	0.294996	-0.2595	0.1725	0.39	0	250	296	3
2026-02-12	15:40:22.470	10.57	108.85	-130.725	1.236836	0.221064	0.325984	-0.261	0.162	0.369	0	250	296	3
2026-02-12	15:40:22.490	7.84	112.595	-126.455	1.166076	0.243512	0.300364	-0.276	0.1365	0.357	0	250	296	3
2026-02-12	15:40:22.510	29.89	110.6	-126.315	1.0858	0.25742	0.243512	-0.273	0.1275	0.3435	0	250	296	3
2026-02-12	15:40:22.530	55.72	102.725	-127.575	1.060424	0.311344	0.200812	-0.282	0.1125	0.327	0	250	296	3
2026-02-12	15:40:22.550	64.855	91.875	-125.3	1.109224	0.3782	0.188856	-0.2805	0.099	0.3075	0	250	296	3
2026-02-12	15:40:22.570	63.875	82.215	-121.94	1.119228	0.485072	0.1403	-0.2835	0.081	0.2895	0	250	296	3
2026-02-12	15:40:22.590	64.645	71.26	-120.05	1.090436	0.53436	0.088084	-0.2895	0.066	0.2865	0	250	296	3
2026-02-12	15:40:22.610	58.94	54.145	-119.63	1.08946	0.631716	0.080276	-0.2805	0.042	0.279	0	248	293	3
2026-02-12	15:40:22.630	28.735	40.775	-118.72	1.131428	0.680516	0.17202	-0.2805	0.042	0.279	0	248	293	3
2026-02-12	15:40:22.650	-2.1	39.235	-119.42	1.098976	0.7137	0.205936	-0.279	0.0225	0.2685	0	248	293	3
2026-02-12	15:40:22.670	-21.63	39.025	-123.76	1.038708	0.697596	0.167628	-0.2805	-0.006	0.252	0	248	293	3
2026-02-12	15:40:22.690	-26.005	34.965	-128.065	0.981856	0.663192	0.150304	-0.279	-0.0285	0.2445	0	248	293	3
2026-02-12	15:40:22.710	-28.105	28.105	-128.905	0.968924	0.632448	0.216428	-0.2745	-0.0405	0.2445	0	248	293	3
2026-02-12	15:40:22.730	-40.005	23.485	-126.21	0.94794	0.591944	0.30134	-0.273	-0.054	0.2415	0	248	293	3
2026-02-12	15:40:22.750	-52.64	21.35	-122.255	0.922808	0.546316	0.309148	-0.27	-0.063	0.231	0	248	293	3
2026-02-12	15:40:22.770	-63	18.235	-116.55	0.901824	0.528504	0.27694	-0.267	-0.081	0.237	0	248	293	3
2026-02-12	15:40:22.790	-75.32	12.95	-109.165	0.891088	0.510692	0.254004	-0.261	-0.093	0.225	0	248	293	3
2026-02-12	15:40:22.810	-90.265	5.39	-101.78	0.872056	0.465796	0.232044	-0.255	-0.096	0.225	0	248	276	3
2026-02-12	15:40:22.830	-101.71	-4.375	-93.275	0.867908	0.28426	0.219356	-0.2475	-0.111	0.2175	0	248	276	3
2026-02-12	15:40:22.850	-102.06	-12.67	-82.495	0.830088	0.221064	0.218136	-0.255	-0.123	0.2145	0	248	276	3
2026-02-12	15:40:22.870	-99.575	-20.79	-71.82	0.837408	0.042212	0.195688	-0.246	-0.126	0.2115	0	248	276	3
2026-02-12	15:40:22.890	-62.09	-30.38	-49.77	0.829844	-0.078568	-0.055876	-0.234	-0.132	0.207	0	248	276	3
2026-02-12	15:40:22.910	-20.86	-46.235	-38.255	0.798856	-0.138836	-0.209596	-0.2355	-0.138	0.204	0	248	276	3
2026-02-12	15:40:22.930	19.04	-68.845	-23.66	0.840092	-0.244	-0.250344	-0.2355	-0.147	0.207	0	248	276	3
2026-02-12	15:40:22.950	46.305	-86.065	-2.345	0.874008	-0.202764	-0.097112	-0.2325	-0.1485	0.2205	0	248	276	3
2026-02-12	15:40:22.970	20.51	-93.415	23.45	0.922808	-0.035868	0.233264	-0.2325	-0.1455	0.231	0	248	276	3
