yyyy-MM-dd	HH:mm:ss.fff	gyrX	gyrY	gyrZ	accX	accY	accZ	magX	magY	magZ	Marker	Energy	Angle	Classification
2026-02-12	16:57:20.610	75.145	198.065	3.01	0.095648	-0.296216	1.319552	0.369	0.762	-0.3345	0	865	673	5
2026-02-12	16:57:20.630	59.36	250.18	-5.705	0.10492	-0.315736	0.914024	0.381	0.7575	-0.339	0	865	673	5
2026-02-12	16:57:20.650	23.59	304.885	-14.385	0.117364	-0.375272	0.419924	0.402	0.75	-0.354	0	865	673	5
2026-02-12	16:57:20.670	7.56	327.74	-14.175	0.113704	-0.414068	0.106384	0.4485	0.7455	-0.36	0	865	673	5
2026-02-12	16:57:20.690	-4.76	340.41	-11.725	0.064416	-0.338672	-0.114436	0.513	0.7425	-0.3615	0	865	673	5
2026-02-12	16:57:20.710	-28.98	340.235	-10.115	-0.091256	-0.235216	-0.348432	0.555	0.7425	-0.354	0	865	673	5
2026-02-12	16:57:20.730	-81.515	322.035	-8.365	-0.29158	-0.25742	-0.62098	0.603	0.7455	-0.3435	0	865	673	5
2026-02-12	16:57:20.750	-106.785	269.85	-2.52	-0.517036	-0.319152	-0.499224	0.6465	0.756	-0.3225	0	865	673	5
2026-02-12	16:57:20.770	-112.91	192.01	-2.24	-0.665876	-0.342088	-0.465796	0.6825	0.771	-0.2955	0	865	673	5
2026-02-12	16:57:20.790	-108.29	92.33	-21.21	-0.618296	-0.405528	-0.813008	0.708	0.78	-0.276	0	865	673	5
2026-02-12	16:57:20.810	-90.86	-5.46	-40.18	-0.655872	-0.274012	-0.979904	0.7155	0.7905	-0.261	0	872	701	5
2026-02-12	16:57:20.830	-61.39	-99.12	-66.36	-0.55266	-0.232776	-0.675636	0.711	0.804	-0.252	0	872	701	5
2026-02-12	16:57:20.850	-32.2	-175.945	-96.46	-0.3843	-0.19032	-0.290604	0.7065	0.81	-0.2535	0	872	701	5
2026-02-12	16:57:20.870	-13.65	-232.155	-119.315	-0.236924	-0.171044	-0.031476	0.6885	0.816	-0.264	0	872	701	5
2026-02-12	16:57:20.890	1.505	-281.05	-141.05	-0.05002	-0.257908	0.24766	0.6885	0.816	-0.264	0	872	701	5
2026-02-12	16:57:20.910	-13.615	-292.04	-153.51	0.024888	-0.32818	0.287188	0.6255	0.828	-0.2775	0	872	701	5
2026-02-12	16:57:20.930	-2.66	-299.565	-166.005	0.146644	-0.431636	0.37576	0.534	0.837	-0.2925	0	872	701	5
2026-02-12	16:57:20.950	20.335	-298.2	-170.135	0.290848	-0.51484	0.505324	0.477	0.834	-0.2955	0	872	701	5
2026-02-12	16:57:20.970	54.985	-292.46	-166.985	0.415532	-0.718092	0.693692	0.423	0.831	-0.294	0	872	701	5
2026-02-12	16:57:20.990	76.545	-285.705	-162.925	0.493612	-0.615612	0.946232	0.3765	0.822	-0.291	0	872	701	5
2026-02-12	16:57:21.010	67.9	-274.785	-155.435	0.544364	-0.5429	1.116056	0.3345	0.8025	-0.288	0	881	623	5
2026-02-12	16:57:21.030	39.375	-253.085	-152.285	0.601216	-0.521672	1.226588	0.282	0.786	-0.282	0	881	623	5
2026-02-12	16:57:21.050	10.5	-231.245	-147.77	0.643916	-0.493368	1.264652	0.2535	0.7845	-0.2745	0	881	623	5
2026-02-12	16:57:21.070	-20.475	-208.985	-149.73	0.7259	-0.516548	1.218536	0.228	0.771	-0.261	0	881	623	5
2026-02-12	16:57:21.090	-41.755	-181.965	-154.945	0.82838	-0.6527	1.172176	0.195	0.7545	-0.234	0	881	623	5
2026-02-12	16:57:21.110	-48.265	-155.505	-156.485	0.860832	-0.707844	1.141676	0.168	0.747	-0.219	0	881	623	5
2026-02-12	16:57:21.130	-50.855	-113.68	-153.545	0.904752	-0.77958	1.10288	0.168	0.747	-0.219	0	881	623	5
2026-02-12	16:57:21.150	-48.825	-92.61	-144.025	0.922076	-0.709796	1.026996	0.1365	0.7275	-0.195	0	881	623	5
2026-02-12	16:57:21.170	-55.195	-75.18	-136.92	0.886208	-0.571936	0.946232	0.096	0.702	-0.168	0	881	623	5
2026-02-12	16:57:21.190	-70.245	-62.58	-130.375	0.879376	-0.56364	0.867664	0.0855	0.6885	-0.1575	0	881	623	5
2026-02-12	16:57:21.210	-80.885	-51.765	-121.905	0.862296	-0.614148	0.809836	0.0795	0.6765	-0.147	0	887	595	5
2026-02-12	16:57:21.230	-84.245	-44.625	-114.415	0.879864	-0.60146	0.716384	0.0675	0.6675	-0.1425	0	887	595	5
2026-02-12	16:57:21.250	-82.39	-37.17	-108.15	0.826916	-0.559248	0.624396	0.057	0.6555	-0.135	0	887	595	5
2026-02-12	16:57:21.270	-78.26	-33.005	-104.02	0.858636	-0.506056	0.548756	0.0555	0.6465	-0.129	0	887	595	5
2026-02-12	16:57:21.290	-78.12	-29.155	-104.51	0.83082	-0.475068	0.506788	0.054	0.636	-0.117	0	887	595	5
2026-02-12	16:57:21.310	-78.715	-29.715	-106.89	0.842532	-0.453596	0.482876	0.0465	0.6225	-0.111	0	887	595	5
2026-02-12	16:57:21.330	-83.51	-29.155	-109.97	0.839604	-0.42456	0.459208	0.0375	0.6105	-0.1155	0	887	595	5
2026-02-12	16:57:21.350	-87.85	-28.07	-112.595	0.842288	-0.45262	0.441396	0.0495	0.6045	-0.1065	0	887	595	5
2026-02-12	16:57:21.370	-73.43	-27.3	-117.53	0.946476	-0.52094	0.455548	0.033	0.591	-0.099	0	887	595	5
2026-02-12	16:57:21.390	-52.01	-23.205	-118.3	0.999912	-0.520208	0.450668	0.0345	0.5775	-0.0975	0	887	595	5
2026-02-12	16:57:21.410	-31.115	-16.625	-114.59	1.069696	-0.467748	0.428708	0.0285	0.5535	-0.0945	0	882	611	5
2026-02-12	16:57:21.430	-20.895	-6.58	-108.08	1.073356	-0.414068	0.350872	0.027	0.5355	-0.09	0	882	611	5
2026-02-12	16:57:21.450	-25.97	3.675	-98.805	1.039684	-0.296948	0.283772	0.0375	0.5205	-0.084	0	882	611	5
2026-02-12	16:57:21.470	-45.675	12.32	-91.175	1.024312	-0.235948	0.22082	0.036	0.51	-0.0795	0	882	611	5
2026-02-12	16:57:21.490	-73.15	16.52	-81.97	1.01504	-0.218136	0.203008	0.0315	0.507	-0.081	0	882	611	5
2026-02-12	16:57:21.510	-103.81	16.52	-72.03	0.993324	-0.250832	0.19764	0.036	0.4905	-0.0945	0	882	611	5
2026-02-12	16:57:21.530	-128.94	14	-64.925	0.99064	-0.277428	0.20252	0.0375	0.4875	-0.1005	0	882	611	5
2026-02-12	16:57:21.550	-142.03	10.71	-58.31	0.986004	-0.38674	0.212524	0.0405	0.48	-0.108	0	882	611	5
2026-02-12	16:57:21.570	-139.37	7.525	-52.5	1.00284	-0.439688	0.196664	0.042	0.477	-0.105	0	882	611	5
2026-02-12	16:57:21.590	-117.11	5.11	-43.085	0.97966	-0.49044	0.159576	0.048	0.474	-0.1125	0	882	611	5
2026-02-12	16:57:21.610	-76.86	0.105	-30.1	0.970388	-0.480924	0.150548	0.048	0.471	-0.1185	0	864	593	5
2026-02-12	16:57:21.630	-40.11	-5.425	-19.005	0.955504	-0.445544	0.18178	0.048	0.4695	-0.1185	0	864	593	5
2026-02-12	16:57:21.650	-13.37	-10.85	-8.26	0.9577	-0.390888	0.223504	0.045	0.474	-0.12	0	864	593	5
2026-02-12	16:57:21.670	2.03	-15.89	2.1	0.97112	-0.3477	0.235948	0.042	0.471	-0.12	0	864	593	5
2026-02-12	16:57:21.690	10.395	-20.02	10.36	0.983808	-0.31354	0.247172	0.0465	0.4665	-0.1155	0	864	593	5
2026-02-12	16:57:21.710	12.04	-22.435	15.505	0.997716	-0.294752	0.269376	0.0525	0.471	-0.111	0	864	593	5
2026-02-12	16:57:21.730	10.36	-23.03	18.515	0.988688	-0.286456	0.289628	0.0495	0.4815	-0.1155	0	864	593	5
2026-02-12	16:57:21.750	8.61	-23.135	19.355	0.98454	-0.267424	0.29646	0.0465	0.477	-0.111	0	864	593	5
2026-02-12	16:57:21.770	5.53	-22.68	18.34	0.977708	-0.274012	0.299632	0.039	0.477	-0.1065	0	864	593	5
2026-02-12	16:57:21.790	3.85	-22.68	16.065	0.962824	-0.287188	0.31964	0.0405	0.474	-0.1005	0	864	593	5
2026-02-12	16:57:19.810	-7.875	-318.29	-22.785	0.418704	-1.070672	1.098976	0.369	0.84	-0.282	0	867	578	5
2026-02-12	16:57:19.830	12.81	-316.61	-1.19	0.500444	-1.060424	1.307352	0.333	0.837	-0.267	0	867	578	5
2026-02-12	16:57:19.850	36.33	-300.475	17.78	0.550464	-0.991616	1.515972	0.3075	0.837	-0.249	0	867	578	5
2026-02-12	16:57:19.870	49.455	-270.62	31.465	0.565104	-0.881816	1.770952	0.2775	0.834	-0.2295	0	867	578	5
2026-02-12	16:57:19.890	49	-228.935	38.185	0.52948	-0.740784	1.940288	0.252	0.831	-0.216	0	867	578	5
2026-02-12	16:57:19.910	35.35	-173.74	35.77	0.498492	-0.65148	2.083272	0.2325	0.828	-0.207	0	867	578	5
2026-02-12	16:57:19.930	24.045	-72.1	24.255	0.43676	-0.693692	2.086444	0.2175	0.8295	-0.1965	0	867	578	5
2026-02-12	16:57:19.950	34.3	2.87	17.535	0.428708	-0.769332	1.96176	0.213	0.8295	-0.1905	0	867	578	5
2026-02-12	16:57:19.970	49.175	78.89	12.6	0.40748	-0.780312	1.811944	0.2235	0.828	-0.198	0	867	578	5
2026-02-12	16:57:19.990	66.325	150.885	11.2	0.381372	-0.786656	1.60674	0.219	0.828	-0.2025	0	867	578	5
2026-02-12	16:57:20.010	76.65	211.68	10.465	0.410652	-0.787632	1.340292	0.225	0.8265	-0.213	0	864	615	5
2026-02-12	16:57:20.030	79.065	263.9	12.39	0.432124	-0.79788	1.042124	0.246	0.8175	-0.2355	0	864	615	5
2026-02-12	16:57:20.050	78.785	304.15	17.605	0.421144	-0.857416	0.764452	0.273	0.81	-0.2625	0	864	615	5
2026-02-12	16:57:20.070	87.5	331.835	27.93	0.420656	-0.950868	0.614392	0.312	0.8055	-0.2835	0	864	615	5
2026-02-12	16:57:20.090	116.935	349.65	41.615	0.392352	-0.8601	0.45262	0.354	0.801	-0.309	0	864	615	5
2026-02-12	16:57:20.110	142.66	350.98	48.86	0.290848	-0.636596	0.155184	0.396	0.786	-0.3315	0	864	615	5
2026-02-12	16:57:20.130	136.465	336.91	45.22	0.11956	-0.381372	-0.014152	0.447	0.771	-0.348	0	864	615	5
2026-02-12	16:57:20.150	104.475	309.61	37.765	-0.06954	-0.220576	-0.13176	0.501	0.7575	-0.36	0	864	615	5
2026-02-12	16:57:20.170	46.69	259.245	25.865	-0.290604	-0.202032	-0.127612	0.5265	0.75	-0.3645	0	864	615	5
2026-02-12	16:57:20.190	23.24	220.08	18.235	-0.4087	-0.230824	-0.227652	0.5685	0.741	-0.3555	0	864	615	5
2026-02-12	16:57:20.210	11.69	178.045	4.62	-0.548268	-0.189344	-0.260348	0.6225	0.726	-0.348	0	862	688	5
2026-02-12	16:57:20.230	6.615	127.575	-7.56	-0.633424	-0.142252	-0.25864	0.6465	0.7215	-0.339	0	862	688	5
2026-02-12	16:57:20.250	-6.37	71.4	-18.305	-0.677344	-0.111264	-0.281088	0.6675	0.723	-0.327	0	862	688	5
2026-02-12	16:57:20.270	-23.345	11.55	-31.675	-0.69906	-0.079788	-0.305488	0.675	0.7275	-0.324	0	862	688	5
2026-02-12	16:57:20.290	-46.13	-49.98	-46.69	-0.673684	-0.1525	-0.255712	0.672	0.7335	-0.3255	0	862	688	5
2026-02-12	16:57:20.310	-58.45	-107.695	-57.995	-0.584868	-0.276696	-0.141276	0.6705	0.7395	-0.327	0	862	688	5
2026-02-12	16:57:20.330	-63.525	-156.625	-64.505	-0.526552	-0.387472	0.007076	0.657	0.7485	-0.3255	0	862	688	5
2026-02-12	16:57:20.350	-59.325	-198.73	-66.22	-0.457744	-0.488732	0.191052	0.63	0.756	-0.3315	0	862	688	5
2026-02-12	16:57:20.370	-51.24	-229.145	-61.04	-0.365268	-0.59902	0.400404	0.6	0.768	-0.3345	0	862	688	5
2026-02-12	16:57:20.390	-49.175	-250.075	-51.065	-0.3111	-0.651968	0.568032	0.561	0.774	-0.3315	0	862	688	5
2026-02-12	16:57:20.410	-39.865	-273.245	-36.05	-0.190564	-0.781044	1.025288	0.54	0.774	-0.3315	0	863	653	5
2026-02-12	16:57:20.430	-18.9	-274.82	-18.655	-0.099064	-0.929884	1.25172	0.504	0.78	-0.3315	0	863	653	5
2026-02-12	16:57:20.450	15.855	-262.71	4.655	-0.031232	-0.927688	1.48474	0.45	0.7905	-0.3315	0	863	653	5
2026-02-12	16:57:20.470	52.01	-241.535	24.605	0.046116	-0.80154	1.801208	0.417	0.7905	-0.3315	0	863	653	5
2026-02-12	16:57:20.490	58.31	-204.75	43.19	0.060024	-0.67344	2.047404	0.3885	0.7845	-0.327	0	863	653	5
2026-02-12	16:57:20.510	40.46	-152.53	52.01	0.01952	-0.566812	2.222352	0.363	0.7755	-0.3195	0	863	653	5
2026-02-12	16:57:20.530	28.49	-94.01	49.28	0.016836	-0.47946	2.268712	0.3435	0.771	-0.315	0	863	653	5
2026-02-12	16:57:20.550	30.975	-20.16	38.43	0.059536	-0.442372	2.185508	0.3345	0.7725	-0.3105	0	863	653	5
2026-02-12	16:57:20.570	50.715	61.565	25.795	0.050264	-0.385276	2.000312	0.3315	0.771	-0.3135	0	863	653	5
2026-02-12	16:57:20.590	71.995	135.625	14.49	0.0549	-0.316712	1.688968	0.345	0.7665	-0.324	0	863	653	5
2026-02-12	16:57:20.610	75.145	198.065	3.01	0.095648	-0.296216	1.319552	0.369	0.762	-0.3345	0	865	673	5
2026-02-12	16:57:20.630	59.36	250.18	-5.705	0.10492	-0.315736	0.914024	0.381	0.7575	-0.339	0	865	673	5
2026-02-12	16:57:20.650	23.59	304.885	-14.385	0.117364	-0.375272	0.419924	0.402	0.75	-0.354	0	865	673	5
2026-02-12	16:57:20.670	7.56	327.74	-14.175	0.113704	-0.414068	0.106384	0.4485	0.7455	-0.36	0	865	673	5
2026-02-12	16:57:20.690	-4.76	340.41	-11.725	0.064416	-0.338672	-0.114436	0.513	0.7425	-0.3615	0	865	673	5
2026-02-12	16:57:20.710	-28.98	340.235	-10.115	-0.091256	-0.235216	-0.348432	0.555	0.7425	-0.354	0	865	673	5
2026-02-12	16:57:20.730	-81.515	322.035	-8.365	-0.29158	-0.25742	-0.62098	0.603	0.7455	-0.3435	0	865	673	5
2026-02-12	16:57:20.750	-106.785	269.85	-2.52	-0.517036	-0.319152	-0.499224	0.6465	0.756	-0.3225	0	865	673	5
2026-02-12	16:57:20.770	-112.91	192.01	-2.24	-0.665876	-0.342088	-0.465796	0.6825	0.771	-0.2955	0	865	673	5
2026-02-12	16:57:20.790	-108.29	92.33	-21.21	-0.618296	-0.405528	-0.813008	0.708	0.78	-0.276	0	865	673	5
2026-02-12	16:57:20.810	-90.86	-5.46	-40.18	-0.655872	-0.274012	-0.979904	0.7155	0.7905	-0.261	0	872	701	5
2026-02-12	16:57:20.830	-61.39	-99.12	-66.36	-0.55266	-0.232776	-0.675636	0.711	0.804	-0.252	0	872	701	5
2026-02-12	16:57:20.850	-32.2	-175.945	-96.46	-0.3843	-0.19032	-0.290604	0.7065	0.81	-0.2535	0	872	701	5
2026-02-12	16:57:20.870	-13.65	-232.155	-119.315	-0.236924	-0.171044	-0.031476	0.6885	0.816	-0.264	0	872	701	5
2026-02-12	16:57:20.890	1.505	-281.05	-141.05	-0.05002	-0.257908	0.24766	0.6885	0.816	-0.264	0	872	701	5
2026-02-12	16:57:20.910	-13.615	-292.04	-153.51	0.024888	-0.32818	0.287188	0.6255	0.828	-0.2775	0	872	701	5
2026-02-12	16:57:20.930	-2.66	-299.565	-166.005	0.146644	-0.431636	0.37576	0.534	0.837	-0.2925	0	872	701	5
2026-02-12	16:57:20.950	20.335	-298.2	-170.135	0.290848	-0.51484	0.505324	0.477	0.834	-0.2955	0	872	701	5
2026-02-12	16:57:20.970	54.985	-292.46	-166.985	0.415532	-0.718092	0.693692	0.423	0.831	-0.294	0	872	701	5
2026-02-12	16:57:20.990	76.545	-285.705	-162.925	0.493612	-0.615612	0.946232	0.3765	0.822	-0.291	0	872	701	5
2026-02-12	16:57:21.010	67.9	-274.785	-155.435	0.544364	-0.5429	1.116056	0.3345	0.8025	-0.288	0	881	623	5
2026-02-12	16:57:21.030	39.375	-253.085	-152.285	0.601216	-0.521672	1.226588	0.282	0.786	-0.282	0	881	623	5
2026-02-12	16:57:21.050	10.5	-231.245	-147.77	0.643916	-0.493368	1.264652	0.2535	0.7845	-0.2745	0	881	623	5
2026-02-12	16:57:21.070	-20.475	-208.985	-149.73	0.7259	-0.516548	1.218536	0.228	0.771	-0.261	0	881	623	5
2026-02-12	16:57:21.090	-41.755	-181.965	-154.945	0.82838	-0.6527	1.172176	0.195	0.7545	-0.234	0	881	623	5
2026-02-12	16:57:21.110	-48.265	-155.505	-156.485	0.860832	-0.707844	1.141676	0.168	0.747	-0.219	0	881	623	5
2026-02-12	16:57:21.130	-50.855	-113.68	-153.545	0.904752	-0.77958	1.10288	0.168	0.747	-0.219	0	881	623	5
2026-02-12	16:57:21.150	-48.825	-92.61	-144.025	0.922076	-0.709796	1.026996	0.1365	0.7275	-0.195	0	881	623	5
2026-02-12	16:57:21.170	-55.195	-75.18	-136.92	0.886208	-0.571936	0.946232	0.096	0.702	-0.168	0	881	623	5
2026-02-12	16:57:21.190	-70.245	-62.58	-130.375	0.879376	-0.56364	0.867664	0.0855	0.6885	-0.1575	0	881	623	5
2026-02-12	16:57:21.210	-80.885	-51.765	-121.905	0.862296	-0.614148	0.809836	0.0795	0.6765	-0.147	0	887	595	5
2026-02-12	16:57:21.230	-84.245	-44.625	-114.415	0.879864	-0.60146	0.716384	0.0675	0.6675	-0.1425	0	887	595	5
2026-02-12	16:57:21.250	-82.39	-37.17	-108.15	0.826916	-0.559248	0.624396	0.057	0.6555	-0.135	0	887	595	5
2026-02-12	16:57:21.270	-78.26	-33.005	-104.02	0.858636	-0.506056	0.548756	0.0555	0.6465	-0.129	0	887	595	5
2026-02-12	16:57:21.290	-78.12	-29.155	-104.51	0.83082	-0.475068	0.506788	0.054	0.636	-0.117	0	887	595	5
2026-02-12	16:57:21.310	-78.715	-29.715	-106.89	0.842532	-0.453596	0.482876	0.0465	0.6225	-0.111	0	887	595	5
2026-02-12	16:57:21.330	-83.51	-29.155	-109.97	0.839604	-0.42456	0.459208	0.0375	0.6105	-0.1155	0	887	595	5
2026-02-12	16:57:21.350	-87.85	-28.07	-112.595	0.842288	-0.45262	0.441396	0.0495	0.6045	-0.1065	0	887	595	5
2026-02-12	16:57:21.370	-73.43	-27.3	-117.53	0.946476	-0.52094	0.455548	0.033	0.591	-0.099	0	887	595	5
2026-02-12	16:57:21.390	-52.01	-23.205	-118.3	0.999912	-0.520208	0.450668	0.0345	0.5775	-0.0975	0	887	595	5
2026-02-12	16:57:21.410	-31.115	-16.625	-114.59	1.069696	-0.467748	0.428708	0.0285	0.5535	-0.0945	0	882	611	5
2026-02-12	16:57:21.430	-20.895	-6.58	-108.08	1.073356	-0.414068	0.350872	0.027	0.5355	-0.09	0	882	611	5
2026-02-12	16:57:21.450	-25.97	3.675	-98.805	1.039684	-0.296948	0.283772	0.0375	0.5205	-0.084	0	882	611	5
2026-02-12	16:57:21.470	-45.675	12.32	-91.175	1.024312	-0.235948	0.22082	0.036	0.51	-0.0795	0	882	611	5
2026-02-12	16:57:21.490	-73.15	16.52	-81.97	1.01504	-0.218136	0.203008	0.0315	0.507	-0.081	0	882	611	5
2026-02-12	16:57:21.510	-103.81	16.52	-72.03	0.993324	-0.250832	0.19764	0.036	0.4905	-0.0945	0	882	611	5
2026-02-12	16:57:21.530	-128.94	14	-64.925	0.99064	-0.277428	0.20252	0.0375	0.4875	-0.1005	0	882	611	5
2026-02-12	16:57:21.550	-142.03	10.71	-58.31	0.986004	-0.38674	0.212524	0.0405	0.48	-0.108	0	882	611	5
2026-02-12	16:57:21.570	-139.37	7.525	-52.5	1.00284	-0.439688	0.196664	0.042	0.477	-0.105	0	882	611	5
2026-02-12	16:57:21.590	-117.11	5.11	-43.085	0.97966	-0.49044	0.159576	0.048	0.474	-0.1125	0	882	611	5
2026-02-12	16:57:21.610	-76.86	0.105	-30.1	0.970388	-0.480924	0.150548	0.048	0.471	-0.1185	0	864	593	5
2026-02-12	16:57:21.630	-40.11	-5.425	-19.005	0.955504	-0.445544	0.18178	0.048	0.4695	-0.1185	0	864	593	5
2026-02-12	16:57:21.650	-13.37	-10.85	-8.26	0.9577	-0.390888	0.223504	0.045	0.474	-0.12	0	864	593	5
2026-02-12	16:57:21.670	2.03	-15.89	2.1	0.97112	-0.3477	0.235948	0.042	0.471	-0.12	0	864	593	5
2026-02-12	16:57:21.690	10.395	-20.02	10.36	0.983808	-0.31354	0.247172	0.0465	0.4665	-0.1155	0	864	593	5
2026-02-12	16:57:21.710	12.04	-22.435	15.505	0.997716	-0.294752	0.269376	0.0525	0.471	-0.111	0	864	593	5
2026-02-12	16:57:21.730	10.36	-23.03	18.515	0.988688	-0.286456	0.289628	0.0495	0.4815	-0.1155	0	864	593	5
2026-02-12	16:57:21.750	8.61	-23.135	19.355	0.98454	-0.267424	0.29646	0.0465	0.477	-0.111	0	864	593	5
2026-02-12	16:57:21.770	5.53	-22.68	18.34	0.977708	-0.274012	0.299632	0.039	0.477	-0.1065	0	864	593	5
2026-02-12	16:57:21.790	3.85	-22.68	16.065	0.962824	-0.287188	0.31964	0.0405	0.474	-0.1005	0	864	593	5
2026-02-12	16:57:19.810	-7.875	-318.29	-22.785	0.418704	-1.070672	1.098976	0.369	0.84	-0.282	0	867	578	5
2026-02-12	16:57:19.830	12.81	-316.61	-1.19	0.500444	-1.060424	1.307352	0.333	0.837	-0.267	0	867	578	5
2026-02-12	16:57:19.850	36.33	-300.475	17.78	0.550464	-0.991616	1.515972	0.3075	0.837	-0.249	0	867	578	5
2026-02-12	16:57:19.870	49.455	-270.62	31.465	0.565104	-0.881816	1.770952	0.2775	0.834	-0.2295	0	867	578	5
2026-02-12	16:57:19.890	49	-228.935	38.185	0.52948	-0.740784	1.940288	0.252	0.831	-0.216	0	867	578	5
2026-02-12	16:57:19.910	35.35	-173.74	35.77	0.498492	-0.65148	2.083272	0.2325	0.828	-0.207	0	867	578	5
2026-02-12	16:57:19.930	24.045	-72.1	24.255	0.43676	-0.693692	2.086444	0.2175	0.8295	-0.1965	0	867	578	5
2026-02-12	16:57:19.950	34.3	2.87	17.535	0.428708	-0.769332	1.96176	0.213	0.8295	-0.1905	0	867	578	5
2026-02-12	16:57:19.970	49.175	78.89	12.6	0.40748	-0.780312	1.811944	0.2235	0.828	-0.198	0	867	578	5
2026-02-12	16:57:19.990	66.325	150.885	11.2	0.381372	-0.786656	1.60674	0.219	0.828	-0.2025	0	867	578	5
2026-02-12	16:57:20.010	76.65	211.68	10.465	0.410652	-0.787632	1.340292	0.225	0.8265	-0.213	0	864	615	5
2026-02-12	16:57:20.030	79.065	263.9	12.39	0.432124	-0.79788	1.042124	0.246	0.8175	-0.2355	0	864	615	5
2026-02-12	16:57:20.050	78.785	304.15	17.605	0.421144	-0.857416	0.764452	0.273	0.81	-0.2625	0	864	615	5
2026-02-12	16:57:20.070	87.5	331.835	27.93	0.420656	-0.950868	0.614392	0.312	0.8055	-0.2835	0	864	615	5
2026-02-12	16:57:20.090	116.935	349.65	41.615	0.392352	-0.8601	0.45262	0.354	0.801	-0.309	0	864	615	5
2026-02-12	16:57:20.110	142.66	350.98	48.86	0.290848	-0.636596	0.155184	0.396	0.786	-0.3315	0	864	615	5
2026-02-12	16:57:20.130	136.465	336.91	45.22	0.11956	-0.381372	-0.014152	0.447	0.771	-0.348	0	864	615	5
2026-02-12	16:57:20.150	104.475	309.61	37.765	-0.06954	-0.220576	-0.13176	0.501	0.7575	-0.36	0	864	615	5
2026-02-12	16:57:20.170	46.69	259.245	25.865	-0.290604	-0.202032	-0.127612	0.5265	0.75	-0.3645	0	864	615	5
2026-02-12	16:57:20.190	23.24	220.08	18.235	-0.4087	-0.230824	-0.227652	0.5685	0.741	-0.3555	0	864	615	5
2026-02-12	16:57:32.210	-19.215	5.74	-13.65	-0.245952	-1.116544	-0.261568	0.513	0.906	0.2595	0	363	232	3
2026-02-12	16:57:32.230	-22.645	4.2	-11.445	-0.206912	-1.008208	-0.313296	0.51	0.9015	0.2655	0	363	232	3
2026-02-12	16:57:32.250	-17.01	-3.71	-3.92	-0.225456	-0.902312	-0.380884	0.5025	0.903	0.27	0	363	232	3
2026-02-12	16:57:32.270	-6.23	-14.42	1.89	-0.252052	-0.854488	-0.415532	0.5025	0.903	0.2715	0	363	232	3
2026-02-12	16:57:32.290	5.11	-23.73	2.87	-0.282064	-0.846436	-0.421388	0.504	0.9015	0.2685	0	363	232	3
2026-02-12	16:57:32.310	11.515	-29.855	-0.35	-0.289628	-0.854244	-0.404552	0.504	0.903	0.267	0	363	232	3
2026-02-12	16:57:32.330	13.965	-32.515	-6.79	-0.268644	-0.893284	-0.36356	0.5145	0.903	0.2595	0	363	232	3
2026-02-12	16:57:32.350	20.475	-33.215	-12.005	-0.252296	-0.885476	-0.32818	0.522	0.9075	0.255	0	363	232	3
2026-02-12	16:57:32.370	23.135	-29.4	-16.695	-0.225456	-0.889136	-0.321836	0.5145	0.9015	0.2595	0	363	232	3
2026-02-12	16:57:32.390	12.985	-24.185	-18.305	-0.198616	-0.910608	-0.333548	0.5145	0.9045	0.258	0	363	232	3
2026-02-12	16:57:32.410	0.98	-19.53	-17.605	-0.183488	-0.92964	-0.345748	0.513	0.909	0.2565	0	343	240	3
2026-02-12	16:57:32.430	-2.275	-16.345	-14.455	-0.188856	-0.913292	-0.33184	0.5085	0.9105	0.258	0	343	240	3
2026-02-12	16:57:32.450	1.155	-14	-10.395	-0.20374	-0.858392	-0.295484	0.5085	0.9075	0.252	0	343	240	3
2026-02-12	16:57:32.470	5.74	-11.76	-7.665	-0.22814	-0.81374	-0.247416	0.51	0.906	0.2505	0	343	240	3
2026-02-12	16:57:32.490	8.225	-9.345	-6.72	-0.245952	-0.797636	-0.216672	0.5115	0.9105	0.2505	0	343	240	3
2026-02-12	16:57:32.510	4.76	-7.805	-7.315	-0.262056	-0.795196	-0.176168	0.5145	0.909	0.2505	0	343	240	3
2026-02-12	16:57:32.530	-0.07	-6.72	-8.925	-0.272304	-0.827892	-0.176168	0.5115	0.906	0.252	0	343	240	3
2026-02-12	16:57:32.550	-0.805	-5.985	-9.94	-0.276208	-0.836432	-0.186904	0.513	0.909	0.2535	0	343	240	3
2026-02-12	16:57:32.570	0.42	-5.635	-10.57	-0.27816	-0.828868	-0.191052	0.5175	0.909	0.255	0	343	240	3
2026-02-12	16:57:32.590	2.065	-6.51	-11.445	-0.290604	-0.83448	-0.198372	0.507	0.915	0.2505	0	343	240	3
2026-02-12	16:57:32.610	4.27	-7.21	-11.97	-0.297924	-0.85644	-0.198372	0.507	0.915	0.2505	0	317	254	3
2026-02-12	16:57:32.630	4.83	-7.56	-12.18	-0.297436	-0.89426	-0.203984	0.5055	0.9105	0.2475	0	317	254	3
2026-02-12	16:57:32.650	6.755	-8.365	-10.64	-0.29768	-0.93818	-0.221796	0.507	0.915	0.2475	0	317	254	3
2026-02-12	16:57:32.670	9.38	-9.205	-7.49	-0.297924	-0.972828	-0.239608	0.5055	0.9195	0.2505	0	317	254	3
2026-02-12	16:57:32.690	11.76	-9.45	-4.375	-0.301584	-1.03456	-0.250832	0.507	0.912	0.249	0	317	254	3
2026-02-12	16:57:32.710	14.84	-7.91	-2.45	-0.274012	-1.094584	-0.261324	0.51	0.912	0.246	0	317	254	3
2026-02-12	16:57:32.730	18.165	-4.585	-1.68	-0.252784	-1.105076	-0.260104	0.5055	0.9195	0.2445	0	317	254	3
2026-02-12	16:57:32.750	17.5	1.12	-2.415	-0.244488	-1.09922	-0.262788	0.5055	0.921	0.24	0	317	254	3
2026-02-12	16:57:32.770	13.72	7.84	-4.62	-0.250832	-1.097024	-0.268156	0.51	0.9195	0.237	0	317	254	3
2026-02-12	16:57:32.790	8.96	14.77	-8.47	-0.216916	-1.124352	-0.2684	0.513	0.9195	0.2355	0	317	254	3
2026-02-12	16:57:32.810	2.31	21.14	-11.165	-0.175436	-1.156316	-0.28548	0.507	0.9195	0.2355	0	289	258	3
2026-02-12	16:57:32.830	-5.845	25.83	-10.01	-0.11834	-1.16266	-0.29402	0.4995	0.921	0.2445	0	289	258	3
2026-02-12	16:57:32.850	-5.985	26.285	-5.915	-0.067588	-1.122644	-0.259616	0.4995	0.921	0.2415	0	289	258	3
2026-02-12	16:57:32.870	-2.625	23.835	1.82	-0.04636	-0.98088	-0.208376	0.498	0.9255	0.243	0	289	258	3
2026-02-12	16:57:32.890	0.595	19.285	12.32	-0.081008	-0.835456	-0.153476	0.4935	0.924	0.24	0	289	258	3
2026-02-12	16:57:32.910	3.675	15.47	21.56	-0.11956	-0.78568	-0.12566	0.4935	0.918	0.2385	0	289	258	3
2026-02-12	16:57:32.930	7.735	15.26	27.615	-0.164456	-0.809836	-0.131028	0.4965	0.9255	0.24	0	289	258	3
2026-02-12	16:57:32.950	11.235	18.865	29.12	-0.165432	-0.847656	-0.13298	0.495	0.9285	0.2415	0	289	258	3
2026-02-12	16:57:32.970	11.48	25.76	24.15	-0.14884	-0.889868	-0.136152	0.4995	0.9255	0.2415	0	289	258	3
2026-02-12	16:57:32.990	8.05	33.635	17.885	-0.111264	-0.908412	-0.1525	0.5085	0.927	0.2385	0	289	258	3
2026-02-12	16:57:33.010	-0.21	39.795	13.965	-0.097112	-0.91012	-0.172752	0.501	0.921	0.2385	0	264	254	3
2026-02-12	16:57:33.030	-10.535	42.525	12.32	-0.127368	-0.907924	-0.20008	0.4965	0.9225	0.2445	0	264	254	3
2026-02-12	16:57:33.050	-15.33	41.125	11.9	-0.174216	-0.900848	-0.22326	0.501	0.927	0.2385	0	264	254	3
2026-02-12	16:57:33.070	-13.02	36.33	11.55	-0.223016	-0.924272	-0.23302	0.495	0.927	0.24	0	264	254	3
2026-02-12	16:57:33.090	-7.84	32.095	11.06	-0.253272	-0.918904	-0.210572	0.489	0.924	0.243	0	264	254	3
2026-02-12	16:57:33.110	-5.985	28.7	10.29	-0.272304	-0.901824	-0.173484	0.486	0.918	0.2445	0	264	254	3
2026-02-12	16:57:33.130	-7.315	26.6	9.485	-0.290604	-0.879132	-0.144936	0.4815	0.9195	0.2415	0	264	254	3
2026-02-12	16:57:33.150	-8.295	25.235	8.33	-0.302072	-0.854732	-0.11712	0.4845	0.924	0.2445	0	264	254	3
2026-02-12	16:57:33.170	-8.26	24.15	6.405	-0.311344	-0.837896	-0.100528	0.486	0.921	0.249	0	264	254	3
2026-02-12	16:57:33.190	-9.1	22.505	4.655	-0.317932	-0.83448	-0.109068	0.4845	0.921	0.249	0	264	254	3
2026-02-12	16:57:33.210	-8.925	20.02	3.78	-0.321836	-0.856928	-0.125172	0.486	0.9225	0.2475	0	243	240	3
2026-02-12	16:57:33.230	-6.895	16.695	3.36	-0.331108	-0.875228	-0.13908	0.4815	0.912	0.252	0	243	240	3
2026-02-12	16:57:33.250	-3.885	12.81	2.975	-0.331108	-0.914512	-0.151768	0.4815	0.9195	0.252	0	243	240	3
2026-02-12	16:57:33.270	-0.56	8.995	2.695	-0.331596	-0.932568	-0.15372	0.483	0.912	0.252	0	243	240	3
2026-02-12	16:57:33.290	3.22	3.5	3.08	-0.329644	-0.943304	-0.16592	0.4815	0.9105	0.249	0	243	240	3
2026-02-12	16:57:33.310	4.2	0.35	3.605	-0.346236	-0.948184	-0.180072	0.4815	0.915	0.2475	0	243	240	3
2026-02-12	16:57:33.330	6.09	-3.045	4.025	-0.343064	-0.965996	-0.18178	0.4845	0.9195	0.249	0	243	240	3
2026-02-12	16:57:33.350	8.155	-6.02	3.815	-0.346236	-1.00162	-0.203252	0.4845	0.918	0.252	0	243	240	3
2026-02-12	16:57:33.370	8.96	-8.085	2.03	-0.337208	-1.02236	-0.23302	0.4845	0.9195	0.252	0	243	240	3
2026-02-12	16:57:33.390	6.615	-8.54	-2.415	-0.333548	-1.072136	-0.274988	0.486	0.9195	0.2505	0	243	240	3
2026-02-12	16:57:33.410	2.66	-6.58	-9.135	-0.316712	-1.176568	-0.318908	0.4845	0.9165	0.252	0	224	224	3
2026-02-12	16:57:33.430	-3.99	-3.325	-15.96	-0.288164	-1.262212	-0.342332	0.4845	0.9165	0.252	0	224	224	3
2026-02-12	16:57:33.450	-8.19	-1.365	-22.75	-0.284016	-1.2627	-0.344528	0.4875	0.921	0.243	0	224	224	3
2026-02-12	16:57:33.470	-11.83	-1.75	-27.44	-0.234728	-1.206336	-0.324032	0.4755	0.9195	0.252	0	224	224	3
2026-02-12	16:57:33.490	-16.695	-5.6	-28.35	-0.178852	-1.106052	-0.323788	0.477	0.921	0.258	0	224	224	3
2026-02-12	16:57:33.510	-12.845	-17.92	-17.465	-0.172264	-0.977708	-0.349408	0.4815	0.9195	0.2595	0	224	224	3
2026-02-12	16:57:33.530	2.1	-31.64	-4.095	-0.206424	-0.865224	-0.35014	0.474	0.9135	0.255	0	224	224	3
2026-02-12	16:57:33.550	10.71	-40.425	-0.735	-0.24644	-0.807396	-0.345504	0.465	0.9105	0.255	0	224	224	3
2026-02-12	16:57:33.570	16.1	-46.235	-3.605	-0.26108	-0.812276	-0.335744	0.4665	0.912	0.2535	0	224	224	3
2026-02-12	16:57:33.590	18.48	-47.32	-10.85	-0.237656	-0.851316	-0.298656	0.474	0.9165	0.252	0	224	224	3
2026-02-12	16:57:33.610	18.725	-44.66	-18.83	-0.204716	-0.897188	-0.251808	0.4785	0.9195	0.2535	0	210	225	3
2026-02-12	16:57:33.630	13.72	-40.075	-23.905	-0.15616	-0.950868	-0.2562	0.48	0.918	0.252	0	210	225	3
2026-02-12	16:57:33.650	1.68	-35.7	-24.57	-0.121024	-0.997228	-0.313784	0.4845	0.9195	0.243	0	210	225	3
2026-02-12	16:57:33.670	-5.74	-33.145	-22.47	-0.109312	-1.008696	-0.354044	0.483	0.9255	0.2505	0	210	225	3
2026-02-12	16:57:33.690	-3.185	-32.725	-17.43	-0.12078	-0.959652	-0.351848	0.4815	0.921	0.2385	0	210	225	3
2026-02-12	16:57:33.710	3.185	-33.53	-11.48	-0.157136	-0.874496	-0.315492	0.48	0.924	0.252	0	210	225	3
2026-02-12	16:57:33.730	7.21	-34.37	-7.07	-0.183488	-0.811788	-0.257908	0.477	0.918	0.2445	0	210	225	3
2026-02-12	16:57:33.750	8.61	-32.76	-4.375	-0.216428	-0.801296	-0.190076	0.4815	0.924	0.249	0	210	225	3
2026-02-12	16:57:33.770	7.91	-29.505	-4.48	-0.232776	-0.815448	-0.159576	0.486	0.918	0.2505	0	210	225	3
2026-02-12	16:57:33.790	4.935	-25.41	-5.565	-0.244244	-0.83692	-0.14518	0.489	0.918	0.249	0	210	225	3
2026-02-12	16:57:33.810	1.505	-21.175	-7.035	-0.2379	-0.875228	-0.1403	0.492	0.9225	0.246	0	200	237	3
2026-02-12	16:57:33.830	-0.525	-17.22	-7.28	-0.239364	-0.891576	-0.146888	0.492	0.921	0.2475	0	200	237	3
2026-02-12	16:57:33.850	-1.785	-14.595	-6.615	-0.249612	-0.900116	-0.164944	0.489	0.9225	0.249	0	200	237	3
2026-02-12	16:57:33.870	-2.31	-12.74	-5.39	-0.263032	-0.901092	-0.17812	0.492	0.924	0.249	0	200	237	3
2026-02-12	16:57:33.890	-1.61	-12.88	-3.465	-0.27084	-0.904752	-0.183976	0.483	0.921	0.252	0	200	237	3
2026-02-12	16:57:33.910	1.505	-14.035	-0.665	-0.268156	-0.925736	-0.19276	0.4935	0.918	0.2505	0	200	237	3
2026-02-12	16:57:33.930	6.72	-15.19	3.045	-0.278892	-0.972096	-0.202764	0.4995	0.915	0.252	0	200	237	3
2026-02-12	16:57:33.950	12.67	-14.735	5.95	-0.272304	-1.01626	-0.201788	0.495	0.9165	0.2535	0	200	237	3
2026-02-12	16:57:33.970	16.24	-9.87	5.285	-0.249368	-1.03334	-0.204228	0.4995	0.9225	0.2535	0	200	237	3
2026-02-12	16:57:33.990	12.53	-1.505	0.91	-0.227164	-1.022604	-0.204716	0.4995	0.9225	0.249	0	200	237	3
2026-02-12	16:57:34.010	3.92	6.86	-5.075	-0.22204	-1.042124	-0.21472	0.5025	0.9195	0.24	0	191	242	3
2026-02-12	16:57:34.030	-3.255	14.315	-11.83	-0.187148	-1.090436	-0.23668	0.4965	0.9195	0.24	0	191	242	3
2026-02-12	16:57:34.050	-12.215	21.035	-16.835	-0.13298	-1.105564	-0.2623	0.4905	0.9165	0.2445	0	191	242	3
2026-02-12	16:57:34.070	-25.9	25.41	-19.32	-0.060024	-1.104832	-0.261324	0.4905	0.912	0.243	0	191	242	3
2026-02-12	16:57:34.090	-36.225	26.285	-18.445	-0.024888	-1.133868	-0.29768	0.489	0.927	0.2475	0	191	242	3
2026-02-12	16:57:34.110	-36.05	25.34	-14.175	0.023668	-1.110444	-0.304512	0.492	0.9225	0.2535	0	191	242	3
2026-02-12	16:57:34.130	-25.27	21.245	-5.74	0.001464	-1.011624	-0.24888	0.483	0.9195	0.255	0	191	242	3
2026-02-12	16:57:34.150	-1.19	14.42	11.725	-0.07442	-0.852536	-0.147864	0.48	0.9165	0.2595	0	191	242	3
2026-02-12	16:57:34.170	7.7	14.945	20.16	-0.138836	-0.833016	-0.148596	0.477	0.9165	0.2595	0	191	242	3
2026-02-12	16:57:34.190	12.705	20.405	21.42	-0.15494	-0.864492	-0.174948	0.4785	0.915	0.258	0	191	242	3
2026-02-12	16:57:34.210	11.585	29.68	16.345	-0.131516	-0.928664	-0.187636	0.4815	0.9135	0.2625	0	184	239	3
2026-02-12	16:57:34.230	3.36	38.605	10.115	-0.095648	-0.935496	-0.18666	0.4815	0.9165	0.264	0	184	239	3
2026-02-12	16:57:34.250	-8.085	44.415	7.875	-0.102236	-0.93086	-0.174948	0.4785	0.918	0.2595	0	184	239	3
2026-02-12	16:57:34.270	-12.775	46.83	7.735	-0.127124	-0.935008	-0.177388	0.4755	0.915	0.258	0	184	239	3
2026-02-12	16:57:34.290	-12.775	46.585	8.995	-0.179096	-0.946964	-0.216916	0.4665	0.9105	0.261	0	184	239	3
2026-02-12	16:57:34.310	-10.535	43.54	9.59	-0.209352	-0.981368	-0.266204	0.465	0.909	0.2655	0	184	239	3
2026-02-12	16:57:34.330	-8.155	39.725	10.15	-0.210572	-0.986004	-0.266692	0.465	0.912	0.27	0	184	239	3
2026-02-12	16:57:34.350	-6.02	35.455	12.32	-0.23058	-0.965996	-0.220576	0.4665	0.912	0.273	0	184	239	3
2026-02-12	16:57:34.370	-4.06	31.22	14.385	-0.236924	-0.924028	-0.167872	0.462	0.915	0.27	0	184	239	3
2026-02-12	16:57:34.390	-1.89	27.335	15.33	-0.249612	-0.86986	-0.1342	0.4575	0.9165	0.264	0	184	239	3
2026-02-12	16:57:34.410	-0.28	23.87	15.015	-0.255956	-0.83448	-0.129076	0.4575	0.909	0.2685	0	178	233	3
2026-02-12	16:57:34.430	1.19	20.58	13.615	-0.26474	-0.833748	-0.126636	0.459	0.9045	0.273	0	178	233	3
2026-02-12	16:57:34.450	2.065	16.8	11.55	-0.267912	-0.875228	-0.1403	0.4605	0.906	0.2745	0	178	233	3
2026-02-12	16:57:34.470	3.395	13.125	9.555	-0.275232	-0.88816	-0.139568	0.4575	0.9165	0.2715	0	178	233	3
2026-02-12	16:57:34.490	1.89	9.8	8.68	-0.277916	-0.898896	-0.152012	0.4575	0.912	0.2715	0	178	233	3
2026-02-12	16:57:34.510	-0.105	6.51	8.26	-0.274012	-0.915732	-0.155184	0.459	0.906	0.267	0	178	233	3
2026-02-12	16:57:34.530	0.21	4.27	8.96	-0.257664	-0.9211	-0.166408	0.462	0.9075	0.2655	0	178	233	3
2026-02-12	16:57:34.550	0.385	1.68	10.255	-0.292068	-0.916952	-0.193248	0.4635	0.9105	0.2685	0	178	233	3
2026-02-12	16:57:34.570	-0.525	-0.525	8.995	-0.311832	-0.937692	-0.214964	0.4665	0.912	0.2685	0	178	233	3
2026-02-12	16:57:34.590	-1.75	-2.835	5.6	-0.31232	-0.991372	-0.250344	0.468	0.9105	0.2685	0	178	233	3
2026-02-12	16:57:34.610	-4.515	-6.825	-1.365	-0.294996	-1.06628	-0.318908	0.4635	0.9075	0.2685	0	171	224	3
2026-02-12	16:57:34.630	-5.985	-8.54	-8.435	-0.286212	-1.106784	-0.364048	0.4635	0.909	0.27	0	171	224	3
2026-02-12	16:57:34.650	-8.295	-8.96	-17.255	-0.28548	-1.17974	-0.39162	0.468	0.9105	0.273	0	171	224	3
2026-02-12	16:57:34.670	-15.05	-8.365	-25.795	-0.248636	-1.273192	-0.390156	0.471	0.909	0.2715	0	171	224	3
2026-02-12	16:57:34.690	-19.915	-8.925	-30.975	-0.22204	-1.30784	-0.379664	0.4635	0.906	0.273	0	171	224	3
2026-02-12	16:57:34.710	-21.385	-12.25	-30.765	-0.155184	-1.266848	-0.354776	0.459	0.9075	0.2745	0	171	224	3
2026-02-12	16:57:34.730	-16.765	-17.92	-24.675	-0.123708	-1.136796	-0.335988	0.4575	0.9075	0.2775	0	171	224	3
2026-02-12	16:57:34.750	0.35	-26.95	-11.375	-0.155672	-0.952576	-0.298656	0.4545	0.903	0.2805	0	171	224	3
2026-02-12	16:57:34.770	19.005	-38.395	0.595	-0.203496	-0.763232	-0.278648	0.4575	0.903	0.2805	0	171	224	3
2026-02-12	16:57:34.790	17.605	-43.68	0.385	-0.243268	-0.761768	-0.293288	0.459	0.906	0.279	0	171	224	3
2026-02-12	16:57:34.810	15.33	-45.85	-4.445	-0.255956	-0.797392	-0.298412	0.465	0.906	0.282	0	166	228	3
2026-02-12	16:57:34.830	15.89	-45.01	-11.935	-0.244488	-0.845948	-0.274988	0.471	0.9105	0.273	0	166	228	3
2026-02-12	16:57:34.850	16.66	-41.195	-19.495	-0.219844	-0.864004	-0.259372	0.468	0.9165	0.2685	0	166	228	3
2026-02-12	16:57:34.870	10.5	-36.155	-24.01	-0.168848	-0.933544	-0.306464	0.4695	0.915	0.2715	0	166	228	3
2026-02-12	16:57:34.890	-1.12	-31.43	-24.08	-0.11102	-1.015284	-0.368684	0.471	0.9105	0.273	0	166	228	3
2026-02-12	16:57:34.910	-3.745	-29.505	-18.34	-0.111752	-0.99796	-0.413092	0.474	0.9075	0.2685	0	166	228	3
2026-02-12	16:57:34.930	1.855	-29.33	-10.255	-0.13664	-0.902556	-0.36844	0.477	0.906	0.2655	0	166	228	3
2026-02-12	16:57:34.950	5.81	-28.42	-6.335	-0.160308	-0.812276	-0.297192	0.4665	0.918	0.2745	0	166	228	3
2026-02-12	16:57:34.970	4.9	-26.425	-5.215	-0.175192	-0.762744	-0.247416	0.4815	0.912	0.2655	0	166	228	3
2026-02-12	16:57:34.990	-0.56	-23.38	-5.985	-0.19032	-0.765184	-0.208132	0.4785	0.9165	0.2625	0	166	228	3
2026-02-12	16:57:35.010	-4.445	-20.335	-7.56	-0.196176	-0.803492	-0.192028	0.483	0.9105	0.2745	0	164	244	3
2026-02-12	16:57:35.030	-3.57	-17.535	-8.715	-0.197396	-0.842776	-0.182024	0.48	0.915	0.2685	0	164	244	3
2026-02-12	16:57:35.050	0.175	-14.91	-9.205	-0.199836	-0.8662	-0.181292	0.4785	0.9165	0.2685	0	164	244	3
2026-02-12	16:57:35.070	1.085	-12.915	-8.89	-0.192516	-0.883036	-0.183488	0.48	0.9195	0.2745	0	164	244	3
2026-02-12	16:57:35.090	0.07	-11.34	-7.98	-0.207156	-0.894992	-0.203984	0.4785	0.9165	0.2685	0	164	244	3
2026-02-12	16:57:35.110	-0.91	-10.045	-6.125	-0.210572	-0.914024	-0.232288	0.4845	0.915	0.264	0	164	244	3
2026-02-12	16:57:35.130	0.14	-9.835	-4.48	-0.210328	-0.939644	-0.247416	0.483	0.9225	0.2685	0	164	244	3
2026-02-12	16:57:35.150	3.745	-10.43	-1.995	-0.214964	-0.990152	-0.2562	0.4755	0.915	0.2715	0	164	244	3
2026-02-12	16:57:35.170	9.975	-10.325	0.455	-0.216672	-1.038708	-0.259616	0.489	0.9255	0.2715	0	164	244	3
2026-02-12	16:57:35.190	14.56	-8.19	1.015	-0.17934	-1.069452	-0.24278	0.4875	0.915	0.2625	0	164	244	3
2026-02-12	16:57:35.210	15.225	-3.325	-0.91	-0.150792	-1.064816	-0.229116	0.4785	0.921	0.264	0	162	254	3
2026-02-12	16:57:35.230	11.55	3.22	-4.55	-0.121024	-1.056032	-0.222528	0.4815	0.9225	0.255	0	162	254	3
2026-02-12	16:57:35.250	6.405	11.55	-9.45	-0.127368	-1.08702	-0.230336	0.486	0.9225	0.2655	0	162	254	3
2026-02-12	16:57:35.270	-0.35	20.44	-16.59	-0.09882	-1.10166	-0.259372	0.483	0.9225	0.2565	0	162	254	3
2026-02-12	16:57:35.290	-13.16	27.86	-23.485	-0.072712	-1.097512	-0.314272	0.471	0.93	0.2625	0	162	254	3
2026-02-12	16:57:35.310	-33.005	31.675	-28.455	-0.03904	-1.09678	-0.356728	0.474	0.9225	0.2625	0	162	254	3
2026-02-12	16:57:35.330	-45.535	28.84	-27.93	0.013664	-1.132892	-0.367464	0.4695	0.918	0.2655	0	162	254	3
2026-02-12	16:57:35.350	-27.475	20.195	-16.835	0.027084	-1.071648	-0.287432	0.4695	0.918	0.2655	0	162	254	3
2026-02-12	16:57:35.370	-0.875	13.16	-1.68	-0.010248	-0.935008	-0.181048	0.4485	0.906	0.2745	0	162	254	3
2026-02-12	16:57:35.390	14	11.2	11.2	-0.082228	-0.843752	-0.143472	0.444	0.921	0.282	0	162	254	3
2026-02-12	16:57:35.410	17.08	15.505	18.9	-0.090524	-0.83448	-0.15738	0.4515	0.9195	0.2745	0	160	258	3
2026-02-12	16:57:35.430	11.62	24.535	20.65	-0.075396	-0.87474	-0.210572	0.456	0.9195	0.279	0	160	258	3
2026-02-12	16:57:35.450	3.99	35	19.425	-0.052704	-0.902068	-0.270108	0.4485	0.915	0.2745	0	160	258	3
2026-02-12	16:57:35.470	-2.485	43.05	18.305	-0.041236	-0.908412	-0.305488	0.45	0.9195	0.2655	0	160	258	3
2026-02-12	16:57:35.490	-6.09	46.9	18.095	-0.048312	-0.881816	-0.310612	0.453	0.9225	0.2715	0	160	258	3
2026-02-12	16:57:35.510	-8.855	46.83	18.725	-0.08052	-0.866932	-0.298656	0.438	0.9135	0.2715	0	160	258	3
2026-02-12	16:57:35.530	-10.535	44.485	18.865	-0.12566	-0.87596	-0.289628	0.4455	0.924	0.264	0	160	258	3
2026-02-12	16:57:35.550	-10.255	40.18	18.2	-0.185196	-0.910364	-0.287432	0.4455	0.924	0.264	0	160	258	3
2026-02-12	16:57:35.570	-8.26	35.42	15.47	-0.225212	-0.938668	-0.254248	0.4455	0.924	0.264	0	160	258	3
2026-02-12	16:57:35.590	-7.035	31.57	13.44	-0.250344	-0.951356	-0.218624	0.447	0.9225	0.27	0	160	258	3
2026-02-12	16:57:35.610	-5.81	27.125	12.285	-0.256444	-0.941352	-0.18056	0.441	0.921	0.273	0	158	258	3
2026-02-12	16:57:35.630	-6.545	22.295	11.235	-0.256932	-0.928664	-0.14762	0.4335	0.9195	0.273	0	158	258	3
2026-02-12	16:57:35.650	-5.39	17.36	9.94	-0.259372	-0.894016	-0.13786	0.4425	0.921	0.282	0	158	258	3
2026-02-12	16:57:35.670	-3.43	12.39	8.715	-0.256444	-0.887672	-0.15128	0.4365	0.921	0.2685	0	158	258	3
2026-02-12	16:57:35.690	1.505	7.665	7.805	-0.251808	-0.887184	-0.171532	0.438	0.915	0.2775	0	158	258	3
2026-02-12	16:57:35.710	5.46	3.605	7.105	-0.246684	-0.886452	-0.182268	0.435	0.9225	0.27	0	158	258	3
2026-02-12	16:57:35.730	7.385	-0.07	7.175	-0.247416	-0.904752	-0.20008	0.4395	0.9285	0.2685	0	158	258	3
2026-02-12	16:57:35.750	9.415	-3.08	8.435	-0.249368	-0.92232	-0.195932	0.4245	0.9285	0.2685	0	158	258	3
2026-02-12	16:57:35.770	10.885	-5.81	10.745	-0.24522	-0.94306	-0.1891	0.4305	0.927	0.27	0	158	258	3
2026-02-12	16:57:35.790	12.81	-8.785	14.56	-0.270108	-0.96868	-0.19398	0.4365	0.9255	0.2715	0	158	258	3
2026-02-12	16:57:35.810	12.775	-9.52	15.61	-0.282064	-0.981368	-0.217648	0.441	0.93	0.273	0	156	253	3
2026-02-12	16:57:35.830	11.9	-9.765	14.63	-0.280112	-1.003816	-0.249124	0.4395	0.9285	0.273	0	156	253	3
2026-02-12	16:57:35.850	11.515	-9.975	11.655	-0.283772	-1.032364	-0.27938	0.4395	0.927	0.27	0	156	253	3
2026-02-12	16:57:35.870	7.77	-9.87	5.67	-0.275964	-1.058472	-0.321104	0.4485	0.933	0.267	0	156	253	3
2026-02-12	16:57:35.890	-1.365	-9.065	-2.275	-0.254004	-1.158024	-0.381128	0.456	0.9375	0.2715	0	156	253	3
2026-02-12	16:57:35.910	-11.34	-7.525	-9.835	-0.227652	-1.2322	-0.409676	0.456	0.9345	0.264	0	156	253	3
2026-02-12	16:57:35.930	-20.335	-6.895	-17.15	-0.221308	-1.226832	-0.410896	0.456	0.936	0.2715	0	156	253	3
2026-02-12	16:57:35.950	-27.685	-9.835	-21.49	-0.194224	-1.186572	-0.395768	0.447	0.9345	0.2745	0	156	253	3
2026-02-12	16:57:35.970	-35.84	-15.715	-21.98	-0.137372	-1.104588	-0.385276	0.441	0.9315	0.2685	0	156	253	3
2026-02-12	16:57:35.990	-30.275	-26.39	-13.44	-0.141276	-1.049932	-0.363316	0.444	0.9315	0.273	0	156	253	3
2026-02-12	16:57:36.010	-5.285	-40.74	-1.47	-0.171776	-0.890112	-0.3355	0.4485	0.9315	0.2775	0	154	253	3
2026-02-12	16:57:36.030	4.235	-46.76	-0.175	-0.19276	-0.822768	-0.315492	0.4485	0.9315	0.2775	0	154	253	3
2026-02-12	16:57:36.050	6.02	-50.995	-4.095	-0.188856	-0.77348	-0.314272	0.456	0.915	0.285	0	154	253	3
2026-02-12	16:57:36.070	2.17	-51.065	-9.835	-0.188368	-0.803736	-0.30622	0.456	0.912	0.2835	0	154	253	3
2026-02-12	16:57:36.090	-0.245	-47.635	-16.59	-0.164456	-0.859124	-0.301096	0.465	0.9255	0.2865	0	154	253	3
2026-02-12	16:57:36.110	1.82	-42.245	-22.505	-0.160308	-0.899384	-0.301096	0.459	0.9225	0.285	0	154	253	3
2026-02-12	16:57:36.130	1.435	-36.05	-25.2	-0.144692	-0.903288	-0.318664	0.459	0.9285	0.279	0	154	253	3
2026-02-12	16:57:36.150	-3.43	-31.675	-25.445	-0.156404	-0.894748	-0.343796	0.462	0.9255	0.2865	0	154	253	3
2026-02-12	16:57:36.170	-6.545	-30.24	-24.43	-0.165432	-0.88572	-0.340868	0.4605	0.93	0.2835	0	154	253	3
2026-02-12	16:57:36.190	-6.755	-31.255	-21.91	-0.183976	-0.887184	-0.32086	0.4605	0.9255	0.282	0	154	253	3
2026-02-12	16:57:36.210	-3.08	-33.285	-17.885	-0.1952	-0.884988	-0.293044	0.4545	0.9225	0.2835	0	152	266	3
2026-02-12	16:57:36.230	3.29	-34.335	-13.09	-0.200812	-0.864248	-0.255224	0.45	0.924	0.2865	0	152	266	3
2026-02-12	16:57:36.250	7.77	-32.865	-10.36	-0.212524	-0.85034	-0.229604	0.45	0.924	0.2865	0	152	266	3
2026-02-12	16:57:36.270	8.4	-30.45	-9.415	-0.210816	-0.831796	-0.222284	0.4665	0.93	0.285	0	152	266	3
2026-02-12	16:57:36.290	7.49	-27.65	-9.345	-0.207156	-0.83204	-0.22692	0.4575	0.9225	0.2865	0	152	266	3
2026-02-12	16:57:36.310	6.72	-24.29	-9.94	-0.204472	-0.839116	-0.232288	0.471	0.9315	0.2895	0	152	266	3
2026-02-12	16:57:36.330	5.495	-20.475	-11.06	-0.206424	-0.829112	-0.248636	0.4725	0.936	0.2775	0	152	266	3
2026-02-12	16:57:36.350	3.325	-17.43	-13.02	-0.199592	-0.82838	-0.278404	0.4695	0.9345	0.288	0	152	266	3
2026-02-12	16:57:36.370	1.47	-15.75	-15.225	-0.191784	-0.843752	-0.293044	0.462	0.9315	0.2865	0	152	266	3
2026-02-12	16:57:36.390	2.135	-15.715	-16.765	-0.175192	-0.892308	-0.30988	0.4665	0.9285	0.2865	0	152	266	3
2026-02-12	16:57:36.410	6.3	-16.065	-17.43	-0.174704	-0.975024	-0.332328	0.465	0.9255	0.285	0	150	277	3
2026-02-12	16:57:36.430	13.545	-14.455	-18.13	-0.141276	-1.074576	-0.321592	0.462	0.9255	0.285	0	150	277	3
2026-02-12	16:57:36.450	20.23	-6.79	-15.225	-0.08906	-1.134356	-0.294264	0.4605	0.933	0.291	0	150	277	3
2026-02-12	16:57:36.470	15.995	3.99	-11.375	-0.09394	-1.1346	-0.296216	0.462	0.939	0.294	0	150	277	3
2026-02-12	16:57:36.490	6.3	14.91	-11.55	-0.079788	-1.152168	-0.326472	0.4575	0.933	0.27	0	150	277	3
2026-02-12	16:57:36.510	-3.99	25.235	-13.685	-0.054168	-1.143872	-0.336476	0.4515	0.933	0.279	0	150	277	3
2026-02-12	16:57:36.530	-13.16	30.59	-14.945	-0.011468	-1.129964	-0.353556	0.447	0.9285	0.276	0	150	277	3
2026-02-12	16:57:36.550	-18.025	30.695	-12.145	0.022692	-1.13216	-0.337452	0.444	0.9345	0.2835	0	150	277	3
2026-02-12	16:57:36.570	-15.68	27.09	-5.04	0.046604	-1.095804	-0.290604	0.4425	0.936	0.2865	0	150	277	3
2026-02-12	16:57:36.590	-8.015	21.735	5.74	0.051728	-0.995276	-0.215208	0.441	0.9285	0.2835	0	150	277	3
2026-02-12	16:57:36.610	1.82	16.555	17.115	0.027084	-0.879132	-0.149084	0.4365	0.9285	0.285	0	148	283	3
2026-02-12	16:57:36.630	9.38	13.895	24.5	-0.012444	-0.79788	-0.109312	0.432	0.933	0.285	0	148	283	3
2026-02-12	16:57:36.650	9.1	15.855	25.41	-0.022204	-0.842776	-0.12444	0.4335	0.936	0.279	0	148	283	3
2026-02-12	16:57:36.670	3.955	22.96	21.49	-0.00122	-0.917928	-0.166164	0.438	0.936	0.279	0	148	283	3
2026-02-12	16:57:36.690	-8.96	38.325	14.455	0.016836	-0.965752	-0.221064	0.441	0.9375	0.2835	0	148	283	3
2026-02-12	16:57:36.710	-15.12	44.94	12.845	0.001464	-0.963556	-0.22814	0.441	0.9225	0.2865	0	148	283	3
2026-02-12	16:57:36.730	-16.485	46.935	13.895	-0.041968	-0.934032	-0.240584	0.4305	0.9285	0.285	0	148	283	3
2026-02-12	16:57:36.750	-16.24	44.66	15.47	-0.082716	-0.913048	-0.249612	0.4305	0.93	0.285	0	148	283	3
2026-02-12	16:57:36.770	-14.7	40.6	16.625	-0.127856	-0.948672	-0.267912	0.4245	0.9285	0.2865	0	148	283	3
2026-02-12	16:57:36.790	-9.205	36.995	16.975	-0.163236	-0.971608	-0.24766	0.4215	0.93	0.282	0	148	283	3
2026-02-12	16:57:36.810	-4.9	34.475	17.255	-0.183244	-0.960628	-0.205692	0.4305	0.936	0.2865	0	148	279	3
2026-02-12	16:57:36.830	-3.71	33.145	17.36	-0.200324	-0.943548	-0.168848	0.429	0.9345	0.2865	0	148	279	3
2026-02-12	16:57:36.850	-3.99	32.235	17.255	-0.216916	-0.915244	-0.150304	0.426	0.9315	0.285	0	148	279	3
2026-02-12	16:57:36.870	-3.535	31.115	16.835	-0.220332	-0.899628	-0.149816	0.429	0.9315	0.285	0	148	279	3
2026-02-12	16:57:36.890	-1.365	28.735	16.1	-0.217404	-0.887916	-0.157624	0.4245	0.9315	0.288	0	148	279	3
2026-02-12	16:57:36.910	0.84	24.395	15.05	-0.228628	-0.899384	-0.1769	0.4155	0.93	0.288	0	148	279	3
2026-02-12	16:57:36.930	4.725	19.25	13.825	-0.2318	-0.916464	-0.171044	0.4155	0.93	0.288	0	148	279	3
2026-02-12	16:57:36.950	8.505	15.435	13.72	-0.23546	-0.929152	-0.166652	0.426	0.93	0.2775	0	148	279	3
2026-02-12	16:57:36.970	10.71	12.25	14.77	-0.243756	-0.93696	-0.16348	0.423	0.9285	0.2835	0	148	279	3
2026-02-12	16:57:36.990	11.2	9.8	16.31	-0.239364	-0.958188	-0.165432	0.4215	0.939	0.276	0	148	279	3
2026-02-12	16:57:37.010	11.095	7.84	18.69	-0.24522	-0.945744	-0.166408	0.423	0.942	0.276	0	146	265	3
2026-02-12	16:57:37.030	10.64	5.775	20.335	-0.25254	-0.931104	-0.185196	0.4245	0.9315	0.267	0	146	265	3
2026-02-12	16:57:37.050	10.465	4.095	20.475	-0.261568	-0.940132	-0.1952	0.4245	0.933	0.27	0	146	265	3
2026-02-12	16:57:37.070	12.775	2.8	18.2	-0.2562	-0.934276	-0.216672	0.4305	0.939	0.273	0	146	265	3
2026-02-12	16:57:37.090	12.565	2.485	14.14	-0.246928	-0.930616	-0.238388	0.4335	0.9405	0.2715	0	146	265	3
2026-02-12	16:57:37.110	8.155	3.395	6.72	-0.217404	-0.983076	-0.262056	0.4365	0.9405	0.2685	0	146	265	3
2026-02-12	16:57:37.130	-0.735	6.965	-2.73	-0.228384	-1.081652	-0.326472	0.438	0.945	0.27	0	146	265	3
2026-02-12	16:57:37.150	-12.565	10.675	-12.25	-0.243512	-1.208532	-0.350384	0.4335	0.948	0.273	0	146	265	3
2026-02-12	16:57:37.170	-18.27	12.25	-18.795	-0.235216	-1.244156	-0.346724	0.432	0.942	0.2655	0	146	265	3
2026-02-12	16:57:37.190	-20.16	10.185	-21.595	-0.18056	-1.221952	-0.33672	0.4275	0.9435	0.2715	0	146	265	3
2026-02-12	16:57:37.210	-20.16	4.235	-19.39	-0.130784	-1.1529	-0.3355	0.4185	0.93	0.267	0	145	252	3
2026-02-12	16:57:37.230	-12.04	-5.635	-8.89	-0.12444	-1.0797	-0.336232	0.42	0.9405	0.2745	0	145	252	3
2026-02-12	16:57:37.250	6.335	-15.645	2.135	-0.144448	-0.929396	-0.326472	0.414	0.9345	0.276	0	145	252	3
2026-02-12	16:57:37.270	16.205	-22.82	5.985	-0.16836	-0.830576	-0.316712	0.411	0.93	0.276	0	145	252	3
2026-02-12	16:57:37.290	16.275	-27.3	2.835	-0.183732	-0.838872	-0.316468	0.42	0.93	0.27	0	145	252	3
2026-02-12	16:57:37.310	17.815	-28.735	-3.045	-0.17202	-0.865956	-0.312808	0.4275	0.9315	0.2685	0	145	252	3
2026-02-12	16:57:37.330	17.185	-26.53	-10.115	-0.148108	-0.87718	-0.28914	0.4275	0.9345	0.2715	0	145	252	3
2026-02-12	16:57:37.350	9.835	-23.1	-14.805	-0.1098	-0.93452	-0.291336	0.4245	0.9375	0.27	0	145	252	3
2026-02-12	16:57:37.370	2.03	-17.675	-15.645	-0.100528	-0.97844	-0.3538	0.4275	0.9405	0.27	0	145	252	3
2026-02-12	16:57:37.390	0.42	-16.065	-13.37	-0.126148	-0.968192	-0.361608	0.432	0.9435	0.27	0	145	252	3
2026-02-12	16:57:37.410	1.015	-16.415	-10.535	-0.140056	-0.931836	-0.339404	0.4275	0.9285	0.27	0	145	255	3
2026-02-12	16:57:37.430	2.835	-16.66	-7.21	-0.168116	-0.888648	-0.287188	0.4335	0.936	0.2745	0	145	255	3
2026-02-12	16:57:37.450	5.145	-15.96	-5.005	-0.183244	-0.853268	-0.234972	0.426	0.9315	0.267	0	145	255	3
2026-02-12	16:57:37.470	8.085	-14.14	-3.64	-0.193736	-0.8479	-0.19398	0.426	0.93	0.2685	0	145	255	3
2026-02-12	16:57:37.490	11.305	-11.48	-3.185	-0.194956	-0.850584	-0.164456	0.429	0.9315	0.27	0	145	255	3
2026-02-12	16:57:37.510	12.88	-8.75	-3.115	-0.203496	-0.847168	-0.163236	0.4335	0.9345	0.2655	0	145	255	3
2026-02-12	16:57:37.530	10.675	-7.385	-3.29	-0.210572	-0.844484	-0.16714	0.4335	0.933	0.261	0	145	255	3
2026-02-12	16:57:37.550	7.28	-6.79	-4.095	-0.226432	-0.857904	-0.173484	0.4305	0.9315	0.2595	0	145	255	3
2026-02-12	16:57:37.570	5.215	-6.335	-5.18	-0.234972	-0.870592	-0.185196	0.429	0.9345	0.2565	0	145	255	3
2026-02-12	16:57:37.590	2.345	-5.495	-6.755	-0.24644	-0.898408	-0.192516	0.432	0.9375	0.252	0	145	255	3
2026-02-12	16:57:37.610	1.645	-5.775	-6.755	-0.251076	-0.931836	-0.209108	0.432	0.9375	0.252	0	144	260	3
2026-02-12	16:57:37.630	3.78	-7.28	-4.62	-0.246196	-0.956968	-0.223748	0.4275	0.936	0.261	0	144	260	3
2026-02-12	16:57:37.650	7.63	-9.52	-1.645	-0.251076	-0.993812	-0.243024	0.432	0.9375	0.2565	0	144	260	3
2026-02-12	16:57:37.670	13.16	-11.13	1.54	-0.245464	-1.042368	-0.262788	0.4305	0.93	0.261	0	144	260	3
2026-02-12	16:57:37.690	17.08	-9.485	1.96	-0.217404	-1.0614	-0.264252	0.429	0.933	0.258	0	144	260	3
2026-02-12	16:57:37.710	17.5	-5.04	0.14	-0.189344	-1.045784	-0.258396	0.4275	0.936	0.2535	0	144	260	3
2026-02-12	16:57:37.730	13.16	1.19	-4.06	-0.198616	-1.038464	-0.267668	0.429	0.939	0.2505	0	144	260	3
2026-02-12	16:57:37.750	6.23	8.645	-11.27	-0.16104	-1.094096	-0.264984	0.4275	0.942	0.249	0	144	260	3
2026-02-12	16:57:37.770	-1.26	16.485	-17.675	-0.11468	-1.143872	-0.29768	0.426	0.936	0.2535	0	144	260	3
2026-02-12	16:57:37.790	-11.2	21.35	-20.51	-0.044896	-1.232688	-0.344772	0.4245	0.933	0.2535	0	144	260	3
2026-02-12	16:57:37.810	-14.175	22.505	-17.29	-0.00488	-1.191696	-0.331108	0.4245	0.9345	0.252	0	142	260	3
2026-02-12	16:57:37.830	-9.205	18.165	-7.035	0.014884	-1.061888	-0.2562	0.426	0.9345	0.255	0	142	260	3
2026-02-12	16:57:37.850	-1.225	12.705	3.99	-0.017324	-0.913292	-0.16714	0.402	0.9345	0.2535	0	142	260	3
2026-02-12	16:57:37.870	7.28	7.35	12.845	-0.063196	-0.812276	-0.101992	0.417	0.9345	0.2625	0	142	260	3
2026-02-12	16:57:37.890	14.56	5.565	17.85	-0.08906	-0.801296	-0.089792	0.417	0.9345	0.264	0	142	260	3
2026-02-12	16:57:37.910	18.375	8.715	19.565	-0.07515199	-0.836432	-0.08662	0.417	0.9345	0.2595	0	142	260	3
2026-02-12	16:57:37.930	15.05	16.17	17.15	-0.030988	-0.858392	-0.0976	0.417	0.9345	0.2505	0	142	260	3
2026-02-12	16:57:37.950	3.745	25.305	12.39	-0.002684	-0.902312	-0.1525	0.42	0.9375	0.2505	0	142	260	3
2026-02-12	16:57:37.970	-10.64	33.46	9.625	0.015128	-0.931348	-0.205936	0.42	0.939	0.252	0	142	260	3
2026-02-12	16:57:37.990	-22.295	38.5	8.925	-0.019276	-0.948184	-0.2501	0.417	0.936	0.249	0	142	260	3
2026-02-12	16:57:38.010	-19.775	37.555	11.06	-0.059292	-0.945012	-0.2562	0.414	0.936	0.2445	0	142	253	3
2026-02-12	16:57:38.030	-15.575	34.895	12.46	-0.108092	-0.9333	-0.237412	0.4095	0.93	0.246	0	142	253	3
2026-02-12	16:57:38.050	-10.78	29.435	14.49	-0.1525	-0.923052	-0.190564	0.405	0.924	0.249	0	142	253	3
2026-02-12	16:57:38.070	-10.255	27.16	14	-0.195932	-0.914268	-0.160796	0.411	0.93	0.2565	0	142	253	3
2026-02-12	16:57:38.090	-10.185	25.97	11.865	-0.215452	-0.907436	-0.129808	0.414	0.93	0.2535	0	142	253	3
2026-02-12	16:57:38.110	-10.535	25.515	9.66	-0.238388	-0.887916	-0.094428	0.4095	0.93	0.2505	0	142	253	3
2026-02-12	16:57:38.130	-9.45	24.29	7.035	-0.242048	-0.875716	-0.086376	0.414	0.93	0.2505	0	142	253	3
2026-02-12	16:57:38.150	-10.01	21.49	4.725	-0.248636	-0.875716	-0.105652	0.411	0.93	0.2505	0	142	253	3
2026-02-12	16:57:38.170	-9.73	18.375	3.885	-0.265716	-0.915488	-0.11712	0.4065	0.93	0.2505	0	142	253	3
2026-02-12	16:57:38.190	-6.125	14.315	3.605	-0.260592	-0.933056	-0.137616	0.408	0.927	0.252	0	142	253	3
2026-02-12	16:57:38.210	-1.645	9.94	4.55	-0.266204	-0.95648	-0.150792	0.402	0.927	0.2565	0	142	238	3
2026-02-12	16:57:38.230	3.08	5.11	6.44	-0.260836	-0.957456	-0.159576	0.4035	0.9315	0.2535	0	142	238	3
2026-02-12	16:57:38.250	6.86	-0.84	8.015	-0.26108	-0.937448	-0.156648	0.405	0.9285	0.2535	0	142	238	3
2026-02-12	16:57:38.270	9.52	-9.065	9.905	-0.273036	-0.985516	-0.168604	0.405	0.9225	0.258	0	142	238	3
2026-02-12	16:57:38.290	9.765	-12.775	9.345	-0.274256	-1.004304	-0.199348	0.405	0.9225	0.258	0	142	238	3
2026-02-12	16:57:38.310	9.94	-16.59	6.615	-0.285236	-1.024312	-0.23668	0.417	0.927	0.2475	0	142	238	3
2026-02-12	16:57:38.330	8.365	-20.405	3.29	-0.289628	-1.057008	-0.264008	0.417	0.927	0.2445	0	142	238	3
2026-02-12	16:57:38.350	7.175	-23.345	-1.505	-0.313784	-1.110688	-0.29646	0.4185	0.933	0.243	0	142	238	3
2026-02-12	16:57:38.370	8.96	-23.345	-9.695	-0.26596	-1.206336	-0.334768	0.423	0.936	0.246	0	142	238	3
2026-02-12	16:57:38.390	7.14	-19.005	-18.13	-0.183976	-1.296616	-0.371124	0.4245	0.93	0.243	0	142	238	3
2026-02-12	16:57:38.410	-1.12	-14.875	-24.22	-0.1159	-1.308328	-0.392108	0.423	0.9285	0.2415	0	142	225	3
2026-02-12	16:57:38.430	-8.68	-14.245	-24.045	-0.064904	-1.222684	-0.376248	0.417	0.93	0.2445	0	142	225	3
2026-02-12	16:57:38.450	-11.095	-18.095	-17.43	-0.071492	-1.040416	-0.348432	0.414	0.93	0.243	0	142	225	3
2026-02-12	16:57:38.470	-7.91	-25.095	-9.065	-0.10614	-0.884988	-0.323544	0.4185	0.9285	0.243	0	142	225	3
2026-02-12	16:57:38.490	4.655	-32.69	-0.42	-0.156892	-0.82838	-0.293044	0.423	0.927	0.243	0	142	225	3
2026-02-12	16:57:38.510	18.27	-36.435	1.785	-0.199104	-0.784216	-0.256688	0.423	0.927	0.243	0	142	225	3
2026-02-12	16:57:38.530	18.375	-36.995	-2.66	-0.190808	-0.817888	-0.239852	0.42	0.93	0.2415	0	142	225	3
2026-02-12	16:57:38.550	10.955	-34.685	-9.24	-0.180316	-0.842288	-0.2257	0.42	0.933	0.24	0	142	225	3
2026-02-12	16:57:38.570	1.225	-30.835	-15.75	-0.163724	-0.893772	-0.240584	0.423	0.9315	0.2415	0	142	225	3
2026-02-12	16:57:38.590	-5.32	-25.97	-19.18	-0.1342	-0.998204	-0.293776	0.426	0.933	0.24	0	142	225	3
2026-02-12	16:57:38.610	-7.595	-21.595	-18.865	-0.110532	-1.053104	-0.351116	0.426	0.936	0.2355	0	144	229	3
2026-02-12	16:57:38.630	-5.11	-20.265	-16.03	-0.091744	-1.030168	-0.365268	0.423	0.933	0.237	0	144	229	3
2026-02-12	16:57:38.650	-2.38	-21.385	-12.425	-0.108336	-0.96624	-0.3355	0.4215	0.9315	0.2385	0	144	229	3
2026-02-12	16:57:38.670	3.675	-23.45	-9.24	-0.130052	-0.905972	-0.274256	0.423	0.93	0.246	0	144	229	3
2026-02-12	16:57:38.690	11.305	-24.675	-7.525	-0.139812	-0.86986	-0.208864	0.4215	0.9255	0.2475	0	144	229	3
2026-02-12	16:57:38.710	14.14	-23.835	-7.42	-0.163724	-0.833016	-0.154696	0.423	0.9255	0.246	0	144	229	3
2026-02-12	16:57:38.730	9.31	-22.54	-8.47	-0.187148	-0.831064	-0.139812	0.4275	0.9315	0.243	0	144	229	3
2026-02-12	16:57:38.750	4.55	-21.07	-9.87	-0.204228	-0.852536	-0.143716	0.423	0.933	0.237	0	144	229	3
2026-02-12	16:57:38.770	3.15	-19.67	-10.535	-0.208376	-0.880352	-0.159088	0.4185	0.9315	0.2355	0	144	229	3
2026-02-12	16:57:38.790	5.355	-18.06	-10.64	-0.220576	-0.860832	-0.17202	0.42	0.93	0.2355	0	144	229	3
2026-02-12	16:57:38.810	4.445	-16.45	-10.465	-0.232044	-0.863516	-0.188856	0.4245	0.93	0.2355	0	146	238	3
2026-02-12	16:57:38.830	2.8	-15.12	-10.815	-0.229116	-0.863516	-0.19398	0.4245	0.9345	0.2355	0	146	238	3
2026-02-12	16:57:38.850	1.435	-14.665	-10.01	-0.228872	-0.892796	-0.202764	0.4215	0.9345	0.2355	0	146	238	3
2026-02-12	16:57:38.870	1.96	-15.225	-6.755	-0.225456	-0.955992	-0.215208	0.426	0.9285	0.2385	0	146	238	3
2026-02-12	16:57:38.890	6.965	-14.91	-2.03	-0.235216	-1.024312	-0.218136	0.429	0.93	0.237	0	146	238	3
2026-02-12	16:57:38.910	11.41	-12.845	1.995	-0.205936	-1.054812	-0.218624	0.429	0.9315	0.234	0	146	238	3
2026-02-12	16:57:38.930	10.64	-8.68	4.795	-0.184952	-1.073844	-0.222284	0.4305	0.927	0.2325	0	146	238	3
2026-02-12	16:57:38.950	5.845	-1.155	5.845	-0.172752	-1.083116	-0.253516	0.432	0.933	0.231	0	146	238	3
2026-02-12	16:57:38.970	2.66	4.095	2.03	-0.169092	-1.091412	-0.269132	0.432	0.936	0.2265	0	146	238	3
2026-02-12	16:57:38.990	0.56	10.115	-6.895	-0.131272	-1.088972	-0.257176	0.432	0.933	0.2295	0	146	238	3
2026-02-12	16:57:39.010	-6.545	14.49	-14.56	-0.07442	-1.107516	-0.267668	0.423	0.9345	0.231	0	148	240	3
2026-02-12	16:57:39.030	-16.905	15.225	-17.465	-0.030744	-1.188768	-0.286212	0.417	0.9315	0.2265	0	148	240	3
2026-02-12	16:57:39.050	-16.73	13.09	-15.19	0.010492	-1.199992	-0.278404	0.4185	0.9315	0.2325	0	148	240	3
2026-02-12	16:57:39.070	-6.195	7.56	-7.385	0.038308	-1.121424	-0.22326	0.411	0.9345	0.24	0	148	240	3
2026-02-12	16:57:39.090	7.63	0	5.32	0.010492	-0.965752	-0.14762	0.408	0.93	0.2355	0	148	240	3
2026-02-12	16:57:39.110	18.935	-5.145	15.995	-0.037576	-0.840336	-0.097844	0.4095	0.9255	0.228	0	148	240	3
2026-02-12	16:57:39.130	22.4	-4.83	22.47	-0.082716	-0.823988	-0.07808	0.411	0.93	0.228	0	148	240	3
2026-02-12	16:57:39.150	21.035	0.595	23.415	-0.104188	-0.844484	-0.072468	0.4155	0.9345	0.2235	0	148	240	3
2026-02-12	16:57:39.170	10.395	13.965	18.41	-0.06466	-0.87962	-0.087108	0.417	0.9345	0.219	0	148	240	3
2026-02-12	16:57:39.190	-3.185	23.625	12.6	-0.042944	-0.920612	-0.12444	0.417	0.933	0.2175	0	148	240	3
2026-02-12	16:57:39.210	-11.97	30.555	9.835	-0.038308	-0.93818	-0.13542	0.4245	0.936	0.219	0	148	235	3
2026-02-12	16:57:39.230	-15.19	34.965	8.995	-0.061732	-0.936228	-0.155672	0.426	0.939	0.219	0	148	235	3
2026-02-12	16:57:39.250	-15.54	35.84	8.785	-0.096136	-0.938912	-0.179828	0.417	0.9375	0.2175	0	148	235	3
2026-02-12	16:57:39.270	-16.905	34.195	8.12	-0.130784	-0.932812	-0.195688	0.4155	0.936	0.222	0	148	235	3
2026-02-12	16:57:39.290	-20.475	31.115	7.63	-0.158112	-0.948672	-0.190808	0.414	0.933	0.225	0	148	235	3
2026-02-12	16:57:39.310	-20.58	27.93	7.56	-0.195444	-0.951112	-0.172752	0.411	0.933	0.225	0	148	235	3
2026-02-12	16:57:39.330	-16.87	25.41	7.245	-0.224236	-0.948428	-0.14152	0.4125	0.933	0.2265	0	148	235	3
2026-02-12	16:57:39.350	-12.285	23.17	6.685	-0.249124	-0.912804	-0.099064	0.414	0.9285	0.225	0	148	235	3
2026-02-12	16:57:39.370	-10.465	20.965	5.005	-0.259616	-0.890844	-0.077104	0.411	0.9255	0.2235	0	148	235	3
2026-02-12	16:57:39.390	-9.66	17.115	3.395	-0.24888	-0.90036	-0.080032	0.408	0.9225	0.2265	0	148	235	3
2026-02-12	16:57:39.410	-7.35	13.055	2.94	-0.256688	-0.910608	-0.112972	0.408	0.924	0.225	0	149	220	3
2026-02-12	16:57:39.430	-2.835	10.08	2.59	-0.254736	-0.917196	-0.118584	0.408	0.927	0.225	0	149	220	3
2026-02-12	16:57:39.450	-0.14	7.63	2.8	-0.26352	-0.937448	-0.119804	0.4095	0.93	0.2265	0	149	220	3
2026-02-12	16:57:39.470	0.28	5.53	3.535	-0.260836	-0.959408	-0.12932	0.4095	0.93	0.2295	0	149	220	3
2026-02-12	16:57:39.490	0.7	3.71	5.285	-0.255224	-0.970876	-0.144448	0.4065	0.927	0.228	0	149	220	3
2026-02-12	16:57:39.510	1.54	1.715	8.33	-0.261568	-0.993812	-0.162504	0.408	0.9255	0.2265	0	149	220	3
2026-02-12	16:57:39.530	3.325	-0.07	11.13	-0.264252	-0.999668	-0.18666	0.408	0.9285	0.2295	0	149	220	3
2026-02-12	16:57:39.550	4.095	-1.295	12.915	-0.254248	-0.999424	-0.194468	0.4095	0.9285	0.2295	0	149	220	3
2026-02-12	16:57:39.570	3.5	-2.03	13.475	-0.238388	-1.019188	-0.210328	0.4125	0.927	0.2295	0	149	220	3
2026-02-12	16:57:39.590	2.695	-2.485	13.335	-0.245952	-1.053348	-0.244488	0.4095	0.924	0.2325	0	149	220	3
2026-02-12	16:57:39.610	1.085	-2.065	8.995	-0.259372	-1.095316	-0.289872	0.4065	0.9195	0.2325	0	148	203	3
2026-02-12	16:57:39.630	-0.77	2.065	-3.43	-0.198616	-1.214876	-0.300364	0.4065	0.9195	0.2325	0	148	203	3
2026-02-12	16:57:39.650	-4.655	5.215	-11.2	-0.155916	-1.208532	-0.311588	0.408	0.9255	0.2295	0	148	203	3
2026-02-12	16:57:39.670	-10.99	4.62	-15.19	-0.115656	-1.152656	-0.30744	0.4065	0.93	0.225	0	148	203	3
2026-02-12	16:57:39.690	-15.925	0.105	-13.825	-0.111996	-1.017236	-0.292556	0.4065	0.9255	0.2295	0	148	203	3
2026-02-12	16:57:39.710	-14.945	-9.765	-7.525	-0.17446	-0.927932	-0.300608	0.405	0.924	0.231	0	148	203	3
2026-02-12	16:57:39.730	-3.85	-20.79	-0.56	-0.221796	-0.888892	-0.315248	0.405	0.924	0.2295	0	148	203	3
2026-02-12	16:57:39.750	4.585	-28.805	1.435	-0.262544	-0.865956	-0.3111	0.408	0.9225	0.231	0	148	203	3
2026-02-12	16:57:39.770	7.77	-35.07	-1.925	-0.267668	-0.892064	-0.2989	0.4095	0.924	0.228	0	148	203	3
2026-02-12	16:57:39.790	8.505	-37.8	-8.435	-0.247904	-0.910364	-0.271328	0.411	0.921	0.2295	0	148	203	3
2026-02-12	16:57:39.810	6.93	-38.08	-15.015	-0.2196	-0.90646	-0.248148	0.4125	0.9195	0.2325	0	146	203	3
2026-02-12	16:57:39.830	3.99	-37.065	-20.58	-0.18788	-0.943548	-0.257176	0.417	0.927	0.2355	0	146	203	3
2026-02-12	16:57:39.850	-8.19	-36.26	-19.32	-0.136152	-1.067744	-0.329156	0.4125	0.918	0.231	0	146	203	3
2026-02-12	16:57:39.870	-8.05	-36.96	-17.5	-0.13542	-1.006744	-0.354044	0.414	0.918	0.234	0	146	203	3
2026-02-12	16:57:39.890	-4.235	-38.465	-14.385	-0.143228	-0.947208	-0.329644	0.4155	0.9135	0.237	0	146	203	3
2026-02-12	16:57:39.910	3.255	-40.04	-11.585	-0.154696	-0.851804	-0.2684	0.4155	0.915	0.2385	0	146	203	3
2026-02-12	16:57:39.930	7.805	-41.72	-10.535	-0.165432	-0.79422	-0.209352	0.414	0.918	0.237	0	146	203	3
2026-02-12	16:57:39.950	6.93	-41.475	-10.36	-0.1769	-0.798368	-0.162992	0.411	0.921	0.2355	0	146	203	3
2026-02-12	16:57:39.970	5.88	-39.9	-10.71	-0.19276	-0.821792	-0.136152	0.411	0.9225	0.234	0	146	203	3
2026-02-12	16:57:39.990	6.335	-36.855	-10.78	-0.20008	-0.834724	-0.121268	0.4185	0.921	0.2355	0	146	203	3
2026-02-12	16:57:40.010	7.455	-32.06	-10.535	-0.206424	-0.853024	-0.120048	0.4245	0.9225	0.2415	0	145	215	3
2026-02-12	16:57:40.030	7.105	-28.77	-9.94	-0.214476	-0.86986	-0.126636	0.414	0.915	0.237	0	145	215	3
2026-02-12	16:57:40.050	5.88	-22.855	-9.73	-0.223992	-0.888648	-0.166896	0.426	0.918	0.237	0	145	215	3
2026-02-12	16:57:40.070	4.655	-18.305	-9.66	-0.213012	-0.905728	-0.207644	0.4245	0.918	0.2355	0	145	215	3
2026-02-12	16:57:40.090	5.32	-16.485	-8.085	-0.2196	-0.928176	-0.217404	0.42	0.9165	0.234	0	145	215	3
2026-02-12	16:57:40.110	4.445	-16.03	-5.46	-0.223504	-0.985516	-0.224236	0.4185	0.9165	0.2355	0	145	215	3
2026-02-12	16:57:40.130	7.42	-15.855	-2.52	-0.22326	-1.057008	-0.241316	0.4245	0.9165	0.24	0	145	215	3
2026-02-12	16:57:40.150	13.895	-13.79	-0.35	-0.200568	-1.091168	-0.232044	0.426	0.918	0.2385	0	145	215	3
2026-02-12	16:57:40.170	15.925	-9.45	-0.56	-0.171776	-1.087264	-0.218868	0.4215	0.915	0.234	0	145	215	3
2026-02-12	16:57:40.190	10.99	-3.57	-2.695	-0.155672	-1.073844	-0.228628	0.4185	0.9105	0.2325	0	145	215	3
2026-02-12	16:57:40.210	4.585	3.815	-8.19	-0.142252	-1.109224	-0.223016	0.417	0.9135	0.2325	0	143	222	3
2026-02-12	16:57:40.230	-6.475	15.75	-19.145	-0.089792	-1.127524	-0.241072	0.4185	0.915	0.2325	0	143	222	3
2026-02-12	16:57:40.250	-17.92	20.335	-22.4	-0.030012	-1.1834	-0.275476	0.4185	0.9135	0.231	0	143	222	3
2026-02-12	16:57:40.270	-23.835	21.665	-19.495	0.00366	-1.222928	-0.293288	0.411	0.9105	0.234	0	143	222	3
2026-02-12	16:57:40.290	-18.76	18.9	-12.11	0.033672	-1.1407	-0.25986	0.4095	0.9105	0.237	0	143	222	3
2026-02-12	16:57:40.310	-9.695	12.425	-0.63	0.024644	-0.97844	-0.182024	0.411	0.909	0.237	0	143	222	3
2026-02-12	16:57:40.330	-1.96	5.6	10.29	-0.01586	-0.842044	-0.118096	0.402	0.906	0.24	0	143	222	3
2026-02-12	16:57:40.350	6.51	2.24	17.885	-0.068808	-0.78812	-0.091988	0.402	0.912	0.243	0	143	222	3
2026-02-12	16:57:40.370	11.165	4.27	20.3	-0.084424	-0.833016	-0.07905599	0.411	0.9165	0.24	0	143	222	3
2026-02-12	16:57:40.390	10.325	16.205	14.175	-0.04514	-0.915732	-0.092476	0.414	0.9165	0.2385	0	143	222	3
2026-02-12	16:57:40.410	-0.385	28.315	7.455	-0.015128	-0.946964	-0.13786	0.4155	0.912	0.234	0	143	222	3
2026-02-12	16:57:40.430	-12.67	37.765	4.025	0.021716	-0.997228	-0.180072	0.411	0.909	0.237	0	143	222	3
2026-02-12	16:57:40.450	-19.04	43.785	4.69	0.005124	-1.01016	-0.214964	0.4095	0.909	0.237	0	143	222	3
2026-02-12	16:57:40.470	-16.695	44.695	8.365	-0.037576	-0.9699	-0.221308	0.408	0.909	0.234	0	143	222	3
2026-02-12	16:57:40.490	-12.11	41.51	11.06	-0.097844	-0.92842	-0.209108	0.402	0.9105	0.2325	0	143	222	3
2026-02-12	16:57:40.510	-9.695	37.485	11.9	-0.139324	-0.917684	-0.171532	0.4005	0.909	0.2385	0	143	222	3
2026-02-12	16:57:40.530	-8.575	34.86	12.425	-0.1647	-0.914512	-0.132004	0.399	0.9045	0.2415	0	143	222	3
2026-02-12	16:57:40.550	-7.455	33.95	13.195	-0.19276	-0.914024	-0.091744	0.3975	0.903	0.2415	0	143	222	3
2026-02-12	16:57:40.570	-6.405	34.965	13.405	-0.22326	-0.90036	-0.07198	0.3975	0.903	0.2415	0	143	222	3
2026-02-12	16:57:40.590	-5.775	35.7	10.92	-0.23912	-0.876448	-0.07124799	0.396	0.9015	0.2385	0	143	222	3
2026-02-12	16:57:40.610	-4.83	34.685	7.455	-0.218624	-0.865712	-0.09882	0.387	0.903	0.2325	0	143	213	3
2026-02-12	16:57:40.630	-3.85	31.885	8.505	-0.2257	-0.91622	-0.12566	0.387	0.903	0.234	0	143	213	3
2026-02-12	16:57:40.650	1.82	27.51	7.77	-0.227896	-0.907924	-0.137372	0.3885	0.9045	0.24	0	143	213	3
2026-02-12	16:57:40.670	2.45	24.185	8.82	-0.222528	-0.94306	-0.118096	0.39	0.903	0.234	0	143	213	3
2026-02-12	16:57:40.690	2.24	21.84	9.38	-0.243024	-0.97356	-0.108092	0.387	0.903	0.234	0	143	213	3
2026-02-12	16:57:40.710	7.595	17.78	11.27	-0.240828	-0.9638	-0.10248	0.387	0.909	0.2385	0	143	213	3
2026-02-12	16:57:40.730	9.8	14	14.42	-0.2501	-0.963556	-0.105896	0.3915	0.9135	0.24	0	143	213	3
2026-02-12	16:57:40.750	9.17	11.97	16.38	-0.25742	-0.971364	-0.127368	0.3885	0.9015	0.228	0	143	213	3
2026-02-12	16:57:40.770	7.035	10.71	16.45	-0.262788	-0.984052	-0.157136	0.387	0.912	0.228	0	143	213	3
2026-02-12	16:57:40.790	4.62	9.625	14.63	-0.256932	-1.003572	-0.185928	0.3855	0.897	0.228	0	143	213	3
2026-02-12	16:57:40.810	0.525	8.82	11.795	-0.244	-1.036268	-0.22692	0.393	0.9	0.234	0	143	197	3
2026-02-12	16:57:40.830	-2.415	7.875	6.825	-0.2562	-1.07482	-0.293044	0.3945	0.906	0.2235	0	143	197	3
2026-02-12	16:57:40.850	-6.23	6.825	0.56	-0.238876	-1.157048	-0.308416	0.3945	0.9075	0.2235	0	143	197	3
2026-02-12	16:57:40.870	-14.84	7.77	-6.755	-0.228872	-1.258796	-0.335744	0.393	0.906	0.2235	0	143	197	3
2026-02-12	16:57:40.890	-25.655	8.435	-16.275	-0.184952	-1.270508	-0.321348	0.393	0.906	0.225	0	143	197	3
2026-02-12	16:57:40.910	-31.85	5.25	-17.115	-0.147132	-1.19316	-0.305976	0.3885	0.897	0.2325	0	143	197	3
2026-02-12	16:57:40.930	-27.265	-1.54	-11.865	-0.126148	-1.079212	-0.306708	0.384	0.891	0.2385	0	143	197	3
2026-02-12	16:57:40.950	-11.515	-11.13	-1.4	-0.176412	-0.96258	-0.30256	0.3795	0.897	0.234	0	143	197	3
2026-02-12	16:57:40.970	4.305	-19.775	5.25	-0.20984	-0.901092	-0.309392	0.3825	0.8865	0.2355	0	143	197	3
2026-02-12	16:57:40.990	15.19	-26.46	7.35	-0.24522	-0.855464	-0.30988	0.3885	0.8865	0.24	0	143	197	3
2026-02-12	16:57:41.010	20.825	-31.36	5.355	-0.244	-0.853756	-0.28548	0.39	0.9015	0.2445	0	143	195	3
2026-02-12	16:57:41.030	21.35	-33.04	0.525	-0.220088	-0.868152	-0.236436	0.393	0.891	0.2445	0	143	195	3
2026-02-12	16:57:41.050	18.9	-31.5	-6.72	-0.186416	-0.896944	-0.224236	0.3915	0.894	0.237	0	143	195	3
2026-02-12	16:57:41.070	16.135	-28.28	-11.165	-0.163724	-0.93574	-0.275964	0.396	0.891	0.2385	0	143	195	3
2026-02-12	16:57:41.090	8.96	-26.04	-12.04	-0.136396	-0.976488	-0.342088	0.393	0.8895	0.231	0	143	195	3
2026-02-12	16:57:41.110	2.17	-25.76	-12.46	-0.120292	-0.966728	-0.388692	0.399	0.8925	0.2415	0	143	195	3
2026-02-12	16:57:41.130	3.78	-28.56	-11.165	-0.122732	-0.929396	-0.37942	0.3945	0.897	0.234	0	143	195	3
2026-02-12	16:57:41.150	10.78	-31.605	-9.205	-0.147132	-0.859856	-0.3172	0.39	0.8925	0.2415	0	143	195	3
2026-02-12	16:57:41.170	18.34	-34.16	-7.455	-0.173484	-0.815448	-0.232288	0.399	0.897	0.2385	0	143	195	3
2026-02-12	16:57:41.190	21.315	-34.23	-7.63	-0.175192	-0.796904	-0.168116	0.405	0.9	0.237	0	143	195	3
2026-02-12	16:57:41.210	18.515	-32.06	-8.96	-0.193248	-0.812032	-0.127856	0.405	0.9	0.2385	0	143	209	3
2026-02-12	16:57:41.230	13.405	-29.715	-10.78	-0.195932	-0.82472	-0.1281	0.411	0.8895	0.228	0	143	209	3
2026-02-12	16:57:41.250	7.035	-27.895	-11.795	-0.194712	-0.860832	-0.127612	0.4065	0.894	0.231	0	143	209	3
2026-02-12	16:57:41.270	6.825	-25.69	-12.95	-0.198372	-0.872544	-0.12444	0.411	0.8955	0.2265	0	143	209	3
2026-02-12	16:57:41.290	5.6	-22.05	-11.865	-0.202764	-0.89548	-0.135664	0.405	0.9	0.2325	0	143	209	3
2026-02-12	16:57:41.310	4.445	-19.95	-11.06	-0.214232	-0.8906	-0.141276	0.4035	0.8895	0.228	0	143	209	3
2026-02-12	16:57:41.330	1.575	-18.935	-9.03	-0.223992	-0.9211	-0.161528	0.4065	0.891	0.2265	0	143	209	3
2026-02-12	16:57:41.350	2.135	-19.005	-5.775	-0.226432	-0.961116	-0.178852	0.4065	0.8985	0.2325	0	143	209	3
2026-02-12	16:57:41.370	5.145	-19.11	-1.75	-0.242292	-1.013576	-0.1891	0.4095	0.9	0.228	0	143	209	3
2026-02-12	16:57:41.390	10.29	-18.235	1.505	-0.235216	-1.06506	-0.183732	0.4125	0.8985	0.2355	0	143	209	3
2026-02-12	16:57:41.410	13.16	-14.735	2.59	-0.215696	-1.071892	-0.172752	0.42	0.8865	0.228	0	144	217	3
2026-02-12	16:57:41.430	11.305	-8.61	1.26	-0.192516	-1.085312	-0.156892	0.4125	0.8985	0.2325	0	144	217	3
2026-02-12	16:57:41.450	7.14	-1.015	-1.575	-0.183732	-1.086044	-0.152744	0.4095	0.894	0.2295	0	144	217	3
2026-02-12	16:57:41.470	1.715	6.51	-5.635	-0.160552	-1.107272	-0.164944	0.4215	0.8925	0.2265	0	144	217	3
2026-02-12	16:57:41.490	-4.865	12.18	-9.31	-0.127368	-1.120692	-0.197884	0.408	0.9045	0.2295	0	144	217	3
2026-02-12	16:57:41.510	-13.86	17.01	-10.465	-0.045872	-1.231468	-0.264984	0.408	0.894	0.228	0	144	217	3
2026-02-12	16:57:41.530	-12.04	19.565	-9.31	-0.007808	-1.258308	-0.27206	0.408	0.894	0.228	0	144	217	3
2026-02-12	16:57:41.550	-5.6	19.775	-5.215	0.03538	-1.187548	-0.193492	0.4005	0.8925	0.231	0	144	217	3
2026-02-12	16:57:41.570	0.42	18.55	2.975	0.033672	-1.009428	-0.0854	0.405	0.888	0.231	0	144	217	3
2026-02-12	16:57:41.590	5.215	16.345	13.79	-0.014152	-0.861564	-0.036112	0.393	0.891	0.231	0	144	217	3
2026-02-12	16:57:41.610	8.4	16.31	22.19	-0.07442	-0.794464	-0.044164	0.4005	0.8925	0.225	0	145	214	3
2026-02-12	16:57:41.630	8.54	20.02	25.445	-0.120048	-0.815448	-0.088328	0.405	0.8985	0.228	0	145	214	3
2026-02-12	16:57:41.650	8.645	25.06	22.61	-0.121268	-0.858392	-0.121756	0.4065	0.894	0.228	0	145	214	3
2026-02-12	16:57:41.670	4.795	31.605	14.84	-0.077592	-0.918904	-0.13176	0.402	0.894	0.225	0	145	214	3
2026-02-12	16:57:41.690	-4.06	38.325	8.295	-0.035136	-0.942572	-0.137616	0.4065	0.906	0.2235	0	145	214	3
2026-02-12	16:57:41.710	-12.495	42.315	6.79	-0.023912	-0.956724	-0.153964	0.4035	0.888	0.228	0	145	214	3
2026-02-12	16:57:41.730	-15.47	42.56	9.66	-0.069052	-0.913536	-0.184952	0.4035	0.888	0.228	0	145	214	3
2026-02-12	16:57:41.750	-14	39.725	12.915	-0.129564	-0.9028	-0.211548	0.4035	0.888	0.228	0	145	214	3
2026-02-12	16:57:41.770	-12.005	37.135	14.14	-0.172996	-0.910852	-0.194956	0.3975	0.8925	0.222	0	145	214	3
2026-02-12	16:57:41.790	-10.99	34.65	14.595	-0.206668	-0.931348	-0.160552	0.3975	0.8955	0.2235	0	145	214	3
2026-02-12	16:57:41.810	-7.385	33.705	15.575	-0.217648	-0.932568	-0.115412	0.39	0.897	0.225	0	146	201	3
2026-02-12	16:57:41.830	-3.325	35.385	15.155	-0.235704	-0.894748	-0.077592	0.3915	0.9	0.2265	0	146	201	3
2026-02-12	16:57:41.850	-2.205	37.555	13.23	-0.224724	-0.869128	-0.052216	0.396	0.888	0.2295	0	146	201	3
2026-02-12	16:57:41.870	-5.145	39.48	10.78	-0.227408	-0.868396	-0.051728	0.39	0.897	0.2205	0	146	201	3
2026-02-12	16:57:41.890	-6.965	39.9	8.05	-0.233752	-0.87352	-0.049532	0.4005	0.894	0.2235	0	146	201	3
2026-02-12	16:57:41.910	-6.125	38.395	6.44	-0.24888	-0.917684	-0.060024	0.3885	0.9015	0.2235	0	146	201	3
2026-02-12	16:57:41.930	-1.505	35.49	6.195	-0.263276	-0.951844	-0.07198	0.399	0.9	0.216	0	146	201	3
2026-02-12	16:57:41.950	4.06	30.94	7.21	-0.278404	-0.970144	-0.084424	0.3915	0.8955	0.213	0	146	201	3
2026-02-12	16:57:41.970	8.96	26.075	9.555	-0.287432	-0.95404	-0.0976	0.384	0.8925	0.2115	0	146	201	3
2026-02-12	16:57:41.990	10.85	22.155	11.725	-0.294996	-0.952332	-0.115412	0.3855	0.9	0.216	0	146	201	3
2026-02-12	16:57:42.010	12.845	18.515	13.825	-0.313784	-0.953064	-0.142008	0.375	0.8925	0.2115	0	147	182	3
2026-02-12	16:57:42.030	13.615	15.68	14.42	-0.335012	-0.97234	-0.16348	0.384	0.9045	0.213	0	147	182	3
2026-02-12	16:57:42.050	13.02	13.65	12.46	-0.336232	-0.989176	-0.177144	0.3855	0.897	0.1995	0	147	182	3
2026-02-12	16:57:42.070	9.625	12.32	8.96	-0.3294	-1.030412	-0.197884	0.378	0.897	0.2055	0	147	182	3
2026-02-12	16:57:42.090	4.2	11.585	4.305	-0.31232	-1.085312	-0.216184	0.381	0.903	0.2085	0	147	182	3
2026-02-12	16:57:42.110	0.28	12.88	-2.345	-0.303048	-1.17852	-0.243268	0.378	0.903	0.2085	0	147	182	3
2026-02-12	16:57:42.130	-5.565	15.505	-10.64	-0.243756	-1.27856	-0.270108	0.384	0.906	0.2085	0	147	182	3
2026-02-12	16:57:42.150	-10.045	17.465	-17.36	-0.19398	-1.335168	-0.257176	0.3825	0.9045	0.2085	0	147	182	3
2026-02-12	16:57:42.170	-11.2	18.2	-20.475	-0.150304	-1.266116	-0.225944	0.381	0.9045	0.2055	0	147	182	3
2026-02-12	16:57:42.190	-4.935	14.175	-16.73	-0.144448	-1.081408	-0.189832	0.3795	0.9045	0.2025	0	147	182	3
2026-02-12	16:57:42.210	2.415	6.65	-8.015	-0.17934	-0.943304	-0.226432	0.372	0.9015	0.2025	0	148	172	3
2026-02-12	16:57:42.230	7.105	-2.73	-0.84	-0.221308	-0.816668	-0.261568	0.372	0.9	0.213	0	148	172	3
2026-02-12	16:57:42.250	6.545	-13.51	0.35	-0.248148	-0.805932	-0.3294	0.3615	0.894	0.198	0	148	172	3
2026-02-12	16:57:42.270	10.15	-23.03	-2.17	-0.279136	-0.85034	-0.382836	0.372	0.9015	0.2025	0	148	172	3
2026-02-12	16:57:42.290	17.64	-31.325	-8.33	-0.256932	-0.879864	-0.355508	0.369	0.8955	0.2055	0	148	172	3
2026-02-12	16:57:42.310	19.74	-38.395	-15.295	-0.21106	-0.922808	-0.316224	0.366	0.9015	0.2025	0	148	172	3
2026-02-12	16:57:42.330	14.945	-43.54	-19.88	-0.167628	-0.955992	-0.309148	0.3795	0.9015	0.2055	0	148	172	3
2026-02-12	16:57:42.350	7.035	-46.06	-20.79	-0.131516	-1.031388	-0.320616	0.3735	0.8955	0.201	0	148	172	3
2026-02-12	16:57:42.370	11.27	-46.375	-18.515	-0.133224	-1.026508	-0.297924	0.372	0.894	0.204	0	148	172	3
2026-02-12	16:57:42.390	16.03	-45.08	-11.025	-0.130052	-0.98088	-0.224236	0.3765	0.8985	0.2055	0	148	172	3
2026-02-12	16:57:42.410	13.93	-42.665	-2.975	-0.176168	-0.867664	-0.170068	0.3825	0.9045	0.204	0	149	181	3
2026-02-12	16:57:42.430	11.27	-39.795	1.295	-0.223016	-0.801052	-0.167384	0.381	0.9045	0.201	0	149	181	3
2026-02-12	16:57:42.450	9.87	-37.695	3.92	-0.257908	-0.769332	-0.181292	0.375	0.9045	0.201	0	149	181	3
2026-02-12	16:57:42.470	6.755	-35.245	4.41	-0.263276	-0.809592	-0.192272	0.381	0.8985	0.201	0	149	181	3
2026-02-12	16:57:42.490	7.49	-32.2	3.465	-0.253516	-0.846436	-0.161772	0.384	0.909	0.1995	0	149	181	3
2026-02-12	16:57:42.510	9.905	-29.085	2.765	-0.248148	-0.864004	-0.15006	0.393	0.906	0.2085	0	149	181	3
2026-02-12	16:57:42.530	9.66	-26.39	1.645	-0.233752	-0.886208	-0.162016	0.393	0.9045	0.204	0	149	181	3
2026-02-12	16:57:42.550	8.365	-23.765	1.295	-0.218136	-0.888892	-0.161772	0.3795	0.903	0.2115	0	149	181	3
2026-02-12	16:57:42.570	6.125	-21.63	2.1	-0.212768	-0.894016	-0.148108	0.387	0.9045	0.2115	0	149	181	3
2026-02-12	16:57:42.590	4.41	-20.615	3.745	-0.213012	-0.887672	-0.135176	0.399	0.9105	0.2085	0	149	181	3
2026-02-12	16:57:42.610	2.205	-20.545	5.67	-0.223992	-0.871568	-0.135664	0.402	0.915	0.2055	0	151	194	3
2026-02-12	16:57:42.630	1.085	-21	7.595	-0.247416	-0.951844	-0.150548	0.4005	0.915	0.207	0	151	194	3
2026-02-12	16:57:42.650	3.85	-19.46	7.665	-0.236436	-1.00284	-0.158112	0.405	0.9165	0.204	0	151	194	3
2026-02-12	16:57:42.670	4.935	-16.275	5.95	-0.210572	-1.038708	-0.160064	0.4035	0.909	0.207	0	151	194	3
2026-02-12	16:57:42.690	2.59	-10.5	1.645	-0.205448	-1.050908	-0.1708	0.4065	0.9195	0.204	0	151	194	3
2026-02-12	16:57:42.710	-2.45	-3.045	-4.375	-0.202032	-1.079944	-0.168604	0.4035	0.909	0.21	0	151	194	3
2026-02-12	16:57:42.730	-7.07	4.935	-12.32	-0.168116	-1.122644	-0.175924	0.4155	0.9045	0.207	0	151	194	3
2026-02-12	16:57:42.750	-12.04	12.81	-18.9	-0.1281	-1.19194	-0.204716	0.408	0.915	0.204	0	151	194	3
2026-02-12	16:57:42.770	-18.13	17.5	-21.595	-0.046116	-1.27368	-0.249856	0.39	0.906	0.2115	0	151	194	3
2026-02-12	16:57:42.790	-19.845	18.865	-19.46	0.011224	-1.278316	-0.249856	0.3945	0.906	0.2085	0	151	194	3
2026-02-12	16:57:42.810	-15.96	15.995	-11.62	0.033916	-1.153876	-0.199592	0.396	0.9105	0.2085	0	152	197	3
2026-02-12	16:57:42.830	-8.96	9.87	1.015	-0.00366	-1.00772	-0.139568	0.3915	0.9105	0.2085	0	152	197	3
2026-02-12	16:57:42.850	5.11	4.095	16.31	-0.058804	-0.86132	-0.079788	0.3945	0.909	0.207	0	152	197	3
2026-02-12	16:57:42.870	14.42	5.11	22.75	-0.077836	-0.885964	-0.060512	0.3975	0.9105	0.21	0	152	197	3
2026-02-12	16:57:42.890	22.47	10.115	24.675	-0.07442	-0.919636	-0.042944	0.3945	0.912	0.2115	0	152	197	3
2026-02-12	16:57:42.910	21	18.48	21.63	-0.053924	-0.952332	-0.058316	0.3945	0.918	0.2055	0	152	197	3
2026-02-12	16:57:42.930	9.94	27.965	16.8	-0.042944	-0.960872	-0.083936	0.3945	0.912	0.2055	0	152	197	3
2026-02-12	16:57:42.950	-0.91	36.295	14.455	-0.060756	-0.954284	-0.105896	0.393	0.915	0.201	0	152	197	3
2026-02-12	16:57:42.970	-2.73	41.3	13.51	-0.102968	-0.889868	-0.110532	0.4065	0.909	0.1965	0	152	197	3
2026-02-12	16:57:42.990	-8.085	42.77	12.635	-0.138836	-0.84302	-0.117852	0.396	0.9165	0.204	0	152	197	3
2026-02-12	16:57:43.010	-16.345	41.3	13.475	-0.171776	-0.869128	-0.122244	0.3975	0.918	0.2025	0	152	189	3
2026-02-12	16:57:43.030	-18.655	38.255	14.14	-0.216916	-0.896944	-0.127612	0.396	0.9165	0.1995	0	152	189	3
2026-02-12	16:57:43.050	-15.155	34.825	13.615	-0.248148	-0.898164	-0.119072	0.393	0.9195	0.198	0	152	189	3
2026-02-12	16:57:43.070	-8.155	31.745	11.305	-0.289628	-0.872056	-0.05978	0.3945	0.924	0.1995	0	152	189	3
2026-02-12	16:57:43.090	-5.74	30.695	9.135	-0.305732	-0.869372	-0.030988	0.3945	0.924	0.1995	0	152	189	3
2026-02-12	16:57:43.110	-4.55	29.82	6.09	-0.310124	-0.849364	0.010492	0.3945	0.9135	0.2025	0	152	189	3
2026-02-12	16:57:43.130	-5.285	28.175	3.36	-0.311832	-0.854732	0.002928	0.3945	0.921	0.2055	0	152	189	3
2026-02-12	16:57:43.150	-6.125	25.095	1.015	-0.295484	-0.86986	-0.025376	0.3945	0.915	0.1995	0	152	189	3
2026-02-12	16:57:43.170	-4.935	21.525	-0.35	-0.293532	-0.899628	-0.050264	0.3975	0.915	0.201	0	152	189	3
2026-02-12	16:57:43.190	-1.925	17.71	-0.035	-0.282308	-0.90646	-0.063684	0.3885	0.9165	0.201	0	152	189	3
2026-02-12	16:57:43.210	0.525	13.965	2.52	-0.277184	-0.90036	-0.080764	0.3885	0.918	0.2025	0	153	169	3
2026-02-12	16:57:43.230	0.7	11.095	4.935	-0.291336	-0.8601	-0.100528	0.384	0.9195	0.201	0	153	169	3
2026-02-12	16:57:43.250	-3.64	8.505	7.245	-0.312076	-0.87474	-0.124684	0.3825	0.9165	0.1965	0	153	169	3
2026-02-12	16:57:43.270	-6.265	6.895	7.77	-0.333792	-0.892552	-0.135176	0.3855	0.9165	0.1965	0	153	169	3
2026-02-12	16:57:43.290	-9.765	6.02	3.43	-0.341356	-0.93208	-0.159576	0.3855	0.9195	0.201	0	153	169	3
2026-02-12	16:57:43.310	-17.255	5.775	-4.9	-0.349164	-1.03944	-0.211548	0.3855	0.9195	0.201	0	153	169	3
2026-02-12	16:57:43.330	-20.545	6.895	-13.895	-0.327448	-1.189744	-0.245952	0.3825	0.9195	0.2055	0	153	169	3
2026-02-12	16:57:43.350	-27.65	9.345	-21.665	-0.307684	-1.364448	-0.270352	0.384	0.915	0.2085	0	153	169	3
2026-02-12	16:57:43.370	-31.85	9.975	-28.28	-0.318908	-1.406416	-0.291336	0.39	0.918	0.21	0	153	169	3
2026-02-12	16:57:43.390	-32.06	7.805	-32.095	-0.305976	-1.362984	-0.302316	0.3735	0.912	0.2055	0	153	169	3
2026-02-12	16:57:43.410	-33.145	2.345	-32.48	-0.225944	-1.301984	-0.306708	0.3825	0.9165	0.2145	0	154	155	3
2026-02-12	16:57:43.430	-24.29	-5.005	-24.99	-0.204472	-1.204628	-0.30866	0.378	0.9105	0.2145	0	154	155	3
2026-02-12	16:57:43.450	-3.5	-17.955	-10.045	-0.212524	-1.03578	-0.313296	0.369	0.906	0.2175	0	154	155	3
2026-02-12	16:57:43.470	11.305	-28.91	1.505	-0.227164	-0.901092	-0.319152	0.363	0.906	0.222	0	154	155	3
2026-02-12	16:57:43.490	16.905	-37.66	6.335	-0.24888	-0.796416	-0.312564	0.369	0.906	0.2205	0	154	155	3
2026-02-12	16:57:43.510	19.74	-44.835	4.27	-0.256444	-0.7991	-0.312076	0.375	0.9075	0.2175	0	154	155	3
2026-02-12	16:57:43.530	23.52	-47.39	-2.66	-0.236924	-0.854	-0.2867	0.3765	0.9105	0.219	0	154	155	3
2026-02-12	16:57:43.550	25.235	-45.675	-10.92	-0.21228	-0.864492	-0.262544	0.387	0.906	0.2145	0	154	155	3
2026-02-12	16:57:43.570	19.18	-42.945	-16.975	-0.158356	-0.928908	-0.303292	0.3855	0.912	0.216	0	154	155	3
2026-02-12	16:57:43.590	10.045	-39.83	-19.285	-0.110776	-1.037488	-0.353556	0.3915	0.918	0.216	0	154	155	3
2026-02-12	16:57:43.610	5.04	-37.87	-17.955	-0.08906	-1.047492	-0.37942	0.3915	0.9165	0.2145	0	158	166	3
2026-02-12	16:57:43.630	3.885	-37.975	-14.42	-0.085644	-0.99674	-0.36966	0.3915	0.9135	0.216	0	158	166	3
2026-02-12	16:57:43.650	6.58	-39.095	-9.17	-0.103212	-0.904752	-0.314272	0.39	0.915	0.2145	0	158	166	3
2026-02-12	16:57:43.670	11.76	-40.285	-5.775	-0.122488	-0.829844	-0.245464	0.3915	0.9195	0.213	0	158	166	3
2026-02-12	16:57:43.690	14.84	-38.5	-4.515	-0.138836	-0.771284	-0.178364	0.3945	0.9225	0.2175	0	158	166	3
2026-02-12	16:57:43.710	13.51	-35.105	-4.34	-0.155428	-0.754448	-0.13542	0.3975	0.921	0.2205	0	158	166	3
2026-02-12	16:57:43.730	8.645	-29.645	-6.09	-0.184708	-0.74664	-0.101992	0.4005	0.918	0.216	0	158	166	3
2026-02-12	16:57:43.750	2.38	-23.17	-8.225	-0.199836	-0.772504	-0.09394	0.399	0.921	0.2115	0	158	166	3
2026-02-12	16:57:43.770	-3.115	-18.165	-10.43	-0.21472	-0.787144	-0.10614	0.405	0.9285	0.2175	0	158	166	3
2026-02-12	16:57:43.790	-4.725	-14.315	-12.46	-0.224724	-0.82472	-0.112728	0.408	0.924	0.219	0	158	166	3
2026-02-12	16:57:43.810	-5.39	-11.165	-14	-0.24034	-0.8479	-0.133468	0.4065	0.918	0.2175	0	163	188	3
2026-02-12	16:57:43.830	-6.755	-9.485	-14.805	-0.247416	-0.901824	-0.15738	0.402	0.912	0.219	0	163	188	3
2026-02-12	16:57:43.850	-5.915	-8.96	-14.35	-0.256688	-0.958676	-0.172508	0.405	0.9165	0.2205	0	163	188	3
2026-02-12	16:57:43.870	-3.605	-9.345	-12.74	-0.25132	-1.020408	-0.18178	0.4035	0.924	0.2235	0	163	188	3
2026-02-12	16:57:43.890	-0.63	-9.31	-11.235	-0.227652	-1.090192	-0.186416	0.405	0.9165	0.222	0	163	188	3
2026-02-12	16:57:43.910	1.4	-7.385	-10.745	-0.19886	-1.151192	-0.203984	0.408	0.912	0.2205	0	163	188	3
2026-02-12	16:57:43.930	2.59	-3.535	-11.865	-0.174948	-1.192916	-0.216672	0.4065	0.9165	0.2205	0	163	188	3
2026-02-12	16:57:43.950	2.275	1.19	-14.28	-0.161772	-1.21634	-0.211792	0.405	0.9195	0.222	0	163	188	3
2026-02-12	16:57:43.970	-1.19	8.96	-18.9	-0.143716	-1.24806	-0.220088	0.4065	0.9225	0.222	0	163	188	3
2026-02-12	16:57:43.990	-5.075	13.58	-20.265	-0.1159	-1.2932	-0.245708	0.4005	0.921	0.2175	0	163	188	3
2026-02-12	16:57:44.010	-10.85	16.66	-18.445	-0.057828	-1.320284	-0.253272	0.399	0.915	0.216	0	168	199	3
2026-02-12	16:57:44.030	-10.605	16.905	-11.27	-0.023912	-1.28954	-0.237412	0.399	0.9165	0.2235	0	168	199	3
2026-02-12	16:57:44.050	-3.29	13.125	0.315	-0.00732	-1.164856	-0.198128	0.39	0.915	0.2205	0	168	199	3
2026-02-12	16:57:44.070	7	6.58	12.74	-0.001708	-1.017724	-0.152744	0.39	0.9165	0.222	0	168	199	3
2026-02-12	16:57:44.090	17.29	0	24.395	0.000976	-0.913536	-0.109312	0.387	0.9195	0.222	0	168	199	3
2026-02-12	16:57:44.110	28.77	-3.815	34.405	0.000488	-0.855952	-0.08686399	0.384	0.9165	0.2205	0	168	199	3
2026-02-12	16:57:44.130	36.05	-2.17	38.465	-0.005368	-0.824476	-0.07905599	0.39	0.918	0.2175	0	168	199	3
2026-02-12	16:57:44.150	33.005	4.97	35.875	-0.00244	-0.854244	-0.08418	0.399	0.9225	0.21	0	168	199	3
2026-02-12	16:57:44.170	23.205	17.045	27.58	-0.006832	-0.837164	-0.08906	0.405	0.924	0.2085	0	168	199	3
2026-02-12	16:57:44.190	2.8	33.565	15.26	-0.026108	-0.829844	-0.105408	0.4065	0.927	0.21	0	168	199	3
2026-02-12	16:57:44.210	-5.95	39.865	9.065	-0.057096	-0.813984	-0.110288	0.4155	0.936	0.207	0	173	198	3
2026-02-12	16:57:44.230	-10.08	42.035	6.125	-0.089792	-0.813496	-0.114924	0.408	0.936	0.207	0	173	198	3
2026-02-12	16:57:44.250	-12.915	40.67	5.915	-0.12566	-0.837408	-0.124196	0.4125	0.936	0.1995	0	173	198	3
2026-02-12	16:57:44.270	-14.35	36.715	6.23	-0.170312	-0.827404	-0.125172	0.408	0.93	0.2055	0	173	198	3
2026-02-12	16:57:44.290	-15.61	31.57	5.355	-0.218136	-0.82838	-0.114924	0.4065	0.9225	0.2085	0	173	198	3
2026-02-12	16:57:44.310	-15.365	26.985	4.165	-0.247172	-0.844484	-0.100284	0.414	0.924	0.2115	0	173	198	3
2026-02-12	16:57:44.330	-12.88	23.975	1.82	-0.274012	-0.848144	-0.074176	0.4155	0.9285	0.2115	0	173	198	3
2026-02-12	16:57:44.350	-10.115	21.49	-1.54	-0.280844	-0.855952	-0.038796	0.405	0.9315	0.2115	0	173	198	3
2026-02-12	16:57:44.370	-9.905	19.565	-4.2	-0.286456	-0.876936	-0.006344	0.402	0.93	0.2115	0	173	198	3
2026-02-12	16:57:44.390	-9.555	16.8	-5.81	-0.26718	-0.915488	-0.002928	0.4065	0.924	0.2145	0	173	198	3
2026-02-12	16:57:44.410	-4.34	12.145	-4.13	-0.252784	-0.955992	-0.006588	0.4065	0.9225	0.2235	0	178	182	3
2026-02-12	16:57:44.430	-0.665	8.645	-0.665	-0.246684	-0.988688	-0.01586	0.4065	0.9225	0.2235	0	178	182	3
2026-02-12	16:57:44.450	2.8	5.635	3.43	-0.236192	-0.977952	-0.013664	0.387	0.915	0.216	0	178	182	3
2026-02-12	16:57:44.470	2.38	4.585	8.155	-0.251564	-0.964532	-0.033916	0.408	0.921	0.2115	0	178	182	3
2026-02-12	16:57:44.490	-1.715	4.235	10.115	-0.280356	-1.013332	-0.0793	0.4065	0.924	0.213	0	178	182	3
2026-02-12	16:57:44.510	-4.305	4.165	8.295	-0.278892	-1.059204	-0.132492	0.408	0.9285	0.219	0	178	182	3
2026-02-12	16:57:44.530	-3.885	4.585	2.765	-0.26352	-1.108736	-0.1647	0.4065	0.9255	0.2235	0	178	182	3
2026-02-12	16:57:44.550	-3.15	5.355	-4.655	-0.243756	-1.157048	-0.201788	0.402	0.921	0.222	0	178	182	3
2026-02-12	16:57:44.570	-6.195	7.49	-12.74	-0.212036	-1.225856	-0.21716	0.4035	0.9255	0.2265	0	178	182	3
2026-02-12	16:57:44.590	-10.185	10.395	-20.895	-0.187636	-1.24806	-0.230336	0.4035	0.924	0.231	0	178	182	3
2026-02-12	16:57:44.610	-18.34	12.775	-27.545	-0.182512	-1.247816	-0.237656	0.4035	0.921	0.2295	0	181	161	3
2026-02-12	16:57:44.630	-26.215	12.74	-32.97	-0.152744	-1.181448	-0.276696	0.405	0.9225	0.2295	0	181	161	3
2026-02-12	16:57:44.650	-30.03	7.98	-32.095	-0.089548	-1.131428	-0.306464	0.405	0.9225	0.2295	0	181	161	3
2026-02-12	16:57:44.670	-21.49	-1.225	-23.1	-0.077348	-1.063596	-0.31354	0.396	0.921	0.243	0	181	161	3
2026-02-12	16:57:44.690	-4.13	-13.405	-10.395	-0.1037	-0.944036	-0.290604	0.393	0.9135	0.2385	0	181	161	3
2026-02-12	16:57:44.710	8.575	-24.325	-1.015	-0.142984	-0.824476	-0.275964	0.3915	0.909	0.237	0	181	161	3
2026-02-12	16:57:44.730	11.13	-33.005	1.26	-0.196664	-0.758596	-0.275232	0.393	0.9105	0.24	0	181	161	3
2026-02-12	16:57:44.750	13.23	-38.71	-3.325	-0.223016	-0.773724	-0.274012	0.4005	0.909	0.2445	0	181	161	3
2026-02-12	16:57:44.770	17.5	-40.985	-11.515	-0.209352	-0.855708	-0.272792	0.4035	0.9105	0.2475	0	181	161	3
2026-02-12	16:57:44.790	20.37	-39.55	-19.635	-0.189344	-0.915732	-0.262056	0.4005	0.9075	0.2475	0	181	161	3
2026-02-12	16:57:44.810	14.91	-36.75	-25.305	-0.1403	-1.043344	-0.303536	0.4005	0.9075	0.249	0	184	161	3
2026-02-12	16:57:44.830	6.86	-32.935	-26.95	-0.0793	-1.134356	-0.349408	0.4035	0.912	0.2505	0	184	161	3
2026-02-12	16:57:44.850	8.785	-30.94	-22.575	-0.043676	-1.0919	-0.355264	0.4095	0.906	0.2475	0	184	161	3
2026-02-12	16:57:44.870	13.615	-30.555	-14.245	-0.059536	-0.95038	-0.307928	0.4125	0.9	0.243	0	184	161	3
2026-02-12	16:57:44.890	16.24	-30.73	-9.275	-0.075884	-0.853756	-0.263276	0.405	0.909	0.249	0	184	161	3
2026-02-12	16:57:44.910	16.065	-30.1	-6.16	-0.097356	-0.79666	-0.211792	0.408	0.9105	0.246	0	184	161	3
2026-02-12	16:57:44.930	12.04	-28.63	-6.23	-0.127124	-0.758352	-0.185196	0.4125	0.912	0.243	0	184	161	3
2026-02-12	16:57:44.950	7.595	-27.16	-7.245	-0.130296	-0.767868	-0.163236	0.411	0.915	0.246	0	184	161	3
2026-02-12	16:57:44.970	6.545	-24.885	-8.085	-0.14396	-0.760548	-0.12078	0.414	0.918	0.2475	0	184	161	3
2026-02-12	16:57:44.990	3.955	-22.05	-8.26	-0.145912	-0.763476	-0.094428	0.4215	0.918	0.2445	0	184	161	3
2026-02-12	16:57:45.010	-2.17	-17.955	-8.225	-0.16348	-0.759816	-0.093452	0.4185	0.915	0.2445	0	186	178	3
2026-02-12	16:57:45.030	-10.57	-12.915	-7.49	-0.181048	-0.808372	-0.093696	0.426	0.915	0.243	0	186	178	3
2026-02-12	16:57:45.050	-13.93	-8.155	-5.6	-0.209352	-0.874984	-0.106872	0.4305	0.9135	0.2475	0	186	178	3
2026-02-12	16:57:45.070	-15.435	-3.045	-1.89	-0.226188	-0.93574	-0.136396	0.4275	0.912	0.2475	0	186	178	3
2026-02-12	16:57:45.090	-13.72	-0.21	2.38	-0.225212	-1.020652	-0.207644	0.4275	0.912	0.2415	0	186	178	3
2026-02-12	16:57:45.110	-8.645	0.63	6.58	-0.195932	-1.10776	-0.237168	0.429	0.9165	0.2475	0	186	178	3
2026-02-12	16:57:45.130	-2.03	0.7	9.45	-0.143228	-1.166564	-0.253028	0.429	0.909	0.252	0	186	178	3
2026-02-12	16:57:45.150	1.33	2.905	10.885	-0.092476	-1.238544	-0.277428	0.432	0.906	0.2535	0	186	178	3
2026-02-12	16:57:45.170	2.345	8.33	10.535	-0.068564	-1.234152	-0.27816	0.438	0.9075	0.249	0	186	178	3
2026-02-12	16:57:45.190	-0.21	15.225	7.14	-0.07076	-1.220488	-0.273524	0.438	0.9075	0.249	0	186	178	3
2026-02-12	16:57:45.210	-5.425	22.26	1.645	-0.05368	-1.228784	-0.292312	0.435	0.912	0.2475	0	188	191	3
2026-02-12	16:57:45.230	-11.2	29.295	-3.71	-0.029036	-1.262456	-0.2928	0.4335	0.915	0.246	0	188	191	3
2026-02-12	16:57:45.250	-14.98	33.915	-7.21	0.010004	-1.301496	-0.26718	0.4365	0.9105	0.2475	0	188	191	3
2026-02-12	16:57:45.270	-15.155	34.58	-5.915	0.049044	-1.251232	-0.231068	0.4335	0.906	0.246	0	188	191	3
2026-02-12	16:57:45.290	-10.15	30.485	3.99	0.054412	-1.1346	-0.139324	0.429	0.9075	0.2535	0	188	191	3
2026-02-12	16:57:45.310	9.905	17.92	27.335	0.010004	-0.870836	-0.030744	0.4305	0.9105	0.261	0	188	191	3
2026-02-12	16:57:45.330	19.425	12.39	39.235	-0.02562	-0.781532	-0.020008	0.4305	0.909	0.249	0	188	191	3
2026-02-12	16:57:45.350	24.22	12.495	46.165	-0.0671	-0.752008	-0.052216	0.4335	0.9105	0.2385	0	188	191	3
2026-02-12	16:57:45.370	24.71	17.395	44.94	-0.067588	-0.756888	-0.069784	0.438	0.9105	0.24	0	188	191	3
2026-02-12	16:57:45.390	21.49	25.585	38.08	-0.06734399	-0.776164	-0.093696	0.444	0.915	0.2415	0	188	191	3
2026-02-12	16:57:45.410	10.885	34.79	27.965	-0.064904	-0.80642	-0.147376	0.447	0.921	0.2415	0	190	196	3
2026-02-12	16:57:45.430	-3.71	41.055	19.67	-0.087596	-0.843264	-0.228628	0.4455	0.918	0.2355	0	190	196	3
2026-02-12	16:57:45.450	-16.345	43.82	14.28	-0.114192	-0.884744	-0.260348	0.4455	0.918	0.231	0	190	196	3
2026-02-12	16:57:45.470	-21.315	43.295	12.145	-0.145912	-0.92354	-0.2684	0.45	0.918	0.2355	0	190	196	3
2026-02-12	16:57:45.490	-19.67	38.57	11.725	-0.172508	-0.915244	-0.25376	0.447	0.918	0.2385	0	190	196	3
2026-02-12	16:57:45.510	-21.035	31.955	12.74	-0.197396	-0.930128	-0.244976	0.4455	0.9165	0.237	0	190	196	3
2026-02-12	16:57:45.530	-19.425	24.43	13.44	-0.243512	-0.93574	-0.199836	0.4455	0.915	0.2355	0	190	196	3
2026-02-12	16:57:45.550	-12.74	20.825	12.81	-0.261568	-0.923784	-0.156892	0.4395	0.915	0.237	0	190	196	3
2026-02-12	16:57:45.570	-5.53	18.62	10.78	-0.2684	-0.885964	-0.11468	0.4365	0.915	0.2415	0	190	196	3
2026-02-12	16:57:45.590	-4.2	16.73	8.925	-0.272304	-0.87352	-0.107116	0.441	0.915	0.2445	0	190	196	3
2026-02-12	16:57:45.610	-5.88	14.84	7.385	-0.282552	-0.900116	-0.11468	0.4455	0.9135	0.2445	0	193	194	3
2026-02-12	16:57:45.630	-7.56	12.215	5.915	-0.286944	-0.934276	-0.130052	0.4425	0.915	0.243	0	193	194	3
2026-02-12	16:57:45.650	-3.92	8.68	5.11	-0.284504	-0.968924	-0.127612	0.4395	0.915	0.24	0	193	194	3
2026-02-12	16:57:45.670	1.995	4.585	5.32	-0.271816	-0.977464	-0.11224	0.444	0.915	0.237	0	193	194	3
2026-02-12	16:57:45.690	5.145	-0.21	7.035	-0.276208	-0.976976	-0.097112	0.447	0.921	0.234	0	193	194	3
2026-02-12	16:57:45.710	5.53	-4.375	9.275	-0.2806	-0.99186	-0.112484	0.4425	0.9165	0.2355	0	193	194	3
2026-02-12	16:57:45.730	4.69	-7.525	10.85	-0.281576	-0.99674	-0.136152	0.4395	0.915	0.2415	0	193	194	3
2026-02-12	16:57:45.750	3.465	-10.01	9.45	-0.298656	-1.001132	-0.17324	0.4365	0.9195	0.243	0	193	194	3
2026-02-12	16:57:45.770	1.015	-13.405	6.125	-0.293532	-1.033584	-0.225212	0.444	0.9195	0.2415	0	193	194	3
2026-02-12	16:57:45.790	-0.28	-14.98	0.735	-0.30134	-1.09312	-0.246196	0.453	0.9195	0.24	0	193	194	3
2026-02-12	16:57:45.810	0.77	-14	-6.265	-0.293288	-1.16754	-0.289384	0.453	0.9195	0.237	0	194	189	3
2026-02-12	16:57:45.830	-10.43	-11.585	-15.54	-0.245464	-1.200968	-0.372588	0.4515	0.918	0.237	0	194	189	3
2026-02-12	16:57:45.850	-21.595	-9.695	-21.805	-0.247416	-1.242448	-0.413092	0.456	0.921	0.2355	0	194	189	3
2026-02-12	16:57:45.870	-19.705	-12.215	-24.465	-0.214476	-1.215364	-0.4087	0.456	0.9225	0.2385	0	194	189	3
2026-02-12	16:57:45.890	-12.88	-18.83	-22.155	-0.150548	-1.136552	-0.401136	0.4455	0.9165	0.2415	0	194	189	3
2026-02-12	16:57:45.910	-2.1	-28.245	-12.495	-0.163724	-0.996984	-0.366732	0.447	0.9135	0.2415	0	194	189	3
2026-02-12	16:57:45.930	-0.14	-37.8	-3.5	-0.205204	-0.86742	-0.365024	0.4545	0.918	0.243	0	194	189	3
2026-02-12	16:57:45.950	-2.73	-45.85	1.295	-0.256932	-0.81984	-0.366732	0.4545	0.921	0.243	0	194	189	3
2026-02-12	16:57:45.970	-1.435	-51.66	-1.96	-0.268156	-0.85034	-0.33184	0.4515	0.9195	0.2415	0	194	189	3
2026-02-12	16:57:45.990	5.845	-55.405	-6.895	-0.239608	-0.86986	-0.30012	0.4575	0.9195	0.2415	0	194	189	3
2026-02-12	16:57:46.010	8.96	-55.545	-11.55	-0.20618	-0.871324	-0.266692	0.4665	0.9195	0.2415	0	194	199	3
2026-02-12	16:57:46.030	6.965	-54.25	-16.415	-0.160552	-0.898896	-0.263032	0.471	0.921	0.2415	0	194	199	3
2026-02-12	16:57:46.050	1.89	-51.8	-18.76	-0.11712	-0.935984	-0.273768	0.4695	0.9225	0.2415	0	194	199	3
2026-02-12	16:57:46.070	-2.625	-49.98	-16.135	-0.092964	-0.976976	-0.277672	0.4665	0.9225	0.2415	0	194	199	3
2026-02-12	16:57:46.090	0.385	-48.37	-10.395	-0.10614	-0.9577	-0.2684	0.4695	0.921	0.2475	0	194	199	3
2026-02-12	16:57:46.110	6.3	-45.325	-5.95	-0.138348	-0.87962	-0.229604	0.4725	0.921	0.2445	0	194	199	3
2026-02-12	16:57:46.130	7.56	-41.02	-3.22	-0.168604	-0.822524	-0.185928	0.474	0.924	0.243	0	194	199	3
2026-02-12	16:57:46.150	5.215	-34.755	-3.255	-0.188124	-0.821304	-0.1586	0.4785	0.924	0.2445	0	194	199	3
2026-02-12	16:57:46.170	4.55	-28.07	-3.115	-0.192272	-0.853024	-0.136152	0.483	0.9225	0.2385	0	194	199	3
2026-02-12	16:57:46.190	5.075	-23.205	-2.31	-0.20984	-0.874008	-0.139324	0.483	0.924	0.2385	0	194	199	3
2026-02-12	16:57:46.210	5.565	-19.145	-2.31	-0.221796	-0.875228	-0.16226	0.4815	0.9255	0.243	0	192	217	3
2026-02-12	16:57:46.230	7.49	-16.94	-2.275	-0.246196	-0.875472	-0.17202	0.4845	0.9225	0.243	0	192	217	3
2026-02-12	16:57:46.250	6.58	-14.7	-2.415	-0.25986	-0.85278	-0.145424	0.486	0.9255	0.2415	0	192	217	3
2026-02-12	16:57:46.270	2.065	-13.825	-2.205	-0.274012	-0.882792	-0.165676	0.489	0.9285	0.237	0	192	217	3
2026-02-12	16:57:46.290	3.08	-13.335	-1.085	-0.269864	-0.907436	-0.155672	0.4905	0.93	0.2325	0	192	217	3
2026-02-12	16:57:46.310	8.155	-12.88	2.975	-0.279624	-0.97722	-0.170312	0.489	0.9285	0.2325	0	192	217	3
2026-02-12	16:57:46.330	13.195	-10.15	6.02	-0.25864	-1.02236	-0.191784	0.4905	0.9255	0.2355	0	192	217	3
2026-02-12	16:57:46.350	12.88	-6.055	6.23	-0.240584	-1.034316	-0.193004	0.4935	0.927	0.2355	0	192	217	3
2026-02-12	16:57:46.370	10.22	-0.805	3.535	-0.222772	-1.01748	-0.181292	0.4905	0.936	0.2355	0	192	217	3
2026-02-12	16:57:46.390	4.935	4.69	-0.84	-0.24278	-1.008452	-0.177144	0.4905	0.933	0.234	0	192	217	3
2026-02-12	16:57:46.410	1.19	9.31	-7.7	-0.27206	-1.018944	-0.192028	0.4905	0.933	0.2325	0	189	222	3
2026-02-12	16:57:46.430	-1.96	12.285	-15.47	-0.242536	-1.076528	-0.22814	0.492	0.9375	0.2295	0	189	222	3
2026-02-12	16:57:46.450	-7.21	16.065	-22.015	-0.176168	-1.139968	-0.233264	0.4905	0.936	0.2265	0	189	222	3
2026-02-12	16:57:46.470	-16.065	17.955	-23.625	-0.081496	-1.214632	-0.245952	0.4845	0.9345	0.2265	0	189	222	3
2026-02-12	16:57:46.490	-16.87	15.96	-19.67	-0.014396	-1.231468	-0.229116	0.4785	0.9345	0.2355	0	189	222	3
2026-02-12	16:57:46.510	1.54	10.85	-2.625	-0.010004	-1.062132	-0.13298	0.474	0.933	0.243	0	189	222	3
2026-02-12	16:57:46.530	10.465	6.65	8.54	-0.033428	-0.914756	-0.076616	0.471	0.93	0.237	0	189	222	3
2026-02-12	16:57:46.550	12.6	5.39	17.78	-0.070516	-0.87352	-0.063196	0.4635	0.933	0.24	0	189	222	3
2026-02-12	16:57:46.570	18.06	8.015	23.8	-0.070272	-0.861808	-0.065636	0.468	0.93	0.231	0	189	222	3
2026-02-12	16:57:46.590	23.065	15.575	23.45	-0.078812	-0.858148	-0.092476	0.4755	0.9345	0.2295	0	189	222	3
2026-02-12	16:57:46.610	25.305	24.815	16.59	-0.083692	-0.884012	-0.157136	0.4815	0.9405	0.2295	0	184	216	3
2026-02-12	16:57:46.630	22.12	34.615	7.175	-0.027328	-0.92842	-0.190564	0.48	0.9405	0.2295	0	184	216	3
2026-02-12	16:57:46.650	17.115	43.505	1.505	-0.030256	-0.918904	-0.154696	0.48	0.9375	0.228	0	184	216	3
2026-02-12	16:57:46.670	1.785	49.56	0.98	-0.068564	-0.931348	-0.148108	0.4785	0.9375	0.2235	0	184	216	3
2026-02-12	16:57:46.690	-6.405	51.87	1.75	-0.135176	-0.89548	-0.137616	0.4785	0.939	0.222	0	184	216	3
2026-02-12	16:57:46.710	-8.715	51.205	2.975	-0.177144	-0.898652	-0.14274	0.468	0.936	0.2265	0	184	216	3
2026-02-12	16:57:46.730	-10.325	49.98	5.145	-0.216916	-0.9089	-0.134932	0.462	0.939	0.213	0	184	216	3
2026-02-12	16:57:46.750	-9.73	48.16	7.875	-0.251076	-0.927932	-0.132004	0.453	0.9435	0.222	0	184	216	3
2026-02-12	16:57:46.770	-8.19	46.935	10.36	-0.281332	-0.902312	-0.11712	0.4605	0.942	0.2205	0	184	216	3
2026-02-12	16:57:46.790	-6.72	45.64	11.48	-0.305732	-0.871324	-0.089304	0.4545	0.945	0.228	0	184	216	3
2026-02-12	16:57:46.810	-5.075	44.625	10.92	-0.323056	-0.84302	-0.078568	0.456	0.9465	0.225	0	179	201	3
2026-02-12	16:57:46.830	-6.79	42.21	9.905	-0.331108	-0.848876	-0.086376	0.4515	0.939	0.2205	0	179	201	3
2026-02-12	16:57:46.850	-6.65	36.155	10.185	-0.347456	-0.902556	-0.081984	0.4455	0.93	0.219	0	179	201	3
2026-02-12	16:57:46.870	-4.76	30.485	10.815	-0.356972	-0.93696	-0.080276	0.447	0.927	0.2265	0	179	201	3
2026-02-12	16:57:46.890	-1.995	23.765	12.81	-0.352336	-0.958432	-0.084424	0.4485	0.936	0.2265	0	179	201	3
2026-02-12	16:57:46.910	1.68	17.675	14.805	-0.359412	-0.96868	-0.09467199	0.4425	0.9315	0.228	0	179	201	3
2026-02-12	16:57:46.930	5.04	10.71	16.73	-0.354532	-0.960628	-0.116876	0.453	0.9345	0.228	0	179	201	3
2026-02-12	16:57:46.950	7.665	4.06	17.64	-0.369416	-0.969412	-0.126636	0.459	0.9375	0.225	0	179	201	3
2026-02-12	16:57:46.970	11.725	-2.625	16.485	-0.362584	-0.98088	-0.127124	0.4485	0.9345	0.2235	0	179	201	3
2026-02-12	16:57:46.990	15.19	-8.47	12.215	-0.362096	-0.991372	-0.13664	0.462	0.9375	0.2175	0	179	201	3
2026-02-12	16:57:47.010	17.01	-12.04	4.515	-0.341356	-1.067744	-0.167628	0.462	0.9375	0.2205	0	175	182	3
2026-02-12	16:57:47.030	19.74	-10.395	-8.12	-0.264252	-1.150948	-0.233264	0.462	0.9375	0.2205	0	175	182	3
2026-02-12	16:57:47.050	11.585	-8.365	-14.525	-0.262544	-1.206824	-0.280356	0.459	0.939	0.2145	0	175	182	3
2026-02-12	16:57:47.070	1.085	-8.645	-20.58	-0.249124	-1.226588	-0.301096	0.4545	0.9435	0.2205	0	175	182	3
2026-02-12	16:57:47.090	-9.1	-10.22	-23.415	-0.244	-1.233908	-0.300852	0.4515	0.951	0.216	0	175	182	3
2026-02-12	16:57:47.110	-13.09	-13.86	-21.21	-0.216184	-1.208532	-0.289872	0.4515	0.936	0.213	0	175	182	3
2026-02-12	16:57:47.130	-10.08	-19.46	-14.14	-0.211548	-1.107516	-0.276208	0.444	0.939	0.2205	0	175	182	3
2026-02-12	16:57:47.150	-3.395	-26.145	-4.795	-0.220088	-1.001864	-0.25132	0.4545	0.936	0.213	0	175	182	3
2026-02-12	16:57:47.170	6.65	-31.57	2.835	-0.236436	-0.899872	-0.224236	0.4425	0.942	0.219	0	175	182	3
2026-02-12	16:57:47.190	13.16	-35.35	6.02	-0.258884	-0.831064	-0.213744	0.456	0.939	0.2175	0	175	182	3
2026-02-12	16:57:47.210	14.175	-38.255	3.745	-0.251076	-0.83326	-0.20008	0.45	0.936	0.219	0	172	176	3
2026-02-12	16:57:47.230	11.935	-38.43	-1.015	-0.242292	-0.869128	-0.183	0.4545	0.942	0.222	0	172	176	3
2026-02-12	16:57:47.250	7.49	-33.88	-11.725	-0.199836	-0.912072	-0.181048	0.4605	0.948	0.225	0	172	176	3
2026-02-12	16:57:47.270	1.855	-30.205	-16.94	-0.152256	-0.956236	-0.213256	0.453	0.9435	0.216	0	172	176	3
2026-02-12	16:57:47.290	-4.725	-27.72	-18.165	-0.11834	-1.009428	-0.253516	0.4575	0.945	0.213	0	172	176	3
2026-02-12	16:57:47.310	-5.425	-27.3	-15.995	-0.112728	-1.000156	-0.266936	0.4605	0.942	0.222	0	172	176	3
2026-02-12	16:57:47.330	-0.455	-28.77	-11.69	-0.134688	-0.954772	-0.245708	0.4635	0.9405	0.213	0	172	176	3
2026-02-12	16:57:47.350	3.955	-29.785	-7.805	-0.156648	-0.894016	-0.197152	0.453	0.936	0.2175	0	172	176	3
2026-02-12	16:57:47.370	6.44	-29.435	-5.495	-0.18056	-0.864004	-0.149816	0.4515	0.9375	0.2145	0	172	176	3
2026-02-12	16:57:47.390	8.12	-27.44	-4.83	-0.19886	-0.822768	-0.111264	0.456	0.939	0.213	0	172	176	3
2026-02-12	16:57:47.410	7.35	-24.465	-4.62	-0.215452	-0.813984	-0.083692	0.456	0.9375	0.216	0	169	181	3
2026-02-12	16:57:47.430	5.495	-20.93	-5.215	-0.233264	-0.791536	-0.063196	0.4545	0.939	0.2145	0	169	181	3
2026-02-12	16:57:47.450	1.855	-18.095	-5.705	-0.251076	-0.807396	-0.072712	0.459	0.9375	0.2115	0	169	181	3
2026-02-12	16:57:47.470	-2.45	-15.225	-6.79	-0.283772	-0.84668	-0.111752	0.465	0.9375	0.21	0	169	181	3
2026-02-12	16:57:47.490	-3.745	-14.735	-7.315	-0.296948	-0.883524	-0.132004	0.4605	0.948	0.2205	0	169	181	3
2026-02-12	16:57:47.510	-3.115	-14.945	-7.07	-0.297192	-0.92598	-0.138836	0.4605	0.942	0.207	0	169	181	3
2026-02-12	16:57:47.530	0.28	-16.345	-5.46	-0.29768	-0.958676	-0.13664	0.4605	0.93	0.213	0	169	181	3
2026-02-12	16:57:47.550	5.215	-17.85	-2.66	-0.287188	-0.988444	-0.128832	0.4635	0.9375	0.2175	0	169	181	3
2026-02-12	16:57:47.570	11.76	-18.585	0.21	-0.26718	-1.022116	-0.113216	0.4575	0.9375	0.216	0	169	181	3
2026-02-12	16:57:47.590	17.99	-17.465	2.8	-0.240584	-1.0492	-0.102968	0.4605	0.9285	0.2115	0	169	181	3
2026-02-12	16:57:47.610	21.98	-13.86	3.57	-0.21228	-1.069696	-0.105408	0.4635	0.9435	0.204	0	166	181	3
2026-02-12	16:57:47.630	23.205	-8.05	1.505	-0.18422	-1.064572	-0.109556	0.4545	0.942	0.1995	0	166	181	3
2026-02-12	16:57:47.650	20.23	-0.98	-2.625	-0.180316	-1.038708	-0.115656	0.4605	0.9435	0.204	0	166	181	3
2026-02-12	16:57:47.670	12.565	5.915	-7.98	-0.180804	-1.067988	-0.12932	0.465	0.9435	0.2025	0	166	181	3
2026-02-12	16:57:47.690	4.76	15.4	-16.8	-0.155672	-1.1468	-0.167384	0.4635	0.9435	0.1965	0	166	181	3
2026-02-12	16:57:47.710	0.35	21	-21.385	-0.12322	-1.215608	-0.192516	0.447	0.933	0.201	0	166	181	3
2026-02-12	16:57:47.730	-5.04	24.15	-23.835	-0.065392	-1.262456	-0.203984	0.465	0.9435	0.2055	0	166	181	3
2026-02-12	16:57:47.750	-6.195	23.52	-19.67	-0.029768	-1.20902	-0.169336	0.447	0.936	0.1995	0	166	181	3
2026-02-12	16:57:47.770	-4.865	19.005	-9.835	-0.036112	-1.065548	-0.093452	0.4425	0.9465	0.204	0	166	181	3
2026-02-12	16:57:47.790	1.61	12.565	1.295	-0.088572	-0.93452	-0.0305	0.438	0.9315	0.2025	0	166	181	3
2026-02-12	16:57:47.810	12.6	7.42	10.15	-0.152988	-0.821304	-0.00244	0.438	0.939	0.1935	0	164	172	3
2026-02-12	16:57:47.830	18.375	6.02	14.315	-0.16836	-0.808372	-0.000244	0.4425	0.939	0.204	0	164	172	3
2026-02-12	16:57:47.850	17.605	8.505	14.875	-0.148596	-0.81862	-0.002196	0.4485	0.942	0.2055	0	164	172	3
2026-02-12	16:57:47.870	9.38	13.825	11.095	-0.122488	-0.868884	-0.024644	0.441	0.942	0.201	0	164	172	3
2026-02-12	16:57:47.890	-2.59	21.14	5.635	-0.094184	-0.909144	-0.084912	0.438	0.9465	0.195	0	164	172	3
2026-02-12	16:57:47.910	-18.83	28.98	4.76	-0.06954	-0.976	-0.165432	0.441	0.9495	0.1935	0	164	172	3
2026-02-12	16:57:47.930	-22.75	29.54	7.105	-0.08418	-0.987468	-0.20008	0.4335	0.945	0.1965	0	164	172	3
2026-02-12	16:57:47.950	-18.69	27.125	10.955	-0.139568	-0.949648	-0.190564	0.444	0.942	0.204	0	164	172	3
2026-02-12	16:57:47.970	-13.79	22.855	14.35	-0.185196	-0.916708	-0.163968	0.4335	0.945	0.201	0	164	172	3
2026-02-12	16:57:47.990	-12.95	20.02	17.01	-0.22448	-0.893772	-0.108092	0.4395	0.936	0.2025	0	164	172	3
2026-02-12	16:57:48.010	-14	18.55	18.34	-0.248148	-0.8784	-0.056608	0.45	0.9375	0.198	0	162	156	3
2026-02-12	16:57:48.030	-14.63	18.095	18.585	-0.280844	-0.874496	-0.020496	0.441	0.945	0.2055	0	162	156	3
2026-02-12	16:57:48.050	-13.65	18.095	17.675	-0.303048	-0.863516	-0.000976	0.4395	0.9345	0.2085	0	162	156	3
2026-02-12	16:57:48.070	-12.915	18.2	15.33	-0.322324	-0.847168	-0.005612	0.4395	0.933	0.216	0	162	156	3
2026-02-12	16:57:48.090	-11.9	17.325	12.25	-0.359656	-0.835456	-0.010004	0.4425	0.936	0.216	0	162	156	3
2026-02-12	16:57:48.110	-10.99	14.525	8.715	-0.36722	-0.86254	-0.001952	0.444	0.936	0.213	0	162	156	3
2026-02-12	16:57:48.130	-6.16	8.435	4.305	-0.37332	-0.935252	-0.01708	0.444	0.933	0.2115	0	162	156	3
2026-02-12	16:57:48.150	-2.485	5.075	1.82	-0.360632	-0.975512	-0.03538	0.444	0.933	0.2115	0	162	156	3
2026-02-12	16:57:48.170	0.805	1.925	0.455	-0.3538	-0.985272	-0.069296	0.4365	0.927	0.219	0	162	156	3
2026-02-12	16:57:48.190	6.02	-1.295	0.42	-0.339648	-0.949648	-0.083204	0.4395	0.927	0.213	0	162	156	3
2026-02-12	16:57:48.210	8.4	-5.11	2.45	-0.304512	-0.925492	-0.063684	0.438	0.933	0.216	0	161	137	3
2026-02-12	16:57:48.230	4.865	-7.56	4.2	-0.315736	-0.95648	-0.099308	0.4455	0.936	0.2145	0	161	137	3
2026-02-12	16:57:48.250	1.12	-7.98	3.535	-0.309636	-0.981612	-0.101992	0.4335	0.933	0.219	0	161	137	3
2026-02-12	16:57:48.270	-1.855	-7.21	1.785	-0.305732	-1.020896	-0.150304	0.4425	0.9285	0.213	0	161	137	3
2026-02-12	16:57:48.290	-1.855	-6.23	-0.77	-0.274988	-1.097512	-0.17324	0.444	0.927	0.216	0	161	137	3
2026-02-12	16:57:48.310	1.575	-3.85	-4.515	-0.24644	-1.144116	-0.206912	0.4455	0.9255	0.222	0	161	137	3
2026-02-12	16:57:48.330	-2.17	-1.33	-8.645	-0.216672	-1.158268	-0.227408	0.444	0.927	0.222	0	161	137	3
2026-02-12	16:57:48.350	-12.145	4.2	-15.225	-0.210328	-1.14436	-0.208376	0.444	0.93	0.222	0	161	137	3
2026-02-12	16:57:48.370	-18.06	8.47	-20.51	-0.227896	-1.100928	-0.192516	0.444	0.93	0.222	0	161	137	3
2026-02-12	16:57:48.390	-27.405	9.1	-23.345	-0.180804	-1.123864	-0.20496	0.432	0.927	0.234	0	161	137	3
2026-02-12	16:57:48.410	-35.56	5.425	-19.74	-0.162016	-1.078236	-0.228628	0.429	0.921	0.2355	0	160	126	3
2026-02-12	16:57:48.430	-33.075	-3.815	-11.585	-0.175192	-1.080188	-0.244732	0.4275	0.9165	0.2475	0	160	126	3
2026-02-12	16:57:48.450	-10.99	-14.665	-1.96	-0.222284	-0.999668	-0.210816	0.426	0.918	0.2445	0	160	126	3
2026-02-12	16:57:48.470	5.46	-24.01	2.695	-0.234484	-0.925248	-0.169336	0.4365	0.921	0.234	0	160	126	3
2026-02-12	16:57:48.490	9.345	-31.01	1.05	-0.268644	-0.894504	-0.183732	0.432	0.921	0.246	0	160	126	3
2026-02-12	16:57:48.510	8.015	-34.44	-5.6	-0.25376	-0.887428	-0.176412	0.432	0.9165	0.2385	0	160	126	3
2026-02-12	16:57:48.530	2.835	-36.26	-13.405	-0.221552	-0.9333	-0.182268	0.4335	0.9135	0.2355	0	160	126	3
2026-02-12	16:57:48.550	1.855	-36.785	-18.48	-0.172508	-0.986492	-0.198616	0.438	0.918	0.2385	0	160	126	3
2026-02-12	16:57:48.570	-4.55	-36.365	-20.16	-0.142252	-1.021628	-0.250588	0.441	0.9225	0.24	0	160	126	3
2026-02-12	16:57:48.590	-9.275	-36.89	-19.985	-0.147376	-1.021384	-0.2989	0.441	0.9225	0.24	0	160	126	3
2026-02-12	16:57:48.610	-4.795	-38.57	-16.87	-0.159576	-0.991616	-0.277672	0.4365	0.9075	0.2445	0	158	132	3
2026-02-12	16:57:48.630	3.43	-41.23	-11.9	-0.195932	-0.894016	-0.228872	0.4455	0.9165	0.2505	0	158	132	3
2026-02-12	16:57:48.650	10.43	-41.405	-9.415	-0.223748	-0.820572	-0.17446	0.447	0.9165	0.255	0	158	132	3
2026-02-12	16:57:48.670	13.23	-40.425	-8.61	-0.22814	-0.780068	-0.11224	0.4485	0.9135	0.2535	0	158	132	3
2026-02-12	16:57:48.690	12.25	-37.135	-8.715	-0.2318	-0.779092	-0.070028	0.4545	0.9135	0.252	0	158	132	3
2026-02-12	16:57:48.710	8.085	-31.745	-9.38	-0.226676	-0.825208	-0.04392	0.45	0.912	0.2475	0	158	132	3
2026-02-12	16:57:48.730	3.29	-25.34	-10.675	-0.222284	-0.856196	-0.073932	0.45	0.9105	0.243	0	158	132	3
2026-02-12	16:57:48.750	3.71	-20.51	-11.235	-0.187392	-0.856684	-0.101504	0.4575	0.909	0.2445	0	158	132	3
2026-02-12	16:57:48.770	1.61	-17.605	-6.23	-0.200568	-0.884012	-0.12444	0.459	0.915	0.2475	0	158	132	3
2026-02-12	16:57:48.790	-2.73	-14.385	-3.465	-0.212036	-0.91866	-0.120048	0.456	0.921	0.2505	0	158	132	3
2026-02-12	16:57:48.810	-3.535	-11.585	-2.625	-0.215696	-0.955992	-0.116144	0.456	0.921	0.2505	0	156	144	3
2026-02-12	16:57:48.830	1.12	-11.06	-0.105	-0.239608	-0.971852	-0.116388	0.456	0.9135	0.2445	0	156	144	3
2026-02-12	16:57:48.850	4.9	-13.3	3.745	-0.20496	-0.986248	-0.129564	0.468	0.9135	0.2445	0	156	144	3
2026-02-12	16:57:48.870	6.02	-14.455	8.225	-0.2135	-1.039684	-0.155428	0.4605	0.918	0.2535	0	156	144	3
2026-02-12	16:57:48.890	8.61	-12.985	8.33	-0.19398	-1.028216	-0.172264	0.4605	0.906	0.2505	0	156	144	3
2026-02-12	16:57:48.910	9.45	-8.785	5.25	-0.177876	-1.021384	-0.157624	0.4665	0.9135	0.246	0	156	144	3
2026-02-12	16:57:48.930	4.2	-2.38	1.12	-0.176656	-0.96624	-0.116632	0.4665	0.912	0.243	0	156	144	3
2026-02-12	16:57:48.950	-6.23	5.985	-3.92	-0.225212	-0.985028	-0.127124	0.468	0.912	0.24	0	156	144	3
2026-02-12	16:57:48.970	-15.645	14.455	-10.22	-0.195688	-1.069208	-0.172752	0.471	0.9135	0.234	0	156	144	3
2026-02-12	16:57:48.990	-25.76	23.135	-14.945	-0.125416	-1.251232	-0.266936	0.4725	0.9105	0.237	0	156	144	3
2026-02-12	16:57:49.010	-28	27.615	-13.825	-0.016836	-1.326628	-0.30134	0.4725	0.909	0.246	0	153	149	3
2026-02-12	16:57:49.030	-16.38	23.59	-5.11	0.029768	-1.20536	-0.203008	0.4725	0.909	0.246	0	153	149	3
2026-02-12	16:57:49.050	-3.36	17.99	7.735	-0.005612	-0.99552	-0.104676	0.4695	0.9075	0.2475	0	153	149	3
2026-02-12	16:57:49.070	7.385	12.215	18.515	-0.072956	-0.84424	-0.04758	0.459	0.906	0.249	0	153	149	3
2026-02-12	16:57:49.090	11.2	10.465	24.815	-0.110288	-0.804712	-0.023912	0.4635	0.9075	0.2475	0	153	149	3
2026-02-12	16:57:49.110	11.165	13.58	27.405	-0.137128	-0.836188	-0.047336	0.462	0.9105	0.2475	0	153	149	3
2026-02-12	16:57:49.130	7.455	19.95	23.52	-0.123952	-0.914268	-0.078568	0.471	0.9045	0.252	0	153	149	3
2026-02-12	16:57:49.150	3.185	28.49	15.33	-0.06466	-1.00528	-0.111752	0.471	0.9045	0.2475	0	153	149	3
2026-02-12	16:57:49.170	-4.585	37.765	9.905	-0.0305	-0.991372	-0.12566	0.4725	0.9075	0.24	0	153	149	3
2026-02-12	16:57:49.190	-13.825	43.26	8.435	-0.037332	-0.9943	-0.143472	0.471	0.9135	0.2415	0	153	149	3
2026-02-12	16:57:49.210	-14.63	44.835	8.89	-0.0854	-0.963556	-0.152988	0.4695	0.912	0.2475	0	151	149	3
2026-02-12	16:57:49.230	-10.185	42.385	9.94	-0.157624	-0.916952	-0.158844	0.471	0.909	0.2505	0	151	149	3
2026-02-12	16:57:49.250	-10.99	38.675	8.89	-0.206668	-0.925004	-0.146888	0.471	0.909	0.2505	0	151	149	3
2026-02-12	16:57:49.270	-11.06	35.315	7.665	-0.227652	-0.933544	-0.114192	0.4605	0.9195	0.243	0	151	149	3
2026-02-12	16:57:49.290	-7.35	32.725	7.98	-0.24278	-0.91012	-0.073444	0.456	0.9075	0.2475	0	151	149	3
2026-02-12	16:57:49.310	-3.465	30.59	8.295	-0.264008	-0.870104	-0.058804	0.4605	0.912	0.2475	0	151	149	3
2026-02-12	16:57:49.330	-1.82	29.05	7.21	-0.277672	-0.841068	-0.04758	0.4605	0.906	0.2445	0	151	149	3
2026-02-12	16:57:49.350	-2.73	27.405	5.635	-0.28792	-0.835944	-0.045384	0.4635	0.9105	0.2445	0	151	149	3
2026-02-12	16:57:49.370	-2.87	25.025	4.655	-0.277184	-0.866444	-0.05612	0.4635	0.9135	0.2505	0	151	149	3
2026-02-12	16:57:49.390	0.595	22.365	5.005	-0.290116	-0.9028	-0.059048	0.456	0.915	0.2535	0	151	149	3
2026-02-12	16:57:49.410	3.5	19.25	6.265	-0.292312	-0.918416	-0.067588	0.453	0.912	0.2475	0	149	143	3
2026-02-12	16:57:49.430	4.445	15.89	8.12	-0.298412	-0.941108	-0.087108	0.453	0.9105	0.246	0	149	143	3
2026-02-12	16:57:49.450	7.945	11.2	11.41	-0.304268	-0.955748	-0.097844	0.4545	0.9105	0.2445	0	149	143	3
2026-02-12	16:57:49.470	10.01	6.79	14.7	-0.315492	-0.96258	-0.123464	0.456	0.9075	0.2415	0	149	143	3
2026-02-12	16:57:49.490	9.59	4.41	15.05	-0.334524	-0.987712	-0.143716	0.4515	0.906	0.2415	0	149	143	3
2026-02-12	16:57:49.510	8.19	2.485	13.65	-0.333792	-1.01504	-0.168848	0.462	0.921	0.237	0	149	143	3
2026-02-12	16:57:49.530	4.655	1.19	9.87	-0.336964	-1.061156	-0.2135	0.4605	0.915	0.234	0	149	143	3
2026-02-12	16:57:49.550	-0.07	1.05	3.64	-0.344528	-1.155096	-0.262544	0.471	0.918	0.2385	0	149	143	3
2026-02-12	16:57:49.570	-1.26	3.325	-4.655	-0.283284	-1.288076	-0.304756	0.4635	0.9195	0.237	0	149	143	3
2026-02-12	16:57:49.590	-4.655	7.805	-12.145	-0.221308	-1.317356	-0.332084	0.459	0.918	0.237	0	149	143	3
2026-02-12	16:57:49.610	-11.06	7.56	-16.555	-0.161284	-1.250988	-0.329644	0.465	0.921	0.2355	0	148	138	3
2026-02-12	16:57:49.630	-16.24	3.675	-14.875	-0.145668	-1.159732	-0.318664	0.4635	0.924	0.2325	0	148	138	3
2026-02-12	16:57:49.650	-14.035	-3.08	-10.745	-0.150548	-1.064572	-0.289628	0.456	0.924	0.234	0	148	138	3
2026-02-12	16:57:49.670	0	-13.37	-0.56	-0.188856	-0.952576	-0.236192	0.4515	0.9225	0.237	0	148	138	3
2026-02-12	16:57:49.690	11.27	-21.91	4.69	-0.232776	-0.82594	-0.209596	0.453	0.9195	0.24	0	148	138	3
2026-02-12	16:57:49.710	14.035	-28.21	2.975	-0.25254	-0.805688	-0.219112	0.456	0.9255	0.2385	0	148	138	3
2026-02-12	16:57:49.730	13.475	-31.745	-2.065	-0.230092	-0.84546	-0.215696	0.4635	0.924	0.24	0	148	138	3
2026-02-12	16:57:49.750	12.04	-31.815	-8.96	-0.221308	-0.894504	-0.21838	0.465	0.921	0.234	0	148	138	3
2026-02-12	16:57:49.770	11.655	-30.03	-15.61	-0.210328	-0.902556	-0.217404	0.4635	0.9285	0.2325	0	148	138	3
2026-02-12	16:57:49.790	4.83	-27.335	-20.265	-0.179584	-0.958676	-0.258396	0.465	0.936	0.2295	0	148	138	3
2026-02-12	16:57:49.810	-3.92	-25.515	-20.755	-0.137128	-1.039928	-0.307196	0.468	0.933	0.2265	0	148	151	3
2026-02-12	16:57:49.830	-1.925	-25.725	-17.745	-0.136396	-1.028948	-0.313296	0.4695	0.927	0.231	0	148	151	3
2026-02-12	16:57:49.850	4.48	-27.86	-12.005	-0.160552	-0.946476	-0.282796	0.468	0.9255	0.2325	0	148	151	3
2026-02-12	16:57:49.870	8.68	-29.89	-6.58	-0.199836	-0.863516	-0.226188	0.4695	0.927	0.2235	0	148	151	3
2026-02-12	16:57:49.890	12.46	-30.065	-4.55	-0.240584	-0.81008	-0.157624	0.474	0.9315	0.2265	0	148	151	3
2026-02-12	16:57:49.910	12.39	-28.42	-6.02	-0.2562	-0.798124	-0.11712	0.4755	0.9345	0.234	0	148	151	3
2026-02-12	16:57:49.930	8.995	-25.9	-8.085	-0.253516	-0.82106	-0.101504	0.471	0.9405	0.2325	0	148	151	3
2026-02-12	16:57:49.950	4.83	-23.38	-10.08	-0.245952	-0.849852	-0.11468	0.4815	0.9465	0.2265	0	148	151	3
2026-02-12	16:57:49.970	4.06	-21.28	-10.5	-0.244	-0.894992	-0.1159	0.4815	0.942	0.2325	0	148	151	3
2026-02-12	16:57:49.990	5.915	-19.355	-9.8	-0.247416	-0.902312	-0.122244	0.477	0.939	0.2265	0	148	151	3
2026-02-12	16:57:50.010	6.16	-17.71	-7.42	-0.253272	-0.88816	-0.131516	0.4725	0.936	0.222	0	149	169	3
2026-02-12	16:57:50.030	4.095	-16.765	-5.95	-0.253516	-0.892308	-0.122732	0.477	0.939	0.2265	0	149	169	3
2026-02-12	16:57:50.050	3.15	-16.205	-3.15	-0.251564	-0.910364	-0.120292	0.4785	0.945	0.225	0	149	169	3
2026-02-12	16:57:50.070	6.16	-15.995	0.84	-0.247172	-0.942328	-0.119804	0.4785	0.948	0.2175	0	149	169	3
2026-02-12	16:57:50.090	9.415	-15.015	4.865	-0.255224	-0.984052	-0.133712	0.4845	0.9465	0.2175	0	149	169	3
2026-02-12	16:57:50.110	12.075	-11.235	7.84	-0.236924	-1.038464	-0.14152	0.4845	0.9495	0.219	0	149	169	3
2026-02-12	16:57:50.130	11.235	-4.375	7.315	-0.20496	-1.074576	-0.146888	0.483	0.954	0.2205	0	149	169	3
2026-02-12	16:57:50.150	8.435	2.45	5.075	-0.20496	-1.066768	-0.15372	0.4875	0.9525	0.222	0	149	169	3
2026-02-12	16:57:50.170	4.025	9.415	1.19	-0.209108	-1.076284	-0.161528	0.4845	0.945	0.219	0	149	169	3
2026-02-12	16:57:50.190	0.875	15.715	-4.41	-0.187636	-1.114592	-0.169824	0.483	0.96	0.2145	0	149	169	3
2026-02-12	16:57:50.210	-4.305	21.805	-10.535	-0.147376	-1.189012	-0.199104	0.486	0.954	0.216	0	150	174	3
2026-02-12	16:57:50.230	-10.045	26.355	-13.825	-0.065148	-1.272216	-0.21106	0.4815	0.948	0.2175	0	150	174	3
2026-02-12	16:57:50.250	-10.885	28.14	-12.25	-0.021228	-1.233664	-0.185684	0.4785	0.9525	0.219	0	150	174	3
2026-02-12	16:57:50.270	-8.645	27.125	-5.04	-0.016592	-1.083604	-0.091744	0.48	0.9555	0.2175	0	150	174	3
2026-02-12	16:57:50.290	-1.925	23.555	6.265	-0.063928	-0.921344	-0.032452	0.471	0.954	0.219	0	150	174	3
2026-02-12	16:57:50.310	6.755	19.88	15.75	-0.122488	-0.837164	-0.027084	0.468	0.951	0.219	0	150	174	3
2026-02-12	16:57:50.330	15.19	20.475	20.44	-0.139812	-0.85644	-0.033672	0.4695	0.9555	0.2145	0	150	174	3
2026-02-12	16:57:50.350	18.095	24.71	17.85	-0.106628	-0.903044	-0.044652	0.468	0.9615	0.213	0	150	174	3
2026-02-12	16:57:50.370	11.55	31.605	9.065	-0.073688	-0.953796	-0.076128	0.48	0.954	0.213	0	150	174	3
2026-02-12	16:57:50.390	-1.365	39.62	3.29	-0.037332	-0.98088	-0.119316	0.4755	0.9645	0.207	0	150	174	3
2026-02-12	16:57:50.410	-10.22	44.765	3.29	-0.04636	-0.975024	-0.140788	0.477	0.9645	0.207	0	150	168	3
2026-02-12	16:57:50.430	-11.9	46.34	5.95	-0.10736	-0.930616	-0.160064	0.471	0.966	0.2145	0	150	168	3
2026-02-12	16:57:50.450	-9.415	45.395	8.785	-0.157624	-0.913292	-0.183244	0.4635	0.9615	0.216	0	150	168	3
2026-02-12	16:57:50.470	-6.405	43.645	12.11	-0.215208	-0.89426	-0.181048	0.4665	0.957	0.2115	0	150	168	3
2026-02-12	16:57:50.490	-4.445	40.985	14.245	-0.249368	-0.866444	-0.149572	0.4695	0.9525	0.2115	0	150	168	3
2026-02-12	16:57:50.510	-3.85	39.06	15.015	-0.269376	-0.842532	-0.105164	0.465	0.9525	0.2115	0	150	168	3
2026-02-12	16:57:50.530	-4.48	38.045	13.93	-0.2806	-0.815692	-0.074664	0.4635	0.9555	0.2145	0	150	168	3
2026-02-12	16:57:50.550	-7	37.73	11.445	-0.301096	-0.804468	-0.053924	0.4665	0.9555	0.2145	0	150	168	3
2026-02-12	16:57:50.570	-13.265	35.28	6.405	-0.323544	-0.812764	-0.040016	0.4665	0.957	0.213	0	150	168	3
2026-02-12	16:57:50.590	-13.93	31.92	3.43	-0.326716	-0.840092	-0.042212	0.459	0.96	0.216	0	150	168	3
2026-02-12	16:57:50.610	-12.81	26.915	1.05	-0.342332	-0.87474	-0.048068	0.4665	0.9555	0.2235	0	150	156	3
2026-02-12	16:57:50.630	-10.815	20.58	0	-0.34282	-0.915	-0.055876	0.459	0.957	0.2175	0	150	156	3
2026-02-12	16:57:50.650	-8.05	13.86	0.245	-0.33916	-0.963068	-0.072224	0.4545	0.957	0.216	0	150	156	3
2026-02-12	16:57:50.670	-5.215	8.225	1.575	-0.332328	-0.968192	-0.085156	0.456	0.9555	0.222	0	150	156	3
2026-02-12	16:57:50.690	-1.575	3.115	4.025	-0.330864	-0.966728	-0.11712	0.4515	0.9555	0.222	0	150	156	3
2026-02-12	16:57:50.710	2.24	-0.91	6.615	-0.349652	-0.971364	-0.145668	0.4515	0.957	0.219	0	150	156	3
2026-02-12	16:57:50.730	5.355	-4.025	6.86	-0.350872	-0.979416	-0.17568	0.456	0.9585	0.219	0	150	156	3
2026-02-12	16:57:50.750	5.425	-6.825	4.305	-0.364048	-0.993812	-0.238632	0.456	0.9645	0.2205	0	150	156	3
2026-02-12	16:57:50.770	1.575	-9.59	-1.995	-0.351604	-1.049932	-0.283284	0.456	0.9645	0.219	0	150	156	3
2026-02-12	16:57:50.790	-5.88	-10.57	-17.08	-0.305488	-1.253672	-0.330376	0.456	0.96	0.219	0	150	156	3
2026-02-12	16:57:50.810	-8.26	-9.45	-23.975	-0.239364	-1.336876	-0.309392	0.4665	0.9585	0.2175	0	151	146	3
2026-02-12	16:57:50.830	-14.35	-8.365	-29.575	-0.223992	-1.311256	-0.296704	0.462	0.966	0.222	0	151	146	3
2026-02-12	16:57:50.850	-19.81	-9.52	-33.215	-0.17934	-1.230736	-0.266204	0.4605	0.9615	0.222	0	151	146	3
2026-02-12	16:57:50.870	-25.585	-13.44	-30.1	-0.149328	-1.158268	-0.235216	0.453	0.9525	0.222	0	151	146	3
2026-02-12	16:57:50.890	-17.115	-22.82	-19.39	-0.124684	-1.086288	-0.237168	0.447	0.9525	0.2265	0	151	146	3
2026-02-12	16:57:50.910	2.24	-32.9	-5.04	-0.145424	-0.986004	-0.230336	0.447	0.954	0.228	0	151	146	3
2026-02-12	16:57:50.930	13.405	-41.3	2.17	-0.203496	-0.880352	-0.258152	0.447	0.9525	0.222	0	151	146	3
2026-02-12	16:57:50.950	20.02	-48.37	2.24	-0.228628	-0.835456	-0.26108	0.453	0.9525	0.2235	0	151	146	3
2026-02-12	16:57:50.970	19.25	-51.17	-3.255	-0.222284	-0.851316	-0.247172	0.453	0.957	0.2235	0	151	146	3
2026-02-12	16:57:50.990	13.335	-49.91	-10.85	-0.199592	-0.851316	-0.210572	0.45	0.957	0.219	0	151	146	3
2026-02-12	16:57:51.010	1.995	-46.725	-20.37	-0.159088	-0.890356	-0.235948	0.4515	0.957	0.2175	0	153	155	3
2026-02-12	16:57:51.030	-9.205	-45.045	-20.755	-0.107116	-1.000156	-0.27328	0.4635	0.9585	0.225	0	153	155	3
2026-02-12	16:57:51.050	-14.98	-43.575	-17.15	-0.088572	-1.043832	-0.303292	0.4635	0.96	0.225	0	153	155	3
2026-02-12	16:57:51.070	-9.205	-42.175	-11.445	-0.122488	-0.955748	-0.31476	0.459	0.9585	0.2265	0	153	155	3
2026-02-12	16:57:51.090	-2.03	-41.405	-6.405	-0.151524	-0.876204	-0.293532	0.456	0.96	0.2265	0	153	155	3
2026-02-12	16:57:51.110	3.78	-39.83	-3.395	-0.183	-0.81984	-0.247416	0.4575	0.96	0.2265	0	153	155	3
2026-02-12	16:57:51.130	4.27	-37.275	-3.605	-0.201056	-0.776408	-0.202276	0.459	0.96	0.2235	0	153	155	3
2026-02-12	16:57:51.150	0.84	-34.65	-5.285	-0.20862	-0.784216	-0.17568	0.462	0.96	0.225	0	153	155	3
2026-02-12	16:57:51.170	-0.665	-32.095	-6.58	-0.208864	-0.819108	-0.155916	0.4605	0.954	0.2265	0	153	155	3
2026-02-12	16:57:51.190	1.015	-29.47	-7.42	-0.216428	-0.83814	-0.153476	0.462	0.9585	0.222	0	153	155	3
2026-02-12	16:57:51.210	1.89	-26.74	-7.945	-0.222284	-0.849608	-0.147376	0.465	0.963	0.222	0	156	174	3
2026-02-12	16:57:51.230	-2.345	-23.52	-8.19	-0.237412	-0.888404	-0.180804	0.468	0.963	0.225	0	156	174	3
2026-02-12	16:57:51.250	-4.13	-22.47	-7.455	-0.233752	-0.912804	-0.18666	0.477	0.963	0.222	0	156	174	3
2026-02-12	16:57:51.270	-2.17	-21.56	-5.95	-0.230336	-0.945744	-0.196908	0.474	0.969	0.222	0	156	174	3
2026-02-12	16:57:51.290	2.835	-21.455	-1.785	-0.224236	-0.978684	-0.189832	0.471	0.963	0.2205	0	156	174	3
2026-02-12	16:57:51.310	7.98	-20.93	3.255	-0.227408	-1.011624	-0.172996	0.468	0.954	0.219	0	156	174	3
2026-02-12	16:57:51.330	11.62	-18.83	7.245	-0.219356	-1.06506	-0.156892	0.465	0.9555	0.2205	0	156	174	3
2026-02-12	16:57:51.350	14.805	-14.28	8.54	-0.206668	-1.092388	-0.1586	0.4695	0.957	0.222	0	156	174	3
2026-02-12	16:57:51.370	14.175	-7	5.845	-0.198128	-1.076772	-0.180072	0.468	0.9615	0.219	0	156	174	3
2026-02-12	16:57:51.390	10.325	1.365	-0.49	-0.203252	-1.070428	-0.191296	0.468	0.9615	0.216	0	156	174	3
2026-02-12	16:57:51.410	2.205	10.57	-9.205	-0.172264	-1.100196	-0.163968	0.4695	0.96	0.213	0	157	187	3
2026-02-12	16:57:51.430	-9.065	18.375	-18.2	-0.111508	-1.166564	-0.172996	0.471	0.963	0.2145	0	157	187	3
2026-02-12	16:57:51.450	-20.125	23.8	-20.965	-0.010248	-1.301008	-0.227652	0.474	0.966	0.2175	0	157	187	3
2026-02-12	16:57:51.470	-15.925	22.47	-15.505	0.027328	-1.24928	-0.182756	0.465	0.966	0.219	0	157	187	3
2026-02-12	16:57:51.490	-6.51	19.705	-5.88	-0.019276	-1.075064	-0.118584	0.456	0.963	0.222	0	157	187	3
2026-02-12	16:57:51.510	2.695	15.365	5.355	-0.071492	-0.895236	-0.067588	0.456	0.957	0.2235	0	157	187	3
2026-02-12	16:57:51.530	6.93	12.285	15.155	-0.100772	-0.830576	-0.053436	0.453	0.9555	0.2205	0	157	187	3
2026-02-12	16:57:51.550	12.88	12.565	22.4	-0.135908	-0.827648	-0.084424	0.4545	0.957	0.216	0	157	187	3
2026-02-12	16:57:51.570	17.92	16.1	25.165	-0.134444	-0.860344	-0.101748	0.456	0.9585	0.219	0	157	187	3
2026-02-12	16:57:51.590	18.27	23.03	22.995	-0.105408	-0.921344	-0.126636	0.453	0.9615	0.216	0	157	187	3
