yyyy-MM-dd	HH:mm:ss.fff	gyrX	gyrY	gyrZ	accX	accY	accZ	magX	magY	magZ	Marker	Energy	Angle	Classification
2026-02-12	16:57:20.610	-10.71	4.235	-3.99	0.952088	0.203252	0.134932	-0.2415	0.072	0.4845	0	70	172	3
2026-02-12	16:57:20.630	-9.24	3.5	-4.165	0.94916	0.20008	0.125904	-0.2415	0.0795	0.486	0	70	172	3
2026-02-12	16:57:20.650	-7.455	2.765	-4.305	0.956236	0.210816	0.1281	-0.24	0.0795	0.483	0	70	172	3
2026-02-12	16:57:20.670	-6.93	1.75	-3.675	0.97234	0.21716	0.128344	-0.234	0.075	0.483	0	70	172	3
2026-02-12	16:57:20.690	-6.405	1.015	-2.835	0.992104	0.233264	0.123952	-0.249	0.0765	0.486	0	70	172	3
2026-02-12	16:57:20.710	-4.27	-0.455	-1.575	1.021628	0.26718	0.133712	-0.2385	0.0705	0.486	0	70	172	3
2026-02-12	16:57:20.730	1.33	-2.695	-1.855	1.01504	0.315248	0.219844	-0.2415	0.069	0.4845	0	70	172	3
2026-02-12	16:57:20.750	17.255	-5.635	-6.965	1.013332	0.408944	0.366488	-0.2355	0.0675	0.486	0	70	172	3
2026-02-12	16:57:20.770	39.515	-5.425	-22.015	1.046272	0.610488	0.58438	-0.24	0.0675	0.4905	0	70	172	3
2026-02-12	16:57:20.790	62.825	3.605	-59.01	1.088728	0.742736	0.594384	-0.237	0.0645	0.486	0	70	172	3
2026-02-12	16:57:20.810	72.94	14.735	-100.73	1.133868	1.089704	0.4758	-0.237	0.0615	0.489	0	69	181	3
2026-02-12	16:57:20.830	58.59	18.27	-143.535	1.271972	1.261724	0.453108	-0.243	0.051	0.4875	0	69	181	3
2026-02-12	16:57:20.850	36.645	20.65	-188.615	1.403	1.31638	0.498248	-0.2355	0.0285	0.48	0	69	181	3
2026-02-12	16:57:20.870	15.75	26.635	-234.64	1.604788	1.521828	0.513864	-0.2265	0	0.4755	0	69	181	3
2026-02-12	16:57:20.890	-26.39	41.475	-281.54	1.726544	1.459608	0.508252	-0.2265	-0.03	0.474	0	69	181	3
2026-02-12	16:57:20.910	-38.605	61.775	-318.675	1.906372	1.551352	0.54778	-0.2235	-0.048	0.474	0	69	181	3
2026-02-12	16:57:20.930	-38.15	95.795	-357.77	1.837076	1.379332	0.542656	-0.21	-0.093	0.4545	0	69	181	3
2026-02-12	16:57:20.950	-19.915	131.845	-386.225	1.780956	1.35176	0.431636	-0.1905	-0.135	0.441	0	69	181	3
2026-02-12	16:57:20.970	-13.475	172.27	-402.22	1.508408	1.226344	0.322568	-0.1665	-0.1785	0.423	0	69	181	3
2026-02-12	16:57:20.990	-20.055	195.615	-410.76	1.240496	1.038708	0.314272	-0.114	-0.2205	0.4035	0	69	181	3
2026-02-12	16:57:21.010	-32.515	207.025	-412.86	1.062132	0.751032	0.281088	-0.0795	-0.267	0.381	0	84	215	3
2026-02-12	16:57:21.030	-38.605	218.19	-404.81	0.88572	0.482876	0.20496	-0.021	-0.288	0.3615	0	84	215	3
2026-02-12	16:57:21.050	-45.15	221.165	-383.25	0.624396	0.131028	0.036844	0.0345	-0.3075	0.3465	0	84	215	3
2026-02-12	16:57:21.070	-32.795	203.77	-333.865	0.439444	-0.108336	-0.140788	0.099	-0.327	0.33	0	84	215	3
2026-02-12	16:57:21.090	-23.24	182.98	-292.565	0.390888	-0.204472	-0.223748	0.1545	-0.3345	0.321	0	84	215	3
2026-02-12	16:57:21.110	-38.395	154.84	-253.12	0.273524	-0.37454	-0.305244	0.2325	-0.333	0.3105	0	84	215	3
2026-02-12	16:57:21.130	-41.125	114.94	-200.795	0.13176	-0.532164	-0.26962	0.27	-0.3195	0.3105	0	84	215	3
2026-02-12	16:57:21.150	-7	67.83	-142.135	0.00244	-0.576328	-0.384788	0.3045	-0.3105	0.3105	0	84	215	3
2026-02-12	16:57:21.170	20.895	9.765	-73.5	-0.162992	-0.525088	-0.663192	0.3285	-0.3015	0.315	0	84	215	3
2026-02-12	16:57:21.190	37.94	-53.795	-3.57	-0.287432	-0.403576	-0.83326	0.3375	-0.3015	0.3255	0	84	215	3
2026-02-12	16:57:21.210	36.54	-123.235	56.105	-0.361608	-0.308172	-0.8235	0.3405	-0.306	0.3225	0	125	214	3
2026-02-12	16:57:21.230	39.2	-195.93	101.745	-0.462868	-0.1281	-0.727608	0.33	-0.306	0.315	0	125	214	3
2026-02-12	16:57:21.250	20.02	-269.955	134.89	-0.538508	0.087108	-0.386008	0.312	-0.3135	0.315	0	125	214	3
2026-02-12	16:57:21.270	-65.38	-338.695	148.365	-0.39406	0.550952	0.587308	0.2865	-0.3195	0.3045	0	125	214	3
2026-02-12	16:57:21.290	-212.345	-378.91	127.155	-0.183244	1.408368	1.710684	0.2505	-0.321	0.288	0	125	214	3
2026-02-12	16:57:21.310	-345.52	-345.1	50.26	-0.133224	1.93248	2.03984	0.219	-0.312	0.255	0	125	214	3
2026-02-12	16:57:21.330	-363.79	-267.085	-66.5	-0.102724	1.663836	1.692628	0.195	-0.2955	0.2025	0	125	214	3
2026-02-12	16:57:21.350	-145.005	-203.91	-124.11	0.578768	0.757864	2.6779	0.186	-0.288	0.1785	0	125	214	3
2026-02-12	16:57:21.370	-1.12	-68.355	-117.565	0.137372	1.129476	2.910432	0.171	-0.2475	0.123	0	125	214	3
2026-02-12	16:57:21.390	-35.875	51.94	-109.515	-0.097356	0.560712	2.497096	0.1845	-0.243	0.126	0	125	214	3
2026-02-12	16:57:21.410	-45.5	136.115	-78.4	-0.028548	0.120536	1.886608	0.2085	-0.2445	0.1155	0	205	245	3
2026-02-12	16:57:21.430	0.595	199.57	-50.785	-0.011712	0.147132	1.376404	0.2235	-0.234	0.1215	0	205	245	3
2026-02-12	16:57:21.450	40.355	241.15	-33.705	0.0305	0.23302	1.011624	0.237	-0.237	0.123	0	205	245	3
2026-02-12	16:57:21.470	69.23	268.31	-25.795	0.052704	0.245952	0.670268	0.2625	-0.2415	0.129	0	205	245	3
2026-02-12	16:57:21.490	90.265	282.835	-23.485	0.024156	0.27206	0.371368	0.291	-0.246	0.144	0	205	245	3
2026-02-12	16:57:21.510	100.31	285.39	-21.945	0.021228	0.278648	0.174704	0.318	-0.2565	0.1665	0	205	245	3
2026-02-12	16:57:21.530	103.915	285.11	-18.76	0.015128	0.28792	0.05856	0.345	-0.2625	0.192	0	205	245	3
2026-02-12	16:57:21.550	101.675	281.855	-14.595	-0.006588	0.238388	-0.041236	0.366	-0.2655	0.2205	0	205	245	3
2026-02-12	16:57:21.570	92.715	276.185	-3.885	-0.046116	0.249856	-0.170556	0.3765	-0.2685	0.249	0	205	245	3
2026-02-12	16:57:21.590	74.795	264.985	9.38	-0.105408	0.276696	-0.33062	0.39	-0.264	0.276	0	205	245	3
2026-02-12	16:57:19.610	8.68	-2.66	-6.51	0.959164	0.249856	0.133224	-0.2325	0.0795	0.495	0	101	169	3
2026-02-12	16:57:19.630	6.475	-4.375	-8.785	0.958188	0.241072	0.144692	-0.2385	0.0795	0.495	0	101	169	3
2026-02-12	16:57:19.650	4.375	-5.495	-10.15	0.967704	0.230092	0.155672	-0.24	0.081	0.495	0	101	169	3
2026-02-12	16:57:19.670	1.96	-6.09	-10.15	0.979416	0.213744	0.168116	-0.237	0.0705	0.4965	0	101	169	3
2026-02-12	16:57:19.690	0.455	-5.775	-8.89	0.98332	0.189832	0.193248	-0.2415	0.078	0.5055	0	101	169	3
2026-02-12	16:57:19.710	1.47	-4.375	-6.125	1.000644	0.164944	0.204228	-0.2415	0.072	0.4935	0	101	169	3
2026-02-12	16:57:19.730	5.145	-1.925	-2.835	1.017236	0.154208	0.22448	-0.2415	0.072	0.4935	0	101	169	3
2026-02-12	16:57:19.750	6.72	0.07	-0.245	1.007964	0.154208	0.224724	-0.2415	0.0705	0.4965	0	101	169	3
2026-02-12	16:57:19.770	7.42	1.26	2.065	0.992836	0.160552	0.22448	-0.2385	0.069	0.498	0	101	169	3
2026-02-12	16:57:19.790	9.065	1.435	3.745	0.985516	0.168604	0.217404	-0.237	0.066	0.498	0	101	169	3
2026-02-12	16:57:19.810	10.99	1.12	3.78	0.973316	0.196664	0.211792	-0.234	0.072	0.498	0	92	168	3
2026-02-12	16:57:19.830	10.78	0.735	2.345	0.970388	0.227896	0.211548	-0.2295	0.0795	0.495	0	92	168	3
2026-02-12	16:57:19.850	7.7	0.91	0.525	0.969656	0.253028	0.209108	-0.237	0.078	0.4995	0	92	168	3
2026-02-12	16:57:19.870	2.135	1.75	-1.12	0.968924	0.253516	0.20374	-0.237	0.078	0.4965	0	92	168	3
2026-02-12	16:57:19.890	-4.025	3.115	-2.555	0.96258	0.253516	0.19032	-0.2415	0.0735	0.4995	0	92	168	3
2026-02-12	16:57:19.910	-8.82	5.005	-3.185	0.951844	0.243756	0.17812	-0.2325	0.072	0.4965	0	92	168	3
2026-02-12	16:57:19.930	-11.34	6.09	-3.605	0.943792	0.222284	0.15982	-0.243	0.0705	0.501	0	92	168	3
2026-02-12	16:57:19.950	-10.36	6.545	-3.71	0.953552	0.210084	0.1464	-0.2385	0.0735	0.498	0	92	168	3
2026-02-12	16:57:19.970	-6.125	6.545	-2.905	0.969412	0.205936	0.134444	-0.234	0.0645	0.4935	0	92	168	3
2026-02-12	16:57:19.990	-0.875	6.265	-1.26	0.989176	0.227652	0.122244	-0.24	0.0765	0.489	0	92	168	3
2026-02-12	16:57:20.010	-0.805	5.915	-0.525	0.995276	0.232532	0.118828	-0.2385	0.075	0.489	0	85	170	3
2026-02-12	16:57:20.030	-1.54	4.9	-0.07	0.988444	0.225456	0.111264	-0.24	0.0735	0.4875	0	85	170	3
2026-02-12	16:57:20.050	-1.365	3.36	0.35	0.990152	0.22692	0.11224	-0.2385	0.0645	0.486	0	85	170	3
2026-02-12	16:57:20.070	-0.7	1.47	0.28	1.004548	0.224968	0.115412	-0.2385	0.0675	0.4875	0	85	170	3
2026-02-12	16:57:20.090	0.63	0.28	-0.14	1.007476	0.221308	0.119316	-0.24	0.072	0.492	0	85	170	3
2026-02-12	16:57:20.110	2.765	-0.385	-0.385	0.989908	0.207888	0.120536	-0.2415	0.0675	0.4965	0	85	170	3
2026-02-12	16:57:20.130	5.32	-0.98	-0.385	0.96624	0.197152	0.127124	-0.24	0.0675	0.4935	0	85	170	3
2026-02-12	16:57:20.150	7.105	-2.205	-0.56	0.952576	0.190564	0.145912	-0.2355	0.066	0.4905	0	85	170	3
2026-02-12	16:57:20.170	8.295	-3.36	-0.875	0.94062	0.181292	0.15982	-0.2355	0.0675	0.4905	0	85	170	3
2026-02-12	16:57:20.190	9.87	-4.375	0	0.951356	0.174948	0.173972	-0.237	0.072	0.492	0	85	170	3
2026-02-12	16:57:20.210	11.9	-4.48	1.505	0.966484	0.204716	0.192516	-0.237	0.0705	0.495	0	79	169	3
2026-02-12	16:57:20.230	12.53	-3.01	3.395	0.977952	0.225212	0.198616	-0.24	0.069	0.495	0	79	169	3
2026-02-12	16:57:20.250	9.135	-0.56	5.075	0.979172	0.235704	0.195444	-0.2415	0.0705	0.492	0	79	169	3
2026-02-12	16:57:20.270	4.83	0.91	5.705	0.973316	0.239364	0.189832	-0.24	0.0705	0.492	0	79	169	3
2026-02-12	16:57:20.290	4.795	0.56	5.6	0.965752	0.235948	0.18788	-0.237	0.0765	0.4875	0	79	169	3
2026-02-12	16:57:20.310	6.3	-0.525	5.18	0.973804	0.255224	0.188124	-0.2415	0.0765	0.492	0	79	169	3
2026-02-12	16:57:20.330	6.3	-0.875	4.2	0.97966	0.2623	0.193248	-0.243	0.072	0.495	0	79	169	3
2026-02-12	16:57:20.350	5.635	-0.28	3.08	0.989664	0.261812	0.190076	-0.243	0.0795	0.4965	0	79	169	3
2026-02-12	16:57:20.370	4.83	0.77	1.785	0.995032	0.266448	0.200812	-0.249	0.081	0.495	0	79	169	3
2026-02-12	16:57:20.390	2.45	1.785	0	0.984052	0.260836	0.212524	-0.243	0.0825	0.492	0	79	169	3
2026-02-12	16:57:20.410	-0.805	2.45	-1.33	0.971608	0.24156	0.211792	-0.2385	0.0825	0.4905	0	74	168	3
2026-02-12	16:57:20.430	-3.22	2.31	-1.96	0.962092	0.230336	0.21472	-0.237	0.081	0.495	0	74	168	3
2026-02-12	16:57:20.450	-5.11	2.065	-1.61	0.963556	0.215696	0.21716	-0.2355	0.078	0.495	0	74	168	3
2026-02-12	16:57:20.470	-6.3	2.555	-0.98	0.972584	0.214964	0.214476	-0.2325	0.078	0.4965	0	74	168	3
2026-02-12	16:57:20.490	-8.12	3.535	-0.7	0.969412	0.210572	0.208864	-0.231	0.0825	0.4905	0	74	168	3
2026-02-12	16:57:20.510	-8.68	4.41	-0.665	0.973072	0.212036	0.198372	-0.2355	0.0795	0.4875	0	74	168	3
2026-02-12	16:57:20.530	-9.24	5.215	-1.995	0.97356	0.215696	0.17568	-0.2385	0.0765	0.4905	0	74	168	3
2026-02-12	16:57:20.550	-10.99	5.25	-3.22	0.96746	0.213256	0.1647	-0.237	0.0765	0.4905	0	74	168	3
2026-02-12	16:57:20.570	-11.865	4.9	-3.955	0.965264	0.211548	0.158356	-0.2445	0.078	0.4875	0	74	168	3
2026-02-12	16:57:20.590	-12.11	4.445	-3.99	0.966972	0.203008	0.145424	-0.234	0.081	0.4845	0	74	168	3
2026-02-12	16:57:20.610	-10.71	4.235	-3.99	0.952088	0.203252	0.134932	-0.2415	0.072	0.4845	0	70	172	3
2026-02-12	16:57:20.630	-9.24	3.5	-4.165	0.94916	0.20008	0.125904	-0.2415	0.0795	0.486	0	70	172	3
2026-02-12	16:57:20.650	-7.455	2.765	-4.305	0.956236	0.210816	0.1281	-0.24	0.0795	0.483	0	70	172	3
2026-02-12	16:57:20.670	-6.93	1.75	-3.675	0.97234	0.21716	0.128344	-0.234	0.075	0.483	0	70	172	3
2026-02-12	16:57:20.690	-6.405	1.015	-2.835	0.992104	0.233264	0.123952	-0.249	0.0765	0.486	0	70	172	3
2026-02-12	16:57:20.710	-4.27	-0.455	-1.575	1.021628	0.26718	0.133712	-0.2385	0.0705	0.486	0	70	172	3
2026-02-12	16:57:20.730	1.33	-2.695	-1.855	1.01504	0.315248	0.219844	-0.2415	0.069	0.4845	0	70	172	3
2026-02-12	16:57:20.750	17.255	-5.635	-6.965	1.013332	0.408944	0.366488	-0.2355	0.0675	0.486	0	70	172	3
2026-02-12	16:57:20.770	39.515	-5.425	-22.015	1.046272	0.610488	0.58438	-0.24	0.0675	0.4905	0	70	172	3
2026-02-12	16:57:20.790	62.825	3.605	-59.01	1.088728	0.742736	0.594384	-0.237	0.0645	0.486	0	70	172	3
2026-02-12	16:57:20.810	72.94	14.735	-100.73	1.133868	1.089704	0.4758	-0.237	0.0615	0.489	0	69	181	3
2026-02-12	16:57:20.830	58.59	18.27	-143.535	1.271972	1.261724	0.453108	-0.243	0.051	0.4875	0	69	181	3
2026-02-12	16:57:20.850	36.645	20.65	-188.615	1.403	1.31638	0.498248	-0.2355	0.0285	0.48	0	69	181	3
2026-02-12	16:57:20.870	15.75	26.635	-234.64	1.604788	1.521828	0.513864	-0.2265	0	0.4755	0	69	181	3
2026-02-12	16:57:20.890	-26.39	41.475	-281.54	1.726544	1.459608	0.508252	-0.2265	-0.03	0.474	0	69	181	3
2026-02-12	16:57:20.910	-38.605	61.775	-318.675	1.906372	1.551352	0.54778	-0.2235	-0.048	0.474	0	69	181	3
2026-02-12	16:57:20.930	-38.15	95.795	-357.77	1.837076	1.379332	0.542656	-0.21	-0.093	0.4545	0	69	181	3
2026-02-12	16:57:20.950	-19.915	131.845	-386.225	1.780956	1.35176	0.431636	-0.1905	-0.135	0.441	0	69	181	3
2026-02-12	16:57:20.970	-13.475	172.27	-402.22	1.508408	1.226344	0.322568	-0.1665	-0.1785	0.423	0	69	181	3
2026-02-12	16:57:20.990	-20.055	195.615	-410.76	1.240496	1.038708	0.314272	-0.114	-0.2205	0.4035	0	69	181	3
2026-02-12	16:57:21.010	-32.515	207.025	-412.86	1.062132	0.751032	0.281088	-0.0795	-0.267	0.381	0	84	215	3
2026-02-12	16:57:21.030	-38.605	218.19	-404.81	0.88572	0.482876	0.20496	-0.021	-0.288	0.3615	0	84	215	3
2026-02-12	16:57:21.050	-45.15	221.165	-383.25	0.624396	0.131028	0.036844	0.0345	-0.3075	0.3465	0	84	215	3
2026-02-12	16:57:21.070	-32.795	203.77	-333.865	0.439444	-0.108336	-0.140788	0.099	-0.327	0.33	0	84	215	3
2026-02-12	16:57:21.090	-23.24	182.98	-292.565	0.390888	-0.204472	-0.223748	0.1545	-0.3345	0.321	0	84	215	3
2026-02-12	16:57:21.110	-38.395	154.84	-253.12	0.273524	-0.37454	-0.305244	0.2325	-0.333	0.3105	0	84	215	3
2026-02-12	16:57:21.130	-41.125	114.94	-200.795	0.13176	-0.532164	-0.26962	0.27	-0.3195	0.3105	0	84	215	3
2026-02-12	16:57:21.150	-7	67.83	-142.135	0.00244	-0.576328	-0.384788	0.3045	-0.3105	0.3105	0	84	215	3
2026-02-12	16:57:21.170	20.895	9.765	-73.5	-0.162992	-0.525088	-0.663192	0.3285	-0.3015	0.315	0	84	215	3
2026-02-12	16:57:21.190	37.94	-53.795	-3.57	-0.287432	-0.403576	-0.83326	0.3375	-0.3015	0.3255	0	84	215	3
2026-02-12	16:57:21.210	36.54	-123.235	56.105	-0.361608	-0.308172	-0.8235	0.3405	-0.306	0.3225	0	125	214	3
2026-02-12	16:57:21.230	39.2	-195.93	101.745	-0.462868	-0.1281	-0.727608	0.33	-0.306	0.315	0	125	214	3
2026-02-12	16:57:21.250	20.02	-269.955	134.89	-0.538508	0.087108	-0.386008	0.312	-0.3135	0.315	0	125	214	3
2026-02-12	16:57:21.270	-65.38	-338.695	148.365	-0.39406	0.550952	0.587308	0.2865	-0.3195	0.3045	0	125	214	3
2026-02-12	16:57:21.290	-212.345	-378.91	127.155	-0.183244	1.408368	1.710684	0.2505	-0.321	0.288	0	125	214	3
2026-02-12	16:57:21.310	-345.52	-345.1	50.26	-0.133224	1.93248	2.03984	0.219	-0.312	0.255	0	125	214	3
2026-02-12	16:57:21.330	-363.79	-267.085	-66.5	-0.102724	1.663836	1.692628	0.195	-0.2955	0.2025	0	125	214	3
2026-02-12	16:57:21.350	-145.005	-203.91	-124.11	0.578768	0.757864	2.6779	0.186	-0.288	0.1785	0	125	214	3
2026-02-12	16:57:21.370	-1.12	-68.355	-117.565	0.137372	1.129476	2.910432	0.171	-0.2475	0.123	0	125	214	3
2026-02-12	16:57:21.390	-35.875	51.94	-109.515	-0.097356	0.560712	2.497096	0.1845	-0.243	0.126	0	125	214	3
2026-02-12	16:57:21.410	-45.5	136.115	-78.4	-0.028548	0.120536	1.886608	0.2085	-0.2445	0.1155	0	205	245	3
2026-02-12	16:57:21.430	0.595	199.57	-50.785	-0.011712	0.147132	1.376404	0.2235	-0.234	0.1215	0	205	245	3
2026-02-12	16:57:21.450	40.355	241.15	-33.705	0.0305	0.23302	1.011624	0.237	-0.237	0.123	0	205	245	3
2026-02-12	16:57:21.470	69.23	268.31	-25.795	0.052704	0.245952	0.670268	0.2625	-0.2415	0.129	0	205	245	3
2026-02-12	16:57:21.490	90.265	282.835	-23.485	0.024156	0.27206	0.371368	0.291	-0.246	0.144	0	205	245	3
2026-02-12	16:57:21.510	100.31	285.39	-21.945	0.021228	0.278648	0.174704	0.318	-0.2565	0.1665	0	205	245	3
2026-02-12	16:57:21.530	103.915	285.11	-18.76	0.015128	0.28792	0.05856	0.345	-0.2625	0.192	0	205	245	3
2026-02-12	16:57:21.550	101.675	281.855	-14.595	-0.006588	0.238388	-0.041236	0.366	-0.2655	0.2205	0	205	245	3
2026-02-12	16:57:21.570	92.715	276.185	-3.885	-0.046116	0.249856	-0.170556	0.3765	-0.2685	0.249	0	205	245	3
2026-02-12	16:57:21.590	74.795	264.985	9.38	-0.105408	0.276696	-0.33062	0.39	-0.264	0.276	0	205	245	3
2026-02-12	16:57:19.610	8.68	-2.66	-6.51	0.959164	0.249856	0.133224	-0.2325	0.0795	0.495	0	101	169	3
2026-02-12	16:57:19.630	6.475	-4.375	-8.785	0.958188	0.241072	0.144692	-0.2385	0.0795	0.495	0	101	169	3
2026-02-12	16:57:19.650	4.375	-5.495	-10.15	0.967704	0.230092	0.155672	-0.24	0.081	0.495	0	101	169	3
2026-02-12	16:57:19.670	1.96	-6.09	-10.15	0.979416	0.213744	0.168116	-0.237	0.0705	0.4965	0	101	169	3
2026-02-12	16:57:19.690	0.455	-5.775	-8.89	0.98332	0.189832	0.193248	-0.2415	0.078	0.5055	0	101	169	3
2026-02-12	16:57:19.710	1.47	-4.375	-6.125	1.000644	0.164944	0.204228	-0.2415	0.072	0.4935	0	101	169	3
2026-02-12	16:57:19.730	5.145	-1.925	-2.835	1.017236	0.154208	0.22448	-0.2415	0.072	0.4935	0	101	169	3
2026-02-12	16:57:19.750	6.72	0.07	-0.245	1.007964	0.154208	0.224724	-0.2415	0.0705	0.4965	0	101	169	3
2026-02-12	16:57:19.770	7.42	1.26	2.065	0.992836	0.160552	0.22448	-0.2385	0.069	0.498	0	101	169	3
2026-02-12	16:57:19.790	9.065	1.435	3.745	0.985516	0.168604	0.217404	-0.237	0.066	0.498	0	101	169	3
2026-02-12	16:57:19.810	10.99	1.12	3.78	0.973316	0.196664	0.211792	-0.234	0.072	0.498	0	92	168	3
2026-02-12	16:57:19.830	10.78	0.735	2.345	0.970388	0.227896	0.211548	-0.2295	0.0795	0.495	0	92	168	3
2026-02-12	16:57:19.850	7.7	0.91	0.525	0.969656	0.253028	0.209108	-0.237	0.078	0.4995	0	92	168	3
2026-02-12	16:57:19.870	2.135	1.75	-1.12	0.968924	0.253516	0.20374	-0.237	0.078	0.4965	0	92	168	3
2026-02-12	16:57:19.890	-4.025	3.115	-2.555	0.96258	0.253516	0.19032	-0.2415	0.0735	0.4995	0	92	168	3
2026-02-12	16:57:19.910	-8.82	5.005	-3.185	0.951844	0.243756	0.17812	-0.2325	0.072	0.4965	0	92	168	3
2026-02-12	16:57:19.930	-11.34	6.09	-3.605	0.943792	0.222284	0.15982	-0.243	0.0705	0.501	0	92	168	3
2026-02-12	16:57:19.950	-10.36	6.545	-3.71	0.953552	0.210084	0.1464	-0.2385	0.0735	0.498	0	92	168	3
2026-02-12	16:57:19.970	-6.125	6.545	-2.905	0.969412	0.205936	0.134444	-0.234	0.0645	0.4935	0	92	168	3
2026-02-12	16:57:19.990	-0.875	6.265	-1.26	0.989176	0.227652	0.122244	-0.24	0.0765	0.489	0	92	168	3
2026-02-12	16:57:20.010	-0.805	5.915	-0.525	0.995276	0.232532	0.118828	-0.2385	0.075	0.489	0	85	170	3
2026-02-12	16:57:20.030	-1.54	4.9	-0.07	0.988444	0.225456	0.111264	-0.24	0.0735	0.4875	0	85	170	3
2026-02-12	16:57:20.050	-1.365	3.36	0.35	0.990152	0.22692	0.11224	-0.2385	0.0645	0.486	0	85	170	3
2026-02-12	16:57:20.070	-0.7	1.47	0.28	1.004548	0.224968	0.115412	-0.2385	0.0675	0.4875	0	85	170	3
2026-02-12	16:57:20.090	0.63	0.28	-0.14	1.007476	0.221308	0.119316	-0.24	0.072	0.492	0	85	170	3
2026-02-12	16:57:20.110	2.765	-0.385	-0.385	0.989908	0.207888	0.120536	-0.2415	0.0675	0.4965	0	85	170	3
2026-02-12	16:57:20.130	5.32	-0.98	-0.385	0.96624	0.197152	0.127124	-0.24	0.0675	0.4935	0	85	170	3
2026-02-12	16:57:20.150	7.105	-2.205	-0.56	0.952576	0.190564	0.145912	-0.2355	0.066	0.4905	0	85	170	3
2026-02-12	16:57:20.170	8.295	-3.36	-0.875	0.94062	0.181292	0.15982	-0.2355	0.0675	0.4905	0	85	170	3
2026-02-12	16:57:20.190	9.87	-4.375	0	0.951356	0.174948	0.173972	-0.237	0.072	0.492	0	85	170	3
2026-02-12	16:57:20.210	11.9	-4.48	1.505	0.966484	0.204716	0.192516	-0.237	0.0705	0.495	0	79	169	3
2026-02-12	16:57:20.230	12.53	-3.01	3.395	0.977952	0.225212	0.198616	-0.24	0.069	0.495	0	79	169	3
2026-02-12	16:57:20.250	9.135	-0.56	5.075	0.979172	0.235704	0.195444	-0.2415	0.0705	0.492	0	79	169	3
2026-02-12	16:57:20.270	4.83	0.91	5.705	0.973316	0.239364	0.189832	-0.24	0.0705	0.492	0	79	169	3
2026-02-12	16:57:20.290	4.795	0.56	5.6	0.965752	0.235948	0.18788	-0.237	0.0765	0.4875	0	79	169	3
2026-02-12	16:57:20.310	6.3	-0.525	5.18	0.973804	0.255224	0.188124	-0.2415	0.0765	0.492	0	79	169	3
2026-02-12	16:57:20.330	6.3	-0.875	4.2	0.97966	0.2623	0.193248	-0.243	0.072	0.495	0	79	169	3
2026-02-12	16:57:20.350	5.635	-0.28	3.08	0.989664	0.261812	0.190076	-0.243	0.0795	0.4965	0	79	169	3
2026-02-12	16:57:20.370	4.83	0.77	1.785	0.995032	0.266448	0.200812	-0.249	0.081	0.495	0	79	169	3
2026-02-12	16:57:20.390	2.45	1.785	0	0.984052	0.260836	0.212524	-0.243	0.0825	0.492	0	79	169	3
2026-02-12	16:57:20.410	-0.805	2.45	-1.33	0.971608	0.24156	0.211792	-0.2385	0.0825	0.4905	0	74	168	3
2026-02-12	16:57:20.430	-3.22	2.31	-1.96	0.962092	0.230336	0.21472	-0.237	0.081	0.495	0	74	168	3
2026-02-12	16:57:20.450	-5.11	2.065	-1.61	0.963556	0.215696	0.21716	-0.2355	0.078	0.495	0	74	168	3
2026-02-12	16:57:20.470	-6.3	2.555	-0.98	0.972584	0.214964	0.214476	-0.2325	0.078	0.4965	0	74	168	3
2026-02-12	16:57:20.490	-8.12	3.535	-0.7	0.969412	0.210572	0.208864	-0.231	0.0825	0.4905	0	74	168	3
2026-02-12	16:57:20.510	-8.68	4.41	-0.665	0.973072	0.212036	0.198372	-0.2355	0.0795	0.4875	0	74	168	3
2026-02-12	16:57:20.530	-9.24	5.215	-1.995	0.97356	0.215696	0.17568	-0.2385	0.0765	0.4905	0	74	168	3
2026-02-12	16:57:20.550	-10.99	5.25	-3.22	0.96746	0.213256	0.1647	-0.237	0.0765	0.4905	0	74	168	3
2026-02-12	16:57:20.570	-11.865	4.9	-3.955	0.965264	0.211548	0.158356	-0.2445	0.078	0.4875	0	74	168	3
2026-02-12	16:57:20.590	-12.11	4.445	-3.99	0.966972	0.203008	0.145424	-0.234	0.081	0.4845	0	74	168	3
2026-02-12	16:57:20.610	-10.71	4.235	-3.99	0.952088	0.203252	0.134932	-0.2415	0.072	0.4845	0	70	172	3
2026-02-12	16:57:20.630	-9.24	3.5	-4.165	0.94916	0.20008	0.125904	-0.2415	0.0795	0.486	0	70	172	3
2026-02-12	16:57:20.650	-7.455	2.765	-4.305	0.956236	0.210816	0.1281	-0.24	0.0795	0.483	0	70	172	3
2026-02-12	16:57:20.670	-6.93	1.75	-3.675	0.97234	0.21716	0.128344	-0.234	0.075	0.483	0	70	172	3
2026-02-12	16:57:20.690	-6.405	1.015	-2.835	0.992104	0.233264	0.123952	-0.249	0.0765	0.486	0	70	172	3
2026-02-12	16:57:20.710	-4.27	-0.455	-1.575	1.021628	0.26718	0.133712	-0.2385	0.0705	0.486	0	70	172	3
2026-02-12	16:57:20.730	1.33	-2.695	-1.855	1.01504	0.315248	0.219844	-0.2415	0.069	0.4845	0	70	172	3
2026-02-12	16:57:20.750	17.255	-5.635	-6.965	1.013332	0.408944	0.366488	-0.2355	0.0675	0.486	0	70	172	3
2026-02-12	16:57:20.770	39.515	-5.425	-22.015	1.046272	0.610488	0.58438	-0.24	0.0675	0.4905	0	70	172	3
2026-02-12	16:57:20.790	62.825	3.605	-59.01	1.088728	0.742736	0.594384	-0.237	0.0645	0.486	0	70	172	3
2026-02-12	16:57:20.810	72.94	14.735	-100.73	1.133868	1.089704	0.4758	-0.237	0.0615	0.489	0	69	181	3
2026-02-12	16:57:20.830	58.59	18.27	-143.535	1.271972	1.261724	0.453108	-0.243	0.051	0.4875	0	69	181	3
2026-02-12	16:57:20.850	36.645	20.65	-188.615	1.403	1.31638	0.498248	-0.2355	0.0285	0.48	0	69	181	3
2026-02-12	16:57:20.870	15.75	26.635	-234.64	1.604788	1.521828	0.513864	-0.2265	0	0.4755	0	69	181	3
2026-02-12	16:57:20.890	-26.39	41.475	-281.54	1.726544	1.459608	0.508252	-0.2265	-0.03	0.474	0	69	181	3
2026-02-12	16:57:20.910	-38.605	61.775	-318.675	1.906372	1.551352	0.54778	-0.2235	-0.048	0.474	0	69	181	3
2026-02-12	16:57:20.930	-38.15	95.795	-357.77	1.837076	1.379332	0.542656	-0.21	-0.093	0.4545	0	69	181	3
2026-02-12	16:57:20.950	-19.915	131.845	-386.225	1.780956	1.35176	0.431636	-0.1905	-0.135	0.441	0	69	181	3
2026-02-12	16:57:20.970	-13.475	172.27	-402.22	1.508408	1.226344	0.322568	-0.1665	-0.1785	0.423	0	69	181	3
2026-02-12	16:57:20.990	-20.055	195.615	-410.76	1.240496	1.038708	0.314272	-0.114	-0.2205	0.4035	0	69	181	3
2026-02-12	16:57:21.010	-32.515	207.025	-412.86	1.062132	0.751032	0.281088	-0.0795	-0.267	0.381	0	84	215	3
2026-02-12	16:57:21.030	-38.605	218.19	-404.81	0.88572	0.482876	0.20496	-0.021	-0.288	0.3615	0	84	215	3
2026-02-12	16:57:21.050	-45.15	221.165	-383.25	0.624396	0.131028	0.036844	0.0345	-0.3075	0.3465	0	84	215	3
2026-02-12	16:57:21.070	-32.795	203.77	-333.865	0.439444	-0.108336	-0.140788	0.099	-0.327	0.33	0	84	215	3
2026-02-12	16:57:21.090	-23.24	182.98	-292.565	0.390888	-0.204472	-0.223748	0.1545	-0.3345	0.321	0	84	215	3
2026-02-12	16:57:21.110	-38.395	154.84	-253.12	0.273524	-0.37454	-0.305244	0.2325	-0.333	0.3105	0	84	215	3
2026-02-12	16:57:21.130	-41.125	114.94	-200.795	0.13176	-0.532164	-0.26962	0.27	-0.3195	0.3105	0	84	215	3
2026-02-12	16:57:21.150	-7	67.83	-142.135	0.00244	-0.576328	-0.384788	0.3045	-0.3105	0.3105	0	84	215	3
2026-02-12	16:57:21.170	20.895	9.765	-73.5	-0.162992	-0.525088	-0.663192	0.3285	-0.3015	0.315	0	84	215	3
2026-02-12	16:57:21.190	37.94	-53.795	-3.57	-0.287432	-0.403576	-0.83326	0.3375	-0.3015	0.3255	0	84	215	3
2026-02-12	16:57:21.210	36.54	-123.235	56.105	-0.361608	-0.308172	-0.8235	0.3405	-0.306	0.3225	0	125	214	3
2026-02-12	16:57:21.230	39.2	-195.93	101.745	-0.462868	-0.1281	-0.727608	0.33	-0.306	0.315	0	125	214	3
2026-02-12	16:57:21.250	20.02	-269.955	134.89	-0.538508	0.087108	-0.386008	0.312	-0.3135	0.315	0	125	214	3
2026-02-12	16:57:21.270	-65.38	-338.695	148.365	-0.39406	0.550952	0.587308	0.2865	-0.3195	0.3045	0	125	214	3
2026-02-12	16:57:21.290	-212.345	-378.91	127.155	-0.183244	1.408368	1.710684	0.2505	-0.321	0.288	0	125	214	3
2026-02-12	16:57:21.310	-345.52	-345.1	50.26	-0.133224	1.93248	2.03984	0.219	-0.312	0.255	0	125	214	3
2026-02-12	16:57:21.330	-363.79	-267.085	-66.5	-0.102724	1.663836	1.692628	0.195	-0.2955	0.2025	0	125	214	3
2026-02-12	16:57:21.350	-145.005	-203.91	-124.11	0.578768	0.757864	2.6779	0.186	-0.288	0.1785	0	125	214	3
2026-02-12	16:57:21.370	-1.12	-68.355	-117.565	0.137372	1.129476	2.910432	0.171	-0.2475	0.123	0	125	214	3
2026-02-12	16:57:21.390	-35.875	51.94	-109.515	-0.097356	0.560712	2.497096	0.1845	-0.243	0.126	0	125	214	3
2026-02-12	16:57:21.410	-45.5	136.115	-78.4	-0.028548	0.120536	1.886608	0.2085	-0.2445	0.1155	0	205	245	3
2026-02-12	16:57:21.430	0.595	199.57	-50.785	-0.011712	0.147132	1.376404	0.2235	-0.234	0.1215	0	205	245	3
2026-02-12	16:57:21.450	40.355	241.15	-33.705	0.0305	0.23302	1.011624	0.237	-0.237	0.123	0	205	245	3
2026-02-12	16:57:21.470	69.23	268.31	-25.795	0.052704	0.245952	0.670268	0.2625	-0.2415	0.129	0	205	245	3
2026-02-12	16:57:21.490	90.265	282.835	-23.485	0.024156	0.27206	0.371368	0.291	-0.246	0.144	0	205	245	3
2026-02-12	16:57:21.510	100.31	285.39	-21.945	0.021228	0.278648	0.174704	0.318	-0.2565	0.1665	0	205	245	3
2026-02-12	16:57:21.530	103.915	285.11	-18.76	0.015128	0.28792	0.05856	0.345	-0.2625	0.192	0	205	245	3
2026-02-12	16:57:21.550	101.675	281.855	-14.595	-0.006588	0.238388	-0.041236	0.366	-0.2655	0.2205	0	205	245	3
2026-02-12	16:57:21.570	92.715	276.185	-3.885	-0.046116	0.249856	-0.170556	0.3765	-0.2685	0.249	0	205	245	3
2026-02-12	16:57:21.590	74.795	264.985	9.38	-0.105408	0.276696	-0.33062	0.39	-0.264	0.276	0	205	245	3
2026-02-12	16:57:19.610	8.68	-2.66	-6.51	0.959164	0.249856	0.133224	-0.2325	0.0795	0.495	0	101	169	3
2026-02-12	16:57:19.630	6.475	-4.375	-8.785	0.958188	0.241072	0.144692	-0.2385	0.0795	0.495	0	101	169	3
2026-02-12	16:57:19.650	4.375	-5.495	-10.15	0.967704	0.230092	0.155672	-0.24	0.081	0.495	0	101	169	3
2026-02-12	16:57:19.670	1.96	-6.09	-10.15	0.979416	0.213744	0.168116	-0.237	0.0705	0.4965	0	101	169	3
2026-02-12	16:57:19.690	0.455	-5.775	-8.89	0.98332	0.189832	0.193248	-0.2415	0.078	0.5055	0	101	169	3
2026-02-12	16:57:19.710	1.47	-4.375	-6.125	1.000644	0.164944	0.204228	-0.2415	0.072	0.4935	0	101	169	3
2026-02-12	16:57:19.730	5.145	-1.925	-2.835	1.017236	0.154208	0.22448	-0.2415	0.072	0.4935	0	101	169	3
2026-02-12	16:57:19.750	6.72	0.07	-0.245	1.007964	0.154208	0.224724	-0.2415	0.0705	0.4965	0	101	169	3
2026-02-12	16:57:19.770	7.42	1.26	2.065	0.992836	0.160552	0.22448	-0.2385	0.069	0.498	0	101	169	3
2026-02-12	16:57:19.790	9.065	1.435	3.745	0.985516	0.168604	0.217404	-0.237	0.066	0.498	0	101	169	3
2026-02-12	16:57:19.810	10.99	1.12	3.78	0.973316	0.196664	0.211792	-0.234	0.072	0.498	0	92	168	3
2026-02-12	16:57:19.830	10.78	0.735	2.345	0.970388	0.227896	0.211548	-0.2295	0.0795	0.495	0	92	168	3
2026-02-12	16:57:19.850	7.7	0.91	0.525	0.969656	0.253028	0.209108	-0.237	0.078	0.4995	0	92	168	3
2026-02-12	16:57:19.870	2.135	1.75	-1.12	0.968924	0.253516	0.20374	-0.237	0.078	0.4965	0	92	168	3
2026-02-12	16:57:19.890	-4.025	3.115	-2.555	0.96258	0.253516	0.19032	-0.2415	0.0735	0.4995	0	92	168	3
2026-02-12	16:57:19.910	-8.82	5.005	-3.185	0.951844	0.243756	0.17812	-0.2325	0.072	0.4965	0	92	168	3
2026-02-12	16:57:19.930	-11.34	6.09	-3.605	0.943792	0.222284	0.15982	-0.243	0.0705	0.501	0	92	168	3
2026-02-12	16:57:19.950	-10.36	6.545	-3.71	0.953552	0.210084	0.1464	-0.2385	0.0735	0.498	0	92	168	3
2026-02-12	16:57:19.970	-6.125	6.545	-2.905	0.969412	0.205936	0.134444	-0.234	0.0645	0.4935	0	92	168	3
2026-02-12	16:57:19.990	-0.875	6.265	-1.26	0.989176	0.227652	0.122244	-0.24	0.0765	0.489	0	92	168	3
2026-02-12	16:57:20.010	-0.805	5.915	-0.525	0.995276	0.232532	0.118828	-0.2385	0.075	0.489	0	85	170	3
2026-02-12	16:57:20.030	-1.54	4.9	-0.07	0.988444	0.225456	0.111264	-0.24	0.0735	0.4875	0	85	170	3
2026-02-12	16:57:20.050	-1.365	3.36	0.35	0.990152	0.22692	0.11224	-0.2385	0.0645	0.486	0	85	170	3
2026-02-12	16:57:20.070	-0.7	1.47	0.28	1.004548	0.224968	0.115412	-0.2385	0.0675	0.4875	0	85	170	3
2026-02-12	16:57:20.090	0.63	0.28	-0.14	1.007476	0.221308	0.119316	-0.24	0.072	0.492	0	85	170	3
2026-02-12	16:57:20.110	2.765	-0.385	-0.385	0.989908	0.207888	0.120536	-0.2415	0.0675	0.4965	0	85	170	3
2026-02-12	16:57:20.130	5.32	-0.98	-0.385	0.96624	0.197152	0.127124	-0.24	0.0675	0.4935	0	85	170	3
2026-02-12	16:57:20.150	7.105	-2.205	-0.56	0.952576	0.190564	0.145912	-0.2355	0.066	0.4905	0	85	170	3
2026-02-12	16:57:20.170	8.295	-3.36	-0.875	0.94062	0.181292	0.15982	-0.2355	0.0675	0.4905	0	85	170	3
2026-02-12	16:57:20.190	9.87	-4.375	0	0.951356	0.174948	0.173972	-0.237	0.072	0.492	0	85	170	3
2026-02-12	16:57:34.210	-10.5	-45.15	18.2	-0.252296	0.871568	-0.24278	0.096	-0.3135	0.468	0	367	148	3
2026-02-12	16:57:34.230	-6.335	-44.555	21.735	-0.219844	0.935008	-0.203984	0.0855	-0.3165	0.4605	0	367	148	3
2026-02-12	16:57:34.250	-2.345	-40.285	20.65	-0.18178	0.996984	-0.20252	0.0795	-0.315	0.468	0	367	148	3
2026-02-12	16:57:34.270	0.245	-34.58	16.31	-0.15616	1.05164	-0.214232	0.0825	-0.3105	0.468	0	367	148	3
2026-02-12	16:57:34.290	-3.08	-29.19	11.515	-0.155672	1.014308	-0.233508	0.084	-0.3195	0.4665	0	367	148	3
2026-02-12	16:57:34.310	-6.65	-24.92	7.875	-0.167872	0.911828	-0.233996	0.081	-0.318	0.465	0	367	148	3
2026-02-12	16:57:34.330	-4.55	-21.98	6.825	-0.18422	0.838384	-0.20374	0.0825	-0.3165	0.4665	0	367	148	3
2026-02-12	16:57:34.350	-1.61	-20.23	7	-0.200324	0.829844	-0.166408	0.075	-0.3195	0.465	0	367	148	3
2026-02-12	16:57:34.370	-1.75	-17.57	6.545	-0.212768	0.827892	-0.11346	0.0795	-0.3195	0.4695	0	367	148	3
2026-02-12	16:57:34.390	-1.96	-16.45	6.16	-0.22448	0.811788	-0.10248	0.0765	-0.318	0.471	0	367	148	3
2026-02-12	16:57:34.410	-0.77	-15.295	5.39	-0.24888	0.805932	-0.09857599	0.0765	-0.318	0.4695	0	335	161	3
2026-02-12	16:57:34.430	0.735	-14.175	5.145	-0.258884	0.828868	-0.08686399	0.0795	-0.315	0.471	0	335	161	3
2026-02-12	16:57:34.450	0.91	-12.565	5.25	-0.248148	0.847168	-0.086376	0.0765	-0.3135	0.4725	0	335	161	3
2026-02-12	16:57:34.470	1.855	-10.675	4.9	-0.25376	0.853512	-0.082716	0.078	-0.3165	0.4725	0	335	161	3
2026-02-12	16:57:34.490	3.01	-8.715	3.71	-0.272304	0.883524	-0.077592	0.075	-0.3135	0.474	0	335	161	3
2026-02-12	16:57:34.510	0.98	-7.63	1.26	-0.279136	0.942816	-0.087596	0.0705	-0.3105	0.471	0	335	161	3
2026-02-12	16:57:34.530	-2.625	-7.35	-1.295	-0.270596	0.989664	-0.102724	0.078	-0.312	0.4695	0	335	161	3
2026-02-12	16:57:34.550	-0.735	-7.42	-3.395	-0.233752	1.067744	-0.146644	0.078	-0.3105	0.4695	0	335	161	3
2026-02-12	16:57:34.570	2.415	-6.125	-5.215	-0.165432	1.132404	-0.163724	0.0765	-0.312	0.471	0	335	161	3
2026-02-12	16:57:34.590	-4.83	-0.875	-4.9	-0.14396	1.107272	-0.209108	0.081	-0.315	0.471	0	335	161	3
2026-02-12	16:57:34.610	-10.01	4.13	-1.89	-0.145668	1.074332	-0.247172	0.078	-0.315	0.4695	0	304	166	3
2026-02-12	16:57:34.630	-5.075	9.485	5.88	-0.165432	1.089704	-0.273524	0.0765	-0.3165	0.468	0	304	166	3
2026-02-12	16:57:34.650	5.425	14.525	15.925	-0.151524	1.214876	-0.305	0.078	-0.315	0.468	0	304	166	3
2026-02-12	16:57:34.670	11.585	20.44	23.31	-0.116876	1.281732	-0.317688	0.072	-0.3195	0.4755	0	304	166	3
2026-02-12	16:57:34.690	16.24	26.075	26.355	-0.062708	1.236836	-0.2806	0.063	-0.3195	0.468	0	304	166	3
2026-02-12	16:57:34.710	18.34	28.35	21.7	-0.021472	1.098244	-0.192272	0.0645	-0.3195	0.4695	0	304	166	3
2026-02-12	16:57:34.730	13.055	26.95	8.33	-0.038796	0.961604	-0.120048	0.0585	-0.3165	0.471	0	304	166	3
2026-02-12	16:57:34.750	-3.045	23.24	-8.12	-0.0915	0.851316	-0.103212	0.054	-0.306	0.4755	0	304	166	3
2026-02-12	16:57:34.770	-17.99	17.78	-19.075	-0.127124	0.799588	-0.120292	0.054	-0.309	0.474	0	304	166	3
2026-02-12	16:57:34.790	-25.095	16.03	-22.68	-0.139812	0.805444	-0.15128	0.057	-0.315	0.474	0	304	166	3
2026-02-12	16:57:34.810	-18.235	17.115	-18.13	-0.101016	0.905972	-0.14518	0.0615	-0.318	0.474	0	278	170	3
2026-02-12	16:57:34.830	-4.725	23.205	-10.955	-0.047092	0.994056	-0.112728	0.0645	-0.3135	0.471	0	278	170	3
2026-02-12	16:57:34.850	5.495	32.725	-6.72	0.010492	1.029436	-0.112972	0.0645	-0.312	0.465	0	278	170	3
2026-02-12	16:57:34.870	12.88	44.24	-5.88	-0.001952	1.012112	-0.13176	0.063	-0.3165	0.4635	0	278	170	3
2026-02-12	16:57:34.890	13.93	51.52	-5.985	-0.036844	0.935984	-0.150304	0.0645	-0.3165	0.465	0	278	170	3
2026-02-12	16:57:34.910	13.02	51.38	-9.87	-0.111264	0.87474	-0.190808	0.0675	-0.3165	0.4665	0	278	170	3
2026-02-12	16:57:34.930	11.305	47.04	-12.005	-0.152988	0.889868	-0.1769	0.0675	-0.3165	0.4665	0	278	170	3
2026-02-12	16:57:34.950	6.79	42.07	-14.07	-0.196664	0.893528	-0.15372	0.0675	-0.315	0.465	0	278	170	3
2026-02-12	16:57:34.970	2.905	37.485	-14.91	-0.215452	0.882792	-0.122976	0.0675	-0.315	0.462	0	278	170	3
2026-02-12	16:57:34.990	1.085	34.055	-14.035	-0.224968	0.8784	-0.095648	0.063	-0.321	0.4695	0	278	170	3
2026-02-12	16:57:35.010	2.275	31.43	-12.39	-0.224724	0.858148	-0.07564	0.0645	-0.318	0.465	0	256	170	3
2026-02-12	16:57:35.030	5.11	29.015	-10.29	-0.215696	0.857904	-0.072224	0.0675	-0.321	0.465	0	256	170	3
2026-02-12	16:57:35.050	6.37	26.565	-7.63	-0.20862	0.880596	-0.083692	0.072	-0.318	0.459	0	256	170	3
2026-02-12	16:57:35.070	6.02	23.17	-5.285	-0.202032	0.920856	-0.106872	0.069	-0.3195	0.462	0	256	170	3
2026-02-12	16:57:35.090	4.83	18.97	-4.235	-0.207156	0.94672	-0.120292	0.069	-0.321	0.4635	0	256	170	3
2026-02-12	16:57:35.110	1.925	14	-4.55	-0.216184	0.957212	-0.119072	0.0765	-0.318	0.4635	0	256	170	3
2026-02-12	16:57:35.130	-1.82	9.03	-6.615	-0.229604	0.952576	-0.109068	0.075	-0.3225	0.462	0	256	170	3
2026-02-12	16:57:35.150	-4.025	5.075	-9.73	-0.246928	0.941596	-0.110288	0.075	-0.324	0.4665	0	256	170	3
2026-02-12	16:57:35.170	-3.675	0.735	-11.585	-0.271084	0.92476	-0.12444	0.072	-0.3225	0.4695	0	256	170	3
2026-02-12	16:57:35.190	-0.805	-3.85	-8.575	-0.267668	0.94672	-0.132736	0.072	-0.3225	0.4695	0	256	170	3
2026-02-12	16:57:35.210	4.27	-7.875	-2.1	-0.23912	0.97722	-0.13176	0.075	-0.3255	0.4665	0	238	163	3
2026-02-12	16:57:35.230	14.28	-11.375	2.94	-0.17568	1.1224	-0.185928	0.081	-0.3255	0.4665	0	238	163	3
2026-02-12	16:57:35.250	28.175	-11.655	8.715	-0.121268	1.279536	-0.281332	0.081	-0.324	0.471	0	238	163	3
2026-02-12	16:57:35.270	35.175	-9.94	15.505	-0.113704	1.306376	-0.353068	0.078	-0.3255	0.4785	0	238	163	3
2026-02-12	16:57:35.290	33.005	-6.405	18.69	-0.159332	1.210484	-0.392596	0.078	-0.324	0.4815	0	238	163	3
2026-02-12	16:57:35.310	28.805	-6.685	22.575	-0.183	1.121424	-0.37942	0.075	-0.3195	0.477	0	238	163	3
2026-02-12	16:57:35.330	23.065	-10.465	25.165	-0.179584	1.038708	-0.32452	0.0735	-0.3225	0.4815	0	238	163	3
2026-02-12	16:57:35.350	15.4	-16.31	23.205	-0.188124	0.953552	-0.303292	0.0705	-0.3135	0.4905	0	238	163	3
2026-02-12	16:57:35.370	1.435	-24.64	18.06	-0.202032	0.854	-0.320372	0.066	-0.3105	0.489	0	238	163	3
2026-02-12	16:57:35.390	-11.55	-33.95	13.23	-0.222772	0.809104	-0.317932	0.0675	-0.318	0.489	0	238	163	3
2026-02-12	16:57:35.410	-20.195	-44.03	12.39	-0.219112	0.803004	-0.328668	0.06	-0.3105	0.4965	0	223	169	3
2026-02-12	16:57:35.430	-18.62	-50.785	13.965	-0.215208	0.830088	-0.334768	0.057	-0.312	0.486	0	223	169	3
2026-02-12	16:57:35.450	-9.905	-55.23	19.145	-0.195688	0.931836	-0.299632	0.063	-0.3195	0.486	0	223	169	3
2026-02-12	16:57:35.470	-10.535	-54.46	22.225	-0.165676	0.966972	-0.27572	0.0645	-0.315	0.4905	0	223	169	3
2026-02-12	16:57:35.490	-12.845	-50.715	21.525	-0.116388	0.999912	-0.26596	0.0645	-0.3135	0.4935	0	223	169	3
2026-02-12	16:57:35.510	-13.965	-44.975	16.03	-0.088084	1.022116	-0.253028	0.06	-0.3135	0.495	0	223	169	3
2026-02-12	16:57:35.530	-15.295	-38.64	10.29	-0.07686	0.994788	-0.242536	0.0585	-0.3105	0.4965	0	223	169	3
2026-02-12	16:57:35.550	-13.965	-31.99	6.58	-0.083204	0.911828	-0.221308	0.0555	-0.312	0.495	0	223	169	3
2026-02-12	16:57:35.570	-11.305	-27.055	5.95	-0.083204	0.84058	-0.211548	0.0495	-0.312	0.489	0	223	169	3
2026-02-12	16:57:35.590	-7.28	-21.77	7.105	-0.091012	0.809592	-0.18178	0.0525	-0.3135	0.4875	0	223	169	3
2026-02-12	16:57:35.610	-5.845	-17.36	9.24	-0.104432	0.824964	-0.154208	0.057	-0.3165	0.4965	0	212	188	3
2026-02-12	16:57:35.630	-3.955	-13.72	10.29	-0.11468	0.83448	-0.135176	0.054	-0.315	0.495	0	212	188	3
2026-02-12	16:57:35.650	0.98	-10.29	9.38	-0.13542	0.85522	-0.116144	0.054	-0.315	0.492	0	212	188	3
2026-02-12	16:57:35.670	4.06	-7.28	7.63	-0.153232	0.882548	-0.108092	0.051	-0.3165	0.495	0	212	188	3
2026-02-12	16:57:35.690	2.66	-4.62	5.355	-0.186904	0.905972	-0.115168	0.051	-0.3135	0.4965	0	212	188	3
2026-02-12	16:57:35.710	-1.33	-2.975	2.415	-0.203496	0.875228	-0.126636	0.0555	-0.3105	0.4965	0	212	188	3
2026-02-12	16:57:35.730	-1.33	-2.905	-0.245	-0.221064	0.882792	-0.14152	0.051	-0.3135	0.495	0	212	188	3
2026-02-12	16:57:35.750	-0.455	-3.22	-2.625	-0.227896	0.909144	-0.152256	0.045	-0.3165	0.495	0	212	188	3
2026-02-12	16:57:35.770	-2.485	-4.13	-5.11	-0.233508	0.962824	-0.157868	0.051	-0.315	0.4905	0	212	188	3
2026-02-12	16:57:35.790	-7.77	-5.46	-7.385	-0.210084	1.037488	-0.16348	0.0555	-0.3195	0.495	0	212	188	3
2026-02-12	16:57:35.810	-14	-4.97	-9.59	-0.192028	1.098244	-0.166408	0.048	-0.3225	0.4905	0	202	199	3
2026-02-12	16:57:35.830	-18.06	-3.465	-11.165	-0.16836	1.109712	-0.1708	0.0525	-0.3225	0.489	0	202	199	3
2026-02-12	16:57:35.850	-17.57	-0.105	-10.045	-0.151524	1.106296	-0.168116	0.054	-0.3225	0.4935	0	202	199	3
2026-02-12	16:57:35.870	-15.225	4.9	-6.055	-0.14396	1.08824	-0.199836	0.057	-0.321	0.4965	0	202	199	3
2026-02-12	16:57:35.890	-6.685	10.465	1.295	-0.140544	1.197064	-0.22326	0.0555	-0.321	0.4875	0	202	199	3
2026-02-12	16:57:35.910	-3.395	16.135	9.835	-0.055144	1.344684	-0.27206	0.057	-0.324	0.4875	0	202	199	3
2026-02-12	16:57:35.930	3.185	23.8	15.785	0.058804	1.418372	-0.282064	0.054	-0.3255	0.4875	0	202	199	3
2026-02-12	16:57:35.950	7.385	31.78	16.45	0.115656	1.29076	-0.234972	0.0405	-0.327	0.4875	0	202	199	3
2026-02-12	16:57:35.970	8.855	34.72	8.47	0.121512	1.058228	-0.161528	0.039	-0.3255	0.4875	0	202	199	3
2026-02-12	16:57:35.990	0.735	31.185	-8.785	-0.01342	0.829112	-0.130296	0.045	-0.324	0.4815	0	202	199	3
2026-02-12	16:57:36.010	-11.13	25.305	-17.185	-0.066856	0.804468	-0.150304	0.045	-0.324	0.4815	0	195	199	3
2026-02-12	16:57:36.030	-24.22	19.95	-21.98	-0.10736	0.82228	-0.159088	0.0435	-0.3165	0.486	0	195	199	3
2026-02-12	16:57:36.050	-29.855	16.1	-22.925	-0.095404	0.830332	-0.147864	0.0465	-0.33	0.4785	0	195	199	3
2026-02-12	16:57:36.070	-24.745	15.89	-19.705	-0.081984	0.863516	-0.13664	0.0495	-0.321	0.48	0	195	199	3
2026-02-12	16:57:36.090	-14.595	20.93	-15.82	-0.052704	0.902312	-0.12688	0.0465	-0.33	0.4695	0	195	199	3
2026-02-12	16:57:36.110	-5.95	30.73	-11.585	-0.041236	0.94306	-0.149572	0.0495	-0.327	0.471	0	195	199	3
2026-02-12	16:57:36.130	2.065	41.335	-9.31	-0.038796	0.969412	-0.185196	0.0495	-0.33	0.4725	0	195	199	3
2026-02-12	16:57:36.150	7	48.72	-9.415	-0.051728	0.95648	-0.211304	0.048	-0.333	0.465	0	195	199	3
2026-02-12	16:57:36.170	10.64	52.325	-11.83	-0.070028	0.920856	-0.205204	0.048	-0.333	0.462	0	195	199	3
2026-02-12	16:57:36.190	9.835	52.745	-14.525	-0.115656	0.859124	-0.184464	0.06	-0.336	0.468	0	195	199	3
2026-02-12	16:57:36.210	8.435	50.68	-16.905	-0.155184	0.83082	-0.148596	0.051	-0.3255	0.4695	0	190	195	3
2026-02-12	16:57:36.230	6.055	47.6	-17.185	-0.18544	0.827892	-0.1098	0.0525	-0.33	0.4695	0	190	195	3
2026-02-12	16:57:36.250	7.665	43.68	-16.275	-0.215452	0.8418	-0.07076	0.054	-0.3375	0.4695	0	190	195	3
2026-02-12	16:57:36.270	13.72	39.76	-14.595	-0.241072	0.874984	-0.055144	0.054	-0.3375	0.4695	0	190	195	3
2026-02-12	16:57:36.290	16.24	36.715	-13.265	-0.243512	0.920612	-0.050264	0.0525	-0.333	0.4695	0	190	195	3
2026-02-12	16:57:36.310	14.455	33.32	-12.845	-0.227408	0.96502	-0.055632	0.0525	-0.333	0.471	0	190	195	3
2026-02-12	16:57:36.330	9.065	29.05	-13.65	-0.21228	0.986492	-0.059536	0.0555	-0.3375	0.468	0	190	195	3
2026-02-12	16:57:36.350	2.205	24.115	-15.365	-0.20862	0.990396	-0.07442	0.0555	-0.336	0.465	0	190	195	3
2026-02-12	16:57:36.370	-1.96	19.25	-17.5	-0.215452	0.95648	-0.084424	0.0555	-0.3315	0.4635	0	190	195	3
2026-02-12	16:57:36.390	-2.695	15.085	-18.76	-0.25376	0.893284	-0.083936	0.0615	-0.333	0.4605	0	190	195	3
2026-02-12	16:57:36.410	-4.06	8.575	-16.835	-0.260592	0.9028	-0.101016	0.0675	-0.3375	0.462	0	186	183	3
2026-02-12	16:57:36.430	-4.83	1.785	-12.565	-0.262544	0.91378	-0.165676	0.0675	-0.339	0.4635	0	186	183	3
2026-02-12	16:57:36.450	2.135	-3.325	-3.535	-0.252784	0.996008	-0.222284	0.0645	-0.342	0.4605	0	186	183	3
2026-02-12	16:57:36.470	11.725	-7.49	6.195	-0.243268	1.123864	-0.296948	0.0615	-0.3375	0.4635	0	186	183	3
2026-02-12	16:57:36.490	19.81	-10.08	16.66	-0.148352	1.332484	-0.34038	0.0585	-0.342	0.477	0	186	183	3
2026-02-12	16:57:36.510	20.545	-9.905	21.98	-0.087352	1.352492	-0.34282	0.0555	-0.345	0.4695	0	186	183	3
2026-02-12	16:57:36.530	16.31	-10.78	22.54	-0.123952	1.194136	-0.324032	0.0495	-0.339	0.4755	0	186	183	3
2026-02-12	16:57:36.550	10.57	-14.035	20.72	-0.140788	1.100684	-0.294752	0.051	-0.342	0.48	0	186	183	3
2026-02-12	16:57:36.570	3.115	-18.725	17.29	-0.134688	1.024068	-0.255224	0.051	-0.342	0.483	0	186	183	3
2026-02-12	16:57:36.590	-5.88	-22.645	11.515	-0.16348	0.873032	-0.242048	0.048	-0.3375	0.4815	0	186	183	3
2026-02-12	16:57:36.610	-11.375	-28.455	6.65	-0.216672	0.7747	-0.262056	0.045	-0.336	0.4875	0	184	178	3
2026-02-12	16:57:36.630	-13.93	-35.7	5.635	-0.239852	0.79788	-0.285724	0.048	-0.333	0.489	0	184	178	3
2026-02-12	16:57:36.650	-16.905	-41.685	8.715	-0.234972	0.86498	-0.307684	0.048	-0.3315	0.4845	0	184	178	3
2026-02-12	16:57:36.670	-19.11	-45.185	13.685	-0.21716	0.906216	-0.31598	0.045	-0.3345	0.486	0	184	178	3
2026-02-12	16:57:36.690	-16.03	-47.005	18.76	-0.178852	0.941108	-0.325496	0.048	-0.3345	0.4875	0	184	178	3
2026-02-12	16:57:36.710	-8.715	-47.285	20.545	-0.127124	0.99186	-0.336964	0.0465	-0.33	0.4875	0	184	178	3
2026-02-12	16:57:36.730	-7	-45.36	17.675	-0.10248	0.994056	-0.319884	0.045	-0.333	0.486	0	184	178	3
2026-02-12	16:57:36.750	-11.655	-42.98	13.86	-0.113704	0.938424	-0.284504	0.0435	-0.3345	0.4875	0	184	178	3
2026-02-12	16:57:36.770	-13.965	-40.985	10.5	-0.129808	0.875228	-0.244488	0.0435	-0.3345	0.4875	0	184	178	3
2026-02-12	16:57:36.790	-11.305	-37.59	9.24	-0.16104	0.811544	-0.189344	0.042	-0.333	0.4875	0	184	178	3
2026-02-12	16:57:36.810	-4.9	-33.81	10.395	-0.18178	0.793488	-0.146888	0.0375	-0.3315	0.486	0	182	191	3
2026-02-12	16:57:36.830	-0.28	-30.8	11.27	-0.187148	0.82716	-0.122244	0.045	-0.339	0.489	0	182	191	3
2026-02-12	16:57:36.850	1.155	-27.51	10.29	-0.183488	0.855708	-0.112728	0.0375	-0.33	0.492	0	182	191	3
2026-02-12	16:57:36.870	2.17	-24.255	8.015	-0.206424	0.883524	-0.110776	0.051	-0.336	0.498	0	182	191	3
2026-02-12	16:57:36.890	2.38	-21.455	5.495	-0.226676	0.89182	-0.120048	0.045	-0.336	0.492	0	182	191	3
2026-02-12	16:57:36.910	2.555	-18.76	2.765	-0.223504	0.896212	-0.13176	0.051	-0.3285	0.4965	0	182	191	3
2026-02-12	16:57:36.930	1.225	-16.765	-0.315	-0.219112	0.898652	-0.134688	0.045	-0.336	0.504	0	182	191	3
2026-02-12	16:57:36.950	-0.07	-15.365	-2.52	-0.225456	0.894748	-0.145668	0.0465	-0.336	0.5025	0	182	191	3
2026-02-12	16:57:36.970	0.035	-14.945	-5.145	-0.214964	0.908412	-0.150792	0.048	-0.339	0.501	0	182	191	3
2026-02-12	16:57:36.990	-1.26	-14.98	-7.42	-0.227896	0.921344	-0.161772	0.051	-0.336	0.5025	0	182	191	3
2026-02-12	16:57:37.010	-3.745	-15.575	-9.1	-0.2196	0.953064	-0.170068	0.0525	-0.33	0.504	0	179	200	3
2026-02-12	16:57:37.030	-5.985	-15.785	-9.835	-0.203984	1.004548	-0.164456	0.0495	-0.3315	0.5025	0	179	200	3
2026-02-12	16:57:37.050	-7.315	-14.735	-11.2	-0.179096	1.051396	-0.160064	0.051	-0.3315	0.504	0	179	200	3
2026-02-12	16:57:37.070	-4.725	-8.33	-11.305	-0.164944	1.013576	-0.171776	0.0555	-0.33	0.507	0	179	200	3
2026-02-12	16:57:37.090	3.465	-3.045	-9.345	-0.17812	1.00162	-0.187636	0.0555	-0.33	0.507	0	179	200	3
2026-02-12	16:57:37.110	11.235	2.695	-4.305	-0.203008	0.998692	-0.232532	0.06	-0.3375	0.501	0	179	200	3
2026-02-12	16:57:37.130	16.1	7.07	5.11	-0.199836	1.094096	-0.263276	0.0615	-0.3285	0.507	0	179	200	3
2026-02-12	16:57:37.150	13.825	12.18	15.47	-0.115168	1.231468	-0.307928	0.063	-0.327	0.504	0	179	200	3
2026-02-12	16:57:37.170	15.68	20.02	21.525	-0.015372	1.240252	-0.314516	0.063	-0.3285	0.5115	0	179	200	3
2026-02-12	16:57:37.190	21.665	26.6	22.085	0.022936	1.114348	-0.27084	0.0675	-0.3345	0.5085	0	179	200	3
2026-02-12	16:57:37.210	29.435	28.385	15.015	0.02318	1.057008	-0.212036	0.0555	-0.333	0.5235	0	175	201	3
2026-02-12	16:57:37.230	23.065	26.705	3.01	-0.01342	1.0004	-0.14518	0.0495	-0.33	0.516	0	175	201	3
2026-02-12	16:57:37.250	6.44	22.295	-8.785	-0.077348	0.917684	-0.15616	0.048	-0.324	0.522	0	175	201	3
2026-02-12	16:57:37.270	-7.665	16.345	-15.54	-0.111752	0.929396	-0.186416	0.048	-0.324	0.5235	0	175	201	3
2026-02-12	16:57:37.290	-12.95	10.99	-17.605	-0.084424	0.981124	-0.198128	0.051	-0.3255	0.5115	0	175	201	3
2026-02-12	16:57:37.310	-13.475	9.765	-13.51	-0.037576	0.99918	-0.155428	0.048	-0.327	0.516	0	175	201	3
2026-02-12	16:57:37.330	-8.715	14.49	-9.275	-0.000244	0.95648	-0.147132	0.057	-0.3255	0.5115	0	175	201	3
2026-02-12	16:57:37.350	3.08	22.96	-7.42	-0.02196	0.938424	-0.16714	0.057	-0.3255	0.5115	0	175	201	3
2026-02-12	16:57:37.370	9.66	28.63	-7.175	-0.064904	0.925492	-0.204228	0.0555	-0.324	0.51	0	175	201	3
2026-02-12	16:57:37.390	10.955	30.38	-8.995	-0.103456	0.906216	-0.245952	0.054	-0.321	0.513	0	175	201	3
2026-02-12	16:57:37.410	9.52	29.365	-10.255	-0.131272	0.883036	-0.2501	0.0525	-0.3225	0.516	0	171	202	3
2026-02-12	16:57:37.430	9.345	26.005	-11.48	-0.169336	0.851072	-0.209596	0.0525	-0.327	0.513	0	171	202	3
2026-02-12	16:57:37.450	10.29	22.855	-12.25	-0.192272	0.854732	-0.158112	0.054	-0.327	0.513	0	171	202	3
2026-02-12	16:57:37.470	8.925	20.475	-13.23	-0.210328	0.869616	-0.119804	0.051	-0.324	0.516	0	171	202	3
2026-02-12	16:57:37.490	7.84	19.39	-13.265	-0.22936	0.855464	-0.100528	0.0495	-0.3225	0.513	0	171	202	3
2026-02-12	16:57:37.510	7.525	18.165	-12.25	-0.235216	0.856928	-0.09857599	0.048	-0.324	0.5115	0	171	202	3
2026-02-12	16:57:37.530	8.225	16.555	-11.55	-0.239608	0.876936	-0.114436	0.0555	-0.321	0.5145	0	171	202	3
2026-02-12	16:57:37.550	7.35	14.175	-10.29	-0.239852	0.912072	-0.130052	0.0585	-0.321	0.5175	0	171	202	3
2026-02-12	16:57:37.570	4.865	10.955	-9.17	-0.225212	0.95892	-0.137616	0.063	-0.3285	0.516	0	171	202	3
2026-02-12	16:57:37.590	2.345	7.315	-8.855	-0.210816	0.977708	-0.144204	0.057	-0.3285	0.5115	0	171	202	3
2026-02-12	16:57:37.610	-1.19	2.66	-10.395	-0.203984	0.964288	-0.126148	0.06	-0.3165	0.5115	0	165	198	3
2026-02-12	16:57:37.630	-1.89	0.035	-12.145	-0.229848	0.937692	-0.113216	0.0615	-0.3195	0.513	0	165	198	3
2026-02-12	16:57:37.650	-1.085	-3.22	-13.58	-0.24766	0.961604	-0.133224	0.066	-0.327	0.513	0	165	198	3
2026-02-12	16:57:37.670	-1.82	-6.825	-12.985	-0.24156	1.006988	-0.163968	0.072	-0.3285	0.5145	0	165	198	3
2026-02-12	16:57:37.690	-1.75	-9.765	-8.82	-0.24156	1.049932	-0.212768	0.0705	-0.3255	0.516	0	165	198	3
2026-02-12	16:57:37.710	2.17	-11.69	-3.36	-0.233752	1.123864	-0.267668	0.0675	-0.3255	0.513	0	165	198	3
2026-02-12	16:57:37.730	6.895	-13.02	4.06	-0.17446	1.230248	-0.305976	0.0705	-0.3255	0.516	0	165	198	3
2026-02-12	16:57:37.750	10.92	-9.73	8.855	-0.12078	1.273192	-0.34282	0.072	-0.3195	0.519	0	165	198	3
2026-02-12	16:57:37.770	9.975	-5.25	13.16	-0.12444	1.189256	-0.335744	0.069	-0.318	0.522	0	165	198	3
2026-02-12	16:57:37.790	11.445	-3.535	15.015	-0.140056	1.0797	-0.31598	0.063	-0.321	0.522	0	165	198	3
2026-02-12	16:57:37.810	14.455	-5.355	15.015	-0.15372	0.99796	-0.294264	0.063	-0.3225	0.5205	0	161	194	3
2026-02-12	16:57:37.830	10.045	-9.03	11.865	-0.140788	0.962092	-0.266936	0.0645	-0.321	0.519	0	161	194	3
2026-02-12	16:57:37.850	-2.975	-13.02	6.265	-0.15738	0.890356	-0.27206	0.06	-0.3225	0.522	0	161	194	3
2026-02-12	16:57:37.870	-13.37	-20.23	0.49	-0.190076	0.803004	-0.28426	0.0555	-0.3225	0.5265	0	161	194	3
2026-02-12	16:57:37.890	-19.25	-27.195	0.77	-0.21838	0.7747	-0.320128	0.054	-0.3195	0.528	0	161	194	3
2026-02-12	16:57:37.910	-17.15	-30.835	6.3	-0.21472	0.813252	-0.327448	0.069	-0.3225	0.5205	0	161	194	3
2026-02-12	16:57:37.930	-9.835	-32.62	13.86	-0.19764	0.875228	-0.300364	0.057	-0.3225	0.5175	0	161	194	3
2026-02-12	16:57:37.950	-6.58	-32.585	18.69	-0.154696	0.930128	-0.293532	0.066	-0.3225	0.519	0	161	194	3
2026-02-12	16:57:37.970	-5.25	-30.17	18.865	-0.1281	0.981124	-0.304756	0.063	-0.318	0.519	0	161	194	3
2026-02-12	16:57:37.990	-5.04	-28.28	16.31	-0.106872	1.003572	-0.299876	0.06	-0.318	0.513	0	161	194	3
2026-02-12	16:57:38.010	-7.07	-25.34	11.2	-0.111508	0.96746	-0.28914	0.0615	-0.315	0.5235	0	157	206	3
2026-02-12	16:57:38.030	-10.29	-22.155	6.405	-0.137616	0.894504	-0.263276	0.06	-0.3165	0.522	0	157	206	3
2026-02-12	16:57:38.050	-10.745	-19.425	4.27	-0.156404	0.83814	-0.226432	0.06	-0.3195	0.5205	0	157	206	3
2026-02-12	16:57:38.070	-9.45	-17.29	4.515	-0.18544	0.817888	-0.201788	0.06	-0.321	0.5205	0	157	206	3
2026-02-12	16:57:38.090	-7.77	-15.645	6.16	-0.2074	0.803004	-0.192028	0.06	-0.3195	0.5175	0	157	206	3
2026-02-12	16:57:38.110	-4.025	-14.735	7.945	-0.202032	0.829356	-0.166164	0.063	-0.324	0.516	0	157	206	3
2026-02-12	16:57:38.130	-2.135	-13.51	8.96	-0.20618	0.855464	-0.158356	0.066	-0.3225	0.5205	0	157	206	3
2026-02-12	16:57:38.150	-0.875	-12.18	6.86	-0.214476	0.879132	-0.146156	0.069	-0.318	0.522	0	157	206	3
2026-02-12	16:57:38.170	-2.345	-11.235	4.9	-0.234972	0.877424	-0.151768	0.057	-0.3195	0.519	0	157	206	3
2026-02-12	16:57:38.190	-5.355	-10.395	2.8	-0.240096	0.879132	-0.155672	0.057	-0.315	0.528	0	157	206	3
2026-02-12	16:57:38.210	-8.785	-9.205	0.91	-0.240096	0.927444	-0.15494	0.0585	-0.315	0.528	0	153	218	3
2026-02-12	16:57:38.230	-16.205	-8.925	-2.065	-0.239364	0.974048	-0.175924	0.063	-0.3105	0.5235	0	153	218	3
2026-02-12	16:57:38.250	-25.41	-9.275	-5.95	-0.231068	1.017724	-0.203496	0.0615	-0.312	0.5205	0	153	218	3
2026-02-12	16:57:38.270	-32.97	-9.59	-9.59	-0.205448	1.062376	-0.20008	0.0585	-0.318	0.5235	0	153	218	3
2026-02-12	16:57:38.290	-38.71	-9.59	-10.115	-0.187392	1.074332	-0.19642	0.0645	-0.3195	0.516	0	153	218	3
2026-02-12	16:57:38.310	-36.68	-7.07	-8.61	-0.156648	1.086532	-0.160308	0.0675	-0.324	0.51	0	153	218	3
2026-02-12	16:57:38.330	-28	-2.415	-6.09	-0.137372	1.056032	-0.154208	0.069	-0.3195	0.504	0	153	218	3
2026-02-12	16:57:38.350	-15.54	3.22	-0.245	-0.145424	1.072868	-0.169824	0.066	-0.324	0.4965	0	153	218	3
2026-02-12	16:57:38.370	1.05	8.96	10.15	-0.12444	1.15778	-0.175192	0.075	-0.3285	0.489	0	153	218	3
2026-02-12	16:57:38.390	17.745	16.45	21.245	-0.07564	1.193648	-0.172996	0.0585	-0.318	0.51	0	153	218	3
2026-02-12	16:57:38.410	37.38	25.06	28.315	0.016104	1.210728	-0.170312	0.0735	-0.327	0.495	0	150	219	3
2026-02-12	16:57:38.430	37.205	29.365	20.965	0.054168	1.07238	-0.152744	0.0735	-0.327	0.495	0	150	219	3
2026-02-12	16:57:38.450	24.29	27.895	4.76	0.017568	0.943792	-0.137372	0.063	-0.3165	0.5025	0	150	219	3
2026-02-12	16:57:38.470	7.42	22.015	-10.605	-0.055876	0.871812	-0.166652	0.051	-0.3105	0.516	0	150	219	3
2026-02-12	16:57:38.490	-8.435	16.03	-20.685	-0.092476	0.866932	-0.179584	0.048	-0.312	0.5145	0	150	219	3
2026-02-12	16:57:38.510	-20.475	13.93	-23.485	-0.109068	0.902312	-0.174216	0.0495	-0.312	0.5085	0	150	219	3
2026-02-12	16:57:38.530	-27.09	15.505	-19.845	-0.07808	0.934032	-0.161528	0.054	-0.3165	0.5085	0	150	219	3
2026-02-12	16:57:38.550	-23.555	21.84	-14.42	-0.027816	0.945256	-0.13542	0.057	-0.315	0.504	0	150	219	3
2026-02-12	16:57:38.570	-10.605	31.99	-10.535	-0.00732	0.945744	-0.14152	0.057	-0.312	0.501	0	150	219	3
2026-02-12	16:57:38.590	4.095	40.635	-8.085	-0.01464	0.959408	-0.177388	0.0525	-0.318	0.5025	0	150	219	3
2026-02-12	16:57:38.610	8.505	44.975	-6.825	-0.040504	0.9638	-0.237656	0.0585	-0.3135	0.4995	0	148	211	3
2026-02-12	16:57:38.630	4.97	45.045	-8.785	-0.082472	0.941108	-0.243024	0.054	-0.3165	0.4995	0	148	211	3
2026-02-12	16:57:38.650	3.255	42.315	-10.885	-0.092964	0.94062	-0.181048	0.057	-0.3165	0.4935	0	148	211	3
2026-02-12	16:57:38.670	2.8	38.815	-12.95	-0.138348	0.941352	-0.124928	0.0495	-0.3165	0.4995	0	148	211	3
2026-02-12	16:57:38.690	0.56	34.755	-14.735	-0.197396	0.889136	-0.016348	0.054	-0.312	0.4905	0	148	211	3
2026-02-12	16:57:38.710	0.91	31.675	-13.44	-0.213012	0.862052	-0.001952	0.057	-0.3135	0.495	0	148	211	3
2026-02-12	16:57:38.730	3.465	28.42	-11.375	-0.224724	0.832772	-0.002196	0.057	-0.3135	0.4995	0	148	211	3
2026-02-12	16:57:38.750	10.255	24.57	-7.56	-0.219844	0.852536	-0.025864	0.06	-0.312	0.498	0	148	211	3
2026-02-12	16:57:38.770	14.035	19.74	-3.43	-0.212524	0.888404	-0.05734	0.0615	-0.3165	0.4965	0	148	211	3
2026-02-12	16:57:38.790	13.16	14.98	-0.175	-0.196176	0.955992	-0.072468	0.057	-0.3195	0.498	0	148	211	3
2026-02-12	16:57:38.810	7.455	11.025	0.07	-0.186172	1.01016	-0.083692	0.057	-0.318	0.4965	0	146	195	3
2026-02-12	16:57:38.830	0.91	8.715	-2.135	-0.194712	1.007476	-0.085156	0.057	-0.312	0.4965	0	146	195	3
2026-02-12	16:57:38.850	-3.99	7.875	-5.005	-0.210328	0.96502	-0.07442	0.054	-0.3045	0.4995	0	146	195	3
2026-02-12	16:57:38.870	-3.395	6.055	-8.575	-0.217404	0.95282	-0.079788	0.054	-0.3075	0.498	0	146	195	3
2026-02-12	16:57:38.890	-4.76	2.135	-11.165	-0.2379	0.965752	-0.11712	0.06	-0.312	0.4995	0	146	195	3
2026-02-12	16:57:38.910	-7.98	-2.205	-11.62	-0.233264	0.99796	-0.123464	0.0675	-0.3135	0.501	0	146	195	3
2026-02-12	16:57:38.930	-8.295	-5.425	-10.465	-0.214476	1.085068	-0.14518	0.0645	-0.3195	0.4965	0	146	195	3
2026-02-12	16:57:38.950	-9.415	-8.4	-7.595	-0.21838	1.221464	-0.227164	0.063	-0.3195	0.4905	0	146	195	3
2026-02-12	16:57:38.970	-8.085	-9.275	-3.325	-0.135664	1.340536	-0.258396	0.066	-0.3165	0.489	0	146	195	3
2026-02-12	16:57:38.990	-5.775	-5.145	0.42	-0.104676	1.280512	-0.237656	0.0645	-0.3165	0.489	0	146	195	3
2026-02-12	16:57:39.010	-2.52	-2.275	3.115	-0.11468	1.194136	-0.212768	0.0735	-0.315	0.495	0	145	176	3
2026-02-12	16:57:39.030	-2.065	-1.75	2.59	-0.11956	1.111664	-0.186416	0.0645	-0.3165	0.4965	0	145	176	3
2026-02-12	16:57:39.050	-7.805	-3.185	0.49	-0.118584	0.955016	-0.17324	0.0585	-0.3165	0.5025	0	145	176	3
2026-02-12	16:57:39.070	-8.785	-5.88	-3.955	-0.143228	0.854488	-0.163724	0.063	-0.318	0.4935	0	145	176	3
2026-02-12	16:57:39.090	-10.29	-10.885	-8.715	-0.1891	0.803736	-0.170312	0.063	-0.318	0.4995	0	145	176	3
2026-02-12	16:57:39.110	-13.44	-17.745	-11.97	-0.238632	0.77226	-0.199104	0.0675	-0.321	0.4965	0	145	176	3
2026-02-12	16:57:39.130	-15.05	-25.795	-10.57	-0.265472	0.798368	-0.24766	0.072	-0.3225	0.4935	0	145	176	3
2026-02-12	16:57:39.150	-14.42	-32.935	-4.48	-0.269376	0.814472	-0.266936	0.075	-0.3195	0.4965	0	145	176	3
2026-02-12	16:57:39.170	-10.535	-38.99	4.305	-0.244244	0.852048	-0.241072	0.0765	-0.3225	0.495	0	145	176	3
2026-02-12	16:57:39.190	-6.405	-42.035	11.865	-0.218136	0.883524	-0.205448	0.075	-0.327	0.492	0	145	176	3
2026-02-12	16:57:39.210	-2.59	-41.23	15.365	-0.18056	0.951356	-0.188368	0.0735	-0.3255	0.4905	0	145	169	3
2026-02-12	16:57:39.230	-1.785	-35.245	14.105	-0.128344	1.06506	-0.165676	0.0735	-0.3255	0.489	0	145	169	3
2026-02-12	16:57:39.250	-5.39	-29.4	10.29	-0.13176	1.021628	-0.175192	0.0735	-0.3255	0.489	0	145	169	3
2026-02-12	16:57:39.270	-7.42	-23.485	7.14	-0.15128	0.920612	-0.174948	0.081	-0.3135	0.489	0	145	169	3
2026-02-12	16:57:39.290	-4.795	-18.795	6.335	-0.183732	0.82472	-0.157868	0.072	-0.3195	0.504	0	145	169	3
2026-02-12	16:57:39.310	-0.98	-16.625	7.28	-0.197396	0.819596	-0.121756	0.078	-0.321	0.4935	0	145	169	3
2026-02-12	16:57:39.330	0.315	-14.91	7.77	-0.215696	0.822768	-0.100284	0.075	-0.318	0.4965	0	145	169	3
2026-02-12	16:57:39.350	0.21	-14	7.98	-0.2074	0.850828	-0.08052	0.078	-0.315	0.492	0	145	169	3
2026-02-12	16:57:39.370	-1.54	-12.425	9.31	-0.217648	0.842776	-0.064904	0.0765	-0.312	0.4995	0	145	169	3
2026-02-12	16:57:39.390	-0.91	-11.2	7.875	-0.242536	0.85888	-0.059536	0.0765	-0.3165	0.4965	0	145	169	3
2026-02-12	16:57:39.410	1.54	-10.5	5.88	-0.250832	0.86376	-0.054412	0.0705	-0.3135	0.498	0	145	167	3
2026-02-12	16:57:39.430	2.94	-9.485	4.865	-0.25742	0.906216	-0.053436	0.0675	-0.3135	0.5055	0	145	167	3
2026-02-12	16:57:39.450	-0.14	-9.065	2.065	-0.24888	0.936228	-0.070272	0.0675	-0.3075	0.495	0	145	167	3
2026-02-12	16:57:39.470	-3.08	-7.91	-0.525	-0.247904	0.96624	-0.081008	0.0705	-0.3075	0.4995	0	145	167	3
2026-02-12	16:57:39.490	-5.46	-7	-3.955	-0.2501	0.989176	-0.093208	0.066	-0.306	0.5025	0	145	167	3
2026-02-12	16:57:39.510	-8.05	-7.21	-7.175	-0.227408	1.026752	-0.100284	0.072	-0.3105	0.5055	0	145	167	3
2026-02-12	16:57:39.530	-10.325	-5.81	-8.26	-0.21594	1.0614	-0.114924	0.072	-0.3075	0.501	0	145	167	3
2026-02-12	16:57:39.550	-11.165	-4.2	-8.54	-0.188368	1.054568	-0.121024	0.069	-0.309	0.4935	0	145	167	3
2026-02-12	16:57:39.570	-8.61	-0.63	-7.385	-0.193248	1.02846	-0.11834	0.0705	-0.309	0.4875	0	145	167	3
2026-02-12	16:57:39.590	-1.295	3.045	-2.38	-0.199348	1.049688	-0.136396	0.078	-0.315	0.492	0	145	167	3
2026-02-12	16:57:39.610	4.655	6.545	6.51	-0.150304	1.147532	-0.144204	0.081	-0.3195	0.498	0	145	160	3
2026-02-12	16:57:39.630	6.51	11.76	14.84	-0.082716	1.230248	-0.169824	0.0825	-0.3165	0.4995	0	145	160	3
2026-02-12	16:57:39.650	12.425	19.145	19.81	-0.008296	1.255868	-0.194468	0.0795	-0.309	0.4965	0	145	160	3
2026-02-12	16:57:39.670	22.89	26.18	18.025	0.028792	1.136064	-0.182756	0.069	-0.309	0.4935	0	145	160	3
2026-02-12	16:57:39.690	33.67	29.33	9.03	0.041968	1.022116	-0.161284	0.0675	-0.303	0.5085	0	145	160	3
2026-02-12	16:57:39.710	26.46	28.77	-4.62	-0.02684	0.936716	-0.140056	0.066	-0.306	0.504	0	145	160	3
2026-02-12	16:57:39.730	6.825	25.795	-15.085	-0.082716	0.882548	-0.135664	0.0675	-0.306	0.507	0	145	160	3
2026-02-12	16:57:39.750	-8.785	23.135	-18.655	-0.091012	0.869372	-0.116388	0.0615	-0.3075	0.507	0	145	160	3
2026-02-12	16:57:39.770	-5.95	26.635	-11.69	-0.03416	0.956724	-0.08784	0.0675	-0.3135	0.5055	0	145	160	3
2026-02-12	16:57:39.790	6.23	33.565	-6.265	0.007564	1.020896	-0.089304	0.0645	-0.3045	0.507	0	145	160	3
2026-02-12	16:57:39.810	14.105	41.965	-4.165	0.0061	1.05286	-0.103944	0.0585	-0.297	0.5055	0	145	152	3
2026-02-12	16:57:39.830	11.55	48.265	-4.9	-0.032208	1.045052	-0.136152	0.0585	-0.2985	0.501	0	145	152	3
2026-02-12	16:57:39.850	4.095	50.435	-6.405	-0.073688	0.953308	-0.179828	0.063	-0.2985	0.5055	0	145	152	3
2026-02-12	16:57:39.870	4.9	48.615	-7.105	-0.113948	0.892308	-0.187636	0.0615	-0.3	0.51	0	145	152	3
2026-02-12	16:57:39.890	8.925	44.555	-8.925	-0.153964	0.886696	-0.165188	0.063	-0.2985	0.5055	0	145	152	3
2026-02-12	16:57:39.910	8.295	40.88	-10.745	-0.189588	0.87474	-0.134688	0.063	-0.2985	0.501	0	145	152	3
2026-02-12	16:57:39.930	3.71	37.905	-12.95	-0.214476	0.854976	-0.104188	0.06	-0.2985	0.501	0	145	152	3
2026-02-12	16:57:39.950	1.155	35.525	-14	-0.232532	0.823988	-0.08174	0.0615	-0.3	0.504	0	145	152	3
2026-02-12	16:57:39.970	3.185	33.355	-13.265	-0.251076	0.802028	-0.079788	0.0585	-0.2985	0.4995	0	145	152	3
2026-02-12	16:57:39.990	7.28	30.765	-11.515	-0.254248	0.825696	-0.077348	0.0615	-0.2985	0.4965	0	145	152	3
2026-02-12	16:57:40.010	5.18	26.32	-8.68	-0.241316	0.880352	-0.070028	0.069	-0.3015	0.498	0	145	146	3
2026-02-12	16:57:40.030	1.96	21.84	-7.77	-0.233752	0.917196	-0.083204	0.0615	-0.3015	0.4995	0	145	146	3
2026-02-12	16:57:40.050	0.455	15.75	-7.945	-0.227408	0.973316	-0.08418	0.0555	-0.3015	0.501	0	145	146	3
2026-02-12	16:57:40.070	-1.61	11.06	-9.765	-0.225944	0.982588	-0.080276	0.0645	-0.3075	0.4995	0	145	146	3
2026-02-12	16:57:40.090	-3.955	7.35	-13.195	-0.2318	0.9821	-0.081984	0.0585	-0.303	0.4995	0	145	146	3
2026-02-12	16:57:40.110	-4.655	4.515	-17.29	-0.254736	0.956724	-0.099308	0.06	-0.309	0.498	0	145	146	3
2026-02-12	16:57:40.130	-3.71	0.98	-17.85	-0.254248	0.986492	-0.122244	0.0645	-0.3075	0.4965	0	145	146	3
2026-02-12	16:57:40.150	-1.19	-1.19	-15.855	-0.260592	1.01504	-0.173972	0.0645	-0.3075	0.492	0	145	146	3
2026-02-12	16:57:40.170	5.04	-3.045	-10.71	-0.260104	1.079944	-0.230824	0.063	-0.306	0.495	0	145	146	3
2026-02-12	16:57:40.190	12.74	-3.955	-3.92	-0.246684	1.237568	-0.265716	0.066	-0.3075	0.498	0	145	146	3
2026-02-12	16:57:40.210	12.705	-3.5	3.57	-0.148352	1.326384	-0.276452	0.0675	-0.306	0.501	0	145	141	3
2026-02-12	16:57:40.230	10.64	-0.105	8.61	-0.118584	1.258552	-0.286456	0.066	-0.303	0.5055	0	145	141	3
2026-02-12	16:57:40.250	13.16	2.275	10.535	-0.150548	1.155828	-0.292556	0.0675	-0.3045	0.5025	0	145	141	3
2026-02-12	16:57:40.270	15.715	0.245	11.375	-0.151768	1.08336	-0.276452	0.0645	-0.3	0.495	0	145	141	3
2026-02-12	16:57:40.290	10.64	-3.045	9.485	-0.152744	1.016992	-0.257176	0.066	-0.2955	0.4965	0	145	141	3
2026-02-12	16:57:40.310	-6.23	-11.025	2.345	-0.186416	0.856196	-0.25376	0.0705	-0.2955	0.504	0	145	141	3
2026-02-12	16:57:40.330	-12.04	-18.795	-1.995	-0.219112	0.793976	-0.261568	0.0705	-0.2955	0.504	0	145	141	3
2026-02-12	16:57:40.350	-15.47	-26.355	-1.435	-0.252296	0.785436	-0.27206	0.063	-0.2925	0.501	0	145	141	3
2026-02-12	16:57:40.370	-16.38	-32.76	3.99	-0.241804	0.817644	-0.284504	0.06	-0.3045	0.5055	0	145	141	3
2026-02-12	16:57:40.390	-12.74	-36.19	11.935	-0.230092	0.854976	-0.27816	0.057	-0.2955	0.4995	0	145	141	3
2026-02-12	16:57:40.410	-5.88	-37.31	19.11	-0.210816	0.892308	-0.264252	0.06	-0.303	0.501	0	145	152	3
2026-02-12	16:57:40.430	-0.105	-36.54	22.715	-0.175436	0.956968	-0.25864	0.06	-0.2955	0.504	0	145	152	3
2026-02-12	16:57:40.450	1.855	-34.405	21.77	-0.16104	1.01504	-0.266692	0.054	-0.2955	0.5145	0	145	152	3
2026-02-12	16:57:40.470	-0.385	-31.85	16.975	-0.157136	1.013088	-0.268644	0.0555	-0.2865	0.5055	0	145	152	3
2026-02-12	16:57:40.490	-4.9	-29.645	10.99	-0.183976	0.939644	-0.255712	0.0585	-0.2955	0.504	0	145	152	3
2026-02-12	16:57:40.510	-8.33	-28.84	7.735	-0.202764	0.852536	-0.220332	0.0615	-0.3015	0.5115	0	145	152	3
2026-02-12	16:57:40.530	-8.61	-28.7	6.545	-0.220332	0.785192	-0.176656	0.0585	-0.2985	0.5115	0	145	152	3
2026-02-12	16:57:40.550	-4.585	-29.435	6.825	-0.242536	0.787144	-0.129076	0.057	-0.288	0.5055	0	145	152	3
2026-02-12	16:57:40.570	-2.66	-30.17	7.7	-0.245952	0.822036	-0.099064	0.057	-0.288	0.5085	0	145	152	3
2026-02-12	16:57:40.590	-5.075	-29.75	6.93	-0.251564	0.850828	-0.099064	0.057	-0.288	0.5085	0	145	152	3
2026-02-12	16:57:40.610	-4.76	-27.825	5.775	-0.258884	0.885964	-0.093208	0.0555	-0.2895	0.5145	0	147	170	3
2026-02-12	16:57:40.630	-5.425	-25.025	4.445	-0.270596	0.870348	-0.101504	0.06	-0.2895	0.513	0	147	170	3
2026-02-12	16:57:40.650	-4.725	-23.31	3.78	-0.27206	0.8784	-0.114924	0.0615	-0.2865	0.507	0	147	170	3
2026-02-12	16:57:40.670	-3.885	-22.19	1.89	-0.26474	0.91622	-0.130052	0.057	-0.288	0.507	0	147	170	3
2026-02-12	16:57:40.690	-6.685	-21.49	-0.315	-0.265228	0.926956	-0.156404	0.0555	-0.2865	0.5175	0	147	170	3
2026-02-12	16:57:40.710	-8.19	-22.33	-2.345	-0.252784	0.926712	-0.164212	0.051	-0.2925	0.5205	0	147	170	3
2026-02-12	16:57:40.730	-8.61	-22.96	-3.64	-0.254736	0.94794	-0.152256	0.0555	-0.2805	0.507	0	147	170	3
2026-02-12	16:57:40.750	-10.43	-23.52	-4.48	-0.245952	1.006744	-0.13664	0.0585	-0.2805	0.5115	0	147	170	3
2026-02-12	16:57:40.770	-13.09	-22.645	-4.795	-0.214232	1.064084	-0.131272	0.0615	-0.294	0.507	0	147	170	3
2026-02-12	16:57:40.790	-14.56	-19.53	-4.48	-0.178852	1.062864	-0.131028	0.0555	-0.2895	0.5085	0	147	170	3
2026-02-12	16:57:40.810	-13.895	-14.42	-2.94	-0.163724	1.051396	-0.14762	0.072	-0.2835	0.5115	0	147	178	3
2026-02-12	16:57:40.830	-7.595	-8.61	1.155	-0.188612	1.040172	-0.179096	0.066	-0.2955	0.5085	0	147	178	3
2026-02-12	16:57:40.850	6.23	-1.365	14.63	-0.166896	1.22854	-0.209108	0.063	-0.2805	0.5085	0	147	178	3
2026-02-12	16:57:40.870	9.66	5.915	22.995	-0.095404	1.352004	-0.233508	0.0615	-0.279	0.507	0	147	178	3
2026-02-12	16:57:40.890	11.69	13.02	25.83	-0.01952	1.337364	-0.243756	0.057	-0.2805	0.5085	0	147	178	3
2026-02-12	16:57:40.910	16.45	17.675	20.3	0.003904	1.169004	-0.21594	0.0525	-0.282	0.5115	0	147	178	3
2026-02-12	16:57:40.930	21.07	17.185	7.91	-0.009028	0.966484	-0.188856	0.0525	-0.282	0.5145	0	147	178	3
2026-02-12	16:57:40.950	17.815	13.055	-5.775	-0.059536	0.859612	-0.165676	0.051	-0.282	0.513	0	147	178	3
2026-02-12	16:57:40.970	5.565	8.015	-15.82	-0.112728	0.833504	-0.13664	0.0495	-0.2835	0.513	0	147	178	3
2026-02-12	16:57:40.990	-12.74	2.87	-21.91	-0.1342	0.831552	-0.122488	0.048	-0.2835	0.5145	0	147	178	3
2026-02-12	16:57:41.010	-24.955	1.015	-23.03	-0.099064	0.853268	-0.081008	0.0495	-0.2835	0.516	0	147	177	3
2026-02-12	16:57:41.030	-22.96	5.46	-18.13	-0.049776	0.932812	-0.03416	0.0525	-0.282	0.516	0	147	177	3
2026-02-12	16:57:41.050	-12.46	14.98	-14.14	0.003904	0.975268	-0.027572	0.0555	-0.2835	0.513	0	147	177	3
2026-02-12	16:57:41.070	1.47	28.56	-12.355	0.006344	1.005524	-0.073444	0.0585	-0.285	0.5085	0	147	177	3
2026-02-12	16:57:41.090	8.82	39.13	-10.99	-0.001464	1.00406	-0.121756	0.057	-0.282	0.507	0	147	177	3
2026-02-12	16:57:41.110	8.61	46.13	-11.13	-0.059292	0.927688	-0.174948	0.054	-0.282	0.5115	0	147	177	3
2026-02-12	16:57:41.130	7.77	46.55	-12.355	-0.110532	0.865712	-0.189344	0.0525	-0.2835	0.513	0	147	177	3
2026-02-12	16:57:41.150	8.575	42.735	-13.825	-0.145424	0.859856	-0.147864	0.057	-0.2925	0.4995	0	147	177	3
2026-02-12	16:57:41.170	7.49	38.045	-15.33	-0.169092	0.855952	-0.104676	0.057	-0.2775	0.504	0	147	177	3
2026-02-12	16:57:41.190	5.46	34.825	-15.26	-0.195444	0.84912	-0.07076	0.0525	-0.282	0.4995	0	147	177	3
2026-02-12	16:57:41.210	5.18	32.655	-12.18	-0.22448	0.841556	-0.043432	0.0585	-0.2835	0.4995	0	148	169	3
2026-02-12	16:57:41.230	5.495	31.115	-8.82	-0.243512	0.847656	-0.043432	0.057	-0.2835	0.498	0	148	169	3
2026-02-12	16:57:41.250	6.65	29.995	-7.7	-0.234728	0.880352	-0.038064	0.0585	-0.279	0.4995	0	148	169	3
2026-02-12	16:57:41.270	7.105	28.49	-5.74	-0.254004	0.924516	-0.061976	0.0555	-0.2805	0.501	0	148	169	3
2026-02-12	16:57:41.290	6.125	25.095	-5.215	-0.241316	0.947452	-0.069784	0.048	-0.2865	0.498	0	148	169	3
2026-02-12	16:57:41.310	3.92	21.735	-5.74	-0.247416	0.98698	-0.076128	0.051	-0.282	0.501	0	148	169	3
2026-02-12	16:57:41.330	-2.205	17.535	-8.715	-0.247172	0.988932	-0.083448	0.051	-0.2835	0.4995	0	148	169	3
2026-02-12	16:57:41.350	-6.86	13.405	-12.845	-0.257908	0.966484	-0.089548	0.048	-0.285	0.498	0	148	169	3
2026-02-12	16:57:41.370	-8.26	9.345	-16.625	-0.293776	0.939888	-0.10126	0.0495	-0.282	0.5025	0	148	169	3
2026-02-12	16:57:41.390	-6.335	3.395	-17.43	-0.330864	0.975756	-0.140788	0.0525	-0.282	0.5025	0	148	169	3
2026-02-12	16:57:41.410	-1.54	0.525	-13.93	-0.333304	1.017968	-0.165432	0.0525	-0.282	0.5025	0	149	155	3
2026-02-12	16:57:41.430	4.41	-1.295	-8.645	-0.303292	1.11996	-0.2074	0.0645	-0.282	0.4935	0	149	155	3
2026-02-12	16:57:41.450	7.315	-2.1	-2.625	-0.271084	1.194868	-0.234728	0.0615	-0.2835	0.4875	0	149	155	3
2026-02-12	16:57:41.470	7.49	-2.52	2.73	-0.209108	1.248792	-0.242292	0.057	-0.291	0.492	0	149	155	3
2026-02-12	16:57:41.490	5.88	-0.595	5.915	-0.214476	1.174372	-0.238876	0.066	-0.273	0.501	0	149	155	3
2026-02-12	16:57:41.510	9.59	-0.175	8.435	-0.24278	1.114348	-0.2318	0.066	-0.2865	0.4965	0	149	155	3
2026-02-12	16:57:41.530	12.53	-3.64	9.66	-0.2745	1.068232	-0.243512	0.0615	-0.279	0.498	0	149	155	3
2026-02-12	16:57:41.550	13.44	-10.15	10.395	-0.249368	1.036268	-0.249368	0.063	-0.273	0.5055	0	149	155	3
2026-02-12	16:57:41.570	9.975	-17.29	7.525	-0.233996	1.00528	-0.247416	0.054	-0.282	0.5055	0	149	155	3
2026-02-12	16:57:41.590	-0.21	-25.34	1.68	-0.243024	0.943792	-0.24156	0.0555	-0.276	0.501	0	149	155	3
2026-02-12	16:57:41.610	-12.985	-34.615	-3.22	-0.255712	0.859612	-0.266448	0.0615	-0.279	0.4995	0	150	151	3
2026-02-12	16:57:41.630	-21.735	-43.19	-3.29	-0.280356	0.80764	-0.284992	0.0525	-0.285	0.504	0	150	151	3
2026-02-12	16:57:41.650	-23.415	-50.715	3.99	-0.269864	0.838872	-0.258152	0.06	-0.2715	0.504	0	150	151	3
2026-02-12	16:57:41.670	-21.245	-53.445	14.42	-0.230824	0.898652	-0.18788	0.06	-0.2715	0.504	0	150	151	3
2026-02-12	16:57:41.690	-17.22	-50.645	19.355	-0.166896	0.950624	-0.161772	0.0645	-0.2745	0.504	0	150	151	3
2026-02-12	16:57:41.710	-13.965	-44.765	18.69	-0.13054	0.995764	-0.174216	0.066	-0.2805	0.507	0	150	151	3
2026-02-12	16:57:41.730	-13.51	-39.725	15.365	-0.128344	0.968924	-0.207156	0.06	-0.2805	0.5055	0	150	151	3
2026-02-12	16:57:41.750	-13.72	-35.595	11.445	-0.152744	0.919636	-0.221308	0.06	-0.282	0.501	0	150	151	3
2026-02-12	16:57:41.770	-12.39	-32.375	9.065	-0.17568	0.827892	-0.200324	0.0615	-0.2865	0.501	0	150	151	3
2026-02-12	16:57:41.790	-6.825	-31.115	8.995	-0.195688	0.778116	-0.171776	0.0585	-0.2775	0.5055	0	150	151	3
2026-02-12	16:57:41.810	-0.98	-29.96	10.29	-0.23424	0.756644	-0.139568	0.06	-0.282	0.4905	0	151	160	3
2026-02-12	16:57:41.830	4.795	-28.84	12.6	-0.26108	0.762256	-0.101748	0.0645	-0.282	0.5055	0	151	160	3
2026-02-12	16:57:41.850	9.065	-27.79	14.805	-0.271328	0.815692	-0.081984	0.0615	-0.273	0.5025	0	151	160	3
2026-02-12	16:57:41.870	8.89	-27.02	15.05	-0.283772	0.854	-0.08686399	0.0585	-0.276	0.507	0	151	160	3
2026-02-12	16:57:41.890	6.58	-27.405	14.14	-0.288164	0.86498	-0.0915	0.063	-0.2715	0.516	0	151	160	3
2026-02-12	16:57:41.910	5.495	-28.42	12.32	-0.288652	0.863516	-0.09857599	0.0615	-0.2745	0.5145	0	151	160	3
2026-02-12	16:57:41.930	5.495	-30.205	9.8	-0.278404	0.897432	-0.10858	0.06	-0.2715	0.513	0	151	160	3
2026-02-12	16:57:41.950	5.005	-31.115	7.14	-0.26596	0.934276	-0.092964	0.06	-0.2685	0.5145	0	151	160	3
2026-02-12	16:57:41.970	1.89	-31.01	4.095	-0.249368	0.933544	-0.0854	0.063	-0.2685	0.516	0	151	160	3
2026-02-12	16:57:41.990	-1.855	-30.695	0.175	-0.253028	0.943304	-0.083692	0.0615	-0.273	0.5175	0	151	160	3
2026-02-12	16:57:42.010	-4.165	-30.03	-3.115	-0.259372	0.976976	-0.098332	0.0555	-0.2775	0.5175	0	151	165	3
2026-02-12	16:57:42.030	-7.14	-29.295	-4.445	-0.23546	1.027972	-0.106872	0.054	-0.273	0.5175	0	151	165	3
2026-02-12	16:57:42.050	-8.47	-26.81	-3.57	-0.1952	1.043832	-0.106384	0.0645	-0.2655	0.5175	0	151	165	3
2026-02-12	16:57:42.070	-5.355	-22.015	-1.365	-0.158844	1.027484	-0.104188	0.0765	-0.2715	0.516	0	151	165	3
2026-02-12	16:57:42.090	2.66	-15.4	2.38	-0.171044	1.020896	-0.124928	0.0735	-0.276	0.5175	0	151	165	3
2026-02-12	16:57:42.110	10.78	-7.84	10.08	-0.198372	1.095072	-0.178608	0.0675	-0.2745	0.522	0	151	165	3
2026-02-12	16:57:42.130	15.925	-1.295	19.215	-0.180072	1.21024	-0.222284	0.0675	-0.273	0.5235	0	151	165	3
2026-02-12	16:57:42.150	20.405	3.71	26.215	-0.10126	1.229516	-0.212036	0.066	-0.264	0.5265	0	151	165	3
2026-02-12	16:57:42.170	25.235	10.255	31.43	-0.036844	1.193648	-0.210572	0.0615	-0.2685	0.5265	0	151	165	3
2026-02-12	16:57:42.190	29.365	13.405	24.395	0.065636	1.127524	-0.199348	0.0525	-0.2715	0.5295	0	151	165	3
2026-02-12	16:57:42.210	28.245	13.825	6.685	0.085156	1.08702	-0.180072	0.045	-0.2655	0.5355	0	150	161	3
2026-02-12	16:57:42.230	6.195	12.32	-11.865	0.005856	0.976	-0.156892	0.0525	-0.258	0.54	0	150	161	3
2026-02-12	16:57:42.250	-16.8	10.99	-23.205	-0.041236	0.900604	-0.127368	0.042	-0.2625	0.5475	0	150	161	3
2026-02-12	16:57:42.270	-24.045	12.32	-23.87	-0.049044	0.90402	-0.08662	0.0555	-0.255	0.537	0	150	161	3
2026-02-12	16:57:42.290	-15.645	17.045	-19.74	-0.003904	0.99674	-0.041724	0.0435	-0.255	0.534	0	150	161	3
2026-02-12	16:57:42.310	-3.465	27.335	-15.715	0.037088	0.948428	0.028304	0.0525	-0.267	0.5265	0	150	161	3
2026-02-12	16:57:42.330	9.03	38.64	-11.445	0.042456	0.9394	0.060268	0.054	-0.2625	0.5295	0	150	161	3
2026-02-12	16:57:42.350	29.645	46.795	-14.805	0.044408	1.035536	-0.001952	0.057	-0.261	0.5325	0	150	161	3
2026-02-12	16:57:42.370	38.99	52.885	-18.515	-0.026596	1.012356	-0.089304	0.0525	-0.258	0.5355	0	150	161	3
2026-02-12	16:57:42.390	32.725	52.64	-21.07	-0.081984	1.025776	-0.151768	0.0555	-0.2595	0.537	0	150	161	3
2026-02-12	16:57:42.410	12.285	49.84	-24.99	-0.150548	0.975512	-0.203008	0.0555	-0.264	0.54	0	150	153	3
2026-02-12	16:57:42.430	-4.655	43.54	-25.235	-0.214964	0.878888	-0.197396	0.0495	-0.2625	0.54	0	150	153	3
2026-02-12	16:57:42.450	-7.56	35.595	-24.71	-0.248148	0.832772	-0.180316	0.054	-0.2625	0.5385	0	150	153	3
2026-02-12	16:57:42.470	-7.21	27.44	-22.05	-0.266936	0.854732	-0.13298	0.0555	-0.261	0.54	0	150	153	3
2026-02-12	16:57:42.490	-9.415	25.48	-20.475	-0.26352	0.882792	-0.105408	0.0555	-0.261	0.54	0	150	153	3
2026-02-12	16:57:42.510	-10.22	25.165	-18.025	-0.27572	0.86498	-0.080764	0.0615	-0.264	0.531	0	150	153	3
2026-02-12	16:57:42.530	-6.93	24.71	-15.435	-0.25742	0.862784	-0.05978	0.0555	-0.2685	0.5325	0	150	153	3
2026-02-12	16:57:42.550	-2.695	24.36	-13.265	-0.239364	0.89426	-0.050508	0.0645	-0.264	0.528	0	150	153	3
2026-02-12	16:57:42.570	-3.045	22.61	-13.37	-0.237412	0.953552	-0.044164	0.0615	-0.264	0.5265	0	150	153	3
2026-02-12	16:57:42.590	-9.275	19.18	-14.91	-0.231068	0.974292	-0.050996	0.0615	-0.264	0.5265	0	150	153	3
2026-02-12	16:57:42.610	-15.75	15.015	-17.185	-0.255956	0.956236	-0.060512	0.0645	-0.273	0.522	0	151	142	3
2026-02-12	16:57:42.630	-18.76	8.855	-19.39	-0.266936	0.966484	-0.058072	0.0675	-0.273	0.525	0	151	142	3
2026-02-12	16:57:42.650	-19.46	3.85	-19.81	-0.302316	0.956724	-0.091988	0.069	-0.276	0.516	0	151	142	3
2026-02-12	16:57:42.670	-17.22	-0.735	-16.38	-0.308904	0.975024	-0.1464	0.0705	-0.276	0.513	0	151	142	3
2026-02-12	16:57:42.690	-10.5	-2.73	-8.505	-0.30622	1.047248	-0.195444	0.063	-0.27	0.5175	0	151	142	3
2026-02-12	16:57:42.710	-6.09	-4.69	0.595	-0.264984	1.185352	-0.216672	0.0705	-0.2745	0.513	0	151	142	3
2026-02-12	16:57:42.730	-0.385	-4.795	10.78	-0.161284	1.27124	-0.22082	0.0675	-0.2805	0.516	0	151	142	3
2026-02-12	16:57:42.750	4.795	0	15.68	-0.176168	1.200724	-0.233752	0.0735	-0.2775	0.5115	0	151	142	3
2026-02-12	16:57:42.770	5.81	1.33	16.66	-0.213012	1.1041	-0.259372	0.0705	-0.2745	0.5145	0	151	142	3
2026-02-12	16:57:42.790	6.615	-1.575	17.01	-0.212768	1.054812	-0.255712	0.063	-0.2715	0.5175	0	151	142	3
2026-02-12	16:57:42.810	3.22	-6.895	13.16	-0.197152	0.970388	-0.227408	0.0585	-0.27	0.519	0	152	136	3
2026-02-12	16:57:42.830	-5.11	-13.055	6.405	-0.199592	0.865712	-0.188368	0.057	-0.273	0.5205	0	152	136	3
2026-02-12	16:57:42.850	-14.385	-20.405	0.14	-0.238144	0.804956	-0.205936	0.057	-0.2715	0.522	0	152	136	3
2026-02-12	16:57:42.870	-18.9	-29.05	-2.45	-0.274256	0.81862	-0.240584	0.0585	-0.27	0.5205	0	152	136	3
2026-02-12	16:57:42.890	-23.1	-35	1.61	-0.294508	0.868152	-0.229848	0.066	-0.2745	0.522	0	152	136	3
2026-02-12	16:57:42.910	-24.745	-39.48	9.24	-0.268888	0.874252	-0.212036	0.06	-0.2745	0.519	0	152	136	3
2026-02-12	16:57:42.930	-17.115	-41.16	16.625	-0.219112	0.915	-0.19032	0.069	-0.2805	0.516	0	152	136	3
2026-02-12	16:57:42.950	-7.315	-40.04	17.675	-0.16836	1.003572	-0.152744	0.063	-0.276	0.5205	0	152	136	3
2026-02-12	16:57:42.970	-3.22	-36.365	17.885	-0.141032	1.002352	-0.14762	0.0645	-0.276	0.525	0	152	136	3
2026-02-12	16:57:42.990	-6.615	-32.235	13.685	-0.12322	0.97478	-0.182268	0.063	-0.273	0.5145	0	152	136	3
2026-02-12	16:57:43.010	-8.33	-27.615	4.62	-0.178608	0.89548	-0.173728	0.0615	-0.273	0.5175	0	153	143	3
2026-02-12	16:57:43.030	-6.44	-26.32	1.4	-0.23058	0.809592	-0.14274	0.0645	-0.273	0.522	0	153	143	3
2026-02-12	16:57:43.050	-5.705	-26.285	3.115	-0.249124	0.763476	-0.110776	0.066	-0.2775	0.5205	0	153	143	3
2026-02-12	16:57:43.070	-4.165	-26.88	5.95	-0.253272	0.757132	-0.081984	0.066	-0.276	0.5175	0	153	143	3
2026-02-12	16:57:43.090	-2.415	-26.705	8.54	-0.24888	0.784948	-0.045628	0.0675	-0.2775	0.5235	0	153	143	3
2026-02-12	16:57:43.110	0	-25.34	9.205	-0.237412	0.805444	-0.016836	0.0675	-0.2805	0.522	0	153	143	3
2026-02-12	16:57:43.130	1.05	-22.435	9.45	-0.239364	0.833016	-0.012444	0.066	-0.276	0.5235	0	153	143	3
2026-02-12	16:57:43.150	2.38	-19.145	8.75	-0.239852	0.841556	-0.041236	0.066	-0.2715	0.5295	0	153	143	3
2026-02-12	16:57:43.170	5.845	-15.925	8.4	-0.249856	0.840336	-0.065392	0.0675	-0.273	0.5295	0	153	143	3
2026-02-12	16:57:43.190	8.96	-13.895	7.77	-0.242292	0.870104	-0.079544	0.066	-0.276	0.528	0	153	143	3
2026-02-12	16:57:43.210	6.685	-12.215	6.825	-0.249368	0.87962	-0.10736	0.0675	-0.2745	0.5325	0	154	146	3
2026-02-12	16:57:43.230	3.15	-12.215	6.405	-0.256932	0.925248	-0.12688	0.0675	-0.2715	0.5355	0	154	146	3
2026-02-12	16:57:43.250	-1.26	-12.635	7.245	-0.266936	1.000156	-0.116632	0.0705	-0.273	0.531	0	154	146	3
2026-02-12	16:57:43.270	-5.74	-10.99	11.55	-0.240096	1.0614	-0.072468	0.069	-0.2775	0.5295	0	154	146	3
2026-02-12	16:57:43.290	-1.785	-6.615	16.59	-0.210084	1.094096	-0.048312	0.066	-0.2805	0.531	0	154	146	3
2026-02-12	16:57:43.310	3.71	-1.505	19.88	-0.18544	1.10166	-0.053192	0.0645	-0.276	0.54	0	154	146	3
2026-02-12	16:57:43.330	5.845	4.13	23.485	-0.174216	1.119472	-0.09076799	0.0585	-0.27	0.537	0	154	146	3
2026-02-12	16:57:43.350	8.05	9.205	28.91	-0.15616	1.253428	-0.163724	0.063	-0.27	0.534	0	154	146	3
2026-02-12	16:57:43.370	14.455	13.09	34.16	-0.076372	1.392508	-0.210084	0.063	-0.273	0.534	0	154	146	3
2026-02-12	16:57:43.390	21.14	17.15	35.07	-0.017812	1.362496	-0.199104	0.054	-0.2715	0.534	0	154	146	3
2026-02-12	16:57:43.410	31.15	19.705	28.49	0.050752	1.308084	-0.142496	0.0495	-0.27	0.543	0	154	140	3
2026-02-12	16:57:43.430	25.445	19.53	11.97	0.05978	1.145092	-0.09516	0.045	-0.267	0.543	0	154	140	3
2026-02-12	16:57:43.450	7.63	17.64	-7.665	0.026108	0.962092	-0.072468	0.0465	-0.264	0.543	0	154	140	3
2026-02-12	16:57:43.470	-12.18	14.035	-22.82	-0.045872	0.85034	-0.0793	0.045	-0.264	0.5415	0	154	140	3
2026-02-12	16:57:43.490	-26.915	10.465	-29.82	-0.05978	0.809592	-0.091744	0.0435	-0.264	0.54	0	154	140	3
2026-02-12	16:57:43.510	-31.745	9.975	-30.24	-0.047092	0.839848	-0.073444	0.0495	-0.267	0.5355	0	154	140	3
2026-02-12	16:57:43.530	-26.25	14.105	-24.29	-0.002684	0.892552	-0.041968	0.0525	-0.27	0.531	0	154	140	3
2026-02-12	16:57:43.550	-3.01	27.23	-12.845	0.04026	0.927688	-0.034404	0.054	-0.2715	0.5325	0	154	140	3
2026-02-12	16:57:43.570	10.22	38.325	-8.47	0.040992	0.983808	-0.072468	0.054	-0.2715	0.5325	0	154	140	3
2026-02-12	16:57:43.590	17.675	47.845	-5.95	-0.003904	0.979904	-0.12322	0.057	-0.2715	0.5265	0	154	140	3
2026-02-12	16:57:43.610	19.88	52.5	-6.02	-0.03172	0.97966	-0.167872	0.0585	-0.276	0.522	0	155	132	3
2026-02-12	16:57:43.630	16.45	52.885	-9.275	-0.074664	0.961604	-0.177876	0.0555	-0.2745	0.531	0	155	132	3
2026-02-12	16:57:43.650	12.25	49.245	-13.72	-0.104188	0.928176	-0.16104	0.063	-0.2745	0.525	0	155	132	3
2026-02-12	16:57:43.670	8.54	44.03	-17.885	-0.13298	0.878156	-0.120048	0.0645	-0.273	0.5265	0	155	132	3
2026-02-12	16:57:43.690	5.6	39.235	-20.37	-0.158356	0.840092	-0.073444	0.0525	-0.2775	0.5235	0	155	132	3
2026-02-12	16:57:43.710	4.585	35.28	-20.09	-0.18422	0.799832	-0.058316	0.0615	-0.279	0.5205	0	155	132	3
2026-02-12	16:57:43.730	6.23	32.235	-17.01	-0.209352	0.81252	-0.047336	0.0585	-0.285	0.5085	0	155	132	3
2026-02-12	16:57:43.750	7.245	30.1	-12.985	-0.21472	0.797636	-0.043676	0.0555	-0.2865	0.5265	0	155	132	3
2026-02-12	16:57:43.770	10.675	28.14	-8.19	-0.217892	0.826916	-0.038064	0.0555	-0.279	0.516	0	155	132	3
2026-02-12	16:57:43.790	12.04	25.76	-4.69	-0.225944	0.854976	-0.045628	0.063	-0.279	0.5205	0	155	132	3
2026-02-12	16:57:43.810	10.605	21.14	-1.365	-0.22936	0.923784	-0.05124	0.0585	-0.276	0.5145	0	158	123	3
2026-02-12	16:57:43.830	8.435	15.82	-0.945	-0.224724	0.999668	-0.05368	0.0615	-0.2805	0.5205	0	158	123	3
2026-02-12	16:57:43.850	5.495	11.34	-2.765	-0.238388	1.007476	-0.068564	0.06	-0.279	0.522	0	158	123	3
2026-02-12	16:57:43.870	3.36	6.825	-4.795	-0.248636	1.02602	-0.085644	0.06	-0.279	0.522	0	158	123	3
2026-02-12	16:57:43.890	0.665	3.115	-5.04	-0.261568	1.036268	-0.112484	0.06	-0.279	0.522	0	158	123	3
2026-02-12	16:57:43.910	3.745	0.14	-2.765	-0.243756	1.099952	-0.160796	0.063	-0.282	0.5265	0	158	123	3
2026-02-12	16:57:43.930	8.89	-1.75	-0.385	-0.234484	1.16632	-0.213744	0.0645	-0.282	0.5265	0	158	123	3
2026-02-12	16:57:43.950	15.26	-3.395	2.38	-0.206912	1.246596	-0.246928	0.0615	-0.2835	0.525	0	158	123	3
2026-02-12	16:57:43.970	19.285	-4.095	5.005	-0.182512	1.281	-0.279624	0.066	-0.291	0.5235	0	158	123	3
2026-02-12	16:57:43.990	23.17	-5.845	7.14	-0.167384	1.221952	-0.301828	0.0645	-0.2775	0.516	0	158	123	3
2026-02-12	16:57:44.010	32.2	-10.08	8.4	-0.153964	1.190232	-0.344284	0.0645	-0.2775	0.516	0	160	120	3
2026-02-12	16:57:44.030	31.01	-12.775	8.75	-0.111752	1.160464	-0.356972	0.057	-0.279	0.5355	0	160	120	3
2026-02-12	16:57:44.050	26.845	-14.56	7.105	-0.0793	1.12118	-0.324764	0.069	-0.2775	0.534	0	160	120	3
2026-02-12	16:57:44.070	13.51	-15.505	-0.14	-0.10004	0.955992	-0.288408	0.063	-0.279	0.5325	0	160	120	3
2026-02-12	16:57:44.090	-1.82	-20.09	-12.53	-0.191296	0.792512	-0.287432	0.069	-0.2775	0.5235	0	160	120	3
2026-02-12	16:57:44.110	-6.475	-24.325	-14.735	-0.244244	0.763232	-0.310368	0.066	-0.2745	0.5295	0	160	120	3
2026-02-12	16:57:44.130	-4.095	-28.525	-11.13	-0.233508	0.772992	-0.326716	0.066	-0.276	0.5325	0	160	120	3
2026-02-12	16:57:44.150	1.05	-31.43	-5.46	-0.227652	0.830576	-0.319396	0.072	-0.2805	0.537	0	160	120	3
2026-02-12	16:57:44.170	3.64	-32.865	0.315	-0.190808	0.888648	-0.267424	0.0735	-0.279	0.54	0	160	120	3
2026-02-12	16:57:44.190	0.63	-32.27	5.425	-0.14518	0.912804	-0.226676	0.0765	-0.2775	0.5355	0	160	120	3
2026-02-12	16:57:44.210	-2.485	-30.415	6.965	-0.116876	0.941596	-0.201788	0.0795	-0.2775	0.5385	0	164	138	3
2026-02-12	16:57:44.230	-5.355	-29.295	5.39	-0.0915	0.922564	-0.173728	0.081	-0.2835	0.5385	0	164	138	3
2026-02-12	16:57:44.250	-9.45	-27.755	2.275	-0.106384	0.861808	-0.1708	0.0795	-0.2895	0.537	0	164	138	3
2026-02-12	16:57:44.270	-13.965	-27.125	0.21	-0.13908	0.76982	-0.18544	0.078	-0.282	0.537	0	164	138	3
2026-02-12	16:57:44.290	-14.595	-26.635	1.225	-0.189588	0.722484	-0.190808	0.0795	-0.2805	0.5355	0	164	138	3
2026-02-12	16:57:44.310	-13.055	-26.39	4.48	-0.215208	0.733952	-0.175192	0.084	-0.2865	0.534	0	164	138	3
2026-02-12	16:57:44.330	-10.185	-25.305	7.385	-0.223992	0.762988	-0.162748	0.0825	-0.2895	0.531	0	164	138	3
2026-02-12	16:57:44.350	-2.87	-21.735	8.82	-0.246196	0.793976	-0.146888	0.075	-0.288	0.531	0	164	138	3
2026-02-12	16:57:44.370	5.74	-16.17	8.54	-0.269864	0.826184	-0.141764	0.069	-0.282	0.534	0	164	138	3
2026-02-12	16:57:44.390	9.975	-11.62	7.77	-0.29402	0.860588	-0.16104	0.0825	-0.2865	0.5355	0	164	138	3
2026-02-12	16:57:44.410	9.835	-8.54	6.055	-0.30622	0.92476	-0.18422	0.078	-0.2865	0.5355	0	167	162	3
2026-02-12	16:57:44.430	4.2	-7.525	4.2	-0.30012	0.966484	-0.199836	0.072	-0.285	0.525	0	167	162	3
2026-02-12	16:57:44.450	-3.255	-7.98	1.925	-0.303048	0.971852	-0.223992	0.0735	-0.291	0.528	0	167	162	3
2026-02-12	16:57:44.470	-7.805	-9.8	-0.7	-0.30134	1.008208	-0.244732	0.0765	-0.2895	0.5325	0	167	162	3
2026-02-12	16:57:44.490	-10.045	-11.27	-0.735	-0.288164	1.069452	-0.24766	0.0765	-0.282	0.528	0	167	162	3
2026-02-12	16:57:44.510	-10.605	-10.535	0.385	-0.26352	1.096536	-0.241804	0.075	-0.288	0.5265	0	167	162	3
2026-02-12	16:57:44.530	-7.14	-7.07	3.22	-0.243512	1.074332	-0.24278	0.072	-0.285	0.525	0	167	162	3
2026-02-12	16:57:44.550	0.945	-1.995	7.595	-0.230336	1.086288	-0.243268	0.0705	-0.282	0.5265	0	167	162	3
2026-02-12	16:57:44.570	8.925	3.43	15.015	-0.2074	1.14802	-0.265228	0.0735	-0.2835	0.5295	0	167	162	3
2026-02-12	16:57:44.590	14.56	9.205	23.905	-0.150548	1.245864	-0.287188	0.0735	-0.291	0.5265	0	167	162	3
2026-02-12	16:57:44.610	20.475	13.825	31.5	-0.067588	1.280268	-0.273036	0.0705	-0.2925	0.525	0	169	180	3
2026-02-12	16:57:44.630	24.71	15.995	31.29	0.0061	1.191208	-0.187636	0.0705	-0.291	0.528	0	169	180	3
2026-02-12	16:57:44.650	17.255	13.37	21.91	0.022448	1.071892	-0.150304	0.0705	-0.291	0.528	0	169	180	3
2026-02-12	16:57:44.670	-1.015	11.235	7.56	-0.00854	0.87352	-0.17812	0.06	-0.276	0.531	0	169	180	3
2026-02-12	16:57:44.690	-13.755	5.985	-6.545	-0.027328	0.798124	-0.193248	0.0465	-0.285	0.528	0	169	180	3
2026-02-12	16:57:44.710	-21.91	2.59	-16.1	-0.017568	0.789096	-0.177144	0.0525	-0.2775	0.525	0	169	180	3
2026-02-12	16:57:44.730	-24.29	3.85	-19.74	-0.02074	0.844728	-0.1525	0.057	-0.2805	0.522	0	169	180	3
2026-02-12	16:57:44.750	-24.955	10.08	-17.815	-0.007808	0.919148	-0.142008	0.0525	-0.291	0.525	0	169	180	3
2026-02-12	16:57:44.770	-18.97	20.44	-14.35	-0.000244	0.958432	-0.161772	0.057	-0.2865	0.5235	0	169	180	3
2026-02-12	16:57:44.790	-7.28	31.815	-10.71	0.008052	0.970876	-0.1769	0.0495	-0.291	0.5145	0	169	180	3
2026-02-12	16:57:44.810	5.11	41.44	-7.035	0.004392	0.966972	-0.189344	0.0585	-0.291	0.5085	0	171	191	3
2026-02-12	16:57:44.830	12.67	46.9	-4.095	-0.002196	0.9394	-0.200812	0.06	-0.291	0.504	0	171	191	3
2026-02-12	16:57:44.850	15.715	47.46	-2.87	-0.025864	0.933056	-0.210328	0.0555	-0.291	0.51	0	171	191	3
2026-02-12	16:57:44.870	15.645	43.75	-3.605	-0.05368	0.93696	-0.201788	0.0585	-0.2955	0.5115	0	171	191	3
2026-02-12	16:57:44.890	11.55	36.75	-6.44	-0.097112	0.925492	-0.169336	0.06	-0.2955	0.516	0	171	191	3
2026-02-12	16:57:44.910	6.72	30.1	-8.575	-0.155428	0.897188	-0.1159	0.06	-0.2955	0.516	0	171	191	3
2026-02-12	16:57:44.930	3.92	25.48	-9.45	-0.189344	0.85888	-0.080032	0.054	-0.2895	0.51	0	171	191	3
2026-02-12	16:57:44.950	3.605	22.015	-8.26	-0.202764	0.854976	-0.047824	0.0495	-0.288	0.504	0	171	191	3
2026-02-12	16:57:44.970	2.555	19.67	-6.3	-0.210328	0.844728	-0.042944	0.0495	-0.2895	0.507	0	171	191	3
2026-02-12	16:57:44.990	0.315	18.41	-3.745	-0.20862	0.869372	-0.048068	0.0525	-0.288	0.5085	0	171	191	3
2026-02-12	16:57:45.010	-0.63	16.52	-0.805	-0.221552	0.886208	-0.063196	0.0585	-0.2925	0.5025	0	173	190	3
2026-02-12	16:57:45.030	0.385	14.42	1.89	-0.217892	0.942328	-0.083448	0.057	-0.2925	0.4995	0	173	190	3
2026-02-12	16:57:45.050	-1.505	12.215	3.99	-0.197884	1.007964	-0.100772	0.0525	-0.2895	0.501	0	173	190	3
2026-02-12	16:57:45.070	-5.39	10.36	4.69	-0.192516	1.02602	-0.113216	0.051	-0.2895	0.5025	0	173	190	3
2026-02-12	16:57:45.090	-7.7	7.98	3.01	-0.193736	1.020896	-0.132492	0.0525	-0.2925	0.495	0	173	190	3
2026-02-12	16:57:45.110	-7.525	3.99	-0.21	-0.221064	0.99918	-0.1525	0.048	-0.2955	0.501	0	173	190	3
2026-02-12	16:57:45.130	-4.865	-1.19	-1.75	-0.247172	1.062132	-0.17568	0.051	-0.294	0.498	0	173	190	3
2026-02-12	16:57:45.150	-6.79	-6.265	-1.995	-0.231312	1.142896	-0.19886	0.0495	-0.288	0.5025	0	173	190	3
2026-02-12	16:57:45.170	-4.865	-11.06	-0.595	-0.22326	1.236348	-0.254004	0.0585	-0.294	0.495	0	173	190	3
2026-02-12	16:57:45.190	-1.155	-12.355	1.715	-0.164212	1.29198	-0.283284	0.0525	-0.297	0.4965	0	173	190	3
2026-02-12	16:57:45.210	0.56	-10.71	4.55	-0.155428	1.274656	-0.293532	0.048	-0.2985	0.495	0	173	181	3
2026-02-12	16:57:45.230	3.185	-10.29	6.79	-0.14884	1.17974	-0.295484	0.0555	-0.3	0.495	0	173	181	3
2026-02-12	16:57:45.250	8.855	-11.445	9.275	-0.123952	1.120936	-0.299388	0.057	-0.303	0.492	0	173	181	3
2026-02-12	16:57:45.270	9.94	-14.385	7.91	-0.11346	1.046028	-0.285724	0.0525	-0.3	0.4905	0	173	181	3
2026-02-12	16:57:45.290	0.28	-19.285	1.89	-0.120292	0.887916	-0.2806	0.048	-0.297	0.4965	0	173	181	3
2026-02-12	16:57:45.310	-9.1	-27.16	-5.11	-0.136152	0.785924	-0.282796	0.0465	-0.294	0.4995	0	173	181	3
2026-02-12	16:57:45.330	-18.62	-36.19	-9.135	-0.17568	0.738588	-0.295972	0.0525	-0.294	0.495	0	173	181	3
2026-02-12	16:57:45.350	-24.01	-45.395	-8.715	-0.174948	0.758352	-0.284016	0.0555	-0.2985	0.492	0	173	181	3
2026-02-12	16:57:45.370	-26.635	-51.625	-3.22	-0.163968	0.829112	-0.273768	0.054	-0.3015	0.4935	0	173	181	3
2026-02-12	16:57:45.390	-24.535	-53.69	4.165	-0.13542	0.8967	-0.234484	0.0555	-0.2985	0.492	0	173	181	3
2026-02-12	16:57:45.410	-22.05	-52.045	11.305	-0.090524	0.951356	-0.198128	0.063	-0.3015	0.4905	0	173	184	3
2026-02-12	16:57:45.430	-18.62	-44.59	15.54	-0.041724	1.008696	-0.19154	0.0675	-0.3015	0.4905	0	173	184	3
2026-02-12	16:57:45.450	-19.495	-34.615	14.525	-0.016104	0.9699	-0.17812	0.066	-0.2985	0.4875	0	173	184	3
2026-02-12	16:57:45.470	-17.675	-27.23	10.92	-0.049044	0.915	-0.17812	0.0675	-0.2955	0.4845	0	173	184	3
2026-02-12	16:57:45.490	-15.4	-22.05	7.875	-0.072956	0.888404	-0.152744	0.066	-0.2955	0.474	0	173	184	3
2026-02-12	16:57:45.510	-16.695	-18.62	6.195	-0.099796	0.880352	-0.142984	0.063	-0.294	0.474	0	173	184	3
2026-02-12	16:57:45.530	-19.46	-15.96	4.76	-0.124928	0.859368	-0.13908	0.06	-0.3015	0.4755	0	173	184	3
2026-02-12	16:57:45.550	-17.465	-14.035	4.2	-0.146888	0.836188	-0.120292	0.066	-0.303	0.48	0	173	184	3
2026-02-12	16:57:45.570	-14.735	-12.915	3.99	-0.14762	0.819596	-0.080276	0.06	-0.3075	0.4695	0	173	184	3
2026-02-12	16:57:45.590	-13.195	-11.83	2.905	-0.166164	0.847656	-0.050752	0.063	-0.3045	0.471	0	173	184	3
2026-02-12	16:57:45.610	-12.565	-10.185	0.49	-0.186416	0.868884	-0.051728	0.0645	-0.2985	0.4725	0	172	189	3
2026-02-12	16:57:45.630	-11.095	-8.19	-1.295	-0.223504	0.861076	-0.058804	0.066	-0.3	0.471	0	172	189	3
2026-02-12	16:57:45.650	-6.195	-6.23	-1.855	-0.245708	0.833016	-0.07905599	0.0645	-0.3075	0.4665	0	172	189	3
2026-02-12	16:57:45.670	1.89	-5.005	-2.065	-0.254736	0.8845	-0.068564	0.0615	-0.3075	0.4665	0	172	189	3
2026-02-12	16:57:45.690	3.605	-4.69	-2.905	-0.234972	0.95892	-0.054412	0.063	-0.306	0.465	0	172	189	3
2026-02-12	16:57:45.710	-7.525	-3.71	-6.93	-0.208376	1.085312	-0.08174	0.063	-0.3075	0.462	0	172	189	3
2026-02-12	16:57:45.730	-15.26	-2.345	-9.66	-0.154208	1.105564	-0.086376	0.063	-0.3075	0.462	0	172	189	3
2026-02-12	16:57:45.750	-16.415	1.82	-11.165	-0.13542	1.084336	-0.113704	0.0735	-0.303	0.4575	0	172	189	3
2026-02-12	16:57:45.770	-11.445	6.86	-10.395	-0.132248	1.06628	-0.136152	0.0705	-0.3105	0.459	0	172	189	3
2026-02-12	16:57:45.790	-1.855	12.25	-5.145	-0.157136	1.11752	-0.167384	0.075	-0.3	0.4605	0	172	189	3
2026-02-12	16:57:45.810	5.285	17.185	3.5	-0.128832	1.243668	-0.185684	0.0795	-0.3045	0.462	0	171	181	3
2026-02-12	16:57:45.830	9.03	23.73	13.545	-0.043676	1.372012	-0.2135	0.066	-0.3075	0.459	0	171	181	3
2026-02-12	16:57:45.850	15.295	31.29	17.57	0.02684	1.355664	-0.216184	0.069	-0.309	0.4665	0	171	181	3
2026-02-12	16:57:45.870	19.6	36.505	14.875	0.064172	1.250744	-0.163236	0.0675	-0.3	0.465	0	171	181	3
2026-02-12	16:57:45.890	19.53	37.555	3.745	0.091012	1.100928	-0.076616	0.0675	-0.3045	0.4665	0	171	181	3
2026-02-12	16:57:45.910	8.855	36.54	-11.2	0.069784	0.96258	-0.037332	0.063	-0.297	0.465	0	171	181	3
2026-02-12	16:57:45.930	-7.14	34.125	-23.31	-0.012444	0.840336	-0.032452	0.06	-0.3015	0.471	0	171	181	3
2026-02-12	16:57:45.950	-21.105	30.94	-27.44	-0.066124	0.807152	-0.034648	0.066	-0.309	0.4695	0	171	181	3
2026-02-12	16:57:45.970	-25.34	29.96	-22.96	-0.072224	0.82594	-0.039772	0.0705	-0.315	0.4575	0	171	181	3
2026-02-12	16:57:45.990	-9.59	34.265	-14.875	-0.03904	0.929152	-0.035136	0.0705	-0.315	0.4575	0	171	181	3
2026-02-12	16:57:46.010	1.89	42.735	-11.305	-0.033184	0.998448	-0.050264	0.0765	-0.312	0.4545	0	171	166	3
2026-02-12	16:57:46.030	4.27	50.855	-11.48	-0.045384	0.99186	-0.066856	0.078	-0.3105	0.453	0	171	166	3
2026-02-12	16:57:46.050	3.57	56.63	-14.35	-0.08784	0.945012	-0.117852	0.075	-0.315	0.453	0	171	166	3
2026-02-12	16:57:46.070	4.095	57.96	-17.22	-0.125172	0.885964	-0.152988	0.075	-0.3165	0.4485	0	171	166	3
2026-02-12	16:57:46.090	6.895	55.44	-19.495	-0.17812	0.874984	-0.168848	0.075	-0.315	0.4485	0	171	166	3
2026-02-12	16:57:46.110	9.03	49.245	-20.545	-0.21472	0.873032	-0.150548	0.075	-0.3135	0.4515	0	171	166	3
2026-02-12	16:57:46.130	10.255	42.28	-21.35	-0.228628	0.894504	-0.0976	0.081	-0.318	0.441	0	171	166	3
2026-02-12	16:57:46.150	5.81	36.925	-22.155	-0.244244	0.867664	-0.045872	0.078	-0.3135	0.447	0	171	166	3
2026-02-12	16:57:46.170	4.69	32.585	-21.49	-0.26352	0.840824	-0.01098	0.0825	-0.3195	0.438	0	171	166	3
2026-02-12	16:57:46.190	6.335	27.965	-19.32	-0.273036	0.870592	0.005856	0.0825	-0.3165	0.453	0	171	166	3
2026-02-12	16:57:46.210	5.81	24.185	-17.115	-0.272304	0.906704	0.00366	0.087	-0.3135	0.45	0	171	148	3
2026-02-12	16:57:46.230	3.08	20.02	-15.4	-0.272548	0.953064	-0.00976	0.0825	-0.318	0.4395	0	171	148	3
2026-02-12	16:57:46.250	-3.325	14.14	-15.05	-0.269132	0.968192	-0.016348	0.084	-0.315	0.447	0	171	148	3
2026-02-12	16:57:46.270	-5.495	9.17	-16.38	-0.26596	0.95038	-0.03172	0.0855	-0.315	0.447	0	171	148	3
2026-02-12	16:57:46.290	-6.125	4.69	-18.235	-0.282552	0.919392	-0.053436	0.0885	-0.318	0.444	0	171	148	3
2026-02-12	16:57:46.310	-5.145	0.84	-19.25	-0.314028	0.921344	-0.088816	0.096	-0.321	0.444	0	171	148	3
2026-02-12	16:57:46.330	-5.11	-3.955	-18.025	-0.321104	0.947696	-0.110532	0.0945	-0.321	0.4425	0	171	148	3
2026-02-12	16:57:46.350	-3.675	-7.175	-14	-0.305488	1.022604	-0.143228	0.0945	-0.324	0.4395	0	171	148	3
2026-02-12	16:57:46.370	-1.365	-9.345	-9.24	-0.27328	1.1285	-0.169824	0.102	-0.3255	0.441	0	171	148	3
2026-02-12	16:57:46.390	-0.595	-10.045	-5.145	-0.227164	1.184132	-0.183	0.1005	-0.321	0.4425	0	171	148	3
2026-02-12	16:57:46.410	3.99	-8.54	-1.435	-0.208132	1.230736	-0.184464	0.1035	-0.321	0.441	0	172	129	3
2026-02-12	16:57:46.430	7.735	-5.495	0.525	-0.211548	1.20536	-0.172508	0.1095	-0.321	0.441	0	172	129	3
2026-02-12	16:57:46.450	10.22	-2.24	2.52	-0.248148	1.10776	-0.16714	0.1065	-0.321	0.444	0	172	129	3
2026-02-12	16:57:46.470	13.685	-2.485	3.605	-0.305244	1.027484	-0.17446	0.1035	-0.324	0.45	0	172	129	3
2026-02-12	16:57:46.490	17.185	-6.37	4.83	-0.300852	1.02114	-0.161284	0.1065	-0.321	0.4515	0	172	129	3
2026-02-12	16:57:46.510	12.215	-12.705	5.145	-0.255956	0.954284	-0.15128	0.1065	-0.318	0.4545	0	172	129	3
2026-02-12	16:57:46.530	4.83	-20.65	0.175	-0.270108	0.890112	-0.162504	0.1065	-0.3195	0.459	0	172	129	3
2026-02-12	16:57:46.550	-3.57	-29.505	-3.325	-0.272304	0.825208	-0.209596	0.1035	-0.321	0.453	0	172	129	3
2026-02-12	16:57:46.570	-8.33	-37.94	-1.26	-0.305244	0.760304	-0.268644	0.1035	-0.321	0.4545	0	172	129	3
2026-02-12	16:57:46.590	-6.195	-45.99	3.57	-0.307196	0.771772	-0.282308	0.1095	-0.3225	0.4575	0	172	129	3
2026-02-12	16:57:46.610	-1.295	-51.835	11.83	-0.297924	0.815204	-0.249368	0.0975	-0.324	0.4515	0	172	126	3
2026-02-12	16:57:46.630	2.17	-54.215	20.335	-0.262788	0.876448	-0.207888	0.1005	-0.3255	0.456	0	172	126	3
2026-02-12	16:57:46.650	2.975	-52.815	25.165	-0.20862	0.952088	-0.177144	0.105	-0.324	0.462	0	172	126	3
2026-02-12	16:57:46.670	4.34	-49.105	24.675	-0.172996	0.993324	-0.178852	0.1035	-0.321	0.4605	0	172	126	3
2026-02-12	16:57:46.690	7.49	-45.92	22.785	-0.152988	0.998692	-0.194468	0.096	-0.3195	0.4605	0	172	126	3
2026-02-12	16:57:46.710	7.805	-43.365	18.76	-0.152256	0.951844	-0.202032	0.0945	-0.318	0.4635	0	172	126	3
2026-02-12	16:57:46.730	5.075	-41.125	14.315	-0.1891	0.870836	-0.1952	0.0945	-0.3165	0.4665	0	172	126	3
2026-02-12	16:57:46.750	2.03	-41.23	13.195	-0.2196	0.815936	-0.172752	0.0885	-0.3165	0.474	0	172	126	3
2026-02-12	16:57:46.770	2.66	-41.335	14.315	-0.232288	0.815204	-0.126392	0.0885	-0.3165	0.477	0	172	126	3
2026-02-12	16:57:46.790	3.99	-39.725	15.645	-0.230824	0.85888	-0.061976	0.0915	-0.3165	0.477	0	172	126	3
2026-02-12	16:57:46.810	4.97	-37.415	14.455	-0.23302	0.887428	-0.031964	0.0915	-0.3165	0.477	0	171	135	3
2026-02-12	16:57:46.830	3.01	-34.02	11.76	-0.246196	0.904752	-0.017324	0.093	-0.3135	0.489	0	171	135	3
2026-02-12	16:57:46.850	-1.82	-30.73	8.75	-0.251564	0.89548	-0.02074	0.087	-0.312	0.477	0	171	135	3
2026-02-12	16:57:46.870	-4.655	-27.965	5.88	-0.259616	0.91378	-0.028548	0.09	-0.3135	0.477	0	171	135	3
2026-02-12	16:57:46.890	-5.81	-25.025	2.835	-0.270108	0.916464	-0.040504	0.087	-0.312	0.4785	0	171	135	3
2026-02-12	16:57:46.910	-6.79	-22.75	-0.07	-0.259128	0.951112	-0.057584	0.0825	-0.309	0.4785	0	171	135	3
2026-02-12	16:57:46.930	-10.255	-21.525	-3.5	-0.254492	0.98454	-0.081008	0.0945	-0.309	0.477	0	171	135	3
2026-02-12	16:57:46.950	-14.98	-20.23	-6.825	-0.248636	1.023824	-0.093452	0.093	-0.318	0.4815	0	171	135	3
2026-02-12	16:57:46.970	-19.6	-18.235	-8.33	-0.22448	1.079212	-0.093452	0.087	-0.306	0.4875	0	171	135	3
2026-02-12	16:57:46.990	-24.185	-14.42	-7.035	-0.191784	1.08458	-0.090524	0.0945	-0.3105	0.477	0	171	135	3
2026-02-12	16:57:47.010	-24.64	-8.61	-2.52	-0.181292	1.116056	-0.076128	0.105	-0.3165	0.48	0	169	136	3
2026-02-12	16:57:47.030	-21.035	-1.96	4.06	-0.142008	1.183644	-0.090524	0.0915	-0.3165	0.474	0	169	136	3
2026-02-12	16:57:47.050	-12.18	6.055	9.415	-0.127124	1.221464	-0.12322	0.0945	-0.315	0.4695	0	169	136	3
2026-02-12	16:57:47.070	-3.85	12.915	13.755	-0.121756	1.214876	-0.140788	0.0945	-0.315	0.4695	0	169	136	3
2026-02-12	16:57:47.090	-0.07	17.535	14.385	-0.100528	1.172664	-0.133956	0.09	-0.309	0.471	0	169	136	3
2026-02-12	16:57:47.110	3.08	19.74	10.815	-0.04758	1.15412	-0.115412	0.0855	-0.3105	0.4725	0	169	136	3
2026-02-12	16:57:47.130	2.38	20.93	2.38	-0.040016	1.042856	-0.08662	0.0855	-0.3195	0.474	0	169	136	3
2026-02-12	16:57:47.150	-2.66	20.615	-10.15	-0.058316	0.93696	-0.044652	0.087	-0.3225	0.4755	0	169	136	3
2026-02-12	16:57:47.170	-11.795	20.37	-20.685	-0.11224	0.819352	-0.03904	0.084	-0.3165	0.462	0	169	136	3
2026-02-12	16:57:47.190	-16.52	19.845	-25.165	-0.131028	0.787876	-0.049288	0.093	-0.3165	0.462	0	169	136	3
2026-02-12	16:57:47.210	-17.465	20.895	-24.395	-0.13176	0.768112	-0.058072	0.0855	-0.321	0.4635	0	166	129	3
2026-02-12	16:57:47.230	-6.93	24.535	-18.305	-0.119804	0.879132	-0.0427	0.0945	-0.315	0.4515	0	166	129	3
2026-02-12	16:57:47.250	2.275	31.22	-10.71	-0.08686399	0.9699	-0.043676	0.1005	-0.3165	0.459	0	166	129	3
2026-02-12	16:57:47.270	8.925	40.18	-5.88	-0.065636	1.017724	-0.063196	0.099	-0.324	0.459	0	166	129	3
2026-02-12	16:57:47.290	15.75	48.72	-5.25	-0.063928	1.022848	-0.09394	0.0975	-0.309	0.459	0	166	129	3
2026-02-12	16:57:47.310	20.44	54.215	-6.51	-0.095892	0.991616	-0.13176	0.0945	-0.315	0.459	0	166	129	3
2026-02-12	16:57:47.330	16.905	54.005	-11.34	-0.147376	0.93452	-0.141764	0.0855	-0.318	0.459	0	166	129	3
2026-02-12	16:57:47.350	12.495	49.77	-13.895	-0.186172	0.898896	-0.117364	0.084	-0.318	0.4635	0	166	129	3
2026-02-12	16:57:47.370	10.92	43.575	-14.595	-0.22692	0.866444	-0.073688	0.0885	-0.3135	0.465	0	166	129	3
2026-02-12	16:57:47.390	10.465	37.24	-13.23	-0.245708	0.841312	-0.011956	0.0885	-0.312	0.4635	0	166	129	3
2026-02-12	16:57:47.410	12.25	31.535	-10.535	-0.273036	0.852536	0.038796	0.0945	-0.312	0.465	0	164	116	3
2026-02-12	16:57:47.430	11.725	26.11	-8.12	-0.281576	0.891576	0.064416	0.096	-0.312	0.4665	0	164	116	3
2026-02-12	16:57:47.450	6.895	22.155	-6.685	-0.285236	0.895724	0.059536	0.0945	-0.3165	0.468	0	164	116	3
2026-02-12	16:57:47.470	2.1	18.165	-4.76	-0.282308	0.914756	0.03294	0.0915	-0.318	0.468	0	164	116	3
2026-02-12	16:57:47.490	-3.255	14.14	-3.255	-0.281088	0.914024	0.00854	0.087	-0.318	0.4695	0	164	116	3
2026-02-12	16:57:47.510	-6.125	10.675	-3.22	-0.27694	0.92842	-0.011956	0.096	-0.3165	0.471	0	164	116	3
2026-02-12	16:57:47.530	-7.56	7.91	-4.2	-0.277672	0.935496	-0.023912	0.096	-0.3165	0.468	0	164	116	3
2026-02-12	16:57:47.550	-7.945	5.32	-6.545	-0.27694	0.94062	-0.043676	0.093	-0.3195	0.4665	0	164	116	3
2026-02-12	16:57:47.570	-7.875	3.22	-9.835	-0.28792	0.915732	-0.058316	0.096	-0.3165	0.4665	0	164	116	3
2026-02-12	16:57:47.590	-4.27	0.315	-12.705	-0.299388	0.923784	-0.081984	0.096	-0.3165	0.462	0	164	116	3
2026-02-12	16:57:45.610	-12.565	-10.185	0.49	-0.186416	0.868884	-0.051728	0.0645	-0.2985	0.4725	0	172	189	3
2026-02-12	16:57:45.630	-11.095	-8.19	-1.295	-0.223504	0.861076	-0.058804	0.066	-0.3	0.471	0	172	189	3
2026-02-12	16:57:45.650	-6.195	-6.23	-1.855	-0.245708	0.833016	-0.07905599	0.0645	-0.3075	0.4665	0	172	189	3
2026-02-12	16:57:45.670	1.89	-5.005	-2.065	-0.254736	0.8845	-0.068564	0.0615	-0.3075	0.4665	0	172	189	3
2026-02-12	16:57:45.690	3.605	-4.69	-2.905	-0.234972	0.95892	-0.054412	0.063	-0.306	0.465	0	172	189	3
2026-02-12	16:57:45.710	-7.525	-3.71	-6.93	-0.208376	1.085312	-0.08174	0.063	-0.3075	0.462	0	172	189	3
2026-02-12	16:57:45.730	-15.26	-2.345	-9.66	-0.154208	1.105564	-0.086376	0.063	-0.3075	0.462	0	172	189	3
2026-02-12	16:57:45.750	-16.415	1.82	-11.165	-0.13542	1.084336	-0.113704	0.0735	-0.303	0.4575	0	172	189	3
2026-02-12	16:57:45.770	-11.445	6.86	-10.395	-0.132248	1.06628	-0.136152	0.0705	-0.3105	0.459	0	172	189	3
2026-02-12	16:57:45.790	-1.855	12.25	-5.145	-0.157136	1.11752	-0.167384	0.075	-0.3	0.4605	0	172	189	3
2026-02-12	16:57:47.810	-3.465	-18.795	-4.83	-0.271816	0.887184	-0.23912	0.0945	-0.312	0.483	0	159	94	3
2026-02-12	16:57:47.830	-11.095	-24.85	-3.605	-0.261568	0.884012	-0.24034	0.099	-0.3105	0.4845	0	159	94	3
2026-02-12	16:57:47.850	-13.895	-28.49	1.96	-0.248636	0.894992	-0.227652	0.099	-0.309	0.4845	0	159	94	3
2026-02-12	16:57:47.870	-10.605	-29.575	13.265	-0.18788	0.959652	-0.163236	0.1005	-0.3135	0.483	0	159	94	3
2026-02-12	16:57:47.890	-9.38	-25.725	16.24	-0.170312	0.973804	-0.152988	0.1005	-0.3135	0.483	0	159	94	3
2026-02-12	16:57:47.910	-6.3	-21.56	16.45	-0.158112	1.000156	-0.1647	0.099	-0.309	0.4935	0	159	94	3
2026-02-12	16:57:47.930	-5.495	-17.325	14.245	-0.161528	1.002108	-0.168604	0.0975	-0.3165	0.489	0	159	94	3
2026-02-12	16:57:47.950	-7.735	-14	10.22	-0.176656	0.9699	-0.165432	0.093	-0.3075	0.4725	0	159	94	3
2026-02-12	16:57:47.970	-10.01	-12.25	5.635	-0.202032	0.914512	-0.154208	0.096	-0.309	0.48	0	159	94	3
2026-02-12	16:57:47.990	-11.55	-11.305	1.925	-0.235216	0.862784	-0.125416	0.0885	-0.309	0.477	0	159	94	3
2026-02-12	16:57:48.010	-11.795	-11.27	0.28	-0.243024	0.823012	-0.089792	0.0885	-0.309	0.477	0	156	105	3
2026-02-12	16:57:48.030	-10.22	-10.605	-0.49	-0.275964	0.802272	-0.071736	0.0885	-0.309	0.477	0	156	105	3
2026-02-12	16:57:48.050	-9.38	-9.975	0.49	-0.276208	0.803004	-0.051484	0.0945	-0.306	0.4815	0	156	105	3
2026-02-12	16:57:48.070	-9.695	-8.645	1.47	-0.291824	0.834724	-0.035868	0.09	-0.3135	0.4845	0	156	105	3
2026-02-12	16:57:48.090	-8.89	-7.28	1.155	-0.29524	0.832528	-0.034648	0.096	-0.3165	0.4725	0	156	105	3
2026-02-12	16:57:48.110	-6.44	-5.53	0.56	-0.311832	0.831064	-0.009028	0.0915	-0.315	0.468	0	156	105	3
2026-02-12	16:57:48.130	-4.83	-2.835	0.21	-0.317688	0.836432	0.0061	0.096	-0.312	0.48	0	156	105	3
2026-02-12	16:57:48.150	-4.445	-1.26	1.54	-0.314028	0.825208	0.004392	0.096	-0.312	0.48	0	156	105	3
2026-02-12	16:57:48.170	-3.71	-0.84	2.905	-0.296216	0.853024	-0.013908	0.093	-0.309	0.4755	0	156	105	3
2026-02-12	16:57:48.190	-2.45	-1.12	2.765	-0.274744	0.896456	-0.03172	0.09	-0.3105	0.4755	0	156	105	3
2026-02-12	16:57:46.210	5.81	24.185	-17.115	-0.272304	0.906704	0.00366	0.087	-0.3135	0.45	0	171	148	3
2026-02-12	16:57:46.230	3.08	20.02	-15.4	-0.272548	0.953064	-0.00976	0.0825	-0.318	0.4395	0	171	148	3
2026-02-12	16:57:46.250	-3.325	14.14	-15.05	-0.269132	0.968192	-0.016348	0.084	-0.315	0.447	0	171	148	3
2026-02-12	16:57:46.270	-5.495	9.17	-16.38	-0.26596	0.95038	-0.03172	0.0855	-0.315	0.447	0	171	148	3
2026-02-12	16:57:46.290	-6.125	4.69	-18.235	-0.282552	0.919392	-0.053436	0.0885	-0.318	0.444	0	171	148	3
2026-02-12	16:57:46.310	-5.145	0.84	-19.25	-0.314028	0.921344	-0.088816	0.096	-0.321	0.444	0	171	148	3
2026-02-12	16:57:46.330	-5.11	-3.955	-18.025	-0.321104	0.947696	-0.110532	0.0945	-0.321	0.4425	0	171	148	3
2026-02-12	16:57:46.350	-3.675	-7.175	-14	-0.305488	1.022604	-0.143228	0.0945	-0.324	0.4395	0	171	148	3
2026-02-12	16:57:46.370	-1.365	-9.345	-9.24	-0.27328	1.1285	-0.169824	0.102	-0.3255	0.441	0	171	148	3
2026-02-12	16:57:46.390	-0.595	-10.045	-5.145	-0.227164	1.184132	-0.183	0.1005	-0.321	0.4425	0	171	148	3
2026-02-12	16:57:48.410	11.62	24.5	9.695	-0.064904	0.925248	-0.099064	0.075	-0.312	0.483	0	151	109	3
2026-02-12	16:57:48.430	13.545	21.42	1.96	-0.122	0.831308	-0.097112	0.0735	-0.3075	0.4815	0	151	109	3
2026-02-12	16:57:48.450	4.025	15.085	-4.83	-0.14518	0.861076	-0.100528	0.069	-0.303	0.4815	0	151	109	3
2026-02-12	16:57:48.470	-15.54	9.205	-9.695	-0.13786	0.86132	-0.106384	0.0675	-0.3045	0.4815	0	151	109	3
2026-02-12	16:57:48.490	-24.15	6.685	-9.31	-0.1098	0.882548	-0.088084	0.0705	-0.3015	0.4815	0	151	109	3
2026-02-12	16:57:48.510	-18.06	8.435	-3.885	-0.07076	0.953064	-0.065636	0.072	-0.303	0.477	0	151	109	3
2026-02-12	16:57:48.530	-6.265	15.225	-0.315	-0.033428	1.036268	-0.068076	0.069	-0.3075	0.474	0	151	109	3
2026-02-12	16:57:48.550	2.31	25.515	0.14	-0.013908	1.092876	-0.0976	0.069	-0.3075	0.4755	0	151	109	3
2026-02-12	16:57:48.570	3.08	35.84	-1.68	-0.044652	1.012112	-0.1464	0.072	-0.306	0.4755	0	151	109	3
2026-02-12	16:57:48.590	3.885	42.175	-4.13	-0.092476	0.931104	-0.172996	0.0705	-0.3015	0.4725	0	151	109	3
2026-02-12	16:57:48.610	1.645	44.87	-7.175	-0.148108	0.873276	-0.207888	0.063	-0.3	0.468	0	151	109	3
2026-02-12	16:57:48.630	1.015	43.575	-10.535	-0.18544	0.848876	-0.207644	0.0615	-0.3	0.4635	0	151	109	3
2026-02-12	16:57:48.650	3.15	40.46	-12.46	-0.22204	0.824964	-0.177876	0.069	-0.3015	0.4635	0	151	109	3
2026-02-12	16:57:48.670	5.215	37.205	-13.475	-0.255224	0.813984	-0.113948	0.072	-0.3045	0.465	0	151	109	3
2026-02-12	16:57:48.690	4.34	35.35	-13.265	-0.273036	0.83448	-0.074908	0.0705	-0.3075	0.465	0	151	109	3
2026-02-12	16:57:48.710	3.85	35.175	-11.97	-0.282308	0.843996	-0.05124	0.0675	-0.2985	0.4665	0	151	109	3
2026-02-12	16:57:48.730	6.615	35.455	-10.675	-0.287676	0.873764	-0.051728	0.069	-0.309	0.462	0	151	109	3
2026-02-12	16:57:48.750	9.765	34.755	-9.1	-0.291092	0.915732	-0.056608	0.0705	-0.3105	0.459	0	151	109	3
2026-02-12	16:57:48.770	10.185	32.55	-8.47	-0.292312	0.949404	-0.063196	0.066	-0.3105	0.465	0	151	109	3
2026-02-12	16:57:48.790	7.07	28.49	-9.485	-0.28182	1.012112	-0.068076	0.0705	-0.309	0.468	0	151	109	3
2026-02-12	16:57:48.810	0.735	22.785	-11.97	-0.271572	1.006256	-0.060512	0.0705	-0.309	0.462	0	152	110	3
2026-02-12	16:57:48.830	-5.18	16.31	-14.805	-0.269376	0.987956	-0.050264	0.0735	-0.309	0.4605	0	152	110	3
2026-02-12	16:57:48.850	-9.835	9.52	-18.55	-0.27816	0.959408	-0.047824	0.075	-0.306	0.4575	0	152	110	3
2026-02-12	16:57:48.870	-10.605	3.815	-19.285	-0.313784	0.955016	-0.07076	0.0735	-0.303	0.4605	0	152	110	3
2026-02-12	16:57:48.890	-9.1	0.28	-16.17	-0.3416	0.978928	-0.107848	0.078	-0.306	0.465	0	152	110	3
2026-02-12	16:57:48.910	-1.82	-3.325	-7.28	-0.289384	1.0919	-0.1403	0.0765	-0.3105	0.459	0	152	110	3
2026-02-12	16:57:48.930	2.065	-4.445	0	-0.260592	1.164368	-0.188856	0.081	-0.3075	0.456	0	152	110	3
2026-02-12	16:57:48.950	6.02	-2.695	9.275	-0.204228	1.19682	-0.203984	0.0885	-0.303	0.459	0	152	110	3
2026-02-12	16:57:48.970	8.645	-0.7	13.055	-0.195932	1.12972	-0.226676	0.0885	-0.303	0.459	0	152	110	3
2026-02-12	16:57:48.990	13.335	0.805	14.56	-0.257176	1.036268	-0.243512	0.087	-0.312	0.4605	0	152	110	3
2026-02-12	16:57:49.010	18.76	-1.505	17.29	-0.284504	1.001864	-0.259616	0.078	-0.3045	0.4575	0	152	112	3
2026-02-12	16:57:49.030	17.64	-6.405	18.9	-0.255224	1.019676	-0.243024	0.075	-0.303	0.459	0	152	112	3
2026-02-12	16:57:49.050	11.13	-11.48	13.195	-0.232288	0.996008	-0.229604	0.078	-0.306	0.4665	0	152	112	3
2026-02-12	16:57:49.070	0.385	-16.695	4.55	-0.260592	0.910364	-0.228628	0.0855	-0.297	0.4635	0	152	112	3
2026-02-12	16:57:49.090	-8.715	-24.36	-1.33	-0.30134	0.826428	-0.262056	0.0795	-0.3015	0.468	0	152	112	3
2026-02-12	16:57:49.110	-13.475	-32.165	-1.61	-0.321592	0.819596	-0.282796	0.069	-0.291	0.4725	0	152	112	3
2026-02-12	16:57:49.130	-16.975	-38.325	3.395	-0.305	0.858148	-0.275476	0.0735	-0.306	0.459	0	152	112	3
2026-02-12	16:57:49.150	-17.115	-41.125	11.655	-0.26962	0.894748	-0.241072	0.078	-0.303	0.4635	0	152	112	3
2026-02-12	16:57:49.170	-11.83	-40.95	17.745	-0.216428	0.9089	-0.210816	0.087	-0.3075	0.462	0	152	112	3
2026-02-12	16:57:49.190	-2.24	-38.29	18.655	-0.166164	0.96746	-0.201788	0.0795	-0.3045	0.4635	0	152	112	3
2026-02-12	16:57:49.210	0.735	-34.405	14.595	-0.166896	1.00528	-0.208864	0.081	-0.3105	0.462	0	153	126	3
2026-02-12	16:57:49.230	-5.075	-30.695	9.24	-0.18422	0.936228	-0.2013	0.078	-0.3075	0.462	0	153	126	3
2026-02-12	16:57:49.250	-9.45	-28.98	7.56	-0.201788	0.8296	-0.186416	0.0765	-0.306	0.4605	0	153	126	3
2026-02-12	16:57:49.270	-6.965	-28.665	8.4	-0.220576	0.754204	-0.161772	0.0735	-0.3105	0.4605	0	153	126	3
2026-02-12	16:57:49.290	-0.98	-28.84	10.255	-0.244488	0.751764	-0.148352	0.075	-0.3135	0.4635	0	153	126	3
2026-02-12	16:57:49.310	2.73	-29.89	11.655	-0.239852	0.788364	-0.120048	0.0765	-0.309	0.468	0	153	126	3
2026-02-12	16:57:49.330	0.735	-29.715	11.445	-0.244488	0.830576	-0.10004	0.0765	-0.309	0.4725	0	153	126	3
2026-02-12	16:57:49.350	-2.31	-28.98	9.38	-0.249612	0.841068	-0.097356	0.069	-0.3015	0.4665	0	153	126	3
2026-02-12	16:57:49.370	-2.66	-27.09	7.35	-0.270352	0.831552	-0.094428	0.075	-0.3045	0.4665	0	153	126	3
2026-02-12	16:57:49.390	-0.56	-24.675	5.46	-0.281332	0.852048	-0.090524	0.072	-0.2985	0.465	0	153	126	3
2026-02-12	16:57:49.410	0.28	-22.54	2.695	-0.288164	0.8723	-0.108824	0.0675	-0.306	0.471	0	151	143	3
2026-02-12	16:57:49.430	-0.665	-20.895	0.315	-0.290116	0.901336	-0.117364	0.0675	-0.3105	0.4755	0	151	143	3
2026-02-12	16:57:49.450	-2.765	-20.23	-1.855	-0.27572	0.936228	-0.127124	0.081	-0.306	0.474	0	151	143	3
2026-02-12	16:57:49.470	-5.74	-20.02	-4.235	-0.260836	0.98576	-0.141032	0.075	-0.306	0.477	0	151	143	3
2026-02-12	16:57:49.490	-12.985	-19.495	-7.245	-0.218136	1.098732	-0.131272	0.0765	-0.3075	0.477	0	151	143	3
2026-02-12	16:57:49.510	-16.8	-16.555	-7.7	-0.184464	1.113372	-0.12688	0.078	-0.3075	0.4695	0	151	143	3
2026-02-12	16:57:49.530	-12.67	-10.78	-6.3	-0.195688	1.113372	-0.136396	0.081	-0.309	0.4635	0	151	143	3
2026-02-12	16:57:49.550	-3.045	-3.535	-0.77	-0.203008	1.198528	-0.146644	0.0825	-0.309	0.468	0	151	143	3
2026-02-12	16:57:49.570	1.995	4.655	9.835	-0.147864	1.286124	-0.157624	0.081	-0.306	0.468	0	151	143	3
2026-02-12	16:57:49.590	4.27	12.95	18.725	-0.049776	1.313208	-0.182024	0.078	-0.309	0.4665	0	151	143	3
2026-02-12	16:57:49.610	9.835	19.985	21.805	-0.001464	1.223416	-0.18544	0.0795	-0.3105	0.4665	0	151	149	3
2026-02-12	16:57:49.630	16.45	22.785	17.465	-0.004392	1.10166	-0.151524	0.0795	-0.312	0.465	0	151	149	3
2026-02-12	16:57:49.650	16.275	20.51	6.72	-0.04148	0.992592	-0.12688	0.0735	-0.318	0.465	0	151	149	3
2026-02-12	16:57:49.670	5.88	15.12	-4.9	-0.093696	0.895236	-0.127124	0.072	-0.309	0.465	0	151	149	3
2026-02-12	16:57:49.690	-9.135	8.645	-13.79	-0.136152	0.830332	-0.123464	0.0735	-0.3045	0.4635	0	151	149	3
2026-02-12	16:57:49.710	-18.235	3.78	-17.22	-0.1464	0.822524	-0.101992	0.0765	-0.312	0.4635	0	151	149	3
2026-02-12	16:57:49.730	-20.685	3.22	-15.575	-0.116144	0.89304	-0.071736	0.0795	-0.312	0.462	0	151	149	3
2026-02-12	16:57:49.750	-13.475	11.62	-9.625	-0.039284	0.978684	-0.0549	0.0795	-0.3135	0.459	0	151	149	3
2026-02-12	16:57:49.770	1.155	25.2	-5.95	-0.014884	1.026508	-0.08906	0.0795	-0.3165	0.4605	0	151	149	3
2026-02-12	16:57:49.790	10.57	34.51	-5.88	-0.011956	1.029192	-0.114924	0.0825	-0.318	0.4605	0	151	149	3
2026-02-12	16:57:49.810	11.27	40.32	-7.735	-0.053924	0.972828	-0.153964	0.0825	-0.3105	0.4635	0	151	148	3
2026-02-12	16:57:49.830	6.615	41.51	-9.835	-0.10736	0.900848	-0.16958	0.0765	-0.3105	0.465	0	151	148	3
2026-02-12	16:57:49.850	4.865	38.36	-12.285	-0.149084	0.888404	-0.151036	0.0765	-0.3135	0.4575	0	151	148	3
2026-02-12	16:57:49.870	4.375	33.425	-14.35	-0.178852	0.872544	-0.092476	0.0855	-0.312	0.465	0	151	148	3
2026-02-12	16:57:49.890	3.71	30.17	-14.56	-0.221064	0.866444	-0.037088	0.084	-0.312	0.459	0	151	148	3
2026-02-12	16:57:49.910	2.8	28.595	-13.16	-0.254736	0.856928	-0.011468	0.087	-0.315	0.4575	0	151	148	3
2026-02-12	16:57:49.930	3.57	27.72	-10.605	-0.256932	0.855708	0.007076	0.09	-0.3105	0.462	0	151	148	3
2026-02-12	16:57:49.950	5.775	27.335	-7.07	-0.258396	0.851072	0.007808	0.087	-0.315	0.456	0	151	148	3
2026-02-12	16:57:49.970	8.225	25.9	-4.165	-0.255468	0.885476	-0.011712	0.087	-0.3225	0.456	0	151	148	3
2026-02-12	16:57:49.990	7.315	23.275	-3.08	-0.255956	0.913536	-0.0427	0.09	-0.3195	0.459	0	151	148	3
2026-02-12	16:57:50.010	4.445	18.83	-2.555	-0.25864	0.950868	-0.057584	0.0945	-0.3195	0.462	0	151	138	3
2026-02-12	16:57:50.030	-1.715	11.865	-4.375	-0.275232	0.964288	-0.05124	0.0975	-0.3195	0.468	0	151	138	3
2026-02-12	16:57:50.050	-5.075	7.98	-7.28	-0.285724	0.959408	-0.04514	0.0975	-0.3195	0.468	0	151	138	3
2026-02-12	16:57:50.070	-6.58	3.85	-10.745	-0.30012	0.9455	-0.053924	0.099	-0.3285	0.4575	0	151	138	3
2026-02-12	16:57:50.090	-7.245	-0.385	-13.44	-0.323056	0.952332	-0.072224	0.102	-0.3225	0.456	0	151	138	3
2026-02-12	16:57:50.110	-7.735	-4.725	-12.95	-0.325008	0.979904	-0.107848	0.0915	-0.327	0.4545	0	151	138	3
2026-02-12	16:57:50.130	-3.675	-7.98	-9.275	-0.311832	1.063352	-0.142496	0.0975	-0.3195	0.462	0	151	138	3
2026-02-12	16:57:50.150	1.4	-9.87	-4.305	-0.277916	1.131428	-0.165432	0.1005	-0.3255	0.4575	0	151	138	3
2026-02-12	16:57:50.170	7.7	-10.465	0.805	-0.247904	1.224148	-0.171044	0.099	-0.327	0.459	0	151	138	3
2026-02-12	16:57:50.190	11.095	-9.38	4.9	-0.210328	1.23342	-0.184708	0.099	-0.3255	0.4545	0	151	138	3
2026-02-12	16:57:50.210	12.005	-6.02	7.42	-0.240828	1.136796	-0.202276	0.1065	-0.333	0.465	0	152	125	3
2026-02-12	16:57:50.230	15.295	-6.965	9.065	-0.272304	1.034316	-0.215452	0.0975	-0.327	0.4605	0	152	125	3
2026-02-12	16:57:50.250	17.29	-11.585	11.235	-0.262544	1.003816	-0.214232	0.0975	-0.324	0.465	0	152	125	3
2026-02-12	16:57:50.270	12.25	-17.955	9.415	-0.227164	0.967216	-0.227408	0.0975	-0.3225	0.4665	0	152	125	3
2026-02-12	16:57:50.290	3.22	-26.005	1.4	-0.243512	0.882548	-0.24522	0.105	-0.3195	0.4725	0	152	125	3
2026-02-12	16:57:50.310	-5.6	-35.14	-4.375	-0.278892	0.825696	-0.238144	0.105	-0.3195	0.4725	0	152	125	3
2026-02-12	16:57:50.330	-10.255	-40.46	-2.695	-0.284748	0.825452	-0.234972	0.1005	-0.3225	0.4755	0	152	125	3
2026-02-12	16:57:50.350	-11.095	-42	3.71	-0.275232	0.883036	-0.224968	0.099	-0.327	0.4755	0	152	125	3
2026-02-12	16:57:50.370	-8.015	-40.81	11.025	-0.22326	0.945256	-0.205936	0.1035	-0.3255	0.471	0	152	125	3
2026-02-12	16:57:50.390	-2.94	-37.065	14.805	-0.16836	0.994788	-0.21228	0.102	-0.327	0.471	0	152	125	3
2026-02-12	16:57:50.410	3.36	-32.585	14.07	-0.145912	1.015772	-0.238632	0.099	-0.333	0.471	0	153	127	3
2026-02-12	16:57:50.430	5.25	-29.645	10.395	-0.144448	1.0004	-0.246928	0.1095	-0.3315	0.465	0	153	127	3
2026-02-12	16:57:50.450	0.56	-28	5.6	-0.152256	0.928664	-0.216428	0.1035	-0.3315	0.4725	0	153	127	3
2026-02-12	16:57:50.470	-3.255	-27.405	3.185	-0.175436	0.846436	-0.186172	0.102	-0.33	0.4725	0	153	127	3
2026-02-12	16:57:50.490	-3.745	-27.65	2.555	-0.186172	0.777628	-0.142496	0.0975	-0.321	0.48	0	153	127	3
2026-02-12	16:57:50.510	-2.205	-27.335	3.92	-0.212036	0.751032	-0.089548	0.105	-0.3285	0.4845	0	153	127	3
2026-02-12	16:57:50.530	-0.735	-27.195	6.685	-0.211548	0.779336	-0.053436	0.105	-0.3285	0.474	0	153	127	3
2026-02-12	16:57:50.550	-0.49	-26.285	9.03	-0.219112	0.820816	-0.032696	0.1035	-0.321	0.4755	0	153	127	3
2026-02-12	16:57:50.570	0	-22.155	10.5	-0.21594	0.865468	-0.010004	0.1095	-0.333	0.4815	0	153	127	3
2026-02-12	16:57:50.590	-0.21	-18.2	10.465	-0.223504	0.872788	-0.019764	0.108	-0.333	0.477	0	153	127	3
2026-02-12	16:57:50.610	1.26	-14.735	9.38	-0.235704	0.887428	-0.039284	0.1035	-0.3315	0.474	0	152	137	3
2026-02-12	16:57:50.630	1.925	-11.62	8.645	-0.24766	0.898652	-0.05856	0.1005	-0.3255	0.4755	0	152	137	3
2026-02-12	16:57:50.650	1.155	-10.045	7.63	-0.249612	0.907924	-0.077104	0.0975	-0.3255	0.48	0	152	137	3
2026-02-12	16:57:50.670	-1.015	-9.835	5.705	-0.252052	0.925492	-0.097356	0.0975	-0.327	0.483	0	152	137	3
2026-02-12	16:57:50.690	-4.13	-10.71	3.115	-0.261812	0.989176	-0.102724	0.099	-0.327	0.4815	0	152	137	3
2026-02-12	16:57:50.710	-8.33	-11.165	0.63	-0.251564	1.067012	-0.09467199	0.099	-0.327	0.4815	0	152	137	3
2026-02-12	16:57:50.730	-13.475	-9.52	-1.435	-0.210328	1.095316	-0.082472	0.0975	-0.327	0.4815	0	152	137	3
2026-02-12	16:57:50.750	-13.09	-4.9	-1.575	-0.184464	1.083604	-0.093696	0.0975	-0.3285	0.4845	0	152	137	3
2026-02-12	16:57:50.770	-6.09	1.75	1.05	-0.19154	1.068232	-0.127368	0.096	-0.327	0.48	0	152	137	3
2026-02-12	16:57:50.790	1.715	8.645	8.89	-0.189588	1.14802	-0.15494	0.0975	-0.3255	0.4755	0	152	137	3
2026-02-12	16:57:50.810	3.745	16.1	20.335	-0.154696	1.270264	-0.212036	0.102	-0.33	0.4755	0	152	137	3
2026-02-12	16:57:50.830	8.47	24.885	29.435	-0.0061	1.412028	-0.232044	0.0975	-0.3285	0.4755	0	152	137	3
2026-02-12	16:57:50.850	10.115	31.71	25.9	0.068564	1.273436	-0.19154	0.093	-0.324	0.4785	0	152	137	3
2026-02-12	16:57:50.870	13.055	31.92	13.23	0.03294	1.077504	-0.137128	0.075	-0.3225	0.4815	0	152	137	3
2026-02-12	16:57:50.890	4.76	27.58	-1.225	-0.033672	0.93452	-0.097844	0.0795	-0.324	0.4875	0	152	137	3
2026-02-12	16:57:50.910	-8.575	22.855	-15.05	-0.093696	0.845216	-0.078568	0.081	-0.33	0.4755	0	152	137	3
2026-02-12	16:57:50.930	-23.03	19.81	-22.75	-0.111996	0.829356	-0.072712	0.078	-0.3255	0.4785	0	152	137	3
2026-02-12	16:57:50.950	-28.735	20.825	-22.61	-0.073688	0.878156	-0.059048	0.0825	-0.3285	0.4755	0	152	137	3
2026-02-12	16:57:50.970	-21.14	27.37	-16.66	-0.02074	0.938668	-0.066124	0.0855	-0.33	0.4725	0	152	137	3
2026-02-12	16:57:50.990	-4.34	38.57	-11.025	0.016592	0.9638	-0.089304	0.084	-0.33	0.471	0	152	137	3
2026-02-12	16:57:51.010	10.92	50.33	-8.925	0.024888	1.022848	-0.111996	0.0855	-0.3345	0.471	0	152	134	3
2026-02-12	16:57:51.030	14.35	58.8	-10.43	0.000732	1.00528	-0.143228	0.0915	-0.333	0.4725	0	152	134	3
2026-02-12	16:57:51.050	8.82	63.21	-14.175	-0.04758	0.934764	-0.176412	0.093	-0.3315	0.4725	0	152	134	3
2026-02-12	16:57:51.070	6.09	62.755	-18.305	-0.11224	0.848144	-0.187392	0.09	-0.333	0.4725	0	152	134	3
2026-02-12	16:57:51.090	8.33	57.54	-20.615	-0.1647	0.843264	-0.158356	0.0915	-0.3315	0.471	0	152	134	3
2026-02-12	16:57:51.110	8.505	47.985	-20.65	-0.226676	0.844484	-0.077348	0.0945	-0.33	0.468	0	152	134	3
2026-02-12	16:57:51.130	6.405	42.7	-19.145	-0.247416	0.861808	-0.020252	0.0945	-0.33	0.468	0	152	134	3
2026-02-12	16:57:51.150	2.695	38.36	-17.115	-0.25742	0.85034	0.02928	0.0975	-0.327	0.468	0	152	134	3
2026-02-12	16:57:51.170	2.94	34.685	-13.895	-0.261324	0.868884	0.052216	0.093	-0.3405	0.477	0	152	134	3
2026-02-12	16:57:51.190	3.255	31.43	-10.535	-0.257664	0.903288	0.040504	0.096	-0.336	0.4755	0	152	134	3
2026-02-12	16:57:51.210	1.365	28.315	-8.4	-0.259616	0.959652	0.007808	0.087	-0.327	0.4635	0	154	127	3
2026-02-12	16:57:51.230	-3.045	24.605	-7.49	-0.257664	0.971852	-0.018788	0.09	-0.3315	0.468	0	154	127	3
2026-02-12	16:57:51.250	-7.735	21.105	-8.155	-0.265472	0.983076	-0.051728	0.096	-0.3285	0.4725	0	154	127	3
2026-02-12	16:57:51.270	-12.005	18.06	-10.57	-0.264984	0.956236	-0.070028	0.099	-0.3345	0.477	0	154	127	3
2026-02-12	16:57:51.290	-10.605	14.42	-13.3	-0.272548	0.907192	-0.099308	0.099	-0.339	0.474	0	154	127	3
2026-02-12	16:57:51.310	-5.39	9.695	-15.715	-0.299876	0.907924	-0.118828	0.105	-0.3405	0.465	0	154	127	3
2026-02-12	16:57:51.330	-2.835	4.34	-16.45	-0.330376	0.961848	-0.149328	0.096	-0.333	0.468	0	154	127	3
2026-02-12	16:57:51.350	-3.64	-0.525	-13.615	-0.330864	1.008696	-0.183732	0.1065	-0.3345	0.468	0	154	127	3
2026-02-12	16:57:51.370	4.375	-4.585	-6.755	-0.30256	1.123864	-0.216428	0.1065	-0.339	0.4665	0	154	127	3
2026-02-12	16:57:51.390	12.215	-6.265	0.63	-0.23302	1.267336	-0.225456	0.1065	-0.339	0.4665	0	154	127	3
2026-02-12	16:57:51.410	12.495	-3.71	4.935	-0.200812	1.273192	-0.238388	0.102	-0.3405	0.471	0	156	117	3
2026-02-12	16:57:51.430	12.39	0	7.7	-0.233508	1.160464	-0.230336	0.105	-0.3375	0.4755	0	156	117	3
2026-02-12	16:57:51.450	17.045	-0.7	9.73	-0.28548	1.06872	-0.221552	0.1125	-0.333	0.4755	0	156	117	3
2026-02-12	16:57:51.470	22.61	-6.195	9.87	-0.263032	1.077748	-0.210084	0.105	-0.3315	0.483	0	156	117	3
2026-02-12	16:57:51.490	16.31	-14	6.335	-0.2257	1.058228	-0.20374	0.102	-0.3375	0.4755	0	156	117	3
2026-02-12	16:57:51.510	0.07	-23.31	0.035	-0.229848	0.952576	-0.185684	0.102	-0.333	0.4875	0	156	117	3
2026-02-12	16:57:51.530	-13.51	-34.44	-4.9	-0.243268	0.809348	-0.194468	0.099	-0.3345	0.4785	0	156	117	3
2026-02-12	16:57:51.550	-18.305	-44.065	-5.46	-0.265716	0.734196	-0.228384	0.1005	-0.339	0.4875	0	156	117	3
2026-02-12	16:57:51.570	-17.29	-51.205	-1.96	-0.269376	0.757864	-0.238388	0.1035	-0.3435	0.489	0	156	117	3
2026-02-12	16:57:51.590	-14.77	-54.53	6.3	-0.266204	0.808616	-0.222528	0.105	-0.3375	0.4845	0	156	117	3
2026-02-12	16:57:51.610	-10.535	-55.055	14.875	-0.22936	0.874252	-0.200568	0.111	-0.3405	0.477	0	158	123	3
2026-02-12	16:57:51.630	-6.755	-51.205	18.515	-0.182024	0.987224	-0.181048	0.1095	-0.3375	0.486	0	158	123	3
2026-02-12	16:57:51.650	-5.845	-41.825	12.88	-0.15006	1.042368	-0.18422	0.099	-0.3375	0.4875	0	158	123	3
2026-02-12	16:57:51.670	-4.48	-35.805	7.77	-0.158356	0.995276	-0.186172	0.1035	-0.339	0.4875	0	158	123	3
2026-02-12	16:57:51.690	-3.885	-29.82	3.465	-0.178608	0.90646	-0.161284	0.1095	-0.339	0.4875	0	158	123	3
2026-02-12	16:57:51.710	-3.535	-26.11	2.52	-0.211304	0.822524	-0.161284	0.108	-0.336	0.483	0	158	123	3
2026-02-12	16:57:51.730	-2.065	-24.5	3.675	-0.228628	0.7747	-0.143716	0.1095	-0.3375	0.486	0	158	123	3
