yyyy-MM-dd	HH:mm:ss.fff	gyrX	gyrY	gyrZ	accX	accY	accZ	magX	magY	magZ	Marker	Energy	Angle	Classification
2026-02-12	16:48:12.210	1.295	-0.595	0.28	-0.020496	-0.043676	1.011624	-12.732	-15.3315	3.9495	0	34	71	2
2026-02-12	16:48:12.230	1.33	-0.63	0.28	-0.025132	-0.0427	1.009672	-12.7455	-15.324	3.9495	0	34	71	2
2026-02-12	16:48:12.250	1.33	-0.63	0.21	-0.021228	-0.043676	1.010892	-12.7335	-15.321	3.945	0	34	71	2
2026-02-12	16:48:12.270	1.33	-0.63	0.245	-0.02562	-0.04514	1.008452	-12.7215	-15.3315	3.942	0	34	71	2
2026-02-12	16:48:12.290	1.295	-0.595	0.28	-0.025132	-0.044164	1.011624	-12.735	-15.3405	3.942	0	34	71	2
2026-02-12	16:48:12.310	1.33	-0.595	0.245	-0.022936	-0.041968	1.010648	-12.759	-15.3585	3.939	0	34	71	2
2026-02-12	16:48:12.330	-1.68	-16.065	-16.625	-0.0305	0.11956	1.043832	-13.1655	-15.582	4.0335	0	34	71	2
2026-02-12	16:48:12.350	-14.385	-2.835	-20.58	-0.0366	0.115168	1.024068	-13.554	-15.783	4.1265	0	34	71	2
2026-02-12	16:48:12.370	-13.545	-3.36	-18.62	-0.020008	0.109312	1.040172	-13.5465	-15.7605	4.1145	0	34	71	2
2026-02-12	16:48:12.390	-12.915	-2.275	-17.535	-0.015616	0.093452	1.052616	-13.5645	-15.7725	4.1235	0	34	71	2
2026-02-12	16:48:12.410	-13.755	0.49	-15.645	-0.0244	0.055388	1.070428	-13.6035	-15.8115	4.1415	0	135	264	2
2026-02-12	16:48:12.430	-14.455	1.12	-12.18	-0.012444	0.039284	1.087264	-13.665	-15.8595	4.1445	0	135	264	2
2026-02-12	16:48:12.450	-15.155	3.5	-9.52	-0.018788	0.0305	1.095072	-13.6995	-15.8925	4.1535	0	135	264	2
2026-02-12	16:48:12.470	-15.4	4.375	-8.365	-0.012688	0.022936	1.08946	-13.701	-15.8985	4.1625	0	135	264	2
2026-02-12	16:48:12.490	-15.295	6.65	-6.685	0.004148	0.020496	1.104344	-13.722	-15.9135	4.167	0	135	264	2
2026-02-12	16:48:12.510	-16.765	6.44	-3.605	0.014396	0.016348	1.131184	-13.737	-15.927	4.1655	0	135	264	2
2026-02-12	16:48:12.530	-17.15	7.665	-0.735	-0.00366	-0.000244	1.077748	-13.737	-15.918	4.17	0	135	264	2
2026-02-12	16:48:12.550	-14.98	6.895	1.365	-0.015372	0.009028	1.075064	-13.707	-15.888	4.17	0	135	264	2
2026-02-12	16:48:12.570	-11.795	5.18	3.43	-0.002684	0.052704	1.09556	-13.701	-15.882	4.1685	0	135	264	2
2026-02-12	16:48:12.590	-10.57	2.59	6.055	0.018056	0.073444	1.09922	-13.749	-15.9285	4.1775	0	135	264	2
2026-02-12	16:48:12.610	-11.2	0.35	9.555	0.0183	0.069052	1.051884	-13.7895	-15.96	4.182	0	255	483	3
2026-02-12	16:48:12.630	-8.61	-1.855	12.25	0.01952	0.074176	1.003084	-13.785	-15.942	4.1805	0	255	483	3
2026-02-12	16:48:12.650	-2.31	-1.505	13.09	0.041236	0.092964	0.979904	-13.7385	-15.9105	4.2045	0	255	483	3
2026-02-12	16:48:12.670	3.08	2.415	13.545	0.072712	0.09272	0.97234	-13.7235	-15.8955	4.2285	0	255	483	3
2026-02-12	16:48:12.690	4.97	5.32	15.75	0.108336	0.089792	0.943792	-13.74	-15.9075	4.2375	0	255	483	3
2026-02-12	16:48:12.710	5.915	5.775	19.495	0.119316	0.10492	0.918416	-13.713	-15.891	4.2435	0	255	483	3
2026-02-12	16:48:12.730	8.68	6.125	22.225	0.117852	0.108336	0.910608	-13.65	-15.843	4.245	0	255	483	3
2026-02-12	16:48:12.750	9.975	6.44	24.815	0.116144	0.095648	0.921344	-13.578	-15.7785	4.245	0	255	483	3
2026-02-12	16:48:12.770	9.765	7.35	26.915	0.125172	0.1098	0.908168	-13.539	-15.7365	4.2555	0	255	483	3
2026-02-12	16:48:12.790	10.255	6.44	27.545	0.114924	0.123464	0.902556	-13.539	-15.7305	4.2645	0	255	483	3
2026-02-12	16:48:12.810	12.32	4.025	26.495	0.105164	0.1281	0.920368	-13.533	-15.7305	4.2615	0	341	638	1
2026-02-12	16:48:12.830	13.895	1.47	24.675	0.096136	0.126392	0.941352	-13.566	-15.771	4.275	0	341	638	1
2026-02-12	16:48:12.850	14.49	-1.47	23.24	0.07808	0.111264	0.930128	-13.6215	-15.834	4.2975	0	341	638	1
2026-02-12	16:48:12.870	15.855	-6.265	21.805	0.049532	0.109556	0.93574	-13.6425	-15.87	4.3095	0	341	638	1
2026-02-12	16:48:12.890	17.115	-11.095	20.3	0.030988	0.103944	0.955504	-13.656	-15.8895	4.3185	0	341	638	1
2026-02-12	16:48:12.910	16.555	-13.44	19.04	0.011224	0.09076799	0.941108	-13.665	-15.8955	4.3155	0	341	638	1
2026-02-12	16:48:12.930	16.205	-15.015	18.095	-0.003904	0.095892	0.935984	-13.632	-15.8745	4.302	0	341	638	1
2026-02-12	16:48:12.950	16.275	-15.995	16.135	0.007076	0.112728	0.959652	-13.6005	-15.846	4.2885	0	341	638	1
2026-02-12	16:48:12.970	14.91	-15.225	13.86	0.013664	0.098332	0.967948	-13.5915	-15.81	4.278	0	341	638	1
2026-02-12	16:48:12.990	13.23	-13.09	12.215	-0.000732	0.090036	0.951356	-13.557	-15.7665	4.2705	0	341	638	1
2026-02-12	16:48:13.010	13.16	-12.04	11.41	-0.01098	0.091744	0.9699	-13.545	-15.753	4.2645	0	388	738	1
2026-02-12	16:48:13.030	13.125	-11.725	11.55	-0.000488	0.101748	0.9821	-13.5645	-15.771	4.2675	0	388	738	1
2026-02-12	16:48:13.050	11.83	-10.675	12.145	-0.016592	0.104676	0.992592	-13.5765	-15.7905	4.2765	0	388	738	1
2026-02-12	16:48:13.070	10.29	-9.73	12.005	-0.030256	0.1098	0.98576	-13.608	-15.8205	4.2825	0	388	738	1
2026-02-12	16:48:13.090	9.695	-10.465	10.815	-0.02562	0.104188	1.005768	-13.635	-15.843	4.2855	0	388	738	1
2026-02-12	16:48:13.110	8.4	-9.975	9.695	-0.029524	0.096868	1.021628	-13.6485	-15.8535	4.284	0	388	738	1
2026-02-12	16:48:13.130	6.125	-8.225	8.645	-0.04392	0.088572	1.016992	-13.662	-15.87	4.2645	0	388	738	1
2026-02-12	16:48:13.150	4.585	-6.055	7.735	-0.050752	0.094428	1.019676	-13.635	-15.84	4.2375	0	388	738	1
2026-02-12	16:48:13.170	3.955	-3.36	7	-0.036112	0.111752	1.030412	-13.602	-15.7965	4.218	0	388	738	1
2026-02-12	16:48:13.190	3.43	-1.785	6.93	-0.024888	0.127612	1.052372	-13.5885	-15.7725	4.2075	0	388	738	1
2026-02-12	16:48:13.210	2.135	0.875	7.28	-0.018056	0.135664	1.068232	-13.5675	-15.756	4.2075	0	402	807	1
2026-02-12	16:48:13.230	0.665	1.19	8.12	-0.016836	0.148596	1.060668	-13.554	-15.7545	4.209	0	402	807	1
2026-02-12	16:48:13.250	0.98	0.28	8.4	-0.0183	0.16714	1.073356	-13.5495	-15.7665	4.1805	0	402	807	1
2026-02-12	16:48:13.270	1.68	0.56	7.77	-0.018788	0.187148	1.071892	-13.5495	-15.7665	4.1805	0	402	807	1
2026-02-12	16:48:13.290	3.08	0.91	4.585	-0.023912	0.14884	1.069452	-13.5615	-15.762	4.1895	0	402	807	1
2026-02-12	16:48:13.310	4.375	1.96	-0.105	-0.020008	0.117364	1.048224	-13.536	-15.7605	4.1835	0	402	807	1
2026-02-12	16:48:13.330	4.69	1.225	-3.465	-0.04148	0.120536	1.061156	-13.5765	-15.8145	4.1865	0	402	807	1
2026-02-12	16:48:13.350	5.95	0.175	-6.195	-0.015372	0.182756	1.108736	-13.626	-15.894	4.1835	0	402	807	1
2026-02-12	16:48:13.370	3.78	-0.21	-8.225	0.00488	0.193492	1.073112	-13.689	-15.9435	4.1985	0	402	807	1
2026-02-12	16:48:13.390	2.59	-3.57	-9.905	0.015616	0.201056	1.050908	-13.68	-15.963	4.185	0	402	807	1
2026-02-12	16:48:13.410	4.865	-8.085	-12.11	0.041724	0.23546	1.04066	-13.6125	-15.9105	4.1625	0	391	867	1
2026-02-12	16:48:13.430	9.94	-12.355	-15.085	0.074664	0.282308	1.032852	-13.563	-15.8565	4.137	0	391	867	1
2026-02-12	16:48:13.450	15.085	-14.385	-19.88	0.09882	0.286944	1.033096	-13.5045	-15.804	4.1145	0	391	867	1
2026-02-12	16:48:13.470	17.955	-11.97	-26.11	0.083692	0.269376	1.036756	-13.491	-15.75	4.107	0	391	867	1
2026-02-12	16:48:13.490	15.855	-8.47	-31.43	0.062952	0.25254	1.030168	-13.461	-15.735	4.104	0	391	867	1
2026-02-12	16:48:13.510	10.15	-5.285	-35	0.061	0.258884	0.964776	-13.4625	-15.765	4.0935	0	391	867	1
2026-02-12	16:48:13.530	2.94	-3.745	-36.085	0.059536	0.239852	0.915	-13.446	-15.717	4.101	0	391	867	1
2026-02-12	16:48:13.550	-2.905	-0.105	-36.54	0.038064	0.274256	0.896212	-13.3185	-15.6285	4.137	0	391	867	1
2026-02-12	16:48:13.570	-8.75	0.14	-35.945	0.057096	0.306952	0.901824	-13.2645	-15.5835	4.161	0	391	867	1
2026-02-12	16:48:13.590	-14.385	-0.42	-34.825	0.076128	0.345504	0.929152	-13.278	-15.585	4.1655	0	391	867	1
2026-02-12	16:48:13.610	-20.72	-1.085	-33.495	0.081984	0.357216	0.927932	-13.278	-15.585	4.1655	0	366	914	1
2026-02-12	16:48:13.630	-21.98	-2.38	-33.355	0.084912	0.361608	0.934276	-13.353	-15.6225	4.164	0	366	914	1
2026-02-12	16:48:13.650	-20.44	-4.445	-33.845	0.121024	0.359412	0.94672	-13.353	-15.6225	4.164	0	366	914	1
2026-02-12	16:48:13.670	-16.24	-7.63	-34.86	0.131516	0.357704	0.948672	-13.353	-15.6225	4.164	0	366	914	1
2026-02-12	16:48:13.690	-8.19	-10.08	-38.255	0.114924	0.344528	0.955992	-13.353	-15.6225	4.164	0	366	914	1
2026-02-12	16:48:13.710	1.855	-10.29	-45.08	0.09076799	0.319396	0.98332	-13.446	-15.7065	4.1835	0	366	914	1
2026-02-12	16:48:13.730	11.375	-8.89	-52.395	0.072468	0.271328	1.01138	-13.5675	-15.834	4.2195	0	366	914	1
2026-02-12	16:48:13.750	16.31	-5.705	-57.085	0.050264	0.228384	1.006744	-13.635	-15.912	4.251	0	366	914	1
2026-02-12	16:48:13.770	16.485	-3.955	-57.225	0.049044	0.217404	0.976	-13.6725	-15.9525	4.2585	0	366	914	1
2026-02-12	16:48:13.790	13.265	-4.06	-53.655	0.016104	0.163724	0.909876	-13.626	-15.9075	4.2375	0	366	914	1
2026-02-12	16:48:13.810	11.48	-7.77	-49.805	0.012688	0.102968	0.886208	-13.503	-15.783	4.218	0	335	941	1
2026-02-12	16:48:13.830	10.255	-8.715	-45.92	0.05124	0.090524	0.915976	-13.383	-15.666	4.209	0	335	941	1
2026-02-12	16:48:13.850	4.41	-8.61	-41.755	0.069296	0.034892	0.94672	-13.3725	-15.6465	4.2105	0	335	941	1
2026-02-12	16:48:13.870	-2.73	-7.42	-35.42	0.079544	0.072712	1.01016	-13.4325	-15.705	4.2285	0	335	941	1
2026-02-12	16:48:13.890	-8.33	-6.86	-26.215	0.09467199	0.15738	1.095072	-13.527	-15.786	4.239	0	335	941	1
2026-02-12	16:48:13.910	-16.24	-4.13	-17.395	0.070516	0.191784	1.109712	-13.602	-15.846	4.218	0	335	941	1
2026-02-12	16:48:13.930	-23.52	-2.17	-11.935	0.046848	0.197152	1.088972	-13.551	-15.7995	4.155	0	335	941	1
2026-02-12	16:48:13.950	-24.92	-2.555	-9.66	0.030012	0.195932	1.07482	-13.431	-15.6735	4.074	0	335	941	1
2026-02-12	16:48:13.970	-21.84	-1.295	-9.31	0.017568	0.193004	1.084824	-13.3545	-15.5745	4.032	0	335	941	1
2026-02-12	16:48:13.990	-19.6	2.31	-8.61	0.020008	0.207644	1.13338	-13.3635	-15.5655	4.05	0	335	941	1
2026-02-12	16:48:14.010	-20.37	9.45	-8.085	0.015372	0.193736	1.156316	-13.464	-15.666	4.0875	0	302	961	1
2026-02-12	16:48:14.030	-21.735	14.875	-5.705	0.007564	0.13908	1.148752	-13.5945	-15.8025	4.107	0	302	961	1
2026-02-12	16:48:14.050	-21.49	17.395	-2.73	0.006832	0.073444	1.128744	-13.704	-15.909	4.113	0	302	961	1
2026-02-12	16:48:14.070	-19.88	18.515	0.49	0.021472	0.037088	1.103612	-13.7685	-15.9705	4.1235	0	302	961	1
2026-02-12	16:48:14.090	-17.29	17.08	4.935	0.038064	0.024888	1.077504	-13.7955	-15.9975	4.14	0	302	961	1
2026-02-12	16:48:14.110	-10.92	13.02	9.555	0.0671	0.071736	1.075552	-13.86	-16.056	4.155	0	302	961	1
2026-02-12	16:48:14.130	-5.075	8.785	13.685	0.11834	0.12078	1.065304	-13.9035	-16.0995	4.1715	0	302	961	1
2026-02-12	16:48:14.150	0.035	4.865	17.29	0.143716	0.144448	1.036268	-13.8825	-16.1025	4.1745	0	302	961	1
2026-02-12	16:48:14.170	6.37	0.42	19.74	0.160796	0.1647	1.027484	-13.818	-16.0515	4.155	0	302	961	1
2026-02-12	16:48:14.190	11.83	-1.12	18.935	0.157868	0.187148	0.91988	-13.695	-15.9315	4.176	0	302	961	1
2026-02-12	16:48:14.210	14.805	6.825	15.365	0.124928	0.177144	0.904996	-13.5495	-15.7965	4.206	0	272	985	1
2026-02-12	16:48:14.230	15.61	10.675	11.935	0.114924	0.152012	0.879376	-13.4325	-15.6765	4.203	0	272	985	1
2026-02-12	16:48:14.250	14.63	13.44	9.905	0.1159	0.14884	0.882548	-13.374	-15.63	4.2105	0	272	985	1
2026-02-12	16:48:14.270	10.255	10.85	9.94	0.116388	0.16348	0.914268	-13.362	-15.636	4.218	0	272	985	1
2026-02-12	16:48:14.290	4.515	8.155	10.57	0.101504	0.15982	0.931348	-13.362	-15.636	4.218	0	272	985	1
2026-02-12	16:48:14.310	0.875	5.075	10.22	0.076616	0.124196	0.933056	-13.4925	-15.789	4.2645	0	272	985	1
2026-02-12	16:48:14.330	0.035	3.29	9.73	0.068564	0.106384	0.929396	-13.4925	-15.789	4.2645	0	272	985	1
2026-02-12	16:48:14.350	0.315	-0.28	8.575	0.055632	0.090036	0.928664	-13.632	-15.921	4.293	0	272	985	1
2026-02-12	16:48:14.370	1.96	-3.955	8.365	0.055144	0.096868	0.94062	-13.659	-15.9585	4.3125	0	272	985	1
2026-02-12	16:48:14.390	4.585	-6.93	8.995	0.047824	0.112484	0.9638	-13.6935	-15.9915	4.332	0	272	985	1
2026-02-12	16:48:14.410	6.895	-7.56	8.785	0.03538	0.106872	0.967948	-13.71	-16.0155	4.332	0	246	998	1
2026-02-12	16:48:14.430	8.645	-6.965	7.595	0.016348	0.09882	0.961116	-13.716	-16.005	4.332	0	246	998	1
2026-02-12	16:48:14.450	10.675	-5.46	6.335	0.00732	0.10126	0.953064	-13.653	-15.957	4.314	0	246	998	1
2026-02-12	16:48:14.470	11.305	-3.92	5.285	0.000488	0.103456	0.947696	-13.6245	-15.912	4.293	0	246	998	1
2026-02-12	16:48:14.490	9.835	-2.87	4.445	-0.004636	0.107604	0.935252	-13.5915	-15.8805	4.275	0	246	998	1
2026-02-12	16:48:14.510	7.245	-3.43	4.095	-0.014152	0.100528	0.931836	-13.5675	-15.8415	4.263	0	246	998	1
2026-02-12	16:48:14.530	4.97	-5.285	4.025	-0.010736	0.107848	0.950868	-13.56	-15.84	4.272	0	246	998	1
2026-02-12	16:48:14.550	3.815	-7	4.025	-0.016104	0.116144	0.979416	-13.569	-15.8565	4.278	0	246	998	1
2026-02-12	16:48:14.570	2.205	-6.72	3.675	-0.017812	0.120048	1.004548	-13.62	-15.9045	4.2945	0	246	998	1
2026-02-12	16:48:14.590	0.035	-5.285	2.03	-0.034892	0.110776	1.00406	-13.6875	-15.9345	4.308	0	246	998	1
2026-02-12	16:48:14.610	-0.14	-4.27	-0.84	-0.05368	0.10614	1.010648	-13.6815	-15.9405	4.3065	0	222	998	1
2026-02-12	16:48:14.630	0.91	-3.115	-3.15	-0.063928	0.108824	1.02602	-13.656	-15.93	4.296	0	222	998	1
2026-02-12	16:48:14.650	1.015	-1.715	-4.27	-0.050752	0.123952	1.031144	-13.6485	-15.9315	4.3035	0	222	998	1
2026-02-12	16:48:14.670	0.385	0.28	-5.81	-0.038064	0.137372	1.026508	-13.662	-15.921	4.296	0	222	998	1
2026-02-12	16:48:14.690	1.575	1.68	-7.875	-0.03416	0.139568	1.032364	-13.6455	-15.9165	4.281	0	222	998	1
2026-02-12	16:48:14.710	4.235	2.31	-9.1	0.003172	0.150548	1.065792	-13.6455	-15.9135	4.269	0	222	998	1
2026-02-12	16:48:14.730	4.655	3.885	-9.24	0.029768	0.137372	1.080432	-13.626	-15.894	4.254	0	222	998	1
2026-02-12	16:48:14.750	2.73	5.565	-9.31	0.013176	0.089792	1.059692	-13.629	-15.903	4.221	0	222	998	1
2026-02-12	16:48:14.770	1.96	8.19	-10.255	-0.022936	0.06222	1.034072	-13.566	-15.837	4.1985	0	222	998	1
2026-02-12	16:48:14.790	3.045	9.66	-11.41	-0.038308	0.05978	1.056032	-13.5075	-15.813	4.1775	0	222	998	1
2026-02-12	16:48:14.810	3.57	11.375	-11.305	-0.055632	0.07564	1.086532	-13.572	-15.8565	4.1925	0	202	1001	1
2026-02-12	16:48:14.830	1.715	9.8	-8.75	-0.06832	0.092476	1.083848	-13.668	-15.996	4.2	0	202	1001	1
2026-02-12	16:48:14.850	-0.35	2.555	-4.83	-0.033428	0.118584	1.06262	-13.875	-16.1655	4.1985	0	202	1001	1
2026-02-12	16:48:14.870	-0.875	-8.155	-1.19	0.023912	0.168848	1.05774	-13.8105	-16.131	4.197	0	202	1001	1
2026-02-12	16:48:14.890	1.12	-17.99	0.42	0.08052	0.2318	1.055056	-13.8045	-16.137	4.1865	0	202	1001	1
2026-02-12	16:48:14.910	5.635	-22.575	-2.31	0.118096	0.274256	1.066768	-13.7295	-16.0695	4.161	0	202	1001	1
2026-02-12	16:48:14.930	9.205	-19.04	-8.82	0.142984	0.280844	1.017968	-13.6425	-15.942	4.1295	0	202	1001	1
2026-02-12	16:48:14.950	12.53	-11.06	-15.54	0.127124	0.272548	0.963556	-13.4865	-15.7815	4.0995	0	202	1001	1
2026-02-12	16:48:14.970	15.82	-2.31	-21.35	0.130052	0.276452	0.9394	-13.347	-15.6375	4.0845	0	202	1001	1
2026-02-12	16:48:14.990	16.205	3.535	-24.815	0.13176	0.274744	0.930128	-13.299	-15.5775	4.068	0	202	1001	1
2026-02-12	16:48:15.010	12.635	6.09	-26.32	0.110044	0.259616	0.920612	-13.317	-15.603	4.074	0	185	1010	1
2026-02-12	16:48:15.030	6.335	4.83	-25.83	0.09857599	0.256932	0.920612	-13.3755	-15.6825	4.11	0	185	1010	1
2026-02-12	16:48:15.050	-1.19	0.105	-23.975	0.081496	0.245952	0.913292	-13.4745	-15.7905	4.1265	0	185	1010	1
2026-02-12	16:48:15.070	-7.245	-5.215	-22.085	0.07076	0.24034	0.902556	-13.5855	-15.861	4.14	0	185	1010	1
2026-02-12	16:48:15.090	-8.54	-10.605	-20.09	0.073932	0.249368	0.917928	-13.5675	-15.879	4.134	0	185	1010	1
2026-02-12	16:48:15.110	-5.18	-15.12	-18.515	0.086376	0.263032	0.959164	-13.6065	-15.8925	4.146	0	185	1010	1
2026-02-12	16:48:15.130	-0.665	-17.605	-17.605	0.091744	0.248392	1.003084	-13.5075	-15.8265	4.1445	0	185	1010	1
2026-02-12	16:48:15.150	1.89	-17.465	-16.87	0.081984	0.226432	1.00772	-13.5075	-15.8265	4.1445	0	185	1010	1
2026-02-12	16:48:15.170	4.13	-15.715	-16.31	0.049776	0.211548	0.9882	-13.5075	-15.8265	4.1445	0	185	1010	1
2026-02-12	16:48:15.190	8.61	-13.16	-16.8	0.052216	0.219844	0.990884	-13.551	-15.87	4.155	0	185	1010	1
2026-02-12	16:48:15.210	14.14	-9.52	-19.075	0.061488	0.205448	1.004304	-13.6185	-15.9105	4.1685	0	172	1013	1
2026-02-12	16:48:15.230	15.19	-5.145	-20.475	0.059292	0.202032	1.008208	-13.6605	-15.9345	4.17	0	172	1013	1
2026-02-12	16:48:15.250	14.245	-1.365	-20.79	0.052216	0.188124	0.97478	-13.656	-15.948	4.1655	0	172	1013	1
2026-02-12	16:48:15.270	13.51	0.35	-19.075	0.039772	0.17568	0.931104	-13.578	-15.8925	4.1535	0	172	1013	1
2026-02-12	16:48:15.290	12.88	-0.665	-15.575	0.04026	0.164944	0.920368	-13.518	-15.852	4.1415	0	172	1013	1
2026-02-12	16:48:15.310	10.605	-2.625	-10.85	0.047092	0.171532	0.937448	-13.503	-15.8445	4.137	0	172	1013	1
2026-02-12	16:48:15.330	6.615	-3.29	-5.88	0.038552	0.16592	0.9516	-13.515	-15.8385	4.1355	0	172	1013	1
2026-02-12	16:48:15.350	2.765	-3.01	-1.96	0.02318	0.149572	0.973804	-13.536	-15.843	4.1355	0	172	1013	1
2026-02-12	16:48:15.370	-0.805	-2.38	0.84	0.00732	0.134444	1.00406	-13.515	-15.8445	4.152	0	172	1013	1
2026-02-12	16:48:15.390	-2.485	-1.54	2.135	-0.000488	0.135664	1.02358	-13.515	-15.8445	4.152	0	172	1013	1
2026-02-12	16:48:15.410	-5.6	0.595	4.62	-0.018544	0.177388	1.072868	-13.5615	-15.888	4.1595	0	160	1011	1
2026-02-12	16:48:15.430	-6.02	6.405	2.24	-0.0427	0.2257	1.124108	-13.584	-15.906	4.164	0	160	1011	1
2026-02-12	16:48:15.450	-4.27	9.345	-2.17	-0.061976	0.265472	1.155096	-13.6815	-15.9585	4.1205	0	160	1011	1
2026-02-12	16:48:15.470	-3.36	13.265	-9.415	-0.050996	0.307196	1.17974	-13.6845	-15.987	4.086	0	160	1011	1
2026-02-12	16:48:15.490	-5.495	15.05	-14.42	-0.024888	0.317444	1.143872	-13.7325	-16.002	4.026	0	160	1011	1
2026-02-12	16:48:15.510	-9.03	10.01	-16.17	-0.033672	0.283528	1.103612	-13.767	-16.014	3.939	0	160	1011	1
2026-02-12	16:48:15.530	-11.795	1.855	-16.485	-0.009028	0.25498	1.081164	-13.587	-15.8685	3.8745	0	160	1011	1
2026-02-12	16:48:15.550	-13.825	0.84	-16.065	0.019764	0.209596	1.053104	-13.4595	-15.72	3.909	0	160	1011	1
2026-02-12	16:48:15.570	-16.205	0.35	-13.79	0.034404	0.172508	1.046028	-13.416	-15.7005	3.927	0	160	1011	1
2026-02-12	16:48:15.590	-18.83	-2.1	-10.01	0.06466	0.162504	1.053104	-13.4655	-15.7635	3.945	0	160	1011	1
2026-02-12	16:48:15.610	-20.93	-4.375	-5.11	0.082716	0.15128	1.045784	-13.5465	-15.861	3.978	0	150	1018	1
2026-02-12	16:48:15.630	-19.6	-3.535	-1.995	0.099308	0.157868	1.026996	-13.7085	-15.996	4.023	0	150	1018	1
2026-02-12	16:48:15.650	-16.625	-3.29	1.05	0.117364	0.152256	1.009428	-13.7775	-16.056	4.0485	0	150	1018	1
2026-02-12	16:48:15.670	-13.44	-1.26	3.255	0.121512	0.129076	0.98942	-13.896	-16.17	4.0725	0	150	1018	1
2026-02-12	16:48:15.690	-9.555	0.84	4.41	0.112972	0.105896	0.940132	-13.803	-16.083	4.0515	0	150	1018	1
2026-02-12	16:48:15.710	-4.725	2.73	4.97	0.130052	0.101504	0.89182	-13.716	-16.0185	4.0935	0	150	1018	1
2026-02-12	16:48:15.730	0.98	8.26	6.055	0.136884	0.117852	0.90768	-13.545	-15.8715	4.2045	0	150	1018	1
2026-02-12	16:48:15.750	4.305	6.37	7.525	0.138836	0.121756	0.92354	-13.5405	-15.8445	4.206	0	150	1018	1
2026-02-12	16:48:15.770	5.775	3.395	8.575	0.123708	0.139812	0.91744	-13.563	-15.87	4.224	0	150	1018	1
2026-02-12	16:48:15.790	5.635	-1.365	10.395	0.128588	0.153232	0.944524	-13.605	-15.9075	4.236	0	150	1018	1
2026-02-12	16:48:15.810	4.55	-4.76	11.55	0.117364	0.146888	0.956236	-13.5945	-15.9255	4.2435	0	142	1025	1
2026-02-12	16:48:15.830	4.41	-5.67	11.865	0.091012	0.124684	0.935252	-13.5705	-15.903	4.2255	0	142	1025	1
2026-02-12	16:48:15.850	6.02	-6.125	11.795	0.069784	0.118584	0.919636	-13.536	-15.864	4.206	0	142	1025	1
2026-02-12	16:48:15.870	8.12	-5.74	12.145	0.055144	0.12078	0.921588	-13.4745	-15.801	4.2135	0	142	1025	1
2026-02-12	16:48:15.890	8.61	-5.285	12.705	0.045384	0.127124	0.939888	-13.5225	-15.813	4.233	0	142	1025	1
2026-02-12	16:48:15.910	7.105	-4.48	13.055	0.029524	0.126392	0.947452	-13.536	-15.8565	4.2465	0	142	1025	1
2026-02-12	16:48:15.930	5.705	-3.85	12.425	0.000732	0.12078	0.953064	-13.578	-15.9045	4.26	0	142	1025	1
2026-02-12	16:48:15.950	5.74	-3.78	10.605	-0.018544	0.109312	0.962092	-13.6155	-15.936	4.2675	0	142	1025	1
2026-02-12	16:48:15.970	6.125	-4.235	9.31	-0.02074	0.097112	0.99186	-13.638	-15.9495	4.2735	0	142	1025	1
2026-02-12	16:48:15.990	5.355	-3.675	9.275	-0.026108	0.078324	1.000888	-13.6665	-15.9885	4.278	0	142	1025	1
2026-02-12	16:48:16.010	5.075	-2.17	9.485	-0.0427	0.065392	0.996252	-13.7055	-15.993	4.2765	0	135	1020	1
2026-02-12	16:48:16.030	5.74	-0.7	8.855	-0.035136	0.0549	1.00772	-13.6125	-15.942	4.2615	0	135	1020	1
2026-02-12	16:48:16.050	5.355	1.575	7.98	-0.035868	0.04514	1.031876	-13.62	-15.9375	4.263	0	135	1020	1
2026-02-12	16:48:16.070	3.535	5.39	6.72	-0.055388	0.061732	1.041392	-13.704	-15.9765	4.272	0	135	1020	1
2026-02-12	16:48:16.090	1.155	9.24	5.635	-0.0488	0.073444	1.058716	-13.7085	-15.9945	4.2705	0	135	1020	1
2026-02-12	16:48:16.110	-1.47	11.83	5.74	-0.036844	0.094184	1.047492	-13.6305	-15.9555	4.2585	0	135	1020	1
2026-02-12	16:48:16.130	-3.99	9.94	5.67	-0.029768	0.126392	1.057496	-13.6335	-15.9285	4.215	0	135	1020	1
2026-02-12	16:48:16.150	-5.425	11.76	4.585	-0.025864	0.155916	1.059204	-13.542	-15.8745	4.194	0	135	1020	1
2026-02-12	16:48:16.170	-5.81	11.34	3.115	-0.009516	0.155672	1.06262	-13.509	-15.8175	4.1565	0	135	1020	1
2026-02-12	16:48:16.190	-4.375	11.655	1.12	-0.017812	0.149084	1.091412	-13.419	-15.762	4.116	0	135	1020	1
2026-02-12	16:48:16.210	-1.925	11.375	-1.295	-0.017568	0.16958	1.063108	-13.4055	-15.7365	4.113	0	130	1019	1
2026-02-12	16:48:16.230	0.245	11.235	-3.43	-0.0061	0.167384	1.106296	-13.4835	-15.7905	4.128	0	130	1019	1
2026-02-12	16:48:16.250	1.365	9.8	-4.06	0	0.173972	1.103856	-13.5735	-15.87	4.1445	0	130	1019	1
2026-02-12	16:48:16.270	2.59	8.47	-4.235	-0.01586	0.178364	1.082384	-13.635	-15.936	4.1655	0	130	1019	1
2026-02-12	16:48:16.290	5.285	6.37	-4.725	-0.017812	0.187148	1.048712	-13.6425	-15.9255	4.17	0	130	1019	1
2026-02-12	16:48:16.310	9.45	5.635	-5.635	0.004636	0.210572	1.042368	-13.551	-15.8505	4.176	0	130	1019	1
2026-02-12	16:48:16.330	13.23	4.41	-6.79	0.033916	0.237168	1.031632	-13.4985	-15.843	4.1715	0	130	1019	1
2026-02-12	16:48:16.350	14.91	3.815	-8.12	0.051484	0.236192	1.016016	-13.5255	-15.8385	4.1505	0	130	1019	1
2026-02-12	16:48:16.370	14.665	7.525	-11.62	0.052704	0.239608	0.992104	-13.533	-15.8175	4.167	0	130	1019	1
2026-02-12	16:48:16.390	12.985	8.855	-15.75	0.062464	0.239364	0.955992	-13.4925	-15.795	4.1535	0	130	1019	1
2026-02-12	16:48:16.410	11.13	10.045	-20.405	0.042212	0.240584	0.922076	-13.4925	-15.795	4.1535	0	125	1025	1
2026-02-12	16:48:16.430	8.785	10.29	-24.815	0.040992	0.245952	0.913292	-13.4295	-15.738	4.1475	0	125	1025	1
2026-02-12	16:48:16.450	5.04	9.31	-26.6	0.047092	0.260592	0.916708	-13.3665	-15.6825	4.1415	0	125	1025	1
2026-02-12	16:48:16.470	0.175	7.595	-27.475	0.049532	0.26962	0.91256	-13.3665	-15.6825	4.1415	0	125	1025	1
2026-02-12	16:48:16.490	-7.07	3.395	-26.81	0.034892	0.24644	0.87962	-13.3995	-15.7185	4.152	0	125	1025	1
2026-02-12	16:48:16.510	-12.25	-1.785	-25.585	0.020008	0.24278	0.886696	-13.401	-15.7245	4.1685	0	125	1025	1
2026-02-12	16:48:16.530	-13.685	-4.725	-25.165	0.008784	0.26108	0.896944	-13.3695	-15.693	4.176	0	125	1025	1
2026-02-12	16:48:16.550	-14.28	-8.505	-24.605	0.010248	0.262544	0.914512	-13.398	-15.6945	4.176	0	125	1025	1
2026-02-12	16:48:16.570	-13.265	-10.71	-23.835	-0.001708	0.244732	0.938424	-13.446	-15.723	4.182	0	125	1025	1
2026-02-12	16:48:16.590	-9.94	-13.685	-22.4	-0.019032	0.227164	0.966484	-13.4685	-15.747	4.191	0	125	1025	1
2026-02-12	16:48:16.610	-4.97	-15.365	-21.28	-0.039284	0.213744	0.985272	-13.4685	-15.747	4.191	0	121	1023	1
2026-02-12	16:48:16.630	-0.315	-16.03	-21	-0.052948	0.204716	0.992104	-13.4685	-15.747	4.191	0	121	1023	1
2026-02-12	16:48:16.650	3.885	-17.255	-21.385	-0.042212	0.199348	0.99308	-13.4685	-15.747	4.191	0	121	1023	1
2026-02-12	16:48:16.670	8.33	-17.465	-21.945	-0.039772	0.18178	1.011136	-13.6845	-15.9465	4.2465	0	121	1023	1
2026-02-12	16:48:16.690	12.32	-16.24	-22.855	-0.044164	0.167872	1.017236	-13.707	-15.951	4.2315	0	121	1023	1
2026-02-12	16:48:16.710	14.28	-14.28	-23.73	-0.042456	0.152256	0.997228	-13.653	-15.8985	4.2045	0	121	1023	1
2026-02-12	16:48:16.730	14.35	-12.95	-22.68	-0.02318	0.148108	0.97844	-13.5075	-15.7905	4.173	0	121	1023	1
2026-02-12	16:48:16.750	13.23	-13.72	-20.195	-0.010736	0.15128	0.975268	-13.464	-15.723	4.1385	0	121	1023	1
2026-02-12	16:48:16.770	10.185	-13.79	-16.59	-0.00488	0.151524	0.991128	-13.4115	-15.6435	4.104	0	121	1023	1
2026-02-12	16:48:16.790	5.6	-13.265	-12.215	-0.013908	0.159332	1.004304	-13.3605	-15.627	4.0785	0	121	1023	1
2026-02-12	16:48:16.810	0.875	-10.395	-8.645	-0.02074	0.165188	0.995032	-13.3335	-15.6045	4.068	0	117	1017	1
2026-02-12	16:48:16.830	-2.625	-8.995	-5.81	-0.027816	0.162504	0.987224	-13.3395	-15.585	4.0485	0	117	1017	1
2026-02-12	16:48:16.850	-4.305	-6.58	-3.64	-0.039772	0.176412	1.0126	-13.3545	-15.6075	4.0725	0	117	1017	1
2026-02-12	16:48:16.870	-4.025	-3.64	-2.52	-0.047336	0.18666	1.05164	-13.4175	-15.6465	4.0905	0	117	1017	1
2026-02-12	16:48:16.890	-4.515	-0.98	-2.065	-0.059048	0.166896	1.063596	-13.506	-15.7365	4.1055	0	117	1017	1
2026-02-12	16:48:16.910	-6.37	2.555	-2.485	-0.07808	0.141764	1.062376	-13.6095	-15.8295	4.1505	0	117	1017	1
2026-02-12	16:48:16.930	-8.155	4.62	-1.82	-0.081984	0.132736	1.06872	-13.5675	-15.8055	4.1475	0	117	1017	1
2026-02-12	16:48:16.950	-9.31	4.235	0.315	-0.076372	0.160308	1.079456	-13.5885	-15.807	4.116	0	117	1017	1
2026-02-12	16:48:16.970	-9.695	3.71	1.995	-0.07442	0.175436	1.086776	-13.551	-15.777	4.0755	0	117	1017	1
2026-02-12	16:48:16.990	-9.31	2.38	2.94	-0.068808	0.179828	1.110688	-13.488	-15.7125	4.0095	0	117	1017	1
2026-02-12	16:48:17.010	-8.645	1.89	3.535	-0.050996	0.184708	1.1346	-13.458	-15.681	3.945	0	112	1018	1
2026-02-12	16:48:17.030	-7.77	4.095	3.535	-0.026596	0.183244	1.11874	-13.4295	-15.642	3.933	0	112	1018	1
2026-02-12	16:48:17.050	-6.93	7.14	3.57	-0.01098	0.144448	1.091412	-13.392	-15.615	3.9825	0	112	1018	1
2026-02-12	16:48:17.070	-6.685	9.765	4.515	0.002196	0.127124	1.063352	-13.4445	-15.6705	4.038	0	112	1018	1
2026-02-12	16:48:17.090	-7.665	7.175	6.65	0.038796	0.144448	1.063352	-13.4745	-15.714	4.05	0	112	1018	1
2026-02-12	16:48:17.110	-8.365	7.07	7.105	0.050996	0.151768	1.020652	-13.542	-15.747	4.1175	0	112	1018	1
2026-02-12	16:48:17.130	-6.51	3.5	6.125	0.06734399	0.170068	1.0065	-13.6005	-15.8175	4.1565	0	112	1018	1
2026-02-12	16:48:17.150	-2.8	-0.385	4.585	0.091988	0.176412	1.001864	-13.5825	-15.81	4.188	0	112	1018	1
2026-02-12	16:48:17.170	-0.385	-4.13	4.41	0.111508	0.15982	1.003084	-13.65	-15.8775	4.206	0	112	1018	1
2026-02-12	16:48:17.190	0.035	-4.235	5.285	0.094916	0.133224	0.981124	-13.6095	-15.8505	4.209	0	112	1018	1
2026-02-12	16:48:17.210	0.7	-1.645	5.53	0.091012	0.113704	0.984052	-13.566	-15.828	4.206	0	108	1027	1
2026-02-12	16:48:17.230	2.66	5.53	3.185	0.08295999	0.122732	0.959164	-13.512	-15.7305	4.2165	0	108	1027	1
2026-02-12	16:48:17.250	4.2	10.22	1.05	0.087352	0.121268	0.951112	-13.4415	-15.6615	4.197	0	108	1027	1
2026-02-12	16:48:17.270	4.83	10.535	0.665	0.081984	0.115168	0.943548	-13.4445	-15.66	4.2	0	108	1027	1
2026-02-12	16:48:17.290	3.01	7.455	2.73	0.085156	0.121512	0.941596	-13.47	-15.702	4.2315	0	108	1027	1
2026-02-12	16:48:17.310	1.155	4.06	5.215	0.078812	0.110776	0.95282	-13.5285	-15.7575	4.2735	0	108	1027	1
2026-02-12	16:48:17.330	1.295	1.365	6.475	0.074176	0.099308	0.9699	-13.584	-15.8205	4.2825	0	108	1027	1
2026-02-12	16:48:17.350	0.385	0.28	6.93	0.056608	0.079788	0.947208	-13.6125	-15.843	4.2825	0	108	1027	1
2026-02-12	16:48:17.370	0.875	-1.54	7.245	0.04148	0.0671	0.939644	-13.6455	-15.861	4.2855	0	108	1027	1
2026-02-12	16:48:17.390	3.465	-3.955	7.49	0.045872	0.081984	0.951356	-13.5735	-15.8085	4.281	0	108	1027	1
2026-02-12	16:48:17.410	7.455	-4.515	6.125	0.029036	0.099796	0.98698	-13.575	-15.816	4.284	0	104	1030	1
2026-02-12	16:48:17.430	9.065	-2.065	4.095	0.004392	0.09076799	0.981124	-13.6455	-15.873	4.2975	0	104	1030	1
2026-02-12	16:48:17.450	9.415	-1.155	2.975	-0.014152	0.09028	0.95648	-13.677	-15.903	4.308	0	104	1030	1
2026-02-12	16:48:17.470	9.555	-2.38	1.89	-0.029524	0.08662	0.933544	-13.677	-15.903	4.308	0	104	1030	1
2026-02-12	16:48:17.490	10.115	-4.375	0.49	-0.0305	0.1037	0.941108	-13.638	-15.8745	4.2945	0	104	1030	1
2026-02-12	16:48:17.510	10.22	-4.83	-0.07	-0.041236	0.09516	0.944768	-13.638	-15.8745	4.2945	0	104	1030	1
2026-02-12	16:48:17.530	9.1	-5.39	-0.175	-0.03416	0.083692	0.9455	-13.6305	-15.867	4.287	0	104	1030	1
2026-02-12	16:48:17.550	6.685	-6.72	-0.14	-0.049044	0.053192	0.948672	-13.6455	-15.876	4.281	0	104	1030	1
2026-02-12	16:48:17.570	3.57	-7.525	-0.07	-0.054412	0.045384	0.958676	-13.6485	-15.8715	4.2795	0	104	1030	1
2026-02-12	16:48:17.590	1.26	-7	-0.595	-0.057828	0.074664	0.980636	-13.6245	-15.852	4.2825	0	104	1030	1
2026-02-12	16:48:17.610	-0.875	-4.41	-2.31	-0.069052	0.078568	1.001864	-13.6335	-15.864	4.2825	0	101	1024	1
2026-02-12	16:48:17.630	-1.61	-2.765	-3.78	-0.074908	0.083204	1.010648	-13.668	-15.8865	4.275	0	101	1024	1
2026-02-12	16:48:17.650	-0.665	0.28	-5.705	-0.088572	0.084424	1.028216	-13.686	-15.8985	4.2735	0	101	1024	1
2026-02-12	16:48:17.670	1.47	3.745	-8.085	-0.097844	0.083936	1.046028	-13.707	-15.9135	4.2705	0	101	1024	1
2026-02-12	16:48:17.690	3.675	5.32	-9.275	-0.085644	0.09516	1.059204	-13.722	-15.924	4.257	0	101	1024	1
2026-02-12	16:48:17.710	6.265	6.23	-10.045	-0.077348	0.1159	1.076284	-13.7205	-15.9225	4.2405	0	101	1024	1
2026-02-12	16:48:17.730	8.26	7.91	-11.62	-0.069296	0.129076	1.081652	-13.7145	-15.9135	4.221	0	101	1024	1
2026-02-12	16:48:17.750	9.1	8.645	-13.86	-0.067832	0.119316	1.076284	-13.6785	-15.888	4.194	0	101	1024	1
2026-02-12	16:48:17.770	10.08	8.4	-15.995	-0.064904	0.120292	1.068232	-13.617	-15.843	4.155	0	101	1024	1
2026-02-12	16:48:17.790	11.025	6.265	-16.59	-0.049288	0.122732	1.0675	-13.5675	-15.798	4.1235	0	101	1024	1
2026-02-12	16:48:17.810	10.78	2.45	-15.365	-0.0122	0.153964	1.08092	-13.5	-15.747	4.098	0	99	1021	1
2026-02-12	16:48:17.830	8.96	-1.05	-13.825	0.006832	0.17446	1.0797	-13.4475	-15.711	4.0725	0	99	1021	1
2026-02-12	16:48:17.850	7.735	-3.535	-12.95	0.026108	0.187636	1.067744	-13.446	-15.7035	4.0575	0	99	1021	1
2026-02-12	16:48:17.870	8.155	-0.56	-12.88	0.030256	0.201544	1.048712	-13.404	-15.6735	4.065	0	99	1021	1
2026-02-12	16:48:17.890	8.995	0.175	-13.51	0.043432	0.235216	1.048224	-13.35	-15.633	4.0635	0	99	1021	1
2026-02-12	16:48:17.910	10.29	0.98	-15.435	0.070516	0.273036	1.036268	-13.2945	-15.5835	4.0485	0	99	1021	1
2026-02-12	16:48:17.930	11.55	2.1	-18.305	0.071004	0.258884	1.00528	-13.284	-15.5685	4.056	0	99	1021	1
2026-02-12	16:48:17.950	12.39	2.485	-19.985	0.061732	0.221308	0.992104	-13.3065	-15.5775	4.0725	0	99	1021	1
2026-02-12	16:48:17.970	11.725	2.555	-23.205	0.05002	0.254004	0.962092	-13.3995	-15.6435	4.1085	0	99	1021	1
2026-02-12	16:48:17.990	10.605	1.26	-25.095	0.028792	0.275476	0.946964	-13.5075	-15.7275	4.1385	0	99	1021	1
2026-02-12	16:48:18.010	8.19	0.07	-25.935	0.022692	0.282552	0.930128	-13.545	-15.768	4.1385	0	97	1025	1
2026-02-12	16:48:18.030	5.635	-1.575	-25.585	0.00488	0.28304	0.907192	-13.527	-15.759	4.134	0	97	1025	1
2026-02-12	16:48:18.050	2.87	-2.625	-24.85	-0.021472	0.278404	0.904996	-13.4745	-15.717	4.134	0	97	1025	1
2026-02-12	16:48:18.070	1.4	-3.5	-24.255	-0.031232	0.282552	0.894748	-13.4595	-15.7065	4.1355	0	97	1025	1
2026-02-12	16:48:18.090	1.715	-4.865	-23.87	-0.035136	0.299632	0.90768	-13.4595	-15.7065	4.1355	0	97	1025	1
2026-02-12	16:48:18.110	2.135	-7.105	-22.96	-0.037576	0.291824	0.91744	-13.4595	-15.7065	4.1355	0	97	1025	1
2026-02-12	16:48:18.130	2.835	-10.36	-21.49	-0.046116	0.291824	0.918416	-13.4595	-15.7065	4.1355	0	97	1025	1
2026-02-12	16:48:18.150	5.11	-13.72	-20.545	-0.055632	0.298412	0.934764	-13.566	-15.792	4.194	0	97	1025	1
2026-02-12	16:48:18.170	8.33	-15.015	-21.805	-0.063196	0.300608	0.948672	-13.5615	-15.8145	4.203	0	97	1025	1
2026-02-12	16:48:18.190	10.955	-14.455	-24.045	-0.061976	0.28426	0.947696	-13.578	-15.8235	4.2045	0	97	1025	1
2026-02-12	16:48:18.210	12.88	-13.44	-25.83	-0.06954	0.25132	0.934276	-13.5975	-15.8415	4.2045	0	97	1022	1
2026-02-12	16:48:18.230	14.175	-12.95	-26.425	-0.066368	0.239364	0.930128	-13.5825	-15.825	4.1835	0	97	1022	1
2026-02-12	16:48:18.250	14.28	-13.93	-26.215	-0.05246	0.230092	0.933544	-13.554	-15.771	4.176	0	97	1022	1
2026-02-12	16:48:18.270	13.02	-14.84	-25.095	-0.056608	0.225212	0.937692	-13.512	-15.741	4.179	0	97	1022	1
2026-02-12	16:48:18.290	10.85	-15.4	-22.925	-0.05368	0.218136	0.948916	-13.5135	-15.7365	4.1745	0	97	1022	1
2026-02-12	16:48:18.310	7.98	-15.925	-19.81	-0.047336	0.213256	0.970876	-13.542	-15.771	4.1715	0	97	1022	1
2026-02-12	16:48:18.330	4.62	-15.505	-16.24	-0.04514	0.208132	0.98332	-13.548	-15.768	4.167	0	97	1022	1
2026-02-12	16:48:18.350	1.68	-14.07	-12.95	-0.050996	0.19276	0.986492	-13.566	-15.771	4.158	0	97	1022	1
2026-02-12	16:48:18.370	-0.385	-12.355	-10.08	-0.050264	0.181536	1.003816	-13.5195	-15.7365	4.1505	0	97	1022	1
2026-02-12	16:48:18.390	-1.68	-11.27	-6.65	-0.038308	0.188368	1.05164	-13.5105	-15.735	4.1355	0	97	1022	1
2026-02-12	16:48:18.410	-2.66	-9.205	-3.115	-0.037576	0.191784	1.098976	-13.554	-15.753	4.125	0	97	1014	1
2026-02-12	16:48:18.430	-3.045	-4.76	-0.175	-0.044652	0.1952	1.112152	-13.581	-15.78	4.107	0	97	1014	1
2026-02-12	16:48:18.450	-2.205	-1.33	2.695	-0.043432	0.203496	1.110444	-13.65	-15.8145	4.089	0	97	1014	1
2026-02-12	16:48:18.470	-0.84	0.805	5.39	-0.031964	0.213744	1.11142	-13.5645	-15.7665	4.077	0	97	1014	1
2026-02-12	16:48:18.490	-0.385	2.555	7.42	-0.030256	0.222772	1.131916	-13.5645	-15.75	4.0545	0	97	1014	1
2026-02-12	16:48:18.510	-1.82	2.065	9.555	-0.038064	0.233752	1.12606	-13.545	-15.717	3.987	0	97	1014	1
2026-02-12	16:48:18.530	-2.975	3.01	11.06	-0.042212	0.229116	1.100196	-13.545	-15.717	3.987	0	97	1014	1
2026-02-12	16:48:18.550	-2.415	4.305	11.865	-0.036112	0.223748	1.073112	-13.545	-15.717	3.987	0	97	1014	1
2026-02-12	16:48:18.570	-1.155	4.27	12.39	-0.012444	0.234728	1.06994	-13.5165	-15.693	3.99	0	97	1014	1
2026-02-12	16:48:18.590	-1.015	3.43	12.495	0.017324	0.23302	1.093364	-13.5135	-15.696	4.005	0	97	1014	1
2026-02-12	16:48:18.610	-2.975	1.68	12.985	0.043432	0.231556	1.1102	-13.6065	-15.7635	4.0275	0	97	1018	1
2026-02-12	16:48:18.630	-6.615	1.085	13.79	0.062708	0.213988	1.077992	-13.6875	-15.819	4.044	0	97	1018	1
2026-02-12	16:48:18.650	-8.295	0.07	15.82	0.079544	0.215696	1.040416	-13.6845	-15.819	4.047	0	97	1018	1
2026-02-12	16:48:18.670	-7.42	1.12	17.85	0.108824	0.227652	1.022604	-13.5945	-15.756	4.0725	0	97	1018	1
2026-02-12	16:48:18.690	-5.565	5.88	19.005	0.112484	0.242292	1.009672	-13.491	-15.6735	4.092	0	97	1018	1
2026-02-12	16:48:18.710	-3.955	9.065	19.285	0.111264	0.255224	0.992836	-13.455	-15.6405	4.098	0	97	1018	1
2026-02-12	16:48:18.730	-2.66	14.385	17.885	0.097844	0.244976	0.964532	-13.464	-15.651	4.11	0	97	1018	1
2026-02-12	16:48:18.750	-1.925	16.8	15.435	0.094916	0.22936	0.952576	-13.5135	-15.6915	4.116	0	97	1018	1
2026-02-12	16:48:18.770	-2.03	15.925	13.16	0.090036	0.200324	0.941352	-13.5555	-15.7485	4.137	0	97	1018	1
2026-02-12	16:48:18.790	-2.52	13.37	12.32	0.070272	0.177388	0.936716	-13.5795	-15.7935	4.155	0	97	1018	1
2026-02-12	16:48:18.810	-3.185	9.94	12.075	0.05368	0.162016	0.91744	-13.6125	-15.828	4.1685	0	97	1027	1
2026-02-12	16:48:18.830	-2.415	5.565	11.375	0.04758	0.15982	0.915244	-13.653	-15.8595	4.185	0	97	1027	1
2026-02-12	16:48:18.850	-0.98	0.875	10.36	0.035868	0.162748	0.929152	-13.701	-15.903	4.1985	0	97	1027	1
2026-02-12	16:48:18.870	-0.385	-2.03	9.415	0.027084	0.146888	0.931592	-13.7325	-15.933	4.206	0	97	1027	1
2026-02-12	16:48:18.890	-0.245	-3.955	8.995	0.012444	0.134932	0.925492	-13.713	-15.921	4.2045	0	97	1027	1
2026-02-12	16:48:18.910	0.63	-5.32	8.715	-0.004392	0.13908	0.91744	-13.671	-15.897	4.1985	0	97	1027	1
2026-02-12	16:48:18.930	1.925	-5.845	8.19	-0.000244	0.156892	0.926956	-13.6515	-15.8685	4.1895	0	97	1027	1
2026-02-12	16:48:18.950	2.625	-5.635	7.14	-0.004392	0.155428	0.935984	-13.6215	-15.8325	4.1865	0	97	1027	1
2026-02-12	16:48:18.970	2.17	-4.865	6.58	-0.010736	0.134688	0.93208	-13.614	-15.822	4.188	0	97	1027	1
2026-02-12	16:48:18.990	1.61	-4.27	6.825	-0.024888	0.127856	0.925004	-13.62	-15.8385	4.1895	0	97	1027	1
2026-02-12	16:48:19.010	1.61	-4.445	7.245	-0.029036	0.117364	0.915244	-13.626	-15.846	4.1925	0	97	1025	1
2026-02-12	16:48:19.030	2.275	-5.565	7.385	-0.034892	0.121512	0.931104	-13.6425	-15.8445	4.2	0	97	1025	1
2026-02-12	16:48:19.050	2.485	-6.405	7.105	-0.0427	0.118096	0.947452	-13.677	-15.876	4.2135	0	97	1025	1
2026-02-12	16:48:19.070	2.24	-6.335	6.545	-0.069296	0.108092	0.953308	-13.731	-15.9255	4.23	0	97	1025	1
2026-02-12	16:48:19.090	2.275	-5.81	5.705	-0.08174	0.115168	0.965996	-13.758	-15.945	4.2435	0	97	1025	1
2026-02-12	16:48:19.110	2.065	-5.915	5.145	-0.080032	0.121756	0.982832	-13.776	-15.96	4.242	0	97	1025	1
2026-02-12	16:48:19.130	2.975	-5.04	4.655	-0.097112	0.120536	1.00284	-13.7745	-15.9465	4.233	0	97	1025	1
2026-02-12	16:48:19.150	4.725	-3.255	3.92	-0.09516	0.132736	1.027728	-13.722	-15.8985	4.2225	0	97	1025	1
2026-02-12	16:48:19.170	6.265	-1.085	3.605	-0.080764	0.149816	1.053592	-13.695	-15.87	4.2075	0	97	1025	1
2026-02-12	16:48:19.190	7.21	1.05	3.395	-0.063196	0.1708	1.069208	-13.698	-15.8565	4.185	0	97	1025	1
2026-02-12	16:48:19.210	8.05	3.115	2.24	-0.051728	0.184708	1.07726	-13.7025	-15.8385	4.161	0	97	1017	1
2026-02-12	16:48:19.230	8.89	5.6	0.28	-0.053924	0.1891	1.101904	-13.6695	-15.7905	4.1385	0	97	1017	1
2026-02-12	16:48:19.250	8.82	10.43	-2.415	-0.060512	0.186904	1.096292	-13.596	-15.741	4.104	0	97	1017	1
2026-02-12	16:48:19.270	8.015	11.305	-4.935	-0.058072	0.192272	1.080432	-13.5525	-15.7125	4.0425	0	97	1017	1
2026-02-12	16:48:19.290	6.23	8.33	-6.965	-0.039284	0.194712	1.07604	-13.551	-15.7035	3.996	0	97	1017	1
2026-02-12	16:48:19.310	3.395	6.055	-8.05	-0.0366	0.203008	1.073112	-13.5585	-15.714	3.996	0	97	1017	1
2026-02-12	16:48:19.330	0.945	3.78	-7.56	-0.034892	0.209596	1.060668	-13.5705	-15.7155	4.0035	0	97	1017	1
2026-02-12	16:48:19.350	0.105	0	-6.16	-0.015128	0.222528	1.030412	-13.587	-15.732	4.0185	0	97	1017	1
2026-02-12	16:48:19.370	1.365	-5.005	-4.865	0.004636	0.241072	1.000156	-13.593	-15.756	4.0515	0	97	1017	1
2026-02-12	16:48:19.390	4.655	-8.89	-5.565	0.03172	0.246196	1.001132	-13.602	-15.771	4.095	0	97	1017	1
2026-02-12	16:48:19.410	7.945	-11.095	-8.015	0.055632	0.250588	0.999912	-13.6125	-15.798	4.131	0	96	1017	1
2026-02-12	16:48:19.430	9.66	-12.32	-12.005	0.070272	0.258396	0.987712	-13.6485	-15.831	4.1505	0	96	1017	1
2026-02-12	16:48:19.450	11.41	-13.405	-16.135	0.07686	0.269864	0.96624	-13.65	-15.843	4.1535	0	96	1017	1
2026-02-12	16:48:19.470	13.51	-13.825	-19.915	0.065392	0.274256	0.921832	-13.6065	-15.813	4.1565	0	96	1017	1
2026-02-12	16:48:19.490	15.715	-10.99	-23.695	0.047092	0.264496	0.91012	-13.5915	-15.786	4.1655	0	96	1017	1
2026-02-12	16:48:19.510	14.91	-8.155	-26.32	0.040992	0.265716	0.912804	-13.5915	-15.786	4.1655	0	96	1017	1
2026-02-12	16:48:19.530	10.745	-7	-25.9	0.053924	0.271084	0.911828	-13.5915	-15.786	4.1655	0	96	1017	1
2026-02-12	16:48:19.550	5.775	-8.715	-23.59	0.066368	0.288652	0.9211	-13.419	-15.633	4.167	0	96	1017	1
2026-02-12	16:48:19.570	2.24	-11.585	-21.14	0.064172	0.307684	0.92842	-13.389	-15.5775	4.1505	0	96	1017	1
2026-02-12	16:48:19.590	-0.35	-13.44	-19.425	0.074176	0.312564	0.96746	-13.389	-15.5775	4.1505	0	96	1017	1
2026-02-12	16:48:19.610	-1.96	-14.28	-18.375	0.088328	0.305976	0.968436	-13.389	-15.5775	4.1505	0	96	1018	1
2026-02-12	16:48:19.630	-2.66	-15.855	-16.8	0.10614	0.303292	0.978196	-13.4145	-15.597	4.1355	0	96	1018	1
2026-02-12	16:48:19.650	-1.26	-16.975	-15.015	0.10736	0.316712	0.992104	-13.437	-15.6165	4.128	0	96	1018	1
2026-02-12	16:48:19.670	1.925	-16.1	-14.84	0.109312	0.314272	1.01626	-13.464	-15.6285	4.1445	0	96	1018	1
2026-02-12	16:48:19.690	4.865	-12.565	-16.205	0.090524	0.278648	1.00406	-13.503	-15.6525	4.155	0	96	1018	1
2026-02-12	16:48:19.710	6.86	-8.645	-17.01	0.055876	0.243024	0.9699	-13.53	-15.669	4.1595	0	96	1018	1
2026-02-12	16:48:19.730	8.19	-7.14	-15.785	0.03538	0.22082	0.938912	-13.554	-15.687	4.164	0	96	1018	1
2026-02-12	16:48:19.750	7.7	-8.26	-13.37	0.036356	0.176656	0.937936	-13.557	-15.696	4.1805	0	96	1018	1
2026-02-12	16:48:19.770	3.5	-9.065	-9.765	0.034892	0.19398	0.953552	-13.5465	-15.693	4.2045	0	96	1018	1
2026-02-12	16:48:19.790	-2.065	-9.38	-6.335	0.017324	0.190808	0.967948	-13.554	-15.6975	4.209	0	96	1018	1
2026-02-12	16:48:19.810	-6.265	-10.43	-3.535	0.027084	0.20252	0.962824	-13.548	-15.684	4.191	0	96	1014	1
2026-02-12	16:48:19.830	-7.07	-9.59	-2.52	0.0305	0.20862	0.974536	-13.542	-15.669	4.176	0	96	1014	1
2026-02-12	16:48:19.850	-6.79	-8.505	-1.995	0.035624	0.203984	1.010648	-13.5585	-15.672	4.173	0	96	1014	1
2026-02-12	16:48:19.870	-7.245	-5.67	-1.085	0.014884	0.221064	1.037244	-13.5825	-15.6945	4.1685	0	96	1014	1
2026-02-12	16:48:19.890	-7.98	-3.71	0.63	0.008784	0.221796	1.033584	-13.602	-15.7155	4.1565	0	96	1014	1
2026-02-12	16:48:19.910	-8.75	-3.36	3.71	0.00732	0.205204	1.045052	-13.6185	-15.717	4.1325	0	96	1014	1
2026-02-12	16:48:19.930	-9.765	-2.59	7.21	0.015616	0.190076	1.049444	-13.6185	-15.7065	4.11	0	96	1014	1
2026-02-12	16:48:19.950	-10.22	-0.035	10.465	0.011224	0.179584	1.049688	-13.5915	-15.6795	4.113	0	96	1014	1
2026-02-12	16:48:19.970	-9.66	3.36	12.775	0.014396	0.184708	1.043588	-13.5825	-15.6645	4.1205	0	96	1014	1
2026-02-12	16:48:19.990	-8.54	5.04	14.805	0.034404	0.21472	1.0736	-13.5915	-15.675	4.1205	0	96	1014	1
2026-02-12	16:48:20.010	-8.855	7.35	17.045	0.052216	0.23424	1.105808	-13.6275	-15.7125	4.1175	0	95	1013	1
2026-02-12	16:48:20.030	-10.85	9.1	19.81	0.060024	0.21106	1.081408	-13.68	-15.7515	4.0875	0	95	1013	1
2026-02-12	16:48:20.050	-13.125	7.07	23.59	0.060756	0.188124	1.044808	-13.689	-15.7395	4.0515	0	95	1013	1
2026-02-12	16:48:20.070	-12.53	3.255	27.37	0.065148	0.19642	1.03944	-13.6425	-15.69	4.038	0	95	1013	1
2026-02-12	16:48:20.090	-10.85	0.175	29.435	0.082472	0.208376	1.044808	-13.6455	-15.678	4.041	0	95	1013	1
2026-02-12	16:48:20.110	-8.12	-1.995	29.365	0.099064	0.206668	1.064328	-13.689	-15.7035	4.056	0	95	1013	1
2026-02-12	16:48:20.130	-5.845	-3.15	27.895	0.109312	0.204228	1.072136	-13.746	-15.774	4.0725	0	95	1013	1
2026-02-12	16:48:20.150	-5.04	-3.22	25.935	0.114192	0.198616	1.055544	-13.773	-15.8265	4.0905	0	95	1013	1
2026-02-12	16:48:20.170	-5.25	-1.61	24.185	0.118096	0.200812	1.034072	-13.809	-15.8685	4.104	0	95	1013	1
2026-02-12	16:48:20.190	-4.795	0.49	22.995	0.12932	0.2074	1.000156	-13.8105	-15.903	4.0995	0	95	1013	1
2026-02-12	16:48:20.210	-5.005	1.785	21.56	0.137616	0.19154	0.992592	-13.6785	-15.7965	4.1025	0	93	1020	1
2026-02-12	16:48:20.230	-4.235	6.58	18.935	0.134688	0.18666	0.938912	-13.5195	-15.6285	4.1295	0	93	1020	1
2026-02-12	16:48:20.250	-1.295	9.52	16.1	0.136884	0.18544	0.925492	-13.4205	-15.5325	4.14	0	93	1020	1
2026-02-12	16:48:20.270	0.98	8.085	14.105	0.155916	0.17446	0.94428	-13.4535	-15.5475	4.149	0	93	1020	1
2026-02-12	16:48:20.290	1.015	4.55	14.245	0.154452	0.1525	0.96502	-13.5645	-15.6435	4.1835	0	93	1020	1
2026-02-12	16:48:20.310	-0.105	0.595	16.03	0.12688	0.15372	0.976244	-13.6755	-15.7545	4.2255	0	93	1020	1
2026-02-12	16:48:20.330	-0.42	-2.1	16.205	0.100528	0.154208	0.973072	-13.74	-15.8295	4.2465	0	93	1020	1
2026-02-12	16:48:20.350	0.875	-2.765	14.07	0.073444	0.139568	0.951112	-13.773	-15.855	4.2525	0	93	1020	1
2026-02-12	16:48:20.370	3.815	-1.89	11.655	0.0549	0.130296	0.930128	-13.7505	-15.8295	4.2465	0	93	1020	1
2026-02-12	16:48:20.390	6.86	-1.12	9.765	0.04392	0.112728	0.913536	-13.713	-15.801	4.2345	0	93	1020	1
2026-02-12	16:48:20.410	9.625	0.035	8.61	0.018544	0.122244	0.933788	-13.707	-15.7815	4.233	0	91	1023	1
2026-02-12	16:48:20.430	10.605	0.98	7.42	0.007076	0.130784	0.949892	-13.713	-15.78	4.2405	0	91	1023	1
2026-02-12	16:48:20.450	9.45	1.12	6.895	-0.012932	0.123952	0.95648	-13.7325	-15.8055	4.2495	0	91	1023	1
2026-02-12	16:48:20.470	7.875	0.875	7.245	-0.015128	0.114192	0.94428	-13.7415	-15.816	4.254	0	91	1023	1
2026-02-12	16:48:20.490	7.245	0.105	7.595	-0.016592	0.11102	0.95038	-13.734	-15.81	4.2495	0	91	1023	1
2026-02-12	16:48:20.510	6.51	-0.595	7.42	-0.016836	0.117852	0.962092	-13.7475	-15.8085	4.2525	0	91	1023	1
2026-02-12	16:48:20.530	5.53	-0.84	6.65	-0.014396	0.118828	0.986004	-13.7565	-15.813	4.257	0	91	1023	1
2026-02-12	16:48:20.550	4.2	-0.63	5.425	-0.007564	0.12566	1.027484	-13.722	-15.7995	4.251	0	91	1023	1
2026-02-12	16:48:20.570	1.575	1.785	4.27	0.006344	0.098332	1.083848	-13.6875	-15.7695	4.2375	0	91	1023	1
2026-02-12	16:48:20.590	-1.89	6.125	3.395	-0.013908	0.113704	1.114592	-13.6845	-15.7545	4.2	0	91	1023	1
2026-02-12	16:48:20.610	-4.69	11.76	2.45	-0.03538	0.11712	1.117764	-13.6815	-15.7365	4.143	0	90	1021	1
2026-02-12	16:48:20.630	-3.675	19.53	1.855	-0.026596	0.121024	1.097268	-13.671	-15.717	4.116	0	90	1021	1
2026-02-12	16:48:20.650	-0.77	24.045	1.68	-0.011468	0.121756	1.0736	-13.671	-15.717	4.116	0	90	1021	1
2026-02-12	16:48:20.670	1.435	26.6	1.575	-0.010004	0.12932	1.050664	-13.5525	-15.6255	4.0845	0	90	1021	1
2026-02-12	16:48:20.690	3.57	28.42	0.735	-0.009516	0.144204	1.047736	-13.5525	-15.6255	4.0845	0	90	1021	1
2026-02-12	16:48:20.710	4.55	27.44	0.385	-0.008296	0.152744	1.041636	-13.722	-15.7965	4.1715	0	90	1021	1
2026-02-12	16:48:20.730	4.235	24.57	-0.21	-0.00854	0.15616	1.035048	-13.8675	-15.933	4.1925	0	90	1021	1
2026-02-12	16:48:20.750	2.485	21.945	-1.82	-0.01586	0.141276	1.004304	-13.863	-15.957	4.203	0	90	1021	1
2026-02-12	16:48:20.770	0.875	18.55	-2.975	-0.035136	0.136396	0.975512	-13.818	-15.912	4.1895	0	90	1021	1
2026-02-12	16:48:20.790	1.925	12.915	-3.85	-0.043676	0.143716	0.935008	-13.725	-15.837	4.1595	0	90	1021	1
2026-02-12	16:48:20.810	3.5	9.555	-5.215	-0.020252	0.162016	0.937936	-13.6215	-15.7515	4.1745	0	89	1023	1
2026-02-12	16:48:20.830	4.27	1.785	-4.445	0.016348	0.18544	0.950624	-13.641	-15.729	4.1625	0	89	1023	1
2026-02-12	16:48:20.850	5.25	-7.21	-2.03	0.052216	0.233264	0.984052	-13.6455	-15.774	4.1895	0	89	1023	1
2026-02-12	16:48:20.870	6.265	-15.505	-1.435	0.097356	0.265716	1.030412	-13.779	-15.8715	4.2015	0	89	1023	1
2026-02-12	16:48:20.890	6.44	-17.5	-3.78	0.107604	0.261812	1.02846	-13.953	-16.005	4.2225	0	89	1023	1
2026-02-12	16:48:20.910	7.385	-16.135	-8.82	0.088816	0.250832	1.010892	-13.695	-15.834	4.1745	0	89	1023	1
2026-02-12	16:48:20.930	9.94	-10.01	-15.225	0.08174	0.25376	0.975268	-13.6035	-15.684	4.1505	0	89	1023	1
2026-02-12	16:48:20.950	11.515	-4.76	-19.39	0.070516	0.250832	0.951356	-13.563	-15.6225	4.1085	0	89	1023	1
2026-02-12	16:48:20.970	10.64	-1.225	-20.545	0.053924	0.249124	0.950624	-13.563	-15.6225	4.1085	0	89	1023	1
2026-02-12	16:48:20.990	7.21	-0.525	-19.11	0.044164	0.255712	0.945744	-13.563	-15.6225	4.1085	0	89	1023	1
2026-02-12	16:48:21.010	2.625	-2.835	-16.065	0.04636	0.255956	0.94306	-13.563	-15.6225	4.1085	0	88	1023	1
2026-02-12	16:48:21.030	-1.75	-7.525	-12.845	0.041968	0.2562	0.95038	-13.5825	-15.6705	4.122	0	88	1023	1
2026-02-12	16:48:21.050	-4.97	-13.335	-10.465	0.056608	0.264984	0.957456	-13.605	-15.7215	4.137	0	88	1023	1
2026-02-12	16:48:21.070	-6.16	-17.535	-9.17	0.058072	0.265228	0.953552	-13.5975	-15.7125	4.1385	0	88	1023	1
2026-02-12	16:48:21.090	-3.605	-19.67	-9.485	0.047824	0.262544	0.945012	-13.5885	-15.6915	4.1385	0	88	1023	1
2026-02-12	16:48:21.110	1.995	-19.74	-12.11	0.039772	0.276208	0.964288	-13.6005	-15.6945	4.1415	0	88	1023	1
2026-02-12	16:48:21.130	6.65	-17.29	-15.365	0.049532	0.267668	1.000644	-13.6215	-15.72	4.1595	0	88	1023	1
2026-02-12	16:48:21.150	6.79	-13.09	-16.87	0.04392	0.236924	0.994544	-13.656	-15.7485	4.1685	0	88	1023	1
2026-02-12	16:48:21.170	5.25	-9.73	-16.555	0.014884	0.20252	0.95892	-13.659	-15.7455	4.1565	0	88	1023	1
2026-02-12	16:48:21.190	4.48	-8.085	-15.645	0.005612	0.195444	0.93208	-13.6155	-15.708	4.1445	0	88	1023	1
2026-02-12	16:48:21.210	4.41	-8.575	-14.35	0.00488	0.197884	0.934276	-13.581	-15.6795	4.134	0	87	1018	1
2026-02-12	16:48:21.230	3.64	-9.31	-12.075	0.018544	0.219112	0.960384	-13.5765	-15.6705	4.1325	0	87	1018	1
2026-02-12	16:48:21.250	1.435	-9.17	-8.96	0.02074	0.219356	0.974292	-13.5975	-15.6885	4.143	0	87	1018	1
2026-02-12	16:48:21.270	-0.28	-8.155	-5.74	0.017568	0.214964	0.986004	-13.629	-15.726	4.149	0	87	1018	1
2026-02-12	16:48:21.290	-0.245	-6.965	-3.15	0.016104	0.225944	0.99186	-13.6515	-15.7425	4.149	0	87	1018	1
2026-02-12	16:48:21.310	1.4	-5.6	-1.61	0.011468	0.216916	1.004548	-13.65	-15.7215	4.1475	0	87	1018	1
2026-02-12	16:48:21.330	3.5	-3.64	-0.315	0.01098	0.211792	1.030656	-13.6455	-15.7035	4.1475	0	87	1018	1
2026-02-12	16:48:21.350	4.48	-0.77	1.645	0.01586	0.209596	1.04798	-13.653	-15.711	4.143	0	87	1018	1
2026-02-12	16:48:21.370	4.865	2.625	3.885	0.010736	0.221064	1.03944	-13.65	-15.7245	4.14	0	87	1018	1
2026-02-12	16:48:21.390	5.285	4.69	5.25	0.0122	0.21594	1.064572	-13.6425	-15.72	4.128	0	87	1018	1
2026-02-12	16:48:21.410	5.53	5.18	6.475	0.012688	0.210572	1.07604	-13.6335	-15.699	4.104	0	86	1014	1
2026-02-12	16:48:21.430	5.005	6.965	7.91	0.014884	0.219356	1.079456	-13.6245	-15.678	4.0905	0	86	1014	1
2026-02-12	16:48:21.450	4.165	9.695	8.925	0.010248	0.225944	1.084336	-13.6785	-15.7125	4.086	0	86	1014	1
2026-02-12	16:48:21.470	2.555	12.215	10.08	0.012932	0.230092	1.08458	-13.7505	-15.7605	4.083	0	86	1014	1
2026-02-12	16:48:21.490	0.42	13.125	12.39	0.020496	0.229848	1.07238	-13.824	-15.7935	4.0785	0	86	1014	1
2026-02-12	16:48:21.510	-0.665	11.76	14.945	0.027572	0.220332	1.061156	-13.7835	-15.765	4.062	0	86	1014	1
2026-02-12	16:48:21.530	-0.98	10.255	16.485	0.033184	0.202032	1.05408	-13.647	-15.6795	4.05	0	86	1014	1
2026-02-12	16:48:21.550	-1.085	9.03	17.885	0.056364	0.191784	1.036268	-13.644	-15.687	4.062	0	86	1014	1
2026-02-12	16:48:21.570	-0.77	6.23	19.81	0.070028	0.202276	1.029924	-13.6785	-15.732	4.074	0	86	1014	1
2026-02-12	16:48:21.590	0.42	4.025	21.035	0.091012	0.225212	1.031876	-13.7685	-15.7965	4.0905	0	86	1014	1
2026-02-12	16:48:21.610	1.54	4.235	20.86	0.108336	0.224236	1.01626	-13.791	-15.825	4.1085	0	84	1019	1
2026-02-12	16:48:21.630	1.47	5.32	20.09	0.10492	0.205692	0.981612	-13.701	-15.7815	4.104	0	84	1019	1
2026-02-12	16:48:21.650	1.645	5.845	19.075	0.086376	0.205936	0.96868	-13.6515	-15.7335	4.08	0	84	1019	1
2026-02-12	16:48:21.670	2.625	6.72	17.115	0.083204	0.213988	0.931836	-13.5795	-15.6615	4.0755	0	84	1019	1
2026-02-12	16:48:21.690	4.375	9.73	14.525	0.078568	0.211548	0.93574	-13.5405	-15.624	4.0875	0	84	1019	1
2026-02-12	16:48:21.710	4.795	10.71	12.53	0.077348	0.20374	0.946964	-13.5405	-15.624	4.0875	0	84	1019	1
2026-02-12	16:48:21.730	4.025	9.975	12.285	0.090036	0.195688	0.951356	-13.587	-15.666	4.128	0	84	1019	1
2026-02-12	16:48:21.750	3.29	8.225	12.88	0.091988	0.18788	0.953796	-13.587	-15.666	4.128	0	84	1019	1
2026-02-12	16:48:21.770	2.38	3.57	13.93	0.075396	0.180072	0.958188	-13.6785	-15.771	4.1625	0	84	1019	1
2026-02-12	16:48:21.790	3.22	-1.26	13.65	0.072224	0.190076	0.95038	-13.701	-15.798	4.1745	0	84	1019	1
2026-02-12	16:48:21.810	6.195	-4.375	11.55	0.076616	0.18788	0.9638	-13.71	-15.8205	4.1775	0	81	1023	1
2026-02-12	16:48:21.830	7.84	-5.565	8.82	0.072224	0.17202	0.975024	-13.7685	-15.8445	4.1685	0	81	1023	1
2026-02-12	16:48:21.850	7.525	-6.02	6.755	0.061732	0.151768	0.962336	-13.731	-15.8145	4.1625	0	81	1023	1
2026-02-12	16:48:21.870	7.525	-6.65	5.775	0.05002	0.152012	0.940864	-13.6605	-15.7695	4.155	0	81	1023	1
2026-02-12	16:48:21.890	7.385	-8.4	5.845	0.046116	0.1647	0.943548	-13.6395	-15.735	4.152	0	81	1023	1
2026-02-12	16:48:21.910	6.405	-10.045	6.545	0.049776	0.183	0.9699	-13.6335	-15.7245	4.146	0	81	1023	1
2026-02-12	16:48:21.930	4.13	-10.255	6.895	0.040992	0.18422	0.971364	-13.6515	-15.732	4.143	0	81	1023	1
2026-02-12	16:48:21.950	1.645	-9.38	6.93	0.028304	0.17324	0.943548	-13.65	-15.729	4.1385	0	81	1023	1
2026-02-12	16:48:21.970	0.875	-8.995	6.58	0.020496	0.1708	0.939156	-13.62	-15.7125	4.1325	0	81	1023	1
2026-02-12	16:48:21.990	0.525	-8.89	5.985	0.025132	0.170556	0.954284	-13.6275	-15.6945	4.1415	0	81	1023	1
2026-02-12	16:48:22.010	-0.945	-8.855	5.985	0.022204	0.172508	0.960628	-13.6545	-15.726	4.149	0	78	1018	1
2026-02-12	16:48:22.030	-2.135	-9.1	6.405	0.011224	0.153964	0.952332	-13.695	-15.768	4.1625	0	78	1018	1
2026-02-12	16:48:22.050	-2.345	-9.94	6.09	0.004148	0.1464	0.963312	-13.737	-15.7965	4.1685	0	78	1018	1
2026-02-12	16:48:22.070	-2.555	-10.255	5.25	-0.002928	0.154452	0.962824	-13.755	-15.825	4.1775	0	78	1018	1
2026-02-12	16:48:22.090	-2.1	-10.395	5.145	-0.02196	0.15006	0.948184	-13.776	-15.825	4.1835	0	78	1018	1
2026-02-12	16:48:22.110	0.07	-11.13	5.11	-0.03782	0.149084	0.948184	-13.7865	-15.8625	4.191	0	78	1018	1
2026-02-12	16:48:22.130	2.835	-11.585	4.655	-0.047336	0.12566	0.96746	-13.8	-15.8625	4.194	0	78	1018	1
2026-02-12	16:48:22.150	4.55	-11.27	4.025	-0.037576	0.164212	1.000888	-13.8195	-15.882	4.2	0	78	1018	1
2026-02-12	16:48:22.170	5.565	-10.535	3.22	-0.024156	0.192028	1.037488	-13.863	-15.903	4.2075	0	78	1018	1
2026-02-12	16:48:22.190	6.3	-7.91	2.1	-0.032208	0.198616	1.037488	-13.839	-15.879	4.2105	0	78	1018	1
2026-02-12	16:48:22.210	7.14	-5.425	0.455	-0.01952	0.184708	1.03578	-13.8105	-15.855	4.185	0	75	1011	1
2026-02-12	16:48:22.230	8.89	-2.135	-0.84	-0.003416	0.177876	1.033096	-13.686	-15.744	4.167	0	75	1011	1
2026-02-12	16:48:22.250	11.375	0.28	-0.63	0.009272	0.193492	1.065304	-13.5975	-15.654	4.134	0	75	1011	1
2026-02-12	16:48:22.270	12.985	3.465	-2.065	0.002928	0.204228	1.098244	-13.578	-15.615	4.101	0	75	1011	1
2026-02-12	16:48:22.290	11.62	6.86	-4.97	-0.005856	0.19764	1.115812	-13.605	-15.6495	4.11	0	75	1011	1
2026-02-12	16:48:22.310	7.595	8.19	-6.65	-0.029768	0.195688	1.125328	-13.6455	-15.687	4.104	0	75	1011	1
2026-02-12	16:48:22.330	3.36	9.94	-7.035	-0.055388	0.194712	1.1102	-13.665	-15.7185	4.104	0	75	1011	1
2026-02-12	16:48:22.350	0.315	9.38	-7.28	-0.051972	0.205692	1.100196	-13.683	-15.717	4.0665	0	75	1011	1
2026-02-12	16:48:22.370	-1.33	8.435	-8.085	-0.033428	0.233752	1.106296	-13.647	-15.6915	4.0515	0	75	1011	1
2026-02-12	16:48:22.390	-2.38	11.655	-9.625	-0.014396	0.248148	1.08458	-13.611	-15.6675	4.0725	0	75	1011	1
2026-02-12	16:48:22.410	-2.345	11.935	-11.025	0.002684	0.253516	1.045296	-13.647	-15.6855	4.0995	0	73	1015	1
2026-02-12	16:48:22.430	-0.42	8.645	-11.13	0.055632	0.246684	1.022848	-13.6995	-15.744	4.0875	0	73	1015	1
2026-02-12	16:48:22.450	2.45	3.395	-10.815	0.089304	0.271084	1.028948	-13.674	-15.705	4.0965	0	73	1015	1
2026-02-12	16:48:22.470	5.425	0.455	-11.865	0.109312	0.272792	1.019676	-13.674	-15.705	4.0965	0	73	1015	1
2026-02-12	16:48:22.490	8.61	0.28	-14.35	0.111996	0.261324	0.987224	-13.674	-15.705	4.0965	0	73	1015	1
2026-02-12	16:48:22.510	12.285	1.33	-18.095	0.106384	0.251808	0.951844	-13.6485	-15.7155	4.1025	0	73	1015	1
2026-02-12	16:48:22.530	14.91	3.08	-22.33	0.099308	0.26718	0.931348	-13.62	-15.7215	4.11	0	73	1015	1
2026-02-12	16:48:22.550	16.45	4.13	-25.865	0.087596	0.285236	0.91378	-13.5885	-15.705	4.1175	0	73	1015	1
2026-02-12	16:48:22.570	16.1	3.85	-27.79	0.076372	0.278892	0.893772	-13.5765	-15.7005	4.119	0	73	1015	1
2026-02-12	16:48:22.590	12.6	0	-27.44	0.072712	0.27328	0.890112	-13.575	-15.7035	4.1205	0	73	1015	1
2026-02-12	16:48:22.610	7.105	-3.815	-25.2	0.062464	0.286212	0.883036	-13.524	-15.6675	4.128	0	73	1022	1
2026-02-12	16:48:22.630	2.66	-7.84	-22.225	0.061488	0.303292	0.872788	-13.4565	-15.609	4.1295	0	73	1022	1
2026-02-12	16:48:22.650	0.21	-10.85	-19.635	0.06734399	0.31598	0.887428	-13.416	-15.57	4.131	0	73	1022	1
2026-02-12	16:48:22.670	-1.365	-13.335	-17.605	0.073444	0.323788	0.892552	-13.4295	-15.5535	4.134	0	73	1022	1
2026-02-12	16:48:22.690	-1.61	-15.295	-16.59	0.063684	0.318908	0.892796	-13.4535	-15.57	4.143	0	73	1022	1
2026-02-12	16:48:22.710	-0.245	-18.62	-15.995	0.060756	0.324764	0.911828	-13.479	-15.615	4.1565	0	73	1022	1
2026-02-12	16:48:22.730	1.435	-21.77	-16.205	0.063928	0.31842	0.940132	-13.515	-15.654	4.1775	0	73	1022	1
2026-02-12	16:48:22.750	2.87	-23.1	-16.8	0.048068	0.305732	0.96136	-13.5285	-15.6705	4.1895	0	73	1022	1
2026-02-12	16:48:22.770	3.92	-22.05	-17.465	0.026596	0.284504	0.95404	-13.5285	-15.6705	4.1895	0	73	1022	1
2026-02-12	16:48:22.790	4.9	-20.58	-18.025	0.018544	0.2745	0.9394	-13.584	-15.726	4.203	0	73	1022	1
2026-02-12	16:48:22.810	6.09	-19.39	-18.27	0.014884	0.26352	0.930616	-13.584	-15.726	4.203	0	74	1015	1
2026-02-12	16:48:22.830	7.14	-18.13	-18.165	0.007808	0.254492	0.927688	-13.5345	-15.678	4.167	0	74	1015	1
2026-02-12	16:48:22.850	6.475	-17.36	-17.255	0.0122	0.2684	0.95038	-13.5315	-15.66	4.1745	0	74	1015	1
2026-02-12	16:48:22.870	4.2	-16.625	-14.91	0.026108	0.27084	0.97722	-13.554	-15.6795	4.1715	0	74	1015	1
2026-02-12	16:48:22.890	1.05	-14.525	-11.34	0.01708	0.263764	0.989176	-13.518	-15.666	4.1685	0	74	1015	1
2026-02-12	16:48:22.910	-1.47	-11.48	-7.98	0.022204	0.258884	0.997716	-13.5075	-15.642	4.167	0	74	1015	1
2026-02-12	16:48:22.930	-2.555	-8.225	-5.495	0.031232	0.25498	1.007476	-13.485	-15.6045	4.1385	0	74	1015	1
2026-02-12	16:48:22.950	-2.52	-4.9	-3.045	0.02196	0.253516	1.022604	-13.4745	-15.5685	4.1355	0	74	1015	1
2026-02-12	16:48:22.970	-1.96	-1.19	-0.595	0.020496	0.257176	1.050664	-13.458	-15.579	4.1475	0	74	1015	1
2026-02-12	16:48:22.990	-2.275	1.61	1.89	0.02074	0.256932	1.068964	-13.536	-15.6375	4.146	0	74	1015	1
2026-02-12	16:48:23.010	-3.57	3.395	3.955	0.022936	0.25864	1.0919	-13.596	-15.6795	4.143	0	75	1007	1
2026-02-12	16:48:23.030	-4.935	5.04	5.88	0.022448	0.261812	1.096048	-13.632	-15.711	4.14	0	75	1007	1
2026-02-12	16:48:23.050	-5.705	3.99	7.035	0.01586	0.275232	1.097512	-13.65	-15.7245	4.0815	0	75	1007	1
2026-02-12	16:48:23.070	-5.04	2.66	6.51	0.01098	0.280356	1.112152	-13.605	-15.6555	4.05	0	75	1007	1
2026-02-12	16:48:23.090	-3.92	5.915	5.53	0.03904	0.275476	1.118984	-13.599	-15.639	4.0515	0	75	1007	1
2026-02-12	16:48:23.110	-4.48	8.225	6.615	0.064904	0.268644	1.109468	-13.566	-15.621	4.044	0	75	1007	1
2026-02-12	16:48:23.130	-6.055	6.44	9.31	0.077104	0.255956	1.104588	-13.593	-15.639	4.005	0	75	1007	1
2026-02-12	16:48:23.150	-7.42	6.965	12.04	0.108092	0.242048	1.06384	-13.587	-15.6195	3.9915	0	75	1007	1
2026-02-12	16:48:23.170	-7.385	6.475	15.26	0.127368	0.236436	1.023092	-13.5555	-15.6	3.981	0	75	1007	1
2026-02-12	16:48:23.190	-5.425	3.99	18.27	0.15738	0.247416	1.00406	-13.5645	-15.6105	3.9975	0	75	1007	1
2026-02-12	16:48:23.210	-3.08	0.315	20.44	0.188368	0.272792	1.00406	-13.6155	-15.669	4.0155	0	77	1012	1
2026-02-12	16:48:23.230	-1.155	-2.52	22.19	0.197152	0.29158	1.009184	-13.647	-15.7185	4.038	0	77	1012	1
2026-02-12	16:48:23.250	0.42	-1.855	21.805	0.175436	0.299388	0.98454	-13.6875	-15.7515	4.056	0	77	1012	1
2026-02-12	16:48:23.270	3.01	2.205	18.62	0.168604	0.309636	0.948184	-13.668	-15.735	4.0395	0	77	1012	1
2026-02-12	16:48:23.290	5.25	8.575	13.86	0.157624	0.278404	0.899384	-13.638	-15.711	4.0275	0	77	1012	1
2026-02-12	16:48:23.310	6.16	10.78	10.255	0.153232	0.247416	0.866444	-13.548	-15.633	3.996	0	77	1012	1
2026-02-12	16:48:23.330	6.09	10.325	9.1	0.160552	0.244732	0.86864	-13.5135	-15.615	3.9975	0	77	1012	1
2026-02-12	16:48:23.350	4.69	6.825	10.57	0.153232	0.232044	0.878644	-13.566	-15.6555	4.008	0	77	1012	1
2026-02-12	16:48:23.370	3.255	2.625	12.18	0.138836	0.235948	0.887916	-13.629	-15.7065	4.023	0	77	1012	1
2026-02-12	16:48:23.390	2.8	-1.715	13.475	0.132248	0.221064	0.898408	-13.692	-15.777	4.059	0	77	1012	1
2026-02-12	16:48:23.410	3.045	-5.005	13.545	0.109556	0.217404	0.91622	-13.7115	-15.7965	4.0695	0	79	1015	1
2026-02-12	16:48:23.430	3.465	-7.595	12.705	0.102724	0.214232	0.919148	-13.7445	-15.828	4.08	0	79	1015	1
2026-02-12	16:48:23.450	4.48	-9.03	11.62	0.091988	0.208376	0.917196	-13.7595	-15.8475	4.086	0	79	1015	1
2026-02-12	16:48:23.470	6.09	-10.115	10.535	0.07515199	0.223992	0.94062	-13.746	-15.8325	4.0635	0	79	1015	1
2026-02-12	16:48:23.490	7.42	-8.785	9.03	0.061	0.222528	0.94062	-13.7175	-15.7635	4.095	0	79	1015	1
2026-02-12	16:48:23.510	7.98	-6.16	7.63	0.040748	0.21228	0.932812	-13.635	-15.7095	4.11	0	79	1015	1
2026-02-12	16:48:23.530	7.455	-5.32	6.86	0.035868	0.204228	0.922808	-13.614	-15.6885	4.11	0	79	1015	1
2026-02-12	16:48:23.550	6.44	-3.99	6.825	0.03416	0.205448	0.931104	-13.6665	-15.7185	4.1295	0	79	1015	1
2026-02-12	16:48:23.570	5.11	-3.255	7.28	0.018544	0.203008	0.942084	-13.638	-15.7005	4.137	0	79	1015	1
2026-02-12	16:48:23.590	3.745	-3.08	7.7	0.016836	0.202032	0.942328	-13.671	-15.711	4.149	0	79	1015	1
2026-02-12	16:48:23.610	2.835	-3.325	7.735	0.017568	0.204716	0.9516	-13.674	-15.741	4.1565	0	81	1007	1
2026-02-12	16:48:23.630	2.135	-3.15	6.965	0.010248	0.206668	0.969656	-13.707	-15.7605	4.158	0	81	1007	1
2026-02-12	16:48:23.650	1.68	-1.82	5.355	0.004636	0.193492	0.972828	-13.7145	-15.7755	4.1625	0	81	1007	1
2026-02-12	16:48:23.670	0.84	-1.82	4.55	-0.003172	0.188368	0.981124	-13.722	-15.756	4.1595	0	81	1007	1
2026-02-12	16:48:23.690	-0.105	-3.36	4.9	0.002196	0.216428	0.997472	-13.689	-15.7515	4.1565	0	81	1007	1
2026-02-12	16:48:23.710	-0.91	-4.795	5.32	0.00122	0.232044	1.021628	-13.668	-15.726	4.1475	0	81	1007	1
2026-02-12	16:48:23.730	-1.575	-4.41	5.32	-0.001464	0.223504	1.037732	-13.647	-15.7005	4.1415	0	81	1007	1
2026-02-12	16:48:23.750	-2.03	-2.52	5.075	-0.011712	0.223748	1.054812	-13.629	-15.6825	4.1355	0	81	1007	1
2026-02-12	16:48:23.770	-1.89	-1.085	4.97	-0.006344	0.2501	1.075064	-13.6365	-15.6585	4.1175	0	81	1007	1
2026-02-12	16:48:23.790	-2.1	0.595	4.69	0.008052	0.271572	1.08702	-13.6335	-15.6585	4.0995	0	81	1007	1
2026-02-12	16:48:23.810	-2.485	3.85	3.78	0.011224	0.278648	1.087264	-13.6335	-15.6585	4.0995	0	83	1001	1
2026-02-12	16:48:23.830	-2.1	7.735	2.065	0.000976	0.269864	1.081652	-13.632	-15.645	4.083	0	83	1001	1
2026-02-12	16:48:23.850	-1.365	10.395	0.385	-0.000976	0.267912	1.06628	-13.632	-15.633	4.068	0	83	1001	1
2026-02-12	16:48:23.870	-0.245	12.075	-0.945	0.010492	0.271816	1.062132	-13.6335	-15.6285	4.0665	0	83	1001	1
2026-02-12	16:48:23.890	1.12	11.375	-1.05	0.039772	0.289628	1.05408	-13.644	-15.636	4.065	0	83	1001	1
2026-02-12	16:48:23.910	2.38	7.945	0.28	0.065148	0.316468	1.052372	-13.659	-15.6525	4.059	0	83	1001	1
2026-02-12	16:48:23.930	3.64	4.55	1.015	0.08052	0.31232	1.037244	-13.68	-15.678	4.0605	0	83	1001	1
2026-02-12	16:48:23.950	5.565	2.73	0.91	0.093696	0.306952	1.006988	-13.6755	-15.6795	4.062	0	83	1001	1
2026-02-12	16:48:23.970	9.38	0.945	-0.91	0.097356	0.312808	0.980392	-13.6425	-15.648	4.047	0	83	1001	1
2026-02-12	16:48:23.990	15.015	-0.035	-4.62	0.11102	0.328424	0.974292	-13.6275	-15.636	4.038	0	83	1001	1
2026-02-12	16:48:24.010	19.6	-1.47	-8.82	0.11834	0.334524	0.991616	-13.6335	-15.657	4.0455	0	84	1007	1
2026-02-12	16:48:24.030	22.015	-1.785	-13.685	0.11468	0.333304	0.995276	-13.6395	-15.678	4.053	0	84	1007	1
2026-02-12	16:48:24.050	21.385	-0.14	-18.97	0.104432	0.320616	0.970144	-13.6395	-15.678	4.053	0	84	1007	1
2026-02-12	16:48:24.070	18.69	1.295	-22.925	0.10858	0.300852	0.915244	-13.6335	-15.693	4.0515	0	84	1007	1
2026-02-12	16:48:24.090	15.54	-0.42	-24.815	0.114924	0.289384	0.907192	-13.5525	-15.6405	4.0395	0	84	1007	1
2026-02-12	16:48:24.110	12.46	-1.715	-24.85	0.124684	0.306464	0.857172	-13.476	-15.5565	4.0845	0	84	1007	1
2026-02-12	16:48:24.130	10.29	-5.705	-24.255	0.141764	0.332816	0.87108	-13.4415	-15.534	4.0995	0	84	1007	1
2026-02-12	16:48:24.150	6.195	-13.37	-21.42	0.165188	0.351604	0.890112	-13.4655	-15.5535	4.0935	0	84	1007	1
2026-02-12	16:48:24.170	1.89	-18.375	-19.67	0.16348	0.349652	0.91134	-13.4835	-15.57	4.1145	0	84	1007	1
2026-02-12	16:48:24.190	-1.4	-21.14	-19.075	0.149816	0.341112	0.917196	-13.506	-15.594	4.116	0	84	1007	1
2026-02-12	16:48:24.210	-2.73	-22.155	-19.565	0.140544	0.347212	0.911828	-13.5165	-15.591	4.11	0	85	1008	1
2026-02-12	16:48:24.230	-1.68	-22.05	-21.175	0.146156	0.356972	0.92232	-13.5435	-15.6	4.107	0	85	1008	1
2026-02-12	16:48:24.250	0.315	-20.86	-23.52	0.127856	0.327204	0.927444	-13.527	-15.5925	4.1145	0	85	1008	1
2026-02-12	16:48:24.270	1.015	-18.27	-25.165	0.103212	0.300364	0.921344	-13.5375	-15.624	4.1265	0	85	1008	1
2026-02-12	16:48:24.290	0.525	-16.1	-24.71	0.089304	0.288652	0.916952	-13.557	-15.6435	4.1265	0	85	1008	1
2026-02-12	16:48:24.310	-0.63	-14.945	-22.61	0.0854	0.286212	0.914024	-13.587	-15.6765	4.137	0	85	1008	1
2026-02-12	16:48:24.330	-2.17	-14.84	-19.53	0.093452	0.29036	0.9333	-13.6155	-15.6885	4.1445	0	85	1008	1
2026-02-12	16:48:24.350	-5.355	-15.855	-15.47	0.107116	0.277184	0.952332	-13.605	-15.675	4.1415	0	85	1008	1
2026-02-12	16:48:24.370	-9.52	-16.345	-11.235	0.09028	0.24156	0.957212	-13.572	-15.657	4.122	0	85	1008	1
2026-02-12	16:48:24.390	-11.795	-15.155	-8.085	0.061732	0.2257	0.97478	-13.548	-15.6	4.0995	0	85	1008	1
2026-02-12	16:48:24.410	-11.585	-11.27	-6.125	0.058804	0.225212	1.003572	-13.4955	-15.5505	4.086	0	86	1001	1
2026-02-12	16:48:24.430	-11.585	-5.39	-4.165	0.05856	0.232044	1.051396	-13.572	-15.6135	4.0935	0	86	1001	1
2026-02-12	16:48:24.450	-13.44	1.155	-1.33	0.046848	0.236436	1.087752	-13.653	-15.696	4.0845	0	86	1001	1
2026-02-12	16:48:24.470	-16.31	8.015	1.645	0.042944	0.236924	1.096292	-13.7625	-15.786	4.083	0	86	1001	1
2026-02-12	16:48:24.490	-18.41	13.86	4.585	0.048312	0.224968	1.082872	-13.737	-15.765	4.0815	0	86	1001	1
2026-02-12	16:48:24.510	-18.27	17.045	8.26	0.071004	0.232776	1.066768	-13.6725	-15.7155	4.0545	0	86	1001	1
2026-02-12	16:48:24.530	-15.61	16.485	12.04	0.101992	0.248392	1.071648	-13.6065	-15.6375	4.017	0	86	1001	1
2026-02-12	16:48:24.550	-11.515	16.555	15.435	0.130296	0.261324	1.095804	-13.6005	-15.6165	4.0065	0	86	1001	1
2026-02-12	16:48:24.570	-8.54	18.55	18.795	0.142008	0.247416	1.090436	-13.6455	-15.6465	4.0215	0	86	1001	1
2026-02-12	16:48:24.590	-6.02	20.02	22.47	0.150792	0.244976	1.077992	-13.665	-15.657	4.0275	0	86	1001	1
2026-02-12	16:48:24.610	-2.905	19.11	25.935	0.152012	0.270108	1.069208	-13.6845	-15.6765	4.0335	0	87	1001	1
2026-02-12	16:48:24.630	0.14	17.99	27.545	0.156404	0.268888	1.041636	-13.7055	-15.6795	4.044	0	87	1001	1
2026-02-12	16:48:24.650	2.87	14.525	28.63	0.150792	0.27694	1.024068	-13.686	-15.678	4.0395	0	87	1001	1
2026-02-12	16:48:24.670	4.97	11.55	28.42	0.163968	0.263276	1.006988	-13.701	-15.693	4.0425	0	87	1001	1
2026-02-12	16:48:24.690	6.195	10.255	27.755	0.169336	0.260592	1.010404	-13.6695	-15.6705	4.035	0	87	1001	1
2026-02-12	16:48:24.710	6.685	11.48	25.935	0.16836	0.256932	1.003572	-13.65	-15.6585	4.026	0	87	1001	1
2026-02-12	16:48:24.730	6.405	15.4	22.435	0.152988	0.230092	0.985516	-13.6365	-15.633	4.0305	0	87	1001	1
2026-02-12	16:48:24.750	5.075	19.04	18.69	0.147132	0.20984	0.957944	-13.674	-15.657	4.0125	0	87	1001	1
2026-02-12	16:48:24.770	3.815	19.495	16.065	0.14274	0.198128	0.932324	-13.6425	-15.6555	4.0155	0	87	1001	1
2026-02-12	16:48:24.790	3.605	16.275	14.595	0.142008	0.19764	0.91256	-13.6395	-15.672	4.0335	0	87	1001	1
2026-02-12	16:48:24.810	4.2	9.625	14.035	0.141032	0.204472	0.919148	-13.6905	-15.735	4.056	0	87	1009	1
2026-02-12	16:48:24.830	4.935	1.19	14.385	0.140056	0.194468	0.92964	-13.7685	-15.8085	4.0935	0	87	1009	1
2026-02-12	16:48:24.850	5.25	-6.23	15.12	0.124684	0.192516	0.939888	-13.872	-15.9045	4.1145	0	87	1009	1
2026-02-12	16:48:24.870	5.775	-10.29	15.015	0.107604	0.171044	0.929152	-13.9005	-15.927	4.1205	0	87	1009	1
2026-02-12	16:48:24.890	6.58	-12.04	14.525	0.095648	0.154452	0.917196	-13.89	-15.9105	4.1145	0	87	1009	1
2026-02-12	16:48:24.910	7.14	-12.565	14.595	0.09516	0.154208	0.907924	-13.881	-15.8955	4.1085	0	87	1009	1
2026-02-12	16:48:24.930	7.875	-12.18	14.385	0.089304	0.15982	0.906704	-13.8075	-15.8295	4.0935	0	87	1009	1
2026-02-12	16:48:24.950	7.595	-10.22	13.65	0.082716	0.173972	0.945012	-13.7145	-15.7395	4.083	0	87	1009	1
2026-02-12	16:48:24.970	5.565	-4.865	13.58	0.080276	0.198128	0.927932	-13.6725	-15.699	4.0965	0	87	1009	1
2026-02-12	16:48:24.990	3.745	-1.575	14.56	0.074908	0.205692	0.928176	-13.662	-15.684	4.11	0	87	1009	1
2026-02-12	16:48:25.010	3.185	0.875	15.75	0.070272	0.201056	0.920124	-13.6725	-15.6855	4.116	0	87	1008	1
2026-02-12	16:48:25.030	3.5	2.905	15.82	0.042456	0.196664	0.913048	-13.647	-15.6735	4.1205	0	87	1008	1
2026-02-12	16:48:25.050	4.655	4.48	14.28	0.023912	0.193492	0.905728	-13.6545	-15.6885	4.131	0	87	1008	1
2026-02-12	16:48:25.070	5.6	4.9	12.67	0.008296	0.18422	0.914268	-13.716	-15.7485	4.1475	0	87	1008	1
2026-02-12	16:48:25.090	6.16	3.885	11.62	-0.011712	0.1708	0.923052	-13.7865	-15.822	4.1655	0	87	1008	1
2026-02-12	16:48:25.110	6.58	2.24	10.535	-0.026352	0.173972	0.936716	-13.8465	-15.8775	4.1865	0	87	1008	1
2026-02-12	16:48:25.130	6.02	0.665	8.855	-0.032208	0.1708	0.955016	-13.875	-15.897	4.2015	0	87	1008	1
2026-02-12	16:48:25.150	4.445	-1.785	7.595	-0.029524	0.166652	0.978196	-13.881	-15.9015	4.2	0	87	1008	1
2026-02-12	16:48:25.170	2.87	-3.535	7.245	-0.015128	0.162992	0.99552	-13.839	-15.864	4.1775	0	87	1008	1
2026-02-12	16:48:25.190	1.96	-3.85	6.965	-0.008296	0.151768	1.02358	-13.758	-15.786	4.1535	0	87	1008	1
2026-02-12	16:48:25.210	1.96	-1.89	7	0.013176	0.174948	1.065304	-13.6995	-15.7185	4.119	0	87	1000	1
2026-02-12	16:48:25.230	1.68	-1.68	8.96	0.050264	0.19642	1.103124	-13.6605	-15.6705	4.062	0	87	1000	1
2026-02-12	16:48:25.250	1.155	1.19	10.64	0.0549	0.222772	1.132892	-13.6545	-15.6495	4.032	0	87	1000	1
2026-02-12	16:48:25.270	0.875	6.37	10.5	0.046848	0.2196	1.122888	-13.677	-15.645	4.023	0	87	1000	1
2026-02-12	16:48:25.290	0.035	11.865	9.17	0.030988	0.211548	1.09312	-13.6815	-15.639	4.008	0	87	1000	1
2026-02-12	16:48:25.310	-0.315	15.68	6.965	0.038064	0.221796	1.067988	-13.6725	-15.633	4.0005	0	87	1000	1
2026-02-12	16:48:25.330	-0.56	14.525	7.385	0.06588	0.243024	1.059448	-13.6785	-15.648	4.0065	0	87	1000	1
2026-02-12	16:48:25.350	-1.505	8.19	10.675	0.068076	0.284748	1.057496	-13.7175	-15.699	4.02	0	87	1000	1
2026-02-12	16:48:25.370	-2.1	1.47	12.18	0.081984	0.310124	1.066768	-13.752	-15.7425	4.0155	0	87	1000	1
2026-02-12	16:48:25.390	-1.085	-2.835	10.43	0.108092	0.30134	1.059204	-13.764	-15.753	3.996	0	87	1000	1
2026-02-12	16:48:25.410	0.805	-4.025	7.28	0.103212	0.294752	1.014552	-13.728	-15.72	3.9765	0	87	1003	1
2026-02-12	16:48:25.430	2.59	-1.54	2.66	0.106628	0.296704	1.041392	-13.662	-15.6675	3.978	0	87	1003	1
2026-02-12	16:48:25.450	3.57	2.415	-2.94	0.11834	0.287676	1.01748	-13.617	-15.6255	3.984	0	87	1003	1
2026-02-12	16:48:25.470	3.78	6.685	-7.455	0.117608	0.281332	1.013576	-13.5885	-15.5895	3.987	0	87	1003	1
2026-02-12	16:48:25.490	0.42	10.08	-9.52	0.115168	0.264008	0.990396	-13.5705	-15.576	3.9945	0	87	1003	1
2026-02-12	16:48:25.510	-3.85	9.345	-7.735	0.128832	0.288652	0.980636	-13.563	-15.5775	3.9945	0	87	1003	1
2026-02-12	16:48:25.530	-5.425	5.845	-5.425	0.140788	0.295728	0.950624	-13.563	-15.5775	3.9945	0	87	1003	1
2026-02-12	16:48:25.550	-6.3	1.505	-3.99	0.161284	0.312564	0.953552	-13.563	-15.5775	3.9945	0	87	1003	1
2026-02-12	16:48:25.570	-7.105	-2.73	-3.29	0.158356	0.307196	0.941596	-13.563	-15.5775	3.9945	0	87	1003	1
2026-02-12	16:48:25.590	-6.615	-6.23	-2.135	0.158844	0.277672	0.915488	-13.584	-15.618	4.041	0	87	1003	1
2026-02-12	16:48:25.610	-3.64	-6.93	-2.415	0.117364	0.280844	0.93208	-13.584	-15.615	4.0515	0	88	1011	1
2026-02-12	16:48:25.630	-2.905	-6.37	-3.815	0.084912	0.293288	0.971608	-13.593	-15.5925	4.0845	0	88	1011	1
2026-02-12	16:48:25.650	-3.01	-2.66	-7.035	0.03416	0.264984	0.94184	-13.6005	-15.6165	4.1145	0	88	1011	1
2026-02-12	16:48:25.670	-2.275	-1.12	-10.71	0.038064	0.207644	0.892064	-13.6125	-15.6285	4.1205	0	88	1011	1
2026-02-12	16:48:25.690	-2.87	-1.085	-11.9	0.054168	0.177632	0.913292	-13.6035	-15.6525	4.1415	0	88	1011	1
2026-02-12	16:48:25.710	-5.88	-2.345	-10.115	0.047092	0.203252	0.921832	-13.6845	-15.72	4.17	0	88	1011	1
2026-02-12	16:48:25.730	-9.03	-5.74	-7.28	0.045384	0.232776	0.900116	-13.6875	-15.741	4.1745	0	88	1011	1
2026-02-12	16:48:25.750	-9.205	-9.135	-6.265	0.04392	0.214476	0.874496	-13.7235	-15.771	4.182	0	88	1011	1
2026-02-12	16:48:25.770	-6.545	-11.305	-5.635	0.041724	0.177144	0.855952	-13.7145	-15.7425	4.1745	0	88	1011	1
2026-02-12	16:48:25.790	-2.59	-12.88	-3.255	0.033672	0.179584	0.8296	-13.7115	-15.753	4.1745	0	88	1011	1
2026-02-12	16:48:25.810	3.045	-18.27	-0.14	0.076372	0.197884	0.891088	-13.758	-15.783	4.1895	0	89	1009	1
2026-02-12	16:48:25.830	7.805	-15.26	0.56	0.068076	0.187148	0.93574	-13.794	-15.7785	4.3275	0	89	1009	1
2026-02-12	16:48:25.850	7.98	-12.32	4.2	0.032696	0.180804	1.0797	-13.8525	-15.8145	4.3485	0	89	1009	1
2026-02-12	16:48:25.870	1.995	-3.08	8.085	-0.003172	0.195932	1.096536	-13.8645	-15.819	4.332	0	89	1009	1
2026-02-12	16:48:25.890	-1.05	0.98	10.815	-0.0061	0.223016	1.067012	-13.6425	-15.624	4.164	0	89	1009	1
2026-02-12	16:48:25.910	2.695	6.93	12.005	0.0244	0.198128	1.16388	-13.3635	-15.354	4.035	0	89	1009	1
2026-02-12	16:48:25.930	4.2	15.75	11.06	0.06222	0.31232	1.226832	-13.3635	-15.354	4.035	0	89	1009	1
2026-02-12	16:48:25.950	0.07	17.255	9.73	0.08418	0.286212	1.199992	-13.482	-15.372	3.978	0	89	1009	1
2026-02-12	16:48:25.970	-5.18	19.46	10.185	0.096868	0.272548	1.19072	-13.602	-15.3915	3.921	0	89	1009	1
2026-02-12	16:48:25.990	-7.63	22.33	10.43	0.099796	0.276452	1.175104	-13.6425	-15.414	3.909	0	89	1009	1
2026-02-12	16:48:26.010	-11.095	26.915	10.57	0.093696	0.216916	1.179252	-13.683	-15.4365	3.897	0	91	1010	1
2026-02-12	16:48:26.030	-15.05	26.565	11.935	0.083936	0.229848	1.125084	-13.7235	-15.48	3.912	0	91	1010	1
2026-02-12	16:48:26.050	-17.395	22.96	13.37	0.082228	0.238144	1.138504	-13.779	-15.5475	3.9285	0	91	1010	1
2026-02-12	16:48:26.070	-19.81	19.74	15.26	0.062952	0.215452	1.10288	-13.884	-15.636	3.936	0	91	1010	1
2026-02-12	16:48:26.090	-19.845	18.655	15.68	0.062952	0.243512	1.078968	-14.04	-15.753	3.9465	0	91	1010	1
2026-02-12	16:48:26.110	-17.605	20.65	13.825	0.060512	0.227896	1.031144	-14.112	-15.8145	3.9645	0	91	1010	1
2026-02-12	16:48:26.130	-15.295	21.665	11.865	0.070028	0.210328	0.962092	-14.028	-15.7665	3.9765	0	91	1010	1
2026-02-12	16:48:26.150	-9.835	19.67	9.065	0.076616	0.190564	0.932568	-13.938	-15.7155	3.987	0	91	1010	1
2026-02-12	16:48:26.170	-6.37	22.05	7.665	0.075884	0.169824	0.913536	-13.905	-15.6945	4.086	0	91	1010	1
2026-02-12	16:48:26.190	-5.985	22.085	7.77	0.081496	0.155916	0.875228	-13.896	-15.7005	4.185	0	91	1010	1
2026-02-12	16:48:26.210	-5.39	16.345	9.555	0.08686399	0.172752	0.837652	-13.917	-15.726	4.1985	0	93	1021	1
2026-02-12	16:48:26.230	-2.345	8.295	12.18	0.063684	0.122976	0.816424	-13.9005	-15.7155	4.203	0	93	1021	1
2026-02-12	16:48:26.250	2.94	1.855	14.84	0.05734	0.16104	0.836188	-13.887	-15.72	4.2105	0	93	1021	1
2026-02-12	16:48:26.270	4.655	-8.995	17.29	0.03538	0.122	0.82716	-13.9185	-15.7515	4.2285	0	93	1021	1
2026-02-12	16:48:26.290	3.535	-21.56	20.44	0.029524	0.126636	0.806908	-14.0115	-15.819	4.248	0	93	1021	1
2026-02-12	16:48:26.310	3.395	-27.86	21.595	0.010736	0.155428	0.815448	-14.0025	-15.8115	4.2795	0	93	1021	1
2026-02-12	16:48:26.330	5.005	-29.89	19.215	0.00366	0.178364	0.857172	-13.9245	-15.732	4.302	0	93	1021	1
2026-02-12	16:48:26.350	5.635	-30.24	14.735	-0.003416	0.16836	0.899384	-13.8825	-15.6795	4.3275	0	93	1021	1
2026-02-12	16:48:26.370	4.795	-26.88	10.465	-0.026352	0.160796	0.88084	-13.8375	-15.642	4.368	0	93	1021	1
2026-02-12	16:48:26.390	7.805	-22.785	6.405	-0.040504	0.147864	0.84546	-13.7775	-15.585	4.377	0	93	1021	1
2026-02-12	16:48:26.410	14.84	-20.685	3.815	-0.022448	0.171044	0.904996	-13.7625	-15.555	4.3755	0	97	1016	1
2026-02-12	16:48:26.430	14.175	-18.69	4.27	-0.038308	0.245464	0.942084	-13.836	-15.6105	4.398	0	97	1016	1
2026-02-12	16:48:26.450	8.085	-21.14	5.39	-0.0305	0.099308	0.959896	-13.8705	-15.6375	4.3725	0	97	1016	1
2026-02-12	16:48:26.470	5.915	-16.345	3.71	-0.040504	0.093208	0.941596	-13.803	-15.5835	4.362	0	97	1016	1
2026-02-12	16:48:26.490	7.7	-12.705	-0.35	-0.005368	0.117852	0.954772	-13.7175	-15.5085	4.3785	0	97	1016	1
2026-02-12	16:48:26.510	9.38	-10.255	-3.08	-0.000732	0.14762	1.078968	-13.719	-15.498	4.374	0	97	1016	1
2026-02-12	16:48:26.530	4.34	-6.72	-2.03	0.026108	0.13542	1.072868	-13.8	-15.555	4.389	0	97	1016	1
2026-02-12	16:48:26.550	-1.75	-2.555	-0.56	-0.012932	0.147132	0.98942	-13.8045	-15.5565	4.389	0	97	1016	1
2026-02-12	16:48:26.570	-0.385	-1.05	-1.4	-0.0061	0.16958	0.9699	-13.722	-15.492	4.3755	0	97	1016	1
2026-02-12	16:48:26.590	6.58	-0.56	-4.06	0.027328	0.21472	1.043344	-13.6815	-15.447	4.377	0	97	1016	1
2026-02-12	16:48:26.610	8.925	0.035	-4.97	0.06344	0.239608	1.245376	-13.728	-15.486	4.3845	0	101	1004	1
2026-02-12	16:48:26.630	3.815	6.685	-5.985	0.008296	0.237412	1.237324	-13.836	-15.567	4.335	0	101	1004	1
2026-02-12	16:48:26.650	1.155	7.63	-10.15	0.023912	0.210816	1.087508	-13.8345	-15.531	4.2315	0	101	1004	1
2026-02-12	16:48:26.670	2.275	10.675	-13.195	0.0305	0.169336	1.027972	-13.6905	-15.408	4.2135	0	101	1004	1
2026-02-12	16:48:26.690	3.325	6.93	-11.585	0.039284	0.222528	1.077992	-13.5885	-15.327	4.2255	0	101	1004	1
2026-02-12	16:48:26.710	2.065	4.83	-10.815	0.06222	0.27572	1.16998	-13.593	-15.3345	4.2135	0	101	1004	1
2026-02-12	16:48:26.730	-0.805	8.12	-11.41	0.066856	0.269376	1.1407	-13.6995	-15.4215	4.203	0	101	1004	1
2026-02-12	16:48:26.750	-3.675	4.445	-12.6	0.062708	0.278892	1.10166	-13.7715	-15.483	4.1775	0	101	1004	1
2026-02-12	16:48:26.770	-1.54	2.625	-15.995	0.049776	0.300608	1.05652	-13.7385	-15.474	4.167	0	101	1004	1
2026-02-12	16:48:26.790	5.355	1.785	-22.33	0.048312	0.319396	1.067744	-13.719	-15.4725	4.1685	0	101	1004	1
2026-02-12	16:48:26.810	8.96	3.43	-29.54	0.069296	0.311344	1.049932	-13.752	-15.504	4.173	0	106	1009	1
2026-02-12	16:48:26.830	6.825	5.39	-33.95	0.081984	0.264252	0.967704	-13.8075	-15.552	4.1805	0	106	1009	1
2026-02-12	16:48:26.850	3.605	3.57	-34.335	0.080032	0.238388	0.885964	-13.797	-15.564	4.1835	0	106	1009	1
2026-02-12	16:48:26.870	2.94	-2.345	-33.005	0.086132	0.251564	0.876448	-13.7505	-15.537	4.1655	0	106	1009	1
2026-02-12	16:48:26.890	2.8	-6.265	-31.78	0.099308	0.246684	0.898408	-13.707	-15.489	4.1715	0	106	1009	1
2026-02-12	16:48:26.910	-0.035	-9.38	-28.98	0.10614	0.264252	0.888404	-13.6755	-15.462	4.194	0	106	1009	1
2026-02-12	16:48:26.930	-2.03	-15.19	-25.865	0.100284	0.264252	0.874984	-13.6815	-15.471	4.1985	0	106	1009	1
2026-02-12	16:48:26.950	-0.28	-20.895	-24.92	0.09467199	0.290604	0.895968	-13.686	-15.486	4.206	0	106	1009	1
2026-02-12	16:48:26.970	4.55	-23.765	-27.44	0.111264	0.31842	0.968924	-13.6845	-15.4935	4.2135	0	106	1009	1
2026-02-12	16:48:26.990	5.95	-21.245	-32.27	0.112728	0.286212	0.990396	-13.6845	-15.4935	4.2135	0	106	1009	1
2026-02-12	16:48:27.010	3.535	-17.5	-35.63	0.093696	0.22326	0.936716	-13.6845	-15.4935	4.2135	0	109	1014	1
2026-02-12	16:48:27.030	2.52	-16.66	-36.365	0.085888	0.194956	0.882304	-13.6845	-15.4935	4.2135	0	109	1014	1
2026-02-12	16:48:27.050	3.955	-18.025	-36.785	0.081496	0.170312	0.875472	-13.6845	-15.4935	4.2135	0	109	1014	1
2026-02-12	16:48:27.070	4.48	-18.655	-36.26	0.080276	0.154452	0.903288	-13.689	-15.504	4.212	0	109	1014	1
2026-02-12	16:48:27.090	0.28	-16.625	-33.285	0.073688	0.160064	0.93208	-13.7115	-15.5325	4.224	0	109	1014	1
2026-02-12	16:48:27.110	-5.88	-13.685	-28.525	0.057584	0.173972	0.938912	-13.7535	-15.558	4.2375	0	109	1014	1
2026-02-12	16:48:27.130	-10.29	-12.74	-23.975	0.05734	0.175924	0.959164	-13.7715	-15.57	4.2315	0	109	1014	1
2026-02-12	16:48:27.150	-12.46	-11.62	-19.88	0.036844	0.159576	0.9577	-13.743	-15.555	4.227	0	109	1014	1
2026-02-12	16:48:27.170	-11.55	-10.045	-15.68	0.029768	0.13176	0.966972	-13.7385	-15.558	4.233	0	109	1014	1
2026-02-12	16:48:27.190	-8.575	-7.77	-11.48	0.026352	0.145424	1.045784	-13.779	-15.5925	4.2435	0	109	1014	1
2026-02-12	16:48:27.210	-7.805	-3.395	-7.7	0.04148	0.168116	1.125084	-13.857	-15.6345	4.2705	0	112	1011	1
2026-02-12	16:48:27.230	-8.225	3.08	-4.55	0.035624	0.161284	1.137284	-13.914	-15.669	4.272	0	112	1011	1
2026-02-12	16:48:27.250	-7.525	6.51	-1.54	0.045384	0.168848	1.157292	-13.896	-15.6465	4.23	0	112	1011	1
2026-02-12	16:48:27.270	-7.035	7.98	0.035	0.071736	0.1952	1.13094	-13.8555	-15.585	4.1835	0	112	1011	1
2026-02-12	16:48:27.290	-5.6	6.965	-0.7	0.080032	0.223016	1.149728	-13.776	-15.5055	4.146	0	112	1011	1
2026-02-12	16:48:27.310	-5.985	10.325	-1.785	0.080276	0.23058	1.156072	-13.6905	-15.4245	4.11	0	112	1011	1
2026-02-12	16:48:27.330	-7.945	17.78	-1.82	0.099796	0.202276	1.122156	-13.6275	-15.366	4.0575	0	112	1011	1
2026-02-12	16:48:27.350	-10.29	16.065	1.225	0.135664	0.193492	1.08336	-13.572	-15.321	4.0305	0	112	1011	1
2026-02-12	16:48:27.370	-11.025	11.9	4.34	0.140544	0.172996	1.053348	-13.5675	-15.321	4.071	0	112	1011	1
2026-02-12	16:48:27.390	-10.395	9.17	4.795	0.171776	0.225944	1.06018	-13.6575	-15.4155	4.131	0	112	1011	1
2026-02-12	16:48:27.410	-11.375	7.28	6.16	0.18178	0.210816	1.052616	-13.7895	-15.5385	4.167	0	113	1016	1
2026-02-12	16:48:27.430	-10.605	5.285	8.05	0.18788	0.21472	1.057984	-13.851	-15.6045	4.179	0	113	1016	1
2026-02-12	16:48:27.450	-10.99	4.13	9.03	0.18544	0.202764	1.050664	-13.836	-15.6135	4.179	0	113	1016	1
2026-02-12	16:48:27.470	-11.55	5.565	8.715	0.161284	0.158112	0.99064	-13.7835	-15.5685	4.164	0	113	1016	1
2026-02-12	16:48:27.490	-8.12	6.02	6.825	0.149572	0.13176	0.930372	-13.7295	-15.5145	4.1475	0	113	1016	1
2026-02-12	16:48:27.510	-3.325	6.825	5.46	0.155916	0.127612	0.953552	-13.734	-15.5205	4.158	0	113	1016	1
2026-02-12	16:48:27.530	-1.855	6.965	5.845	0.15372	0.122732	0.94428	-13.7865	-15.576	4.188	0	113	1016	1
2026-02-12	16:48:27.550	-1.82	3.465	7.21	0.138592	0.10126	0.91622	-13.857	-15.6495	4.224	0	113	1016	1
2026-02-12	16:48:27.570	0.7	-2.065	9.555	0.1098	0.095892	0.9333	-13.941	-15.7305	4.254	0	113	1016	1
2026-02-12	16:48:27.590	1.61	-3.08	11.515	0.099064	0.09882	0.952576	-14.004	-15.7965	4.2795	0	113	1016	1
2026-02-12	16:48:27.610	0.35	-3.885	12.6	0.0793	0.077104	0.930616	-14.037	-15.8295	4.2885	0	114	1025	1
2026-02-12	16:48:27.630	-0.07	-7.63	13.58	0.06222	0.07076	0.894748	-13.9935	-15.792	4.272	0	114	1025	1
2026-02-12	16:48:27.650	2.38	-8.435	12.81	0.064172	0.091988	0.916952	-13.8795	-15.696	4.2855	0	114	1025	1
2026-02-12	16:48:27.670	5.32	-6.02	9.94	0.058316	0.109312	0.93818	-13.8285	-15.6345	4.3125	0	114	1025	1
2026-02-12	16:48:27.690	6.65	-1.47	8.015	0.058072	0.094916	0.946232	-13.8255	-15.6255	4.32	0	114	1025	1
2026-02-12	16:48:27.710	4.375	3.325	8.575	0.057828	0.083448	0.894504	-13.8525	-15.6645	4.3305	0	114	1025	1
2026-02-12	16:48:27.730	4.34	3.325	9.485	0.050752	0.089304	0.870104	-13.884	-15.696	4.332	0	114	1025	1
2026-02-12	16:48:27.750	6.58	1.61	9.135	0.03294	0.082228	0.91866	-13.893	-15.6885	4.338	0	114	1025	1
2026-02-12	16:48:27.770	5.705	0.7	9.275	-0.002928	0.05978	0.930616	-13.9035	-15.696	4.35	0	114	1025	1
2026-02-12	16:48:27.790	5.215	-0.735	9.66	-0.026352	0.057096	0.918904	-13.9155	-15.7245	4.3545	0	114	1025	1
2026-02-12	16:48:27.810	7.315	-1.155	8.155	-0.045628	0.069052	0.97966	-13.953	-15.7515	4.362	0	114	1020	1
2026-02-12	16:48:27.830	5.81	0.385	6.16	-0.05612	0.092476	1.03944	-13.9875	-15.7695	4.3815	0	114	1020	1
2026-02-12	16:48:27.850	1.75	3.605	4.025	-0.066368	0.080764	1.000888	-13.989	-15.774	4.386	0	114	1020	1
2026-02-12	16:48:27.870	1.435	3.71	2.03	-0.073688	0.08052	0.984784	-13.9335	-15.735	4.3605	0	114	1020	1
2026-02-12	16:48:27.890	4.62	3.885	-0.875	-0.041968	0.113704	1.04798	-13.8855	-15.6795	4.341	0	114	1020	1
2026-02-12	16:48:27.910	4.41	5.53	-3.29	-0.000976	0.13908	1.088484	-13.95	-15.708	4.3305	0	114	1020	1
2026-02-12	16:48:27.930	1.435	4.41	-3.955	0.01586	0.149816	1.097268	-14.046	-15.7665	4.29	0	114	1020	1
2026-02-12	16:48:27.950	-1.68	1.435	-3.99	0.024156	0.146644	1.111664	-14.0385	-15.7545	4.221	0	114	1020	1
2026-02-12	16:48:27.970	-3.29	2.8	-6.16	0.013664	0.127856	1.099708	-13.917	-15.651	4.1745	0	114	1020	1
2026-02-12	16:48:27.990	-2.765	5.74	-8.365	0.017812	0.1159	1.059692	-13.7865	-15.54	4.152	0	114	1020	1
2026-02-12	16:48:28.010	-1.785	2.38	-8.365	0.03416	0.156404	1.075796	-13.758	-15.519	4.1355	0	114	1016	1
2026-02-12	16:48:28.030	-1.19	-2.065	-8.995	0.035868	0.176656	1.114592	-13.818	-15.5625	4.149	0	114	1016	1
2026-02-12	16:48:28.050	-2.66	-2.485	-10.885	0.044896	0.19154	1.088972	-13.8615	-15.5955	4.1685	0	114	1016	1
2026-02-12	16:48:28.070	-3.36	-4.27	-13.58	0.03782	0.201056	1.07116	-13.8615	-15.5955	4.1685	0	114	1016	1
2026-02-12	16:48:28.090	-2.415	-6.58	-16.24	0.03172	0.203496	1.055788	-14.043	-15.7575	4.26	0	114	1016	1
2026-02-12	16:48:28.110	-0.735	-8.505	-18.9	0.03904	0.191296	1.036512	-14.043	-15.7575	4.26	0	114	1016	1
2026-02-12	16:48:28.130	1.75	-9.66	-21.42	0.068808	0.200568	1.036756	-14.0535	-15.759	4.2435	0	114	1016	1
2026-02-12	16:48:28.150	2.345	-4.34	-23.205	0.094428	0.171776	1.041636	-13.986	-15.7065	4.2615	0	114	1016	1
2026-02-12	16:48:28.170	-1.085	0.77	-22.925	0.132248	0.176412	1.006744	-13.8735	-15.639	4.239	0	114	1016	1
2026-02-12	16:48:28.190	-4.865	-0.805	-20.72	0.151036	0.176656	0.944768	-13.7925	-15.564	4.197	0	114	1016	1
2026-02-12	16:48:28.210	-4.795	-2.8	-17.745	0.142008	0.180316	0.94672	-13.7355	-15.48	4.17	0	113	1022	1
2026-02-12	16:48:28.230	-4.48	-3.99	-14.735	0.134932	0.202276	0.968436	-13.671	-15.48	4.173	0	113	1022	1
2026-02-12	16:48:28.250	-5.075	-4.165	-12.32	0.125416	0.204472	0.99064	-13.7235	-15.5115	4.188	0	113	1022	1
2026-02-12	16:48:28.270	-5.95	-6.09	-9.555	0.114436	0.208376	0.986492	-13.818	-15.5925	4.206	0	113	1022	1
2026-02-12	16:48:28.290	-4.41	-10.22	-7.525	0.108336	0.210816	0.998204	-13.932	-15.702	4.2195	0	113	1022	1
2026-02-12	16:48:28.310	-1.715	-10.36	-7.84	0.09882	0.196908	0.972096	-14.028	-15.753	4.23	0	113	1022	1
2026-02-12	16:48:28.330	0.91	-8.19	-9.205	0.077104	0.145668	0.915	-13.974	-15.762	4.236	0	113	1022	1
2026-02-12	16:48:28.350	2.765	-9.17	-8.365	0.060268	0.0915	0.884744	-14.025	-15.792	4.2405	0	113	1022	1
2026-02-12	16:48:28.370	4.2	-10.045	-5.88	0.040748	0.091012	0.899628	-14.0565	-15.8175	4.2225	0	113	1022	1
2026-02-12	16:48:28.390	4.515	-11.375	-2.73	0.039772	0.105652	0.919148	-14.0775	-15.8325	4.2315	0	113	1022	1
2026-02-12	16:48:28.410	2.73	-10.5	-0.21	0.02806	0.105896	0.929884	-14.1495	-15.8325	4.2435	0	112	1025	1
2026-02-12	16:48:28.430	-0.28	-9.765	2.345	0.017568	0.114436	0.94306	-14.0835	-15.8535	4.248	0	112	1025	1
2026-02-12	16:48:28.450	-1.995	-8.715	4.27	0.010004	0.120536	0.97356	-14.1345	-15.8505	4.2585	0	112	1025	1
2026-02-12	16:48:28.470	-2.905	-6.37	4.97	0.013664	0.121024	1.005768	-14.118	-15.828	4.2585	0	112	1025	1
2026-02-12	16:48:28.490	-3.99	-2.31	5.495	0.01098	0.108824	1.01382	-14.0325	-15.753	4.2495	0	112	1025	1
2026-02-12	16:48:28.510	-4.2	2.415	6.44	0.017568	0.092232	1.026264	-14.0325	-15.753	4.2495	0	112	1025	1
2026-02-12	16:48:28.530	-4.06	7.35	8.33	0.022936	0.090524	1.043588	-14.0325	-15.753	4.2495	0	112	1025	1
2026-02-12	16:48:28.550	-4.445	9.205	10.885	0.047824	0.124928	1.061644	-14.0175	-15.741	4.2585	0	112	1025	1
2026-02-12	16:48:28.570	-4.41	9.835	13.23	0.06344	0.152012	1.118008	-14.037	-15.75	4.257	0	112	1025	1
2026-02-12	16:48:28.590	-5.95	11.13	15.12	0.077592	0.166652	1.168028	-14.085	-15.777	4.227	0	112	1025	1
2026-02-12	16:48:28.610	-7.98	12.53	16.38	0.081496	0.177632	1.149728	-14.0685	-15.7425	4.1715	0	110	1023	1
2026-02-12	16:48:28.630	-6.37	12.285	17.15	0.09076799	0.193004	1.1163	-13.9545	-15.6435	4.116	0	110	1023	1
2026-02-12	16:48:28.650	-2.765	12.985	16.905	0.101748	0.132004	1.072868	-13.878	-15.573	4.1145	0	110	1023	1
2026-02-12	16:48:28.670	0.385	14.525	18.06	0.114436	0.122244	1.070184	-13.8435	-15.5535	4.1325	0	110	1023	1
2026-02-12	16:48:28.690	1.68	12.985	20.405	0.135664	0.133468	1.076528	-13.8405	-15.588	4.149	0	110	1023	1
2026-02-12	16:48:28.710	2.66	10.57	22.54	0.142252	0.155672	1.09556	-13.8975	-15.6555	4.173	0	110	1023	1
2026-02-12	16:48:28.730	1.645	9.695	23.975	0.119804	0.153476	1.077992	-13.947	-15.702	4.188	0	110	1023	1
2026-02-12	16:48:28.750	1.715	11.655	23.8	0.098088	0.122488	1.012844	-13.959	-15.717	4.1865	0	110	1023	1
2026-02-12	16:48:28.770	4.375	12.005	22.155	0.080764	0.125904	0.977952	-13.923	-15.6945	4.1685	0	110	1023	1
2026-02-12	16:48:28.790	9.03	11.2	18.27	0.075884	0.144448	0.997228	-13.896	-15.6645	4.158	0	110	1023	1
2026-02-12	16:48:28.810	11.9	11.445	14.315	0.07442	0.124684	0.987956	-13.908	-15.6615	4.1595	0	108	1030	1
2026-02-12	16:48:28.830	10.85	8.19	14.21	0.091256	0.119804	0.967948	-13.9515	-15.6975	4.1745	0	108	1030	1
2026-02-12	16:48:28.850	8.785	2.31	16.31	0.111508	0.127368	0.969412	-13.971	-15.7245	4.1895	0	108	1030	1
2026-02-12	16:48:28.870	7.735	-1.61	16.905	0.110288	0.130784	0.954772	-13.9515	-15.711	4.1835	0	108	1030	1
2026-02-12	16:48:28.890	7.77	-4.725	16.345	0.09882	0.120292	0.922076	-13.9005	-15.6795	4.176	0	108	1030	1
2026-02-12	16:48:28.910	8.89	-7.315	15.26	0.091256	0.103944	0.9211	-13.8615	-15.657	4.1715	0	108	1030	1
2026-02-12	16:48:28.930	9.24	-7.805	14.245	0.08174	0.095648	0.9272	-13.869	-15.6645	4.1745	0	108	1030	1
2026-02-12	16:48:28.950	8.26	-7.525	13.44	0.081984	0.098088	0.913048	-13.914	-15.696	4.1835	0	108	1030	1
2026-02-12	16:48:28.970	5.95	-8.085	12.88	0.073444	0.078324	0.911584	-13.95	-15.726	4.206	0	108	1030	1
2026-02-12	16:48:28.990	3.185	-5.635	13.825	0.054656	0.070272	0.901336	-13.9365	-15.7275	4.248	0	108	1030	1
2026-02-12	16:48:29.010	1.505	-5.285	14.875	0.025132	0.065148	0.89426	-13.9365	-15.7275	4.2735	0	105	1031	1
2026-02-12	16:48:29.030	2.52	-5.985	15.015	0.006832	0.074664	0.894016	-13.9515	-15.7425	4.278	0	105	1031	1
2026-02-12	16:48:29.050	5.565	-6.44	13.86	-0.009272	0.084424	0.927932	-13.9545	-15.7515	4.29	0	105	1031	1
2026-02-12	16:48:29.070	7.98	-5.145	12.355	-0.019764	0.083936	0.967948	-14.0085	-15.7785	4.3155	0	105	1031	1
2026-02-12	16:48:29.090	8.4	-3.5	11.585	-0.042944	0.078568	0.98576	-14.088	-15.837	4.338	0	105	1031	1
2026-02-12	16:48:29.110	8.12	-4.06	11.48	-0.049044	0.08686399	0.988688	-14.121	-15.873	4.344	0	105	1031	1
2026-02-12	16:48:29.130	8.505	-3.43	10.01	-0.050996	0.101504	1.01626	-14.121	-15.873	4.344	0	105	1031	1
2026-02-12	16:48:29.150	8.4	-1.155	7.77	-0.051728	0.098088	1.017724	-14.01	-15.78	4.3275	0	105	1031	1
2026-02-12	16:48:29.170	8.085	2.03	5.565	-0.052948	0.078568	1.003572	-14.01	-15.78	4.3275	0	105	1031	1
2026-02-12	16:48:29.190	8.085	6.965	3.71	-0.040992	0.06466	0.9882	-13.8705	-15.648	4.326	0	105	1031	1
2026-02-12	16:48:29.210	7.56	8.435	3.675	-0.010736	0.092964	1.02846	-13.857	-15.6075	4.32	0	102	1023	1
2026-02-12	16:48:29.230	4.585	7.91	4.69	0.01342	0.121756	1.06628	-13.818	-15.585	4.299	0	102	1023	1
2026-02-12	16:48:29.250	0.105	7.035	6.16	0.012444	0.160308	1.07238	-13.845	-15.615	4.2885	0	102	1023	1
2026-02-12	16:48:29.270	-1.995	5.11	6.825	0.007076	0.18178	1.109712	-13.863	-15.6015	4.2405	0	102	1023	1
2026-02-12	16:48:29.290	-2.24	6.79	4.69	0.017568	0.193248	1.113128	-13.794	-15.5475	4.197	0	102	1023	1
2026-02-12	16:48:29.310	-1.4	8.645	1.015	0.027816	0.167628	1.077992	-13.7175	-15.486	4.14	0	102	1023	1
2026-02-12	16:48:29.330	0	8.015	-1.295	0.044164	0.158356	1.063596	-13.683	-15.456	4.1295	0	102	1023	1
2026-02-12	16:48:29.350	1.575	6.965	-2.66	0.05246	0.168604	1.078236	-13.6995	-15.456	4.161	0	102	1023	1
2026-02-12	16:48:29.370	1.68	6.44	-3.465	0.044652	0.177632	1.081164	-13.8135	-15.5595	4.188	0	102	1023	1
2026-02-12	16:48:29.390	0.7	4.725	-3.745	0.032696	0.193004	1.057008	-13.8885	-15.609	4.2165	0	102	1023	1
2026-02-12	16:48:29.410	1.68	1.47	-5.005	0.019032	0.203252	1.03822	-13.8945	-15.6435	4.2195	0	100	1023	1
2026-02-12	16:48:29.430	3.85	-0.875	-7.735	0.010736	0.21228	1.023336	-13.875	-15.6285	4.233	0	100	1023	1
2026-02-12	16:48:29.450	5.95	-2.87	-11.34	0.01098	0.229116	1.017724	-13.833	-15.6045	4.2255	0	100	1023	1
2026-02-12	16:48:29.470	7.525	-4.375	-15.225	0.017812	0.219112	1.014064	-13.8615	-15.603	4.215	0	100	1023	1
2026-02-12	16:48:29.490	7.14	-4.06	-17.71	0.045628	0.205204	0.995276	-13.8765	-15.6	4.239	0	100	1023	1
2026-02-12	16:48:29.510	4.83	-3.885	-17.85	0.078812	0.187636	0.966972	-13.7505	-15.5475	4.254	0	100	1023	1
2026-02-12	16:48:29.530	1.33	-7.49	-15.26	0.121024	0.252784	0.982344	-13.6965	-15.4935	4.2465	0	100	1023	1
2026-02-12	16:48:29.550	-2.52	-10.15	-12.39	0.086132	0.201056	0.95404	-13.6875	-15.4785	4.2255	0	100	1023	1
2026-02-12	16:48:29.570	-5.11	-13.055	-10.15	0.087108	0.216428	0.969168	-13.677	-15.4755	4.2225	0	100	1023	1
2026-02-12	16:48:29.590	-5.04	-13.16	-9.695	0.09076799	0.235704	0.97844	-13.7235	-15.4755	4.2165	0	100	1023	1
2026-02-12	16:48:29.610	-2.275	-12.95	-10.43	0.09394	0.234728	0.985028	-13.7145	-15.4965	4.2135	0	99	1027	1
2026-02-12	16:48:29.630	0.805	-11.865	-11.83	0.085156	0.229848	0.99552	-13.761	-15.5415	4.236	0	99	1027	1
2026-02-12	16:48:29.650	2.17	-10.325	-13.125	0.068564	0.20618	0.979172	-13.8615	-15.6165	4.26	0	99	1027	1
2026-02-12	16:48:29.670	2.345	-9.45	-13.79	0.05246	0.16714	0.946476	-13.935	-15.6915	4.2825	0	99	1027	1
2026-02-12	16:48:29.690	1.12	-8.89	-13.405	0.028792	0.130296	0.918416	-13.9065	-15.69	4.281	0	99	1027	1
2026-02-12	16:48:29.710	-1.295	-9.52	-12.18	0.01952	0.11956	0.916952	-13.869	-15.6675	4.2705	0	99	1027	1
2026-02-12	16:48:29.730	-3.955	-9.8	-10.85	0.0183	0.126392	0.936472	-13.8495	-15.639	4.257	0	99	1027	1
2026-02-12	16:48:29.750	-5.705	-9.625	-9.415	0.01586	0.1464	0.96136	-13.812	-15.6075	4.254	0	99	1027	1
2026-02-12	16:48:29.770	-5.32	-7.56	-7.91	0.012444	0.15006	0.99186	-13.8435	-15.6195	4.257	0	99	1027	1
2026-02-12	16:48:29.790	-4.83	-3.43	-5.46	0.013908	0.140788	1.014064	-13.8675	-15.63	4.269	0	99	1027	1
2026-02-12	16:48:29.810	-5.18	1.75	-2.94	0.02562	0.129808	1.016016	-13.8885	-15.6495	4.2735	0	97	1026	1
2026-02-12	16:48:29.830	-5.53	7.245	-1.225	0.020984	0.118096	0.992348	-13.887	-15.645	4.2735	0	97	1026	1
2026-02-12	16:48:29.850	-5.355	9.765	1.435	0.01708	0.095892	0.964288	-13.887	-15.654	4.2705	0	97	1026	1
2026-02-12	16:48:29.870	-5.39	8.61	5.32	0.008052	0.097356	0.979904	-13.8705	-15.6315	4.2645	0	97	1026	1
2026-02-12	16:48:29.890	-5.25	4.375	8.645	0.019032	0.140544	1.034316	-13.9035	-15.6525	4.2675	0	97	1026	1
2026-02-12	16:48:29.910	-4.76	2.905	9.66	0.017568	0.172264	1.086776	-13.9005	-15.6615	4.284	0	97	1026	1
2026-02-12	16:48:29.930	-3.745	3.15	9.38	0.033672	0.202764	1.122156	-13.953	-15.6915	4.287	0	97	1026	1
2026-02-12	16:48:29.950	-1.05	5.845	8.085	0.027328	0.1891	1.131184	-13.9335	-15.6735	4.2885	0	97	1026	1
2026-02-12	16:48:29.970	2.695	8.085	6.93	0.022936	0.159088	1.120204	-13.8915	-15.633	4.2705	0	97	1026	1
2026-02-12	16:48:29.990	5.425	7.49	6.72	0.027084	0.134932	1.136064	-13.8675	-15.5805	4.2225	0	97	1026	1
2026-02-12	16:48:30.010	4.585	8.82	7.42	0.031476	0.119316	1.130208	-13.8675	-15.5805	4.2225	0	95	1026	1
2026-02-12	16:48:30.030	1.715	9.835	8.54	0.061488	0.0976	1.092144	-13.8675	-15.5805	4.2225	0	95	1026	1
2026-02-12	16:48:30.050	-1.295	7.035	10.29	0.0915	0.10614	1.058228	-13.8675	-15.5805	4.2225	0	95	1026	1
2026-02-12	16:48:30.070	-2.38	2.17	12.915	0.117364	0.1281	1.05164	-13.8735	-15.582	4.2345	0	95	1026	1
2026-02-12	16:48:30.090	-2.38	-1.19	16.24	0.14762	0.158112	1.055544	-13.8885	-15.6075	4.2555	0	95	1026	1
2026-02-12	16:48:30.110	-1.715	-1.365	18.095	0.161528	0.214964	1.056764	-13.8975	-15.627	4.263	0	95	1026	1
2026-02-12	16:48:30.130	1.47	1.015	16.03	0.17446	0.190564	0.990884	-13.869	-15.603	4.2735	0	95	1026	1
2026-02-12	16:48:30.150	3.535	5.145	13.44	0.172264	0.123708	0.938424	-13.77	-15.528	4.3005	0	95	1026	1
2026-02-12	16:48:30.170	5.39	6.405	13.09	0.153964	0.09028	0.913292	-13.701	-15.4755	4.317	0	95	1026	1
2026-02-12	16:48:30.190	5.46	3.71	13.895	0.140056	0.089548	0.984296	-13.701	-15.4755	4.317	0	95	1026	1
2026-02-12	16:48:30.210	5.285	4.655	13.195	0.12078	0.128588	0.972096	-13.6815	-15.4665	4.305	0	93	1033	1
2026-02-12	16:48:30.230	4.305	3.675	12.635	0.122	0.092232	0.956968	-13.6815	-15.4665	4.305	0	93	1033	1
2026-02-12	16:48:30.250	2.94	2.415	12.67	0.097112	0.091744	0.928664	-13.8975	-15.669	4.3485	0	93	1033	1
2026-02-12	16:48:30.270	1.54	-2.205	13.58	0.076128	0.089548	0.90768	-13.8885	-15.678	4.3695	0	93	1033	1
2026-02-12	16:48:30.290	2.24	-5.775	13.545	0.055144	0.0976	0.925736	-13.9665	-15.738	4.3695	0	93	1033	1
2026-02-12	16:48:30.310	3.605	-6.965	12.355	0.046604	0.114436	0.95892	-13.992	-15.756	4.386	0	93	1033	1
2026-02-12	16:48:30.330	2.905	-6.44	11.06	0.033428	0.099796	0.944768	-13.9785	-15.7515	4.383	0	93	1033	1
2026-02-12	16:48:30.350	1.575	-5.53	10.29	0.026596	0.064172	0.897676	-13.935	-15.711	4.368	0	93	1033	1
2026-02-12	16:48:30.370	0.91	-6.825	10.43	0.018056	0.044652	0.87108	-13.884	-15.657	4.3455	0	93	1033	1
2026-02-12	16:48:30.390	1.715	-7.35	10.325	0.0183	0.0915	0.9333	-13.8765	-15.645	4.3515	0	93	1033	1
2026-02-12	16:48:30.410	1.855	-5.005	9.765	0.020008	0.099552	0.96868	-13.8465	-15.618	4.3635	0	93	1030	1
2026-02-12	16:48:30.430	0.07	-2.065	10.465	0.00732	0.07124799	0.944036	-13.926	-15.675	4.3815	0	93	1030	1
2026-02-12	16:48:30.450	-0.035	-3.255	11.515	-0.01586	0.050264	0.970632	-13.9275	-15.693	4.398	0	93	1030	1
2026-02-12	16:48:30.470	0.07	-3.185	10.815	-0.027572	0.076616	1.021628	-13.9995	-15.726	4.4085	0	93	1030	1
2026-02-12	16:48:30.490	-0.77	-0.56	8.47	-0.03904	0.080764	1.02602	-14.037	-15.7635	4.4115	0	93	1030	1
2026-02-12	16:48:30.510	-1.68	3.92	6.44	-0.057828	0.067832	1.024312	-13.9695	-15.7305	4.41	0	93	1030	1
2026-02-12	16:48:30.530	-3.64	7.42	6.09	-0.074176	0.020008	0.98576	-14.0835	-15.8025	4.3995	0	93	1030	1
2026-02-12	16:48:30.550	-5.32	6.93	6.475	-0.06954	0.028792	0.985516	-13.8615	-15.6285	4.3695	0	93	1030	1
2026-02-12	16:48:30.570	-5.6	5.775	5.67	-0.03538	0.080764	1.109468	-13.878	-15.639	4.371	0	93	1030	1
2026-02-12	16:48:30.590	-5.25	5.74	4.095	-0.00244	0.09857599	1.11752	-13.917	-15.6705	4.362	0	93	1030	1
2026-02-12	16:48:30.610	-6.475	5.04	3.465	0.006344	0.099796	1.089216	-13.9725	-15.7185	4.3275	0	93	1024	1
2026-02-12	16:48:30.630	-6.79	1.575	2.94	0.0183	0.10126	1.084336	-14.004	-15.729	4.299	0	93	1024	1
2026-02-12	16:48:30.650	-2.8	1.89	0	0.008052	0.108336	1.11386	-13.965	-15.672	4.281	0	93	1024	1
2026-02-12	16:48:30.670	0.525	4.27	-3.605	0.007808	0.075884	1.077504	-13.9605	-15.678	4.2615	0	93	1024	1
2026-02-12	16:48:30.690	3.255	3.99	-5.075	0.020008	0.081984	1.047248	-13.8975	-15.642	4.2525	0	93	1024	1
2026-02-12	16:48:30.710	4.445	-0.105	-5.18	0.044408	0.103456	1.040172	-13.8795	-15.6255	4.26	0	93	1024	1
2026-02-12	16:48:30.730	3.885	-3.465	-4.83	0.060756	0.12932	1.047004	-13.902	-15.6495	4.278	0	93	1024	1
2026-02-12	16:48:30.750	2.38	-6.545	-4.41	0.068564	0.142984	1.040416	-13.929	-15.6675	4.2705	0	93	1024	1
2026-02-12	16:48:30.770	4.41	-8.575	-5.46	0.078568	0.170068	1.034804	-13.9035	-15.648	4.257	0	93	1024	1
2026-02-12	16:48:30.790	7.77	-10.22	-8.785	0.102968	0.1952	1.0187	-13.8765	-15.621	4.248	0	93	1024	1
2026-02-12	16:48:30.810	9.765	-9.835	-12.775	0.123464	0.203252	1.018212	-13.8	-15.5595	4.263	0	93	1026	1
2026-02-12	16:48:30.830	9.695	-4.76	-15.54	0.135908	0.195444	0.991128	-13.7415	-15.513	4.2975	0	93	1026	1
2026-02-12	16:48:30.850	8.295	0.14	-16.625	0.140788	0.166896	0.934032	-13.722	-15.486	4.2885	0	93	1026	1
2026-02-12	16:48:30.870	6.58	0.385	-15.785	0.147864	0.148108	0.91012	-13.641	-15.4335	4.2795	0	93	1026	1
2026-02-12	16:48:30.890	4.41	-1.505	-13.37	0.142496	0.157624	0.917684	-13.605	-15.4035	4.29	0	93	1026	1
2026-02-12	16:48:30.910	0.385	-4.83	-10.36	0.130784	0.173728	0.937936	-13.611	-15.4125	4.29	0	93	1026	1
2026-02-12	16:48:30.930	-4.55	-7.91	-7.315	0.115656	0.190808	0.933788	-13.6515	-15.4605	4.3155	0	93	1026	1
2026-02-12	16:48:30.950	-6.125	-11.9	-5.39	0.11224	0.207644	0.951112	-13.68	-15.501	4.326	0	93	1026	1
2026-02-12	16:48:30.970	-2.345	-15.47	-6.195	0.120048	0.231068	0.994788	-13.7205	-15.5325	4.3305	0	93	1026	1
2026-02-12	16:48:30.990	2.66	-18.06	-9.555	0.129076	0.22326	1.012112	-13.794	-15.594	4.3305	0	93	1026	1
2026-02-12	16:48:31.010	6.475	-17.36	-13.16	0.121512	0.18422	0.998204	-13.8645	-15.6225	4.3335	0	93	1027	1
2026-02-12	16:48:31.030	9.345	-15.96	-15.015	0.109312	0.149328	0.964044	-13.857	-15.6345	4.329	0	93	1027	1
2026-02-12	16:48:31.050	10.85	-14.84	-15.155	0.086376	0.128344	0.953552	-13.8435	-15.63	4.326	0	93	1027	1
2026-02-12	16:48:31.070	10.43	-14.945	-14.385	0.085644	0.129808	0.963068	-13.7985	-15.615	4.3125	0	93	1027	1
2026-02-12	16:48:31.090	8.295	-14.525	-13.475	0.078812	0.1281	0.96502	-13.7685	-15.5775	4.302	0	93	1027	1
2026-02-12	16:48:31.110	5.355	-13.405	-11.9	0.075396	0.110044	0.94916	-13.7505	-15.537	4.299	0	93	1027	1
2026-02-12	16:48:31.130	2.765	-11.655	-9.73	0.067588	0.104432	0.963556	-13.728	-15.513	4.296	0	93	1027	1
2026-02-12	16:48:31.150	-1.05	-8.435	-7.175	0.066612	0.122244	1.005036	-13.749	-15.513	4.314	0	93	1027	1
2026-02-12	16:48:31.170	-5.565	-4.62	-5.32	0.06832	0.1342	1.023092	-13.758	-15.5355	4.3185	0	93	1027	1
2026-02-12	16:48:31.190	-8.82	-0.665	-4.69	0.066368	0.128588	1.019188	-13.767	-15.5235	4.3035	0	93	1027	1
2026-02-12	16:48:31.210	-9.59	4.235	-4.2	0.049532	0.116388	1.023092	-13.7655	-15.528	4.317	0	93	1023	1
2026-02-12	16:48:31.230	-8.54	7.7	-3.045	0.040992	0.09882	1.030412	-13.7655	-15.528	4.317	0	93	1023	1
2026-02-12	16:48:31.250	-7	9.45	-1.085	0.033184	0.081984	1.026264	-13.788	-15.546	4.3125	0	93	1023	1
2026-02-12	16:48:31.270	-5.6	8.925	1.4	0.032452	0.071736	1.038708	-13.8105	-15.564	4.3095	0	93	1023	1
2026-02-12	16:48:31.290	-4.935	8.085	4.55	0.023424	0.072956	1.050908	-13.8525	-15.615	4.317	0	93	1023	1
2026-02-12	16:48:31.310	-5.25	6.3	8.995	0.018788	0.074908	1.070428	-13.9365	-15.693	4.314	0	93	1023	1
2026-02-12	16:48:31.330	-5.425	2.94	12.495	0.023912	0.109312	1.087264	-13.9965	-15.7425	4.296	0	93	1023	1
2026-02-12	16:48:31.350	-3.71	0.56	12.95	0.032208	0.09882	1.104344	-14.0235	-15.7455	4.278	0	93	1023	1
2026-02-12	16:48:31.370	-0.14	-0.21	11.76	0.047336	0.087596	1.087508	-13.9965	-15.717	4.266	0	93	1023	1
2026-02-12	16:48:31.390	4.13	-1.4	10.08	0.064904	0.098332	1.07726	-13.953	-15.684	4.254	0	93	1023	1
2026-02-12	16:48:31.410	6.545	-2.94	8.89	0.076616	0.112484	1.109712	-13.929	-15.663	4.2435	0	92	1025	1
2026-02-12	16:48:31.430	6.265	-3.57	8.155	0.08906	0.144448	1.108004	-13.9065	-15.657	4.239	0	92	1025	1
2026-02-12	16:48:31.450	5.355	-4.2	6.545	0.083936	0.136884	1.062864	-13.899	-15.648	4.239	0	92	1025	1
2026-02-12	16:48:31.470	5.985	-5.775	5.88	0.070516	0.09272	1.056032	-13.8735	-15.6255	4.224	0	92	1025	1
2026-02-12	16:48:31.490	6.195	-5.915	7.525	0.09076799	0.110532	1.05774	-13.8165	-15.588	4.2045	0	92	1025	1
2026-02-12	16:48:31.510	5.425	-3.5	9.17	0.128832	0.1708	1.04188	-13.8	-15.564	4.2045	0	92	1025	1
2026-02-12	16:48:31.530	4.165	1.26	9.135	0.1586	0.18056	1.037488	-13.797	-15.5565	4.2165	0	92	1025	1
2026-02-12	16:48:31.550	2.975	5.425	8.61	0.178852	0.161284	1.010648	-13.7835	-15.555	4.224	0	92	1025	1
2026-02-12	16:48:31.570	1.12	8.505	8.12	0.185684	0.148108	0.968192	-13.731	-15.5145	4.239	0	92	1025	1
2026-02-12	16:48:31.590	0.245	8.855	7.07	0.172752	0.159576	0.958188	-13.6785	-15.474	4.254	0	92	1025	1
2026-02-12	16:48:31.610	0.875	7.945	5.11	0.164212	0.16348	0.963312	-13.6785	-15.474	4.254	0	90	1033	1
2026-02-12	16:48:31.630	1.26	8.225	3.045	0.144936	0.154452	0.949404	-13.728	-15.5325	4.2825	0	90	1033	1
2026-02-12	16:48:31.650	0.945	6.58	2.52	0.1281	0.142984	0.929152	-13.794	-15.5835	4.3095	0	90	1033	1
2026-02-12	16:48:31.670	1.085	3.745	2.52	0.11956	0.141276	0.938424	-13.8585	-15.6585	4.353	0	90	1033	1
2026-02-12	16:48:31.690	0.105	1.12	2.52	0.09882	0.126148	0.940376	-13.9125	-15.6975	4.3605	0	90	1033	1
2026-02-12	16:48:31.710	0.35	-1.435	2.17	0.06588	0.12078	0.919636	-13.896	-15.678	4.344	0	90	1033	1
2026-02-12	16:48:31.730	4.095	-3.395	1.225	0.048556	0.110044	0.924028	-13.8465	-15.6465	4.3395	0	90	1033	1
2026-02-12	16:48:31.750	6.615	-2.87	0.07	0.046116	0.1037	0.941352	-13.881	-15.6855	4.338	0	90	1033	1
2026-02-12	16:48:31.770	5.565	-1.68	-0.875	0.041968	0.10126	0.942084	-13.8795	-15.6825	4.341	0	90	1033	1
2026-02-12	16:48:31.790	3.78	-0.35	-1.96	0.030744	0.08906	0.92232	-13.8735	-15.675	4.3395	0	90	1033	1
2026-02-12	16:48:31.810	2.415	-0.105	-2.87	0.00976	0.089792	0.912316	-13.8375	-15.654	4.3395	0	89	1032	1
2026-02-12	16:48:31.830	2.52	-1.4	-4.55	0.002196	0.09394	0.9394	-13.8345	-15.6465	4.3275	0	89	1032	1
2026-02-12	16:48:31.850	1.995	-2.17	-6.72	-0.009516	0.076372	0.968192	-13.875	-15.6795	4.3455	0	89	1032	1
2026-02-12	16:48:31.870	0.21	-3.43	-7.595	-0.01098	0.059536	0.970632	-13.914	-15.714	4.359	0	89	1032	1
2026-02-12	16:48:31.890	1.26	-3.85	-8.54	0.01342	0.05002	1.008452	-13.944	-15.7395	4.362	0	89	1032	1
2026-02-12	16:48:31.910	1.085	-2.45	-9.625	0.016348	0.060512	1.044564	-13.962	-15.762	4.383	0	89	1032	1
2026-02-12	16:48:31.930	-2.03	0.49	-10.815	-0.001708	0.055876	1.037	-13.989	-15.7515	4.3905	0	89	1032	1
2026-02-12	16:48:31.950	-2.765	2.625	-11.795	-0.011468	0.05612	1.030412	-13.9245	-15.696	4.3635	0	89	1032	1
2026-02-12	16:48:31.970	-0.56	3.78	-14.28	0.003904	0.083204	1.04188	-13.845	-15.6285	4.3485	0	89	1032	1
2026-02-12	16:48:31.990	2.03	3.64	-17.01	0.028548	0.110532	1.10044	-13.8315	-15.5865	4.3245	0	89	1032	1
2026-02-12	16:48:32.010	1.61	5.74	-18.795	0.046116	0.114924	1.130208	-13.896	-15.642	4.317	0	88	1026	1
2026-02-12	16:48:32.030	-0.805	6.965	-18.655	0.055876	0.123708	1.108004	-13.9005	-15.6405	4.281	0	88	1026	1
2026-02-12	16:48:32.050	-0.105	4.55	-18.2	0.0732	0.131516	1.080188	-13.8435	-15.606	4.233	0	88	1026	1
2026-02-12	16:48:32.070	2.555	3.43	-18.62	0.083204	0.149328	1.083604	-13.779	-15.543	4.221	0	88	1026	1
2026-02-12	16:48:32.090	4.9	3.5	-19.495	0.099552	0.162992	1.07116	-13.74	-15.522	4.2195	0	88	1026	1
2026-02-12	16:48:32.110	6.265	2.52	-19.495	0.106628	0.197152	1.044564	-13.7505	-15.5265	4.224	0	88	1026	1
2026-02-12	16:48:32.130	6.86	0.28	-19.285	0.112972	0.196908	1.04432	-13.7625	-15.543	4.2465	0	88	1026	1
2026-02-12	16:48:32.150	7.07	-3.185	-18.97	0.120536	0.230824	1.036268	-13.815	-15.5985	4.251	0	88	1026	1
2026-02-12	16:48:32.170	7.35	-5.53	-19.985	0.133956	0.267668	1.019432	-13.7745	-15.558	4.2405	0	88	1026	1
2026-02-12	16:48:32.190	8.61	-4.165	-23.38	0.134688	0.269376	0.9882	-13.743	-15.5415	4.236	0	88	1026	1
2026-02-12	16:48:32.210	8.75	-2.065	-27.265	0.123708	0.225944	0.950868	-13.7445	-15.537	4.23	0	88	1028	1
2026-02-12	16:48:32.230	7.28	1.365	-29.68	0.10736	0.202764	0.900604	-13.6755	-15.4995	4.2525	0	88	1028	1
2026-02-12	16:48:32.250	5.565	-0.665	-29.715	0.092232	0.203496	0.893284	-13.6425	-15.4755	4.2525	0	88	1028	1
2026-02-12	16:48:32.270	2.765	-4.445	-28	0.084912	0.200812	0.913292	-13.6455	-15.504	4.2675	0	88	1028	1
2026-02-12	16:48:32.290	-3.395	-7.525	-24.605	0.07564	0.197884	0.914756	-13.6455	-15.504	4.2675	0	88	1028	1
2026-02-12	16:48:32.310	-8.33	-12.215	-20.86	0.079544	0.209352	0.91134	-13.701	-15.561	4.2885	0	88	1028	1
2026-02-12	16:48:32.330	-9.555	-16.415	-19.11	0.086132	0.223504	0.92354	-13.758	-15.6195	4.3095	0	88	1028	1
2026-02-12	16:48:32.350	-7.14	-19.705	-18.83	0.104188	0.245708	0.945256	-13.758	-15.621	4.308	0	88	1028	1
2026-02-12	16:48:32.370	-0.56	-21.7	-20.58	0.129076	0.273768	0.981368	-13.7625	-15.6255	4.3065	0	88	1028	1
2026-02-12	16:48:32.390	6.195	-20.335	-23.975	0.137616	0.261812	0.996496	-13.7805	-15.6375	4.3125	0	88	1028	1
2026-02-12	16:48:32.410	9.695	-16.59	-25.9	0.129808	0.215452	0.980392	-13.7925	-15.6555	4.3215	0	88	1025	1
2026-02-12	16:48:32.430	11.235	-14.245	-25.48	0.1098	0.179096	0.949648	-13.782	-15.6465	4.3095	0	88	1025	1
2026-02-12	16:48:32.450	11.725	-14.385	-23.45	0.083936	0.177632	0.933788	-13.74	-15.609	4.2885	0	88	1025	1
2026-02-12	16:48:32.470	10.885	-14.175	-21.63	0.071736	0.1891	0.934764	-13.6845	-15.558	4.272	0	88	1025	1
2026-02-12	16:48:32.490	8.47	-13.195	-19.88	0.065148	0.176412	0.930616	-13.659	-15.534	4.2645	0	88	1025	1
2026-02-12	16:48:32.510	5.46	-12.145	-17.955	0.065392	0.180804	0.946964	-13.6665	-15.54	4.275	0	88	1025	1
2026-02-12	16:48:32.530	2.625	-11.13	-15.575	0.062952	0.17568	0.981612	-13.707	-15.5715	4.2885	0	88	1025	1
2026-02-12	16:48:32.550	-0.28	-10.185	-12.18	0.059292	0.182024	0.99796	-13.7475	-15.6225	4.2915	0	88	1025	1
2026-02-12	16:48:32.570	-2.905	-9.94	-8.82	0.051972	0.18544	1.007232	-13.755	-15.645	4.3005	0	88	1025	1
2026-02-12	16:48:32.590	-3.22	-8.68	-7.175	0.041968	0.181536	1.013088	-13.7565	-15.6435	4.302	0	88	1025	1
2026-02-12	16:48:32.610	-1.925	-7.175	-6.3	0.029768	0.172264	1.0309	-13.761	-15.648	4.2945	0	89	1018	1
2026-02-12	16:48:32.630	0.245	-4.34	-5.18	0.022204	0.164212	1.04432	-13.7835	-15.6585	4.2885	0	89	1018	1
2026-02-12	16:48:32.650	1.89	-0.21	-3.325	0.02928	0.178364	1.06506	-13.824	-15.6885	4.275	0	89	1018	1
2026-02-12	16:48:32.670	1.715	0.91	-1.085	0.028304	0.171776	1.078236	-13.8405	-15.711	4.2435	0	89	1018	1
2026-02-12	16:48:32.690	2.45	1.225	0.98	0.018544	0.174216	1.083848	-13.836	-15.7035	4.2225	0	89	1018	1
2026-02-12	16:48:32.710	4.305	3.255	2.1	0.020496	0.180804	1.09922	-13.821	-15.696	4.215	0	89	1018	1
2026-02-12	16:48:32.730	4.34	5.565	2.835	0.026352	0.173484	1.09312	-13.818	-15.687	4.2045	0	89	1018	1
2026-02-12	16:48:32.750	4.06	7.175	3.815	0.02562	0.163968	1.081896	-13.8015	-15.669	4.1985	0	89	1018	1
2026-02-12	16:48:32.770	3.395	7.07	5.705	0.042456	0.159332	1.079456	-13.7775	-15.651	4.191	0	89	1018	1
2026-02-12	16:48:32.790	1.61	6.265	8.05	0.058316	0.16958	1.110444	-13.782	-15.6555	4.1775	0	89	1018	1
2026-02-12	16:48:32.810	-1.05	5.565	10.36	0.078324	0.2074	1.132404	-13.7715	-15.654	4.17	0	88	1020	1
2026-02-12	16:48:32.830	-2.975	6.02	11.375	0.09272	0.204228	1.110932	-13.77	-15.648	4.158	0	88	1020	1
2026-02-12	16:48:32.850	-4.13	5.88	12.39	0.106872	0.1891	1.06506	-13.7655	-15.639	4.14	0	88	1020	1
2026-02-12	16:48:32.870	-3.815	3.78	13.44	0.119804	0.193736	1.053836	-13.7475	-15.6195	4.1235	0	88	1020	1
2026-02-12	16:48:32.890	-2.555	3.045	13.195	0.152988	0.220332	1.047736	-13.7205	-15.5895	4.119	0	88	1020	1
2026-02-12	16:48:32.910	-2.065	5.53	12.215	0.159576	0.185684	1.021384	-13.707	-15.585	4.128	0	88	1020	1
2026-02-12	16:48:32.930	-2.8	7.28	12.495	0.170068	0.172264	0.989664	-13.7475	-15.6225	4.14	0	88	1020	1
2026-02-12	16:48:32.950	-3.745	7.21	13.965	0.165432	0.189344	0.969656	-13.761	-15.642	4.1505	0	88	1020	1
2026-02-12	16:48:32.970	-3.43	7.665	14.07	0.152744	0.20496	0.958676	-13.755	-15.6465	4.1535	0	88	1020	1
2026-02-12	16:48:32.990	-2.87	9.905	12.215	0.162992	0.20496	0.941352	-13.7535	-15.6495	4.152	0	88	1020	1
2026-02-12	16:48:33.010	-1.855	10.78	9.345	0.155184	0.204228	0.92476	-13.7475	-15.648	4.1475	0	88	1029	1
2026-02-12	16:48:33.030	0.315	10.15	7.14	0.151768	0.190564	0.914268	-13.761	-15.6585	4.1475	0	88	1029	1
2026-02-12	16:48:33.050	1.225	8.295	6.51	0.149084	0.1647	0.904752	-13.782	-15.675	4.158	0	88	1029	1
2026-02-12	16:48:33.070	0.525	5.285	7.455	0.146156	0.160308	0.89792	-13.8195	-15.702	4.1685	0	88	1029	1
2026-02-12	16:48:33.090	0.98	2.135	8.085	0.13908	0.172996	0.895236	-13.8405	-15.7245	4.17	0	88	1029	1
2026-02-12	16:48:33.110	3.29	-0.42	7.735	0.125904	0.161528	0.885964	-13.839	-15.732	4.1685	0	88	1029	1
2026-02-12	16:48:33.130	6.265	-3.99	7.315	0.107848	0.129808	0.887916	-13.839	-15.732	4.1685	0	88	1029	1
2026-02-12	16:48:33.150	8.435	-7	6.65	0.09516	0.12444	0.934276	-13.839	-15.732	4.1685	0	88	1029	1
2026-02-12	16:48:33.170	8.295	-7.28	6.545	0.084424	0.133712	0.942328	-13.839	-15.732	4.1685	0	88	1029	1
2026-02-12	16:48:33.190	7.175	-7.63	6.44	0.07076	0.133224	0.915976	-13.905	-15.798	4.248	0	88	1029	1
2026-02-12	16:48:33.210	7.805	-8.54	4.935	0.060024	0.118584	0.900848	-13.854	-15.774	4.233	0	88	1026	1
2026-02-12	16:48:33.230	8.82	-9.135	3.045	0.04636	0.11224	0.918172	-13.8345	-15.7395	4.269	0	88	1026	1
2026-02-12	16:48:33.250	8.505	-10.115	2.03	0.04392	0.116632	0.941596	-13.794	-15.717	4.2765	0	88	1026	1
2026-02-12	16:48:33.270	7.42	-10.43	1.645	0.046848	0.131272	0.956968	-13.8555	-15.7395	4.296	0	88	1026	1
2026-02-12	16:48:33.290	6.545	-9.94	1.785	0.049288	0.118584	0.960384	-13.8555	-15.75	4.2855	0	88	1026	1
2026-02-12	16:48:33.310	5.81	-9.03	2.205	0.040992	0.09882	0.963312	-13.8915	-15.78	4.293	0	88	1026	1
2026-02-12	16:48:33.330	5.985	-8.68	2.765	0.040504	0.116632	0.98332	-13.899	-15.789	4.287	0	88	1026	1
2026-02-12	16:48:33.350	7.49	-6.965	2.38	0.04026	0.127856	1.009184	-13.899	-15.789	4.287	0	88	1026	1
2026-02-12	16:48:33.370	7.595	-4.445	2.45	0.027816	0.107604	1.01992	-13.869	-15.7575	4.284	0	88	1026	1
2026-02-12	16:48:33.390	7.14	-2.17	3.08	0.027816	0.105164	1.023824	-13.8405	-15.7275	4.2825	0	88	1026	1
2026-02-12	16:48:33.410	6.37	-0.805	3.92	0.021716	0.114192	1.040172	-13.836	-15.7245	4.278	0	88	1015	1
2026-02-12	16:48:33.430	6.23	0.595	4.445	0.013664	0.130784	1.053104	-13.8285	-15.7215	4.269	0	88	1015	1
2026-02-12	16:48:33.450	6.755	3.08	4.235	0.007564	0.13908	1.065792	-13.809	-15.7035	4.2675	0	88	1015	1
2026-02-12	16:48:33.470	6.65	5.985	3.605	0.00366	0.141764	1.1102	-13.7955	-15.693	4.263	0	88	1015	1
2026-02-12	16:48:33.490	5.39	8.645	3.325	0.0122	0.177876	1.134356	-13.8165	-15.7095	4.2315	0	88	1015	1
2026-02-12	16:48:33.510	1.05	8.54	2.275	0.010492	0.195932	1.133136	-13.857	-15.711	4.173	0	88	1015	1
2026-02-12	16:48:33.530	0.35	9.24	0	0.014152	0.205936	1.135332	-13.8435	-15.681	4.137	0	88	1015	1
2026-02-12	16:48:33.550	0.42	13.195	-3.465	0.017812	0.203984	1.134356	-13.764	-15.6225	4.131	0	88	1015	1
2026-02-12	16:48:33.570	-0.21	17.885	-6.965	0.018788	0.189344	1.113616	-13.6905	-15.558	4.1175	0	88	1015	1
2026-02-12	16:48:33.590	-1.4	18.2	-8.61	0.01952	0.199348	1.09434	-13.6965	-15.546	4.1025	0	88	1015	1
2026-02-12	16:48:33.610	-1.505	14.84	-8.575	0.024156	0.222528	1.106784	-13.77	-15.5955	4.11	0	88	1018	1
2026-02-12	16:48:33.630	-1.75	12.32	-7.49	0.049288	0.236192	1.120448	-13.8315	-15.6555	4.119	0	88	1018	1
2026-02-12	16:48:33.650	-4.48	7.525	-4.725	0.065148	0.248392	1.0919	-13.851	-15.69	4.1025	0	88	1018	1
2026-02-12	16:48:33.670	-5.635	2.415	-3.36	0.062952	0.255956	1.046272	-13.8435	-15.693	4.0815	0	88	1018	1
2026-02-12	16:48:33.690	-1.54	0	-6.58	0.072956	0.274256	1.00894	-13.7985	-15.654	4.083	0	88	1018	1
2026-02-12	16:48:33.710	3.815	1.925	-14.98	0.086132	0.272548	1.011868	-13.7535	-15.6	4.101	0	88	1018	1
2026-02-12	16:48:33.730	5.005	9.275	-23.975	0.10126	0.259128	0.996252	-13.761	-15.6	4.1235	0	88	1018	1
2026-02-12	16:48:33.750	2.45	15.225	-29.12	0.120048	0.224968	0.948184	-13.767	-15.615	4.146	0	88	1018	1
2026-02-12	16:48:33.770	-0.665	16.555	-29.61	0.114192	0.208376	0.885964	-13.7385	-15.5955	4.164	0	88	1018	1
2026-02-12	16:48:33.790	-1.26	12.775	-26.81	0.09467199	0.218868	0.874984	-13.7115	-15.5775	4.1715	0	88	1018	1
2026-02-12	16:48:33.810	-1.645	4.165	-22.015	0.0915	0.231068	0.889136	-13.713	-15.5865	4.173	0	88	1028	1
2026-02-12	16:48:33.830	-1.785	-2.87	-18.795	0.099308	0.255224	0.911096	-13.734	-15.6105	4.185	0	88	1028	1
2026-02-12	16:48:33.850	-1.4	-5.775	-18.76	0.093208	0.244732	0.917684	-13.776	-15.645	4.2	0	88	1028	1
2026-02-12	16:48:33.870	-0.56	-6.44	-19.95	0.090036	0.236436	0.916464	-13.8	-15.6615	4.2045	0	88	1028	1
2026-02-12	16:48:33.890	0.385	-6.755	-21.315	0.070028	0.205448	0.912072	-13.8	-15.66	4.2045	0	88	1028	1
2026-02-12	16:48:33.910	0.77	-7.455	-21.42	0.05978	0.157136	0.911828	-13.7865	-15.6495	4.206	0	88	1028	1
2026-02-12	16:48:33.930	0.49	-8.155	-20.125	0.043432	0.14884	0.928176	-13.7625	-15.636	4.203	0	88	1028	1
2026-02-12	16:48:33.950	-0.385	-8.015	-18.725	0.04148	0.144692	0.952088	-13.7865	-15.6495	4.2075	0	88	1028	1
2026-02-12	16:48:33.970	-4.165	-6.615	-16.52	0.031476	0.142496	0.95648	-13.821	-15.6735	4.2165	0	88	1028	1
2026-02-12	16:48:33.990	-8.82	-7.77	-12.775	0.01586	0.15128	0.930128	-13.8015	-15.663	4.212	0	88	1028	1
2026-02-12	16:48:34.010	-9.135	-9.485	-10.045	0.011224	0.172264	0.94062	-13.7835	-15.645	4.2135	0	90	1026	1
2026-02-12	16:48:34.030	-8.05	-7.56	-9.59	0.009272	0.164944	0.974536	-13.779	-15.633	4.224	0	90	1026	1
2026-02-12	16:48:34.050	-8.54	-4.48	-8.645	0.005124	0.14396	1.004548	-13.794	-15.6375	4.2315	0	90	1026	1
2026-02-12	16:48:34.070	-9.135	-1.925	-5.67	0.003416	0.129076	1.010404	-13.8285	-15.663	4.239	0	90	1026	1
2026-02-12	16:48:34.090	-7.21	1.05	-2.975	-0.001952	0.099552	0.99552	-13.857	-15.6795	4.2435	0	90	1026	1
2026-02-12	16:48:34.110	-3.15	3.78	-1.645	0.00488	0.108336	1.02358	-13.875	-15.699	4.2495	0	90	1026	1
2026-02-12	16:48:34.130	-1.96	6.125	-0.245	0.00244	0.104432	1.0675	-13.884	-15.72	4.2615	0	90	1026	1
2026-02-12	16:48:34.150	-3.045	6.3	3.36	-0.001952	0.0915	1.079944	-13.911	-15.7395	4.2555	0	90	1026	1
2026-02-12	16:48:34.170	-4.69	4.76	7.28	-0.00488	0.082716	1.088972	-13.9275	-15.7425	4.236	0	90	1026	1
2026-02-12	16:48:34.190	-4.865	5.46	10.255	0.009028	0.093452	1.093852	-13.893	-15.705	4.2165	0	90	1026	1
2026-02-12	16:48:34.210	-4.585	6.09	11.55	0.015128	0.101016	1.111176	-13.8435	-15.66	4.188	0	91	1021	1
2026-02-12	16:48:34.230	-5.425	8.05	12.39	0.039772	0.091012	1.15534	-13.806	-15.615	4.167	0	91	1021	1
2026-02-12	16:48:34.250	-9.625	11.655	15.47	0.04148	0.074176	1.106052	-13.776	-15.579	4.149	0	91	1021	1
2026-02-12	16:48:34.270	-13.86	10.535	21.98	0.033428	0.075884	1.134112	-13.764	-15.5685	4.1085	0	91	1021	1
2026-02-12	16:48:34.290	-15.89	8.365	27.965	0.010736	0.08052	1.134356	-13.761	-15.555	4.074	0	91	1021	1
2026-02-12	16:48:34.310	-15.155	10.885	30.625	0.018056	0.095404	1.120204	-13.7775	-15.558	4.0725	0	91	1021	1
2026-02-12	16:48:34.330	-12.11	12.6	29.715	0.04026	0.125172	1.091412	-13.8195	-15.603	4.095	0	91	1021	1
2026-02-12	16:48:34.350	-8.995	12.18	27.23	0.066612	0.128588	1.061888	-13.893	-15.6885	4.1235	0	91	1021	1
2026-02-12	16:48:34.370	-8.4	8.295	26.88	0.088572	0.116632	1.029924	-13.9995	-15.786	4.1475	0	91	1021	1
2026-02-12	16:48:34.390	-7.035	4.655	27.93	0.10614	0.109068	0.997228	-14.0685	-15.8445	4.1625	0	91	1021	1
2026-02-12	16:48:34.410	-3.71	1.015	30.205	0.111264	0.124684	1.002352	-14.082	-15.8595	4.1655	0	92	1028	1
2026-02-12	16:48:34.430	0.28	-1.54	29.75	0.09882	0.150548	0.941352	-14.082	-15.8595	4.1655	0	92	1028	1
2026-02-12	16:48:34.450	3.255	5.705	25.48	0.122	0.158844	0.985028	-13.8945	-15.7035	4.1895	0	92	1028	1
2026-02-12	16:48:34.470	5.88	15.61	20.58	0.143228	0.107848	0.85522	-13.8945	-15.7035	4.1895	0	92	1028	1
2026-02-12	16:48:34.490	7.07	18.585	18.48	0.148108	0.058072	0.822036	-13.665	-15.4845	4.248	0	92	1028	1
2026-02-12	16:48:34.510	7.77	16.31	19.495	0.141276	0.038064	0.823012	-13.647	-15.492	4.2585	0	92	1028	1
2026-02-12	16:48:34.530	6.3	6.965	23.625	0.101016	0.044896	0.880352	-13.689	-15.564	4.2855	0	92	1028	1
2026-02-12	16:48:34.550	2.38	-1.785	28.245	0.057828	0.034648	0.917196	-13.824	-15.6885	4.329	0	92	1028	1
2026-02-12	16:48:34.570	-1.19	-6.475	31.675	0.026352	0.040016	0.9333	-13.9305	-15.801	4.371	0	92	1028	1
2026-02-12	16:48:34.590	-3.185	-12.635	33.67	0.01098	0.043432	0.924272	-13.986	-15.8355	4.392	0	92	1028	1
2026-02-12	16:48:34.610	0.35	-16.66	32.095	-0.009028	0.044164	0.91988	-13.974	-15.822	4.38	0	94	1029	1
2026-02-12	16:48:34.630	6.825	-16.87	28.63	-0.018544	0.049044	0.946476	-13.9365	-15.807	4.371	0	94	1029	1
2026-02-12	16:48:34.650	11.76	-14.07	26.145	0.004148	0.05002	0.96014	-13.932	-15.777	4.3785	0	94	1029	1
2026-02-12	16:48:34.670	12.985	-10.535	25.095	0.011468	0.036112	0.960628	-13.932	-15.777	4.3785	0	94	1029	1
2026-02-12	16:48:34.690	11.48	-8.4	24.64	-0.00366	0.028304	0.94306	-13.932	-15.777	4.3785	0	94	1029	1
2026-02-12	16:48:34.710	9.73	-7.98	24.535	-0.01708	0.033672	0.941108	-13.932	-15.777	4.3785	0	94	1029	1
2026-02-12	16:48:34.730	9.485	-6.475	24.15	-0.030744	0.035136	0.952332	-13.857	-15.6945	4.371	0	94	1029	1
2026-02-12	16:48:34.750	8.855	-6.335	24.535	-0.035136	0.031476	0.970632	-13.779	-15.612	4.3635	0	94	1029	1
2026-02-12	16:48:34.770	7.735	-6.3	25.13	-0.038308	0.069052	0.999424	-13.7955	-15.6225	4.3665	0	94	1029	1
2026-02-12	16:48:34.790	6.44	-4.83	24.605	-0.039284	0.0976	1.0431	-13.8645	-15.669	4.38	0	94	1029	1
2026-02-12	16:48:34.810	4.585	0.49	22.295	-0.061244	0.101016	1.058716	-13.9065	-15.702	4.383	0	95	1020	1
2026-02-12	16:48:34.830	3.5	5.81	18.97	-0.067832	0.08686399	1.046272	-13.878	-15.681	4.362	0	95	1020	1
2026-02-12	16:48:34.850	3.605	9.205	15.575	-0.062464	0.088328	1.044808	-13.833	-15.642	4.3395	0	95	1020	1
2026-02-12	16:48:34.870	3.465	9.135	12.53	-0.035868	0.125172	1.083604	-13.803	-15.615	4.32	0	95	1020	1
2026-02-12	16:48:34.890	1.33	9.94	9.485	-0.033184	0.1403	1.114592	-13.791	-15.603	4.293	0	95	1020	1
2026-02-12	16:48:34.910	-1.47	12.285	7	-0.02318	0.136152	1.11386	-13.7595	-15.57	4.2495	0	95	1020	1
2026-02-12	16:48:34.930	-2.695	12.11	4.235	-0.012444	0.107848	1.110444	-13.7145	-15.5265	4.2075	0	95	1020	1
2026-02-12	16:48:34.950	-3.605	12.355	1.33	-0.009272	0.108336	1.115812	-13.6875	-15.504	4.1865	0	95	1020	1
2026-02-12	16:48:34.970	-5.18	13.51	-0.28	0.004148	0.112972	1.115568	-13.6905	-15.501	4.1835	0	95	1020	1
2026-02-12	16:48:34.990	-5.88	12.25	-1.47	-0.005124	0.141032	1.110444	-13.728	-15.5355	4.1925	0	95	1020	1
2026-02-12	16:48:35.010	-5.355	10.92	-3.29	-0.022936	0.17934	1.109712	-13.782	-15.588	4.218	0	97	1021	1
2026-02-12	16:48:35.030	-4.41	9.1	-5.11	-0.017568	0.196176	1.095316	-13.821	-15.627	4.2315	0	97	1021	1
2026-02-12	16:48:35.050	-3.01	4.13	-6.685	-0.006832	0.215208	1.04798	-13.8435	-15.651	4.215	0	97	1021	1
2026-02-12	16:48:35.070	-0.175	-1.05	-8.645	0.001708	0.238876	1.033828	-13.8465	-15.6495	4.203	0	97	1021	1
