yyyy-MM-dd	HH:mm:ss.fff	gyrX	gyrY	gyrZ	accX	accY	accZ	magX	magY	magZ	Marker	Energy	Angle	Classification
2026-02-12	16:47:50.210	-378.105	-68.11	-402.325	2.688636	-0.996008	0.029524	0.0405	0.5025	-0.123	0	1131	262	5
2026-02-12	16:47:50.230	-373.065	-23.205	-363.615	2.287012	-0.95526	0.233996	0.045	0.453	-0.1185	0	1131	262	5
2026-02-12	16:47:50.250	-321.755	4.165	-313.95	1.9398	-0.898164	0.376736	0.0495	0.4335	-0.1155	0	1131	262	5
2026-02-12	16:47:50.270	-262.045	20.685	-267.47	1.658712	-0.846436	0.258396	0.087	0.375	-0.15	0	1131	262	5
2026-02-12	16:47:50.290	-172.375	17.01	-218.785	1.483764	-0.740784	0.099308	0.111	0.363	-0.1725	0	1131	262	5
2026-02-12	16:47:50.310	-82.6	4.585	-176.785	1.346148	-0.67466	0.099064	0.1335	0.351	-0.1875	0	1131	262	5
2026-02-12	16:47:50.330	-28.77	-6.37	-140.63	1.241472	-0.627812	0.136152	0.1365	0.336	-0.189	0	1131	262	5
2026-02-12	16:47:50.350	-9.73	-9.485	-113.19	1.099464	-0.621956	0.121512	0.153	0.3255	-0.1845	0	1131	262	5
2026-02-12	16:47:50.370	-17.185	-8.295	-86.765	0.989908	-0.626592	0.130784	0.1635	0.3075	-0.1935	0	1131	262	5
2026-02-12	16:47:50.390	-35.35	-3.71	-67.55	0.867176	-0.640012	0.139812	0.168	0.3045	-0.192	0	1131	262	5
2026-02-12	16:47:50.410	-53.305	2.03	-54.425	0.754936	-0.67466	0.112484	0.1755	0.3	-0.198	0	1103	244	5
2026-02-12	16:47:50.430	-54.46	5.075	-45.57	0.68808	-0.703208	0.11346	0.18	0.3	-0.2025	0	1103	244	5
2026-02-12	16:47:50.450	-37.765	3.85	-32.62	0.644648	-0.679052	0.099308	0.1815	0.3015	-0.2025	0	1103	244	5
2026-02-12	16:47:50.470	-21.105	-0.595	-17.36	0.67344	-0.67832	0.060756	0.1905	0.291	-0.21	0	1103	244	5
2026-02-12	16:47:50.490	4.305	-7.735	0.14	0.754204	-0.700524	0.07076	0.1935	0.3045	-0.2175	0	1103	244	5
2026-02-12	16:47:50.510	31.43	-16.905	21.385	0.84058	-0.646844	0.11102	0.1935	0.3	-0.219	0	1103	244	5
2026-02-12	16:47:50.530	51.485	-25.305	46.97	0.909632	-0.602924	0.15616	0.189	0.3	-0.2055	0	1103	244	5
2026-02-12	16:47:50.550	68.775	-33.11	75.425	0.952332	-0.543632	0.193736	0.192	0.306	-0.198	0	1103	244	5
2026-02-12	16:47:50.570	83.195	-38.29	105.665	1.016748	-0.460428	0.26352	0.168	0.3075	-0.192	0	1103	244	5
2026-02-12	16:47:50.590	79.59	-38.99	136.255	1.094096	-0.362096	0.339892	0.1605	0.3075	-0.1845	0	1103	244	5
2026-02-12	16:47:50.610	55.3	-36.82	167.72	1.179984	-0.331108	0.372832	0.15	0.318	-0.1755	0	1064	228	5
2026-02-12	16:47:50.630	21.525	-32.69	202.44	1.373476	-0.357216	0.425536	0.1395	0.3285	-0.168	0	1064	228	5
2026-02-12	16:47:50.650	2.555	-31.045	231.14	1.627236	-0.383324	0.36722	0.1395	0.3285	-0.168	0	1064	228	5
2026-02-12	16:47:50.670	-22.54	-22.68	259.49	1.73484	-0.295972	0.411384	0.087	0.387	-0.1545	0	1064	228	5
2026-02-12	16:47:50.690	-22.89	-17.36	278.95	1.7385	-0.573888	0.220332	0.075	0.4185	-0.147	0	1064	228	5
2026-02-12	16:47:50.710	18.62	-19.635	290.605	1.758996	-0.546316	0.328424	0.0555	0.45	-0.1485	0	1064	228	5
2026-02-12	16:47:50.730	81.13	-19.18	298.62	1.797548	-1.0553	0.2684	0.0405	0.4935	-0.141	0	1064	228	5
2026-02-12	16:47:50.750	268.345	-16.065	305.655	2.029592	-1.753872	0.000732	0.0435	0.534	-0.1485	0	1064	228	5
2026-02-12	16:47:50.770	557.375	-32.69	280.665	1.921012	1.782908	0.111996	0.0255	0.5505	-0.129	0	1064	228	5
2026-02-12	16:47:50.790	470.05	37.31	228.34	1.029436	1.543788	0.1952	0.018	0.5535	-0.141	0	1064	228	5
2026-02-12	16:47:50.810	190.925	51.905	174.58	1.220732	0.118584	0.23424	0.0315	0.567	-0.1575	0	1017	225	5
2026-02-12	16:47:50.830	43.75	61.985	167.475	1.086044	-0.146644	0.430172	0.0315	0.567	-0.1575	0	1017	225	5
2026-02-12	16:47:50.850	-57.855	68.67	154.14	1.049932	-0.280844	0.48556	0.0315	0.567	-0.1575	0	1017	225	5
2026-02-12	16:47:50.870	-134.435	72.625	137.375	1.002108	-0.286212	0.427732	0.057	0.6285	-0.1845	0	1017	225	5
2026-02-12	16:47:50.890	-177.555	70.84	120.68	0.837896	-0.25132	0.290604	0.0735	0.6615	-0.18	0	1017	225	5
2026-02-12	16:47:50.910	-183.855	65.835	101.325	0.794464	-0.3904	0.126636	0.084	0.6885	-0.18	0	1017	225	5
2026-02-12	16:47:50.930	-148.68	57.715	87.57	0.70882	-0.355752	0.021716	0.1005	0.7095	-0.18	0	1017	225	5
2026-02-12	16:47:50.950	-93.135	50.47	71.75	0.63684	-0.367708	-0.040504	0.1065	0.7455	-0.174	0	1017	225	5
2026-02-12	16:47:50.970	-39.69	42.21	55.3	0.650992	-0.3416	-0.041236	0.117	0.762	-0.171	0	1017	225	5
2026-02-12	16:47:50.990	3.745	33.67	43.155	0.6466	-0.30256	-0.017812	0.117	0.759	-0.1755	0	1017	225	5
2026-02-12	16:47:51.010	22.575	26.18	26.005	0.625128	-0.318908	0.017324	0.1155	0.777	-0.174	0	971	226	5
2026-02-12	16:47:51.030	29.155	14.07	-4.445	0.59292	-0.315736	0.060512	0.1155	0.777	-0.174	0	971	226	5
2026-02-12	16:47:51.050	30.17	4.69	-23.345	0.616588	-0.324764	0.116876	0.1275	0.768	-0.1935	0	971	226	5
2026-02-12	16:47:51.070	26.39	-5.25	-43.05	0.662216	-0.33062	0.16836	0.129	0.7635	-0.1875	0	971	226	5
2026-02-12	16:47:51.090	14.875	-13.93	-59.885	0.708088	-0.33672	0.184952	0.1245	0.759	-0.1815	0	971	226	5
2026-02-12	16:47:51.110	2.345	-19.145	-73.255	0.686616	-0.369416	0.1586	0.1215	0.75	-0.1875	0	971	226	5
2026-02-12	16:47:51.130	-1.365	-27.44	-86.555	0.711504	-0.388204	0.12566	0.1155	0.7455	-0.186	0	971	226	5
2026-02-12	16:47:51.150	2.24	-37.485	-98.35	0.743468	-0.393328	0.12078	0.102	0.7275	-0.1905	0	971	226	5
2026-02-12	16:47:51.170	11.655	-47.565	-108.465	0.768356	-0.396256	0.09638	0.0915	0.72	-0.1905	0	971	226	5
2026-02-12	16:47:51.190	20.265	-58.17	-121.835	0.81984	-0.399428	0.125904	0.093	0.7065	-0.18	0	971	226	5
2026-02-12	16:47:49.210	-116.165	17.045	-9.765	0.345748	-1.0126	0.565104	0.3165	0.183	-0.135	0	1084	301	5
2026-02-12	16:47:49.230	-79.8	18.27	19.495	0.386008	-0.976976	0.48434	0.318	0.1875	-0.15	0	1084	301	5
2026-02-12	16:47:49.250	-32.795	20.72	59.15	0.458964	-0.908168	0.386984	0.312	0.192	-0.156	0	1084	301	5
2026-02-12	16:47:49.270	8.68	22.26	94.85	0.57462	-0.840824	0.310612	0.312	0.192	-0.156	0	1084	301	5
2026-02-12	16:47:49.290	42.385	23.45	122.01	0.707112	-0.775432	0.286944	0.294	0.2055	-0.171	0	1084	301	5
2026-02-12	16:47:49.310	69.44	25.41	146.3	0.864492	-0.684908	0.272304	0.2805	0.213	-0.1635	0	1084	301	5
2026-02-12	16:47:49.330	84.77	27.65	167.79	1.086532	-0.645868	0.253272	0.2745	0.216	-0.1575	0	1084	301	5
2026-02-12	16:47:49.350	95.97	31.29	185.57	1.316624	-0.604632	0.293288	0.2595	0.222	-0.1485	0	1084	301	5
2026-02-12	16:47:49.370	100.24	37.73	202.895	1.601616	-0.596336	0.294508	0.234	0.234	-0.147	0	1084	301	5
2026-02-12	16:47:49.390	110.705	45.535	219.94	1.962736	-0.61366	0.292068	0.207	0.2445	-0.138	0	1084	301	5
2026-02-12	16:47:49.410	123.48	56.035	239.505	2.228452	-0.574132	0.277672	0.186	0.252	-0.126	0	1130	377	5
2026-02-12	16:47:49.430	119.21	70.21	261.03	2.467084	-0.487756	0.271084	0.1605	0.27	-0.12	0	1130	377	5
2026-02-12	16:47:49.450	99.085	89.705	297.36	2.6779	-0.442616	0.188368	0.144	0.282	-0.117	0	1130	377	5
2026-02-12	16:47:49.470	96.775	96.425	318.5	2.819908	-0.3904	0.120292	0.144	0.282	-0.117	0	1130	377	5
2026-02-12	16:47:49.490	105.63	102.445	332.78	2.933612	-0.357704	0.105652	0.0735	0.372	-0.1245	0	1130	377	5
2026-02-12	16:47:49.510	115.64	111.055	343.14	2.998516	-0.277428	0.103944	0.06	0.4095	-0.1305	0	1130	377	5
2026-02-12	16:47:49.530	117.46	120.47	355.775	2.857484	-0.226188	0.177876	0.0555	0.441	-0.15	0	1130	377	5
2026-02-12	16:47:49.550	97.51	134.61	365.155	2.714744	-0.13786	0.269864	0.054	0.468	-0.1485	0	1130	377	5
2026-02-12	16:47:49.570	62.37	143.64	378.91	2.555656	-0.177388	0.303048	0.0555	0.513	-0.15	0	1130	377	5
2026-02-12	16:47:49.590	44.485	142.38	385.105	2.388028	-0.327204	0.14518	0.063	0.561	-0.1665	0	1130	377	5
2026-02-12	16:48:13.610	-51.695	-28.84	-47.285	-0.434808	-0.74298	-0.114436	0.6585	0.879	0.231	0	465	88	3
2026-02-12	16:48:13.630	-48.545	-19.88	-49.105	-0.436028	-0.85034	-0.123952	0.6555	0.882	0.2325	0	465	88	3
2026-02-12	16:48:13.650	-41.545	-12.67	-47.95	-0.429928	-0.952576	-0.141276	0.651	0.8805	0.2355	0	465	88	3
2026-02-12	16:48:13.670	-26.25	-6.86	-46.55	-0.411628	-0.97844	-0.184952	0.6435	0.882	0.237	0	465	88	3
2026-02-12	16:48:13.690	-15.96	-0.49	-45.5	-0.40382	-1.029192	-0.25376	0.636	0.8805	0.24	0	465	88	3
2026-02-12	16:48:13.710	-12.18	3.045	-42.7	-0.419924	-1.15412	-0.314516	0.63	0.8805	0.249	0	465	88	3
2026-02-12	16:48:13.730	-5.11	14.875	-40.32	-0.366244	-1.3359	-0.528016	0.63	0.8805	0.249	0	465	88	3
2026-02-12	16:48:13.750	-12.04	20.86	-36.085	-0.261568	-1.304668	-0.590236	0.6285	0.8835	0.246	0	465	88	3
2026-02-12	16:48:13.770	-30.8	14.665	-30.87	-0.13054	-1.323212	-0.569496	0.618	0.891	0.252	0	465	88	3
2026-02-12	16:48:13.790	-56.525	5.425	-20.3	-0.079544	-1.610156	-0.44652	0.612	0.891	0.2625	0	465	88	3
2026-02-12	16:48:13.810	-40.53	-2.24	-10.465	-0.018544	-1.642364	-0.333548	0.612	0.8805	0.2595	0	451	107	3
2026-02-12	16:48:13.830	-2.24	-7.77	0.28	-0.01708	-1.52378	-0.352824	0.603	0.876	0.264	0	451	107	3
2026-02-12	16:48:13.850	41.685	-19.32	6.3	-0.006832	-1.144848	-0.343796	0.6075	0.879	0.264	0	451	107	3
2026-02-12	16:48:13.870	60.27	-28.525	9.17	-0.010736	-0.948916	-0.277672	0.612	0.876	0.258	0	451	107	3
2026-02-12	16:48:13.890	63.385	-31.955	10.22	-0.009028	-0.779824	-0.205692	0.6075	0.8865	0.249	0	451	107	3
2026-02-12	16:48:13.910	53.13	-31.99	11.585	-0.046116	-0.742492	-0.205448	0.6105	0.891	0.2415	0	451	107	3
2026-02-12	16:48:13.930	42.805	-27.615	12.53	-0.058804	-0.823744	-0.255712	0.6225	0.891	0.2415	0	451	107	3
2026-02-12	16:48:13.950	50.4	-19.74	13.02	-0.048556	-0.809592	-0.23424	0.6225	0.891	0.2415	0	451	107	3
2026-02-12	16:48:13.970	54.775	-10.255	14.245	-0.047824	-0.834724	-0.201544	0.6225	0.9015	0.2205	0	451	107	3
2026-02-12	16:48:13.990	50.89	1.47	16.94	-0.070028	-0.83692	-0.153232	0.627	0.9015	0.21	0	451	107	3
2026-02-12	16:48:14.010	41.055	13.58	18.06	-0.101992	-0.864492	-0.149816	0.627	0.9075	0.213	0	432	146	3
2026-02-12	16:48:14.030	35.98	23.73	19.46	-0.130296	-0.899872	-0.153232	0.633	0.912	0.2025	0	432	146	3
2026-02-12	16:48:14.050	35.105	30.345	21.315	-0.162748	-0.926712	-0.127124	0.639	0.912	0.2025	0	432	146	3
2026-02-12	16:48:14.070	38.08	33.285	22.19	-0.172508	-0.912072	-0.046116	0.642	0.912	0.204	0	432	146	3
2026-02-12	16:48:14.090	38.5	35.35	20.125	-0.167872	-0.887672	0.01708	0.6315	0.9135	0.2025	0	432	146	3
2026-02-12	16:48:14.110	35.175	39.13	16.905	-0.158112	-0.86986	0.056608	0.6405	0.909	0.1935	0	432	146	3
2026-02-12	16:48:14.130	26.425	43.61	12.32	-0.193736	-0.865468	0.039284	0.642	0.9165	0.1875	0	432	146	3
2026-02-12	16:48:14.150	19.81	44.765	9.87	-0.222284	-0.9211	0.006832	0.639	0.921	0.186	0	432	146	3
2026-02-12	16:48:14.170	16.66	45.57	9.975	-0.255468	-0.92842	-0.003416	0.636	0.9165	0.1905	0	432	146	3
2026-02-12	16:48:14.190	15.785	46.2	10.045	-0.28304	-0.919392	0.007808	0.639	0.912	0.198	0	432	146	3
2026-02-12	16:48:14.210	15.05	46.13	10.045	-0.311832	-0.93452	0.014396	0.633	0.9045	0.192	0	411	163	3
2026-02-12	16:48:14.230	16.415	45.815	10.85	-0.312808	-0.927688	0.04148	0.636	0.912	0.198	0	411	163	3
2026-02-12	16:48:14.250	19.425	45.64	12.355	-0.326228	-0.92964	0.0671	0.63	0.921	0.195	0	411	163	3
2026-02-12	16:48:14.270	20.825	45.185	13.825	-0.330376	-0.905728	0.09028	0.6345	0.915	0.1905	0	411	163	3
2026-02-12	16:48:14.290	19.88	44.835	14.175	-0.35258	-0.882792	0.09516	0.633	0.9285	0.1935	0	411	163	3
2026-02-12	16:48:14.310	16.87	43.225	13.44	-0.365756	-0.873032	0.106384	0.624	0.9165	0.1935	0	411	163	3
2026-02-12	16:48:14.330	11.76	40.32	12.355	-0.382592	-0.897432	0.115656	0.627	0.921	0.1965	0	411	163	3
2026-02-12	16:48:14.350	7.315	34.125	11.095	-0.41236	-0.884012	0.122976	0.6195	0.918	0.1905	0	411	163	3
2026-02-12	16:48:14.370	4.2	29.575	9.975	-0.406992	-0.91256	0.116144	0.627	0.915	0.1935	0	411	163	3
2026-02-12	16:48:14.390	2.8	23.59	9.38	-0.393328	-0.91134	0.076616	0.63	0.924	0.1935	0	411	163	3
2026-02-12	16:48:14.410	-0.77	15.75	9.625	-0.386984	-0.927444	0.073688	0.6225	0.912	0.1935	0	389	139	2
2026-02-12	16:48:14.430	-0.49	6.3	11.76	-0.368684	-0.952576	0.114924	0.6225	0.915	0.1965	0	389	139	2
2026-02-12	16:48:14.450	2.31	-1.925	14.49	-0.361852	-0.943792	0.125416	0.627	0.918	0.1935	0	389	139	2
2026-02-12	16:48:14.470	5.46	-6.965	16.975	-0.36356	-0.944524	0.156648	0.6345	0.909	0.204	0	389	139	2
2026-02-12	16:48:14.490	6.545	-9.695	19.075	-0.405772	-0.930372	0.134444	0.636	0.918	0.198	0	389	139	2
2026-02-12	16:48:14.510	0.665	-9.765	18.27	-0.496784	-0.9638	0.003416	0.6375	0.918	0.189	0	389	139	2
2026-02-12	16:48:14.530	-14.28	-11.025	10.745	-0.60634	-0.992348	-0.135664	0.6255	0.9105	0.1965	0	389	139	2
2026-02-12	16:48:14.550	-38.99	-21.875	-3.85	-0.563396	-0.990884	-0.268156	0.636	0.912	0.1935	0	389	139	2
2026-02-12	16:48:14.570	-42.385	-31.08	-7.63	-0.582672	-0.911828	-0.29646	0.645	0.909	0.207	0	389	139	2
2026-02-12	16:48:14.590	-38.5	-38.465	-6.335	-0.618784	-0.782264	-0.29158	0.639	0.915	0.204	0	389	139	2
2026-02-12	16:48:14.610	-33.285	-40.11	-6.58	-0.685396	-0.670024	-0.216184	0.6375	0.9	0.213	0	366	99	3
2026-02-12	16:48:14.630	-33.635	-41.58	-9.38	-0.655872	-0.626836	-0.130296	0.639	0.9045	0.2055	0	366	99	3
2026-02-12	16:48:14.650	-44.275	-42	-12.495	-0.581208	-0.789096	-0.009028	0.6435	0.9015	0.2145	0	366	99	3
2026-02-12	16:48:14.670	-44.835	-38.955	-11.165	-0.490928	-0.928908	0.005612	0.639	0.8955	0.213	0	366	99	3
2026-02-12	16:48:14.690	-37.485	-33.6	-7.28	-0.475068	-0.975512	-0.087108	0.6495	0.9045	0.216	0	366	99	3
2026-02-12	16:48:14.710	-23.59	-30.66	-2.8	-0.493612	-0.889136	-0.170068	0.6465	0.9	0.216	0	366	99	3
2026-02-12	16:48:14.730	-13.405	-30.24	-0.665	-0.498248	-0.787876	-0.209108	0.645	0.8895	0.2235	0	366	99	3
2026-02-12	16:48:14.750	-11.935	-31.535	-3.64	-0.489708	-0.67466	-0.186416	0.648	0.888	0.219	0	366	99	3
2026-02-12	16:48:14.770	-17.64	-34.055	-11.2	-0.456768	-0.623176	-0.113216	0.654	0.891	0.222	0	366	99	3
2026-02-12	16:48:14.790	-26.915	-34.895	-18.235	-0.43676	-0.659044	-0.05002	0.6615	0.894	0.225	0	366	99	3
2026-02-12	16:48:14.810	-33.95	-33.425	-24.535	-0.425536	-0.730536	-0.029768	0.651	0.891	0.228	0	345	80	3
2026-02-12	16:48:14.830	-36.33	-30.03	-29.365	-0.439444	-0.780556	-0.0488	0.651	0.891	0.2235	0	345	80	3
2026-02-12	16:48:14.850	-34.195	-26.005	-32.13	-0.443348	-0.839604	-0.062464	0.6585	0.8925	0.2325	0	345	80	3
2026-02-12	16:48:14.870	-27.65	-21.245	-32.795	-0.434808	-0.921344	-0.037332	0.66	0.8805	0.225	0	345	80	3
2026-02-12	16:48:14.890	-16.975	-15.61	-32.935	-0.404552	-0.967216	-0.020984	0.6555	0.891	0.2295	0	345	80	3
2026-02-12	16:48:14.910	-5.6	-9.8	-33.11	-0.423096	-1.001864	-0.099064	0.6465	0.891	0.2355	0	345	80	3
2026-02-12	16:48:14.930	0.98	-6.335	-33.705	-0.450912	-1.059936	-0.199592	0.6435	0.8985	0.234	0	345	80	3
2026-02-12	16:48:14.950	3.255	-5.495	-34.265	-0.432368	-1.113616	-0.288896	0.6345	0.8865	0.24	0	345	80	3
2026-02-12	16:48:14.970	-14.91	-1.155	-30.8	-0.44774	-1.291492	-0.37698	0.6345	0.8865	0.24	0	345	80	3
2026-02-12	16:48:14.990	-32.235	3.71	-24.815	-0.342576	-1.599664	-0.462868	0.6345	0.8865	0.24	0	345	80	3
2026-02-12	16:48:15.010	-24.255	-0.63	-11.97	-0.225456	-1.708	-0.442372	0.63	0.894	0.231	0	326	84	3
2026-02-12	16:48:15.030	1.82	-6.3	1.575	-0.176168	-1.55306	-0.347944	0.624	0.8895	0.2355	0	326	84	3
2026-02-12	16:48:15.050	24.78	-6.65	8.33	-0.100772	-1.316624	-0.220088	0.6225	0.8955	0.237	0	326	84	3
2026-02-12	16:48:15.070	30.345	0.175	8.155	-0.07442	-1.121912	-0.14884	0.6255	0.8895	0.237	0	326	84	3
2026-02-12	16:48:15.090	35.665	-1.085	4.585	-0.072712	-0.97234	-0.1647	0.633	0.8955	0.24	0	326	84	3
2026-02-12	16:48:15.110	42.525	-5.425	1.015	-0.067588	-0.878156	-0.167872	0.6195	0.8925	0.231	0	326	84	3
2026-02-12	16:48:15.130	46.725	-5.6	0.98	-0.050996	-0.838872	-0.158844	0.6315	0.9	0.228	0	326	84	3
2026-02-12	16:48:15.150	49.175	-2.345	1.75	-0.041724	-0.744444	-0.16836	0.6255	0.9075	0.2235	0	326	84	3
2026-02-12	16:48:15.170	41.965	6.58	1.925	-0.0488	-0.727852	-0.16714	0.633	0.9135	0.2265	0	326	84	3
2026-02-12	16:48:15.190	38.115	12.88	2.345	-0.054656	-0.73566	-0.150548	0.636	0.9165	0.216	0	326	84	3
2026-02-12	16:48:15.210	34.65	20.44	2.765	-0.083692	-0.735904	-0.148108	0.6405	0.9195	0.207	0	314	109	3
2026-02-12	16:48:15.230	28.49	27.545	3.78	-0.116632	-0.746884	-0.161528	0.63	0.915	0.2085	0	314	109	3
2026-02-12	16:48:15.250	18.655	33.565	4.62	-0.151768	-0.776164	-0.161772	0.63	0.9135	0.2055	0	314	109	3
2026-02-12	16:48:15.270	8.365	37.135	5.32	-0.184464	-0.86376	-0.150792	0.63	0.9195	0.2055	0	314	109	3
2026-02-12	16:48:15.290	1.575	41.23	7.735	-0.216184	-0.916464	-0.109312	0.6225	0.924	0.213	0	314	109	3
2026-02-12	16:48:15.310	-1.785	45.01	11.515	-0.246196	-0.965508	-0.067832	0.6315	0.9165	0.2025	0	314	109	3
2026-02-12	16:48:15.330	-1.505	46.375	12.88	-0.262544	-0.976488	-0.02684	0.6255	0.915	0.201	0	314	109	3
2026-02-12	16:48:15.350	0.665	45.36	12.285	-0.271084	-0.98332	0.00976	0.621	0.918	0.2025	0	314	109	3
2026-02-12	16:48:15.370	3.745	42.77	11.935	-0.275476	-1.020652	0.042212	0.6285	0.9165	0.219	0	314	109	3
2026-02-12	16:48:15.390	11.62	39.235	12.565	-0.26718	-1.026508	0.045872	0.627	0.915	0.216	0	314	109	3
2026-02-12	16:48:15.410	18.165	36.82	13.44	-0.279624	-0.9821	0.014152	0.621	0.912	0.213	0	306	125	3
2026-02-12	16:48:15.430	21.07	34.545	13.23	-0.279868	-0.944768	-0.006588	0.618	0.9105	0.2145	0	306	125	3
2026-02-12	16:48:15.450	19.635	31.85	11.865	-0.273524	-0.909144	0.011224	0.6135	0.915	0.21	0	306	125	3
2026-02-12	16:48:15.470	14.63	30.8	10.01	-0.266692	-0.899628	0.044896	0.621	0.9075	0.222	0	306	125	3
2026-02-12	16:48:15.490	9.24	32.375	7.91	-0.266448	-0.90768	0.063196	0.621	0.9165	0.213	0	306	125	3
2026-02-12	16:48:15.510	5.635	34.685	5.46	-0.275964	-0.932568	0.060268	0.6165	0.912	0.2115	0	306	125	3
2026-02-12	16:48:15.530	4.2	35.665	3.29	-0.287432	-0.940864	0.049288	0.6075	0.9195	0.213	0	306	125	3
2026-02-12	16:48:15.550	3.885	35.175	1.785	-0.304024	-0.928908	0.045384	0.615	0.9105	0.219	0	306	125	3
2026-02-12	16:48:15.570	3.57	33.215	1.19	-0.328424	-0.917196	0.050752	0.6135	0.9135	0.2235	0	306	125	3
2026-02-12	16:48:15.590	3.5	28.665	0.98	-0.365512	-0.884744	0.07564	0.6135	0.9135	0.2235	0	306	125	3
2026-02-12	16:48:15.610	1.82	24.85	0.56	-0.389668	-0.858636	0.085156	0.609	0.912	0.219	0	298	112	3
2026-02-12	16:48:15.630	-2.66	20.3	0.525	-0.396988	-0.8967	0.085156	0.6045	0.915	0.219	0	298	112	3
2026-02-12	16:48:15.650	-4.025	14.525	2.03	-0.40138	-0.935984	0.082472	0.6045	0.9195	0.2235	0	298	112	3
2026-02-12	16:48:15.670	-0.84	8.12	5.635	-0.410408	-0.938912	0.08295999	0.5925	0.9135	0.219	0	298	112	3
2026-02-12	16:48:15.690	3.57	0.875	9.73	-0.405528	-0.914512	0.083448	0.597	0.915	0.222	0	298	112	3
2026-02-12	16:48:15.710	5.81	-6.755	13.055	-0.395524	-0.888648	0.096868	0.5955	0.918	0.2295	0	298	112	3
2026-02-12	16:48:15.730	7.875	-13.895	16.52	-0.377468	-0.904264	0.127368	0.6	0.9165	0.2205	0	298	112	3
2026-02-12	16:48:15.750	8.715	-20.65	20.37	-0.385276	-0.889136	0.075884	0.6105	0.9135	0.2175	0	298	112	3
2026-02-12	16:48:15.770	-3.85	-24.885	21.875	-0.50752	-0.896212	-0.093696	0.609	0.9105	0.222	0	298	112	3
2026-02-12	16:48:15.790	-33.215	-33.565	7.21	-0.66368	-1.126792	-0.245464	0.618	0.9135	0.228	0	298	112	3
2026-02-12	16:48:15.810	-29.82	-37.135	-4.69	-0.582672	-1.145824	-0.309636	0.618	0.909	0.222	0	288	82	3
2026-02-12	16:48:15.830	-19.005	-41.475	-9.1	-0.58438	-1.00284	-0.318176	0.6195	0.9015	0.222	0	288	82	3
2026-02-12	16:48:15.850	-13.23	-45.185	-7.665	-0.62586	-0.849608	-0.252052	0.621	0.8985	0.2265	0	288	82	3
2026-02-12	16:48:15.870	-14.595	-46.375	-6.44	-0.61732	-0.748348	-0.151768	0.627	0.9045	0.228	0	288	82	3
2026-02-12	16:48:15.890	-24.36	-42.49	-6.65	-0.54412	-0.802272	-0.022204	0.624	0.8985	0.2205	0	288	82	3
2026-02-12	16:48:15.910	-28.665	-34.65	-5.53	-0.457744	-0.881328	0.045872	0.63	0.909	0.231	0	288	82	3
2026-02-12	16:48:15.930	-24.22	-27.86	-4.935	-0.386984	-0.950868	-0.010736	0.633	0.903	0.228	0	288	82	3
2026-02-12	16:48:15.950	-14.665	-22.155	-3.08	-0.402844	-0.890112	-0.131516	0.636	0.9015	0.231	0	288	82	3
2026-02-12	16:48:15.970	-5.915	-18.235	-2.94	-0.445544	-0.788852	-0.196908	0.6405	0.894	0.2295	0	288	82	3
2026-02-12	16:48:15.990	-3.99	-19.705	-7.49	-0.450668	-0.686372	-0.215208	0.6405	0.8955	0.2355	0	288	82	3
2026-02-12	16:48:16.010	-9.03	-25.095	-15.68	-0.409676	-0.67954	-0.145912	0.639	0.8955	0.234	0	278	68	3
2026-02-12	16:48:16.030	-10.85	-28.21	-23.52	-0.3965	-0.679296	-0.055388	0.6375	0.894	0.2325	0	278	68	3
2026-02-12	16:48:16.050	-13.335	-26.74	-30.695	-0.374784	-0.662704	-0.003172	0.636	0.8955	0.2325	0	278	68	3
2026-02-12	16:48:16.070	-20.545	-19.53	-35.91	-0.394304	-0.706136	0.009272	0.633	0.9	0.2325	0	278	68	3
2026-02-12	16:48:16.090	-27.265	-12.74	-39.34	-0.426268	-0.80276	-0.011468	0.636	0.903	0.231	0	278	68	3
2026-02-12	16:48:16.110	-26.635	-5.915	-39.655	-0.45994	-0.893284	-0.04514	0.63	0.9	0.237	0	278	68	3
2026-02-12	16:48:16.130	-19.95	0.245	-36.645	-0.490928	-0.950624	-0.067832	0.6285	0.8925	0.2355	0	278	68	3
2026-02-12	16:48:16.150	-11.095	2.835	-32.06	-0.498736	-1.0004	-0.112728	0.624	0.894	0.2415	0	278	68	3
2026-02-12	16:48:16.170	-1.365	0.945	-27.265	-0.484828	-1.02358	-0.189588	0.6135	0.8985	0.252	0	278	68	3
2026-02-12	16:48:16.190	4.515	-4.97	-21.77	-0.472384	-1.017724	-0.253272	0.618	0.9	0.2415	0	278	68	3
2026-02-12	16:48:16.210	-18.2	-12.11	-16.415	-0.496296	-1.116056	-0.377956	0.618	0.9	0.2415	0	268	71	3
2026-02-12	16:48:16.230	-48.335	-11.445	-15.33	-0.447252	-1.377136	-0.473604	0.609	0.9	0.2445	0	268	71	3
2026-02-12	16:48:16.250	-58.695	-15.995	-9.17	-0.247172	-1.67262	-0.392108	0.6045	0.9015	0.252	0	268	71	3
2026-02-12	16:48:16.270	-43.05	-21.665	-1.435	-0.142984	-1.88246	-0.22326	0.6105	0.903	0.255	0	268	71	3
2026-02-12	16:48:16.290	2.38	-22.225	7.035	-0.041968	-1.687992	-0.13176	0.618	0.8925	0.2565	0	268	71	3
2026-02-12	16:48:16.310	43.05	-16.38	13.86	0.010248	-1.330044	-0.14396	0.612	0.8865	0.2565	0	268	71	3
2026-02-12	16:48:16.330	67.13	-13.545	15.4	0.029524	-0.971608	-0.199104	0.624	0.894	0.2445	0	268	71	3
2026-02-12	16:48:16.350	71.715	-15.4	12.145	0.022692	-0.715408	-0.19764	0.624	0.8955	0.24	0	268	71	3
2026-02-12	16:48:16.370	55.895	-12.705	6.09	-0.006588	-0.62586	-0.172264	0.6225	0.9015	0.237	0	268	71	3
2026-02-12	16:48:16.390	35.14	-4.025	0.35	-0.01464	-0.66124	-0.163236	0.6315	0.906	0.2325	0	268	71	3
2026-02-12	16:48:16.410	13.335	10.78	-3.29	-0.03782	-0.742004	-0.154696	0.63	0.9045	0.2265	0	265	93	3
2026-02-12	16:48:16.430	8.435	19.285	-1.715	-0.055632	-0.834968	-0.137616	0.6315	0.906	0.225	0	265	93	3
2026-02-12	16:48:16.450	11.48	25.795	1.61	-0.078324	-0.847656	-0.124684	0.6315	0.9105	0.2265	0	265	93	3
2026-02-12	16:48:16.470	13.825	31.15	5.145	-0.12688	-0.830332	-0.106628	0.6285	0.9135	0.222	0	265	93	3
2026-02-12	16:48:16.490	11.165	36.155	7.875	-0.160796	-0.843264	-0.109312	0.627	0.9135	0.2175	0	265	93	3
2026-02-12	16:48:16.510	6.195	39.83	9.52	-0.200568	-0.884988	-0.111996	0.6165	0.909	0.216	0	265	93	3
2026-02-12	16:48:16.530	1.33	41.02	10.64	-0.21594	-0.927444	-0.10736	0.6285	0.912	0.2235	0	265	93	3
2026-02-12	16:48:16.550	-0.42	40.495	11.375	-0.229848	-0.97966	-0.088084	0.621	0.909	0.2295	0	265	93	3
2026-02-12	16:48:16.570	2.485	38.85	11.725	-0.22692	-1.003328	-0.0732	0.6195	0.9135	0.228	0	265	93	3
2026-02-12	16:48:16.590	5.95	36.96	12.88	-0.223016	-1.01016	-0.07808	0.615	0.909	0.234	0	265	93	3
2026-02-12	16:48:16.610	10.08	33.495	14.42	-0.218136	-0.991372	-0.051484	0.621	0.9165	0.2325	0	265	112	3
2026-02-12	16:48:16.630	12.53	32.165	14.945	-0.206912	-0.981856	-0.000976	0.621	0.915	0.2295	0	265	112	3
2026-02-12	16:48:16.650	14.14	33.425	14.875	-0.208132	-0.960872	0.010492	0.618	0.909	0.2295	0	265	112	3
2026-02-12	16:48:16.670	14.91	35.175	14.245	-0.211548	-0.940376	0.017812	0.615	0.915	0.2295	0	265	112	3
2026-02-12	16:48:16.690	13.79	37.87	12.67	-0.22814	-0.948428	0.02928	0.6165	0.918	0.225	0	265	112	3
2026-02-12	16:48:16.710	11.515	40.39	10.85	-0.238876	-0.949892	0.047092	0.6195	0.912	0.225	0	265	112	3
2026-02-12	16:48:16.730	10.255	42.595	8.225	-0.246196	-0.947452	0.059048	0.6135	0.9105	0.2295	0	265	112	3
2026-02-12	16:48:16.750	10.01	43.085	6.195	-0.2684	-0.905728	0.042944	0.621	0.9105	0.2295	0	265	112	3
2026-02-12	16:48:16.770	9.065	42.175	3.955	-0.299632	-0.884256	0.053436	0.6075	0.9135	0.2265	0	265	112	3
2026-02-12	16:48:16.790	7.49	39.2	1.435	-0.330132	-0.878156	0.05612	0.603	0.9225	0.2295	0	265	112	3
2026-02-12	16:48:16.810	5.145	35.56	-0.84	-0.360388	-0.895968	0.055388	0.615	0.915	0.231	0	265	109	3
2026-02-12	16:48:16.830	3.57	29.33	-2.975	-0.390644	-0.894016	0.057096	0.615	0.915	0.231	0	265	109	3
2026-02-12	16:48:16.850	0.455	25.655	-3.045	-0.404064	-0.90768	0.050996	0.603	0.915	0.2295	0	265	109	3
2026-02-12	16:48:16.870	-0.56	21.105	-1.295	-0.427488	-0.909632	0.054656	0.597	0.915	0.2325	0	265	109	3
2026-02-12	16:48:16.890	-0.175	15.505	0.98	-0.43188	-0.933056	0.07442	0.6	0.9135	0.2325	0	265	109	3
2026-02-12	16:48:16.910	1.05	9.415	4.9	-0.420412	-0.918904	0.064172	0.597	0.915	0.231	0	265	109	3
2026-02-12	16:48:16.930	0.805	3.22	9.345	-0.411384	-0.911828	0.049288	0.5985	0.915	0.234	0	265	109	3
2026-02-12	16:48:16.950	-0.595	-3.255	13.405	-0.400648	-0.918172	0.040504	0.5985	0.918	0.237	0	265	109	3
2026-02-12	16:48:16.970	-0.175	-10.325	17.29	-0.37698	-0.953064	0.051484	0.597	0.9225	0.234	0	265	109	3
2026-02-12	16:48:16.990	3.64	-16.275	21.21	-0.3599	-0.963068	0.073932	0.594	0.9075	0.2325	0	265	109	3
2026-02-12	16:48:17.010	6.615	-20.545	24.465	-0.384544	-0.902312	0.049776	0.603	0.9135	0.237	0	261	84	3
2026-02-12	16:48:17.030	-18.69	-29.575	17.535	-0.55022	-0.923052	-0.205204	0.6135	0.9135	0.2415	0	261	84	3
2026-02-12	16:48:17.050	-43.47	-37.835	6.02	-0.673928	-1.025776	-0.311832	0.6165	0.912	0.237	0	261	84	3
2026-02-12	16:48:17.070	-48.895	-46.27	-9.485	-0.6161	-1.13948	-0.374052	0.6165	0.9045	0.2325	0	261	84	3
2026-02-12	16:48:17.090	-38.36	-54.04	-19.6	-0.565348	-1.17974	-0.345992	0.6195	0.903	0.234	0	261	84	3
2026-02-12	16:48:17.110	-17.22	-60.375	-18.725	-0.512156	-1.031876	-0.212036	0.627	0.906	0.237	0	261	84	3
2026-02-12	16:48:17.130	-4.34	-62.965	-11.62	-0.50264	-0.901824	-0.053436	0.6315	0.903	0.2355	0	261	84	3
2026-02-12	16:48:17.150	2.065	-60.095	-5.145	-0.471652	-0.776896	0.053192	0.6315	0.9015	0.2355	0	261	84	3
2026-02-12	16:48:17.170	-0.49	-50.365	-1.295	-0.475068	-0.702476	0.0854	0.6315	0.906	0.237	0	261	84	3
2026-02-12	16:48:17.190	-8.225	-42.98	-0.77	-0.455304	-0.669048	0.034404	0.6315	0.9015	0.2325	0	261	84	3
2026-02-12	16:48:17.210	-16.52	-39.62	-2.73	-0.446276	-0.640988	-0.060024	0.6465	0.897	0.222	0	256	69	3
2026-02-12	16:48:17.230	-27.93	-38.535	-7.735	-0.450424	-0.637572	-0.168604	0.6405	0.9105	0.2235	0	256	69	3
2026-02-12	16:48:17.250	-35.91	-39.69	-13.965	-0.443104	-0.69296	-0.216428	0.6405	0.9075	0.222	0	256	69	3
2026-02-12	16:48:17.270	-37.24	-42.07	-19.495	-0.430416	-0.7137	-0.187636	0.642	0.9015	0.2265	0	256	69	3
2026-02-12	16:48:17.290	-39.06	-41.965	-23.8	-0.40016	-0.764696	-0.119072	0.6435	0.906	0.234	0	256	69	3
2026-02-12	16:48:17.310	-36.995	-37.94	-24.99	-0.386252	-0.798368	-0.054168	0.6435	0.906	0.2355	0	256	69	3
2026-02-12	16:48:17.330	-33.39	-31.43	-24.185	-0.3965	-0.822768	-0.013664	0.6435	0.9	0.237	0	256	69	3
2026-02-12	16:48:17.350	-28.105	-23.45	-22.89	-0.4087	-0.827648	-0.00854	0.645	0.9	0.24	0	256	69	3
2026-02-12	16:48:17.370	-20.86	-14.63	-21.945	-0.418216	-0.881572	-0.022204	0.6375	0.906	0.237	0	256	69	3
2026-02-12	16:48:17.390	-11.865	-7.91	-20.055	-0.425048	-0.911096	-0.039528	0.639	0.8985	0.2385	0	256	69	3
2026-02-12	16:48:17.410	-0.91	-2.24	-19.04	-0.436272	-0.935496	-0.098332	0.6375	0.8955	0.243	0	251	68	3
2026-02-12	16:48:17.430	6.44	0.875	-19.705	-0.445788	-0.980148	-0.183488	0.6285	0.897	0.2385	0	251	68	3
2026-02-12	16:48:17.450	2.45	4.13	-23.59	-0.416264	-1.052372	-0.264008	0.627	0.8955	0.24	0	251	68	3
2026-02-12	16:48:17.470	-17.57	8.4	-25.305	-0.379176	-1.179252	-0.340624	0.627	0.8985	0.2415	0	251	68	3
2026-02-12	16:48:17.490	-37.765	10.185	-22.47	-0.270352	-1.390556	-0.41114	0.621	0.8985	0.2445	0	251	68	3
2026-02-12	16:48:17.510	-34.09	4.55	-13.965	-0.20862	-1.538664	-0.365268	0.6165	0.9	0.252	0	251	68	3
2026-02-12	16:48:17.530	-15.995	-6.09	-4.865	-0.179096	-1.673352	-0.242292	0.618	0.9075	0.2595	0	251	68	3
2026-02-12	16:48:17.550	8.855	-9.765	-0.245	-0.069296	-1.591124	-0.216428	0.621	0.9105	0.2565	0	251	68	3
2026-02-12	16:48:17.570	19.425	-2.485	3.535	-0.038552	-1.371524	-0.291336	0.621	0.909	0.252	0	251	68	3
2026-02-12	16:48:17.590	32.27	0.42	3.185	-0.061732	-1.120936	-0.309636	0.618	0.9045	0.2535	0	251	68	3
2026-02-12	16:48:17.610	36.855	-3.885	1.925	-0.079544	-0.90158	-0.260836	0.6165	0.9015	0.252	0	247	87	3
2026-02-12	16:48:17.630	31.815	-6.825	1.925	-0.102236	-0.858636	-0.202032	0.618	0.9075	0.246	0	247	87	3
2026-02-12	16:48:17.650	22.61	-4.9	0.28	-0.09638	-0.853756	-0.234484	0.618	0.9075	0.24	0	247	87	3
2026-02-12	16:48:17.670	18.795	-0.42	-0.105	-0.060512	-0.871324	-0.224968	0.621	0.9165	0.24	0	247	87	3
2026-02-12	16:48:17.690	18.375	5.075	2.555	-0.055388	-0.890356	-0.190808	0.6225	0.9195	0.234	0	247	87	3
2026-02-12	16:48:17.710	21.945	8.785	6.51	-0.06954	-0.858392	-0.172508	0.6225	0.915	0.234	0	247	87	3
2026-02-12	16:48:17.730	25.06	13.37	10.605	-0.1037	-0.791292	-0.168116	0.621	0.9195	0.2355	0	247	87	3
2026-02-12	16:48:17.750	22.925	17.99	12.495	-0.121268	-0.768112	-0.175192	0.621	0.924	0.2295	0	247	87	3
2026-02-12	16:48:17.770	17.43	21.91	12.95	-0.130784	-0.796172	-0.165432	0.624	0.927	0.228	0	247	87	3
2026-02-12	16:48:17.790	12.635	24.5	13.265	-0.142496	-0.852536	-0.153232	0.6315	0.918	0.2265	0	247	87	3
2026-02-12	16:48:17.810	11.13	27.055	14.28	-0.1586	-0.888404	-0.126392	0.6225	0.9285	0.228	0	247	117	3
2026-02-12	16:48:17.830	11.69	29.295	14.84	-0.167628	-0.90036	-0.093208	0.6285	0.921	0.2265	0	247	117	3
2026-02-12	16:48:17.850	10.78	32.9	14.35	-0.184708	-0.924028	-0.066124	0.621	0.921	0.228	0	247	117	3
2026-02-12	16:48:17.870	9.87	35.91	13.72	-0.204228	-0.935252	-0.037332	0.6255	0.924	0.228	0	247	117	3
2026-02-12	16:48:17.890	9.905	37.345	12.705	-0.213744	-0.94672	-0.02196	0.624	0.9285	0.225	0	247	117	3
2026-02-12	16:48:17.910	10.22	37.835	11.62	-0.225944	-0.947452	-0.019276	0.6165	0.927	0.228	0	247	117	3
2026-02-12	16:48:17.930	10.815	36.785	10.92	-0.243756	-0.939644	-0.02928	0.6165	0.9285	0.234	0	247	117	3
2026-02-12	16:48:17.950	10.325	34.825	9.94	-0.271084	-0.902068	-0.018788	0.6135	0.9315	0.2325	0	247	117	3
2026-02-12	16:48:17.970	5.67	33.215	7.91	-0.292556	-0.898896	-0.001464	0.615	0.93	0.234	0	247	117	3
2026-02-12	16:48:17.990	0.77	31.325	5.11	-0.296948	-0.928908	0.016104	0.618	0.93	0.2355	0	247	117	3
2026-02-12	16:48:18.010	-1.61	29.995	3.115	-0.28914	-0.967704	0.026352	0.618	0.93	0.2355	0	247	129	3
2026-02-12	16:48:18.030	0.21	28.77	2.8	-0.293288	-0.97722	0.022448	0.612	0.9285	0.2325	0	247	129	3
2026-02-12	16:48:18.050	3.255	26.775	3.64	-0.288652	-0.955992	0.038308	0.618	0.9285	0.2385	0	247	129	3
2026-02-12	16:48:18.070	4.34	25.97	4.41	-0.305732	-0.924516	0.053924	0.6135	0.9255	0.2385	0	247	129	3
2026-02-12	16:48:18.090	2.94	26.145	3.605	-0.31476	-0.911584	0.083936	0.6135	0.9255	0.2385	0	247	129	3
2026-02-12	16:48:18.110	1.435	27.125	2.94	-0.320372	-0.933056	0.10004	0.6105	0.9255	0.237	0	247	129	3
2026-02-12	16:48:18.130	1.19	27.685	3.115	-0.340624	-0.950136	0.094428	0.606	0.9285	0.2415	0	247	129	3
2026-02-12	16:48:18.150	2.555	26.355	4.48	-0.363316	-0.953064	0.062464	0.6045	0.93	0.2415	0	247	129	3
2026-02-12	16:48:18.170	3.955	21.63	6.685	-0.384056	-0.942328	0.036844	0.6045	0.93	0.2385	0	247	129	3
2026-02-12	16:48:18.190	3.395	15.365	9.17	-0.398208	-0.94672	0.03416	0.6	0.93	0.2355	0	247	129	3
2026-02-12	16:48:18.210	2.765	8.085	11.62	-0.397232	-0.969656	0.05002	0.5955	0.9315	0.2325	0	245	111	3
2026-02-12	16:48:18.230	4.97	1.015	14.595	-0.380396	-1.009184	0.065392	0.609	0.9285	0.237	0	245	111	3
2026-02-12	16:48:18.250	12.46	-5.355	19.39	-0.367708	-1.00772	0.10248	0.606	0.93	0.246	0	245	111	3
2026-02-12	16:48:18.270	21.665	-10.57	25.095	-0.376492	-0.942084	0.112728	0.6165	0.924	0.2385	0	245	111	3
2026-02-12	16:48:18.290	21.98	-15.05	29.505	-0.4758	-0.847412	-0.001952	0.6045	0.93	0.2295	0	245	111	3
2026-02-12	16:48:18.310	-0.77	-20.055	26.215	-0.597068	-0.931348	-0.16836	0.6165	0.9315	0.2325	0	245	111	3
2026-02-12	16:48:18.330	-24.57	-23.45	12.95	-0.648064	-1.166808	-0.264008	0.621	0.9285	0.237	0	245	111	3
2026-02-12	16:48:18.350	-10.675	-28	7.455	-0.488488	-1.1163	-0.293532	0.621	0.9285	0.237	0	245	111	3
2026-02-12	16:48:18.370	6.335	-33.46	11.725	-0.497028	-0.841312	-0.244732	0.6225	0.9255	0.2385	0	245	111	3
2026-02-12	16:48:18.390	11.9	-39.9	12.95	-0.508984	-0.591944	-0.17934	0.6285	0.9255	0.237	0	245	111	3
2026-02-12	16:48:18.410	-2.31	-42.525	6.44	-0.522892	-0.487024	-0.13298	0.6345	0.927	0.234	0	241	85	3
2026-02-12	16:48:18.430	-27.265	-40.39	-3.78	-0.535824	-0.582428	-0.073688	0.636	0.9225	0.222	0	241	85	3
2026-02-12	16:48:18.450	-46.69	-37.45	-11.305	-0.505568	-0.78324	-0.0122	0.6315	0.924	0.231	0	241	85	3
2026-02-12	16:48:18.470	-49.945	-32.2	-12.495	-0.4575	-0.9455	-0.007808	0.6345	0.9135	0.234	0	241	85	3
2026-02-12	16:48:18.490	-42.84	-27.79	-8.75	-0.462624	-0.964532	-0.0976	0.642	0.9225	0.231	0	241	85	3
2026-02-12	16:48:18.510	-32.13	-27.86	-5.81	-0.50508	-0.85644	-0.187148	0.645	0.918	0.237	0	241	85	3
2026-02-12	16:48:18.530	-28.035	-31.465	-7.91	-0.52216	-0.762012	-0.237656	0.6465	0.915	0.246	0	241	85	3
2026-02-12	16:48:18.550	-33.215	-35.595	-13.825	-0.5002	-0.737612	-0.223992	0.636	0.9165	0.2475	0	241	85	3
2026-02-12	16:48:18.570	-38.815	-39.48	-20.86	-0.443104	-0.76006	-0.159576	0.6375	0.912	0.246	0	241	85	3
2026-02-12	16:48:18.590	-41.405	-40.705	-24.815	-0.395524	-0.815448	-0.0976	0.645	0.915	0.249	0	241	85	3
2026-02-12	16:48:18.610	-33.075	-36.785	-24.885	-0.393816	-0.81618	-0.01586	0.645	0.915	0.249	0	237	77	3
2026-02-12	16:48:18.630	-26.915	-31.255	-24.465	-0.414556	-0.801296	-0.010736	0.639	0.903	0.2595	0	237	77	3
2026-02-12	16:48:18.650	-20.93	-24.745	-24.15	-0.434076	-0.815448	-0.023424	0.6435	0.9105	0.261	0	237	77	3
2026-02-12	16:48:18.670	-15.365	-19.04	-22.645	-0.44774	-0.829112	-0.055876	0.645	0.9075	0.261	0	237	77	3
2026-02-12	16:48:18.690	-11.9	-15.33	-21.665	-0.451644	-0.843508	-0.100284	0.6405	0.9135	0.2595	0	237	77	3
2026-02-12	16:48:18.710	-7.42	-14.455	-22.26	-0.44774	-0.891088	-0.140056	0.63	0.9045	0.267	0	237	77	3
2026-02-12	16:48:18.730	0.385	-16.485	-24.08	-0.44286	-0.926712	-0.160064	0.6375	0.9075	0.264	0	237	77	3
2026-02-12	16:48:18.750	6.895	-17.955	-27.545	-0.454816	-0.950136	-0.173972	0.6405	0.909	0.261	0	237	77	3
2026-02-12	16:48:18.770	-2.45	-13.335	-32.27	-0.46726	-1.010404	-0.221796	0.6375	0.903	0.2715	0	237	77	3
2026-02-12	16:48:18.790	-27.09	-3.395	-37.66	-0.444324	-1.259528	-0.34892	0.6375	0.921	0.2685	0	237	77	3
2026-02-12	16:48:18.810	-43.89	8.68	-35.35	-0.344528	-1.593076	-0.5063	0.624	0.9075	0.2685	0	233	86	3
2026-02-12	16:48:18.830	-36.015	10.185	-23.975	-0.238388	-1.692872	-0.559492	0.624	0.906	0.276	0	233	86	3
2026-02-12	16:48:18.850	-13.86	4.48	-6.475	-0.192028	-1.677256	-0.462136	0.6105	0.903	0.282	0	233	86	3
2026-02-12	16:48:18.870	28.84	8.575	12.635	-0.072224	-1.378844	-0.222528	0.6105	0.903	0.282	0	233	86	3
2026-02-12	16:48:18.890	52.745	11.06	13.545	-0.05856	-1.069696	-0.17812	0.624	0.909	0.2775	0	233	86	3
2026-02-12	16:48:18.910	58.345	11.375	7.84	-0.092232	-0.80154	-0.196176	0.627	0.909	0.273	0	233	86	3
2026-02-12	16:48:18.930	45.045	6.65	-0.105	-0.125172	-0.73932	-0.2196	0.6225	0.921	0.2655	0	233	86	3
2026-02-12	16:48:18.950	28.7	3.08	-5.25	-0.1281	-0.798124	-0.227164	0.6195	0.918	0.2595	0	233	86	3
2026-02-12	16:48:18.970	22.855	1.435	-7.735	-0.12444	-0.83204	-0.24766	0.615	0.9225	0.252	0	233	86	3
2026-02-12	16:48:18.990	23.415	1.995	-7.42	-0.104432	-0.865224	-0.227896	0.6195	0.93	0.2505	0	233	86	3
2026-02-12	16:48:19.010	26.285	5.11	-5.075	-0.091988	-0.840824	-0.186904	0.6165	0.927	0.258	0	232	116	3
2026-02-12	16:48:19.030	30.905	8.855	-2.87	-0.09882	-0.817888	-0.166164	0.618	0.9315	0.249	0	232	116	3
2026-02-12	16:48:19.050	31.01	13.685	-1.505	-0.097844	-0.793732	-0.164456	0.6105	0.9405	0.246	0	232	116	3
2026-02-12	16:48:19.070	26.845	18.41	-1.4	-0.097112	-0.797148	-0.160552	0.6075	0.9345	0.2445	0	232	116	3
2026-02-12	16:48:19.090	23.17	22.68	-1.47	-0.096136	-0.809592	-0.153476	0.606	0.9345	0.2415	0	232	116	3
2026-02-12	16:48:19.110	19.005	29.715	-1.225	-0.11834	-0.824232	-0.122244	0.6075	0.9405	0.24	0	232	116	3
2026-02-12	16:48:19.130	12.985	34.51	-1.365	-0.14396	-0.848388	-0.10126	0.6075	0.945	0.2325	0	232	116	3
2026-02-12	16:48:19.150	5.67	39.235	-0.805	-0.178608	-0.895724	-0.066124	0.609	0.945	0.2325	0	232	116	3
2026-02-12	16:48:19.170	0.035	43.855	-0.21	-0.19276	-0.948672	-0.040748	0.6045	0.9495	0.234	0	232	116	3
2026-02-12	16:48:19.190	-2.345	48.02	0.595	-0.208864	-0.992836	-0.012932	0.597	0.945	0.237	0	232	116	3
2026-02-12	16:48:19.210	-0.7	49.56	0.945	-0.216916	-0.991616	0.019276	0.5955	0.942	0.246	0	234	140	3
2026-02-12	16:48:19.230	0.035	50.89	1.365	-0.221796	-0.995276	0.036844	0.5955	0.9495	0.243	0	234	140	3
2026-02-12	16:48:19.250	5.565	51.485	1.365	-0.255712	-1.013332	0.011712	0.594	0.948	0.2415	0	234	140	3
2026-02-12	16:48:19.270	22.05	47.18	2.205	-0.28914	-1.061644	0.032452	0.576	0.945	0.2445	0	234	140	3
2026-02-12	16:48:19.290	35.84	39.235	2.765	-0.279868	-1.061888	0.053436	0.576	0.945	0.243	0	234	140	3
2026-02-12	16:48:19.310	39.62	32.27	4.2	-0.29158	-0.957456	0.06222	0.576	0.945	0.243	0	234	140	3
2026-02-12	16:48:19.330	31.43	24.92	5.39	-0.306708	-0.868152	0.044652	0.576	0.945	0.243	0	234	140	3
2026-02-12	16:48:19.350	20.44	17.815	6.65	-0.324032	-0.869616	0.053192	0.57	0.9555	0.2235	0	234	140	3
2026-02-12	16:48:19.370	11.165	11.305	9.03	-0.300852	-0.892796	0.094428	0.57	0.9555	0.228	0	234	140	3
2026-02-12	16:48:19.390	7.875	7.875	11.27	-0.284504	-0.8845	0.11468	0.564	0.9585	0.2235	0	234	140	3
2026-02-12	16:48:19.410	6.265	6.265	12.355	-0.274744	-0.873276	0.123464	0.567	0.9585	0.2235	0	236	131	3
2026-02-12	16:48:19.430	4.2	5.6	12.285	-0.2684	-0.853024	0.13664	0.57	0.963	0.219	0	236	131	3
2026-02-12	16:48:19.450	0.98	6.265	11.655	-0.281576	-0.87962	0.149328	0.582	0.951	0.2265	0	236	131	3
2026-02-12	16:48:19.470	-2.345	6.755	11.865	-0.294264	-0.915976	0.155428	0.579	0.9555	0.225	0	236	131	3
2026-02-12	16:48:19.490	-3.5	6.195	12.81	-0.309148	-0.933544	0.141032	0.576	0.945	0.228	0	236	131	3
2026-02-12	16:48:19.510	-1.855	2.695	15.4	-0.322568	-0.91622	0.110776	0.5715	0.9495	0.225	0	236	131	3
2026-02-12	16:48:19.530	-0.14	-3.045	18.865	-0.342332	-0.88816	0.08052	0.567	0.9555	0.222	0	236	131	3
2026-02-12	16:48:19.550	-0.805	-9.065	21.77	-0.357948	-0.88694	0.069784	0.588	0.9555	0.234	0	236	131	3
2026-02-12	16:48:19.570	-1.12	-15.505	25.69	-0.3477	-0.892064	0.072956	0.585	0.9465	0.219	0	236	131	3
2026-02-12	16:48:19.590	-2.625	-19.775	30.45	-0.397232	-0.819596	0.027084	0.5925	0.9585	0.2265	0	236	131	3
2026-02-12	16:48:19.610	-19.215	-24.57	25.69	-0.504348	-0.87474	-0.115412	0.5865	0.9555	0.231	0	236	95	3
2026-02-12	16:48:19.630	-43.12	-31.08	11.025	-0.654652	-0.962336	-0.24034	0.6105	0.945	0.2265	0	236	95	3
2026-02-12	16:48:19.650	-60.095	-35.21	-5.95	-0.679052	-1.094828	-0.314028	0.6075	0.9405	0.2325	0	236	95	3
2026-02-12	16:48:19.670	-62.23	-40.67	-14.805	-0.65392	-1.13704	-0.355508	0.6045	0.942	0.2415	0	236	95	3
2026-02-12	16:48:19.690	-51.03	-41.23	-12.04	-0.63318	-1.106052	-0.284016	0.6075	0.9375	0.243	0	236	95	3
2026-02-12	16:48:19.710	-36.75	-41.475	-0.175	-0.571204	-1.044564	-0.117852	0.6045	0.933	0.252	0	236	95	3
2026-02-12	16:48:19.730	-21.35	-37.59	11.76	-0.452132	-0.941352	0.111264	0.6045	0.933	0.252	0	236	95	3
2026-02-12	16:48:19.750	-11.655	-32.095	13.265	-0.375272	-0.912316	0.083936	0.6135	0.927	0.255	0	236	95	3
2026-02-12	16:48:19.770	-0.21	-28.455	14.455	-0.381616	-0.810568	-0.0488	0.6285	0.9195	0.2595	0	236	95	3
2026-02-12	16:48:19.790	4.305	-28.105	11.095	-0.413092	-0.751764	-0.141276	0.6195	0.9285	0.246	0	236	95	3
2026-02-12	16:48:19.810	1.68	-29.785	5.04	-0.4514	-0.718336	-0.171776	0.627	0.933	0.2565	0	235	70	3
2026-02-12	16:48:19.830	-4.55	-33.25	-3.255	-0.456524	-0.69296	-0.164212	0.6225	0.9195	0.252	0	235	70	3
2026-02-12	16:48:19.850	-13.055	-34.79	-12.25	-0.438224	-0.695156	-0.133712	0.636	0.9255	0.2475	0	235	70	3
2026-02-12	16:48:19.870	-22.68	-34.3	-20.3	-0.39284	-0.713944	-0.086376	0.633	0.9225	0.249	0	235	70	3
2026-02-12	16:48:19.890	-29.925	-29.365	-24.85	-0.3721	-0.780068	-0.01952	0.639	0.924	0.2505	0	235	70	3
2026-02-12	16:48:19.910	-29.47	-22.575	-26.845	-0.386008	-0.788852	0.023912	0.6315	0.93	0.2475	0	235	70	3
2026-02-12	16:48:19.930	-22.715	-13.405	-27.93	-0.408212	-0.82106	0.042944	0.6315	0.93	0.2475	0	235	70	3
2026-02-12	16:48:19.950	-12.355	-4.515	-27.44	-0.432856	-0.862296	0.01708	0.6315	0.93	0.2475	0	235	70	3
2026-02-12	16:48:19.970	-0.805	-2.31	-25.655	-0.409188	-0.89792	-0.078324	0.636	0.9255	0.252	0	235	70	3
2026-02-12	16:48:19.990	10.08	-7.49	-22.82	-0.371368	-0.865956	-0.228384	0.6195	0.924	0.255	0	235	70	3
2026-02-12	16:48:20.010	14.665	-20.475	-17.815	-0.402112	-0.834236	-0.299144	0.621	0.9225	0.258	0	234	66	3
2026-02-12	16:48:20.030	10.08	-35.35	-15.015	-0.488976	-0.930128	-0.26962	0.618	0.93	0.2535	0	234	66	3
2026-02-12	16:48:20.050	-15.26	-40.39	-16.45	-0.506544	-1.250012	-0.285236	0.612	0.9345	0.255	0	234	66	3
2026-02-12	16:48:20.070	-36.995	-33.775	-18.235	-0.39772	-1.6104	-0.378932	0.618	0.927	0.2535	0	234	66	3
2026-02-12	16:48:20.090	-56.245	-23.275	-12.74	-0.27328	-1.8483	-0.418948	0.6135	0.924	0.258	0	234	66	3
2026-02-12	16:48:20.110	-47.425	-14.105	2.38	-0.202032	-1.903688	-0.360144	0.615	0.927	0.2565	0	234	66	3
2026-02-12	16:48:20.130	-9.345	1.925	18.095	-0.109556	-1.619916	-0.214232	0.6195	0.9255	0.2655	0	234	66	3
2026-02-12	16:48:20.150	40.635	16.485	26.425	-0.111264	-1.164124	-0.199592	0.6195	0.9255	0.2655	0	234	66	3
2026-02-12	16:48:20.170	57.715	14.035	22.4	-0.12322	-0.863028	-0.2379	0.6255	0.9285	0.2625	0	234	66	3
2026-02-12	16:48:20.190	52.36	12.11	18.165	-0.122244	-0.759084	-0.2257	0.6285	0.9315	0.261	0	234	66	3
2026-02-12	16:48:20.210	38.325	12.04	13.79	-0.11468	-0.763964	-0.200568	0.621	0.9255	0.246	0	235	87	3
2026-02-12	16:48:20.230	32.62	12.005	10.36	-0.103944	-0.812764	-0.17812	0.627	0.921	0.249	0	235	87	3
2026-02-12	16:48:20.250	34.86	13.02	8.015	-0.08686399	-0.774212	-0.139568	0.6315	0.9285	0.243	0	235	87	3
2026-02-12	16:48:20.270	36.26	14.14	6.93	-0.099796	-0.76372	-0.122	0.6285	0.933	0.243	0	235	87	3
2026-02-12	16:48:20.290	37.73	14.245	5.845	-0.104188	-0.76128	-0.094916	0.6405	0.936	0.2325	0	235	87	3
2026-02-12	16:48:20.310	39.375	14.525	4.76	-0.134932	-0.704184	-0.10126	0.636	0.936	0.2295	0	235	87	3
2026-02-12	16:48:20.330	34.405	15.54	3.535	-0.17324	-0.675392	-0.117852	0.6285	0.936	0.2265	0	235	87	3
2026-02-12	16:48:20.350	15.54	17.395	0.385	-0.221308	-0.72468	-0.12444	0.6345	0.939	0.2205	0	235	87	3
2026-02-12	16:48:20.370	1.505	20.895	-0.945	-0.2318	-0.828136	-0.112728	0.6345	0.939	0.2205	0	235	87	3
2026-02-12	16:48:20.390	-8.645	26.04	-1.4	-0.247172	-0.934032	-0.09467199	0.6255	0.942	0.216	0	235	87	3
2026-02-12	16:48:20.410	-10.955	30.1	-0.245	-0.249124	-1.007232	-0.061244	0.6315	0.9465	0.222	0	241	112	3
2026-02-12	16:48:20.430	-7.735	34.405	1.785	-0.257176	-1.059448	-0.035136	0.6345	0.942	0.225	0	241	112	3
2026-02-12	16:48:20.450	-1.26	37.765	4.235	-0.26474	-1.059448	-0.018544	0.6225	0.939	0.231	0	241	112	3
2026-02-12	16:48:20.470	6.09	38.955	5.565	-0.279624	-1.030656	-0.011224	0.609	0.93	0.2385	0	241	112	3
2026-02-12	16:48:20.490	10.15	39.095	6.335	-0.277916	-0.987712	-0.000488	0.6165	0.936	0.2355	0	241	112	3
2026-02-12	16:48:20.510	11.655	38.15	6.755	-0.283528	-0.967948	0.017324	0.6195	0.9345	0.234	0	241	112	3
2026-02-12	16:48:20.530	13.195	36.61	7	-0.285968	-0.946232	0.043432	0.6105	0.9405	0.228	0	241	112	3
2026-02-12	16:48:20.550	12.845	35.875	6.475	-0.299144	-0.915	0.046848	0.6045	0.9405	0.2235	0	241	112	3
2026-02-12	16:48:20.570	9.765	36.47	5.32	-0.334036	-0.89548	0.0549	0.6045	0.9405	0.2235	0	241	112	3
2026-02-12	16:48:20.590	7.63	36.4	4.62	-0.344772	-0.906704	0.07515199	0.606	0.9405	0.2325	0	241	112	3
2026-02-12	16:48:20.610	7.35	35.035	4.795	-0.36112	-0.915976	0.089304	0.609	0.939	0.225	0	247	115	3
2026-02-12	16:48:20.630	8.4	32.69	5.705	-0.375516	-0.897188	0.091988	0.6015	0.9405	0.2385	0	247	115	3
2026-02-12	16:48:20.650	8.505	29.75	6.265	-0.401868	-0.866688	0.098088	0.5985	0.936	0.234	0	247	115	3
2026-02-12	16:48:20.670	5.39	25.725	6.51	-0.413092	-0.911584	0.128344	0.6	0.9375	0.2355	0	247	115	3
2026-02-12	16:48:20.690	4.06	22.33	7.07	-0.397476	-0.968436	0.168604	0.597	0.9435	0.2325	0	247	115	3
2026-02-12	16:48:20.710	8.89	19.355	8.785	-0.37454	-0.990884	0.166408	0.597	0.939	0.231	0	247	115	3
2026-02-12	16:48:20.730	14.525	14.84	11.795	-0.383324	-0.968436	0.129564	0.6	0.9465	0.231	0	247	115	3
2026-02-12	16:48:20.750	19.075	8.015	14.035	-0.388204	-0.87474	0.091744	0.5985	0.942	0.2385	0	247	115	3
2026-02-12	16:48:20.770	16.66	-2.8	14.07	-0.386984	-0.832284	0.091012	0.6045	0.9435	0.2265	0	247	115	3
2026-02-12	16:48:20.790	12.915	-9.485	13.16	-0.352092	-0.826184	0.114436	0.5925	0.939	0.2265	0	247	115	3
2026-02-12	16:48:20.810	10.955	-13.93	13.685	-0.330132	-0.825696	0.119804	0.5955	0.936	0.225	0	249	86	2
2026-02-12	16:48:20.830	12.18	-17.535	15.085	-0.332572	-0.810812	0.12444	0.606	0.9375	0.225	0	249	86	2
2026-02-12	16:48:20.850	12.215	-20.09	16.555	-0.371612	-0.764696	0.072468	0.6255	0.9405	0.2265	0	249	86	2
2026-02-12	16:48:20.870	0.14	-23.275	14.21	-0.446276	-0.758108	-0.061244	0.612	0.948	0.213	0	249	86	2
2026-02-12	16:48:20.890	-24.395	-29.505	3.605	-0.621956	-0.842288	-0.181048	0.6105	0.9495	0.2145	0	249	86	2
2026-02-12	16:48:20.910	-51.345	-35.49	-14.28	-0.717848	-0.947696	-0.273768	0.618	0.9435	0.2145	0	249	86	2
2026-02-12	16:48:20.930	-78.33	-39.97	-30.415	-0.781288	-1.142652	-0.336476	0.6165	0.9345	0.2265	0	249	86	2
2026-02-12	16:48:20.950	-75.11	-40.775	-31.675	-0.737124	-1.313452	-0.343552	0.6225	0.9345	0.228	0	249	86	2
2026-02-12	16:48:20.970	-44.205	-36.19	-15.68	-0.637572	-1.22	-0.168848	0.615	0.924	0.2355	0	249	86	2
2026-02-12	16:48:20.990	-14.455	-30.1	1.785	-0.486292	-1.065792	0.111996	0.615	0.918	0.24	0	249	86	2
2026-02-12	16:48:21.010	4.55	-21.315	8.085	-0.393816	-0.915976	0.139812	0.615	0.9165	0.237	0	249	57	3
2026-02-12	16:48:21.030	15.225	-13.615	11.62	-0.385276	-0.729072	-0.008052	0.624	0.9195	0.246	0	249	57	3
2026-02-12	16:48:21.050	15.82	-10.255	8.925	-0.432856	-0.612684	-0.118584	0.633	0.9225	0.237	0	249	57	3
2026-02-12	16:48:21.070	5.565	-12.81	2.1	-0.450668	-0.569984	-0.150792	0.6225	0.927	0.2385	0	249	57	3
2026-02-12	16:48:21.090	-7.455	-19.285	-7.315	-0.459208	-0.5673	-0.109556	0.6225	0.918	0.2325	0	249	57	3
2026-02-12	16:48:21.110	-19.355	-26.18	-18.41	-0.434564	-0.560712	-0.05246	0.627	0.927	0.2355	0	249	57	3
2026-02-12	16:48:21.130	-33.18	-27.335	-28.945	-0.407724	-0.608292	-0.013664	0.6255	0.9135	0.2415	0	249	57	3
2026-02-12	16:48:21.150	-42.63	-23.975	-35.42	-0.417484	-0.735172	0.003904	0.6255	0.9195	0.2445	0	249	57	3
2026-02-12	16:48:21.170	-43.085	-21.84	-39.585	-0.419192	-0.834236	-0.010248	0.6165	0.9165	0.243	0	249	57	3
2026-02-12	16:48:21.190	-32.13	-13.65	-40.74	-0.437004	-0.879132	-0.0793	0.6195	0.918	0.2475	0	249	57	3
2026-02-12	16:48:21.210	-23.905	-7.105	-38.255	-0.4514	-0.892552	-0.084668	0.6225	0.9195	0.2535	0	248	47	3
2026-02-12	16:48:21.230	-15.19	-3.185	-34.895	-0.441884	-0.89426	-0.084912	0.606	0.9075	0.252	0	248	47	3
2026-02-12	16:48:21.250	-6.58	-1.61	-31.78	-0.445056	-0.903532	-0.092476	0.6105	0.918	0.249	0	248	47	3
2026-02-12	16:48:21.270	1.68	-0.595	-28.7	-0.444324	-0.947452	-0.11956	0.6	0.9165	0.2535	0	248	47	3
2026-02-12	16:48:21.290	11.97	-0.07	-25.725	-0.418216	-1.014796	-0.138348	0.585	0.912	0.255	0	248	47	3
2026-02-12	16:48:21.310	14.21	1.155	-22.925	-0.465308	-1.009916	-0.144448	0.6015	0.9255	0.2535	0	248	47	3
2026-02-12	16:48:21.330	-13.09	11.55	-21.035	-0.472384	-1.259528	-0.183	0.6	0.9225	0.255	0	248	47	3
2026-02-12	16:48:21.350	-31.045	24.745	-13.195	-0.332572	-1.592832	-0.354532	0.5805	0.9195	0.2535	0	248	47	3
2026-02-12	16:48:21.370	-12.775	25.725	0.455	-0.242048	-1.567944	-0.477264	0.591	0.921	0.258	0	248	47	3
2026-02-12	16:48:21.390	17.395	6.685	13.65	-0.238144	-1.290516	-0.42334	0.579	0.921	0.252	0	248	47	3
2026-02-12	16:48:21.410	16.59	-4.725	13.65	-0.14274	-1.14192	-0.287432	0.579	0.921	0.252	0	248	58	3
2026-02-12	16:48:21.430	-2.31	-8.19	9.66	-0.053924	-1.159488	-0.203984	0.579	0.9195	0.2535	0	248	58	3
2026-02-12	16:48:21.450	-0.385	-11.97	6.895	-0.041968	-1.087752	-0.17446	0.588	0.921	0.252	0	248	58	3
2026-02-12	16:48:21.470	13.93	-15.295	4.69	-0.031964	-0.920124	-0.123708	0.5895	0.9285	0.261	0	248	58	3
2026-02-12	16:48:21.490	22.89	-12.985	2.52	-0.048312	-0.812276	-0.087352	0.5865	0.9225	0.2535	0	248	58	3
2026-02-12	16:48:21.510	18.83	-7.98	-0.49	-0.069784	-0.80032	-0.102724	0.5955	0.9255	0.249	0	248	58	3
2026-02-12	16:48:21.530	10.255	-2.485	-3.605	-0.099064	-0.8479	-0.151036	0.5955	0.9285	0.2475	0	248	58	3
2026-02-12	16:48:21.550	4.69	1.365	-5.46	-0.106384	-0.94794	-0.178608	0.597	0.9285	0.252	0	248	58	3
2026-02-12	16:48:21.570	8.26	5.215	-2.135	-0.113216	-1.000156	-0.164456	0.6	0.921	0.2475	0	248	58	3
2026-02-12	16:48:21.590	21.98	8.82	6.125	-0.121024	-0.967216	-0.127368	0.5985	0.927	0.252	0	248	58	3
2026-02-12	16:48:21.610	28.875	13.125	12.81	-0.148596	-0.868884	-0.118096	0.5985	0.927	0.252	0	250	85	3
2026-02-12	16:48:21.630	27.23	16.765	13.72	-0.166896	-0.853268	-0.108824	0.594	0.927	0.2445	0	250	85	3
2026-02-12	16:48:21.650	23.345	20.265	13.965	-0.19276	-0.867176	-0.113948	0.582	0.927	0.24	0	250	85	3
2026-02-12	16:48:21.670	20.02	23.625	14.455	-0.205448	-0.909876	-0.112484	0.5985	0.942	0.234	0	250	85	3
2026-02-12	16:48:21.690	18.83	25.97	15.785	-0.20496	-0.96746	-0.085644	0.585	0.9375	0.2325	0	250	85	3
2026-02-12	16:48:21.710	20.37	29.015	18.235	-0.208864	-1.006256	-0.066856	0.591	0.9345	0.2415	0	250	85	3
2026-02-12	16:48:21.730	25.025	33.18	20.825	-0.211548	-0.9943	-0.064416	0.591	0.939	0.234	0	250	85	3
2026-02-12	16:48:21.750	28.385	36.715	22.96	-0.233752	-0.951112	-0.047092	0.5835	0.93	0.228	0	250	85	3
2026-02-12	16:48:21.770	27.93	38.85	23.17	-0.246684	-0.920368	0.000976	0.5895	0.9375	0.228	0	250	85	3
2026-02-12	16:48:21.790	25.375	39.48	22.085	-0.256932	-0.910852	0.024888	0.594	0.9375	0.231	0	250	85	3
2026-02-12	16:48:21.810	22.61	37.87	18.375	-0.280112	-0.891576	0.020984	0.591	0.9375	0.216	0	250	103	3
2026-02-12	16:48:21.830	20.58	35.35	15.68	-0.29036	-0.884744	0.01464	0.5925	0.9405	0.219	0	250	103	3
2026-02-12	16:48:21.850	17.01	31.955	13.23	-0.29524	-0.860588	0.03904	0.5955	0.9435	0.2235	0	250	103	3
2026-02-12	16:48:21.870	12.005	29.82	10.535	-0.309148	-0.840336	0.050752	0.6	0.942	0.219	0	250	103	3
2026-02-12	16:48:21.890	5.32	28.875	7.07	-0.337696	-0.84668	0.061732	0.588	0.939	0.216	0	250	103	3
2026-02-12	16:48:21.910	-2.275	28.07	3.885	-0.33672	-0.889624	0.073444	0.591	0.939	0.2205	0	250	103	3
2026-02-12	16:48:21.930	-5.53	26.425	1.085	-0.342332	-0.927688	0.081252	0.585	0.945	0.216	0	250	103	3
2026-02-12	16:48:21.950	-4.76	23.66	0.28	-0.339404	-0.935252	0.095404	0.594	0.945	0.2205	0	250	103	3
2026-02-12	16:48:21.970	-2.31	20.93	0.14	-0.349164	-0.905484	0.1098	0.594	0.945	0.213	0	250	103	3
2026-02-12	16:48:21.990	-2.765	18.55	0.21	-0.3599	-0.895236	0.117608	0.579	0.9315	0.2265	0	250	103	3
2026-02-12	16:48:22.010	-5.46	14.385	0.245	-0.3782	-0.900604	0.115656	0.5775	0.93	0.222	0	247	92	3
2026-02-12	16:48:22.030	-4.83	9.94	1.54	-0.375028	-0.931104	0.108824	0.576	0.93	0.222	0	247	92	3
2026-02-12	16:48:22.050	-2.625	4.76	4.55	-0.382836	-0.926712	0.0915	0.5775	0.9375	0.225	0	247	92	3
2026-02-12	16:48:22.070	-1.225	-0.875	7.77	-0.396988	-0.902312	0.08784	0.5775	0.942	0.2235	0	247	92	3
2026-02-12	16:48:22.090	-1.925	-6.685	10.64	-0.40382	-0.916952	0.090036	0.5805	0.9375	0.228	0	247	92	3
2026-02-12	16:48:22.110	-1.645	-11.445	13.965	-0.404552	-0.933544	0.12078	0.582	0.9315	0.219	0	247	92	3
2026-02-12	16:48:22.130	1.05	-15.995	18.83	-0.390644	-0.95526	0.16958	0.588	0.9315	0.2265	0	247	92	3
2026-02-12	16:48:22.150	5.285	-19.565	24.535	-0.403332	-0.932568	0.172508	0.585	0.9345	0.2325	0	247	92	3
2026-02-12	16:48:22.170	-0.525	-20.37	28.49	-0.49654	-0.945988	0.023668	0.5895	0.9315	0.2175	0	247	92	3
2026-02-12	16:48:22.190	-14.98	-24.255	21.455	-0.649284	-0.994544	-0.16714	0.594	0.924	0.2235	0	247	92	3
2026-02-12	16:48:22.210	-23.31	-29.785	8.05	-0.686128	-1.02724	-0.250344	0.6	0.933	0.2235	0	241	61	3
2026-02-12	16:48:22.230	-26.25	-40.075	-7.7	-0.69174	-0.981856	-0.301828	0.6	0.933	0.2235	0	241	61	3
2026-02-12	16:48:22.250	-18.025	-41.72	-6.405	-0.653188	-0.851072	-0.280844	0.603	0.9345	0.222	0	241	61	3
2026-02-12	16:48:22.270	-15.89	-39.41	-3.045	-0.639036	-0.75518	-0.188856	0.6075	0.936	0.222	0	241	61	3
2026-02-12	16:48:22.290	-19.635	-37.87	-1.155	-0.585844	-0.752252	-0.052216	0.6135	0.93	0.228	0	241	61	3
2026-02-12	16:48:22.310	-21.28	-33.39	-0.035	-0.505568	-0.781532	0.074908	0.609	0.918	0.2265	0	241	61	3
2026-02-12	16:48:22.330	-25.9	-27.09	0.98	-0.440176	-0.868396	0.045628	0.6075	0.921	0.228	0	241	61	3
2026-02-12	16:48:22.350	-21.525	-21.595	1.015	-0.454084	-0.8235	-0.08784	0.609	0.933	0.2265	0	241	61	3
2026-02-12	16:48:22.370	-16.17	-18.69	-0.07	-0.469944	-0.751764	-0.180316	0.6075	0.921	0.234	0	241	61	3
2026-02-12	16:48:22.390	-16.975	-19.53	-3.22	-0.472872	-0.674904	-0.192028	0.624	0.921	0.2265	0	241	61	3
2026-02-12	16:48:22.410	-22.61	-23.345	-9.555	-0.45506	-0.62586	-0.172264	0.6255	0.9165	0.228	0	235	45	3
2026-02-12	16:48:22.430	-30.8	-26.005	-20.93	-0.418704	-0.63684	-0.053436	0.6075	0.9105	0.2415	0	235	45	3
2026-02-12	16:48:22.450	-34.125	-23.205	-27.755	-0.393816	-0.640744	0.022936	0.609	0.9105	0.2385	0	235	45	3
2026-02-12	16:48:22.470	-39.515	-15.33	-32.725	-0.397964	-0.724192	0.05368	0.612	0.909	0.237	0	235	45	3
2026-02-12	16:48:22.490	-40.46	-7.315	-36.33	-0.42212	-0.794708	0.03904	0.6135	0.9075	0.2385	0	235	45	3
2026-02-12	16:48:22.510	-35.7	1.26	-37.835	-0.448228	-0.885476	0.00854	0.609	0.918	0.243	0	235	45	3
2026-02-12	16:48:22.530	-26.11	11.375	-36.225	-0.486048	-0.93696	-0.05002	0.6045	0.906	0.252	0	235	45	3
2026-02-12	16:48:22.550	-14.49	18.34	-34.825	-0.502884	-0.9638	-0.1037	0.5985	0.9195	0.2535	0	235	45	3
2026-02-12	16:48:22.570	-5.67	19.285	-33.915	-0.52704	-0.996496	-0.17324	0.585	0.909	0.252	0	235	45	3
2026-02-12	16:48:22.590	0.49	17.01	-33.6	-0.517768	-1.050664	-0.249368	0.585	0.9075	0.261	0	235	45	3
2026-02-12	16:48:22.610	-3.955	14.875	-32.165	-0.519476	-1.07848	-0.307684	0.5805	0.9	0.2505	0	230	47	3
2026-02-12	16:48:22.630	-25.725	13.055	-25.305	-0.45262	-1.306864	-0.335256	0.5745	0.9135	0.255	0	230	47	3
2026-02-12	16:48:22.650	-34.405	9.205	-14.735	-0.306464	-1.597468	-0.355996	0.567	0.909	0.2595	0	230	47	3
2026-02-12	16:48:22.670	-14.315	3.115	-3.745	-0.231556	-1.6897	-0.298656	0.5595	0.9075	0.264	0	230	47	3
2026-02-12	16:48:22.690	16.31	-0.07	3.99	-0.190564	-1.516704	-0.276208	0.561	0.9075	0.2655	0	230	47	3
2026-02-12	16:48:22.710	32.095	-1.05	6.055	-0.175436	-1.277096	-0.338184	0.564	0.906	0.2685	0	230	47	3
2026-02-12	16:48:22.730	34.825	-6.51	3.185	-0.145912	-1.082872	-0.330376	0.5565	0.912	0.264	0	230	47	3
2026-02-12	16:48:22.750	34.72	-17.22	0.35	-0.149816	-0.93452	-0.274988	0.573	0.918	0.2595	0	230	47	3
2026-02-12	16:48:22.770	31.045	-26.74	-1.225	-0.145424	-0.850096	-0.20008	0.5685	0.9255	0.264	0	230	47	3
2026-02-12	16:48:22.790	27.93	-30.45	-1.75	-0.139324	-0.847168	-0.183976	0.564	0.9165	0.255	0	230	47	3
2026-02-12	16:48:22.810	28.49	-28.28	-2.59	-0.101504	-0.786412	-0.179096	0.564	0.924	0.2475	0	230	74	3
2026-02-12	16:48:22.830	25.62	-20.685	-2.065	-0.077348	-0.794464	-0.163968	0.5685	0.918	0.2445	0	230	74	3
2026-02-12	16:48:22.850	23.905	-8.89	3.15	-0.106872	-0.848144	-0.14518	0.5685	0.918	0.2445	0	230	74	3
2026-02-12	16:48:22.870	27.965	-2.275	7.21	-0.12444	-0.823256	-0.133712	0.5715	0.921	0.237	0	230	74	3
2026-02-12	16:48:22.890	29.12	4.62	9.94	-0.152988	-0.797392	-0.133712	0.576	0.9255	0.2295	0	230	74	3
2026-02-12	16:48:22.910	25.76	9.975	10.64	-0.187148	-0.787876	-0.131028	0.576	0.927	0.231	0	230	74	3
2026-02-12	16:48:22.930	17.57	14.105	9.8	-0.195688	-0.805444	-0.120536	0.5655	0.9285	0.2325	0	230	74	3
2026-02-12	16:48:22.950	9.38	18.27	8.855	-0.198372	-0.873764	-0.104676	0.5775	0.924	0.2295	0	230	74	3
2026-02-12	16:48:22.970	5.005	20.51	7.98	-0.197884	-0.948916	-0.088084	0.5805	0.927	0.2265	0	230	74	3
2026-02-12	16:48:22.990	5.18	22.26	7.875	-0.187636	-1.001864	-0.058804	0.57	0.9195	0.225	0	230	74	3
2026-02-12	16:48:21.010	4.55	-21.315	8.085	-0.393816	-0.915976	0.139812	0.615	0.9165	0.237	0	249	57	3
2026-02-12	16:48:21.030	15.225	-13.615	11.62	-0.385276	-0.729072	-0.008052	0.624	0.9195	0.246	0	249	57	3
2026-02-12	16:48:21.050	15.82	-10.255	8.925	-0.432856	-0.612684	-0.118584	0.633	0.9225	0.237	0	249	57	3
2026-02-12	16:48:21.070	5.565	-12.81	2.1	-0.450668	-0.569984	-0.150792	0.6225	0.927	0.2385	0	249	57	3
2026-02-12	16:48:21.090	-7.455	-19.285	-7.315	-0.459208	-0.5673	-0.109556	0.6225	0.918	0.2325	0	249	57	3
2026-02-12	16:48:21.110	-19.355	-26.18	-18.41	-0.434564	-0.560712	-0.05246	0.627	0.927	0.2355	0	249	57	3
2026-02-12	16:48:21.130	-33.18	-27.335	-28.945	-0.407724	-0.608292	-0.013664	0.6255	0.9135	0.2415	0	249	57	3
2026-02-12	16:48:21.150	-42.63	-23.975	-35.42	-0.417484	-0.735172	0.003904	0.6255	0.9195	0.2445	0	249	57	3
2026-02-12	16:48:21.170	-43.085	-21.84	-39.585	-0.419192	-0.834236	-0.010248	0.6165	0.9165	0.243	0	249	57	3
2026-02-12	16:48:21.190	-32.13	-13.65	-40.74	-0.437004	-0.879132	-0.0793	0.6195	0.918	0.2475	0	249	57	3
2026-02-12	16:48:21.210	-23.905	-7.105	-38.255	-0.4514	-0.892552	-0.084668	0.6225	0.9195	0.2535	0	248	47	3
2026-02-12	16:48:21.230	-15.19	-3.185	-34.895	-0.441884	-0.89426	-0.084912	0.606	0.9075	0.252	0	248	47	3
2026-02-12	16:48:21.250	-6.58	-1.61	-31.78	-0.445056	-0.903532	-0.092476	0.6105	0.918	0.249	0	248	47	3
2026-02-12	16:48:21.270	1.68	-0.595	-28.7	-0.444324	-0.947452	-0.11956	0.6	0.9165	0.2535	0	248	47	3
2026-02-12	16:48:21.290	11.97	-0.07	-25.725	-0.418216	-1.014796	-0.138348	0.585	0.912	0.255	0	248	47	3
2026-02-12	16:48:21.310	14.21	1.155	-22.925	-0.465308	-1.009916	-0.144448	0.6015	0.9255	0.2535	0	248	47	3
2026-02-12	16:48:21.330	-13.09	11.55	-21.035	-0.472384	-1.259528	-0.183	0.6	0.9225	0.255	0	248	47	3
2026-02-12	16:48:21.350	-31.045	24.745	-13.195	-0.332572	-1.592832	-0.354532	0.5805	0.9195	0.2535	0	248	47	3
2026-02-12	16:48:21.370	-12.775	25.725	0.455	-0.242048	-1.567944	-0.477264	0.591	0.921	0.258	0	248	47	3
2026-02-12	16:48:21.390	17.395	6.685	13.65	-0.238144	-1.290516	-0.42334	0.579	0.921	0.252	0	248	47	3
2026-02-12	16:48:21.410	16.59	-4.725	13.65	-0.14274	-1.14192	-0.287432	0.579	0.921	0.252	0	248	58	3
2026-02-12	16:48:21.430	-2.31	-8.19	9.66	-0.053924	-1.159488	-0.203984	0.579	0.9195	0.2535	0	248	58	3
2026-02-12	16:48:21.450	-0.385	-11.97	6.895	-0.041968	-1.087752	-0.17446	0.588	0.921	0.252	0	248	58	3
2026-02-12	16:48:21.470	13.93	-15.295	4.69	-0.031964	-0.920124	-0.123708	0.5895	0.9285	0.261	0	248	58	3
2026-02-12	16:48:21.490	22.89	-12.985	2.52	-0.048312	-0.812276	-0.087352	0.5865	0.9225	0.2535	0	248	58	3
2026-02-12	16:48:21.510	18.83	-7.98	-0.49	-0.069784	-0.80032	-0.102724	0.5955	0.9255	0.249	0	248	58	3
2026-02-12	16:48:21.530	10.255	-2.485	-3.605	-0.099064	-0.8479	-0.151036	0.5955	0.9285	0.2475	0	248	58	3
2026-02-12	16:48:21.550	4.69	1.365	-5.46	-0.106384	-0.94794	-0.178608	0.597	0.9285	0.252	0	248	58	3
2026-02-12	16:48:21.570	8.26	5.215	-2.135	-0.113216	-1.000156	-0.164456	0.6	0.921	0.2475	0	248	58	3
2026-02-12	16:48:21.590	21.98	8.82	6.125	-0.121024	-0.967216	-0.127368	0.5985	0.927	0.252	0	248	58	3
2026-02-12	16:48:21.610	28.875	13.125	12.81	-0.148596	-0.868884	-0.118096	0.5985	0.927	0.252	0	250	85	3
2026-02-12	16:48:21.630	27.23	16.765	13.72	-0.166896	-0.853268	-0.108824	0.594	0.927	0.2445	0	250	85	3
2026-02-12	16:48:21.650	23.345	20.265	13.965	-0.19276	-0.867176	-0.113948	0.582	0.927	0.24	0	250	85	3
2026-02-12	16:48:21.670	20.02	23.625	14.455	-0.205448	-0.909876	-0.112484	0.5985	0.942	0.234	0	250	85	3
2026-02-12	16:48:21.690	18.83	25.97	15.785	-0.20496	-0.96746	-0.085644	0.585	0.9375	0.2325	0	250	85	3
2026-02-12	16:48:21.710	20.37	29.015	18.235	-0.208864	-1.006256	-0.066856	0.591	0.9345	0.2415	0	250	85	3
2026-02-12	16:48:21.730	25.025	33.18	20.825	-0.211548	-0.9943	-0.064416	0.591	0.939	0.234	0	250	85	3
2026-02-12	16:48:21.750	28.385	36.715	22.96	-0.233752	-0.951112	-0.047092	0.5835	0.93	0.228	0	250	85	3
2026-02-12	16:48:21.770	27.93	38.85	23.17	-0.246684	-0.920368	0.000976	0.5895	0.9375	0.228	0	250	85	3
2026-02-12	16:48:21.790	25.375	39.48	22.085	-0.256932	-0.910852	0.024888	0.594	0.9375	0.231	0	250	85	3
2026-02-12	16:48:21.810	22.61	37.87	18.375	-0.280112	-0.891576	0.020984	0.591	0.9375	0.216	0	250	103	3
2026-02-12	16:48:21.830	20.58	35.35	15.68	-0.29036	-0.884744	0.01464	0.5925	0.9405	0.219	0	250	103	3
2026-02-12	16:48:21.850	17.01	31.955	13.23	-0.29524	-0.860588	0.03904	0.5955	0.9435	0.2235	0	250	103	3
2026-02-12	16:48:21.870	12.005	29.82	10.535	-0.309148	-0.840336	0.050752	0.6	0.942	0.219	0	250	103	3
2026-02-12	16:48:21.890	5.32	28.875	7.07	-0.337696	-0.84668	0.061732	0.588	0.939	0.216	0	250	103	3
2026-02-12	16:48:21.910	-2.275	28.07	3.885	-0.33672	-0.889624	0.073444	0.591	0.939	0.2205	0	250	103	3
2026-02-12	16:48:21.930	-5.53	26.425	1.085	-0.342332	-0.927688	0.081252	0.585	0.945	0.216	0	250	103	3
2026-02-12	16:48:21.950	-4.76	23.66	0.28	-0.339404	-0.935252	0.095404	0.594	0.945	0.2205	0	250	103	3
2026-02-12	16:48:21.970	-2.31	20.93	0.14	-0.349164	-0.905484	0.1098	0.594	0.945	0.213	0	250	103	3
2026-02-12	16:48:21.990	-2.765	18.55	0.21	-0.3599	-0.895236	0.117608	0.579	0.9315	0.2265	0	250	103	3
2026-02-12	16:48:24.010	11.375	25.41	9.1	-0.175192	-1.033096	-0.00854	0.57	0.9195	0.225	0	233	104	3
2026-02-12	16:48:24.030	17.465	27.335	9.59	-0.176656	-0.9943	0.00244	0.573	0.924	0.2205	0	233	104	3
2026-02-12	16:48:24.050	19.635	30.45	8.225	-0.19886	-0.945988	0.003904	0.573	0.9285	0.219	0	233	104	3
2026-02-12	16:48:24.070	17.99	31.605	5.005	-0.21594	-0.917196	0.016836	0.576	0.9285	0.219	0	233	104	3
2026-02-12	16:48:24.090	15.54	31.64	2.275	-0.226432	-0.91622	0.034892	0.573	0.9315	0.219	0	233	104	3
2026-02-12	16:48:24.110	13.02	32.62	1.155	-0.240828	-0.922564	0.036844	0.5655	0.933	0.222	0	233	104	3
2026-02-12	16:48:24.130	11.69	32.725	0.56	-0.26596	-0.902312	0.025864	0.564	0.933	0.2265	0	233	104	3
2026-02-12	16:48:24.150	9.485	31.78	-0.665	-0.29158	-0.874496	0.02928	0.564	0.93	0.225	0	233	104	3
2026-02-12	16:48:24.170	4.83	30.135	-2.415	-0.310124	-0.904264	0.04148	0.564	0.9405	0.216	0	233	104	3
2026-02-12	16:48:24.190	1.155	28.735	-3.43	-0.320372	-0.937936	0.063196	0.564	0.9375	0.222	0	233	104	3
2026-02-12	16:48:24.210	1.715	27.93	-2.17	-0.3233	-0.957456	0.089792	0.558	0.939	0.219	0	236	107	3
2026-02-12	16:48:24.230	5.95	27.37	0.63	-0.32086	-0.94306	0.106872	0.558	0.9375	0.2175	0	236	107	3
2026-02-12	16:48:24.250	9.905	26.74	3.15	-0.340868	-0.904508	0.112484	0.5595	0.939	0.219	0	236	107	3
2026-02-12	16:48:24.270	10.92	25.935	4.76	-0.36112	-0.870592	0.122488	0.5535	0.9405	0.2175	0	236	107	3
2026-02-12	16:48:24.290	8.435	24.465	5.845	-0.380884	-0.887916	0.117364	0.5535	0.942	0.213	0	236	107	3
2026-02-12	16:48:24.310	4.06	20.545	9.065	-0.404064	-0.880108	0.120536	0.5535	0.942	0.213	0	236	107	3
2026-02-12	16:48:24.330	3.08	15.75	11.97	-0.430904	-0.875228	0.129564	0.549	0.9345	0.2145	0	236	107	3
2026-02-12	16:48:24.350	2.59	8.995	15.715	-0.43798	-0.886208	0.126636	0.546	0.9285	0.216	0	236	107	3
2026-02-12	16:48:24.370	2.52	1.05	20.195	-0.444324	-0.901824	0.093696	0.549	0.9345	0.216	0	236	107	3
2026-02-12	16:48:24.390	1.68	-8.47	25.2	-0.464576	-0.934276	0.086376	0.546	0.945	0.2145	0	236	107	3
2026-02-12	16:48:24.410	3.92	-18.165	30.625	-0.462624	-0.918904	0.11468	0.555	0.936	0.2145	0	236	80	3
2026-02-12	16:48:24.430	-0.91	-24.01	34.405	-0.546316	-0.845216	0.027328	0.5565	0.936	0.213	0	236	80	3
2026-02-12	16:48:24.450	-24.885	-29.855	30.065	-0.671	-0.922808	-0.134688	0.564	0.936	0.219	0	236	80	3
2026-02-12	16:48:24.470	-47.95	-36.225	17.045	-0.747616	-1.114592	-0.221064	0.57	0.9225	0.219	0	236	80	3
2026-02-12	16:48:24.490	-46.795	-42.91	5.355	-0.669292	-1.201944	-0.292556	0.561	0.9255	0.2175	0	236	80	3
2026-02-12	16:48:24.510	-26.215	-50.995	3.5	-0.61244	-1.08214	-0.250344	0.576	0.9165	0.2295	0	236	80	3
2026-02-12	16:48:24.530	-8.26	-56.35	9.975	-0.612928	-0.825208	-0.172264	0.5865	0.9225	0.2265	0	236	80	3
2026-02-12	16:48:24.550	-5.74	-60.235	11.795	-0.547292	-0.614636	-0.0305	0.585	0.9195	0.2265	0	236	80	3
2026-02-12	16:48:24.570	-17.99	-57.995	8.12	-0.489952	-0.630984	0.041236	0.5895	0.921	0.2205	0	236	80	3
2026-02-12	16:48:24.590	-30.205	-52.955	4.165	-0.455548	-0.72468	0.01708	0.591	0.912	0.2235	0	236	80	3
2026-02-12	16:48:24.610	-34.545	-49.98	-0.21	-0.4514	-0.787632	-0.082228	0.5985	0.9105	0.2295	0	235	56	3
2026-02-12	16:48:24.630	-34.16	-48.44	-4.515	-0.44896	-0.791536	-0.161284	0.6015	0.912	0.231	0	235	56	3
2026-02-12	16:48:24.650	-31.85	-47.46	-8.54	-0.470676	-0.743468	-0.198128	0.609	0.912	0.2355	0	235	56	3
2026-02-12	16:48:24.670	-31.22	-48.51	-12.495	-0.4514	-0.71736	-0.179828	0.606	0.9045	0.231	0	235	56	3
2026-02-12	16:48:24.690	-31.255	-49.315	-17.535	-0.427244	-0.678808	-0.129076	0.6105	0.915	0.2385	0	235	56	3
2026-02-12	16:48:24.710	-33.775	-47.88	-22.82	-0.403332	-0.659044	-0.070516	0.6075	0.8955	0.234	0	235	56	3
2026-02-12	16:48:24.730	-38.535	-41.895	-27.72	-0.402112	-0.668804	-0.027084	0.6105	0.909	0.243	0	235	56	3
2026-02-12	16:48:24.750	-43.96	-33.985	-31.64	-0.394304	-0.732488	-0.0061	0.6135	0.8985	0.2385	0	235	56	3
2026-02-12	16:48:24.770	-45.29	-25.34	-34.055	-0.391132	-0.842044	-0.016348	0.6075	0.897	0.2415	0	235	56	3
2026-02-12	16:48:24.790	-28.49	-10.57	-33.18	-0.389424	-0.948672	-0.031232	0.6075	0.897	0.2415	0	235	56	3
2026-02-12	16:48:24.810	-13.16	-1.645	-32.235	-0.381616	-0.955992	-0.107848	0.6075	0.897	0.2415	0	234	52	3
2026-02-12	16:48:24.830	-2.45	4.655	-35.28	-0.379176	-0.971852	-0.20618	0.6	0.9	0.249	0	234	52	3
2026-02-12	16:48:24.850	2.38	9.31	-39.655	-0.350872	-0.995032	-0.18544	0.6015	0.891	0.252	0	234	52	3
2026-02-12	16:48:24.870	-6.02	16.52	-42.315	-0.383568	-1.013088	-0.103944	0.5865	0.8955	0.2535	0	234	52	3
2026-02-12	16:48:24.890	-45.64	32.13	-42.525	-0.359168	-1.225856	-0.248392	0.594	0.8955	0.255	0	234	52	3
2026-02-12	16:48:24.910	-78.785	45.115	-35.84	-0.258152	-1.528904	-0.507764	0.582	0.9015	0.2625	0	234	52	3
2026-02-12	16:48:24.930	-68.075	36.61	-25.375	-0.23424	-1.558184	-0.538996	0.57	0.891	0.276	0	234	52	3
2026-02-12	16:48:24.950	-43.82	21.875	-17.045	-0.301096	-1.563308	-0.411872	0.5625	0.8805	0.276	0	234	52	3
2026-02-12	16:48:24.970	-17.57	9.87	-8.225	-0.246684	-1.54696	-0.349652	0.555	0.8865	0.291	0	234	52	3
2026-02-12	16:48:24.990	9.66	3.395	0.665	-0.15494	-1.329312	-0.321348	0.5565	0.8805	0.2865	0	234	52	3
2026-02-12	16:48:25.010	-13.58	-35.42	-22.75	-0.446032	-0.693448	-0.164944	0.5475	0.879	0.2835	0	235	104	3
2026-02-12	16:48:25.030	-10.045	-33.565	-24.535	-0.442372	-0.725656	-0.122488	0.5535	0.8655	0.276	0	235	104	3
2026-02-12	16:48:25.050	-8.26	-29.505	-25.62	-0.4392	-0.75152	-0.082472	0.555	0.8745	0.288	0	235	104	3
2026-02-12	16:48:25.070	-7.98	-19.39	-26.145	-0.43798	-0.804468	-0.065392	0.555	0.8745	0.288	0	235	104	3
2026-02-12	16:48:25.090	-7.735	-11.13	-26.39	-0.459208	-0.839116	-0.10736	0.555	0.8745	0.288	0	235	104	3
2026-02-12	16:48:25.110	-6.965	-4.2	-26.215	-0.470188	-0.89548	-0.18056	0.546	0.867	0.2805	0	235	104	3
2026-02-12	16:48:25.130	-5.285	0.07	-25.97	-0.470432	-0.95404	-0.283284	0.5385	0.8625	0.2865	0	235	104	3
2026-02-12	16:48:25.150	0.385	3.85	-24.57	-0.475556	-0.970632	-0.325008	0.5445	0.867	0.2805	0	235	104	3
2026-02-12	16:48:25.170	-5.39	8.295	-23.765	-0.546072	-0.932568	-0.380396	0.5385	0.8625	0.2835	0	235	104	3
2026-02-12	16:48:25.190	-44.765	17.08	-27.72	-0.579012	-1.162904	-0.512644	0.543	0.867	0.285	0	235	104	3
2026-02-12	16:48:25.210	-75.775	24.36	-26.425	-0.375516	-1.634068	-0.610976	0.534	0.87	0.282	0	232	124	3
2026-02-12	16:48:25.230	-59.15	18.095	-15.715	-0.233264	-1.754848	-0.540704	0.5265	0.8565	0.2985	0	232	124	3
2026-02-12	16:48:25.250	-18.305	8.505	-3.955	-0.187148	-1.708488	-0.447984	0.5205	0.8535	0.2955	0	232	124	3
2026-02-12	16:48:25.270	24.745	0.105	8.61	-0.11468	-1.383236	-0.362828	0.528	0.8445	0.2985	0	232	124	3
2026-02-12	16:48:25.290	35.805	-5.565	11.97	-0.03904	-1.047492	-0.297192	0.528	0.8445	0.2985	0	232	124	3
2026-02-12	16:48:25.310	30.975	-13.16	10.745	-0.022692	-0.913292	-0.286212	0.525	0.8595	0.2925	0	232	124	3
2026-02-12	16:48:25.330	25.585	-17.955	8.435	-0.031476	-0.898164	-0.253516	0.5235	0.858	0.2925	0	232	124	3
2026-02-12	16:48:25.350	29.225	-18.97	6.51	-0.051728	-0.887428	-0.243268	0.5355	0.864	0.294	0	232	124	3
2026-02-12	16:48:25.370	36.75	-17.64	6.965	-0.051728	-0.8418	-0.266448	0.5325	0.8655	0.288	0	232	124	3
2026-02-12	16:48:25.390	44.835	-15.05	6.58	-0.064172	-0.742248	-0.278892	0.5295	0.8655	0.2775	0	232	124	3
2026-02-12	16:48:25.410	44.31	-13.195	4.69	-0.077836	-0.651724	-0.271084	0.5355	0.8715	0.282	0	235	165	3
2026-02-12	16:48:25.430	31.22	-10.08	2.66	-0.111996	-0.664412	-0.240828	0.537	0.876	0.282	0	235	165	3
2026-02-12	16:48:25.450	17.5	-4.9	1.96	-0.157136	-0.739564	-0.211304	0.5415	0.8655	0.27	0	235	165	3
2026-02-12	16:48:25.470	10.78	0.14	2.415	-0.182268	-0.81862	-0.20008	0.5445	0.873	0.267	0	235	165	3
2026-02-12	16:48:25.490	12.145	7.245	6.51	-0.201788	-0.888404	-0.167384	0.5355	0.8745	0.2685	0	235	165	3
2026-02-12	16:48:25.510	13.475	11.935	8.785	-0.205448	-0.903532	-0.137128	0.5445	0.8745	0.2715	0	235	165	3
2026-02-12	16:48:25.530	11.69	15.96	9.625	-0.21594	-0.9211	-0.142984	0.54	0.87	0.27	0	235	165	3
2026-02-12	16:48:25.550	9.94	19.635	10.185	-0.218136	-0.936716	-0.16104	0.5415	0.8805	0.261	0	235	165	3
2026-02-12	16:48:25.570	7.525	22.47	11.55	-0.224724	-0.966484	-0.176656	0.5385	0.8805	0.2685	0	235	165	3
2026-02-12	16:48:25.590	7.385	23.59	13.475	-0.22814	-0.990884	-0.17202	0.5325	0.882	0.2685	0	235	165	3
2026-02-12	16:48:25.610	10.36	22.89	15.295	-0.23302	-0.98576	-0.133956	0.543	0.879	0.2625	0	240	196	3
2026-02-12	16:48:25.630	12.39	22.05	16.66	-0.244244	-0.970876	-0.108824	0.5385	0.8775	0.2625	0	240	196	3
2026-02-12	16:48:25.650	11.515	20.895	17.29	-0.264008	-0.94916	-0.09028	0.5475	0.8775	0.27	0	240	196	3
2026-02-12	16:48:25.670	10.5	19.565	16.415	-0.27938	-0.93086	-0.06734399	0.5385	0.8775	0.261	0	240	196	3
2026-02-12	16:48:25.690	7.98	18.725	13.545	-0.299388	-0.959408	-0.051484	0.5445	0.8835	0.2565	0	240	196	3
2026-02-12	16:48:25.710	7.42	18.935	11.34	-0.313296	-1.012844	-0.038064	0.5445	0.8835	0.2565	0	240	196	3
2026-02-12	16:48:25.730	11.41	19.6	10.885	-0.30256	-1.012112	-0.024156	0.54	0.8835	0.2655	0	240	196	3
2026-02-12	16:48:25.750	15.19	20.65	11.06	-0.304512	-0.986492	-0.01464	0.549	0.8895	0.264	0	240	196	3
2026-02-12	16:48:25.770	16.135	20.51	11.095	-0.325984	-0.941108	-0.009272	0.537	0.8835	0.261	0	240	196	3
2026-02-12	16:48:25.790	16.625	18.795	9.555	-0.3355	-0.892064	-0.00732	0.5385	0.885	0.2595	0	240	196	3
2026-02-12	16:48:25.810	16.45	17.29	7.77	-0.34892	-0.866932	0.003416	0.5385	0.885	0.2535	0	243	195	3
2026-02-12	16:48:25.830	15.96	15.89	6.16	-0.344772	-0.860344	0.030012	0.5385	0.888	0.2445	0	243	195	3
2026-02-12	16:48:25.850	17.22	14.385	5.25	-0.33062	-0.888892	0.028792	0.528	0.888	0.246	0	243	195	3
2026-02-12	16:48:25.870	20.755	12.565	6.055	-0.325252	-0.873276	0.029036	0.5325	0.891	0.2475	0	243	195	3
2026-02-12	16:48:25.890	24.325	10.71	7.28	-0.336476	-0.824964	0.0305	0.537	0.894	0.249	0	243	195	3
2026-02-12	16:48:25.910	20.895	7.7	7.49	-0.361364	-0.7747	0.023424	0.5295	0.891	0.24	0	243	195	3
2026-02-12	16:48:25.930	11.76	5.075	5.88	-0.384056	-0.775432	0.01464	0.5355	0.894	0.246	0	243	195	3
2026-02-12	16:48:25.950	3.395	0.945	5.25	-0.383812	-0.83814	0.026352	0.54	0.8985	0.243	0	243	195	3
2026-02-12	16:48:25.970	0.98	-3.815	7.77	-0.382348	-0.9028	0.057828	0.534	0.8835	0.2475	0	243	195	3
2026-02-12	16:48:25.990	4.375	-9.625	13.09	-0.393572	-0.924272	0.10248	0.534	0.897	0.231	0	243	195	3
2026-02-12	16:48:26.010	4.41	-18.62	18.305	-0.47824	-0.84668	0.038308	0.5385	0.894	0.2445	0	243	165	3
2026-02-12	16:48:26.030	-10.29	-20.72	16.38	-0.58072	-0.881572	-0.073444	0.5385	0.894	0.2445	0	243	165	3
2026-02-12	16:48:26.050	-37.135	-22.47	6.195	-0.712236	-1.034316	-0.205692	0.5475	0.8895	0.2325	0	243	165	3
2026-02-12	16:48:26.070	-46.97	-22.855	-7.525	-0.702964	-1.231956	-0.307928	0.5415	0.891	0.2385	0	243	165	3
2026-02-12	16:48:26.090	-32.41	-29.155	-13.965	-0.59902	-1.251964	-0.35014	0.546	0.888	0.24	0	243	165	3
2026-02-12	16:48:26.110	-0.385	-38.22	-8.61	-0.609756	-0.91012	-0.277184	0.5565	0.885	0.2505	0	243	165	3
2026-02-12	16:48:26.130	10.64	-38.885	-0.175	-0.632936	-0.691008	-0.186172	0.5565	0.8835	0.243	0	243	165	3
2026-02-12	16:48:26.150	2.415	-34.3	-0.105	-0.626836	-0.578036	-0.092964	0.552	0.873	0.249	0	243	165	3
2026-02-12	16:48:26.170	-16.24	-26.74	-3.325	-0.558516	-0.632936	0.013908	0.5685	0.8895	0.243	0	243	165	3
2026-02-12	16:48:26.190	-29.225	-19.495	-5.075	-0.4819	-0.780068	0.04514	0.5625	0.8835	0.249	0	243	165	3
2026-02-12	16:48:26.210	-27.09	-16.625	-6.23	-0.43554	-0.835212	-0.029524	0.5595	0.8745	0.2445	0	241	135	3
2026-02-12	16:48:26.230	-17.22	-14.945	-5.6	-0.466772	-0.759572	-0.129808	0.5595	0.873	0.2505	0	241	135	3
2026-02-12	16:48:26.250	-15.715	-15.82	-8.015	-0.499956	-0.650504	-0.182512	0.5655	0.876	0.2595	0	241	135	3
2026-02-12	16:48:26.270	-26.565	-19.95	-13.475	-0.504348	-0.666608	-0.188856	0.5655	0.8775	0.2505	0	241	135	3
2026-02-12	16:48:26.290	-34.265	-26.145	-18.585	-0.491172	-0.744444	-0.155428	0.5595	0.8775	0.2595	0	241	135	3
2026-02-12	16:48:26.310	-26.705	-32.83	-23.45	-0.446276	-0.791536	-0.098332	0.5595	0.876	0.2655	0	241	135	3
2026-02-12	16:48:26.330	-14.665	-33.915	-27.02	-0.402356	-0.701988	-0.053192	0.5595	0.876	0.2655	0	241	135	3
2026-02-12	16:48:26.350	-13.79	-28.07	-30.555	-0.399428	-0.698572	-0.007564	0.567	0.8685	0.2565	0	241	135	3
2026-02-12	16:48:26.370	-18.48	-18.83	-33.985	-0.40016	-0.700768	0.030012	0.552	0.8715	0.264	0	241	135	3
2026-02-12	16:48:26.390	-20.86	-9.52	-37.31	-0.400404	-0.724436	-0.008784	0.558	0.867	0.2685	0	241	135	3
2026-02-12	16:48:26.410	-24.36	-2.415	-40.6	-0.43188	-0.765672	-0.103944	0.558	0.8775	0.2655	0	240	120	3
2026-02-12	16:48:26.430	-31.08	2.765	-42.7	-0.433832	-0.855952	-0.211304	0.5505	0.8625	0.2715	0	240	120	3
2026-02-12	16:48:26.450	-39.375	5.425	-44.31	-0.46482	-0.993568	-0.317444	0.549	0.864	0.2775	0	240	120	3
2026-02-12	16:48:26.470	-43.505	6.685	-43.855	-0.499224	-1.289052	-0.479948	0.546	0.858	0.2655	0	240	120	3
2026-02-12	16:48:26.490	-23.66	5.495	-41.65	-0.433588	-1.589904	-0.621712	0.534	0.864	0.285	0	240	120	3
2026-02-12	16:48:26.510	-1.575	-2.975	-34.195	-0.26718	-1.631872	-0.645868	0.537	0.8625	0.285	0	240	120	3
2026-02-12	16:48:26.530	13.125	-1.645	-14.21	-0.116388	-1.691164	-0.362584	0.5265	0.855	0.2865	0	240	120	3
2026-02-12	16:48:26.550	15.33	8.47	-0.385	-0.050996	-1.842444	-0.227652	0.5265	0.855	0.2865	0	240	120	3
2026-02-12	16:48:26.570	43.54	13.475	11.725	0.037332	-1.698972	-0.19276	0.5295	0.8625	0.282	0	240	120	3
2026-02-12	16:48:26.590	78.855	14.945	20.265	0.007076	-1.185596	-0.184708	0.5265	0.8625	0.288	0	240	120	3
2026-02-12	16:48:26.610	78.68	14.7	23.065	-0.020984	-0.859368	-0.154696	0.5265	0.8715	0.267	0	242	130	3
2026-02-12	16:48:26.630	55.755	13.475	20.405	-0.039284	-0.803736	-0.121024	0.5265	0.882	0.264	0	242	130	3
2026-02-12	16:48:26.650	39.515	12.95	16.135	-0.056608	-0.827404	-0.10736	0.531	0.8745	0.258	0	242	130	3
2026-02-12	16:48:26.670	37.905	11.34	13.79	-0.062708	-0.801784	-0.13542	0.5295	0.8805	0.2565	0	242	130	3
2026-02-12	16:48:26.690	43.225	9.135	12.6	-0.074176	-0.754448	-0.16714	0.534	0.8895	0.255	0	242	130	3
2026-02-12	16:48:26.710	46.83	6.265	11.725	-0.10736	-0.691496	-0.16592	0.531	0.8865	0.2445	0	242	130	3
2026-02-12	16:48:26.730	41.265	3.71	10.185	-0.162992	-0.644648	-0.152012	0.5385	0.888	0.231	0	242	130	3
2026-02-12	16:48:26.750	27.685	3.115	8.82	-0.202032	-0.690032	-0.11956	0.537	0.894	0.2295	0	242	130	3
2026-02-12	16:48:26.770	18.62	4.165	8.61	-0.242048	-0.74176	-0.107116	0.537	0.9	0.2295	0	242	130	3
2026-02-12	16:48:26.790	13.72	4.48	7.49	-0.27694	-0.779092	-0.082716	0.5325	0.897	0.228	0	242	130	3
2026-02-12	16:48:26.810	7.035	5.635	5.635	-0.279136	-0.870348	-0.064172	0.5355	0.8985	0.2295	0	250	149	3
2026-02-12	16:48:26.830	1.26	9.24	4.725	-0.303536	-0.945988	-0.069784	0.54	0.9015	0.225	0	250	149	3
2026-02-12	16:48:26.850	-0.77	11.445	6.125	-0.293776	-1.021384	-0.058072	0.54	0.903	0.228	0	250	149	3
2026-02-12	16:48:26.870	2.94	11.795	9.73	-0.26596	-1.098244	-0.045628	0.5415	0.897	0.2205	0	250	149	3
2026-02-12	16:48:26.890	12.915	10.465	15.89	-0.23546	-1.122644	-0.01342	0.531	0.9045	0.2235	0	250	149	3
2026-02-12	16:48:26.910	24.08	9.94	22.82	-0.200568	-1.087508	0.020496	0.5385	0.9075	0.225	0	250	149	3
2026-02-12	16:48:26.930	30.38	11.2	27.86	-0.183976	-1.020164	0.040748	0.5445	0.906	0.219	0	250	149	3
2026-02-12	16:48:26.950	27.3	15.68	27.93	-0.175192	-0.911096	0.082228	0.537	0.9105	0.2325	0	250	149	3
2026-02-12	16:48:26.970	21.105	20.055	23.73	-0.176168	-0.874496	0.1037	0.5475	0.909	0.2235	0	250	149	3
2026-02-12	16:48:26.990	15.4	24.36	18.375	-0.200324	-0.83936	0.127124	0.558	0.909	0.2145	0	250	149	3
2026-02-12	16:48:27.010	9.975	27.65	12.495	-0.225944	-0.8357	0.130052	0.549	0.9045	0.2055	0	259	144	3
2026-02-12	16:48:27.030	4.76	30.52	6.37	-0.274744	-0.821792	0.132492	0.5505	0.906	0.2115	0	259	144	3
2026-02-12	16:48:27.050	-0.455	31.5	-0.105	-0.298656	-0.83204	0.130296	0.543	0.906	0.207	0	259	144	3
2026-02-12	16:48:27.070	-4.62	31.64	-4.83	-0.32696	-0.847656	0.131028	0.5505	0.909	0.2115	0	259	144	3
2026-02-12	16:48:27.090	-6.405	29.365	-7.245	-0.340136	-0.871324	0.118584	0.546	0.9045	0.2115	0	259	144	3
2026-02-12	16:48:27.110	-6.58	26.67	-7.07	-0.359656	-0.882304	0.117852	0.546	0.9165	0.213	0	259	144	3
2026-02-12	16:48:27.130	-5.005	23.695	-5.67	-0.376492	-0.879132	0.11712	0.5415	0.9225	0.216	0	259	144	3
2026-02-12	16:48:27.150	-4.2	19.075	-3.115	-0.389424	-0.883524	0.117364	0.5295	0.9045	0.2085	0	259	144	3
2026-02-12	16:48:27.170	-4.445	13.72	-0.28	-0.386252	-0.888404	0.122488	0.531	0.909	0.2145	0	259	144	3
2026-02-12	16:48:27.190	-4.62	9.31	2.59	-0.39162	-0.897676	0.12322	0.5325	0.915	0.2205	0	259	144	3
2026-02-12	16:48:27.210	-4.27	4.235	5.53	-0.385032	-0.89914	0.127368	0.5265	0.909	0.219	0	265	107	3
2026-02-12	16:48:27.230	-2.8	1.05	8.505	-0.36844	-0.922076	0.138836	0.531	0.9135	0.2235	0	265	107	3
2026-02-12	16:48:27.250	1.4	-1.05	12.425	-0.349896	-0.947208	0.161772	0.5385	0.9135	0.2205	0	265	107	3
2026-02-12	16:48:27.270	8.05	-3.395	17.255	-0.337208	-0.949892	0.172752	0.5295	0.915	0.213	0	265	107	3
2026-02-12	16:48:27.290	15.19	-4.445	21.49	-0.35136	-0.90768	0.148352	0.531	0.918	0.2235	0	265	107	3
2026-02-12	16:48:27.310	10.675	-3.71	23.625	-0.470676	-0.878888	0.04514	0.5295	0.903	0.2145	0	265	107	3
2026-02-12	16:48:27.330	-5.11	-2.835	17.85	-0.560712	-0.990884	-0.070028	0.5385	0.9165	0.2175	0	265	107	3
2026-02-12	16:48:27.350	-16.1	-3.465	6.3	-0.612928	-1.0309	-0.156892	0.549	0.915	0.213	0	265	107	3
2026-02-12	16:48:27.370	-23.59	-13.055	-4.97	-0.620492	-1.024556	-0.28792	0.549	0.915	0.213	0	265	107	3
2026-02-12	16:48:27.390	-19.565	-19.04	-5.46	-0.663192	-0.953064	-0.281576	0.546	0.909	0.2145	0	265	107	3
2026-02-12	16:48:27.410	-16.17	-22.19	-4.97	-0.685884	-0.923052	-0.22692	0.5445	0.9045	0.216	0	266	62	3
2026-02-12	16:48:27.430	-16.835	-22.085	-6.895	-0.660508	-0.930616	-0.131516	0.549	0.9105	0.228	0	266	62	3
2026-02-12	16:48:27.450	-18.55	-17.57	-5.845	-0.597068	-0.956968	-0.053192	0.5415	0.903	0.2265	0	266	62	3
2026-02-12	16:48:27.470	-20.58	-10.955	-1.54	-0.507276	-0.96746	0.061488	0.543	0.9045	0.2355	0	266	62	3
2026-02-12	16:48:27.490	-18.305	-3.535	1.12	-0.447984	-0.950868	0.115656	0.549	0.9015	0.228	0	266	62	3
2026-02-12	16:48:27.510	-2.94	1.89	1.575	-0.435296	-0.81496	0.085156	0.552	0.903	0.2325	0	266	62	3
2026-02-12	16:48:27.530	7.805	3.15	0.21	-0.487268	-0.629276	-0.000244	0.555	0.9015	0.243	0	266	62	3
2026-02-12	16:48:27.550	4.48	-2.135	-4.76	-0.508008	-0.527528	-0.060512	0.5505	0.903	0.2295	0	266	62	3
2026-02-12	16:48:27.570	-13.615	-12.845	-13.335	-0.5307	-0.59292	-0.076128	0.5445	0.894	0.2355	0	266	62	3
2026-02-12	16:48:27.590	-22.575	-25.025	-20.44	-0.51362	-0.697108	-0.0793	0.5415	0.8985	0.234	0	266	62	3
2026-02-12	16:48:27.610	-18.935	-32.55	-24.115	-0.490684	-0.733708	-0.095892	0.54	0.9015	0.234	0	265	40	3
2026-02-12	16:48:27.630	-13.265	-36.855	-26.39	-0.470188	-0.68198	-0.088572	0.543	0.9	0.2355	0	265	40	3
2026-02-12	16:48:27.650	-15.68	-36.715	-27.72	-0.475068	-0.693936	-0.060756	0.5475	0.9	0.237	0	265	40	3
2026-02-12	16:48:27.670	-22.47	-32.585	-28.35	-0.47946	-0.785924	-0.01098	0.54	0.8985	0.237	0	265	40	3
2026-02-12	16:48:27.690	-20.44	-27.79	-27.125	-0.468236	-0.925492	-0.028304	0.5415	0.906	0.2295	0	265	40	3
2026-02-12	16:48:27.710	-5.565	-24.57	-23.66	-0.474824	-1.060424	-0.09857599	0.537	0.8985	0.2355	0	265	40	3
2026-02-12	16:48:27.730	14.945	-24.955	-18.13	-0.505324	-1.113372	-0.162748	0.5415	0.8985	0.2415	0	265	40	3
2026-02-12	16:48:27.750	30.24	-27.72	-12.32	-0.531432	-1.067012	-0.16104	0.5295	0.9015	0.243	0	265	40	3
2026-02-12	16:48:27.770	12.74	-24.535	-11.9	-0.515084	-1.081652	-0.179096	0.5385	0.909	0.228	0	265	40	3
2026-02-12	16:48:27.790	-29.82	-15.015	-13.09	-0.386496	-1.297592	-0.219844	0.5385	0.909	0.228	0	265	40	3
2026-02-12	16:48:27.810	-47.88	-11.83	-10.465	-0.310612	-1.49694	-0.206668	0.54	0.9075	0.234	0	262	40	3
2026-02-12	16:48:27.830	-42.455	-15.33	-5.215	-0.240096	-1.628944	-0.14762	0.543	0.903	0.2415	0	262	40	3
2026-02-12	16:48:27.850	-14.42	-19.215	0.77	-0.139812	-1.516216	-0.11712	0.5445	0.9	0.2415	0	262	40	3
2026-02-12	16:48:27.870	12.95	-19.04	5.285	-0.110776	-1.248548	-0.12444	0.543	0.9	0.249	0	262	40	3
2026-02-12	16:48:27.890	28.035	-19.46	5.495	-0.09394	-1.037488	-0.117364	0.543	0.903	0.24	0	262	40	3
2026-02-12	16:48:27.910	28.84	-19.285	1.68	-0.08174	-0.922808	-0.088816	0.5475	0.894	0.2475	0	262	40	3
2026-02-12	16:48:27.930	24.605	-16.485	-2.625	-0.083204	-0.930616	-0.079788	0.5415	0.909	0.2355	0	262	40	3
2026-02-12	16:48:27.950	24.395	-11.13	-5.495	-0.075396	-0.913292	-0.106628	0.543	0.9075	0.2415	0	262	40	3
2026-02-12	16:48:27.970	25.235	-4.9	-7.315	-0.061732	-0.889136	-0.120292	0.5445	0.9105	0.2355	0	262	40	3
2026-02-12	16:48:27.990	22.645	2.975	-6.755	-0.066612	-0.88572	-0.116144	0.5415	0.9105	0.234	0	262	40	3
2026-02-12	16:48:28.010	24.78	7.595	-5.495	-0.093208	-0.821304	-0.100772	0.54	0.9135	0.228	0	262	55	3
2026-02-12	16:48:28.030	25.06	11.62	-4.62	-0.122732	-0.775432	-0.097112	0.5385	0.915	0.2205	0	262	55	3
2026-02-12	16:48:28.050	19.67	14.77	-4.305	-0.162748	-0.772504	-0.101748	0.5385	0.9135	0.219	0	262	55	3
2026-02-12	16:48:28.070	10.64	16.625	-4.235	-0.19032	-0.797148	-0.100284	0.54	0.9285	0.21	0	262	55	3
2026-02-12	16:48:28.090	0.735	17.675	-4.41	-0.209108	-0.873276	-0.102724	0.5445	0.924	0.213	0	262	55	3
2026-02-12	16:48:28.110	-4.13	19.425	-2.73	-0.212524	-0.948184	-0.0732	0.534	0.9285	0.2145	0	262	55	3
2026-02-12	16:48:28.130	-3.045	21.455	0.35	-0.212768	-1.004548	-0.0488	0.537	0.927	0.2145	0	262	55	3
2026-02-12	16:48:28.150	1.47	23.765	3.64	-0.21228	-1.018944	-0.023668	0.5235	0.9195	0.2175	0	262	55	3
2026-02-12	16:48:28.170	5.775	25.76	5.565	-0.210328	-0.996252	-0.010492	0.534	0.9285	0.2115	0	262	55	3
2026-02-12	16:48:28.190	6.93	28.28	6.79	-0.221796	-0.967216	0.0183	0.528	0.9285	0.2145	0	262	55	3
2026-02-12	16:48:28.210	6.44	28.665	6.335	-0.222284	-0.94794	0.067832	0.531	0.927	0.213	0	261	68	3
2026-02-12	16:48:28.230	7.28	28.035	5.25	-0.217648	-0.950868	0.096624	0.528	0.9285	0.2115	0	261	68	3
2026-02-12	16:48:28.250	9.205	27.895	3.815	-0.219844	-0.95282	0.113216	0.5265	0.927	0.21	0	261	68	3
2026-02-12	16:48:28.270	10.675	28	2.555	-0.227408	-0.942572	0.098332	0.5295	0.9255	0.2085	0	261	68	3
2026-02-12	16:48:28.290	9.45	28.07	1.575	-0.249368	-0.944768	0.08295999	0.525	0.921	0.201	0	261	68	3
2026-02-12	16:48:28.310	8.33	27.09	0.84	-0.278404	-0.9272	0.072224	0.51	0.9285	0.204	0	261	68	3
2026-02-12	16:48:28.330	6.055	25.025	0.14	-0.285236	-0.911096	0.090036	0.5205	0.924	0.213	0	261	68	3
2026-02-12	16:48:28.350	3.08	23.17	-0.175	-0.289872	-0.913536	0.11712	0.5175	0.9315	0.2025	0	261	68	3
2026-02-12	16:48:28.370	0.525	22.26	-0.21	-0.2928	-0.931592	0.140788	0.5145	0.9255	0.2085	0	261	68	3
2026-02-12	16:48:28.390	-0.385	21.385	0.525	-0.304268	-0.943304	0.14762	0.5235	0.93	0.204	0	261	68	3
2026-02-12	16:48:28.410	1.33	20.37	3.15	-0.315248	-0.967704	0.15616	0.5235	0.93	0.204	0	258	58	3
2026-02-12	16:48:28.430	3.92	19.985	6.055	-0.317932	-0.973072	0.162992	0.5205	0.924	0.201	0	258	58	3
2026-02-12	16:48:28.450	7.56	19.355	9.765	-0.310856	-0.957456	0.173484	0.5175	0.9255	0.198	0	258	58	3
2026-02-12	16:48:28.470	12.53	18.795	13.475	-0.30866	-0.907924	0.1586	0.5145	0.93	0.201	0	258	58	3
2026-02-12	16:48:28.490	14.455	18.095	16.03	-0.321104	-0.836188	0.138592	0.513	0.9285	0.204	0	258	58	3
2026-02-12	16:48:28.510	11.025	15.925	16.975	-0.350872	-0.800564	0.126392	0.5235	0.924	0.1965	0	258	58	3
2026-02-12	16:48:28.530	2.135	12.215	17.395	-0.374052	-0.832528	0.12322	0.5175	0.939	0.201	0	258	58	3
2026-02-12	16:48:28.550	-6.09	7.805	19.04	-0.380152	-0.8723	0.142496	0.516	0.93	0.1995	0	258	58	3
2026-02-12	16:48:28.570	-8.225	2.765	22.085	-0.364048	-0.920368	0.16226	0.5325	0.933	0.1935	0	258	58	3
2026-02-12	16:48:28.590	-3.5	-2.45	26.6	-0.359168	-0.926468	0.193736	0.5295	0.9285	0.1995	0	258	58	3
2026-02-12	16:48:28.610	6.58	-8.12	33.25	-0.363072	-0.897432	0.205936	0.5295	0.924	0.2025	0	252	24	2
2026-02-12	16:48:28.630	7.665	-11.9	37.1	-0.488488	-0.826428	0.089304	0.5355	0.9255	0.1995	0	252	24	2
2026-02-12	16:48:28.650	-12.425	-15.505	31.815	-0.603412	-0.90402	-0.054412	0.549	0.927	0.201	0	252	24	2
2026-02-12	16:48:28.670	-35.49	-18.725	19.04	-0.735904	-1.015772	-0.137372	0.5565	0.927	0.204	0	252	24	2
2026-02-12	16:48:28.690	-40.53	-22.575	4.76	-0.701744	-1.1224	-0.219844	0.5595	0.9255	0.204	0	252	24	2
2026-02-12	16:48:28.710	-35.63	-29.26	-4.165	-0.670512	-1.059936	-0.272792	0.5625	0.924	0.2055	0	252	24	2
2026-02-12	16:48:28.730	-26.145	-36.26	-6.23	-0.678564	-0.964532	-0.26474	0.555	0.918	0.207	0	252	24	2
2026-02-12	16:48:28.750	-19.25	-39.41	-2.8	-0.663436	-0.8906	-0.185196	0.5685	0.918	0.213	0	252	24	2
2026-02-12	16:48:28.770	-19.285	-40.215	-0.315	-0.590236	-0.812764	-0.072712	0.57	0.9165	0.2145	0	252	24	2
2026-02-12	16:48:28.790	-22.645	-34.685	1.225	-0.512156	-0.81374	0.019764	0.5715	0.9165	0.219	0	252	24	2
2026-02-12	16:48:28.810	-21.875	-27.615	3.57	-0.441884	-0.82594	0.033916	0.5805	0.909	0.219	0	246	1	3
2026-02-12	16:48:28.830	-11.62	-21.77	5.215	-0.425048	-0.708088	-0.051484	0.5805	0.909	0.219	0	246	1	3
2026-02-12	16:48:28.850	-11.095	-19.985	3.465	-0.45018	-0.594384	-0.084668	0.5805	0.912	0.222	0	246	1	3
2026-02-12	16:48:28.870	-20.755	-21.35	-1.855	-0.477264	-0.567056	-0.085156	0.582	0.915	0.2205	0	246	1	3
2026-02-12	16:48:28.890	-32.55	-25.165	-9.415	-0.480436	-0.594872	-0.060756	0.5835	0.9135	0.2175	0	246	1	3
2026-02-12	16:48:28.910	-37.695	-28.735	-16.485	-0.46238	-0.65758	-0.005124	0.585	0.915	0.2205	0	246	1	3
2026-02-12	16:48:28.930	-35.7	-27.79	-21.77	-0.455548	-0.708088	0.02074	0.5805	0.909	0.2235	0	246	1	3
2026-02-12	16:48:28.950	-34.545	-22.4	-24.115	-0.468236	-0.773968	0.020008	0.5865	0.906	0.225	0	246	1	3
2026-02-12	16:48:28.970	-34.02	-16.555	-25.13	-0.47946	-0.838628	0.017568	0.5745	0.903	0.2355	0	246	1	3
2026-02-12	16:48:28.990	-29.225	-9.555	-24.045	-0.492636	-0.916708	-0.000732	0.576	0.8985	0.24	0	246	1	3
2026-02-12	16:48:29.010	-15.89	-2.555	-21.735	-0.505812	-0.942084	-0.02928	0.5715	0.8985	0.2325	0	240	2	3
2026-02-12	16:48:29.030	2.275	4.725	-19.915	-0.532896	-0.905484	-0.095648	0.579	0.9045	0.2385	0	240	2	3
2026-02-12	16:48:29.050	5.6	5.81	-20.3	-0.539484	-0.941108	-0.14884	0.5745	0.903	0.24	0	240	2	3
2026-02-12	16:48:29.070	9.625	3.465	-20.51	-0.518988	-1.039928	-0.213256	0.5745	0.906	0.246	0	240	2	3
2026-02-12	16:48:29.090	15.855	-2.03	-15.505	-0.527772	-1.109224	-0.232776	0.57	0.909	0.2445	0	240	2	3
2026-02-12	16:48:29.110	14.525	-7.875	-9.1	-0.619516	-1.133624	-0.244488	0.564	0.909	0.2355	0	240	2	3
2026-02-12	16:48:29.130	-2.625	-9.135	-2.835	-0.602924	-1.320772	-0.2928	0.567	0.9105	0.231	0	240	2	3
2026-02-12	16:48:29.150	-14.595	-9.24	3.36	-0.508496	-1.300764	-0.276452	0.576	0.912	0.237	0	240	2	3
2026-02-12	16:48:29.170	-29.785	-13.3	7.63	-0.379664	-1.447164	-0.264496	0.5685	0.912	0.2355	0	240	2	3
2026-02-12	16:48:29.190	-21.245	-21.385	11.2	-0.314028	-1.511336	-0.217404	0.57	0.9045	0.2385	0	240	2	3
2026-02-12	16:48:29.210	1.855	-28.735	14.525	-0.23668	-1.41886	-0.14274	0.582	0.903	0.2325	0	237	22	3
2026-02-12	16:48:29.230	29.96	-28.385	16.38	-0.134444	-1.247084	-0.081984	0.585	0.906	0.2445	0	237	22	3
2026-02-12	16:48:29.250	48.965	-22.435	14.875	-0.088328	-0.963068	-0.04392	0.585	0.906	0.2445	0	237	22	3
2026-02-12	16:48:29.270	51.1	-13.44	9.835	-0.092232	-0.863272	-0.040016	0.5955	0.912	0.231	0	237	22	3
2026-02-12	16:48:29.290	47.46	-4.83	3.64	-0.106628	-0.762012	-0.056364	0.603	0.918	0.2175	0	237	22	3
2026-02-12	16:48:29.310	35.91	1.365	-1.995	-0.128832	-0.759816	-0.094916	0.6	0.9165	0.21	0	237	22	3
2026-02-12	16:48:29.330	29.365	3.955	-6.335	-0.14274	-0.77592	-0.121268	0.6015	0.918	0.204	0	237	22	3
2026-02-12	16:48:29.350	26.005	5.705	-7.315	-0.151768	-0.791048	-0.10126	0.603	0.921	0.2055	0	237	22	3
2026-02-12	16:48:29.370	25.48	7.21	-7.14	-0.17934	-0.773968	-0.081496	0.603	0.9225	0.1965	0	237	22	3
2026-02-12	16:48:29.390	22.4	10.465	-6.37	-0.209352	-0.752984	-0.06734399	0.5985	0.9165	0.2025	0	237	22	3
2026-02-12	16:48:29.410	14.56	15.715	-6.195	-0.250588	-0.767624	-0.060024	0.603	0.927	0.198	0	238	49	3
2026-02-12	16:48:29.430	5.39	21.77	-5.495	-0.279136	-0.804468	-0.053436	0.597	0.93	0.195	0	238	49	3
2026-02-12	16:48:29.450	-4.27	29.085	-3.36	-0.296704	-0.900116	-0.038308	0.597	0.9315	0.1995	0	238	49	3
2026-02-12	16:48:29.470	-3.71	32.095	-0.455	-0.305732	-0.95038	-0.022692	0.591	0.9285	0.201	0	238	49	3
2026-02-12	16:48:29.490	0.735	34.475	2.8	-0.308904	-0.967948	-0.011468	0.585	0.924	0.2055	0	238	49	3
2026-02-12	16:48:29.510	5.775	35.805	6.335	-0.304024	-1.002596	0.00488	0.5895	0.9225	0.207	0	238	49	3
2026-02-12	16:48:29.530	11.76	36.4	8.645	-0.306952	-0.975512	0.012444	0.594	0.927	0.207	0	238	49	3
2026-02-12	16:48:29.550	16.905	36.05	9.555	-0.301828	-0.964776	0.016348	0.5955	0.9285	0.2055	0	238	49	3
2026-02-12	16:48:29.570	18.9	34.895	9.905	-0.302316	-0.93696	0.016592	0.5925	0.927	0.1965	0	238	49	3
2026-02-12	16:48:29.590	19.285	33.32	9.275	-0.304756	-0.898408	0.014396	0.588	0.9225	0.201	0	238	49	3
2026-02-12	16:48:29.610	15.855	32.06	7.7	-0.310368	-0.893528	0.020496	0.582	0.9255	0.1905	0	240	61	3
2026-02-12	16:48:29.630	11.41	31.15	5.53	-0.3111	-0.903288	0.042944	0.5895	0.9285	0.2025	0	240	61	3
2026-02-12	16:48:29.650	7.63	30.695	2.94	-0.32574	-0.911584	0.051484	0.594	0.9315	0.192	0	240	61	3
2026-02-12	16:48:29.670	3.85	30.03	0.875	-0.344772	-0.928176	0.062952	0.5895	0.93	0.1935	0	240	61	3
2026-02-12	16:48:29.690	2.905	29.68	-0.35	-0.357216	-0.942816	0.085156	0.585	0.933	0.1995	0	240	61	3
2026-02-12	16:48:29.710	3.325	28.98	-0.805	-0.360632	-0.942084	0.103456	0.5865	0.9315	0.2025	0	240	61	3
2026-02-12	16:48:29.730	3.885	27.58	-0.56	-0.375272	-0.935008	0.113704	0.585	0.927	0.201	0	240	61	3
2026-02-12	16:48:29.750	4.76	26.46	-0.63	-0.384056	-0.905484	0.113216	0.582	0.9285	0.201	0	240	61	3
2026-02-12	16:48:29.770	4.095	24.185	-0.385	-0.39894	-0.885232	0.11468	0.582	0.9285	0.201	0	240	61	3
2026-02-12	16:48:29.790	1.54	21.77	-1.085	-0.412116	-0.87718	0.122244	0.585	0.9345	0.204	0	240	61	3
2026-02-12	16:48:29.810	-1.82	19.04	-1.4	-0.416752	-0.897188	0.13908	0.5775	0.9195	0.201	0	239	49	3
2026-02-12	16:48:29.830	-2.835	15.575	-0.875	-0.424316	-0.913048	0.15738	0.576	0.93	0.2145	0	239	49	3
2026-02-12	16:48:29.850	-0.175	11.55	0.77	-0.419192	-0.93086	0.174216	0.582	0.9405	0.2055	0	239	49	3
2026-02-12	16:48:29.870	6.335	4.445	4.865	-0.413092	-0.87962	0.14518	0.582	0.9405	0.2055	0	239	49	3
2026-02-12	16:48:29.890	8.89	-2.275	8.05	-0.419436	-0.860832	0.103212	0.5805	0.9345	0.204	0	239	49	3
2026-02-12	16:48:29.910	7.665	-10.22	10.57	-0.422852	-0.846436	0.093208	0.576	0.927	0.204	0	239	49	3
2026-02-12	16:48:29.930	4.865	-16.835	13.125	-0.406748	-0.863028	0.096136	0.576	0.93	0.1995	0	239	49	3
2026-02-12	16:48:29.950	4.235	-21.945	16.1	-0.38186	-0.879376	0.113704	0.582	0.93	0.201	0	239	49	3
2026-02-12	16:48:29.970	6.265	-25.62	19.915	-0.365756	-0.873032	0.16348	0.5895	0.9255	0.207	0	239	49	3
2026-02-12	16:48:29.990	9.24	-27.16	23.87	-0.400648	-0.8235	0.139568	0.594	0.924	0.21	0	239	49	3
2026-02-12	16:48:30.010	-4.55	-22.505	19.67	-0.555832	-0.900604	-0.044408	0.594	0.924	0.21	0	233	19	3
2026-02-12	16:48:30.030	-19.88	-21.875	8.435	-0.67344	-0.983076	-0.10004	0.6	0.9255	0.1935	0	233	19	3
2026-02-12	16:48:30.050	-35.595	-21.735	-4.27	-0.640256	-1.064084	-0.167384	0.6015	0.9255	0.1965	0	233	19	3
2026-02-12	16:48:30.070	-39.69	-25.76	-10.43	-0.613416	-1.02846	-0.222284	0.6105	0.927	0.213	0	233	19	3
2026-02-12	16:48:30.090	-28.175	-29.4	-5.775	-0.650992	-0.857416	-0.143716	0.6	0.918	0.2085	0	233	19	3
2026-02-12	16:48:30.110	-26.355	-28.595	-1.89	-0.631228	-0.75518	-0.036844	0.609	0.9165	0.21	0	233	19	3
2026-02-12	16:48:30.130	-34.475	-22.89	-0.105	-0.607072	-0.753228	0.082472	0.615	0.918	0.213	0	233	19	3
2026-02-12	16:48:30.150	-41.72	-18.83	-0.315	-0.526796	-0.885476	0.119316	0.612	0.9165	0.21	0	233	19	3
2026-02-12	16:48:30.170	-33.32	-15.855	-0.21	-0.476288	-0.920124	0.024156	0.615	0.912	0.2115	0	233	19	3
2026-02-12	16:48:30.190	-19.985	-14.385	0.77	-0.47824	-0.86742	-0.086132	0.618	0.9105	0.2175	0	233	19	3
2026-02-12	16:48:30.210	-8.155	-16.87	-0.175	-0.477996	-0.756644	-0.13786	0.6165	0.9105	0.228	0	227	0	3
2026-02-12	16:48:30.230	-7.07	-20.86	-3.955	-0.480436	-0.6344	-0.130052	0.6165	0.9045	0.222	0	227	0	3
2026-02-12	16:48:30.250	-18.655	-24.255	-10.92	-0.4758	-0.600484	-0.092232	0.624	0.912	0.2235	0	227	0	3
2026-02-12	16:48:30.270	-31.255	-27.79	-19.005	-0.457256	-0.661484	-0.036356	0.6255	0.9045	0.222	0	227	0	3
2026-02-12	16:48:30.290	-34.16	-28.28	-25.725	-0.431392	-0.665388	0.00976	0.6195	0.9	0.2325	0	227	0	3
2026-02-12	16:48:30.310	-32.69	-24.605	-30.135	-0.434564	-0.707356	0.030988	0.6255	0.9045	0.2355	0	227	0	3
2026-02-12	16:48:30.330	-33.74	-16.835	-31.71	-0.465308	-0.765672	0.020496	0.627	0.906	0.234	0	227	0	3
2026-02-12	16:48:30.350	-29.47	-10.465	-29.89	-0.495808	-0.855464	-0.017812	0.627	0.906	0.234	0	227	0	3
2026-02-12	16:48:30.370	-19.985	-6.615	-26.53	-0.507032	-0.853756	-0.041236	0.6225	0.906	0.234	0	227	0	3
2026-02-12	16:48:30.390	-13.02	-2.8	-24.01	-0.51972	-0.843996	-0.06344	0.6135	0.9015	0.2355	0	227	0	3
2026-02-12	16:48:30.410	-11.2	-0.595	-23.45	-0.526064	-0.889624	-0.092232	0.6075	0.8985	0.2385	0	220	0	3
2026-02-12	16:48:30.430	-9.205	0.315	-23.975	-0.52582	-0.993812	-0.1281	0.609	0.9135	0.243	0	220	0	3
2026-02-12	16:48:30.450	-3.92	0.63	-23.555	-0.512644	-1.0919	-0.142252	0.6015	0.9	0.237	0	220	0	3
2026-02-12	16:48:30.470	-1.505	2.975	-22.995	-0.515084	-1.123864	-0.153232	0.612	0.9015	0.2265	0	220	0	3
2026-02-12	16:48:30.490	-18.025	10.85	-24.29	-0.526308	-1.228296	-0.228872	0.6015	0.9075	0.2415	0	220	0	3
2026-02-12	16:48:30.510	-41.86	18.865	-23.695	-0.432856	-1.458388	-0.32452	0.6015	0.8985	0.2445	0	220	0	3
2026-02-12	16:48:30.530	-41.615	16.66	-15.925	-0.348432	-1.597468	-0.317932	0.5925	0.906	0.2475	0	220	0	3
2026-02-12	16:48:30.550	-19.705	7.525	-7.7	-0.301096	-1.604056	-0.238144	0.591	0.903	0.2505	0	220	0	3
2026-02-12	16:48:30.570	12.18	-1.75	-0.7	-0.19642	-1.496696	-0.195444	0.5865	0.9	0.2595	0	220	0	3
2026-02-12	16:48:30.590	40.285	-3.57	3.115	-0.122488	-1.162416	-0.199836	0.6015	0.9015	0.2505	0	220	0	3
2026-02-12	16:48:30.610	53.2	-6.79	2.695	-0.103456	-0.837896	-0.1891	0.6015	0.9015	0.2505	0	216	22	3
2026-02-12	16:48:30.630	46.9	-8.82	-0.245	-0.122244	-0.740784	-0.17812	0.5925	0.9075	0.243	0	216	22	3
2026-02-12	16:48:30.650	33.04	-5.95	-2.765	-0.125416	-0.68686	-0.160064	0.5925	0.915	0.2325	0	216	22	3
2026-02-12	16:48:30.670	9.625	-0.665	-3.78	-0.121756	-0.820572	-0.206668	0.5985	0.9135	0.2295	0	216	22	3
2026-02-12	16:48:30.690	9.835	-0.63	-3.36	-0.113216	-0.883036	-0.25132	0.597	0.9165	0.225	0	216	22	3
2026-02-12	16:48:30.710	22.015	-2.975	-0.56	-0.114924	-0.792512	-0.236192	0.5955	0.9195	0.222	0	216	22	3
2026-02-12	16:48:30.730	18.725	-2.24	1.295	-0.115656	-0.795196	-0.203496	0.606	0.9105	0.219	0	216	22	3
2026-02-12	16:48:30.750	12.46	1.225	2.205	-0.16714	-0.77836	-0.16714	0.6	0.9225	0.2205	0	216	22	3
2026-02-12	16:48:30.770	6.125	4.235	1.96	-0.209596	-0.793244	-0.154208	0.5925	0.921	0.216	0	216	22	3
2026-02-12	16:48:30.790	0.035	7.28	0.42	-0.235948	-0.830332	-0.141764	0.597	0.924	0.213	0	216	22	3
2026-02-12	16:48:30.810	-7.35	9.73	-0.385	-0.23058	-0.90524	-0.11346	0.603	0.921	0.216	0	217	58	3
2026-02-12	16:48:30.830	-10.43	12.985	1.05	-0.215452	-0.99674	-0.09638	0.5985	0.9255	0.222	0	217	58	3
2026-02-12	16:48:30.850	-3.71	17.71	7.665	-0.194956	-1.046516	-0.046604	0.5985	0.9255	0.222	0	217	58	3
2026-02-12	16:48:30.870	5.04	21.42	11.655	-0.184464	-1.025776	-0.01098	0.5985	0.9255	0.222	0	217	58	3
2026-02-12	16:48:30.890	12.53	25.725	13.23	-0.180804	-0.997472	-0.006344	0.591	0.918	0.2205	0	217	58	3
2026-02-12	16:48:30.910	16.66	30.73	12.81	-0.179828	-0.9699	-0.013908	0.6	0.9225	0.219	0	217	58	3
2026-02-12	16:48:30.930	18.795	34.93	11.025	-0.19398	-0.945012	-0.019764	0.594	0.918	0.2175	0	217	58	3
2026-02-12	16:48:30.950	18.83	37.765	8.085	-0.205448	-0.907924	-0.011712	0.606	0.921	0.222	0	217	58	3
2026-02-12	16:48:30.970	15.435	40.215	4.865	-0.214476	-0.92476	-0.002684	0.5925	0.918	0.216	0	217	58	3
2026-02-12	16:48:30.990	11.06	43.295	2.52	-0.234972	-0.935008	0.004148	0.594	0.924	0.21	0	217	58	3
2026-02-12	16:48:31.010	8.61	45.325	0.595	-0.246928	-0.943792	0.023424	0.5895	0.9195	0.213	0	221	81	3
2026-02-12	16:48:31.030	7.35	45.29	-0.84	-0.273524	-0.923052	0.029524	0.5925	0.921	0.216	0	221	81	3
2026-02-12	16:48:31.050	4.865	44.24	-2.555	-0.30256	-0.917928	0.037332	0.5865	0.927	0.216	0	221	81	3
2026-02-12	16:48:31.070	2.03	42.665	-4.025	-0.327448	-0.94184	0.034404	0.5895	0.927	0.2145	0	221	81	3
2026-02-12	16:48:31.090	1.645	38.15	-4.585	-0.355264	-0.958432	0.042456	0.5925	0.927	0.213	0	221	81	3
2026-02-12	16:48:31.110	3.92	33.95	-2.555	-0.364536	-0.95404	0.049288	0.573	0.924	0.219	0	221	81	3
2026-02-12	16:48:31.130	6.51	29.68	0.805	-0.375516	-0.94916	0.060024	0.5715	0.924	0.2205	0	221	81	3
2026-02-12	16:48:31.150	8.82	25.48	4.025	-0.394792	-0.941352	0.083692	0.567	0.921	0.219	0	221	81	3
2026-02-12	16:48:31.170	10.01	21.91	6.72	-0.398696	-0.9333	0.093208	0.5655	0.9225	0.219	0	221	81	3
2026-02-12	16:48:31.190	9.275	19.25	9.1	-0.400892	-0.92232	0.09272	0.567	0.9225	0.225	0	221	81	3
2026-02-12	16:48:31.210	8.855	15.785	11.515	-0.406992	-0.931104	0.091988	0.5655	0.9195	0.216	0	222	74	3
2026-02-12	16:48:31.230	9.24	11.445	13.755	-0.41236	-0.904752	0.07076	0.5685	0.9195	0.2175	0	222	74	3
2026-02-12	16:48:31.250	7.455	6.685	15.26	-0.427244	-0.88816	0.058316	0.579	0.915	0.2235	0	222	74	3
2026-02-12	16:48:31.270	3.745	0.49	16.275	-0.433832	-0.882304	0.050996	0.573	0.924	0.2175	0	222	74	3
2026-02-12	16:48:31.290	2.8	-9.555	17.99	-0.418948	-0.888404	0.058316	0.5715	0.921	0.2175	0	222	74	3
2026-02-12	16:48:31.310	5.67	-21.035	21.525	-0.423584	-0.887184	0.075396	0.57	0.9195	0.219	0	222	74	3
2026-02-12	16:48:31.330	9.87	-30.485	24.745	-0.430904	-0.856196	0.053192	0.5925	0.915	0.2145	0	222	74	3
2026-02-12	16:48:31.350	6.51	-37.24	25.235	-0.517036	-0.841556	-0.0366	0.597	0.927	0.2115	0	222	74	3
2026-02-12	16:48:31.370	-9.135	-41.405	19.355	-0.607804	-0.90768	-0.130052	0.5955	0.9135	0.2055	0	222	74	3
2026-02-12	16:48:31.390	-26.67	-43.75	8.19	-0.679296	-1.007476	-0.199592	0.5985	0.918	0.201	0	222	74	3
2026-02-12	16:48:31.410	-36.47	-44.625	-2.905	-0.6771	-1.07726	-0.2684	0.6075	0.918	0.198	0	220	53	3
2026-02-12	16:48:31.430	-38.325	-44.835	-7.035	-0.681248	-1.148752	-0.276208	0.6075	0.918	0.21	0	220	53	3
2026-02-12	16:48:31.450	-24.36	-44.66	-1.785	-0.639524	-1.060912	-0.200324	0.6105	0.918	0.222	0	220	53	3
2026-02-12	16:48:31.470	-9.17	-44.8	7.91	-0.58438	-0.99796	-0.048068	0.6165	0.909	0.2115	0	220	53	3
2026-02-12	16:48:31.490	4.76	-43.435	14.875	-0.523624	-0.883524	0.091744	0.618	0.9135	0.2115	0	220	53	3
2026-02-12	16:48:31.510	7.945	-35.315	15.96	-0.44164	-0.752984	0.098332	0.6195	0.9195	0.2115	0	220	53	3
2026-02-12	16:48:31.530	6.405	-30.485	14.595	-0.448472	-0.708576	-0.033916	0.6315	0.9105	0.207	0	220	53	3
2026-02-12	16:48:31.550	4.305	-31.185	10.115	-0.452376	-0.618784	-0.144936	0.6375	0.9195	0.21	0	220	53	3
2026-02-12	16:48:31.570	-3.85	-35.98	3.115	-0.46238	-0.548024	-0.16958	0.639	0.9075	0.195	0	220	53	3
2026-02-12	16:48:31.590	-18.34	-40.95	-5.81	-0.474092	-0.535336	-0.164944	0.6345	0.915	0.204	0	220	53	3
2026-02-12	16:48:31.610	-32.06	-44.94	-15.12	-0.453596	-0.591944	-0.13908	0.6465	0.9045	0.1995	0	219	45	3
2026-02-12	16:48:31.630	-34.02	-46.165	-22.75	-0.426512	-0.626592	-0.102968	0.645	0.9105	0.204	0	219	45	3
2026-02-12	16:48:31.650	-31.185	-43.33	-27.79	-0.405528	-0.651236	-0.074176	0.6375	0.9195	0.21	0	219	45	3
2026-02-12	16:48:31.670	-36.155	-33.845	-30.415	-0.412848	-0.72712	-0.034892	0.6405	0.903	0.2085	0	219	45	3
2026-02-12	16:48:31.690	-40.39	-20.895	-31.745	-0.431392	-0.829112	0.00854	0.6435	0.9195	0.216	0	219	45	3
2026-02-12	16:48:31.710	-31.535	-6.44	-27.335	-0.48678	-1.021872	0.012444	0.6405	0.915	0.216	0	219	45	3
2026-02-12	16:48:31.730	-2.94	-0.28	-16.8	-0.512644	-1.110688	-0.018788	0.6375	0.912	0.216	0	219	45	3
2026-02-12	16:48:31.750	20.545	-0.875	-7	-0.545828	-0.972096	-0.04392	0.63	0.903	0.219	0	219	45	3
2026-02-12	16:48:31.770	18.515	1.54	-3.92	-0.466772	-1.041636	-0.064904	0.633	0.912	0.2175	0	219	45	3
2026-02-12	16:48:31.790	16.87	9.555	-1.785	-0.553148	-1.103612	-0.165676	0.636	0.909	0.213	0	219	45	3
2026-02-12	16:48:31.810	19.11	18.55	-4.41	-0.582672	-1.12728	-0.284748	0.627	0.912	0.225	0	218	50	3
2026-02-12	16:48:31.830	-11.06	28.35	-10.745	-0.417972	-1.20414	-0.393816	0.63	0.912	0.2085	0	218	50	3
2026-02-12	16:48:31.850	-54.46	33.67	-12.495	-0.329888	-1.387384	-0.452376	0.6195	0.9195	0.2175	0	218	50	3
2026-02-12	16:48:31.870	-62.405	24.255	-6.615	-0.3416	-1.495476	-0.400648	0.6345	0.9195	0.222	0	218	50	3
2026-02-12	16:48:31.890	-36.61	7.14	3.71	-0.273768	-1.463024	-0.250344	0.618	0.9105	0.2235	0	218	50	3
2026-02-12	16:48:31.910	-4.06	-0.77	10.955	-0.18178	-1.292956	-0.121756	0.621	0.909	0.2355	0	218	50	3
2026-02-12	16:48:31.930	28.665	-6.895	7.84	-0.122244	-0.8723	-0.051972	0.621	0.909	0.2355	0	218	50	3
2026-02-12	16:48:31.950	24.535	-4.41	2.24	-0.106872	-0.813008	-0.040504	0.621	0.9045	0.231	0	218	50	3
2026-02-12	16:48:31.970	11.76	1.715	-2.45	-0.11712	-0.841312	-0.077836	0.6255	0.912	0.228	0	218	50	3
2026-02-12	16:48:31.990	8.505	4.13	-5.74	-0.122732	-0.85766	-0.147132	0.6255	0.906	0.231	0	218	50	3
2026-02-12	16:48:32.010	11.06	5.145	-5.425	-0.134688	-0.876204	-0.18788	0.6195	0.9105	0.2265	0	221	72	3
2026-02-12	16:48:32.030	17.22	3.955	-2.905	-0.145668	-0.836676	-0.1952	0.6165	0.915	0.2235	0	221	72	3
2026-02-12	16:48:32.050	20.37	3.01	-0.385	-0.17202	-0.802516	-0.17812	0.6135	0.9225	0.225	0	221	72	3
2026-02-12	16:48:32.070	19.285	2.73	1.435	-0.208132	-0.76494	-0.15738	0.6135	0.924	0.2235	0	221	72	3
2026-02-12	16:48:32.090	14.56	3.535	1.645	-0.261324	-0.761768	-0.144448	0.627	0.918	0.2115	0	221	72	3
2026-02-12	16:48:32.110	8.225	5.53	-0.175	-0.28426	-0.809104	-0.128344	0.624	0.924	0.219	0	221	72	3
2026-02-12	16:48:32.130	1.89	10.15	1.015	-0.283528	-0.899384	-0.099308	0.618	0.921	0.219	0	221	72	3
2026-02-12	16:48:32.150	1.12	13.615	5.53	-0.292556	-0.955992	-0.074664	0.6135	0.918	0.219	0	221	72	3
2026-02-12	16:48:32.170	1.4	16.555	10.36	-0.295972	-1.000644	-0.054656	0.6165	0.9165	0.219	0	221	72	3
2026-02-12	16:48:32.190	3.01	19.355	14.735	-0.302316	-1.02602	-0.027816	0.618	0.9195	0.2145	0	221	72	3
2026-02-12	16:48:32.210	7.91	21.07	17.465	-0.29402	-1.014064	-0.0183	0.6285	0.9105	0.2205	0	226	94	3
2026-02-12	16:48:32.230	12.95	21.7	18.76	-0.29402	-0.998204	-0.028548	0.615	0.9135	0.2205	0	226	94	3
2026-02-12	16:48:32.250	16.975	20.37	19.53	-0.30256	-0.959652	-0.037332	0.612	0.9195	0.2175	0	226	94	3
2026-02-12	16:48:32.270	19.075	17.99	19.11	-0.30988	-0.917196	-0.042212	0.621	0.918	0.21	0	226	94	3
2026-02-12	16:48:32.290	18.655	15.575	18.025	-0.310612	-0.876936	-0.020984	0.618	0.915	0.216	0	226	94	3
2026-02-12	16:48:32.310	15.75	13.93	15.645	-0.328912	-0.854732	-0.01586	0.621	0.921	0.2205	0	226	94	3
2026-02-12	16:48:32.330	9.87	13.44	12.67	-0.337208	-0.853024	0.0122	0.6225	0.915	0.2145	0	226	94	3
2026-02-12	16:48:32.350	1.085	16.345	7.56	-0.337208	-0.9211	0.051728	0.6225	0.915	0.2145	0	226	94	3
2026-02-12	16:48:32.370	-0.63	20.055	5.285	-0.33428	-0.959408	0.060756	0.621	0.9135	0.216	0	226	94	3
2026-02-12	16:48:32.390	0.7	23.17	4.235	-0.345748	-0.968924	0.05124	0.6315	0.915	0.2145	0	226	94	3
2026-02-12	16:48:32.410	3.885	24.15	3.115	-0.355264	-0.91134	0.049776	0.6225	0.9165	0.2175	0	229	95	3
2026-02-12	16:48:32.430	4.305	23.695	1.995	-0.369172	-0.902312	0.038064	0.624	0.921	0.2115	0	229	95	3
2026-02-12	16:48:32.450	1.995	20.755	-0.14	-0.369416	-0.878644	0.042456	0.615	0.9195	0.216	0	229	95	3
2026-02-12	16:48:32.470	-0.105	16.94	-2.205	-0.380152	-0.866688	0.043188	0.6225	0.9135	0.2235	0	229	95	3
2026-02-12	16:48:32.490	-1.225	12.67	-3.85	-0.380152	-0.874008	0.05124	0.6195	0.9165	0.216	0	229	95	3
2026-02-12	16:48:32.510	-2.03	9.485	-5.18	-0.386008	-0.86376	0.065392	0.615	0.924	0.2145	0	229	95	3
2026-02-12	16:48:32.530	-4.13	7.56	-5.425	-0.378444	-0.893528	0.095892	0.612	0.9135	0.2145	0	229	95	3
2026-02-12	16:48:32.550	-4.655	6.86	-4.41	-0.381616	-0.926956	0.123708	0.612	0.9225	0.2235	0	229	95	3
2026-02-12	16:48:32.570	-2.17	5.81	-2.135	-0.409432	-0.936716	0.12078	0.612	0.9225	0.2235	0	229	95	3
2026-02-12	16:48:32.590	3.08	3.01	1.015	-0.432612	-0.934276	0.081984	0.6195	0.9225	0.2205	0	229	95	3
2026-02-12	16:48:32.610	11.375	-2.765	5.495	-0.482388	-0.932324	0.043432	0.612	0.9195	0.2205	0	226	74	3
2026-02-12	16:48:32.630	21	-12.215	11.83	-0.463112	-0.94672	0.047824	0.6165	0.9225	0.2175	0	226	74	3
2026-02-12	16:48:32.650	32.935	-21.7	21.455	-0.410408	-0.932324	0.102968	0.6135	0.921	0.2235	0	226	74	3
2026-02-12	16:48:32.670	44.52	-28.035	31.535	-0.402844	-0.828868	0.071004	0.6105	0.9225	0.213	0	226	74	3
2026-02-12	16:48:32.690	42.525	-29.54	35.105	-0.48922	-0.681248	-0.072468	0.6285	0.9195	0.2085	0	226	74	3
2026-02-12	16:48:32.710	14.455	-28	22.225	-0.693692	-0.620248	-0.182268	0.6285	0.9225	0.2025	0	226	74	3
2026-02-12	16:48:32.730	-32.83	-28.42	-0.805	-0.827892	-0.723704	-0.286456	0.6285	0.9225	0.201	0	226	74	3
2026-02-12	16:48:32.750	-70.805	-26.845	-28.7	-0.854488	-0.964532	-0.378932	0.627	0.924	0.198	0	226	74	3
2026-02-12	16:48:32.770	-65.8	-27.265	-37.17	-0.739564	-1.183888	-0.363804	0.627	0.924	0.198	0	226	74	3
2026-02-12	16:48:32.790	-44.66	-33.145	-28.665	-0.605364	-1.084092	-0.300852	0.6315	0.915	0.216	0	226	74	3
2026-02-12	16:48:32.810	-35.315	-31.78	-12.775	-0.486048	-0.987712	-0.122976	0.6315	0.918	0.2175	0	222	54	3
2026-02-12	16:48:32.830	-19.32	-25.13	7.84	-0.46482	-0.842776	0.202764	0.63	0.9105	0.228	0	222	54	3
2026-02-12	16:48:32.850	-4.34	-23.73	13.195	-0.31964	-0.7381	0.273524	0.627	0.9045	0.234	0	222	54	3
2026-02-12	16:48:32.870	6.23	-17.255	3.99	-0.437492	-0.488488	0.074664	0.636	0.909	0.219	0	222	54	3
2026-02-12	16:48:32.890	-10.57	-14.56	-7.175	-0.514596	-0.43188	-0.10004	0.636	0.9	0.225	0	222	54	3
2026-02-12	16:48:32.910	-41.3	-15.26	-23.38	-0.526064	-0.594628	-0.165676	0.6285	0.909	0.2265	0	222	54	3
2026-02-12	16:48:32.930	-59.605	-20.93	-33.565	-0.496784	-0.798856	-0.202276	0.636	0.9105	0.2265	0	222	54	3
2026-02-12	16:48:32.950	-50.75	-28.91	-36.785	-0.48678	-0.912804	-0.193736	0.642	0.9105	0.237	0	222	54	3
2026-02-12	16:48:32.970	-25.83	-35.14	-33.46	-0.465064	-0.855952	-0.159088	0.615	0.909	0.2415	0	222	54	3
2026-02-12	16:48:32.990	-13.3	-33.775	-29.96	-0.445788	-0.818376	-0.059536	0.6255	0.909	0.2415	0	222	54	3
2026-02-12	16:48:33.010	-9.765	-25.62	-28.105	-0.42944	-0.823988	0.032452	0.6255	0.909	0.2445	0	221	50	3
2026-02-12	16:48:33.030	-6.58	-13.16	-27.3	-0.399672	-0.85766	0.0854	0.624	0.906	0.2355	0	221	50	3
2026-02-12	16:48:33.050	3.465	-1.085	-28.175	-0.39406	-0.885476	0.023912	0.6195	0.9045	0.2505	0	221	50	3
2026-02-12	16:48:33.070	7.665	8.89	-29.925	-0.465064	-0.89426	-0.104676	0.6075	0.912	0.2415	0	221	50	3
2026-02-12	16:48:33.090	3.955	14.385	-32.025	-0.472384	-1.02602	-0.20862	0.618	0.906	0.2415	0	221	50	3
2026-02-12	16:48:33.110	1.19	17.78	-30.73	-0.469944	-1.107516	-0.270108	0.609	0.9105	0.2445	0	221	50	3
2026-02-12	16:48:33.130	-9.415	20.02	-27.475	-0.47214	-1.267092	-0.348188	0.6015	0.9135	0.2445	0	221	50	3
2026-02-12	16:48:33.150	-18.69	17.745	-22.435	-0.395768	-1.460096	-0.41724	0.6045	0.9075	0.2415	0	221	50	3
2026-02-12	16:48:33.170	-15.26	9.24	-13.58	-0.336476	-1.476688	-0.381372	0.5925	0.909	0.24	0	221	50	3
2026-02-12	16:48:33.190	1.365	0.805	-4.27	-0.305	-1.35298	-0.244488	0.5955	0.906	0.255	0	221	50	3
2026-02-12	16:48:33.210	0.175	0.035	-6.09	-0.176656	-1.300276	-0.168604	0.582	0.9045	0.2505	0	221	63	3
2026-02-12	16:48:33.230	0.56	-1.855	-8.19	-0.068808	-1.27856	-0.171044	0.579	0.906	0.2505	0	221	63	3
2026-02-12	16:48:33.250	14.245	-3.92	-5.25	-0.029036	-1.197064	-0.182024	0.5835	0.912	0.249	0	221	63	3
2026-02-12	16:48:33.270	37.1	-7.91	0.385	-0.029768	-1.055544	-0.165676	0.579	0.912	0.249	0	221	63	3
2026-02-12	16:48:33.290	50.82	-7.665	4.585	-0.018056	-0.873032	-0.156648	0.5895	0.9135	0.246	0	221	63	3
2026-02-12	16:48:33.310	46.725	-4.55	5.46	-0.024888	-0.759328	-0.150792	0.594	0.927	0.243	0	221	63	3
2026-02-12	16:48:33.330	33.915	0.63	3.535	-0.029036	-0.752984	-0.156648	0.594	0.9135	0.2355	0	221	63	3
2026-02-12	16:48:33.350	25.585	5.845	2.695	-0.026108	-0.78202	-0.1586	0.594	0.9255	0.2295	0	221	63	3
2026-02-12	16:48:33.370	24.675	10.255	3.745	-0.041968	-0.787632	-0.154208	0.585	0.9255	0.2265	0	221	63	3
2026-02-12	16:48:33.390	23.87	15.015	5.705	-0.093452	-0.795196	-0.160796	0.5895	0.9315	0.2205	0	221	63	3
2026-02-12	16:48:33.410	19.39	18.9	6.475	-0.1403	-0.812032	-0.178852	0.597	0.9225	0.2175	0	227	90	3
2026-02-12	16:48:33.430	14.595	20.685	5.53	-0.168848	-0.840336	-0.181292	0.5925	0.933	0.2205	0	227	90	3
2026-02-12	16:48:33.450	11.13	21.56	4.445	-0.198372	-0.882304	-0.165432	0.5955	0.927	0.219	0	227	90	3
2026-02-12	16:48:33.470	8.54	22.085	3.64	-0.202032	-0.914268	-0.136884	0.5835	0.93	0.2145	0	227	90	3
2026-02-12	16:48:33.490	5.775	23.625	3.57	-0.207888	-0.933788	-0.1098	0.5805	0.9315	0.2235	0	227	90	3
2026-02-12	16:48:33.510	0.7	26.355	3.465	-0.209352	-0.974292	-0.069784	0.585	0.9315	0.21	0	227	90	3
2026-02-12	16:48:33.530	-1.505	30.38	4.095	-0.210084	-1.015772	-0.002684	0.582	0.9315	0.222	0	227	90	3
2026-02-12	16:48:33.550	1.785	35.665	6.895	-0.205448	-1.028948	0.080276	0.582	0.9285	0.2235	0	227	90	3
2026-02-12	16:48:33.570	8.12	39.9	8.645	-0.209352	-1.011136	0.105652	0.582	0.9315	0.2175	0	227	90	3
2026-02-12	16:48:33.590	12.775	42.035	9.625	-0.218868	-0.975512	0.089304	0.5775	0.93	0.2175	0	227	90	3
2026-02-12	16:48:33.610	14.21	41.93	6.93	-0.260836	-0.94794	0.044408	0.5745	0.924	0.222	0	233	107	3
2026-02-12	16:48:33.630	12.565	39.375	4.305	-0.26718	-0.948184	0.004148	0.5775	0.9315	0.213	0	233	107	3
2026-02-12	16:48:33.650	11.305	36.015	3.465	-0.26352	-0.948428	-0.011468	0.5745	0.9315	0.219	0	233	107	3
2026-02-12	16:48:33.670	10.675	32.34	3.29	-0.281332	-0.918904	0.00122	0.567	0.9315	0.2175	0	233	107	3
2026-02-12	16:48:33.690	8.82	29.75	3.01	-0.29158	-0.913048	0.013176	0.5655	0.9345	0.2145	0	233	107	3
2026-02-12	16:48:33.710	6.65	28.035	3.01	-0.307928	-0.906948	0.031964	0.5685	0.927	0.2175	0	233	107	3
2026-02-12	16:48:33.730	5.74	26.985	2.73	-0.302072	-0.90646	0.080032	0.564	0.9405	0.216	0	233	107	3
2026-02-12	16:48:33.750	6.09	27.265	3.5	-0.291336	-0.935496	0.132736	0.5625	0.93	0.2115	0	233	107	3
2026-02-12	16:48:33.770	11.55	29.19	5.215	-0.281332	-0.94184	0.171044	0.552	0.9285	0.222	0	233	107	3
2026-02-12	16:48:33.790	15.855	33.46	7.175	-0.292556	-0.935252	0.175436	0.564	0.933	0.225	0	233	107	3
2026-02-12	16:48:33.810	15.085	40.145	9.345	-0.30622	-0.924516	0.16226	0.5565	0.9315	0.2145	0	235	94	3
2026-02-12	16:48:33.830	12.565	45.045	11.795	-0.321348	-0.909388	0.134444	0.5595	0.9315	0.2115	0	235	94	3
2026-02-12	16:48:33.850	11.48	45.255	14.98	-0.343308	-0.898164	0.11468	0.5595	0.9315	0.2085	0	235	94	3
2026-02-12	16:48:33.870	9.45	41.23	18.48	-0.366976	-0.884744	0.094916	0.558	0.936	0.207	0	235	94	3
2026-02-12	16:48:33.890	7.455	34.16	22.68	-0.415288	-0.879132	0.074908	0.549	0.9375	0.2175	0	235	94	3
2026-02-12	16:48:33.910	4.515	24.5	26.25	-0.438956	-0.899872	0.045384	0.561	0.9375	0.213	0	235	94	3
2026-02-12	16:48:33.930	5.32	12.075	29.61	-0.468968	-0.9211	0.024888	0.555	0.9405	0.216	0	235	94	3
2026-02-12	16:48:33.950	8.68	-1.995	33.18	-0.50386	-0.885964	-0.003172	0.5535	0.9255	0.216	0	235	94	3
2026-02-12	16:48:33.970	0.035	-13.755	32.375	-0.614636	-0.867176	-0.087108	0.564	0.936	0.2145	0	235	94	3
2026-02-12	16:48:33.990	-18.97	-27.405	22.925	-0.636596	-0.937692	-0.207644	0.5715	0.927	0.213	0	235	94	3
2026-02-12	16:48:34.010	-27.86	-39.795	9.8	-0.656116	-0.997716	-0.2562	0.5685	0.93	0.2085	0	235	64	3
2026-02-12	16:48:34.030	-24.22	-49.77	-3.64	-0.623908	-0.974048	-0.281332	0.5685	0.93	0.2085	0	235	64	3
2026-02-12	16:48:34.050	-19.425	-52.675	-7.735	-0.639524	-0.893772	-0.2501	0.5805	0.927	0.222	0	235	64	3
2026-02-12	16:48:34.070	-20.37	-53.34	-8.435	-0.647576	-0.844972	-0.193492	0.5925	0.9285	0.2175	0	235	64	3
2026-02-12	16:48:34.090	-26.215	-51.1	-6.93	-0.586576	-0.882792	-0.10248	0.5865	0.93	0.2205	0	235	64	3
2026-02-12	16:48:34.110	-27.125	-45.325	-2.695	-0.539484	-0.898896	-0.00244	0.588	0.9225	0.2265	0	235	64	3
2026-02-12	16:48:34.130	-21.525	-38.955	2.24	-0.45994	-0.885964	0.08418	0.6	0.921	0.219	0	235	64	3
2026-02-12	16:48:34.150	-13.86	-32.655	5.32	-0.40992	-0.813008	0.09857599	0.5955	0.9285	0.225	0	235	64	3
2026-02-12	16:48:34.170	-11.83	-26.915	5.425	-0.442616	-0.695156	0.0122	0.5895	0.918	0.222	0	235	64	3
2026-02-12	16:48:34.190	-17.745	-25.235	-0.35	-0.474336	-0.612684	-0.089304	0.6	0.9165	0.228	0	235	64	3
2026-02-12	16:48:34.210	-31.36	-27.405	-10.22	-0.482876	-0.628056	-0.144692	0.5925	0.9165	0.231	0	233	50	3
2026-02-12	16:48:34.230	-42.63	-32.76	-19.88	-0.464088	-0.721264	-0.173728	0.597	0.912	0.2295	0	233	50	3
2026-02-12	16:48:34.250	-37.275	-39.165	-25.2	-0.438224	-0.779824	-0.159576	0.597	0.912	0.2295	0	233	50	3
2026-02-12	16:48:34.270	-27.16	-40.705	-26.46	-0.422364	-0.732488	-0.128832	0.597	0.912	0.2385	0	233	50	3
2026-02-12	16:48:34.290	-21.56	-38.85	-28.735	-0.401624	-0.703452	-0.099796	0.6045	0.906	0.2445	0	233	50	3
2026-02-12	16:48:34.310	-21.105	-33.425	-30.345	-0.401624	-0.71736	-0.060512	0.597	0.912	0.2385	0	233	50	3
2026-02-12	16:48:34.330	-22.61	-25.305	-30.905	-0.392108	-0.768844	-0.02196	0.5985	0.9075	0.246	0	233	50	3
2026-02-12	16:48:34.350	-20.825	-15.015	-29.82	-0.38674	-0.887916	0.00122	0.5895	0.909	0.246	0	233	50	3
2026-02-12	16:48:34.370	-11.34	-4.69	-26.6	-0.40382	-0.957944	-0.03538	0.5895	0.9045	0.2505	0	233	50	3
2026-02-12	16:48:34.390	-0.35	3.29	-24.115	-0.443836	-1.009916	-0.121512	0.5895	0.9105	0.243	0	233	50	3
2026-02-12	16:48:34.410	7.665	8.855	-23.73	-0.490196	-1.06628	-0.19276	0.588	0.909	0.2475	0	230	53	3
2026-02-12	16:48:34.430	-4.06	19.67	-28.91	-0.470188	-1.1041	-0.31232	0.5685	0.9045	0.243	0	230	53	3
2026-02-12	16:48:34.450	-28.21	30.555	-31.08	-0.347944	-1.438868	-0.426512	0.5685	0.9045	0.243	0	230	53	3
2026-02-12	16:48:34.470	-29.995	24.255	-27.125	-0.325252	-1.399584	-0.407724	0.5805	0.9	0.255	0	230	53	3
2026-02-12	16:48:34.490	-25.97	15.295	-25.06	-0.309636	-1.455948	-0.367952	0.5655	0.8985	0.261	0	230	53	3
2026-02-12	16:48:34.510	-24.29	9.275	-20.405	-0.155916	-1.546472	-0.354044	0.555	0.9015	0.264	0	230	53	3
2026-02-12	16:48:34.530	-4.48	3.99	-16.555	-0.04026	-1.406416	-0.270108	0.5565	0.903	0.2655	0	230	53	3
2026-02-12	16:48:34.550	9.03	-2.555	-7.875	0.009516	-1.280024	-0.227896	0.5565	0.903	0.2655	0	230	53	3
2026-02-12	16:48:34.570	20.965	-7.525	-0.07	-0.01586	-1.128744	-0.186172	0.5565	0.8985	0.2685	0	230	53	3
2026-02-12	16:48:34.590	26.25	-8.75	3.08	-0.027328	-0.958432	-0.15006	0.5565	0.9045	0.2595	0	230	53	3
2026-02-12	16:48:34.610	20.16	-5.25	3.605	-0.022692	-0.909876	-0.167628	0.552	0.9015	0.258	0	230	79	3
2026-02-12	16:48:34.630	18.34	-0.84	4.48	-0.011224	-0.909876	-0.184708	0.5535	0.909	0.258	0	230	79	3
2026-02-12	16:48:34.650	27.58	3.64	6.44	-0.000976	-0.886208	-0.192028	0.5505	0.9075	0.2625	0	230	79	3
2026-02-12	16:48:34.670	37.135	6.58	8.645	-0.032452	-0.806664	-0.16958	0.5505	0.9075	0.2625	0	230	79	3
2026-02-12	16:48:34.690	39.305	10.395	9.38	-0.066124	-0.771772	-0.16226	0.558	0.9105	0.255	0	230	79	3
2026-02-12	16:48:34.710	33.46	14.875	8.05	-0.101016	-0.779092	-0.15738	0.5505	0.9075	0.243	0	230	79	3
2026-02-12	16:48:34.730	26.705	17.85	5.915	-0.109556	-0.82472	-0.159088	0.558	0.918	0.24	0	230	79	3
2026-02-12	16:48:34.750	22.61	20.37	4.585	-0.122488	-0.866688	-0.167384	0.552	0.9165	0.2385	0	230	79	3
2026-02-12	16:48:34.770	21.945	22.26	3.78	-0.13542	-0.880108	-0.153964	0.555	0.924	0.231	0	230	79	3
2026-02-12	16:48:34.790	19.355	23.835	3.045	-0.144448	-0.867664	-0.140788	0.558	0.921	0.231	0	230	79	3
2026-02-12	16:48:34.810	12.11	25.655	1.365	-0.168848	-0.885232	-0.122732	0.5535	0.921	0.2325	0	235	110	3
2026-02-12	16:48:34.830	4.9	27.79	-0.42	-0.187148	-0.913292	-0.09076799	0.546	0.921	0.2235	0	235	110	3
2026-02-12	16:48:34.850	-0.245	29.4	-1.575	-0.193248	-0.957456	-0.040992	0.552	0.93	0.2265	0	235	110	3
2026-02-12	16:48:34.870	1.61	30.415	-0.455	-0.184464	-1.014064	0.0183	0.552	0.93	0.2265	0	235	110	3
2026-02-12	16:48:34.890	6.51	32.375	1.505	-0.18056	-1.00772	0.054412	0.552	0.93	0.2265	0	235	110	3
2026-02-12	16:48:34.910	11.655	33.005	4.025	-0.191784	-0.981612	0.058804	0.5415	0.924	0.2325	0	235	110	3
2026-02-12	16:48:34.930	12.6	32.97	5.845	-0.205204	-0.954528	0.054656	0.5445	0.9225	0.234	0	235	110	3
2026-02-12	16:48:34.950	12.6	32.69	5.705	-0.23546	-0.952088	0.045628	0.543	0.924	0.228	0	235	110	3
2026-02-12	16:48:34.970	13.265	32.34	5.25	-0.236192	-0.947696	0.044408	0.5295	0.9195	0.2295	0	235	110	3
2026-02-12	16:48:34.990	14.105	32.76	4.935	-0.2379	-0.937936	0.044408	0.537	0.927	0.2385	0	235	110	3
2026-02-12	16:48:35.010	12.81	33.95	5.145	-0.253272	-0.929152	0.046848	0.5325	0.93	0.2265	0	238	118	3
2026-02-12	16:48:35.030	9.835	35.175	5.425	-0.254492	-0.924028	0.057584	0.534	0.93	0.228	0	238	118	3
2026-02-12	16:48:35.050	5.6	36.12	5.915	-0.270108	-0.920856	0.07808	0.5295	0.9285	0.2265	0	238	118	3
2026-02-12	16:48:35.070	1.365	39.165	7.28	-0.284992	-0.933788	0.134688	0.5205	0.93	0.228	0	238	118	3
2026-02-12	16:48:35.090	0.315	41.79	8.47	-0.288408	-0.934764	0.174948	0.5295	0.9255	0.2295	0	238	118	3
2026-02-12	16:48:35.110	0.07	46.445	10.255	-0.29646	-0.933788	0.183	0.54	0.921	0.231	0	238	118	3
2026-02-12	16:48:35.130	-2.135	48.16	12.53	-0.327692	-0.900848	0.136884	0.528	0.927	0.2295	0	238	118	3
2026-02-12	16:48:35.150	-5.075	46.235	14.28	-0.392352	-0.893772	0.089792	0.5235	0.927	0.2355	0	238	118	3
2026-02-12	16:48:35.170	-8.54	39.585	14.945	-0.394792	-0.921344	0.06222	0.516	0.9225	0.2265	0	238	118	3
2026-02-12	16:48:35.190	-8.89	30.73	17.43	-0.404796	-0.953796	0.036112	0.513	0.921	0.243	0	238	118	3
2026-02-12	16:48:35.210	-2.625	18.34	22.715	-0.398208	-0.958188	-0.009028	0.5115	0.9195	0.2355	0	238	93	3
2026-02-12	16:48:35.230	6.475	4.48	28.455	-0.401868	-0.924272	-0.055388	0.522	0.9225	0.24	0	238	93	3
2026-02-12	16:48:35.250	12.775	-9.345	33.53	-0.430904	-0.86986	-0.079788	0.522	0.9195	0.234	0	238	93	3
2026-02-12	16:48:35.270	7.665	-26.285	34.195	-0.53802	-0.812276	-0.137616	0.5295	0.9165	0.237	0	238	93	3
2026-02-12	16:48:35.290	-14.7	-40.67	22.225	-0.649772	-0.97478	-0.218624	0.5295	0.9165	0.237	0	238	93	3
2026-02-12	16:48:35.310	-23.345	-50.54	5.74	-0.599264	-1.174372	-0.280844	0.5355	0.9135	0.2325	0	238	93	3
2026-02-12	16:48:35.330	-15.155	-54.215	-3.675	-0.48312	-1.273192	-0.297436	0.5415	0.912	0.2295	0	238	93	3
2026-02-12	16:48:35.350	2.94	-56.665	-3.395	-0.411872	-1.037244	-0.26352	0.552	0.915	0.2325	0	238	93	3
2026-02-12	16:48:35.370	10.605	-57.155	-0.63	-0.449448	-0.743224	-0.199348	0.552	0.915	0.2355	0	238	93	3
2026-02-12	16:48:35.390	-11.55	-54.915	-0.77	-0.491904	-0.621956	-0.13786	0.5565	0.9165	0.2235	0	238	93	3
2026-02-12	16:48:35.410	-36.61	-51.975	-3.5	-0.549	-0.66124	-0.121268	0.5625	0.921	0.228	0	237	72	3
