yyyy-MM-dd	HH:mm:ss.fff	gyrX	gyrY	gyrZ	accX	accY	accZ	magX	magY	magZ	Marker	Energy	Angle	Classification
2026-02-12	16:47:50.210	314.58	-88.13	339.64	2.582984	0.576084	0.332572	-0.24	0.1035	0.513	0	1190	211	5
2026-02-12	16:47:50.230	281.015	-51.625	298.83	2.131584	0.76982	0.453596	-0.2385	0.156	0.5295	0	1190	211	5
2026-02-12	16:47:50.250	195.545	-38.01	245.42	1.980304	0.400648	0.421876	-0.222	0.2265	0.519	0	1190	211	5
2026-02-12	16:47:50.270	116.9	-31.43	200.795	1.826584	0.374052	0.361364	-0.198	0.255	0.525	0	1190	211	5
2026-02-12	16:47:50.290	48.09	-30.73	165.095	1.686528	0.352824	0.314516	-0.18	0.2865	0.5235	0	1190	211	5
2026-02-12	16:47:50.310	4.095	-28.84	132.79	1.573312	0.411384	0.2257	-0.168	0.3135	0.5265	0	1190	211	5
2026-02-12	16:47:50.330	-22.4	-21.28	109.165	1.474248	0.410408	0.134688	-0.1575	0.318	0.5265	0	1190	211	5
2026-02-12	16:47:50.350	-35.525	-11.34	94.92	1.342	0.436272	0.101748	-0.147	0.3285	0.5295	0	1190	211	5
2026-02-12	16:47:50.370	-44.695	-2.555	90.58	1.199016	0.444812	0.1525	-0.138	0.345	0.5355	0	1190	211	5
2026-02-12	16:47:50.390	-39.935	4.375	90.37	1.042612	0.433588	0.181292	-0.1305	0.357	0.54	0	1190	211	5
2026-02-12	16:47:50.410	-30.065	7.42	89.81	0.956236	0.419436	0.227408	-0.1185	0.3705	0.549	0	1158	200	5
2026-02-12	16:47:50.430	-20.23	10.64	87.955	0.894992	0.397964	0.264252	-0.114	0.3735	0.5505	0	1158	200	5
2026-02-12	16:47:50.450	-9.975	13.02	82.985	0.8601	0.420168	0.268156	-0.093	0.3795	0.558	0	1158	200	5
2026-02-12	16:47:50.470	-5.215	15.19	75.145	0.82716	0.43554	0.246928	-0.093	0.39	0.5475	0	1158	200	5
2026-02-12	16:47:50.490	-4.305	16.87	63.175	0.811788	0.467992	0.232532	-0.075	0.4035	0.555	0	1158	200	5
2026-02-12	16:47:50.510	-9.03	18.445	46.585	0.842532	0.500688	0.25254	-0.0705	0.4065	0.5595	0	1158	200	5
2026-02-12	16:47:50.530	-19.635	20.58	24.745	0.901336	0.524356	0.269864	-0.0705	0.4035	0.549	0	1158	200	5
2026-02-12	16:47:50.550	-32.27	26.18	-1.855	0.923052	0.534848	0.254248	-0.063	0.4035	0.5505	0	1158	200	5
2026-02-12	16:47:50.570	-44.94	33.46	-29.82	0.943548	0.495076	0.223016	-0.0585	0.405	0.5475	0	1158	200	5
2026-02-12	16:47:50.590	-52.99	40.18	-62.055	0.986492	0.435784	0.189832	-0.0765	0.405	0.546	0	1158	200	5
2026-02-12	16:47:50.610	-57.47	46.34	-96.25	1.042124	0.346724	0.166164	-0.078	0.399	0.546	0	1114	204	5
2026-02-12	16:47:50.630	-56	52.01	-129.71	1.147044	0.2623	0.160796	-0.09	0.381	0.555	0	1114	204	5
2026-02-12	16:47:50.650	-44.765	63	-177.625	1.338828	0.156404	0.159332	-0.1035	0.366	0.5505	0	1114	204	5
2026-02-12	16:47:50.670	-34.09	68.95	-201.915	1.495232	0.122	0.158356	-0.126	0.348	0.5445	0	1114	204	5
2026-02-12	16:47:50.690	-23.975	74.725	-220.5	1.627724	0.091012	0.147376	-0.1635	0.3135	0.5415	0	1114	204	5
2026-02-12	16:47:50.710	-9.905	79.555	-236.355	1.733376	0.083692	0.148596	-0.1845	0.2835	0.537	0	1114	204	5
2026-02-12	16:47:50.730	5.075	83.125	-249.55	1.840004	0.111264	0.139812	-0.2025	0.2475	0.5205	0	1114	204	5
2026-02-12	16:47:50.750	21.035	83.335	-265.02	1.868308	0.083204	0.160796	-0.2205	0.2145	0.5025	0	1114	204	5
2026-02-12	16:47:50.770	41.3	78.505	-277.06	2.00324	0.020496	0.179096	-0.234	0.1845	0.495	0	1114	204	5
2026-02-12	16:47:50.790	63.735	72.03	-289.94	2.0374	-0.033672	0.123952	-0.246	0.141	0.486	0	1114	204	5
2026-02-12	16:47:50.810	94.29	67.445	-292.355	1.907592	-0.051728	0.0427	-0.252	0.0975	0.468	0	1056	206	5
2026-02-12	16:47:50.830	123.27	52.745	-295.61	1.754848	-0.033672	0.026352	-0.2505	0.0615	0.453	0	1056	206	5
2026-02-12	16:47:50.850	127.33	32.095	-300.405	1.64212	0.139324	0.121268	-0.249	0.0435	0.4485	0	1056	206	5
2026-02-12	16:47:50.870	103.74	13.79	-300.16	1.615036	0.106872	0.197884	-0.249	0	0.4515	0	1056	206	5
2026-02-12	16:47:50.890	67.375	2.31	-292.95	1.59454	0.183	0.264252	-0.2355	-0.0435	0.447	0	1056	206	5
2026-02-12	16:47:50.910	14.595	1.155	-282.065	1.501088	0.162504	0.249124	-0.222	-0.0795	0.453	0	1056	206	5
2026-02-12	16:47:50.930	-37.17	4.585	-266.91	1.375672	0.128588	0.221064	-0.1995	-0.1185	0.45	0	1056	206	5
2026-02-12	16:47:50.950	-69.055	10.745	-249.655	1.241716	0.0854	0.217892	-0.1665	-0.174	0.444	0	1056	206	5
2026-02-12	16:47:50.970	-88.935	16.52	-228.97	1.1285	0.016592	0.216184	-0.1425	-0.201	0.4335	0	1056	206	5
2026-02-12	16:47:50.990	-93.765	20.895	-206.885	1.014064	-0.056608	0.23424	-0.1185	-0.2205	0.42	0	1056	206	5
2026-02-12	16:47:51.010	-85.33	21.98	-182.245	0.900116	-0.149816	0.289628	-0.099	-0.246	0.4065	0	989	203	5
2026-02-12	16:47:51.030	-68.705	22.96	-153.09	0.758596	-0.182024	0.27328	-0.075	-0.267	0.3975	0	989	203	5
2026-02-12	16:47:51.050	-46.515	17.185	-122.29	0.621956	-0.2318	0.277184	-0.0555	-0.2805	0.3945	0	989	203	5
2026-02-12	16:47:51.070	-19.845	9.485	-89.18	0.506788	-0.177876	0.275232	-0.0375	-0.291	0.3825	0	989	203	5
2026-02-12	16:47:51.090	0.245	-2.03	-53.27	0.440908	-0.132004	0.2684	-0.0225	-0.2925	0.372	0	989	203	5
2026-02-12	16:47:51.110	15.12	-15.82	-14.98	0.442372	-0.061	0.259128	-0.0165	-0.297	0.372	0	989	203	5
2026-02-12	16:47:51.130	22.645	-26.495	23.765	0.459208	0.016836	0.264496	-0.0135	-0.2985	0.375	0	989	203	5
2026-02-12	16:47:51.150	19.355	-34.195	62.44	0.490684	0.095404	0.272548	-0.0165	-0.2985	0.381	0	989	203	5
2026-02-12	16:47:51.170	7.035	-40.565	99.435	0.554612	0.103456	0.273768	-0.027	-0.2985	0.387	0	989	203	5
2026-02-12	16:47:51.190	-8.575	-43.505	151.62	0.630252	0.109312	0.27816	-0.033	-0.2985	0.39	0	989	203	5
2026-02-12	16:47:49.210	185.325	-59.22	345.87	2.29848	1.192184	0.547048	-0.1275	0.3615	0.4875	0	1126	166	5
2026-02-12	16:47:49.230	63.84	-41.93	327.005	1.884656	1.175592	0.554124	-0.0675	0.4275	0.4755	0	1126	166	5
2026-02-12	16:47:49.250	-32.095	-30.73	264.985	1.356396	1.151436	0.584624	-0.048	0.4485	0.477	0	1126	166	5
2026-02-12	16:47:49.270	-47.355	-28.665	211.75	1.22854	1.075796	0.640012	0.0345	0.4815	0.474	0	1126	166	5
2026-02-12	16:47:49.290	-9.695	-7.945	116.305	0.476044	1.141188	0.846192	0.0585	0.4905	0.483	0	1126	166	5
2026-02-12	16:47:49.310	-1.505	-21.875	71.82	0.641476	1.041148	0.812764	0.0885	0.5025	0.4935	0	1126	166	5
2026-02-12	16:47:49.330	8.785	-12.04	-3.43	0.487756	1.02602	0.761036	0.0945	0.504	0.4965	0	1126	166	5
2026-02-12	16:47:49.350	6.405	-2.17	-40.425	0.546316	1.095072	0.6832	0.096	0.5025	0.492	0	1126	166	5
2026-02-12	16:47:49.370	-15.155	15.015	-79.625	0.592432	0.98576	0.548756	0.0975	0.501	0.4875	0	1126	166	5
2026-02-12	16:47:49.390	-43.085	28.56	-115.395	0.715896	0.876204	0.444568	0.0795	0.495	0.483	0	1126	166	5
2026-02-12	16:47:49.410	-71.715	41.23	-145.6	0.912804	0.648552	0.384788	0.0705	0.4965	0.4905	0	1169	228	5
2026-02-12	16:47:49.430	-88.865	54.04	-169.365	1.11752	0.5246	0.35868	0.0465	0.486	0.495	0	1169	228	5
2026-02-12	16:47:49.450	-94.15	65.275	-185.815	1.417884	0.453108	0.350628	0.0135	0.4695	0.507	0	1169	228	5
2026-02-12	16:47:49.470	-89.81	76.51	-198.45	1.72996	0.39894	0.326472	0.0045	0.4635	0.516	0	1169	228	5
2026-02-12	16:47:49.490	-80.045	85.295	-207.55	2.087664	0.281088	0.303536	-0.0495	0.432	0.525	0	1169	228	5
2026-02-12	16:47:49.510	-53.2	99.47	-242.165	2.442684	0.249368	0.256444	-0.0795	0.4065	0.522	0	1169	228	5
2026-02-12	16:47:49.530	-42.945	107.065	-261.695	2.665456	0.181048	0.206668	-0.1245	0.3705	0.5115	0	1169	228	5
2026-02-12	16:47:49.550	-21.35	114.73	-302.715	2.89506	0.064172	0.165188	-0.141	0.3615	0.5055	0	1169	228	5
2026-02-12	16:47:49.570	-21.14	115.71	-326.025	2.969236	0.070028	0.1281	-0.2025	0.279	0.4875	0	1169	228	5
2026-02-12	16:47:49.590	-40.6	118.44	-352.8	3.031456	0.061732	0.122244	-0.222	0.237	0.456	0	1169	228	5
2026-02-12	16:47:49.610	-74.165	119.945	-373.905	3.009252	0.103456	0.120536	-0.2355	0.186	0.438	0	1200	295	5
2026-02-12	16:47:49.630	-96.285	127.26	-378	2.818688	0.05734	0.061488	-0.2505	0.135	0.42	0	1200	295	5
2026-02-12	16:47:49.650	-98.595	129.43	-374.15	2.547116	0.00488	0.030012	-0.252	0.0225	0.3885	0	1200	295	5
2026-02-12	16:47:49.670	-87.745	124.005	-360.325	2.295064	0.001464	0.036112	-0.2355	-0.039	0.357	0	1200	295	5
2026-02-12	16:47:49.690	-69.615	118.965	-346.675	2.004948	-0.0122	0.021472	-0.2145	-0.0795	0.3375	0	1200	295	5
2026-02-12	16:47:49.710	-51.87	112.35	-333.9	1.753384	0.0183	-0.002928	-0.1755	-0.1455	0.3045	0	1200	295	5
2026-02-12	16:47:49.730	-27.405	98.875	-318.43	1.419348	-0.004392	-0.017812	-0.1575	-0.1695	0.2925	0	1200	295	5
2026-02-12	16:47:49.750	-10.955	88.795	-307.3	1.237324	-0.05124	-0.025132	-0.0855	-0.228	0.261	0	1200	295	5
2026-02-12	16:47:49.770	12.915	72.31	-282.24	0.955016	-0.036112	-0.02928	-0.0405	-0.2505	0.252	0	1200	295	5
2026-02-12	16:47:49.790	18.305	56.98	-268.59	0.814228	-0.02684	-0.017568	0.0225	-0.282	0.243	0	1200	295	5
2026-02-12	16:48:13.810	-48.125	32.06	-82.635	1.414224	0.311588	0.089792	-0.045	0.405	0.3765	0	308	140	2
2026-02-12	16:48:13.830	-35.28	55.93	-139.755	1.49084	0.074664	0.001464	-0.048	0.4005	0.3735	0	308	140	2
2026-02-12	16:48:13.850	-21.14	68.11	-181.965	1.470588	-0.049288	0.011224	-0.048	0.4005	0.3735	0	308	140	2
2026-02-12	16:48:13.870	-3.045	71.785	-217.49	1.431548	-0.144448	0.057828	-0.087	0.372	0.3765	0	308	140	2
2026-02-12	16:48:13.890	19.145	68.915	-244.58	1.40056	-0.067588	0.118828	-0.1095	0.351	0.366	0	308	140	2
2026-02-12	16:48:13.910	37.275	63.525	-266.735	1.478396	0.007564	0.201788	-0.129	0.33	0.3615	0	308	140	2
2026-02-12	16:48:13.930	52.92	59.185	-285.25	1.577704	0.103212	0.236436	-0.1485	0.2985	0.3495	0	308	140	2
2026-02-12	16:48:13.950	57.435	55.93	-296.625	1.578192	0.175436	0.212768	-0.171	0.264	0.333	0	308	140	2
2026-02-12	16:48:13.970	48.58	48.825	-299.635	1.556476	0.223504	0.198128	-0.186	0.222	0.3255	0	308	140	2
2026-02-12	16:48:13.990	29.82	39.13	-295.19	1.636264	0.260836	0.170068	-0.2025	0.183	0.312	0	308	140	2
2026-02-12	16:48:14.010	-8.085	31.78	-284.515	1.660908	0.175924	0.054412	-0.2025	0.183	0.312	0	346	178	3
2026-02-12	16:48:14.030	-30.87	29.295	-276.675	1.613572	0.1647	0.010004	-0.2055	0.105	0.2925	0	346	178	3
2026-02-12	16:48:14.050	-61.145	27.615	-265.195	1.557696	0.165188	-0.016592	-0.213	0.072	0.291	0	346	178	3
2026-02-12	16:48:14.070	-88.585	28.56	-251.685	1.485716	0.149084	-0.050264	-0.21	0.039	0.2895	0	346	178	3
2026-02-12	16:48:14.090	-101.43	30.24	-230.23	1.398608	0.120292	-0.07198	-0.1995	0.009	0.276	0	346	178	3
2026-02-12	16:48:14.110	-99.33	31.675	-203.77	1.227076	0.082716	-0.108336	-0.1995	0.009	0.276	0	346	178	3
2026-02-12	16:48:14.130	-88.585	29.89	-180.39	1.066036	0.083692	-0.110776	-0.1845	-0.0285	0.2625	0	346	178	3
2026-02-12	16:48:14.150	-73.78	25.48	-157.22	0.928176	0.106384	-0.110044	-0.165	-0.0705	0.249	0	346	178	3
2026-02-12	16:48:14.170	-59.15	20.02	-134.435	0.825208	0.147376	-0.103944	-0.1545	-0.078	0.24	0	346	178	3
2026-02-12	16:48:14.190	-48.545	13.65	-112.49	0.768112	0.150792	-0.097844	-0.1455	-0.0885	0.225	0	346	178	3
2026-02-12	16:48:14.210	-41.545	7.735	-91.98	0.70272	0.166408	-0.094184	-0.1395	-0.1005	0.219	0	369	172	3
2026-02-12	16:48:14.230	-38.185	1.855	-72.45	0.654408	0.178364	-0.099796	-0.1365	-0.111	0.219	0	369	172	3
2026-02-12	16:48:14.250	-38.22	-3.955	-52.08	0.608292	0.17202	-0.10736	-0.132	-0.1155	0.216	0	369	172	3
2026-02-12	16:48:14.270	-37.94	-10.535	-31.115	0.599264	0.185928	-0.093208	-0.126	-0.117	0.213	0	369	172	3
2026-02-12	16:48:14.290	-37.905	-16.45	-9.905	0.597312	0.193004	-0.077836	-0.1245	-0.12	0.213	0	369	172	3
2026-02-12	16:48:14.310	-34.3	-21.665	11.655	0.587308	0.187636	-0.056852	-0.1245	-0.1185	0.213	0	369	172	3
2026-02-12	16:48:14.330	-26.88	-27.405	33.355	0.618296	0.194224	-0.038796	-0.12	-0.1155	0.213	0	369	172	3
2026-02-12	16:48:14.350	-18.34	-33.18	55.09	0.674172	0.214476	-0.007808	-0.126	-0.1035	0.216	0	369	172	3
2026-02-12	16:48:14.370	-9.065	-40.74	87.22	0.752252	0.23058	0.035624	-0.1305	-0.1005	0.216	0	369	172	3
2026-02-12	16:48:14.390	-2.905	-45.465	107.24	0.795928	0.206912	0.066368	-0.135	-0.09	0.2175	0	369	172	3
2026-02-12	16:48:14.410	8.855	-50.96	125.79	0.870592	0.192516	0.09857599	-0.147	-0.0735	0.228	0	383	131	3
2026-02-12	16:48:14.430	21.63	-55.265	143.5	0.94062	0.203984	0.133956	-0.1575	-0.06	0.2355	0	383	131	3
2026-02-12	16:48:14.450	29.82	-57.435	160.23	1.01626	0.226432	0.170556	-0.1665	-0.048	0.2445	0	383	131	3
2026-02-12	16:48:14.470	31.15	-58.17	174.965	1.1285	0.227164	0.19032	-0.183	-0.03	0.2565	0	383	131	3
2026-02-12	16:48:14.490	30.17	-56.63	183.89	1.166808	0.227652	0.213988	-0.198	-0.0075	0.2625	0	383	131	3
2026-02-12	16:48:14.510	24.535	-57.785	195.825	1.337364	0.18544	0.234728	-0.201	0.012	0.2715	0	383	131	3
2026-02-12	16:48:14.530	19.495	-58.59	210.07	1.542812	0.156892	0.245952	-0.1965	0.0315	0.279	0	383	131	3
2026-02-12	16:48:14.550	21.805	-56.595	223.51	1.72386	0.139812	0.23912	-0.2025	0.0555	0.2895	0	383	131	3
2026-02-12	16:48:14.570	34.23	-50.33	232.89	1.753628	0.144692	0.199836	-0.213	0.0855	0.2985	0	383	131	3
2026-02-12	16:48:14.590	56.49	-44.8	234.99	1.615036	0.1586	0.18666	-0.2115	0.1185	0.3045	0	383	131	3
2026-02-12	16:48:14.610	80.745	-44.205	230.3	1.556232	0.195932	0.279624	-0.207	0.147	0.312	0	389	106	3
2026-02-12	16:48:14.630	99.12	-47.215	213.92	1.33834	0.20984	0.401136	-0.201	0.1755	0.3195	0	389	106	3
2026-02-12	16:48:14.650	98.77	-51.135	192.535	1.257332	0.20862	0.51362	-0.198	0.195	0.3225	0	389	106	3
2026-02-12	16:48:14.670	80.605	-51.24	176.82	1.252452	0.216916	0.479704	-0.171	0.24	0.3345	0	389	106	3
2026-02-12	16:48:14.690	61.915	-48.02	164.57	1.213656	0.263032	0.403088	-0.168	0.261	0.3315	0	389	106	3
2026-02-12	16:48:14.710	43.05	-44.555	154.665	1.194868	0.281576	0.334524	-0.1635	0.27	0.3315	0	389	106	3
2026-02-12	16:48:14.730	31.64	-39.48	146.335	1.151924	0.310856	0.29768	-0.156	0.2895	0.336	0	389	106	3
2026-02-12	16:48:14.750	29.645	-32.83	137.55	1.07116	0.273036	0.28182	-0.141	0.3	0.3435	0	389	106	3
2026-02-12	16:48:14.770	37.66	-28.07	128.8	1.003084	0.256688	0.277428	-0.129	0.327	0.345	0	389	106	3
2026-02-12	16:48:14.790	48.895	-24.815	119.49	0.95648	0.270108	0.263276	-0.123	0.336	0.342	0	389	106	3
2026-02-12	16:48:14.810	56.35	-23.485	108.185	0.928176	0.295484	0.26108	-0.1155	0.3465	0.348	0	389	125	3
2026-02-12	16:48:14.830	58.765	-23.415	94.815	0.908656	0.315248	0.275476	-0.099	0.3555	0.342	0	389	125	3
2026-02-12	16:48:14.850	54.845	-24.745	80.57	0.8967	0.332572	0.307928	-0.0885	0.3645	0.333	0	389	125	3
2026-02-12	16:48:14.870	47.74	-26.495	65.555	0.884744	0.34892	0.32208	-0.0855	0.3705	0.336	0	389	125	3
2026-02-12	16:48:14.890	40.145	-28.595	49.595	0.853024	0.371368	0.316712	-0.084	0.375	0.333	0	389	125	3
2026-02-12	16:48:14.910	27.195	-32.62	26.04	0.80032	0.37698	0.310124	-0.0825	0.381	0.33	0	389	125	3
2026-02-12	16:48:14.930	14.735	-35.7	10.815	0.826916	0.367708	0.351604	-0.0615	0.381	0.3345	0	389	125	3
2026-02-12	16:48:14.950	0.595	-36.855	-5.04	0.942328	0.367464	0.432368	-0.0705	0.384	0.3345	0	389	125	3
2026-02-12	16:48:14.970	-12.705	-33.32	-21.245	1.15778	0.374052	0.50264	-0.069	0.3795	0.336	0	389	125	3
2026-02-12	16:48:14.990	-31.745	-24.815	-36.75	1.455948	0.397232	0.528992	-0.0705	0.381	0.3315	0	389	125	3
2026-02-12	16:48:15.010	-44.695	-5.845	-55.58	1.594784	0.370148	0.383568	-0.078	0.3795	0.3525	0	384	167	3
2026-02-12	16:48:15.030	-47.775	15.015	-81.13	1.658224	0.311832	0.188124	-0.084	0.3705	0.3525	0	384	167	3
2026-02-12	16:48:15.050	-53.41	31.71	-109.445	1.698484	0.24888	0.085888	-0.0915	0.3765	0.3555	0	384	167	3
2026-02-12	16:48:15.070	-55.265	45.22	-141.785	1.71044	0.130784	0.055144	-0.0945	0.3585	0.3525	0	384	167	3
2026-02-12	16:48:15.090	-48.44	57.015	-178.08	1.638704	-0.004148	0.071492	-0.114	0.342	0.3555	0	384	167	3
2026-02-12	16:48:15.110	-36.225	63.315	-212.205	1.50182	-0.1037	0.100528	-0.1275	0.3375	0.36	0	384	167	3
2026-02-12	16:48:15.130	-21.875	61.81	-239.505	1.419592	-0.057584	0.139324	-0.141	0.3105	0.351	0	384	167	3
2026-02-12	16:48:15.150	-14.805	56.245	-262.29	1.418616	-0.002196	0.195932	-0.159	0.291	0.342	0	384	167	3
2026-02-12	16:48:15.170	-14.455	50.68	-279.825	1.4762	0.07076	0.20496	-0.177	0.2595	0.339	0	384	167	3
2026-02-12	16:48:15.190	-19.845	47.565	-286.86	1.44814	0.153232	0.203008	-0.177	0.2595	0.339	0	384	167	3
2026-02-12	16:48:15.210	-46.795	45.955	-283.01	1.479616	0.33794	0.202276	-0.1965	0.1995	0.3255	0	378	201	3
2026-02-12	16:48:15.230	-108.22	50.575	-273.21	1.567944	0.316224	0.13176	-0.216	0.1305	0.306	0	378	201	3
2026-02-12	16:48:15.250	-145.04	62.09	-259.245	1.567456	0.27694	0.051484	-0.213	0.1035	0.2955	0	378	201	3
2026-02-12	16:48:15.270	-150.92	72.765	-243.425	1.493036	0.215452	-0.030256	-0.21	0.069	0.2805	0	378	201	3
2026-02-12	16:48:15.290	-141.785	76.58	-223.055	1.360788	0.122	-0.097112	-0.204	0.042	0.2655	0	378	201	3
2026-02-12	16:48:15.310	-119.98	73.395	-199.745	1.185596	0.09394	-0.121512	-0.1965	0.0165	0.255	0	378	201	3
2026-02-12	16:48:15.330	-94.01	63.945	-176.855	1.176324	0.126392	-0.071492	-0.189	-0.0045	0.246	0	378	201	3
2026-02-12	16:48:15.350	-69.685	57.295	-155.26	1.215364	0.163724	-0.067588	-0.18	-0.021	0.228	0	378	201	3
2026-02-12	16:48:15.370	-52.64	57.89	-135.975	1.093852	0.205936	-0.084424	-0.1695	-0.033	0.2175	0	378	201	3
2026-02-12	16:48:15.390	-42.98	57.33	-118.685	0.99186	0.2257	-0.109556	-0.165	-0.0405	0.2115	0	378	201	3
2026-02-12	16:48:15.410	-34.475	55.265	-104.44	0.863516	0.214476	-0.106872	-0.1575	-0.0495	0.201	0	373	195	3
2026-02-12	16:48:15.430	-25.69	49.7	-92.155	0.754204	0.184708	-0.089792	-0.1455	-0.063	0.195	0	373	195	3
2026-02-12	16:48:15.450	-10.22	35.84	-73.815	0.62952	0.168848	-0.073932	-0.1365	-0.075	0.186	0	373	195	3
2026-02-12	16:48:15.470	2.73	23.87	-60.655	0.596336	0.185928	-0.06832	-0.126	-0.0765	0.1815	0	373	195	3
2026-02-12	16:48:15.490	15.26	11.27	-45.815	0.557296	0.200812	-0.063196	-0.1215	-0.0795	0.18	0	373	195	3
2026-02-12	16:48:15.510	27.965	-2.205	-29.47	0.53924	0.21106	-0.05612	-0.117	-0.0885	0.1755	0	373	195	3
2026-02-12	16:48:15.530	37.94	-15.05	-10.92	0.535092	0.23424	-0.047092	-0.117	-0.093	0.1755	0	373	195	3
2026-02-12	16:48:15.550	41.58	-26.985	9.94	0.547292	0.258152	-0.033916	-0.1185	-0.099	0.1785	0	373	195	3
2026-02-12	16:48:15.570	40.775	-37.555	31.57	0.56608	0.281576	-0.019276	-0.1185	-0.1035	0.186	0	373	195	3
2026-02-12	16:48:15.590	37.17	-47.145	53.27	0.603412	0.31476	0.00366	-0.1245	-0.102	0.1935	0	373	195	3
2026-02-12	16:48:15.610	28.91	-55.79	74.585	0.66124	0.32818	0.037088	-0.1305	-0.1035	0.1965	0	370	153	3
2026-02-12	16:48:15.630	16.485	-62.685	95.27	0.715652	0.314272	0.0671	-0.1365	-0.0945	0.2055	0	370	153	3
2026-02-12	16:48:15.650	2.73	-69.23	114.695	0.781288	0.290116	0.0793	-0.144	-0.0825	0.216	0	370	153	3
2026-02-12	16:48:15.670	-8.715	-75.81	133.035	0.865224	0.269376	0.114924	-0.156	-0.072	0.225	0	370	153	3
2026-02-12	16:48:15.690	-18.06	-82.355	151.27	0.964044	0.249612	0.149572	-0.1695	-0.054	0.234	0	370	153	3
2026-02-12	16:48:15.710	-26.11	-88.095	170.765	1.065304	0.235704	0.209352	-0.177	-0.0345	0.246	0	370	153	3
2026-02-12	16:48:15.730	-33.915	-92.4	184.73	1.179496	0.222528	0.287676	-0.183	-0.024	0.255	0	370	153	3
2026-02-12	16:48:15.750	-42.35	-93.94	192.535	1.262456	0.196908	0.323544	-0.198	0.015	0.2745	0	370	153	3
2026-02-12	16:48:15.770	-47.005	-96.04	201.88	1.468636	0.112728	0.35746	-0.207	0.054	0.288	0	370	153	3
2026-02-12	16:48:15.790	-43.05	-98.385	213.43	1.790472	0.057584	0.350628	-0.2115	0.078	0.3	0	370	153	3
2026-02-12	16:48:15.810	-23.765	-92.435	221.935	1.970788	0.023912	0.267668	-0.222	0.1065	0.321	0	369	120	3
2026-02-12	16:48:15.830	12.425	-79.17	222.88	1.825364	0.020252	0.177144	-0.216	0.1275	0.3345	0	369	120	3
2026-02-12	16:48:15.850	58.695	-69.44	219.17	1.613572	0.044164	0.15372	-0.216	0.1695	0.351	0	369	120	3
2026-02-12	16:48:15.870	105.945	-69.965	210.315	1.414468	0.101504	0.258396	-0.204	0.195	0.3525	0	369	120	3
2026-02-12	16:48:15.890	136.255	-74.27	194.74	1.347124	0.113216	0.39162	-0.1965	0.2235	0.36	0	369	120	3
2026-02-12	16:48:15.910	145.32	-74.655	176.365	1.294664	0.130052	0.510936	-0.183	0.246	0.369	0	369	120	3
2026-02-12	16:48:15.930	135.52	-71.855	161.63	1.232688	0.20862	0.519476	-0.18	0.258	0.3675	0	369	120	3
2026-02-12	16:48:15.950	110.74	-67.585	149.8	1.191208	0.332816	0.428464	-0.171	0.2805	0.3705	0	369	120	3
2026-02-12	16:48:15.970	74.27	-61.95	140.56	1.159244	0.403576	0.345016	-0.156	0.294	0.3675	0	369	120	3
2026-02-12	16:48:15.990	19.32	-51.03	128.59	1.057008	0.403332	0.331352	-0.15	0.3105	0.369	0	369	120	3
2026-02-12	16:48:16.010	1.015	-45.255	119.77	0.993568	0.313052	0.332572	-0.1365	0.3225	0.3735	0	372	132	3
2026-02-12	16:48:16.030	2.275	-39.865	111.65	0.937448	0.292312	0.315736	-0.123	0.336	0.3795	0	372	132	3
2026-02-12	16:48:16.050	11.025	-36.295	103.075	0.8906	0.264984	0.298412	-0.1095	0.3585	0.384	0	372	132	3
2026-02-12	16:48:16.070	22.295	-35.035	93.205	0.888892	0.264008	0.315492	-0.099	0.357	0.3855	0	372	132	3
2026-02-12	16:48:16.090	30.17	-33.425	80.99	0.901824	0.282552	0.34526	-0.093	0.3735	0.384	0	372	132	3
2026-02-12	16:48:16.110	33.39	-31.745	67.095	0.905484	0.280356	0.355264	-0.084	0.3765	0.3945	0	372	132	3
2026-02-12	16:48:16.130	37.625	-30.31	51.415	0.886452	0.323544	0.36112	-0.0765	0.387	0.3975	0	372	132	3
2026-02-12	16:48:16.150	37.66	-29.12	33.39	0.866932	0.365756	0.351848	-0.0735	0.3945	0.384	0	372	132	3
2026-02-12	16:48:16.170	32.13	-27.51	13.195	0.854	0.369416	0.346724	-0.072	0.399	0.396	0	372	132	3
2026-02-12	16:48:16.190	22.155	-26.215	-8.4	0.88206	0.34526	0.364536	-0.0675	0.3975	0.3855	0	372	132	3
2026-02-12	16:48:16.210	8.645	-24.29	-30.555	1.039928	0.351604	0.421388	-0.0675	0.3915	0.39	0	373	174	3
2026-02-12	16:48:16.230	-24.29	-17.885	-51.31	1.40422	0.441396	0.502396	-0.072	0.393	0.3885	0	373	174	3
2026-02-12	16:48:16.250	-78.155	5.25	-72.17	1.690432	0.466284	0.34892	-0.075	0.387	0.399	0	373	174	3
2026-02-12	16:48:16.270	-113.33	34.79	-101.29	1.871236	0.41236	0.10004	-0.075	0.387	0.399	0	373	174	3
2026-02-12	16:48:16.290	-133.455	58.1	-128.38	1.863428	0.218868	-0.070028	-0.0885	0.3765	0.405	0	373	174	3
2026-02-12	16:48:16.310	-135.66	78.68	-156.66	1.724836	-0.025864	-0.152012	-0.1065	0.3615	0.414	0	373	174	3
2026-02-12	16:48:16.330	-116.9	90.405	-184.59	1.584292	-0.139812	-0.123464	-0.12	0.345	0.4185	0	373	174	3
2026-02-12	16:48:16.350	-92.925	93.87	-212.45	1.432036	-0.226676	-0.080764	-0.138	0.327	0.42	0	373	174	3
2026-02-12	16:48:16.370	-64.4	86.8	-231.105	1.417396	-0.26108	0.004636	-0.1545	0.3045	0.4185	0	373	174	3
2026-02-12	16:48:16.390	-24.115	82.285	-243.495	1.394216	-0.088328	0.062464	-0.168	0.2715	0.4065	0	373	174	3
2026-02-12	16:48:16.410	-2.17	77.14	-252.7	1.352004	-0.011468	0.081252	-0.1875	0.243	0.3945	0	375	202	3
2026-02-12	16:48:16.430	10.605	71.435	-254.065	1.35908	0.124684	0.05368	-0.2025	0.216	0.3855	0	375	202	3
2026-02-12	16:48:16.450	15.155	65.1	-250.46	1.344684	0.208132	0.019764	-0.207	0.1845	0.3735	0	375	202	3
2026-02-12	16:48:16.470	9.1	59.99	-243.39	1.359568	0.24522	-0.007076	-0.2145	0.1485	0.36	0	375	202	3
2026-02-12	16:48:16.490	-6.895	59.57	-230.195	1.328092	0.210572	-0.077104	-0.222	0.111	0.348	0	375	202	3
2026-02-12	16:48:16.510	-25.55	61.495	-213.64	1.29076	0.208864	-0.184952	-0.228	0.081	0.339	0	375	202	3
2026-02-12	16:48:16.530	-46.48	60.97	-185.675	1.280512	0.140788	-0.221552	-0.231	0.066	0.339	0	375	202	3
2026-02-12	16:48:16.550	-54.845	60.2	-164.885	1.222196	0.138592	-0.14274	-0.231	0.066	0.339	0	375	202	3
2026-02-12	16:48:16.570	-62.86	61.46	-146.125	1.12118	0.156892	-0.07515199	-0.2115	-0.0015	0.315	0	375	202	3
2026-02-12	16:48:16.590	-62.545	63.42	-129.43	1.0187	0.123708	-0.098088	-0.207	-0.0075	0.3045	0	375	202	3
2026-02-12	16:48:16.610	-51.8	61.81	-112.245	0.968436	0.196176	-0.166896	-0.1995	-0.021	0.288	0	377	182	3
2026-02-12	16:48:16.630	-59.43	56.84	-94.99	0.944768	0.25498	-0.182268	-0.195	-0.036	0.2745	0	377	182	3
2026-02-12	16:48:16.650	-75.145	49.42	-78.75	0.875472	0.231068	-0.128588	-0.192	-0.0465	0.2655	0	377	182	3
2026-02-12	16:48:16.670	-79.87	40.215	-64.295	0.776164	0.17568	-0.058072	-0.1845	-0.0555	0.2565	0	377	182	3
2026-02-12	16:48:16.690	-75.95	29.54	-51.31	0.688324	0.14396	-0.02074	-0.174	-0.0615	0.2445	0	377	182	3
2026-02-12	16:48:16.710	-70.56	18.27	-39.095	0.62464	0.135908	-0.049532	-0.171	-0.0615	0.2325	0	377	182	3
2026-02-12	16:48:16.730	-61.46	5.635	-26.39	0.60756	0.140788	-0.09857599	-0.1725	-0.0645	0.2295	0	377	182	3
2026-02-12	16:48:16.750	-49.98	-9.765	-12.775	0.603412	0.185684	-0.101016	-0.1665	-0.069	0.228	0	377	182	3
2026-02-12	16:48:16.770	-42.49	-26.285	3.71	0.604632	0.210328	-0.061732	-0.1665	-0.0675	0.222	0	377	182	3
2026-02-12	16:48:16.790	-37.765	-44.625	26.39	0.636352	0.228628	0.010492	-0.168	-0.063	0.225	0	377	182	3
2026-02-12	16:48:16.810	-34.335	-60.235	49.42	0.686616	0.234484	0.071492	-0.1635	-0.063	0.2295	0	378	129	3
2026-02-12	16:48:16.830	-31.955	-69.965	67.725	0.754204	0.243756	0.106628	-0.189	-0.0465	0.231	0	378	129	3
2026-02-12	16:48:16.850	-27.02	-77.21	85.225	0.810568	0.232532	0.124928	-0.1845	-0.0375	0.2475	0	378	129	3
2026-02-12	16:48:16.870	-19.95	-82.81	102.935	0.854	0.1891	0.117608	-0.1965	-0.03	0.264	0	378	129	3
2026-02-12	16:48:16.890	-7.98	-88.165	120.75	0.922808	0.160064	0.113948	-0.204	-0.0075	0.2625	0	378	129	3
2026-02-12	16:48:16.910	6.65	-91.98	138.075	1.009916	0.128588	0.113216	-0.2085	0.006	0.282	0	378	129	3
2026-02-12	16:48:16.930	25.48	-94.675	154.56	1.104344	0.100284	0.112484	-0.219	0.03	0.288	0	378	129	3
2026-02-12	16:48:16.950	47.95	-95.165	169.365	1.179984	0.096624	0.113704	-0.2295	0.0405	0.309	0	378	129	3
2026-02-12	16:48:16.970	66.01	-94.29	182.98	1.245864	0.142496	0.148352	-0.2235	0.0645	0.318	0	378	129	3
2026-02-12	16:48:16.990	66.815	-90.93	194.25	1.306132	0.204716	0.239852	-0.231	0.087	0.336	0	378	129	3
2026-02-12	16:48:17.010	53.795	-84.21	201.985	1.327116	0.22448	0.317444	-0.231	0.111	0.3465	0	377	91	3
2026-02-12	16:48:17.030	43.995	-75.845	206.08	1.433012	0.21228	0.3477	-0.219	0.1455	0.36	0	377	91	3
2026-02-12	16:48:17.050	41.685	-66.745	205.555	1.587952	0.161528	0.260348	-0.2265	0.1695	0.3735	0	377	91	3
2026-02-12	16:48:17.070	62.51	-57.645	196.63	1.897344	0.112972	0.132248	-0.2145	0.2025	0.384	0	377	91	3
2026-02-12	16:48:17.090	81.235	-45.85	186.2	1.73972	0.122976	0.15616	-0.2025	0.2235	0.3885	0	377	91	3
2026-02-12	16:48:17.110	115.115	-33.67	165.515	1.395924	0.103944	0.188856	-0.1905	0.2445	0.393	0	377	91	3
2026-02-12	16:48:17.130	153.545	-30.1	139.055	1.120448	0.112972	0.226432	-0.1845	0.279	0.3945	0	377	91	3
2026-02-12	16:48:17.150	178.465	-35.21	113.33	1.024068	0.078812	0.311588	-0.168	0.297	0.3915	0	377	91	3
2026-02-12	16:48:17.170	191.1	-38.745	89.67	1.029192	0.113948	0.377956	-0.1665	0.3045	0.381	0	377	91	3
2026-02-12	16:48:17.190	189.455	-37.695	70.595	1.047248	0.19276	0.38186	-0.147	0.309	0.363	0	377	91	3
2026-02-12	16:48:17.210	174.335	-31.78	58.45	1.036512	0.280844	0.314272	-0.144	0.324	0.3705	0	375	93	3
2026-02-12	16:48:17.230	150.255	-24.255	52.535	1.006744	0.367708	0.250832	-0.1455	0.3225	0.3585	0	375	93	3
2026-02-12	16:48:17.250	120.155	-17.255	50.26	0.975756	0.386496	0.227652	-0.1365	0.3315	0.348	0	375	93	3
2026-02-12	16:48:17.270	92.995	-10.43	48.93	0.937936	0.369416	0.225212	-0.126	0.3285	0.3285	0	375	93	3
2026-02-12	16:48:17.290	74.095	-4.305	48.51	0.870104	0.33184	0.222528	-0.1335	0.33	0.3315	0	375	93	3
2026-02-12	16:48:17.310	64.96	-1.015	47.39	0.816668	0.315736	0.24522	-0.123	0.3255	0.318	0	375	93	3
2026-02-12	16:48:17.330	60.69	-1.19	43.435	0.794708	0.274988	0.263032	-0.1215	0.333	0.321	0	375	93	3
2026-02-12	16:48:17.350	61.145	-3.745	37.52	0.79178	0.265228	0.265228	-0.1215	0.333	0.321	0	375	93	3
2026-02-12	16:48:17.370	55.65	-8.19	31.71	0.810324	0.295728	0.290604	-0.114	0.3405	0.3105	0	375	93	3
2026-02-12	16:48:17.390	45.36	-12.985	24.57	0.837652	0.30012	0.312076	-0.108	0.345	0.3045	0	375	93	3
2026-02-12	16:48:17.410	35.21	-17.36	15.89	0.85034	0.307928	0.311344	-0.105	0.342	0.3015	0	371	126	3
2026-02-12	16:48:17.430	24.045	-22.12	6.265	0.87474	0.310612	0.305976	-0.1035	0.3465	0.2985	0	371	126	3
2026-02-12	16:48:17.450	8.19	-27.93	-3.71	0.969168	0.307196	0.348188	-0.108	0.3465	0.297	0	371	126	3
2026-02-12	16:48:17.470	-11.13	-31.64	-14.735	1.120692	0.310368	0.41846	-0.1095	0.342	0.2955	0	371	126	3
2026-02-12	16:48:17.490	-37.275	-29.855	-26.81	1.316136	0.342332	0.526064	-0.1095	0.348	0.3075	0	371	126	3
2026-02-12	16:48:17.510	-64.575	-17.535	-41.58	1.38958	0.329888	0.513864	-0.1185	0.348	0.312	0	371	126	3
2026-02-12	16:48:17.530	-76.825	-1.645	-63	1.510848	0.24522	0.367708	-0.1245	0.3405	0.3165	0	371	126	3
2026-02-12	16:48:17.550	-74.34	15.4	-88.305	1.610156	0.141032	0.186904	-0.1245	0.3375	0.327	0	371	126	3
2026-02-12	16:48:17.570	-69.265	31.395	-111.37	1.624064	0.055876	0.08662	-0.1335	0.3315	0.33	0	371	126	3
2026-02-12	16:48:17.590	-61.915	45.08	-132.23	1.547692	0.012688	0.081252	-0.141	0.3195	0.3285	0	371	126	3
2026-02-12	16:48:17.610	-48.755	56.42	-158.655	1.4091	-0.058072	0.115656	-0.141	0.3135	0.3285	0	365	170	3
2026-02-12	16:48:17.630	-34.3	58.31	-171.43	1.34078	-0.044164	0.16836	-0.141	0.3135	0.3285	0	365	170	3
2026-02-12	16:48:17.650	-16.485	58.38	-180.495	1.289052	0.013176	0.175436	-0.177	0.2595	0.3165	0	365	170	3
2026-02-12	16:48:17.670	-1.855	57.96	-185.29	1.189744	0.077348	0.176412	-0.1845	0.2475	0.309	0	365	170	3
2026-02-12	16:48:17.690	2.59	53.725	-184.975	1.169248	0.149084	0.201056	-0.1965	0.225	0.3015	0	365	170	3
2026-02-12	16:48:17.710	-0.245	50.925	-182.315	1.245132	0.200568	0.167384	-0.207	0.2055	0.297	0	365	170	3
2026-02-12	16:48:17.730	-3.745	51.94	-179.725	1.274656	0.191296	0.07076	-0.2115	0.177	0.288	0	365	170	3
2026-02-12	16:48:17.750	-6.02	52.5	-176.12	1.264164	0.163968	-0.0305	-0.213	0.1515	0.2775	0	365	170	3
2026-02-12	16:48:17.770	-10.675	50.68	-172.725	1.230492	0.136884	-0.09638	-0.2175	0.129	0.2655	0	365	170	3
2026-02-12	16:48:17.790	-14.875	47.25	-169.505	1.197796	0.141276	-0.111752	-0.2145	0.1005	0.255	0	365	170	3
2026-02-12	16:48:17.810	-18.655	42.875	-167.475	1.157536	0.15616	-0.12322	-0.2145	0.0765	0.2505	0	359	189	3
2026-02-12	16:48:17.830	-16.38	36.995	-164.22	1.080676	0.17934	-0.13176	-0.2085	0.0615	0.2415	0	359	189	3
2026-02-12	16:48:17.850	-12.215	28.175	-158.025	0.998448	0.226676	-0.09394	-0.2055	0.0405	0.234	0	359	189	3
2026-02-12	16:48:17.870	-24.78	15.82	-146.72	0.912804	0.322812	-0.056364	-0.2055	0.0135	0.228	0	359	189	3
2026-02-12	16:48:17.890	-44.59	5.6	-133.035	0.850828	0.375516	-0.036844	-0.1995	0.003	0.2205	0	359	189	3
2026-02-12	16:48:17.910	-58.485	-1.54	-120.47	0.807396	0.36356	-0.05246	-0.1905	-0.024	0.2175	0	359	189	3
2026-02-12	16:48:17.930	-67.97	-8.645	-106.54	0.773724	0.347456	-0.063196	-0.1875	-0.039	0.2085	0	359	189	3
2026-02-12	16:48:17.950	-73.15	-15.47	-92.61	0.7442	0.312076	-0.052948	-0.18	-0.0495	0.213	0	359	189	3
2026-02-12	16:48:17.970	-72.66	-22.295	-78.785	0.728828	0.290848	-0.025376	-0.1785	-0.048	0.2025	0	359	189	3
2026-02-12	16:48:17.990	-66.675	-28.35	-64.19	0.708088	0.276452	0.016104	-0.1725	-0.069	0.2115	0	359	189	3
2026-02-12	16:48:18.010	-58.065	-34.685	-45.57	0.680028	0.274988	0.068808	-0.18	-0.066	0.207	0	352	166	3
2026-02-12	16:48:18.030	-54.705	-38.255	-34.44	0.662216	0.270596	0.097844	-0.18	-0.066	0.207	0	352	166	3
2026-02-12	16:48:18.050	-50.295	-42.63	-20.125	0.63196	0.260592	0.118828	-0.1785	-0.0675	0.2025	0	352	166	3
2026-02-12	16:48:18.070	-46.06	-46.9	-5.74	0.624396	0.245464	0.142252	-0.189	-0.0615	0.213	0	352	166	3
2026-02-12	16:48:18.090	-42.385	-51.31	9.275	0.6466	0.230336	0.15982	-0.192	-0.06	0.2085	0	352	166	3
2026-02-12	16:48:18.110	-39.55	-55.09	25.025	0.677832	0.212524	0.19642	-0.1905	-0.0585	0.222	0	352	166	3
2026-02-12	16:48:18.130	-36.68	-57.82	41.685	0.73322	0.193004	0.235216	-0.198	-0.0555	0.222	0	352	166	3
2026-02-12	16:48:18.150	-29.015	-58.1	66.99	0.8174	0.160064	0.235704	-0.198	-0.0555	0.222	0	352	166	3
2026-02-12	16:48:18.170	-18.83	-58.065	83.545	0.871812	0.138348	0.19764	-0.198	-0.0555	0.222	0	352	166	3
2026-02-12	16:48:18.190	-7.875	-59.465	100.73	0.961604	0.14396	0.171532	-0.213	-0.027	0.249	0	352	166	3
2026-02-12	16:48:18.210	-2.24	-60.865	117.6	1.054324	0.149572	0.211792	-0.2295	0	0.252	0	346	138	3
2026-02-12	16:48:18.230	-2.03	-60.585	132.545	1.132404	0.155916	0.277916	-0.2295	0.006	0.261	0	346	138	3
2026-02-12	16:48:18.250	-5.11	-58.03	143.745	1.16266	0.148108	0.321592	-0.24	0.027	0.2745	0	346	138	3
2026-02-12	16:48:18.270	-8.19	-54.74	150.57	1.184376	0.143228	0.343552	-0.237	0.0495	0.285	0	346	138	3
2026-02-12	16:48:18.290	-8.33	-51.73	155.19	1.233908	0.104432	0.319884	-0.243	0.072	0.2925	0	346	138	3
2026-02-12	16:48:18.310	-0.315	-52.395	161.455	1.480836	0.055144	0.299632	-0.243	0.081	0.3045	0	346	138	3
2026-02-12	16:48:18.330	11.97	-51.87	168.875	1.766072	0.037088	0.28304	-0.2385	0.1095	0.309	0	346	138	3
2026-02-12	16:48:18.350	32.445	-41.475	171.92	1.736548	0.07442	0.238388	-0.2355	0.135	0.3225	0	346	138	3
2026-02-12	16:48:18.370	58.59	-28.175	169.225	1.42374	0.083936	0.224968	-0.2355	0.165	0.3285	0	346	138	3
2026-02-12	16:48:18.390	87.36	-25.445	161.175	1.189256	0.129076	0.233264	-0.2355	0.1815	0.327	0	346	138	3
2026-02-12	16:48:18.410	108.815	-30.59	145.145	1.045052	0.148108	0.321836	-0.2295	0.2055	0.336	0	340	140	3
2026-02-12	16:48:18.430	106.68	-35.42	129.045	1.049688	0.143472	0.450912	-0.2145	0.2205	0.3315	0	340	140	3
2026-02-12	16:48:18.450	91.56	-34.475	118.51	1.092144	0.180072	0.4636	-0.2055	0.2445	0.3315	0	340	140	3
2026-02-12	16:48:18.470	75.495	-27.895	111.3	1.085068	0.215208	0.383568	-0.2085	0.261	0.333	0	340	140	3
2026-02-12	16:48:18.490	65.975	-21.455	107.45	1.087508	0.235704	0.276208	-0.204	0.273	0.3315	0	340	140	3
2026-02-12	16:48:18.510	64.47	-16.345	105.525	1.08946	0.235948	0.207156	-0.1935	0.2835	0.336	0	340	140	3
2026-02-12	16:48:18.530	67.305	-12.425	105.595	1.080676	0.226432	0.20984	-0.18	0.2955	0.333	0	340	140	3
2026-02-12	16:48:18.550	70.56	-8.505	105.525	1.04188	0.222528	0.24888	-0.1725	0.3045	0.327	0	340	140	3
2026-02-12	16:48:18.570	75.46	-5.18	103.32	0.9821	0.214964	0.261812	-0.165	0.312	0.324	0	340	140	3
2026-02-12	16:48:18.590	84.91	-3.535	99.155	0.919636	0.234728	0.255224	-0.1545	0.324	0.318	0	340	140	3
2026-02-12	16:48:18.610	93.065	-4.62	92.75	0.865712	0.262056	0.249368	-0.144	0.3345	0.312	0	334	168	3
2026-02-12	16:48:18.630	94.745	-6.86	84.14	0.825696	0.297924	0.27206	-0.138	0.3405	0.3075	0	334	168	3
2026-02-12	16:48:18.650	87.885	-11.025	73.85	0.846436	0.300852	0.29768	-0.1305	0.348	0.2985	0	334	168	3
2026-02-12	16:48:18.670	77.56	-13.405	62.685	0.832772	0.296704	0.288896	-0.123	0.3525	0.2925	0	334	168	3
2026-02-12	16:48:18.690	60.585	-18.655	45.745	0.837896	0.30256	0.2745	-0.1215	0.3525	0.2925	0	334	168	3
2026-02-12	16:48:18.710	50.715	-21.735	34.79	0.815448	0.312808	0.261568	-0.12	0.357	0.288	0	334	168	3
2026-02-12	16:48:18.730	41.475	-25.235	23.905	0.787876	0.317932	0.263764	-0.1125	0.36	0.282	0	334	168	3
2026-02-12	16:48:18.750	31.325	-29.995	12.775	0.822524	0.306464	0.310368	-0.1065	0.3585	0.2805	0	334	168	3
2026-02-12	16:48:18.770	17.885	-34.37	1.925	0.936716	0.323544	0.379908	-0.1065	0.36	0.2805	0	334	168	3
2026-02-12	16:48:18.790	-2.87	-37.205	-7.63	1.204872	0.3538	0.526796	-0.1095	0.3585	0.279	0	334	168	3
2026-02-12	16:48:18.810	-28.49	-29.645	-17.85	1.414956	0.36722	0.5612	-0.1125	0.3615	0.2805	0	326	202	3
2026-02-12	16:48:18.830	-41.475	-14.56	-33.635	1.47498	0.3111	0.41236	-0.117	0.363	0.288	0	326	202	3
2026-02-12	16:48:18.850	-43.54	-1.575	-55.44	1.508652	0.271328	0.253028	-0.1215	0.357	0.2955	0	326	202	3
2026-02-12	16:48:18.870	-50.435	9.17	-75.915	1.50304	0.22326	0.172752	-0.1275	0.354	0.294	0	326	202	3
2026-02-12	16:48:18.890	-59.885	18.095	-97.335	1.49084	0.167384	0.176412	-0.1365	0.357	0.297	0	326	202	3
2026-02-12	16:48:18.910	-63.63	25.76	-122.325	1.499136	0.06222	0.166652	-0.144	0.3525	0.297	0	326	202	3
2026-02-12	16:48:18.930	-54.11	34.37	-146.93	1.37494	0	0.131516	-0.153	0.3375	0.294	0	326	202	3
2026-02-12	16:48:18.950	-36.295	35.42	-171.36	1.224148	0.0488	0.122732	-0.159	0.3285	0.297	0	326	202	3
2026-02-12	16:48:18.970	-28.56	30.94	-190.925	1.132648	0.11956	0.132004	-0.159	0.3285	0.297	0	326	202	3
2026-02-12	16:48:18.990	-35.14	25.2	-201.285	1.123132	0.138592	0.16592	-0.204	0.2805	0.285	0	326	202	3
2026-02-12	16:48:19.010	-50.015	20.44	-206.255	1.205604	0.16958	0.215208	-0.216	0.261	0.2835	0	319	228	3
2026-02-12	16:48:19.030	-66.745	21.56	-205.87	1.27734	0.158356	0.190564	-0.216	0.225	0.2895	0	319	228	3
2026-02-12	16:48:19.050	-77.455	27.58	-200.48	1.232932	0.15128	0.12322	-0.237	0.21	0.2805	0	319	228	3
2026-02-12	16:48:19.070	-79.94	31.36	-192.115	1.204628	0.206668	0.048312	-0.243	0.177	0.285	0	319	228	3
2026-02-12	16:48:19.090	-83.3	33.46	-182.175	1.163392	0.227164	-0.000244	-0.243	0.1575	0.2835	0	319	228	3
2026-02-12	16:48:19.110	-80.71	33.425	-172.585	1.158512	0.204228	-0.00854	-0.2535	0.138	0.2745	0	319	228	3
2026-02-12	16:48:19.130	-66.78	31.99	-163.31	1.164368	0.213256	-0.012688	-0.255	0.1065	0.273	0	319	228	3
2026-02-12	16:48:19.150	-51.87	29.61	-154.735	1.21024	0.260836	-0.003904	-0.2595	0.09	0.2715	0	319	228	3
2026-02-12	16:48:19.170	-53.655	28.28	-144.025	1.20902	0.29646	0.000244	-0.261	0.072	0.264	0	319	228	3
2026-02-12	16:48:19.190	-60.305	27.405	-133.875	1.1834	0.307928	0.008296	-0.27	0.057	0.264	0	319	228	3
2026-02-12	16:48:19.210	-59.745	26.635	-125.23	1.138992	0.33428	-0.017324	-0.264	0.039	0.2595	0	311	222	3
2026-02-12	16:48:19.230	-50.085	25.305	-112.35	1.027728	0.309392	-0.074664	-0.2505	0.024	0.2505	0	311	222	3
2026-02-12	16:48:19.250	-40.39	22.54	-104.23	0.950868	0.280112	-0.061976	-0.255	0	0.2505	0	311	222	3
2026-02-12	16:48:19.270	-31.395	17.675	-96.11	0.876936	0.268644	-0.030744	-0.243	-0.009	0.237	0	311	222	3
2026-02-12	16:48:19.290	-23.135	11.69	-87.85	0.834968	0.277672	-0.001464	-0.2325	-0.024	0.243	0	311	222	3
2026-02-12	16:48:19.310	-17.465	6.86	-80.675	0.762744	0.290116	0.01708	-0.231	-0.0255	0.243	0	311	222	3
2026-02-12	16:48:19.330	-15.785	-0.315	-71.715	0.73932	0.28304	0.034648	-0.228	-0.0375	0.2355	0	311	222	3
2026-02-12	16:48:19.350	-19.285	-6.58	-61.95	0.702232	0.265228	0.058072	-0.216	-0.051	0.2295	0	311	222	3
2026-02-12	16:48:19.370	-27.51	-12.705	-51.94	0.671976	0.257908	0.083204	-0.222	-0.057	0.2295	0	311	222	3
2026-02-12	16:48:19.390	-38.395	-18.935	-41.09	0.644404	0.23912	0.094916	-0.2145	-0.0705	0.237	0	311	222	3
2026-02-12	16:48:19.410	-47.845	-25.375	-29.05	0.637084	0.207644	0.107604	-0.216	-0.0675	0.2295	0	304	186	3
2026-02-12	16:48:19.430	-54.6	-31.255	-15.715	0.642696	0.18422	0.132004	-0.216	-0.0765	0.237	0	304	186	3
2026-02-12	16:48:19.450	-58.59	-37.555	-0.84	0.6588	0.168116	0.153476	-0.2175	-0.078	0.2325	0	304	186	3
2026-02-12	16:48:19.470	-58.73	-43.61	15.4	0.714676	0.147376	0.151036	-0.2085	-0.0765	0.243	0	304	186	3
2026-02-12	16:48:19.490	-52.815	-51.73	36.82	0.778604	0.128344	0.150304	-0.2265	-0.0705	0.249	0	304	186	3
2026-02-12	16:48:19.510	-43.68	-59.465	58.205	0.864736	0.099308	0.164944	-0.228	-0.063	0.2505	0	304	186	3
2026-02-12	16:48:19.530	-33.6	-63.945	74.795	0.93208	0.067832	0.180072	-0.2325	-0.0465	0.258	0	304	186	3
2026-02-12	16:48:19.550	-22.19	-67.165	91.63	0.98332	0.06466	0.188856	-0.2385	-0.036	0.267	0	304	186	3
2026-02-12	16:48:19.570	-13.3	-70.245	108.64	1.066768	0.072956	0.213012	-0.2505	-0.0255	0.276	0	304	186	3
2026-02-12	16:48:19.590	-7.945	-72.275	126.105	1.179008	0.040992	0.218624	-0.2565	-0.0075	0.2895	0	304	186	3
2026-02-12	16:48:19.610	0	-74.9	147.945	1.382992	0.007808	0.2318	-0.258	0.009	0.3045	0	298	156	3
2026-02-12	16:48:19.630	13.335	-75.495	173.46	1.625528	0.023424	0.2318	-0.264	0.0315	0.3135	0	298	156	3
2026-02-12	16:48:19.650	32.69	-70.21	196.42	1.712636	0.035868	0.20862	-0.27	0.057	0.327	0	298	156	3
2026-02-12	16:48:19.670	62.44	-60.83	210.63	1.571116	0.02806	0.15616	-0.273	0.0855	0.3405	0	298	156	3
2026-02-12	16:48:19.690	107.065	-55.23	217.28	1.441796	0.040992	0.110044	-0.273	0.1185	0.351	0	298	156	3
2026-02-12	16:48:19.710	153.93	-53.585	216.965	1.355908	0.056364	0.1403	-0.2685	0.153	0.357	0	298	156	3
2026-02-12	16:48:19.730	188.055	-56.385	213.465	1.313208	0.053436	0.19642	-0.264	0.1815	0.3585	0	298	156	3
2026-02-12	16:48:19.750	201.6	-58.45	210.49	1.338828	0.116632	0.29524	-0.2565	0.207	0.3615	0	298	156	3
2026-02-12	16:48:19.770	183.89	-56.735	209.965	1.381284	0.294264	0.38064	-0.2505	0.2235	0.363	0	298	156	3
2026-02-12	16:48:19.790	142.905	-50.96	211.54	1.396656	0.398696	0.347212	-0.2355	0.2505	0.363	0	298	156	3
2026-02-12	16:48:19.810	95.725	-43.33	212.135	1.379088	0.445056	0.30012	-0.2145	0.288	0.363	0	296	151	3
2026-02-12	16:48:19.830	57.085	-35.525	208.915	1.324676	0.395768	0.255468	-0.1965	0.3165	0.36	0	296	151	3
2026-02-12	16:48:19.850	36.75	-31.325	202.965	1.248792	0.324764	0.237412	-0.18	0.345	0.354	0	296	151	3
2026-02-12	16:48:19.870	35.735	-29.82	194.88	1.169492	0.269132	0.260348	-0.1575	0.3675	0.3525	0	296	151	3
2026-02-12	16:48:19.890	51.52	-30.1	184.275	1.119472	0.254736	0.293288	-0.132	0.3915	0.3555	0	296	151	3
2026-02-12	16:48:19.910	72.275	-29.68	168.665	1.069696	0.282064	0.304024	-0.114	0.4155	0.354	0	296	151	3
2026-02-12	16:48:19.930	85.96	-28.385	149.275	1.01748	0.333792	0.27572	-0.0945	0.4335	0.3495	0	296	151	3
2026-02-12	16:48:19.950	89.215	-29.085	129.605	1.003328	0.357216	0.25742	-0.075	0.447	0.3435	0	296	151	3
2026-02-12	16:48:19.970	83.93	-31.675	106.96	1.063596	0.402112	0.265472	-0.06	0.4545	0.333	0	296	151	3
2026-02-12	16:48:19.990	71.75	-33.25	80.955	1.098976	0.425292	0.279868	-0.042	0.4605	0.327	0	296	151	3
2026-02-12	16:48:20.010	58.31	-31.36	52.57	1.036024	0.457744	0.313784	-0.033	0.4605	0.3225	0	295	170	3
2026-02-12	16:48:20.030	28.77	-30.73	18.935	1.049932	0.410896	0.478728	-0.027	0.462	0.3195	0	295	170	3
2026-02-12	16:48:20.050	3.43	-26.04	-11.2	1.198528	0.23668	0.572912	-0.0225	0.4665	0.3225	0	295	170	3
2026-02-12	16:48:20.070	6.685	-12.46	-34.685	1.221464	0.070028	0.43554	-0.03	0.4695	0.321	0	295	170	3
2026-02-12	16:48:20.090	23.87	0.385	-59.36	1.212436	-0.044896	0.241316	-0.033	0.468	0.327	0	295	170	3
2026-02-12	16:48:20.110	30.975	7.91	-83.825	1.234884	-0.085156	0.178608	-0.0405	0.4635	0.315	0	295	170	3
2026-02-12	16:48:20.130	25.62	14	-107.975	1.23708	-0.080032	0.183244	-0.0555	0.4485	0.318	0	295	170	3
2026-02-12	16:48:20.150	8.365	20.58	-131.18	1.194624	-0.020252	0.214232	-0.057	0.4485	0.3015	0	295	170	3
2026-02-12	16:48:20.170	-22.295	26.355	-150.57	1.173152	0.0915	0.226188	-0.087	0.4305	0.3105	0	295	170	3
2026-02-12	16:48:20.190	-56.49	31.22	-165.9	1.214876	0.122244	0.212036	-0.096	0.42	0.3105	0	295	170	3
2026-02-12	16:48:20.210	-81.83	36.26	-181.23	1.262456	0.11712	0.19154	-0.1185	0.3975	0.318	0	294	200	3
2026-02-12	16:48:20.230	-98.105	41.965	-196.105	1.270752	0.032696	0.146644	-0.1425	0.384	0.324	0	294	200	3
2026-02-12	16:48:20.250	-99.75	45.43	-209.055	1.235128	-0.009028	0.112728	-0.165	0.363	0.3315	0	294	200	3
2026-02-12	16:48:20.270	-91.42	46.865	-217.175	1.20414	-0.015372	0.08784	-0.1725	0.345	0.327	0	294	200	3
2026-02-12	16:48:20.290	-82.215	43.715	-221.97	1.20536	0.015616	0.103944	-0.1905	0.318	0.33	0	294	200	3
2026-02-12	16:48:20.310	-77.98	41.79	-218.54	1.297104	0.10736	0.104432	-0.219	0.285	0.3255	0	294	200	3
2026-02-12	16:48:20.330	-72.205	45.535	-213.815	1.350296	0.22326	0.06588	-0.219	0.285	0.3255	0	294	200	3
2026-02-12	16:48:20.350	-70.28	49.42	-208.53	1.41276	0.299876	-0.0061	-0.243	0.219	0.324	0	294	200	3
2026-02-12	16:48:20.370	-74.655	52.955	-200.27	1.448384	0.332084	-0.055144	-0.243	0.192	0.318	0	294	200	3
2026-02-12	16:48:20.390	-84.525	55.335	-190.96	1.476932	0.31964	-0.064416	-0.261	0.1635	0.315	0	294	200	3
2026-02-12	16:48:20.410	-94.57	57.225	-182.945	1.482056	0.343796	-0.0732	-0.2535	0.1395	0.297	0	291	207	3
2026-02-12	16:48:20.430	-97.055	57.785	-176.155	1.46888	0.289872	-0.081984	-0.258	0.117	0.291	0	291	207	3
2026-02-12	16:48:20.450	-88.375	55.965	-170.1	1.403488	0.272548	-0.068808	-0.2535	0.0945	0.2775	0	291	207	3
2026-02-12	16:48:20.470	-75.635	50.82	-165.375	1.301984	0.242292	-0.052704	-0.2505	0.066	0.279	0	291	207	3
2026-02-12	16:48:20.490	-60.06	44.1	-161.7	1.193648	0.223016	-0.03782	-0.2445	0.045	0.255	0	291	207	3
2026-02-12	16:48:20.510	-42.28	35.63	-157.745	1.080432	0.217648	-0.039772	-0.2385	0.033	0.261	0	291	207	3
2026-02-12	16:48:20.530	-24.815	25.585	-153.125	1.001132	0.256932	-0.049776	-0.2355	0.0105	0.2565	0	291	207	3
2026-02-12	16:48:20.550	-19.425	15.505	-146.195	0.925492	0.252296	-0.057584	-0.2235	-0.0105	0.2415	0	291	207	3
2026-02-12	16:48:20.570	-20.86	3.185	-133.945	0.858392	0.231312	-0.049288	-0.225	-0.0255	0.237	0	291	207	3
2026-02-12	16:48:20.590	-27.02	-8.33	-118.545	0.79422	0.222528	-0.024644	-0.225	-0.0255	0.237	0	291	207	3
2026-02-12	16:48:20.610	-33.635	-16.59	-104.475	0.777872	0.2196	-0.002684	-0.213	-0.0465	0.2325	0	288	177	3
2026-02-12	16:48:20.630	-39.9	-23.275	-89.67	0.721508	0.197884	0.015616	-0.204	-0.075	0.231	0	288	177	3
2026-02-12	16:48:20.650	-44.555	-30.835	-74.06	0.69662	0.17568	0.032208	-0.2025	-0.084	0.231	0	288	177	3
2026-02-12	16:48:20.670	-48.895	-38.64	-57.855	0.679296	0.137128	0.050264	-0.1995	-0.0885	0.2355	0	288	177	3
2026-02-12	16:48:20.690	-52.605	-47.11	-40.32	0.692228	0.106628	0.082716	-0.198	-0.093	0.2385	0	288	177	3
2026-02-12	16:48:20.710	-56.07	-54.88	-21.63	0.709552	0.090036	0.135176	-0.195	-0.0915	0.2385	0	288	177	3
2026-02-12	16:48:20.730	-58.135	-60.865	-2.765	0.731756	0.078568	0.182512	-0.1965	-0.093	0.24	0	288	177	3
2026-02-12	16:48:20.750	-56.84	-65.695	15.225	0.760548	0.064904	0.2013	-0.201	-0.0885	0.243	0	288	177	3
2026-02-12	16:48:20.770	-50.96	-69.825	31.85	0.804224	0.058804	0.21716	-0.204	-0.087	0.2475	0	288	177	3
2026-02-12	16:48:20.790	-42.805	-73.43	47.81	0.850584	0.036356	0.210816	-0.21	-0.0825	0.255	0	288	177	3
2026-02-12	16:48:20.810	-31.29	-75.32	63.665	0.87108	0.025132	0.2196	-0.213	-0.072	0.2685	0	287	140	3
2026-02-12	16:48:20.830	-20.195	-77.21	78.89	0.898164	0.021716	0.240828	-0.219	-0.063	0.2745	0	287	140	3
2026-02-12	16:48:20.850	-8.785	-78.4	102.9	0.978196	0.016592	0.285968	-0.225	-0.06	0.276	0	287	140	3
2026-02-12	16:48:20.870	-1.19	-78.505	122.605	1.101904	-0.00976	0.28914	-0.2265	-0.033	0.3015	0	287	140	3
2026-02-12	16:48:20.890	10.22	-78.26	147.63	1.314916	-0.04514	0.26718	-0.24	-0.021	0.309	0	287	140	3
2026-02-12	16:48:20.910	29.085	-76.545	176.855	1.541592	-0.04636	0.246928	-0.2505	0	0.327	0	287	140	3
2026-02-12	16:48:20.930	58.03	-69.37	204.68	1.660908	-0.022448	0.2135	-0.2535	0.018	0.336	0	287	140	3
2026-02-12	16:48:20.950	98.63	-60.55	227.115	1.649928	0.004392	0.160064	-0.2595	0.0435	0.3465	0	287	140	3
2026-02-12	16:48:20.970	150.395	-54.285	239.54	1.57502	0.058316	0.180804	-0.2595	0.0765	0.3615	0	287	140	3
2026-02-12	16:48:20.990	202.055	-49.84	245	1.47498	0.101504	0.172996	-0.258	0.114	0.366	0	287	140	3
2026-02-12	16:48:21.010	238.42	-49.035	243.11	1.402512	0.1647	0.260836	-0.2595	0.147	0.3705	0	288	133	3
2026-02-12	16:48:21.030	250.495	-46.025	237.615	1.378112	0.18666	0.347212	-0.252	0.177	0.3765	0	288	133	3
2026-02-12	16:48:21.050	237.615	-43.855	234.955	1.372988	0.278404	0.406504	-0.24	0.207	0.3795	0	288	133	3
2026-02-12	16:48:21.070	197.33	-38.92	233.31	1.388604	0.412604	0.401868	-0.225	0.2355	0.3735	0	288	133	3
2026-02-12	16:48:21.090	139.125	-31.745	228.235	1.363716	0.479948	0.360144	-0.2115	0.2685	0.369	0	288	133	3
2026-02-12	16:48:21.110	73.85	-24.22	216.09	1.280268	0.46604	0.307928	-0.1935	0.3015	0.366	0	288	133	3
2026-02-12	16:48:21.130	31.5	-20.545	199.15	1.201944	0.386496	0.275964	-0.1815	0.315	0.3645	0	288	133	3
2026-02-12	16:48:21.150	20.23	-20.37	182.035	1.154608	0.319152	0.259372	-0.153	0.363	0.3645	0	288	133	3
2026-02-12	16:48:21.170	25.97	-20.335	161.665	1.134844	0.301828	0.2623	-0.1275	0.39	0.3705	0	288	133	3
2026-02-12	16:48:21.190	33.81	-20.65	140.21	1.0614	0.299144	0.269864	-0.108	0.408	0.366	0	288	133	3
2026-02-12	16:48:21.210	42.49	-22.365	118.055	1.047736	0.291824	0.259372	-0.0975	0.417	0.3615	0	292	155	3
2026-02-12	16:48:21.230	50.085	-23.1	93.17	0.992592	0.313052	0.258884	-0.09	0.429	0.3705	0	292	155	3
2026-02-12	16:48:21.250	54.04	-25.095	67.13	0.904996	0.33428	0.24766	-0.0645	0.426	0.36	0	292	155	3
2026-02-12	16:48:21.270	55.125	-29.12	41.86	0.84668	0.36722	0.263276	-0.0645	0.4395	0.3465	0	292	155	3
2026-02-12	16:48:21.290	49.63	-32.935	17.92	0.83692	0.383568	0.31232	-0.0525	0.45	0.351	0	292	155	3
2026-02-12	16:48:21.310	39.76	-34.58	-5.11	0.918416	0.378688	0.379908	-0.0555	0.4455	0.348	0	292	155	3
2026-02-12	16:48:21.330	22.75	-34.72	-25.095	1.162416	0.366	0.489708	-0.0555	0.444	0.345	0	292	155	3
2026-02-12	16:48:21.350	2.135	-25.41	-42.105	1.3359	0.392596	0.51118	-0.0585	0.4395	0.342	0	292	155	3
2026-02-12	16:48:21.370	-8.505	-10.01	-59.64	1.399096	0.364048	0.360876	-0.066	0.4335	0.345	0	292	155	3
2026-02-12	16:48:21.390	-8.785	9.8	-97.44	1.519388	0.27938	0.172508	-0.066	0.4335	0.345	0	292	155	3
2026-02-12	16:48:21.410	-7.91	20.055	-128.38	1.54452	0.183488	0.132248	-0.066	0.4335	0.345	0	296	190	3
2026-02-12	16:48:21.430	-3.78	28.455	-163.31	1.515972	0.09516	0.155916	-0.0975	0.414	0.348	0	296	190	3
2026-02-12	16:48:21.450	-1.715	32.305	-199.71	1.437892	0.027328	0.166896	-0.1215	0.405	0.3435	0	296	190	3
2026-02-12	16:48:21.470	-4.305	30.345	-229.565	1.392752	0.002928	0.19886	-0.1365	0.3855	0.348	0	296	190	3
2026-02-12	16:48:21.490	-9.555	26.04	-252.105	1.407636	0.049776	0.241804	-0.156	0.3525	0.33	0	296	190	3
2026-02-12	16:48:21.510	-21.49	22.26	-269.045	1.5372	0.114192	0.315492	-0.177	0.3195	0.33	0	296	190	3
2026-02-12	16:48:21.530	-34.825	25.445	-280.455	1.612352	0.132492	0.331108	-0.198	0.2865	0.3315	0	296	190	3
2026-02-12	16:48:21.550	-35.42	31.745	-290.395	1.722396	0.126636	0.264496	-0.2175	0.264	0.3255	0	296	190	3
2026-02-12	16:48:21.570	-27.44	37.24	-296.52	1.758508	0.092476	0.15006	-0.2295	0.21	0.3255	0	296	190	3
2026-02-12	16:48:21.590	-22.365	40.355	-298.55	1.727032	0.00732	0.045872	-0.2355	0.18	0.321	0	296	190	3
2026-02-12	16:48:21.610	-20.51	43.12	-295.4	1.610156	-0.050264	-0.003416	-0.258	0.1305	0.306	0	300	214	3
2026-02-12	16:48:21.630	-22.295	43.96	-287.875	1.423984	-0.005368	-0.041236	-0.2535	0.084	0.297	0	300	214	3
2026-02-12	16:48:21.650	-32.655	38.955	-264.53	1.251232	0.05368	-0.054168	-0.252	0.0465	0.2925	0	300	214	3
2026-02-12	16:48:21.670	-38.57	33.39	-236.53	1.055056	0.106384	-0.027572	-0.2445	0.012	0.2835	0	300	214	3
2026-02-12	16:48:21.690	-35.28	28.175	-210.525	0.991616	0.195444	-0.005368	-0.234	-0.036	0.27	0	300	214	3
2026-02-12	16:48:21.710	-34.265	24.535	-183.89	0.93574	0.2074	-0.017324	-0.2205	-0.063	0.261	0	300	214	3
2026-02-12	16:48:21.730	-34.265	22.365	-158.48	0.835212	0.222772	-0.020984	-0.2055	-0.09	0.2565	0	300	214	3
2026-02-12	16:48:21.750	-34.195	18.865	-133.945	0.752496	0.282064	-0.018544	-0.192	-0.111	0.252	0	300	214	3
2026-02-12	16:48:21.770	-38.395	14.665	-113.12	0.709308	0.335988	-0.005124	-0.183	-0.123	0.24	0	300	214	3
2026-02-12	16:48:21.790	-46.69	10.465	-93.03	0.697596	0.3355	0.012444	-0.1755	-0.1305	0.2325	0	300	214	3
2026-02-12	16:48:21.810	-54.215	6.965	-73.115	0.63684	0.310856	0.02074	-0.171	-0.135	0.2325	0	306	204	3
2026-02-12	16:48:21.830	-55.51	2.905	-55.055	0.576328	0.273524	0.015616	-0.168	-0.144	0.2295	0	306	204	3
2026-02-12	16:48:21.850	-50.82	-3.29	-37.555	0.535824	0.27938	0.02074	-0.1575	-0.147	0.228	0	306	204	3
2026-02-12	16:48:21.870	-45.08	-10.675	-20.51	0.523136	0.287188	0.033428	-0.156	-0.1485	0.222	0	306	204	3
2026-02-12	16:48:21.890	-34.44	-19.215	-2.135	0.495808	0.29402	0.042456	-0.159	-0.1515	0.216	0	306	204	3
2026-02-12	16:48:21.910	-21.28	-29.435	16.94	0.494344	0.319884	0.056852	-0.1605	-0.147	0.2205	0	306	204	3
2026-02-12	16:48:21.930	-6.16	-44.555	44.03	0.531432	0.374784	0.0976	-0.1635	-0.141	0.2265	0	306	204	3
2026-02-12	16:48:21.950	-5.635	-52.955	60.935	0.572668	0.409432	0.11468	-0.165	-0.1395	0.2355	0	306	204	3
2026-02-12	16:48:21.970	-9.205	-59.745	77.35	0.586332	0.365268	0.112728	-0.171	-0.132	0.2415	0	306	204	3
2026-02-12	16:48:21.990	-11.795	-67.025	94.185	0.5978	0.3111	0.109312	-0.1785	-0.12	0.243	0	306	204	3
2026-02-12	16:48:22.010	-11.9	-74.585	112.175	0.640744	0.26474	0.11956	-0.1875	-0.111	0.252	0	317	171	2
2026-02-12	16:48:22.030	-10.64	-82.005	132.09	0.7137	0.235704	0.144692	-0.201	-0.0945	0.2625	0	317	171	2
2026-02-12	16:48:22.050	-7.42	-87.605	153.65	0.815448	0.214232	0.175436	-0.2115	-0.075	0.27	0	317	171	2
2026-02-12	16:48:22.070	-1.155	-91.07	175.385	0.940132	0.200812	0.217404	-0.2175	-0.057	0.2805	0	317	171	2
2026-02-12	16:48:22.090	5.285	-92.015	196.35	1.101172	0.200568	0.272304	-0.228	-0.0345	0.2985	0	317	171	2
2026-02-12	16:48:22.110	7.49	-88.025	213.64	1.274168	0.206424	0.349164	-0.2415	-0.0105	0.315	0	317	171	2
2026-02-12	16:48:22.130	3.92	-77.7	228.27	1.421056	0.236192	0.427	-0.2505	0.018	0.327	0	317	171	2
2026-02-12	16:48:22.150	-5.04	-61.775	236.705	1.490352	0.193004	0.450668	-0.258	0.048	0.342	0	317	171	2
2026-02-12	16:48:22.170	-3.43	-46.83	239.47	1.609912	0.089548	0.391132	-0.258	0.0825	0.3525	0	317	171	2
2026-02-12	16:48:22.190	28.28	-31.815	242.41	1.98616	0.037088	0.26718	-0.258	0.102	0.354	0	317	171	2
2026-02-12	16:48:22.210	80.325	-6.895	236.74	2.001532	0.005856	0.065636	-0.258	0.102	0.354	0	329	156	3
2026-02-12	16:48:22.230	129.29	4.235	222.46	1.61406	0.131272	0.060268	-0.231	0.207	0.3735	0	329	156	3
2026-02-12	16:48:22.250	164.815	-5.915	196.245	1.423252	0.19154	0.2379	-0.222	0.2415	0.366	0	329	156	3
2026-02-12	16:48:22.270	178.535	-7.875	167.86	1.152412	0.200324	0.441152	-0.2145	0.264	0.3675	0	329	156	3
2026-02-12	16:48:22.290	175.245	-15.015	141.295	1.074088	0.206424	0.608536	-0.1965	0.2865	0.3405	0	329	156	3
2026-02-12	16:48:22.310	151.2	-19.39	121.275	1.04676	0.245464	0.560712	-0.183	0.2925	0.3405	0	329	156	3
2026-02-12	16:48:22.330	116.865	-21.315	109.69	1.050908	0.296216	0.371124	-0.186	0.3105	0.3345	0	329	156	3
2026-02-12	16:48:22.350	74.76	-20.86	106.575	1.063108	0.47946	0.309392	-0.1695	0.3165	0.33	0	329	156	3
2026-02-12	16:48:22.370	30.31	-16.135	103.985	1.071404	0.46848	0.263764	-0.1575	0.33	0.3285	0	329	156	3
2026-02-12	16:48:22.390	-0.91	-10.535	102.305	1.018944	0.429684	0.238632	-0.144	0.336	0.3225	0	329	156	3
2026-02-12	16:48:22.410	-13.02	-4.655	99.085	0.942816	0.38064	0.215696	-0.141	0.354	0.3255	0	342	173	3
2026-02-12	16:48:22.430	-15.785	-1.085	95.27	0.834968	0.331108	0.219844	-0.1305	0.3645	0.336	0	342	173	3
2026-02-12	16:48:22.450	-11.13	-1.47	88.585	0.772992	0.299876	0.24644	-0.123	0.369	0.333	0	342	173	3
2026-02-12	16:48:22.470	1.26	-5.775	72.625	0.742248	0.254248	0.28548	-0.117	0.3795	0.333	0	342	173	3
2026-02-12	16:48:22.490	6.475	-10.605	60.41	0.759328	0.264008	0.32574	-0.1065	0.39	0.3375	0	342	173	3
2026-02-12	16:48:22.510	7.945	-15.33	47.6	0.792512	0.28304	0.354044	-0.1005	0.393	0.3345	0	342	173	3
2026-02-12	16:48:22.530	7.665	-19.565	33.915	0.810568	0.316224	0.357216	-0.0915	0.3945	0.333	0	342	173	3
2026-02-12	16:48:22.550	5.6	-22.645	20.3	0.811056	0.354532	0.343796	-0.09	0.411	0.339	0	342	173	3
2026-02-12	16:48:22.570	-0.035	-26.25	5.985	0.813252	0.356484	0.327936	-0.0885	0.414	0.3405	0	342	173	3
2026-02-12	16:48:22.590	-9.94	-29.82	-9.03	0.879132	0.31842	0.355996	-0.09	0.408	0.336	0	342	173	3
2026-02-12	16:48:22.610	-21.245	-30.555	-24.395	1.002108	0.306464	0.431636	-0.0825	0.4125	0.3585	0	352	207	3
2026-02-12	16:48:22.630	-34.23	-27.44	-39.76	1.20536	0.301828	0.495564	-0.0855	0.4095	0.351	0	352	207	3
2026-02-12	16:48:22.650	-47.25	-17.815	-54.635	1.40178	0.28426	0.500444	-0.099	0.411	0.357	0	352	207	3
2026-02-12	16:48:22.670	-47.46	-1.155	-70.455	1.515972	0.24034	0.405284	-0.1005	0.4065	0.372	0	352	207	3
2026-02-12	16:48:22.690	-36.68	15.575	-90.93	1.670424	0.20252	0.28182	-0.1125	0.3945	0.375	0	352	207	3
2026-02-12	16:48:22.710	-22.855	30.24	-116.795	1.829756	0.127368	0.1525	-0.1155	0.396	0.3795	0	352	207	3
2026-02-12	16:48:22.730	0	49	-156.73	1.7507	0.051728	0.072468	-0.141	0.3825	0.378	0	352	207	3
2026-02-12	16:48:22.750	13.335	56.455	-199.885	1.594784	0.03294	0.072224	-0.153	0.3645	0.3705	0	352	207	3
2026-02-12	16:48:22.770	7.035	50.925	-232.155	1.586976	-0.015372	0.084668	-0.1695	0.3285	0.36	0	352	207	3
2026-02-12	16:48:22.790	3.465	44.345	-260.085	1.5677	-0.0427	0.084424	-0.1875	0.2955	0.3495	0	352	207	3
2026-02-12	16:48:22.810	-0.175	38.325	-281.085	1.485716	0.022448	0.082472	-0.204	0.2625	0.3435	0	359	236	3
2026-02-12	16:48:22.830	-10.36	29.785	-291.725	1.425204	0.103456	0.05734	-0.216	0.2265	0.339	0	359	236	3
2026-02-12	16:48:22.850	-21.35	20.685	-292.915	1.365424	0.088084	0.004636	-0.231	0.1875	0.33	0	359	236	3
2026-02-12	16:48:22.870	-25.2	11.48	-283.745	1.320772	0.163968	-0.01342	-0.24	0.1485	0.327	0	359	236	3
2026-02-12	16:48:22.890	-35.84	4.2	-267.89	1.298812	0.19642	-0.038064	-0.2445	0.108	0.3255	0	359	236	3
2026-02-12	16:48:22.910	-48.545	-0.175	-248.01	1.255868	0.232288	-0.055632	-0.243	0.069	0.321	0	359	236	3
2026-02-12	16:48:22.930	-60.13	-3.29	-227.01	1.207068	0.199592	-0.063196	-0.2415	0.039	0.315	0	359	236	3
2026-02-12	16:48:22.950	-60.305	-3.255	-208.18	1.122156	0.200812	-0.06588	-0.237	0.006	0.3135	0	359	236	3
2026-02-12	16:48:22.970	-54.74	-3.5	-191.485	1.047736	0.203252	-0.072224	-0.228	-0.0225	0.315	0	359	236	3
2026-02-12	16:48:22.990	-47.145	-5.32	-174.72	0.97844	0.250588	-0.057828	-0.216	-0.045	0.312	0	359	236	3
2026-02-12	16:48:23.010	-37.03	-9.59	-149.73	0.902312	0.301828	-0.012932	-0.21	-0.0555	0.3105	0	363	225	3
2026-02-12	16:48:23.030	-31.08	-11.935	-132.93	0.85888	0.315492	0.003416	-0.21	-0.0735	0.3075	0	363	225	3
2026-02-12	16:48:23.050	-30.975	-13.02	-116.235	0.798856	0.316468	0.000976	-0.2025	-0.099	0.3045	0	363	225	3
2026-02-12	16:48:23.070	-32.305	-13.86	-99.05	0.75274	0.310124	-0.0061	-0.195	-0.1155	0.3045	0	363	225	3
2026-02-12	16:48:23.090	-33.32	-15.015	-81.025	0.718336	0.321348	0.019032	-0.189	-0.129	0.3015	0	363	225	3
2026-02-12	16:48:23.110	-36.575	-15.715	-62.93	0.67588	0.325984	0.054656	-0.177	-0.132	0.2985	0	363	225	3
2026-02-12	16:48:23.130	-38.955	-16.135	-45.955	0.623664	0.309636	0.074176	-0.171	-0.135	0.3015	0	363	225	3
2026-02-12	16:48:23.150	-40.39	-17.675	-29.645	0.585112	0.289628	0.086376	-0.1695	-0.1425	0.2985	0	363	225	3
2026-02-12	16:48:23.170	-42.21	-20.545	-12.95	0.556564	0.278404	0.10004	-0.1665	-0.147	0.297	0	363	225	3
2026-02-12	16:48:23.190	-45.36	-24.535	4.2	0.543144	0.258152	0.116388	-0.1665	-0.1455	0.297	0	363	225	3
2026-02-12	16:48:23.210	-45.99	-28.945	22.19	0.5429	0.248392	0.130296	-0.162	-0.1425	0.2985	0	366	185	3
2026-02-12	16:48:23.230	-44.52	-33.635	40.67	0.545096	0.240096	0.14396	-0.159	-0.141	0.3015	0	366	185	3
2026-02-12	16:48:23.250	-42.385	-38.675	59.99	0.555832	0.239364	0.157136	-0.171	-0.1365	0.297	0	366	185	3
2026-02-12	16:48:23.270	-40.285	-45.255	84.84	0.620492	0.251808	0.19276	-0.1815	-0.132	0.291	0	366	185	3
2026-02-12	16:48:23.290	-41.335	-50.645	109.445	0.717848	0.252052	0.213012	-0.1815	-0.132	0.291	0	366	185	3
2026-02-12	16:48:23.310	-42.14	-53.655	128.1	0.823012	0.233752	0.224236	-0.21	-0.0945	0.309	0	366	185	3
2026-02-12	16:48:23.330	-38.57	-56.49	145.74	0.97234	0.199836	0.218868	-0.198	-0.0855	0.3195	0	366	185	3
2026-02-12	16:48:23.350	-29.015	-58.45	162.12	1.105564	0.161772	0.203496	-0.213	-0.0645	0.327	0	366	185	3
2026-02-12	16:48:23.370	-15.785	-58.835	176.82	1.20902	0.152012	0.206424	-0.2205	-0.0435	0.3255	0	366	185	3
2026-02-12	16:48:23.390	-5.355	-58.835	188.86	1.30784	0.160552	0.2623	-0.228	-0.015	0.3375	0	366	185	3
2026-02-12	16:48:23.410	-3.15	-55.72	195.65	1.386652	0.169336	0.316956	-0.237	0.006	0.3465	0	368	157	3
2026-02-12	16:48:23.430	-0.805	-51.765	200.55	1.474248	0.111508	0.299388	-0.2445	0.0345	0.3555	0	368	157	3
2026-02-12	16:48:23.450	9.87	-50.575	206.465	1.723128	0.068076	0.304024	-0.2385	0.0735	0.3645	0	368	157	3
2026-02-12	16:48:23.470	25.9	-44.835	212.205	1.883436	0.061488	0.281576	-0.2445	0.093	0.3765	0	368	157	3
2026-02-12	16:48:23.490	57.05	-31.22	210.91	1.77998	0.044896	0.182268	-0.246	0.123	0.3765	0	368	157	3
2026-02-12	16:48:23.510	102.2	-19.95	204.75	1.515484	0.076372	0.096624	-0.2415	0.1575	0.387	0	368	157	3
2026-02-12	16:48:23.530	146.3	-17.185	193.655	1.273924	0.100772	0.084424	-0.231	0.1845	0.3885	0	368	157	3
2026-02-12	16:48:23.550	189.875	-24.675	171.57	1.131428	0.139324	0.266204	-0.222	0.2145	0.3885	0	368	157	3
2026-02-12	16:48:23.570	192.115	-27.475	160.02	1.13094	0.177632	0.388204	-0.216	0.231	0.378	0	368	157	3
2026-02-12	16:48:23.590	178.115	-25.655	153.44	1.159488	0.254004	0.362096	-0.2055	0.2565	0.378	0	368	157	3
2026-02-12	16:48:23.610	154.595	-20.825	151.655	1.187792	0.347944	0.253028	-0.1965	0.2745	0.357	0	369	158	3
2026-02-12	16:48:23.630	126.455	-14.49	152.6	1.186816	0.41358	0.167384	-0.1905	0.282	0.357	0	369	158	3
2026-02-12	16:48:23.650	96.04	-8.19	153.86	1.148752	0.438712	0.1403	-0.1695	0.303	0.3585	0	369	158	3
2026-02-12	16:48:23.670	70.42	-3.92	153.51	1.086044	0.393084	0.143472	-0.159	0.324	0.342	0	369	158	3
2026-02-12	16:48:23.690	58.765	-2.45	150.71	1.016748	0.353312	0.161772	-0.1455	0.3285	0.3435	0	369	158	3
2026-02-12	16:48:23.710	57.19	-3.99	144.69	0.95892	0.319396	0.18666	-0.135	0.3465	0.3465	0	369	158	3
2026-02-12	16:48:23.730	63.63	-7.735	135.205	0.9089	0.32086	0.200812	-0.117	0.366	0.3345	0	369	158	3
2026-02-12	16:48:23.750	67.725	-13.545	123.375	0.881084	0.334524	0.212524	-0.0975	0.378	0.321	0	369	158	3
2026-02-12	16:48:23.770	67.34	-20.195	108.955	0.863028	0.364048	0.234972	-0.093	0.3915	0.324	0	369	158	3
2026-02-12	16:48:23.790	60.725	-27.3	92.715	0.865956	0.367952	0.254736	-0.072	0.399	0.3195	0	369	158	3
2026-02-12	16:48:23.810	53.095	-34.72	68.74	0.871568	0.370636	0.236436	-0.0675	0.4155	0.3195	0	368	172	3
2026-02-12	16:48:23.830	42.595	-41.195	43.19	0.86498	0.376248	0.262056	-0.063	0.4125	0.3195	0	368	172	3
2026-02-12	16:48:23.850	29.4	-45.185	22.05	0.859856	0.36478	0.342088	-0.051	0.4125	0.312	0	368	172	3
2026-02-12	16:48:23.870	15.715	-47.81	0.875	0.960628	0.374052	0.43432	-0.045	0.414	0.309	0	368	172	3
2026-02-12	16:48:23.890	-11.62	-47.95	-16.45	1.271972	0.412604	0.571204	-0.0495	0.414	0.3135	0	368	172	3
2026-02-12	16:48:23.910	-40.18	-36.225	-32.55	1.489864	0.421144	0.470676	-0.054	0.4125	0.318	0	368	172	3
2026-02-12	16:48:23.930	-44.975	-19.215	-57.925	1.624064	0.345016	0.300364	-0.063	0.414	0.3285	0	368	172	3
2026-02-12	16:48:23.950	-39.795	-2.905	-92.33	1.650904	0.26596	0.177388	-0.072	0.4095	0.3375	0	368	172	3
2026-02-12	16:48:23.970	-36.4	9.275	-129.64	1.6348	0.155428	0.154696	-0.081	0.3975	0.339	0	368	172	3
2026-02-12	16:48:23.990	-31.43	17.85	-169.4	1.565504	0.07515199	0.162992	-0.096	0.384	0.3375	0	368	172	3
2026-02-12	16:48:24.010	-33.565	21.665	-207.48	1.533784	-0.007076	0.182268	-0.111	0.3705	0.3375	0	365	195	3
2026-02-12	16:48:24.030	-39.34	22.015	-239.33	1.50548	-0.057584	0.163236	-0.1305	0.3525	0.336	0	365	195	3
2026-02-12	16:48:24.050	-41.125	21.805	-263.305	1.42862	-0.003172	0.162504	-0.1515	0.324	0.339	0	365	195	3
2026-02-12	16:48:24.070	-43.295	19.985	-279.58	1.389092	0.068808	0.164456	-0.1725	0.2925	0.3375	0	365	195	3
2026-02-12	16:48:24.090	-54.25	16.8	-288.54	1.381528	0.105652	0.214964	-0.1935	0.258	0.3345	0	365	195	3
2026-02-12	16:48:24.110	-58.24	18.305	-285.6	1.330288	0.15006	0.214964	-0.21	0.2235	0.336	0	365	195	3
2026-02-12	16:48:24.130	-64.365	19.775	-273.805	1.280756	0.138592	0.152012	-0.222	0.189	0.336	0	365	195	3
2026-02-12	16:48:24.150	-66.15	21	-258.02	1.219268	0.199836	0.08662	-0.2295	0.1515	0.33	0	365	195	3
2026-02-12	16:48:24.170	-70.245	20.79	-239.155	1.22488	0.246196	0.029524	-0.231	0.1185	0.3255	0	365	195	3
2026-02-12	16:48:24.190	-75.075	21.49	-218.435	1.209264	0.267424	-0.007076	-0.2295	0.09	0.3255	0	365	195	3
2026-02-12	16:48:24.210	-80.255	22.75	-197.715	1.170468	0.276208	-0.021472	-0.2295	0.0585	0.321	0	360	206	3
2026-02-12	16:48:24.230	-83.51	24.185	-178.5	1.12118	0.295484	-0.034648	-0.225	0.0285	0.315	0	360	206	3
2026-02-12	16:48:24.250	-89.705	25.165	-160.335	1.068476	0.298656	-0.039284	-0.219	0.0075	0.3045	0	360	206	3
2026-02-12	16:48:24.270	-97.09	25.55	-142.17	0.975756	0.288164	-0.040992	-0.2145	-0.006	0.291	0	360	206	3
2026-02-12	16:48:24.290	-99.015	23.38	-126.245	0.925492	0.301828	-0.035624	-0.21	-0.0225	0.2865	0	360	206	3
2026-02-12	16:48:24.310	-97.055	20.055	-112.14	0.886452	0.352336	-0.035136	-0.2055	-0.033	0.279	0	360	206	3
2026-02-12	16:48:24.330	-95.655	15.365	-98.35	0.861076	0.366244	-0.039284	-0.198	-0.042	0.2685	0	360	206	3
2026-02-12	16:48:24.350	-88.76	8.54	-82.495	0.808128	0.374784	-0.023912	-0.1935	-0.051	0.264	0	360	206	3
2026-02-12	16:48:24.370	-78.995	0.7	-68.95	0.759816	0.362828	-0.002928	-0.192	-0.0555	0.264	0	360	206	3
2026-02-12	16:48:24.390	-69.3	-5.705	-59.745	0.7137	0.3416	0.013176	-0.1845	-0.0585	0.2565	0	360	206	3
2026-02-12	16:48:24.410	-58.135	-12.53	-51.345	0.668072	0.316712	0.025376	-0.1785	-0.063	0.2505	0	354	185	3
2026-02-12	16:48:24.430	-47.18	-20.055	-42.105	0.643428	0.316712	0.035868	-0.177	-0.069	0.2565	0	354	185	3
2026-02-12	16:48:24.450	-37.24	-27.615	-31.325	0.636108	0.313784	0.059536	-0.183	-0.078	0.255	0	354	185	3
2026-02-12	16:48:24.470	-30.73	-35.035	-18.305	0.653432	0.316224	0.07905599	-0.174	-0.0795	0.2595	0	354	185	3
2026-02-12	16:48:24.490	-25.655	-41.825	-3.815	0.661484	0.309392	0.096136	-0.1725	-0.078	0.255	0	354	185	3
2026-02-12	16:48:24.510	-21.805	-48.72	11.83	0.699548	0.308416	0.115412	-0.171	-0.0765	0.255	0	354	185	3
2026-02-12	16:48:24.530	-19.67	-55.335	28.105	0.725412	0.290848	0.151036	-0.1725	-0.072	0.264	0	354	185	3
2026-02-12	16:48:24.550	-19.775	-61.46	44.31	0.769576	0.266204	0.197396	-0.18	-0.063	0.282	0	354	185	3
2026-02-12	16:48:24.570	-20.23	-66.045	59.675	0.815936	0.230824	0.229848	-0.183	-0.0585	0.276	0	354	185	3
2026-02-12	16:48:24.590	-16.695	-69.335	73.99	0.862296	0.207156	0.228384	-0.186	-0.042	0.288	0	354	185	3
2026-02-12	16:48:24.610	-11.34	-71.785	87.85	0.923052	0.182756	0.227164	-0.1995	-0.0435	0.3	0	349	155	3
2026-02-12	16:48:24.630	-2.66	-73.01	108.01	1.0065	0.150548	0.237168	-0.204	-0.027	0.306	0	349	155	3
2026-02-12	16:48:24.650	4.41	-71.855	119.98	1.051152	0.146644	0.24278	-0.213	-0.0135	0.3135	0	349	155	3
2026-02-12	16:48:24.670	10.185	-68.915	130.27	1.071648	0.149816	0.253028	-0.2145	-0.003	0.3345	0	349	155	3
2026-02-12	16:48:24.690	12.11	-65.24	139.755	1.094096	0.13664	0.271816	-0.2265	0.0105	0.3405	0	349	155	3
2026-02-12	16:48:24.710	13.09	-60.655	148.225	1.121424	0.11712	0.300852	-0.225	0.0345	0.3435	0	349	155	3
2026-02-12	16:48:24.730	16.905	-56.385	157.885	1.247328	0.072712	0.332572	-0.2265	0.0525	0.3525	0	349	155	3
2026-02-12	16:48:24.750	25.585	-51.415	171.465	1.47742	0.046604	0.367952	-0.222	0.0795	0.363	0	349	155	3
2026-02-12	16:48:24.770	48.615	-40.355	183.785	1.69702	0.017812	0.308172	-0.2295	0.1005	0.375	0	349	155	3
2026-02-12	16:48:24.790	92.995	-25.41	190.715	1.81536	-0.007076	0.133956	-0.2235	0.1215	0.3855	0	349	155	3
2026-02-12	16:48:24.810	155.085	-9.45	191.31	1.734352	0.032208	-0.037332	-0.225	0.1455	0.3855	0	343	148	3
2026-02-12	16:48:24.830	216.44	0.49	187.355	1.425692	0.090036	0.006344	-0.2115	0.18	0.3885	0	343	148	3
2026-02-12	16:48:24.850	256.025	-6.16	177.87	1.274412	0.147376	0.151524	-0.216	0.1905	0.378	0	343	148	3
2026-02-12	16:48:24.870	273.035	-13.965	169.68	1.184376	0.20496	0.333304	-0.1995	0.219	0.3765	0	343	148	3
2026-02-12	16:48:24.890	249.165	-18.97	170.1	1.205116	0.38186	0.45262	-0.192	0.24	0.3645	0	343	148	3
2026-02-12	16:48:24.910	182.385	-16.695	180.18	1.192672	0.5368	0.394792	-0.183	0.255	0.357	0	343	148	3
2026-02-12	16:48:24.930	117.95	-12.425	191.135	1.169004	0.66246	0.309392	-0.168	0.279	0.3435	0	343	148	3
2026-02-12	16:48:24.950	53.34	-6.755	197.995	1.095316	0.671488	0.27694	-0.153	0.2985	0.336	0	343	148	3
2026-02-12	16:48:24.970	-1.855	-3.92	199.395	1.068964	0.530456	0.27084	-0.135	0.318	0.333	0	343	148	3
2026-02-12	16:48:24.990	-34.195	-1.68	195.65	0.933056	0.508984	0.328424	-0.117	0.3375	0.333	0	343	148	3
2026-02-12	16:48:25.010	-44.555	-5.18	184.94	0.94428	0.342576	0.328424	-0.1035	0.3585	0.333	0	340	164	3
2026-02-12	16:48:25.030	-28.56	-6.965	171.43	0.896944	0.293044	0.328424	-0.084	0.3795	0.3345	0	340	164	3
2026-02-12	16:48:25.050	-6.72	-10.185	153.685	0.894504	0.268888	0.318176	-0.057	0.396	0.342	0	340	164	3
2026-02-12	16:48:25.070	11.655	-12.11	130.62	0.895724	0.253516	0.31842	-0.0435	0.4095	0.345	0	340	164	3
2026-02-12	16:48:25.090	27.685	-13.755	104.965	0.9089	0.259372	0.322324	-0.033	0.4215	0.3435	0	340	164	3
2026-02-12	16:48:25.110	46.62	-15.19	74.83	0.907924	0.295484	0.310612	-0.018	0.4245	0.342	0	340	164	3
2026-02-12	16:48:25.130	64.155	-17.15	42.28	0.8906	0.319152	0.274256	-0.009	0.429	0.342	0	340	164	3
2026-02-12	16:48:25.150	82.425	-20.265	6.545	0.916952	0.288164	0.260104	-0.0015	0.4365	0.3405	0	340	164	3
2026-02-12	16:48:25.170	98.14	-26.915	-45.01	1.0065	0.308172	0.341844	0.003	0.435	0.336	0	340	164	3
2026-02-12	16:48:25.190	82.565	-33.39	-72.555	1.314428	0.353556	0.449204	0	0.429	0.324	0	340	164	3
2026-02-12	16:48:25.210	55.65	-30.17	-98.105	1.552084	0.388692	0.340624	-0.0075	0.42	0.309	0	337	194	3
2026-02-12	16:48:25.230	38.36	-18.165	-127.19	1.6104	0.366976	0.202276	-0.0255	0.411	0.3	0	337	194	3
2026-02-12	16:48:25.250	22.575	-7.875	-161.49	1.570384	0.323544	0.137372	-0.0405	0.3975	0.3	0	337	194	3
2026-02-12	16:48:25.270	0.35	-5.39	-194.355	1.564528	0.212036	0.142496	-0.054	0.3885	0.3	0	337	194	3
2026-02-12	16:48:25.290	-19.11	-3.43	-224.595	1.482788	0.108092	0.197152	-0.075	0.3705	0.294	0	337	194	3
2026-02-12	16:48:25.310	-35.245	-4.69	-250.495	1.440576	0.057096	0.274256	-0.099	0.3405	0.2925	0	337	194	3
2026-02-12	16:48:25.330	-47.18	-6.79	-268.52	1.379332	0.045628	0.302804	-0.12	0.3195	0.2955	0	337	194	3
2026-02-12	16:48:25.350	-54.95	-7.63	-278.075	1.326872	0.083692	0.278404	-0.141	0.2925	0.2985	0	337	194	3
2026-02-12	16:48:25.370	-60.445	-7.07	-278.075	1.252208	0.092476	0.220576	-0.1635	0.2625	0.3045	0	337	194	3
2026-02-12	16:48:25.390	-61.88	-7.315	-270.515	1.221708	0.120536	0.169824	-0.1785	0.2355	0.3075	0	337	194	3
2026-02-12	16:48:25.410	-61.39	-7.35	-259.665	1.263432	0.19154	0.159576	-0.1905	0.2055	0.309	0	334	219	3
2026-02-12	16:48:25.430	-64.785	-2.87	-239.26	1.283684	0.22326	0.116388	-0.1965	0.1905	0.3105	0	334	219	3
2026-02-12	16:48:25.450	-65.17	2.73	-216.755	1.201944	0.25742	0.05734	-0.1965	0.1905	0.3105	0	334	219	3
2026-02-12	16:48:25.470	-65.73	3.955	-198.17	1.174372	0.289628	-0.011224	-0.2085	0.102	0.3105	0	334	219	3
2026-02-12	16:48:25.490	-66.535	2.38	-181.79	1.221708	0.285968	-0.027572	-0.2085	0.0765	0.3105	0	334	219	3
2026-02-12	16:48:25.510	-67.69	1.295	-165.725	1.239764	0.29768	-0.03538	-0.1995	0.057	0.2985	0	334	219	3
2026-02-12	16:48:25.530	-69.86	0.91	-151.375	1.204628	0.290116	-0.02562	-0.2055	0.033	0.3105	0	334	219	3
2026-02-12	16:48:25.550	-70.945	-0.945	-140.035	1.121424	0.28914	-0.036112	-0.198	0.024	0.3	0	334	219	3
2026-02-12	16:48:25.570	-68.635	-5.6	-129.535	1.094828	0.298656	-0.071736	-0.198	0.0015	0.297	0	334	219	3
2026-02-12	16:48:25.590	-66.08	-11.76	-119.84	1.078968	0.317444	-0.083936	-0.1875	-0.006	0.3015	0	334	219	3
2026-02-12	16:48:25.610	-66.395	-18.34	-111.545	1.045784	0.324276	-0.08174	-0.1905	-0.015	0.2955	0	329	211	3
2026-02-12	16:48:25.630	-67.27	-24.955	-102.865	1.013576	0.302316	-0.087108	-0.1935	-0.033	0.2925	0	329	211	3
2026-02-12	16:48:25.650	-69.23	-31.57	-92.855	0.972828	0.30378	-0.07198	-0.183	-0.0405	0.2955	0	329	211	3
2026-02-12	16:48:25.670	-73.15	-37.1	-82.88	0.925492	0.27572	-0.05246	-0.177	-0.0495	0.2865	0	329	211	3
2026-02-12	16:48:25.690	-73.29	-40.95	-73.115	0.863028	0.24278	-0.029768	-0.177	-0.054	0.2895	0	329	211	3
2026-02-12	16:48:25.710	-72.205	-45.64	-55.93	0.776896	0.213256	0.026108	-0.177	-0.054	0.2895	0	329	211	3
2026-02-12	16:48:25.730	-71.155	-47.32	-42.315	0.711992	0.19642	0.055388	-0.1665	-0.0615	0.294	0	329	211	3
2026-02-12	16:48:25.750	-68.005	-48.51	-27.195	0.667828	0.18056	0.079544	-0.174	-0.0615	0.294	0	329	211	3
2026-02-12	16:48:25.770	-60.97	-50.015	-10.71	0.619272	0.172264	0.087108	-0.171	-0.0645	0.3015	0	329	211	3
2026-02-12	16:48:25.790	-49.91	-52.36	7.28	0.606584	0.166408	0.09638	-0.18	-0.0645	0.303	0	329	211	3
2026-02-12	16:48:25.810	-37.38	-55.58	26.67	0.614392	0.1708	0.118828	-0.177	-0.0645	0.3045	0	324	174	3
2026-02-12	16:48:25.830	-26.67	-58.835	46.865	0.651236	0.178608	0.15982	-0.1785	-0.06	0.312	0	324	174	3
2026-02-12	16:48:25.850	-19.04	-60.655	66.99	0.691496	0.191784	0.193492	-0.1815	-0.0525	0.3045	0	324	174	3
2026-02-12	16:48:25.870	-13.195	-61.075	86.03	0.72834	0.188612	0.220088	-0.1875	-0.0375	0.321	0	324	174	3
2026-02-12	16:48:25.890	-8.925	-61.32	103.985	0.811056	0.164944	0.247172	-0.1905	-0.033	0.3315	0	324	174	3
2026-02-12	16:48:25.910	-4.025	-60.41	121.345	0.920612	0.133956	0.25498	-0.192	-0.0255	0.342	0	324	174	3
2026-02-12	16:48:25.930	5.88	-57.645	137.725	1.0187	0.103456	0.245708	-0.2025	-0.003	0.3495	0	324	174	3
2026-02-12	16:48:25.950	18.83	-53.76	153.685	1.095072	0.101504	0.239364	-0.2055	0.009	0.3555	0	324	174	3
2026-02-12	16:48:25.970	33.985	-48.335	170.835	1.177788	0.115412	0.266204	-0.213	0.0255	0.3675	0	324	174	3
2026-02-12	16:48:25.990	47.775	-40.215	183.26	1.253184	0.126148	0.31354	-0.213	0.0255	0.3675	0	324	174	3
2026-02-12	16:48:26.010	57.4	-30.765	190.82	1.308328	0.099552	0.301584	-0.2145	0.063	0.378	0	320	149	3
2026-02-12	16:48:26.030	73.71	-23.975	198.275	1.547692	0.039772	0.238876	-0.213	0.1125	0.3885	0	320	149	3
2026-02-12	16:48:26.050	96.95	-17.92	208.425	1.84342	0.01586	0.12688	-0.2055	0.135	0.3915	0	320	149	3
2026-02-12	16:48:26.070	128.66	-7.245	217.735	1.978108	0.083448	0.053192	-0.201	0.162	0.3915	0	320	149	3
2026-02-12	16:48:26.090	159.32	6.265	222.075	1.751432	0.17324	0.027328	-0.1995	0.1935	0.39	0	320	149	3
2026-02-12	16:48:26.110	189.28	10.815	217.105	1.43228	0.272792	0.08784	-0.1905	0.2205	0.387	0	320	149	3
2026-02-12	16:48:26.130	206.15	6.055	204.89	1.194624	0.30744	0.243756	-0.174	0.2445	0.3765	0	320	149	3
2026-02-12	16:48:26.150	207.165	-1.19	188.265	1.136552	0.284748	0.430904	-0.159	0.261	0.3645	0	320	149	3
2026-02-12	16:48:26.170	189.35	-4.865	173.005	1.137284	0.303048	0.517036	-0.141	0.276	0.3525	0	320	149	3
2026-02-12	16:48:26.190	153.755	-4.06	161.98	1.131672	0.380396	0.436516	-0.129	0.2955	0.3405	0	320	149	3
2026-02-12	16:48:26.210	107.205	-1.295	153.37	1.1224	0.457988	0.298656	-0.126	0.3135	0.333	0	319	151	3
2026-02-12	16:48:26.230	59.465	1.68	146.37	1.102636	0.45872	0.189588	-0.1155	0.3285	0.327	0	319	151	3
2026-02-12	16:48:26.250	18.76	5.04	133.35	1.040172	0.3599	0.125172	-0.1095	0.3315	0.3225	0	319	151	3
2026-02-12	16:48:26.270	14.735	5.915	123.795	0.991128	0.306952	0.13054	-0.0705	0.363	0.3195	0	319	151	3
2026-02-12	16:48:26.290	24.535	5.95	113.365	0.921588	0.276208	0.153964	-0.0645	0.3645	0.3195	0	319	151	3
2026-02-12	16:48:26.310	42.56	3.675	100.765	0.873032	0.303536	0.190076	-0.0555	0.372	0.315	0	319	151	3
2026-02-12	16:48:26.330	55.02	0.385	86.345	0.8296	0.334524	0.209596	-0.048	0.381	0.306	0	319	151	3
2026-02-12	16:48:26.350	58.87	-4.585	69.965	0.815692	0.345016	0.241316	-0.0345	0.3855	0.3045	0	319	151	3
2026-02-12	16:48:26.370	56.805	-9.975	52.15	0.81008	0.356484	0.248636	-0.027	0.3855	0.3045	0	319	151	3
2026-02-12	16:48:26.390	51.17	-15.715	33.495	0.818376	0.377956	0.260348	-0.024	0.39	0.2955	0	319	151	3
2026-02-12	16:48:26.410	43.155	-21.98	14.28	0.843508	0.368196	0.250588	-0.018	0.3915	0.2925	0	319	169	3
2026-02-12	16:48:26.430	35.245	-28.245	-4.515	0.895236	0.351604	0.265472	-0.0105	0.39	0.294	0	319	169	3
2026-02-12	16:48:26.450	25.2	-34.405	-23.03	0.987224	0.336964	0.297192	-0.009	0.39	0.291	0	319	169	3
2026-02-12	16:48:26.470	9.135	-40.18	-40.775	1.146556	0.331108	0.366244	-0.015	0.3855	0.2925	0	319	169	3
2026-02-12	16:48:26.490	-17.08	-43.19	-56.63	1.386408	0.355996	0.466772	-0.024	0.3855	0.288	0	319	169	3
2026-02-12	16:48:26.510	-45.115	-32.83	-81.655	1.44936	0.338184	0.436516	-0.0315	0.387	0.2805	0	319	169	3
2026-02-12	16:48:26.530	-59.675	-20.895	-115.01	1.4945	0.270352	0.338184	-0.0315	0.387	0.2805	0	319	169	3
2026-02-12	16:48:26.550	-69.545	-13.965	-144.375	1.595028	0.196664	0.285968	-0.06	0.369	0.3075	0	319	169	3
2026-02-12	16:48:26.570	-77.7	-2.835	-173.88	1.627724	0.094428	0.256932	-0.075	0.3555	0.321	0	319	169	3
2026-02-12	16:48:26.590	-80.57	9.345	-203.385	1.603568	0.016592	0.244732	-0.0885	0.339	0.315	0	319	169	3
2026-02-12	16:48:26.610	-78.61	17.675	-227.99	1.5372	-0.03172	0.223992	-0.1095	0.3285	0.33	0	320	195	3
2026-02-12	16:48:26.630	-72.03	23.03	-243.915	1.442284	-0.037088	0.188856	-0.123	0.312	0.327	0	320	195	3
2026-02-12	16:48:26.650	-64.47	25.62	-251.23	1.339072	0.00122	0.191784	-0.144	0.282	0.336	0	320	195	3
2026-02-12	16:48:26.670	-59.885	27.615	-250.53	1.208044	0.034892	0.208376	-0.159	0.2535	0.324	0	320	195	3
2026-02-12	16:48:26.690	-58.835	28.63	-242.41	1.143384	0.0854	0.26474	-0.171	0.2295	0.3195	0	320	195	3
2026-02-12	16:48:26.710	-56.595	31.85	-229.67	1.146556	0.116144	0.253028	-0.1785	0.195	0.327	0	320	195	3
2026-02-12	16:48:26.730	-48.405	37.31	-214.27	1.084824	0.216672	0.188612	-0.189	0.1635	0.327	0	320	195	3
2026-02-12	16:48:26.750	-49.105	39.375	-198.905	1.003084	0.226188	0.16348	-0.18	0.15	0.315	0	320	195	3
2026-02-12	16:48:26.770	-86.52	43.68	-176.505	0.975512	0.457744	0.144692	-0.1965	0.1275	0.3075	0	320	195	3
2026-02-12	16:48:26.790	-189.07	61.74	-137.725	0.942572	0.329644	0.061976	-0.1965	0.1275	0.3075	0	320	195	3
2026-02-12	16:48:26.810	-213.85	65.625	-111.58	1.015772	0.351848	0.068076	-0.1875	0.1095	0.297	0	320	214	3
2026-02-12	16:48:26.830	-221.305	66.045	-85.82	1.123132	0.3904	0.104676	-0.1785	0.093	0.288	0	320	214	3
2026-02-12	16:48:26.850	-205.065	63.56	-64.05	1.25416	0.417972	0.162992	-0.1905	0.093	0.2805	0	320	214	3
2026-02-12	16:48:26.870	-166.145	61.32	-49.91	1.297104	0.34648	0.185684	-0.186	0.0915	0.2775	0	320	214	3
2026-02-12	16:48:26.890	-111.615	58.135	-45.185	1.27246	0.277184	0.144692	-0.171	0.096	0.2715	0	320	214	3
2026-02-12	16:48:26.910	-60.655	53.62	-46.48	1.198284	0.214232	0.109312	-0.174	0.0915	0.2595	0	320	214	3
2026-02-12	16:48:26.930	-22.05	45.78	-54.53	1.097268	0.185928	0.08906	-0.162	0.0915	0.255	0	320	214	3
2026-02-12	16:48:26.950	5.985	35.63	-64.96	1.00284	0.169336	0.067832	-0.168	0.096	0.2535	0	320	214	3
2026-02-12	16:48:26.970	25.865	24.115	-75.81	0.907924	0.195444	0.042456	-0.1545	0.0825	0.246	0	320	214	3
2026-02-12	16:48:26.990	41.825	12.215	-85.75	0.82228	0.213744	0.024888	-0.162	0.0765	0.2415	0	320	214	3
2026-02-12	16:48:27.010	43.225	0	-90.93	0.787632	0.280112	0.04148	-0.1665	0.057	0.243	0	319	210	3
2026-02-12	16:48:27.030	21.245	-8.19	-90.265	0.756156	0.340624	0.074908	-0.1635	0.0585	0.2475	0	319	210	3
2026-02-12	16:48:27.050	-12.6	-15.12	-84.28	0.711016	0.32818	0.106384	-0.1575	0.0435	0.243	0	319	210	3
2026-02-12	16:48:27.070	-33.95	-22.295	-75.215	0.660996	0.279868	0.124684	-0.1605	0.0315	0.246	0	319	210	3
2026-02-12	16:48:27.090	-42.035	-29.575	-64.75	0.630008	0.223504	0.1281	-0.1635	0.018	0.252	0	319	210	3
2026-02-12	16:48:27.110	-43.645	-38.29	-51.73	0.598532	0.154696	0.13298	-0.1605	0.0135	0.258	0	319	210	3
2026-02-12	16:48:27.130	-37.975	-49.07	-35.63	0.586576	0.09857599	0.133468	-0.1605	0.0075	0.264	0	319	210	3
2026-02-12	16:48:27.150	-24.57	-61.25	-17.185	0.59048	0.055144	0.13908	-0.165	0	0.2625	0	319	210	3
2026-02-12	16:48:27.170	-7.7	-73.605	3.01	0.626592	0.0427	0.170068	-0.171	0.0015	0.261	0	319	210	3
2026-02-12	16:48:27.190	5.18	-84.175	24.5	0.670756	0.048068	0.207888	-0.1755	0.0015	0.273	0	319	210	3
2026-02-12	16:48:27.210	12.845	-92.645	46.9	0.744688	0.054656	0.236924	-0.1815	0.003	0.285	0	316	192	3
2026-02-12	16:48:27.230	16.8	-98.805	69.755	0.832528	0.0549	0.260592	-0.1845	0.0105	0.2955	0	316	192	3
2026-02-12	16:48:27.250	20.125	-102.515	92.68	0.916464	0.062464	0.26474	-0.1845	0.0165	0.3075	0	316	192	3
2026-02-12	16:48:27.270	24.64	-103.18	115.185	0.970388	0.06466	0.26108	-0.189	0.027	0.324	0	316	192	3
2026-02-12	16:48:27.290	27.44	-103.145	136.955	1.059204	0.05978	0.28304	-0.195	0.0435	0.3375	0	316	192	3
2026-02-12	16:48:27.310	31.675	-102.165	157.745	1.181936	0.022936	0.285236	-0.2025	0.063	0.354	0	316	192	3
2026-02-12	16:48:27.330	45.255	-103.6	196	1.607228	-0.029036	0.308172	-0.207	0.0735	0.3645	0	316	192	3
2026-02-12	16:48:27.350	67.97	-98.525	218.995	1.837076	-0.02196	0.27816	-0.207	0.0735	0.3645	0	316	192	3
2026-02-12	16:48:27.370	102.27	-86.835	236.145	1.830488	0.01952	0.216184	-0.2025	0.1095	0.375	0	316	192	3
2026-02-12	16:48:27.390	141.645	-75.39	243.705	1.658712	0.074176	0.188612	-0.195	0.1605	0.393	0	316	192	3
2026-02-12	16:48:27.410	176.715	-75.145	244.58	1.588684	0.145912	0.260836	-0.183	0.1905	0.405	0	315	187	3
2026-02-12	16:48:27.430	195.265	-74.795	237.86	1.535736	0.198616	0.465308	-0.168	0.225	0.4125	0	315	187	3
2026-02-12	16:48:27.450	185.395	-71.26	226.24	1.499136	0.211548	0.65514	-0.1545	0.2565	0.4125	0	315	187	3
2026-02-12	16:48:27.470	155.26	-62.09	212.8	1.44448	0.257176	0.656116	-0.144	0.2805	0.4095	0	315	187	3
2026-02-12	16:48:27.490	116.48	-52.71	198.625	1.384456	0.360876	0.553636	-0.1275	0.3015	0.408	0	315	187	3
2026-02-12	16:48:27.510	75.775	-42.21	184.24	1.281488	0.412116	0.440176	-0.108	0.3225	0.402	0	315	187	3
2026-02-12	16:48:27.530	42.56	-32.375	167.93	1.145092	0.392108	0.367952	-0.093	0.339	0.4005	0	315	187	3
2026-02-12	16:48:27.550	26.285	-25.41	150.325	1.060424	0.305	0.322568	-0.078	0.357	0.408	0	315	187	3
2026-02-12	16:48:27.570	30.66	-19.67	133	1.006988	0.231068	0.294752	-0.0585	0.372	0.4095	0	315	187	3
2026-02-12	16:48:27.590	50.575	-12.845	113.26	0.9516	0.254492	0.284504	-0.0465	0.3765	0.4095	0	315	187	3
2026-02-12	16:48:27.610	69.51	-8.4	93.835	0.899384	0.296948	0.268888	-0.0465	0.3765	0.4095	0	318	212	3
2026-02-12	16:48:27.630	81.445	-5.46	74.55	0.871324	0.340136	0.24766	-0.012	0.4035	0.381	0	318	212	3
2026-02-12	16:48:27.650	84.105	-5.145	55.3	0.833992	0.359656	0.248148	0	0.405	0.384	0	318	212	3
2026-02-12	16:48:27.670	80.92	-5.67	38.08	0.769576	0.365268	0.2562	0	0.408	0.369	0	318	212	3
2026-02-12	16:48:27.690	76.405	-9.52	22.54	0.827892	0.378444	0.24888	0.0045	0.4095	0.3705	0	318	212	3
2026-02-12	16:48:27.710	66.15	-13.3	10.78	0.910364	0.413092	0.239852	0.003	0.4155	0.3555	0	318	212	3
2026-02-12	16:48:27.730	49.63	-15.47	0.21	0.962092	0.47092	0.27816	0	0.417	0.3585	0	318	212	3
2026-02-12	16:48:27.750	27.65	-16.765	-12.46	1.006988	0.4819	0.334036	0.006	0.4185	0.345	0	318	212	3
2026-02-12	16:48:27.770	4.445	-18.655	-29.085	1.219512	0.409188	0.392352	0.0135	0.4125	0.3495	0	318	212	3
2026-02-12	16:48:27.790	-16.24	-17.605	-50.33	1.477664	0.31354	0.42822	0.0015	0.402	0.3465	0	318	212	3
2026-02-12	16:48:27.810	-23.695	-8.96	-80.395	1.5738	0.132248	0.3477	0.006	0.405	0.3495	0	322	243	3
2026-02-12	16:48:27.830	-16.17	-0.385	-115.815	1.579412	-0.08418	0.22692	-0.0045	0.402	0.351	0	322	243	3
2026-02-12	16:48:27.850	5.215	5.88	-150.675	1.56282	-0.248392	0.160552	-0.021	0.3915	0.3555	0	322	243	3
2026-02-12	16:48:27.870	32.865	9.59	-195.44	1.509384	-0.272548	0.174704	-0.021	0.3915	0.3555	0	322	243	3
2026-02-12	16:48:27.890	37.1	10.955	-218.19	1.448872	-0.15982	0.209108	-0.021	0.3915	0.3555	0	322	243	3
2026-02-12	16:48:27.910	27.405	11.305	-236.67	1.445212	0.027572	0.244488	-0.0735	0.36	0.3375	0	322	243	3
2026-02-12	16:48:27.930	5.53	13.195	-249.97	1.438136	0.106872	0.22204	-0.087	0.3255	0.3315	0	322	243	3
2026-02-12	16:48:27.950	-17.885	15.785	-256.55	1.38836	0.066856	0.153476	-0.102	0.309	0.339	0	322	243	3
2026-02-12	16:48:27.970	-40.705	16.8	-256.62	1.325652	0.044652	0.1769	-0.1365	0.279	0.3405	0	322	243	3
2026-02-12	16:48:27.990	-62.93	18.9	-248.395	1.283196	0.006832	0.165188	-0.147	0.2625	0.342	0	322	243	3
2026-02-12	16:48:28.010	-75.53	25.515	-231.56	1.184376	-0.006344	0.108336	-0.147	0.2625	0.342	0	328	257	3
2026-02-12	16:48:28.030	-69.055	28.175	-218.4	1.133868	-0.00732	0.05856	-0.171	0.204	0.3465	0	328	257	3
2026-02-12	16:48:28.050	-50.225	28.735	-198.87	1.06628	0.039772	0.004148	-0.186	0.186	0.342	0	328	257	3
2026-02-12	16:48:28.070	-29.575	27.09	-177.66	1.027484	0.115168	-0.027572	-0.195	0.159	0.345	0	328	257	3
2026-02-12	16:48:28.090	-19.11	23.94	-159.005	0.980392	0.216184	-0.036844	-0.2055	0.132	0.354	0	328	257	3
2026-02-12	16:48:28.110	-22.085	20.335	-142.975	0.96624	0.335256	-0.044652	-0.204	0.1095	0.3465	0	328	257	3
2026-02-12	16:48:28.130	-36.75	16.065	-127.925	0.958676	0.450424	-0.045384	-0.204	0.084	0.3435	0	328	257	3
2026-02-12	16:48:28.150	-74.095	13.58	-114.94	0.984296	0.61976	-0.04636	-0.204	0.0705	0.3435	0	328	257	3
2026-02-12	16:48:28.170	-112.315	15.89	-107.275	0.939888	0.577792	-0.091256	-0.2025	0.0465	0.3465	0	328	257	3
2026-02-12	16:48:28.190	-119.245	14.805	-103.67	0.898896	0.502396	-0.105652	-0.1995	0.0285	0.3435	0	328	257	3
2026-02-12	16:48:28.210	-106.05	10.5	-99.995	0.856928	0.450424	-0.108824	-0.195	0.0135	0.339	0	332	235	3
2026-02-12	16:48:28.230	-83.125	4.76	-94.99	0.807396	0.412848	-0.088572	-0.1935	0	0.339	0	332	235	3
2026-02-12	16:48:28.250	-56.455	-3.045	-89.46	0.772992	0.416996	-0.03782	-0.189	-0.015	0.336	0	332	235	3
2026-02-12	16:48:28.270	-32.06	-11.9	-84.28	0.751032	0.448472	0.008052	-0.1845	-0.027	0.3345	0	332	235	3
2026-02-12	16:48:28.290	-17.64	-21	-78.995	0.742248	0.48312	0.032696	-0.1815	-0.0345	0.33	0	332	235	3
2026-02-12	16:48:28.310	-12.775	-30.695	-73.92	0.738344	0.467504	0.05368	-0.183	-0.0465	0.324	0	332	235	3
2026-02-12	16:48:28.330	-11.55	-40.53	-67.69	0.717604	0.414556	0.071004	-0.18	-0.0555	0.33	0	332	235	3
2026-02-12	16:48:28.350	-9.87	-50.89	-58.87	0.721508	0.362828	0.096624	-0.1725	-0.063	0.336	0	332	235	3
2026-02-12	16:48:28.370	-8.225	-60.235	-47.6	0.73932	0.323056	0.1464	-0.1665	-0.069	0.336	0	332	235	3
2026-02-12	16:48:28.390	-6.475	-68.495	-34.51	0.77226	0.263276	0.1952	-0.1635	-0.075	0.3405	0	332	235	3
2026-02-12	16:48:28.410	-2.275	-76.58	-12.635	0.824964	0.213744	0.244976	-0.1665	-0.081	0.3465	0	336	190	3
2026-02-12	16:48:28.430	-3.185	-78.33	3.675	0.852048	0.202276	0.24034	-0.1695	-0.084	0.354	0	336	190	3
2026-02-12	16:48:28.450	-7.84	-77.315	20.44	0.830576	0.198616	0.20984	-0.168	-0.087	0.3645	0	336	190	3
2026-02-12	16:48:28.470	-14.56	-76.265	38.01	0.81862	0.195444	0.183732	-0.1725	-0.084	0.3705	0	336	190	3
2026-02-12	16:48:28.490	-23.31	-75.565	56.595	0.828624	0.1952	0.171532	-0.1725	-0.0765	0.375	0	336	190	3
2026-02-12	16:48:28.510	-33.18	-74.515	76.44	0.866688	0.176412	0.182268	-0.1755	-0.072	0.384	0	336	190	3
2026-02-12	16:48:28.530	-40.32	-72.52	97.51	0.904508	0.147376	0.201544	-0.186	-0.0645	0.3915	0	336	190	3
2026-02-12	16:48:28.550	-42.875	-70.14	118.86	0.96746	0.12444	0.220332	-0.1905	-0.0465	0.399	0	336	190	3
2026-02-12	16:48:28.570	-41.055	-66.64	140.875	1.00284	0.110288	0.233508	-0.195	-0.024	0.408	0	336	190	3
2026-02-12	16:48:28.590	-35.63	-63.77	162.61	1.059692	0.111264	0.255224	-0.1995	-0.012	0.4125	0	336	190	3
2026-02-12	16:48:28.610	-28.525	-59.57	182.595	1.105564	0.109556	0.268888	-0.207	0.003	0.4215	0	338	161	3
2026-02-12	16:48:28.630	-17.605	-54.425	200.13	1.16754	0.0854	0.271084	-0.2085	0.0285	0.4305	0	338	161	3
2026-02-12	16:48:28.650	2.24	-49.245	218.12	1.36396	0.040504	0.280356	-0.1995	0.0525	0.4365	0	338	161	3
2026-02-12	16:48:28.670	49.245	-37.87	241.045	1.768268	0.009516	0.195444	-0.1965	0.0675	0.4425	0	338	161	3
2026-02-12	16:48:28.690	117.53	-20.335	257.46	1.908324	0.020984	0.009028	-0.1965	0.0675	0.4425	0	338	161	3
2026-02-12	16:48:28.710	180.145	-4.2	264.18	1.807064	0.140544	-0.09076799	-0.189	0.165	0.4575	0	338	161	3
2026-02-12	16:48:28.730	230.755	5.285	259.28	1.619184	0.238144	-0.060756	-0.1785	0.204	0.4575	0	338	161	3
2026-02-12	16:48:28.750	260.645	4.025	246.225	1.4457	0.30744	0.120048	-0.1665	0.24	0.438	0	338	161	3
2026-02-12	16:48:28.770	269.605	2.835	224.455	1.341268	0.403576	0.349896	-0.147	0.2685	0.4335	0	338	161	3
2026-02-12	16:48:28.790	237.86	2.17	201.705	1.311744	0.414556	0.467016	-0.129	0.309	0.4125	0	338	161	3
2026-02-12	16:48:28.810	188.37	4.48	181.895	1.189256	0.45384	0.378444	-0.1065	0.327	0.393	0	338	157	3
2026-02-12	16:48:28.830	128.975	2.065	163.835	1.131184	0.571936	0.283284	-0.093	0.342	0.3945	0	338	157	3
2026-02-12	16:48:28.850	61.005	0.49	146.58	1.052372	0.568276	0.228384	-0.0765	0.3495	0.381	0	338	157	3
2026-02-12	16:48:28.870	8.575	-0.875	128.065	0.980392	0.487512	0.198372	-0.0615	0.3735	0.369	0	338	157	3
2026-02-12	16:48:28.890	-17.815	-2.205	108.955	0.937204	0.406748	0.160552	-0.0465	0.381	0.3735	0	338	157	3
2026-02-12	16:48:28.910	-25.06	-3.64	90.405	0.872788	0.299144	0.139812	-0.0345	0.4005	0.3675	0	338	157	3
2026-02-12	16:48:28.930	-14.455	-6.475	75.775	0.862296	0.245952	0.145424	-0.0315	0.4005	0.3735	0	338	157	3
2026-02-12	16:48:28.950	16.555	-10.36	53.76	0.858636	0.223016	0.206668	-0.018	0.4065	0.3825	0	338	157	3
2026-02-12	16:48:28.970	38.605	-12.81	39.935	0.863516	0.25742	0.236436	-0.0135	0.405	0.3825	0	338	157	3
2026-02-12	16:48:28.990	52.5	-15.225	26.495	0.881572	0.308416	0.272792	-0.0135	0.4095	0.3795	0	338	157	3
2026-02-12	16:48:29.010	57.925	-17.605	14.21	0.895236	0.339892	0.293532	-0.012	0.411	0.3645	0	338	168	3
2026-02-12	16:48:29.030	56.7	-20.125	1.33	0.86742	0.366732	0.280112	-0.0105	0.4065	0.363	0	338	168	3
2026-02-12	16:48:29.050	46.025	-24.465	-11.48	0.839604	0.3782	0.278892	-0.006	0.408	0.3615	0	338	168	3
2026-02-12	16:48:29.070	29.995	-31.5	-25.725	0.92964	0.340624	0.319884	-0.015	0.4065	0.357	0	338	168	3
2026-02-12	16:48:29.090	13.195	-35.14	-42.63	0.966484	0.329644	0.348676	-0.012	0.4125	0.3525	0	338	168	3
2026-02-12	16:48:29.110	-5.53	-38.57	-60.305	1.053348	0.290848	0.36966	-0.021	0.4005	0.354	0	338	168	3
2026-02-12	16:48:29.130	-35.14	-44.24	-74.095	1.318576	0.303536	0.48312	-0.024	0.396	0.363	0	338	168	3
2026-02-12	16:48:29.150	-72.94	-40.215	-85.505	1.590148	0.30988	0.537288	-0.03	0.3855	0.366	0	338	168	3
2026-02-12	16:48:29.170	-96.285	-24.01	-104.51	1.742648	0.254004	0.422364	-0.048	0.3795	0.3735	0	338	168	3
2026-02-12	16:48:29.190	-98.665	-1.26	-130.235	1.70068	0.182024	0.237656	-0.0495	0.378	0.3855	0	338	168	3
2026-02-12	16:48:29.210	-86.695	22.19	-168.035	1.581852	0.091744	0.093452	-0.075	0.363	0.387	0	338	191	3
2026-02-12	16:48:29.230	-75.25	31.745	-193.27	1.5006	0.008052	0.10614	-0.09	0.345	0.393	0	338	191	3
2026-02-12	16:48:29.250	-67.515	37.205	-218.47	1.412028	-0.050508	0.107848	-0.1185	0.3135	0.3975	0	338	191	3
2026-02-12	16:48:29.270	-61.565	38.78	-238.49	1.362252	-0.108336	0.126392	-0.1395	0.2895	0.393	0	338	191	3
2026-02-12	16:48:29.290	-54.04	38.43	-250.11	1.353956	-0.064172	0.134444	-0.1575	0.2565	0.39	0	338	191	3
2026-02-12	16:48:29.310	-44.975	38.745	-254.275	1.372256	-0.016104	0.13542	-0.174	0.2235	0.39	0	338	191	3
2026-02-12	16:48:29.330	-34.615	41.055	-250.285	1.294664	0.03294	0.114436	-0.189	0.198	0.3855	0	338	191	3
2026-02-12	16:48:29.350	-25.62	42.105	-239.995	1.241472	0.083448	0.09394	-0.1995	0.165	0.3705	0	338	191	3
2026-02-12	16:48:29.370	-16.8	42.28	-227.15	1.134112	0.15006	0.03904	-0.207	0.132	0.3615	0	338	191	3
2026-02-12	16:48:29.390	-10.395	38.675	-210.98	1.096292	0.261812	-0.005124	-0.21	0.096	0.3525	0	338	191	3
2026-02-12	16:48:29.410	-10.29	34.02	-194.845	1.092632	0.255712	-0.038064	-0.2055	0.0645	0.3435	0	338	204	3
2026-02-12	16:48:29.430	-9.345	28.665	-178.675	1.047004	0.28792	-0.058072	-0.2025	0.0405	0.342	0	338	204	3
2026-02-12	16:48:29.450	-13.195	22.715	-162.295	1.009916	0.327692	-0.051972	-0.2025	0.015	0.3345	0	338	204	3
2026-02-12	16:48:29.470	-27.23	16.485	-145.18	0.988444	0.384056	-0.04026	-0.1965	-0.0075	0.3285	0	338	204	3
2026-02-12	16:48:29.490	-48.23	11.305	-129.955	0.955748	0.437736	-0.05856	-0.192	-0.0165	0.3285	0	338	204	3
2026-02-12	16:48:29.510	-55.58	7	-120.26	0.9333	0.446276	-0.064416	-0.189	-0.0315	0.3165	0	338	204	3
2026-02-12	16:48:29.530	-58.835	1.89	-110.495	0.88816	0.434564	-0.074176	-0.1845	-0.054	0.3045	0	338	204	3
2026-02-12	16:48:29.550	-58.38	-3.745	-100.905	0.837164	0.428952	-0.064172	-0.1815	-0.0675	0.3	0	338	204	3
2026-02-12	16:48:29.570	-52.255	-9.73	-91.56	0.785192	0.427244	-0.031476	-0.177	-0.078	0.294	0	338	204	3
2026-02-12	16:48:29.590	-42.98	-15.155	-82.39	0.74908	0.434808	-0.003172	-0.171	-0.087	0.291	0	338	204	3
2026-02-12	16:48:29.610	-33.915	-19.95	-72.87	0.720776	0.451888	0.010004	-0.165	-0.0975	0.288	0	338	182	3
2026-02-12	16:48:29.630	-26.6	-24.465	-63.28	0.689788	0.460428	0.023912	-0.162	-0.105	0.2865	0	338	182	3
2026-02-12	16:48:29.650	-24.255	-28.945	-52.605	0.667584	0.460184	0.05246	-0.1605	-0.114	0.285	0	338	182	3
2026-02-12	16:48:29.670	-25.165	-32.795	-41.93	0.63684	0.451156	0.077592	-0.1575	-0.114	0.291	0	338	182	3
2026-02-12	16:48:29.690	-27.265	-36.715	-30.31	0.638304	0.437736	0.096868	-0.156	-0.1155	0.294	0	338	182	3
2026-02-12	16:48:29.710	-30.415	-39.935	-18.305	0.61976	0.414312	0.113704	-0.1545	-0.117	0.2895	0	338	182	3
2026-02-12	16:48:29.730	-33.145	-43.12	-6.09	0.628056	0.39894	0.133712	-0.156	-0.1185	0.288	0	338	182	3
2026-02-12	16:48:29.750	-35	-45.885	9.17	0.62342	0.368684	0.164456	-0.159	-0.126	0.2895	0	338	182	3
2026-02-12	16:48:29.770	-35.385	-48.265	25.27	0.63684	0.332572	0.188368	-0.159	-0.126	0.2895	0	338	182	3
2026-02-12	16:48:29.790	-35.105	-49.7	39.165	0.655872	0.30378	0.205692	-0.165	-0.114	0.3045	0	338	182	3
2026-02-12	16:48:29.810	-35.7	-50.96	54.32	0.680028	0.277428	0.211304	-0.165	-0.1005	0.309	0	338	149	3
2026-02-12	16:48:29.830	-37.555	-52.5	70.455	0.721996	0.255712	0.221796	-0.168	-0.108	0.309	0	338	149	3
2026-02-12	16:48:29.850	-39.06	-54.355	87.08	0.796416	0.241804	0.232044	-0.18	-0.087	0.3105	0	338	149	3
2026-02-12	16:48:29.870	-39.095	-55.51	103.215	0.879864	0.231312	0.244732	-0.1785	-0.078	0.321	0	338	149	3
2026-02-12	16:48:29.890	-36.68	-54.915	117.635	0.937204	0.204472	0.249856	-0.1965	-0.0615	0.3225	0	338	149	3
2026-02-12	16:48:29.910	-31.535	-53.235	130.515	0.975756	0.175192	0.257908	-0.1965	-0.054	0.3285	0	338	149	3
2026-02-12	16:48:29.930	-24.955	-51.87	142.1	1.043344	0.14762	0.267912	-0.1995	-0.036	0.3375	0	338	149	3
2026-02-12	16:48:29.950	-17.675	-50.05	152.53	1.110932	0.120292	0.277428	-0.2145	-0.0135	0.345	0	338	149	3
2026-02-12	16:48:29.970	-8.75	-46.76	160.37	1.166808	0.101748	0.289628	-0.2085	0.003	0.3555	0	338	149	3
2026-02-12	16:48:29.990	2.38	-41.72	165.97	1.199748	0.09857599	0.294752	-0.2235	0.024	0.36	0	338	149	3
2026-02-12	16:48:30.010	19.635	-37.87	174.86	1.408368	0.057828	0.2684	-0.222	0.051	0.366	0	337	140	3
2026-02-12	16:48:30.030	42.91	-34.545	186.83	1.748992	0.031964	0.217892	-0.222	0.051	0.366	0	337	140	3
2026-02-12	16:48:30.050	69.79	-23.625	194.355	1.752652	0.058072	0.164212	-0.222	0.051	0.366	0	337	140	3
2026-02-12	16:48:30.070	102.62	-13.02	197.225	1.58478	0.083692	0.092232	-0.228	0.129	0.39	0	337	140	3
2026-02-12	16:48:30.090	136.43	-11.2	196.245	1.408124	0.138348	0.081252	-0.219	0.1575	0.3915	0	337	140	3
2026-02-12	16:48:30.110	160.86	-15.995	191.03	1.28222	0.195444	0.1891	-0.21	0.1755	0.396	0	337	140	3
2026-02-12	16:48:30.130	167.02	-22.925	183.75	1.236348	0.230824	0.364048	-0.1935	0.2085	0.39	0	337	140	3
2026-02-12	16:48:30.150	153.72	-25.76	176.995	1.233176	0.26962	0.485072	-0.195	0.222	0.39	0	337	140	3
2026-02-12	16:48:30.170	126.035	-23.17	172.06	1.20536	0.321104	0.442372	-0.1785	0.252	0.3855	0	337	140	3
2026-02-12	16:48:30.190	94.5	-19.075	167.755	1.18218	0.381616	0.30866	-0.1665	0.2685	0.369	0	337	140	3
2026-02-12	16:48:30.210	61.565	-14.91	163.275	1.142408	0.400892	0.212768	-0.1635	0.2805	0.3705	0	336	155	3
2026-02-12	16:48:30.230	33.705	-12.075	157.465	1.095072	0.357216	0.192516	-0.1425	0.312	0.372	0	336	155	3
2026-02-12	16:48:30.250	18.97	-10.675	149.87	1.05164	0.285968	0.203496	-0.1395	0.321	0.372	0	336	155	3
2026-02-12	16:48:30.270	20.79	-10.115	139.685	1.002108	0.23302	0.220576	-0.1215	0.3465	0.3735	0	336	155	3
2026-02-12	16:48:30.290	43.785	-11.27	121.275	0.943548	0.233508	0.24888	-0.105	0.354	0.3705	0	336	155	3
2026-02-12	16:48:30.310	59.43	-13.055	106.54	0.934764	0.265716	0.263032	-0.0885	0.3645	0.369	0	336	155	3
2026-02-12	16:48:30.330	68.95	-14.84	89.565	0.933544	0.2928	0.270108	-0.072	0.3795	0.366	0	336	155	3
2026-02-12	16:48:30.350	73.15	-16.52	71.4	0.93086	0.300364	0.276452	-0.0615	0.3855	0.3585	0	336	155	3
2026-02-12	16:48:30.370	74.27	-19.04	52.185	0.928664	0.308172	0.29158	-0.0525	0.39	0.354	0	336	155	3
2026-02-12	16:48:30.390	73.255	-21.385	32.76	0.921588	0.322324	0.296704	-0.054	0.3945	0.351	0	336	155	3
2026-02-12	16:48:30.410	69.755	-22.295	13.02	0.870592	0.33062	0.291824	-0.051	0.399	0.3495	0	334	181	3
2026-02-12	16:48:30.430	63.28	-24.605	-6.615	0.846924	0.3233	0.30012	-0.051	0.402	0.342	0	334	181	3
2026-02-12	16:48:30.450	53.165	-27.895	-26.04	0.86376	0.315004	0.308904	-0.0495	0.3975	0.33	0	334	181	3
2026-02-12	16:48:30.470	36.995	-31.535	-44.275	0.965996	0.308172	0.338672	-0.051	0.387	0.3255	0	334	181	3
2026-02-12	16:48:30.490	11.62	-34.79	-58.94	1.179252	0.300852	0.394304	-0.063	0.381	0.324	0	334	181	3
2026-02-12	16:48:30.510	-19.775	-34.23	-69.23	1.400804	0.311588	0.467016	-0.0705	0.378	0.3255	0	334	181	3
2026-02-12	16:48:30.530	-42.315	-23.835	-81.9	1.479128	0.285236	0.456768	-0.081	0.3705	0.3315	0	334	181	3
2026-02-12	16:48:30.550	-49.7	-10.78	-100.45	1.499624	0.21594	0.360388	-0.0885	0.3675	0.3405	0	334	181	3
2026-02-12	16:48:30.570	-43.12	5.635	-132.475	1.471076	0.025376	0.234484	-0.087	0.369	0.345	0	334	181	3
2026-02-12	16:48:30.590	-30.31	13.09	-153.825	1.363228	-0.072712	0.211792	-0.1125	0.3345	0.3435	0	334	181	3
2026-02-12	16:48:30.610	-20.685	14.42	-173.6	1.261236	-0.10614	0.212036	-0.129	0.3285	0.3435	0	328	212	3
2026-02-12	16:48:30.630	-17.185	11.27	-188.545	1.218292	-0.092476	0.186416	-0.135	0.3165	0.3465	0	328	212	3
2026-02-12	16:48:30.650	-17.99	8.19	-197.89	1.168028	0.003416	0.170312	-0.1515	0.2895	0.3465	0	328	212	3
2026-02-12	16:48:30.670	-27.23	6.405	-202.405	1.120692	0.084912	0.14152	-0.168	0.2655	0.3375	0	328	212	3
2026-02-12	16:48:30.690	-47.32	5.845	-200.305	1.025532	0.15372	0.13176	-0.183	0.243	0.3375	0	328	212	3
2026-02-12	16:48:30.710	-80.99	2.275	-192.29	0.975512	0.182024	0.178364	-0.198	0.2145	0.3405	0	328	212	3
2026-02-12	16:48:30.730	-117.25	-4.655	-177.625	1.042124	0.217648	0.2196	-0.207	0.192	0.345	0	328	212	3
2026-02-12	16:48:30.750	-151.865	-6.265	-159.46	1.223172	0.200568	0.190808	-0.21	0.168	0.3465	0	328	212	3
2026-02-12	16:48:30.770	-165.34	1.785	-143.64	1.388848	0.17568	0.060512	-0.2145	0.1515	0.3465	0	328	212	3
2026-02-12	16:48:30.790	-163.135	17.5	-131.285	1.36884	0.152744	-0.078324	-0.2175	0.141	0.351	0	328	212	3
2026-02-12	16:48:30.810	-153.125	31.57	-118.02	1.276608	0.12444	-0.160064	-0.2235	0.1215	0.3465	0	321	225	3
2026-02-12	16:48:30.830	-125.86	42.525	-101.85	1.205604	0.13054	-0.14152	-0.231	0.111	0.3435	0	321	225	3
2026-02-12	16:48:30.850	-98.07	45.745	-97.265	1.14802	0.110288	-0.075396	-0.231	0.111	0.3435	0	321	225	3
2026-02-12	16:48:30.870	-70.455	46.795	-95.095	1.065304	0.078324	-0.014884	-0.219	0.0765	0.324	0	321	225	3
2026-02-12	16:48:30.890	-47.915	44.275	-92.54	1.007476	0.119072	0.034648	-0.219	0.0585	0.315	0	321	225	3
2026-02-12	16:48:30.910	-29.995	38.99	-90.37	0.992104	0.18666	0.051728	-0.2115	0.054	0.3075	0	321	225	3
2026-02-12	16:48:30.930	-12.32	32.865	-88.13	0.989908	0.262544	0.03416	-0.2115	0.0375	0.3015	0	321	225	3
2026-02-12	16:48:30.950	3.675	26.845	-85.505	0.978684	0.311832	0.010736	-0.2055	0.033	0.2895	0	321	225	3
2026-02-12	16:48:30.970	13.37	20.195	-81.515	0.927688	0.321592	0.010004	-0.2055	0.0165	0.2895	0	321	225	3
2026-02-12	16:48:30.990	15.925	13.23	-76.895	0.87596	0.331596	0.023912	-0.2085	0.0075	0.2805	0	321	225	3
2026-02-12	16:48:31.010	11.2	6.755	-71.995	0.827648	0.349164	0.03416	-0.195	-0.0105	0.288	0	314	202	3
2026-02-12	16:48:31.030	1.75	0.56	-66.71	0.793732	0.340624	0.038552	-0.195	-0.009	0.291	0	314	202	3
2026-02-12	16:48:31.050	-7.14	-5.425	-59.57	0.770308	0.326228	0.048556	-0.1935	-0.021	0.2835	0	314	202	3
2026-02-12	16:48:31.070	-16.485	-11.62	-50.68	0.74664	0.306708	0.071736	-0.1905	-0.0285	0.2805	0	314	202	3
2026-02-12	16:48:31.090	-27.755	-19.46	-36.61	0.731512	0.294508	0.099064	-0.1875	-0.042	0.279	0	314	202	3
2026-02-12	16:48:31.110	-36.19	-27.23	-21	0.735172	0.283284	0.137128	-0.1875	-0.042	0.279	0	314	202	3
2026-02-12	16:48:31.130	-40.32	-33.425	-7.84	0.739808	0.265716	0.177876	-0.186	-0.0405	0.279	0	314	202	3
2026-02-12	16:48:31.150	-43.33	-39.62	5.39	0.77958	0.257664	0.225212	-0.1875	-0.039	0.282	0	314	202	3
2026-02-12	16:48:31.170	-47.6	-44.415	18.55	0.815448	0.24644	0.27816	-0.192	-0.033	0.288	0	314	202	3
2026-02-12	16:48:31.190	-52.99	-46.9	31.325	0.870836	0.213256	0.299388	-0.195	-0.027	0.291	0	314	202	3
2026-02-12	16:48:31.210	-53.515	-46.865	42.665	0.894992	0.165188	0.273036	-0.1905	-0.027	0.2925	0	307	170	2
2026-02-12	16:48:31.230	-46.865	-46.62	53.69	0.924516	0.12566	0.235216	-0.207	-0.018	0.3015	0	307	170	2
2026-02-12	16:48:31.250	-34.3	-47.39	65.59	0.964776	0.099552	0.20008	-0.204	-0.0165	0.3015	0	307	170	2
2026-02-12	16:48:31.270	-18.34	-47.53	77.525	0.980636	0.083448	0.196176	-0.207	-0.006	0.309	0	307	170	2
2026-02-12	16:48:31.290	-2.45	-46.725	88.97	0.98576	0.097844	0.234972	-0.21	0.0135	0.321	0	307	170	2
2026-02-12	16:48:31.310	8.75	-45.325	98.805	0.992348	0.11468	0.276696	-0.21	0.024	0.312	0	307	170	2
2026-02-12	16:48:31.330	14.595	-42.805	106.4	1.002352	0.11834	0.309392	-0.216	0.0375	0.321	0	307	170	2
2026-02-12	16:48:31.350	18.48	-39.865	114.695	1.088484	0.1037	0.299144	-0.213	0.048	0.3345	0	307	170	2
2026-02-12	16:48:31.370	31.885	-35.28	130.025	1.332728	0.06954	0.242292	-0.2205	0.063	0.342	0	307	170	2
2026-02-12	16:48:31.390	50.96	-30.94	141.82	1.45912	0.039528	0.190076	-0.219	0.078	0.3465	0	307	170	2
2026-02-12	16:48:31.410	78.33	-25.62	152.145	1.465708	0.053924	0.170556	-0.219	0.105	0.3585	0	299	162	3
2026-02-12	16:48:31.430	109.725	-21.105	158.305	1.350296	0.093696	0.181048	-0.2175	0.1275	0.3645	0	299	162	3
2026-02-12	16:48:31.450	138.145	-22.12	160.16	1.219512	0.136884	0.238632	-0.2115	0.147	0.3645	0	299	162	3
2026-02-12	16:48:31.470	158.095	-25.165	158.235	1.110932	0.177876	0.33794	-0.2115	0.165	0.3645	0	299	162	3
2026-02-12	16:48:31.490	165.9	-27.685	154.7	1.049932	0.189344	0.3904	-0.2115	0.1845	0.3585	0	299	162	3
2026-02-12	16:48:31.510	161.525	-29.61	152.39	1.039684	0.236924	0.370148	-0.201	0.2055	0.357	0	299	162	3
2026-02-12	16:48:31.530	142.59	-29.47	152.39	1.040904	0.321104	0.371368	-0.1965	0.2205	0.3585	0	299	162	3
2026-02-12	16:48:31.550	112.07	-26.04	153.685	1.033828	0.363072	0.336476	-0.192	0.237	0.36	0	299	162	3
2026-02-12	16:48:31.570	83.965	-21.665	154.49	1.045784	0.349896	0.286456	-0.177	0.2535	0.36	0	299	162	3
2026-02-12	16:48:31.590	63.875	-17.605	152.67	0.989176	0.356972	0.255224	-0.1695	0.273	0.3555	0	299	162	3
2026-02-12	16:48:31.610	51.415	-17.675	149.03	0.990396	0.303536	0.264496	-0.159	0.2865	0.36	0	291	178	3
2026-02-12	16:48:31.630	48.44	-17.78	142.765	0.962092	0.303536	0.302316	-0.144	0.3015	0.36	0	291	178	3
2026-02-12	16:48:31.650	46.9	-20.65	127.155	0.947452	0.319884	0.348676	-0.1395	0.315	0.3555	0	291	178	3
2026-02-12	16:48:31.670	44.52	-22.435	112.84	0.943548	0.325984	0.365024	-0.1155	0.3375	0.3495	0	291	178	3
2026-02-12	16:48:31.690	39.655	-24.045	94.99	0.924028	0.342088	0.37088	-0.1095	0.3495	0.3495	0	291	178	3
2026-02-12	16:48:31.710	35.28	-24.815	74.235	0.89548	0.325496	0.36478	-0.105	0.351	0.3465	0	291	178	3
2026-02-12	16:48:31.730	36.925	-25.725	49.63	0.875472	0.288164	0.344284	-0.09	0.3645	0.339	0	291	178	3
2026-02-12	16:48:31.750	41.79	-27.51	23.135	0.86864	0.257908	0.320372	-0.078	0.3705	0.342	0	291	178	3
2026-02-12	16:48:31.770	41.86	-30.73	-3.535	0.914268	0.248392	0.313784	-0.0825	0.366	0.345	0	291	178	3
2026-02-12	16:48:31.790	32.235	-33.67	-28.63	1.072868	0.250832	0.341356	-0.0855	0.3675	0.3435	0	291	178	3
2026-02-12	16:48:31.810	7.595	-37.625	-49.315	1.432524	0.277672	0.426268	-0.087	0.372	0.342	0	283	210	3
2026-02-12	16:48:31.830	-29.715	-30.415	-62.93	1.646756	0.33428	0.482876	-0.0915	0.363	0.351	0	283	210	3
2026-02-12	16:48:31.850	-56.245	-10.255	-76.72	1.60064	0.33306	0.398208	-0.1005	0.3585	0.3585	0	283	210	3
2026-02-12	16:48:31.870	-63.735	7.7	-96.215	1.580388	0.27328	0.233264	-0.108	0.354	0.3585	0	283	210	3
2026-02-12	16:48:31.890	-62.405	22.785	-117.39	1.483032	0.169824	0.089792	-0.1185	0.342	0.3645	0	283	210	3
2026-02-12	16:48:31.910	-48.3	32.445	-145.705	1.35786	0.059292	0.08662	-0.1275	0.3375	0.3705	0	283	210	3
2026-02-12	16:48:31.930	-37.765	34.965	-175.28	1.263432	-0.040992	0.14396	-0.1275	0.3375	0.3705	0	283	210	3
2026-02-12	16:48:31.950	-33.88	32.515	-193.235	1.2505	-0.073932	0.166408	-0.1575	0.294	0.354	0	283	210	3
2026-02-12	16:48:31.970	-26.845	31.08	-204.26	1.21024	0.000732	0.168116	-0.1695	0.27	0.357	0	283	210	3
2026-02-12	16:48:31.990	-19.565	29.68	-210.525	1.207068	0.071492	0.14518	-0.1815	0.243	0.342	0	283	210	3
2026-02-12	16:48:32.010	-13.545	29.75	-211.4	1.19926	0.113948	0.129564	-0.1905	0.222	0.351	0	276	236	3
2026-02-12	16:48:32.030	-9.275	30.135	-208.32	1.186084	0.169824	0.078812	-0.1995	0.1905	0.333	0	276	236	3
2026-02-12	16:48:32.050	-12.145	30.45	-201.635	1.175104	0.216672	0.091256	-0.213	0.1695	0.3315	0	276	236	3
2026-02-12	16:48:32.070	-24.535	31.395	-194.25	1.244888	0.223016	0.127612	-0.219	0.135	0.3285	0	276	236	3
2026-02-12	16:48:32.090	-38.395	36.54	-186.62	1.206092	0.220332	0.063928	-0.216	0.108	0.318	0	276	236	3
2026-02-12	16:48:32.110	-53.025	38.885	-176.96	1.159488	0.199104	-0.01586	-0.213	0.0855	0.3195	0	276	236	3
2026-02-12	16:48:32.130	-57.4	37.905	-166.39	1.106296	0.230092	-0.047824	-0.219	0.0585	0.3045	0	276	236	3
2026-02-12	16:48:32.150	-55.965	34.37	-156.975	1.059448	0.269132	-0.038552	-0.207	0.0435	0.3	0	276	236	3
2026-02-12	16:48:32.170	-51.555	28.28	-145.11	1.047492	0.313296	-0.015616	-0.2205	0.0285	0.291	0	276	236	3
2026-02-12	16:48:32.190	-51.205	21.805	-132.09	1.021384	0.339404	-0.005856	-0.2205	0.0285	0.291	0	276	236	3
2026-02-12	16:48:32.210	-51.275	16.38	-120.61	0.995032	0.351604	0.013176	-0.21	0.0075	0.2835	0	272	228	3
2026-02-12	16:48:32.230	-49.175	11.445	-108.5	0.952332	0.3782	0.016348	-0.1995	-0.024	0.273	0	272	228	3
2026-02-12	16:48:32.250	-47.775	7.315	-96.145	0.915732	0.40626	0.03172	-0.1905	-0.0375	0.2685	0	272	228	3
2026-02-12	16:48:32.270	-45.115	4.55	-85.015	0.864248	0.40504	0.051972	-0.1815	-0.0435	0.267	0	272	228	3
2026-02-12	16:48:32.290	-39.025	2.45	-75.915	0.803004	0.3965	0.071004	-0.18	-0.0525	0.2655	0	272	228	3
2026-02-12	16:48:32.310	-31.64	0.385	-67.76	0.740784	0.370392	0.082472	-0.1785	-0.06	0.2655	0	272	228	3
2026-02-12	16:48:32.330	-24.92	-2.66	-59.745	0.68442	0.34892	0.08052	-0.177	-0.0615	0.264	0	272	228	3
2026-02-12	16:48:32.350	-19.39	-7.07	-51.1	0.644404	0.35258	0.095648	-0.1785	-0.0675	0.2505	0	272	228	3
2026-02-12	16:48:32.370	-16.66	-11.865	-41.335	0.617076	0.366	0.124196	-0.174	-0.078	0.252	0	272	228	3
2026-02-12	16:48:32.390	-17.185	-16.135	-29.715	0.599264	0.372588	0.150304	-0.1725	-0.0705	0.255	0	272	228	3
2026-02-12	16:48:32.410	-18.445	-19.495	-17.045	0.593652	0.368684	0.16836	-0.1755	-0.081	0.2565	0	269	195	3
2026-02-12	16:48:32.430	-20.335	-22.19	-3.85	0.581696	0.354288	0.173972	-0.1695	-0.0825	0.255	0	269	195	3
2026-02-12	16:48:32.450	-21.035	-25.865	12.88	0.586576	0.329156	0.18178	-0.1665	-0.0765	0.261	0	269	195	3
2026-02-12	16:48:32.470	-19.88	-28.175	29.4	0.593164	0.301096	0.187636	-0.1695	-0.075	0.2595	0	269	195	3
2026-02-12	16:48:32.490	-18.165	-30.73	42.805	0.609756	0.277428	0.194468	-0.1725	-0.0705	0.264	0	269	195	3
2026-02-12	16:48:32.510	-17.255	-33.285	57.155	0.645868	0.25254	0.213988	-0.177	-0.0615	0.27	0	269	195	3
2026-02-12	16:48:32.530	-17.465	-35.91	72.275	0.699304	0.235704	0.224236	-0.1845	-0.0555	0.2745	0	269	195	3
2026-02-12	16:48:32.550	-17.22	-38.15	87.955	0.78446	0.21472	0.245708	-0.192	-0.048	0.2775	0	269	195	3
2026-02-12	16:48:32.570	-15.12	-39.375	102.655	0.898164	0.20008	0.244244	-0.198	-0.036	0.2805	0	269	195	3
2026-02-12	16:48:32.590	-10.22	-37.94	115.43	0.968436	0.17934	0.237412	-0.1995	-0.0255	0.285	0	269	195	3
2026-02-12	16:48:32.610	-3.675	-35.945	126.49	0.998692	0.170312	0.233996	-0.2055	-0.0135	0.2865	0	269	173	2
2026-02-12	16:48:32.630	-0.875	-34.79	135.555	1.03334	0.166896	0.257664	-0.2145	0.0075	0.2925	0	269	173	2
2026-02-12	16:48:32.650	-4.375	-33.25	141.82	1.0553	0.140788	0.317444	-0.213	0.021	0.3045	0	269	173	2
2026-02-12	16:48:32.670	-10.605	-30.45	144.375	1.112884	0.12688	0.360876	-0.213	0.039	0.3135	0	269	173	2
2026-02-12	16:48:32.690	-10.325	-27.58	148.225	1.27368	0.059048	0.330132	-0.2175	0.066	0.315	0	269	173	2
2026-02-12	16:48:32.710	2.87	-27.86	156.8	1.557696	-0.004392	0.221796	-0.219	0.0825	0.3195	0	269	173	2
2026-02-12	16:48:32.730	44.835	-27.335	176.4	1.8971	0.069052	0.192272	-0.216	0.0915	0.3255	0	269	173	2
2026-02-12	16:48:32.750	82.88	-16.24	182.525	1.67262	0.111264	0.211548	-0.213	0.1335	0.327	0	269	173	2
2026-02-12	16:48:32.770	124.705	-15.085	182.945	1.42374	0.13298	0.25742	-0.2175	0.1515	0.3255	0	269	173	2
2026-02-12	16:48:32.790	160.615	-18.515	174.37	1.183644	0.205692	0.369904	-0.216	0.1845	0.336	0	269	173	2
2026-02-12	16:48:32.810	175.63	-21.385	160.58	1.024556	0.196908	0.47824	-0.2025	0.201	0.333	0	271	177	3
2026-02-12	16:48:32.830	166.425	-22.05	151.13	0.951844	0.19642	0.481656	-0.192	0.216	0.321	0	271	177	3
2026-02-12	16:48:32.850	140.21	-21.735	146.3	0.965264	0.243024	0.365024	-0.189	0.2355	0.312	0	271	177	3
2026-02-12	16:48:32.870	106.19	-19.81	145.565	1.00406	0.31354	0.266448	-0.177	0.246	0.3165	0	271	177	3
2026-02-12	16:48:32.890	67.865	-16.835	149.52	1.04432	0.354044	0.214476	-0.1725	0.2565	0.3135	0	271	177	3
2026-02-12	16:48:32.910	37.1	-12.635	154.77	1.053592	0.357948	0.210084	-0.1665	0.264	0.312	0	271	177	3
2026-02-12	16:48:32.930	22.4	-9.24	158.725	1.026752	0.329156	0.238876	-0.1515	0.2805	0.315	0	271	177	3
2026-02-12	16:48:32.950	25.41	-7.49	159.635	0.993568	0.282064	0.24644	-0.1365	0.3	0.3135	0	271	177	3
2026-02-12	16:48:32.970	44.625	-7.875	155.365	0.968924	0.28792	0.246928	-0.129	0.318	0.3135	0	271	177	3
2026-02-12	16:48:32.990	66.465	-10.36	141.365	0.959408	0.284504	0.265716	-0.126	0.3285	0.3195	0	271	177	3
2026-02-12	16:48:33.010	75.285	-14.98	121.87	1.004548	0.280112	0.289384	-0.126	0.3285	0.3195	0	274	201	3
2026-02-12	16:48:33.030	72.275	-19.075	103.25	1.03212	0.284504	0.322812	-0.081	0.36	0.2985	0	274	201	3
2026-02-12	16:48:33.050	68.46	-22.015	82.6	0.994056	0.30866	0.31964	-0.0765	0.372	0.2895	0	274	201	3
2026-02-12	16:48:33.070	66.36	-26.845	59.92	0.991128	0.341356	0.329644	-0.0645	0.3735	0.294	0	274	201	3
2026-02-12	16:48:33.090	63.21	-30.345	36.33	0.994788	0.354776	0.37332	-0.0645	0.3765	0.2865	0	274	201	3
2026-02-12	16:48:33.110	58.415	-31.745	11.235	1.037	0.345748	0.410652	-0.063	0.3795	0.285	0	274	201	3
2026-02-12	16:48:33.130	46.97	-32.025	-13.055	1.19804	0.349652	0.459452	-0.0615	0.378	0.2745	0	274	201	3
2026-02-12	16:48:33.150	27.545	-26.53	-36.33	1.28832	0.365268	0.422608	-0.0525	0.366	0.282	0	274	201	3
2026-02-12	16:48:33.170	8.12	-17.29	-60.515	1.303204	0.36356	0.335012	-0.0645	0.3705	0.2805	0	274	201	3
2026-02-12	16:48:33.190	-10.57	-10.605	-86.45	1.375428	0.309392	0.260348	-0.0765	0.366	0.2745	0	274	201	3
2026-02-12	16:48:33.210	-27.16	-3.605	-112.805	1.482544	0.2562	0.237168	-0.078	0.354	0.276	0	274	230	3
2026-02-12	16:48:33.230	-38.815	5.6	-140.7	1.491084	0.177388	0.231068	-0.0885	0.354	0.285	0	274	230	3
2026-02-12	16:48:33.250	-43.12	15.435	-175.14	1.37738	0.108824	0.234484	-0.0975	0.3435	0.2835	0	274	230	3
2026-02-12	16:48:33.270	-44.8	17.43	-204.015	1.285392	0.078568	0.25132	-0.0975	0.3435	0.2835	0	274	230	3
2026-02-12	16:48:33.290	-48.44	16.52	-220.745	1.228296	0.085156	0.256688	-0.1185	0.3105	0.2865	0	274	230	3
2026-02-12	16:48:33.310	-53.41	15.33	-231.77	1.252452	0.09467199	0.264252	-0.15	0.267	0.288	0	274	230	3
2026-02-12	16:48:33.330	-57.19	16.59	-236.215	1.2932	0.071492	0.2318	-0.1695	0.2445	0.2835	0	274	230	3
2026-02-12	16:48:33.350	-54.355	20.965	-236.95	1.232932	0.077348	0.181048	-0.18	0.2205	0.2865	0	274	230	3
2026-02-12	16:48:33.370	-47.53	23.485	-230.51	1.181692	0.129076	0.12688	-0.1845	0.1965	0.285	0	274	230	3
2026-02-12	16:48:33.390	-44.415	23.345	-220.045	1.196088	0.166896	0.094916	-0.1935	0.1665	0.2805	0	274	230	3
2026-02-12	16:48:33.410	-41.86	23.45	-208.985	1.26392	0.171044	0.081252	-0.201	0.1395	0.2805	0	272	248	3
2026-02-12	16:48:33.430	-38.92	25.34	-196.98	1.268312	0.164944	0.0244	-0.2055	0.1155	0.2775	0	272	248	3
2026-02-12	16:48:33.450	-35.21	25.9	-184.52	1.219512	0.175436	-0.047092	-0.204	0.093	0.273	0	272	248	3
2026-02-12	16:48:33.470	-32.865	21.735	-171.57	1.191696	0.195932	-0.10004	-0.204	0.072	0.2655	0	272	248	3
2026-02-12	16:48:33.490	-32.97	14.175	-158.62	1.227564	0.23668	-0.102968	-0.2055	0.048	0.2595	0	272	248	3
2026-02-12	16:48:33.510	-38.64	7.14	-147	1.189256	0.256688	-0.085888	-0.2055	0.036	0.2595	0	272	248	3
2026-02-12	16:48:33.530	-46.655	-2.87	-135.765	1.082384	0.24644	-0.069296	-0.1995	0.018	0.261	0	272	248	3
2026-02-12	16:48:33.550	-51.135	-13.79	-125.65	1.009184	0.244	-0.072468	-0.1995	0.009	0.261	0	272	248	3
2026-02-12	16:48:33.570	-55.02	-23.135	-117.74	0.937204	0.25254	-0.085156	-0.1965	-0.009	0.258	0	272	248	3
2026-02-12	16:48:33.590	-60.13	-32.2	-108.5	0.903776	0.260836	-0.058072	-0.1905	-0.0285	0.2505	0	272	248	3
2026-02-12	16:48:33.610	-66.15	-39.305	-97.265	0.875228	0.275476	-0.019764	-0.1875	-0.036	0.252	0	269	227	3
2026-02-12	16:48:33.630	-71.82	-43.085	-84.63	0.814228	0.266692	0.000732	-0.186	-0.0405	0.261	0	269	227	3
2026-02-12	16:48:33.650	-73.815	-45.535	-71.295	0.743712	0.257664	0.005612	-0.1845	-0.051	0.2595	0	269	227	3
2026-02-12	16:48:33.670	-72.17	-47.81	-57.435	0.69906	0.243756	0.012688	-0.1815	-0.0555	0.2595	0	269	227	3
2026-02-12	16:48:33.690	-67.41	-50.19	-42.56	0.688324	0.238876	0.036112	-0.1785	-0.06	0.2595	0	269	227	3
2026-02-12	16:48:33.710	-60.48	-51.905	-27.3	0.664412	0.226432	0.059536	-0.1755	-0.063	0.258	0	269	227	3
2026-02-12	16:48:33.730	-51.87	-53.9	-10.955	0.653676	0.21228	0.07515199	-0.1755	-0.0675	0.264	0	269	227	3
2026-02-12	16:48:33.750	-42.105	-56.665	6.02	0.654408	0.212768	0.096868	-0.1785	-0.069	0.276	0	269	227	3
2026-02-12	16:48:33.770	-33.04	-59.885	23.555	0.68442	0.22204	0.137128	-0.1845	-0.063	0.2805	0	269	227	3
2026-02-12	16:48:33.790	-25.795	-62.615	45.43	0.747372	0.243024	0.181048	-0.192	-0.0525	0.2805	0	269	227	3
2026-02-12	16:48:33.810	-22.54	-63.07	66.395	0.812032	0.235704	0.229116	-0.195	-0.048	0.282	0	267	183	3
2026-02-12	16:48:33.830	-20.125	-62.23	82.53	0.872056	0.198128	0.246196	-0.201	-0.036	0.3045	0	267	183	3
2026-02-12	16:48:33.850	-14.245	-60.62	97.3	0.92842	0.162992	0.248148	-0.2055	-0.027	0.3015	0	267	183	3
2026-02-12	16:48:33.870	-4.2	-57.68	111.37	0.987224	0.133956	0.22448	-0.2115	-0.0195	0.3135	0	267	183	3
2026-02-12	16:48:33.890	8.68	-54.915	125.09	1.04554	0.124684	0.22204	-0.2175	0	0.327	0	267	183	3
2026-02-12	16:48:33.910	18.48	-51.8	138.565	1.124596	0.128832	0.247172	-0.2175	0.0135	0.3345	0	267	183	3
2026-02-12	16:48:33.930	25.655	-46.375	150.045	1.166564	0.133712	0.277916	-0.222	0.024	0.3375	0	267	183	3
2026-02-12	16:48:33.950	31.885	-39.69	159.915	1.20414	0.119072	0.295484	-0.225	0.057	0.3525	0	267	183	3
2026-02-12	16:48:33.970	39.9	-34.755	170.905	1.347856	0.076128	0.312076	-0.228	0.075	0.36	0	267	183	3
2026-02-12	16:48:33.990	52.29	-29.085	185.465	1.530368	0.059292	0.302072	-0.2295	0.105	0.363	0	267	183	3
2026-02-12	16:48:34.010	85.05	-17.675	200.55	1.686284	0.055876	0.20984	-0.2295	0.105	0.363	0	266	161	3
2026-02-12	16:48:34.030	109.865	-9.345	206.01	1.623332	0.07442	0.132004	-0.2115	0.15	0.369	0	266	161	3
2026-02-12	16:48:34.050	142.94	-3.5	208.145	1.595272	0.16592	0.122	-0.2175	0.1755	0.375	0	266	161	3
2026-02-12	16:48:34.070	170.065	-2.38	200.515	1.27002	0.24766	0.314516	-0.207	0.2055	0.363	0	266	161	3
2026-02-12	16:48:34.090	169.925	-8.225	188.825	1.130208	0.264496	0.459696	-0.207	0.2055	0.363	0	266	161	3
2026-02-12	16:48:34.110	153.23	-13.58	176.75	1.190232	0.289628	0.516548	-0.1815	0.249	0.3465	0	266	161	3
2026-02-12	16:48:34.130	122.045	-8.61	167.44	1.133868	0.342332	0.447496	-0.168	0.2655	0.3435	0	266	161	3
2026-02-12	16:48:34.150	86.73	-5.145	158.725	1.130696	0.384056	0.34648	-0.1605	0.285	0.333	0	266	161	3
2026-02-12	16:48:34.170	55.44	-0.14	151.445	1.09434	0.365512	0.25254	-0.144	0.2955	0.33	0	266	161	3
2026-02-12	16:48:34.190	41.23	3.92	142.975	1.066524	0.349164	0.218136	-0.135	0.3225	0.3225	0	266	161	3
2026-02-12	16:48:34.210	38.325	6.58	133.56	1.005524	0.277916	0.194956	-0.1275	0.3345	0.33	0	268	172	3
2026-02-12	16:48:34.230	47.81	7.77	122.71	0.948184	0.287188	0.199104	-0.111	0.3465	0.318	0	268	172	3
2026-02-12	16:48:34.250	56.63	7.665	108.43	0.881084	0.301828	0.208864	-0.0945	0.3615	0.318	0	268	172	3
2026-02-12	16:48:34.270	62.23	4.9	91.56	0.854244	0.301096	0.239364	-0.096	0.372	0.315	0	268	172	3
2026-02-12	16:48:34.290	64.12	0.84	72.66	0.8296	0.319152	0.256932	-0.0735	0.3825	0.3075	0	268	172	3
2026-02-12	16:48:34.310	60.025	-4.095	53.235	0.813252	0.330864	0.268644	-0.0645	0.375	0.297	0	268	172	3
2026-02-12	16:48:34.330	51.975	-10.045	28.875	0.79788	0.335988	0.281576	-0.063	0.381	0.306	0	268	172	3
2026-02-12	16:48:34.350	44.38	-15.61	6.23	0.783972	0.324276	0.26352	-0.063	0.381	0.306	0	268	172	3
2026-02-12	16:48:34.370	38.22	-20.44	-10.36	0.796416	0.323788	0.243024	-0.0585	0.3825	0.294	0	268	172	3
2026-02-12	16:48:34.390	28.665	-24.535	-25.655	0.816424	0.31476	0.22814	-0.057	0.3825	0.285	0	268	172	3
2026-02-12	16:48:34.410	14.56	-29.855	-39.025	0.90768	0.301584	0.25254	-0.063	0.3795	0.2865	0	270	197	3
2026-02-12	16:48:34.430	-9.275	-36.155	-47.88	1.175348	0.3111	0.382836	-0.069	0.3765	0.285	0	270	197	3
2026-02-12	16:48:34.450	-43.89	-34.3	-52.745	1.405928	0.349896	0.457988	-0.072	0.3705	0.2835	0	270	197	3
2026-02-12	16:48:34.470	-64.05	-21.805	-62.755	1.477664	0.334524	0.407724	-0.078	0.363	0.291	0	270	197	3
2026-02-12	16:48:34.490	-70.665	-10.885	-82.95	1.621624	0.270352	0.296704	-0.09	0.363	0.3015	0	270	197	3
2026-02-12	16:48:34.510	-68.495	2.17	-106.19	1.669692	0.172264	0.164456	-0.1005	0.36	0.3075	0	270	197	3
2026-02-12	16:48:34.530	-59.22	13.72	-134.785	1.617476	0.063684	0.100528	-0.1005	0.3495	0.318	0	270	197	3
2026-02-12	16:48:34.550	-47.215	21.28	-164.78	1.508164	-0.017568	0.083936	-0.114	0.336	0.324	0	270	197	3
2026-02-12	16:48:34.570	-38.15	21.84	-192.465	1.438868	-0.062952	0.099552	-0.132	0.3195	0.3225	0	270	197	3
2026-02-12	16:48:34.590	-29.61	18.48	-214.62	1.39812	-0.042456	0.08906	-0.147	0.3	0.3165	0	270	197	3
2026-02-12	16:48:34.610	-20.44	11.97	-237.23	1.315892	0.032452	0.106872	-0.1575	0.291	0.315	0	274	217	3
2026-02-12	16:48:34.630	-23.94	6.895	-244.23	1.310768	0.119072	0.136152	-0.1575	0.291	0.315	0	274	217	3
2026-02-12	16:48:34.650	-31.99	4.655	-245.56	1.290272	0.153232	0.125416	-0.201	0.1995	0.3165	0	274	217	3
2026-02-12	16:48:34.670	-40.95	3.815	-241.745	1.301496	0.159088	0.10614	-0.207	0.174	0.318	0	274	217	3
2026-02-12	16:48:34.690	-49.735	4.375	-234.115	1.303448	0.157136	0.046116	-0.21	0.1605	0.321	0	274	217	3
2026-02-12	16:48:34.710	-56.455	6.3	-223.195	1.231468	0.134444	-0.02074	-0.2115	0.1305	0.318	0	274	217	3
2026-02-12	16:48:34.730	-57.19	5.285	-210.56	1.162172	0.1342	-0.072224	-0.2145	0.1005	0.3105	0	274	217	3
2026-02-12	16:48:34.750	-60.41	2.415	-194.775	1.095072	0.12932	-0.076372	-0.2145	0.0735	0.309	0	274	217	3
2026-02-12	16:48:34.770	-61.915	-1.61	-178.535	1.0675	0.158356	-0.043432	-0.213	0.0495	0.3075	0	274	217	3
2026-02-12	16:48:34.790	-63.385	-5.04	-161.98	1.078968	0.195688	-0.009516	-0.2115	0.0285	0.306	0	274	217	3
2026-02-12	16:48:34.810	-63.49	-6.09	-145.39	1.053104	0.220576	-0.017568	-0.204	0.009	0.3045	0	278	208	3
2026-02-12	16:48:34.830	-58.695	-6.755	-129.29	0.989664	0.230336	-0.032696	-0.201	-0.0075	0.303	0	278	208	3
2026-02-12	16:48:34.850	-51.52	-8.68	-112.98	0.921588	0.264984	-0.044896	-0.198	-0.0225	0.303	0	278	208	3
2026-02-12	16:48:34.870	-46.865	-11.235	-97.23	0.851316	0.272792	-0.03172	-0.195	-0.0315	0.303	0	278	208	3
2026-02-12	16:48:34.890	-43.89	-15.575	-73.99	0.78934	0.2928	0.006588	-0.1935	-0.0345	0.306	0	278	208	3
2026-02-12	16:48:34.910	-44.45	-17.92	-58.765	0.751276	0.311344	0.038064	-0.18	-0.0555	0.294	0	278	208	3
2026-02-12	16:48:34.930	-46.55	-19.705	-44.59	0.728584	0.333792	0.05368	-0.18	-0.06	0.297	0	278	208	3
2026-02-12	16:48:34.950	-50.015	-21	-31.045	0.710284	0.341356	0.05368	-0.1785	-0.066	0.2985	0	278	208	3
2026-02-12	16:48:34.970	-52.22	-22.61	-17.815	0.69906	0.329644	0.0549	-0.1875	-0.0675	0.303	0	278	208	3
2026-02-12	16:48:34.990	-52.29	-25.06	-4.795	0.688324	0.311588	0.069052	-0.1845	-0.066	0.2985	0	278	208	3
2026-02-12	16:48:35.010	-50.96	-28.175	8.4	0.688812	0.304756	0.091744	-0.1695	-0.0705	0.2955	0	281	173	3
2026-02-12	16:48:35.030	-49.245	-31.535	22.505	0.701744	0.308416	0.119804	-0.18	-0.063	0.3015	0	281	173	3
2026-02-12	16:48:35.050	-48.93	-34.685	37.765	0.724436	0.30378	0.15738	-0.1815	-0.0585	0.2955	0	281	173	3
2026-02-12	16:48:35.070	-50.505	-37.24	54.04	0.75884	0.290848	0.188368	-0.1845	-0.054	0.297	0	281	173	3
2026-02-12	16:48:35.090	-52.185	-39.165	70.665	0.795928	0.271328	0.220088	-0.186	-0.042	0.312	0	281	173	3
2026-02-12	16:48:35.110	-52.325	-40.25	86.8	0.842532	0.247904	0.251564	-0.1995	-0.0345	0.3045	0	281	173	3
