yyyy-MM-dd	HH:mm:ss.fff	gyrX	gyrY	gyrZ	accX	accY	accZ	magX	magY	magZ	Marker	Energy	Angle	Classification
2026-02-12	16:15:37.210	1.26	-0.56	0.21	-0.070516	0.051972	1.009672	0.225	-0.249	0.4305	0	9	1035	1
2026-02-12	16:15:37.230	1.26	-0.595	0.21	-0.064904	0.048312	1.014064	0.2175	-0.2505	0.432	0	9	1035	1
2026-02-12	16:15:37.250	1.26	-0.56	0.245	-0.065392	0.04514	1.010648	0.219	-0.249	0.432	0	9	1035	1
2026-02-12	16:15:37.270	1.26	-0.56	0.28	-0.06466	0.043676	1.014796	0.222	-0.2415	0.432	0	9	1035	1
2026-02-12	16:15:37.290	1.26	-0.56	0.315	-0.06588	0.04392	1.009916	0.219	-0.2445	0.4305	0	9	1035	1
2026-02-12	16:15:37.310	1.26	-0.525	0.28	-0.066612	0.04636	1.0126	0.2205	-0.2475	0.4305	0	9	1035	1
2026-02-12	16:15:37.330	1.295	-0.56	0.245	-0.065636	0.04392	1.0126	0.2205	-0.246	0.4305	0	9	1035	1
2026-02-12	16:15:37.350	1.26	-0.595	0.245	-0.06466	0.045384	1.01138	0.2205	-0.246	0.4365	0	9	1035	1
2026-02-12	16:15:37.370	1.26	-0.595	0.245	-0.0671	0.043676	1.012356	0.222	-0.243	0.4365	0	9	1035	1
2026-02-12	16:15:37.390	1.26	-0.56	0.28	-0.06588	0.043432	1.013088	0.2265	-0.2475	0.429	0	9	1035	1
2026-02-12	16:15:49.410	1.26	-0.455	0.245	-0.065148	0.045384	1.014064	0.2235	-0.2505	0.435	0	11	11	2
2026-02-12	16:15:49.430	1.26	-0.56	0.245	-0.06588	0.044408	1.01016	0.2235	-0.2505	0.435	0	11	11	2
2026-02-12	16:15:49.450	1.26	-0.56	0.28	-0.064172	0.04514	1.010892	0.219	-0.252	0.4335	0	11	11	2
2026-02-12	16:15:49.470	1.26	-0.56	0.245	-0.065148	0.0427	1.009184	0.2205	-0.252	0.4305	0	11	11	2
2026-02-12	16:15:49.490	1.26	-0.525	0.245	-0.066856	0.046848	1.012356	0.225	-0.246	0.432	0	11	11	2
2026-02-12	16:15:49.510	1.295	-0.875	0.525	-0.06466	0.044652	1.010892	0.2145	-0.2475	0.435	0	11	11	2
2026-02-12	16:15:49.530	1.225	-0.84	0.595	-0.06588	0.047092	1.011868	0.2205	-0.2445	0.438	0	11	11	2
2026-02-12	16:15:49.550	1.295	-0.385	0.56	-0.060512	0.044408	1.013576	0.2235	-0.2505	0.435	0	11	11	2
2026-02-12	16:15:49.570	1.19	-0.35	1.05	-0.068076	0.044652	1.011136	0.2235	-0.2505	0.435	0	11	11	2
2026-02-12	16:15:49.590	2.73	-13.195	34.615	0.201544	0.903532	0.48678	0.4245	-0.243	0.498	0	11	11	2
2026-02-12	16:15:49.610	15.785	-9.8	32.305	0.164944	0.919148	0.63196	0.642	-0.246	0.579	0	93	88	2
2026-02-12	16:15:49.630	23.87	-6.475	27.72	0.120536	0.970876	0.71126	0.63	-0.2475	0.591	0	93	88	2
2026-02-12	16:15:49.650	-1.05	-6.23	19.95	0.104188	0.917684	0.61732	0.615	-0.249	0.588	0	93	88	2
2026-02-12	16:15:49.670	2.52	-13.965	18.165	0.126148	0.925004	0.578524	0.633	-0.252	0.5955	0	93	88	2
2026-02-12	16:15:49.690	9.87	-17.605	14.455	0.150792	0.97112	0.654896	0.63	-0.2535	0.5955	0	93	88	2
2026-02-12	16:15:49.710	2.345	-14.49	5.285	0.132004	0.876936	0.568276	0.621	-0.258	0.5865	0	93	88	2
2026-02-12	16:15:49.730	-5.075	-22.715	1.715	0.100528	0.863516	0.543632	0.615	-0.2595	0.582	0	93	88	2
2026-02-12	16:15:49.750	1.68	-38.605	-0.21	0.061	0.839848	0.508984	0.606	-0.2625	0.5805	0	93	88	2
2026-02-12	16:15:49.770	7.945	-65.66	-1.75	0.034892	0.964776	0.711992	0.597	-0.2685	0.5775	0	93	88	2
2026-02-12	16:15:49.790	1.015	-77.735	-14.98	0.107116	0.924028	0.717116	0.6	-0.279	0.582	0	93	88	2
2026-02-12	16:15:49.810	-20.3	-75.915	-23.1	0.137372	0.85644	0.6344	0.6	-0.291	0.5865	0	223	211	3
2026-02-12	16:15:49.830	-36.33	-73.5	-27.16	0.13054	0.813252	0.643916	0.5925	-0.2895	0.5775	0	223	211	3
2026-02-12	16:15:49.850	-34.755	-63.525	-32.62	0.098332	0.810324	0.651236	0.594	-0.2835	0.57	0	223	211	3
2026-02-12	16:15:49.870	-22.26	-56.455	-35.525	0.039772	0.739564	0.560468	0.597	-0.2865	0.564	0	223	211	3
2026-02-12	16:15:49.890	-12.6	-63.385	-33.495	0.068564	0.785192	0.60756	0.6045	-0.288	0.558	0	223	211	3
2026-02-12	16:15:49.910	-2.135	-58.59	-36.225	0.05002	0.83082	0.693204	0.6105	-0.288	0.5535	0	223	211	3
2026-02-12	16:15:49.930	2.905	-52.08	-43.995	0.034404	0.775188	0.55632	0.612	-0.291	0.5475	0	223	211	3
2026-02-12	16:15:49.950	-0.77	-55.16	-48.405	0.044652	0.776164	0.493368	0.6195	-0.2925	0.54	0	223	211	3
2026-02-12	16:15:49.970	-0.77	-57.855	-49.84	0.072468	0.721752	0.453108	0.6255	-0.291	0.537	0	223	211	3
2026-02-12	16:15:49.990	11.2	-61.25	-50.015	0.077348	0.771528	0.56364	0.633	-0.291	0.534	0	223	211	3
2026-02-12	16:15:50.010	18.375	-57.12	-49.7	0.053192	0.74664	0.566568	0.6405	-0.2865	0.534	0	320	313	2
2026-02-12	16:15:50.030	21.805	-55.65	-43.645	0.045628	0.782508	0.501908	0.645	-0.2835	0.5445	0	320	313	2
2026-02-12	16:15:50.050	21.77	-57.19	-39.445	0.073688	0.8113	0.447984	0.645	-0.285	0.546	0	320	313	2
2026-02-12	16:15:50.070	30.59	-56.14	-35.7	0.101748	0.812764	0.444812	0.654	-0.282	0.5445	0	320	313	2
2026-02-12	16:15:50.090	34.055	-52.71	-29.75	0.10614	0.881816	0.488732	0.672	-0.282	0.5475	0	320	313	2
2026-02-12	16:15:50.110	33.04	-44.59	-20.755	0.131516	0.9089	0.386984	0.6645	-0.2835	0.5535	0	320	313	2
2026-02-12	16:15:50.130	24.815	-46.095	-8.015	0.1403	1.01016	0.44896	0.6555	-0.2835	0.5595	0	320	313	2
2026-02-12	16:15:50.150	22.295	-45.08	0	0.113948	0.927444	0.485072	0.6615	-0.2865	0.567	0	320	313	2
2026-02-12	16:15:50.170	30.24	-45.22	15.4	0.066856	1.069452	0.502396	0.6615	-0.2805	0.576	0	320	313	2
2026-02-12	16:15:50.190	34.545	-46.2	15.575	0.13542	1.07238	0.610488	0.6525	-0.282	0.582	0	320	313	2
2026-02-12	16:15:50.210	28.175	-33.95	13.44	0.10614	1.093608	0.5734	0.627	-0.291	0.5835	0	379	382	2
2026-02-12	16:15:50.230	9.275	-21.14	11.235	0.075396	1.087752	0.559248	0.6075	-0.291	0.585	0	379	382	2
2026-02-12	16:15:50.250	-3.745	-12.075	11.06	0.038552	1.079944	0.47092	0.6075	-0.291	0.585	0	379	382	2
2026-02-12	16:15:50.270	0.315	-6.72	10.85	0.036356	1.12728	0.416752	0.615	-0.2925	0.576	0	379	382	2
2026-02-12	16:15:50.290	2.625	-4.13	9.66	0.038552	1.131672	0.419924	0.615	-0.2925	0.576	0	379	382	2
2026-02-12	16:15:50.310	6.265	3.01	3.955	-0.020252	1.113372	0.503616	0.6135	-0.3045	0.576	0	379	382	2
2026-02-12	16:15:50.330	4.41	7.84	-3.745	0.08418	0.928664	0.3721	0.603	-0.303	0.5655	0	379	382	2
2026-02-12	16:15:50.350	-0.455	3.395	-5.635	0.00976	0.98576	0.334768	0.645	-0.2985	0.588	0	379	382	2
2026-02-12	16:15:50.370	3.185	4.375	-3.885	-0.029036	1.017236	0.411872	0.6	-0.3045	0.567	0	379	382	2
2026-02-12	16:15:50.390	7.595	7.105	-4.235	-0.011224	0.927688	0.436272	0.6105	-0.303	0.5715	0	379	382	2
2026-02-12	16:15:50.410	4.27	11.795	0.315	-0.080764	0.913048	0.377468	0.621	-0.309	0.576	0	407	418	3
2026-02-12	16:15:50.430	-5.145	6.3	6.37	-0.061244	0.86742	0.32818	0.6105	-0.3	0.5745	0	407	418	3
2026-02-12	16:15:50.450	-2.555	8.47	8.82	-0.010004	0.867176	0.464088	0.606	-0.3	0.564	0	407	418	3
2026-02-12	16:15:50.470	9.45	29.82	9.38	0.02806	0.861564	0.411628	0.6225	-0.2985	0.567	0	407	418	3
2026-02-12	16:15:50.490	5.075	48.65	7.875	0.065392	0.842288	0.416996	0.6105	-0.309	0.555	0	407	418	3
2026-02-12	16:15:50.510	-8.33	60.725	6.895	-0.003416	0.498248	0.296948	0.621	-0.2955	0.5535	0	407	418	3
2026-02-12	16:15:50.530	-27.965	57.085	38.57	-0.115656	0.766892	0.137616	0.6525	-0.2985	0.558	0	407	418	3
2026-02-12	16:15:50.550	-22.645	38.43	44.485	0.029524	1.11508	0.212524	0.663	-0.3135	0.5475	0	407	418	3
2026-02-12	16:15:50.570	-29.33	27.545	11.445	0.095892	0.851072	0.432856	0.6645	-0.324	0.5325	0	407	418	3
2026-02-12	16:15:50.590	-18.935	33.04	1.89	0.04514	0.6649	0.325252	0.6525	-0.3375	0.54	0	407	418	3
2026-02-12	16:15:50.610	-15.225	25.9	9.765	0.140788	0.805932	0.35502	0.6615	-0.3375	0.531	0	409	425	3
2026-02-12	16:15:50.630	-24.605	19.39	13.44	0.171288	0.847412	0.492392	0.657	-0.3315	0.5265	0	409	425	3
2026-02-12	16:15:50.650	-19.705	28.315	10.955	0.201056	0.821548	0.437004	0.6495	-0.3285	0.543	0	409	425	3
2026-02-12	16:15:50.670	-22.89	26.25	11.795	0.221552	0.829356	0.417484	0.6525	-0.333	0.5415	0	409	425	3
2026-02-12	16:15:50.690	-34.23	23.45	11.06	0.242536	0.914024	0.533872	0.6525	-0.333	0.5415	0	409	425	3
2026-02-12	16:15:50.710	-22.26	17.85	11.48	0.281332	0.917196	0.3477	0.6525	-0.333	0.5415	0	409	425	3
2026-02-12	16:15:50.730	-17.71	10.255	11.235	0.312808	0.87352	0.429196	0.6495	-0.3255	0.525	0	409	425	3
2026-02-12	16:15:50.750	-18.62	4.025	14.245	0.294752	0.896456	0.530212	0.648	-0.315	0.5085	0	409	425	3
2026-02-12	16:15:50.770	-19.18	0.77	14.35	0.276452	0.96624	0.556564	0.6465	-0.315	0.5085	0	409	425	3
2026-02-12	16:15:50.790	-11.76	-6.335	11.515	0.23668	0.962092	0.501908	0.642	-0.315	0.507	0	409	425	3
2026-02-12	16:15:50.810	-2.8	-19.495	8.4	0.255224	0.916464	0.677344	0.63	-0.312	0.4995	0	395	423	3
2026-02-12	16:15:50.830	9.66	-15.855	7.84	0.218136	0.937204	0.72956	0.6135	-0.312	0.5025	0	395	423	3
2026-02-12	16:15:50.850	16.1	-7.525	7.875	0.230824	1.031144	0.64172	0.6195	-0.3195	0.5025	0	395	423	3
2026-02-12	16:15:50.870	20.86	-8.19	5.355	0.25376	0.981612	0.570472	0.639	-0.327	0.498	0	395	423	3
2026-02-12	16:15:50.890	34.125	-12.985	6.37	0.221552	0.909388	0.614392	0.636	-0.3285	0.507	0	395	423	3
2026-02-12	16:15:50.910	49.35	-20.125	8.75	0.244732	0.877668	0.58194	0.6225	-0.3345	0.5145	0	395	423	3
2026-02-12	16:15:50.930	52.78	-36.785	15.26	0.24278	0.905972	0.680028	0.6135	-0.345	0.5325	0	395	423	3
2026-02-12	16:15:50.950	35.525	-47.11	20.125	0.204716	1.052616	0.873764	0.5955	-0.3525	0.5625	0	395	423	3
2026-02-12	16:15:50.970	7.315	-43.12	10.815	0.163236	0.956236	0.767624	0.588	-0.3555	0.57	0	395	423	3
2026-02-12	16:15:50.990	-14.49	-40.88	8.68	0.127124	0.929396	0.493612	0.5955	-0.3585	0.5655	0	395	423	3
2026-02-12	16:15:51.010	-31.605	-60.725	9.66	0.157136	0.856196	0.408212	0.6015	-0.363	0.5625	0	372	443	3
2026-02-12	16:15:51.030	-34.86	-79.1	9.03	0.135908	0.856684	0.624152	0.597	-0.363	0.5535	0	372	443	3
2026-02-12	16:15:51.050	-21.56	-72.415	1.365	0.158356	0.766892	0.656116	0.5865	-0.363	0.549	0	372	443	3
2026-02-12	16:15:51.070	-17.99	-58.905	-3.5	0.160308	0.810324	0.553392	0.582	-0.3615	0.546	0	372	443	3
2026-02-12	16:15:51.090	-33.74	-56.315	-10.325	0.13298	0.749812	0.524844	0.588	-0.3645	0.543	0	372	443	3
2026-02-12	16:15:51.110	-24.99	-52.01	-15.785	0.181048	0.752496	0.442372	0.5955	-0.366	0.537	0	372	443	3
2026-02-12	16:15:51.130	-12.985	-51.45	-20.195	0.21472	0.724924	0.38064	0.5985	-0.3645	0.534	0	372	443	3
2026-02-12	16:15:51.150	-1.015	-56.14	-22.995	0.234972	0.720532	0.43432	0.5985	-0.3645	0.5235	0	372	443	3
2026-02-12	16:15:51.170	7.875	-58.975	-27.02	0.2318	0.742248	0.55754	0.6	-0.3615	0.519	0	372	443	3
2026-02-12	16:15:51.190	15.54	-57.365	-28.875	0.368928	0.777384	0.430172	0.5985	-0.3555	0.5295	0	372	443	3
2026-02-12	16:15:51.210	-25.585	-72.17	-27.895	0.469212	0.879376	0.58682	0.597	-0.36	0.537	0	347	475	3
2026-02-12	16:15:51.230	-40.18	-64.61	-33.635	0.431392	0.812032	0.659776	0.6	-0.3585	0.5355	0	347	475	3
2026-02-12	16:15:51.250	-37.24	-58.975	-30.66	0.326228	0.833016	0.560956	0.594	-0.354	0.5325	0	347	475	3
2026-02-12	16:15:51.270	-38.115	-69.475	-28.105	0.305976	0.764208	0.469212	0.6135	-0.3495	0.534	0	347	475	3
2026-02-12	16:15:51.290	-35.14	-79.8	-22.225	0.254492	0.68808	0.39284	0.6255	-0.348	0.528	0	347	475	3
2026-02-12	16:15:51.310	-21.805	-89.635	-13.055	0.305732	0.876692	0.60268	0.615	-0.354	0.5205	0	347	475	3
2026-02-12	16:15:51.330	-16.625	-84.805	-14.84	0.356972	0.94428	0.749324	0.615	-0.354	0.5205	0	347	475	3
2026-02-12	16:15:51.350	-19.6	-74.48	-13.23	0.310612	0.959164	0.66246	0.6105	-0.336	0.4995	0	347	475	3
2026-02-12	16:15:51.370	-41.09	-71.61	-11.935	0.279868	0.867176	0.518256	0.6105	-0.336	0.4995	0	347	475	3
2026-02-12	16:15:51.390	-34.615	-65.765	-18.235	0.19764	0.92476	0.399916	0.639	-0.3285	0.477	0	347	475	3
2026-02-12	16:15:51.410	-4.13	-66.43	-28.595	0.111752	0.943304	0.547536	0.642	-0.324	0.429	0	321	500	3
2026-02-12	16:15:51.430	0.735	-66.64	-38.64	0.03294	0.8601	0.469212	0.6495	-0.3195	0.423	0	321	500	3
2026-02-12	16:15:51.450	-20.16	-76.825	-39.445	0.212524	1.007964	0.61	0.702	-0.294	0.414	0	321	500	3
2026-02-12	16:15:51.470	-10.675	-24.5	-43.61	0.16958	0.953796	0.576572	0.6735	-0.303	0.3615	0	321	500	3
2026-02-12	16:15:51.490	-6.72	3.885	-27.125	-0.009516	1.107272	0.29646	0.6915	-0.282	0.3315	0	321	500	3
2026-02-12	16:15:51.510	13.65	-7.945	-39.48	0.00122	0.914512	0.47824	0.7155	-0.267	0.3165	0	321	500	3
2026-02-12	16:15:51.530	44.415	-16.275	-36.61	0.158356	0.938424	0.562664	0.711	-0.2505	0.3015	0	321	500	3
2026-02-12	16:15:51.550	42.875	-16.065	-28.175	0.140544	1.00406	0.542412	0.693	-0.246	0.336	0	321	500	3
2026-02-12	16:15:51.570	21.525	-13.65	-30.38	0.113216	0.944036	0.49288	0.678	-0.252	0.348	0	321	500	3
2026-02-12	16:15:51.590	-0.455	-9.485	-27.79	0.141276	0.792024	0.453352	0.675	-0.2415	0.3525	0	321	500	3
2026-02-12	16:15:51.610	8.68	-2.905	-10.64	0.051484	0.809104	0.36722	0.6825	-0.237	0.3435	0	298	512	3
2026-02-12	16:15:51.630	37.415	6.86	-7	0.01464	0.969656	0.32818	0.675	-0.24	0.345	0	298	512	3
2026-02-12	16:15:51.650	36.54	5.705	-26.285	-0.037332	0.963068	0.366732	0.6675	-0.243	0.336	0	298	512	3
2026-02-12	16:15:51.670	46.9	-3.01	-68.04	0.020984	0.693692	0.649284	0.6825	-0.249	0.3405	0	298	512	3
2026-02-12	16:15:51.690	-6.58	9.87	-49.35	0.122488	0.822768	0.415288	0.6885	-0.237	0.357	0	298	512	3
2026-02-12	16:15:51.710	-0.91	31.29	-55.23	0.046604	0.664168	0.326228	0.705	-0.213	0.3225	0	298	512	3
2026-02-12	16:15:51.730	-7.525	42.98	-22.68	0.11712	0.714188	0.308172	0.7185	-0.2025	0.2985	0	298	512	3
2026-02-12	16:15:51.750	-14.42	39.76	19.285	0.106872	0.774944	0.264008	0.7395	-0.1815	0.2985	0	298	512	3
2026-02-12	16:15:51.770	-21.245	19.215	33.18	0.222284	0.85156	0.424804	0.7395	-0.168	0.294	0	298	512	3
2026-02-12	16:15:51.790	-1.085	34.3	22.015	0.281088	0.781776	0.427732	0.75	-0.189	0.3045	0	298	512	3
2026-02-12	16:15:51.810	2.8	46.725	22.54	0.338672	0.928664	0.390156	0.729	-0.1905	0.336	0	279	506	3
2026-02-12	16:15:51.830	-16.59	53.9	27.16	0.294752	0.974048	0.310856	0.7335	-0.201	0.342	0	279	506	3
2026-02-12	16:15:51.850	-27.475	47.495	37.59	0.329156	0.992592	0.294752	0.7425	-0.201	0.3225	0	279	506	3
2026-02-12	16:15:51.870	5.88	46.585	33.74	0.347944	0.956724	0.378932	0.7425	-0.201	0.3225	0	279	506	3
2026-02-12	16:15:51.890	34.195	43.54	34.965	0.280112	1.026752	0.41846	0.7425	-0.201	0.3225	0	279	506	3
2026-02-12	16:15:51.910	41.23	36.365	23.415	0.376004	0.963068	0.594384	0.7425	-0.201	0.3225	0	279	506	3
2026-02-12	16:15:51.930	17.535	27.72	19.04	0.367708	1.038464	0.698084	0.7335	-0.2175	0.3315	0	279	506	3
2026-02-12	16:15:51.950	-17.185	22.575	14.245	0.30988	0.98576	0.488488	0.726	-0.231	0.333	0	279	506	3
2026-02-12	16:15:51.970	-13.09	5.25	16.66	0.36478	0.905972	0.391132	0.7245	-0.222	0.315	0	279	506	3
2026-02-12	16:15:51.990	24.36	-14.21	27.615	0.382348	0.9028	0.46116	0.7305	-0.2115	0.303	0	279	506	3
2026-02-12	16:15:52.010	41.825	-24.22	33.39	0.349896	0.947208	0.482632	0.732	-0.213	0.318	0	263	490	3
2026-02-12	16:15:52.030	38.29	-26.95	30.415	0.377956	0.938424	0.528992	0.72	-0.222	0.3435	0	263	490	3
2026-02-12	16:15:52.050	35.63	-22.785	25.165	0.341356	0.911096	0.513132	0.702	-0.2295	0.366	0	263	490	3
2026-02-12	16:15:52.070	42.665	-20.37	18.515	0.3233	0.97722	0.51362	0.693	-0.2415	0.3915	0	263	490	3
2026-02-12	16:15:52.090	33.565	-20.02	8.155	0.358924	0.96502	0.554368	0.69	-0.2535	0.417	0	263	490	3
2026-02-12	16:15:52.110	20.93	-18.795	-5.18	0.346236	0.940864	0.5185	0.681	-0.2595	0.432	0	263	490	3
2026-02-12	16:15:52.130	8.75	-17.36	-15.505	0.305976	0.903044	0.504104	0.678	-0.2625	0.432	0	263	490	3
2026-02-12	16:15:52.150	0.07	-19.32	-21.28	0.285236	0.863028	0.500444	0.681	-0.2625	0.429	0	263	490	3
2026-02-12	16:15:52.170	-9.555	-21.84	-26.46	0.246196	0.869616	0.426756	0.687	-0.261	0.4125	0	263	490	3
2026-02-12	16:15:52.190	-11.27	-30.38	-30.765	0.216672	0.868152	0.442372	0.705	-0.261	0.393	0	263	490	3
2026-02-12	16:15:52.210	-11.795	-41.79	-33.46	0.173728	0.821548	0.467992	0.72	-0.264	0.375	0	250	482	3
2026-02-12	16:15:52.230	-5.88	-46.445	-34.825	0.177144	0.846924	0.503372	0.72	-0.2655	0.3585	0	250	482	3
2026-02-12	16:15:52.250	-14.63	-47.355	-38.885	0.155916	0.859124	0.49654	0.7275	-0.264	0.3465	0	250	482	3
2026-02-12	16:15:52.270	-14.7	-47.075	-40.915	0.141032	0.832772	0.367464	0.7365	-0.2625	0.3375	0	250	482	3
2026-02-12	16:15:52.290	-1.995	-47.53	-41.93	0.11346	0.854244	0.447496	0.762	-0.252	0.3375	0	250	482	3
2026-02-12	16:15:52.310	6.615	-44.73	-45.92	0.121024	0.834236	0.45628	0.768	-0.2475	0.3315	0	250	482	3
2026-02-12	16:15:52.330	5.565	-38.885	-47.075	0.135664	0.853268	0.407236	0.756	-0.2505	0.3255	0	250	482	3
2026-02-12	16:15:52.350	0.35	-42.21	-48.965	0.12444	0.827404	0.310612	0.768	-0.2475	0.321	0	250	482	3
2026-02-12	16:15:52.370	3.71	-52.08	-48.51	0.105652	0.868396	0.32208	0.7815	-0.2505	0.3075	0	250	482	3
2026-02-12	16:15:52.390	8.435	-55.615	-48.86	0.116876	0.777628	0.292556	0.7845	-0.255	0.3015	0	250	482	3
2026-02-12	16:15:52.410	9.45	-54.845	-43.61	0.15006	0.831308	0.504592	0.7785	-0.261	0.3015	0	238	476	3
2026-02-12	16:15:52.430	15.995	-53.41	-41.79	0.136884	0.820572	0.429196	0.7785	-0.261	0.3015	0	238	476	3
2026-02-12	16:15:52.450	12.25	-50.96	-36.155	0.132736	0.870836	0.310856	0.8145	-0.2505	0.3105	0	238	476	3
2026-02-12	16:15:52.470	10.08	-47.04	-29.47	0.14518	0.935008	0.291336	0.8145	-0.2505	0.3105	0	238	476	3
2026-02-12	16:15:52.490	2.835	-42.49	-27.265	0.149572	0.958432	0.337696	0.834	-0.2535	0.312	0	238	476	3
2026-02-12	16:15:52.510	-3.115	-38.57	-25.725	0.148108	0.951844	0.320616	0.885	-0.258	0.321	0	238	476	3
2026-02-12	16:15:52.530	-4.725	-34.965	-17.92	0.112972	1.032608	0.345504	0.867	-0.2565	0.3105	0	238	476	3
2026-02-12	16:15:52.550	-1.47	-31.99	-9.695	0.182756	0.958188	0.315492	0.8625	-0.2445	0.3	0	238	476	3
2026-02-12	16:15:52.570	14.525	-25.62	9.59	0.137372	1.08824	0.461648	0.834	-0.267	0.2865	0	238	476	3
2026-02-12	16:15:52.590	-0.665	-14.525	7.56	0.062952	1.158512	0.36478	0.825	-0.285	0.294	0	238	476	3
2026-02-12	16:15:52.610	-19.53	-14.385	2.17	0.093208	1.138016	0.31354	0.8325	-0.294	0.27	0	226	461	1
2026-02-12	16:15:52.630	-13.86	-11.76	3.395	0.121024	1.160708	0.327204	0.837	-0.3015	0.258	0	226	461	1
2026-02-12	16:15:52.650	-7.98	-10.08	6.3	0.130052	1.18706	0.374296	0.8535	-0.2925	0.228	0	226	461	1
2026-02-12	16:15:52.670	1.715	-1.19	4.235	0.068564	1.131184	0.259616	0.8505	-0.306	0.2145	0	226	461	1
2026-02-12	16:15:52.690	2.065	6.475	4.62	0.039284	1.249036	0.383568	0.8505	-0.3075	0.2175	0	226	461	1
2026-02-12	16:15:52.710	-9.87	12.18	-1.19	0.031964	1.09434	0.270596	0.855	-0.327	0.201	0	226	461	1
2026-02-12	16:15:52.730	-14.175	16.66	-0.28	0.059048	1.090192	0.443104	0.867	-0.3345	0.165	0	226	461	1
2026-02-12	16:15:52.750	-12.39	21.245	-3.43	0.01098	1.06384	0.354532	0.9045	-0.36	0.1275	0	226	461	1
2026-02-12	16:15:52.770	-21.56	32.375	-12.18	-0.020252	0.911096	0.49044	0.9165	-0.354	0.0825	0	226	461	1
2026-02-12	16:15:52.790	-30.73	56.035	-19.25	-0.041724	0.864736	0.574864	0.921	-0.348	0.045	0	226	461	1
2026-02-12	16:15:52.810	-77.595	78.995	-22.33	0.033672	0.41968	-0.252784	0.9405	-0.3285	-0.0135	0	218	439	3
2026-02-12	16:15:52.830	-108.325	36.855	-5.705	-0.05978	0.809592	0.621468	0.984	-0.3015	-0.1035	0	218	439	3
2026-02-12	16:15:52.850	-84.35	33.215	-0.84	-0.096868	0.876448	0.359656	1.0305	-0.2595	-0.195	0	218	439	3
2026-02-12	16:15:52.870	-66.395	39.655	-0.35	-0.10004	0.849364	0.375028	1.053	-0.2445	-0.2505	0	218	439	3
2026-02-12	16:15:52.890	-26.075	35.455	-0.07	-0.064416	0.871568	0.457012	1.122	-0.2235	-0.2745	0	218	439	3
2026-02-12	16:15:52.910	-10.955	32.095	2.1	-0.006832	0.587064	0.38674	1.11	-0.2055	-0.3105	0	218	439	3
2026-02-12	16:15:52.930	-6.405	24.5	0.105	0.004636	0.844972	0.434076	1.0785	-0.219	-0.333	0	218	439	3
2026-02-12	16:15:52.950	1.645	17.185	0.91	0.021228	0.82472	0.406504	1.0755	-0.2205	-0.321	0	218	439	3
2026-02-12	16:15:52.970	16.66	14.28	3.78	0.06588	0.818376	0.418704	1.083	-0.2325	-0.3165	0	218	439	3
2026-02-12	16:15:52.990	20.195	17.5	9.695	0.09394	0.866932	0.366244	1.0665	-0.2355	-0.303	0	218	439	3
2026-02-12	16:15:53.010	17.43	14.385	10.71	0.130052	0.841556	0.383812	1.0605	-0.2505	-0.267	0	214	420	3
2026-02-12	16:15:53.030	25.515	11.76	15.015	0.164212	0.777628	0.408456	1.0635	-0.2565	-0.249	0	214	420	3
2026-02-12	16:15:53.050	40.74	4.48	30.205	0.169336	0.86864	0.323788	1.035	-0.282	-0.2145	0	214	420	3
2026-02-12	16:15:53.070	51.31	-8.435	33.635	0.165188	0.845948	0.370148	1.035	-0.3105	-0.1755	0	214	420	3
2026-02-12	16:15:53.090	46.235	-9.415	33.32	0.227896	0.837652	0.360876	1.035	-0.3105	-0.1755	0	214	420	3
2026-02-12	16:15:53.110	34.58	-14.175	38.99	0.209596	0.865712	0.30744	1.035	-0.3105	-0.1755	0	214	420	3
2026-02-12	16:15:53.130	18.83	-23.625	37.03	0.259128	1.005036	0.393572	0.984	-0.3615	-0.0765	0	214	420	3
2026-02-12	16:15:53.150	-5.11	-22.68	25.55	0.2745	0.904996	0.403332	0.921	-0.4155	0.0345	0	214	420	3
2026-02-12	16:15:53.170	-11.725	-24.885	27.755	0.231068	0.95282	0.3599	0.903	-0.411	0.057	0	214	420	3
2026-02-12	16:15:53.190	-10.43	-28.91	31.325	0.196176	1.023092	0.541436	0.885	-0.4035	0.0765	0	214	420	3
2026-02-12	16:15:53.210	-4.585	-20.72	24.115	0.146644	1.113128	0.615856	0.8625	-0.4035	0.0945	0	211	410	3
2026-02-12	16:15:53.230	-22.19	-15.225	13.51	0.175924	1.059448	0.446276	0.855	-0.4005	0.0975	0	211	410	3
2026-02-12	16:15:53.250	-34.44	-21.945	11.655	0.185684	1.101416	0.424316	0.8625	-0.3975	0.081	0	211	410	3
2026-02-12	16:15:53.270	-28.77	-27.44	9.8	0.237168	1.0492	0.409676	0.867	-0.39	0.0585	0	211	410	3
2026-02-12	16:15:53.290	-6.51	-29.33	9.59	0.25864	1.00284	0.440664	0.861	-0.393	0.048	0	211	410	3
2026-02-12	16:15:53.310	6.3	-26.11	9.45	0.257908	1.087996	0.540704	0.852	-0.396	0.054	0	211	410	3
2026-02-12	16:15:53.330	-3.395	-20.685	3.22	0.18544	1.048956	0.633424	0.8415	-0.3945	0.075	0	211	410	3
2026-02-12	16:15:53.350	-20.965	-13.755	-6.58	0.177388	1.045784	0.683932	0.8325	-0.4005	0.084	0	211	410	3
2026-02-12	16:15:53.370	-31.465	-7.98	-15.12	0.200812	0.996252	0.523136	0.8445	-0.405	0.078	0	211	410	3
2026-02-12	16:15:53.390	-35	-13.37	-20.545	0.17446	0.935252	0.425292	0.864	-0.4125	0.0585	0	211	410	3
2026-02-12	16:15:53.410	-23.415	-21.49	-26.25	0.164944	0.904996	0.399184	0.873	-0.4245	0.024	0	209	416	3
2026-02-12	16:15:53.430	-8.89	-28.245	-33.18	0.151036	0.76494	0.467748	0.8775	-0.432	0.0045	0	209	416	3
2026-02-12	16:15:53.450	2.345	-31.815	-36.61	0.109312	0.796904	0.666608	0.8835	-0.435	0.003	0	209	416	3
2026-02-12	16:15:53.470	-9.31	-28.595	-44.03	0.065148	0.709796	0.601948	0.879	-0.4275	0.0135	0	209	416	3
2026-02-12	16:15:53.490	-24.955	-31.99	-43.645	0.048068	0.780068	0.665144	0.8745	-0.423	0.012	0	209	416	3
2026-02-12	16:15:53.510	-27.895	-31.5	-46.375	0.045872	0.783484	0.65636	0.8745	-0.423	0.012	0	209	416	3
2026-02-12	16:15:53.530	-24.815	-27.335	-48.825	0.042212	0.754204	0.567788	0.8955	-0.426	-0.021	0	209	416	3
2026-02-12	16:15:53.550	-12.285	-26.495	-48.265	0.057584	0.735416	0.514596	0.9105	-0.4185	-0.021	0	209	416	3
2026-02-12	16:15:53.570	2.555	-28.77	-44.205	0.058072	0.74786	0.50752	0.936	-0.4035	-0.03	0	209	416	3
2026-02-12	16:15:53.590	7.595	-29.54	-42.7	0.074176	0.758108	0.499956	0.96	-0.405	-0.0405	0	209	416	3
2026-02-12	16:15:53.610	6.3	-29.715	-41.475	0.103212	0.768844	0.496052	0.96	-0.405	-0.0405	0	207	440	3
2026-02-12	16:15:53.630	9.17	-29.715	-39.095	0.0915	0.72468	0.411628	0.9855	-0.3915	-0.009	0	207	440	3
2026-02-12	16:15:53.650	24.185	-34.51	-33.425	0.103944	0.774212	0.447252	0.99	-0.396	-0.0195	0	207	440	3
2026-02-12	16:15:53.670	36.225	-36.085	-30.695	0.077592	0.830088	0.502152	0.99	-0.4005	-0.006	0	207	440	3
2026-02-12	16:15:53.690	34.265	-36.365	-30.765	0.094184	0.854732	0.510936	0.957	-0.4005	0.027	0	207	440	3
2026-02-12	16:15:53.710	11.62	-34.965	-33.74	0.08662	0.845948	0.493368	0.933	-0.411	0.027	0	207	440	3
2026-02-12	16:15:53.730	-7.805	-32.235	-35.28	0.10248	0.807884	0.444568	0.9285	-0.4035	0.036	0	207	440	3
2026-02-12	16:15:53.750	-6.86	-31.08	-33.425	0.126392	0.880596	0.426512	0.924	-0.393	0.03	0	207	440	3
2026-02-12	16:15:53.770	3.43	-29.295	-28.665	0.13054	0.947696	0.40504	0.9315	-0.3825	0.0285	0	207	440	3
2026-02-12	16:15:53.790	8.365	-28.07	-23.765	0.145912	0.996008	0.49776	0.909	-0.378	0.0285	0	207	440	3
2026-02-12	16:15:53.810	9.03	-21.595	-18.48	0.101748	1.047492	0.488732	0.9075	-0.3615	0.0375	0	204	462	3
2026-02-12	16:15:53.830	7.07	-20.3	-9.695	0.105896	1.053592	0.427244	0.906	-0.3465	0.048	0	204	462	3
2026-02-12	16:15:53.850	11.515	-22.995	0.805	0.120536	1.099952	0.485804	0.915	-0.3555	0.054	0	204	462	3
2026-02-12	16:15:53.870	14.035	-17.85	8.925	0.093452	1.135088	0.462136	0.9	-0.3435	0.0585	0	204	462	3
2026-02-12	16:15:53.890	8.19	-10.92	14.56	0.043676	1.147044	0.435296	0.915	-0.3585	0.063	0	204	462	3
2026-02-12	16:15:53.910	2.94	-3.605	15.365	0.023424	1.203164	0.465552	0.906	-0.363	0.0495	0	204	462	3
2026-02-12	16:15:53.930	2.38	6.3	11.445	0.029768	1.199504	0.469456	0.885	-0.363	0.0525	0	204	462	3
2026-02-12	16:15:53.950	6.3	13.93	7.875	0.003172	1.171444	0.505568	0.9	-0.369	0.054	0	204	462	3
2026-02-12	16:15:53.970	2.94	16.87	1.47	-0.02318	1.196332	0.533384	0.903	-0.375	0.045	0	204	462	3
2026-02-12	16:15:53.990	-9.205	21.07	-7.175	0.019276	1.041148	0.4026	0.9135	-0.396	0.0015	0	204	462	3
2026-02-12	16:15:54.010	-9.73	26.95	-5.215	-0.01952	0.920856	0.460184	0.927	-0.408	-0.045	0	200	473	3
2026-02-12	16:15:54.030	4.13	29.155	3.5	-0.082716	0.900116	0.463112	0.939	-0.4065	-0.0855	0	200	473	3
2026-02-12	16:15:54.050	5.95	28.315	7.595	-0.08906	0.749324	0.474092	0.945	-0.4005	-0.0975	0	200	473	3
2026-02-12	16:15:54.070	5.705	23.45	17.605	-0.117364	0.759572	0.499468	0.9465	-0.405	-0.1035	0	200	473	3
2026-02-12	16:15:54.090	0.98	20.055	26.285	-0.115412	0.773968	0.500444	0.942	-0.3945	-0.108	0	200	473	3
2026-02-12	16:15:54.110	3.185	21.56	33.005	-0.098332	0.812276	0.450912	0.9405	-0.387	-0.114	0	200	473	3
2026-02-12	16:15:54.130	13.65	25.095	35.595	-0.055632	0.867908	0.4575	0.951	-0.387	-0.1095	0	200	473	3
2026-02-12	16:15:54.150	8.225	31.535	32.83	-0.050996	0.883768	0.459452	0.9375	-0.3885	-0.0915	0	200	473	3
2026-02-12	16:15:54.170	3.99	32.62	30.275	0.01098	0.871324	0.41236	0.9315	-0.396	-0.0705	0	200	473	3
2026-02-12	16:15:54.190	5.985	30.415	28	0.027816	0.86498	0.371856	0.9315	-0.3975	-0.066	0	200	473	3
2026-02-12	16:15:54.210	11.62	27.23	24.325	0.070516	0.857416	0.390888	0.9165	-0.4035	-0.069	0	196	475	3
2026-02-12	16:15:54.230	16.415	27.195	20.685	0.09516	0.81862	0.381372	0.9225	-0.411	-0.048	0	196	475	3
2026-02-12	16:15:54.250	13.09	26.25	18.9	0.120536	0.7747	0.332328	0.9195	-0.411	-0.0285	0	196	475	3
2026-02-12	16:15:54.270	11.48	20.615	20.16	0.12566	0.759816	0.36356	0.8985	-0.429	-0.009	0	196	475	3
2026-02-12	16:15:54.290	11.655	16.275	19.25	0.147864	0.822524	0.420412	0.897	-0.429	0.0045	0	196	475	3
2026-02-12	16:15:54.310	2.695	16.625	14.455	0.193248	0.792512	0.426024	0.897	-0.429	0.0045	0	196	475	3
2026-02-12	16:15:54.330	-8.75	22.68	9.975	0.227164	0.842044	0.400648	0.897	-0.429	0.0045	0	196	475	3
2026-02-12	16:15:54.350	-18.935	28	6.23	0.207644	0.845948	0.293532	0.891	-0.4395	0.024	0	196	475	3
2026-02-12	16:15:54.370	-17.15	24.115	3.605	0.251808	0.859124	0.305488	0.8865	-0.4455	0.0405	0	196	475	3
2026-02-12	16:15:54.390	-7.875	17.92	3.605	0.264984	0.912072	0.434076	0.891	-0.438	0.0405	0	196	475	3
2026-02-12	16:15:54.410	-7.56	20.44	1.295	0.250344	0.907192	0.409432	0.8865	-0.438	0.0345	0	193	466	3
2026-02-12	16:15:54.430	-17.395	14.7	0.105	0.284748	0.911584	0.326228	0.8835	-0.4425	0.012	0	193	466	3
2026-02-12	16:15:54.450	-12.145	2.38	3.675	0.270108	0.905972	0.26474	0.897	-0.444	-0.003	0	193	466	3
2026-02-12	16:15:54.470	3.465	-14.385	8.54	0.305488	0.91866	0.379176	0.8895	-0.4425	0	0	193	466	3
2026-02-12	16:15:54.490	15.33	-20.965	12.88	0.274012	0.94306	0.482632	0.8835	-0.435	0.0285	0	193	466	3
2026-02-12	16:15:54.510	15.89	-20.755	14.28	0.232044	0.989176	0.550708	0.8895	-0.429	0.054	0	193	466	3
2026-02-12	16:15:54.530	10.92	-17.64	11.97	0.194712	1.055056	0.502396	0.8895	-0.429	0.054	0	193	466	3
2026-02-12	16:15:54.550	0.665	-21.07	7.385	0.236192	1.048224	0.508984	0.8445	-0.438	0.114	0	193	466	3
2026-02-12	16:15:54.570	-4.585	-23.03	2.52	0.269376	1.055544	0.506544	0.8445	-0.438	0.114	0	193	466	3
2026-02-12	16:15:54.590	-8.435	-24.57	1.645	0.301096	0.999668	0.433832	0.8355	-0.429	0.1575	0	193	466	3
2026-02-12	16:15:54.610	-8.225	-30.065	3.57	0.267668	1.031876	0.530456	0.8325	-0.426	0.1515	0	190	455	3
2026-02-12	16:15:54.630	-4.83	-33.25	1.54	0.227164	1.007232	0.61488	0.8265	-0.4215	0.1785	0	190	455	3
2026-02-12	16:15:54.650	-8.33	-32.795	-4.27	0.15738	1.083848	0.790804	0.8175	-0.4245	0.192	0	190	455	3
2026-02-12	16:15:54.670	-30.065	-21.56	-17.465	0.077836	1.001132	0.758352	0.801	-0.4395	0.1995	0	190	455	3
2026-02-12	16:15:54.690	-47.705	-17.045	-25.62	-0.008052	0.925004	0.593652	0.807	-0.432	0.183	0	190	455	3
2026-02-12	16:15:54.710	-50.785	-26.11	-31.08	-0.001464	0.909632	0.543144	0.8175	-0.438	0.1485	0	190	455	3
2026-02-12	16:15:54.730	-46.375	-38.255	-33.95	0.013664	0.821304	0.582672	0.8445	-0.4395	0.114	0	190	455	3
2026-02-12	16:15:54.750	-41.86	-45.465	-32.445	0.01342	0.739564	0.542412	0.843	-0.435	0.0735	0	190	455	3
2026-02-12	16:15:54.770	-44.485	-52.535	-28.07	-0.010004	0.713212	0.578036	0.855	-0.423	0.033	0	190	455	3
2026-02-12	16:15:54.790	-44.275	-56.21	-25.69	-0.033916	0.724924	0.59048	0.873	-0.4185	0.018	0	190	455	3
2026-02-12	16:15:54.810	-37.065	-56.98	-24.71	-0.013176	0.674416	0.50752	0.873	-0.42	-0.003	0	189	465	3
2026-02-12	16:15:54.830	-14.63	-55.58	-21.105	0.000244	0.75884	0.64782	0.873	-0.4065	-0.0195	0	189	465	3
2026-02-12	16:15:54.850	0.77	-42.42	-22.505	-0.011224	0.765916	0.65758	0.876	-0.4065	0	0	189	465	3
2026-02-12	16:15:54.870	3.57	-29.225	-26.74	-0.005612	0.795684	0.673928	0.87	-0.4035	0.015	0	189	465	3
2026-02-12	16:15:54.890	-9.59	-19.6	-30.485	0.017568	0.76982	0.575108	0.87	-0.399	0.018	0	189	465	3
2026-02-12	16:15:54.910	-16.94	-16.1	-29.435	0.016836	0.77592	0.494832	0.873	-0.405	0.0165	0	189	465	3
2026-02-12	16:15:54.930	-11.515	-16.87	-27.37	0.061488	0.80764	0.51972	0.8715	-0.4095	0	0	189	465	3
2026-02-12	16:15:54.950	-4.06	-13.965	-26.25	0.072224	0.83082	0.497516	0.888	-0.4125	-0.0105	0	189	465	3
2026-02-12	16:15:54.970	-4.935	-12.11	-25.27	0.079544	0.85522	0.502152	0.8985	-0.414	-0.006	0	189	465	3
2026-02-12	16:15:54.990	-9.975	-9.275	-24.99	0.089548	0.813984	0.482388	0.894	-0.4035	0.006	0	189	465	3
2026-02-12	16:15:55.010	-5.215	-9.835	-21.63	0.116876	0.791536	0.461404	0.894	-0.4095	0.003	0	188	489	3
2026-02-12	16:15:55.030	0.245	-4.725	-18.025	0.084912	0.82228	0.499956	0.8805	-0.4185	-0.0075	0	188	489	3
2026-02-12	16:15:55.050	-2.87	1.47	-17.115	0.087596	0.8052	0.44896	0.888	-0.411	0.0015	0	188	489	3
2026-02-12	16:15:55.070	-3.57	0.49	-12.985	0.103456	0.828624	0.491172	0.9015	-0.4095	-0.0015	0	188	489	3
2026-02-12	16:15:55.090	5.145	3.92	-8.785	0.131516	0.859612	0.481168	0.903	-0.4005	-0.0075	0	188	489	3
2026-02-12	16:15:55.110	10.5	10.325	-4.55	0.153476	0.944524	0.545828	0.885	-0.4065	-0.009	0	188	489	3
2026-02-12	16:15:55.130	9.17	15.4	-2.765	0.243756	0.925004	0.46482	0.924	-0.387	0.024	0	188	489	3
2026-02-12	16:15:55.150	15.26	10.29	1.47	0.081984	1.005524	0.457012	0.906	-0.393	0.0105	0	188	489	3
2026-02-12	16:15:55.170	31.325	3.64	5.18	0.072468	1.082872	0.684908	0.897	-0.3945	0.039	0	188	489	3
2026-02-12	16:15:55.190	33.985	13.37	2.59	0.074664	1.05896	0.737368	0.8595	-0.3795	0.0615	0	188	489	3
2026-02-12	16:15:55.210	19.88	24.045	5.25	0.079544	1.003816	0.663192	0.8475	-0.36	0.093	0	186	508	3
2026-02-12	16:15:55.230	13.825	27.055	12.32	0.088816	0.992348	0.555588	0.8385	-0.3525	0.093	0	186	508	3
2026-02-12	16:15:55.250	27.475	22.26	18.375	0.128344	0.988688	0.594384	0.84	-0.3405	0.0945	0	186	508	3
2026-02-12	16:15:55.270	42.77	25.69	24.885	0.129808	1.002596	0.664168	0.84	-0.3465	0.099	0	186	508	3
2026-02-12	16:15:55.290	42.035	36.96	28.14	0.114436	1.041392	0.594628	0.8385	-0.354	0.129	0	186	508	3
2026-02-12	16:15:55.310	21.14	40.25	26.985	0.106628	1.017968	0.5246	0.816	-0.3735	0.1215	0	186	508	3
2026-02-12	16:15:55.330	6.93	35.35	24.605	0.104188	0.940132	0.563152	0.8295	-0.375	0.141	0	186	508	3
2026-02-12	16:15:55.350	7.42	33.915	25.935	0.060512	0.883768	0.58194	0.8475	-0.39	0.1395	0	186	508	3
2026-02-12	16:15:55.370	8.435	33.32	27.65	0.024888	0.91378	0.671976	0.852	-0.4035	0.138	0	186	508	3
2026-02-12	16:15:55.390	-1.225	36.855	24.15	-0.006832	0.827404	0.574864	0.8655	-0.4095	0.129	0	186	508	3
2026-02-12	16:15:55.410	-10.045	29.785	23.73	-0.022204	0.743956	0.543144	0.852	-0.423	0.114	0	183	526	3
2026-02-12	16:15:55.430	-10.885	20.86	27.79	-0.005856	0.67588	0.487024	0.852	-0.426	0.1095	0	183	526	3
2026-02-12	16:15:55.450	-6.335	14.105	33.25	0.001952	0.720288	0.50508	0.84	-0.42	0.114	0	183	526	3
2026-02-12	16:15:55.470	-4.795	13.685	34.405	-0.01098	0.738832	0.481656	0.8415	-0.4185	0.1185	0	183	526	3
2026-02-12	16:15:55.490	-3.29	15.435	32.025	0.000244	0.76982	0.496296	0.8415	-0.4215	0.1365	0	183	526	3
2026-02-12	16:15:55.510	4.235	19.635	27.055	0.010736	0.781044	0.44896	0.8415	-0.4215	0.1365	0	183	526	3
2026-02-12	16:15:55.530	12.53	23.415	20.51	0.041968	0.845216	0.45506	0.8415	-0.4215	0.1365	0	183	526	3
2026-02-12	16:15:55.550	13.125	27.685	11.69	0.098332	0.836676	0.417484	0.828	-0.4185	0.1575	0	183	526	3
2026-02-12	16:15:55.570	12.53	27.86	5.11	0.124196	0.815448	0.430904	0.8145	-0.42	0.1845	0	183	526	3
2026-02-12	16:15:55.590	18.515	26.705	2.415	0.142252	0.810324	0.402112	0.8145	-0.426	0.1905	0	183	526	3
2026-02-12	16:15:55.610	21.14	20.65	-0.525	0.146888	0.836676	0.415776	0.8145	-0.426	0.1905	0	179	534	3
2026-02-12	16:15:55.630	19.67	16.485	-4.13	0.179828	0.808372	0.393328	0.825	-0.4185	0.2205	0	179	534	3
2026-02-12	16:15:55.650	16.555	12.04	-5.495	0.159088	0.831308	0.443836	0.825	-0.4185	0.2205	0	179	534	3
2026-02-12	16:15:55.670	14.07	13.79	-8.855	0.092476	0.875228	0.450424	0.8235	-0.414	0.264	0	179	534	3
2026-02-12	16:15:55.690	5.25	11.9	-14.665	0.093208	0.915	0.44164	0.8325	-0.42	0.282	0	179	534	3
2026-02-12	16:15:55.710	-6.58	14.28	-21.735	0.143228	0.905728	0.458476	0.822	-0.4305	0.2835	0	179	534	3
2026-02-12	16:15:55.730	-9.45	23.485	-25.06	0.1281	0.840092	0.343796	0.807	-0.42	0.2565	0	179	534	3
2026-02-12	16:15:55.750	1.295	23.17	-21.63	0.13054	0.926224	0.362584	0.8175	-0.432	0.2505	0	179	534	3
2026-02-12	16:15:55.770	-0.385	22.645	-20.685	0.197884	0.902556	0.411384	0.84	-0.4305	0.258	0	179	534	3
2026-02-12	16:15:55.790	-0.525	24.85	-15.47	0.20252	0.8784	0.354532	0.8415	-0.435	0.2535	0	179	534	3
2026-02-12	16:15:55.810	3.78	20.23	-5.215	0.227896	0.922808	0.409676	0.843	-0.423	0.246	0	174	524	3
2026-02-12	16:15:55.830	12.46	16.59	2.205	0.215452	0.942328	0.465064	0.8475	-0.4245	0.2625	0	174	524	3
2026-02-12	16:15:55.850	16.975	10.535	7.595	0.177632	0.958188	0.432856	0.843	-0.438	0.252	0	174	524	3
2026-02-12	16:15:55.870	16.205	-3.71	11.55	0.1769	0.978196	0.53558	0.8595	-0.4305	0.2535	0	174	524	3
2026-02-12	16:15:55.890	21.525	-9.52	11.48	0.158356	0.995276	0.634644	0.843	-0.4305	0.2865	0	174	524	3
2026-02-12	16:15:55.910	18.235	-11.865	9.94	0.139568	0.99064	0.596336	0.819	-0.423	0.3015	0	174	524	3
2026-02-12	16:15:55.930	4.095	-17.955	10.395	0.158356	0.986492	0.57462	0.8115	-0.4125	0.309	0	174	524	3
2026-02-12	16:15:55.950	-2.275	-16.1	9.17	0.15006	0.993324	0.579744	0.792	-0.4095	0.3075	0	174	524	3
2026-02-12	16:15:55.970	4.97	-9.1	7.49	0.128344	1.006744	0.538996	0.8025	-0.411	0.3045	0	174	524	3
2026-02-12	16:15:55.990	5.565	-11.235	5.04	0.086132	1.01992	0.59902	0.795	-0.4035	0.3075	0	174	524	3
2026-02-12	16:15:56.010	-0.665	-14.805	0.98	0.07442	0.980148	0.649772	0.789	-0.4095	0.3075	0	169	511	3
2026-02-12	16:15:56.030	-9.135	-14.21	-3.92	0.01464	0.942572	0.573644	0.771	-0.4095	0.324	0	169	511	3
2026-02-12	16:15:56.050	-18.55	-11.935	-10.815	-0.015616	0.933056	0.599264	0.7905	-0.402	0.3195	0	169	511	3
2026-02-12	16:15:56.070	-25.725	-7.14	-19.32	0.020496	0.919148	0.471408	0.7995	-0.405	0.306	0	169	511	3
2026-02-12	16:15:56.090	-33.635	-8.575	-23.765	0.0305	0.784704	0.27938	0.798	-0.411	0.273	0	169	511	3
2026-02-12	16:15:56.110	-27.895	-23.94	-18.445	0.017812	0.802516	0.353068	0.8055	-0.4215	0.2385	0	169	511	3
2026-02-12	16:15:56.130	-22.085	-39.76	-14.595	-0.000732	0.827648	0.553148	0.834	-0.4275	0.225	0	169	511	3
2026-02-12	16:15:56.150	-13.615	-36.96	-14.14	0.000488	0.818132	0.547536	0.8445	-0.4245	0.2355	0	169	511	3
2026-02-12	16:15:56.170	-19.705	-32.48	-15.4	-0.015372	0.832772	0.580476	0.8385	-0.4305	0.2055	0	169	511	3
2026-02-12	16:15:56.190	-22.33	-25.2	-19.74	-0.026596	0.828136	0.598288	0.843	-0.42	0.2025	0	169	511	3
2026-02-12	16:15:56.210	-10.325	-17.57	-23.765	-0.04758	0.850584	0.570228	0.8415	-0.426	0.1995	0	164	510	3
2026-02-12	16:15:56.230	-6.09	-16.66	-28.945	-0.035624	0.846924	0.537288	0.8505	-0.4245	0.1905	0	164	510	3
2026-02-12	16:15:56.250	-4.865	-16.555	-33.705	-0.000976	0.859368	0.54656	0.8505	-0.4155	0.189	0	164	510	3
2026-02-12	16:15:56.270	-6.65	-15.96	-37.45	0.03904	0.80276	0.497516	0.864	-0.4185	0.1815	0	164	510	3
2026-02-12	16:15:56.290	4.585	-19.25	-33.6	0.065148	0.81984	0.436028	0.867	-0.42	0.162	0	164	510	3
2026-02-12	16:15:56.310	9.45	-29.085	-28.28	0.070516	0.847168	0.522648	0.8775	-0.4275	0.159	0	164	510	3
2026-02-12	16:15:56.330	13.475	-33.67	-25.515	0.050264	0.862784	0.558028	0.8715	-0.4305	0.1695	0	164	510	3
2026-02-12	16:15:56.350	12.18	-29.925	-25.2	0.052948	0.829844	0.45872	0.873	-0.423	0.1815	0	164	510	3
2026-02-12	16:15:56.370	10.605	-31.29	-22.785	0.048556	0.82716	0.420656	0.891	-0.4125	0.198	0	164	510	3
2026-02-12	16:15:56.390	15.645	-34.825	-20.58	0.044652	0.8418	0.496052	0.879	-0.4275	0.1815	0	164	510	3
2026-02-12	16:15:56.410	21.945	-30.835	-19.425	0.05368	0.862052	0.533628	0.87	-0.4095	0.192	0	160	513	3
2026-02-12	16:15:56.430	21.175	-25.445	-16.31	0.055388	0.889868	0.587796	0.8685	-0.411	0.201	0	160	513	3
2026-02-12	16:15:56.450	15.435	-18.34	-12.215	0.06344	0.91744	0.58316	0.8655	-0.405	0.207	0	160	513	3
2026-02-12	16:15:56.470	15.82	-11.62	-6.335	0.0732	0.946964	0.445056	0.861	-0.4095	0.2115	0	160	513	3
2026-02-12	16:15:56.490	15.225	-15.82	1.54	0.060512	0.998692	0.59658	0.8625	-0.4035	0.2025	0	160	513	3
2026-02-12	16:15:56.510	18.725	-6.65	6.72	0.028792	1.010404	0.605852	0.8625	-0.402	0.2025	0	160	513	3
2026-02-12	16:15:56.530	17.64	0.42	12.565	0.014884	1.009184	0.486536	0.8655	-0.399	0.2025	0	160	513	3
2026-02-12	16:15:56.550	12.005	-4.865	17.64	0.00732	1.024556	0.570472	0.8625	-0.4035	0.192	0	160	513	3
2026-02-12	16:15:56.570	15.54	0.035	19.88	-0.003904	1.033096	0.5734	0.867	-0.405	0.1875	0	160	513	3
2026-02-12	16:15:56.590	15.295	7.175	19.565	0.00122	1.037	0.545828	0.858	-0.4095	0.1995	0	160	513	3
2026-02-12	16:15:56.610	13.79	14.665	16.73	-0.020496	1.114836	0.586088	0.864	-0.4095	0.1935	0	155	519	3
2026-02-12	16:15:56.630	7.525	24.955	6.51	-0.039772	1.086044	0.537044	0.867	-0.411	0.1965	0	155	519	3
2026-02-12	16:15:56.650	-1.155	24.605	-0.525	-0.045384	1.042368	0.441884	0.8685	-0.4305	0.1845	0	155	519	3
2026-02-12	16:15:56.670	-6.02	12.775	0.175	0.001708	0.926712	0.39162	0.8685	-0.4305	0.1845	0	155	519	3
2026-02-12	16:15:56.690	5.075	-0.945	6.09	-0.07076	0.961848	0.50264	0.8685	-0.4305	0.1845	0	155	519	3
2026-02-12	16:15:56.710	11.97	-2.905	7.84	-0.05978	0.89548	0.485072	0.8685	-0.4305	0.1845	0	155	519	3
2026-02-12	16:15:56.730	16.625	-8.05	11.165	-0.07198	0.847412	0.443348	0.8685	-0.4305	0.1845	0	155	519	3
2026-02-12	16:15:56.750	8.995	-13.93	13.685	-0.098332	0.845704	0.478484	0.8655	-0.4485	0.1695	0	155	519	3
2026-02-12	16:15:56.770	5.53	-8.995	12.39	-0.117852	0.84668	0.409676	0.8595	-0.444	0.189	0	155	519	3
2026-02-12	16:15:56.790	6.615	-3.745	9.625	-0.116876	0.876204	0.390644	0.8475	-0.441	0.1785	0	155	519	3
2026-02-12	16:15:56.810	7.84	2.485	6.3	-0.105652	0.903288	0.382348	0.858	-0.441	0.1935	0	150	520	3
2026-02-12	16:15:56.830	6.86	7.84	6.58	-0.062708	0.826184	0.3233	0.852	-0.447	0.192	0	150	520	3
2026-02-12	16:15:56.850	11.585	8.75	10.5	-0.041968	0.919392	0.320372	0.861	-0.453	0.1935	0	150	520	3
2026-02-12	16:15:56.870	18.515	8.155	10.43	-0.027328	0.978196	0.3477	0.867	-0.468	0.2145	0	150	520	3
2026-02-12	16:15:56.890	18.48	9.695	5.81	0.019276	0.926956	0.308904	0.87	-0.4665	0.2265	0	150	520	3
2026-02-12	16:15:56.910	8.54	8.61	3.955	0.036112	0.869128	0.311344	0.861	-0.4725	0.2295	0	150	520	3
2026-02-12	16:15:56.930	-0.21	7.315	5.915	0.058316	0.859124	0.385032	0.8535	-0.4725	0.24	0	150	520	3
2026-02-12	16:15:56.950	-2.345	13.51	7	0.077104	0.84302	0.397232	0.846	-0.471	0.2535	0	150	520	3
2026-02-12	16:15:56.970	-5.005	17.255	10.78	0.093208	0.791292	0.306952	0.8535	-0.468	0.246	0	150	520	3
2026-02-12	16:15:56.990	-5.53	14.77	17.22	0.096136	0.854488	0.368196	0.846	-0.474	0.2445	0	150	520	3
2026-02-12	16:15:57.010	-0.56	17.885	19.81	0.132248	0.828136	0.350628	0.861	-0.4815	0.252	0	147	502	3
2026-02-12	16:15:57.030	-0.49	19.81	22.365	0.141276	0.861564	0.356484	0.873	-0.48	0.27	0	147	502	3
2026-02-12	16:15:57.050	-2.555	23.17	21.245	0.137128	0.848876	0.286456	0.8685	-0.4815	0.2895	0	147	502	3
2026-02-12	16:15:57.070	-2.485	20.86	20.58	0.14884	0.84302	0.250832	0.864	-0.4965	0.2835	0	147	502	3
2026-02-12	16:15:57.090	-3.43	12.635	21.98	0.173972	0.891332	0.342332	0.867	-0.5055	0.2895	0	147	502	3
2026-02-12	16:15:57.110	-2.94	13.02	22.54	0.192516	0.92476	0.351116	0.855	-0.504	0.3	0	147	502	3
2026-02-12	16:15:57.130	-6.895	13.195	23.8	0.185684	0.95892	0.353068	0.867	-0.5025	0.3165	0	147	502	3
2026-02-12	16:15:57.150	-8.26	10.535	23.73	0.207888	0.971608	0.344528	0.858	-0.5055	0.309	0	147	502	3
2026-02-12	16:15:57.170	-3.955	7.735	23.065	0.226188	1.014796	0.416264	0.8505	-0.5025	0.315	0	147	502	3
2026-02-12	16:15:57.190	-5.985	10.395	20.195	0.22692	1.023092	0.51118	0.8535	-0.4995	0.3195	0	147	502	3
2026-02-12	16:15:57.210	-14.035	17.08	17.395	0.216428	0.976732	0.445788	0.8355	-0.504	0.3195	0	146	473	3
2026-02-12	16:15:57.230	-21.7	12.285	18.62	0.207644	0.976732	0.498736	0.846	-0.507	0.312	0	146	473	3
2026-02-12	16:15:57.250	-19.53	9.275	20.09	0.215696	0.964776	0.498248	0.852	-0.5145	0.3045	0	146	473	3
2026-02-12	16:15:57.270	-14.035	6.195	20.58	0.186172	1.015284	0.514108	0.8445	-0.5085	0.291	0	146	473	3
2026-02-12	16:15:57.290	-15.96	3.92	17.885	0.166652	1.051396	0.606096	0.84	-0.522	0.2955	0	146	473	3
2026-02-12	16:15:57.310	-11.305	10.185	12.355	0.15006	1.067744	0.541192	0.834	-0.5175	0.294	0	146	473	3
2026-02-12	16:15:57.330	-12.145	8.015	5.285	0.133956	1.069452	0.66246	0.8445	-0.5085	0.2745	0	146	473	3
2026-02-12	16:15:57.350	-12.46	12.39	-2.87	0.098088	0.995276	0.581208	0.831	-0.51	0.276	0	146	473	3
2026-02-12	16:15:57.370	-12.845	12.04	-6.51	0.09467199	0.974536	0.504836	0.8505	-0.498	0.2715	0	146	473	3
2026-02-12	16:15:57.390	-21.315	0.56	-8.61	0.095892	0.930128	0.586576	0.8475	-0.5025	0.2595	0	146	473	3
2026-02-12	16:15:57.410	-15.26	-2.1	-8.645	0.09882	0.86742	0.39406	0.8535	-0.5055	0.255	0	146	459	3
2026-02-12	16:15:57.430	-13.755	-23.065	-3.01	0.109068	0.816912	0.422608	0.8475	-0.51	0.2385	0	146	459	3
2026-02-12	16:15:57.450	-12.425	-36.435	1.4	0.07905599	0.792756	0.551684	0.8535	-0.5085	0.228	0	146	459	3
2026-02-12	16:15:57.470	-8.995	-29.365	-1.365	0.03782	0.812276	0.589748	0.8535	-0.504	0.2355	0	146	459	3
2026-02-12	16:15:57.490	-24.92	-23.59	-10.22	0.044164	0.840092	0.66368	0.846	-0.5115	0.2295	0	146	459	3
2026-02-12	16:15:57.510	-50.19	-10.745	-26.355	0.039528	0.807396	0.932324	0.8445	-0.498	0.219	0	146	459	3
2026-02-12	16:15:57.530	-60.55	15.96	-41.125	0.000976	0.745908	0.562176	0.8445	-0.492	0.1845	0	146	459	3
2026-02-12	16:15:57.550	-56.665	5.215	-44.52	0.066368	0.631228	0.465552	0.8775	-0.4995	0.12	0	146	459	3
2026-02-12	16:15:57.570	-27.72	-9.345	-40.425	0.07124799	0.687348	0.542412	0.912	-0.498	0.063	0	146	459	3
2026-02-12	16:15:57.590	-1.26	-17.535	-41.93	0.066856	0.724192	0.446764	0.927	-0.4965	0.0285	0	146	459	3
2026-02-12	16:15:57.610	12.775	-33.215	-41.405	0.091012	0.72834	0.481656	0.921	-0.495	0.0165	0	147	471	3
2026-02-12	16:15:57.630	23.52	-47.495	-38.43	0.088328	0.803004	0.534604	0.9525	-0.4875	0.042	0	147	471	3
2026-02-12	16:15:57.650	31.465	-48.405	-40.95	0.085644	0.818864	0.50874	0.9285	-0.4995	0.045	0	147	471	3
2026-02-12	16:15:57.670	31.29	-47.95	-42.595	0.111752	0.81496	0.46482	0.936	-0.5115	0.072	0	147	471	3
2026-02-12	16:15:57.690	30.8	-45.22	-40.775	0.122244	0.825696	0.437248	0.933	-0.5055	0.0885	0	147	471	3
2026-02-12	16:15:57.710	29.19	-43.015	-40.81	0.138104	0.818132	0.469212	0.915	-0.5115	0.0975	0	147	471	3
2026-02-12	16:15:57.730	28.315	-39.62	-40.74	0.159088	0.865956	0.525576	0.909	-0.5055	0.1125	0	147	471	3
2026-02-12	16:15:57.750	20.055	-35.98	-40.53	0.145912	0.902556	0.583648	0.9045	-0.498	0.132	0	147	471	3
2026-02-12	16:15:57.770	14	-30.38	-40.67	0.158112	0.915976	0.654652	0.9045	-0.4965	0.1365	0	147	471	3
2026-02-12	16:15:57.790	9.1	-21.63	-37.345	0.115656	0.9089	0.522404	0.9015	-0.4875	0.1395	0	147	471	3
2026-02-12	16:15:57.810	6.37	-20.615	-27.685	0.132492	1.004304	0.484584	0.9015	-0.4845	0.138	0	149	489	3
2026-02-12	16:15:57.830	9.065	-21.63	-18.41	0.140056	1.02114	0.505568	0.909	-0.483	0.129	0	149	489	3
2026-02-12	16:15:57.850	7.035	-18.76	-8.4	0.124928	1.0736	0.594628	0.9135	-0.477	0.114	0	149	489	3
2026-02-12	16:15:57.870	-5.985	-11.97	1.54	0.072712	1.035048	0.534116	0.915	-0.4785	0.1035	0	149	489	3
2026-02-12	16:15:57.890	-10.71	-12.425	14.91	0.067588	1.078724	0.495564	0.915	-0.4785	0.1035	0	149	489	3
2026-02-12	16:15:57.910	-6.86	-12.495	22.575	0.048312	1.118984	0.56242	0.915	-0.4785	0.1035	0	149	489	3
2026-02-12	16:15:57.930	2.24	-3.99	24.64	0.00244	1.118496	0.59536	0.891	-0.45	0.0495	0	149	489	3
2026-02-12	16:15:57.950	4.97	5.075	22.085	-0.021228	1.088728	0.508496	0.8925	-0.453	0.048	0	149	489	3
2026-02-12	16:15:57.970	9.1	5.565	18.235	-0.047336	1.087996	0.593896	0.8835	-0.4545	0.0405	0	149	489	3
2026-02-12	16:15:57.990	14.245	13.09	10.675	-0.087352	1.056764	0.594384	0.888	-0.471	0.0495	0	149	489	3
2026-02-12	16:15:58.010	12.04	15.89	3.885	-0.08174	1.003816	0.505324	0.9015	-0.4635	0.03	0	151	506	3
2026-02-12	16:15:58.030	9.975	14.595	0.735	-0.069052	0.935496	0.488488	0.897	-0.4755	0.021	0	151	506	3
2026-02-12	16:15:58.050	19.25	15.05	2.975	-0.07564	0.865712	0.526552	0.909	-0.4725	0.015	0	151	506	3
2026-02-12	16:15:58.070	27.37	14.875	9.695	-0.110776	0.841312	0.52216	0.9045	-0.474	0.0075	0	151	506	3
2026-02-12	16:15:58.090	27.895	7.665	18.48	-0.128832	0.802028	0.4575	0.888	-0.4725	0.0225	0	151	506	3
2026-02-12	16:15:58.110	23.59	-0.595	26.145	-0.125172	0.791048	0.476776	0.885	-0.474	0.033	0	151	506	3
2026-02-12	16:15:58.130	23.345	0.28	31.15	-0.105652	0.779336	0.438956	0.882	-0.4545	0.0615	0	151	506	3
2026-02-12	16:15:58.150	21.595	4.725	37.345	-0.058804	0.82106	0.409676	0.873	-0.459	0.0705	0	151	506	3
2026-02-12	16:15:58.170	24.78	16.695	39.9	-0.05246	0.832528	0.396744	0.855	-0.4605	0.099	0	151	506	3
2026-02-12	16:15:58.190	26.075	28.7	41.3	-0.047824	0.877668	0.441884	0.837	-0.468	0.12	0	151	506	3
2026-02-12	16:15:58.210	24.185	41.23	39.305	0.011224	0.897432	0.357704	0.849	-0.4725	0.1395	0	153	514	3
2026-02-12	16:15:58.230	12.81	44.905	35.315	0.048068	0.870104	0.372588	0.8415	-0.4725	0.1575	0	153	514	3
2026-02-12	16:15:58.250	5.18	47.705	33.04	0.079788	0.840336	0.3294	0.828	-0.48	0.165	0	153	514	3
2026-02-12	16:15:58.270	5.845	47.95	32.06	0.109068	0.828868	0.28914	0.822	-0.4815	0.162	0	153	514	3
2026-02-12	16:15:58.290	3.99	42.245	32.305	0.122488	0.828624	0.307928	0.8175	-0.489	0.168	0	153	514	3
2026-02-12	16:15:58.310	3.115	38.395	33.635	0.161528	0.850584	0.35136	0.8265	-0.4935	0.18	0	153	514	3
2026-02-12	16:15:58.330	-0.595	39.795	31.535	0.189344	0.838628	0.351604	0.822	-0.489	0.1995	0	153	514	3
2026-02-12	16:15:58.350	-6.93	41.825	29.54	0.201056	0.883036	0.36966	0.8265	-0.4995	0.2115	0	153	514	3
2026-02-12	16:15:58.370	-13.685	43.855	25.445	0.209596	1.027484	0.508496	0.8325	-0.495	0.216	0	153	514	3
2026-02-12	16:15:58.390	-13.65	57.785	16.17	0.260592	0.871568	0.303292	0.8355	-0.4905	0.2205	0	153	514	3
2026-02-12	16:15:58.410	-13.09	50.505	22.26	0.362828	0.828624	0.270352	0.8385	-0.4995	0.1905	0	155	499	3
2026-02-12	16:15:58.430	1.995	39.585	35.105	0.354288	0.885476	0.351116	0.852	-0.498	0.1935	0	155	499	3
2026-02-12	16:15:58.450	23.94	30.415	43.785	0.317932	0.92598	0.314516	0.864	-0.504	0.21	0	155	499	3
2026-02-12	16:15:58.470	24.535	12.845	47.39	0.293288	0.94794	0.483608	0.846	-0.501	0.2325	0	155	499	3
2026-02-12	16:15:58.490	16.59	7.49	46.795	0.29768	0.928176	0.51484	0.8295	-0.495	0.279	0	155	499	3
2026-02-12	16:15:58.510	10.885	7.14	43.75	0.279136	0.930372	0.507764	0.813	-0.492	0.306	0	155	499	3
2026-02-12	16:15:58.530	13.825	6.335	37.135	0.241804	0.972096	0.531432	0.798	-0.477	0.3075	0	155	499	3
2026-02-12	16:15:58.550	12.285	4.095	25.795	0.25742	0.933544	0.548756	0.7965	-0.48	0.3345	0	155	499	3
2026-02-12	16:15:58.570	-1.295	-0.28	19.74	0.288408	0.928908	0.450424	0.78	-0.483	0.339	0	155	499	3
2026-02-12	16:15:58.590	-5.005	-3.535	15.225	0.295484	0.950136	0.45872	0.7935	-0.471	0.327	0	155	499	3
2026-02-12	16:15:58.610	1.75	0.77	6.44	0.28792	0.985272	0.547292	0.774	-0.48	0.333	0	158	480	3
2026-02-12	16:15:58.630	4.69	9.1	-3.85	0.235704	0.992104	0.560468	0.7725	-0.4815	0.3315	0	158	480	3
2026-02-12	16:15:58.650	-3.64	11.375	-12.355	0.219844	1.00772	0.545096	0.7905	-0.4725	0.3285	0	158	480	3
2026-02-12	16:15:58.670	-13.195	12.67	-21.175	0.176412	1.0248	0.63074	0.804	-0.48	0.3345	0	158	480	3
2026-02-12	16:15:58.690	-19.985	14.14	-29.085	0.103456	0.916952	0.52582	0.7935	-0.483	0.315	0	158	480	3
2026-02-12	16:15:58.710	-27.65	2.905	-28.385	0.097356	0.939644	0.47702	0.8055	-0.5025	0.288	0	158	480	3
2026-02-12	16:15:58.730	-31.01	-7.56	-29.68	0.111508	0.852536	0.418948	0.831	-0.5055	0.261	0	158	480	3
2026-02-12	16:15:58.750	-24.465	-15.68	-28.315	0.101016	0.779336	0.460428	0.8445	-0.5205	0.219	0	158	480	3
2026-02-12	16:15:58.770	-15.12	-17.99	-22.96	0.048556	0.790316	0.546316	0.855	-0.5235	0.195	0	158	480	3
2026-02-12	16:15:58.790	-11.445	-16.94	-18.655	0.018788	0.801052	0.559248	0.8655	-0.519	0.1755	0	158	480	3
2026-02-12	16:15:58.810	-10.745	-14.805	-17.885	0.030012	0.810568	0.575352	0.8685	-0.522	0.183	0	161	475	3
2026-02-12	16:15:58.830	-7.42	-9.835	-18.83	0.042456	0.799344	0.585112	0.873	-0.525	0.1905	0	161	475	3
2026-02-12	16:15:58.850	0.84	-3.535	-20.195	0.043432	0.82472	0.637084	0.8715	-0.5205	0.1845	0	161	475	3
2026-02-12	16:15:58.870	-1.365	3.115	-22.61	0.041968	0.806664	0.54046	0.8745	-0.5115	0.18	0	161	475	3
2026-02-12	16:15:58.890	-4.76	0.525	-22.68	0.07808	0.817888	0.52094	0.8865	-0.5085	0.1725	0	161	475	3
2026-02-12	16:15:58.910	-4.025	-3.36	-22.47	0.101504	0.793732	0.425536	0.9105	-0.51	0.1725	0	161	475	3
2026-02-12	16:15:58.930	4.585	-9.87	-21.42	0.101016	0.847656	0.43188	0.912	-0.51	0.171	0	161	475	3
2026-02-12	16:15:58.950	5.495	-15.33	-22.75	0.110532	0.892796	0.491172	0.8895	-0.5115	0.1635	0	161	475	3
2026-02-12	16:15:58.970	-1.4	-15.05	-24.045	0.13298	0.830088	0.4392	0.8895	-0.5145	0.1605	0	161	475	3
2026-02-12	16:15:58.990	5.11	-15.96	-19.985	0.148352	0.858148	0.442128	0.897	-0.519	0.15	0	161	475	3
2026-02-12	16:15:59.010	18.34	-13.265	-17.01	0.131028	0.846192	0.423828	0.903	-0.519	0.153	0	163	483	3
2026-02-12	16:15:59.030	23.555	-12.6	-14.63	0.146156	0.853268	0.490684	0.906	-0.5145	0.1575	0	163	483	3
2026-02-12	16:15:59.050	18.06	-6.65	-13.265	0.130052	0.830088	0.47946	0.906	-0.5145	0.1575	0	163	483	3
2026-02-12	16:15:59.070	10.57	-2.065	-8.995	0.144204	0.859612	0.443592	0.906	-0.5145	0.1575	0	163	483	3
2026-02-12	16:15:59.090	15.12	1.785	-2.345	0.161528	0.916952	0.442616	0.8925	-0.5025	0.195	0	163	483	3
2026-02-12	16:15:59.110	24.255	5.18	4.41	0.177876	0.946476	0.464332	0.894	-0.498	0.1935	0	163	483	3
2026-02-12	16:15:59.130	26.74	7.14	9.24	0.142008	0.966484	0.526308	0.8955	-0.5055	0.1995	0	163	483	3
2026-02-12	16:15:59.150	21.14	7.945	13.72	0.135664	0.936228	0.564128	0.8835	-0.5025	0.2025	0	163	483	3
2026-02-12	16:15:59.170	15.61	12.74	18.62	0.106872	0.984784	0.557784	0.8835	-0.4935	0.2025	0	163	483	3
2026-02-12	16:15:59.190	11.095	19.46	19.705	0.068076	1.009672	0.394548	0.8775	-0.48	0.1995	0	163	483	3
2026-02-12	16:15:59.210	11.235	14.21	17.955	0.08686399	1.02968	0.447008	0.876	-0.4995	0.1875	0	161	489	3
2026-02-12	16:15:59.230	17.64	15.085	14.98	0.106384	1.12972	0.56364	0.9	-0.489	0.1845	0	161	489	3
2026-02-12	16:15:59.250	18.795	25.025	8.645	0.113948	1.131916	0.527528	0.885	-0.507	0.201	0	161	489	3
2026-02-12	16:15:59.270	12.495	26.6	4.48	0.100772	1.11264	0.445788	0.891	-0.5175	0.1965	0	161	489	3
2026-02-12	16:15:59.290	7.07	18.69	2.975	0.140788	1.02358	0.319396	0.8985	-0.5175	0.1755	0	161	489	3
2026-02-12	16:15:59.310	12.67	8.225	5.95	0.11834	1.029192	0.490928	0.8895	-0.5205	0.1635	0	161	489	3
2026-02-12	16:15:59.330	14.84	11.62	5.425	0.066612	0.975756	0.509716	0.8865	-0.507	0.171	0	161	489	3
2026-02-12	16:15:59.350	9.87	19.845	5.425	0.016104	0.936716	0.422852	0.8955	-0.5235	0.168	0	161	489	3
2026-02-12	16:15:59.370	3.955	15.715	8.4	-0.010004	0.867176	0.360876	0.906	-0.5205	0.174	0	161	489	3
2026-02-12	16:15:59.390	9.87	5.985	14.42	-0.030012	0.842288	0.42334	0.8865	-0.5235	0.168	0	161	489	3
2026-02-12	16:15:59.410	13.79	4.2	20.3	-0.027084	0.881084	0.478484	0.864	-0.5175	0.168	0	158	490	3
2026-02-12	16:15:59.430	1.575	8.12	21.595	-0.002196	0.881084	0.4819	0.8715	-0.5175	0.1845	0	158	490	3
2026-02-12	16:15:59.450	-14.945	16.975	20.02	-0.013664	0.865224	0.426756	0.8775	-0.5115	0.189	0	158	490	3
2026-02-12	16:15:59.470	-17.64	26.915	16.52	0.00976	0.8845	0.37454	0.8655	-0.51	0.1785	0	158	490	3
2026-02-12	16:15:59.490	-16.87	27.23	14.805	0.03172	0.904996	0.381616	0.873	-0.516	0.1635	0	158	490	3
2026-02-12	16:15:59.510	-20.3	27.965	12.67	0.09028	0.882792	0.432368	0.8685	-0.51	0.159	0	158	490	3
2026-02-12	16:15:59.530	-22.75	33.635	9.52	0.086132	0.869616	0.469944	0.8805	-0.516	0.1545	0	158	490	3
2026-02-12	16:15:59.550	-25.9	40.145	5.11	0.09076799	0.828136	0.472384	0.8805	-0.5235	0.1485	0	158	490	3
2026-02-12	16:15:59.570	-29.225	42.35	5.04	0.116144	0.766648	0.329156	0.9	-0.5265	0.126	0	158	490	3
2026-02-12	16:15:59.590	-30.555	34.37	10.64	0.20008	0.799344	0.500444	0.915	-0.534	0.102	0	158	490	3
2026-02-12	16:15:59.610	-27.93	48.755	13.825	0.161528	0.706136	0.387716	0.918	-0.5385	0.1065	0	155	483	3
2026-02-12	16:15:59.630	-27.265	44.87	15.995	0.110532	0.693936	0.32818	0.936	-0.537	0.081	0	155	483	3
2026-02-12	16:15:59.650	-20.86	27.3	18.83	0.141764	0.757376	0.374052	0.9585	-0.5385	0.081	0	155	483	3
2026-02-12	16:15:59.670	-10.115	12.53	17.465	0.209108	0.772992	0.467016	0.96	-0.549	0.084	0	155	483	3
2026-02-12	16:15:59.690	-2.73	12.46	11.48	0.224724	0.799344	0.475068	0.969	-0.5565	0.087	0	155	483	3
2026-02-12	16:15:59.710	-3.29	9.87	11.41	0.22204	0.843752	0.4758	0.948	-0.573	0.111	0	155	483	3
2026-02-12	16:15:59.730	-5.145	3.255	10.395	0.232044	0.89548	0.45628	0.954	-0.5625	0.1245	0	155	483	3
2026-02-12	16:15:59.750	-2.73	-1.05	7.21	0.26108	0.883524	0.494344	0.9495	-0.5595	0.126	0	155	483	3
2026-02-12	16:15:59.770	-3.99	-0.245	4.9	0.295484	0.936716	0.508496	0.933	-0.5505	0.1395	0	155	483	3
2026-02-12	16:15:59.790	-7.175	0.84	5.74	0.276696	0.896212	0.360388	0.9165	-0.5445	0.1425	0	155	483	3
2026-02-12	16:15:59.810	3.99	-9.24	11.76	0.242536	0.953308	0.47702	0.93	-0.549	0.135	0	152	473	3
2026-02-12	16:15:59.830	21.35	-13.615	11.97	0.252052	0.996984	0.556564	0.9195	-0.549	0.1335	0	152	473	3
2026-02-12	16:15:59.850	27.475	-14.84	7.735	0.213988	1.048712	0.547292	0.903	-0.564	0.1575	0	152	473	3
2026-02-12	16:15:59.870	15.365	-18.06	0.98	0.202032	1.037976	0.566812	0.9045	-0.555	0.186	0	152	473	3
2026-02-12	16:15:59.890	9.345	-17.29	-5.53	0.227896	1.098732	0.631472	0.8925	-0.5475	0.1935	0	152	473	3
2026-02-12	16:15:59.910	8.68	-13.37	-11.69	0.187636	1.065792	0.515328	0.8805	-0.5415	0.201	0	152	473	3
2026-02-12	16:15:59.930	8.575	-17.15	-15.015	0.225456	1.04798	0.52704	0.8775	-0.5415	0.201	0	152	473	3
2026-02-12	16:15:59.950	8.4	-24.535	-16.415	0.214964	1.013332	0.588284	0.8655	-0.54	0.204	0	152	473	3
2026-02-12	16:15:59.970	10.01	-27.23	-14.84	0.198128	0.990152	0.579012	0.8595	-0.537	0.2175	0	152	473	3
2026-02-12	16:15:59.990	5.95	-31.255	-12.495	0.179584	1.037488	0.676612	0.8475	-0.5325	0.2235	0	152	473	3
2026-02-12	16:16:00.010	-11.06	-27.37	-14.42	0.125904	0.928176	0.622444	0.834	-0.5265	0.2235	0	150	476	3
2026-02-12	16:16:00.030	-23.31	-28.455	-13.23	0.07564	0.904264	0.505324	0.8385	-0.5235	0.222	0	150	476	3
2026-02-12	16:16:00.050	-18.305	-39.095	-9.835	0.088816	0.797392	0.38674	0.846	-0.525	0.2115	0	150	476	3
2026-02-12	16:16:00.070	-2.205	-54.46	-3.78	0.095892	0.821304	0.61244	0.843	-0.528	0.201	0	150	476	3
2026-02-12	16:16:00.090	3.675	-47.915	-3.605	0.086132	0.768356	0.580476	0.8415	-0.5205	0.204	0	150	476	3
2026-02-12	16:16:00.110	-5.81	-41.405	-4.55	0.08686399	0.793244	0.629764	0.8385	-0.5085	0.2205	0	150	476	3
2026-02-12	16:16:00.130	-13.72	-29.995	-8.89	0.069784	0.748592	0.55998	0.8415	-0.495	0.234	0	150	476	3
2026-02-12	16:16:00.150	-5.53	-25.025	-11.06	0.074664	0.731756	0.564128	0.837	-0.498	0.228	0	150	476	3
2026-02-12	16:16:00.170	1.995	-19.775	-13.72	0.055876	0.780312	0.5917	0.8235	-0.5085	0.222	0	150	476	3
2026-02-12	16:16:00.190	0.875	-10.5	-20.125	0.055632	0.764696	0.440176	0.8235	-0.504	0.2205	0	150	476	3
2026-02-12	16:16:00.210	-5.285	-14.245	-24.71	0.094916	0.7503	0.420656	0.828	-0.501	0.2175	0	150	491	3
2026-02-12	16:16:00.230	4.62	-15.12	-26.775	0.117608	0.729804	0.371368	0.828	-0.501	0.2175	0	150	491	3
2026-02-12	16:16:00.250	14.56	-20.195	-25.62	0.119316	0.813008	0.506056	0.828	-0.501	0.2175	0	150	491	3
2026-02-12	16:16:00.270	13.965	-15.155	-29.05	0.135908	0.798856	0.47946	0.861	-0.525	0.216	0	150	491	3
2026-02-12	16:16:00.290	5.705	-12.46	-29.155	0.172264	0.778604	0.493124	0.858	-0.5295	0.2055	0	150	491	3
2026-02-12	16:16:00.310	2.38	-6.265	-26.005	0.122	0.772992	0.511424	0.8745	-0.5355	0.207	0	150	491	3
2026-02-12	16:16:00.330	10.64	-1.085	-23.765	0.126636	0.82716	0.420656	0.9045	-0.5535	0.204	0	150	491	3
2026-02-12	16:16:00.350	8.33	-5.25	-18.97	0.12444	0.845704	0.461648	0.9255	-0.5625	0.195	0	150	491	3
2026-02-12	16:16:00.370	8.05	-3.92	-16.87	0.159332	0.908168	0.442616	0.939	-0.582	0.1995	0	150	491	3
2026-02-12	16:16:00.390	0.875	-6.58	-17.605	0.15128	0.930372	0.513132	0.9495	-0.594	0.1935	0	150	491	3
2026-02-12	16:16:00.410	6.37	-1.54	-18.27	0.140056	0.993324	0.526552	0.939	-0.6105	0.1905	0	149	502	3
2026-02-12	16:16:00.430	6.23	1.19	-20.475	0.13542	0.994544	0.569984	0.954	-0.612	0.186	0	149	502	3
2026-02-12	16:16:00.450	3.78	4.2	-19.635	0.110532	1.011136	0.55266	0.945	-0.5955	0.1845	0	149	502	3
2026-02-12	16:16:00.470	3.045	6.685	-16.94	0.11224	1.012356	0.434808	0.9495	-0.606	0.174	0	149	502	3
2026-02-12	16:16:00.490	-1.4	-2.975	-13.3	0.104188	1.061644	0.596824	0.957	-0.6075	0.1515	0	149	502	3
2026-02-12	16:16:00.510	-4.585	1.575	-12.495	0.150304	1.016016	0.640012	0.96	-0.6045	0.159	0	149	502	3
2026-02-12	16:16:00.530	-12.11	13.44	-6.86	0.108336	1.036512	0.606828	0.9525	-0.5895	0.1425	0	149	502	3
2026-02-12	16:16:00.550	-6.79	18.235	3.885	0.037576	0.978684	0.5063	0.972	-0.5955	0.1125	0	149	502	3
2026-02-12	16:16:00.570	3.465	9.625	13.825	0.085156	1.080432	0.57096	0.9855	-0.606	0.0975	0	149	502	3
2026-02-12	16:16:00.590	11.025	12.04	15.575	0.10492	1.015528	0.433832	0.981	-0.618	0.0885	0	149	502	3
2026-02-12	16:16:00.610	3.71	4.375	22.085	0.077592	1.0187	0.56974	0.969	-0.6345	0.0645	0	149	510	3
2026-02-12	16:16:00.630	-0.315	9.135	26.075	-0.010736	0.985272	0.571448	0.9825	-0.63	0.075	0	149	510	3
2026-02-12	16:16:00.650	6.405	12.18	27.405	-0.057096	0.924028	0.446032	0.9765	-0.6345	0.0705	0	149	510	3
2026-02-12	16:16:00.670	4.515	-0.875	29.19	-0.044408	0.8784	0.54534	0.96	-0.6405	0.0765	0	149	510	3
2026-02-12	16:16:00.690	0.665	-0.91	29.505	-0.068564	0.801296	0.53314	0.954	-0.6255	0.09	0	149	510	3
2026-02-12	16:16:00.710	-1.82	2.45	30.59	-0.071492	0.833504	0.42456	0.942	-0.615	0.093	0	149	510	3
2026-02-12	16:16:00.730	-4.725	-2.345	27.545	-0.05856	0.807152	0.435296	0.9345	-0.621	0.099	0	149	510	3
2026-02-12	16:16:00.750	6.055	0.945	25.445	-0.05124	0.816424	0.426268	0.942	-0.6105	0.1095	0	149	510	3
2026-02-12	16:16:00.770	17.08	3.465	23.415	-0.015128	0.86132	0.384056	0.9285	-0.624	0.1215	0	149	510	3
2026-02-12	16:16:00.790	22.645	3.43	17.325	0.009272	0.932324	0.436272	0.921	-0.63	0.147	0	149	510	3
2026-02-12	16:16:00.810	22.96	8.575	4.83	0.059048	0.880108	0.427244	0.906	-0.6195	0.18	0	149	513	3
2026-02-12	16:16:00.830	12.355	12.39	-2.975	0.10492	0.856684	0.441396	0.9015	-0.618	0.1935	0	149	513	3
2026-02-12	16:16:00.850	1.89	19.46	-6.16	0.121024	0.816912	0.40504	0.912	-0.6105	0.204	0	149	513	3
2026-02-12	16:16:00.870	2.31	23.45	-5.25	0.1281	0.79056	0.232044	0.9165	-0.6105	0.2115	0	149	513	3
2026-02-12	16:16:00.890	4.55	7.455	-0.49	0.14762	0.825208	0.311588	0.9315	-0.6165	0.207	0	149	513	3
2026-02-12	16:16:00.910	5.39	-2.345	3.64	0.169092	0.806908	0.447496	0.9195	-0.6165	0.204	0	149	513	3
2026-02-12	16:16:00.930	9.8	3.815	9.065	0.214232	0.825696	0.398208	0.903	-0.609	0.2175	0	149	513	3
2026-02-12	16:16:00.950	-3.395	2.59	14.56	0.211792	0.896212	0.470188	0.903	-0.609	0.2175	0	149	513	3
2026-02-12	16:16:00.970	-4.515	10.675	15.365	0.228628	0.939156	0.339404	0.8925	-0.6015	0.231	0	149	513	3
2026-02-12	16:16:00.990	-3.92	9.66	15.225	0.234484	0.935496	0.2989	0.8835	-0.5955	0.2445	0	149	513	3
2026-02-12	16:16:01.010	-7.28	2.345	15.575	0.282552	0.957456	0.340136	0.8775	-0.5985	0.255	0	149	500	3
2026-02-12	16:16:01.030	-4.34	3.115	14.14	0.284748	0.970388	0.385276	0.873	-0.5985	0.2715	0	149	500	3
2026-02-12	16:16:01.050	2.905	7.7	12.25	0.304024	0.949404	0.2806	0.873	-0.5985	0.273	0	149	500	3
2026-02-12	16:16:01.070	5.6	1.61	11.235	0.318176	0.941596	0.330132	0.879	-0.6	0.276	0	149	500	3
2026-02-12	16:16:01.090	10.535	2.345	9.625	0.305	0.953064	0.400648	0.873	-0.594	0.279	0	149	500	3
2026-02-12	16:16:01.110	17.29	5.46	7.245	0.294752	0.94916	0.402844	0.864	-0.594	0.2775	0	149	500	3
2026-02-12	16:16:01.130	11.27	-2.065	5.635	0.250588	0.9577	0.553636	0.8685	-0.5955	0.288	0	149	500	3
2026-02-12	16:16:01.150	15.89	0.07	2.59	0.207644	1.00162	0.487512	0.867	-0.591	0.3045	0	149	500	3
2026-02-12	16:16:01.170	13.86	-7.105	-2.555	0.213988	1.050664	0.513132	0.8595	-0.5835	0.3105	0	149	500	3
2026-02-12	16:16:01.190	-1.4	-14.21	-10.325	0.22082	0.98332	0.663192	0.858	-0.5775	0.3135	0	149	500	3
2026-02-12	16:16:01.210	-2.695	-4.34	-11.585	0.205692	0.938912	0.531188	0.858	-0.57	0.3195	0	150	480	3
2026-02-12	16:16:01.230	-3.99	-9.065	-8.085	0.178852	0.983076	0.4392	0.855	-0.5685	0.3135	0	150	480	3
2026-02-12	16:16:01.250	-1.435	-20.02	-9.52	0.187636	1.012112	0.480192	0.8475	-0.573	0.3045	0	150	480	3
2026-02-12	16:16:01.270	-4.025	-24.57	-14.035	0.191052	0.956724	0.5612	0.8415	-0.5715	0.306	0	150	480	3
2026-02-12	16:16:01.290	-19.46	-21.595	-15.925	0.10492	0.96136	0.72468	0.843	-0.558	0.3135	0	150	480	3
2026-02-12	16:16:01.310	-30.87	-4.865	-23.1	0.019032	0.993568	0.579256	0.8445	-0.555	0.315	0	150	480	3
2026-02-12	16:16:01.330	-50.505	-5.845	-36.505	-0.027084	0.95282	0.380884	0.849	-0.5655	0.2955	0	150	480	3
2026-02-12	16:16:01.350	-53.9	-20.93	-46.795	0.009272	0.804956	0.245952	0.864	-0.5745	0.2475	0	150	480	3
2026-02-12	16:16:01.370	-43.995	-45.36	-45.36	0.020496	0.532896	0.496296	0.882	-0.573	0.201	0	150	480	3
2026-02-12	16:16:01.390	-20.335	-45.85	-28.84	-0.000732	0.762744	0.658556	0.8925	-0.567	0.1845	0	150	480	3
2026-02-12	16:16:01.410	-1.155	-30.1	-28.805	0.012688	0.732	0.533872	0.8925	-0.567	0.1845	0	152	474	3
2026-02-12	16:16:01.430	-10.15	-30.345	-26.285	-0.001708	0.813252	0.657336	0.8925	-0.567	0.1845	0	152	474	3
2026-02-12	16:16:01.450	-7.7	-18.515	-29.855	-0.022692	0.834724	0.584868	0.8655	-0.513	0.198	0	152	474	3
2026-02-12	16:16:01.470	0.875	-13.055	-32.305	-0.005612	0.81008	0.482144	0.8715	-0.516	0.183	0	152	474	3
2026-02-12	16:16:01.490	-1.75	-16.275	-32.375	-0.010004	0.84302	0.578524	0.876	-0.522	0.1875	0	152	474	3
2026-02-12	16:16:01.510	1.54	-10.325	-33.11	-0.029768	0.833992	0.519964	0.87	-0.51	0.1935	0	152	474	3
2026-02-12	16:16:01.530	-5.915	-15.295	-32.165	-0.023668	0.862052	0.456036	0.8775	-0.522	0.189	0	152	474	3
2026-02-12	16:16:01.550	-13.615	-26.74	-32.445	-0.015128	0.86498	0.511912	0.897	-0.528	0.171	0	152	474	3
2026-02-12	16:16:01.570	-5.53	-26.6	-33.74	0.03172	0.818864	0.480436	0.8955	-0.519	0.1785	0	152	474	3
2026-02-12	16:16:01.590	2.03	-28	-29.19	0.07905599	0.79178	0.44652	0.9015	-0.5085	0.174	0	152	474	3
2026-02-12	16:16:01.610	10.325	-28.735	-21.455	0.112728	0.84058	0.453596	0.879	-0.5145	0.1905	0	154	482	3
2026-02-12	16:16:01.630	14.385	-24.57	-17.745	0.135908	0.84912	0.45994	0.8925	-0.5025	0.207	0	154	482	3
2026-02-12	16:16:01.650	14.63	-15.26	-13.545	0.143716	0.86864	0.388204	0.8805	-0.4875	0.2025	0	154	482	3
2026-02-12	16:16:01.670	12.005	-13.72	-7.595	0.152744	0.914268	0.40992	0.876	-0.5025	0.204	0	154	482	3
2026-02-12	16:16:01.690	16.415	-10.15	-3.535	0.164212	0.982832	0.481656	0.8895	-0.4965	0.21	0	154	482	3
2026-02-12	16:16:01.710	17.115	-1.785	-1.05	0.147376	0.994788	0.52216	0.855	-0.483	0.234	0	154	482	3
2026-02-12	16:16:01.730	16.38	9.73	1.855	0.125416	1.016504	0.473116	0.864	-0.4785	0.234	0	154	482	3
2026-02-12	16:16:01.750	14.875	11.515	5.39	0.111508	1.039928	0.41358	0.864	-0.4935	0.2325	0	154	482	3
2026-02-12	16:16:01.770	19.18	6.615	8.015	0.083204	1.068964	0.49776	0.864	-0.4995	0.2205	0	154	482	3
2026-02-12	16:16:01.790	21.49	9.73	9.52	0.073444	1.11996	0.58438	0.8595	-0.4905	0.2295	0	154	482	3
2026-02-12	16:16:01.810	15.085	15.96	8.12	0.050508	1.109224	0.527528	0.864	-0.5025	0.237	0	156	488	3
2026-02-12	16:16:01.830	10.29	18.795	7.875	0.050996	1.10532	0.485804	0.861	-0.504	0.2355	0	156	488	3
2026-02-12	16:16:01.850	11.97	15.89	9.205	0.059292	1.190476	0.484096	0.8745	-0.507	0.225	0	156	488	3
2026-02-12	16:16:01.870	16.835	18.06	5.845	0.0793	1.118252	0.525576	0.891	-0.5055	0.2415	0	156	488	3
2026-02-12	16:16:01.890	16.555	25.69	6.965	0.063928	1.148752	0.4819	0.8895	-0.5115	0.24	0	156	488	3
2026-02-12	16:16:01.910	11.97	27.65	6.685	0.034648	1.048712	0.42212	0.8805	-0.5325	0.2355	0	156	488	3
2026-02-12	16:16:01.930	14.035	18.935	11.095	0.009028	0.913292	0.448716	0.8985	-0.528	0.231	0	156	488	3
2026-02-12	16:16:01.950	19.81	8.89	20.405	-0.021716	0.84058	0.494588	0.897	-0.5265	0.24	0	156	488	3
2026-02-12	16:16:01.970	19.845	5.075	28.035	-0.019764	0.814472	0.624152	0.8685	-0.528	0.246	0	156	488	3
2026-02-12	16:16:01.990	10.255	8.995	31.605	-0.056852	0.785192	0.610244	0.8655	-0.519	0.246	0	156	488	3
2026-02-12	16:16:02.010	-2.52	13.86	32.55	-0.091012	0.730536	0.547292	0.8655	-0.519	0.246	0	157	493	3
2026-02-12	16:16:02.030	1.19	14.035	34.37	-0.091256	0.7015	0.430904	0.8625	-0.5175	0.2445	0	157	493	3
2026-02-12	16:16:02.050	7.035	12.845	35.945	-0.069784	0.779824	0.478484	0.861	-0.5175	0.243	0	157	493	3
2026-02-12	16:16:02.070	11.34	8.82	33.425	-0.062708	0.782264	0.4758	0.8595	-0.516	0.2385	0	157	493	3
2026-02-12	16:16:02.090	14.63	13.685	29.015	-0.019764	0.796172	0.433588	0.852	-0.516	0.243	0	157	493	3
2026-02-12	16:16:02.110	11.97	13.51	24.745	0.022692	0.81984	0.361852	0.843	-0.516	0.2565	0	157	493	3
2026-02-12	16:16:02.130	11.655	10.185	20.51	0.081984	0.811056	0.36234	0.8445	-0.516	0.27	0	157	493	3
2026-02-12	16:16:02.150	9.24	11.41	17.15	0.116876	0.871568	0.423096	0.8445	-0.522	0.288	0	157	493	3
2026-02-12	16:16:02.170	1.68	20.44	10.71	0.12688	0.88206	0.427976	0.8445	-0.522	0.3045	0	157	493	3
2026-02-12	16:16:02.190	-5.425	29.19	4.655	0.153964	0.842288	0.293288	0.8475	-0.528	0.312	0	157	493	3
2026-02-12	16:16:02.210	-11.515	24.535	3.045	0.181536	0.798612	0.29768	0.846	-0.5415	0.309	0	159	491	3
2026-02-12	16:16:02.230	-7.42	24.745	5.145	0.18056	0.843264	0.32452	0.855	-0.54	0.2985	0	159	491	3
2026-02-12	16:16:02.250	-9.8	23.94	7.035	0.192272	0.815448	0.375272	0.858	-0.537	0.2925	0	159	491	3
2026-02-12	16:16:02.270	-15.82	28.245	16.205	0.201788	0.79544	0.335012	0.8625	-0.543	0.297	0	159	491	3
2026-02-12	16:16:02.290	-8.155	31.01	28.21	0.224724	0.940864	0.26108	0.876	-0.552	0.297	0	159	491	3
2026-02-12	16:16:02.310	2.135	24.92	28.14	0.238144	1.04554	0.245464	0.888	-0.564	0.309	0	159	491	3
2026-02-12	16:16:02.330	-3.57	10.5	18.305	0.238144	1.086532	0.389912	0.897	-0.573	0.3315	0	159	491	3
2026-02-12	16:16:02.350	-9.415	10.255	6.16	0.270596	0.953552	0.40992	0.891	-0.5745	0.3465	0	159	491	3
2026-02-12	16:16:02.370	-9.03	13.265	6.825	0.26352	0.897676	0.359412	0.891	-0.564	0.348	0	159	491	3
2026-02-12	16:16:02.390	-8.155	5.6	14.315	0.227652	0.957944	0.462624	0.8955	-0.552	0.336	0	159	491	3
2026-02-12	16:16:02.410	7.49	5.53	16.205	0.188612	0.967948	0.49288	0.885	-0.5595	0.3315	0	161	475	3
2026-02-12	16:16:02.430	9.135	2.87	16.695	0.176656	1.031388	0.509228	0.8745	-0.561	0.3375	0	161	475	3
2026-02-12	16:16:02.450	-2.905	-2.87	13.055	0.172264	1.002108	0.566568	0.873	-0.558	0.333	0	161	475	3
2026-02-12	16:16:02.470	-1.19	0.525	11.025	0.174704	1.037	0.443348	0.879	-0.561	0.33	0	161	475	3
2026-02-12	16:16:02.490	1.435	-7.21	8.225	0.226432	0.977464	0.445544	0.8865	-0.5655	0.333	0	161	475	3
2026-02-12	16:16:02.510	7.805	-9.765	8.085	0.260592	0.959652	0.590968	0.885	-0.5655	0.327	0	161	475	3
2026-02-12	16:16:02.530	9.17	5.285	7.98	0.22326	1.02724	0.58804	0.8775	-0.5685	0.333	0	161	475	3
2026-02-12	16:16:02.550	-6.09	11.69	2.135	0.140056	1.042856	0.591944	0.876	-0.5655	0.3465	0	161	475	3
2026-02-12	16:16:02.570	-24.465	10.465	-7.245	0.104188	0.976976	0.615124	0.882	-0.564	0.357	0	161	475	3
2026-02-12	16:16:02.590	-31.43	3.185	-11.97	0.062708	0.884256	0.564372	0.8865	-0.57	0.3615	0	161	475	3
2026-02-12	16:16:02.610	-27.37	-4.025	-10.08	0.045872	0.82594	0.452132	0.8865	-0.57	0.3615	0	163	465	3
2026-02-12	16:16:02.630	-29.365	-20.195	-7.14	0.027572	0.833504	0.472628	0.8865	-0.57	0.3615	0	163	465	3
2026-02-12	16:16:02.650	-38.01	-28.28	-8.225	0.024644	0.798124	0.571692	0.8925	-0.5805	0.324	0	163	465	3
2026-02-12	16:16:02.670	-40.985	-23.03	-8.995	0.023912	0.76616	0.51728	0.8955	-0.579	0.3015	0	163	465	3
2026-02-12	16:16:02.690	-40.425	-24.745	-7.14	0.00244	0.780312	0.601704	0.894	-0.576	0.2985	0	163	465	3
2026-02-12	16:16:02.710	-24.78	-19.53	-7.595	0.018544	0.795196	0.609268	0.8985	-0.564	0.3075	0	163	465	3
2026-02-12	16:16:02.730	-10.535	-9.52	-11.025	0.052216	0.773724	0.571692	0.894	-0.558	0.3	0	163	465	3
2026-02-12	16:16:02.750	-9.625	-5.565	-14.035	0.040016	0.788364	0.58804	0.8925	-0.564	0.2925	0	163	465	3
2026-02-12	16:16:02.770	-7.98	5.075	-18.55	0.058072	0.753716	0.479704	0.8895	-0.561	0.2985	0	163	465	3
2026-02-12	16:16:02.790	-5.88	4.13	-19.74	0.03782	0.748348	0.443836	0.9075	-0.561	0.2745	0	163	465	3
2026-02-12	16:16:02.810	-1.54	-1.575	-19.32	0.037332	0.767868	0.48922	0.9495	-0.5535	0.2865	0	164	474	3
2026-02-12	16:16:02.830	15.155	-3.255	-19.46	0.077592	0.803248	0.476044	0.9315	-0.564	0.2805	0	164	474	3
2026-02-12	16:16:02.850	16.835	-8.05	-19.425	0.084668	0.810812	0.508984	0.933	-0.5655	0.297	0	164	474	3
2026-02-12	16:16:02.870	13.475	-4.515	-20.405	0.083448	0.808372	0.635132	0.9465	-0.5445	0.303	0	164	474	3
2026-02-12	16:16:02.890	7.84	7.98	-20.825	0.096868	0.80886	0.465064	0.96	-0.546	0.3165	0	164	474	3
2026-02-12	16:16:02.910	7.14	4.13	-17.29	0.122244	0.847412	0.376736	0.987	-0.5445	0.3045	0	164	474	3
2026-02-12	16:16:02.930	8.785	-8.19	-14.665	0.136884	0.886208	0.5002	0.981	-0.564	0.291	0	164	474	3
2026-02-12	16:16:02.950	17.99	-5.74	-10.85	0.179096	0.863516	0.546072	0.966	-0.549	0.294	0	164	474	3
2026-02-12	16:16:02.970	23.38	2.555	-2.905	0.177388	1.02236	0.497028	0.96	-0.5355	0.297	0	164	474	3
2026-02-12	16:16:02.990	20.265	2.205	-3.92	0.196908	1.062864	0.5002	0.9795	-0.534	0.318	0	164	474	3
2026-02-12	16:16:03.010	30.38	4.13	-5.565	0.199104	1.023336	0.535824	0.951	-0.5355	0.3165	0	165	487	3
2026-02-12	16:16:03.030	42.91	6.615	0.21	0.195444	1.105808	0.532408	0.9435	-0.5385	0.3225	0	165	487	3
2026-02-12	16:16:03.050	26.705	6.545	4.725	0.172752	1.193648	0.703696	0.972	-0.513	0.3465	0	165	487	3
2026-02-12	16:16:03.070	15.54	19.495	1.365	0.157868	1.247816	0.553636	0.954	-0.519	0.3345	0	165	487	3
2026-02-12	16:16:03.090	0.315	16.24	-0.21	0.204716	1.147532	0.361852	0.954	-0.519	0.3345	0	165	487	3
2026-02-12	16:16:03.110	-6.58	-1.365	7.77	0.193004	1.087508	0.524112	0.978	-0.5445	0.312	0	165	487	3
2026-02-12	16:16:03.130	1.33	-2.415	13.58	0.177632	1.068232	0.543144	1.0035	-0.5715	0.2895	0	165	487	3
2026-02-12	16:16:03.150	22.435	1.225	26.425	0.121512	1.15046	0.51606	0.9915	-0.5745	0.2685	0	165	487	3
2026-02-12	16:16:03.170	12.215	-3.78	30.73	0.075396	1.056032	0.594628	0.9705	-0.588	0.255	0	165	487	3
2026-02-12	16:16:03.190	5.81	2.17	33.11	-0.000732	1.0065	0.607804	0.9795	-0.591	0.276	0	165	487	3
2026-02-12	16:16:03.210	4.62	10.08	32.585	-0.098332	0.832772	0.553148	0.9975	-0.582	0.2805	0	165	501	3
2026-02-12	16:16:03.230	11.935	10.5	36.925	-0.109312	0.785436	0.467504	1.002	-0.5805	0.2685	0	165	501	3
2026-02-12	16:16:03.250	3.99	0.84	36.855	-0.08686399	0.704428	0.612928	0.993	-0.585	0.2655	0	165	501	3
2026-02-12	16:16:03.270	3.745	7.735	37.415	-0.088816	0.684176	0.49776	0.9705	-0.5805	0.267	0	165	501	3
2026-02-12	16:16:03.290	1.54	13.825	38.255	-0.109068	0.662216	0.414068	0.9645	-0.5745	0.267	0	165	501	3
2026-02-12	16:16:03.310	7.91	12.005	37.485	-0.091256	0.73444	0.434808	0.954	-0.5715	0.2655	0	165	501	3
2026-02-12	16:16:03.330	18.97	14.07	32.55	-0.037088	0.69052	0.399916	0.942	-0.5655	0.2595	0	165	501	3
2026-02-12	16:16:03.350	24.08	16.135	29.05	0.018056	0.71492	0.42578	0.939	-0.5595	0.2625	0	165	501	3
2026-02-12	16:16:03.370	22.12	22.89	24.885	0.074908	0.77836	0.424072	0.936	-0.5475	0.2835	0	165	501	3
2026-02-12	16:16:03.390	17.08	29.365	17.5	0.132736	0.820084	0.473116	0.93	-0.543	0.3	0	165	501	3
2026-02-12	16:16:03.410	7.105	37.275	9.45	0.160308	0.821792	0.445788	0.93	-0.552	0.3165	0	167	508	3
2026-02-12	16:16:03.430	5.25	41.195	4.235	0.2013	0.876936	0.355996	0.936	-0.564	0.333	0	167	508	3
2026-02-12	16:16:03.450	2.94	35.595	-1.225	0.255224	0.843752	0.396744	0.9405	-0.5715	0.339	0	167	508	3
2026-02-12	16:16:03.470	-2.765	30.59	-1.82	0.266204	0.819352	0.46238	0.9525	-0.5775	0.3405	0	167	508	3
2026-02-12	16:16:03.490	-10.78	32.06	1.015	0.267912	0.854244	0.375516	0.93	-0.594	0.336	0	167	508	3
2026-02-12	16:16:03.510	-21.875	24.675	3.08	0.27328	0.809592	0.27816	0.9045	-0.6	0.3255	0	167	508	3
2026-02-12	16:16:03.530	-25.305	11.725	6.79	0.304512	0.820084	0.234972	0.9075	-0.5955	0.327	0	167	508	3
2026-02-12	16:16:03.550	-28.21	-2.695	10.92	0.281332	0.881816	0.338672	0.906	-0.588	0.339	0	167	508	3
2026-02-12	16:16:03.570	-31.325	-8.75	9.59	0.307928	0.921588	0.508984	0.885	-0.573	0.3555	0	167	508	3
2026-02-12	16:16:03.590	-31.395	0.21	6.195	0.30378	0.909144	0.55998	0.8655	-0.5505	0.369	0	167	508	3
2026-02-12	16:16:03.610	-25.76	12.845	4.06	0.309392	0.907192	0.426756	0.8565	-0.5265	0.375	0	171	499	3
2026-02-12	16:16:03.630	-23.52	8.33	3.675	0.303048	0.920124	0.465552	0.8565	-0.519	0.366	0	171	499	3
2026-02-12	16:16:03.650	-10.64	8.54	2.205	0.303536	0.931836	0.473116	0.8565	-0.5175	0.3525	0	171	499	3
2026-02-12	16:16:03.670	-8.365	1.575	1.365	0.289384	0.904508	0.560712	0.8535	-0.5145	0.3465	0	171	499	3
2026-02-12	16:16:03.690	-5.075	0.455	4.025	0.24278	0.929884	0.599996	0.849	-0.51	0.336	0	171	499	3
2026-02-12	16:16:03.710	3.955	-2.695	3.92	0.210816	0.99308	0.608536	0.846	-0.5055	0.3255	0	171	499	3
2026-02-12	16:16:03.730	4.725	-7.035	0	0.208864	1.005524	0.748836	0.8445	-0.5115	0.321	0	171	499	3
2026-02-12	16:16:03.750	10.29	0.105	-3.15	0.2013	0.996984	0.622688	0.8445	-0.5085	0.3105	0	171	499	3
2026-02-12	16:16:03.770	9.73	-5.915	-3.115	0.210816	0.99308	0.601704	0.8505	-0.507	0.3045	0	171	499	3
2026-02-12	16:16:03.790	16.275	-10.43	-2.66	0.22692	0.99064	0.565836	0.858	-0.5145	0.3015	0	171	499	3
2026-02-12	16:16:03.810	14.385	-15.645	-3.36	0.184464	1.00162	0.658556	0.8625	-0.5145	0.3015	0	174	495	3
2026-02-12	16:16:03.830	10.22	-11.62	-6.3	0.148352	0.986248	0.644404	0.8625	-0.5145	0.3015	0	174	495	3
2026-02-12	16:16:03.850	7.735	-13.685	-7.385	0.140544	0.973804	0.557784	0.8625	-0.5145	0.3015	0	174	495	3
2026-02-12	16:16:03.870	-7.665	-23.73	-9.275	0.07686	0.9089	0.710528	0.891	-0.51	0.336	0	174	495	3
2026-02-12	16:16:03.890	-5.95	-13.825	-11.655	0.083692	0.793488	0.488	0.8745	-0.513	0.3315	0	174	495	3
2026-02-12	16:16:03.910	-15.155	-19.74	-10.745	0.07808	0.797148	0.37576	0.8985	-0.5235	0.3255	0	174	495	3
2026-02-12	16:16:03.930	-24.675	-39.445	-13.02	0.07515199	0.67588	0.461648	0.8865	-0.5325	0.3	0	174	495	3
2026-02-12	16:16:03.950	-20.79	-45.71	-9.1	0.050752	0.750788	0.70272	0.8835	-0.522	0.2985	0	174	495	3
2026-02-12	16:16:03.970	-11.06	-26.39	-12.11	0.04636	0.78568	0.694424	0.852	-0.525	0.3	0	174	495	3
2026-02-12	16:16:03.990	-12.53	-10.57	-19.18	0.02928	0.787144	0.62098	0.861	-0.513	0.2925	0	174	495	3
2026-02-12	16:16:04.010	-13.825	-5.215	-26.53	0.033428	0.706868	0.542412	0.882	-0.5385	0.2745	0	177	507	3
2026-02-12	16:16:04.030	-3.255	-2.275	-29.47	0.050264	0.698328	0.547292	0.888	-0.552	0.261	0	177	507	3
2026-02-12	16:16:04.050	0.595	-1.715	-30.905	0.036844	0.733708	0.567056	0.894	-0.54	0.2385	0	177	507	3
2026-02-12	16:16:04.070	-0.735	2.975	-34.755	0.043432	0.696376	0.46604	0.9075	-0.5445	0.2475	0	177	507	3
2026-02-12	16:16:04.090	1.645	-3.815	-33.775	0.055632	0.716872	0.449448	0.915	-0.549	0.2385	0	177	507	3
2026-02-12	16:16:04.110	14.315	-11.935	-32.55	0.07124799	0.742736	0.453596	0.9225	-0.558	0.234	0	177	507	3
2026-02-12	16:16:04.130	25.585	-15.33	-31.815	0.119804	0.77104	0.458964	0.936	-0.5535	0.237	0	177	507	3
2026-02-12	16:16:04.150	19.46	-21.525	-32.165	0.136396	0.778604	0.57584	0.936	-0.5535	0.237	0	177	507	3
2026-02-12	16:16:04.170	17.325	-13.37	-34.44	0.149328	0.784216	0.524112	0.9225	-0.5505	0.258	0	177	507	3
2026-02-12	16:16:04.190	17.29	-7.595	-34.72	0.170312	0.773236	0.390156	0.9105	-0.5475	0.279	0	177	507	3
2026-02-12	16:16:04.210	12.495	-14.525	-32.865	0.187148	0.78812	0.443104	0.9105	-0.5475	0.279	0	179	521	3
2026-02-12	16:16:04.230	13.055	-16.905	-31.64	0.168604	0.829356	0.535336	0.909	-0.54	0.279	0	179	521	3
2026-02-12	16:16:04.250	12.495	-8.19	-31.955	0.152012	0.885964	0.571448	0.915	-0.5235	0.2805	0	179	521	3
2026-02-12	16:16:04.270	4.2	0.455	-33.53	0.125172	0.98332	0.535336	0.918	-0.5115	0.2865	0	179	521	3
2026-02-12	16:16:04.290	-1.645	0.665	-36.26	0.104188	0.959408	0.550952	0.9135	-0.5085	0.2865	0	179	521	3
2026-02-12	16:16:04.310	-2.905	-2.17	-32.025	0.074908	0.975024	0.714188	0.9135	-0.4995	0.2775	0	179	521	3
2026-02-12	16:16:04.330	11.095	6.3	-26.32	0.078812	1.035048	0.567788	0.921	-0.4935	0.2655	0	179	521	3
2026-02-12	16:16:04.350	8.995	3.5	-22.05	0.0976	1.04066	0.529236	0.93	-0.501	0.252	0	179	521	3
2026-02-12	16:16:04.370	5.215	-0.875	-17.325	0.089304	1.005524	0.567056	0.9375	-0.501	0.2415	0	179	521	3
2026-02-12	16:16:04.390	9.275	-0.7	-9.8	0.09272	1.075552	0.604632	0.939	-0.498	0.243	0	179	521	3
2026-02-12	16:16:04.410	6.335	-0.14	-5.04	0.096868	1.086776	0.61732	0.933	-0.504	0.2475	0	179	530	3
2026-02-12	16:16:04.430	5.425	5.81	-0.875	0.070516	1.123376	0.6039	0.9315	-0.51	0.2505	0	179	530	3
2026-02-12	16:16:04.450	4.445	8.925	1.785	0.07442	1.086044	0.537044	0.933	-0.5085	0.2595	0	179	530	3
2026-02-12	16:16:04.470	5.46	7.35	5.32	0.05002	1.05286	0.543876	0.948	-0.5145	0.2595	0	179	530	3
2026-02-12	16:16:04.490	4.97	6.79	9.205	0.013908	0.978928	0.50752	0.957	-0.522	0.249	0	179	530	3
2026-02-12	16:16:04.510	5.11	2.765	14.315	-0.034648	0.89182	0.46848	0.951	-0.528	0.2505	0	179	530	3
2026-02-12	16:16:04.530	6.195	-7.385	20.895	-0.061488	0.83448	0.547292	0.9435	-0.5235	0.2685	0	179	530	3
2026-02-12	16:16:04.550	9.8	-10.71	27.055	-0.076128	0.817156	0.563884	0.93	-0.513	0.282	0	179	530	3
2026-02-12	16:16:04.570	4.235	-11.165	30.135	-0.098332	0.809348	0.580964	0.9225	-0.501	0.291	0	179	530	3
2026-02-12	16:16:04.590	-2.835	-8.085	30.275	-0.099552	0.813252	0.539728	0.915	-0.492	0.303	0	179	530	3
2026-02-12	16:16:04.610	-9.38	-6.58	27.125	-0.07905599	0.782508	0.558272	0.9165	-0.486	0.3165	0	178	538	3
2026-02-12	16:16:04.630	-8.96	-0.56	23.52	-0.095892	0.80032	0.503372	0.9015	-0.4845	0.3135	0	178	538	3
2026-02-12	16:16:04.650	-6.195	1.645	17.675	-0.061488	0.79666	0.401136	0.894	-0.4845	0.3105	0	178	538	3
2026-02-12	16:16:04.670	-3.955	-4.27	10.815	-0.021716	0.804956	0.420412	0.9	-0.489	0.3225	0	178	538	3
2026-02-12	16:16:04.690	-3.675	-6.58	4.165	-0.005368	0.818376	0.508984	0.891	-0.492	0.327	0	178	538	3
2026-02-12	16:16:04.710	-4.305	0.385	-2.205	0.023912	0.825208	0.415776	0.885	-0.4845	0.333	0	178	538	3
2026-02-12	16:16:04.730	-13.58	0.35	-8.155	0.060512	0.827648	0.325984	0.8895	-0.489	0.3405	0	178	538	3
2026-02-12	16:16:04.750	-12.67	-4.655	-12.53	0.10858	0.760304	0.288408	0.897	-0.4935	0.336	0	178	538	3
2026-02-12	16:16:04.770	-4.095	-8.995	-11.06	0.12932	0.82228	0.37942	0.9045	-0.4935	0.336	0	178	538	3
2026-02-12	16:16:04.790	-0.07	-3.22	-12.6	0.142252	0.849364	0.41846	0.903	-0.489	0.3405	0	178	538	3
2026-02-12	16:16:04.810	-3.5	5.775	-15.295	0.150792	0.877668	0.364048	0.8955	-0.48	0.3345	0	177	534	3
2026-02-12	16:16:04.830	-5.81	7.805	-18.095	0.169824	0.894992	0.357704	0.9	-0.48	0.333	0	177	534	3
2026-02-12	16:16:04.850	3.92	6.51	-18.935	0.188368	0.902068	0.3416	0.9	-0.4815	0.336	0	177	534	3
2026-02-12	16:16:04.870	14.595	-0.42	-17.57	0.19886	0.962092	0.431392	0.9	-0.4755	0.3375	0	177	534	3
2026-02-12	16:16:04.890	14.7	-3.01	-18.55	0.207156	0.942572	0.528504	0.906	-0.4695	0.339	0	177	534	3
2026-02-12	16:16:04.910	13.3	0.385	-17.43	0.19398	0.92842	0.406992	0.909	-0.471	0.3435	0	177	534	3
2026-02-12	16:16:04.930	15.05	-9.625	-13.86	0.18178	0.967704	0.390156	0.9105	-0.471	0.3345	0	177	534	3
2026-02-12	16:16:04.950	19.53	-22.575	-12.11	0.175436	0.991128	0.488244	0.909	-0.4695	0.324	0	177	534	3
2026-02-12	16:16:04.970	25.9	-26.635	-10.395	0.140056	0.970388	0.577792	0.906	-0.4695	0.324	0	177	534	3
2026-02-12	16:16:04.990	26.39	-24.92	-6.195	0.104676	1.01626	0.548024	0.9075	-0.4635	0.318	0	177	534	3
2026-02-12	16:16:05.010	23.38	-27.965	-4.76	0.09516	1.058228	0.521672	0.912	-0.4575	0.312	0	175	517	3
2026-02-12	16:16:05.030	20.755	-33.145	-5.88	0.1098	1.064084	0.531188	0.912	-0.4575	0.312	0	175	517	3
2026-02-12	16:16:05.050	16.73	-35.28	-5.075	0.113704	1.084824	0.608292	0.912	-0.4575	0.312	0	175	517	3
2026-02-12	16:16:05.070	12.25	-31.675	-3.5	0.124196	1.071404	0.5124	0.9135	-0.459	0.3195	0	175	517	3
2026-02-12	16:16:05.090	8.05	-32.9	-1.75	0.137616	1.079456	0.463356	0.909	-0.4725	0.3195	0	175	517	3
2026-02-12	16:16:05.110	4.935	-38.605	-1.365	0.1342	1.044564	0.542656	0.915	-0.468	0.3135	0	175	517	3
2026-02-12	16:16:05.130	4.515	-36.75	0.21	0.100772	1.037488	0.548756	0.918	-0.465	0.3075	0	175	517	3
2026-02-12	16:16:05.150	-8.47	-36.82	0.28	0.021716	1.00772	0.597556	0.9075	-0.468	0.324	0	175	517	3
2026-02-12	16:16:05.170	-15.085	-34.16	-1.645	-0.013908	0.877912	0.491172	0.8985	-0.471	0.3075	0	175	517	3
2026-02-12	16:16:05.190	-16.205	-42.245	1.855	-0.044652	0.849364	0.493124	0.8895	-0.4695	0.303	0	175	517	3
2026-02-12	16:16:05.210	-15.61	-47.04	3.01	-0.04514	0.805688	0.510448	0.876	-0.48	0.3045	0	173	507	3
2026-02-12	16:16:05.230	-19.32	-46.06	1.855	-0.05368	0.768844	0.526796	0.876	-0.48	0.3045	0	173	507	3
2026-02-12	16:16:05.250	-28.105	-43.47	1.015	-0.048068	0.71248	0.527528	0.876	-0.4755	0.303	0	173	507	3
2026-02-12	16:16:05.270	-27.965	-40.915	1.61	-0.038308	0.720776	0.49898	0.8775	-0.4725	0.303	0	173	507	3
2026-02-12	16:16:05.290	-23.87	-38.78	1.05	-0.015128	0.768112	0.553636	0.873	-0.4665	0.2985	0	173	507	3
2026-02-12	16:16:05.310	-18.515	-29.89	-4.095	-0.010736	0.76006	0.579256	0.8685	-0.4575	0.294	0	173	507	3
2026-02-12	16:16:05.330	-15.225	-15.575	-9.24	0.004636	0.751276	0.496296	0.87	-0.4515	0.297	0	173	507	3
2026-02-12	16:16:05.350	-14.385	-8.68	-12.74	0.018544	0.775676	0.464332	0.8745	-0.444	0.2925	0	173	507	3
2026-02-12	16:16:05.370	-9.38	-4.27	-17.29	0.038552	0.784948	0.44042	0.888	-0.4395	0.288	0	173	507	3
2026-02-12	16:16:05.390	-0.105	-1.89	-19.32	0.060512	0.780312	0.294508	0.894	-0.4455	0.2895	0	173	507	3
2026-02-12	16:16:05.410	7.28	-11.375	-17.36	0.055144	0.840336	0.358436	0.891	-0.4575	0.282	0	172	506	3
2026-02-12	16:16:05.430	16.275	-17.71	-17.5	0.075884	0.852048	0.440908	0.894	-0.4635	0.2895	0	172	506	3
2026-02-12	16:16:05.450	26.845	-15.82	-17.815	0.081252	0.862052	0.433588	0.894	-0.462	0.3105	0	172	506	3
2026-02-12	16:16:05.470	23.975	-12.635	-18.27	0.132492	0.855952	0.389668	0.8865	-0.4605	0.3135	0	172	506	3
2026-02-12	16:16:05.490	15.785	-14.84	-15.785	0.141276	0.837896	0.460916	0.8805	-0.459	0.3105	0	172	506	3
2026-02-12	16:16:05.510	13.51	-10.08	-11.62	0.146888	0.909632	0.551928	0.8745	-0.456	0.315	0	172	506	3
2026-02-12	16:16:05.530	8.505	-0.805	-9.03	0.169336	0.907192	0.477752	0.87	-0.444	0.3135	0	172	506	3
2026-02-12	16:16:05.550	-1.295	-2.17	-2.975	0.16836	0.942572	0.485072	0.8715	-0.435	0.318	0	172	506	3
2026-02-12	16:16:05.570	3.08	-3.045	2.17	0.163724	0.94916	0.46848	0.8775	-0.435	0.324	0	172	506	3
2026-02-12	16:16:05.590	14.525	-4.025	7.245	0.159332	1.002596	0.463356	0.876	-0.435	0.3165	0	172	506	3
2026-02-12	16:16:05.610	15.435	-7.245	9.485	0.15006	1.068232	0.551684	0.8715	-0.4335	0.3195	0	169	501	3
2026-02-12	16:16:05.630	13.615	-0.28	6.825	0.130052	1.035048	0.50874	0.8685	-0.4275	0.3315	0	169	501	3
2026-02-12	16:16:05.650	14.98	4.97	6.93	0.127612	1.056032	0.388448	0.8625	-0.429	0.3375	0	169	501	3
2026-02-12	16:16:05.670	12.915	-0.56	7.84	0.130052	1.059692	0.447252	0.8655	-0.4305	0.342	0	169	501	3
2026-02-12	16:16:05.690	17.325	3.115	8.96	0.11834	1.075064	0.508008	0.861	-0.4305	0.345	0	169	501	3
2026-02-12	16:16:05.710	26.705	12.775	10.115	0.091012	1.082384	0.3965	0.852	-0.4305	0.3465	0	169	501	3
2026-02-12	16:16:05.730	29.47	12.88	10.325	0.068564	1.121424	0.38064	0.8535	-0.429	0.354	0	169	501	3
2026-02-12	16:16:05.750	26.67	8.785	8.785	0.032208	1.127524	0.440664	0.8475	-0.432	0.3705	0	169	501	3
2026-02-12	16:16:05.770	18.13	7.91	6.16	0.020008	1.165588	0.50508	0.846	-0.4245	0.3885	0	169	501	3
2026-02-12	16:16:05.790	-2.87	7.35	0.595	0.013176	1.08092	0.598532	0.8535	-0.4125	0.399	0	169	501	3
2026-02-12	16:16:05.810	-1.12	16.45	0.945	0.012932	1.013576	0.534116	0.849	-0.4005	0.4005	0	167	496	3
2026-02-12	16:16:05.830	-2.205	17.605	4.34	-0.013664	0.900604	0.447496	0.846	-0.3975	0.387	0	167	496	3
2026-02-12	16:16:05.850	-8.225	9.94	9.8	-0.038796	0.840336	0.439688	0.855	-0.4035	0.3765	0	167	496	3
2026-02-12	16:16:05.870	-10.255	6.65	16.1	-0.025864	0.74054	0.43554	0.858	-0.399	0.372	0	167	496	3
2026-02-12	16:16:05.890	-14.63	5.145	28.56	-0.04758	0.76372	0.465308	0.837	-0.393	0.3585	0	167	496	3
2026-02-12	16:16:05.910	-17.78	5.565	36.855	-0.051484	0.832284	0.606828	0.825	-0.384	0.3525	0	167	496	3
2026-02-12	16:16:05.930	10.115	22.26	37.03	-0.036844	0.876448	0.487512	0.825	-0.3735	0.357	0	167	496	3
2026-02-12	16:16:05.950	30.8	27.755	31.465	0.02318	0.817644	0.276208	0.8175	-0.372	0.357	0	167	496	3
2026-02-12	16:16:05.970	33.775	14.175	29.4	0.06466	0.831796	0.337696	0.8115	-0.3795	0.3675	0	167	496	3
2026-02-12	16:16:05.990	27.02	8.68	26.775	0.099552	0.813984	0.513864	0.804	-0.372	0.3885	0	167	496	3
2026-02-12	16:16:06.010	24.955	23.24	24.955	0.149084	0.863516	0.488732	0.792	-0.3525	0.405	0	165	489	3
2026-02-12	16:16:06.030	13.3	37.38	21.525	0.171532	0.853268	0.314272	0.7815	-0.3465	0.4155	0	165	489	3
2026-02-12	16:16:06.050	5.425	31.675	19.145	0.202032	0.85766	0.2135	0.783	-0.357	0.4275	0	165	489	3
2026-02-12	16:16:06.070	15.12	20.58	16.695	0.260348	0.818376	0.21716	0.7875	-0.366	0.4305	0	165	489	3
2026-02-12	16:16:06.090	17.29	13.335	18.375	0.275232	0.870104	0.257664	0.7935	-0.3735	0.4305	0	165	489	3
2026-02-12	16:16:06.110	13.3	8.47	15.295	0.251564	0.93086	0.399672	0.798	-0.3825	0.441	0	165	489	3
2026-02-12	16:16:06.130	13.475	19.915	7.21	0.29036	0.899872	0.306708	0.798	-0.3795	0.4515	0	165	489	3
2026-02-12	16:16:06.150	7.175	25.025	3.01	0.297924	0.824232	0.144448	0.798	-0.381	0.45	0	165	489	3
2026-02-12	16:16:06.170	5.005	15.155	7	0.287676	0.82716	0.15982	0.798	-0.39	0.4455	0	165	489	3
2026-02-12	16:16:06.190	7.28	5.32	12.775	0.275476	0.924516	0.2257	0.8055	-0.3945	0.4425	0	165	489	3
2026-02-12	16:16:06.210	19.915	0.21	12.355	0.257908	0.988444	0.311832	0.8115	-0.3855	0.453	0	165	469	3
2026-02-12	16:16:06.230	19.32	-2.345	7.56	0.227164	1.081408	0.47702	0.7995	-0.3765	0.4665	0	165	469	3
2026-02-12	16:16:06.250	11.725	4.235	-0.315	0.245952	1.03822	0.525576	0.7875	-0.3675	0.4725	0	165	469	3
2026-02-12	16:16:06.270	1.12	12.74	-2.205	0.241072	1.02114	0.484828	0.783	-0.36	0.474	0	165	469	3
2026-02-12	16:16:06.290	0.805	16.17	-0.14	0.26474	1.03944	0.39406	0.7815	-0.3615	0.468	0	165	469	3
2026-02-12	16:16:06.310	3.99	10.57	1.47	0.260592	1.044076	0.335012	0.792	-0.3615	0.459	0	165	469	3
2026-02-12	16:16:06.330	3.01	3.78	2.8	0.243512	1.066036	0.410896	0.7995	-0.3615	0.4545	0	165	469	3
2026-02-12	16:16:06.350	3.36	3.36	2.66	0.241804	1.04676	0.475068	0.792	-0.366	0.4485	0	165	469	3
2026-02-12	16:16:06.370	3.395	8.26	4.165	0.249856	1.026752	0.454816	0.7845	-0.3735	0.441	0	165	469	3
2026-02-12	16:16:06.390	0.07	8.61	6.44	0.244976	1.05896	0.448716	0.783	-0.375	0.4335	0	165	469	3
2026-02-12	16:16:06.410	3.08	10.15	4.165	0.22326	1.028704	0.425536	0.786	-0.381	0.4365	0	167	444	3
2026-02-12	16:16:06.430	4.55	10.885	1.155	0.176656	0.984784	0.400892	0.792	-0.3885	0.444	0	167	444	3
2026-02-12	16:16:06.450	4.2	7.42	1.085	0.149084	0.987224	0.37332	0.798	-0.3885	0.456	0	167	444	3
2026-02-12	16:16:06.470	-0.455	0.28	-2.205	0.123952	0.970144	0.355264	0.795	-0.39	0.465	0	167	444	3
2026-02-12	16:16:06.490	-10.85	-9.1	-9.38	0.084424	0.900604	0.431636	0.7965	-0.393	0.462	0	167	444	3
2026-02-12	16:16:06.510	-15.085	-11.13	-13.965	0.065636	0.789096	0.4026	0.807	-0.396	0.456	0	167	444	3
2026-02-12	16:16:06.530	-10.15	-15.575	-11.76	0.05368	0.802028	0.354532	0.8055	-0.402	0.4515	0	167	444	3
2026-02-12	16:16:06.550	-6.02	-26.25	-12.075	0.050508	0.843264	0.55266	0.7995	-0.402	0.4455	0	167	444	3
2026-02-12	16:16:06.570	8.155	-19.985	-16.31	0.06344	0.829112	0.500444	0.795	-0.393	0.447	0	167	444	3
2026-02-12	16:16:06.590	3.92	-18.095	-20.16	0.066368	0.83204	0.468968	0.7935	-0.3915	0.45	0	167	444	3
2026-02-12	16:16:06.610	-0.91	-15.82	-25.865	0.083936	0.757864	0.345016	0.795	-0.396	0.4485	0	168	430	3
2026-02-12	16:16:06.630	3.01	-20.125	-24.57	0.092232	0.792268	0.328668	0.801	-0.4005	0.4485	0	168	430	3
2026-02-12	16:16:06.650	1.575	-26.74	-24.01	0.101748	0.813496	0.44408	0.807	-0.4035	0.4515	0	168	430	3
2026-02-12	16:16:06.670	7.49	-19.285	-24.535	0.101748	0.859856	0.41724	0.8055	-0.4035	0.453	0	168	430	3
2026-02-12	16:16:06.690	5.04	-16.625	-26.95	0.083936	0.888648	0.330864	0.8085	-0.405	0.4605	0	168	430	3
2026-02-12	16:16:06.710	2.975	-22.33	-29.855	0.11834	0.928664	0.375516	0.8085	-0.408	0.471	0	168	430	3
2026-02-12	16:16:06.730	1.015	-19.985	-33.005	0.142984	0.876692	0.4209	0.8115	-0.408	0.4725	0	168	430	3
2026-02-12	16:16:06.750	1.015	-9.905	-29.855	0.148352	0.888648	0.347212	0.8175	-0.405	0.4695	0	168	430	3
2026-02-12	16:16:06.770	-5.985	-8.82	-24.29	0.149572	0.896944	0.271084	0.819	-0.411	0.465	0	168	430	3
2026-02-12	16:16:06.790	-2.205	-13.02	-17.15	0.172996	0.94916	0.282064	0.828	-0.4095	0.4575	0	168	430	3
2026-02-12	16:16:06.810	-2.17	-17.045	-10.78	0.171776	1.003328	0.42334	0.8385	-0.405	0.4545	0	167	423	3
2026-02-12	16:16:06.830	-1.365	-4.655	-7.28	0.156648	1.073112	0.481412	0.831	-0.4095	0.4545	0	167	423	3
2026-02-12	16:16:06.850	-2.135	9.555	-5.67	0.112728	1.095316	0.323544	0.825	-0.414	0.4425	0	167	423	3
2026-02-12	16:16:06.870	2.1	4.9	-2.485	0.119072	1.044076	0.272792	0.8385	-0.4185	0.4305	0	167	423	3
2026-02-12	16:16:06.890	9.975	-1.995	4.13	0.102236	1.081164	0.43432	0.8385	-0.4275	0.4215	0	167	423	3
2026-02-12	16:16:06.910	20.37	7.07	8.295	0.080032	1.12118	0.46116	0.8265	-0.432	0.414	0	167	423	3
2026-02-12	16:16:06.930	15.26	12.81	9.45	0.032452	1.16266	0.488244	0.828	-0.432	0.417	0	167	423	3
2026-02-12	16:16:06.950	3.01	18.76	9.1	0.037332	1.10776	0.421144	0.828	-0.4365	0.4185	0	167	423	3
2026-02-12	16:16:06.970	6.825	20.825	12.46	0.034404	1.130452	0.382836	0.828	-0.45	0.4095	0	167	423	3
2026-02-12	16:16:06.990	5.46	17.885	14.49	0.04026	1.1224	0.480924	0.8295	-0.4515	0.408	0	167	423	3
2026-02-12	16:16:07.010	9.94	28.175	15.715	0.04392	1.126548	0.34526	0.8265	-0.45	0.414	0	166	416	3
2026-02-12	16:16:07.030	1.75	28.42	17.85	0.084668	1.061888	0.24278	0.828	-0.4515	0.414	0	166	416	3
2026-02-12	16:16:07.050	-2.555	22.96	23.03	0.048556	1.031632	0.381128	0.8295	-0.456	0.414	0	166	416	3
2026-02-12	16:16:07.070	7.77	31.57	26.845	0.002928	0.952088	0.34892	0.8295	-0.465	0.4155	0	166	416	3
2026-02-12	16:16:07.090	15.435	33.215	32.06	-0.0122	0.888404	0.210084	0.834	-0.468	0.4215	0	166	416	3
2026-02-12	16:16:07.110	5.285	19.005	37.03	-0.026596	0.907192	0.348676	0.8325	-0.4725	0.423	0	166	416	3
2026-02-12	16:16:07.130	3.955	22.89	34.615	-0.047824	0.911584	0.433588	0.825	-0.4725	0.426	0	166	416	3
2026-02-12	16:16:07.150	1.225	32.865	29.75	-0.067588	0.886696	0.322568	0.8175	-0.4695	0.4305	0	166	416	3
2026-02-12	16:16:07.170	-7.945	29.155	26.46	-0.07124799	0.900604	0.332816	0.8175	-0.4755	0.429	0	166	416	3
2026-02-12	16:16:07.190	1.89	27.16	20.37	-0.030012	0.898164	0.31354	0.825	-0.4845	0.4275	0	166	416	3
2026-02-12	16:16:07.210	8.785	23.8	13.685	0.017324	0.938912	0.325008	0.8235	-0.486	0.432	0	164	407	3
2026-02-12	16:16:07.230	8.61	22.4	4.34	0.07124799	0.93818	0.369416	0.819	-0.4845	0.4425	0	164	407	3
2026-02-12	16:16:07.250	-1.05	26.88	-2.975	0.12932	0.822768	0.27938	0.8145	-0.4785	0.456	0	164	407	3
2026-02-12	16:16:07.270	-8.05	27.37	-1.33	0.157136	0.816668	0.172752	0.8205	-0.4725	0.459	0	164	407	3
2026-02-12	16:16:07.290	-4.935	21.245	1.82	0.175192	0.833016	0.186172	0.8265	-0.48	0.459	0	164	407	3
2026-02-12	16:16:07.310	-4.025	14.42	4.305	0.19398	0.875472	0.293044	0.822	-0.483	0.468	0	164	407	3
2026-02-12	16:16:07.330	-1.75	18.305	4.515	0.2135	0.855708	0.309392	0.8205	-0.4755	0.468	0	164	407	3
2026-02-12	16:16:07.350	-9.24	24.325	6.685	0.212524	0.87962	0.273524	0.8235	-0.4725	0.465	0	164	407	3
2026-02-12	16:16:07.370	-9.345	26.635	7.385	0.225456	0.89426	0.2257	0.8235	-0.4725	0.465	0	164	407	3
2026-02-12	16:16:07.390	-2.975	23.555	6.965	0.229116	0.909144	0.181536	0.8505	-0.474	0.4665	0	164	407	3
2026-02-12	16:16:07.410	-0.84	19.25	7.35	0.226432	0.948428	0.218624	0.8505	-0.474	0.4665	0	162	388	3
2026-02-12	16:16:07.430	1.61	13.475	5.495	0.258884	0.936228	0.280356	0.8415	-0.477	0.4635	0	162	388	3
2026-02-12	16:16:07.450	5.67	14.84	5.32	0.270108	0.9577	0.271328	0.825	-0.4875	0.4725	0	162	388	3
2026-02-12	16:16:07.470	3.255	14.105	5.145	0.262788	0.986492	0.298412	0.828	-0.4785	0.474	0	162	388	3
2026-02-12	16:16:07.490	6.615	12.67	2.38	0.26474	1.007476	0.249856	0.828	-0.4785	0.474	0	162	388	3
2026-02-12	16:16:07.510	14.105	7.56	0.49	0.266936	1.017968	0.188856	0.828	-0.4785	0.474	0	162	388	3
2026-02-12	16:16:07.530	14.945	-7.105	0.875	0.251808	0.9882	0.317688	0.828	-0.4785	0.474	0	162	388	3
2026-02-12	16:16:07.550	5.635	-17.045	5.145	0.208132	1.092876	0.570228	0.813	-0.4665	0.4725	0	162	388	3
2026-02-12	16:16:07.570	9.1	-1.365	3.465	0.187148	1.10776	0.427976	0.795	-0.4545	0.4695	0	162	388	3
2026-02-12	16:16:07.590	-0.315	-3.36	1.575	0.205936	1.066036	0.310856	0.7965	-0.4605	0.4665	0	162	388	3
2026-02-12	16:16:07.610	-15.785	-19.04	3.57	0.19154	1.094584	0.426756	0.8055	-0.4695	0.462	0	161	366	3
2026-02-12	16:16:07.630	-7.07	-17.71	3.325	0.193736	1.080432	0.469212	0.81	-0.468	0.4515	0	161	366	3
2026-02-12	16:16:07.650	-2.31	-10.675	3.955	0.185196	1.122888	0.423584	0.807	-0.468	0.45	0	161	366	3
2026-02-12	16:16:07.670	-16.24	-10.99	2.24	0.151768	1.0919	0.449448	0.8025	-0.4695	0.4545	0	161	366	3
2026-02-12	16:16:07.690	-22.995	-6.79	0.91	0.093452	1.070428	0.53558	0.7995	-0.4665	0.4515	0	161	366	3
2026-02-12	16:16:07.710	-25.06	-1.085	-0.14	0.04636	0.998936	0.47458	0.795	-0.4665	0.45	0	161	366	3
2026-02-12	16:16:07.730	-26.39	-3.045	1.015	0.061732	0.958188	0.282308	0.7965	-0.471	0.4485	0	161	366	3
2026-02-12	16:16:07.750	-21.35	-16.485	1.33	0.022204	0.851072	0.253028	0.8055	-0.48	0.4305	0	161	366	3
2026-02-12	16:16:07.770	-23.1	-33.53	4.69	0.034648	0.815204	0.356972	0.807	-0.48	0.4215	0	161	366	3
2026-02-12	16:16:07.790	-18.55	-36.085	5.915	0.044408	0.835456	0.509716	0.8115	-0.474	0.429	0	161	366	3
2026-02-12	16:16:07.810	-15.05	-18.9	3.675	0.026596	0.803492	0.429928	0.8085	-0.468	0.4245	0	161	360	3
2026-02-12	16:16:07.830	-14.945	-13.405	2.135	0.032208	0.856684	0.393328	0.7905	-0.4635	0.42	0	161	360	3
2026-02-12	16:16:07.850	-9.905	-13.125	-4.62	0.031232	0.840824	0.518744	0.789	-0.4665	0.426	0	161	360	3
2026-02-12	16:16:07.870	6.72	1.365	-11.76	0.041724	0.815204	0.478484	0.795	-0.468	0.426	0	161	360	3
2026-02-12	16:16:07.890	2.765	9.59	-15.855	0.034892	0.861076	0.473116	0.804	-0.4635	0.426	0	161	360	3
2026-02-12	16:16:07.910	-3.43	15.4	-20.93	0.048556	0.833992	0.334036	0.8085	-0.465	0.4275	0	161	360	3
2026-02-12	16:16:07.930	1.75	9.66	-24.08	0.083936	0.825208	0.3233	0.8175	-0.474	0.4185	0	161	360	3
2026-02-12	16:16:07.950	5.67	0.245	-23.31	0.106384	0.803492	0.393328	0.8265	-0.4815	0.42	0	161	360	3
2026-02-12	16:16:07.970	10.29	0.42	-19.705	0.099064	0.88938	0.46482	0.831	-0.4935	0.423	0	161	360	3
2026-02-12	16:16:07.990	4.9	3.675	-20.405	0.104432	0.865712	0.419192	0.837	-0.4995	0.42	0	161	360	3
2026-02-12	16:16:08.010	-2.94	2.065	-19.565	0.130052	0.851072	0.389668	0.846	-0.4995	0.423	0	161	369	3
2026-02-12	16:16:08.030	-5.845	-1.365	-15.435	0.136396	0.822524	0.42334	0.8445	-0.501	0.426	0	161	369	3
2026-02-12	16:16:08.050	0.525	1.12	-8.33	0.158844	0.88328	0.41358	0.837	-0.4995	0.423	0	161	369	3
2026-02-12	16:16:08.070	-4.095	0.805	-4.06	0.176412	0.911828	0.411628	0.837	-0.4935	0.4185	0	161	369	3
2026-02-12	16:16:08.090	-6.93	3.745	-1.05	0.177876	0.983808	0.471408	0.8385	-0.4875	0.4245	0	161	369	3
2026-02-12	16:16:08.110	-6.615	11.025	-0.77	0.152988	1.023824	0.515084	0.834	-0.4875	0.423	0	161	369	3
2026-02-12	16:16:08.130	-5.39	18.165	-0.91	0.15982	1.063596	0.367952	0.843	-0.483	0.417	0	161	369	3
2026-02-12	16:16:08.150	-7.07	13.51	-1.505	0.141276	1.125328	0.480436	0.8505	-0.4875	0.408	0	161	369	3
2026-02-12	16:16:08.170	-4.9	15.12	-4.48	0.116876	1.074332	0.556076	0.849	-0.492	0.3945	0	161	369	3
2026-02-12	16:16:08.190	4.62	26.32	-1.89	0.11346	1.081164	0.433588	0.855	-0.498	0.3855	0	161	369	3
2026-02-12	16:16:08.210	2.625	19.355	3.15	0.100528	1.07726	0.382104	0.8565	-0.5145	0.378	0	160	385	3
2026-02-12	16:16:08.230	10.535	8.54	8.68	0.116144	1.118008	0.466284	0.8595	-0.522	0.366	0	160	385	3
2026-02-12	16:16:08.250	14.21	8.82	9.8	0.097844	1.103368	0.538508	0.864	-0.5265	0.369	0	160	385	3
2026-02-12	16:16:08.270	14.945	18.935	12.04	0.11956	1.069696	0.399428	0.8685	-0.534	0.375	0	160	385	3
2026-02-12	16:16:08.290	7.525	16.905	17.5	0.08906	1.077748	0.429928	0.879	-0.5355	0.3675	0	160	385	3
2026-02-12	16:16:08.310	12.39	19.53	18.76	0.054656	1.051884	0.4331	0.882	-0.5385	0.3645	0	160	385	3
2026-02-12	16:16:08.330	21.595	25.97	18.97	0.034404	1.017236	0.364292	0.8745	-0.537	0.3675	0	160	385	3
2026-02-12	16:16:08.350	14.595	21.42	19.495	-0.027328	0.974292	0.521916	0.87	-0.54	0.369	0	160	385	3
2026-02-12	16:16:08.370	19.18	27.405	19.145	-0.048312	0.881084	0.49288	0.8715	-0.546	0.3735	0	160	385	3
2026-02-12	16:16:08.390	21.91	28.315	20.685	-0.070516	0.859856	0.384544	0.876	-0.543	0.384	0	160	385	3
2026-02-12	16:16:08.410	9.45	17.955	20.755	-0.060512	0.852536	0.465552	0.8655	-0.5355	0.384	0	159	402	3
2026-02-12	16:16:08.430	5.915	22.715	17.185	-0.053924	0.804224	0.391376	0.8565	-0.531	0.3795	0	159	402	3
2026-02-12	16:16:08.450	2.94	20.825	17.185	-0.051484	0.798124	0.350872	0.8565	-0.531	0.3795	0	159	402	3
2026-02-12	16:16:08.470	5.075	16.66	18.725	-0.037088	0.849608	0.366244	0.846	-0.537	0.3735	0	159	402	3
2026-02-12	16:16:08.490	13.44	14.245	16.275	-0.026352	0.872056	0.39528	0.846	-0.537	0.3735	0	159	402	3
2026-02-12	16:16:08.510	24.57	16.66	10.71	0.020496	0.89792	0.373564	0.852	-0.5415	0.3945	0	159	402	3
2026-02-12	16:16:08.530	19.6	17.255	4.025	0.061732	0.869372	0.38308	0.8265	-0.534	0.4155	0	159	402	3
2026-02-12	16:16:08.550	14.42	19.425	0.42	0.118096	0.826672	0.346724	0.834	-0.5205	0.4245	0	159	402	3
2026-02-12	16:16:08.570	12.25	20.79	0.105	0.14396	0.842044	0.272792	0.837	-0.537	0.426	0	159	402	3
2026-02-12	16:16:08.590	8.47	16.73	0.56	0.174948	0.869372	0.26352	0.8265	-0.5445	0.432	0	159	402	3
2026-02-12	16:16:08.610	3.15	10.815	0.35	0.206424	0.850828	0.300608	0.8265	-0.5445	0.432	0	158	410	3
2026-02-12	16:16:08.630	3.08	10.675	1.925	0.22692	0.88694	0.285968	0.8475	-0.522	0.453	0	158	410	3
2026-02-12	16:16:08.650	-1.61	7.98	2.065	0.241072	0.905484	0.359412	0.84	-0.5265	0.459	0	158	410	3
2026-02-12	16:16:08.670	-0.84	12.11	1.47	0.249612	0.95892	0.321836	0.8325	-0.528	0.4485	0	158	410	3
2026-02-12	16:16:08.690	-5.635	11.34	-0.21	0.289384	1.013088	0.395036	0.846	-0.5295	0.444	0	158	410	3
2026-02-12	16:16:08.710	-15.295	13.23	-3.045	0.270352	1.072624	0.46482	0.8385	-0.543	0.45	0	158	410	3
2026-02-12	16:16:08.730	-17.15	20.755	-1.785	0.269864	1.016016	0.362828	0.8385	-0.543	0.45	0	158	410	3
2026-02-12	16:16:08.750	-7.175	14.245	6.86	0.283284	0.983564	0.072712	0.8385	-0.543	0.45	0	158	410	3
2026-02-12	16:16:08.770	0.805	-21.14	20.16	0.27572	1.046028	0.243756	0.8895	-0.573	0.396	0	158	410	3
2026-02-12	16:16:08.790	12.11	-40.145	25.13	0.266204	1.00528	0.425292	0.936	-0.6075	0.3435	0	158	410	3
2026-02-12	16:16:08.810	27.335	-39.2	30.1	0.225212	1.048956	0.41358	0.915	-0.612	0.3525	0	158	404	3
2026-02-12	16:16:08.830	18.235	-49.91	30.59	0.184952	1.066036	0.518256	0.885	-0.6045	0.3615	0	158	404	3
2026-02-12	16:16:08.850	21.175	-49.175	28.63	0.179096	1.082872	0.398208	0.8715	-0.5955	0.369	0	158	404	3
2026-02-12	16:16:08.870	24.955	-58.415	23.975	0.20496	0.993324	0.3904	0.861	-0.5955	0.3855	0	158	404	3
2026-02-12	16:16:08.890	30.8	-61.285	23.59	0.22692	0.98576	0.355508	0.84	-0.5895	0.3975	0	158	404	3
2026-02-12	16:16:08.910	22.96	-63.98	21	0.206424	1.056764	0.461648	0.822	-0.576	0.414	0	158	404	3
2026-02-12	16:16:08.930	1.785	-57.19	9.31	0.163236	1.013088	0.611952	0.804	-0.5625	0.4425	0	158	404	3
2026-02-12	16:16:08.950	-11.095	-38.885	0.035	0.090036	0.985516	0.49776	0.7935	-0.5535	0.456	0	158	404	3
2026-02-12	16:16:08.970	-25.235	-38.325	-6.02	0.07124799	0.93818	0.39528	0.795	-0.5535	0.4485	0	158	404	3
2026-02-12	16:16:08.990	-20.37	-44.38	-9.835	0.076128	0.862296	0.321592	0.801	-0.564	0.435	0	158	404	3
2026-02-12	16:16:09.010	-15.19	-50.4	-11.13	0.093696	0.837408	0.338916	0.8055	-0.5715	0.42	0	158	397	3
2026-02-12	16:16:09.030	-18.935	-52.29	-13.09	0.111264	0.829844	0.4392	0.807	-0.5745	0.4095	0	158	397	3
2026-02-12	16:16:09.050	-30.45	-41.44	-17.71	0.099552	0.76616	0.396744	0.807	-0.5775	0.4125	0	158	397	3
2026-02-12	16:16:09.070	-33.985	-32.06	-19.81	0.084912	0.769332	0.351848	0.81	-0.579	0.408	0	158	397	3
2026-02-12	16:16:09.090	-28.63	-30.87	-21.035	0.074908	0.830332	0.473848	0.8145	-0.582	0.396	0	158	397	3
2026-02-12	16:16:09.110	-11.76	-17.745	-27.02	0.087596	0.832772	0.434076	0.8145	-0.5775	0.396	0	158	397	3
2026-02-12	16:16:09.130	-9.94	-12.075	-32.13	0.088816	0.860588	0.442128	0.8145	-0.573	0.393	0	158	397	3
2026-02-12	16:16:09.150	-13.93	-4.83	-37.03	0.129076	0.818132	0.348432	0.8235	-0.576	0.3885	0	158	397	3
2026-02-12	16:16:09.170	-10.605	-9.03	-37.345	0.16836	0.826916	0.264252	0.8325	-0.585	0.3825	0	158	397	3
2026-02-12	16:16:09.190	-8.89	-21.175	-34.615	0.183732	0.845216	0.4392	0.843	-0.5865	0.375	0	158	397	3
2026-02-12	16:16:09.210	1.715	-13.755	-31.605	0.207888	0.876448	0.3538	0.8505	-0.5835	0.375	0	158	397	3
2026-02-12	16:16:09.230	-2.975	-15.645	-28.245	0.216428	0.901824	0.417484	0.852	-0.588	0.375	0	158	397	3
2026-02-12	16:16:09.250	-7.525	-12.355	-25.655	0.234728	0.884012	0.455792	0.855	-0.594	0.3705	0	158	397	3
2026-02-12	16:16:09.270	-6.125	-6.23	-21.42	0.219356	0.870104	0.424316	0.864	-0.591	0.3645	0	158	397	3
2026-02-12	16:16:09.290	-9.485	-4.55	-15.575	0.2135	0.873276	0.400404	0.8685	-0.5985	0.3555	0	158	397	3
2026-02-12	16:16:09.310	-6.895	-4.935	-8.75	0.207156	0.903044	0.36112	0.8745	-0.6	0.345	0	158	397	3
2026-02-12	16:16:09.330	-1.19	-7.49	-2.765	0.214232	0.910608	0.442128	0.879	-0.6	0.339	0	158	397	3
2026-02-12	16:16:09.350	6.51	-1.89	1.785	0.1891	0.967948	0.434076	0.8745	-0.609	0.336	0	158	397	3
2026-02-12	16:16:09.370	4.48	1.155	2.835	0.177632	0.9638	0.409432	0.8925	-0.603	0.342	0	158	397	3
2026-02-12	16:16:09.390	7.805	2.87	3.71	0.171532	1.02358	0.388204	0.912	-0.6	0.348	0	158	397	3
2026-02-12	16:16:09.410	7.665	5.355	2.275	0.190076	1.016748	0.537532	0.8925	-0.6075	0.3525	0	156	400	3
2026-02-12	16:16:09.430	11.445	15.015	0.84	0.16104	1.039684	0.455304	0.882	-0.606	0.357	0	156	400	3
2026-02-12	16:16:09.450	8.295	14.875	0.595	0.164944	1.065792	0.381616	0.8865	-0.606	0.3585	0	156	400	3
2026-02-12	16:16:09.470	2.695	10.605	-0.735	0.153232	1.123132	0.455792	0.8835	-0.6135	0.36	0	156	400	3
2026-02-12	16:16:09.490	-8.085	16.625	-5.635	0.172508	1.140212	0.548268	0.891	-0.6105	0.3585	0	156	400	3
2026-02-12	16:16:09.510	-17.255	31.71	-8.785	0.177632	1.094828	0.428708	0.9	-0.6075	0.357	0	156	400	3
2026-02-12	16:16:09.530	-16.66	33.18	-5.53	0.1586	1.173396	0.47824	0.8865	-0.609	0.336	0	156	400	3
2026-02-12	16:16:09.550	-14.875	34.545	-5.39	0.1769	1.13582	0.472628	0.8865	-0.609	0.336	0	156	400	3
2026-02-12	16:16:09.570	-10.29	33.775	-1.155	0.1525	1.09556	0.398452	0.9105	-0.63	0.2865	0	156	400	3
2026-02-12	16:16:09.590	-8.61	28.175	6.125	0.115168	1.023824	0.471896	0.9285	-0.654	0.2595	0	156	400	3
2026-02-12	16:16:09.610	0.35	27.265	15.26	0.05368	0.913536	0.41724	0.9375	-0.6615	0.2505	0	154	409	3
2026-02-12	16:16:09.630	9.975	17.85	25.13	0.024156	0.890844	0.470676	0.9435	-0.66	0.2265	0	154	409	3
2026-02-12	16:16:09.650	9.135	12.145	29.75	-0.01464	0.806908	0.498492	0.9405	-0.6645	0.237	0	154	409	3
2026-02-12	16:16:09.670	1.015	9.87	33.53	-0.05246	0.804468	0.525576	0.9225	-0.648	0.2535	0	154	409	3
2026-02-12	16:16:09.690	-5.46	11.025	34.09	-0.057584	0.783728	0.424804	0.924	-0.6435	0.249	0	154	409	3
2026-02-12	16:16:09.710	-7.805	9.24	33.04	-0.0427	0.789584	0.386008	0.9075	-0.6495	0.2505	0	154	409	3
2026-02-12	16:16:09.730	5.915	7.56	29.155	-0.049044	0.861076	0.40016	0.9105	-0.645	0.243	0	154	409	3
2026-02-12	16:16:09.750	21.98	9.45	20.02	0.000488	0.911584	0.305488	0.894	-0.66	0.246	0	154	409	3
2026-02-12	16:16:09.770	24.045	7.385	8.785	0.073688	0.92476	0.385032	0.894	-0.6525	0.279	0	154	409	3
2026-02-12	16:16:09.790	21.56	10.08	-2.205	0.123708	0.870348	0.382104	0.8805	-0.6525	0.3	0	154	409	3
2026-02-12	16:16:09.810	20.825	16.24	-8.61	0.14274	0.885232	0.325984	0.8775	-0.6435	0.321	0	152	418	3
2026-02-12	16:16:09.830	15.75	16.345	-13.335	0.162504	0.865956	0.301584	0.885	-0.648	0.3315	0	152	418	3
2026-02-12	16:16:09.850	14.105	12.705	-15.19	0.195444	0.838628	0.252052	0.8895	-0.6465	0.336	0	152	418	3
2026-02-12	16:16:09.870	11.27	5.005	-13.51	0.218624	0.84058	0.353068	0.8835	-0.639	0.3285	0	152	418	3
2026-02-12	16:16:09.890	11.41	7	-11.725	0.21838	0.889624	0.40504	0.8805	-0.6285	0.348	0	152	418	3
2026-02-12	16:16:09.910	0.98	11.55	-13.055	0.2074	0.934032	0.456768	0.885	-0.63	0.354	0	152	418	3
2026-02-12	16:16:09.930	-13.895	19.11	-16.345	0.211548	0.951112	0.490684	0.894	-0.621	0.351	0	152	418	3
2026-02-12	16:16:09.950	-15.295	29.085	-15.96	0.226188	0.914268	0.292312	0.894	-0.621	0.351	0	152	418	3
2026-02-12	16:16:09.970	-13.09	23.695	-8.155	0.263764	0.882548	0.264252	0.894	-0.621	0.351	0	152	418	3
2026-02-12	16:16:09.990	0.875	15.155	4.025	0.25986	0.919636	0.226188	0.894	-0.621	0.351	0	152	418	3
2026-02-12	16:16:10.010	12.46	5.775	13.545	0.293288	0.93574	0.293044	0.918	-0.648	0.3015	0	151	416	3
2026-02-12	16:16:10.030	14.175	1.33	20.93	0.300364	1.0187	0.343064	0.939	-0.678	0.2565	0	151	416	3
2026-02-12	16:16:10.050	14.805	2.03	22.54	0.302804	1.03822	0.266204	0.9315	-0.6795	0.264	0	151	416	3
2026-02-12	16:16:10.070	12.11	-5.46	21.84	0.302316	0.989176	0.343796	0.933	-0.6795	0.267	0	151	416	3
2026-02-12	16:16:10.090	21.84	-13.405	21.56	0.23546	1.00894	0.373808	0.93	-0.675	0.273	0	151	416	3
2026-02-12	16:16:10.110	29.855	-22.33	21.035	0.204716	1.061644	0.450668	0.918	-0.6615	0.2895	0	151	416	3
2026-02-12	16:16:10.130	22.085	-25.865	14.77	0.209108	1.049444	0.52948	0.909	-0.651	0.306	0	151	416	3
2026-02-12	16:16:10.150	9.485	-20.09	8.715	0.235216	1.029192	0.40382	0.8895	-0.651	0.312	0	151	416	3
2026-02-12	16:16:10.170	-1.82	-24.675	5.915	0.25254	1.02724	0.411872	0.8835	-0.651	0.312	0	151	416	3
2026-02-12	16:16:10.190	-4.095	-24.78	3.955	0.277672	1.02724	0.469456	0.8865	-0.6495	0.315	0	151	416	3
2026-02-12	16:16:10.210	-2.695	-18.865	3.57	0.25498	1.077992	0.438468	0.882	-0.6495	0.3105	0	151	407	3
2026-02-12	16:16:10.230	-18.375	-19.95	0.84	0.192272	1.088972	0.58316	0.8805	-0.651	0.3015	0	151	407	3
2026-02-12	16:16:10.250	-29.365	-11.655	-6.545	0.136152	1.0309	0.5612	0.8805	-0.6465	0.291	0	151	407	3
2026-02-12	16:16:10.270	-35.385	-9.415	-10.815	0.069052	0.887916	0.444324	0.888	-0.6465	0.261	0	151	407	3
2026-02-12	16:16:10.290	-30.1	-18.27	-5.845	0.072956	0.83936	0.321592	0.906	-0.6615	0.225	0	151	407	3
2026-02-12	16:16:10.310	-18.55	-36.785	-0.315	0.050508	0.81618	0.335988	0.9105	-0.6765	0.207	0	151	407	3
2026-02-12	16:16:10.330	-19.495	-53.795	2.205	0.043676	0.853268	0.515572	0.906	-0.678	0.204	0	151	407	3
2026-02-12	16:16:10.350	-30.45	-46.655	-1.89	0.049288	0.805444	0.467748	0.9045	-0.669	0.21	0	151	407	3
2026-02-12	16:16:10.370	-34.755	-42.245	-4.305	0.068808	0.804712	0.450424	0.903	-0.66	0.21	0	151	407	3
2026-02-12	16:16:10.390	-28.49	-44.52	-6.44	0.068564	0.777872	0.489464	0.891	-0.657	0.201	0	151	407	3
2026-02-12	16:16:10.410	-6.545	-36.12	-10.29	0.072468	0.825208	0.525088	0.882	-0.6495	0.2085	0	151	409	3
2026-02-12	16:16:10.430	-2.24	-27.51	-17.29	0.093696	0.859612	0.545096	0.8775	-0.639	0.222	0	151	409	3
2026-02-12	16:16:10.450	-13.195	-12.775	-28.56	0.171288	0.836432	0.565104	0.885	-0.63	0.228	0	151	409	3
2026-02-12	16:16:10.470	-23.31	8.715	-39.375	0.197396	0.776164	0.475068	0.903	-0.63	0.222	0	151	409	3
2026-02-12	16:16:10.490	-17.955	27.195	-41.965	0.085156	0.731268	0.247416	0.9255	-0.657	0.192	0	151	409	3
2026-02-12	16:16:10.510	-16.66	15.295	-39.06	0.087108	0.765916	0.277672	0.975	-0.7125	0.15	0	151	409	3
2026-02-12	16:16:10.530	1.54	3.92	-42.07	0.061732	0.854244	0.326716	1.038	-0.7605	0.12	0	151	409	3
2026-02-12	16:16:10.550	16.59	-4.095	-45.535	0.084912	0.801784	0.356484	1.068	-0.792	0.1035	0	151	409	3
2026-02-12	16:16:10.570	14	-13.09	-45.185	0.088084	0.761768	0.40992	1.0695	-0.8055	0.099	0	151	409	3
2026-02-12	16:16:10.590	16.205	-17.605	-38.815	0.100772	0.838628	0.443836	1.0695	-0.8055	0.099	0	151	409	3
2026-02-12	16:16:10.610	15.715	-23.065	-34.37	0.085156	0.860344	0.479948	1.0695	-0.8055	0.099	0	152	417	3
2026-02-12	16:16:10.630	17.71	-26.6	-30.73	0.11956	0.904996	0.467504	1.0965	-0.8025	0.1005	0	152	417	3
2026-02-12	16:16:10.650	15.89	-32.06	-24.43	0.155428	0.954284	0.565592	1.0905	-0.786	0.117	0	152	417	3
2026-02-12	16:16:10.670	8.015	-28.595	-19.495	0.1403	1.019676	0.58316	1.068	-0.7635	0.1335	0	152	417	3
2026-02-12	16:16:10.690	-3.57	-20.265	-17.15	0.133224	1.04676	0.5002	1.0725	-0.7425	0.1485	0	152	417	3
2026-02-12	16:16:10.710	-7.56	-19.495	-13.755	0.1281	1.073356	0.46116	1.0665	-0.7485	0.1425	0	152	417	3
2026-02-12	16:16:10.730	-4.76	-19.005	-12.32	0.1159	1.130452	0.520696	1.056	-0.735	0.1365	0	152	417	3
2026-02-12	16:16:10.750	-12.53	-13.405	-15.855	0.119804	1.131916	0.560712	1.0545	-0.7275	0.1305	0	152	417	3
2026-02-12	16:16:10.770	-29.155	-6.09	-17.745	0.063684	1.141188	0.48556	1.053	-0.729	0.1095	0	152	417	3
2026-02-12	16:16:10.790	-36.75	-0.49	-19.81	0.033428	1.037732	0.311832	1.0515	-0.7305	0.084	0	152	417	3
2026-02-12	16:16:10.810	-17.185	-3.29	-12.53	0.013908	1.096048	0.314028	1.068	-0.735	0.0165	0	153	428	3
2026-02-12	16:16:10.830	-12.32	-1.715	-10.465	0.130784	1.160464	0.479704	1.0755	-0.7395	-0.0225	0	153	428	3
2026-02-12	16:16:10.850	-7.105	7.63	-4.41	0.060756	1.058716	0.44164	1.0785	-0.7335	-0.051	0	153	428	3
2026-02-12	16:16:10.870	-10.605	11.62	3.675	-0.03782	0.958432	0.36478	1.083	-0.7275	-0.054	0	153	428	3
2026-02-12	16:16:10.890	-1.19	14.56	9.345	-0.035868	0.976976	0.47092	1.08	-0.729	-0.06	0	153	428	3
2026-02-12	16:16:10.910	9.275	16.695	15.855	-0.050264	0.892308	0.414312	1.0785	-0.7245	-0.06	0	153	428	3
2026-02-12	16:16:10.930	5.425	20.37	19.985	-0.100772	0.82228	0.56486	1.0785	-0.717	-0.042	0	153	428	3
2026-02-12	16:16:10.950	-1.33	23.31	23.66	-0.116876	0.793976	0.500932	1.059	-0.726	-0.045	0	153	428	3
2026-02-12	16:16:10.970	-5.81	21.56	26.88	-0.110776	0.776164	0.42334	1.065	-0.726	-0.0495	0	153	428	3
2026-02-12	16:16:10.990	-3.745	17.99	28.77	-0.10004	0.787876	0.482876	1.0605	-0.708	-0.048	0	153	428	3
2026-02-12	16:16:11.010	-1.715	19.775	28.455	-0.108824	0.843996	0.452864	1.0515	-0.6975	-0.039	0	155	437	3
2026-02-12	16:16:11.030	-3.71	20.44	25.2	-0.069052	0.860588	0.451888	1.0515	-0.705	-0.0255	0	155	437	3
2026-02-12	16:16:11.050	-1.4	19.565	20.79	-0.005612	0.859612	0.372832	1.056	-0.693	-0.021	0	155	437	3
2026-02-12	16:16:11.070	10.15	15.015	16.065	0.035624	0.913048	0.36722	1.053	-0.708	-0.021	0	155	437	3
2026-02-12	16:16:11.090	12.915	10.57	9.59	0.076616	0.846192	0.416508	1.0335	-0.714	-0.009	0	155	437	3
2026-02-12	16:16:11.110	10.78	12.915	8.82	0.101992	0.870104	0.392352	1.0275	-0.7155	0.0135	0	155	437	3
2026-02-12	16:16:11.130	3.115	13.58	6.335	0.108092	0.894016	0.371368	1.026	-0.711	0.036	0	155	437	3
2026-02-12	16:16:11.150	-1.575	13.895	0.77	0.133712	0.9028	0.436272	1.041	-0.708	0.0525	0	155	437	3
2026-02-12	16:16:11.170	-9.695	21.35	-8.89	0.087596	0.915976	0.460672	1.041	-0.708	0.0525	0	155	437	3
2026-02-12	16:16:11.190	-44.45	26.25	-19.95	0.055144	0.988688	0.488	1.041	-0.708	0.0525	0	155	437	3
2026-02-12	16:16:11.210	-84.98	30.73	-33.67	0.230092	0.820572	0.477996	1.0665	-0.7155	-0.0285	0	158	441	3
2026-02-12	16:16:11.230	-77.77	40.74	-24.185	0.118584	0.663436	0.13298	1.1175	-0.7185	-0.174	0	158	441	3
2026-02-12	16:16:11.250	-22.715	9.8	-10.115	0.17446	0.872056	0.417728	1.1565	-0.7185	-0.2655	0	158	441	3
2026-02-12	16:16:11.270	22.085	9.31	-13.93	0.122976	0.81252	0.388448	1.167	-0.7275	-0.288	0	158	441	3
2026-02-12	16:16:11.290	37.205	1.155	-14.91	0.159576	0.924516	0.4636	1.17	-0.735	-0.285	0	158	441	3
2026-02-12	16:16:11.310	20.335	0.805	-19.81	0.155184	0.896456	0.573156	1.167	-0.732	-0.27	0	158	441	3
2026-02-12	16:16:11.330	5.46	0.63	-21.7	0.10614	0.84424	0.436272	1.1655	-0.72	-0.255	0	158	441	3
2026-02-12	16:16:11.350	19.565	-8.365	-17.64	0.091256	0.9394	0.441152	1.1745	-0.7095	-0.258	0	158	441	3
2026-02-12	16:16:11.370	27.37	-21.525	-16.8	0.144936	0.99064	0.714188	1.182	-0.6945	-0.2445	0	158	441	3
2026-02-12	16:16:11.390	32.62	-23.59	-14.21	0.058316	0.991616	0.606584	1.1625	-0.675	-0.2205	0	158	441	3
2026-02-12	16:16:11.410	16.31	-24.71	-11.725	0.062708	1.082872	0.574132	1.1415	-0.666	-0.201	0	159	444	3
2026-02-12	16:16:11.430	-10.15	-29.4	-14.525	0.104188	1.058228	0.5246	1.1415	-0.669	-0.1905	0	159	444	3
2026-02-12	16:16:11.450	-19.145	-38.22	-13.895	0.09394	1.039684	0.566812	1.1385	-0.6615	-0.195	0	159	444	3
2026-02-12	16:16:11.470	-10.36	-43.33	-7.35	0.145668	1.021628	0.6405	1.1295	-0.6375	-0.2085	0	159	444	3
2026-02-12	16:16:11.490	2.975	-41.055	4.06	0.083448	1.02602	0.614636	1.1115	-0.618	-0.207	0	159	444	3
2026-02-12	16:16:11.510	-1.12	-40.39	9.695	0.025864	0.999668	0.598532	1.098	-0.6165	-0.189	0	159	444	3
2026-02-12	16:16:11.530	6.3	-41.72	13.755	-0.001708	0.997716	0.618296	1.0845	-0.6195	-0.165	0	159	444	3
2026-02-12	16:16:11.550	5.25	-44.975	14.07	-0.044408	0.945012	0.652456	1.0695	-0.621	-0.1395	0	159	444	3
2026-02-12	16:16:11.570	13.125	-43.085	14.42	-0.06466	0.947208	0.561688	1.0605	-0.627	-0.114	0	159	444	3
2026-02-12	16:16:11.590	9.24	-48.23	13.72	-0.052704	0.87474	0.378444	1.0485	-0.6405	-0.09	0	159	444	3
2026-02-12	16:16:11.610	-1.995	-61.74	13.405	-0.030988	0.822036	0.496784	1.035	-0.642	-0.063	0	160	461	3
2026-02-12	16:16:11.630	-6.265	-62.055	11.795	-0.031476	0.82106	0.683444	1.029	-0.6345	-0.0465	0	160	461	3
2026-02-12	16:16:11.650	-6.37	-41.86	8.295	-0.031476	0.842044	0.597312	1.029	-0.6345	-0.0465	0	160	461	3
2026-02-12	16:16:11.670	-12.11	-31.64	2.59	-0.052704	0.809836	0.48922	0.9945	-0.6225	0.018	0	160	461	3
2026-02-12	16:16:11.690	-10.255	-30.52	-0.49	-0.024644	0.806176	0.536556	0.9945	-0.6225	0.018	0	160	461	3
2026-02-12	16:16:11.710	-1.61	-20.825	-6.965	-0.000244	0.740052	0.57584	0.966	-0.624	0.0195	0	160	461	3
2026-02-12	16:16:11.730	1.82	-4.655	-9.975	0.01952	0.750788	0.459208	0.9795	-0.6105	0.027	0	160	461	3
2026-02-12	16:16:11.750	-5.32	-1.4	-12.005	0.01098	0.780556	0.373076	0.987	-0.612	0.021	0	160	461	3
2026-02-12	16:16:11.770	-2.17	-6.475	-15.995	0.025864	0.75762	0.339404	1.005	-0.6225	-0.0015	0	160	461	3
2026-02-12	16:16:11.790	15.015	-14.735	-17.78	0.030988	0.813496	0.398208	1.0155	-0.642	-0.003	0	160	461	3
2026-02-12	16:16:11.810	21.63	-17.57	-19.845	0.07442	0.8235	0.496296	1.0215	-0.645	0.009	0	161	482	3
2026-02-12	16:16:11.830	17.29	-12.6	-20.265	0.092964	0.813496	0.471408	1.017	-0.636	0.015	0	161	482	3
2026-02-12	16:16:11.850	12.88	-8.785	-20.755	0.117852	0.82106	0.41358	1.029	-0.636	0.036	0	161	482	3
2026-02-12	16:16:11.870	8.645	-8.4	-19.74	0.105164	0.893772	0.41114	1.0335	-0.6465	0.033	0	161	482	3
2026-02-12	16:16:11.890	6.825	-4.445	-21.385	0.145668	0.88328	0.476776	1.032	-0.6405	0.0315	0	161	482	3
2026-02-12	16:16:11.910	0.035	2.555	-18.795	0.155672	0.88572	0.504592	1.0215	-0.6285	0.045	0	161	482	3
2026-02-12	16:16:11.930	-2.87	8.645	-10.78	0.17324	0.892308	0.450424	1.02	-0.627	0.03	0	161	482	3
2026-02-12	16:16:11.950	4.445	5.355	-2.87	0.160552	0.978196	0.438712	1.029	-0.633	0.027	0	161	482	3
2026-02-12	16:16:11.970	9.485	5.005	0.98	0.139568	0.999424	0.482632	1.0335	-0.636	0.0075	0	161	482	3
2026-02-12	16:16:11.990	7.49	8.12	5.845	0.130784	0.960384	0.538996	1.0305	-0.636	0.0045	0	161	482	3
2026-02-12	16:16:12.010	8.225	14.805	11.83	0.098332	1.045784	0.539728	1.0185	-0.636	-0.0045	0	161	491	3
2026-02-12	16:16:12.030	8.68	18.025	13.055	0.061976	1.11508	0.586332	1.032	-0.639	-0.009	0	161	491	3
2026-02-12	16:16:12.050	6.615	25.375	11.34	-0.00488	1.169248	0.615368	1.0515	-0.6435	0.003	0	161	491	3
2026-02-12	16:16:12.070	-2.31	29.47	6.545	0.039528	1.238544	0.520696	1.0485	-0.6585	-0.0045	0	161	491	3
2026-02-12	16:16:12.090	-8.645	32.06	-0.98	0.076372	1.247084	0.539728	1.0575	-0.6855	-0.006	0	161	491	3
2026-02-12	16:16:12.110	-6.335	32.48	-7.945	0.059536	1.08458	0.505568	1.077	-0.702	-0.03	0	161	491	3
2026-02-12	16:16:12.130	6.09	26.18	-2.625	0.000488	0.945012	0.496296	1.0995	-0.7035	-0.048	0	161	491	3
2026-02-12	16:16:12.150	20.895	15.26	8.225	-0.052948	0.865224	0.55388	1.0845	-0.7125	-0.0585	0	161	491	3
2026-02-12	16:16:12.170	21.105	5.6	16.38	-0.09076799	0.83936	0.630984	1.077	-0.7035	-0.039	0	161	491	3
2026-02-12	16:16:12.190	4.865	5.39	20.02	-0.09394	0.728828	0.565104	1.053	-0.6915	-0.009	0	161	491	3
2026-02-12	16:16:12.210	-6.79	4.06	25.9	-0.121512	0.716628	0.477508	1.0185	-0.66	0.006	0	161	497	3
2026-02-12	16:16:12.230	-3.255	-1.365	33.845	-0.1098	0.708332	0.441884	1.047	-0.6495	0.0135	0	161	497	3
2026-02-12	16:16:12.250	12.145	-3.43	39.375	-0.090524	0.757376	0.471896	1.0125	-0.63	0.003	0	161	497	3
2026-02-12	16:16:12.270	22.89	1.645	40.18	-0.0732	0.841556	0.45506	0.993	-0.6225	0.0285	0	161	497	3
2026-02-12	16:16:12.290	24.15	9.59	37.31	-0.041724	0.911584	0.423828	0.966	-0.6165	0.066	0	161	497	3
2026-02-12	16:16:12.310	22.75	15.96	30.52	0.01464	0.978928	0.383568	0.963	-0.6075	0.0915	0	161	497	3
2026-02-12	16:16:12.330	17.815	20.37	22.085	0.068076	0.944768	0.361364	0.963	-0.6195	0.108	0	161	497	3
2026-02-12	16:16:12.350	18.27	21.91	19.845	0.09516	0.909876	0.27572	0.9555	-0.627	0.1155	0	161	497	3
2026-02-12	16:16:12.370	30.205	17.605	22.47	0.12932	0.984784	0.264252	0.963	-0.642	0.126	0	161	497	3
2026-02-12	16:16:12.390	30.625	11.13	18.41	0.134932	0.980148	0.399672	0.963	-0.642	0.126	0	161	497	3
2026-02-12	16:16:12.410	23.94	14.245	12.635	0.168604	0.909144	0.391376	0.963	-0.642	0.126	0	162	496	3
2026-02-12	16:16:12.430	7.385	17.08	10.99	0.199104	0.818376	0.338428	0.9555	-0.6435	0.1665	0	162	496	3
2026-02-12	16:16:12.450	-3.535	18.27	11.97	0.165676	0.795928	0.390888	0.948	-0.636	0.2025	0	162	496	3
2026-02-12	16:16:12.470	-2.94	20.93	14.805	0.179828	0.793	0.278892	0.936	-0.6285	0.1995	0	162	496	3
2026-02-12	16:16:12.490	-2.94	13.23	17.395	0.183488	0.852048	0.32574	0.9225	-0.6285	0.204	0	162	496	3
2026-02-12	16:16:12.510	-0.875	8.505	16.52	0.216672	0.843264	0.366976	0.9135	-0.621	0.21	0	162	496	3
2026-02-12	16:16:12.530	4.655	11.27	17.045	0.23058	0.862052	0.385276	0.909	-0.6075	0.2175	0	162	496	3
2026-02-12	16:16:12.550	6.72	14.84	18.935	0.260348	0.8845	0.313296	0.9135	-0.6	0.219	0	162	496	3
2026-02-12	16:16:12.570	2.835	9.52	18.725	0.268156	0.906948	0.383568	0.9165	-0.6015	0.222	0	162	496	3
2026-02-12	16:16:12.590	9.45	13.615	17.325	0.285968	0.892552	0.315492	0.921	-0.6015	0.2175	0	162	496	3
2026-02-12	16:16:12.610	13.825	9.975	19.495	0.279136	0.894992	0.222528	0.9405	-0.6075	0.2145	0	164	477	3
