yyyy-MM-dd	HH:mm:ss.fff	gyrX	gyrY	gyrZ	accX	accY	accZ	magX	magY	magZ	Marker	Energy	Angle	Classification
2026-02-12	16:15:37.210	-6.755	-10.01	-57.47	0.060268	-0.106628	0.0671	0.1485	-0.372	0.249	0	711	192	3
2026-02-12	16:15:37.230	0.98	-15.68	-12.88	0.0122	-0.094428	0.072224	0.162	-0.369	0.252	0	711	192	3
2026-02-12	16:15:37.250	5.39	-21.42	32.235	-0.008296	-0.039284	0.06954	0.159	-0.3555	0.2535	0	711	192	3
2026-02-12	16:15:37.270	5.425	-26.565	77.98	0.007808	0.021472	0.062464	0.1575	-0.36	0.246	0	711	192	3
2026-02-12	16:15:37.290	3.92	-32.235	122.71	0.033184	0.052216	0.066124	0.147	-0.3675	0.2475	0	711	192	3
2026-02-12	16:15:37.310	4.515	-38.955	166.215	0.073932	0.055876	0.061732	0.1275	-0.36	0.249	0	711	192	3
2026-02-12	16:15:37.330	12.495	-46.025	208.845	0.157136	0.07808	0.061976	0.1035	-0.36	0.2505	0	711	192	3
2026-02-12	16:15:37.350	23.38	-53.515	259.42	0.35746	0.274744	0.119316	0.0675	-0.3675	0.255	0	711	192	3
2026-02-12	16:15:37.370	23.66	-58.905	303.485	0.57462	0.52704	0.186172	0.0525	-0.3675	0.2565	0	711	192	3
2026-02-12	16:15:37.390	17.43	-63.245	330.715	0.738588	0.640012	0.228384	-0.03	-0.3525	0.264	0	711	192	3
2026-02-12	16:15:37.410	3.605	-67.55	353.675	0.892308	0.63806	0.217404	-0.0825	-0.3435	0.2655	0	701	177	3
2026-02-12	16:15:37.430	-22.085	-74.865	374.78	1.164612	0.612196	0.270596	-0.129	-0.3195	0.2805	0	701	177	3
2026-02-12	16:15:37.450	-42.035	-80.71	374.01	1.527684	0.55754	0.314516	-0.174	-0.297	0.279	0	701	177	3
2026-02-12	16:15:37.470	-25.795	-75.6	371.245	1.502796	0.503616	0.320616	-0.2025	-0.261	0.2865	0	701	177	3
2026-02-12	16:15:37.490	10.465	-82.005	380.905	1.711172	0.485804	0.310368	-0.249	-0.2265	0.294	0	701	177	3
2026-02-12	16:15:37.510	53.025	-83.93	390.565	2.009828	0.562908	0.3233	-0.267	-0.2025	0.297	0	701	177	3
2026-02-12	16:15:37.530	87.605	-71.505	399.63	2.16916	0.517768	0.40748	-0.3	-0.1545	0.315	0	701	177	3
2026-02-12	16:15:37.550	109.34	-53.445	396.27	2.336788	0.450668	0.437492	-0.318	-0.099	0.3315	0	701	177	3
2026-02-12	16:15:37.570	128.52	-23.135	390.145	2.322148	0.555344	0.386496	-0.3315	-0.042	0.345	0	701	177	3
2026-02-12	16:15:37.590	128.485	5.53	371.385	2.234308	0.550952	0.289872	-0.3405	0.012	0.3555	0	701	177	3
2026-02-12	16:15:37.610	124.95	28.42	333.41	1.955904	0.484584	0.226676	-0.333	0.0735	0.357	0	699	178	3
2026-02-12	16:15:37.630	122.115	35.245	285.915	1.594784	0.637084	0.243024	-0.324	0.1245	0.3555	0	699	178	3
2026-02-12	16:15:37.650	102.655	31.605	223.58	1.345904	0.493612	0.317932	-0.315	0.168	0.348	0	699	178	3
2026-02-12	16:15:37.670	80.99	23.73	163.275	1.238788	0.470676	0.305732	-0.309	0.1905	0.3435	0	699	178	3
2026-02-12	16:15:37.690	46.305	13.72	122.29	1.197552	0.388936	0.23546	-0.2805	0.246	0.3255	0	699	178	3
2026-02-12	16:15:37.710	-1.015	3.395	90.055	1.193404	0.480924	0.206668	-0.2685	0.2685	0.333	0	699	178	3
2026-02-12	16:15:37.730	-44.345	-1.995	63.07	1.121668	0.539728	0.163724	-0.2595	0.279	0.3195	0	699	178	3
2026-02-12	16:15:37.750	-74.83	-4.48	45.045	1.05652	0.527772	0.128832	-0.261	0.2835	0.3285	0	699	178	3
2026-02-12	16:15:37.770	-83.86	-5.32	32.13	0.977464	0.490928	0.134932	-0.252	0.2895	0.336	0	699	178	3
2026-02-12	16:15:37.790	-75.88	-5.005	22.47	0.88694	0.415776	0.14274	-0.2505	0.2955	0.3435	0	699	178	3
2026-02-12	16:15:37.810	-58.275	-4.025	15.715	0.811788	0.378932	0.158356	-0.249	0.3	0.3465	0	698	193	3
2026-02-12	16:15:37.830	-39.795	-2.66	11.06	0.776652	0.35502	0.174948	-0.243	0.2985	0.3495	0	698	193	3
2026-02-12	16:15:37.850	-24.01	-0.42	5.775	0.766648	0.38186	0.18544	-0.2445	0.297	0.3615	0	698	193	3
2026-02-12	16:15:37.870	-14.175	1.96	-2.205	0.786412	0.419192	0.180804	-0.237	0.2925	0.36	0	698	193	3
2026-02-12	16:15:37.890	-11.165	4.305	-13.755	0.826428	0.432612	0.170312	-0.246	0.291	0.366	0	698	193	3
2026-02-12	16:15:37.910	-14.42	5.635	-28.28	0.871324	0.41846	0.167384	-0.249	0.3015	0.3645	0	698	193	3
2026-02-12	16:15:37.930	-19.67	5.915	-45.01	0.921344	0.3904	0.1769	-0.249	0.2955	0.3705	0	698	193	3
2026-02-12	16:15:37.950	-23.45	5.88	-63.245	0.994544	0.369172	0.196664	-0.2505	0.285	0.3645	0	698	193	3
2026-02-12	16:15:37.970	-19.565	5.95	-91.84	1.126548	0.306464	0.213256	-0.252	0.2745	0.3555	0	698	193	3
2026-02-12	16:15:37.990	-10.045	5.39	-113.4	1.24196	0.243268	0.20618	-0.264	0.264	0.36	0	698	193	3
2026-02-12	16:15:36.010	-76.44	-5.775	-70.98	0.093208	-0.193736	-0.066124	0.1425	-0.351	0.174	0	793	197	3
2026-02-12	16:15:36.030	-38.185	-24.955	-21.175	0.03904	-0.226188	-0.091988	0.1545	-0.3465	0.159	0	793	197	3
2026-02-12	16:15:36.050	-4.13	-44.835	30.03	0.040748	-0.205448	-0.068076	0.1605	-0.345	0.1545	0	793	197	3
2026-02-12	16:15:36.070	18.83	-62.685	79.66	0.08052	-0.133712	-0.029036	0.1485	-0.3465	0.153	0	793	197	3
2026-02-12	16:15:36.090	34.685	-77.14	126.525	0.139812	-0.04636	0.02562	0.1365	-0.348	0.153	0	793	197	3
2026-02-12	16:15:36.110	45.01	-88.165	170.31	0.202276	0.037576	0.064172	0.123	-0.3495	0.1545	0	793	197	3
2026-02-12	16:15:36.130	54.25	-101.01	232.715	0.333792	0.11712	0.096868	0.111	-0.3525	0.156	0	793	197	3
2026-02-12	16:15:36.150	64.855	-107.66	273.21	0.500688	0.254004	0.139324	0.111	-0.3525	0.156	0	793	197	3
2026-02-12	16:15:36.170	69.23	-110.985	308.105	0.710528	0.557296	0.247172	-0.006	-0.354	0.189	0	793	197	3
2026-02-12	16:15:36.190	62.51	-113.715	338.38	0.85766	0.587796	0.24888	-0.054	-0.3405	0.1935	0	793	197	3
2026-02-12	16:15:36.210	55.685	-114.555	358.19	1.044564	0.489708	0.249368	-0.105	-0.3315	0.216	0	781	186	3
2026-02-12	16:15:36.230	39.725	-116.095	374.955	1.318088	0.588772	0.289628	-0.1485	-0.3	0.225	0	781	186	3
2026-02-12	16:15:36.250	38.15	-118.895	388.85	1.636264	0.569008	0.288652	-0.195	-0.2685	0.246	0	781	186	3
2026-02-12	16:15:36.270	68.39	-113.365	391.44	1.867332	0.478972	0.314516	-0.243	-0.2415	0.2595	0	781	186	3
2026-02-12	16:15:36.290	107.065	-103.495	401.205	2.077416	0.491416	0.35868	-0.2715	-0.1905	0.2805	0	781	186	3
2026-02-12	16:15:36.310	136.99	-90.685	408.275	2.277984	0.506056	0.408944	-0.3075	-0.138	0.303	0	781	186	3
2026-02-12	16:15:36.330	166.075	-68.285	412.545	2.455128	0.496052	0.3904	-0.3225	-0.084	0.3255	0	781	186	3
2026-02-12	16:15:36.350	189.945	-39.13	403.655	2.451712	0.536556	0.366732	-0.3345	-0.018	0.3435	0	781	186	3
2026-02-12	16:15:36.370	188.895	-8.75	387.24	2.363872	0.613416	0.396988	-0.339	0.0405	0.3555	0	781	186	3
2026-02-12	16:15:36.390	171.465	20.195	349.44	2.081808	0.637572	0.317688	-0.3375	0.0705	0.3585	0	781	186	3
2026-02-12	16:15:36.410	149.59	37.87	302.96	1.758752	0.677832	0.27816	-0.3315	0.126	0.357	0	775	186	3
2026-02-12	16:15:36.430	94.675	34.615	236.67	1.431548	0.57828	0.286944	-0.315	0.1725	0.3465	0	775	186	3
2026-02-12	16:15:36.450	49.525	26.495	176.015	1.281244	0.464576	0.316712	-0.303	0.195	0.342	0	775	186	3
2026-02-12	16:15:36.470	21.315	17.99	133.28	1.230736	0.407724	0.270596	-0.2715	0.252	0.324	0	775	186	3
2026-02-12	16:15:36.490	1.155	11.585	100.66	1.168516	0.421632	0.221796	-0.2625	0.276	0.321	0	775	186	3
2026-02-12	16:15:36.510	-11.515	6.3	75.285	1.11752	0.439444	0.177632	-0.2565	0.2805	0.327	0	775	186	3
2026-02-12	16:15:36.530	-16.975	3.57	57.19	1.056032	0.471652	0.154208	-0.255	0.294	0.3255	0	775	186	3
2026-02-12	16:15:36.550	-17.395	4.2	44.695	0.965996	0.476532	0.137372	-0.243	0.3045	0.324	0	775	186	3
2026-02-12	16:15:36.570	-14.98	5.25	34.44	0.889868	0.487756	0.127612	-0.237	0.315	0.321	0	775	186	3
2026-02-12	16:15:36.590	-8.47	6.79	25.655	0.804468	0.482632	0.126148	-0.231	0.3165	0.321	0	775	186	3
2026-02-12	16:15:36.610	-7.525	7.14	17.36	0.754204	0.487756	0.132736	-0.228	0.321	0.3315	0	769	200	3
2026-02-12	16:15:36.630	-12.145	6.265	7.735	0.743712	0.46116	0.155672	-0.231	0.3225	0.324	0	769	200	3
2026-02-12	16:15:36.650	-15.365	7.07	-3.745	0.75518	0.476044	0.15372	-0.2265	0.3255	0.3225	0	769	200	3
2026-02-12	16:15:36.670	-24.08	5.39	-18.795	0.80642	0.45872	0.153476	-0.234	0.324	0.3285	0	769	200	3
2026-02-12	16:15:36.690	-35.245	3.64	-35.84	0.870836	0.44164	0.166164	-0.228	0.3165	0.33	0	769	200	3
2026-02-12	16:15:36.710	-42.49	2.975	-54.11	0.9455	0.41114	0.184708	-0.228	0.3195	0.3315	0	769	200	3
2026-02-12	16:15:36.730	-42.7	2.415	-72.835	1.020164	0.36234	0.170312	-0.24	0.315	0.3315	0	769	200	3
2026-02-12	16:15:36.750	-27.86	1.4	-104.335	1.12484	0.372344	0.1525	-0.24	0.315	0.3315	0	769	200	3
2026-02-12	16:15:36.770	-12.215	-0.21	-127.995	1.193404	0.377468	0.133712	-0.2505	0.2925	0.3375	0	769	200	3
2026-02-12	16:15:36.790	12.075	-4.305	-158.865	1.298324	0.438468	0.113948	-0.267	0.261	0.342	0	769	200	3
2026-02-12	16:15:36.810	42.35	-9.87	-195.16	1.388604	0.461404	0.119804	-0.282	0.2445	0.3375	0	753	203	3
2026-02-12	16:15:36.830	74.34	-20.055	-236.075	1.526952	0.563152	0.13664	-0.297	0.2175	0.336	0	753	203	3
2026-02-12	16:15:36.850	92.715	-32.235	-274.715	1.709952	0.732976	0.199592	-0.312	0.186	0.3345	0	753	203	3
2026-02-12	16:15:36.870	93.695	-49.56	-323.54	2.027152	0.903532	0.202032	-0.324	0.153	0.333	0	753	203	3
2026-02-12	16:15:36.890	81.935	-58.695	-362.565	2.199172	1.001132	0.1891	-0.333	0.111	0.3375	0	753	203	3
2026-02-12	16:15:36.910	40.845	-67.55	-397.005	2.360212	1.13338	0.195932	-0.3375	0.057	0.339	0	753	203	3
2026-02-12	16:15:36.930	-6.79	-65.24	-422.24	2.370216	1.100684	0.2074	-0.336	0.03	0.3375	0	753	203	3
2026-02-12	16:15:36.950	-39.165	-55.51	-438.13	2.243824	1.0614	0.191052	-0.33	-0.018	0.351	0	753	203	3
2026-02-12	16:15:36.970	-60.935	-46.795	-450.135	2.109136	0.809836	0.213744	-0.3135	-0.093	0.363	0	753	203	3
2026-02-12	16:15:36.990	-63.49	-26.985	-451.78	1.669692	0.866688	0.245708	-0.291	-0.1395	0.36	0	753	203	3
2026-02-12	16:15:37.010	-83.195	-20.475	-435.26	1.476932	0.69052	0.220332	-0.2565	-0.2055	0.354	0	730	200	3
2026-02-12	16:15:37.030	-88.97	-8.295	-414.155	1.235372	0.55022	0.224236	-0.2145	-0.2475	0.351	0	730	200	3
2026-02-12	16:15:37.050	-98.49	6.09	-375.69	0.91988	0.436272	0.2013	-0.162	-0.282	0.3345	0	730	200	3
2026-02-12	16:15:37.070	-105.035	12.53	-346.745	0.770308	0.257176	0.185928	-0.1125	-0.312	0.3255	0	730	200	3
2026-02-12	16:15:37.090	-96.81	17.675	-313.6	0.583892	0.126636	0.142496	-0.045	-0.348	0.3015	0	730	200	3
2026-02-12	16:15:37.110	-80.08	17.71	-276.045	0.471896	0.07442	0.092476	0	-0.3585	0.285	0	730	200	3
2026-02-12	16:15:37.130	-59.325	15.33	-236.075	0.36844	0.036844	0.071492	0.0465	-0.366	0.2715	0	730	200	3
2026-02-12	16:15:37.150	-40.565	9.415	-191.59	0.290116	0.00122	0.060512	0.087	-0.3705	0.2595	0	730	200	3
2026-02-12	16:15:37.170	-26.285	3.045	-146.265	0.20496	-0.051484	0.073444	0.1155	-0.369	0.2565	0	730	200	3
2026-02-12	16:15:37.190	-15.995	-3.43	-101.29	0.121512	-0.089792	0.07808	0.1305	-0.366	0.255	0	730	200	3
2026-02-12	16:15:37.210	-6.755	-10.01	-57.47	0.060268	-0.106628	0.0671	0.1485	-0.372	0.249	0	711	192	3
2026-02-12	16:15:37.230	0.98	-15.68	-12.88	0.0122	-0.094428	0.072224	0.162	-0.369	0.252	0	711	192	3
2026-02-12	16:15:37.250	5.39	-21.42	32.235	-0.008296	-0.039284	0.06954	0.159	-0.3555	0.2535	0	711	192	3
2026-02-12	16:15:37.270	5.425	-26.565	77.98	0.007808	0.021472	0.062464	0.1575	-0.36	0.246	0	711	192	3
2026-02-12	16:15:37.290	3.92	-32.235	122.71	0.033184	0.052216	0.066124	0.147	-0.3675	0.2475	0	711	192	3
2026-02-12	16:15:37.310	4.515	-38.955	166.215	0.073932	0.055876	0.061732	0.1275	-0.36	0.249	0	711	192	3
2026-02-12	16:15:37.330	12.495	-46.025	208.845	0.157136	0.07808	0.061976	0.1035	-0.36	0.2505	0	711	192	3
2026-02-12	16:15:37.350	23.38	-53.515	259.42	0.35746	0.274744	0.119316	0.0675	-0.3675	0.255	0	711	192	3
2026-02-12	16:15:37.370	23.66	-58.905	303.485	0.57462	0.52704	0.186172	0.0525	-0.3675	0.2565	0	711	192	3
2026-02-12	16:15:37.390	17.43	-63.245	330.715	0.738588	0.640012	0.228384	-0.03	-0.3525	0.264	0	711	192	3
2026-02-12	16:15:37.410	3.605	-67.55	353.675	0.892308	0.63806	0.217404	-0.0825	-0.3435	0.2655	0	701	177	3
2026-02-12	16:15:37.430	-22.085	-74.865	374.78	1.164612	0.612196	0.270596	-0.129	-0.3195	0.2805	0	701	177	3
2026-02-12	16:15:37.450	-42.035	-80.71	374.01	1.527684	0.55754	0.314516	-0.174	-0.297	0.279	0	701	177	3
2026-02-12	16:15:37.470	-25.795	-75.6	371.245	1.502796	0.503616	0.320616	-0.2025	-0.261	0.2865	0	701	177	3
2026-02-12	16:15:37.490	10.465	-82.005	380.905	1.711172	0.485804	0.310368	-0.249	-0.2265	0.294	0	701	177	3
2026-02-12	16:15:37.510	53.025	-83.93	390.565	2.009828	0.562908	0.3233	-0.267	-0.2025	0.297	0	701	177	3
2026-02-12	16:15:37.530	87.605	-71.505	399.63	2.16916	0.517768	0.40748	-0.3	-0.1545	0.315	0	701	177	3
2026-02-12	16:15:37.550	109.34	-53.445	396.27	2.336788	0.450668	0.437492	-0.318	-0.099	0.3315	0	701	177	3
2026-02-12	16:15:37.570	128.52	-23.135	390.145	2.322148	0.555344	0.386496	-0.3315	-0.042	0.345	0	701	177	3
2026-02-12	16:15:37.590	128.485	5.53	371.385	2.234308	0.550952	0.289872	-0.3405	0.012	0.3555	0	701	177	3
2026-02-12	16:15:37.610	124.95	28.42	333.41	1.955904	0.484584	0.226676	-0.333	0.0735	0.357	0	699	178	3
2026-02-12	16:15:37.630	122.115	35.245	285.915	1.594784	0.637084	0.243024	-0.324	0.1245	0.3555	0	699	178	3
2026-02-12	16:15:37.650	102.655	31.605	223.58	1.345904	0.493612	0.317932	-0.315	0.168	0.348	0	699	178	3
2026-02-12	16:15:37.670	80.99	23.73	163.275	1.238788	0.470676	0.305732	-0.309	0.1905	0.3435	0	699	178	3
2026-02-12	16:15:37.690	46.305	13.72	122.29	1.197552	0.388936	0.23546	-0.2805	0.246	0.3255	0	699	178	3
2026-02-12	16:15:37.710	-1.015	3.395	90.055	1.193404	0.480924	0.206668	-0.2685	0.2685	0.333	0	699	178	3
2026-02-12	16:15:37.730	-44.345	-1.995	63.07	1.121668	0.539728	0.163724	-0.2595	0.279	0.3195	0	699	178	3
2026-02-12	16:15:37.750	-74.83	-4.48	45.045	1.05652	0.527772	0.128832	-0.261	0.2835	0.3285	0	699	178	3
2026-02-12	16:15:37.770	-83.86	-5.32	32.13	0.977464	0.490928	0.134932	-0.252	0.2895	0.336	0	699	178	3
2026-02-12	16:15:37.790	-75.88	-5.005	22.47	0.88694	0.415776	0.14274	-0.2505	0.2955	0.3435	0	699	178	3
2026-02-12	16:15:37.810	-58.275	-4.025	15.715	0.811788	0.378932	0.158356	-0.249	0.3	0.3465	0	698	193	3
2026-02-12	16:15:37.830	-39.795	-2.66	11.06	0.776652	0.35502	0.174948	-0.243	0.2985	0.3495	0	698	193	3
2026-02-12	16:15:37.850	-24.01	-0.42	5.775	0.766648	0.38186	0.18544	-0.2445	0.297	0.3615	0	698	193	3
2026-02-12	16:15:37.870	-14.175	1.96	-2.205	0.786412	0.419192	0.180804	-0.237	0.2925	0.36	0	698	193	3
2026-02-12	16:15:37.890	-11.165	4.305	-13.755	0.826428	0.432612	0.170312	-0.246	0.291	0.366	0	698	193	3
2026-02-12	16:15:37.910	-14.42	5.635	-28.28	0.871324	0.41846	0.167384	-0.249	0.3015	0.3645	0	698	193	3
2026-02-12	16:15:37.930	-19.67	5.915	-45.01	0.921344	0.3904	0.1769	-0.249	0.2955	0.3705	0	698	193	3
2026-02-12	16:15:37.950	-23.45	5.88	-63.245	0.994544	0.369172	0.196664	-0.2505	0.285	0.3645	0	698	193	3
2026-02-12	16:15:37.970	-19.565	5.95	-91.84	1.126548	0.306464	0.213256	-0.252	0.2745	0.3555	0	698	193	3
2026-02-12	16:15:37.990	-10.045	5.39	-113.4	1.24196	0.243268	0.20618	-0.264	0.264	0.36	0	698	193	3
2026-02-12	16:15:36.010	-76.44	-5.775	-70.98	0.093208	-0.193736	-0.066124	0.1425	-0.351	0.174	0	793	197	3
2026-02-12	16:15:36.030	-38.185	-24.955	-21.175	0.03904	-0.226188	-0.091988	0.1545	-0.3465	0.159	0	793	197	3
2026-02-12	16:15:36.050	-4.13	-44.835	30.03	0.040748	-0.205448	-0.068076	0.1605	-0.345	0.1545	0	793	197	3
2026-02-12	16:15:36.070	18.83	-62.685	79.66	0.08052	-0.133712	-0.029036	0.1485	-0.3465	0.153	0	793	197	3
2026-02-12	16:15:36.090	34.685	-77.14	126.525	0.139812	-0.04636	0.02562	0.1365	-0.348	0.153	0	793	197	3
2026-02-12	16:15:36.110	45.01	-88.165	170.31	0.202276	0.037576	0.064172	0.123	-0.3495	0.1545	0	793	197	3
2026-02-12	16:15:36.130	54.25	-101.01	232.715	0.333792	0.11712	0.096868	0.111	-0.3525	0.156	0	793	197	3
2026-02-12	16:15:36.150	64.855	-107.66	273.21	0.500688	0.254004	0.139324	0.111	-0.3525	0.156	0	793	197	3
2026-02-12	16:15:36.170	69.23	-110.985	308.105	0.710528	0.557296	0.247172	-0.006	-0.354	0.189	0	793	197	3
2026-02-12	16:15:36.190	62.51	-113.715	338.38	0.85766	0.587796	0.24888	-0.054	-0.3405	0.1935	0	793	197	3
2026-02-12	16:15:36.210	55.685	-114.555	358.19	1.044564	0.489708	0.249368	-0.105	-0.3315	0.216	0	781	186	3
2026-02-12	16:15:36.230	39.725	-116.095	374.955	1.318088	0.588772	0.289628	-0.1485	-0.3	0.225	0	781	186	3
2026-02-12	16:15:36.250	38.15	-118.895	388.85	1.636264	0.569008	0.288652	-0.195	-0.2685	0.246	0	781	186	3
2026-02-12	16:15:36.270	68.39	-113.365	391.44	1.867332	0.478972	0.314516	-0.243	-0.2415	0.2595	0	781	186	3
2026-02-12	16:15:36.290	107.065	-103.495	401.205	2.077416	0.491416	0.35868	-0.2715	-0.1905	0.2805	0	781	186	3
2026-02-12	16:15:36.310	136.99	-90.685	408.275	2.277984	0.506056	0.408944	-0.3075	-0.138	0.303	0	781	186	3
2026-02-12	16:15:36.330	166.075	-68.285	412.545	2.455128	0.496052	0.3904	-0.3225	-0.084	0.3255	0	781	186	3
2026-02-12	16:15:36.350	189.945	-39.13	403.655	2.451712	0.536556	0.366732	-0.3345	-0.018	0.3435	0	781	186	3
2026-02-12	16:15:36.370	188.895	-8.75	387.24	2.363872	0.613416	0.396988	-0.339	0.0405	0.3555	0	781	186	3
2026-02-12	16:15:36.390	171.465	20.195	349.44	2.081808	0.637572	0.317688	-0.3375	0.0705	0.3585	0	781	186	3
2026-02-12	16:15:36.410	149.59	37.87	302.96	1.758752	0.677832	0.27816	-0.3315	0.126	0.357	0	775	186	3
2026-02-12	16:15:36.430	94.675	34.615	236.67	1.431548	0.57828	0.286944	-0.315	0.1725	0.3465	0	775	186	3
2026-02-12	16:15:36.450	49.525	26.495	176.015	1.281244	0.464576	0.316712	-0.303	0.195	0.342	0	775	186	3
2026-02-12	16:15:36.470	21.315	17.99	133.28	1.230736	0.407724	0.270596	-0.2715	0.252	0.324	0	775	186	3
2026-02-12	16:15:36.490	1.155	11.585	100.66	1.168516	0.421632	0.221796	-0.2625	0.276	0.321	0	775	186	3
2026-02-12	16:15:36.510	-11.515	6.3	75.285	1.11752	0.439444	0.177632	-0.2565	0.2805	0.327	0	775	186	3
2026-02-12	16:15:36.530	-16.975	3.57	57.19	1.056032	0.471652	0.154208	-0.255	0.294	0.3255	0	775	186	3
2026-02-12	16:15:36.550	-17.395	4.2	44.695	0.965996	0.476532	0.137372	-0.243	0.3045	0.324	0	775	186	3
2026-02-12	16:15:36.570	-14.98	5.25	34.44	0.889868	0.487756	0.127612	-0.237	0.315	0.321	0	775	186	3
2026-02-12	16:15:36.590	-8.47	6.79	25.655	0.804468	0.482632	0.126148	-0.231	0.3165	0.321	0	775	186	3
2026-02-12	16:15:52.610	0	-25.585	19.67	-0.355264	0.91622	-0.457744	0.093	-0.3495	0.429	0	355	324	3
2026-02-12	16:15:52.630	-0.245	-22.575	19.39	-0.332816	0.874984	-0.41846	0.093	-0.3495	0.429	0	355	324	3
2026-02-12	16:15:52.650	3.36	-19.67	16.66	-0.336476	0.797636	-0.385032	0.0945	-0.351	0.426	0	355	324	3
2026-02-12	16:15:52.670	6.685	-18.445	12.705	-0.34404	0.752496	-0.350628	0.0915	-0.348	0.4275	0	355	324	3
2026-02-12	16:15:52.690	6.335	-17.85	9.345	-0.36112	0.748836	-0.321836	0.087	-0.3465	0.4245	0	355	324	3
2026-02-12	16:15:52.710	3.29	-17.5	4.865	-0.377956	0.749568	-0.29524	0.0855	-0.3495	0.4215	0	355	324	3
2026-02-12	16:15:52.730	3.01	-16.905	2.625	-0.387716	0.740296	-0.28304	0.0855	-0.3495	0.4215	0	355	324	3
2026-02-12	16:15:52.750	3.08	-16.94	1.015	-0.392108	0.731268	-0.288408	0.084	-0.3495	0.4305	0	355	324	3
2026-02-12	16:15:52.770	1.645	-16.24	0.595	-0.407968	0.730048	-0.299632	0.087	-0.3495	0.438	0	355	324	3
2026-02-12	16:15:52.790	0.14	-15.47	1.12	-0.400648	0.754204	-0.302072	0.0855	-0.3525	0.4365	0	355	324	3
2026-02-12	16:15:52.810	0.315	-14.63	1.82	-0.397232	0.779824	-0.299876	0.0855	-0.351	0.4305	0	324	338	3
2026-02-12	16:15:52.830	0.63	-13.475	1.89	-0.3904	0.801052	-0.288652	0.0885	-0.345	0.4245	0	324	338	3
2026-02-12	16:15:52.850	1.715	-11.165	1.68	-0.386252	0.823256	-0.294508	0.09	-0.3465	0.4245	0	324	338	3
2026-02-12	16:15:52.870	0	-9.03	0.315	-0.386008	0.845704	-0.304268	0.0915	-0.348	0.432	0	324	338	3
2026-02-12	16:15:52.890	-4.585	-8.19	-1.295	-0.392596	0.87474	-0.315004	0.093	-0.348	0.438	0	324	338	3
2026-02-12	16:15:52.910	-9.975	-7.315	-3.01	-0.393328	0.876936	-0.321348	0.0945	-0.351	0.4335	0	324	338	3
2026-02-12	16:15:52.930	-10.885	-5.915	-3.99	-0.396744	0.868396	-0.33306	0.0915	-0.348	0.429	0	324	338	3
2026-02-12	16:15:52.950	-5.285	-3.885	-5.11	-0.390156	0.881084	-0.344772	0.09	-0.3495	0.4245	0	324	338	3
2026-02-12	16:15:52.970	2.52	-1.4	-3.815	-0.38918	0.918416	-0.360144	0.0915	-0.354	0.4275	0	324	338	3
2026-02-12	16:15:52.990	8.925	2.87	0.07	-0.415044	0.954284	-0.39894	0.09	-0.348	0.432	0	324	338	3
2026-02-12	16:15:53.010	12.145	6.93	6.23	-0.453108	1.04676	-0.443592	0.0885	-0.345	0.4335	0	293	343	3
2026-02-12	16:15:53.030	13.475	9.485	12.775	-0.417728	1.125328	-0.472872	0.084	-0.3465	0.4215	0	293	343	3
2026-02-12	16:15:53.050	17.08	12.215	16.695	-0.324764	1.167052	-0.457012	0.0855	-0.3465	0.429	0	293	343	3
2026-02-12	16:15:53.070	20.16	12.215	16.065	-0.238632	1.079944	-0.378444	0.09	-0.342	0.4335	0	293	343	3
2026-02-12	16:15:53.090	18.69	9.59	9.94	-0.210084	0.899628	-0.295728	0.084	-0.342	0.441	0	293	343	3
2026-02-12	16:15:53.110	12.53	5.495	1.54	-0.243756	0.764208	-0.24888	0.0765	-0.345	0.4365	0	293	343	3
2026-02-12	16:15:53.130	0.7	0.875	-4.41	-0.286212	0.735172	-0.255956	0.075	-0.342	0.444	0	293	343	3
2026-02-12	16:15:53.150	-10.29	-3.99	-7.735	-0.316468	0.79544	-0.28792	0.075	-0.3405	0.444	0	293	343	3
2026-02-12	16:15:53.170	-17.045	-6.72	-9.975	-0.334768	0.820328	-0.315736	0.087	-0.3465	0.4425	0	293	343	3
2026-02-12	16:15:53.190	-15.785	-6.405	-9.555	-0.342576	0.888892	-0.33306	0.084	-0.3465	0.4455	0	293	343	3
2026-02-12	16:15:53.210	-11.41	-2.38	-7.49	-0.302316	0.931592	-0.365756	0.081	-0.351	0.4365	0	264	346	3
2026-02-12	16:15:53.230	-0.035	6.405	-7.77	-0.263032	0.992104	-0.430416	0.0795	-0.3405	0.4425	0	264	346	3
2026-02-12	16:15:53.250	9.1	14.35	-10.22	-0.260104	0.983808	-0.464332	0.081	-0.3465	0.438	0	264	346	3
2026-02-12	16:15:53.270	10.185	20.23	-13.475	-0.26474	0.963556	-0.439688	0.087	-0.3435	0.441	0	264	346	3
2026-02-12	16:15:53.290	7.525	25.41	-19.39	-0.257176	0.89304	-0.334524	0.087	-0.342	0.4425	0	264	346	3
2026-02-12	16:15:53.310	5.285	25.795	-23.45	-0.278648	0.800076	-0.280356	0.087	-0.3435	0.4455	0	264	346	3
2026-02-12	16:15:53.330	4.305	23.975	-24.955	-0.326716	0.750788	-0.227896	0.0945	-0.348	0.444	0	264	346	3
2026-02-12	16:15:53.350	2.66	20.195	-22.89	-0.353312	0.729072	-0.188612	0.1005	-0.3495	0.4395	0	264	346	3
2026-02-12	16:15:53.370	1.19	15.155	-18.9	-0.375516	0.728828	-0.177388	0.0975	-0.3375	0.4455	0	264	346	3
2026-02-12	16:15:53.390	1.785	10.43	-14.105	-0.3843	0.769088	-0.171044	0.093	-0.3405	0.4425	0	264	346	3
2026-02-12	16:15:53.410	0.56	7.175	-10.01	-0.383324	0.791292	-0.171532	0.093	-0.339	0.4485	0	239	345	3
2026-02-12	16:15:53.430	-3.43	6.44	-6.79	-0.39284	0.787388	-0.208376	0.093	-0.3435	0.4485	0	239	345	3
2026-02-12	16:15:53.450	-4.62	6.93	-4.095	-0.3965	0.786168	-0.23912	0.096	-0.342	0.441	0	239	345	3
2026-02-12	16:15:53.470	-2.8	7.84	-1.925	-0.398452	0.8174	-0.255468	0.0885	-0.3405	0.444	0	239	345	3
2026-02-12	16:15:53.490	-0.455	8.96	-1.68	-0.39162	0.85644	-0.259372	0.0945	-0.3435	0.444	0	239	345	3
2026-02-12	16:15:53.510	0.91	10.255	-3.535	-0.389912	0.891088	-0.258396	0.1005	-0.342	0.447	0	239	345	3
2026-02-12	16:15:53.530	-1.05	10.99	-7.385	-0.394792	0.8784	-0.248148	0.099	-0.345	0.4395	0	239	345	3
2026-02-12	16:15:53.550	-2.695	11.095	-11.935	-0.41602	0.827892	-0.239608	0.096	-0.3525	0.4455	0	239	345	3
2026-02-12	16:15:53.570	-1.435	9.45	-15.68	-0.450668	0.817888	-0.253028	0.099	-0.3465	0.4425	0	239	345	3
2026-02-12	16:15:53.590	0.35	4.9	-18.13	-0.497028	0.856684	-0.294508	0.099	-0.3465	0.4425	0	239	345	3
2026-02-12	16:15:53.610	0.035	1.89	-17.045	-0.498004	0.892552	-0.326228	0.1005	-0.3405	0.4395	0	220	333	3
2026-02-12	16:15:53.630	-1.085	-1.785	-14.63	-0.479216	0.906948	-0.363316	0.1035	-0.3405	0.438	0	220	333	3
2026-02-12	16:15:53.650	0.91	-3.15	-10.22	-0.468724	0.94672	-0.3843	0.108	-0.345	0.441	0	220	333	3
2026-02-12	16:15:53.670	5.705	-3.01	-4.865	-0.43066	1.013088	-0.407968	0.1065	-0.3435	0.4455	0	220	333	3
2026-02-12	16:15:53.690	14.315	-1.54	-2.205	-0.409432	1.044564	-0.433344	0.108	-0.339	0.447	0	220	333	3
2026-02-12	16:15:53.710	21.35	-0.315	-1.26	-0.435296	1.000644	-0.429684	0.108	-0.339	0.447	0	220	333	3
2026-02-12	16:15:53.730	25.13	0.14	0.7	-0.461892	0.9211	-0.44408	0.102	-0.342	0.45	0	220	333	3
2026-02-12	16:15:53.750	24.745	-2.415	4.13	-0.456036	0.900604	-0.45872	0.1065	-0.336	0.45	0	220	333	3
2026-02-12	16:15:53.770	24.675	-7	5.6	-0.415776	0.865468	-0.462868	0.1095	-0.3345	0.4485	0	220	333	3
2026-02-12	16:15:53.790	22.155	-12.67	5.46	-0.388448	0.851804	-0.45262	0.1035	-0.3345	0.453	0	220	333	3
2026-02-12	16:15:53.810	12.075	-20.09	4.13	-0.399428	0.799832	-0.437004	0.0975	-0.336	0.462	0	204	329	3
2026-02-12	16:15:53.830	-4.095	-27.86	3.78	-0.414312	0.713456	-0.429196	0.099	-0.3345	0.4665	0	204	329	3
2026-02-12	16:15:53.850	-10.815	-33.355	6.51	-0.42334	0.69296	-0.44774	0.105	-0.3315	0.4665	0	204	329	3
2026-02-12	16:15:53.870	-9.8	-36.925	14.315	-0.420412	0.731268	-0.461648	0.105	-0.336	0.4605	0	204	329	3
2026-02-12	16:15:53.890	-10.045	-38.01	21	-0.392596	0.761524	-0.451644	0.105	-0.339	0.4575	0	204	329	3
2026-02-12	16:15:53.910	-10.465	-35.91	24.08	-0.358436	0.748836	-0.438224	0.1065	-0.3375	0.4545	0	204	329	3
2026-02-12	16:15:53.930	-4.83	-32.48	26.565	-0.345748	0.75274	-0.424316	0.105	-0.3405	0.4545	0	204	329	3
2026-02-12	16:15:53.950	1.925	-28.595	25.76	-0.34526	0.771772	-0.4209	0.099	-0.3435	0.453	0	204	329	3
2026-02-12	16:15:53.970	3.92	-25.48	23.205	-0.364292	0.774944	-0.403332	0.099	-0.3405	0.453	0	204	329	3
2026-02-12	16:15:53.990	4.41	-23.17	19.6	-0.371368	0.747372	-0.368928	0.096	-0.3405	0.456	0	204	329	3
2026-02-12	16:15:54.010	5.11	-21.28	16.695	-0.391864	0.738588	-0.3477	0.0975	-0.339	0.4575	0	192	343	3
2026-02-12	16:15:54.030	5.915	-19.46	14.105	-0.404796	0.750544	-0.333792	0.0945	-0.336	0.456	0	192	343	3
2026-02-12	16:15:54.050	4.83	-17.64	12.74	-0.410164	0.771528	-0.32574	0.0915	-0.3345	0.456	0	192	343	3
2026-02-12	16:15:54.070	4.69	-16.275	10.465	-0.411628	0.798856	-0.314516	0.096	-0.3375	0.459	0	192	343	3
2026-02-12	16:15:54.090	3.5	-14.77	8.085	-0.414068	0.803004	-0.310368	0.093	-0.3405	0.4545	0	192	343	3
2026-02-12	16:15:54.110	1.68	-13.405	5.67	-0.414068	0.804956	-0.293288	0.093	-0.3375	0.456	0	192	343	3
2026-02-12	16:15:54.130	0.56	-11.935	3.71	-0.414556	0.788608	-0.283772	0.0945	-0.339	0.4575	0	192	343	3
2026-02-12	16:15:54.150	0.63	-10.08	2.24	-0.418948	0.783728	-0.285968	0.0915	-0.342	0.456	0	192	343	3
2026-02-12	16:15:54.170	1.54	-9.94	1.365	-0.43188	0.811544	-0.30134	0.093	-0.342	0.4575	0	192	343	3
2026-02-12	16:15:54.190	-0.28	-11.445	1.19	-0.428464	0.812764	-0.293776	0.093	-0.342	0.4575	0	192	343	3
2026-02-12	16:15:54.210	-3.605	-13.405	1.365	-0.42944	0.823256	-0.295972	0.0825	-0.336	0.459	0	182	355	2
2026-02-12	16:15:54.230	-8.19	-14.77	1.26	-0.43188	0.836432	-0.299876	0.09	-0.339	0.4515	0	182	355	2
2026-02-12	16:15:54.250	-13.72	-15.645	1.925	-0.418948	0.83692	-0.31842	0.0855	-0.3375	0.456	0	182	355	2
2026-02-12	16:15:54.270	-16.59	-14.91	3.745	-0.387472	0.864492	-0.305488	0.0885	-0.339	0.453	0	182	355	2
2026-02-12	16:15:54.290	-14.07	-11.865	5.215	-0.37698	0.865224	-0.309636	0.0885	-0.3375	0.459	0	182	355	2
2026-02-12	16:15:54.310	-6.335	-6.125	7.42	-0.382104	0.858148	-0.332328	0.0915	-0.336	0.45	0	182	355	2
2026-02-12	16:15:54.330	3.22	1.645	11.9	-0.40138	0.911584	-0.382592	0.096	-0.3345	0.4485	0	182	355	2
2026-02-12	16:15:54.350	5.81	7.945	17.815	-0.40138	0.990884	-0.454328	0.084	-0.342	0.447	0	182	355	2
2026-02-12	16:15:54.370	9.17	12.81	22.26	-0.385764	1.080188	-0.506788	0.081	-0.333	0.462	0	182	355	2
2026-02-12	16:15:54.390	15.61	17.43	26.775	-0.312076	1.1407	-0.523136	0.0855	-0.3345	0.4605	0	182	355	2
2026-02-12	16:15:54.410	22.435	19.985	26.565	-0.256444	1.108492	-0.471408	0.081	-0.336	0.4635	0	172	358	3
2026-02-12	16:15:54.430	23.03	19.985	22.68	-0.213256	0.996252	-0.360144	0.072	-0.33	0.465	0	172	358	3
2026-02-12	16:15:54.450	14.735	16.975	13.615	-0.210572	0.816912	-0.263764	0.069	-0.336	0.462	0	172	358	3
2026-02-12	16:15:54.470	4.025	12.32	2.485	-0.23912	0.775676	-0.257908	0.069	-0.3405	0.4605	0	172	358	3
2026-02-12	16:15:54.490	-6.09	8.68	-2.975	-0.276208	0.809592	-0.30378	0.057	-0.3315	0.465	0	172	358	3
2026-02-12	16:15:54.510	-14.7	8.05	-4.9	-0.307928	0.848388	-0.326716	0.06	-0.3345	0.477	0	172	358	3
2026-02-12	16:15:54.530	-14.28	10.885	-3.115	-0.29036	0.891332	-0.310612	0.0645	-0.3345	0.4695	0	172	358	3
2026-02-12	16:15:54.550	-7.28	17.71	-1.89	-0.241804	0.953796	-0.329888	0.057	-0.3405	0.4635	0	172	358	3
2026-02-12	16:15:54.570	4.2	24.92	-3.885	-0.204472	1.000888	-0.365268	0.054	-0.3375	0.4605	0	172	358	3
2026-02-12	16:15:54.590	7.14	30.625	-8.05	-0.19032	1.002108	-0.370392	0.0615	-0.3375	0.462	0	172	358	3
2026-02-12	16:15:54.610	-1.96	34.23	-12.985	-0.202032	0.98698	-0.343796	0.057	-0.3375	0.4665	0	165	359	3
2026-02-12	16:15:54.630	-10.01	34.545	-18.27	-0.215696	0.971852	-0.323056	0.0555	-0.3345	0.462	0	165	359	3
2026-02-12	16:15:54.650	-12.215	35.175	-22.89	-0.245708	0.92354	-0.301584	0.048	-0.3345	0.4665	0	165	359	3
2026-02-12	16:15:54.670	-14.07	34.86	-25.025	-0.288164	0.80886	-0.269864	0.0615	-0.3405	0.459	0	165	359	3
2026-02-12	16:15:54.690	-12.425	34.475	-25.025	-0.311344	0.766892	-0.249612	0.057	-0.345	0.456	0	165	359	3
2026-02-12	16:15:54.710	-8.89	32.235	-23.24	-0.31964	0.743712	-0.257664	0.072	-0.3375	0.4575	0	165	359	3
2026-02-12	16:15:54.730	-3.08	28.875	-22.12	-0.337208	0.779824	-0.255224	0.0675	-0.3465	0.4545	0	165	359	3
2026-02-12	16:15:54.750	-6.195	23.1	-19.705	-0.358192	0.797392	-0.252784	0.0645	-0.342	0.45	0	165	359	3
2026-02-12	16:15:54.770	-8.995	20.755	-18.375	-0.366732	0.80398	-0.250588	0.0645	-0.339	0.453	0	165	359	3
2026-02-12	16:15:54.790	-10.01	19.075	-16.38	-0.3782	0.8174	-0.254736	0.063	-0.3375	0.4545	0	165	359	3
2026-02-12	16:15:54.810	-8.925	18.97	-14.91	-0.382348	0.834236	-0.249124	0.0645	-0.3405	0.453	0	159	352	3
2026-02-12	16:15:54.830	-10.78	18.305	-14.595	-0.378688	0.854488	-0.244732	0.0675	-0.345	0.45	0	159	352	3
2026-02-12	16:15:54.850	-11.13	15.995	-18.305	-0.366976	0.847656	-0.233996	0.069	-0.345	0.4455	0	159	352	3
2026-02-12	16:15:54.870	-12.11	15.085	-20.685	-0.406992	0.817644	-0.255224	0.072	-0.345	0.4455	0	159	352	3
2026-02-12	16:15:54.890	-14.455	12.74	-23.065	-0.451644	0.830088	-0.250344	0.0735	-0.3495	0.4455	0	159	352	3
2026-02-12	16:15:54.910	-15.225	10.535	-22.855	-0.472872	0.841068	-0.274744	0.075	-0.3525	0.4425	0	159	352	3
2026-02-12	16:15:54.930	-14.035	10.08	-18.83	-0.49288	0.893284	-0.29524	0.0705	-0.3495	0.4395	0	159	352	3
2026-02-12	16:15:54.950	-12.845	9.275	-13.09	-0.464088	0.94184	-0.324764	0.0705	-0.348	0.4425	0	159	352	3
2026-02-12	16:15:54.970	-9.73	6.055	-7.98	-0.440908	0.928664	-0.350628	0.081	-0.354	0.4425	0	159	352	3
2026-02-12	16:15:54.990	1.05	3.395	-1.855	-0.439444	0.953552	-0.373808	0.087	-0.3585	0.441	0	159	352	3
2026-02-12	16:15:55.010	11.655	1.855	5.285	-0.404064	1.027728	-0.39772	0.0765	-0.3435	0.4365	0	155	340	3
2026-02-12	16:15:55.030	22.645	-0.77	8.47	-0.411628	1.078236	-0.437492	0.081	-0.3405	0.4365	0	155	340	3
2026-02-12	16:15:55.050	22.33	-5.74	8.96	-0.436028	1.039928	-0.468724	0.081	-0.3405	0.4365	0	155	340	3
2026-02-12	16:15:55.070	15.715	-10.605	8.33	-0.418704	0.984052	-0.452376	0.078	-0.3405	0.4425	0	155	340	3
2026-02-12	16:15:55.090	7.875	-15.575	7.98	-0.377224	0.951356	-0.416752	0.078	-0.3435	0.4485	0	155	340	3
2026-02-12	16:15:55.110	3.885	-20.895	2.975	-0.330132	0.91378	-0.368196	0.078	-0.345	0.447	0	155	340	3
2026-02-12	16:15:55.130	-1.715	-27.475	-2.065	-0.3355	0.81862	-0.34038	0.0735	-0.3495	0.453	0	155	340	3
2026-02-12	16:15:55.150	-10.36	-32.62	-3.92	-0.354044	0.698816	-0.308416	0.0735	-0.3465	0.4545	0	155	340	3
2026-02-12	16:15:55.170	-10.22	-35.98	-2.87	-0.373564	0.6893	-0.323544	0.0765	-0.3465	0.4485	0	155	340	3
2026-02-12	16:15:55.190	-9.485	-37.31	1.645	-0.382836	0.747372	-0.3782	0.0825	-0.354	0.444	0	155	340	3
2026-02-12	16:15:55.210	-7.56	-37.695	7.175	-0.368684	0.82716	-0.412604	0.087	-0.3555	0.444	0	151	338	3
2026-02-12	16:15:55.230	-7.945	-34.895	11.795	-0.323788	0.88938	-0.430904	0.087	-0.351	0.447	0	151	338	3
2026-02-12	16:15:55.250	-7.455	-30.17	14.14	-0.31476	0.893528	-0.438468	0.084	-0.351	0.45	0	151	338	3
2026-02-12	16:15:55.270	-3.745	-25.55	14.805	-0.307196	0.870104	-0.435052	0.0825	-0.354	0.447	0	151	338	3
2026-02-12	16:15:55.290	0.14	-21.735	13.86	-0.309636	0.85278	-0.419436	0.0855	-0.354	0.447	0	151	338	3
2026-02-12	16:15:55.310	0.805	-17.78	11.655	-0.306952	0.816912	-0.393572	0.084	-0.3555	0.4425	0	151	338	3
2026-02-12	16:15:55.330	-0.63	-13.055	9.975	-0.325252	0.766892	-0.345504	0.084	-0.357	0.4365	0	151	338	3
2026-02-12	16:15:55.350	-0.98	-10.92	9.24	-0.33306	0.764452	-0.276208	0.084	-0.357	0.4365	0	151	338	3
2026-02-12	16:15:55.370	-2.345	-10.29	8.925	-0.33916	0.756644	-0.254004	0.078	-0.3585	0.45	0	151	338	3
2026-02-12	16:15:55.390	-3.92	-9.625	9.1	-0.356484	0.738588	-0.241316	0.0885	-0.354	0.4455	0	151	338	3
2026-02-12	16:15:55.410	-4.97	-9.8	8.645	-0.366244	0.73932	-0.229116	0.0795	-0.345	0.4485	0	149	344	3
2026-02-12	16:15:55.430	-7.7	-10.745	9.135	-0.374784	0.737612	-0.224724	0.0705	-0.354	0.45	0	149	344	3
2026-02-12	16:15:55.450	-8.54	-11.515	9.8	-0.390888	0.75762	-0.2135	0.0885	-0.354	0.4425	0	149	344	3
2026-02-12	16:15:55.470	-9.66	-10.78	10.675	-0.416752	0.760304	-0.213256	0.087	-0.3465	0.4485	0	149	344	3
2026-02-12	16:15:55.490	-3.99	-8.505	11.235	-0.4392	0.77348	-0.215696	0.078	-0.3585	0.441	0	149	344	3
2026-02-12	16:15:55.510	6.65	-5.74	11.97	-0.439444	0.78812	-0.227652	0.078	-0.351	0.435	0	149	344	3
2026-02-12	16:15:55.530	13.02	-4.34	11.34	-0.44042	0.815692	-0.239852	0.0735	-0.3585	0.444	0	149	344	3
2026-02-12	16:15:55.550	11.55	-5.215	8.575	-0.440176	0.871568	-0.272792	0.0735	-0.3525	0.4485	0	149	344	3
2026-02-12	16:15:55.570	5.53	-5.74	5.845	-0.447496	0.931592	-0.298412	0.0735	-0.348	0.453	0	149	344	3
2026-02-12	16:15:55.590	-1.995	-6.195	3.605	-0.419924	0.989908	-0.29768	0.072	-0.3495	0.4515	0	149	344	3
2026-02-12	16:15:55.610	-6.44	-5.18	0.035	-0.378932	0.984784	-0.281576	0.072	-0.3495	0.45	0	146	340	2
2026-02-12	16:15:55.630	-4.095	-0.56	-5.81	-0.3904	0.964776	-0.305488	0.0735	-0.3525	0.4485	0	146	340	2
2026-02-12	16:15:55.650	-0.945	1.855	-8.295	-0.431636	0.97478	-0.368684	0.0735	-0.3525	0.4485	0	146	340	2
2026-02-12	16:15:55.670	-1.12	4.34	-5.285	-0.450912	0.995032	-0.386496	0.0705	-0.354	0.447	0	146	340	2
2026-02-12	16:15:55.690	3.15	6.055	-0.245	-0.437004	1.051152	-0.376004	0.081	-0.348	0.456	0	146	340	2
2026-02-12	16:15:55.710	7.21	8.435	4.9	-0.385764	1.147532	-0.388936	0.072	-0.3615	0.4455	0	146	340	2
2026-02-12	16:15:55.730	11.34	11.83	7.875	-0.28548	1.165832	-0.38064	0.072	-0.3585	0.447	0	146	340	2
2026-02-12	16:15:55.750	16.345	14.455	6.545	-0.2074	1.086044	-0.336232	0.0675	-0.354	0.4485	0	146	340	2
2026-02-12	16:15:55.770	12.88	15.05	0.21	-0.178852	0.912072	-0.281332	0.0735	-0.3585	0.447	0	146	340	2
2026-02-12	16:15:55.790	3.535	12.46	-8.12	-0.218136	0.75762	-0.245708	0.069	-0.354	0.4515	0	146	340	2
2026-02-12	16:15:55.810	-6.16	8.4	-11.55	-0.254492	0.703208	-0.232532	0.0705	-0.354	0.4515	0	145	333	3
2026-02-12	16:15:55.830	-13.02	6.545	-12.46	-0.28304	0.702964	-0.256932	0.0615	-0.357	0.4575	0	145	333	3
2026-02-12	16:15:55.850	-16.8	7.315	-10.01	-0.29158	0.708332	-0.274988	0.063	-0.3525	0.45	0	145	333	3
2026-02-12	16:15:55.870	-11.585	10.5	-4.62	-0.287188	0.79422	-0.287188	0.0765	-0.3555	0.453	0	145	333	3
2026-02-12	16:15:55.890	-1.505	15.505	1.75	-0.235216	0.903288	-0.349164	0.078	-0.366	0.444	0	145	333	3
2026-02-12	16:15:55.910	14.84	26.775	3.885	-0.146644	1.016504	-0.442372	0.0705	-0.3585	0.4455	0	145	333	3
2026-02-12	16:15:55.930	18.725	35.175	0.245	-0.15494	1.020408	-0.476044	0.0705	-0.3585	0.4455	0	145	333	3
2026-02-12	16:15:55.950	8.12	36.295	-5.11	-0.180804	0.964044	-0.423584	0.069	-0.3555	0.45	0	145	333	3
2026-02-12	16:15:55.970	-3.325	36.295	-7.805	-0.22204	0.895724	-0.3599	0.0675	-0.3525	0.4515	0	145	333	3
2026-02-12	16:15:55.990	-9.905	35.35	-9.835	-0.26596	0.82472	-0.279868	0.0645	-0.354	0.453	0	145	333	3
2026-02-12	16:15:56.010	-8.295	34.79	-10.815	-0.308416	0.727364	-0.2074	0.0585	-0.354	0.4545	0	146	329	3
2026-02-12	16:15:56.030	-2.975	34.16	-12.6	-0.336964	0.677832	-0.196176	0.0555	-0.357	0.4515	0	146	329	3
2026-02-12	16:15:56.050	-1.61	31.85	-13.44	-0.387716	0.719068	-0.246684	0.054	-0.357	0.45	0	146	329	3
2026-02-12	16:15:56.070	1.05	27.58	-10.92	-0.39406	0.72834	-0.228384	0.054	-0.357	0.4515	0	146	329	3
2026-02-12	16:15:56.090	7.91	26.95	-8.4	-0.39284	0.779092	-0.2196	0.0585	-0.357	0.45	0	146	329	3
2026-02-12	16:15:56.110	10.15	27.23	-7.455	-0.416508	0.836676	-0.23668	0.0585	-0.3555	0.4485	0	146	329	3
2026-02-12	16:15:56.130	9.275	25.515	-5.845	-0.400892	0.845948	-0.260592	0.0615	-0.3555	0.4455	0	146	329	3
2026-02-12	16:15:56.150	5.32	24.675	-4.62	-0.407236	0.877424	-0.275232	0.0615	-0.351	0.4515	0	146	329	3
2026-02-12	16:15:56.170	5.74	22.505	-3.99	-0.374052	0.91378	-0.261568	0.0555	-0.3615	0.4605	0	146	329	3
2026-02-12	16:15:56.190	8.295	18.375	-6.195	-0.365512	0.975268	-0.256444	0.0585	-0.3525	0.4605	0	146	329	3
2026-02-12	16:15:56.210	-3.43	11.41	-13.58	-0.396256	0.91378	-0.246196	0.054	-0.351	0.4575	0	148	322	3
2026-02-12	16:15:56.230	-9.275	7.595	-15.995	-0.416752	0.870592	-0.239852	0.054	-0.3525	0.4575	0	148	322	3
2026-02-12	16:15:56.250	-10.745	0.77	-16.59	-0.44652	0.90402	-0.276452	0.0555	-0.351	0.4575	0	148	322	3
2026-02-12	16:15:56.270	-10.15	-4.13	-16.66	-0.435052	0.959652	-0.3233	0.057	-0.3495	0.4545	0	148	322	3
2026-02-12	16:15:56.290	-10.675	-5.495	-15.085	-0.42456	0.996984	-0.36722	0.0585	-0.354	0.4515	0	148	322	3
2026-02-12	16:15:56.310	-8.12	-6.125	-11.445	-0.410652	1.023824	-0.3843	0.06	-0.3555	0.4515	0	148	322	3
2026-02-12	16:15:56.330	-0.805	-3.92	-6.475	-0.367464	1.084824	-0.413824	0.063	-0.3615	0.453	0	148	322	3
2026-02-12	16:15:56.350	7.56	-1.54	-2.94	-0.3538	1.158512	-0.464576	0.066	-0.3615	0.4515	0	148	322	3
2026-02-12	16:15:56.370	12.215	-0.875	0.49	-0.362584	1.12972	-0.47824	0.0645	-0.3615	0.453	0	148	322	3
2026-02-12	16:15:56.390	11.095	-2.625	2.17	-0.3904	1.043344	-0.471408	0.063	-0.363	0.456	0	148	322	3
2026-02-12	16:15:56.410	6.93	-6.545	4.97	-0.398696	0.950868	-0.445056	0.063	-0.3615	0.4575	0	150	320	3
2026-02-12	16:15:56.430	3.15	-10.535	8.19	-0.355996	0.872788	-0.378932	0.063	-0.363	0.462	0	150	320	3
2026-02-12	16:15:56.450	-4.62	-15.4	8.435	-0.333548	0.813008	-0.323788	0.0645	-0.36	0.459	0	150	320	3
2026-02-12	16:15:56.470	-16.66	-21.21	5.11	-0.33916	0.719556	-0.34526	0.063	-0.3615	0.4575	0	150	320	3
2026-02-12	16:15:56.490	-25.865	-31.745	3.605	-0.394304	0.628056	-0.41846	0.0645	-0.3645	0.459	0	150	320	3
2026-02-12	16:15:56.510	-19.18	-40.845	7.665	-0.431636	0.660508	-0.446276	0.0705	-0.363	0.4575	0	150	320	3
2026-02-12	16:15:56.530	-17.185	-46.725	16.135	-0.433344	0.75762	-0.410652	0.06	-0.363	0.453	0	150	320	3
2026-02-12	16:15:56.550	-20.125	-48.125	21.7	-0.38064	0.844728	-0.37942	0.069	-0.3645	0.45	0	150	320	3
2026-02-12	16:15:56.570	-15.155	-43.4	24.395	-0.3294	0.8906	-0.37698	0.057	-0.3645	0.4455	0	150	320	3
2026-02-12	16:15:56.590	-4.97	-36.225	24.045	-0.280112	0.910852	-0.393328	0.0645	-0.357	0.444	0	150	320	3
2026-02-12	16:15:56.610	1.75	-30.24	20.23	-0.266204	0.887184	-0.380884	0.0615	-0.366	0.453	0	151	330	3
2026-02-12	16:15:56.630	3.955	-27.16	16.415	-0.257664	0.816668	-0.366976	0.0615	-0.363	0.4545	0	151	330	3
2026-02-12	16:15:56.650	8.015	-22.26	13.265	-0.2867	0.756644	-0.327936	0.063	-0.363	0.4515	0	151	330	3
2026-02-12	16:15:56.670	10.64	-18.69	11.725	-0.314272	0.756888	-0.308172	0.0585	-0.3645	0.453	0	151	330	3
2026-02-12	16:15:56.690	8.365	-18.095	10.815	-0.343552	0.756156	-0.289384	0.0555	-0.366	0.456	0	151	330	3
2026-02-12	16:15:56.710	6.615	-17.92	10.815	-0.352092	0.751276	-0.266936	0.054	-0.366	0.4545	0	151	330	3
2026-02-12	16:15:56.730	10.605	-15.82	10.535	-0.348188	0.750788	-0.215696	0.0495	-0.3645	0.4545	0	151	330	3
2026-02-12	16:15:56.750	17.78	-11.97	10.29	-0.349408	0.737856	-0.19764	0.0525	-0.3615	0.465	0	151	330	3
2026-02-12	16:15:56.770	21.49	-8.505	11.095	-0.351116	0.786168	-0.243756	0.054	-0.36	0.471	0	151	330	3
2026-02-12	16:15:56.790	6.3	-6.405	10.885	-0.372588	0.819352	-0.28182	0.054	-0.3615	0.468	0	151	330	3
2026-02-12	16:15:56.810	1.505	-6.965	9.625	-0.334524	0.856684	-0.292068	0.054	-0.3615	0.468	0	152	338	3
2026-02-12	16:15:56.830	1.925	-7.98	6.58	-0.351604	0.873764	-0.29768	0.0435	-0.351	0.4695	0	152	338	3
2026-02-12	16:15:56.850	-4.06	-8.47	5.355	-0.372588	0.87474	-0.282308	0.0435	-0.357	0.471	0	152	338	3
2026-02-12	16:15:56.870	-8.785	-9.415	4.375	-0.383812	0.8723	-0.249124	0.0525	-0.3585	0.471	0	152	338	3
2026-02-12	16:15:56.890	-6.72	-8.295	3.5	-0.369904	0.822524	-0.207644	0.0525	-0.36	0.4695	0	152	338	3
2026-02-12	16:15:56.910	-2.24	-5.6	0.98	-0.306708	0.864492	-0.212036	0.0495	-0.3585	0.4755	0	152	338	3
2026-02-12	16:15:56.930	0.07	-3.465	-4.305	-0.34282	0.933056	-0.29646	0.0465	-0.3585	0.4815	0	152	338	3
2026-02-12	16:15:56.950	-1.715	-1.435	-4.34	-0.363804	0.936472	-0.334524	0.051	-0.354	0.474	0	152	338	3
2026-02-12	16:15:56.970	-1.645	2.38	-1.61	-0.382104	0.964044	-0.368196	0.051	-0.354	0.4725	0	152	338	3
2026-02-12	16:15:56.990	-3.5	7.63	1.96	-0.404796	0.95404	-0.41358	0.054	-0.3645	0.4785	0	152	338	3
2026-02-12	16:15:57.010	0.385	12.355	7.385	-0.390888	1.032364	-0.432612	0.0585	-0.3615	0.465	0	151	335	3
2026-02-12	16:15:57.030	8.12	16.275	12.495	-0.323544	1.192672	-0.457988	0.0495	-0.369	0.4755	0	151	335	3
2026-02-12	16:15:57.050	10.045	19.25	13.335	-0.275232	1.248548	-0.437248	0.045	-0.354	0.477	0	151	335	3
2026-02-12	16:15:57.070	9.065	23.625	12.705	-0.19032	1.126792	-0.360876	0.042	-0.3525	0.489	0	151	335	3
2026-02-12	16:15:57.090	9.24	22.4	5.145	-0.145668	0.96502	-0.28548	0.042	-0.3525	0.489	0	151	335	3
2026-02-12	16:15:57.110	3.71	15.995	-7.525	-0.169824	0.888648	-0.280112	0.042	-0.3525	0.483	0	151	335	3
2026-02-12	16:15:57.130	-7.91	9.45	-15.47	-0.223748	0.807884	-0.252052	0.0405	-0.351	0.48	0	151	335	3
2026-02-12	16:15:57.150	-17.99	5.46	-19.005	-0.244	0.782752	-0.2379	0.042	-0.348	0.4815	0	151	335	3
2026-02-12	16:15:57.170	-21.91	6.09	-18.97	-0.244244	0.816668	-0.27572	0.045	-0.3495	0.4815	0	151	335	3
2026-02-12	16:15:57.190	-19.95	10.115	-18.62	-0.227164	0.895724	-0.309636	0.039	-0.36	0.4785	0	151	335	3
2026-02-12	16:15:57.210	-18.655	15.995	-17.5	-0.179096	0.962336	-0.349896	0.045	-0.36	0.477	0	151	333	3
2026-02-12	16:15:57.230	-11.55	23.975	-18.235	-0.149816	1.033096	-0.408944	0.057	-0.363	0.4695	0	151	333	3
2026-02-12	16:15:57.250	-4.41	31.85	-19.775	-0.16714	1.004548	-0.424316	0.054	-0.3675	0.4695	0	151	333	3
2026-02-12	16:15:57.270	0.56	36.68	-20.965	-0.18422	0.957944	-0.383324	0.045	-0.3615	0.4665	0	151	333	3
2026-02-12	16:15:57.290	-0.315	39.41	-21.84	-0.2135	0.887184	-0.331352	0.051	-0.3675	0.4665	0	151	333	3
2026-02-12	16:15:57.310	-3.64	38.955	-21.91	-0.260104	0.823744	-0.258396	0.0555	-0.363	0.4695	0	151	333	3
2026-02-12	16:15:57.330	-7.91	35.665	-21.735	-0.308416	0.769332	-0.20008	0.0525	-0.3645	0.471	0	151	333	3
2026-02-12	16:15:57.350	-13.93	29.89	-19.775	-0.352824	0.75762	-0.138836	0.054	-0.366	0.465	0	151	333	3
2026-02-12	16:15:57.370	-17.045	21.455	-17.115	-0.390644	0.727852	-0.131516	0.057	-0.369	0.4665	0	151	333	3
2026-02-12	16:15:57.390	-12.6	15.75	-12.285	-0.410408	0.762012	-0.127124	0.057	-0.369	0.459	0	151	333	3
2026-02-12	16:15:57.410	-8.12	14.28	-8.4	-0.407724	0.795928	-0.160796	0.0585	-0.369	0.4545	0	151	328	3
2026-02-12	16:15:57.430	-6.09	14.14	-5.495	-0.397232	0.845704	-0.185684	0.06	-0.369	0.456	0	151	328	3
2026-02-12	16:15:57.450	-5.88	14.525	-3.22	-0.385764	0.872056	-0.205204	0.06	-0.366	0.4515	0	151	328	3
2026-02-12	16:15:57.470	-4.48	14.315	-2.87	-0.377224	0.877668	-0.231556	0.057	-0.3645	0.45	0	151	328	3
2026-02-12	16:15:57.490	-2.835	13.195	-3.325	-0.369904	0.87962	-0.230336	0.0585	-0.366	0.4545	0	151	328	3
2026-02-12	16:15:57.510	-2.45	10.22	-4.27	-0.363316	0.878644	-0.218624	0.0585	-0.366	0.453	0	151	328	3
2026-02-12	16:15:57.530	0.175	6.895	-7.07	-0.35624	0.85644	-0.210572	0.0555	-0.369	0.45	0	151	328	3
2026-02-12	16:15:57.550	1.54	3.745	-9.065	-0.398452	0.858636	-0.240096	0.0525	-0.3705	0.4545	0	151	328	3
2026-02-12	16:15:57.570	-0.07	-2.205	-11.62	-0.417484	0.856684	-0.259372	0.0555	-0.369	0.4545	0	151	328	3
2026-02-12	16:15:57.590	-1.855	-7.735	-11.76	-0.425292	0.87474	-0.275476	0.0615	-0.366	0.4485	0	151	328	3
2026-02-12	16:15:57.610	-6.3	-9.975	-9.135	-0.421388	0.986736	-0.294264	0.066	-0.3675	0.45	0	151	313	3
2026-02-12	16:15:57.630	-9.38	-7.595	-7.42	-0.382104	1.033584	-0.307928	0.0675	-0.369	0.456	0	151	313	3
2026-02-12	16:15:57.650	-8.855	-2.24	-2.695	-0.366244	1.157048	-0.436516	0.069	-0.3675	0.4545	0	151	313	3
2026-02-12	16:15:57.670	-20.93	2.38	2.835	-0.344528	1.22488	-0.528504	0.072	-0.3675	0.4515	0	151	313	3
2026-02-12	16:15:57.690	-21.7	0.28	5.32	-0.318176	1.086776	-0.424072	0.072	-0.3675	0.4515	0	151	313	3
2026-02-12	16:15:57.710	-6.335	0.105	4.165	-0.351848	0.96502	-0.327204	0.066	-0.369	0.438	0	151	313	3
2026-02-12	16:15:57.730	6.51	0.28	5.25	-0.349652	0.948184	-0.274988	0.066	-0.3675	0.447	0	151	313	3
2026-02-12	16:15:57.750	13.685	0.35	6.335	-0.33306	0.858148	-0.238144	0.0615	-0.372	0.447	0	151	313	3
2026-02-12	16:15:57.770	16.205	-1.645	5.18	-0.316468	0.79056	-0.23668	0.0585	-0.372	0.4455	0	151	313	3
2026-02-12	16:15:57.790	7.945	-7.49	3.43	-0.341356	0.726876	-0.265228	0.0615	-0.3705	0.444	0	151	313	3
2026-02-12	16:15:57.810	-0.21	-15.26	3.045	-0.382104	0.695156	-0.30012	0.06	-0.3675	0.447	0	151	304	3
2026-02-12	16:15:57.830	-1.575	-22.68	7.175	-0.399672	0.742492	-0.345992	0.0585	-0.3645	0.45	0	151	304	3
2026-02-12	16:15:57.850	0.77	-28.105	13.825	-0.387716	0.848144	-0.381616	0.0615	-0.366	0.45	0	151	304	3
2026-02-12	16:15:57.870	4.34	-30.66	19.18	-0.333304	0.956968	-0.387472	0.06	-0.3645	0.4485	0	151	304	3
2026-02-12	16:15:57.890	6.055	-30.065	20.58	-0.273036	1.008452	-0.381128	0.0615	-0.366	0.444	0	151	304	3
2026-02-12	16:15:57.910	4.655	-28.805	18.795	-0.258152	0.959408	-0.389424	0.057	-0.366	0.447	0	151	304	3
2026-02-12	16:15:57.930	5.53	-26.075	15.05	-0.26718	0.877912	-0.385764	0.051	-0.369	0.4515	0	151	304	3
2026-02-12	16:15:57.950	5.95	-22.19	11.13	-0.290116	0.810812	-0.357704	0.051	-0.3675	0.4515	0	151	304	3
2026-02-12	16:15:57.970	4.62	-19.985	8.155	-0.329644	0.783484	-0.31598	0.054	-0.363	0.45	0	151	304	3
2026-02-12	16:15:57.990	2.17	-19.18	7.35	-0.349408	0.754936	-0.28182	0.063	-0.369	0.4515	0	151	304	3
2026-02-12	16:15:58.010	1.68	-17.78	7.525	-0.368928	0.7381	-0.263032	0.0585	-0.36	0.4605	0	151	306	3
2026-02-12	16:15:58.030	5.95	-16.765	8.12	-0.369904	0.728584	-0.243756	0.054	-0.3675	0.4545	0	151	306	3
2026-02-12	16:15:58.050	8.365	-15.82	8.89	-0.365268	0.72712	-0.221308	0.0615	-0.36	0.462	0	151	306	3
2026-02-12	16:15:58.070	7.035	-15.4	8.365	-0.364292	0.764696	-0.22448	0.054	-0.354	0.459	0	151	306	3
2026-02-12	16:15:58.090	5.915	-14	7.455	-0.368928	0.776652	-0.23912	0.048	-0.3585	0.4545	0	151	306	3
2026-02-12	16:15:58.110	1.505	-13.51	7.105	-0.375028	0.786412	-0.24888	0.057	-0.357	0.4605	0	151	306	3
2026-02-12	16:15:58.130	-0.35	-13.3	5.775	-0.375028	0.800564	-0.256688	0.051	-0.3555	0.4605	0	151	306	3
2026-02-12	16:15:58.150	0.385	-12.6	5.11	-0.386984	0.823988	-0.259616	0.045	-0.36	0.471	0	151	306	3
2026-02-12	16:15:58.170	0.525	-10.99	4.025	-0.390644	0.848876	-0.262788	0.0525	-0.369	0.4635	0	151	306	3
2026-02-12	16:15:58.190	-1.505	-11.13	3.815	-0.385032	0.880108	-0.284016	0.054	-0.363	0.4605	0	151	306	3
2026-02-12	16:15:58.210	-3.815	-11.55	2.94	-0.366488	0.930372	-0.301828	0.051	-0.36	0.4635	0	150	308	3
2026-02-12	16:15:58.230	-5.95	-11.62	2.03	-0.34282	0.94428	-0.309392	0.0435	-0.357	0.462	0	150	308	3
2026-02-12	16:15:58.250	-6.545	-9.135	0.945	-0.328424	0.962824	-0.310856	0.054	-0.3525	0.4695	0	150	308	3
2026-02-12	16:15:58.270	-3.22	-5.11	1.295	-0.33306	0.964532	-0.327448	0.051	-0.3525	0.4695	0	150	308	3
2026-02-12	16:15:58.290	1.225	0.525	3.955	-0.33428	0.977952	-0.360876	0.0495	-0.3525	0.4635	0	150	308	3
2026-02-12	16:15:58.310	1.89	5.39	9.59	-0.325252	1.03578	-0.386496	0.0495	-0.3525	0.459	0	150	308	3
2026-02-12	16:15:58.330	4.62	9.275	16.52	-0.284748	1.118008	-0.410408	0.051	-0.3675	0.4605	0	150	308	3
2026-02-12	16:15:58.350	16.625	14.525	22.295	-0.216428	1.113128	-0.389668	0.0495	-0.354	0.4635	0	150	308	3
2026-02-12	16:15:58.370	34.335	20.86	24.675	-0.149328	1.0065	-0.358436	0.0405	-0.3525	0.468	0	150	308	3
2026-02-12	16:15:58.390	49.525	22.785	21.805	-0.10248	0.897676	-0.335012	0.033	-0.3495	0.474	0	150	308	3
2026-02-12	16:15:58.410	47.53	21.665	15.61	-0.122244	0.861808	-0.339404	0.027	-0.351	0.48	0	148	310	3
2026-02-12	16:15:58.430	27.895	16.625	8.225	-0.152256	0.801784	-0.316468	0.0255	-0.3465	0.48	0	148	310	3
2026-02-12	16:15:58.450	5.39	12.25	3.43	-0.213744	0.769332	-0.314516	0.033	-0.348	0.4845	0	148	310	3
2026-02-12	16:15:58.470	-5.075	9.31	1.19	-0.239608	0.8296	-0.335012	0.0195	-0.3375	0.486	0	148	310	3
2026-02-12	16:15:58.490	-1.225	9.135	0.28	-0.24522	0.884012	-0.352092	0.03	-0.345	0.4905	0	148	310	3
2026-02-12	16:15:58.510	10.325	12.6	-0.105	-0.17934	0.988444	-0.387472	0.027	-0.345	0.483	0	148	310	3
2026-02-12	16:15:58.530	17.99	20.16	-6.475	-0.14518	1.072624	-0.433344	0.0225	-0.342	0.4905	0	148	310	3
2026-02-12	16:15:58.550	12.39	28.14	-13.825	-0.175924	1.043588	-0.406504	0.0225	-0.342	0.4905	0	148	310	3
2026-02-12	16:15:58.570	2.94	33.67	-17.22	-0.188612	0.965508	-0.34648	0.024	-0.3465	0.4965	0	148	310	3
2026-02-12	16:15:58.590	1.085	39.69	-20.335	-0.188856	0.894016	-0.260348	0.0255	-0.345	0.501	0	148	310	3
2026-02-12	16:15:58.610	4.34	43.365	-23.38	-0.197884	0.85644	-0.237412	0.0225	-0.339	0.4995	0	146	317	3
2026-02-12	16:15:58.630	2.905	45.01	-25.2	-0.234972	0.823744	-0.252784	0.018	-0.3375	0.4935	0	146	317	3
2026-02-12	16:15:58.650	-1.96	42.805	-25.305	-0.260348	0.78324	-0.255224	0.018	-0.339	0.4875	0	146	317	3
2026-02-12	16:15:58.670	-4.13	38.605	-23.065	-0.283528	0.752252	-0.235216	0.021	-0.342	0.495	0	146	317	3
2026-02-12	16:15:58.690	2.03	34.79	-19.46	-0.308904	0.758352	-0.226188	0.0225	-0.342	0.504	0	146	317	3
2026-02-12	16:15:58.710	6.51	31.815	-15.855	-0.303048	0.818132	-0.241072	0.0195	-0.3435	0.4995	0	146	317	3
2026-02-12	16:15:58.730	2.695	28.56	-12.11	-0.295728	0.854244	-0.263032	0.0225	-0.342	0.495	0	146	317	3
2026-02-12	16:15:58.750	-2.24	24.955	-9.45	-0.293776	0.876204	-0.280844	0.024	-0.342	0.4935	0	146	317	3
2026-02-12	16:15:58.770	-4.935	21.14	-7.105	-0.29036	0.89182	-0.306708	0.0255	-0.345	0.495	0	146	317	3
2026-02-12	16:15:58.790	-2.59	18.27	-6.16	-0.28548	0.911584	-0.311344	0.0255	-0.348	0.498	0	146	317	3
2026-02-12	16:15:58.810	-2.1	15.33	-7.315	-0.280112	0.91378	-0.283528	0.0255	-0.3465	0.498	0	145	318	3
2026-02-12	16:15:58.830	-9.695	11.445	-14.21	-0.313052	0.949404	-0.258884	0.027	-0.345	0.498	0	145	318	3
2026-02-12	16:15:58.850	-19.075	8.365	-19.635	-0.351848	0.948428	-0.25986	0.027	-0.345	0.498	0	145	318	3
2026-02-12	16:15:58.870	-25.13	5.25	-23.625	-0.399672	0.920124	-0.296216	0.021	-0.348	0.48	0	145	318	3
2026-02-12	16:15:58.890	-24.71	2.415	-25.515	-0.425048	0.881084	-0.318664	0.0195	-0.3465	0.4815	0	145	318	3
2026-02-12	16:15:58.910	-16.87	0.21	-23.87	-0.434076	0.906216	-0.366976	0.0285	-0.3495	0.4845	0	145	318	3
2026-02-12	16:15:58.930	-8.26	-0.245	-18.935	-0.40992	0.970388	-0.394304	0.036	-0.354	0.4815	0	145	318	3
2026-02-12	16:15:58.950	-3.36	1.505	-11.025	-0.342088	1.076772	-0.42822	0.033	-0.3525	0.48	0	145	318	3
2026-02-12	16:15:58.970	0.07	4.235	-5.005	-0.292556	1.129964	-0.46116	0.036	-0.351	0.4845	0	145	318	3
2026-02-12	16:15:58.990	2.555	5.425	-0.91	-0.292312	1.128988	-0.472872	0.045	-0.354	0.486	0	145	318	3
2026-02-12	16:15:59.010	4.375	4.445	1.61	-0.315492	1.065304	-0.465308	0.042	-0.3525	0.483	0	143	319	3
2026-02-12	16:15:59.030	5.635	2.275	4.095	-0.316468	1.010648	-0.43798	0.0405	-0.351	0.483	0	143	319	3
2026-02-12	16:15:59.050	-2.135	-1.785	5.355	-0.274988	0.998204	-0.408212	0.0375	-0.354	0.4815	0	143	319	3
2026-02-12	16:15:59.070	-13.58	-6.09	3.22	-0.300608	0.852048	-0.361608	0.039	-0.3525	0.486	0	143	319	3
2026-02-12	16:15:59.090	-20.09	-12.11	2.45	-0.274256	0.771284	-0.330132	0.042	-0.354	0.486	0	143	319	3
2026-02-12	16:15:59.110	-23.555	-19.215	1.365	-0.307196	0.735172	-0.350384	0.039	-0.357	0.4785	0	143	319	3
2026-02-12	16:15:59.130	-30.975	-29.4	2.065	-0.33184	0.750056	-0.390888	0.0405	-0.3585	0.4755	0	143	319	3
2026-02-12	16:15:59.150	-27.58	-34.335	5.985	-0.332816	0.767624	-0.38796	0.042	-0.3615	0.477	0	143	319	3
2026-02-12	16:15:59.170	-18.655	-36.925	11.83	-0.306464	0.80154	-0.372832	0.0435	-0.3615	0.468	0	143	319	3
2026-02-12	16:15:59.190	-10.675	-36.82	16.66	-0.283772	0.821548	-0.39528	0.039	-0.3555	0.4605	0	143	319	3
2026-02-12	16:15:59.210	-6.685	-35.105	19.32	-0.272792	0.865712	-0.436516	0.0375	-0.363	0.465	0	142	330	3
2026-02-12	16:15:59.230	-4.62	-33.39	20.265	-0.258884	0.928664	-0.466284	0.0435	-0.3645	0.468	0	142	330	3
2026-02-12	16:15:59.250	-2.485	-31.115	19.6	-0.245464	0.923296	-0.427732	0.042	-0.3645	0.4605	0	142	330	3
2026-02-12	16:15:59.270	0.49	-27.825	17.605	-0.243024	0.903532	-0.380152	0.0405	-0.354	0.4605	0	142	330	3
2026-02-12	16:15:59.290	2.065	-23.66	14.035	-0.255712	0.850096	-0.345504	0.039	-0.363	0.4725	0	142	330	3
2026-02-12	16:15:59.310	3.01	-20.685	10.955	-0.28792	0.795196	-0.325984	0.039	-0.357	0.465	0	142	330	3
2026-02-12	16:15:59.330	3.5	-19.04	8.82	-0.292068	0.760304	-0.2989	0.033	-0.3525	0.471	0	142	330	3
2026-02-12	16:15:59.350	1.925	-17.815	8.575	-0.294264	0.759572	-0.27206	0.03	-0.345	0.4635	0	142	330	3
2026-02-12	16:15:59.370	2.24	-17.325	6.755	-0.295484	0.756156	-0.232776	0.0315	-0.348	0.4665	0	142	330	3
2026-02-12	16:15:59.390	1.89	-16.695	4.445	-0.30378	0.762256	-0.220576	0.039	-0.3555	0.471	0	142	330	3
2026-02-12	16:15:59.410	1.995	-16.065	1.61	-0.325252	0.786656	-0.231556	0.03	-0.348	0.4695	0	140	342	2
2026-02-12	16:15:59.430	0.21	-14.91	0.105	-0.347944	0.806176	-0.227652	0.03	-0.348	0.4695	0	140	342	2
2026-02-12	16:15:59.450	-2.31	-14.63	0.245	-0.359168	0.802028	-0.215208	0.03	-0.348	0.4695	0	140	342	2
2026-02-12	16:15:59.470	-1.54	-15.05	-0.77	-0.359656	0.828868	-0.223748	0.0375	-0.3495	0.468	0	140	342	2
2026-02-12	16:15:59.490	-2.695	-14.63	-0.98	-0.355508	0.841312	-0.222528	0.039	-0.3465	0.4755	0	140	342	2
2026-02-12	16:15:59.510	-1.33	-14.455	-1.505	-0.368684	0.872788	-0.243756	0.036	-0.351	0.4695	0	140	342	2
2026-02-12	16:15:59.530	-1.33	-13.86	-1.89	-0.360632	0.926956	-0.249856	0.0435	-0.354	0.474	0	140	342	2
2026-02-12	16:15:59.550	-3.71	-13.545	-1.995	-0.335744	0.981856	-0.249856	0.0405	-0.3465	0.4695	0	140	342	2
2026-02-12	16:15:59.570	-9.87	-12.18	-2.94	-0.304512	1.00894	-0.240096	0.0405	-0.3495	0.468	0	140	342	2
2026-02-12	16:15:59.590	-14.07	-9.1	-4.025	-0.294508	1.002352	-0.252296	0.0495	-0.351	0.471	0	140	342	2
2026-02-12	16:15:59.610	-13.65	-4.48	-3.43	-0.315492	1.0065	-0.300608	0.051	-0.3435	0.468	0	139	338	2
2026-02-12	16:15:59.630	-9.345	0.56	-1.085	-0.33672	1.01382	-0.315004	0.045	-0.348	0.4635	0	139	338	2
2026-02-12	16:15:59.650	-3.955	5.53	3.15	-0.34648	1.040416	-0.309392	0.054	-0.342	0.465	0	139	338	2
2026-02-12	16:15:59.670	1.645	10.08	8.225	-0.32574	1.101416	-0.329156	0.054	-0.351	0.462	0	139	338	2
2026-02-12	16:15:59.690	4.9	14.245	14.035	-0.278892	1.157048	-0.362828	0.0405	-0.3435	0.468	0	139	338	2
2026-02-12	16:15:59.710	8.995	19.6	18.865	-0.170556	1.119472	-0.376004	0.045	-0.3435	0.4635	0	139	338	2
2026-02-12	16:15:59.730	12.915	20.055	17.85	-0.131272	0.96868	-0.325496	0.039	-0.3405	0.462	0	139	338	2
2026-02-12	16:15:59.750	14.7	16.275	10.255	-0.13786	0.862784	-0.266692	0.0315	-0.336	0.4665	0	139	338	2
2026-02-12	16:15:59.770	11.725	11.585	1.19	-0.165432	0.797148	-0.22936	0.03	-0.336	0.4695	0	139	338	2
2026-02-12	16:15:59.790	2.345	8.225	-6.545	-0.206668	0.798856	-0.238144	0.0315	-0.3375	0.468	0	139	338	2
2026-02-12	16:15:59.810	-10.885	5.705	-12.495	-0.23912	0.837652	-0.250832	0.033	-0.339	0.471	0	138	327	3
2026-02-12	16:15:59.830	-22.715	5.6	-13.825	-0.226188	0.878644	-0.247904	0.033	-0.3375	0.4725	0	138	327	3
2026-02-12	16:15:59.850	-26.635	9.555	-12.88	-0.194712	0.949892	-0.26108	0.0285	-0.3375	0.4665	0	138	327	3
2026-02-12	16:15:59.870	-19.53	19.18	-12.88	-0.149328	1.048956	-0.314272	0.0345	-0.339	0.4635	0	138	327	3
2026-02-12	16:15:59.890	-8.225	31.395	-15.19	-0.1281	1.093608	-0.331108	0.039	-0.339	0.465	0	138	327	3
2026-02-12	16:15:59.910	-2.065	40.6	-17.675	-0.135908	1.052372	-0.310856	0.036	-0.342	0.462	0	138	327	3
2026-02-12	16:15:59.930	-1.995	46.725	-22.015	-0.170068	1.003084	-0.276696	0.036	-0.3405	0.459	0	138	327	3
2026-02-12	16:15:59.950	-6.09	51.03	-24.255	-0.201544	0.90768	-0.25254	0.042	-0.3375	0.4575	0	138	327	3
2026-02-12	16:15:59.970	-4.585	52.01	-26.215	-0.25376	0.8418	-0.253028	0.0435	-0.345	0.4575	0	138	327	3
2026-02-12	16:15:59.990	-5.215	46.34	-26.6	-0.292556	0.827404	-0.213256	0.0405	-0.3465	0.453	0	138	327	3
2026-02-12	16:16:00.010	-12.285	38.08	-26.285	-0.326228	0.797148	-0.150304	0.039	-0.342	0.45	0	138	315	3
2026-02-12	16:16:00.030	-13.58	34.265	-25.9	-0.349408	0.793	-0.131516	0.036	-0.345	0.4485	0	138	315	3
2026-02-12	16:16:00.050	-10.325	31.465	-25.305	-0.353068	0.803492	-0.134932	0.042	-0.345	0.4455	0	138	315	3
2026-02-12	16:16:00.070	-6.72	28.91	-24.08	-0.35502	0.823256	-0.142008	0.045	-0.345	0.447	0	138	315	3
2026-02-12	16:16:00.090	-8.12	26.005	-21.035	-0.36356	0.83936	-0.158112	0.042	-0.345	0.4455	0	138	315	3
2026-02-12	16:16:00.110	-11.795	23.345	-18.655	-0.356484	0.842044	-0.160552	0.042	-0.3465	0.4425	0	138	315	3
2026-02-12	16:16:00.130	-12.25	20.65	-16.31	-0.353068	0.843508	-0.152012	0.039	-0.3525	0.444	0	138	315	3
2026-02-12	16:16:00.150	-8.54	18.97	-15.365	-0.37454	0.838628	-0.161284	0.045	-0.3465	0.4425	0	138	315	3
2026-02-12	16:16:00.170	-5.565	16.24	-16.38	-0.387472	0.844972	-0.1586	0.0435	-0.3495	0.4395	0	138	315	3
2026-02-12	16:16:00.190	-4.27	11.795	-17.605	-0.407968	0.826916	-0.171776	0.057	-0.351	0.4335	0	138	315	3
2026-02-12	16:16:00.210	-3.99	6.895	-18.69	-0.448472	0.850096	-0.183244	0.057	-0.354	0.435	0	139	294	3
2026-02-12	16:16:00.230	-6.51	1.96	-17.745	-0.462136	0.890112	-0.20618	0.054	-0.348	0.4365	0	139	294	3
2026-02-12	16:16:00.250	-7.91	-2.905	-12.46	-0.45262	0.939888	-0.241072	0.06	-0.3495	0.426	0	139	294	3
2026-02-12	16:16:00.270	-3.815	-5.74	-4.025	-0.44652	1.045296	-0.280112	0.0585	-0.3495	0.432	0	139	294	3
2026-02-12	16:16:00.290	-0.735	-5.145	4.06	-0.390156	1.18828	-0.331108	0.057	-0.354	0.4305	0	139	294	3
2026-02-12	16:16:00.310	2.835	-2.625	8.295	-0.338672	1.209264	-0.364048	0.0585	-0.354	0.4275	0	139	294	3
2026-02-12	16:16:00.330	6.965	0.665	10.885	-0.353556	1.143872	-0.369416	0.0615	-0.3495	0.4275	0	139	294	3
2026-02-12	16:16:00.350	9.87	0.84	12.425	-0.359656	1.044076	-0.352092	0.0585	-0.345	0.4275	0	139	294	3
2026-02-12	16:16:00.370	17.22	-1.75	11.34	-0.345992	0.969168	-0.32208	0.051	-0.3435	0.435	0	139	294	3
2026-02-12	16:16:00.390	20.09	-5.915	8.05	-0.360144	0.912804	-0.314516	0.0495	-0.348	0.4395	0	139	294	3
2026-02-12	16:16:00.410	9.1	-13.615	3.465	-0.340624	0.79666	-0.292556	0.051	-0.3465	0.4455	0	141	278	3
2026-02-12	16:16:00.430	-0.035	-21.14	0.035	-0.366244	0.679296	-0.300852	0.0495	-0.342	0.441	0	141	278	3
2026-02-12	16:16:00.450	-0.98	-30.275	-1.05	-0.40504	0.715652	-0.331596	0.051	-0.342	0.438	0	141	278	3
2026-02-12	16:16:00.470	-1.61	-38.535	1.925	-0.421144	0.746396	-0.340136	0.051	-0.354	0.45	0	141	278	3
2026-02-12	16:16:00.490	-1.505	-43.715	5.39	-0.385276	0.805688	-0.3477	0.0525	-0.3525	0.441	0	141	278	3
2026-02-12	16:16:00.510	-2.8	-41.895	13.125	-0.338916	0.847412	-0.310124	0.0525	-0.3525	0.4425	0	141	278	3
2026-02-12	16:16:00.530	-0.35	-36.4	16.555	-0.302072	0.900848	-0.374296	0.0525	-0.345	0.4455	0	141	278	3
2026-02-12	16:16:00.550	0.595	-32.305	17.045	-0.286212	0.912804	-0.398696	0.0525	-0.3405	0.4455	0	141	278	3
2026-02-12	16:16:00.570	0.525	-28.805	16.065	-0.280844	0.853024	-0.396256	0.0495	-0.3465	0.444	0	141	278	3
2026-02-12	16:16:00.590	2.905	-26.705	14.385	-0.275964	0.813008	-0.357216	0.048	-0.351	0.447	0	141	278	3
2026-02-12	16:16:00.610	6.755	-24.01	12.285	-0.304268	0.77592	-0.308416	0.051	-0.3465	0.447	0	143	278	3
2026-02-12	16:16:00.630	9.94	-21.105	11.235	-0.320616	0.770552	-0.263276	0.0525	-0.345	0.447	0	143	278	3
2026-02-12	16:16:00.650	8.05	-19.425	10.885	-0.324032	0.793244	-0.224236	0.0465	-0.345	0.447	0	143	278	3
2026-02-12	16:16:00.670	5.215	-18.165	9.765	-0.328912	0.785192	-0.205448	0.0465	-0.3405	0.45	0	143	278	3
2026-02-12	16:16:00.690	5.67	-16.59	8.12	-0.343796	0.778116	-0.19398	0.0465	-0.3405	0.456	0	143	278	3
2026-02-12	16:16:00.710	6.72	-14.805	7.525	-0.35746	0.77104	-0.188124	0.0405	-0.342	0.4545	0	143	278	3
2026-02-12	16:16:00.730	8.68	-13.93	7.315	-0.369416	0.782752	-0.175192	0.0435	-0.3375	0.4515	0	143	278	3
2026-02-12	16:16:00.750	9.695	-13.685	7.56	-0.371368	0.814472	-0.18422	0.0465	-0.333	0.4515	0	143	278	3
2026-02-12	16:16:00.770	7.035	-12.81	6.79	-0.376736	0.85278	-0.198128	0.048	-0.33	0.4545	0	143	278	3
2026-02-12	16:16:00.790	2.625	-12.215	6.615	-0.380396	0.861564	-0.2013	0.03	-0.3375	0.4575	0	143	278	3
2026-02-12	16:16:00.810	6.475	-11.83	4.83	-0.370636	0.881816	-0.22448	0.042	-0.336	0.468	0	144	282	2
2026-02-12	16:16:00.830	16.66	-10.395	3.605	-0.361852	0.92476	-0.25376	0.048	-0.3315	0.474	0	144	282	2
2026-02-12	16:16:00.850	19.775	-9.87	2.73	-0.352336	1.001864	-0.27938	0.0465	-0.324	0.465	0	144	282	2
2026-02-12	16:16:00.870	12.075	-9.59	1.575	-0.332328	1.03822	-0.302072	0.0465	-0.324	0.462	0	144	282	2
2026-02-12	16:16:00.890	-2.17	-7.665	1.435	-0.328424	1.018944	-0.313296	0.051	-0.3285	0.4725	0	144	282	2
2026-02-12	16:16:00.910	-6.335	-2.66	5.495	-0.320372	1.025532	-0.337452	0.045	-0.327	0.4695	0	144	282	2
2026-02-12	16:16:00.930	-3.78	2.975	12.425	-0.298656	1.077504	-0.366244	0.045	-0.3225	0.4665	0	144	282	2
2026-02-12	16:16:00.950	-0.84	9.17	19.6	-0.282552	1.131672	-0.4087	0.039	-0.3225	0.471	0	144	282	2
2026-02-12	16:16:00.970	2.485	14.63	24.71	-0.233996	1.185108	-0.43554	0.036	-0.327	0.4725	0	144	282	2
2026-02-12	16:16:00.990	6.545	18.025	25.41	-0.174216	1.1224	-0.400648	0.0375	-0.3285	0.4695	0	144	282	2
2026-02-12	16:16:01.010	10.85	18.83	20.86	-0.144692	1.007232	-0.32818	0.0285	-0.3255	0.468	0	145	284	3
2026-02-12	16:16:01.030	9.905	15.505	5.985	-0.196908	0.81008	-0.24278	0.0255	-0.324	0.465	0	145	284	3
2026-02-12	16:16:01.050	0.84	11.41	-3.675	-0.223504	0.832772	-0.259128	0.0255	-0.324	0.465	0	145	284	3
2026-02-12	16:16:01.070	-8.435	8.925	-12.18	-0.252296	0.851804	-0.248636	0.0315	-0.318	0.471	0	145	284	3
2026-02-12	16:16:01.090	-14.21	11.48	-16.17	-0.249856	0.878156	-0.24156	0.0195	-0.3165	0.468	0	145	284	3
2026-02-12	16:16:01.110	-15.015	16.8	-18.97	-0.202032	0.941596	-0.300852	0.018	-0.333	0.468	0	145	284	3
2026-02-12	16:16:01.130	-12.985	24.255	-21.805	-0.167628	1.046028	-0.378688	0.0165	-0.3285	0.4665	0	145	284	3
2026-02-12	16:16:01.150	-13.615	31.535	-23.835	-0.152988	1.031876	-0.39528	0.0195	-0.33	0.459	0	145	284	3
2026-02-12	16:16:01.170	-11.9	38.815	-24.29	-0.146888	0.997228	-0.351848	0.018	-0.327	0.459	0	145	284	3
2026-02-12	16:16:01.190	-14.63	43.96	-24.5	-0.154208	0.93086	-0.266936	0.018	-0.3255	0.459	0	145	284	3
2026-02-12	16:16:01.210	-15.575	46.585	-26.04	-0.181536	0.870104	-0.217648	0.0225	-0.327	0.4575	0	146	289	3
2026-02-12	16:16:01.230	-15.575	47.845	-26.495	-0.223748	0.811544	-0.182512	0.0255	-0.3285	0.4515	0	146	289	3
2026-02-12	16:16:01.250	-17.78	47.285	-26.355	-0.277184	0.746152	-0.144692	0.027	-0.33	0.4455	0	146	289	3
2026-02-12	16:16:01.270	-18.725	44.695	-24.29	-0.315248	0.687348	-0.122732	0.03	-0.3315	0.4425	0	146	289	3
2026-02-12	16:16:01.290	-11.235	40.355	-19.25	-0.357948	0.714676	-0.1159	0.0285	-0.336	0.441	0	146	289	3
2026-02-12	16:16:01.310	-3.535	36.575	-13.16	-0.363804	0.785192	-0.123464	0.0285	-0.339	0.4395	0	146	289	3
2026-02-12	16:16:01.330	-3.71	34.475	-10.22	-0.37698	0.830332	-0.152256	0.0255	-0.3375	0.4425	0	146	289	3
2026-02-12	16:16:01.350	-7.07	31.57	-8.295	-0.380396	0.860832	-0.180804	0.03	-0.3315	0.432	0	146	289	3
2026-02-12	16:16:01.370	-9.73	27.615	-7.14	-0.382348	0.853756	-0.189344	0.0255	-0.339	0.4275	0	146	289	3
2026-02-12	16:16:01.390	-10.08	22.785	-6.02	-0.380152	0.860344	-0.181536	0.0285	-0.336	0.4275	0	146	289	3
2026-02-12	16:16:01.410	-11.445	17.5	-6.125	-0.38552	0.859368	-0.153232	0.0255	-0.3435	0.426	0	147	283	3
2026-02-12	16:16:01.430	-12.11	12.46	-8.225	-0.384544	0.851072	-0.159088	0.024	-0.3405	0.4275	0	147	283	3
2026-02-12	16:16:01.450	-11.095	6.86	-10.64	-0.405528	0.88572	-0.175192	0.027	-0.3375	0.4245	0	147	283	3
2026-02-12	16:16:01.470	-5.845	0.245	-15.995	-0.437004	0.955504	-0.21838	0.0165	-0.3405	0.4185	0	147	283	3
2026-02-12	16:16:01.490	-8.19	-2.59	-13.685	-0.465308	0.928664	-0.305	0.0285	-0.3345	0.423	0	147	283	3
2026-02-12	16:16:01.510	-3.29	-5.18	-9.94	-0.447984	0.982832	-0.355996	0.027	-0.3375	0.417	0	147	283	3
2026-02-12	16:16:01.530	2.695	-8.4	-3.115	-0.445544	1.036024	-0.349408	0.039	-0.336	0.417	0	147	283	3
2026-02-12	16:16:01.550	14.245	-8.575	4.095	-0.427	1.115324	-0.371856	0.0315	-0.336	0.423	0	147	283	3
2026-02-12	16:16:01.570	32.095	-7.7	12.95	-0.389912	1.232444	-0.396256	0.033	-0.3405	0.423	0	147	283	3
2026-02-12	16:16:01.590	31.605	-10.85	14.49	-0.412604	1.176324	-0.406016	0.0315	-0.3375	0.426	0	147	283	3
2026-02-12	16:16:01.610	25.235	-17.15	13.195	-0.416264	1.114104	-0.393084	0.0285	-0.333	0.4335	0	149	273	3
2026-02-12	16:16:01.630	17.01	-26.285	12.285	-0.358192	1.035292	-0.33794	0.0255	-0.333	0.441	0	149	273	3
2026-02-12	16:16:01.650	5.88	-35.735	10.08	-0.299144	0.917684	-0.26596	0.0225	-0.336	0.4425	0	149	273	3
2026-02-12	16:16:01.670	-6.615	-43.47	3.71	-0.303292	0.775432	-0.234728	0.018	-0.3315	0.4395	0	149	273	3
2026-02-12	16:16:01.690	-15.33	-50.54	-0.98	-0.340868	0.729804	-0.245952	0.0225	-0.3285	0.4365	0	149	273	3
2026-02-12	16:16:01.710	-20.965	-55.825	-0.665	-0.378932	0.676368	-0.312564	0.033	-0.3315	0.435	0	149	273	3
2026-02-12	16:16:01.730	-12.985	-58.38	4.795	-0.40138	0.785192	-0.366976	0.0375	-0.3315	0.438	0	149	273	3
2026-02-12	16:16:01.750	-10.115	-59.675	16.03	-0.367952	0.869128	-0.38186	0.0225	-0.324	0.4335	0	149	273	3
2026-02-12	16:16:01.770	-9.065	-56.98	24.08	-0.316468	0.944524	-0.374052	0.0345	-0.339	0.4365	0	149	273	3
2026-02-12	16:16:01.790	-4.34	-51.45	27.3	-0.264496	0.945988	-0.3721	0.036	-0.3315	0.4425	0	149	273	3
2026-02-12	16:16:01.810	1.54	-44.275	25.83	-0.245464	0.903532	-0.347944	0.0315	-0.333	0.435	0	152	276	3
2026-02-12	16:16:01.830	3.185	-36.995	21.315	-0.262056	0.808372	-0.314028	0.033	-0.333	0.4335	0	152	276	3
2026-02-12	16:16:01.850	5.705	-30.94	16.275	-0.295728	0.677588	-0.268156	0.033	-0.333	0.4335	0	152	276	3
2026-02-12	16:16:01.870	11.655	-28.84	12.74	-0.317932	0.657092	-0.225944	0.0315	-0.3315	0.4335	0	152	276	3
2026-02-12	16:16:01.890	15.61	-28.56	11.34	-0.351848	0.699304	-0.204228	0.03	-0.33	0.438	0	152	276	3
2026-02-12	16:16:01.910	15.4	-28	10.185	-0.360632	0.723948	-0.19154	0.0315	-0.3255	0.441	0	152	276	3
2026-02-12	16:16:01.930	14.945	-26.32	8.89	-0.371612	0.74176	-0.183976	0.0315	-0.3225	0.444	0	152	276	3
2026-02-12	16:16:01.950	14.245	-25.165	8.12	-0.386008	0.759816	-0.19154	0.027	-0.324	0.447	0	152	276	3
2026-02-12	16:16:01.970	11.585	-24.045	8.645	-0.396256	0.791048	-0.194224	0.0255	-0.3225	0.447	0	152	276	3
2026-02-12	16:16:01.990	9.765	-21.245	9.345	-0.396744	0.810568	-0.203984	0.0255	-0.3225	0.45	0	152	276	3
2026-02-12	16:16:02.010	10.71	-17.745	8.715	-0.389668	0.86986	-0.226188	0.024	-0.324	0.4515	0	155	280	3
2026-02-12	16:16:02.030	9.975	-17.255	7.735	-0.37698	0.906704	-0.239364	0.0285	-0.318	0.4515	0	155	280	3
2026-02-12	16:16:02.050	6.65	-17.045	4.27	-0.367464	0.935008	-0.24278	0.027	-0.318	0.4545	0	155	280	3
2026-02-12	16:16:02.070	1.085	-16.835	0.28	-0.373564	0.950868	-0.252784	0.0255	-0.318	0.459	0	155	280	3
2026-02-12	16:16:02.090	-2.73	-17.185	-2.975	-0.366	0.974536	-0.255956	0.0285	-0.315	0.465	0	155	280	3
2026-02-12	16:16:02.110	-5.39	-16.765	-5.53	-0.337452	1.008208	-0.270352	0.0285	-0.318	0.468	0	155	280	3
2026-02-12	16:16:02.130	-3.64	-14.245	-6.055	-0.324764	1.021384	-0.276696	0.0285	-0.318	0.468	0	155	280	3
2026-02-12	16:16:02.150	-3.08	-10.745	-4.62	-0.320128	0.992836	-0.275476	0.0225	-0.3165	0.459	0	155	280	3
2026-02-12	16:16:02.170	-1.715	-6.265	-1.365	-0.30744	0.993324	-0.276696	0.033	-0.309	0.465	0	155	280	3
2026-02-12	16:16:02.190	3.465	-2.205	3.15	-0.30744	1.024068	-0.294508	0.0435	-0.3135	0.4545	0	155	280	3
2026-02-12	16:16:02.210	8.19	2.17	9.765	-0.289628	1.0736	-0.315004	0.0375	-0.3165	0.4575	0	156	279	3
2026-02-12	16:16:02.230	9.59	6.72	16.94	-0.229848	1.126304	-0.332572	0.0315	-0.321	0.459	0	156	279	3
2026-02-12	16:16:02.250	8.295	9.94	19.775	-0.14884	1.054324	-0.306464	0.0255	-0.3135	0.468	0	156	279	3
2026-02-12	16:16:02.270	8.435	12.075	16.625	-0.122	0.972096	-0.26596	0.0255	-0.3105	0.4605	0	156	279	3
2026-02-12	16:16:02.290	4.165	11.34	8.995	-0.13664	0.876448	-0.238144	0.0255	-0.312	0.462	0	156	279	3
2026-02-12	16:16:02.310	-0.63	9.52	2.24	-0.167628	0.82716	-0.234484	0.027	-0.3135	0.4665	0	156	279	3
2026-02-12	16:16:02.330	-6.475	9.065	-2.8	-0.180804	0.854244	-0.23302	0.0225	-0.3135	0.465	0	156	279	3
2026-02-12	16:16:02.350	-12.355	10.605	-6.685	-0.183	0.883768	-0.2501	0.021	-0.3105	0.465	0	156	279	3
2026-02-12	16:16:02.370	-13.545	15.96	-7.805	-0.180804	0.928176	-0.279868	0.024	-0.3075	0.465	0	156	279	3
2026-02-12	16:16:02.390	-5.355	25.445	-7.035	-0.173728	1.009428	-0.332816	0.024	-0.3105	0.465	0	156	279	3
2026-02-12	16:16:02.410	3.115	32.83	-5.88	-0.175924	1.010648	-0.340624	0.021	-0.309	0.459	0	157	277	3
2026-02-12	16:16:02.430	8.155	38.43	-6.475	-0.20374	1.007964	-0.32452	0.0165	-0.318	0.459	0	157	277	3
2026-02-12	16:16:02.450	7.315	41.195	-7.49	-0.238876	0.943548	-0.28304	0.015	-0.3165	0.459	0	157	277	3
2026-02-12	16:16:02.470	6.3	42.42	-9.17	-0.255224	0.87718	-0.230824	0.0195	-0.306	0.4515	0	157	277	3
2026-02-12	16:16:02.490	7.84	41.79	-11.235	-0.278892	0.81862	-0.183244	0.0135	-0.3165	0.4635	0	157	277	3
2026-02-12	16:16:02.510	8.68	40.635	-13.23	-0.300852	0.798124	-0.160064	0.0135	-0.3075	0.456	0	157	277	3
2026-02-12	16:16:02.530	5.355	38.64	-14.035	-0.3294	0.7808	-0.15982	0.0195	-0.3165	0.4575	0	157	277	3
2026-02-12	16:16:02.550	0.35	35.14	-15.61	-0.333792	0.771528	-0.155184	0.0165	-0.312	0.4605	0	157	277	3
2026-02-12	16:16:02.570	-8.085	32.865	-12.635	-0.365756	0.756644	-0.16958	0.015	-0.3045	0.456	0	157	277	3
2026-02-12	16:16:02.590	-10.745	29.4	-11.515	-0.354532	0.79422	-0.170068	0.0135	-0.3	0.444	0	157	277	3
2026-02-12	16:16:02.610	-6.755	26.355	-9.59	-0.347456	0.848632	-0.173484	0.012	-0.312	0.447	0	155	273	3
2026-02-12	16:16:02.630	1.925	23.45	-9.345	-0.322324	0.912804	-0.200812	0	-0.312	0.45	0	155	273	3
2026-02-12	16:16:02.650	2.065	21.035	-8.89	-0.334524	0.961116	-0.200812	0.0045	-0.3105	0.447	0	155	273	3
2026-02-12	16:16:02.670	-3.22	16.8	-9.695	-0.333792	0.934032	-0.185196	0.0075	-0.3075	0.4485	0	155	273	3
2026-02-12	16:16:02.690	-2.17	13.755	-10.99	-0.349408	0.898652	-0.16714	0.0045	-0.3105	0.4485	0	155	273	3
2026-02-12	16:16:02.710	-0.21	10.08	-13.265	-0.383324	0.894748	-0.167384	0.0045	-0.3135	0.4485	0	155	273	3
2026-02-12	16:16:02.730	-2.555	6.16	-14.875	-0.406748	0.921832	-0.181048	0.012	-0.312	0.447	0	155	273	3
2026-02-12	16:16:02.750	-7.63	2.695	-14.805	-0.417728	0.922076	-0.216916	0.0135	-0.3135	0.444	0	155	273	3
2026-02-12	16:16:02.770	-8.68	-0.14	-13.09	-0.413336	0.951356	-0.251808	0.0135	-0.3105	0.441	0	155	273	3
2026-02-12	16:16:02.790	-8.295	-3.325	-9.87	-0.40504	0.998936	-0.30012	0.018	-0.3135	0.438	0	155	273	3
2026-02-12	16:16:02.810	-8.575	-6.265	-4.305	-0.371856	1.071404	-0.339404	0.0225	-0.3135	0.438	0	154	263	3
2026-02-12	16:16:02.830	-1.225	-4.235	1.4	-0.323544	1.155828	-0.376492	0.018	-0.3135	0.438	0	154	263	3
2026-02-12	16:16:02.850	9.415	-0.175	6.09	-0.313052	1.178032	-0.401136	0.0135	-0.3135	0.4395	0	154	263	3
2026-02-12	16:16:02.870	14.245	-0.56	9.485	-0.330132	1.096048	-0.39772	0.012	-0.3105	0.4455	0	154	263	3
2026-02-12	16:16:02.890	16.485	-4.235	11.725	-0.371612	1.040416	-0.383812	0.015	-0.312	0.45	0	154	263	3
2026-02-12	16:16:02.910	15.61	-9.765	13.51	-0.375272	0.972096	-0.346968	0.021	-0.3165	0.45	0	154	263	3
2026-02-12	16:16:02.930	10.255	-19.32	12.845	-0.314516	0.90036	-0.270108	0.021	-0.3165	0.45	0	154	263	3
2026-02-12	16:16:02.950	0.945	-25.935	9.31	-0.302072	0.812276	-0.255712	0.0105	-0.309	0.453	0	154	263	3
2026-02-12	16:16:02.970	-5.32	-32.445	4.55	-0.319884	0.721508	-0.276208	0.0045	-0.3045	0.4545	0	154	263	3
2026-02-12	16:16:02.990	-8.75	-39.2	4.27	-0.340136	0.68198	-0.31598	0.015	-0.303	0.453	0	154	263	3
2026-02-12	16:16:03.010	-7.875	-45.045	9.415	-0.344528	0.732488	-0.339648	0.018	-0.3045	0.456	0	152	263	3
2026-02-12	16:16:03.030	-9.275	-48.545	16.94	-0.31842	0.81374	-0.348188	0.0135	-0.3105	0.456	0	152	263	3
2026-02-12	16:16:03.050	-13.405	-48.405	23.73	-0.277184	0.886208	-0.371124	0.012	-0.3075	0.4575	0	152	263	3
2026-02-12	16:16:03.070	-13.055	-45.115	25.83	-0.233752	0.941108	-0.404796	0.012	-0.3045	0.459	0	152	263	3
2026-02-12	16:16:03.090	-10.535	-42.735	25.725	-0.203496	0.94306	-0.410896	0.009	-0.3015	0.4575	0	152	263	3
2026-02-12	16:16:03.110	-3.675	-39.025	23.975	-0.205936	0.891088	-0.386252	0.009	-0.2985	0.4605	0	152	263	3
2026-02-12	16:16:03.130	5.285	-35.35	19.915	-0.204228	0.844484	-0.345748	0.006	-0.297	0.4635	0	152	263	3
2026-02-12	16:16:03.150	12.95	-32.13	15.715	-0.238632	0.81618	-0.30256	0.0045	-0.2985	0.4605	0	152	263	3
2026-02-12	16:16:03.170	15.19	-29.225	12.88	-0.263276	0.786656	-0.274988	0.009	-0.3	0.465	0	152	263	3
2026-02-12	16:16:03.190	11.445	-25.41	12.215	-0.28426	0.753716	-0.24766	0.012	-0.3	0.4695	0	152	263	3
2026-02-12	16:16:03.210	6.93	-21.98	13.125	-0.27694	0.733464	-0.219112	0.0105	-0.3	0.468	0	151	274	3
2026-02-12	16:16:03.230	7.77	-19.845	14.77	-0.275476	0.718092	-0.199104	0.0105	-0.303	0.477	0	151	274	3
2026-02-12	16:16:03.250	12.67	-16.94	15.82	-0.278648	0.74786	-0.184952	0.018	-0.3015	0.4785	0	151	274	3
2026-02-12	16:16:03.270	14.21	-14.98	16.695	-0.273524	0.819352	-0.188612	0.0105	-0.3	0.474	0	151	274	3
2026-02-12	16:16:03.290	10.675	-11.48	15.015	-0.28182	0.820816	-0.181292	0.0045	-0.294	0.4785	0	151	274	3
2026-02-12	16:16:03.310	2.38	-7.49	15.54	-0.290848	0.779824	-0.185928	0.003	-0.2925	0.4815	0	151	274	3
2026-02-12	16:16:03.330	3.5	-5.53	14.595	-0.286944	0.820816	-0.193492	0.003	-0.2925	0.48	0	151	274	3
2026-02-12	16:16:03.350	9.205	-5.985	11.865	-0.284504	0.934764	-0.23058	0.0045	-0.291	0.4785	0	151	274	3
2026-02-12	16:16:03.370	7.105	-6.545	9.695	-0.288164	0.9699	-0.250588	0.0045	-0.285	0.489	0	151	274	3
2026-02-12	16:16:03.390	2.73	-5.67	5.74	-0.266204	1.028948	-0.246196	0	-0.2835	0.4845	0	151	274	3
2026-02-12	16:16:03.410	-1.365	-4.13	2.24	-0.249124	1.061888	-0.255468	0.006	-0.2925	0.4875	0	150	280	3
2026-02-12	16:16:03.430	-3.955	-1.085	-0.525	-0.230336	1.097024	-0.279868	0.0105	-0.2865	0.4905	0	150	280	3
2026-02-12	16:16:03.450	-3.5	4.795	-2.52	-0.22448	1.132404	-0.313296	0.006	-0.285	0.492	0	150	280	3
2026-02-12	16:16:03.470	-2.66	13.58	0.385	-0.240828	1.185352	-0.370148	0.0045	-0.294	0.492	0	150	280	3
2026-02-12	16:16:03.490	-1.47	19.215	7.56	-0.217404	1.245132	-0.390156	0.0045	-0.294	0.492	0	150	280	3
2026-02-12	16:16:03.510	4.55	27.02	15.785	-0.1342	1.306864	-0.415532	0.006	-0.285	0.48	0	150	280	3
2026-02-12	16:16:03.530	12.6	34.265	20.615	-0.065148	1.275632	-0.42456	-0.0045	-0.2865	0.486	0	150	280	3
2026-02-12	16:16:03.550	17.15	36.54	17.395	-0.010004	1.121912	-0.36722	-0.006	-0.2865	0.48	0	150	280	3
2026-02-12	16:16:03.570	15.925	33.705	7.735	-0.027328	0.910608	-0.299388	-0.0165	-0.2775	0.4875	0	150	280	3
2026-02-12	16:16:03.590	11.41	26.88	-3.22	-0.0915	0.76738	-0.250588	-0.015	-0.279	0.489	0	150	280	3
2026-02-12	16:16:03.610	4.235	22.085	-11.83	-0.12688	0.720776	-0.232044	-0.0105	-0.279	0.489	0	151	283	3
2026-02-12	16:16:03.630	-3.185	19.845	-18.375	-0.169092	0.76128	-0.225456	-0.0195	-0.279	0.4965	0	151	283	3
2026-02-12	16:16:03.650	-12.985	19.32	-20.93	-0.19398	0.795196	-0.224236	-0.0195	-0.285	0.4935	0	151	283	3
2026-02-12	16:16:03.670	-16.31	22.82	-20.195	-0.210572	0.842044	-0.254248	-0.012	-0.276	0.492	0	151	283	3
2026-02-12	16:16:03.690	-14.875	28.84	-15.33	-0.212036	0.904508	-0.292312	-0.012	-0.279	0.492	0	151	283	3
2026-02-12	16:16:03.710	-8.855	36.05	-10.64	-0.196908	0.976244	-0.33916	-0.0195	-0.282	0.4845	0	151	283	3
2026-02-12	16:16:03.730	1.295	41.72	-7.35	-0.17446	1.057496	-0.360144	-0.0195	-0.2865	0.4815	0	151	283	3
2026-02-12	16:16:03.750	4.06	41.93	-7.385	-0.154696	1.065304	-0.303292	-0.0195	-0.2865	0.4815	0	151	283	3
2026-02-12	16:16:03.770	3.045	40.39	-10.885	-0.16714	1.014552	-0.238632	-0.018	-0.282	0.483	0	151	283	3
2026-02-12	16:16:03.790	-0.21	38.185	-15.82	-0.186416	0.930616	-0.196176	-0.0135	-0.2805	0.4845	0	151	283	3
2026-02-12	16:16:03.810	-1.12	36.575	-19.705	-0.224968	0.845704	-0.177388	-0.0135	-0.2835	0.483	0	154	285	3
2026-02-12	16:16:03.830	-2.135	33.39	-21.105	-0.266936	0.821792	-0.177632	-0.015	-0.285	0.4785	0	154	285	3
2026-02-12	16:16:03.850	-2.695	27.895	-21.525	-0.284504	0.8113	-0.172508	-0.015	-0.2865	0.48	0	154	285	3
2026-02-12	16:16:03.870	-4.34	22.75	-20.965	-0.296948	0.823744	-0.172996	-0.015	-0.2865	0.4815	0	154	285	3
2026-02-12	16:16:03.890	-4.97	19.53	-20.755	-0.308416	0.825208	-0.177388	-0.0195	-0.2865	0.48	0	154	285	3
2026-02-12	16:16:03.910	-4.445	17.395	-19.495	-0.31964	0.846924	-0.187148	-0.0195	-0.285	0.48	0	154	285	3
2026-02-12	16:16:03.930	-2.52	14.245	-20.055	-0.318176	0.875472	-0.195688	-0.015	-0.2865	0.477	0	154	285	3
2026-02-12	16:16:03.950	-1.785	10.57	-21.385	-0.313296	0.907192	-0.2013	-0.0135	-0.291	0.4755	0	154	285	3
2026-02-12	16:16:03.970	-2.52	6.93	-23.835	-0.308416	0.935496	-0.20008	-0.0075	-0.2925	0.477	0	154	285	3
2026-02-12	16:16:03.990	-3.045	3.57	-26.74	-0.311588	0.939156	-0.207888	0	-0.294	0.4785	0	154	285	3
2026-02-12	16:16:04.010	-1.995	-1.925	-32.445	-0.343552	0.943548	-0.222528	0	-0.2955	0.4815	0	156	279	3
2026-02-12	16:16:04.030	-2.905	-7.7	-34.755	-0.362584	0.96746	-0.24156	0	-0.2955	0.4815	0	156	279	3
2026-02-12	16:16:04.050	-4.445	-12.845	-35.385	-0.358924	0.989908	-0.261812	0.0105	-0.291	0.4815	0	156	279	3
2026-02-12	16:16:04.070	-4.165	-16.03	-33.355	-0.378688	1.00894	-0.289628	0.018	-0.297	0.4845	0	156	279	3
2026-02-12	16:16:04.090	-3.15	-18.935	-28.105	-0.39772	1.036756	-0.316468	0.018	-0.294	0.483	0	156	279	3
2026-02-12	16:16:04.110	-2.135	-17.745	-17.955	-0.371368	1.08458	-0.344528	0.021	-0.2925	0.483	0	156	279	3
2026-02-12	16:16:04.130	2.59	-13.335	-7.14	-0.349896	1.120692	-0.371612	0.0255	-0.297	0.483	0	156	279	3
2026-02-12	16:16:04.150	5.81	-12.145	2.52	-0.302072	1.160464	-0.404308	0.03	-0.297	0.4845	0	156	279	3
2026-02-12	16:16:04.170	7.665	-13.195	7.42	-0.25498	1.132892	-0.377956	0.03	-0.2955	0.486	0	156	279	3
2026-02-12	16:16:04.190	5.46	-15.295	6.825	-0.248148	1.030168	-0.332572	0.033	-0.2985	0.489	0	156	279	3
2026-02-12	16:16:04.210	-2.38	-19.635	4.27	-0.245708	0.840092	-0.273768	0.036	-0.297	0.4875	0	158	273	3
2026-02-12	16:16:04.230	-4.235	-24.08	2.17	-0.24278	0.708332	-0.229848	0.0375	-0.2955	0.4875	0	158	273	3
2026-02-12	16:16:04.250	-4.445	-29.505	0.735	-0.25864	0.683444	-0.234484	0.036	-0.294	0.4905	0	158	273	3
2026-02-12	16:16:04.270	-8.435	-34.72	3.36	-0.284748	0.703452	-0.255224	0.0345	-0.2895	0.4905	0	158	273	3
2026-02-12	16:16:04.290	-11.165	-38.01	9.1	-0.30134	0.76738	-0.291092	0.036	-0.2895	0.489	0	158	273	3
2026-02-12	16:16:04.310	-13.58	-38.71	15.435	-0.311588	0.813252	-0.316956	0.054	-0.297	0.4965	0	158	273	3
2026-02-12	16:16:04.330	-14.455	-37.03	22.785	-0.296704	0.870592	-0.331352	0.045	-0.3	0.492	0	158	273	3
2026-02-12	16:16:04.350	-11.865	-32.235	27.755	-0.260836	0.927932	-0.355508	0.0555	-0.2985	0.4875	0	158	273	3
2026-02-12	16:16:04.370	-6.16	-26.285	28.91	-0.242536	0.93818	-0.370392	0.0495	-0.303	0.489	0	158	273	3
2026-02-12	16:16:04.390	-3.57	-21.805	28.315	-0.246196	0.87962	-0.376004	0.048	-0.3	0.489	0	158	273	3
2026-02-12	16:16:04.410	1.225	-17.535	26.74	-0.26108	0.83204	-0.353556	0.0465	-0.297	0.48	0	159	276	3
2026-02-12	16:16:04.430	6.055	-15.05	24.22	-0.278404	0.816912	-0.316712	0.042	-0.3	0.4845	0	159	276	3
2026-02-12	16:16:04.450	11.235	-13.335	20.79	-0.296948	0.813984	-0.280112	0.042	-0.3	0.4875	0	159	276	3
2026-02-12	16:16:04.470	13.86	-11.62	17.605	-0.313784	0.837652	-0.262544	0.051	-0.2895	0.4875	0	159	276	3
2026-02-12	16:16:04.490	10.5	-10.36	14.56	-0.315736	0.830332	-0.245952	0.0375	-0.2925	0.4965	0	159	276	3
2026-02-12	16:16:04.510	6.755	-9.555	11.27	-0.317688	0.808372	-0.221552	0.0525	-0.2955	0.4935	0	159	276	3
2026-02-12	16:16:04.530	5.075	-8.82	8.19	-0.321592	0.773724	-0.20984	0.042	-0.3	0.492	0	159	276	3
2026-02-12	16:16:04.550	2.45	-7.875	4.865	-0.339892	0.798612	-0.211304	0.051	-0.303	0.492	0	159	276	3
2026-02-12	16:16:04.570	-2.065	-7.805	2.555	-0.337452	0.84058	-0.240828	0.048	-0.2985	0.4905	0	159	276	3
2026-02-12	16:16:04.590	-11.97	-8.47	0.84	-0.341356	0.876448	-0.205448	0.051	-0.297	0.495	0	159	276	3
2026-02-12	16:16:04.610	-25.095	-10.43	-1.05	-0.3294	0.896212	-0.149084	0.054	-0.297	0.4935	0	158	280	3
2026-02-12	16:16:04.630	-27.965	-9.8	-2.1	-0.350628	0.865956	-0.136396	0.0555	-0.297	0.4845	0	158	280	3
2026-02-12	16:16:04.650	-18.655	-7.21	-2.87	-0.345504	0.828868	-0.143472	0.057	-0.303	0.48	0	158	280	3
2026-02-12	16:16:04.670	-7.49	-4.9	-0.28	-0.337208	0.921832	-0.132004	0.054	-0.3075	0.4785	0	158	280	3
2026-02-12	16:16:04.690	-0.595	-3.22	1.365	-0.305	0.967704	-0.166652	0.054	-0.3045	0.4815	0	158	280	3
2026-02-12	16:16:04.710	3.535	-0.245	2.31	-0.280112	1.049688	-0.185684	0.0555	-0.3045	0.477	0	158	280	3
2026-02-12	16:16:04.730	3.395	4.515	3.08	-0.292068	1.081652	-0.238632	0.0525	-0.3	0.483	0	158	280	3
2026-02-12	16:16:04.750	4.375	8.575	4.55	-0.319152	1.132892	-0.322812	0.0585	-0.3045	0.4755	0	158	280	3
2026-02-12	16:16:04.770	9.87	11.27	9.275	-0.305976	1.222928	-0.39162	0.054	-0.3045	0.474	0	158	280	3
2026-02-12	16:16:04.790	16.17	14	15.435	-0.228872	1.257576	-0.416264	0.0555	-0.3015	0.48	0	158	280	3
2026-02-12	16:16:04.810	23.835	17.185	18.13	-0.117852	1.150216	-0.37332	0.051	-0.3075	0.474	0	156	276	3
2026-02-12	16:16:04.830	22.54	17.71	11.41	-0.08052	0.979416	-0.300852	0.051	-0.3075	0.474	0	156	276	3
2026-02-12	16:16:04.850	15.05	14.07	0.84	-0.0915	0.840824	-0.268156	0.048	-0.303	0.4785	0	156	276	3
2026-02-12	16:16:04.870	5.915	9.625	-8.225	-0.149084	0.78934	-0.255224	0.045	-0.3045	0.486	0	156	276	3
2026-02-12	16:16:04.890	-4.515	4.935	-12.635	-0.175192	0.802516	-0.244732	0.0405	-0.3105	0.483	0	156	276	3
2026-02-12	16:16:04.910	-12.25	3.745	-13.65	-0.17568	0.846436	-0.248392	0.036	-0.309	0.474	0	156	276	3
2026-02-12	16:16:04.930	-14.385	7.735	-10.745	-0.148352	0.92598	-0.26352	0.042	-0.3075	0.4725	0	156	276	3
2026-02-12	16:16:04.950	-10.395	15.12	-7.035	-0.104188	0.986004	-0.299632	0.045	-0.3075	0.471	0	156	276	3
2026-02-12	16:16:04.970	-1.96	24.78	-6.195	-0.084912	1.038464	-0.327204	0.042	-0.306	0.4665	0	156	276	3
2026-02-12	16:16:04.990	2.275	32.34	-5.95	-0.101992	1.025532	-0.3172	0.042	-0.306	0.468	0	156	276	3
2026-02-12	16:16:05.010	0.98	36.855	-5.985	-0.147376	0.97112	-0.288652	0.042	-0.309	0.4695	0	156	274	3
2026-02-12	16:16:05.030	1.54	40.145	-7.105	-0.176412	0.909388	-0.2562	0.0405	-0.309	0.4665	0	156	274	3
2026-02-12	16:16:05.050	6.615	41.755	-8.19	-0.219112	0.863028	-0.216672	0.0435	-0.3075	0.4635	0	156	274	3
2026-02-12	16:16:05.070	7.735	40.25	-9.975	-0.256444	0.826428	-0.18666	0.0405	-0.306	0.462	0	156	274	3
2026-02-12	16:16:05.090	6.23	36.89	-11.48	-0.304756	0.798124	-0.170556	0.036	-0.306	0.4605	0	156	274	3
2026-02-12	16:16:05.110	5.425	35.035	-11.725	-0.324032	0.785192	-0.164212	0.036	-0.306	0.4605	0	156	274	3
2026-02-12	16:16:05.130	6.65	32.865	-11.27	-0.339892	0.806664	-0.186904	0.0285	-0.309	0.4635	0	156	274	3
2026-02-12	16:16:05.150	5.32	28.805	-10.01	-0.3294	0.84058	-0.208132	0.033	-0.3165	0.471	0	156	274	3
2026-02-12	16:16:05.170	3.78	25.515	-8.995	-0.314028	0.873764	-0.207888	0.036	-0.312	0.465	0	156	274	3
2026-02-12	16:16:05.190	1.855	23.1	-8.47	-0.300852	0.905484	-0.203252	0.027	-0.3225	0.456	0	156	274	3
2026-02-12	16:16:05.210	1.925	20.51	-8.89	-0.288896	0.927688	-0.199592	0.033	-0.312	0.4635	0	155	269	3
2026-02-12	16:16:05.230	3.43	18.235	-10.115	-0.289384	0.954284	-0.200568	0.0405	-0.3165	0.465	0	155	269	3
2026-02-12	16:16:05.250	3.465	15.995	-11.69	-0.30622	0.948916	-0.201056	0.0375	-0.3105	0.465	0	155	269	3
2026-02-12	16:16:05.270	1.575	12.39	-13.65	-0.324032	0.93818	-0.193004	0.033	-0.3135	0.462	0	155	269	3
2026-02-12	16:16:05.290	-1.12	7.595	-15.645	-0.356728	0.918416	-0.197396	0.033	-0.3195	0.459	0	155	269	3
2026-02-12	16:16:05.310	-3.71	2.8	-17.255	-0.379176	0.942328	-0.202764	0.033	-0.315	0.459	0	155	269	3
2026-02-12	16:16:05.330	-8.085	-1.085	-16.87	-0.389912	0.941108	-0.214476	0.033	-0.3165	0.459	0	155	269	3
2026-02-12	16:16:05.350	-8.75	-4.445	-13.965	-0.3843	0.977952	-0.279868	0.0375	-0.321	0.462	0	155	269	3
2026-02-12	16:16:05.370	-4.165	-6.44	-8.96	-0.364292	1.076772	-0.341112	0.039	-0.3225	0.465	0	155	269	3
2026-02-12	16:16:05.390	0.385	-6.265	-4.585	-0.3355	1.150216	-0.36722	0.048	-0.327	0.45	0	155	269	3
2026-02-12	16:16:05.410	2.73	-5.88	-0.98	-0.268644	1.150216	-0.373076	0.048	-0.324	0.4545	0	154	262	3
2026-02-12	16:16:05.430	4.865	-5.845	0.63	-0.269864	1.08214	-0.364536	0.039	-0.3225	0.456	0	154	262	3
2026-02-12	16:16:05.450	7.665	-8.015	0	-0.299144	0.996008	-0.337452	0.0405	-0.3225	0.456	0	154	262	3
2026-02-12	16:16:05.470	9.59	-11.62	-0.35	-0.330132	0.921344	-0.334524	0.048	-0.3225	0.45	0	154	262	3
2026-02-12	16:16:05.490	10.78	-16.765	1.295	-0.306708	0.911584	-0.321348	0.048	-0.3285	0.4485	0	154	262	3
2026-02-12	16:16:05.510	7.49	-22.47	3.08	-0.286212	0.86986	-0.318176	0.0405	-0.3255	0.4605	0	154	262	3
2026-02-12	16:16:05.530	2.73	-27.825	4.585	-0.279624	0.827404	-0.30988	0.051	-0.3285	0.4605	0	154	262	3
2026-02-12	16:16:05.550	-3.15	-34.51	6.65	-0.272304	0.789584	-0.315492	0.051	-0.321	0.465	0	154	262	3
2026-02-12	16:16:05.570	-4.34	-39.935	9.975	-0.284016	0.7625	-0.323788	0.051	-0.3255	0.465	0	154	262	3
2026-02-12	16:16:05.590	-3.745	-43.435	15.365	-0.281576	0.804712	-0.338184	0.048	-0.3255	0.4575	0	154	262	3
2026-02-12	16:16:05.610	-7.385	-45.85	19.67	-0.266204	0.85766	-0.356484	0.054	-0.336	0.4635	0	152	266	3
2026-02-12	16:16:05.630	-12.6	-46.97	23.1	-0.244732	0.907192	-0.384056	0.0495	-0.333	0.456	0	152	266	3
2026-02-12	16:16:05.650	-13.125	-45.85	23.485	-0.219112	0.939156	-0.390644	0.045	-0.3315	0.4545	0	152	266	3
2026-02-12	16:16:05.670	-8.225	-42.63	21.245	-0.200812	0.921832	-0.378444	0.0435	-0.33	0.4515	0	152	266	3
2026-02-12	16:16:05.690	-2.45	-37.59	17.605	-0.205936	0.865224	-0.351116	0.0435	-0.3255	0.453	0	152	266	3
2026-02-12	16:16:05.710	2.73	-33.355	13.615	-0.227408	0.824476	-0.307196	0.045	-0.33	0.453	0	152	266	3
2026-02-12	16:16:05.730	4.375	-29.61	9.87	-0.249856	0.816668	-0.2867	0.0465	-0.333	0.4545	0	152	266	3
2026-02-12	16:16:05.750	5.075	-25.725	6.79	-0.284016	0.826428	-0.285236	0.048	-0.3285	0.453	0	152	266	3
2026-02-12	16:16:05.770	3.22	-22.435	4.235	-0.298168	0.830332	-0.27328	0.045	-0.327	0.453	0	152	266	3
2026-02-12	16:16:05.790	0.455	-20.895	3.01	-0.291336	0.823256	-0.251564	0.039	-0.3255	0.4575	0	152	266	3
2026-02-12	16:16:05.810	0.245	-18.445	2.03	-0.276452	0.813496	-0.211548	0.0375	-0.324	0.4575	0	150	278	3
2026-02-12	16:16:05.830	0.63	-14.385	1.295	-0.282552	0.811056	-0.19276	0.0465	-0.33	0.459	0	150	278	3
2026-02-12	16:16:05.850	1.89	-10.43	0.525	-0.28792	0.81618	-0.197396	0.0405	-0.3315	0.4575	0	150	278	3
2026-02-12	16:16:05.870	1.995	-7.49	0.28	-0.294264	0.839604	-0.200568	0.048	-0.3375	0.45	0	150	278	3
2026-02-12	16:16:05.890	2.135	-5.845	-0.49	-0.27816	0.859124	-0.197396	0.0615	-0.33	0.4575	0	150	278	3
2026-02-12	16:16:05.910	2.94	-3.5	-2.345	-0.28304	0.85644	-0.18666	0.0615	-0.33	0.4575	0	150	278	3
2026-02-12	16:16:05.930	0	-2.835	-2.66	-0.298412	0.884256	-0.206912	0.0585	-0.333	0.459	0	150	278	3
2026-02-12	16:16:05.950	-3.185	-3.08	-2.24	-0.299388	0.933544	-0.211548	0.051	-0.333	0.459	0	150	278	3
2026-02-12	16:16:05.970	-4.655	-3.185	-1.155	-0.277672	0.996252	-0.213988	0.045	-0.3345	0.4545	0	150	278	3
2026-02-12	16:16:05.990	-6.055	-1.19	-1.505	-0.249368	1.006988	-0.218624	0.048	-0.3315	0.453	0	150	278	3
2026-02-12	16:16:06.010	-4.235	3.395	-1.19	-0.25986	1.032608	-0.238388	0.0555	-0.3285	0.453	0	147	282	3
2026-02-12	16:16:06.030	-3.36	8.015	1.19	-0.270352	1.017724	-0.264496	0.0585	-0.333	0.453	0	147	282	3
2026-02-12	16:16:06.050	0.175	12.495	3.71	-0.28304	1.039196	-0.305244	0.0555	-0.3315	0.453	0	147	282	3
2026-02-12	16:16:06.070	2.45	15.505	7.455	-0.276452	1.084092	-0.343308	0.0525	-0.3315	0.4515	0	147	282	3
2026-02-12	16:16:06.090	3.745	18.41	11.025	-0.23546	1.144604	-0.35258	0.051	-0.3345	0.453	0	147	282	3
2026-02-12	16:16:06.110	4.725	23.24	13.545	-0.172752	1.148508	-0.367464	0.051	-0.333	0.456	0	147	282	3
2026-02-12	16:16:06.130	9.17	28.175	12.39	-0.120292	1.08214	-0.342088	0.0495	-0.3345	0.4575	0	147	282	3
2026-02-12	16:16:06.150	12.25	30.31	5.845	-0.126148	0.924028	-0.300852	0.045	-0.33	0.4515	0	147	282	3
2026-02-12	16:16:06.170	13.265	28.07	-2.205	-0.15982	0.824232	-0.259372	0.042	-0.3255	0.4485	0	147	282	3
2026-02-12	16:16:06.190	9.835	25.795	-8.085	-0.205204	0.810324	-0.254004	0.036	-0.3315	0.4605	0	147	282	3
2026-02-12	16:16:06.210	3.43	22.925	-11.83	-0.228384	0.83814	-0.264984	0.036	-0.327	0.4575	0	143	281	3
2026-02-12	16:16:06.230	-3.325	19.425	-12.6	-0.220576	0.868152	-0.266448	0.0345	-0.333	0.45	0	143	281	3
2026-02-12	16:16:06.250	-5.775	18.655	-11.97	-0.202764	0.921588	-0.26474	0.033	-0.3345	0.453	0	143	281	3
2026-02-12	16:16:06.270	-4.095	21.595	-10.745	-0.182024	0.980636	-0.289872	0.039	-0.3375	0.447	0	143	281	3
2026-02-12	16:16:06.290	1.575	27.79	-10.325	-0.166164	1.023092	-0.338428	0.0405	-0.3285	0.447	0	143	281	3
2026-02-12	16:16:06.310	4.69	32.375	-10.5	-0.16348	1.04066	-0.3599	0.042	-0.333	0.45	0	143	281	3
2026-02-12	16:16:06.330	4.235	33.145	-11.445	-0.171044	1.015284	-0.332816	0.036	-0.3315	0.4485	0	143	281	3
2026-02-12	16:16:06.350	1.995	32.165	-13.055	-0.177876	0.960384	-0.257908	0.039	-0.3315	0.4575	0	143	281	3
2026-02-12	16:16:06.370	0.595	30.905	-15.505	-0.191052	0.900116	-0.208132	0.0375	-0.33	0.4515	0	143	281	3
2026-02-12	16:16:06.390	0.875	29.855	-17.535	-0.215696	0.859612	-0.175436	0.0375	-0.327	0.4455	0	143	281	3
2026-02-12	16:16:06.410	-2.415	26.25	-18.235	-0.261812	0.823988	-0.159332	0.039	-0.327	0.444	0	140	280	3
2026-02-12	16:16:06.430	-3.675	22.54	-17.115	-0.287676	0.793	-0.14884	0.039	-0.327	0.444	0	140	280	3
2026-02-12	16:16:06.450	-3.395	19.985	-14.455	-0.303048	0.79544	-0.158112	0.0375	-0.336	0.4455	0	140	280	3
2026-02-12	16:16:06.470	-1.785	18.27	-11.41	-0.310612	0.799588	-0.165432	0.0375	-0.3375	0.4425	0	140	280	3
2026-02-12	16:16:06.490	0.945	16.765	-8.715	-0.307928	0.833016	-0.184952	0.045	-0.336	0.444	0	140	280	3
2026-02-12	16:16:06.510	1.68	14.84	-7.525	-0.310368	0.87962	-0.20374	0.0435	-0.3345	0.4395	0	140	280	3
2026-02-12	16:16:06.530	1.855	13.3	-6.3	-0.312076	0.903776	-0.193492	0.0495	-0.342	0.4455	0	140	280	3
2026-02-12	16:16:06.550	0.805	12.635	-6.44	-0.306708	0.933056	-0.204472	0.045	-0.339	0.4425	0	140	280	3
2026-02-12	16:16:06.570	2.03	11.34	-8.54	-0.311832	0.954284	-0.215452	0.0495	-0.336	0.435	0	140	280	3
2026-02-12	16:16:06.590	2.87	9.835	-11.305	-0.315736	0.942328	-0.215696	0.042	-0.333	0.4425	0	140	280	3
2026-02-12	16:16:06.610	3.43	7.28	-14.56	-0.334524	0.922808	-0.213744	0.0405	-0.336	0.444	0	138	273	3
2026-02-12	16:16:06.630	2.87	3.78	-17.255	-0.34892	0.932324	-0.224236	0.0435	-0.3375	0.435	0	138	273	3
2026-02-12	16:16:06.650	0.805	-0.175	-18.095	-0.366732	0.969412	-0.252784	0.051	-0.339	0.4425	0	138	273	3
2026-02-12	16:16:06.670	-2.415	-3.675	-15.47	-0.368684	1.021872	-0.298168	0.054	-0.339	0.4395	0	138	273	3
2026-02-12	16:16:06.690	-0.875	-4.725	-10.255	-0.354532	1.094584	-0.330864	0.057	-0.342	0.4425	0	138	273	3
2026-02-12	16:16:06.710	0.245	-4.69	-5.04	-0.29524	1.1468	-0.36356	0.0585	-0.339	0.4425	0	138	273	3
2026-02-12	16:16:06.730	2.38	-4.48	-1.225	-0.263032	1.137284	-0.386984	0.06	-0.336	0.4395	0	138	273	3
2026-02-12	16:16:06.750	5.215	-4.48	1.715	-0.263276	1.078724	-0.383324	0.0585	-0.3345	0.4395	0	138	273	3
2026-02-12	16:16:06.770	6.65	-5.95	3.85	-0.281332	1.00894	-0.37942	0.0615	-0.3345	0.441	0	138	273	3
2026-02-12	16:16:06.790	6.685	-8.89	6.475	-0.298656	0.958432	-0.375516	0.063	-0.3375	0.441	0	138	273	3
2026-02-12	16:16:06.810	5.04	-12.635	7.28	-0.284504	0.926712	-0.35502	0.063	-0.339	0.4425	0	136	269	3
2026-02-12	16:16:06.830	1.33	-16.625	6.37	-0.280844	0.870836	-0.334524	0.06	-0.342	0.4425	0	136	269	3
2026-02-12	16:16:06.850	-4.865	-22.19	4.865	-0.28182	0.79178	-0.325008	0.057	-0.3375	0.4395	0	136	269	3
2026-02-12	16:16:06.870	-6.335	-26.775	4.865	-0.303536	0.7503	-0.32696	0.0585	-0.3315	0.4425	0	136	269	3
2026-02-12	16:16:06.890	-7.175	-30.59	8.26	-0.322812	0.771772	-0.344528	0.0615	-0.3345	0.4455	0	136	269	3
2026-02-12	16:16:06.910	-11.655	-35.42	16.1	-0.290848	0.841556	-0.373808	0.063	-0.339	0.447	0	136	269	3
2026-02-12	16:16:06.930	-13.615	-36.435	20.37	-0.267424	0.878156	-0.37698	0.06	-0.342	0.4425	0	136	269	3
2026-02-12	16:16:06.950	-12.915	-35.56	22.295	-0.254248	0.885232	-0.385764	0.0585	-0.345	0.435	0	136	269	3
2026-02-12	16:16:06.970	-9.415	-33.25	22.47	-0.245464	0.870836	-0.385764	0.0615	-0.345	0.435	0	136	269	3
2026-02-12	16:16:06.990	-4.445	-31.08	22.33	-0.232532	0.855464	-0.35624	0.0585	-0.3435	0.4365	0	136	269	3
2026-02-12	16:16:07.010	1.785	-28.455	21.245	-0.241804	0.839116	-0.331352	0.057	-0.3435	0.435	0	134	279	3
2026-02-12	16:16:07.030	6.23	-26.6	19.075	-0.251808	0.836676	-0.302804	0.057	-0.3405	0.438	0	134	279	3
2026-02-12	16:16:07.050	7.28	-24.325	17.605	-0.271084	0.825208	-0.291336	0.0525	-0.3375	0.441	0	134	279	3
2026-02-12	16:16:07.070	7.105	-22.54	17.01	-0.2806	0.8052	-0.270596	0.048	-0.3375	0.438	0	134	279	3
2026-02-12	16:16:07.090	6.405	-21.49	17.22	-0.275964	0.793488	-0.246196	0.0465	-0.339	0.4365	0	134	279	3
2026-02-12	16:16:07.110	5.075	-19.915	17.045	-0.26718	0.800076	-0.211548	0.0495	-0.3405	0.4425	0	134	279	3
2026-02-12	16:16:07.130	5.705	-17.255	15.785	-0.256444	0.81374	-0.188368	0.0495	-0.3375	0.4455	0	134	279	3
2026-02-12	16:16:07.150	6.055	-13.755	14.455	-0.258396	0.806908	-0.187636	0.048	-0.336	0.4425	0	134	279	3
2026-02-12	16:16:07.170	5.635	-8.295	12.845	-0.277184	0.8113	-0.205936	0.0465	-0.336	0.4425	0	134	279	3
2026-02-12	16:16:07.190	4.62	-6.195	13.09	-0.286456	0.834968	-0.237656	0.0465	-0.336	0.4425	0	134	279	3
2026-02-12	16:16:07.210	4.62	-6.825	12.495	-0.288408	0.86376	-0.245464	0.0405	-0.3435	0.4515	0	133	289	2
2026-02-12	16:16:07.230	5.565	-7.35	12.18	-0.28304	0.89426	-0.239364	0.033	-0.3375	0.45	0	133	289	2
2026-02-12	16:16:07.250	6.965	-7.42	10.78	-0.28792	0.928908	-0.241072	0.033	-0.3345	0.4455	0	133	289	2
2026-02-12	16:16:07.270	7	-7.56	8.89	-0.282308	0.956968	-0.245464	0.0405	-0.3345	0.4485	0	133	289	2
2026-02-12	16:16:07.290	5.285	-6.65	7.315	-0.26352	0.980392	-0.24522	0.039	-0.336	0.456	0	133	289	2
2026-02-12	16:16:07.310	1.155	-5.81	4.41	-0.251808	0.98454	-0.266204	0.024	-0.333	0.4515	0	133	289	2
2026-02-12	16:16:07.330	-1.33	-5.215	1.575	-0.255468	0.981124	-0.28914	0.0315	-0.3375	0.45	0	133	289	2
2026-02-12	16:16:07.350	-0.77	-2.66	1.54	-0.248392	1.000644	-0.307196	0.0195	-0.339	0.4485	0	133	289	2
2026-02-12	16:16:07.370	2.345	1.75	2.975	-0.246196	1.02236	-0.345016	0.0285	-0.3345	0.4485	0	133	289	2
2026-02-12	16:16:07.390	6.02	6.58	6.23	-0.236924	1.064328	-0.383812	0.0225	-0.3345	0.4485	0	133	289	2
2026-02-12	16:16:07.410	12.075	12.6	12.495	-0.196664	1.154852	-0.421144	0.0255	-0.3345	0.456	0	131	291	3
2026-02-12	16:16:07.430	22.05	21.77	19.46	-0.100772	1.191208	-0.471896	0.027	-0.3315	0.4515	0	131	291	3
2026-02-12	16:16:07.450	29.54	28.175	19.11	-0.016592	1.1224	-0.442616	0.027	-0.3315	0.4515	0	131	291	3
2026-02-12	16:16:07.470	24.92	28.42	10.185	-0.011712	0.97478	-0.349652	0.0225	-0.3255	0.456	0	131	291	3
2026-02-12	16:16:07.490	16.275	25.48	-0.14	-0.059292	0.83814	-0.289384	0.018	-0.321	0.4605	0	131	291	3
2026-02-12	16:16:07.510	9.765	21.77	-8.26	-0.111996	0.788852	-0.266936	0.0045	-0.321	0.4605	0	131	291	3
2026-02-12	16:16:07.530	3.5	19.67	-12.355	-0.164944	0.7991	-0.27938	0.009	-0.3255	0.468	0	131	291	3
2026-02-12	16:16:07.550	-5.18	17.395	-13.51	-0.159088	0.85888	-0.311344	0.009	-0.33	0.4665	0	131	291	3
2026-02-12	16:16:07.570	-10.43	16.87	-12.355	-0.131028	0.918416	-0.330132	0.006	-0.321	0.468	0	131	291	3
2026-02-12	16:16:07.590	-9.905	19.215	-11.865	-0.09882	0.983076	-0.35868	0.009	-0.327	0.4605	0	131	291	3
2026-02-12	16:16:07.610	-3.885	24.64	-13.93	-0.087352	1.024312	-0.387228	0.0075	-0.3285	0.465	0	130	298	3
2026-02-12	16:16:07.630	1.015	29.435	-16.38	-0.0915	1.03456	-0.382348	0.009	-0.3315	0.459	0	130	298	3
2026-02-12	16:16:07.650	3.115	31.745	-20.265	-0.087352	1.033096	-0.33916	0	-0.3285	0.4695	0	130	298	3
2026-02-12	16:16:07.670	3.815	34.055	-26.285	-0.103456	0.981612	-0.283772	0.0135	-0.3315	0.4605	0	130	298	3
2026-02-12	16:16:07.690	2.8	36.54	-31.325	-0.147376	0.916952	-0.242292	0.006	-0.3285	0.459	0	130	298	3
2026-02-12	16:16:07.710	1.19	37.73	-33.67	-0.220576	0.852292	-0.260592	0.0105	-0.327	0.459	0	130	298	3
2026-02-12	16:16:07.730	1.575	35.14	-32.69	-0.247172	0.826428	-0.254736	0.0105	-0.327	0.4575	0	130	298	3
2026-02-12	16:16:07.750	2.17	30.73	-31.5	-0.275964	0.832284	-0.255224	0.0105	-0.33	0.456	0	130	298	3
2026-02-12	16:16:07.770	-0.49	26.075	-30.975	-0.302804	0.8296	-0.248392	0.0135	-0.333	0.45	0	130	298	3
2026-02-12	16:16:07.790	-3.29	21.7	-29.75	-0.323544	0.8296	-0.249856	0.021	-0.336	0.4515	0	130	298	3
2026-02-12	16:16:07.810	-4.9	17.99	-28.525	-0.340868	0.818864	-0.232532	0.027	-0.333	0.4575	0	131	303	3
2026-02-12	16:16:07.830	-5.88	13.195	-26.81	-0.355264	0.816912	-0.23058	0.0255	-0.333	0.453	0	131	303	3
2026-02-12	16:16:07.850	-5.95	9.1	-25.69	-0.348676	0.811544	-0.227896	0.027	-0.339	0.4485	0	131	303	3
2026-02-12	16:16:07.870	-4.795	4.165	-25.235	-0.364536	0.818864	-0.231068	0.033	-0.339	0.4515	0	131	303	3
2026-02-12	16:16:07.890	-6.895	-1.61	-25.515	-0.379908	0.819596	-0.24278	0.039	-0.336	0.45	0	131	303	3
2026-02-12	16:16:07.910	-6.475	-7.63	-25.69	-0.40626	0.835456	-0.247172	0.045	-0.333	0.4455	0	131	303	3
2026-02-12	16:16:07.930	-3.08	-12.845	-25.095	-0.438712	0.866688	-0.272304	0.048	-0.336	0.4455	0	131	303	3
2026-02-12	16:16:07.950	-1.295	-16.59	-22.295	-0.440908	0.916464	-0.311588	0.045	-0.3375	0.4485	0	131	303	3
2026-02-12	16:16:07.970	-5.425	-19.985	-17.465	-0.418704	0.960872	-0.368196	0.0465	-0.3375	0.45	0	131	303	3
2026-02-12	16:16:07.990	-9.975	-21.455	-11.2	-0.41236	0.998936	-0.402112	0.051	-0.3375	0.4485	0	131	303	3
2026-02-12	16:16:08.010	-10.22	-21.035	-5.39	-0.360632	1.036268	-0.446276	0.0675	-0.3375	0.453	0	132	304	3
2026-02-12	16:16:08.030	-4.305	-18.9	-0.7	-0.325496	1.088728	-0.478728	0.0555	-0.3435	0.447	0	132	304	3
2026-02-12	16:16:08.050	1.54	-17.885	3.78	-0.300608	1.066524	-0.478972	0.0585	-0.342	0.4515	0	132	304	3
2026-02-12	16:16:08.070	6.93	-17.185	6.44	-0.30988	1.025776	-0.454084	0.0585	-0.342	0.456	0	132	304	3
2026-02-12	16:16:08.090	9.8	-17.955	9.135	-0.288652	0.987468	-0.426024	0.0615	-0.3405	0.453	0	132	304	3
2026-02-12	16:16:08.110	13.685	-19.005	8.96	-0.277184	0.952332	-0.387716	0.0645	-0.3345	0.447	0	132	304	3
2026-02-12	16:16:08.130	12.635	-22.085	7.98	-0.268644	0.878644	-0.35624	0.063	-0.33	0.4485	0	132	304	3
2026-02-12	16:16:08.150	7.63	-26.88	5.985	-0.265228	0.819352	-0.307928	0.066	-0.3345	0.4545	0	132	304	3
2026-02-12	16:16:08.170	2.45	-31.57	4.865	-0.297436	0.751032	-0.298412	0.063	-0.339	0.4575	0	132	304	3
2026-02-12	16:16:08.190	-2.695	-36.61	6.825	-0.321104	0.747128	-0.320616	0.06	-0.339	0.456	0	132	304	3
2026-02-12	16:16:08.210	-5.845	-40.705	11.795	-0.317688	0.787388	-0.355508	0.0645	-0.339	0.4575	0	135	312	3
2026-02-12	16:16:08.230	-9.17	-43.19	17.815	-0.312076	0.85522	-0.381372	0.0675	-0.336	0.462	0	135	312	3
2026-02-12	16:16:08.250	-13.51	-42.735	24.115	-0.283284	0.951112	-0.411384	0.0675	-0.336	0.462	0	135	312	3
2026-02-12	16:16:08.270	-15.855	-39.095	26.04	-0.259128	0.955504	-0.405772	0.0675	-0.336	0.462	0	135	312	3
2026-02-12	16:16:08.290	-11.9	-34.335	25.69	-0.23424	0.93086	-0.399428	0.0645	-0.3315	0.453	0	135	312	3
2026-02-12	16:16:08.310	-6.895	-29.225	23.205	-0.249368	0.853756	-0.365756	0.0585	-0.3435	0.4605	0	135	312	3
2026-02-12	16:16:08.330	-5.46	-25.095	21.945	-0.27816	0.782508	-0.301828	0.0555	-0.342	0.4545	0	135	312	3
2026-02-12	16:16:08.350	-4.83	-22.47	19.74	-0.296948	0.711992	-0.272792	0.0495	-0.342	0.4545	0	135	312	3
2026-02-12	16:16:08.370	-1.68	-20.16	18.655	-0.313296	0.702232	-0.264496	0.048	-0.3375	0.453	0	135	312	3
2026-02-12	16:16:08.390	1.68	-19.39	18.27	-0.330864	0.745176	-0.224724	0.0495	-0.342	0.4545	0	135	312	3
2026-02-12	16:16:08.410	-0.175	-19.635	17.08	-0.335012	0.7747	-0.162016	0.042	-0.3405	0.4545	0	137	323	3
2026-02-12	16:16:08.430	-2.625	-17.15	15.225	-0.335256	0.723948	-0.143228	0.045	-0.3345	0.4575	0	137	323	3
2026-02-12	16:16:08.450	0.105	-14.245	12.775	-0.339404	0.706868	-0.189344	0.042	-0.3345	0.453	0	137	323	3
2026-02-12	16:16:08.470	4.9	-11.83	11.76	-0.352824	0.733952	-0.239852	0.045	-0.339	0.456	0	137	323	3
2026-02-12	16:16:08.490	10.22	-10.64	11.795	-0.35258	0.791536	-0.283284	0.036	-0.3345	0.4575	0	137	323	3
2026-02-12	16:16:08.510	10.01	-11.06	10.045	-0.339404	0.88938	-0.295728	0.0465	-0.3315	0.462	0	137	323	3
2026-02-12	16:16:08.530	7.175	-10.535	6.58	-0.322568	0.93452	-0.283528	0.0465	-0.3315	0.462	0	137	323	3
2026-02-12	16:16:08.550	8.12	-8.82	2.59	-0.333792	0.94916	-0.287432	0.0435	-0.3255	0.4605	0	137	323	3
2026-02-12	16:16:08.570	8.12	-7	-1.295	-0.330376	0.949892	-0.290848	0.0405	-0.3255	0.4605	0	137	323	3
2026-02-12	16:16:08.590	4.025	-7	-4.41	-0.32208	0.967948	-0.298412	0.0405	-0.33	0.462	0	137	323	3
2026-02-12	16:16:08.610	2.73	-8.26	-8.33	-0.32208	0.985516	-0.312564	0.045	-0.333	0.468	0	139	322	2
2026-02-12	16:16:08.630	3.08	-8.435	-10.605	-0.349652	0.991616	-0.319396	0.045	-0.3285	0.468	0	139	322	2
2026-02-12	16:16:08.650	1.995	-6.825	-8.785	-0.357704	0.975512	-0.31964	0.048	-0.3255	0.4635	0	139	322	2
2026-02-12	16:16:08.670	6.545	-2.695	-4.305	-0.357948	0.99918	-0.340624	0.0435	-0.333	0.465	0	139	322	2
2026-02-12	16:16:08.690	11.935	1.19	1.4	-0.353312	1.056276	-0.382836	0.0465	-0.3315	0.4695	0	139	322	2
2026-02-12	16:16:08.710	15.54	5.285	8.645	-0.333548	1.15168	-0.442128	0.042	-0.3255	0.4695	0	139	322	2
2026-02-12	16:16:08.730	19.11	10.605	14.875	-0.239852	1.211948	-0.472872	0.0345	-0.33	0.4725	0	139	322	2
2026-02-12	16:16:08.750	19.705	14.455	16.38	-0.127368	1.1712	-0.451644	0.045	-0.3195	0.4785	0	139	322	2
2026-02-12	16:16:08.770	15.19	13.72	10.605	-0.08418	1.007964	-0.366976	0.039	-0.327	0.477	0	139	322	2
2026-02-12	16:16:08.790	9.31	7.07	-1.785	-0.139324	0.775676	-0.250832	0.0345	-0.3285	0.4725	0	139	322	2
2026-02-12	16:16:08.810	5.53	2.94	-7.14	-0.165432	0.73322	-0.23546	0.0345	-0.324	0.474	0	141	321	3
2026-02-12	16:16:08.830	0.35	-1.435	-11.06	-0.201788	0.743468	-0.247172	0.0315	-0.321	0.4785	0	141	321	3
2026-02-12	16:16:08.850	-6.93	-5.46	-12.32	-0.188124	0.79056	-0.271084	0.0285	-0.3195	0.4815	0	141	321	3
2026-02-12	16:16:08.870	-12.74	-5.845	-11.725	-0.1586	0.834968	-0.29768	0.033	-0.321	0.477	0	141	321	3
2026-02-12	16:16:08.890	-14.49	-2.765	-9.59	-0.111996	0.900848	-0.325252	0.0405	-0.324	0.471	0	141	321	3
2026-02-12	16:16:08.910	-9.45	4.83	-9.345	-0.083692	0.924516	-0.36112	0.039	-0.3255	0.471	0	141	321	3
2026-02-12	16:16:08.930	1.82	15.295	-9.065	-0.095892	0.942572	-0.398208	0.0405	-0.3285	0.477	0	141	321	3
2026-02-12	16:16:08.950	8.995	24.5	-7.455	-0.116632	0.9272	-0.394304	0.0435	-0.324	0.4815	0	141	321	3
2026-02-12	16:16:08.970	13.195	32.445	-6.3	-0.142252	0.887672	-0.369416	0.0435	-0.3195	0.4815	0	141	321	3
2026-02-12	16:16:08.990	17.5	38.78	-5.95	-0.175924	0.837408	-0.331352	0.0405	-0.3225	0.4755	0	141	321	3
2026-02-12	16:16:09.010	24.29	42.735	-5.425	-0.21716	0.798368	-0.302316	0.039	-0.318	0.4755	0	143	323	3
2026-02-12	16:16:09.030	29.19	44.065	-5.075	-0.261812	0.787388	-0.279624	0.036	-0.3135	0.486	0	143	323	3
2026-02-12	16:16:09.050	28	42.455	-3.71	-0.289628	0.796904	-0.270352	0.03	-0.3135	0.4875	0	143	323	3
2026-02-12	16:16:09.070	24.675	38.78	-2.31	-0.305976	0.816912	-0.256444	0.03	-0.315	0.4815	0	143	323	3
2026-02-12	16:16:09.090	22.12	34.755	-1.715	-0.324032	0.838384	-0.259128	0.024	-0.3075	0.495	0	143	323	3
2026-02-12	16:16:09.110	19.705	30.8	-0.875	-0.315004	0.874984	-0.265472	0.0195	-0.315	0.4935	0	143	323	3
2026-02-12	16:16:09.130	15.82	26.88	-0.98	-0.306708	0.907924	-0.274988	0.0225	-0.309	0.495	0	143	323	3
2026-02-12	16:16:09.150	10.15	22.645	-1.4	-0.303292	0.93818	-0.27938	0.0255	-0.306	0.498	0	143	323	3
2026-02-12	16:16:09.170	5.705	19.005	-2.765	-0.30988	0.954528	-0.282552	0.0225	-0.3075	0.501	0	143	323	3
2026-02-12	16:16:09.190	2.485	16.205	-4.865	-0.315004	0.965752	-0.277672	0.015	-0.3075	0.504	0	143	323	3
2026-02-12	16:16:09.210	-1.61	13.16	-8.015	-0.320128	0.946232	-0.280844	0.012	-0.306	0.507	0	145	323	3
2026-02-12	16:16:09.230	-6.3	10.185	-11.935	-0.327936	0.917196	-0.288652	0.0135	-0.306	0.5055	0	145	323	3
2026-02-12	16:16:09.250	-8.05	6.65	-15.54	-0.35258	0.892796	-0.30378	0.0165	-0.306	0.501	0	145	323	3
2026-02-12	16:16:09.270	-8.19	4.2	-17.465	-0.384056	0.906216	-0.313784	0.018	-0.303	0.4995	0	145	323	3
2026-02-12	16:16:09.290	-8.785	1.54	-16.8	-0.392352	0.917684	-0.33672	0.0165	-0.3045	0.4965	0	145	323	3
2026-02-12	16:16:09.310	-7.665	-0.14	-14.35	-0.382592	0.976488	-0.38308	0.018	-0.3075	0.498	0	145	323	3
2026-02-12	16:16:09.330	-6.09	-1.89	-8.155	-0.34404	1.065792	-0.438224	0.0165	-0.306	0.4995	0	145	323	3
2026-02-12	16:16:09.350	-5.285	-0.105	-3.78	-0.299144	1.131916	-0.472628	0.0165	-0.306	0.4995	0	145	323	3
2026-02-12	16:16:09.370	-3.045	2.03	-1.05	-0.273036	1.1346	-0.48922	0.0255	-0.309	0.495	0	145	323	3
2026-02-12	16:16:09.390	-1.995	2.485	0.875	-0.292312	1.061888	-0.48556	0.018	-0.3105	0.495	0	145	323	3
2026-02-12	16:16:09.410	2.695	1.19	2.24	-0.317688	1.025532	-0.482388	0.021	-0.2985	0.4845	0	146	325	3
2026-02-12	16:16:09.430	3.745	-2.87	4.795	-0.304024	0.992836	-0.473116	0.024	-0.3045	0.4815	0	146	325	3
2026-02-12	16:16:09.450	2.38	-7.14	5.635	-0.282308	0.936228	-0.447984	0.018	-0.3105	0.4965	0	146	325	3
2026-02-12	16:16:09.470	-0.875	-12.11	3.57	-0.272792	0.856928	-0.402844	0.0165	-0.303	0.4845	0	146	325	3
2026-02-12	16:16:09.490	-8.155	-18.83	0.595	-0.284016	0.764452	-0.368196	0.027	-0.2985	0.492	0	146	325	3
2026-02-12	16:16:09.510	-14.665	-25.935	-1.05	-0.310124	0.692472	-0.374052	0.018	-0.309	0.498	0	146	325	3
2026-02-12	16:16:09.530	-17.22	-31.99	0.665	-0.338428	0.730536	-0.40748	0.03	-0.3045	0.495	0	146	325	3
2026-02-12	16:16:09.550	-22.61	-37.8	5.53	-0.331596	0.789584	-0.413336	0.0375	-0.3105	0.4845	0	146	325	3
2026-02-12	16:16:09.570	-31.255	-41.825	11.095	-0.303048	0.804468	-0.426268	0.0255	-0.312	0.4935	0	146	325	3
2026-02-12	16:16:09.590	-35.665	-45.5	16.87	-0.255224	0.820816	-0.454572	0.03	-0.306	0.4905	0	146	325	3
2026-02-12	16:16:09.610	-28.98	-46.725	21.035	-0.20374	0.865224	-0.480436	0.03	-0.306	0.4905	0	146	341	3
2026-02-12	16:16:09.630	-17.955	-45.185	22.435	-0.181048	0.880352	-0.45872	0.027	-0.309	0.483	0	146	341	3
2026-02-12	16:16:09.650	-7.455	-43.155	22.155	-0.173484	0.861564	-0.421388	0.027	-0.3135	0.4755	0	146	341	3
2026-02-12	16:16:09.670	0.63	-40.005	20.755	-0.178852	0.8418	-0.377468	0.03	-0.3135	0.477	0	146	341	3
2026-02-12	16:16:09.690	7.385	-35.105	17.5	-0.21106	0.809348	-0.345748	0.0315	-0.309	0.4815	0	146	341	3
2026-02-12	16:16:09.710	11.375	-31.745	15.26	-0.23912	0.786656	-0.328668	0.036	-0.3135	0.483	0	146	341	3
2026-02-12	16:16:09.730	12.11	-30.205	14.21	-0.2562	0.76738	-0.305976	0.0255	-0.3165	0.4845	0	146	341	3
2026-02-12	16:16:09.750	12.53	-28.035	12.985	-0.260348	0.75274	-0.278404	0.024	-0.3105	0.489	0	146	341	3
2026-02-12	16:16:09.770	12.32	-26.145	11.2	-0.261568	0.742492	-0.248148	0.033	-0.3075	0.4875	0	146	341	3
2026-02-12	16:16:09.790	11.9	-24.185	9.345	-0.272792	0.743468	-0.223504	0.0285	-0.3075	0.4935	0	146	341	3
2026-02-12	16:16:09.810	10.745	-21.14	8.47	-0.281332	0.786656	-0.219112	0.0225	-0.303	0.495	0	146	356	3
2026-02-12	16:16:09.830	7.91	-17.57	7.455	-0.286212	0.81984	-0.236924	0.033	-0.306	0.501	0	146	356	3
2026-02-12	16:16:09.850	5.39	-14.63	6.265	-0.284748	0.856928	-0.237656	0.036	-0.306	0.4995	0	146	356	3
2026-02-12	16:16:09.870	1.295	-12.04	3.99	-0.284748	0.892064	-0.246928	0.03	-0.2985	0.495	0	146	356	3
2026-02-12	16:16:09.890	-1.015	-10.325	0.875	-0.261568	0.951112	-0.258152	0.0285	-0.297	0.495	0	146	356	3
2026-02-12	16:16:09.910	-2.45	-8.225	-2.17	-0.277428	0.99552	-0.291092	0.027	-0.3	0.498	0	146	356	3
2026-02-12	16:16:09.930	-7.595	-7.77	-3.78	-0.258152	1.025776	-0.304512	0.0315	-0.303	0.498	0	146	356	3
2026-02-12	16:16:09.950	-11.795	-6.3	-5.075	-0.23912	1.0492	-0.305	0.036	-0.3	0.498	0	146	356	3
2026-02-12	16:16:09.970	-11.69	-2.975	-5.32	-0.232532	1.045296	-0.30744	0.0345	-0.3	0.5025	0	146	356	3
2026-02-12	16:16:09.990	-7.28	3.185	-4.585	-0.259372	1.049688	-0.33428	0.0375	-0.306	0.4965	0	146	356	3
2026-02-12	16:16:10.010	-3.29	11.13	1.435	-0.244732	1.12484	-0.385764	0.045	-0.309	0.4905	0	146	355	3
2026-02-12	16:16:10.030	-1.715	15.82	6.79	-0.229848	1.1529	-0.420168	0.039	-0.306	0.4905	0	146	355	3
2026-02-12	16:16:10.050	2.345	22.785	13.51	-0.174948	1.202188	-0.45628	0.0315	-0.306	0.4905	0	146	355	3
2026-02-12	16:16:10.070	7.665	26.635	16.975	-0.118584	1.156316	-0.433588	0.0315	-0.3045	0.489	0	146	355	3
2026-02-12	16:16:10.090	11.34	27.195	15.155	-0.066612	1.06872	-0.345748	0.0285	-0.297	0.4905	0	146	355	3
2026-02-12	16:16:10.110	9.765	24.885	7.35	-0.055144	0.904996	-0.254736	0.0225	-0.2925	0.4965	0	146	355	3
2026-02-12	16:16:10.130	6.37	21.875	-3.08	-0.087352	0.807396	-0.228628	0.024	-0.2955	0.4935	0	146	355	3
2026-02-12	16:16:10.150	-4.69	17.885	-13.055	-0.152256	0.759328	-0.226188	0.027	-0.2985	0.489	0	146	355	3
2026-02-12	16:16:10.170	-14.595	16.52	-15.925	-0.157136	0.80032	-0.259616	0.012	-0.2895	0.492	0	146	355	3
2026-02-12	16:16:10.190	-16.765	18.62	-15.96	-0.146644	0.865956	-0.302072	0.0135	-0.3015	0.489	0	146	355	3
2026-02-12	16:16:10.210	-14.525	24.115	-13.965	-0.111264	0.908168	-0.321348	0.0135	-0.2955	0.4845	0	146	349	3
2026-02-12	16:16:10.230	-8.855	32.165	-12.95	-0.087352	0.953064	-0.3416	0.018	-0.3	0.4815	0	146	349	3
2026-02-12	16:16:10.250	-0.07	40.495	-13.79	-0.091012	0.965264	-0.366	0.0225	-0.306	0.4785	0	146	349	3
2026-02-12	16:16:10.270	4.55	46.375	-15.015	-0.105408	0.9638	-0.35624	0.021	-0.3015	0.4785	0	146	349	3
2026-02-12	16:16:10.290	3.815	50.33	-17.675	-0.12444	0.917684	-0.307928	0.0195	-0.3	0.474	0	146	349	3
2026-02-12	16:16:10.310	3.01	52.43	-21.105	-0.158112	0.861808	-0.25864	0.021	-0.2985	0.471	0	146	349	3
2026-02-12	16:16:10.330	3.92	53.34	-24.535	-0.205204	0.81618	-0.222528	0.0195	-0.2985	0.4755	0	146	349	3
2026-02-12	16:16:10.350	5.635	53.515	-26.635	-0.24644	0.807396	-0.22082	0.0165	-0.297	0.474	0	146	349	3
2026-02-12	16:16:10.370	6.79	52.64	-26.88	-0.27206	0.802272	-0.222528	0.018	-0.297	0.471	0	146	349	3
2026-02-12	16:16:10.390	6.825	51.17	-26.18	-0.2806	0.815692	-0.24156	0.0165	-0.303	0.477	0	146	349	3
2026-02-12	16:16:10.410	5.81	47.425	-24.745	-0.289384	0.82594	-0.25864	0.015	-0.303	0.4815	0	147	339	3
2026-02-12	16:16:10.430	4.095	42.245	-21.98	-0.30256	0.85522	-0.254736	0.015	-0.303	0.4815	0	147	339	3
2026-02-12	16:16:10.450	3.22	38.78	-20.65	-0.306464	0.882304	-0.253028	0.0225	-0.309	0.471	0	147	339	3
2026-02-12	16:16:10.470	2.905	34.3	-19.215	-0.296216	0.89914	-0.237656	0.015	-0.306	0.471	0	147	339	3
2026-02-12	16:16:10.490	3.325	30.24	-18.9	-0.306952	0.913048	-0.239608	0.018	-0.3015	0.4635	0	147	339	3
2026-02-12	16:16:10.510	2.905	26.285	-19.775	-0.316712	0.903532	-0.228872	0.024	-0.315	0.48	0	147	339	3
2026-02-12	16:16:10.530	2.52	21.14	-21.665	-0.337208	0.892552	-0.213012	0.012	-0.3015	0.465	0	147	339	3
2026-02-12	16:16:10.550	3.255	16.1	-23.87	-0.360388	0.870104	-0.213256	0.027	-0.3105	0.4695	0	147	339	3
2026-02-12	16:16:10.570	5.075	12.285	-25.235	-0.384056	0.88816	-0.258152	0.0255	-0.3135	0.4695	0	147	339	3
2026-02-12	16:16:10.590	-1.365	10.675	-24.08	-0.417972	0.8967	-0.304024	0.0255	-0.2985	0.471	0	147	339	3
2026-02-12	16:16:10.610	-5.6	9.66	-18.83	-0.391864	0.94428	-0.306952	0.033	-0.303	0.4695	0	148	325	3
2026-02-12	16:16:10.630	-0.98	11.83	-14.77	-0.383812	1.087508	-0.408212	0.0375	-0.297	0.4635	0	148	325	3
2026-02-12	16:16:10.650	4.69	15.435	-10.675	-0.315004	1.214632	-0.470188	0.0345	-0.309	0.4725	0	148	325	3
2026-02-12	16:16:10.670	9.065	17.71	-8.995	-0.290848	1.2017	-0.496052	0.033	-0.312	0.465	0	148	325	3
2026-02-12	16:16:10.690	3.255	17.045	-8.33	-0.31964	1.051396	-0.487512	0.033	-0.312	0.465	0	148	325	3
2026-02-12	16:16:10.710	4.445	14.07	-7.385	-0.334768	0.981368	-0.493124	0.033	-0.309	0.468	0	148	325	3
2026-02-12	16:16:10.730	3.15	8.54	-6.09	-0.2989	0.952576	-0.477996	0.0315	-0.3045	0.471	0	148	325	3
2026-02-12	16:16:10.750	-4.27	0.875	-6.895	-0.266692	0.8906	-0.45262	0.033	-0.3075	0.4695	0	148	325	3
2026-02-12	16:16:10.770	-14.7	-7.56	-8.75	-0.262788	0.803736	-0.43432	0.039	-0.3075	0.4695	0	148	325	3
2026-02-12	16:16:10.790	-20.755	-13.86	-8.435	-0.287432	0.730292	-0.441396	0.039	-0.3045	0.468	0	148	325	3
2026-02-12	16:16:10.810	-19.635	-18.165	-4.375	-0.303048	0.731024	-0.465796	0.0435	-0.309	0.4635	0	149	325	3
2026-02-12	16:16:10.830	-16.275	-20.825	2.24	-0.284504	0.811788	-0.507276	0.0315	-0.3105	0.462	0	149	325	3
2026-02-12	16:16:10.850	-15.785	-22.855	9.065	-0.239852	0.889624	-0.538752	0.0465	-0.309	0.4695	0	149	325	3
2026-02-12	16:16:10.870	-21.07	-23.765	13.16	-0.195932	0.93696	-0.540704	0.042	-0.3135	0.4605	0	149	325	3
2026-02-12	16:16:10.890	-22.61	-23.065	13.125	-0.167872	0.881816	-0.512156	0.0495	-0.312	0.453	0	149	325	3
2026-02-12	16:16:10.910	-17.325	-19.985	11.445	-0.197396	0.801052	-0.445056	0.0375	-0.321	0.468	0	149	325	3
2026-02-12	16:16:10.930	-10.64	-17.71	10.605	-0.216428	0.734196	-0.38674	0.0495	-0.318	0.456	0	149	325	3
2026-02-12	16:16:10.950	-0.56	-15.82	9.555	-0.255712	0.735416	-0.350628	0.0495	-0.318	0.4485	0	149	325	3
2026-02-12	16:16:10.970	5.11	-14.28	9.345	-0.306708	0.749812	-0.339404	0.048	-0.3135	0.45	0	149	325	3
2026-02-12	16:16:10.990	1.89	-15.925	10.15	-0.316712	0.749812	-0.327936	0.048	-0.309	0.4515	0	149	325	3
2026-02-12	16:16:11.010	-2.87	-18.375	11.725	-0.32208	0.74786	-0.30012	0.048	-0.3135	0.45	0	151	346	3
2026-02-12	16:16:11.030	-3.01	-19.32	13.685	-0.31964	0.7442	-0.285724	0.045	-0.318	0.4485	0	151	346	3
2026-02-12	16:16:11.050	-0.14	-17.745	15.925	-0.318664	0.742248	-0.282064	0.0405	-0.3165	0.447	0	151	346	3
2026-02-12	16:16:11.070	1.82	-15.505	17.85	-0.308904	0.756156	-0.27328	0.0435	-0.315	0.4455	0	151	346	3
2026-02-12	16:16:11.090	2.135	-13.755	18.2	-0.30866	0.773968	-0.28914	0.048	-0.312	0.4485	0	151	346	3
2026-02-12	16:16:11.110	0.84	-12.81	17.5	-0.308416	0.810324	-0.297924	0.0465	-0.3135	0.456	0	151	346	3
2026-02-12	16:16:11.130	-0.42	-12.075	15.715	-0.310368	0.8357	-0.304268	0.0435	-0.318	0.456	0	151	346	3
2026-02-12	16:16:11.150	-0.7	-11.48	13.44	-0.309148	0.846924	-0.307196	0.0375	-0.318	0.4545	0	151	346	3
2026-02-12	16:16:11.170	1.155	-10.885	10.99	-0.322324	0.85034	-0.302804	0.039	-0.3165	0.4515	0	151	346	3
2026-02-12	16:16:11.190	0.07	-10.885	9.38	-0.328668	0.887184	-0.298656	0.0405	-0.3165	0.4515	0	151	346	3
2026-02-12	16:16:11.210	-2.485	-10.745	8.05	-0.315248	0.915976	-0.293044	0.036	-0.3165	0.456	0	153	358	3
2026-02-12	16:16:11.230	-5.88	-8.645	5.67	-0.288408	0.974048	-0.30744	0.0315	-0.315	0.459	0	153	358	3
2026-02-12	16:16:11.250	-7.7	-5.565	4.62	-0.282796	0.984784	-0.32208	0.0405	-0.315	0.4515	0	153	358	3
2026-02-12	16:16:11.270	-6.825	-1.295	5.18	-0.269864	0.97966	-0.336476	0.0375	-0.3225	0.453	0	153	358	3
2026-02-12	16:16:11.290	-4.375	3.36	7.56	-0.272792	0.986248	-0.358436	0.039	-0.318	0.45	0	153	358	3
2026-02-12	16:16:11.310	-1.68	7	10.36	-0.273524	1.026508	-0.407968	0.036	-0.3225	0.459	0	153	358	3
2026-02-12	16:16:11.330	2.8	10.71	14.105	-0.262544	1.090436	-0.449936	0.039	-0.321	0.4545	0	153	358	3
2026-02-12	16:16:11.350	7.525	14.84	16.345	-0.231068	1.141188	-0.476776	0.0285	-0.321	0.4605	0	153	358	3
2026-02-12	16:16:11.370	8.995	16.485	16.485	-0.150304	1.20292	-0.481168	0.03	-0.3195	0.459	0	153	358	3
2026-02-12	16:16:11.390	6.51	13.825	11.585	-0.092476	1.141188	-0.424804	0.024	-0.3165	0.459	0	153	358	3
2026-02-12	16:16:11.410	3.92	10.325	1.715	-0.092232	0.963068	-0.376492	0.0195	-0.3195	0.456	0	153	361	3
2026-02-12	16:16:11.430	-4.97	5.075	-7.385	-0.1464	0.864004	-0.315248	0.024	-0.3225	0.453	0	153	361	3
2026-02-12	16:16:11.450	-25.725	-1.82	-12.32	-0.171288	0.809836	-0.253516	0.0225	-0.3195	0.4545	0	153	361	3
2026-02-12	16:16:11.470	-36.715	-3.185	-15.155	-0.177632	0.820572	-0.21106	0.0195	-0.3225	0.456	0	153	361	3
2026-02-12	16:16:11.490	-24.465	1.54	-15.855	-0.150792	0.906948	-0.233996	0.027	-0.3255	0.4545	0	153	361	3
2026-02-12	16:16:11.510	-10.08	10.57	-15.645	-0.12566	1.008696	-0.291092	0.0345	-0.324	0.4545	0	153	361	3
2026-02-12	16:16:11.530	-4.34	17.85	-16.065	-0.116388	1.012844	-0.318664	0.03	-0.3345	0.4455	0	153	361	3
2026-02-12	16:16:11.550	0.455	24.255	-17.01	-0.124928	0.975756	-0.303048	0.0315	-0.3345	0.4395	0	153	361	3
2026-02-12	16:16:11.570	6.02	30.065	-17.22	-0.134444	0.930128	-0.273768	0.033	-0.33	0.4515	0	153	361	3
2026-02-12	16:16:11.590	7.63	35.455	-17.29	-0.165188	0.907192	-0.249856	0.0405	-0.336	0.4455	0	153	361	3
2026-02-12	16:16:11.610	8.925	37.555	-20.055	-0.162504	0.816912	-0.218624	0.0315	-0.333	0.4515	0	154	356	3
2026-02-12	16:16:11.630	-3.045	37.485	-18.48	-0.22936	0.82472	-0.22814	0.0375	-0.33	0.441	0	154	356	3
2026-02-12	16:16:11.650	-9.94	32.865	-22.12	-0.237412	0.765428	-0.195444	0.0435	-0.342	0.447	0	154	356	3
2026-02-12	16:16:11.670	-6.895	32.025	-22.995	-0.272792	0.737368	-0.16348	0.042	-0.3315	0.4425	0	154	356	3
2026-02-12	16:16:11.690	-0.21	32.76	-21.63	-0.303048	0.766648	-0.13054	0.042	-0.3405	0.444	0	154	356	3
2026-02-12	16:16:11.710	9.03	31.325	-21.63	-0.313052	0.801296	-0.149084	0.039	-0.3315	0.447	0	154	356	3
2026-02-12	16:16:11.730	15.155	30.1	-19.67	-0.313296	0.84912	-0.206424	0.042	-0.3405	0.4455	0	154	356	3
2026-02-12	16:16:11.750	9.625	28.77	-16.52	-0.333792	0.884012	-0.243024	0.045	-0.333	0.444	0	154	356	3
2026-02-12	16:16:11.770	0.595	22.995	-11.69	-0.327936	0.892308	-0.246196	0.048	-0.3435	0.444	0	154	356	3
2026-02-12	16:16:11.790	0.7	20.545	-10.885	-0.322324	0.886452	-0.225456	0.048	-0.3405	0.444	0	154	356	3
2026-02-12	16:16:11.810	4.445	17.5	-12.67	-0.329644	0.901824	-0.232288	0.0495	-0.339	0.444	0	154	338	3
2026-02-12	16:16:11.830	6.195	12.46	-15.82	-0.368196	0.910852	-0.247416	0.048	-0.339	0.441	0	154	338	3
2026-02-12	16:16:11.850	3.255	5.565	-18.655	-0.3904	0.921344	-0.254736	0.0495	-0.336	0.4425	0	154	338	3
2026-02-12	16:16:11.870	-2.31	-1.4	-19.845	-0.39528	0.95038	-0.273036	0.048	-0.3345	0.444	0	154	338	3
2026-02-12	16:16:11.890	-4.865	-6.195	-19.425	-0.37942	0.977464	-0.293532	0.048	-0.3435	0.444	0	154	338	3
2026-02-12	16:16:11.910	-2.52	-8.575	-17.395	-0.38674	1.014308	-0.346968	0.0525	-0.3435	0.4425	0	154	338	3
2026-02-12	16:16:11.930	0.175	-9.065	-12.53	-0.389424	1.096292	-0.405528	0.054	-0.3375	0.4395	0	154	338	3
2026-02-12	16:16:11.950	1.995	-7.35	-5.18	-0.347456	1.189744	-0.484096	0.06	-0.336	0.4455	0	154	338	3
2026-02-12	16:16:11.970	3.745	-5.005	1.365	-0.287432	1.212924	-0.509716	0.0615	-0.3465	0.4485	0	154	338	3
2026-02-12	16:16:11.990	5.11	-5.355	5.215	-0.290604	1.131184	-0.494832	0.051	-0.3495	0.4455	0	154	338	3
2026-02-12	16:16:12.010	8.12	-8.26	7.77	-0.278648	1.033584	-0.453108	0.051	-0.3495	0.4455	0	155	322	3
2026-02-12	16:16:12.030	4.48	-12.18	6.86	-0.26352	0.947452	-0.392352	0.063	-0.3435	0.4515	0	155	322	3
2026-02-12	16:16:12.050	-3.815	-17.29	4.935	-0.260592	0.788364	-0.333548	0.06	-0.3405	0.45	0	155	322	3
2026-02-12	16:16:12.070	-7.035	-22.575	4.165	-0.28792	0.711504	-0.331108	0.057	-0.3435	0.4515	0	155	322	3
2026-02-12	16:16:12.090	-9.17	-28.245	6.02	-0.330132	0.707356	-0.356972	0.0585	-0.3465	0.4545	0	155	322	3
2026-02-12	16:16:12.110	-13.23	-33.705	11.62	-0.33062	0.728584	-0.35868	0.063	-0.3435	0.4545	0	155	322	3
2026-02-12	16:16:12.130	-14.7	-37.31	17.85	-0.308172	0.795928	-0.378932	0.066	-0.3435	0.4545	0	155	322	3
2026-02-12	16:16:12.150	-16.17	-39.445	23.065	-0.286212	0.847656	-0.38796	0.063	-0.3435	0.4515	0	155	322	3
2026-02-12	16:16:12.170	-14.945	-38.36	25.9	-0.2745	0.834968	-0.397476	0.0585	-0.345	0.4485	0	155	322	3
2026-02-12	16:16:12.190	-9.625	-35.42	27.475	-0.261568	0.84424	-0.388936	0.06	-0.3495	0.45	0	155	322	3
2026-02-12	16:16:12.210	-3.745	-31.605	26.88	-0.258396	0.845216	-0.389668	0.0585	-0.345	0.4515	0	156	324	3
2026-02-12	16:16:12.230	-0.385	-28.595	25.27	-0.264984	0.821792	-0.374784	0.054	-0.345	0.4485	0	156	324	3
