yyyy-MM-dd	HH:mm:ss.fff	gyrX	gyrY	gyrZ	accX	accY	accZ	magX	magY	magZ	Marker	Energy	Angle	Classification
2026-02-11	16:23:55.410	1.365	-0.77	0.245	0.178608	0.02562	0.996008	-0.2895	0.747	0.9525	0	4	1020	1
2026-02-11	16:23:55.430	1.295	-0.945	0.245	0.181536	0.024888	0.992104	-0.291	0.7485	0.9525	0	4	1020	1
2026-02-11	16:23:55.450	1.26	-0.105	0.28	0.183732	0.019764	1.002108	-0.2925	0.7515	0.9555	0	4	1020	1
2026-02-11	16:23:55.470	1.295	-0.385	0.28	0.180072	0.022692	0.999668	-0.2895	0.753	0.954	0	4	1020	1
2026-02-11	16:23:55.490	1.365	-1.295	0.28	0.18056	0.020984	0.993324	-0.288	0.753	0.9495	0	4	1020	1
2026-02-11	16:23:55.510	1.26	-0.175	0.245	0.178608	0.024644	0.993812	-0.285	0.75	0.957	0	4	1020	1
2026-02-11	16:23:55.530	1.225	-0.42	0.245	0.184708	0.02318	0.999668	-0.285	0.7515	0.9585	0	4	1020	1
2026-02-11	16:23:55.550	1.26	-0.665	0.21	0.18056	0.022692	0.997228	-0.282	0.7545	0.951	0	4	1020	1
2026-02-11	16:23:55.570	1.26	-0.63	0.245	0.18056	0.024644	0.996496	-0.2805	0.75	0.951	0	4	1020	1
2026-02-11	16:23:55.590	1.295	-0.42	0.245	0.183	0.021228	0.996252	-0.285	0.7485	0.9525	0	4	1020	1
2026-02-11	16:23:55.610	1.295	-0.595	0.245	0.183	0.02318	0.996984	-0.288	0.7485	0.9525	0	5	1020	1
2026-02-11	16:23:55.630	1.26	-0.7	0.245	0.179096	0.023912	0.996008	-0.291	0.75	0.9555	0	5	1020	1
2026-02-11	16:23:55.650	1.295	-0.49	0.245	0.183	0.022692	0.997228	-0.288	0.753	0.9495	0	5	1020	1
2026-02-11	16:23:55.670	1.295	-0.455	0.245	0.17934	0.020252	1.000156	-0.2835	0.7485	0.951	0	5	1020	1
2026-02-11	16:23:55.690	1.295	-0.7	0.245	0.178852	0.022692	0.995276	-0.2835	0.7485	0.954	0	5	1020	1
2026-02-11	16:23:55.710	1.295	-0.63	0.245	0.182756	0.02074	0.993324	-0.285	0.7515	0.9495	0	5	1020	1
2026-02-11	16:23:55.730	1.295	-0.49	0.245	0.181536	0.018544	0.994788	-0.2865	0.7515	0.951	0	5	1020	1
2026-02-11	16:23:55.750	1.295	-0.56	0.28	0.18056	0.02196	0.998204	-0.2865	0.747	0.954	0	5	1020	1
2026-02-11	16:23:55.770	1.33	-0.595	0.245	0.181536	0.022692	0.99918	-0.285	0.7455	0.948	0	5	1020	1
2026-02-11	16:23:55.790	1.295	-0.525	0.28	0.180804	0.018544	0.999912	-0.285	0.747	0.948	0	5	1020	1
2026-02-11	16:23:55.810	1.295	-0.63	0.245	0.17934	0.020008	0.997472	-0.2895	0.747	0.954	0	5	1020	1
2026-02-11	16:23:55.830	1.295	-0.49	0.28	0.177876	0.022448	0.997716	-0.2835	0.7515	0.9525	0	5	1020	1
2026-02-11	16:23:55.850	1.295	-0.665	0.175	0.181292	0.020252	0.998204	-0.2805	0.7545	0.948	0	5	1020	1
2026-02-11	16:23:55.870	1.26	-0.525	0.21	0.181048	0.019032	0.995764	-0.2835	0.7515	0.9495	0	5	1020	1
2026-02-11	16:23:55.890	1.26	-0.595	0.245	0.18178	0.021472	0.997716	-0.282	0.744	0.9495	0	5	1020	1
2026-02-11	16:23:55.910	1.295	-0.63	0.245	0.180072	0.021472	1.000156	-0.2865	0.744	0.9495	0	5	1020	1
2026-02-11	16:23:55.930	1.26	-0.49	0.28	0.177632	0.02074	0.998692	-0.2895	0.7485	0.9525	0	5	1020	1
2026-02-11	16:23:55.950	1.295	-0.595	0.245	0.182024	0.02074	0.998692	-0.285	0.75	0.954	0	5	1020	1
2026-02-11	16:23:55.970	1.295	-0.525	0.21	0.180804	0.021472	0.999424	-0.2835	0.753	0.9525	0	5	1020	1
2026-02-11	16:23:55.990	1.26	-0.665	0.245	0.177632	0.020984	0.995276	-0.2895	0.75	0.954	0	5	1020	1
2026-02-11	16:23:56.010	1.295	-0.56	0.245	0.182268	0.022448	0.999424	-0.2865	0.7455	0.9525	0	5	1020	1
2026-02-11	16:23:56.030	1.26	-0.35	0.245	0.18178	0.023424	0.999424	-0.285	0.747	0.951	0	5	1020	1
2026-02-11	16:23:56.050	1.295	-0.84	0.245	0.183	0.018544	0.996252	-0.288	0.747	0.9525	0	5	1020	1
2026-02-11	16:23:56.070	1.26	-0.56	0.245	0.1769	0.024156	0.994056	-0.288	0.747	0.948	0	5	1020	1
2026-02-11	16:23:56.090	1.295	-0.385	0.21	0.182024	0.021716	0.998448	-0.285	0.7455	0.9525	0	5	1020	1
2026-02-11	16:23:56.110	1.26	-0.42	0.245	0.179828	0.018544	0.998448	-0.2835	0.75	0.96	0	5	1020	1
2026-02-11	16:23:56.130	1.295	-0.98	0.245	0.17812	0.021716	0.993812	-0.2835	0.75	0.9525	0	5	1020	1
2026-02-11	16:23:56.150	1.26	-0.455	0.21	0.180804	0.021716	0.995276	-0.2835	0.744	0.945	0	5	1020	1
2026-02-11	16:23:56.170	1.26	-0.49	0.28	0.181048	0.023424	0.998204	-0.2835	0.744	0.945	0	5	1020	1
2026-02-11	16:23:56.190	1.295	-0.77	0.28	0.176168	0.021472	0.999912	-0.285	0.756	0.9495	0	5	1020	1
2026-02-11	16:24:02.210	1.26	-0.77	0.245	0.183976	0.019032	0.994056	-0.2865	0.7545	0.9465	0	18	38	2
2026-02-11	16:24:02.230	1.295	-0.735	0.21	0.182512	0.019276	0.997228	-0.282	0.7545	0.9495	0	18	38	2
2026-02-11	16:24:02.250	1.295	-0.14	0.21	0.179828	0.022692	1.000156	-0.279	0.7545	0.9525	0	18	38	2
2026-02-11	16:24:02.270	1.33	-0.91	0.245	0.176656	0.020252	0.995276	-0.285	0.7515	0.957	0	18	38	2
2026-02-11	16:24:02.290	1.295	-0.7	0.245	0.178852	0.021716	0.998936	-0.288	0.7515	0.954	0	18	38	2
2026-02-11	16:24:02.310	1.26	-0.175	0.245	0.179828	0.01952	1.000888	-0.288	0.753	0.9525	0	18	38	2
2026-02-11	16:24:02.330	1.26	-0.245	0.245	0.181292	0.021472	1.0004	-0.2865	0.7455	0.951	0	18	38	2
2026-02-11	16:24:02.350	1.295	-0.595	0.21	0.180804	0.019032	0.9943	-0.2865	0.744	0.9555	0	18	38	2
2026-02-11	16:24:02.370	11.515	-9.975	5.32	0.181292	0.019764	0.995032	-0.285	0.7545	0.9525	0	18	38	2
2026-02-11	16:24:02.390	1.26	-0.595	0.245	0.181048	0.0183	0.996008	-0.2835	0.753	0.948	0	18	38	2
2026-02-11	16:24:02.410	1.225	-0.63	0.245	0.182512	0.017812	0.99552	-0.285	0.744	0.954	0	104	204	2
2026-02-11	16:24:02.430	1.26	-0.455	0.245	0.184464	0.022692	0.99552	-0.288	0.7425	0.954	0	104	204	2
2026-02-11	16:24:02.450	1.26	-0.7	0.245	0.180804	0.022448	0.99186	-0.288	0.75	0.9525	0	104	204	2
2026-02-11	16:24:02.470	1.26	-0.63	0.245	0.17934	0.022204	0.994788	-0.2865	0.7515	0.9555	0	104	204	2
2026-02-11	16:24:02.490	1.26	-0.35	0.245	0.180316	0.02562	0.999424	-0.288	0.7485	0.957	0	104	204	2
2026-02-11	16:24:02.510	1.295	-0.735	0.245	0.18544	0.019276	0.996496	-0.285	0.7485	0.957	0	104	204	2
2026-02-11	16:24:02.530	1.295	-0.7	0.245	0.181048	0.018056	0.993812	-0.279	0.7515	0.957	0	104	204	2
2026-02-11	16:24:02.550	1.225	-0.385	0.28	0.17812	0.021228	0.997228	-0.282	0.7515	0.9555	0	104	204	2
2026-02-11	16:24:02.570	1.26	-0.63	0.245	0.17934	0.024888	0.994544	-0.2865	0.7515	0.9555	0	104	204	2
2026-02-11	16:24:02.590	1.225	-0.63	0.245	0.18056	0.019032	0.996008	-0.2865	0.7485	0.9615	0	104	204	2
2026-02-11	16:24:02.610	1.225	-0.49	0.28	0.178608	0.021228	0.996496	-0.282	0.747	0.9585	0	226	423	1
2026-02-11	16:24:02.630	1.295	-0.525	0.245	0.183	0.020984	0.994788	-0.2865	0.753	0.954	0	226	423	1
2026-02-11	16:24:02.650	1.26	-0.595	0.245	0.184464	0.020496	0.994056	-0.291	0.75	0.9585	0	226	423	1
2026-02-11	16:24:02.670	1.295	-0.665	0.245	0.179584	0.020008	0.992348	-0.2865	0.744	0.9555	0	226	423	1
2026-02-11	16:24:02.690	1.225	-0.49	0.245	0.181292	0.021472	0.998936	-0.285	0.7455	0.954	0	226	423	1
2026-02-11	16:24:02.710	1.26	-0.525	0.245	0.179828	0.021472	0.993324	-0.291	0.75	0.96	0	226	423	1
2026-02-11	16:24:02.730	1.295	-0.805	0.245	0.179096	0.01952	0.996252	-0.288	0.747	0.96	0	226	423	1
2026-02-11	16:24:02.750	1.26	-0.42	0.245	0.178364	0.020984	0.997716	-0.288	0.7455	0.9555	0	226	423	1
2026-02-11	16:24:02.770	1.26	-0.56	0.245	0.181536	0.023668	0.998692	-0.288	0.7515	0.957	0	226	423	1
2026-02-11	16:24:02.790	1.26	-0.77	0.245	0.178852	0.018788	0.994544	-0.282	0.7515	0.96	0	226	423	1
2026-02-11	16:24:02.810	1.295	-0.28	0.245	0.181536	0.023424	0.996496	-0.285	0.753	0.9585	0	316	584	1
2026-02-11	16:24:02.830	1.26	-0.63	0.28	0.181536	0.021472	0.994056	-0.2835	0.7545	0.9555	0	316	584	1
2026-02-11	16:24:02.850	1.26	-0.84	0.21	0.177144	0.021228	0.992348	-0.2805	0.75	0.9525	0	316	584	1
2026-02-11	16:24:02.870	1.26	-0.245	0.21	0.180804	0.023668	0.998692	-0.2865	0.7515	0.951	0	316	584	1
2026-02-11	16:24:02.890	1.225	-0.525	0.245	0.180316	0.016836	0.996496	-0.285	0.7485	0.9525	0	316	584	1
2026-02-11	16:24:02.910	1.295	-0.91	0.245	0.181292	0.024644	0.993324	-0.2865	0.744	0.9525	0	316	584	1
2026-02-11	16:24:02.930	1.26	-0.385	0.28	0.182512	0.021228	0.995764	-0.2925	0.7455	0.9495	0	316	584	1
2026-02-11	16:24:02.950	1.26	-0.455	0.245	0.17568	0.02196	0.998204	-0.288	0.7515	0.954	0	316	584	1
2026-02-11	16:24:02.970	1.26	-0.735	0.28	0.182512	0.018544	0.995276	-0.279	0.753	0.9585	0	316	584	1
2026-02-11	16:24:02.990	1.295	-0.56	0.245	0.180072	0.020008	0.995764	-0.276	0.7515	0.96	0	316	584	1
2026-02-11	16:24:03.010	1.295	-0.525	0.28	0.179828	0.0183	0.994544	-0.2805	0.75	0.9405	0	370	701	1
2026-02-11	16:24:03.030	1.295	-0.56	0.28	0.181048	0.023668	0.994544	-0.2805	0.75	0.9405	0	370	701	1
2026-02-11	16:24:03.050	1.295	-0.665	0.245	0.181536	0.019032	0.994788	-0.279	0.741	0.954	0	370	701	1
2026-02-11	16:24:03.070	1.26	-0.49	0.245	0.182268	0.019276	0.99796	-0.2835	0.747	0.96	0	370	701	1
2026-02-11	16:24:03.090	1.295	-0.56	0.28	0.179584	0.023424	0.998936	-0.291	0.7455	0.9645	0	370	701	1
2026-02-11	16:24:03.110	1.295	-0.735	0.245	0.180316	0.021716	0.99552	-0.291	0.7455	0.9645	0	370	701	1
2026-02-11	16:24:03.130	1.295	-0.49	0.21	0.18056	0.02318	0.996252	-0.2895	0.7395	0.957	0	370	701	1
2026-02-11	16:24:03.150	1.26	-0.595	0.245	0.18056	0.019764	0.99796	-0.282	0.75	0.963	0	370	701	1
2026-02-11	16:24:03.170	1.295	-0.665	0.28	0.18178	0.023668	0.998448	-0.288	0.741	0.954	0	370	701	1
2026-02-11	16:24:03.190	1.295	-0.455	0.245	0.181536	0.023912	0.997228	-0.2835	0.747	0.957	0	370	701	1
2026-02-11	16:24:03.210	1.295	-0.665	0.21	0.178364	0.020008	0.99796	-0.2835	0.7485	0.9615	0	391	787	1
2026-02-11	16:24:03.230	1.26	-0.63	0.245	0.18178	0.020984	0.995032	-0.2865	0.75	0.9495	0	391	787	1
2026-02-11	16:24:03.250	1.26	-0.525	0.245	0.182024	0.020984	0.994056	-0.2865	0.747	0.954	0	391	787	1
2026-02-11	16:24:03.270	1.26	-0.63	0.28	0.179828	0.021472	0.996984	-0.2835	0.7455	0.9495	0	391	787	1
2026-02-11	16:24:03.290	1.26	-0.455	0.28	0.180072	0.021228	0.997472	-0.282	0.747	0.9585	0	391	787	1
2026-02-11	16:24:03.310	1.295	-0.63	0.28	0.179828	0.019276	0.998204	-0.2895	0.744	0.9555	0	391	787	1
2026-02-11	16:24:03.330	1.295	-0.63	0.28	0.18056	0.022204	0.994056	-0.294	0.75	0.963	0	391	787	1
2026-02-11	16:24:03.350	1.33	-0.385	0.28	0.179096	0.021716	0.99796	-0.2865	0.75	0.957	0	391	787	1
2026-02-11	16:24:03.370	1.295	-0.7	0.28	0.179584	0.016592	0.996252	-0.285	0.75	0.957	0	391	787	1
2026-02-11	16:24:03.390	1.26	-0.63	0.245	0.181536	0.018544	0.997228	-0.2895	0.759	0.9555	0	391	787	1
2026-02-11	16:24:03.410	1.26	-0.245	0.21	0.180072	0.022448	0.999668	-0.285	0.756	0.945	0	385	849	1
2026-02-11	16:24:03.430	1.26	-0.91	0.245	0.18056	0.024644	0.995764	-0.294	0.7515	0.9495	0	385	849	1
2026-02-11	16:24:03.450	1.26	-0.56	0.175	0.181048	0.022204	0.999424	-0.288	0.75	0.9585	0	385	849	1
2026-02-11	16:24:03.470	1.26	-0.28	0.28	0.179584	0.019032	0.998204	-0.285	0.744	0.957	0	385	849	1
2026-02-11	16:24:03.490	1.295	-0.875	0.245	0.18178	0.022204	0.996984	-0.2865	0.7455	0.957	0	385	849	1
2026-02-11	16:24:03.510	1.26	-0.595	0.245	0.182756	0.022204	0.995764	-0.2895	0.747	0.954	0	385	849	1
2026-02-11	16:24:03.530	1.26	-0.315	0.245	0.177876	0.020496	0.998204	-0.2895	0.7455	0.9465	0	385	849	1
2026-02-11	16:24:03.550	1.26	-0.77	0.28	0.179584	0.022692	0.996252	-0.2895	0.7455	0.9465	0	385	849	1
2026-02-11	16:24:03.570	1.26	-0.595	0.245	0.181292	0.01952	0.99796	-0.2895	0.7455	0.9465	0	385	849	1
2026-02-11	16:24:03.590	1.26	-0.385	0.21	0.179584	0.019276	0.998204	-0.2865	0.744	0.951	0	385	849	1
2026-02-11	16:24:03.610	1.26	-0.7	0.245	0.179584	0.021472	0.997716	-0.2865	0.744	0.9585	0	360	895	1
2026-02-11	16:24:03.630	1.295	-0.525	0.245	0.178852	0.019764	0.996008	-0.2865	0.75	0.9585	0	360	895	1
2026-02-11	16:24:03.650	1.225	-0.525	0.21	0.177388	0.0183	0.997228	-0.2835	0.75	0.954	0	360	895	1
2026-02-11	16:24:03.670	1.225	-0.595	0.245	0.181536	0.022448	0.99674	-0.285	0.7455	0.954	0	360	895	1
2026-02-11	16:24:03.690	1.295	-0.525	0.245	0.183732	0.019032	0.995276	-0.282	0.7455	0.954	0	360	895	1
2026-02-11	16:24:03.710	1.295	-0.63	0.21	0.180072	0.019032	0.996252	-0.2805	0.7515	0.9525	0	360	895	1
2026-02-11	16:24:03.730	1.26	-0.595	0.21	0.178364	0.0183	0.997228	-0.2835	0.7515	0.954	0	360	895	1
2026-02-11	16:24:03.750	1.26	-0.49	0.245	0.182512	0.018788	0.998204	-0.2835	0.7455	0.951	0	360	895	1
2026-02-11	16:24:03.770	1.26	-0.665	0.245	0.176168	0.025864	0.995032	-0.2865	0.7425	0.954	0	360	895	1
2026-02-11	16:24:03.790	1.26	-0.63	0.245	0.179828	0.021472	0.996008	-0.2835	0.7395	0.96	0	360	895	1
2026-02-11	16:24:03.810	1.295	-0.49	0.28	0.17934	0.018544	0.996252	-0.282	0.7425	0.957	0	324	929	1
2026-02-11	16:24:03.830	1.225	-0.665	0.245	0.180072	0.02074	0.99796	-0.288	0.7455	0.9525	0	324	929	1
2026-02-11	16:24:03.850	1.26	-0.595	0.245	0.18178	0.02074	0.99552	-0.291	0.7425	0.9555	0	324	929	1
2026-02-11	16:24:03.870	1.26	-0.595	0.245	0.180804	0.019276	0.997716	-0.288	0.744	0.957	0	324	929	1
2026-02-11	16:24:03.890	1.295	-0.49	0.245	0.184952	0.02196	0.99918	-0.285	0.747	0.954	0	324	929	1
2026-02-11	16:24:03.910	1.26	-0.7	0.245	0.178608	0.019764	0.99674	-0.2865	0.7425	0.957	0	324	929	1
2026-02-11	16:24:03.930	1.295	-0.595	0.245	0.179828	0.021716	0.994544	-0.2895	0.741	0.957	0	324	929	1
2026-02-11	16:24:03.950	1.295	-0.525	0.28	0.1769	0.020984	0.997472	-0.288	0.75	0.9495	0	324	929	1
2026-02-11	16:24:03.970	1.225	-0.56	0.245	0.181048	0.022936	0.998692	-0.288	0.753	0.9525	0	324	929	1
2026-02-11	16:24:03.990	1.26	-0.595	0.28	0.183732	0.020008	0.99918	-0.288	0.75	0.957	0	324	929	1
2026-02-11	16:24:04.010	1.295	-0.455	0.245	0.180072	0.020008	0.998448	-0.285	0.75	0.9555	0	283	953	1
2026-02-11	16:24:04.030	1.295	-0.63	0.245	0.178608	0.02074	0.99552	-0.2865	0.7515	0.9555	0	283	953	1
2026-02-11	16:24:04.050	1.26	-0.7	0.245	0.182512	0.02196	0.994544	-0.2865	0.7515	0.9555	0	283	953	1
2026-02-11	16:24:04.070	1.26	-0.35	0.21	0.180072	0.018788	1.000156	-0.282	0.738	0.951	0	283	953	1
2026-02-11	16:24:04.090	1.26	-0.385	0.21	0.17812	0.020252	1.000156	-0.282	0.738	0.951	0	283	953	1
2026-02-11	16:24:04.110	1.295	-0.805	0.245	0.179584	0.02074	0.99552	-0.2805	0.747	0.9495	0	283	953	1
2026-02-11	16:24:04.130	1.295	-0.56	0.21	0.182756	0.019276	0.99552	-0.285	0.75	0.9555	0	283	953	1
2026-02-11	16:24:04.150	1.295	-0.455	0.21	0.178608	0.017812	0.99674	-0.282	0.7485	0.954	0	283	953	1
2026-02-11	16:24:04.170	1.295	-0.7	0.21	0.181536	0.021228	0.998692	-0.282	0.747	0.963	0	283	953	1
2026-02-11	16:24:04.190	1.26	-0.49	0.28	0.183488	0.019032	0.998692	-0.2865	0.753	0.954	0	283	953	1
2026-02-11	16:24:04.210	1.295	-0.56	0.245	0.178852	0.0183	0.998448	-0.2865	0.753	0.954	0	243	971	1
2026-02-11	16:24:04.230	1.33	-0.84	0.245	0.179584	0.021716	0.99308	-0.2805	0.753	0.9585	0	243	971	1
2026-02-11	16:24:04.250	1.26	-0.42	0.245	0.178608	0.020252	0.999912	-0.285	0.7515	0.9555	0	243	971	1
2026-02-11	16:24:04.270	1.26	-0.315	0.245	0.18178	0.021228	1.001376	-0.2895	0.7515	0.9555	0	243	971	1
2026-02-11	16:24:04.290	1.295	-0.945	0.245	0.180072	0.022448	0.994788	-0.297	0.7455	0.96	0	243	971	1
2026-02-11	16:24:04.310	1.26	-0.49	0.175	0.180804	0.020496	0.99552	-0.2805	0.7455	0.954	0	243	971	1
2026-02-11	16:24:04.330	1.26	-0.455	0.245	0.186904	0.016592	0.996008	-0.2955	0.75	0.957	0	243	971	1
2026-02-11	16:24:04.350	1.26	-0.735	0.245	0.181292	0.021716	0.997472	-0.285	0.744	0.9585	0	243	971	1
2026-02-11	16:24:04.370	1.295	-0.42	0.245	0.184708	0.0183	0.99918	-0.288	0.747	0.9465	0	243	971	1
2026-02-11	16:24:04.390	1.295	-0.665	0.245	0.18422	0.018544	0.99674	-0.2835	0.753	0.9585	0	243	971	1
2026-02-11	16:24:04.410	1.295	-0.63	0.21	0.177632	0.019276	0.996496	-0.2925	0.747	0.9555	0	205	984	1
2026-02-11	16:24:04.430	1.295	-0.525	0.21	0.17934	0.021472	0.997716	-0.2775	0.756	0.948	0	205	984	1
2026-02-11	16:24:04.450	1.295	-0.42	0.245	0.182024	0.0183	0.999912	-0.282	0.756	0.9555	0	205	984	1
2026-02-11	16:24:04.470	1.26	-0.77	0.245	0.182512	0.020984	0.997716	-0.2865	0.7455	0.9525	0	205	984	1
2026-02-11	16:24:04.490	1.295	-0.595	0.21	0.18178	0.01952	0.996984	-0.2925	0.7455	0.954	0	205	984	1
2026-02-11	16:24:04.510	1.295	-0.56	0.245	0.180804	0.020984	0.998204	-0.285	0.7605	0.954	0	205	984	1
2026-02-11	16:24:04.530	1.295	-0.595	0.245	0.179584	0.019276	0.995764	-0.291	0.7545	0.954	0	205	984	1
2026-02-11	16:24:04.550	1.225	-0.7	0.245	0.181536	0.021472	0.998692	-0.2895	0.7515	0.951	0	205	984	1
2026-02-11	16:24:04.570	1.26	-0.35	0.28	0.183244	0.017812	1.001376	-0.2805	0.747	0.963	0	205	984	1
2026-02-11	16:24:04.590	1.295	-0.56	0.21	0.181292	0.022936	0.997472	-0.2835	0.759	0.96	0	205	984	1
2026-02-11	16:24:04.610	1.295	-0.805	0.245	0.176412	0.01952	0.994788	-0.288	0.753	0.957	0	172	993	1
2026-02-11	16:24:04.630	1.295	-0.28	0.245	0.178364	0.021472	0.998448	-0.2925	0.7455	0.9555	0	172	993	1
2026-02-11	16:24:04.650	1.26	-0.525	0.245	0.18178	0.021716	0.999424	-0.288	0.7545	0.954	0	172	993	1
2026-02-11	16:24:04.670	1.26	-0.665	0.21	0.18178	0.01952	0.999668	-0.2895	0.753	0.951	0	172	993	1
2026-02-11	16:24:04.690	1.295	-0.49	0.245	0.182024	0.019764	0.997472	-0.288	0.7515	0.954	0	172	993	1
2026-02-11	16:24:04.710	1.295	-0.665	0.21	0.177144	0.023668	0.99796	-0.285	0.75	0.9615	0	172	993	1
2026-02-11	16:24:04.730	1.295	-0.56	0.315	0.180316	0.01952	0.99796	-0.2835	0.753	0.9555	0	172	993	1
2026-02-11	16:24:04.750	1.26	-0.595	0.245	0.180072	0.023424	0.997472	-0.285	0.753	0.957	0	172	993	1
2026-02-11	16:24:04.770	1.26	-0.56	0.245	0.179828	0.020496	0.996252	-0.2925	0.7485	0.954	0	172	993	1
2026-02-11	16:24:04.790	1.26	-0.595	0.21	0.179096	0.019764	0.995032	-0.285	0.753	0.948	0	172	993	1
2026-02-11	16:24:04.810	1.26	-0.56	0.175	0.17934	0.019276	0.992836	-0.285	0.753	0.9555	0	145	1000	1
2026-02-11	16:24:04.830	1.295	-0.595	0.28	0.182024	0.0183	0.998936	-0.2865	0.7455	0.9555	0	145	1000	1
2026-02-11	16:24:04.850	1.225	-0.595	0.245	0.18056	0.020252	0.999424	-0.2865	0.7455	0.9555	0	145	1000	1
2026-02-11	16:24:04.870	1.26	-0.35	0.245	0.18056	0.019276	0.999424	-0.2895	0.744	0.9555	0	145	1000	1
2026-02-11	16:24:04.890	1.295	-0.805	0.21	0.182512	0.020252	0.996252	-0.288	0.747	0.9555	0	145	1000	1
2026-02-11	16:24:04.910	1.26	-0.525	0.245	0.178608	0.023912	0.996984	-0.285	0.7515	0.954	0	145	1000	1
2026-02-11	16:24:04.930	1.225	-0.385	0.245	0.180316	0.020252	0.998204	-0.2835	0.75	0.9555	0	145	1000	1
2026-02-11	16:24:04.950	1.295	-0.805	0.28	0.181048	0.021716	0.996252	-0.282	0.75	0.954	0	145	1000	1
2026-02-11	16:24:04.970	1.26	-0.525	0.21	0.177144	0.018544	0.99796	-0.285	0.7515	0.9525	0	145	1000	1
2026-02-11	16:24:04.990	1.26	-0.455	0.28	0.177144	0.021716	0.998448	-0.285	0.75	0.9555	0	145	1000	1
2026-02-11	16:24:05.010	1.26	-0.7	0.245	0.179584	0.018788	0.99796	-0.2835	0.747	0.9525	0	121	1006	1
2026-02-11	16:24:05.030	1.295	-0.56	0.245	0.180804	0.020008	0.99674	-0.282	0.7485	0.951	0	121	1006	1
2026-02-11	16:24:05.050	1.26	-0.49	0.28	0.177632	0.017324	0.996984	-0.2835	0.7485	0.9555	0	121	1006	1
2026-02-11	16:24:05.070	1.26	-0.56	0.245	0.182512	0.020008	0.998936	-0.282	0.747	0.9525	0	121	1006	1
2026-02-11	16:24:05.090	1.26	-0.735	0.245	0.18178	0.020984	0.998204	-0.2805	0.7455	0.948	0	121	1006	1
2026-02-11	16:24:05.110	1.26	-0.49	0.21	0.175924	0.020008	0.996496	-0.2805	0.7455	0.948	0	121	1006	1
2026-02-11	16:24:05.130	1.26	-0.56	0.28	0.181292	0.02074	1.001864	-0.2835	0.75	0.96	0	121	1006	1
2026-02-11	16:24:05.150	1.33	-0.665	0.245	0.18178	0.0183	1.0004	-0.2835	0.7455	0.954	0	121	1006	1
2026-02-11	16:24:05.170	1.225	-0.595	0.245	0.18544	0.021716	0.99918	-0.2835	0.7455	0.954	0	121	1006	1
2026-02-11	16:24:05.190	1.26	-0.525	0.245	0.18056	0.022448	0.996496	-0.2805	0.7485	0.96	0	121	1006	1
2026-02-11	16:24:05.210	1.33	-0.595	0.21	0.179096	0.02074	0.995276	-0.2955	0.7485	0.957	0	102	1010	1
2026-02-11	16:24:05.230	1.295	-0.665	0.245	0.181048	0.018788	0.996496	-0.2835	0.753	0.951	0	102	1010	1
2026-02-11	16:24:05.250	1.295	-0.49	0.245	0.183244	0.02074	0.999668	-0.2865	0.753	0.9555	0	102	1010	1
2026-02-11	16:24:05.270	1.295	-0.56	0.245	0.177876	0.020984	0.998204	-0.2775	0.75	0.945	0	102	1010	1
2026-02-11	16:24:05.290	1.295	-0.735	0.21	0.175924	0.021228	0.997228	-0.2865	0.7515	0.9495	0	102	1010	1
2026-02-11	16:24:05.310	1.26	-0.455	0.245	0.181048	0.022448	0.998204	-0.2865	0.7455	0.96	0	102	1010	1
2026-02-11	16:24:05.330	1.26	-0.595	0.28	0.183244	0.022204	0.998692	-0.285	0.756	0.951	0	102	1010	1
2026-02-11	16:24:05.350	1.295	-0.63	0.21	0.182512	0.021716	0.999424	-0.2955	0.747	0.957	0	102	1010	1
2026-02-11	16:24:05.370	1.295	-0.35	0.245	0.179584	0.022204	0.997472	-0.2895	0.7485	0.957	0	102	1010	1
2026-02-11	16:24:05.390	1.26	-0.91	0.245	0.177876	0.020984	0.994544	-0.285	0.7455	0.9615	0	102	1010	1
2026-02-11	16:24:05.410	1.19	-0.455	0.28	0.18056	0.020496	0.996252	-0.285	0.7545	0.963	0	86	1012	1
2026-02-11	16:24:05.430	1.26	-0.385	0.28	0.18178	0.02196	0.997716	-0.2835	0.753	0.957	0	86	1012	1
2026-02-11	16:24:05.450	1.26	-0.805	0.245	0.179828	0.0183	0.998204	-0.2895	0.747	0.9555	0	86	1012	1
2026-02-11	16:24:05.470	1.295	-0.56	0.245	0.182268	0.02196	0.997716	-0.2775	0.75	0.9615	0	86	1012	1
2026-02-11	16:24:05.490	1.295	-0.665	0.28	0.178608	0.021472	0.994056	-0.288	0.75	0.9615	0	86	1012	1
2026-02-11	16:24:05.510	1.19	-0.77	0.28	0.180804	0.017812	0.996252	-0.282	0.7545	0.9495	0	86	1012	1
2026-02-11	16:24:05.530	1.225	-0.07	0.245	0.182268	0.019276	1.001132	-0.2865	0.7515	0.948	0	86	1012	1
2026-02-11	16:24:05.550	1.295	-0.805	0.245	0.17934	0.019764	0.995276	-0.288	0.7515	0.954	0	86	1012	1
2026-02-11	16:24:05.570	1.295	-1.05	0.28	0.178608	0.021228	0.992836	-0.279	0.7515	0.945	0	86	1012	1
2026-02-11	16:24:05.590	1.19	-0.175	0.245	0.178364	0.02074	0.998448	-0.2835	0.7485	0.957	0	86	1012	1
2026-02-11	16:24:05.610	1.26	-0.56	0.245	0.180804	0.02318	0.999668	-0.282	0.7395	0.96	0	74	1014	1
2026-02-11	16:24:05.630	1.26	-0.77	0.245	0.181048	0.020008	0.999424	-0.291	0.7545	0.957	0	74	1014	1
2026-02-11	16:24:05.650	1.26	-0.42	0.21	0.181536	0.021716	0.99796	-0.2865	0.7455	0.948	0	74	1014	1
2026-02-11	16:24:05.670	1.26	-0.7	0.245	0.180804	0.020008	0.995276	-0.288	0.7455	0.954	0	74	1014	1
2026-02-11	16:24:05.690	1.26	-0.665	0.21	0.182512	0.022448	0.995764	-0.2805	0.7485	0.945	0	74	1014	1
2026-02-11	16:24:05.710	1.225	-0.42	0.21	0.179828	0.022204	0.99796	-0.294	0.7485	0.954	0	74	1014	1
2026-02-11	16:24:05.730	1.225	-0.665	0.28	0.183	0.022204	0.998936	-0.2865	0.7425	0.9495	0	74	1014	1
2026-02-11	16:24:05.750	1.26	-0.385	0.245	0.182024	0.020008	1.001376	-0.273	0.75	0.951	0	74	1014	1
2026-02-11	16:24:05.770	1.33	-0.665	0.245	0.18056	0.018544	0.996496	-0.285	0.7485	0.9585	0	74	1014	1
2026-02-11	16:24:05.790	1.33	-0.805	0.245	0.180804	0.020252	0.99308	-0.282	0.747	0.9495	0	74	1014	1
2026-02-11	16:24:05.810	1.295	-0.105	0.245	0.180072	0.020008	1.00284	-0.2895	0.7515	0.9525	0	63	1016	1
2026-02-11	16:24:05.830	1.365	-0.56	0.245	0.179584	0.018056	0.997716	-0.291	0.762	0.948	0	63	1016	1
2026-02-11	16:24:05.850	1.365	-1.19	0.28	0.18056	0.02074	0.996252	-0.294	0.75	0.9585	0	63	1016	1
2026-02-11	16:24:05.870	1.26	0.28	0.28	0.179828	0.021716	1.001376	-0.285	0.7455	0.954	0	63	1016	1
2026-02-11	16:24:05.890	1.33	-0.595	0.21	0.180316	0.022936	1.000156	-0.282	0.747	0.9435	0	63	1016	1
2026-02-11	16:24:05.910	1.365	-1.05	0.28	0.179584	0.021716	0.99552	-0.2835	0.75	0.9585	0	63	1016	1
2026-02-11	16:24:05.930	1.33	0.175	0.245	0.180804	0.022448	1.004548	-0.288	0.753	0.9405	0	63	1016	1
2026-02-11	16:24:05.950	1.4	-0.21	0.21	0.175436	0.018788	0.998936	-0.2835	0.759	0.9525	0	63	1016	1
2026-02-11	16:24:05.970	1.47	-1.12	0.21	0.182268	0.021228	0.99552	-0.2895	0.7515	0.957	0	63	1016	1
2026-02-11	16:24:05.990	1.4	0.28	0.21	0.182024	0.020496	0.998692	-0.2805	0.747	0.9465	0	63	1016	1
2026-02-11	16:24:06.010	1.435	-0.245	0.21	0.177144	0.022448	0.999668	-0.2835	0.7455	0.954	0	54	1017	1
2026-02-11	16:24:06.030	1.47	-0.805	0.175	0.18178	0.020496	0.992592	-0.2865	0.753	0.954	0	54	1017	1
2026-02-11	16:24:06.050	1.435	0.07	0.245	0.183244	0.024156	0.995276	-0.2805	0.75	0.9465	0	54	1017	1
2026-02-11	16:24:06.070	1.47	-0.28	0.21	0.178852	0.022448	0.994788	-0.294	0.7485	0.957	0	54	1017	1
2026-02-11	16:24:06.090	1.435	-0.665	0.21	0.177144	0.023424	0.990884	-0.2925	0.7515	0.9555	0	54	1017	1
2026-02-11	16:24:06.110	1.365	-0.42	0.21	0.178852	0.02074	0.991128	-0.2925	0.7515	0.9555	0	54	1017	1
2026-02-11	16:24:06.130	1.26	-0.28	0.245	0.17812	0.022936	0.996984	-0.2925	0.7515	0.9555	0	54	1017	1
2026-02-11	16:24:06.150	1.33	-0.455	0.21	0.177144	0.024156	0.99674	-0.285	0.7515	0.9495	0	54	1017	1
2026-02-11	16:24:06.170	1.33	-0.77	0.245	0.181048	0.02074	0.99918	-0.279	0.753	0.9435	0	54	1017	1
2026-02-11	16:24:06.190	1.33	-0.42	0.245	0.174216	0.021472	0.994788	-0.279	0.753	0.9435	0	54	1017	1
2026-02-11	16:24:06.210	1.295	-0.49	0.28	0.17934	0.021716	1.003328	-0.2895	0.7515	0.9525	0	47	1018	1
2026-02-11	16:24:06.230	1.295	-0.56	0.21	0.17934	0.022692	0.997472	-0.2895	0.7515	0.9525	0	47	1018	1
2026-02-11	16:24:06.250	1.295	-0.735	0.28	0.176168	0.020252	0.996252	-0.288	0.75	0.9555	0	47	1018	1
2026-02-11	16:24:06.270	1.295	-0.315	0.245	0.178364	0.020008	0.997228	-0.288	0.7425	0.954	0	47	1018	1
2026-02-11	16:24:06.290	1.26	-0.7	0.28	0.181536	0.02074	0.996008	-0.285	0.756	0.9495	0	47	1018	1
2026-02-11	16:24:06.310	1.26	-0.56	0.28	0.181048	0.022204	0.995764	-0.285	0.753	0.9525	0	47	1018	1
2026-02-11	16:24:06.330	1.295	-0.455	0.28	0.180316	0.022692	0.995764	-0.2865	0.753	0.957	0	47	1018	1
2026-02-11	16:24:06.350	1.295	-0.84	0.245	0.178364	0.02074	0.99796	-0.285	0.7545	0.948	0	47	1018	1
2026-02-11	16:24:06.370	1.26	-0.315	0.21	0.17934	0.02074	0.999912	-0.2895	0.753	0.957	0	47	1018	1
2026-02-11	16:24:06.390	1.295	-0.595	0.245	0.178364	0.02074	0.997228	-0.288	0.7575	0.954	0	47	1018	1
2026-02-11	16:24:06.410	1.26	-0.595	0.21	0.179096	0.022692	0.99796	-0.2895	0.7365	0.9465	0	40	1018	1
2026-02-11	16:24:06.430	1.295	-0.175	0.245	0.175924	0.022448	0.99796	-0.288	0.7575	0.957	0	40	1018	1
2026-02-11	16:24:06.450	1.295	-0.84	0.28	0.179828	0.022936	0.993812	-0.2895	0.744	0.9585	0	40	1018	1
2026-02-11	16:24:06.470	1.295	-0.595	0.245	0.18056	0.020252	0.999424	-0.282	0.753	0.954	0	40	1018	1
2026-02-11	16:24:06.490	1.225	-0.21	0.245	0.178608	0.017568	1.000156	-0.2865	0.7455	0.963	0	40	1018	1
2026-02-11	16:24:06.510	1.26	-0.91	0.21	0.179828	0.022448	0.99674	-0.291	0.7455	0.9555	0	40	1018	1
2026-02-11	16:24:06.530	1.26	-0.665	0.28	0.177632	0.019276	0.995764	-0.2775	0.75	0.9585	0	40	1018	1
2026-02-11	16:24:06.550	1.26	-0.105	0.21	0.178364	0.02684	1.00162	-0.2805	0.7545	0.9495	0	40	1018	1
2026-02-11	16:24:06.570	1.295	-0.875	0.245	0.178608	0.020008	0.996252	-0.288	0.744	0.9555	0	40	1018	1
2026-02-11	16:24:06.590	1.33	-0.805	0.245	0.181536	0.022692	0.998936	-0.2805	0.747	0.9525	0	40	1018	1
2026-02-11	16:24:06.610	1.26	0.105	0.245	0.178608	0.022204	0.999912	-0.288	0.7455	0.957	0	35	1019	1
2026-02-11	16:24:06.630	1.295	-1.015	0.245	0.180804	0.021716	0.992836	-0.2955	0.7515	0.954	0	35	1019	1
2026-02-11	16:24:06.650	1.225	-0.84	0.245	0.17568	0.021228	0.988688	-0.288	0.7515	0.954	0	35	1019	1
2026-02-11	16:24:06.670	1.33	0.14	0.245	0.17812	0.0244	1.005036	-0.2925	0.7515	0.942	0	35	1019	1
2026-02-11	16:24:06.690	1.295	-0.98	0.28	0.183732	0.023668	1.000888	-0.2925	0.7485	0.951	0	35	1019	1
2026-02-11	16:24:06.710	1.295	-0.945	0.21	0.18056	0.019276	0.995032	-0.282	0.7545	0.9555	0	35	1019	1
2026-02-11	16:24:06.730	1.26	0	0.245	0.181292	0.020984	0.999424	-0.2925	0.753	0.954	0	35	1019	1
2026-02-11	16:24:06.750	1.295	-0.805	0.245	0.180316	0.022448	0.999912	-0.285	0.75	0.954	0	35	1019	1
2026-02-11	16:24:06.770	1.295	-0.63	0.21	0.179096	0.021472	0.997228	-0.2805	0.7515	0.9495	0	35	1019	1
2026-02-11	16:24:06.790	1.225	-0.595	0.28	0.180804	0.022692	0.99918	-0.285	0.7455	0.954	0	35	1019	1
2026-02-11	16:24:06.810	1.26	-0.315	0.28	0.182024	0.023424	1.00162	-0.285	0.747	0.9585	0	30	1019	1
2026-02-11	16:24:06.830	1.295	-0.84	0.245	0.17812	0.020496	0.992104	-0.2865	0.741	0.945	0	30	1019	1
2026-02-11	16:24:06.850	1.225	-0.735	0.245	0.183	0.024156	0.99674	-0.2895	0.759	0.951	0	30	1019	1
2026-02-11	16:24:06.870	1.26	-0.035	0.245	0.178852	0.023912	0.998936	-0.291	0.7515	0.9555	0	30	1019	1
2026-02-11	16:24:06.890	1.225	-1.05	0.28	0.182512	0.02074	0.997716	-0.282	0.7425	0.948	0	30	1019	1
2026-02-11	16:24:06.910	1.26	-0.315	0.21	0.179828	0.021472	0.998936	-0.2835	0.747	0.945	0	30	1019	1
2026-02-11	16:24:06.930	1.295	-0.595	0.245	0.177388	0.022204	0.995032	-0.288	0.7485	0.9525	0	30	1019	1
2026-02-11	16:24:06.950	1.26	-0.84	0.245	0.17934	0.02196	1.000888	-0.282	0.753	0.9495	0	30	1019	1
2026-02-11	16:24:06.970	1.225	0.07	0.28	0.177632	0.025864	0.999912	-0.282	0.7545	0.9525	0	30	1019	1
2026-02-11	16:24:06.990	1.295	-1.26	0.245	0.183488	0.021716	0.998448	-0.2835	0.747	0.957	0	30	1019	1
2026-02-11	16:24:07.010	1.225	-0.315	0.245	0.179584	0.021228	0.999912	-0.2805	0.747	0.954	0	26	1019	1
2026-02-11	16:24:07.030	1.26	-0.14	0.245	0.175436	0.02074	1.001376	-0.288	0.7425	0.951	0	26	1019	1
2026-02-11	16:24:07.050	1.26	-1.4	0.245	0.180804	0.025132	0.995276	-0.2865	0.747	0.948	0	26	1019	1
2026-02-11	16:24:07.070	1.225	0.035	0.21	0.18178	0.020496	1.003816	-0.291	0.75	0.9555	0	26	1019	1
2026-02-11	16:24:07.090	1.295	-0.35	0.28	0.17934	0.020252	0.99674	-0.2835	0.747	0.945	0	26	1019	1
2026-02-11	16:24:07.110	1.33	-1.54	0.245	0.178852	0.022204	0.994056	-0.2895	0.753	0.954	0	26	1019	1
2026-02-11	16:24:07.130	1.225	0.21	0.245	0.179584	0.020984	0.999668	-0.282	0.7425	0.945	0	26	1019	1
2026-02-11	16:24:07.150	1.295	-0.63	0.28	0.178608	0.021472	1.0004	-0.2865	0.738	0.951	0	26	1019	1
2026-02-11	16:24:07.170	1.295	-1.12	0.245	0.181048	0.026596	0.9943	-0.285	0.7455	0.9555	0	26	1019	1
2026-02-11	16:24:07.190	1.225	0	0.245	0.176412	0.026108	0.999912	-0.2835	0.756	0.9495	0	26	1019	1
2026-02-11	16:24:07.210	1.295	-0.805	0.245	0.18178	0.021228	0.995276	-0.285	0.7455	0.9525	0	23	1020	1
2026-02-11	16:24:07.230	1.295	-0.805	0.315	0.177388	0.023668	0.99552	-0.2865	0.7515	0.9465	0	23	1020	1
2026-02-11	16:24:07.250	1.26	-0.07	0.245	0.177876	0.023912	0.996984	-0.2865	0.7515	0.9465	0	23	1020	1
2026-02-11	16:24:07.270	1.295	-1.015	0.245	0.17934	0.022936	0.995032	-0.288	0.75	0.948	0	23	1020	1
2026-02-11	16:24:07.290	1.225	-0.91	0.21	0.179584	0.023668	0.996984	-0.291	0.75	0.9495	0	23	1020	1
2026-02-11	16:24:07.310	1.225	-0.105	0.21	0.176412	0.020984	0.999424	-0.2865	0.75	0.9525	0	23	1020	1
2026-02-11	16:24:07.330	1.26	-0.77	0.245	0.178608	0.022936	0.998204	-0.279	0.7515	0.954	0	23	1020	1
2026-02-11	16:24:07.350	1.295	-0.735	0.245	0.180316	0.022692	0.997472	-0.2835	0.75	0.951	0	23	1020	1
2026-02-11	16:24:07.370	1.26	-0.175	0.245	0.177632	0.020984	0.997228	-0.285	0.75	0.951	0	23	1020	1
2026-02-11	16:24:07.390	1.295	-0.84	0.28	0.179584	0.02318	0.994544	-0.279	0.75	0.951	0	23	1020	1
2026-02-11	16:24:07.410	1.26	-0.595	0.245	0.183	0.021716	0.99796	-0.279	0.75	0.951	0	20	1020	1
2026-02-11	16:24:07.430	1.26	-0.315	0.21	0.178608	0.020252	1.000644	-0.279	0.75	0.951	0	20	1020	1
2026-02-11	16:24:07.450	1.26	-0.84	0.28	0.17934	0.02318	0.997472	-0.279	0.75	0.951	0	20	1020	1
2026-02-11	16:24:07.470	1.26	-0.525	0.245	0.180804	0.022936	0.99674	-0.2835	0.7485	0.96	0	20	1020	1
2026-02-11	16:24:07.490	1.225	-0.35	0.21	0.178364	0.021228	0.998936	-0.2805	0.75	0.9525	0	20	1020	1
2026-02-11	16:24:07.510	1.33	-0.945	0.21	0.17812	0.023424	0.996984	-0.2925	0.7485	0.954	0	20	1020	1
2026-02-11	16:24:07.530	1.295	-0.35	0.245	0.180804	0.0183	0.997472	-0.291	0.7455	0.9465	0	20	1020	1
2026-02-11	16:24:07.550	1.26	-0.455	0.245	0.18056	0.02562	1.0004	-0.282	0.7485	0.951	0	20	1020	1
2026-02-11	16:24:07.570	1.33	-0.805	0.28	0.182756	0.020252	0.99918	-0.2835	0.7485	0.9525	0	20	1020	1
2026-02-11	16:24:07.590	1.295	-0.35	0.245	0.179828	0.022936	0.996984	-0.2835	0.75	0.9495	0	20	1020	1
2026-02-11	16:24:07.610	1.295	-0.805	0.28	0.180072	0.022692	0.996496	-0.2835	0.75	0.9495	0	17	1020	1
2026-02-11	16:24:07.630	1.295	-0.595	0.245	0.180316	0.021228	0.996984	-0.291	0.753	0.9585	0	17	1020	1
2026-02-11	16:24:07.650	1.295	-0.385	0.245	0.1769	0.022204	0.99796	-0.291	0.7515	0.9525	0	17	1020	1
2026-02-11	16:24:07.670	1.33	-0.735	0.245	0.178364	0.022204	0.99552	-0.2865	0.741	0.9495	0	17	1020	1
2026-02-11	16:24:07.690	1.295	-0.63	0.245	0.178852	0.021472	0.994788	-0.2835	0.7515	0.954	0	17	1020	1
2026-02-11	16:24:07.710	1.225	-0.315	0.245	0.180316	0.022448	0.997228	-0.297	0.747	0.954	0	17	1020	1
2026-02-11	16:24:07.730	1.26	-0.735	0.28	0.175192	0.02196	0.99796	-0.282	0.75	0.9525	0	17	1020	1
2026-02-11	16:24:07.750	1.26	-0.63	0.21	0.17934	0.021472	0.99552	-0.2835	0.7515	0.9585	0	17	1020	1
2026-02-11	16:24:07.770	1.26	-0.35	0.245	0.179584	0.020984	0.999912	-0.2895	0.741	0.954	0	17	1020	1
2026-02-11	16:24:07.790	1.26	-0.735	0.21	0.17934	0.019032	0.997716	-0.2835	0.75	0.9465	0	17	1020	1
2026-02-11	16:24:07.810	1.26	-0.63	0.245	0.178608	0.023912	0.996008	-0.2865	0.7455	0.948	0	15	1020	1
2026-02-11	16:24:07.830	1.295	-0.385	0.28	0.178608	0.023424	1.00162	-0.2865	0.7425	0.9495	0	15	1020	1
2026-02-11	16:24:07.850	1.295	-0.7	0.28	0.181292	0.022204	0.998448	-0.2865	0.7515	0.954	0	15	1020	1
2026-02-11	16:24:07.870	1.26	-0.595	0.245	0.177632	0.023668	0.996252	-0.279	0.756	0.9525	0	15	1020	1
2026-02-11	16:24:07.890	1.26	-0.49	0.245	0.18056	0.02196	0.998448	-0.285	0.747	0.96	0	15	1020	1
2026-02-11	16:24:07.910	1.26	-0.56	0.245	0.180072	0.02074	0.997716	-0.288	0.744	0.954	0	15	1020	1
2026-02-11	16:24:07.930	1.295	-0.63	0.28	0.180316	0.02196	0.997716	-0.285	0.7455	0.9555	0	15	1020	1
2026-02-11	16:24:07.950	1.295	-0.525	0.245	0.178608	0.020984	0.99796	-0.2835	0.7455	0.9555	0	15	1020	1
2026-02-11	16:24:07.970	1.295	-0.49	0.28	0.177632	0.020252	0.99918	-0.2925	0.7545	0.954	0	15	1020	1
2026-02-11	16:24:07.990	1.295	-0.7	0.245	0.179584	0.023912	0.996252	-0.2895	0.7545	0.954	0	15	1020	1
2026-02-11	16:24:08.010	1.26	-0.595	0.245	0.179828	0.020984	0.997472	-0.2895	0.744	0.957	0	13	1020	1
2026-02-11	16:24:08.030	1.225	-0.315	0.245	0.18056	0.020008	0.999912	-0.2805	0.759	0.9525	0	13	1020	1
2026-02-11	16:24:08.050	1.295	-0.77	0.21	0.179096	0.020984	0.996008	-0.291	0.75	0.9525	0	13	1020	1
2026-02-11	16:24:08.070	1.295	-0.7	0.245	0.17812	0.023424	0.996496	-0.2925	0.7485	0.9525	0	13	1020	1
2026-02-11	16:24:08.090	1.26	-0.385	0.245	0.174216	0.020984	0.99552	-0.285	0.7455	0.954	0	13	1020	1
2026-02-11	16:24:08.110	1.26	-0.42	0.245	0.180072	0.020252	1.002596	-0.2925	0.7545	0.96	0	13	1020	1
2026-02-11	16:24:08.130	1.365	-0.77	0.245	0.181536	0.021228	0.998692	-0.297	0.753	0.9585	0	13	1020	1
2026-02-11	16:24:08.150	1.295	-0.945	0.21	0.178364	0.023668	0.997228	-0.285	0.75	0.9585	0	13	1020	1
2026-02-11	16:24:08.170	1.19	-0.035	0.245	0.177388	0.022692	1.001376	-0.291	0.747	0.954	0	13	1020	1
2026-02-11	16:24:08.190	1.26	-0.665	0.28	0.17934	0.021472	0.994056	-0.2895	0.753	0.954	0	13	1020	1
2026-02-11	16:24:08.210	1.225	-0.98	0.28	0.183	0.018544	1.00162	-0.279	0.7455	0.948	0	12	1020	1
2026-02-11	16:24:08.230	1.26	0.28	0.21	0.17934	0.020496	1.000644	-0.2865	0.756	0.951	0	12	1020	1
2026-02-11	16:24:08.250	1.33	-1.505	0.21	0.176656	0.02074	0.99186	-0.282	0.7485	0.96	0	12	1020	1
2026-02-11	16:24:08.270	1.225	-0.595	0.315	0.176656	0.02318	0.987956	-0.2835	0.7515	0.9555	0	12	1020	1
2026-02-11	16:24:08.290	1.155	-0.105	0.28	0.176656	0.01708	1.003816	-0.288	0.7545	0.951	0	12	1020	1
2026-02-11	16:24:08.310	1.19	-1.155	0.245	0.17812	0.021716	0.98698	-0.288	0.7545	0.951	0	12	1020	1
2026-02-11	16:24:08.330	1.015	-0.91	0.315	0.187148	0.021472	1.0187	-0.288	0.75	0.9495	0	12	1020	1
2026-02-11	16:24:08.350	1.225	2.73	0.28	0.182268	0.02074	1.0309	-0.288	0.747	0.948	0	12	1020	1
2026-02-11	16:24:08.370	1.61	-0.385	0.14	0.170068	0.02196	0.985028	-0.285	0.7455	0.9495	0	12	1020	1
2026-02-11	16:24:08.390	1.4	-5.18	0.28	0.183732	0.022692	0.975268	-0.2835	0.7485	0.948	0	12	1020	1
2026-02-11	16:24:08.410	0.91	3.92	0.28	0.176656	0.026596	1.010648	-0.282	0.7485	0.951	0	10	1020	1
2026-02-11	16:24:08.430	1.19	0	0.175	0.173728	0.023912	1.002108	-0.2835	0.747	0.957	0	10	1020	1
2026-02-11	16:24:08.450	1.26	-5.04	0.42	0.188612	0.017324	0.97722	-0.288	0.7485	0.954	0	10	1020	1
2026-02-11	16:24:08.470	0.91	2.73	0.21	0.181292	0.02196	1.020408	-0.291	0.75	0.954	0	10	1020	1
2026-02-11	16:24:08.490	1.295	1.015	0.14	0.174704	0.02318	1.004548	-0.285	0.7515	0.9555	0	10	1020	1
2026-02-11	16:24:08.510	1.47	-5.215	0.315	0.18056	0.02318	0.973316	-0.2835	0.75	0.948	0	10	1020	1
2026-02-11	16:24:08.530	1.05	1.12	0.28	0.179828	0.020252	0.996252	-0.288	0.7515	0.9465	0	10	1020	1
2026-02-11	16:24:08.550	1.12	2.205	0.21	0.1769	0.0183	1.014796	-0.2895	0.7545	0.951	0	10	1020	1
2026-02-11	16:24:08.570	1.365	-3.64	0.28	0.182024	0.02196	0.99064	-0.2895	0.75	0.9495	0	10	1020	1
2026-02-11	16:24:08.590	1.26	-0.455	0.245	0.177388	0.021228	0.9882	-0.291	0.7515	0.9525	0	10	1020	1
2026-02-11	16:24:08.610	1.085	0.595	0.245	0.17446	0.024156	1.001864	-0.288	0.753	0.957	0	10	1020	1
2026-02-11	16:24:08.630	1.225	-0.98	0.315	0.180804	0.020496	1.002108	-0.282	0.7545	0.9555	0	10	1020	1
2026-02-11	16:24:08.650	1.295	-0.875	0.21	0.180804	0.01952	0.999912	-0.282	0.762	0.9525	0	10	1020	1
2026-02-11	16:24:08.670	1.295	-0.28	0.245	0.182268	0.017812	1.002108	-0.282	0.762	0.9525	0	10	1020	1
2026-02-11	16:24:08.690	1.365	-0.595	0.175	0.175436	0.020252	0.998936	-0.288	0.7455	0.945	0	10	1020	1
2026-02-11	16:24:08.710	1.33	-0.945	0.21	0.173484	0.024888	0.992104	-0.2925	0.7425	0.9525	0	10	1020	1
2026-02-11	16:24:08.730	1.26	-0.21	0.315	0.17812	0.020496	0.996252	-0.291	0.753	0.9525	0	10	1020	1
2026-02-11	16:24:08.750	1.26	-0.245	0.245	0.183488	0.01464	1.008452	-0.2955	0.753	0.942	0	10	1020	1
2026-02-11	16:24:08.770	1.26	-1.12	0.21	0.177632	0.022692	0.994788	-0.288	0.7515	0.948	0	10	1020	1
2026-02-11	16:24:08.790	1.26	-0.56	0.245	0.176656	0.025132	0.996008	-0.2835	0.747	0.9585	0	10	1020	1
2026-02-11	16:24:08.810	1.225	-0.105	0.245	0.177144	0.021228	0.99308	-0.2805	0.75	0.948	0	10	1020	1
2026-02-11	16:24:08.830	1.19	-1.295	0.28	0.186172	0.01952	1.002108	-0.2835	0.753	0.951	0	10	1020	1
2026-02-11	16:24:08.850	1.26	0.56	0.245	0.178852	0.019276	1.008696	-0.2865	0.7455	0.9615	0	10	1020	1
2026-02-11	16:24:08.870	1.47	-1.33	0.175	0.172752	0.025864	0.981368	-0.2835	0.7545	0.9585	0	10	1020	1
2026-02-11	16:24:08.890	1.19	-2.135	0.315	0.182756	0.019032	0.996496	-0.2895	0.7515	0.9555	0	10	1020	1
2026-02-11	16:24:08.910	1.155	2.66	0.245	0.175924	0.02074	1.010892	-0.288	0.7485	0.9555	0	10	1020	1
2026-02-11	16:24:08.930	1.4	-2.555	0.21	0.17934	0.021716	0.98332	-0.285	0.747	0.954	0	10	1020	1
2026-02-11	16:24:08.950	1.225	-1.995	0.35	0.188612	0.021228	1.002352	-0.285	0.7515	0.954	0	10	1020	1
2026-02-11	16:24:08.970	1.225	3.57	0.175	0.17324	0.02196	1.01626	-0.2865	0.7515	0.963	0	10	1020	1
2026-02-11	16:24:08.990	1.61	-3.395	0.175	0.177876	0.018788	0.979904	-0.288	0.75	0.945	0	10	1020	1
2026-02-11	16:24:09.010	1.26	-2.695	0.35	0.185928	0.02074	0.987956	-0.2925	0.75	0.9555	0	10	1020	1
2026-02-11	16:24:09.030	1.12	4.375	0.175	0.17324	0.021716	1.020896	-0.2835	0.7455	0.9585	0	10	1020	1
2026-02-11	16:24:09.050	1.505	-2.275	0.21	0.17934	0.021716	0.997472	-0.2865	0.741	0.9495	0	10	1020	1
2026-02-11	16:24:09.070	1.47	-3.115	0.315	0.188612	0.017812	0.98942	-0.282	0.7485	0.951	0	10	1020	1
2026-02-11	16:24:09.090	1.225	2.8	0.14	0.174216	0.020008	1.012112	-0.279	0.7515	0.9435	0	10	1020	1
2026-02-11	16:24:09.110	1.47	-1.015	0.21	0.169824	0.022936	1.000644	-0.285	0.7485	0.954	0	10	1020	1
2026-02-11	16:24:09.130	1.47	-3.01	0.28	0.184464	0.022936	0.986248	-0.288	0.7515	0.951	0	10	1020	1
2026-02-11	16:24:09.150	1.19	1.61	0.28	0.178608	0.021228	1.00406	-0.2835	0.7575	0.966	0	10	1020	1
2026-02-11	16:24:09.170	1.295	-0.28	0.245	0.179828	0.021472	1.008696	-0.2895	0.7575	0.951	0	10	1020	1
2026-02-11	16:24:09.190	1.47	-1.82	0.21	0.181292	0.023424	0.99064	-0.2805	0.7515	0.9495	0	10	1020	1
2026-02-11	16:24:09.210	1.33	-0.28	0.21	0.17202	0.021228	0.987956	-0.288	0.7515	0.954	0	10	1021	1
2026-02-11	16:24:09.230	1.19	-0.35	0.28	0.182268	0.020984	1.003084	-0.2835	0.75	0.9495	0	10	1021	1
2026-02-11	16:24:09.250	1.26	-0.175	0.28	0.180804	0.01952	1.004548	-0.2925	0.75	0.9585	0	10	1021	1
2026-02-11	16:24:09.270	1.33	-0.875	0.21	0.1769	0.02074	0.997228	-0.294	0.75	0.9615	0	10	1021	1
2026-02-11	16:24:09.290	1.295	-0.945	0.245	0.179096	0.023668	0.993324	-0.2835	0.747	0.9495	0	10	1021	1
2026-02-11	16:24:09.310	1.26	0.035	0.21	0.178852	0.024888	0.998204	-0.2865	0.753	0.957	0	10	1021	1
2026-02-11	16:24:09.330	1.295	-0.7	0.28	0.182024	0.020496	0.998204	-0.288	0.7455	0.9555	0	10	1021	1
2026-02-11	16:24:09.350	1.295	-1.015	0.245	0.183488	0.022936	1.001132	-0.2865	0.753	0.954	0	10	1021	1
2026-02-11	16:24:09.370	1.295	0.315	0.21	0.178852	0.023424	1.005524	-0.2835	0.753	0.9495	0	10	1021	1
2026-02-11	16:24:09.390	1.365	-1.085	0.21	0.176168	0.020496	0.98942	-0.2835	0.7545	0.951	0	10	1021	1
2026-02-11	16:24:09.410	1.4	-1.75	0.245	0.175192	0.025132	0.989908	-0.285	0.7575	0.9525	0	10	1021	1
2026-02-11	16:24:09.430	1.26	0.07	0.245	0.18178	0.019764	1.00162	-0.285	0.753	0.9525	0	10	1021	1
2026-02-11	16:24:09.450	1.33	0.07	0.21	0.176168	0.02074	0.997716	-0.2865	0.75	0.954	0	10	1021	1
2026-02-11	16:24:09.470	1.365	-2.03	0.21	0.178852	0.0244	0.990396	-0.288	0.747	0.948	0	10	1021	1
2026-02-11	16:24:09.490	1.19	0.525	0.28	0.178364	0.019764	0.995764	-0.291	0.7455	0.948	0	10	1021	1
2026-02-11	16:24:09.510	1.26	-0.455	0.21	0.180072	0.019764	1.000888	-0.288	0.747	0.9525	0	10	1021	1
2026-02-11	16:24:09.530	1.295	-1.54	0.28	0.182024	0.022204	0.99552	-0.282	0.7455	0.948	0	10	1021	1
2026-02-11	16:24:09.550	1.225	0.35	0.245	0.17812	0.018544	1.003816	-0.2865	0.744	0.9495	0	10	1021	1
2026-02-11	16:24:09.570	1.295	-0.77	0.245	0.176168	0.02318	0.995276	-0.2895	0.7485	0.954	0	10	1021	1
2026-02-11	16:24:09.590	1.295	-1.295	0.28	0.180072	0.022204	0.995764	-0.2865	0.7545	0.9495	0	10	1021	1
2026-02-11	16:24:09.610	1.225	0.42	0.21	0.173484	0.023912	1.002108	-0.288	0.7545	0.948	0	10	1021	1
2026-02-11	16:24:09.630	1.33	-1.015	0.245	0.180072	0.02196	0.99674	-0.2895	0.75	0.9525	0	10	1021	1
2026-02-11	16:24:09.650	1.33	-0.98	0.245	0.180804	0.021472	0.995276	-0.2895	0.7485	0.9525	0	10	1021	1
2026-02-11	16:24:09.670	1.26	0.14	0.245	0.17568	0.023668	0.998936	-0.288	0.7485	0.951	0	10	1021	1
2026-02-11	16:24:09.690	1.295	-1.12	0.28	0.180316	0.022448	0.992836	-0.288	0.75	0.9555	0	10	1021	1
2026-02-11	16:24:09.710	1.26	-0.56	0.315	0.180316	0.020984	1.00162	-0.2865	0.753	0.951	0	10	1021	1
2026-02-11	16:24:09.730	1.295	0.28	0.245	0.180316	0.022692	1.005036	-0.2835	0.7515	0.9495	0	10	1021	1
2026-02-11	16:24:09.750	1.365	-1.68	0.245	0.177144	0.02318	0.988932	-0.285	0.75	0.9585	0	10	1021	1
2026-02-11	16:24:09.770	1.19	-0.525	0.245	0.17812	0.026596	0.999912	-0.2835	0.7515	0.9525	0	10	1021	1
2026-02-11	16:24:09.790	1.19	0.595	0.21	0.174948	0.017324	1.002352	-0.2835	0.753	0.948	0	10	1021	1
2026-02-11	16:24:09.810	1.295	-1.61	0.245	0.181048	0.020252	0.996252	-0.288	0.75	0.9525	0	9	1021	1
2026-02-11	16:24:09.830	1.295	-0.56	0.245	0.180804	0.01586	0.99308	-0.285	0.75	0.9555	0	9	1021	1
2026-02-11	16:24:09.850	1.225	0.245	0.245	0.180072	0.020984	1.006256	-0.2865	0.7515	0.9525	0	9	1021	1
2026-02-11	16:24:09.870	1.33	-1.085	0.21	0.173484	0.023668	0.991128	-0.285	0.7515	0.9525	0	9	1021	1
2026-02-11	16:24:09.890	1.26	-1.47	0.28	0.182024	0.02318	0.994544	-0.2835	0.7515	0.9525	0	9	1021	1
2026-02-11	16:24:09.910	1.155	1.12	0.28	0.180316	0.019276	1.010404	-0.285	0.7515	0.9525	0	9	1021	1
2026-02-11	16:24:09.930	1.365	-0.98	0.245	0.178608	0.021472	0.996496	-0.2835	0.7485	0.957	0	9	1021	1
2026-02-11	16:24:09.950	1.33	-2.17	0.21	0.179584	0.0244	0.986248	-0.2805	0.7485	0.9555	0	9	1021	1
2026-02-11	16:24:09.970	1.12	1.12	0.245	0.179828	0.02074	1.00772	-0.2805	0.7485	0.9555	0	9	1021	1
2026-02-11	16:24:09.990	1.26	-0.455	0.21	0.1769	0.02074	0.999912	-0.2805	0.7485	0.9555	0	9	1021	1
2026-02-11	16:24:10.010	1.365	-2.065	0.245	0.184952	0.020008	0.991372	-0.2805	0.75	0.9495	0	9	1021	1
2026-02-11	16:24:10.030	1.19	0.595	0.28	0.174704	0.022448	1.001864	-0.279	0.759	0.9495	0	9	1021	1
2026-02-11	16:24:10.050	1.295	-0.35	0.21	0.176168	0.022448	1.001376	-0.2865	0.75	0.9555	0	9	1021	1
2026-02-11	16:24:10.070	1.33	-1.61	0.245	0.18056	0.022448	0.995276	-0.2835	0.7485	0.9525	0	9	1021	1
2026-02-11	16:24:10.090	1.225	0.14	0.245	0.178608	0.02318	0.998448	-0.285	0.756	0.954	0	9	1021	1
2026-02-11	16:24:10.110	1.295	-0.49	0.21	0.177388	0.023668	0.999912	-0.2895	0.7455	0.957	0	9	1021	1
2026-02-11	16:24:10.130	1.225	-1.155	0.21	0.18056	0.02196	0.996008	-0.288	0.756	0.951	0	9	1021	1
2026-02-11	16:24:10.150	1.26	0	0.175	0.176168	0.021472	0.990884	-0.2865	0.7545	0.954	0	9	1021	1
2026-02-11	16:24:10.170	1.19	-1.365	0.21	0.18056	0.024156	0.997228	-0.291	0.7515	0.945	0	9	1021	1
2026-02-11	16:24:10.190	1.19	0.49	0.21	0.180072	0.02196	1.005768	-0.2835	0.7545	0.9495	0	9	1021	1
2026-02-11	16:24:10.210	1.365	-0.735	0.28	0.176412	0.022692	0.991372	-0.288	0.756	0.9465	0	9	1020	1
2026-02-11	16:24:10.230	1.295	-2.1	0.28	0.182024	0.02196	0.988688	-0.285	0.747	0.9525	0	9	1020	1
2026-02-11	16:24:10.250	1.19	1.05	0.245	0.180316	0.022692	0.998936	-0.279	0.7545	0.957	0	9	1020	1
2026-02-11	16:24:10.270	1.225	-0.665	0.175	0.176168	0.023912	1.001132	-0.282	0.747	0.9585	0	9	1020	1
2026-02-11	16:24:10.290	1.33	-1.645	0.28	0.181048	0.018544	0.990152	-0.2805	0.744	0.951	0	9	1020	1
2026-02-11	16:24:10.310	1.19	0.105	0.245	0.182512	0.024156	1.000156	-0.2865	0.7545	0.951	0	9	1020	1
2026-02-11	16:24:10.330	1.225	-0.315	0.21	0.18056	0.022936	1.000156	-0.285	0.7575	0.954	0	9	1020	1
2026-02-11	16:24:10.350	1.295	-1.155	0.28	0.177144	0.024156	0.993812	-0.2865	0.747	0.954	0	9	1020	1
2026-02-11	16:24:10.370	1.26	-0.385	0.245	0.179828	0.022448	0.99552	-0.279	0.7545	0.9435	0	9	1020	1
2026-02-11	16:24:10.390	1.225	-0.49	0.28	0.183732	0.018788	1.001132	-0.288	0.7455	0.948	0	9	1020	1
2026-02-11	16:24:10.410	1.225	-0.385	0.28	0.180316	0.021716	1.0004	-0.282	0.744	0.954	0	8	1020	1
2026-02-11	16:24:10.430	1.225	-0.98	0.21	0.180316	0.023912	0.995764	-0.2835	0.753	0.9375	0	8	1020	1
2026-02-11	16:24:10.450	1.155	-0.77	0.28	0.177144	0.022692	0.992836	-0.2835	0.753	0.9375	0	8	1020	1
2026-02-11	16:24:10.470	1.155	0.14	0.245	0.17934	0.023668	0.998936	-0.2865	0.747	0.945	0	8	1020	1
2026-02-11	16:24:10.490	1.155	-0.35	0.315	0.183244	0.023912	1.001864	-0.2895	0.7425	0.9525	0	8	1020	1
2026-02-11	16:24:10.510	1.33	-0.805	0.245	0.183732	0.021472	1.002352	-0.2895	0.744	0.951	0	8	1020	1
2026-02-11	16:24:10.530	1.33	-0.805	0.21	0.18056	0.02318	0.992592	-0.291	0.747	0.954	0	8	1020	1
2026-02-11	16:24:10.550	1.33	-0.455	0.21	0.178364	0.024644	0.996008	-0.2895	0.75	0.9585	0	8	1020	1
2026-02-11	16:24:10.570	1.295	-0.315	0.28	0.176168	0.018788	0.999424	-0.285	0.753	0.9555	0	8	1020	1
2026-02-11	16:24:10.590	1.33	-1.015	0.28	0.184952	0.023912	0.996252	-0.288	0.75	0.954	0	8	1020	1
2026-02-11	16:24:10.610	1.33	-0.035	0.21	0.180316	0.024644	0.999668	-0.2895	0.75	0.9585	0	8	1020	1
2026-02-11	16:24:10.630	1.295	-0.385	0.245	0.17934	0.0244	0.999424	-0.285	0.7515	0.954	0	8	1020	1
2026-02-11	16:24:10.650	1.365	-1.155	0.21	0.176656	0.023424	0.988444	-0.291	0.75	0.9495	0	8	1020	1
2026-02-11	16:24:10.670	1.225	-0.7	0.28	0.182024	0.02196	0.998448	-0.2925	0.7515	0.9495	0	8	1020	1
2026-02-11	16:24:10.690	1.225	0.77	0.245	0.17934	0.021716	1.007476	-0.2865	0.7545	0.9495	0	8	1020	1
2026-02-11	16:24:10.710	1.365	-1.785	0.245	0.179828	0.01952	0.988688	-0.288	0.75	0.9525	0	8	1020	1
2026-02-11	16:24:10.730	1.295	-1.015	0.245	0.177876	0.019764	0.996252	-0.288	0.747	0.9525	0	8	1020	1
2026-02-11	16:24:10.750	1.225	1.155	0.28	0.17446	0.020984	1.002352	-0.2895	0.753	0.951	0	8	1020	1
2026-02-11	16:24:10.770	1.33	-2.1	0.245	0.18178	0.026596	0.995764	-0.2895	0.753	0.951	0	8	1020	1
2026-02-11	16:24:10.790	1.26	-0.315	0.28	0.183	0.021228	1.002108	-0.2835	0.7485	0.951	0	8	1020	1
2026-02-11	16:24:10.810	1.26	0.525	0.21	0.176168	0.018544	0.999912	-0.282	0.7485	0.9495	0	7	1020	1
2026-02-11	16:24:10.830	1.33	-2.1	0.21	0.175924	0.019032	0.989908	-0.2865	0.75	0.948	0	7	1020	1
2026-02-11	16:24:10.850	1.225	0.105	0.28	0.182268	0.0244	0.99918	-0.2865	0.7545	0.945	0	7	1020	1
2026-02-11	16:24:10.870	1.225	0.035	0.28	0.181536	0.022204	0.999912	-0.288	0.756	0.948	0	7	1020	1
2026-02-11	16:24:10.890	1.295	-1.505	0.21	0.17934	0.019764	0.998448	-0.2895	0.75	0.951	0	7	1020	1
2026-02-11	16:24:10.910	1.26	-0.035	0.245	0.177876	0.019032	0.999668	-0.2865	0.7485	0.9495	0	7	1020	1
2026-02-11	16:24:10.930	1.26	-0.7	0.245	0.177388	0.024156	0.994544	-0.2895	0.7485	0.9525	0	7	1020	1
2026-02-11	16:24:10.950	1.26	-0.84	0.245	0.184952	0.022692	0.999424	-0.2895	0.75	0.951	0	7	1020	1
2026-02-11	16:24:10.970	1.26	0.245	0.245	0.177632	0.018056	0.99796	-0.2835	0.75	0.9495	0	7	1020	1
2026-02-11	16:24:10.990	1.365	-1.575	0.21	0.179584	0.02196	0.995764	-0.2865	0.7515	0.951	0	7	1020	1
2026-02-11	16:24:11.010	1.26	-0.14	0.245	0.179828	0.019032	0.998692	-0.2865	0.75	0.9495	0	7	1020	1
2026-02-11	16:24:11.030	1.33	-0.105	0.21	0.176656	0.019032	1.001864	-0.2835	0.7515	0.948	0	7	1020	1
2026-02-11	16:24:11.050	1.26	-1.365	0.245	0.178364	0.022204	0.992592	-0.2835	0.756	0.9495	0	7	1020	1
2026-02-11	16:24:11.070	1.295	-0.28	0.245	0.18056	0.021716	0.997716	-0.2895	0.7515	0.9495	0	7	1020	1
2026-02-11	16:24:11.090	1.26	-0.035	0.245	0.1769	0.020984	1.002596	-0.2895	0.7515	0.9495	0	7	1020	1
2026-02-11	16:24:11.110	1.295	-1.295	0.245	0.178608	0.022448	0.993812	-0.285	0.7515	0.951	0	7	1020	1
2026-02-11	16:24:11.130	1.26	-0.595	0.245	0.182268	0.022936	0.995276	-0.285	0.7485	0.951	0	7	1020	1
2026-02-11	16:24:11.150	1.19	0.175	0.28	0.177632	0.018788	1.003328	-0.2835	0.75	0.9525	0	7	1020	1
2026-02-11	16:24:11.170	1.33	-1.155	0.21	0.179096	0.0244	0.997716	-0.285	0.7545	0.954	0	7	1020	1
2026-02-11	16:24:11.190	1.295	-0.84	0.245	0.176412	0.022204	0.992104	-0.2865	0.753	0.9525	0	7	1020	1
2026-02-11	16:24:11.210	1.26	0.14	0.28	0.1769	0.017568	0.999424	-0.2925	0.747	0.945	0	6	1020	1
2026-02-11	16:24:11.230	1.33	-0.98	0.245	0.181536	0.025376	0.99552	-0.2955	0.75	0.9495	0	6	1020	1
2026-02-11	16:24:11.250	1.225	-0.77	0.245	0.180072	0.020496	0.994056	-0.285	0.75	0.954	0	6	1020	1
2026-02-11	16:24:11.270	1.225	-0.14	0.245	0.17934	0.021228	1.001376	-0.279	0.7485	0.9465	0	6	1020	1
2026-02-11	16:24:11.290	1.295	-0.56	0.245	0.181292	0.020008	0.996008	-0.2835	0.7485	0.942	0	6	1020	1
2026-02-11	16:24:11.310	1.295	-1.085	0.245	0.175924	0.022936	0.993812	-0.2835	0.7485	0.942	0	6	1020	1
2026-02-11	16:24:11.330	1.19	-0.175	0.28	0.178364	0.01952	0.998204	-0.2835	0.7485	0.942	0	6	1020	1
2026-02-11	16:24:11.350	1.26	-0.35	0.245	0.180072	0.020984	0.998448	-0.2835	0.7485	0.942	0	6	1020	1
2026-02-11	16:24:11.370	1.33	-1.05	0.245	0.178852	0.017812	0.996496	-0.2955	0.7485	0.9615	0	6	1020	1
2026-02-11	16:24:11.390	1.26	-0.385	0.28	0.178608	0.024644	0.99796	-0.288	0.753	0.9525	0	6	1020	1
2026-02-11	16:24:11.410	1.26	-0.35	0.28	0.178364	0.02196	0.999424	-0.2895	0.7485	0.9615	0	6	1020	1
2026-02-11	16:24:11.430	1.295	-0.945	0.245	0.179584	0.021228	0.998692	-0.2805	0.7485	0.9585	0	6	1020	1
2026-02-11	16:24:11.450	1.26	-0.49	0.245	0.178364	0.022692	0.996008	-0.2835	0.756	0.954	0	6	1020	1
2026-02-11	16:24:11.470	1.26	-0.525	0.245	0.181536	0.020008	0.998936	-0.285	0.744	0.954	0	6	1020	1
2026-02-11	16:24:11.490	1.225	-0.455	0.245	0.179828	0.020008	0.999912	-0.288	0.753	0.9495	0	6	1020	1
2026-02-11	16:24:11.510	1.33	-0.735	0.175	0.181048	0.023912	0.995032	-0.288	0.753	0.9495	0	6	1020	1
2026-02-11	16:24:11.530	1.26	-0.805	0.245	0.178608	0.022448	0.995032	-0.288	0.753	0.951	0	6	1020	1
2026-02-11	16:24:11.550	1.225	-0.105	0.28	0.182268	0.020252	0.998692	-0.288	0.7545	0.9525	0	6	1020	1
2026-02-11	16:24:11.570	1.225	-0.175	0.245	0.17934	0.022448	0.998204	-0.2835	0.7545	0.9525	0	6	1020	1
2026-02-11	16:24:11.590	1.33	-1.12	0.21	0.178852	0.023668	0.995764	-0.2865	0.7545	0.9525	0	6	1020	1
2026-02-11	16:24:11.610	1.295	-0.63	0.21	0.181048	0.024156	0.994788	-0.2925	0.753	0.954	0	6	1020	1
2026-02-11	16:24:11.630	1.26	-0.035	0.245	0.177876	0.020252	1.00162	-0.2925	0.7515	0.954	0	6	1020	1
2026-02-11	16:24:11.650	1.295	-0.875	0.245	0.180804	0.021472	0.996984	-0.291	0.7515	0.9495	0	6	1020	1
2026-02-11	16:24:11.670	1.295	-0.91	0.245	0.180316	0.022692	1.000156	-0.2895	0.7485	0.948	0	6	1020	1
2026-02-11	16:24:11.690	1.225	-0.07	0.245	0.178852	0.021472	0.996496	-0.2895	0.7515	0.945	0	6	1020	1
2026-02-11	16:24:11.710	1.26	-0.84	0.245	0.17934	0.024644	0.998204	-0.288	0.7545	0.948	0	6	1020	1
2026-02-11	16:24:11.730	1.295	-0.7	0.28	0.179584	0.024644	0.996252	-0.285	0.7515	0.957	0	6	1020	1
2026-02-11	16:24:11.750	1.26	-0.42	0.28	0.181048	0.023668	1.002352	-0.2895	0.75	0.957	0	6	1020	1
2026-02-11	16:24:11.770	1.26	-0.35	0.245	0.181048	0.021716	1.003328	-0.288	0.7515	0.9495	0	6	1020	1
2026-02-11	16:24:11.790	1.33	-0.98	0.21	0.17812	0.02318	0.994056	-0.285	0.7515	0.9525	0	6	1020	1
2026-02-11	16:24:11.810	1.225	-0.595	0.245	0.181292	0.02196	1.0004	-0.2865	0.753	0.9555	0	5	1020	1
2026-02-11	16:24:11.830	1.225	0.035	0.245	0.182756	0.020984	1.003084	-0.285	0.7515	0.9525	0	5	1020	1
2026-02-11	16:24:11.850	1.33	-1.085	0.28	0.179584	0.020496	0.995764	-0.288	0.747	0.951	0	5	1020	1
2026-02-11	16:24:11.870	1.295	-0.805	0.28	0.178852	0.01952	0.993812	-0.2865	0.7485	0.9465	0	5	1020	1
2026-02-11	16:24:11.890	1.225	0.07	0.245	0.177388	0.021472	1.001376	-0.2835	0.75	0.9495	0	5	1020	1
2026-02-11	16:24:11.910	1.295	-0.84	0.245	0.178608	0.02196	0.995276	-0.2865	0.7485	0.954	0	5	1020	1
2026-02-11	16:24:11.930	1.26	-0.91	0.245	0.179828	0.023912	0.998448	-0.2865	0.7485	0.951	0	5	1020	1
2026-02-11	16:24:11.950	1.26	0.14	0.245	0.177876	0.019032	1.002352	-0.2865	0.7515	0.954	0	5	1020	1
2026-02-11	16:24:11.970	1.295	-1.015	0.245	0.180072	0.024644	0.998204	-0.2895	0.75	0.9585	0	5	1020	1
2026-02-11	16:24:11.990	1.26	-0.35	0.28	0.17934	0.023424	0.99918	-0.291	0.75	0.9525	0	5	1020	1
2026-02-11	16:24:12.010	1.26	-0.07	0.245	0.17812	0.021228	0.997472	-0.288	0.7515	0.945	0	5	1020	1
2026-02-11	16:24:12.030	1.26	-0.63	0.42	0.182024	0.022936	0.992592	-0.288	0.747	0.948	0	5	1020	1
2026-02-11	16:24:12.050	1.4	-0.07	1.995	0.158356	0.024888	1.02602	-0.294	0.747	0.9495	0	5	1020	1
2026-02-11	16:24:12.070	2.38	-7.42	5.95	0.178852	-0.001952	0.986248	-0.2985	0.747	0.9555	0	5	1020	1
2026-02-11	16:24:12.090	1.575	-2.38	-9.59	0.210328	0.038308	0.968436	-0.2925	0.7245	0.96	0	5	1020	1
2026-02-11	16:24:12.110	-0.14	15.995	-1.26	0.172264	0.028548	1.013576	-0.288	0.6855	0.9645	0	5	1020	1
2026-02-11	16:24:12.130	1.785	14.14	4.41	0.170068	0.027328	1.003084	-0.2865	0.636	0.9705	0	5	1020	1
2026-02-11	16:24:12.150	-0.07	7.665	1.05	0.47458	1.441796	0.86742	-0.2715	0.585	0.969	0	5	1020	1
2026-02-11	16:24:12.170	-4.83	0.385	-38.115	0.148108	-0.251076	0.993568	-0.222	0.5325	0.9495	0	5	1020	1
2026-02-11	16:24:12.190	-2.24	3.57	-20.79	0.143472	-0.220576	1.047492	-0.15	0.4755	0.909	0	5	1020	1
2026-02-11	16:24:12.210	1.085	3.115	-8.33	0.166164	-0.080276	1.01138	-0.0855	0.4275	0.873	0	7	1020	1
2026-02-11	16:24:12.230	-3.395	1.68	-5.04	0.199836	0.232532	1.113372	-0.0405	0.402	0.849	0	7	1020	1
2026-02-11	16:24:12.250	-4.34	-1.4	-33.04	0.15006	-0.235948	1.00894	-0.009	0.3825	0.828	0	7	1020	1
2026-02-11	16:24:12.270	0.735	-3.08	-13.055	0.1525	-0.001708	1.011136	0.0195	0.363	0.8085	0	7	1020	1
2026-02-11	16:24:12.290	-0.84	-4.515	-8.4	0.145668	-0.01708	1.013576	0.042	0.354	0.7995	0	7	1020	1
2026-02-11	16:24:12.310	0	-3.255	-12.495	0.168848	-0.032696	1.010648	0.0555	0.348	0.789	0	7	1020	1
2026-02-11	16:24:12.330	-1.225	-1.085	-6.93	0.153964	-0.03782	1.0126	0.0645	0.342	0.774	0	7	1020	1
2026-02-11	16:24:12.350	1.05	-1.295	-2.87	0.14518	0.016104	0.997228	0.0765	0.3345	0.7665	0	7	1020	1
2026-02-11	16:24:12.370	1.61	-1.295	-2.345	0.163968	-0.019032	1.000644	0.0855	0.3285	0.7665	0	7	1020	1
2026-02-11	16:24:12.390	0.98	0.525	-2.275	0.162748	-0.015372	1.007232	0.087	0.3285	0.7605	0	7	1020	1
2026-02-11	16:24:12.410	1.365	-0.63	-0.21	0.168116	0.0244	0.996252	0.0885	0.3285	0.756	0	16	1021	1
2026-02-11	16:24:12.430	1.295	-0.84	0.21	0.165432	0.023668	0.99552	0.0855	0.3255	0.759	0	16	1021	1
2026-02-11	16:24:12.450	1.12	-0.525	0.14	0.16836	0.020252	1.003816	0.084	0.327	0.762	0	16	1021	1
2026-02-11	16:24:12.470	1.26	-0.63	0.21	0.17202	0.023912	1.00406	0.0885	0.33	0.7605	0	16	1021	1
2026-02-11	16:24:12.490	1.26	-0.42	0.245	0.166896	0.021472	0.997228	0.0915	0.3285	0.7575	0	16	1021	1
2026-02-11	16:24:12.510	1.26	-0.56	0.21	0.16714	0.02074	0.99796	0.0945	0.327	0.756	0	16	1021	1
2026-02-11	16:24:12.530	1.26	-0.315	0.245	0.167628	0.0244	1.003084	0.096	0.3285	0.7575	0	16	1021	1
2026-02-11	16:24:12.550	1.295	-0.49	0.245	0.16836	0.022204	0.996496	0.09	0.33	0.759	0	16	1021	1
2026-02-11	16:24:12.570	1.26	-0.35	0.315	0.167628	0.023912	0.996496	0.087	0.3315	0.7545	0	16	1021	1
2026-02-11	16:24:12.590	1.26	-0.315	0.28	0.165676	0.023424	1.001864	0.087	0.3315	0.7545	0	16	1021	1
2026-02-11	16:24:12.610	1.295	-0.49	0.28	0.169092	0.02196	0.998692	0.084	0.321	0.765	0	27	1022	1
2026-02-11	16:24:12.630	1.26	-0.525	0.245	0.169092	0.02318	0.99796	0.084	0.321	0.765	0	27	1022	1
2026-02-11	16:24:12.650	1.225	-0.49	0.245	0.163968	0.020252	0.999668	0.084	0.321	0.765	0	27	1022	1
2026-02-11	16:24:12.670	1.26	-0.455	0.245	0.171288	0.020496	0.999668	0.084	0.321	0.765	0	27	1022	1
2026-02-11	16:24:12.690	1.295	-0.525	0.245	0.166896	0.022692	0.996496	0.0885	0.327	0.7665	0	27	1022	1
2026-02-11	16:24:12.710	1.225	-0.28	0.28	0.168604	0.02074	1.003084	0.093	0.333	0.762	0	27	1022	1
2026-02-11	16:24:12.730	1.225	-0.175	0.315	0.16592	0.018544	1.000156	0.093	0.33	0.759	0	27	1022	1
2026-02-11	16:24:12.750	1.295	-0.42	0.245	0.165432	0.01952	0.994788	0.0915	0.3285	0.759	0	27	1022	1
2026-02-11	16:24:12.770	1.26	-0.385	0.28	0.16592	0.01952	0.99918	0.087	0.3285	0.759	0	27	1022	1
2026-02-11	16:24:12.790	1.26	-0.21	0.28	0.167872	0.020252	1.001376	0.09	0.33	0.7605	0	27	1022	1
2026-02-11	16:24:12.810	1.26	-0.385	0.35	0.167384	0.020252	0.999912	0.087	0.333	0.756	0	35	1023	1
2026-02-11	16:24:12.830	1.295	-0.315	0.315	0.166652	0.02196	0.998204	0.0855	0.3345	0.753	0	35	1023	1
2026-02-11	16:24:12.850	1.295	-0.385	0.28	0.166652	0.021716	0.998936	0.0885	0.336	0.7545	0	35	1023	1
2026-02-11	16:24:12.870	1.26	-0.28	0.28	0.169092	0.017812	1.00162	0.0885	0.33	0.759	0	35	1023	1
2026-02-11	16:24:12.890	1.295	-0.455	0.28	0.168116	0.02196	1.002108	0.0855	0.3285	0.765	0	35	1023	1
2026-02-11	16:24:12.910	1.225	-0.455	0.245	0.166164	0.022448	1.002352	0.084	0.33	0.762	0	35	1023	1
2026-02-11	16:24:12.930	1.295	-0.42	0.21	0.162748	0.025132	0.999424	0.0915	0.327	0.7575	0	35	1023	1
2026-02-11	16:24:12.950	1.295	-0.56	0.245	0.16592	0.021228	0.99552	0.0915	0.327	0.759	0	35	1023	1
2026-02-11	16:24:12.970	1.225	-0.525	0.28	0.165676	0.02318	1.00162	0.0855	0.3285	0.7605	0	35	1023	1
2026-02-11	16:24:12.990	1.19	-0.245	0.28	0.166896	0.024888	1.005768	0.09	0.327	0.759	0	35	1023	1
2026-02-11	16:24:13.010	1.365	-0.63	0.245	0.16104	0.017568	0.998692	0.0945	0.327	0.7575	0	40	1023	1
2026-02-11	16:24:13.030	1.26	-0.525	0.245	0.164944	0.019032	0.998204	0.09	0.3315	0.7575	0	40	1023	1
2026-02-11	16:24:13.050	1.225	-0.35	0.21	0.16714	0.023912	1.004792	0.0885	0.33	0.7605	0	40	1023	1
2026-02-11	16:24:13.070	1.33	-0.63	0.245	0.170068	0.020008	0.997472	0.0915	0.3285	0.762	0	40	1023	1
2026-02-11	16:24:13.090	1.26	-0.525	0.245	0.168848	0.01952	1.001376	0.0945	0.3315	0.7545	0	40	1023	1
2026-02-11	16:24:13.110	1.26	-0.455	0.245	0.1647	0.019276	1.000156	0.087	0.333	0.759	0	40	1023	1
2026-02-11	16:24:13.130	1.295	-0.56	0.245	0.168604	0.021228	0.996008	0.0885	0.33	0.7635	0	40	1023	1
2026-02-11	16:24:13.150	1.26	-0.455	0.245	0.164212	0.020984	0.99918	0.09	0.33	0.762	0	40	1023	1
2026-02-11	16:24:13.170	1.26	-0.525	0.28	0.16592	0.021716	1.001376	0.0915	0.3345	0.759	0	40	1023	1
2026-02-11	16:24:13.190	1.26	-0.455	0.28	0.167628	0.022204	1.002352	0.09	0.336	0.7575	0	40	1023	1
2026-02-11	16:24:13.210	1.295	-0.56	0.21	0.164456	0.02074	1.000156	0.084	0.3345	0.762	0	42	1023	1
2026-02-11	16:24:13.230	1.225	-0.595	0.21	0.162504	0.021716	0.997472	0.09	0.3345	0.762	0	42	1023	1
2026-02-11	16:24:13.250	1.225	-0.525	0.245	0.166896	0.020008	0.999668	0.096	0.333	0.7605	0	42	1023	1
2026-02-11	16:24:13.270	1.225	-0.42	0.28	0.168848	0.021228	1.004304	0.0915	0.3285	0.7575	0	42	1023	1
2026-02-11	16:24:13.290	1.33	-0.56	0.245	0.167384	0.021716	1.000888	0.0855	0.3285	0.7635	0	42	1023	1
2026-02-11	16:24:13.310	1.295	-0.49	0.245	0.165432	0.020252	0.998204	0.09	0.33	0.7635	0	42	1023	1
2026-02-11	16:24:13.330	1.295	-0.525	0.245	0.16714	0.025376	1.000156	0.09	0.3315	0.7605	0	42	1023	1
2026-02-11	16:24:13.350	1.295	-0.525	0.245	0.166652	0.021472	1.000644	0.0885	0.33	0.7605	0	42	1023	1
2026-02-11	16:24:13.370	1.26	-0.35	0.245	0.16958	0.022448	1.004304	0.0945	0.3255	0.762	0	42	1023	1
2026-02-11	16:24:13.390	1.26	-0.49	0.28	0.165188	0.021472	0.999912	0.0975	0.327	0.759	0	42	1023	1
2026-02-11	16:24:13.410	1.295	-0.455	0.28	0.165676	0.02196	0.998204	0.0945	0.3285	0.759	0	40	1023	1
2026-02-11	16:24:13.430	1.26	-0.49	0.28	0.166408	0.021228	0.997716	0.0915	0.3255	0.7605	0	40	1023	1
2026-02-11	16:24:13.450	1.26	-0.385	0.315	0.162992	0.021228	1.001376	0.0855	0.327	0.7575	0	40	1023	1
2026-02-11	16:24:13.470	1.295	-0.385	0.315	0.164944	0.01952	0.997472	0.087	0.327	0.7605	0	40	1023	1
2026-02-11	16:24:13.490	1.295	-0.525	0.28	0.166164	0.020984	0.999424	0.09	0.324	0.762	0	40	1023	1
2026-02-11	16:24:13.510	1.225	-0.315	0.28	0.168604	0.021228	1.001864	0.093	0.33	0.759	0	40	1023	1
2026-02-11	16:24:13.530	1.295	-0.525	0.28	0.164944	0.01952	0.999912	0.093	0.3285	0.7575	0	40	1023	1
2026-02-11	16:24:13.550	1.33	-0.595	0.245	0.165188	0.020252	0.999668	0.0915	0.3285	0.7575	0	40	1023	1
2026-02-11	16:24:13.570	1.225	-0.525	0.28	0.168848	0.020008	1.000156	0.0915	0.333	0.7575	0	40	1023	1
2026-02-11	16:24:13.590	1.26	-0.56	0.245	0.164212	0.02196	0.99796	0.09	0.33	0.7545	0	40	1023	1
2026-02-11	16:24:13.610	1.295	-0.7	0.245	0.164456	0.025864	0.996984	0.0915	0.3315	0.753	0	37	1023	1
2026-02-11	16:24:13.630	1.295	-0.56	0.28	0.164212	0.017812	1.002108	0.093	0.3345	0.753	0	37	1023	1
2026-02-11	16:24:13.650	1.26	-0.63	0.245	0.165676	0.023424	1.00528	0.093	0.3345	0.753	0	37	1023	1
2026-02-11	16:24:13.670	1.26	-0.35	0.245	0.16714	0.018056	1.001376	0.093	0.3345	0.753	0	37	1023	1
2026-02-11	16:24:13.690	1.365	-0.735	0.245	0.166652	0.020008	0.990884	0.093	0.3345	0.753	0	37	1023	1
2026-02-11	16:24:13.710	1.26	-0.525	0.245	0.166408	0.020252	0.998448	0.0855	0.3285	0.7575	0	37	1023	1
2026-02-11	16:24:13.730	1.26	-0.42	0.28	0.166652	0.01708	1.002596	0.0915	0.3255	0.7605	0	37	1023	1
2026-02-11	16:24:13.750	1.26	-0.595	0.28	0.16836	0.020984	1.003572	0.0855	0.333	0.7605	0	37	1023	1
2026-02-11	16:24:13.770	1.26	-0.56	0.245	0.16714	0.02196	0.998692	0.093	0.336	0.759	0	37	1023	1
2026-02-11	16:24:13.790	1.225	-0.56	0.245	0.162992	0.019032	1.001864	0.0885	0.333	0.759	0	37	1023	1
2026-02-11	16:24:13.810	1.295	-0.525	0.21	0.164456	0.024156	1.002108	0.0915	0.336	0.759	0	33	1023	1
2026-02-11	16:24:13.830	1.295	-0.595	0.245	0.1647	0.022448	0.999912	0.0825	0.3285	0.762	0	33	1023	1
2026-02-11	16:24:13.850	1.295	-0.63	0.245	0.166164	0.022936	1.0004	0.0915	0.336	0.7545	0	33	1023	1
2026-02-11	16:24:13.870	1.225	-0.525	0.28	0.166164	0.019276	1.00162	0.0855	0.324	0.7545	0	33	1023	1
2026-02-11	16:24:13.890	1.26	-0.595	0.245	0.162992	0.021716	1.000156	0.0945	0.3345	0.7515	0	33	1023	1
2026-02-11	16:24:13.910	1.26	-0.49	0.245	0.16592	0.018788	1.003816	0.0915	0.3375	0.7575	0	33	1023	1
2026-02-11	16:24:13.930	1.295	-0.56	0.245	0.167872	0.020252	1.002352	0.0915	0.3375	0.7575	0	33	1023	1
2026-02-11	16:24:13.950	1.26	-0.49	0.245	0.166164	0.021472	0.997472	0.0915	0.3375	0.7575	0	33	1023	1
2026-02-11	16:24:13.970	1.26	-0.56	0.245	0.162992	0.021472	0.99674	0.0915	0.3375	0.7575	0	33	1023	1
2026-02-11	16:24:13.990	1.26	-0.49	0.245	0.166164	0.01952	0.996496	0.0915	0.336	0.7575	0	33	1023	1
2026-02-11	16:24:14.010	1.26	-0.595	0.245	0.165188	0.022936	1.000888	0.093	0.3345	0.759	0	28	1023	1
2026-02-11	16:24:14.030	1.225	-0.49	0.245	0.167872	0.020008	1.000888	0.0915	0.333	0.762	0	28	1023	1
2026-02-11	16:24:14.050	1.295	-0.525	0.245	0.166164	0.021228	0.999912	0.09	0.3315	0.759	0	28	1023	1
2026-02-11	16:24:14.070	1.33	-0.595	0.21	0.16836	0.022204	0.99918	0.093	0.3315	0.7545	0	28	1023	1
2026-02-11	16:24:14.090	1.295	-0.595	0.245	0.166164	0.02318	0.997228	0.093	0.33	0.753	0	28	1023	1
2026-02-11	16:24:14.110	1.19	-0.42	0.245	0.164944	0.01952	1.006012	0.0945	0.333	0.7515	0	28	1023	1
2026-02-11	16:24:14.130	1.33	-0.49	0.28	0.165676	0.020496	1.0004	0.0915	0.3345	0.756	0	28	1023	1
2026-02-11	16:24:14.150	1.33	-0.735	0.245	0.169824	0.021716	0.99918	0.0885	0.33	0.7605	0	28	1023	1
2026-02-11	16:24:14.170	1.225	-0.28	0.28	0.16714	0.023668	1.000888	0.087	0.3255	0.762	0	28	1023	1
2026-02-11	16:24:14.190	1.295	-0.735	0.245	0.1647	0.022204	0.997228	0.0885	0.327	0.765	0	28	1023	1
2026-02-11	16:24:14.210	1.225	-0.42	0.245	0.166896	0.022204	1.000888	0.09	0.3315	0.759	0	24	1023	1
2026-02-11	16:24:14.230	1.26	-0.63	0.245	0.166896	0.021716	1.00284	0.093	0.3345	0.7545	0	24	1023	1
2026-02-11	16:24:14.250	1.225	-0.28	0.245	0.16714	0.017324	1.003572	0.0945	0.3315	0.756	0	24	1023	1
2026-02-11	16:24:14.270	1.4	-0.805	0.245	0.162748	0.024644	0.989908	0.093	0.327	0.759	0	24	1023	1
2026-02-11	16:24:14.290	1.225	-0.455	0.245	0.16836	0.020496	0.999912	0.09	0.3285	0.7605	0	24	1023	1
2026-02-11	16:24:14.310	1.26	-0.42	0.28	0.169336	0.01952	1.003084	0.09	0.327	0.7635	0	24	1023	1
2026-02-11	16:24:14.330	1.365	-0.63	0.245	0.168848	0.019764	1.00284	0.0915	0.327	0.7635	0	24	1023	1
2026-02-11	16:24:14.350	1.295	-0.56	0.245	0.162748	0.022448	0.996252	0.0885	0.327	0.762	0	24	1023	1
2026-02-11	16:24:14.370	1.295	-0.595	0.245	0.164944	0.019276	0.998204	0.087	0.33	0.7605	0	24	1023	1
2026-02-11	16:24:14.390	1.295	-0.56	0.245	0.167384	0.01952	0.99918	0.0885	0.33	0.759	0	24	1023	1
2026-02-11	16:24:14.410	1.26	-0.595	0.21	0.166408	0.02318	1.001864	0.087	0.3285	0.7575	0	20	1023	1
2026-02-11	16:24:14.430	1.225	-0.49	0.245	0.162504	0.016836	1.000644	0.087	0.33	0.7575	0	20	1023	1
2026-02-11	16:24:14.450	1.33	-0.735	0.21	0.162992	0.021228	1.001132	0.087	0.3315	0.7575	0	20	1023	1
2026-02-11	16:24:14.470	1.26	-0.455	0.245	0.16226	0.01952	1.001376	0.0855	0.3315	0.753	0	20	1023	1
2026-02-11	16:24:14.490	1.26	-0.665	0.245	0.16592	0.016104	1.000644	0.09	0.3315	0.756	0	20	1023	1
2026-02-11	16:24:14.510	1.295	-0.42	0.245	0.164944	0.019032	1.002352	0.0945	0.3285	0.7575	0	20	1023	1
2026-02-11	16:24:14.530	1.365	-0.7	0.21	0.1647	0.01952	0.998204	0.0975	0.33	0.7575	0	20	1023	1
2026-02-11	16:24:14.550	1.26	-0.455	0.245	0.1647	0.019276	1.001132	0.0975	0.333	0.762	0	20	1023	1
2026-02-11	16:24:14.570	1.295	-0.735	0.245	0.164944	0.023424	0.994544	0.0915	0.3345	0.7635	0	20	1023	1
2026-02-11	16:24:14.590	1.19	-0.245	0.28	0.167384	0.021228	1.009428	0.0885	0.336	0.7575	0	20	1023	1
2026-02-11	16:24:14.610	1.4	-0.7	0.21	0.163968	0.017568	0.990396	0.0945	0.3345	0.7515	0	17	1023	1
2026-02-11	16:24:14.630	1.225	-0.665	0.21	0.166408	0.024156	1.003816	0.093	0.3315	0.7485	0	17	1023	1
2026-02-11	16:24:14.650	1.225	-0.07	0.28	0.16226	0.020252	0.998204	0.09	0.3345	0.7545	0	17	1023	1
2026-02-11	16:24:14.670	1.365	-1.05	0.28	0.164456	0.02196	0.996008	0.0915	0.33	0.7635	0	17	1023	1
2026-02-11	16:24:14.690	1.225	-0.21	0.245	0.164212	0.02196	0.99918	0.0945	0.3285	0.768	0	17	1023	1
2026-02-11	16:24:14.710	1.295	-0.805	0.245	0.167628	0.022692	1.006256	0.0945	0.3285	0.768	0	17	1023	1
2026-02-11	16:24:14.730	1.19	-0.14	0.245	0.168604	0.020008	1.008208	0.0945	0.3285	0.768	0	17	1023	1
2026-02-11	16:24:14.750	1.365	-0.98	0.245	0.162748	0.022692	0.992348	0.0945	0.333	0.753	0	17	1023	1
2026-02-11	16:24:14.770	1.295	-0.63	0.245	0.163236	0.024644	1.000644	0.0945	0.333	0.753	0	17	1023	1
2026-02-11	16:24:14.790	1.26	-0.42	0.28	0.162016	0.021228	0.998204	0.0915	0.339	0.765	0	17	1023	1
2026-02-11	16:24:14.810	1.26	-0.7	0.28	0.166164	0.022936	1.003084	0.087	0.3315	0.765	0	15	1023	1
2026-02-11	16:24:14.830	1.19	-0.385	0.245	0.169092	0.021472	1.002108	0.0975	0.336	0.756	0	15	1023	1
2026-02-11	16:24:14.850	1.295	-0.735	0.245	0.166896	0.021716	1.002352	0.0915	0.333	0.771	0	15	1023	1
2026-02-11	16:24:14.870	1.26	-0.42	0.245	0.1647	0.022448	1.00162	0.0915	0.333	0.7605	0	15	1023	1
2026-02-11	16:24:14.890	1.295	-0.7	0.28	0.162504	0.021472	0.99796	0.093	0.3285	0.75	0	15	1023	1
2026-02-11	16:24:14.910	1.26	-0.49	0.245	0.165188	0.020984	1.003084	0.093	0.333	0.7665	0	15	1023	1
2026-02-11	16:24:14.930	1.295	-0.56	0.28	0.16836	0.018544	1.000888	0.0915	0.3255	0.7635	0	15	1023	1
2026-02-11	16:24:14.950	1.295	-0.665	0.28	0.166408	0.023424	0.998204	0.084	0.3315	0.7605	0	15	1023	1
2026-02-11	16:24:14.970	1.26	-0.455	0.28	0.166408	0.020252	1.001376	0.0945	0.33	0.7635	0	15	1023	1
2026-02-11	16:24:14.990	1.295	-0.77	0.28	0.168848	0.018056	0.99796	0.0885	0.33	0.762	0	15	1023	1
2026-02-11	16:24:15.010	1.19	-0.315	0.28	0.167628	0.019032	1.004792	0.096	0.3315	0.75	0	13	1023	1
2026-02-11	16:24:15.030	1.295	-0.77	0.28	0.163724	0.019276	0.996496	0.102	0.336	0.7515	0	13	1023	1
2026-02-11	16:24:15.050	1.26	-0.455	0.245	0.1647	0.020984	0.997472	0.093	0.327	0.7575	0	13	1023	1
2026-02-11	16:24:15.070	1.33	-0.735	0.175	0.167628	0.023912	0.99796	0.0945	0.3315	0.759	0	13	1023	1
2026-02-11	16:24:15.090	1.225	-0.49	0.245	0.167628	0.021472	1.002596	0.084	0.336	0.7665	0	13	1023	1
2026-02-11	16:24:15.110	1.295	-0.7	0.245	0.16836	0.020008	0.99796	0.093	0.333	0.753	0	13	1023	1
2026-02-11	16:24:15.130	1.26	-0.525	0.28	0.169824	0.019276	1.0065	0.093	0.3285	0.7545	0	13	1023	1
2026-02-11	16:24:15.150	1.26	-0.595	0.245	0.163724	0.02196	1.000644	0.0915	0.33	0.7605	0	13	1023	1
2026-02-11	16:24:15.170	1.33	-0.63	0.245	0.1647	0.018788	0.999668	0.096	0.3225	0.753	0	13	1023	1
2026-02-11	16:24:15.190	1.295	-0.56	0.245	0.165432	0.020008	0.999424	0.0975	0.33	0.759	0	13	1023	1
2026-02-11	16:24:15.210	1.225	-0.595	0.245	0.165188	0.023912	1.001376	0.087	0.3285	0.765	0	11	1023	1
2026-02-11	16:24:15.230	1.295	-0.56	0.245	0.166652	0.020984	1.002352	0.087	0.3285	0.765	0	11	1023	1
2026-02-11	16:24:15.250	1.295	-0.665	0.245	0.162504	0.018544	1.000888	0.087	0.3285	0.765	0	11	1023	1
2026-02-11	16:24:15.270	1.225	-0.455	0.245	0.166164	0.022936	1.005524	0.0915	0.3285	0.7635	0	11	1023	1
2026-02-11	16:24:15.290	1.26	-0.63	0.245	0.16592	0.021228	0.99918	0.0945	0.3285	0.759	0	11	1023	1
2026-02-11	16:24:15.310	1.26	-0.525	0.245	0.165432	0.022204	0.998448	0.0885	0.33	0.759	0	11	1023	1
2026-02-11	16:24:15.330	1.26	-0.525	0.245	0.162016	0.02318	1.0004	0.087	0.33	0.765	0	11	1023	1
2026-02-11	16:24:15.350	1.225	-0.49	0.245	0.166652	0.020252	1.003328	0.093	0.33	0.7635	0	11	1023	1
2026-02-11	16:24:15.370	1.33	-0.595	0.28	0.168604	0.017324	0.999424	0.093	0.333	0.762	0	11	1023	1
2026-02-11	16:24:15.390	1.26	-0.56	0.245	0.163236	0.020252	0.999912	0.093	0.336	0.7665	0	11	1023	1
2026-02-11	16:24:15.410	1.26	-0.455	0.245	0.161772	0.01952	1.003084	0.0915	0.3345	0.765	0	10	1023	1
2026-02-11	16:24:15.430	1.295	-0.63	0.245	0.164212	0.024156	0.999424	0.0915	0.333	0.759	0	10	1023	1
2026-02-11	16:24:15.450	1.33	-0.525	0.245	0.166652	0.022936	0.998448	0.09	0.333	0.756	0	10	1023	1
2026-02-11	16:24:15.470	1.295	-0.56	0.245	0.162992	0.020984	1.000644	0.0885	0.33	0.753	0	10	1023	1
2026-02-11	16:24:15.490	1.26	-0.56	0.245	0.165188	0.022936	0.99918	0.0915	0.3255	0.753	0	10	1023	1
2026-02-11	16:24:15.510	1.295	-0.63	0.245	0.164456	0.022936	0.999668	0.0885	0.3255	0.7575	0	10	1023	1
2026-02-11	16:24:15.530	1.26	-0.49	0.28	0.167384	0.02196	1.001864	0.084	0.33	0.762	0	10	1023	1
2026-02-11	16:24:15.550	1.295	-0.595	0.21	0.167628	0.021716	0.999912	0.09	0.333	0.759	0	10	1023	1
2026-02-11	16:24:15.570	1.26	-0.595	0.28	0.16226	0.01952	0.998448	0.09	0.33	0.7545	0	10	1023	1
2026-02-11	16:24:15.590	1.225	-0.56	0.245	0.166164	0.02318	0.996984	0.0885	0.3285	0.759	0	10	1023	1
2026-02-11	16:24:15.610	1.26	-0.595	0.28	0.1647	0.019032	1.001132	0.0915	0.33	0.7635	0	9	1023	1
2026-02-11	16:24:15.630	1.225	-0.525	0.245	0.162992	0.020008	1.000156	0.09	0.3255	0.759	0	9	1023	1
2026-02-11	16:24:15.650	1.295	-0.665	0.28	0.169092	0.020984	0.998692	0.0885	0.3255	0.7575	0	9	1023	1
2026-02-11	16:24:15.670	1.225	-0.49	0.21	0.163236	0.01708	0.999668	0.087	0.327	0.759	0	9	1023	1
2026-02-11	16:24:15.690	1.295	-0.63	0.28	0.165432	0.021716	0.997716	0.0885	0.333	0.759	0	9	1023	1
2026-02-11	16:24:15.710	1.26	-0.42	0.245	0.166652	0.021228	1.001864	0.0885	0.333	0.762	0	9	1023	1
2026-02-11	16:24:15.730	1.365	-0.735	0.245	0.166408	0.02196	0.994788	0.0885	0.33	0.759	0	9	1023	1
2026-02-11	16:24:15.750	1.225	-0.42	0.245	0.162992	0.022692	1.00162	0.0885	0.327	0.7575	0	9	1023	1
2026-02-11	16:24:15.770	1.295	-0.735	0.245	0.166408	0.021472	0.998448	0.0855	0.324	0.7605	0	9	1023	1
2026-02-11	16:24:15.790	1.225	-0.525	0.245	0.166408	0.0244	0.999668	0.09	0.3375	0.756	0	9	1023	1
2026-02-11	16:24:15.810	1.295	-0.665	0.245	0.165432	0.022936	0.99918	0.09	0.3345	0.7575	0	8	1023	1
2026-02-11	16:24:15.830	1.26	-0.595	0.245	0.166652	0.023668	1.000888	0.09	0.3345	0.7575	0	8	1023	1
2026-02-11	16:24:15.850	1.26	-0.56	0.245	0.167384	0.017324	1.000644	0.0945	0.333	0.7545	0	8	1023	1
2026-02-11	16:24:15.870	1.26	-0.56	0.245	0.163968	0.015616	0.999912	0.087	0.3285	0.756	0	8	1023	1
2026-02-11	16:24:15.890	1.295	-0.63	0.21	0.167384	0.020496	0.997228	0.093	0.336	0.759	0	8	1023	1
2026-02-11	16:24:15.910	1.225	-0.525	0.245	0.165432	0.02074	1.001132	0.0885	0.33	0.7635	0	8	1023	1
2026-02-11	16:24:15.930	1.26	-0.63	0.245	0.1647	0.022204	0.999668	0.09	0.3345	0.759	0	8	1023	1
2026-02-11	16:24:15.950	1.295	-0.595	0.245	0.166652	0.020984	1.001132	0.09	0.3315	0.7575	0	8	1023	1
2026-02-11	16:24:15.970	1.26	-0.595	0.245	0.1647	0.024156	1.000888	0.093	0.3375	0.756	0	8	1023	1
2026-02-11	16:24:15.990	1.295	-0.63	0.21	0.166164	0.022204	1.0004	0.09	0.33	0.7545	0	8	1023	1
2026-02-11	16:24:16.010	1.26	-0.595	0.245	0.166652	0.022204	0.998692	0.0855	0.327	0.765	0	7	1023	1
2026-02-11	16:24:16.030	1.26	-0.525	0.245	0.1647	0.022692	1.001132	0.0885	0.333	0.768	0	7	1023	1
2026-02-11	16:24:16.050	1.26	-0.56	0.245	0.162992	0.020496	1.0004	0.09	0.324	0.768	0	7	1023	1
2026-02-11	16:24:16.070	1.26	-0.56	0.28	0.163968	0.020496	1.000888	0.0885	0.333	0.75	0	7	1023	1
2026-02-11	16:24:16.090	1.26	-0.56	0.21	0.168116	0.018788	0.997716	0.093	0.3315	0.7635	0	7	1023	1
2026-02-11	16:24:16.110	1.295	-0.56	0.245	0.165432	0.024888	1.00162	0.0825	0.327	0.762	0	7	1023	1
2026-02-11	16:24:16.130	1.295	-0.49	0.245	0.166652	0.022936	1.001864	0.0855	0.324	0.7575	0	7	1023	1
2026-02-11	16:24:16.150	1.26	-0.595	0.245	0.166896	0.021228	0.99796	0.0885	0.33	0.7515	0	7	1023	1
2026-02-11	16:24:16.170	1.295	-0.525	0.245	0.163968	0.020496	0.999912	0.093	0.327	0.7605	0	7	1023	1
2026-02-11	16:24:16.190	1.26	-0.595	0.245	0.163968	0.020496	1.0004	0.0945	0.327	0.7605	0	7	1023	1
2026-02-11	16:24:16.210	1.295	-0.56	0.245	0.1647	0.02074	0.999424	0.0945	0.33	0.747	0	7	1023	1
2026-02-11	16:24:16.230	1.26	-0.525	0.245	0.165432	0.02196	1.002596	0.0945	0.336	0.759	0	7	1023	1
2026-02-11	16:24:16.250	1.26	-0.56	0.245	0.16592	0.021716	1.002352	0.0945	0.336	0.7635	0	7	1023	1
2026-02-11	16:24:16.270	1.295	-0.56	0.245	0.166896	0.01952	1.001376	0.0855	0.3315	0.7605	0	7	1023	1
2026-02-11	16:24:16.290	1.295	-0.56	0.245	0.16348	0.025132	1.000156	0.0885	0.336	0.753	0	7	1023	1
2026-02-11	16:24:16.310	1.26	-0.525	0.245	0.16348	0.02318	1.002352	0.0915	0.333	0.7575	0	7	1023	1
2026-02-11	16:24:16.330	1.295	-0.56	0.28	0.167872	0.022204	0.998692	0.096	0.324	0.7575	0	7	1023	1
2026-02-11	16:24:16.350	1.295	-0.525	0.21	0.166896	0.021716	0.998936	0.0975	0.3315	0.7605	0	7	1023	1
2026-02-11	16:24:16.370	1.295	-0.56	0.245	0.163724	0.022692	1.000644	0.09	0.333	0.753	0	7	1023	1
2026-02-11	16:24:16.390	1.26	-0.56	0.245	0.163968	0.019276	0.998448	0.0825	0.3315	0.7605	0	7	1023	1
2026-02-11	16:24:16.410	1.26	-0.56	0.21	0.162748	0.020984	0.998936	0.093	0.327	0.756	0	6	1023	1
2026-02-11	16:24:16.430	1.26	-0.595	0.21	0.164212	0.01952	1.00162	0.0915	0.342	0.7575	0	6	1023	1
2026-02-11	16:24:16.450	1.295	-0.56	0.21	0.166164	0.02196	0.997716	0.099	0.324	0.7635	0	6	1023	1
2026-02-11	16:24:16.470	1.26	-0.595	0.245	0.163724	0.021472	0.999424	0.084	0.3285	0.7575	0	6	1023	1
2026-02-11	16:24:16.490	1.295	-0.56	0.245	0.168604	0.02196	1.00162	0.0885	0.333	0.75	0	6	1023	1
2026-02-11	16:24:16.510	1.26	-0.56	0.245	0.166164	0.020984	0.999668	0.0885	0.3375	0.7515	0	6	1023	1
2026-02-11	16:24:16.530	1.26	-0.595	0.245	0.16226	0.02318	1.00162	0.0885	0.3375	0.7515	0	6	1023	1
2026-02-11	16:24:16.550	1.26	-0.56	0.245	0.169092	0.022448	1.000888	0.0885	0.3375	0.7515	0	6	1023	1
2026-02-11	16:24:16.570	1.225	-0.595	0.21	0.164212	0.020008	0.998448	0.09	0.336	0.7575	0	6	1023	1
2026-02-11	16:24:16.590	1.26	-0.525	0.21	0.166408	0.023668	1.001864	0.0915	0.3315	0.7635	0	6	1023	1
2026-02-11	16:24:16.610	1.225	-0.56	0.28	0.166164	0.017324	1.002108	0.093	0.33	0.7605	0	6	1023	1
2026-02-11	16:24:16.630	1.295	-0.63	0.245	0.166164	0.019032	0.998936	0.09	0.3315	0.7575	0	6	1023	1
2026-02-11	16:24:16.650	1.26	-0.525	0.245	0.166896	0.024888	1.00162	0.0915	0.3345	0.756	0	6	1023	1
2026-02-11	16:24:16.670	1.295	-0.595	0.245	0.163724	0.025132	1.001376	0.09	0.336	0.7575	0	6	1023	1
2026-02-11	16:24:16.690	1.295	-0.595	0.245	0.162992	0.020252	1.003572	0.093	0.3345	0.762	0	6	1023	1
2026-02-11	16:24:16.710	1.295	-0.56	0.245	0.167384	0.019276	1.001864	0.096	0.336	0.7635	0	6	1023	1
2026-02-11	16:24:16.730	1.295	-0.63	0.245	0.164212	0.0183	0.997228	0.09	0.3345	0.7605	0	6	1023	1
2026-02-11	16:24:16.750	1.26	-0.56	0.245	0.164212	0.02196	1.0004	0.09	0.333	0.7605	0	6	1023	1
2026-02-11	16:24:16.770	1.26	-0.56	0.245	0.166652	0.022936	1.001376	0.093	0.3315	0.768	0	6	1023	1
2026-02-11	16:24:16.790	1.295	-0.525	0.245	0.162992	0.020984	0.999912	0.0915	0.3315	0.765	0	6	1023	1
2026-02-11	16:24:16.810	1.295	-0.56	0.28	0.165432	0.020496	0.998692	0.0915	0.33	0.7605	0	5	1023	1
2026-02-11	16:24:16.830	1.26	-0.56	0.245	0.165432	0.019764	1.002596	0.0915	0.3315	0.756	0	5	1023	1
2026-02-11	16:24:16.850	1.295	-0.63	0.245	0.16592	0.020984	0.999668	0.0885	0.336	0.75	0	5	1023	1
2026-02-11	16:24:16.870	1.26	-0.525	0.245	0.163968	0.024156	1.0004	0.093	0.327	0.759	0	5	1023	1
2026-02-11	16:24:16.890	1.295	-0.56	0.21	0.164212	0.024156	1.001376	0.093	0.327	0.759	0	5	1023	1
2026-02-11	16:24:16.910	1.295	-0.56	0.21	0.164456	0.02074	0.999424	0.0945	0.33	0.756	0	5	1023	1
2026-02-11	16:24:16.930	1.26	-0.595	0.28	0.167628	0.018544	0.998204	0.093	0.33	0.7605	0	5	1023	1
2026-02-11	16:24:16.950	1.26	-0.595	0.28	0.162992	0.020496	1.00162	0.1005	0.3255	0.762	0	5	1023	1
2026-02-11	16:24:16.970	1.26	-0.56	0.245	0.16226	0.021228	1.001132	0.09	0.324	0.7545	0	5	1023	1
2026-02-11	16:24:16.990	1.225	-0.595	0.245	0.16714	0.02196	0.999424	0.084	0.324	0.7695	0	5	1023	1
2026-02-11	16:24:17.010	1.295	-0.56	0.245	0.1647	0.021472	1.001376	0.0825	0.336	0.756	0	5	1023	1
2026-02-11	16:24:17.030	1.26	-0.595	0.28	0.164944	0.022448	0.999912	0.096	0.336	0.7575	0	5	1023	1
2026-02-11	16:24:17.050	1.26	-0.525	0.245	0.166408	0.020252	1.000156	0.0885	0.3315	0.753	0	5	1023	1
2026-02-11	16:24:17.070	1.26	-0.595	0.21	0.16714	0.01952	0.999668	0.084	0.3285	0.753	0	5	1023	1
2026-02-11	16:24:17.090	1.26	-0.56	0.245	0.166164	0.019764	1.000888	0.09	0.3285	0.7635	0	5	1023	1
2026-02-11	16:24:17.110	1.26	-0.595	0.21	0.166164	0.019764	0.999912	0.093	0.3285	0.759	0	5	1023	1
2026-02-11	16:24:17.130	1.26	-0.56	0.245	0.163968	0.021228	0.999668	0.096	0.3255	0.7515	0	5	1023	1
2026-02-11	16:24:17.150	1.26	-0.595	0.245	0.166896	0.020252	1.002108	0.0915	0.333	0.7545	0	5	1023	1
2026-02-11	16:24:17.170	1.26	-0.56	0.245	0.167628	0.021472	1.001132	0.0915	0.3345	0.7605	0	5	1023	1
2026-02-11	16:24:17.190	1.295	-0.63	0.21	0.16592	0.022448	0.999668	0.09	0.333	0.765	0	5	1023	1
2026-02-11	16:24:17.210	1.26	-0.56	0.28	0.166164	0.02074	0.999424	0.096	0.333	0.756	0	4	1023	1
2026-02-11	16:24:17.230	1.33	-0.595	0.245	0.167628	0.021228	1.000888	0.093	0.327	0.7635	0	4	1023	1
2026-02-11	16:24:17.250	1.26	-0.56	0.28	0.168116	0.022936	1.000156	0.093	0.324	0.765	0	4	1023	1
2026-02-11	16:24:17.270	1.26	-0.595	0.245	0.165432	0.019764	0.999912	0.0945	0.327	0.762	0	4	1023	1
2026-02-11	16:24:17.290	1.295	-0.56	0.245	0.163236	0.021228	0.998204	0.09	0.3285	0.762	0	4	1023	1
2026-02-11	16:24:17.310	1.295	-0.595	0.245	0.164944	0.022204	0.999668	0.0915	0.333	0.762	0	4	1023	1
2026-02-11	16:24:17.330	1.26	-0.525	0.245	0.1647	0.022936	1.000156	0.093	0.33	0.762	0	4	1023	1
2026-02-11	16:24:17.350	1.26	-0.595	0.245	0.166652	0.022448	0.99918	0.0975	0.3375	0.759	0	4	1023	1
2026-02-11	16:24:17.370	1.26	-0.56	0.245	0.164212	0.0183	1.001864	0.096	0.3285	0.7665	0	4	1023	1
2026-02-11	16:24:17.390	1.26	-0.595	0.245	0.171044	0.022448	0.999424	0.1005	0.3345	0.7545	0	4	1023	1
2026-02-11	16:24:17.410	1.295	-0.525	0.21	0.16226	0.02074	1.00284	0.09	0.324	0.7695	0	4	1023	1
2026-02-11	16:24:17.430	1.26	-0.56	0.21	0.164944	0.018544	1.002596	0.093	0.333	0.7605	0	4	1023	1
2026-02-11	16:24:17.450	1.26	-0.595	0.21	0.16104	0.021716	1.000156	0.0915	0.333	0.762	0	4	1023	1
2026-02-11	16:24:17.470	1.295	-0.56	0.245	0.161528	0.02196	1.00162	0.0915	0.3315	0.756	0	4	1023	1
2026-02-11	16:24:17.490	1.295	-0.525	0.245	0.166164	0.019276	1.001132	0.087	0.3225	0.7605	0	4	1023	1
2026-02-11	16:24:17.510	1.295	-0.595	0.245	0.169336	0.02074	0.997228	0.09	0.3285	0.7545	0	4	1023	1
2026-02-11	16:24:17.530	1.295	-0.525	0.245	0.168604	0.020252	0.998936	0.0915	0.3255	0.7605	0	4	1023	1
2026-02-11	16:24:17.550	1.26	-0.595	0.245	0.16226	0.018056	0.998692	0.084	0.333	0.765	0	4	1023	1
2026-02-11	16:24:17.570	1.295	-0.56	0.245	0.1647	0.022692	0.999912	0.087	0.3285	0.7635	0	4	1023	1
2026-02-11	16:24:17.590	1.295	-0.56	0.245	0.164212	0.020984	1.0004	0.09	0.327	0.7695	0	4	1023	1
2026-02-11	16:24:17.610	1.225	-0.56	0.28	0.164456	0.01952	0.999668	0.093	0.3225	0.7485	0	4	1023	1
2026-02-11	16:24:17.630	1.26	-0.595	0.245	0.164212	0.019032	1.000156	0.0885	0.3375	0.756	0	4	1023	1
2026-02-11	16:24:17.650	1.26	-0.595	0.28	0.16714	0.02318	1.000156	0.096	0.333	0.759	0	4	1023	1
2026-02-11	16:24:17.670	1.26	-0.525	0.28	0.166164	0.023668	1.001132	0.0915	0.333	0.7635	0	4	1023	1
2026-02-11	16:24:17.690	1.33	-0.665	0.245	0.16592	0.02196	0.998936	0.0915	0.324	0.759	0	4	1023	1
2026-02-11	16:24:17.710	1.26	-0.49	0.21	0.16348	0.023912	1.002352	0.0915	0.324	0.753	0	4	1023	1
2026-02-11	16:24:17.730	1.295	-0.595	0.245	0.167384	0.018788	1.001864	0.09	0.33	0.7605	0	4	1023	1
2026-02-11	16:24:17.750	1.26	-0.56	0.245	0.164456	0.020008	0.999912	0.084	0.333	0.7545	0	4	1023	1
2026-02-11	16:24:17.770	1.295	-0.56	0.245	0.166652	0.021228	1.000156	0.0945	0.333	0.7605	0	4	1023	1
2026-02-11	16:24:17.790	1.295	-0.49	0.245	0.167872	0.021228	1.00162	0.0885	0.327	0.759	0	4	1023	1
2026-02-11	16:24:17.810	1.295	-0.595	0.245	0.166652	0.022692	0.998936	0.09	0.3285	0.7665	0	3	1023	1
2026-02-11	16:24:17.830	1.26	-0.56	0.21	0.166896	0.018788	0.999912	0.09	0.3285	0.7665	0	3	1023	1
2026-02-11	16:24:17.850	1.26	-0.56	0.21	0.169092	0.019032	0.999668	0.09	0.3285	0.7665	0	3	1023	1
2026-02-11	16:24:17.870	1.33	-0.63	0.28	0.165676	0.020496	0.998936	0.084	0.327	0.765	0	3	1023	1
2026-02-11	16:24:17.890	1.225	-0.525	0.21	0.167628	0.020496	1.003328	0.0885	0.3285	0.7635	0	3	1023	1
2026-02-11	16:24:17.910	1.26	-0.63	0.245	0.165432	0.021716	0.998448	0.0975	0.3315	0.765	0	3	1023	1
2026-02-11	16:24:17.930	1.26	-0.56	0.28	0.163236	0.019764	1.000156	0.0975	0.3315	0.765	0	3	1023	1
2026-02-11	16:24:17.950	1.295	-0.595	0.245	0.165432	0.020984	1.003084	0.093	0.3315	0.756	0	3	1023	1
2026-02-11	16:24:17.970	1.295	-0.63	0.245	0.16958	0.019764	0.998692	0.093	0.3315	0.756	0	3	1023	1
2026-02-11	16:24:17.990	1.225	-0.525	0.245	0.1647	0.02318	0.999424	0.0885	0.327	0.7545	0	3	1023	1
2026-02-11	16:24:18.010	1.295	-0.665	0.245	0.165188	0.01952	0.997472	0.0885	0.327	0.7545	0	3	1023	1
2026-02-11	16:24:18.030	1.295	-0.595	0.28	0.161772	0.019032	1.00162	0.0885	0.327	0.7545	0	3	1023	1
2026-02-11	16:24:18.050	1.26	-0.595	0.245	0.163968	0.020008	0.999668	0.087	0.3225	0.762	0	3	1023	1
2026-02-11	16:24:18.070	1.26	-0.56	0.28	0.166164	0.021716	1.001864	0.093	0.33	0.7635	0	3	1023	1
2026-02-11	16:24:18.090	1.295	-0.63	0.245	0.165188	0.022692	0.998204	0.09	0.3345	0.7545	0	3	1023	1
2026-02-11	16:24:18.110	1.26	-0.525	0.245	0.165676	0.020252	1.004304	0.09	0.3345	0.759	0	3	1023	1
2026-02-11	16:24:18.130	1.295	-0.63	0.245	0.164212	0.020252	0.998936	0.0945	0.333	0.7575	0	3	1023	1
2026-02-11	16:24:18.150	1.26	-0.525	0.21	0.1647	0.021472	1.000644	0.087	0.324	0.759	0	3	1023	1
2026-02-11	16:24:18.170	1.26	-0.525	0.21	0.16592	0.020984	1.000644	0.09	0.3315	0.759	0	3	1023	1
2026-02-11	16:24:18.190	1.26	-0.56	0.245	0.170312	0.022936	1.000156	0.093	0.3255	0.7605	0	3	1023	1
2026-02-11	16:24:18.210	1.295	-0.525	0.21	0.166896	0.01708	1.00406	0.0885	0.318	0.7605	0	3	1023	1
2026-02-11	16:24:18.230	1.295	-0.56	0.245	0.166652	0.022692	1.001376	0.0915	0.3345	0.765	0	3	1023	1
2026-02-11	16:24:18.250	1.26	-0.49	0.245	0.16348	0.022204	1.000888	0.09	0.3345	0.762	0	3	1023	1
2026-02-11	16:24:18.270	1.295	-0.525	0.245	0.164456	0.022692	0.998936	0.09	0.3315	0.753	0	3	1023	1
2026-02-11	16:24:18.290	1.295	-0.56	0.245	0.166408	0.019032	1.000156	0.0915	0.327	0.762	0	3	1023	1
2026-02-11	16:24:18.310	1.295	-0.525	0.21	0.166408	0.020252	0.999424	0.0915	0.336	0.762	0	3	1023	1
2026-02-11	16:24:18.330	1.295	-0.595	0.21	0.164944	0.022204	0.997228	0.0855	0.321	0.765	0	3	1023	1
2026-02-11	16:24:18.350	1.26	-0.525	0.245	0.167872	0.020496	1.000156	0.0855	0.333	0.7545	0	3	1023	1
2026-02-11	16:24:18.370	1.295	-0.56	0.245	0.166408	0.020984	1.000888	0.0915	0.3315	0.759	0	3	1023	1
2026-02-11	16:24:18.390	1.295	-0.56	0.245	0.1647	0.017324	0.998936	0.0945	0.3255	0.7665	0	3	1023	1
2026-02-11	16:24:18.410	1.33	-0.56	0.245	0.164944	0.021228	1.002108	0.09	0.3225	0.759	0	3	1023	1
2026-02-11	16:24:18.430	1.295	-0.525	0.245	0.165432	0.027816	0.998936	0.078	0.33	0.762	0	3	1023	1
2026-02-11	16:24:18.450	1.33	-0.595	0.28	0.163236	0.022692	1.001132	0.096	0.3315	0.759	0	3	1023	1
2026-02-11	16:24:18.470	1.225	-0.455	0.28	0.170068	0.025376	1.003328	0.09	0.3405	0.7605	0	3	1023	1
2026-02-11	16:24:18.490	1.295	-0.595	0.21	0.16592	0.024644	1.000644	0.0915	0.3255	0.7635	0	3	1023	1
2026-02-11	16:24:18.510	1.33	-0.56	0.245	0.16226	0.023424	0.997716	0.096	0.3195	0.765	0	3	1023	1
2026-02-11	16:24:18.530	1.295	-0.56	0.245	0.162504	0.021472	0.998204	0.084	0.327	0.7605	0	3	1023	1
2026-02-11	16:24:18.550	1.225	-0.49	0.245	0.166652	0.0244	1.00162	0.093	0.3345	0.762	0	3	1023	1
2026-02-11	16:24:18.570	1.295	-0.595	0.245	0.161772	0.019276	0.99674	0.0915	0.333	0.7575	0	3	1023	1
2026-02-11	16:24:18.590	1.26	-0.56	0.28	0.165188	0.018788	0.997716	0.0855	0.33	0.7665	0	3	1023	1
2026-02-11	16:24:18.610	1.26	-0.595	0.21	0.164944	0.021716	0.998692	0.0885	0.324	0.7575	0	3	1023	1
2026-02-11	16:24:18.630	1.26	-0.525	0.245	0.168604	0.023668	1.00162	0.0945	0.3315	0.759	0	3	1023	1
2026-02-11	16:24:18.650	1.26	-0.665	0.245	0.162016	0.019032	0.999912	0.084	0.3315	0.7605	0	3	1023	1
2026-02-11	16:24:18.670	1.26	-0.525	0.245	0.16348	0.020984	1.000644	0.093	0.3315	0.7605	0	3	1023	1
2026-02-11	16:24:18.690	1.295	-0.665	0.28	0.164456	0.022204	0.998692	0.09	0.33	0.768	0	3	1023	1
2026-02-11	16:24:18.710	1.26	-0.49	0.245	0.165188	0.020252	1.000644	0.0885	0.3315	0.7635	0	3	1023	1
2026-02-11	16:24:18.730	1.295	-0.63	0.245	0.165188	0.021716	0.998692	0.093	0.3255	0.7545	0	3	1023	1
2026-02-11	16:24:18.750	1.225	-0.525	0.28	0.16592	0.018788	1.000644	0.0885	0.3345	0.756	0	3	1023	1
2026-02-11	16:24:18.770	1.26	-0.455	0.245	0.169092	0.016836	1.005036	0.0795	0.3345	0.768	0	3	1023	1
2026-02-11	16:24:18.790	1.33	-0.7	0.21	0.16592	0.0183	0.997472	0.0885	0.3225	0.765	0	3	1023	1
2026-02-11	16:24:18.810	1.225	-0.49	0.21	0.161772	0.021472	1.001132	0.09	0.3315	0.753	0	3	1023	1
2026-02-11	16:24:18.830	1.295	-0.595	0.28	0.164456	0.021472	1.002352	0.0945	0.333	0.768	0	3	1023	1
2026-02-11	16:24:18.850	1.295	-0.665	0.28	0.165676	0.018788	0.996984	0.0855	0.3285	0.7695	0	3	1023	1
2026-02-11	16:24:18.870	1.26	-0.595	0.245	0.165188	0.019764	1.000156	0.0855	0.327	0.756	0	3	1023	1
2026-02-11	16:24:18.890	1.225	-0.49	0.245	0.166164	0.02074	1.002596	0.093	0.3285	0.7545	0	3	1023	1
2026-02-11	16:24:18.910	1.295	-0.7	0.21	0.164212	0.016348	0.996984	0.09	0.3345	0.7515	0	3	1023	1
2026-02-11	16:24:18.930	1.225	-0.525	0.245	0.165188	0.02318	1.002108	0.0945	0.33	0.756	0	3	1023	1
2026-02-11	16:24:18.950	1.26	-0.49	0.245	0.165432	0.020252	0.999424	0.0915	0.339	0.762	0	3	1023	1
2026-02-11	16:24:18.970	1.295	-0.665	0.245	0.16592	0.020252	1.000888	0.0885	0.3375	0.756	0	3	1023	1
2026-02-11	16:24:18.990	1.295	-0.42	0.245	0.163968	0.018788	1.001376	0.0885	0.3375	0.756	0	3	1023	1
2026-02-11	16:24:19.010	1.33	-0.735	0.245	0.163724	0.022204	0.995032	0.087	0.33	0.756	0	3	1023	1
2026-02-11	16:24:19.030	1.26	-0.63	0.245	0.162748	0.022448	0.998448	0.087	0.3225	0.7575	0	3	1023	1
2026-02-11	16:24:19.050	1.155	-0.21	0.245	0.165188	0.020496	1.010648	0.087	0.3285	0.756	0	3	1023	1
2026-02-11	16:24:19.070	1.47	-1.015	0.245	0.168604	0.018544	0.99064	0.0885	0.333	0.753	0	3	1023	1
2026-02-11	16:24:19.090	1.19	-0.28	0.28	0.16592	0.021228	1.003328	0.09	0.3345	0.753	0	3	1023	1
2026-02-11	16:24:19.110	1.295	-0.525	0.245	0.163724	0.023912	1.002108	0.093	0.3375	0.7575	0	3	1023	1
2026-02-11	16:24:19.130	1.26	-0.595	0.245	0.164212	0.024156	1.000644	0.0975	0.336	0.762	0	3	1023	1
2026-02-11	16:24:19.150	1.26	-0.525	0.245	0.166652	0.022204	0.998936	0.0975	0.336	0.762	0	3	1023	1
2026-02-11	16:24:19.170	1.295	-0.595	0.245	0.168116	0.022204	1.005036	0.0975	0.336	0.762	0	3	1023	1
2026-02-11	16:24:19.190	1.295	-0.21	0.21	0.164212	0.023668	1.00284	0.0855	0.3315	0.7665	0	3	1023	1
2026-02-11	16:24:19.210	1.435	-1.12	0.245	0.163968	0.021472	0.98942	0.096	0.33	0.762	0	3	1023	1
2026-02-11	16:24:19.230	1.155	-0.07	0.245	0.167628	0.023424	1.004792	0.0915	0.33	0.759	0	3	1023	1
2026-02-11	16:24:19.250	1.365	-0.665	0.28	0.168848	0.021472	1.004304	0.0975	0.3375	0.765	0	3	1023	1
2026-02-11	16:24:19.270	1.295	-0.455	0.245	0.163236	0.02318	0.99674	0.0945	0.3375	0.7605	0	3	1023	1
2026-02-11	16:24:19.290	1.295	-0.84	0.245	0.1647	0.02318	0.99552	0.0825	0.333	0.759	0	3	1023	1
2026-02-11	16:24:19.310	1.155	0	0.245	0.163236	0.020252	1.008452	0.09	0.3285	0.7575	0	3	1023	1
2026-02-11	16:24:19.330	1.365	-0.98	0.245	0.166164	0.021716	0.992592	0.0945	0.342	0.7515	0	3	1023	1
2026-02-11	16:24:19.350	1.19	-0.21	0.21	0.164456	0.021228	1.006744	0.0885	0.33	0.7635	0	3	1023	1
2026-02-11	16:24:19.370	1.33	-0.525	0.245	0.159576	0.017324	0.997716	0.0975	0.33	0.7575	0	3	1023	1
2026-02-11	16:24:19.390	1.26	-0.7	0.28	0.161528	0.020252	1.001376	0.0825	0.327	0.7515	0	3	1023	1
2026-02-11	16:24:19.410	1.295	-0.385	0.245	0.165188	0.021472	1.000644	0.0855	0.33	0.759	0	3	1023	1
2026-02-11	16:24:19.430	1.33	-0.735	0.28	0.163968	0.018788	1.0004	0.0885	0.3225	0.7545	0	3	1023	1
2026-02-11	16:24:19.450	1.225	-0.385	0.245	0.167628	0.022692	1.007232	0.0885	0.3285	0.7665	0	3	1023	1
2026-02-11	16:24:19.470	1.33	-0.665	0.28	0.165676	0.016836	0.996984	0.09	0.3345	0.7485	0	3	1023	1
2026-02-11	16:24:19.490	1.295	-0.56	0.21	0.166408	0.019764	0.99796	0.0915	0.339	0.759	0	3	1023	1
2026-02-11	16:24:19.510	1.19	-0.42	0.28	0.163968	0.022936	1.008208	0.0825	0.3285	0.7575	0	3	1023	1
2026-02-11	16:24:19.530	1.295	-0.63	0.245	0.165676	0.021472	0.99796	0.0825	0.333	0.762	0	3	1023	1
2026-02-11	16:24:19.550	1.295	-0.63	0.245	0.164212	0.025132	1.000156	0.0885	0.3315	0.7575	0	3	1023	1
2026-02-11	16:24:19.570	1.26	-0.385	0.245	0.164212	0.021472	1.002596	0.084	0.333	0.753	0	3	1023	1
2026-02-11	16:24:19.590	1.33	-0.735	0.245	0.164456	0.023912	1.00162	0.096	0.327	0.7485	0	3	1023	1
2026-02-11	16:24:19.610	1.26	-0.455	0.21	0.16104	0.02196	0.997228	0.093	0.3345	0.7575	0	3	1023	1
2026-02-11	16:24:19.630	1.225	-0.63	0.28	0.163968	0.022692	1.001864	0.0855	0.3285	0.7575	0	3	1023	1
2026-02-11	16:24:19.650	1.295	-0.455	0.245	0.163968	0.01952	0.99918	0.09	0.3255	0.7485	0	3	1023	1
2026-02-11	16:24:19.670	1.33	-0.805	0.28	0.165432	0.020984	0.996008	0.087	0.3345	0.7575	0	3	1023	1
2026-02-11	16:24:19.690	1.26	-0.28	0.245	0.164212	0.01952	0.999424	0.09	0.333	0.7515	0	3	1023	1
2026-02-11	16:24:19.710	1.365	-0.945	0.28	0.165188	0.023668	0.999424	0.09	0.33	0.7635	0	3	1023	1
2026-02-11	16:24:19.730	1.19	-0.315	0.245	0.167384	0.022448	1.00162	0.081	0.339	0.7635	0	3	1023	1
2026-02-11	16:24:19.750	1.295	-0.805	0.245	0.166896	0.023668	0.99796	0.09	0.33	0.762	0	3	1023	1
2026-02-11	16:24:19.770	1.225	-0.42	0.21	0.166408	0.0244	1.003084	0.09	0.3285	0.7575	0	3	1023	1
2026-02-11	16:24:19.790	1.33	-0.805	0.28	0.165432	0.02318	0.99674	0.0915	0.333	0.762	0	3	1023	1
2026-02-11	16:24:19.810	1.225	-0.455	0.28	0.163968	0.020496	1.001376	0.084	0.3345	0.7695	0	3	1023	1
2026-02-11	16:24:19.830	1.295	-0.665	0.245	0.1647	0.023668	1.001132	0.087	0.327	0.759	0	3	1023	1
2026-02-11	16:24:19.850	1.26	-0.56	0.21	0.163236	0.02318	1.000888	0.0945	0.339	0.7605	0	3	1023	1
2026-02-11	16:24:19.870	1.295	-0.63	0.245	0.16836	0.020984	0.998692	0.09	0.3285	0.756	0	3	1023	1
2026-02-11	16:24:19.890	1.26	-0.455	0.245	0.166408	0.02318	1.002108	0.0975	0.3255	0.7485	0	3	1023	1
2026-02-11	16:24:19.910	1.295	-0.77	0.245	0.165432	0.02196	0.994056	0.093	0.336	0.756	0	3	1023	1
2026-02-11	16:24:19.930	1.19	-0.455	0.245	0.165432	0.023424	1.00162	0.0855	0.321	0.762	0	3	1023	1
2026-02-11	16:24:19.950	1.295	-0.63	0.245	0.163724	0.024156	0.999912	0.0945	0.3405	0.765	0	3	1023	1
2026-02-11	16:24:19.970	1.295	-0.525	0.245	0.166164	0.023668	1.001132	0.093	0.3285	0.753	0	3	1023	1
2026-02-11	16:24:19.990	1.33	-0.63	0.245	0.166896	0.020252	0.99918	0.087	0.3315	0.759	0	3	1023	1
2026-02-11	16:24:20.010	1.26	-0.49	0.21	0.166408	0.02074	1.003084	0.084	0.3285	0.762	0	3	1023	1
2026-02-11	16:24:20.030	1.33	-0.665	0.28	0.1647	0.019764	1.000644	0.09	0.3285	0.7545	0	3	1023	1
2026-02-11	16:24:20.050	1.26	-0.49	0.245	0.16348	0.020496	1.00284	0.084	0.3375	0.753	0	3	1023	1
2026-02-11	16:24:20.070	1.295	-0.63	0.245	0.16348	0.020008	0.997472	0.0855	0.3345	0.7485	0	3	1023	1
2026-02-11	16:24:20.090	1.295	-0.56	0.245	0.163724	0.02318	1.001132	0.087	0.333	0.744	0	3	1023	1
2026-02-11	16:24:20.110	1.26	-0.525	0.245	0.16714	0.021472	1.000644	0.09	0.3315	0.7515	0	3	1023	1
2026-02-11	16:24:20.130	1.33	-0.665	0.245	0.162992	0.020984	0.999668	0.0915	0.3285	0.762	0	3	1023	1
2026-02-11	16:24:20.150	1.26	-0.525	0.21	0.167384	0.0183	1.001132	0.087	0.327	0.7605	0	3	1023	1
2026-02-11	16:24:20.170	1.26	-0.56	0.245	0.166652	0.021716	1.002352	0.09	0.3315	0.7515	0	3	1023	1
2026-02-11	16:24:20.190	1.225	-0.595	0.245	0.16592	0.020008	0.996984	0.0945	0.3285	0.753	0	3	1023	1
2026-02-11	16:24:20.210	1.26	-0.49	0.21	0.1647	0.025132	1.003084	0.096	0.3255	0.7575	0	3	1023	1
2026-02-11	16:24:20.230	1.26	-0.525	0.28	0.164456	0.022448	1.001376	0.093	0.3255	0.753	0	3	1023	1
2026-02-11	16:24:20.250	1.26	-0.63	0.245	0.162992	0.020984	0.99796	0.0915	0.327	0.7515	0	3	1023	1
2026-02-11	16:24:20.270	1.225	-0.56	0.21	0.167384	0.019764	1.0004	0.093	0.3255	0.753	0	3	1023	1
2026-02-11	16:24:20.290	1.26	-0.56	0.245	0.164212	0.016348	1.002352	0.0975	0.3285	0.7545	0	3	1023	1
2026-02-11	16:24:20.310	1.26	-0.595	0.245	0.166652	0.023668	0.99918	0.0945	0.3315	0.7575	0	3	1023	1
2026-02-11	16:24:20.330	1.26	-0.56	0.245	0.167384	0.022692	1.000644	0.0855	0.3315	0.7605	0	3	1023	1
2026-02-11	16:24:20.350	1.26	-0.56	0.28	0.165676	0.020252	1.0004	0.0855	0.333	0.765	0	3	1023	1
2026-02-11	16:24:20.370	1.26	-0.56	0.245	0.163236	0.02074	0.998692	0.0855	0.3315	0.768	0	3	1023	1
2026-02-11	16:24:20.390	1.225	-0.525	0.245	0.164212	0.022692	1.000888	0.0855	0.3315	0.768	0	3	1023	1
2026-02-11	16:24:20.410	1.295	-0.63	0.245	0.164944	0.02196	1.000888	0.0855	0.3315	0.768	0	3	1023	1
2026-02-11	16:24:20.430	1.26	-0.525	0.245	0.165432	0.021472	1.001132	0.081	0.3375	0.7605	0	3	1023	1
2026-02-11	16:24:20.450	1.295	-0.595	0.245	0.166652	0.021228	0.999668	0.093	0.3255	0.75	0	3	1023	1
2026-02-11	16:24:20.470	1.295	-0.595	0.245	0.165188	0.02562	1.001132	0.0975	0.336	0.75	0	3	1023	1
2026-02-11	16:24:20.490	1.26	-0.525	0.245	0.164456	0.01952	1.00162	0.09	0.3285	0.759	0	3	1023	1
2026-02-11	16:24:20.510	1.295	-0.63	0.21	0.163968	0.024888	0.997716	0.084	0.336	0.753	0	3	1023	1
2026-02-11	16:24:20.530	1.295	-0.63	0.28	0.161528	0.020252	0.998448	0.093	0.3315	0.756	0	3	1023	1
2026-02-11	16:24:20.550	1.26	-0.525	0.245	0.166896	0.020496	1.000888	0.099	0.3315	0.7605	0	3	1023	1
2026-02-11	16:24:20.570	1.295	-0.63	0.21	0.167628	0.021472	1.002352	0.0885	0.327	0.7545	0	3	1023	1
2026-02-11	16:24:20.590	1.295	-0.595	0.245	0.165676	0.019276	0.995032	0.09	0.333	0.765	0	3	1023	1
2026-02-11	16:24:20.610	1.225	-0.525	0.21	0.164456	0.022936	1.000644	0.0855	0.3285	0.762	0	3	1023	1
2026-02-11	16:24:20.630	1.26	-0.595	0.245	0.164456	0.020496	0.998204	0.0885	0.336	0.753	0	3	1023	1
2026-02-11	16:24:20.650	1.26	-0.63	0.28	0.168848	0.020984	0.99796	0.093	0.33	0.7545	0	3	1023	1
2026-02-11	16:24:20.670	1.26	-0.56	0.28	0.166408	0.022448	1.0004	0.0945	0.336	0.759	0	3	1023	1
2026-02-11	16:24:20.690	1.33	-0.56	0.245	0.163724	0.020984	1.00162	0.0885	0.3255	0.7635	0	3	1023	1
2026-02-11	16:24:20.710	1.295	-0.63	0.245	0.16592	0.024156	0.998936	0.0915	0.3345	0.7665	0	3	1023	1
2026-02-11	16:24:20.730	1.295	-0.56	0.245	0.163724	0.022204	1.002352	0.0975	0.336	0.756	0	3	1023	1
2026-02-11	16:24:20.750	1.225	-0.525	0.245	0.160796	0.019764	0.999668	0.0945	0.3315	0.756	0	3	1023	1
2026-02-11	16:24:20.770	1.26	-0.595	0.245	0.166408	0.021472	1.002596	0.087	0.3315	0.7635	0	3	1023	1
2026-02-11	16:24:20.790	1.225	-0.56	0.245	0.164456	0.023668	1.00162	0.0945	0.3345	0.756	0	3	1023	1
2026-02-11	16:24:20.810	1.295	-0.595	0.28	0.16104	0.020008	1.000644	0.093	0.3315	0.759	0	3	1023	1
2026-02-11	16:24:20.830	1.295	-0.595	0.28	0.162748	0.019764	0.996984	0.0885	0.3255	0.7665	0	3	1023	1
2026-02-11	16:24:20.850	1.26	-0.49	0.245	0.162748	0.021716	1.0004	0.093	0.327	0.747	0	3	1023	1
2026-02-11	16:24:20.870	1.33	-0.63	0.28	0.16226	0.019764	1.000644	0.0975	0.3255	0.7605	0	3	1023	1
2026-02-11	16:24:20.890	1.295	-0.595	0.245	0.166652	0.020984	1.000888	0.0915	0.333	0.7665	0	3	1023	1
2026-02-11	16:24:20.910	1.295	-0.525	0.21	0.166164	0.022692	1.000156	0.0885	0.33	0.7635	0	3	1023	1
2026-02-11	16:24:20.930	1.295	-0.595	0.28	0.166652	0.019032	1.002108	0.0885	0.33	0.7545	0	3	1023	1
2026-02-11	16:24:20.950	1.26	-0.56	0.245	0.165676	0.0244	0.999912	0.0885	0.33	0.759	0	3	1023	1
2026-02-11	16:24:20.970	1.295	-0.595	0.245	0.1647	0.022692	1.000644	0.084	0.33	0.7635	0	3	1023	1
2026-02-11	16:24:20.990	1.26	-0.525	0.28	0.162992	0.020252	1.003816	0.087	0.324	0.768	0	3	1023	1
2026-02-11	16:24:21.010	1.26	-0.56	0.28	0.16226	0.019032	0.999424	0.0945	0.3225	0.7665	0	3	1023	1
2026-02-11	16:24:21.030	1.295	-0.56	0.245	0.167384	0.021228	1.000644	0.0915	0.327	0.7605	0	3	1023	1
2026-02-11	16:24:21.050	1.26	-0.56	0.245	0.164212	0.023668	1.0004	0.087	0.3285	0.765	0	3	1023	1
2026-02-11	16:24:21.070	1.26	-0.525	0.245	0.165188	0.020008	1.0004	0.087	0.3315	0.75	0	3	1023	1
2026-02-11	16:24:21.090	1.26	-0.56	0.245	0.16348	0.020496	0.999912	0.0885	0.336	0.759	0	3	1023	1
2026-02-11	16:24:21.110	1.26	-0.56	0.21	0.164456	0.020496	0.998692	0.096	0.327	0.753	0	3	1023	1
2026-02-11	16:24:21.130	1.26	-0.525	0.21	0.163968	0.022448	0.999912	0.096	0.327	0.753	0	3	1023	1
2026-02-11	16:24:21.150	1.26	-0.595	0.245	0.164944	0.022448	1.000644	0.09	0.3285	0.756	0	3	1023	1
2026-02-11	16:24:21.170	1.26	-0.56	0.245	0.165432	0.022448	1.00162	0.0855	0.3315	0.7605	0	3	1023	1
2026-02-11	16:24:21.190	1.295	-0.56	0.28	0.164212	0.020008	0.996984	0.0855	0.3315	0.759	0	3	1023	1
2026-02-11	16:24:21.210	1.26	-0.56	0.245	0.165432	0.020984	1.000888	0.0855	0.3315	0.7575	0	3	1023	1
2026-02-11	16:24:21.230	1.26	-0.595	0.245	0.165188	0.02196	0.99918	0.0855	0.3285	0.7545	0	3	1023	1
2026-02-11	16:24:21.250	1.26	-0.525	0.245	0.166408	0.020496	1.00162	0.09	0.33	0.7545	0	3	1023	1
2026-02-11	16:24:21.270	1.295	-0.63	0.245	0.165188	0.021228	0.996984	0.0915	0.333	0.7575	0	3	1023	1
2026-02-11	16:24:21.290	1.225	-0.455	0.28	0.165432	0.020252	1.002596	0.09	0.3285	0.7605	0	3	1023	1
2026-02-11	16:24:21.310	1.26	-0.63	0.245	0.166652	0.021472	1.0004	0.093	0.3285	0.7605	0	3	1023	1
2026-02-11	16:24:21.330	1.295	-0.525	0.21	0.166164	0.021472	1.002596	0.096	0.333	0.7605	0	3	1023	1
2026-02-11	16:24:21.350	1.26	-0.56	0.245	0.165676	0.022204	1.000644	0.09	0.33	0.762	0	3	1023	1
2026-02-11	16:24:21.370	1.295	-0.595	0.245	0.162016	0.022936	0.99552	0.084	0.3255	0.762	0	3	1023	1
2026-02-11	16:24:21.390	1.295	-0.63	0.245	0.167384	0.02318	0.997716	0.0855	0.3315	0.7575	0	3	1023	1
2026-02-11	16:24:21.410	1.26	-0.42	0.245	0.166408	0.018788	1.006988	0.0855	0.3345	0.7575	0	3	1023	1
2026-02-11	16:24:21.430	1.33	-0.7	0.245	0.165432	0.020984	0.997472	0.084	0.33	0.7575	0	3	1023	1
2026-02-11	16:24:21.450	1.26	-0.525	0.28	0.162016	0.023668	1.000644	0.087	0.3255	0.756	0	3	1023	1
2026-02-11	16:24:21.470	1.26	-0.595	0.245	0.163724	0.02074	1.0004	0.087	0.324	0.7575	0	3	1023	1
2026-02-11	16:24:21.490	1.295	-0.525	0.28	0.167384	0.022692	1.001864	0.0885	0.324	0.759	0	3	1023	1
2026-02-11	16:24:21.510	1.295	-0.595	0.21	0.16592	0.022448	0.998692	0.093	0.3285	0.759	0	3	1023	1
2026-02-11	16:24:21.530	1.225	-0.56	0.245	0.163968	0.020496	0.999912	0.093	0.33	0.7605	0	3	1023	1
2026-02-11	16:24:21.550	1.26	-0.49	0.245	0.164944	0.019764	1.00162	0.09	0.33	0.762	0	3	1023	1
2026-02-11	16:24:21.570	1.295	-0.63	0.21	0.167872	0.01708	0.999912	0.0885	0.3315	0.759	0	3	1023	1
2026-02-11	16:24:21.590	1.26	-0.525	0.21	0.164456	0.020984	1.000156	0.093	0.3315	0.7575	0	3	1023	1
2026-02-11	16:24:21.610	1.26	-0.56	0.245	0.16592	0.021228	0.999424	0.0975	0.33	0.7575	0	3	1023	1
2026-02-11	16:24:21.630	1.26	-0.56	0.245	0.16348	0.0244	0.99918	0.0975	0.33	0.7575	0	3	1023	1
2026-02-11	16:24:21.650	1.225	-0.56	0.28	0.165432	0.021228	1.001376	0.0975	0.33	0.7575	0	3	1023	1
2026-02-11	16:24:21.670	1.225	-0.455	0.28	0.166652	0.023424	1.002108	0.0855	0.333	0.762	0	3	1023	1
2026-02-11	16:24:21.690	1.295	-0.595	0.245	0.165188	0.02318	0.998692	0.087	0.327	0.7605	0	3	1023	1
2026-02-11	16:24:21.710	1.33	-0.525	0.28	0.166408	0.019764	1.001376	0.081	0.333	0.762	0	3	1023	1
2026-02-11	16:24:21.730	1.26	-0.63	0.245	0.16592	0.021472	1.000156	0.0855	0.3315	0.765	0	3	1023	1
2026-02-11	16:24:21.750	1.295	-0.49	0.245	0.165188	0.020008	1.000888	0.096	0.33	0.7575	0	3	1023	1
2026-02-11	16:24:21.770	1.295	-0.63	0.245	0.167628	0.019276	1.000644	0.0885	0.327	0.7575	0	3	1023	1
2026-02-11	16:24:21.790	1.295	-0.595	0.28	0.163968	0.02196	0.998448	0.0945	0.327	0.759	0	3	1023	1
2026-02-11	16:24:21.810	1.225	-0.525	0.245	0.167872	0.021228	1.003328	0.093	0.3285	0.759	0	3	1023	1
2026-02-11	16:24:21.830	1.26	-0.595	0.245	0.166408	0.020984	0.998448	0.0945	0.3345	0.7545	0	3	1023	1
2026-02-11	16:24:21.850	1.26	-0.595	0.245	0.164212	0.023424	1.00284	0.087	0.3255	0.759	0	3	1023	1
2026-02-11	16:24:21.870	1.26	-0.56	0.245	0.160308	0.021716	0.999668	0.09	0.3315	0.759	0	3	1023	1
2026-02-11	16:24:21.890	1.295	-0.595	0.21	0.16226	0.020984	0.99918	0.084	0.33	0.765	0	3	1023	1
2026-02-11	16:24:21.910	1.26	-0.595	0.21	0.164456	0.022448	0.999424	0.0975	0.3315	0.7695	0	3	1023	1
2026-02-11	16:24:21.930	1.26	-0.49	0.245	0.162992	0.022448	1.005524	0.0915	0.327	0.768	0	3	1023	1
2026-02-11	16:24:21.950	1.33	-0.665	0.245	0.163236	0.019276	0.994544	0.084	0.3315	0.7605	0	3	1023	1
2026-02-11	16:24:21.970	1.225	-0.595	0.28	0.167872	0.021472	1.00162	0.0945	0.333	0.7635	0	3	1023	1
2026-02-11	16:24:21.990	1.295	-0.42	0.245	0.164456	0.023912	1.001132	0.084	0.3315	0.7605	0	3	1023	1
2026-02-11	16:24:22.010	1.295	-0.735	0.28	0.165676	0.021716	0.997716	0.093	0.3285	0.762	0	3	1023	1
2026-02-11	16:24:22.030	1.225	-0.385	0.245	0.163724	0.02074	1.002108	0.0885	0.3345	0.753	0	3	1023	1
2026-02-11	16:24:22.050	1.33	-0.735	0.21	0.16592	0.023424	0.997228	0.087	0.333	0.762	0	3	1023	1
2026-02-11	16:24:22.070	1.225	-0.455	0.28	0.165676	0.020984	0.999668	0.087	0.3285	0.7545	0	3	1023	1
2026-02-11	16:24:22.090	1.26	-0.56	0.28	0.165432	0.01952	1.00162	0.0915	0.333	0.7545	0	3	1023	1
2026-02-11	16:24:22.110	1.295	-0.665	0.245	0.16592	0.022936	0.99674	0.096	0.3255	0.765	0	3	1023	1
2026-02-11	16:24:22.130	1.26	-0.525	0.245	0.165188	0.020984	1.007476	0.087	0.3315	0.7575	0	3	1023	1
2026-02-11	16:24:22.150	1.26	-0.665	0.245	0.173728	0.027084	1.006256	0.0825	0.3255	0.7515	0	3	1023	1
2026-02-11	16:24:22.170	1.26	-0.525	0.245	0.16104	0.017324	0.99552	0.084	0.33	0.762	0	3	1023	1
2026-02-11	16:24:22.190	1.295	-0.56	0.245	0.162016	0.0183	1.004548	0.084	0.33	0.762	0	3	1023	1
2026-02-11	16:24:22.210	1.295	-0.595	0.21	0.165432	0.022448	0.998448	0.0855	0.3315	0.762	0	3	1023	1
2026-02-11	16:24:22.230	1.33	-0.595	0.245	0.162992	0.017812	0.998204	0.0885	0.333	0.7635	0	3	1023	1
2026-02-11	16:24:22.250	1.225	-0.525	0.28	0.1647	0.021716	1.002108	0.09	0.3315	0.759	0	3	1023	1
2026-02-11	16:24:22.270	1.26	-0.56	0.21	0.165188	0.023912	1.002352	0.09	0.33	0.759	0	3	1023	1
2026-02-11	16:24:22.290	1.295	-0.665	0.245	0.16592	0.02074	0.999668	0.09	0.33	0.762	0	3	1023	1
2026-02-11	16:24:22.310	1.26	-0.455	0.245	0.163724	0.022204	1.003572	0.09	0.333	0.765	0	3	1023	1
2026-02-11	16:24:22.330	1.295	-0.7	0.28	0.165676	0.0244	0.999424	0.093	0.33	0.762	0	3	1023	1
2026-02-11	16:24:22.350	1.225	-0.455	0.21	0.164456	0.0244	1.000644	0.0945	0.3285	0.759	0	3	1023	1
2026-02-11	16:24:22.370	1.26	-0.63	0.245	0.164456	0.02318	1.002108	0.0915	0.33	0.7605	0	3	1023	1
2026-02-11	16:24:22.390	1.225	-0.49	0.245	0.162504	0.018544	1.001864	0.0915	0.333	0.7605	0	3	1023	1
2026-02-11	16:24:22.410	1.295	-0.63	0.245	0.16592	0.022692	0.997472	0.09	0.333	0.7605	0	3	1023	1
2026-02-11	16:24:22.430	1.295	-0.525	0.28	0.163236	0.021228	0.999668	0.0915	0.327	0.7605	0	3	1023	1
2026-02-11	16:24:22.450	1.26	-0.63	0.245	0.163968	0.020984	0.998692	0.0945	0.327	0.759	0	3	1023	1
2026-02-11	16:24:22.470	1.26	-0.525	0.245	0.162992	0.019764	1.003816	0.09	0.3285	0.7545	0	3	1023	1
2026-02-11	16:24:22.490	1.295	-0.525	0.28	0.161284	0.02074	1.001864	0.0915	0.3315	0.756	0	3	1023	1
2026-02-11	16:24:22.510	1.26	-0.63	0.245	0.162992	0.020496	0.998936	0.09	0.327	0.756	0	3	1023	1
2026-02-11	16:24:22.530	1.26	-0.56	0.245	0.165188	0.021716	1.001132	0.084	0.327	0.7575	0	3	1023	1
2026-02-11	16:24:22.550	1.26	-0.595	0.28	0.163236	0.018544	1.000156	0.087	0.327	0.7635	0	3	1023	1
2026-02-11	16:24:22.570	1.295	-0.525	0.245	0.165432	0.017812	1.003816	0.0885	0.33	0.759	0	3	1023	1
2026-02-11	16:24:22.590	1.26	-0.56	0.245	0.164212	0.021472	0.999668	0.087	0.336	0.7575	0	3	1023	1
2026-02-11	16:24:22.610	1.33	-0.56	0.21	0.166164	0.022692	0.999424	0.0855	0.3315	0.759	0	3	1023	1
2026-02-11	16:24:22.630	1.295	-0.49	0.245	0.15982	0.021472	1.000156	0.087	0.327	0.7575	0	3	1023	1
2026-02-11	16:24:22.650	1.295	-0.665	0.28	0.16714	0.023424	0.998692	0.0915	0.327	0.759	0	3	1023	1
2026-02-11	16:24:22.670	1.225	-0.49	0.245	0.167384	0.020984	1.0004	0.0915	0.3285	0.7605	0	3	1023	1
2026-02-11	16:24:22.690	1.33	-0.7	0.245	0.165188	0.021472	0.999912	0.09	0.3285	0.759	0	3	1023	1
2026-02-11	16:24:22.710	1.26	-0.595	0.245	0.1647	0.022692	0.998448	0.0885	0.327	0.759	0	3	1023	1
2026-02-11	16:24:22.730	1.26	-0.56	0.245	0.164944	0.022448	1.001132	0.0885	0.3285	0.762	0	3	1023	1
2026-02-11	16:24:22.750	1.26	-0.595	0.245	0.164456	0.021228	1.000644	0.087	0.3315	0.759	0	3	1023	1
2026-02-11	16:24:22.770	1.26	-0.56	0.28	0.163968	0.020008	1.001864	0.087	0.33	0.7575	0	3	1023	1
2026-02-11	16:24:22.790	1.295	-0.525	0.21	0.163724	0.020252	1.002108	0.087	0.33	0.762	0	3	1023	1
2026-02-11	16:24:22.810	1.26	-0.665	0.245	0.165188	0.022692	0.997716	0.087	0.33	0.765	0	3	1023	1
2026-02-11	16:24:22.830	1.19	-0.455	0.245	0.162504	0.019764	1.00162	0.087	0.3255	0.765	0	3	1023	1
2026-02-11	16:24:22.850	1.295	-0.525	0.245	0.16714	0.019276	1.001864	0.0855	0.3255	0.762	0	3	1023	1
2026-02-11	16:24:22.870	1.295	-0.665	0.245	0.164456	0.023424	0.997716	0.0855	0.3285	0.759	0	3	1023	1
2026-02-11	16:24:22.890	1.26	-0.49	0.28	0.166164	0.02318	1.002108	0.0855	0.3285	0.759	0	3	1023	1
2026-02-11	16:24:22.910	1.295	-0.595	0.245	0.161772	0.020008	0.997716	0.0855	0.3285	0.759	0	3	1023	1
2026-02-11	16:24:22.930	1.26	-0.595	0.28	0.162992	0.018544	1.002352	0.09	0.3315	0.756	0	3	1023	1
2026-02-11	16:24:22.950	1.26	-0.525	0.28	0.167872	0.01952	1.004304	0.087	0.3285	0.759	0	3	1023	1
2026-02-11	16:24:22.970	1.33	-0.665	0.245	0.163236	0.020008	0.996008	0.093	0.339	0.7575	0	3	1023	1
2026-02-11	16:24:22.990	1.225	-0.49	0.21	0.1647	0.017812	1.004304	0.09	0.3345	0.762	0	3	1023	1
2026-02-11	16:24:23.010	1.225	-0.525	0.21	0.167384	0.020252	1.0065	0.0915	0.3315	0.753	0	3	1023	1
2026-02-11	16:24:23.030	1.295	-0.595	0.245	0.167872	0.020496	1.001132	0.084	0.3375	0.7515	0	3	1023	1
2026-02-11	16:24:23.050	1.26	-0.525	0.28	0.1647	0.016836	1.0004	0.0945	0.336	0.759	0	3	1023	1
2026-02-11	16:24:23.070	1.295	-0.595	0.245	0.162016	0.021716	1.001376	0.096	0.33	0.7575	0	3	1023	1
2026-02-11	16:24:23.090	1.295	-0.595	0.245	0.162992	0.020984	1.002352	0.096	0.336	0.7665	0	3	1023	1
2026-02-11	16:24:23.110	1.295	-0.595	0.315	0.167628	0.020252	0.99918	0.087	0.3345	0.753	0	3	1023	1
2026-02-11	16:24:23.130	1.225	-0.49	0.21	0.166652	0.02074	1.000644	0.0915	0.3315	0.765	0	3	1023	1
2026-02-11	16:24:23.150	1.33	-0.665	0.28	0.1647	0.018788	0.999912	0.0825	0.336	0.7665	0	3	1023	1
2026-02-11	16:24:23.170	1.26	-0.525	0.28	0.16348	0.017812	0.99918	0.09	0.3285	0.7575	0	3	1023	1
2026-02-11	16:24:23.190	1.295	-0.665	0.245	0.164944	0.022692	1.001376	0.09	0.3225	0.7485	0	3	1023	1
2026-02-11	16:24:23.210	1.225	-0.49	0.245	0.166652	0.0183	1.003572	0.0975	0.3285	0.759	0	3	1023	1
2026-02-11	16:24:23.230	1.26	-0.56	0.245	0.1647	0.020496	1.001376	0.09	0.3255	0.762	0	3	1023	1
2026-02-11	16:24:23.250	1.295	-0.595	0.21	0.16592	0.022448	1.00162	0.093	0.327	0.7545	0	3	1023	1
2026-02-11	16:24:23.270	1.26	-0.56	0.28	0.163236	0.020252	0.99918	0.0945	0.3255	0.7575	0	3	1023	1
2026-02-11	16:24:23.290	1.295	-0.595	0.245	0.166896	0.020984	1.000644	0.0945	0.3285	0.759	0	3	1023	1
2026-02-11	16:24:23.310	1.295	-0.56	0.245	0.16714	0.022936	1.002352	0.093	0.3315	0.756	0	3	1023	1
2026-02-11	16:24:23.330	1.26	-0.595	0.245	0.1647	0.022448	0.999912	0.093	0.333	0.756	0	3	1023	1
2026-02-11	16:24:23.350	1.295	-0.56	0.245	0.166896	0.021228	0.999668	0.0915	0.33	0.7575	0	3	1023	1
2026-02-11	16:24:23.370	1.225	-0.595	0.28	0.16348	0.023424	1.000888	0.087	0.327	0.759	0	3	1023	1
2026-02-11	16:24:23.390	1.26	-0.455	0.245	0.166408	0.020008	1.002108	0.0855	0.33	0.762	0	3	1023	1
2026-02-11	16:24:23.410	1.295	-0.595	0.245	0.166164	0.02074	0.998936	0.087	0.333	0.7635	0	3	1023	1
2026-02-11	16:24:23.430	1.33	-0.56	0.21	0.16104	0.020252	0.997472	0.0885	0.3315	0.762	0	3	1023	1
2026-02-11	16:24:23.450	1.295	-0.595	0.245	0.166652	0.022204	0.99796	0.09	0.3345	0.765	0	3	1023	1
2026-02-11	16:24:23.470	1.225	-0.665	0.21	0.165432	0.021228	1.00162	0.0915	0.3285	0.762	0	3	1023	1
2026-02-11	16:24:23.490	1.225	-0.525	0.245	0.165188	0.01952	1.001864	0.093	0.33	0.762	0	3	1023	1
2026-02-11	16:24:23.510	1.295	-0.595	0.245	0.165188	0.020008	1.000156	0.0915	0.3345	0.762	0	3	1023	1
2026-02-11	16:24:23.530	1.295	-0.595	0.245	0.16592	0.019276	0.999912	0.087	0.33	0.7635	0	3	1023	1
2026-02-11	16:24:23.550	1.295	-0.56	0.28	0.165432	0.022204	0.996252	0.087	0.3315	0.765	0	3	1023	1
2026-02-11	16:24:23.570	1.26	-0.56	0.245	0.165432	0.019032	1.000644	0.093	0.33	0.759	0	3	1023	1
2026-02-11	16:24:23.590	1.225	-0.525	0.21	0.166408	0.021716	1.002108	0.0885	0.3285	0.7605	0	3	1023	1
2026-02-11	16:24:23.610	1.295	-0.595	0.245	0.162504	0.021472	1.001864	0.087	0.3315	0.759	0	3	1023	1
2026-02-11	16:24:23.630	1.26	-0.56	0.245	0.166652	0.022204	1.000156	0.0945	0.333	0.759	0	3	1023	1
2026-02-11	16:24:23.650	1.26	-0.56	0.245	0.1647	0.02074	1.001864	0.093	0.3315	0.762	0	3	1023	1
2026-02-11	16:24:23.670	1.295	-0.56	0.245	0.163724	0.023668	0.997472	0.09	0.324	0.7575	0	3	1023	1
2026-02-11	16:24:23.690	1.26	-0.595	0.245	0.166408	0.022204	0.999912	0.0915	0.3285	0.753	0	3	1023	1
2026-02-11	16:24:23.710	1.295	-0.56	0.21	0.165676	0.020008	1.001132	0.0915	0.33	0.756	0	3	1023	1
2026-02-11	16:24:23.730	1.26	-0.63	0.245	0.164212	0.021472	0.999424	0.0915	0.33	0.7575	0	3	1023	1
2026-02-11	16:24:23.750	1.26	-0.455	0.245	0.16592	0.021716	1.003816	0.09	0.3375	0.7575	0	3	1023	1
2026-02-11	16:24:23.770	1.33	-0.63	0.245	0.166652	0.020252	0.999668	0.0915	0.339	0.7575	0	3	1023	1
2026-02-11	16:24:23.790	1.295	-0.56	0.245	0.161772	0.020496	1.000644	0.0945	0.3315	0.7545	0	3	1023	1
2026-02-11	16:24:23.810	1.26	-0.56	0.245	0.1647	0.023668	1.00162	0.09	0.3285	0.7605	0	3	1023	1
2026-02-11	16:24:23.830	1.295	-0.63	0.245	0.165432	0.019764	1.0004	0.0855	0.3315	0.762	0	3	1023	1
2026-02-11	16:24:23.850	1.26	-0.56	0.245	0.166408	0.0183	1.001376	0.0825	0.33	0.7575	0	3	1023	1
2026-02-11	16:24:23.870	1.26	-0.525	0.21	0.164944	0.022692	1.005524	0.087	0.33	0.7575	0	3	1023	1
2026-02-11	16:24:23.890	1.26	-0.665	0.21	0.163724	0.020008	0.997228	0.093	0.3285	0.762	0	3	1023	1
2026-02-11	16:24:23.910	1.26	-0.525	0.245	0.16348	0.022692	1.00406	0.096	0.327	0.762	0	3	1023	1
2026-02-11	16:24:23.930	1.225	-0.56	0.21	0.162992	0.01952	0.999424	0.093	0.327	0.7605	0	3	1023	1
2026-02-11	16:24:23.950	1.295	-0.595	0.245	0.163236	0.019764	0.998448	0.09	0.33	0.7605	0	3	1023	1
2026-02-11	16:24:23.970	1.26	-0.525	0.245	0.170312	0.02074	1.001864	0.093	0.3315	0.759	0	3	1023	1
2026-02-11	16:24:23.990	1.26	-0.56	0.245	0.165676	0.020984	1.00162	0.093	0.327	0.7635	0	3	1023	1
2026-02-11	16:24:24.010	1.26	-0.56	0.245	0.163968	0.020252	0.999668	0.09	0.3255	0.765	0	3	1023	1
2026-02-11	16:24:24.030	1.26	-0.525	0.245	0.162992	0.02074	0.999424	0.0915	0.3285	0.7635	0	3	1023	1
2026-02-11	16:24:24.050	1.33	-0.595	0.245	0.1647	0.022936	0.99918	0.09	0.3315	0.7605	0	3	1023	1
2026-02-11	16:24:24.070	1.26	-0.595	0.245	0.164456	0.018056	0.999912	0.0885	0.333	0.756	0	3	1023	1
2026-02-11	16:24:24.090	1.26	-0.63	0.245	0.164944	0.018544	1.002352	0.0885	0.333	0.7575	0	3	1023	1
2026-02-11	16:24:24.110	1.295	-0.525	0.245	0.166896	0.02196	1.004548	0.0915	0.3315	0.756	0	3	1023	1
2026-02-11	16:24:24.130	1.295	-0.595	0.245	0.16348	0.021228	0.999668	0.0945	0.3315	0.753	0	3	1023	1
2026-02-11	16:24:24.150	1.295	-0.49	0.21	0.163236	0.02074	1.001132	0.093	0.336	0.7605	0	3	1023	1
2026-02-11	16:24:24.170	1.26	-0.595	0.28	0.164944	0.02562	0.998448	0.093	0.3375	0.765	0	3	1023	1
2026-02-11	16:24:24.190	1.26	-0.49	0.245	0.166164	0.026352	1.000644	0.093	0.3375	0.765	0	3	1023	1
2026-02-11	16:24:24.210	1.26	-0.56	0.21	0.163236	0.019276	1.003328	0.087	0.3345	0.7575	0	3	1023	1
2026-02-11	16:24:24.230	1.295	-0.595	0.21	0.167384	0.020984	1.000888	0.093	0.327	0.7605	0	3	1023	1
2026-02-11	16:24:24.250	1.295	-0.595	0.28	0.164212	0.023668	1.001376	0.0945	0.33	0.765	0	3	1023	1
2026-02-11	16:24:24.270	1.225	-0.49	0.21	0.16836	0.020496	1.001376	0.084	0.3255	0.7605	0	3	1023	1
2026-02-11	16:24:24.290	1.295	-0.63	0.28	0.16348	0.022204	0.99918	0.0975	0.327	0.7575	0	3	1023	1
2026-02-11	16:24:24.310	1.26	-0.49	0.21	0.1647	0.022448	1.001132	0.09	0.327	0.759	0	3	1023	1
2026-02-11	16:24:24.330	1.26	-0.665	0.21	0.164212	0.022692	0.998936	0.09	0.327	0.759	0	3	1023	1
2026-02-11	16:24:24.350	1.295	-0.525	0.245	0.164456	0.018788	1.002108	0.0885	0.327	0.759	0	3	1023	1
2026-02-11	16:24:24.370	1.295	-0.525	0.245	0.164212	0.02074	1.00284	0.0885	0.3285	0.7605	0	3	1023	1
2026-02-11	16:24:24.390	1.26	-0.63	0.245	0.169824	0.02074	1.003572	0.0915	0.3315	0.7605	0	3	1023	1
2026-02-11	16:24:24.410	1.225	-0.49	0.21	0.1647	0.018544	1.001376	0.0915	0.3345	0.762	0	3	1023	1
2026-02-11	16:24:24.430	1.26	-0.525	0.245	0.162504	0.024888	1.001132	0.0885	0.333	0.7605	0	3	1023	1
2026-02-11	16:24:24.450	1.33	-0.56	0.28	0.160064	0.017812	0.99796	0.09	0.3315	0.759	0	3	1023	1
2026-02-11	16:24:24.470	1.295	-0.595	0.245	0.16836	0.022204	0.997472	0.09	0.3315	0.762	0	3	1023	1
2026-02-11	16:24:24.490	1.295	-0.595	0.245	0.164456	0.02196	1.002596	0.0885	0.333	0.762	0	3	1023	1
2026-02-11	16:24:24.510	1.225	-0.525	0.28	0.163968	0.01952	1.003084	0.0915	0.3315	0.762	0	3	1023	1
2026-02-11	16:24:24.530	1.295	-0.595	0.21	0.168116	0.021716	1.003572	0.0885	0.327	0.759	0	3	1023	1
2026-02-11	16:24:24.550	1.295	-0.56	0.245	0.16226	0.022936	0.99918	0.0885	0.327	0.759	0	3	1023	1
2026-02-11	16:24:24.570	1.295	-0.595	0.245	0.165188	0.018788	0.996984	0.0915	0.327	0.759	0	3	1023	1
2026-02-11	16:24:24.590	1.225	-0.525	0.28	0.165676	0.021716	1.003328	0.093	0.327	0.7605	0	3	1023	1
2026-02-11	16:24:24.610	1.26	-0.56	0.245	0.16226	0.019032	0.99674	0.096	0.3315	0.762	0	3	1023	1
2026-02-11	16:24:24.630	1.33	-0.7	0.245	0.166652	0.022936	0.999424	0.0915	0.327	0.762	0	3	1023	1
2026-02-11	16:24:24.650	1.295	-0.42	0.245	0.162016	0.019032	1.0004	0.09	0.327	0.7605	0	3	1023	1
2026-02-11	16:24:24.670	1.295	-0.735	0.245	0.166164	0.020984	0.99918	0.087	0.327	0.7635	0	3	1023	1
2026-02-11	16:24:24.690	1.225	-0.385	0.245	0.170068	0.02074	1.004792	0.0885	0.327	0.759	0	3	1023	1
2026-02-11	16:24:24.710	1.33	-0.735	0.245	0.167628	0.017568	0.998692	0.0915	0.3315	0.756	0	3	1023	1
2026-02-11	16:24:24.730	1.26	-0.455	0.21	0.160308	0.021472	1.0004	0.0915	0.33	0.759	0	3	1023	1
2026-02-11	16:24:24.750	1.295	-0.735	0.28	0.161284	0.017812	0.996008	0.09	0.3285	0.762	0	3	1023	1
2026-02-11	16:24:24.770	1.19	-0.42	0.28	0.169336	0.015128	1.003572	0.0885	0.327	0.762	0	3	1023	1
2026-02-11	16:24:24.790	1.26	-0.56	0.28	0.168116	0.018544	1.006012	0.0915	0.327	0.7575	0	3	1023	1
2026-02-11	16:24:24.810	1.295	-0.525	0.21	0.166164	0.022448	1.000644	0.0885	0.33	0.7575	0	3	1023	1
2026-02-11	16:24:24.830	1.295	-0.665	0.21	0.162992	0.022936	0.997472	0.087	0.3285	0.759	0	3	1023	1
2026-02-11	16:24:24.850	1.295	-0.56	0.245	0.165188	0.021228	0.997472	0.0885	0.324	0.7575	0	3	1023	1
2026-02-11	16:24:24.870	1.33	-0.63	0.28	0.165432	0.023912	0.999912	0.084	0.3255	0.7635	0	3	1023	1
2026-02-11	16:24:24.890	1.26	-0.455	0.28	0.164456	0.017812	1.004792	0.084	0.3285	0.7665	0	3	1023	1
2026-02-11	16:24:24.910	1.295	-0.63	0.245	0.164944	0.021228	0.998936	0.087	0.327	0.7635	0	3	1023	1
2026-02-11	16:24:24.930	1.26	-0.49	0.245	0.164944	0.024156	1.000644	0.087	0.3315	0.765	0	3	1023	1
2026-02-11	16:24:24.950	1.225	-0.56	0.245	0.161284	0.022692	1.001376	0.09	0.3315	0.765	0	3	1023	1
2026-02-11	16:24:24.970	1.26	-0.525	0.245	0.164456	0.020496	1.000644	0.093	0.33	0.762	0	3	1023	1
2026-02-11	16:24:24.990	1.295	-0.595	0.245	0.16104	0.016592	0.999912	0.087	0.3315	0.756	0	3	1023	1
2026-02-11	16:24:25.010	1.225	-0.525	0.245	0.16348	0.020984	1.00528	0.0855	0.333	0.759	0	3	1023	1
2026-02-11	16:24:25.030	1.33	-0.665	0.245	0.164456	0.02196	0.998936	0.087	0.3315	0.765	0	3	1023	1
2026-02-11	16:24:25.050	1.295	-0.595	0.245	0.164944	0.021228	0.998448	0.0885	0.3285	0.7605	0	3	1023	1
2026-02-11	16:24:25.070	1.26	-0.49	0.245	0.163724	0.024644	1.001376	0.0915	0.3285	0.756	0	3	1023	1
2026-02-11	16:24:25.090	1.295	-0.63	0.245	0.16348	0.02318	0.99918	0.09	0.3285	0.756	0	3	1023	1
2026-02-11	16:24:25.110	1.295	-0.49	0.245	0.164212	0.022204	1.003328	0.087	0.3285	0.7545	0	3	1023	1
2026-02-11	16:24:25.130	1.295	-0.56	0.21	0.163236	0.022936	1.000156	0.0885	0.3345	0.7605	0	3	1023	1
2026-02-11	16:24:25.150	1.295	-0.595	0.245	0.1647	0.019032	0.997472	0.09	0.3345	0.768	0	3	1023	1
2026-02-11	16:24:25.170	1.225	-0.49	0.245	0.165188	0.0244	1.00284	0.09	0.327	0.765	0	3	1023	1
2026-02-11	16:24:25.190	1.295	-0.56	0.245	0.163968	0.022692	1.001376	0.09	0.3315	0.756	0	3	1023	1
2026-02-11	16:24:25.210	1.26	-0.525	0.245	0.164456	0.020252	1.005036	0.0915	0.333	0.753	0	3	1023	1
2026-02-11	16:24:25.230	1.33	-0.665	0.245	0.165676	0.02196	0.996984	0.0915	0.3255	0.7575	0	3	1023	1
2026-02-11	16:24:25.250	1.295	-0.665	0.245	0.163236	0.021472	0.995764	0.087	0.3225	0.762	0	3	1023	1
2026-02-11	16:24:25.270	1.19	-0.455	0.245	0.167384	0.02074	1.006744	0.0885	0.327	0.762	0	3	1023	1
2026-02-11	16:24:25.290	1.295	-0.56	0.21	0.166408	0.018056	1.003572	0.093	0.3315	0.7575	0	3	1023	1
2026-02-11	16:24:25.310	1.365	-0.7	0.245	0.163724	0.020008	0.994544	0.0855	0.327	0.7575	0	3	1023	1
2026-02-11	16:24:25.330	1.26	-0.42	0.28	0.163968	0.025376	1.000644	0.0795	0.3225	0.759	0	3	1023	1
2026-02-11	16:24:25.350	1.26	-0.56	0.245	0.16592	0.021716	1.002596	0.0795	0.3225	0.759	0	3	1023	1
2026-02-11	16:24:25.370	1.33	-0.63	0.28	0.16592	0.020252	0.995764	0.0795	0.3225	0.759	0	3	1023	1
2026-02-11	16:24:25.390	1.26	-0.525	0.245	0.170068	0.020984	1.002108	0.0795	0.3225	0.759	0	3	1023	1
2026-02-11	16:24:25.410	1.295	-0.49	0.245	0.163968	0.022204	1.00162	0.0825	0.3225	0.7575	0	3	1023	1
2026-02-11	16:24:25.430	1.365	-0.7	0.245	0.165188	0.019032	1.000644	0.087	0.324	0.7575	0	3	1023	1
2026-02-11	16:24:25.450	1.33	-0.525	0.28	0.158844	0.016836	0.998936	0.09	0.327	0.7605	0	3	1023	1
2026-02-11	16:24:25.470	1.295	-0.7	0.245	0.164212	0.022692	0.999424	0.0915	0.3315	0.762	0	3	1023	1
2026-02-11	16:24:25.490	1.26	-0.49	0.245	0.1647	0.021228	1.006012	0.087	0.3345	0.7635	0	3	1023	1
2026-02-11	16:24:25.510	1.365	-0.665	0.245	0.166896	0.019032	0.99918	0.087	0.3375	0.762	0	3	1023	1
2026-02-11	16:24:25.530	1.26	-0.525	0.245	0.1647	0.02196	1.003084	0.0885	0.3345	0.753	0	3	1023	1
2026-02-11	16:24:25.550	1.295	-0.525	0.28	0.16592	0.02318	1.002596	0.0885	0.3315	0.7545	0	3	1023	1
2026-02-11	16:24:25.570	1.33	-0.595	0.28	0.16104	0.019764	0.998204	0.093	0.3345	0.7635	0	3	1023	1
2026-02-11	16:24:25.590	1.26	-0.595	0.245	0.16714	0.021472	0.997472	0.0915	0.33	0.7635	0	3	1023	1
2026-02-11	16:24:25.610	1.19	-0.525	0.21	0.169092	0.018788	1.00284	0.09	0.3255	0.7605	0	3	1023	1
