yyyy-MM-dd	HH:mm:ss.fff	gyrX	gyrY	gyrZ	accX	accY	accZ	magX	magY	magZ	Marker	Energy	Angle	Classification
2026-02-11	16:23:55.410	-0.245	0.105	-0.49	0.031964	-0.006588	1.012356	-0.828	-1.401	-3.156	0	4	1030	1
2026-02-11	16:23:55.430	-0.245	0.07	-0.49	0.032696	-0.010736	1.008696	-0.8295	-1.404	-3.159	0	4	1030	1
2026-02-11	16:23:55.450	-0.28	0.105	-0.49	0.03172	-0.009272	1.00894	-0.828	-1.407	-3.1605	0	4	1030	1
2026-02-11	16:23:55.470	-0.28	0	-0.525	0.030256	-0.006588	1.006256	-0.825	-1.407	-3.159	0	4	1030	1
2026-02-11	16:23:55.490	-0.315	-0.035	-0.455	0.03416	-0.009028	1.007476	-0.8295	-1.4025	-3.168	0	4	1030	1
2026-02-11	16:23:55.510	-0.28	0.035	-0.49	0.034648	-0.007564	1.0065	-0.8415	-1.3935	-3.165	0	4	1030	1
2026-02-11	16:23:55.530	-0.245	0.07	-0.525	0.0305	-0.01098	1.013332	-0.822	-1.4025	-3.156	0	4	1030	1
2026-02-11	16:23:55.550	-0.28	0.105	-0.49	0.029768	-0.010736	1.008452	-0.8325	-1.401	-3.1605	0	4	1030	1
2026-02-11	16:23:55.570	-0.28	0.175	-0.49	0.030012	-0.0061	1.003572	-0.8355	-1.398	-3.1545	0	4	1030	1
2026-02-11	16:23:55.590	-0.28	0.105	-0.49	0.034892	-0.011224	1.008208	-0.8325	-1.3995	-3.1605	0	4	1030	1
2026-02-11	16:23:55.610	-0.28	0.105	-0.49	0.030256	-0.007564	1.007476	-0.8265	-1.3995	-3.1515	0	4	1030	1
2026-02-11	16:23:55.630	-0.315	0.07	-0.525	0.030744	-0.00488	1.004792	-0.8325	-1.404	-3.156	0	4	1030	1
2026-02-11	16:23:55.650	-0.315	0.07	-0.49	0.032208	-0.007808	1.007232	-0.8295	-1.4055	-3.162	0	4	1030	1
2026-02-11	16:23:55.670	-0.315	0.07	-0.525	0.028304	-0.011712	1.008208	-0.8325	-1.4025	-3.159	0	4	1030	1
2026-02-11	16:23:55.690	-0.28	0.07	-0.525	0.030744	-0.004636	1.008208	-0.8325	-1.4025	-3.159	0	4	1030	1
2026-02-11	16:23:55.710	-0.28	0.14	-0.49	0.033672	-0.010736	1.006988	-0.8265	-1.4025	-3.159	0	4	1030	1
2026-02-11	16:23:55.730	-0.315	0.21	-0.49	0.03538	-0.008052	1.006256	-0.8265	-1.401	-3.156	0	4	1030	1
2026-02-11	16:23:55.750	-0.28	0.245	-0.49	0.033184	-0.006588	1.008208	-0.8295	-1.3995	-3.1545	0	4	1030	1
2026-02-11	16:23:55.770	-0.315	0.28	-0.49	0.031964	-0.008784	1.005524	-0.828	-1.3995	-3.1605	0	4	1030	1
2026-02-11	16:23:55.790	-0.28	0.175	-0.455	0.03172	-0.009028	1.00528	-0.8295	-1.401	-3.1635	0	4	1030	1
2026-02-11	16:23:55.810	-0.28	0.035	-0.525	0.033428	-0.00976	1.007964	-0.8295	-1.401	-3.162	0	4	1030	1
2026-02-11	16:23:55.830	-0.315	0.07	-0.49	0.032696	-0.0061	1.007964	-0.8325	-1.3995	-3.1665	0	4	1030	1
2026-02-11	16:23:55.850	-0.28	0	-0.49	0.030256	-0.007808	1.009672	-0.831	-1.3995	-3.165	0	4	1030	1
2026-02-11	16:23:55.870	-0.28	-0.035	-0.49	0.031964	-0.007076	1.008452	-0.8265	-1.3995	-3.1575	0	4	1030	1
2026-02-11	16:23:55.890	-0.28	-0.175	-0.525	0.033672	-0.006344	1.00528	-0.8295	-1.401	-3.1575	0	4	1030	1
2026-02-11	16:23:55.910	-0.28	-0.14	-0.49	0.031232	-0.00854	1.01016	-0.831	-1.404	-3.159	0	4	1030	1
2026-02-11	16:23:55.930	-0.315	-0.105	-0.525	0.032696	-0.008296	1.010404	-0.8325	-1.4025	-3.159	0	4	1030	1
2026-02-11	16:23:55.950	-0.315	0.035	-0.525	0.02928	-0.007076	1.006988	-0.834	-1.3995	-3.1575	0	4	1030	1
2026-02-11	16:23:55.970	-0.28	0.07	-0.49	0.032452	-0.010004	1.004304	-0.834	-1.3995	-3.1575	0	4	1030	1
2026-02-11	16:23:55.990	-0.28	0.07	-0.525	0.033184	-0.00976	1.00528	-0.8295	-1.401	-3.1635	0	4	1030	1
2026-02-11	16:23:56.010	-0.28	0.105	-0.49	0.031232	-0.007076	1.0065	-0.831	-1.4025	-3.159	0	4	1030	1
2026-02-11	16:23:56.030	-0.28	0.07	-0.49	0.033428	-0.006588	1.007964	-0.8295	-1.401	-3.159	0	4	1030	1
2026-02-11	16:23:56.050	-0.28	0.105	-0.49	0.028792	-0.010248	1.009672	-0.8295	-1.3965	-3.162	0	4	1030	1
2026-02-11	16:23:56.070	-0.28	0.14	-0.49	0.034404	-0.007564	1.00528	-0.834	-1.395	-3.1605	0	4	1030	1
2026-02-11	16:23:56.090	-0.315	0.665	-0.49	0.029036	-0.00976	1.023336	-0.837	-1.3995	-3.156	0	4	1030	1
2026-02-11	16:23:56.110	-0.245	-0.14	-0.525	0.037576	-0.0061	1.010892	-0.8355	-1.398	-3.1545	0	4	1030	1
2026-02-11	16:23:56.130	-0.35	-0.105	-0.49	0.032208	-0.007564	0.99918	-0.831	-1.3965	-3.156	0	4	1030	1
2026-02-11	16:23:56.150	-0.245	-0.14	-0.49	0.03538	-0.00976	1.009672	-0.828	-1.398	-3.1605	0	4	1030	1
2026-02-11	16:23:56.170	-0.28	0.07	-0.49	0.030744	-0.01098	1.005036	-0.831	-1.401	-3.1605	0	4	1030	1
2026-02-11	16:23:56.190	-0.28	0	-0.49	0.033184	-0.010736	1.008208	-0.8325	-1.3995	-3.1605	0	4	1030	1
2026-02-11	16:23:56.210	-0.28	0	-0.49	0.032452	-0.010004	1.00894	-0.8325	-1.401	-3.1635	0	4	1030	1
2026-02-11	16:23:56.230	-0.28	0	-0.455	0.031232	-0.008296	1.0065	-0.8325	-1.4085	-3.1635	0	4	1030	1
2026-02-11	16:23:56.250	-0.245	0.035	-0.49	0.032208	-0.007808	1.008696	-0.825	-1.3965	-3.1575	0	4	1030	1
2026-02-11	16:23:56.270	-0.28	0.07	-0.455	0.031964	-0.007564	1.00772	-0.831	-1.401	-3.1575	0	4	1030	1
2026-02-11	16:23:56.290	-0.28	0.035	-0.49	0.033916	-0.009516	1.006012	-0.8235	-1.404	-3.162	0	4	1030	1
2026-02-11	16:23:56.310	-0.245	0.175	-0.49	0.03416	-0.008784	1.006012	-0.8295	-1.407	-3.159	0	4	1030	1
2026-02-11	16:23:56.330	-0.28	0.175	-0.49	0.03172	-0.008296	1.006744	-0.8325	-1.4025	-3.1605	0	4	1030	1
2026-02-11	16:23:56.350	-0.315	0.14	-0.455	0.035624	-0.010004	1.0065	-0.834	-1.4025	-3.1725	0	4	1030	1
2026-02-11	16:23:56.370	-0.315	0.035	-0.49	0.032696	-0.010248	1.006256	-0.828	-1.404	-3.162	0	4	1030	1
2026-02-11	16:23:56.390	-0.315	0	-0.49	0.026352	-0.010248	1.006988	-0.8295	-1.3965	-3.168	0	4	1030	1
2026-02-11	16:23:54.410	-0.28	0.14	-0.49	0.02806	-0.007564	1.01016	-0.8325	-1.407	-3.159	0	3	1030	1
2026-02-11	16:23:54.430	-0.315	0.07	-0.49	0.03172	-0.009272	1.003572	-0.822	-1.401	-3.162	0	3	1030	1
2026-02-11	16:23:54.450	-0.245	0.035	-0.49	0.033428	-0.010004	1.004548	-0.8295	-1.404	-3.159	0	3	1030	1
2026-02-11	16:23:54.470	-0.28	0.07	-0.455	0.03538	-0.012444	1.009428	-0.828	-1.3995	-3.156	0	3	1030	1
2026-02-11	16:23:54.490	-0.315	0.105	-0.455	0.0305	-0.009516	1.005524	-0.834	-1.3965	-3.1605	0	3	1030	1
2026-02-11	16:23:54.510	-0.315	0.105	-0.455	0.029036	-0.01342	1.0065	-0.834	-1.395	-3.165	0	3	1030	1
2026-02-11	16:23:54.530	-0.245	0.035	-0.49	0.033916	-0.007564	1.004792	-0.837	-1.3965	-3.168	0	3	1030	1
2026-02-11	16:23:54.550	-0.315	0.105	-0.49	0.033184	-0.009028	1.00772	-0.831	-1.4055	-3.1605	0	3	1030	1
2026-02-11	16:23:54.570	-0.315	0.07	-0.49	0.034648	-0.010736	1.00772	-0.825	-1.395	-3.153	0	3	1030	1
2026-02-11	16:23:54.590	-0.245	0.14	-0.49	0.032696	-0.007564	1.007232	-0.831	-1.3995	-3.1575	0	3	1030	1
2026-02-11	16:23:54.610	-0.21	0.315	-0.525	0.035868	-0.014396	0.996008	-0.831	-1.3995	-3.1575	0	3	1030	1
2026-02-11	16:23:54.630	-0.07	0.63	-0.49	0.030012	-0.00732	1.03334	-0.8295	-1.3995	-3.1575	0	3	1030	1
2026-02-11	16:23:54.650	-0.35	0.07	-0.49	0.028792	-0.0061	1.006988	-0.828	-1.404	-3.156	0	3	1030	1
2026-02-11	16:23:54.670	-0.35	-0.105	-0.49	0.031476	-0.00732	1.003084	-0.8265	-1.404	-3.1545	0	3	1030	1
2026-02-11	16:23:54.690	-0.315	0.035	-0.49	0.034892	-0.008052	0.997472	-0.828	-1.3995	-3.156	0	3	1030	1
2026-02-11	16:23:54.710	-0.315	0.105	-0.49	0.038064	-0.012932	1.002352	-0.8325	-1.4025	-3.156	0	3	1030	1
2026-02-11	16:23:54.730	-0.21	0.21	-0.49	0.038308	-0.011956	1.00284	-0.8325	-1.401	-3.159	0	3	1030	1
2026-02-11	16:23:54.750	-0.21	0.245	-0.49	0.029768	-0.00732	1.011136	-0.831	-1.401	-3.1635	0	3	1030	1
2026-02-11	16:23:54.770	-0.245	0.175	-0.49	0.029036	-0.008052	1.009428	-0.8325	-1.401	-3.1635	0	3	1030	1
2026-02-11	16:23:54.790	-0.28	0.105	-0.49	0.032208	-0.009272	1.006256	-0.8295	-1.401	-3.159	0	3	1030	1
2026-02-11	16:23:54.810	-0.21	0.175	-0.525	0.040016	-0.01098	1.003572	-0.828	-1.4025	-3.1575	0	3	1030	1
2026-02-11	16:23:54.830	-0.28	0.28	-0.525	0.03538	-0.013664	1.007232	-0.8325	-1.4025	-3.162	0	3	1030	1
2026-02-11	16:23:54.850	-0.245	0.245	-0.49	0.028548	-0.010492	1.009916	-0.834	-1.4025	-3.1575	0	3	1030	1
2026-02-11	16:23:54.870	-0.28	0.14	-0.49	0.03172	-0.006832	1.00894	-0.8295	-1.4055	-3.153	0	3	1030	1
2026-02-11	16:23:54.890	-0.28	0.105	-0.525	0.03538	-0.008784	1.004304	-0.828	-1.407	-3.153	0	3	1030	1
2026-02-11	16:23:54.910	-0.245	0.175	-0.525	0.03416	-0.007808	1.006744	-0.831	-1.401	-3.159	0	3	1030	1
2026-02-11	16:23:54.930	-0.28	1.05	-0.455	0.030988	-0.012932	1.02236	-0.8265	-1.3995	-3.1605	0	3	1030	1
2026-02-11	16:23:54.950	-0.175	0.63	-0.49	0.030256	-0.006344	1.001132	-0.8265	-1.401	-3.1605	0	3	1030	1
2026-02-11	16:23:54.970	-0.28	0.07	-0.49	0.02806	-0.007076	1.032364	-0.8265	-1.4025	-3.1575	0	3	1030	1
2026-02-11	16:23:54.990	-0.42	-0.105	-0.455	0.029524	-0.00732	0.979416	-0.8295	-1.401	-3.159	0	3	1030	1
2026-02-11	16:23:55.010	-0.245	0	-0.49	0.033916	-0.00854	1.0187	-0.831	-1.401	-3.1635	0	3	1030	1
2026-02-11	16:23:55.030	-0.245	0.385	-0.49	0.031232	-0.00488	1.00528	-0.831	-1.4025	-3.1665	0	3	1030	1
2026-02-11	16:23:55.050	-0.315	0.105	-0.49	0.028792	-0.010004	1.013088	-0.8355	-1.4025	-3.1635	0	3	1030	1
2026-02-11	16:23:55.070	-0.28	0.07	-0.455	0.032696	-0.009516	0.998204	-0.8295	-1.401	-3.1575	0	3	1030	1
2026-02-11	16:23:55.090	-0.245	0	-0.49	0.03294	-0.0061	1.009916	-0.828	-1.3995	-3.1575	0	3	1030	1
2026-02-11	16:23:55.110	-0.28	0.105	-0.525	0.035868	-0.012444	1.006256	-0.831	-1.401	-3.159	0	3	1030	1
2026-02-11	16:23:55.130	-0.28	0.175	-0.49	0.029524	-0.007076	1.010404	-0.822	-1.398	-3.1605	0	3	1030	1
2026-02-11	16:23:55.150	-0.28	0.07	-0.525	0.030988	-0.011224	1.007476	-0.8205	-1.3935	-3.162	0	3	1030	1
2026-02-11	16:23:55.170	-0.245	0.035	-0.49	0.029768	-0.0061	1.009428	-0.8295	-1.3995	-3.165	0	3	1030	1
2026-02-11	16:23:55.190	-0.245	-0.14	-0.49	0.033428	-0.009272	1.006012	-0.8235	-1.407	-3.1605	0	3	1030	1
2026-02-11	16:23:55.210	-0.245	-0.14	-0.455	0.03416	-0.010492	1.005524	-0.822	-1.4025	-3.1605	0	3	1030	1
2026-02-11	16:23:55.230	-0.28	0	-0.49	0.030988	-0.008052	1.006744	-0.828	-1.401	-3.1605	0	3	1030	1
2026-02-11	16:23:55.250	-0.245	0.105	-0.455	0.028548	-0.010248	1.01138	-0.8295	-1.3965	-3.1605	0	3	1030	1
2026-02-11	16:23:55.270	-0.28	-0.035	-0.49	0.031476	-0.008784	1.004304	-0.831	-1.3995	-3.1635	0	3	1030	1
2026-02-11	16:23:55.290	-0.28	0	-0.49	0.031964	-0.00732	1.006744	-0.8265	-1.4055	-3.162	0	3	1030	1
2026-02-11	16:23:55.310	-0.28	0.07	-0.525	0.031232	-0.006832	1.007476	-0.8355	-1.404	-3.159	0	3	1030	1
2026-02-11	16:23:55.330	-0.28	0.105	-0.525	0.029768	-0.006588	1.010404	-0.822	-1.3965	-3.162	0	3	1030	1
2026-02-11	16:23:55.350	-0.28	0.105	-0.49	0.03538	-0.006832	1.004548	-0.8265	-1.395	-3.165	0	3	1030	1
2026-02-11	16:23:55.370	-0.315	0.245	-0.49	0.0244	-0.008784	1.014064	-0.819	-1.4025	-3.1665	0	3	1030	1
2026-02-11	16:23:55.390	-0.245	0.35	-0.525	0.037088	-0.010004	1.006744	-0.8295	-1.4025	-3.1635	0	3	1030	1
2026-02-11	16:23:55.410	-0.245	0.105	-0.49	0.031964	-0.006588	1.012356	-0.828	-1.401	-3.156	0	4	1030	1
2026-02-11	16:23:55.430	-0.245	0.07	-0.49	0.032696	-0.010736	1.008696	-0.8295	-1.404	-3.159	0	4	1030	1
2026-02-11	16:23:55.450	-0.28	0.105	-0.49	0.03172	-0.009272	1.00894	-0.828	-1.407	-3.1605	0	4	1030	1
2026-02-11	16:23:55.470	-0.28	0	-0.525	0.030256	-0.006588	1.006256	-0.825	-1.407	-3.159	0	4	1030	1
2026-02-11	16:23:55.490	-0.315	-0.035	-0.455	0.03416	-0.009028	1.007476	-0.8295	-1.4025	-3.168	0	4	1030	1
2026-02-11	16:23:55.510	-0.28	0.035	-0.49	0.034648	-0.007564	1.0065	-0.8415	-1.3935	-3.165	0	4	1030	1
2026-02-11	16:23:55.530	-0.245	0.07	-0.525	0.0305	-0.01098	1.013332	-0.822	-1.4025	-3.156	0	4	1030	1
2026-02-11	16:23:55.550	-0.28	0.105	-0.49	0.029768	-0.010736	1.008452	-0.8325	-1.401	-3.1605	0	4	1030	1
2026-02-11	16:23:55.570	-0.28	0.175	-0.49	0.030012	-0.0061	1.003572	-0.8355	-1.398	-3.1545	0	4	1030	1
2026-02-11	16:23:55.590	-0.28	0.105	-0.49	0.034892	-0.011224	1.008208	-0.8325	-1.3995	-3.1605	0	4	1030	1
2026-02-11	16:23:55.610	-0.28	0.105	-0.49	0.030256	-0.007564	1.007476	-0.8265	-1.3995	-3.1515	0	4	1030	1
2026-02-11	16:23:55.630	-0.315	0.07	-0.525	0.030744	-0.00488	1.004792	-0.8325	-1.404	-3.156	0	4	1030	1
2026-02-11	16:23:55.650	-0.315	0.07	-0.49	0.032208	-0.007808	1.007232	-0.8295	-1.4055	-3.162	0	4	1030	1
2026-02-11	16:23:55.670	-0.315	0.07	-0.525	0.028304	-0.011712	1.008208	-0.8325	-1.4025	-3.159	0	4	1030	1
2026-02-11	16:23:55.690	-0.28	0.07	-0.525	0.030744	-0.004636	1.008208	-0.8325	-1.4025	-3.159	0	4	1030	1
2026-02-11	16:23:55.710	-0.28	0.14	-0.49	0.033672	-0.010736	1.006988	-0.8265	-1.4025	-3.159	0	4	1030	1
2026-02-11	16:23:55.730	-0.315	0.21	-0.49	0.03538	-0.008052	1.006256	-0.8265	-1.401	-3.156	0	4	1030	1
2026-02-11	16:23:55.750	-0.28	0.245	-0.49	0.033184	-0.006588	1.008208	-0.8295	-1.3995	-3.1545	0	4	1030	1
2026-02-11	16:23:55.770	-0.315	0.28	-0.49	0.031964	-0.008784	1.005524	-0.828	-1.3995	-3.1605	0	4	1030	1
2026-02-11	16:23:55.790	-0.28	0.175	-0.455	0.03172	-0.009028	1.00528	-0.8295	-1.401	-3.1635	0	4	1030	1
2026-02-11	16:23:55.810	-0.28	0.035	-0.525	0.033428	-0.00976	1.007964	-0.8295	-1.401	-3.162	0	4	1030	1
2026-02-11	16:23:55.830	-0.315	0.07	-0.49	0.032696	-0.0061	1.007964	-0.8325	-1.3995	-3.1665	0	4	1030	1
2026-02-11	16:23:55.850	-0.28	0	-0.49	0.030256	-0.007808	1.009672	-0.831	-1.3995	-3.165	0	4	1030	1
2026-02-11	16:23:55.870	-0.28	-0.035	-0.49	0.031964	-0.007076	1.008452	-0.8265	-1.3995	-3.1575	0	4	1030	1
2026-02-11	16:23:55.890	-0.28	-0.175	-0.525	0.033672	-0.006344	1.00528	-0.8295	-1.401	-3.1575	0	4	1030	1
2026-02-11	16:23:55.910	-0.28	-0.14	-0.49	0.031232	-0.00854	1.01016	-0.831	-1.404	-3.159	0	4	1030	1
2026-02-11	16:23:55.930	-0.315	-0.105	-0.525	0.032696	-0.008296	1.010404	-0.8325	-1.4025	-3.159	0	4	1030	1
2026-02-11	16:23:55.950	-0.315	0.035	-0.525	0.02928	-0.007076	1.006988	-0.834	-1.3995	-3.1575	0	4	1030	1
2026-02-11	16:23:55.970	-0.28	0.07	-0.49	0.032452	-0.010004	1.004304	-0.834	-1.3995	-3.1575	0	4	1030	1
2026-02-11	16:23:55.990	-0.28	0.07	-0.525	0.033184	-0.00976	1.00528	-0.8295	-1.401	-3.1635	0	4	1030	1
2026-02-11	16:23:56.010	-0.28	0.105	-0.49	0.031232	-0.007076	1.0065	-0.831	-1.4025	-3.159	0	4	1030	1
2026-02-11	16:23:56.030	-0.28	0.07	-0.49	0.033428	-0.006588	1.007964	-0.8295	-1.401	-3.159	0	4	1030	1
2026-02-11	16:23:56.050	-0.28	0.105	-0.49	0.028792	-0.010248	1.009672	-0.8295	-1.3965	-3.162	0	4	1030	1
2026-02-11	16:23:56.070	-0.28	0.14	-0.49	0.034404	-0.007564	1.00528	-0.834	-1.395	-3.1605	0	4	1030	1
2026-02-11	16:23:56.090	-0.315	0.665	-0.49	0.029036	-0.00976	1.023336	-0.837	-1.3995	-3.156	0	4	1030	1
2026-02-11	16:23:56.110	-0.245	-0.14	-0.525	0.037576	-0.0061	1.010892	-0.8355	-1.398	-3.1545	0	4	1030	1
2026-02-11	16:23:56.130	-0.35	-0.105	-0.49	0.032208	-0.007564	0.99918	-0.831	-1.3965	-3.156	0	4	1030	1
2026-02-11	16:23:56.150	-0.245	-0.14	-0.49	0.03538	-0.00976	1.009672	-0.828	-1.398	-3.1605	0	4	1030	1
2026-02-11	16:23:56.170	-0.28	0.07	-0.49	0.030744	-0.01098	1.005036	-0.831	-1.401	-3.1605	0	4	1030	1
2026-02-11	16:23:56.190	-0.28	0	-0.49	0.033184	-0.010736	1.008208	-0.8325	-1.3995	-3.1605	0	4	1030	1
2026-02-11	16:23:56.210	-0.28	0	-0.49	0.032452	-0.010004	1.00894	-0.8325	-1.401	-3.1635	0	4	1030	1
2026-02-11	16:23:56.230	-0.28	0	-0.455	0.031232	-0.008296	1.0065	-0.8325	-1.4085	-3.1635	0	4	1030	1
2026-02-11	16:23:56.250	-0.245	0.035	-0.49	0.032208	-0.007808	1.008696	-0.825	-1.3965	-3.1575	0	4	1030	1
2026-02-11	16:23:56.270	-0.28	0.07	-0.455	0.031964	-0.007564	1.00772	-0.831	-1.401	-3.1575	0	4	1030	1
2026-02-11	16:23:56.290	-0.28	0.035	-0.49	0.033916	-0.009516	1.006012	-0.8235	-1.404	-3.162	0	4	1030	1
2026-02-11	16:23:56.310	-0.245	0.175	-0.49	0.03416	-0.008784	1.006012	-0.8295	-1.407	-3.159	0	4	1030	1
2026-02-11	16:23:56.330	-0.28	0.175	-0.49	0.03172	-0.008296	1.006744	-0.8325	-1.4025	-3.1605	0	4	1030	1
2026-02-11	16:23:56.350	-0.315	0.14	-0.455	0.035624	-0.010004	1.0065	-0.834	-1.4025	-3.1725	0	4	1030	1
2026-02-11	16:23:56.370	-0.315	0.035	-0.49	0.032696	-0.010248	1.006256	-0.828	-1.404	-3.162	0	4	1030	1
2026-02-11	16:23:56.390	-0.315	0	-0.49	0.026352	-0.010248	1.006988	-0.8295	-1.3965	-3.168	0	4	1030	1
2026-02-11	16:24:04.410	-0.28	0.07	-0.455	0.03294	-0.010248	1.004304	-0.8325	-1.4025	-3.162	0	250	978	1
2026-02-11	16:24:04.430	-0.28	0.07	-0.49	0.029036	-0.010248	1.007232	-0.8295	-1.404	-3.1635	0	250	978	1
2026-02-11	16:24:04.450	-0.28	0.035	-0.49	0.034648	-0.010248	1.007964	-0.8295	-1.4025	-3.1605	0	250	978	1
2026-02-11	16:24:04.470	-0.28	0.035	-0.525	0.033428	-0.00732	1.005768	-0.828	-1.3965	-3.162	0	250	978	1
2026-02-11	16:24:04.490	-0.28	0.07	-0.525	0.032208	-0.010492	1.006012	-0.828	-1.398	-3.1635	0	250	978	1
2026-02-11	16:24:04.510	-0.28	0.035	-0.49	0.033184	-0.010248	1.009184	-0.828	-1.3995	-3.1635	0	250	978	1
2026-02-11	16:24:04.530	-0.315	0.105	-0.49	0.037088	-0.009516	1.003816	-0.825	-1.3965	-3.168	0	250	978	1
2026-02-11	16:24:04.550	-0.28	0.105	-0.49	0.031232	-0.005856	1.009672	-0.8265	-1.401	-3.15	0	250	978	1
2026-02-11	16:24:04.570	-0.28	0.105	-0.49	0.027328	-0.011712	1.010404	-0.828	-1.4025	-3.1635	0	250	978	1
2026-02-11	16:24:04.590	-0.28	0.07	-0.525	0.030744	-0.00976	1.005524	-0.8265	-1.3995	-3.168	0	250	978	1
2026-02-11	16:24:04.610	-0.28	0	-0.56	0.0305	-0.008296	1.006012	-0.8385	-1.3995	-3.156	0	211	992	1
2026-02-11	16:24:04.630	-0.28	0.105	-0.49	0.03416	-0.007076	1.006012	-0.831	-1.4055	-3.165	0	211	992	1
2026-02-11	16:24:04.650	-0.28	0.105	-0.525	0.032452	-0.007564	1.006744	-0.837	-1.4025	-3.1575	0	211	992	1
2026-02-11	16:24:04.670	-0.28	0.07	-0.49	0.031232	-0.003904	1.008208	-0.825	-1.41	-3.1665	0	211	992	1
2026-02-11	16:24:04.690	-0.315	0.035	-0.49	0.031964	-0.007808	1.006012	-0.837	-1.398	-3.15	0	211	992	1
2026-02-11	16:24:04.710	-0.28	0	-0.49	0.031964	-0.009272	1.007476	-0.8355	-1.3995	-3.1665	0	211	992	1
2026-02-11	16:24:04.730	-0.28	-0.035	-0.49	0.036356	-0.010004	1.007476	-0.828	-1.395	-3.168	0	211	992	1
2026-02-11	16:24:04.750	-0.28	0.035	-0.49	0.027816	-0.007564	1.00772	-0.831	-1.407	-3.162	0	211	992	1
2026-02-11	16:24:04.770	-0.245	0	-0.49	0.03172	-0.006344	1.008452	-0.837	-1.401	-3.162	0	211	992	1
2026-02-11	16:24:04.790	-0.28	0.035	-0.49	0.032208	-0.00976	1.00894	-0.8295	-1.3965	-3.168	0	211	992	1
2026-02-11	16:24:04.810	-0.245	0.07	-0.49	0.030744	-0.006344	1.007232	-0.8295	-1.3965	-3.168	0	177	1002	1
2026-02-11	16:24:04.830	-0.28	0	-0.525	0.03294	-0.008052	1.006988	-0.831	-1.404	-3.168	0	177	1002	1
2026-02-11	16:24:04.850	-0.28	0.07	-0.49	0.033672	-0.010004	1.008452	-0.828	-1.4085	-3.1665	0	177	1002	1
2026-02-11	16:24:04.870	-0.315	0.035	-0.455	0.030744	-0.00854	1.008208	-0.825	-1.398	-3.1575	0	177	1002	1
2026-02-11	16:24:04.890	-0.28	0.035	-0.49	0.031964	-0.007076	1.006988	-0.825	-1.3995	-3.159	0	177	1002	1
2026-02-11	16:24:04.910	-0.28	0.035	-0.49	0.031476	-0.007076	1.005036	-0.8295	-1.3995	-3.162	0	177	1002	1
2026-02-11	16:24:04.930	-0.28	0.07	-0.49	0.027572	-0.007076	1.006012	-0.831	-1.401	-3.156	0	177	1002	1
2026-02-11	16:24:04.950	-0.28	0.035	-0.455	0.03172	-0.008296	1.0065	-0.8235	-1.3965	-3.156	0	177	1002	1
2026-02-11	16:24:04.970	-0.28	0.07	-0.49	0.03416	-0.011712	1.004792	-0.825	-1.4025	-3.1605	0	177	1002	1
2026-02-11	16:24:04.990	-0.28	0.07	-0.49	0.032452	-0.008296	1.008208	-0.8295	-1.4025	-3.1635	0	177	1002	1
2026-02-11	16:24:05.010	-0.28	0.07	-0.49	0.027084	-0.010248	1.0065	-0.822	-1.401	-3.162	0	148	1009	1
2026-02-11	16:24:05.030	-0.28	0.035	-0.49	0.03172	-0.008296	1.006744	-0.837	-1.395	-3.162	0	148	1009	1
2026-02-11	16:24:05.050	-0.315	0.07	-0.49	0.033916	-0.011712	1.009916	-0.8265	-1.3965	-3.15	0	148	1009	1
2026-02-11	16:24:05.070	-0.28	0.07	-0.455	0.029524	-0.005368	1.00406	-0.8265	-1.3965	-3.15	0	148	1009	1
2026-02-11	16:24:05.090	-0.28	0.07	-0.455	0.03416	-0.008052	1.008208	-0.8325	-1.3965	-3.1575	0	148	1009	1
2026-02-11	16:24:05.110	-0.28	0.035	-0.49	0.034404	-0.012932	1.005768	-0.837	-1.398	-3.162	0	148	1009	1
2026-02-11	16:24:05.130	-0.28	0.07	-0.49	0.030256	-0.008296	1.008452	-0.8325	-1.401	-3.156	0	148	1009	1
2026-02-11	16:24:05.150	-0.315	0.07	-0.455	0.031964	-0.008052	1.006256	-0.8265	-1.401	-3.156	0	148	1009	1
2026-02-11	16:24:05.170	-0.28	0.035	-0.49	0.030256	-0.009272	1.005036	-0.828	-1.3995	-3.1605	0	148	1009	1
2026-02-11	16:24:05.190	-0.28	0.07	-0.49	0.03172	-0.00732	1.006988	-0.8295	-1.398	-3.159	0	148	1009	1
2026-02-11	16:24:05.210	-0.28	0.07	-0.49	0.033672	-0.007076	1.006012	-0.831	-1.3965	-3.1575	0	124	1015	1
2026-02-11	16:24:05.230	-0.315	0.07	-0.49	0.032208	-0.008296	1.005524	-0.8295	-1.3935	-3.159	0	124	1015	1
2026-02-11	16:24:05.250	-0.315	0.07	-0.525	0.031232	-0.00976	1.009916	-0.8265	-1.3935	-3.162	0	124	1015	1
2026-02-11	16:24:05.270	-0.28	0.035	-0.455	0.030988	-0.007564	1.006256	-0.825	-1.401	-3.1605	0	124	1015	1
2026-02-11	16:24:05.290	-0.28	0.105	-0.525	0.032696	-0.00854	1.009916	-0.8235	-1.4055	-3.1575	0	124	1015	1
2026-02-11	16:24:05.310	-0.28	0.07	-0.49	0.03172	-0.007564	1.009916	-0.825	-1.4055	-3.1605	0	124	1015	1
2026-02-11	16:24:05.330	-0.28	0.455	-0.49	0.025132	-0.00854	0.996496	-0.828	-1.4055	-3.1635	0	124	1015	1
2026-02-11	16:24:05.350	-0.245	0	-0.49	0.02074	-0.008296	1.017968	-0.828	-1.4055	-3.1635	0	124	1015	1
2026-02-11	16:24:05.370	-0.28	0.175	-0.455	0.032452	-0.007808	0.99796	-0.8265	-1.3965	-3.165	0	124	1015	1
2026-02-11	16:24:05.390	-0.245	-0.14	-0.49	0.036844	-0.008296	1.012112	-0.8295	-1.3965	-3.1635	0	124	1015	1
2026-02-11	16:24:05.410	-0.28	0.14	-0.49	0.035868	-0.006344	1.00772	-0.8325	-1.401	-3.1635	0	104	1019	1
2026-02-11	16:24:05.430	-0.28	-0.105	-0.525	0.034404	-0.00976	1.00528	-0.8325	-1.404	-3.159	0	104	1019	1
2026-02-11	16:24:05.450	-0.28	-0.105	-0.49	0.037088	-0.008784	1.007476	-0.8325	-1.398	-3.1545	0	104	1019	1
2026-02-11	16:24:05.470	-0.315	-0.14	-0.455	0.033672	-0.010492	1.005036	-0.831	-1.3995	-3.159	0	104	1019	1
2026-02-11	16:24:05.490	-0.245	-0.07	-0.455	0.031476	-0.007564	1.006012	-0.8265	-1.4025	-3.1635	0	104	1019	1
2026-02-11	16:24:05.510	-0.245	0.07	-0.49	0.0305	-0.01098	1.007476	-0.8265	-1.401	-3.165	0	104	1019	1
2026-02-11	16:24:05.530	-0.245	0.07	-0.49	0.033672	-0.006832	1.011136	-0.8325	-1.3995	-3.1665	0	104	1019	1
2026-02-11	16:24:05.550	-0.315	0	-0.525	0.033428	-0.008296	1.008208	-0.834	-1.3995	-3.165	0	104	1019	1
2026-02-11	16:24:05.570	-0.28	0.035	-0.455	0.031476	-0.009516	1.004792	-0.8295	-1.3995	-3.165	0	104	1019	1
2026-02-11	16:24:05.590	-0.28	0.105	-0.49	0.035136	-0.009272	1.004548	-0.8265	-1.398	-3.1605	0	104	1019	1
2026-02-11	16:24:05.610	-0.28	0.14	-0.49	0.032208	-0.009272	1.009672	-0.8265	-1.398	-3.159	0	88	1021	1
2026-02-11	16:24:05.630	-0.28	0.105	-0.455	0.02806	-0.010736	1.008696	-0.8325	-1.404	-3.165	0	88	1021	1
2026-02-11	16:24:05.650	-0.28	0.035	-0.49	0.032452	-0.00732	1.00894	-0.828	-1.41	-3.1665	0	88	1021	1
2026-02-11	16:24:05.670	-0.28	0	-0.49	0.030988	-0.00732	1.007964	-0.837	-1.401	-3.174	0	88	1021	1
2026-02-11	16:24:05.690	-0.35	0.07	-0.49	0.03416	-0.01098	1.008696	-0.834	-1.404	-3.162	0	88	1021	1
2026-02-11	16:24:05.710	-0.28	0.07	-0.49	0.035868	-0.009028	1.006988	-0.8235	-1.395	-3.1575	0	88	1021	1
2026-02-11	16:24:05.730	-0.28	0.105	-0.49	0.0305	-0.009516	1.008452	-0.834	-1.404	-3.159	0	88	1021	1
2026-02-11	16:24:05.750	-0.315	0.105	-0.49	0.027816	-0.004636	1.009916	-0.8325	-1.398	-3.159	0	88	1021	1
2026-02-11	16:24:05.770	-0.28	0.035	-0.455	0.030256	-0.011224	1.00772	-0.828	-1.401	-3.1605	0	88	1021	1
2026-02-11	16:24:05.790	-0.315	0.035	-0.49	0.034648	-0.009028	1.003572	-0.8325	-1.3965	-3.156	0	88	1021	1
2026-02-11	16:24:05.810	-0.28	0.07	-0.455	0.0305	-0.009028	1.010404	-0.834	-1.4055	-3.159	0	75	1024	1
2026-02-11	16:24:05.830	-0.315	0.035	-0.49	0.029768	-0.007076	1.005036	-0.825	-1.398	-3.1605	0	75	1024	1
2026-02-11	16:24:05.850	-0.315	0	-0.49	0.031476	-0.010004	1.007964	-0.8235	-1.3965	-3.165	0	75	1024	1
2026-02-11	16:24:05.870	-0.28	0	-0.525	0.033428	-0.011468	1.00894	-0.8325	-1.4025	-3.156	0	75	1024	1
2026-02-11	16:24:05.890	-0.315	-0.035	-0.49	0.033184	-0.006832	1.006256	-0.834	-1.404	-3.1545	0	75	1024	1
2026-02-11	16:24:05.910	-0.315	-0.07	-0.49	0.032696	-0.007564	1.007232	-0.8325	-1.404	-3.153	0	75	1024	1
2026-02-11	16:24:05.930	-0.35	-0.07	-0.525	0.034648	-0.010248	1.011136	-0.828	-1.4025	-3.1575	0	75	1024	1
2026-02-11	16:24:05.950	-0.35	-0.105	-0.49	0.030744	-0.00732	1.008208	-0.8265	-1.404	-3.1635	0	75	1024	1
2026-02-11	16:24:05.970	-0.35	-0.14	-0.49	0.033672	-0.002684	1.005768	-0.828	-1.3995	-3.159	0	75	1024	1
2026-02-11	16:24:05.990	-0.35	-0.14	-0.455	0.034404	-0.005856	1.007232	-0.828	-1.3965	-3.153	0	75	1024	1
2026-02-11	16:24:06.010	-0.385	-0.21	-0.49	0.031232	-0.009516	1.01016	-0.8265	-1.4025	-3.153	0	65	1025	1
2026-02-11	16:24:06.030	-0.385	-0.21	-0.49	0.033672	-0.00854	1.00772	-0.8265	-1.4025	-3.153	0	65	1025	1
2026-02-11	16:24:06.050	-0.35	-0.245	-0.49	0.030744	-0.007808	1.008208	-0.825	-1.401	-3.1605	0	65	1025	1
2026-02-11	16:24:06.070	-0.35	-0.175	-0.49	0.033916	-0.009516	1.004548	-0.8295	-1.404	-3.1605	0	65	1025	1
2026-02-11	16:24:06.090	-0.35	-0.175	-0.455	0.032696	-0.009028	1.008696	-0.828	-1.404	-3.156	0	65	1025	1
2026-02-11	16:24:06.110	-0.315	-0.105	-0.49	0.034404	-0.011468	1.001376	-0.831	-1.401	-3.1545	0	65	1025	1
2026-02-11	16:24:06.130	-0.28	0	-0.49	0.035136	-0.008052	1.00772	-0.831	-1.395	-3.1545	0	65	1025	1
2026-02-11	16:24:06.150	-0.28	0.07	-0.49	0.032208	-0.010004	1.005036	-0.831	-1.395	-3.1545	0	65	1025	1
2026-02-11	16:24:06.170	-0.28	0.105	-0.49	0.029768	-0.010248	1.005768	-0.8295	-1.3965	-3.153	0	65	1025	1
2026-02-11	16:24:06.190	-0.28	0.07	-0.49	0.032208	-0.006344	1.00772	-0.828	-1.401	-3.153	0	65	1025	1
2026-02-11	16:24:06.210	-0.28	0.035	-0.525	0.032452	-0.01098	1.00894	-0.8295	-1.404	-3.156	0	56	1027	1
2026-02-11	16:24:06.230	-0.315	0.035	-0.49	0.027816	-0.010004	1.006744	-0.828	-1.398	-3.1545	0	56	1027	1
2026-02-11	16:24:06.250	-0.28	0.035	-0.455	0.035136	-0.010736	1.007232	-0.8235	-1.395	-3.1515	0	56	1027	1
2026-02-11	16:24:06.270	-0.315	0.035	-0.49	0.035624	-0.010736	1.006988	-0.825	-1.3995	-3.15	0	56	1027	1
2026-02-11	16:24:06.290	-0.28	0.035	-0.49	0.02928	-0.009272	1.009184	-0.8235	-1.401	-3.1515	0	56	1027	1
2026-02-11	16:24:06.310	-0.28	0.035	-0.49	0.031232	-0.008052	1.011136	-0.8265	-1.395	-3.153	0	56	1027	1
2026-02-11	16:24:06.330	-0.315	0.07	-0.49	0.033184	-0.007808	1.008696	-0.828	-1.392	-3.1515	0	56	1027	1
2026-02-11	16:24:06.350	-0.245	0.07	-0.49	0.036112	-0.010004	1.009184	-0.8265	-1.3965	-3.1515	0	56	1027	1
2026-02-11	16:24:06.370	-0.28	0.105	-0.525	0.033184	-0.012444	1.007964	-0.831	-1.392	-3.1575	0	56	1027	1
2026-02-11	16:24:06.390	-0.28	0.07	-0.49	0.035624	-0.0061	1.005524	-0.8295	-1.395	-3.1575	0	56	1027	1
2026-02-11	16:24:06.410	-0.245	0.07	-0.455	0.03538	-0.010004	1.009184	-0.8235	-1.401	-3.153	0	48	1028	1
2026-02-11	16:24:06.430	-0.28	0.035	-0.49	0.03538	-0.010736	1.006012	-0.8235	-1.401	-3.153	0	48	1028	1
2026-02-11	16:24:06.450	-0.28	0.035	-0.49	0.03294	-0.00854	1.006988	-0.828	-1.4055	-3.1545	0	48	1028	1
2026-02-11	16:24:06.470	-0.28	0.035	-0.49	0.032452	-0.008052	1.009428	-0.822	-1.4055	-3.1515	0	48	1028	1
2026-02-11	16:24:06.490	-0.315	0.07	-0.49	0.034648	-0.00976	1.00772	-0.828	-1.4025	-3.1575	0	48	1028	1
2026-02-11	16:24:06.510	-0.28	0.035	-0.49	0.033184	-0.009272	1.004548	-0.8265	-1.398	-3.156	0	48	1028	1
2026-02-11	16:24:06.530	-0.315	0.07	-0.455	0.035136	-0.007076	1.005524	-0.8265	-1.3965	-3.1515	0	48	1028	1
2026-02-11	16:24:06.550	-0.28	0.105	-0.455	0.033672	-0.009516	1.010892	-0.8265	-1.398	-3.1485	0	48	1028	1
2026-02-11	16:24:06.570	-0.315	0.07	-0.49	0.031964	-0.009272	1.00528	-0.8265	-1.4025	-3.1485	0	48	1028	1
2026-02-11	16:24:06.590	-0.28	0.105	-0.455	0.02806	-0.006588	1.007232	-0.8235	-1.3995	-3.1515	0	48	1028	1
2026-02-11	16:24:06.610	-0.28	0.07	-0.49	0.036112	-0.011468	1.0065	-0.8235	-1.401	-3.1575	0	41	1028	1
2026-02-11	16:24:06.630	-0.28	0.035	-0.455	0.030012	-0.00732	1.003572	-0.828	-1.4025	-3.1575	0	41	1028	1
2026-02-11	16:24:06.650	-0.315	0.07	-0.49	0.035624	-0.01098	1.009916	-0.831	-1.3995	-3.156	0	41	1028	1
2026-02-11	16:24:06.670	-0.315	0.07	-0.525	0.030744	-0.010004	1.006988	-0.8325	-1.401	-3.156	0	41	1028	1
2026-02-11	16:24:06.690	-0.245	0	-0.49	0.033672	-0.008052	1.00406	-0.834	-1.4025	-3.1575	0	41	1028	1
2026-02-11	16:24:06.710	-0.315	0.035	-0.49	0.034404	-0.006588	1.007964	-0.828	-1.3965	-3.1605	0	41	1028	1
2026-02-11	16:24:06.730	-0.28	0.105	-0.49	0.03416	-0.011956	1.008696	-0.828	-1.401	-3.1635	0	41	1028	1
2026-02-11	16:24:06.750	-0.28	0.07	-0.455	0.034892	-0.010492	1.009428	-0.828	-1.395	-3.147	0	41	1028	1
2026-02-11	16:24:06.770	-0.28	0.07	-0.49	0.033916	-0.008784	1.004304	-0.828	-1.3995	-3.159	0	41	1028	1
2026-02-11	16:24:06.790	-0.28	0.07	-0.455	0.033916	-0.008052	1.013088	-0.828	-1.3995	-3.159	0	41	1028	1
2026-02-11	16:24:06.810	-0.315	0.105	-0.49	0.032208	-0.0122	1.008208	-0.8145	-1.4055	-3.1545	0	36	1029	1
2026-02-11	16:24:06.830	-0.28	0	-0.525	0.03294	-0.01098	1.005036	-0.8325	-1.398	-3.1605	0	36	1029	1
2026-02-11	16:24:06.850	-0.245	0.07	-0.49	0.038308	-0.007076	1.006744	-0.828	-1.41	-3.15	0	36	1029	1
2026-02-11	16:24:06.870	-0.35	0.07	-0.49	0.029524	-0.011224	1.007232	-0.825	-1.4025	-3.1545	0	36	1029	1
2026-02-11	16:24:06.890	-0.28	0.07	-0.49	0.033428	-0.009028	1.007232	-0.8325	-1.401	-3.1635	0	36	1029	1
2026-02-11	16:24:06.910	-0.315	0.07	-0.455	0.034892	-0.010492	1.007964	-0.8235	-1.3965	-3.156	0	36	1029	1
2026-02-11	16:24:06.930	-0.28	0.07	-0.49	0.034404	-0.010492	1.004548	-0.831	-1.407	-3.1545	0	36	1029	1
2026-02-11	16:24:06.950	-0.28	0.105	-0.455	0.032696	-0.00976	1.006988	-0.8235	-1.3995	-3.1485	0	36	1029	1
2026-02-11	16:24:06.970	-0.28	0.07	-0.455	0.03538	-0.007076	1.0065	-0.8265	-1.3995	-3.15	0	36	1029	1
2026-02-11	16:24:06.990	-0.28	0.035	-0.49	0.031476	-0.011224	1.006744	-0.8295	-1.4025	-3.153	0	36	1029	1
2026-02-11	16:24:07.010	-0.28	0.07	-0.455	0.035136	-0.00854	1.008452	-0.828	-1.3995	-3.153	0	31	1029	1
2026-02-11	16:24:07.030	-0.315	0.035	-0.525	0.029036	-0.008784	1.0065	-0.825	-1.395	-3.1575	0	31	1029	1
2026-02-11	16:24:07.050	-0.28	0.07	-0.49	0.032452	-0.007564	1.006744	-0.8265	-1.4025	-3.159	0	31	1029	1
2026-02-11	16:24:07.070	-0.28	0.07	-0.455	0.03416	-0.011468	1.012356	-0.8295	-1.4055	-3.156	0	31	1029	1
2026-02-11	16:24:07.090	-0.315	0.07	-0.49	0.032452	-0.010248	1.006012	-0.8265	-1.404	-3.1545	0	31	1029	1
2026-02-11	16:24:07.110	-0.28	0.035	-0.455	0.030988	-0.006588	1.005768	-0.834	-1.404	-3.156	0	31	1029	1
2026-02-11	16:24:07.130	-0.28	0.105	-0.49	0.031476	-0.008052	1.006988	-0.828	-1.4025	-3.153	0	31	1029	1
2026-02-11	16:24:07.150	-0.28	0.105	-0.455	0.036112	-0.010736	1.008208	-0.822	-1.4025	-3.147	0	31	1029	1
2026-02-11	16:24:07.170	-0.28	0.035	-0.455	0.032696	-0.00854	1.005036	-0.8175	-1.3995	-3.147	0	31	1029	1
2026-02-11	16:24:07.190	-0.28	0.035	-0.455	0.030988	-0.011468	1.007964	-0.831	-1.4085	-3.153	0	31	1029	1
2026-02-11	16:24:07.210	-0.28	0.07	-0.49	0.035868	-0.010004	1.00772	-0.8295	-1.3935	-3.1575	0	27	1029	1
2026-02-11	16:24:07.230	-0.315	0.07	-0.49	0.031232	-0.010004	1.0065	-0.8295	-1.3935	-3.1575	0	27	1029	1
2026-02-11	16:24:07.250	-0.315	0.035	-0.49	0.033672	-0.010736	1.006988	-0.8235	-1.395	-3.153	0	27	1029	1
2026-02-11	16:24:07.270	-0.315	0.07	-0.49	0.031964	-0.011712	1.006988	-0.828	-1.4025	-3.156	0	27	1029	1
2026-02-11	16:24:07.290	-0.28	0.105	-0.49	0.034648	-0.00976	1.007232	-0.834	-1.404	-3.156	0	27	1029	1
2026-02-11	16:24:07.310	-0.315	0.07	-0.49	0.031232	-0.008052	1.007232	-0.8295	-1.4025	-3.153	0	27	1029	1
2026-02-11	16:24:07.330	-0.28	0.07	-0.455	0.032696	-0.004636	1.006988	-0.8295	-1.404	-3.1575	0	27	1029	1
2026-02-11	16:24:07.350	-0.245	0.07	-0.49	0.033428	-0.008052	1.005768	-0.831	-1.4025	-3.153	0	27	1029	1
2026-02-11	16:24:07.370	-0.245	0.07	-0.455	0.03172	-0.006344	1.008452	-0.8325	-1.401	-3.1485	0	27	1029	1
2026-02-11	16:24:07.390	-0.28	0.07	-0.49	0.032208	-0.010248	1.007232	-0.834	-1.4025	-3.1455	0	27	1029	1
2026-02-11	16:24:07.410	-0.315	0.07	-0.455	0.03416	-0.011956	1.007964	-0.831	-1.404	-3.1485	0	24	1029	1
2026-02-11	16:24:07.430	-0.28	0.035	-0.455	0.035868	-0.007808	1.00772	-0.8265	-1.4025	-3.1545	0	24	1029	1
2026-02-11	16:24:07.450	-0.28	0.035	-0.525	0.0305	-0.00976	1.007964	-0.8295	-1.401	-3.159	0	24	1029	1
2026-02-11	16:24:07.470	-0.315	0.07	-0.49	0.034892	-0.010736	1.01138	-0.831	-1.401	-3.1575	0	24	1029	1
2026-02-11	16:24:07.490	-0.315	0.07	-0.525	0.032208	-0.010736	1.00772	-0.8265	-1.401	-3.1545	0	24	1029	1
2026-02-11	16:24:07.510	-0.28	0.105	-0.49	0.032452	-0.009516	1.005524	-0.8265	-1.401	-3.1545	0	24	1029	1
2026-02-11	16:24:07.530	-0.245	0.07	-0.455	0.03416	-0.008296	1.010404	-0.8325	-1.3995	-3.156	0	24	1029	1
2026-02-11	16:24:07.550	-0.315	0.035	-0.49	0.033916	-0.009272	1.006012	-0.828	-1.4025	-3.1605	0	24	1029	1
2026-02-11	16:24:07.570	-0.28	0.035	-0.49	0.033428	-0.01098	1.006988	-0.8325	-1.395	-3.153	0	24	1029	1
2026-02-11	16:24:07.590	-0.28	0.035	-0.49	0.030988	-0.007564	1.007232	-0.8265	-1.398	-3.165	0	24	1029	1
2026-02-11	16:24:07.610	-0.28	0.07	-0.49	0.034404	-0.009028	1.00528	-0.834	-1.4025	-3.1575	0	20	1029	1
2026-02-11	16:24:07.630	-0.28	0.035	-0.49	0.030988	-0.00732	1.00772	-0.831	-1.3995	-3.1605	0	20	1029	1
2026-02-11	16:24:07.650	-0.315	0.07	-0.525	0.036112	-0.010736	1.009184	-0.8295	-1.404	-3.153	0	20	1029	1
2026-02-11	16:24:07.670	-0.28	0.035	-0.455	0.032452	-0.010248	1.005524	-0.831	-1.404	-3.1515	0	20	1029	1
2026-02-11	16:24:07.690	-0.245	0.07	-0.49	0.031476	-0.007564	1.00894	-0.8295	-1.4025	-3.147	0	20	1029	1
2026-02-11	16:24:07.710	-0.28	0.07	-0.49	0.03294	-0.00976	1.0065	-0.8265	-1.401	-3.15	0	20	1029	1
2026-02-11	16:24:07.730	-0.28	0.07	-0.49	0.034892	-0.009028	1.007476	-0.828	-1.3995	-3.1575	0	20	1029	1
2026-02-11	16:24:07.750	-0.28	0.105	-0.49	0.033916	-0.009516	1.007232	-0.8325	-1.398	-3.1575	0	20	1029	1
2026-02-11	16:24:07.770	-0.28	0.07	-0.49	0.030988	-0.006588	1.006988	-0.834	-1.3995	-3.159	0	20	1029	1
2026-02-11	16:24:07.790	-0.28	0.07	-0.49	0.033428	-0.009272	1.006256	-0.8265	-1.407	-3.159	0	20	1029	1
2026-02-11	16:24:07.810	-0.28	0.035	-0.525	0.031964	-0.010248	1.006256	-0.8265	-1.3995	-3.15	0	18	1030	1
2026-02-11	16:24:07.830	-0.245	0.035	-0.525	0.034404	-0.01098	1.00528	-0.8295	-1.407	-3.1515	0	18	1030	1
2026-02-11	16:24:07.850	-0.28	0.07	-0.49	0.036844	-0.009272	1.005768	-0.831	-1.395	-3.1605	0	18	1030	1
2026-02-11	16:24:07.870	-0.28	0.07	-0.49	0.033672	-0.007076	1.007476	-0.8295	-1.407	-3.1635	0	18	1030	1
2026-02-11	16:24:07.890	-0.28	0.07	-0.49	0.033428	-0.006344	1.00772	-0.828	-1.3935	-3.1545	0	18	1030	1
2026-02-11	16:24:07.910	-0.315	0.07	-0.525	0.035136	-0.009516	1.006012	-0.828	-1.3965	-3.156	0	18	1030	1
2026-02-11	16:24:07.930	-0.28	0.07	-0.525	0.033428	-0.010248	1.006256	-0.8175	-1.3965	-3.153	0	18	1030	1
2026-02-11	16:24:07.950	-0.315	0.035	-0.525	0.031964	-0.00854	1.006988	-0.8385	-1.3965	-3.1575	0	18	1030	1
2026-02-11	16:24:07.970	-0.28	0.07	-0.49	0.033184	-0.010004	1.006012	-0.8355	-1.4025	-3.1575	0	18	1030	1
2026-02-11	16:24:07.990	-0.315	0.035	-0.49	0.032452	-0.009272	1.003816	-0.8295	-1.4055	-3.165	0	18	1030	1
2026-02-11	16:24:08.010	-0.28	0.07	-0.525	0.034648	-0.009516	1.007232	-0.831	-1.3995	-3.156	0	15	1030	1
2026-02-11	16:24:08.030	-0.245	0.07	-0.49	0.033916	-0.006832	1.008696	-0.8295	-1.3995	-3.156	0	15	1030	1
2026-02-11	16:24:08.050	-0.28	0.07	-0.49	0.033184	-0.008052	1.006744	-0.8325	-1.3995	-3.1575	0	15	1030	1
2026-02-11	16:24:08.070	-0.28	0.035	-0.455	0.03538	-0.010248	1.005768	-0.8415	-1.401	-3.162	0	15	1030	1
2026-02-11	16:24:08.090	-0.245	0.07	-0.49	0.035136	-0.008296	1.007476	-0.8355	-1.401	-3.1635	0	15	1030	1
2026-02-11	16:24:08.110	-0.245	0.14	-0.49	0.032696	-0.00732	1.008696	-0.831	-1.3995	-3.1575	0	15	1030	1
2026-02-11	16:24:08.130	-0.315	0.07	-0.49	0.030988	-0.007808	1.006256	-0.831	-1.3965	-3.153	0	15	1030	1
2026-02-11	16:24:08.150	-0.28	0.035	-0.49	0.030012	-0.007564	1.005524	-0.831	-1.3965	-3.156	0	15	1030	1
2026-02-11	16:24:08.170	-0.245	0.07	-0.525	0.034892	-0.010004	1.007964	-0.8325	-1.401	-3.1605	0	15	1030	1
2026-02-11	16:24:08.190	-0.28	0.07	-0.49	0.03294	-0.00732	1.008208	-0.8265	-1.404	-3.1605	0	15	1030	1
2026-02-11	16:24:08.210	-0.28	0.105	-0.49	0.033916	-0.008784	1.009672	-0.8235	-1.4055	-3.159	0	13	1030	1
2026-02-11	16:24:08.230	-0.28	0.07	-0.49	0.030744	-0.005856	1.008696	-0.8295	-1.3995	-3.153	0	13	1030	1
2026-02-11	16:24:08.250	-0.28	0	-0.455	0.0366	-0.012444	1.002352	-0.8265	-1.3995	-3.156	0	13	1030	1
2026-02-11	16:24:08.270	-0.245	0.07	-0.49	0.034648	-0.00732	1.005524	-0.8295	-1.4085	-3.1605	0	13	1030	1
2026-02-11	16:24:08.290	-0.21	0.14	-0.525	0.032208	-0.00854	1.009184	-0.8295	-1.3965	-3.1575	0	13	1030	1
2026-02-11	16:24:08.310	-0.245	0.14	-0.49	0.030988	-0.00976	0.994056	-0.8295	-1.3965	-3.1575	0	13	1030	1
2026-02-11	16:24:08.330	-0.105	0.245	-0.525	0.033916	-0.003172	1.026508	-0.8295	-1.3965	-3.162	0	13	1030	1
2026-02-11	16:24:08.350	-0.42	0.14	-0.455	0.027084	-0.009516	1.014796	-0.828	-1.398	-3.168	0	13	1030	1
2026-02-11	16:24:08.370	-0.385	-0.21	-0.49	0.035136	-0.0122	0.986248	-0.8265	-1.401	-3.168	0	13	1030	1
2026-02-11	16:24:08.390	-0.175	0.175	-0.49	0.036844	-0.009272	1.00528	-0.8295	-1.398	-3.162	0	13	1030	1
2026-02-11	16:24:08.410	-0.21	0.14	-0.49	0.03782	-0.011712	1.012844	-0.834	-1.395	-3.159	0	12	1030	1
2026-02-11	16:24:08.430	-0.315	0.105	-0.49	0.030744	-0.011956	1.000156	-0.8325	-1.398	-3.162	0	12	1030	1
2026-02-11	16:24:08.450	-0.21	0.14	-0.49	0.02806	-0.008052	1.006744	-0.828	-1.401	-3.165	0	12	1030	1
2026-02-11	16:24:08.470	-0.175	0.245	-0.49	0.035136	-0.005612	1.020408	-0.8265	-1.398	-3.1605	0	12	1030	1
2026-02-11	16:24:08.490	-0.315	0	-0.455	0.037576	-0.007808	1.005768	-0.8295	-1.398	-3.156	0	12	1030	1
2026-02-11	16:24:08.510	-0.315	0.035	-0.49	0.034404	-0.009028	0.996252	-0.831	-1.401	-3.162	0	12	1030	1
2026-02-11	16:24:08.530	-0.14	0.21	-0.49	0.035624	-0.009272	1.013332	-0.8325	-1.398	-3.159	0	12	1030	1
2026-02-11	16:24:08.550	-0.21	0.175	-0.49	0.029036	-0.005612	1.01504	-0.831	-1.401	-3.156	0	12	1030	1
2026-02-11	16:24:08.570	-0.28	0.07	-0.525	0.031476	-0.00976	1.00406	-0.828	-1.4025	-3.1575	0	12	1030	1
2026-02-11	16:24:08.590	-0.28	0	-0.49	0.0366	-0.0122	1.001376	-0.8295	-1.401	-3.1575	0	12	1030	1
2026-02-11	16:24:08.610	-0.175	0.14	-0.49	0.035868	-0.0061	1.014552	-0.8235	-1.395	-3.162	0	11	1030	1
2026-02-11	16:24:08.630	-0.315	0.14	-0.49	0.0305	-0.006344	1.006012	-0.837	-1.3995	-3.1605	0	11	1030	1
2026-02-11	16:24:08.650	-0.315	0.035	-0.455	0.031964	-0.007808	1.011624	-0.84	-1.3965	-3.156	0	11	1030	1
2026-02-11	16:24:08.670	-0.35	0	-0.455	0.027816	-0.011468	1.007964	-0.8295	-1.395	-3.162	0	11	1030	1
2026-02-11	16:24:08.690	-0.315	0	-0.49	0.035624	-0.006832	1.005524	-0.825	-1.398	-3.168	0	11	1030	1
2026-02-11	16:24:08.710	-0.315	0.07	-0.49	0.036112	-0.012688	1.001864	-0.8325	-1.3995	-3.162	0	11	1030	1
2026-02-11	16:24:08.730	-0.315	0.105	-0.49	0.02928	-0.00854	1.005768	-0.8295	-1.398	-3.162	0	11	1030	1
2026-02-11	16:24:08.750	-0.28	0.105	-0.455	0.03294	-0.00854	1.014796	-0.828	-1.401	-3.159	0	11	1030	1
2026-02-11	16:24:08.770	-0.315	0	-0.49	0.033916	-0.010736	1.005036	-0.828	-1.404	-3.1545	0	11	1030	1
2026-02-11	16:24:08.790	-0.245	0.035	-0.49	0.036112	-0.006588	1.004548	-0.828	-1.404	-3.1575	0	11	1030	1
2026-02-11	16:24:08.810	-0.28	0.14	-0.49	0.032696	-0.011956	1.001864	-0.8235	-1.3995	-3.156	0	10	1030	1
2026-02-11	16:24:08.830	-0.245	0.175	-0.455	0.03172	-0.008784	1.008696	-0.825	-1.398	-3.1575	0	10	1030	1
2026-02-11	16:24:08.850	-0.315	0.035	-0.49	0.03416	-0.006588	1.014064	-0.828	-1.401	-3.165	0	10	1030	1
2026-02-11	16:24:08.870	-0.35	-0.035	-0.49	0.035136	-0.01098	0.993324	-0.8355	-1.401	-3.1635	0	10	1030	1
2026-02-11	16:24:08.890	-0.21	0.14	-0.49	0.032452	-0.00976	1.016504	-0.828	-1.401	-3.1545	0	10	1030	1
2026-02-11	16:24:08.910	-0.315	0.14	-0.49	0.029768	-0.008052	1.009428	-0.831	-1.3995	-3.159	0	10	1030	1
2026-02-11	16:24:08.930	-0.315	0	-0.49	0.033428	-0.00732	0.994788	-0.8265	-1.4085	-3.1575	0	10	1030	1
2026-02-11	16:24:08.950	-0.175	0.105	-0.49	0.03538	-0.007076	1.017724	-0.8295	-1.398	-3.171	0	10	1030	1
2026-02-11	16:24:08.970	-0.315	0.07	-0.49	0.035868	-0.007564	1.01504	-0.8235	-1.4025	-3.1515	0	10	1030	1
2026-02-11	16:24:08.990	-0.42	-0.105	-0.455	0.03294	-0.008784	0.993812	-0.8325	-1.3995	-3.156	0	10	1030	1
2026-02-11	16:24:09.010	-0.245	0.07	-0.49	0.03782	-0.008052	1.00406	-0.828	-1.395	-3.162	0	9	1030	1
2026-02-11	16:24:09.030	-0.245	0.14	-0.525	0.037088	-0.00976	1.017724	-0.822	-1.398	-3.159	0	9	1030	1
2026-02-11	16:24:09.050	-0.35	-0.035	-0.49	0.03782	-0.010492	1.009916	-0.84	-1.404	-3.165	0	9	1030	1
2026-02-11	16:24:09.070	-0.35	0	-0.455	0.026108	-0.007564	1.004792	-0.8295	-1.3965	-3.1545	0	9	1030	1
2026-02-11	16:24:09.090	-0.315	0.035	-0.455	0.033672	-0.006588	1.01382	-0.822	-1.41	-3.1575	0	9	1030	1
2026-02-11	16:24:09.110	-0.385	-0.105	-0.455	0.034648	-0.010004	1.00406	-0.8295	-1.4025	-3.1665	0	9	1030	1
2026-02-11	16:24:09.130	-0.35	0	-0.455	0.0366	-0.01098	1.002596	-0.828	-1.401	-3.1635	0	9	1030	1
2026-02-11	16:24:09.150	-0.315	0.07	-0.49	0.032208	-0.007564	1.007964	-0.8295	-1.398	-3.1575	0	9	1030	1
2026-02-11	16:24:09.170	-0.28	0.105	-0.455	0.031476	-0.005368	1.012356	-0.8355	-1.3995	-3.1575	0	9	1030	1
2026-02-11	16:24:09.190	-0.315	0	-0.49	0.036356	-0.0061	1.004548	-0.8415	-1.404	-3.162	0	9	1030	1
2026-02-11	16:24:09.210	-0.315	-0.035	-0.525	0.040016	-0.010004	0.998448	-0.84	-1.4025	-3.1605	0	9	1030	1
2026-02-11	16:24:09.230	-0.245	0.105	-0.49	0.0366	-0.007564	1.009184	-0.834	-1.3965	-3.1575	0	9	1030	1
2026-02-11	16:24:09.250	-0.28	0.175	-0.455	0.029768	-0.005856	1.014064	-0.831	-1.3965	-3.1545	0	9	1030	1
2026-02-11	16:24:09.270	-0.315	0.035	-0.455	0.029768	-0.012688	1.00894	-0.8295	-1.3935	-3.1575	0	9	1030	1
2026-02-11	16:24:09.290	-0.245	0	-0.525	0.036844	-0.006832	1.003328	-0.8295	-1.392	-3.1575	0	9	1030	1
2026-02-11	16:24:09.310	-0.28	0.07	-0.525	0.036356	-0.010736	1.009672	-0.831	-1.395	-3.156	0	9	1030	1
2026-02-11	16:24:09.330	-0.28	0.07	-0.525	0.033428	-0.00976	1.005036	-0.828	-1.3995	-3.1635	0	9	1030	1
2026-02-11	16:24:09.350	-0.28	0.07	-0.49	0.029524	-0.010492	1.010648	-0.834	-1.398	-3.1575	0	9	1030	1
2026-02-11	16:24:09.370	-0.315	0.035	-0.49	0.029768	-0.007564	1.008208	-0.828	-1.4025	-3.1605	0	9	1030	1
2026-02-11	16:24:09.390	-0.35	-0.035	-0.49	0.033184	-0.007564	1.006012	-0.828	-1.4025	-3.1605	0	9	1030	1
2026-02-11	16:24:09.410	-0.35	0	-0.49	0.03416	-0.008052	1.004304	-0.8295	-1.4055	-3.162	0	9	1030	1
2026-02-11	16:24:09.430	-0.315	0.07	-0.525	0.031964	-0.010004	1.010404	-0.8295	-1.404	-3.165	0	9	1030	1
2026-02-11	16:24:09.450	-0.315	0	-0.49	0.031476	-0.01098	1.0004	-0.825	-1.3995	-3.1635	0	9	1030	1
2026-02-11	16:24:09.470	-0.28	0.07	-0.455	0.03416	-0.00732	1.00894	-0.8265	-1.3995	-3.1635	0	9	1030	1
2026-02-11	16:24:09.490	-0.28	0.07	-0.455	0.037332	-0.010736	1.007232	-0.825	-1.401	-3.1605	0	9	1030	1
2026-02-11	16:24:09.510	-0.315	0.105	-0.49	0.032452	-0.009272	1.008452	-0.8265	-1.4025	-3.159	0	9	1030	1
2026-02-11	16:24:09.530	-0.28	0.035	-0.455	0.032452	-0.010004	1.007964	-0.8325	-1.401	-3.1575	0	9	1030	1
2026-02-11	16:24:09.550	-0.245	0.07	-0.49	0.03904	-0.01098	1.00772	-0.8325	-1.4025	-3.153	0	9	1030	1
2026-02-11	16:24:09.570	-0.315	0.07	-0.49	0.03416	-0.00854	1.004792	-0.828	-1.4025	-3.159	0	9	1030	1
2026-02-11	16:24:09.590	-0.245	0.105	-0.455	0.031476	-0.00976	1.008452	-0.828	-1.3965	-3.1665	0	9	1030	1
2026-02-11	16:24:09.610	-0.28	0.07	-0.455	0.033184	-0.007808	1.007232	-0.8325	-1.392	-3.165	0	8	1030	1
2026-02-11	16:24:09.630	-0.315	0.035	-0.49	0.03538	-0.008784	1.00528	-0.831	-1.3935	-3.1605	0	8	1030	1
2026-02-11	16:24:09.650	-0.28	0.07	-0.49	0.031964	-0.008052	1.00528	-0.8265	-1.3965	-3.1575	0	8	1030	1
2026-02-11	16:24:09.670	-0.28	0.035	-0.49	0.034648	-0.011224	1.006012	-0.8265	-1.3965	-3.1575	0	8	1030	1
2026-02-11	16:24:09.690	-0.28	0.035	-0.49	0.039772	-0.009272	1.008696	-0.8295	-1.401	-3.156	0	8	1030	1
2026-02-11	16:24:09.710	-0.245	0.14	-0.455	0.03172	-0.007808	1.013576	-0.8265	-1.398	-3.1605	0	8	1030	1
2026-02-11	16:24:09.730	-0.315	0.035	-0.49	0.03172	-0.006832	1.009184	-0.8265	-1.407	-3.1605	0	8	1030	1
2026-02-11	16:24:09.750	-0.315	0	-0.525	0.03538	-0.010492	1.002596	-0.8295	-1.4025	-3.1635	0	8	1030	1
2026-02-11	16:24:09.770	-0.245	0.105	-0.525	0.036356	-0.010736	1.007964	-0.828	-1.401	-3.159	0	8	1030	1
2026-02-11	16:24:09.790	-0.315	0.07	-0.49	0.033916	-0.008052	1.007232	-0.825	-1.401	-3.1665	0	8	1030	1
2026-02-11	16:24:09.810	-0.28	0.07	-0.49	0.02928	-0.008784	1.006988	-0.831	-1.4025	-3.15	0	8	1030	1
2026-02-11	16:24:09.830	-0.28	0.035	-0.525	0.030744	-0.007076	1.005036	-0.831	-1.398	-3.159	0	8	1030	1
2026-02-11	16:24:09.850	-0.28	0.105	-0.525	0.032452	-0.010736	1.011624	-0.828	-1.4055	-3.1485	0	8	1030	1
2026-02-11	16:24:09.870	-0.315	0	-0.49	0.0366	-0.009028	1.001376	-0.828	-1.401	-3.1515	0	8	1030	1
2026-02-11	16:24:09.890	-0.245	0.07	-0.49	0.033672	-0.010004	1.003328	-0.8295	-1.398	-3.15	0	8	1030	1
2026-02-11	16:24:09.910	-0.28	0.14	-0.49	0.034648	-0.010248	1.012844	-0.828	-1.3995	-3.1485	0	8	1030	1
2026-02-11	16:24:09.930	-0.315	-0.035	-0.49	0.034404	-0.012932	1.005768	-0.8265	-1.401	-3.153	0	8	1030	1
2026-02-11	16:24:09.950	-0.245	0	-0.49	0.034404	-0.009272	1.003816	-0.837	-1.401	-3.162	0	8	1030	1
2026-02-11	16:24:09.970	-0.245	0.175	-0.49	0.034404	-0.006832	1.013088	-0.8295	-1.4025	-3.1635	0	8	1030	1
2026-02-11	16:24:09.990	-0.315	0.07	-0.525	0.032696	-0.011712	1.00772	-0.8295	-1.3995	-3.153	0	8	1030	1
2026-02-11	16:24:10.010	-0.28	0.035	-0.49	0.031476	-0.008052	1.00772	-0.825	-1.4025	-3.156	0	7	1030	1
2026-02-11	16:24:10.030	-0.28	0.07	-0.49	0.0305	-0.008784	1.005524	-0.825	-1.401	-3.1545	0	7	1030	1
2026-02-11	16:24:10.050	-0.315	0.07	-0.525	0.03416	-0.010248	1.00894	-0.8265	-1.4025	-3.156	0	7	1030	1
2026-02-11	16:24:10.070	-0.245	0.07	-0.49	0.033672	-0.0122	1.006256	-0.8235	-1.41	-3.1695	0	7	1030	1
2026-02-11	16:24:10.090	-0.28	0.035	-0.525	0.03416	-0.010004	1.00284	-0.8235	-1.4055	-3.165	0	7	1030	1
2026-02-11	16:24:10.110	-0.28	0.07	-0.49	0.034404	-0.010004	1.007964	-0.831	-1.401	-3.159	0	7	1030	1
2026-02-11	16:24:10.130	-0.28	0.07	-0.49	0.032696	-0.008784	1.006744	-0.8265	-1.395	-3.1605	0	7	1030	1
2026-02-11	16:24:10.150	-0.245	0.035	-0.49	0.03294	-0.010492	1.007964	-0.8145	-1.404	-3.156	0	7	1030	1
2026-02-11	16:24:10.170	-0.28	0.035	-0.49	0.033672	-0.011712	0.998692	-0.834	-1.4025	-3.171	0	7	1030	1
2026-02-11	16:24:10.190	-0.315	0.14	-0.525	0.032696	-0.010004	1.011624	-0.8265	-1.398	-3.1605	0	7	1030	1
2026-02-11	16:24:10.210	-0.35	-0.035	-0.525	0.03416	-0.012444	1.002108	-0.828	-1.401	-3.156	0	7	1030	1
2026-02-11	16:24:10.230	-0.28	0.105	-0.49	0.033672	-0.011468	1.005036	-0.8265	-1.401	-3.156	0	7	1030	1
2026-02-11	16:24:10.250	-0.245	0.07	-0.49	0.034404	-0.003416	1.008208	-0.8295	-1.3995	-3.162	0	7	1030	1
2026-02-11	16:24:10.270	-0.28	0.105	-0.49	0.03416	-0.01098	1.0065	-0.8295	-1.3995	-3.162	0	7	1030	1
2026-02-11	16:24:10.290	-0.28	0	-0.455	0.03538	-0.00732	1.007232	-0.825	-1.398	-3.162	0	7	1030	1
2026-02-11	16:24:10.310	-0.245	0.105	-0.455	0.03294	-0.006588	1.006256	-0.8265	-1.395	-3.159	0	7	1030	1
2026-02-11	16:24:10.330	-0.245	0.07	-0.525	0.033916	-0.011468	1.010892	-0.828	-1.398	-3.1575	0	7	1030	1
2026-02-11	16:24:10.350	-0.245	0.07	-0.49	0.035868	-0.008296	1.007232	-0.8295	-1.3995	-3.162	0	7	1030	1
2026-02-11	16:24:10.370	-0.28	0.07	-0.49	0.035136	-0.00976	1.003572	-0.8295	-1.398	-3.159	0	7	1030	1
2026-02-11	16:24:10.390	-0.245	0.14	-0.49	0.03416	-0.01098	1.006744	-0.831	-1.395	-3.1605	0	7	1030	1
2026-02-11	16:24:10.410	-0.28	0.14	-0.455	0.030256	-0.005368	1.014064	-0.8325	-1.3935	-3.1635	0	6	1030	1
2026-02-11	16:24:10.430	-0.28	0.035	-0.49	0.033184	-0.010492	1.003816	-0.831	-1.404	-3.1665	0	6	1030	1
2026-02-11	16:24:10.450	-0.245	0.105	-0.49	0.0366	-0.008296	1.009672	-0.8385	-1.404	-3.1605	0	6	1030	1
2026-02-11	16:24:10.470	-0.245	0.14	-0.525	0.027816	-0.009516	1.009184	-0.8385	-1.404	-3.1605	0	6	1030	1
2026-02-11	16:24:10.490	-0.28	0.14	-0.49	0.032696	-0.008296	1.014796	-0.834	-1.4025	-3.1605	0	6	1030	1
2026-02-11	16:24:10.510	-0.315	0	-0.49	0.030256	-0.009516	1.006256	-0.8325	-1.3995	-3.1635	0	6	1030	1
2026-02-11	16:24:10.530	-0.28	0	-0.525	0.033428	-0.008052	1.006988	-0.8355	-1.398	-3.165	0	6	1030	1
2026-02-11	16:24:10.550	-0.315	0.07	-0.49	0.03538	-0.00976	1.003816	-0.8355	-1.3995	-3.159	0	6	1030	1
2026-02-11	16:24:10.570	-0.28	0.035	-0.49	0.03294	-0.009272	1.011136	-0.8385	-1.3995	-3.1545	0	6	1030	1
2026-02-11	16:24:10.590	-0.315	0.07	-0.49	0.029768	-0.008296	1.004548	-0.8355	-1.3995	-3.156	0	6	1030	1
2026-02-11	16:24:10.610	-0.28	0.035	-0.455	0.032696	-0.008784	1.009672	-0.8325	-1.401	-3.159	0	6	1030	1
2026-02-11	16:24:10.630	-0.315	0	-0.49	0.031232	-0.010736	1.006744	-0.828	-1.401	-3.1605	0	6	1030	1
2026-02-11	16:24:10.650	-0.28	0	-0.49	0.033916	-0.0061	0.999912	-0.8265	-1.3995	-3.159	0	6	1030	1
2026-02-11	16:24:10.670	-0.245	0.14	-0.49	0.03172	-0.005856	1.009184	-0.8265	-1.3995	-3.156	0	6	1030	1
2026-02-11	16:24:10.690	-0.28	0.14	-0.49	0.029036	-0.010004	1.012112	-0.8265	-1.395	-3.1575	0	6	1030	1
2026-02-11	16:24:10.710	-0.28	0	-0.525	0.033184	-0.00732	1.003084	-0.828	-1.395	-3.162	0	6	1030	1
2026-02-11	16:24:10.730	-0.245	0.105	-0.49	0.032696	-0.012688	1.010404	-0.828	-1.398	-3.162	0	6	1030	1
2026-02-11	16:24:10.750	-0.315	0.07	-0.49	0.036112	-0.007564	1.0065	-0.828	-1.398	-3.162	0	6	1030	1
2026-02-11	16:24:10.770	-0.28	0.07	-0.49	0.03172	-0.009272	1.009428	-0.8325	-1.395	-3.156	0	6	1030	1
2026-02-11	16:24:10.790	-0.28	0.07	-0.455	0.033916	-0.008296	1.010892	-0.8295	-1.401	-3.156	0	6	1030	1
2026-02-11	16:24:10.810	-0.315	0	-0.49	0.033916	-0.01098	1.003816	-0.8295	-1.395	-3.1635	0	5	1030	1
2026-02-11	16:24:10.830	-0.28	0	-0.49	0.034892	-0.006344	1.005036	-0.834	-1.398	-3.1635	0	5	1030	1
2026-02-11	16:24:10.850	-0.28	0.07	-0.455	0.035136	-0.0061	1.00894	-0.831	-1.395	-3.162	0	5	1030	1
2026-02-11	16:24:10.870	-0.35	0.105	-0.49	0.02806	-0.009028	1.008208	-0.831	-1.389	-3.156	0	5	1030	1
2026-02-11	16:24:10.890	-0.28	0.07	-0.49	0.031964	-0.00976	1.007232	-0.8325	-1.398	-3.156	0	5	1030	1
2026-02-11	16:24:10.910	-0.28	0.035	-0.49	0.034892	-0.010248	1.008452	-0.8265	-1.398	-3.1575	0	5	1030	1
2026-02-11	16:24:10.930	-0.315	0.035	-0.525	0.037576	-0.008296	0.998936	-0.834	-1.395	-3.1575	0	5	1030	1
2026-02-11	16:24:10.950	-0.28	0.105	-0.49	0.029036	-0.010736	1.009672	-0.8325	-1.398	-3.1575	0	5	1030	1
2026-02-11	16:24:10.970	-0.315	0.07	-0.49	0.033672	-0.008784	1.007232	-0.831	-1.398	-3.1605	0	5	1030	1
2026-02-11	16:24:10.990	-0.28	0.035	-0.49	0.03172	-0.008052	1.00528	-0.8295	-1.401	-3.162	0	5	1030	1
2026-02-11	16:24:11.010	-0.315	0.07	-0.455	0.035624	-0.007564	1.008696	-0.8295	-1.4055	-3.1605	0	5	1030	1
2026-02-11	16:24:11.030	-0.315	0.07	-0.455	0.034648	-0.010492	1.006256	-0.8325	-1.401	-3.1605	0	5	1030	1
2026-02-11	16:24:11.050	-0.315	0.035	-0.49	0.030988	-0.010004	1.007964	-0.8295	-1.404	-3.162	0	5	1030	1
2026-02-11	16:24:11.070	-0.315	0.07	-0.49	0.034404	-0.009516	1.006256	-0.8295	-1.3965	-3.1545	0	5	1030	1
2026-02-11	16:24:11.090	-0.28	0.035	-0.49	0.03172	-0.00854	1.008696	-0.819	-1.3995	-3.1545	0	5	1030	1
2026-02-11	16:24:11.110	-0.28	0.035	-0.49	0.033184	-0.010736	1.00284	-0.8295	-1.401	-3.153	0	5	1030	1
2026-02-11	16:24:11.130	-0.28	0.07	-0.49	0.036356	-0.010248	1.008696	-0.819	-1.401	-3.1575	0	5	1030	1
2026-02-11	16:24:11.150	-0.28	0.105	-0.525	0.027328	-0.005856	1.009428	-0.8265	-1.3995	-3.156	0	5	1030	1
2026-02-11	16:24:11.170	-0.315	0.035	-0.49	0.033184	-0.005856	1.008452	-0.8235	-1.3995	-3.1575	0	5	1030	1
2026-02-11	16:24:11.190	-0.245	0.035	-0.49	0.033184	-0.007076	1.008208	-0.8325	-1.3995	-3.156	0	5	1030	1
2026-02-11	16:24:11.210	-0.245	0.035	-0.455	0.034892	-0.008296	1.007232	-0.8355	-1.404	-3.156	0	5	1030	1
2026-02-11	16:24:11.230	-0.28	0.07	-0.49	0.036356	-0.00854	1.005524	-0.822	-1.4025	-3.159	0	5	1030	1
2026-02-11	16:24:11.250	-0.315	0.07	-0.49	0.031476	-0.010492	1.008208	-0.8265	-1.404	-3.1575	0	5	1030	1
2026-02-11	16:24:11.270	-0.28	0.105	-0.455	0.029524	-0.007076	1.008696	-0.834	-1.4025	-3.1515	0	5	1030	1
2026-02-11	16:24:11.290	-0.28	0.035	-0.455	0.034404	-0.006588	1.00894	-0.828	-1.401	-3.153	0	5	1030	1
2026-02-11	16:24:11.310	-0.245	0.035	-0.455	0.03294	-0.007076	1.004304	-0.8295	-1.401	-3.1545	0	5	1030	1
2026-02-11	16:24:11.330	-0.28	0.07	-0.455	0.03294	-0.010248	1.00772	-0.834	-1.401	-3.1575	0	5	1030	1
2026-02-11	16:24:11.350	-0.28	0.07	-0.49	0.030744	-0.009516	1.008452	-0.834	-1.398	-3.162	0	5	1030	1
2026-02-11	16:24:11.370	-0.28	0.07	-0.49	0.036356	-0.01098	1.006988	-0.8325	-1.3965	-3.1635	0	5	1030	1
2026-02-11	16:24:11.390	-0.28	0.035	-0.49	0.033184	-0.00732	1.010404	-0.831	-1.398	-3.1575	0	5	1030	1
2026-02-11	16:24:11.410	-0.28	0.07	-0.49	0.036112	-0.008784	1.007232	-0.831	-1.398	-3.153	0	5	1030	1
2026-02-11	16:24:11.430	-0.28	0.035	-0.49	0.032696	-0.008784	1.00894	-0.828	-1.398	-3.1575	0	5	1030	1
2026-02-11	16:24:11.450	-0.315	0.035	-0.49	0.032208	-0.007076	1.00406	-0.822	-1.401	-3.162	0	5	1030	1
2026-02-11	16:24:11.470	-0.28	0.07	-0.49	0.031232	-0.00854	1.008696	-0.8265	-1.3995	-3.159	0	5	1030	1
2026-02-11	16:24:11.490	-0.28	0.105	-0.49	0.03538	-0.011712	1.01016	-0.8295	-1.3995	-3.156	0	5	1030	1
2026-02-11	16:24:11.510	-0.28	0.07	-0.49	0.033428	-0.009516	1.006012	-0.8265	-1.401	-3.1575	0	5	1030	1
2026-02-11	16:24:11.530	-0.28	0.07	-0.525	0.031964	-0.013176	1.007476	-0.8295	-1.398	-3.1605	0	5	1030	1
2026-02-11	16:24:11.550	-0.28	0.105	-0.455	0.033184	-0.008784	1.011624	-0.8295	-1.398	-3.1605	0	5	1030	1
2026-02-11	16:24:11.570	-0.28	0.07	-0.49	0.031476	-0.0122	1.006988	-0.828	-1.3995	-3.165	0	5	1030	1
2026-02-11	16:24:11.590	-0.315	0.035	-0.49	0.03294	-0.007808	1.003816	-0.828	-1.4025	-3.1635	0	5	1030	1
2026-02-11	16:24:11.610	-0.28	0.07	-0.525	0.035868	-0.010736	1.006256	-0.831	-1.404	-3.1605	0	4	1030	1
2026-02-11	16:24:11.630	-0.28	0.07	-0.49	0.030988	-0.00732	1.009672	-0.828	-1.3995	-3.1635	0	4	1030	1
2026-02-11	16:24:11.650	-0.315	0.07	-0.525	0.030744	-0.008052	1.007232	-0.828	-1.398	-3.162	0	4	1030	1
2026-02-11	16:24:11.670	-0.315	0.035	-0.525	0.033184	-0.00976	1.005524	-0.8325	-1.4025	-3.1605	0	4	1030	1
2026-02-11	16:24:11.690	-0.245	0	-0.525	0.032696	-0.011224	1.009428	-0.8325	-1.401	-3.1605	0	4	1030	1
2026-02-11	16:24:11.710	-0.28	0.035	-0.525	0.034404	-0.008296	1.00528	-0.831	-1.3995	-3.1575	0	4	1030	1
2026-02-11	16:24:11.730	-0.28	0.07	-0.49	0.032452	-0.00854	1.005524	-0.8295	-1.3995	-3.1575	0	4	1030	1
2026-02-11	16:24:11.750	-0.28	0.07	-0.49	0.03172	-0.0122	1.008452	-0.8295	-1.3995	-3.159	0	4	1030	1
2026-02-11	16:24:11.770	-0.28	0.035	-0.525	0.030256	-0.009272	1.010648	-0.828	-1.398	-3.1575	0	4	1030	1
2026-02-11	16:24:11.790	-0.28	0	-0.49	0.03294	-0.00732	1.00284	-0.831	-1.398	-3.1545	0	4	1030	1
2026-02-11	16:24:11.810	-0.245	0.07	-0.49	0.031964	-0.005612	1.009428	-0.8355	-1.3995	-3.153	0	4	1030	1
2026-02-11	16:24:11.830	-0.28	0.07	-0.455	0.031232	-0.008296	1.01016	-0.8355	-1.3995	-3.153	0	4	1030	1
2026-02-11	16:24:11.850	-0.28	0	-0.49	0.03538	-0.005124	1.005768	-0.825	-1.3995	-3.159	0	4	1030	1
2026-02-11	16:24:11.870	-0.28	0.07	-0.455	0.038064	-0.009028	1.00772	-0.8265	-1.401	-3.1575	0	4	1030	1
2026-02-11	16:24:11.890	-0.245	0.07	-0.49	0.036112	-0.013176	1.007476	-0.8265	-1.4025	-3.159	0	4	1030	1
2026-02-11	16:24:11.910	-0.315	0.035	-0.49	0.033672	-0.013176	1.007476	-0.8355	-1.401	-3.159	0	4	1030	1
2026-02-11	16:24:11.930	-0.245	0.07	-0.49	0.03294	-0.010248	1.007476	-0.834	-1.404	-3.156	0	4	1030	1
2026-02-11	16:24:11.950	-0.245	0.07	-0.56	0.034648	-0.010004	1.006256	-0.8295	-1.398	-3.156	0	4	1030	1
2026-02-11	16:24:11.970	-0.21	0	-0.49	0.029768	-0.00732	1.007476	-0.8265	-1.401	-3.147	0	4	1030	1
2026-02-11	16:24:11.990	-0.245	-0.035	-0.595	0.035136	-0.010004	1.00894	-0.837	-1.407	-3.156	0	4	1030	1
2026-02-11	16:24:12.010	-0.245	0.07	-0.7	0.029036	-0.005856	1.00894	-0.837	-1.407	-3.156	0	4	1030	1
2026-02-11	16:24:12.030	-0.245	0.035	-1.12	0.006588	-0.014152	0.999424	-0.828	-1.398	-3.156	0	4	1030	1
2026-02-11	16:24:12.050	-0.385	0.035	-5.74	-0.0183	-0.009516	1.006744	-0.834	-1.3935	-3.162	0	4	1030	1
2026-02-11	16:24:12.070	-0.665	-0.07	-16.065	-0.024644	-0.0244	1.01382	-0.831	-1.401	-3.1545	0	4	1030	1
2026-02-11	16:24:12.090	-0.875	-0.175	-25.83	-0.017812	-0.014884	1.015772	-0.831	-1.401	-3.1545	0	4	1030	1
2026-02-11	16:24:12.110	-1.085	-0.105	-32.2	-0.006344	-0.009272	1.020408	-0.834	-1.4055	-3.1605	0	4	1030	1
2026-02-11	16:24:12.130	-1.225	0	-36.82	0.00854	0.0061	0.993568	-0.8325	-1.407	-3.159	0	4	1030	1
2026-02-11	16:24:12.150	-1.295	0.035	-39.13	0.048312	-0.010492	1.011624	-0.825	-1.4025	-3.1635	0	4	1030	1
2026-02-11	16:24:12.170	-1.26	0.175	-39.165	0.042944	0.031964	0.988444	-0.8295	-1.416	-3.162	0	4	1030	1
2026-02-11	16:24:12.190	-1.155	0.245	-37.94	0.06466	0.00122	1.014308	-0.8235	-1.4085	-3.1545	0	4	1030	1
2026-02-11	16:24:12.210	-1.26	0.105	-34.895	0.070516	0.0122	1.000644	-0.822	-1.41	-3.1575	0	4	1030	1
2026-02-11	16:24:12.230	-1.05	0.035	-30.17	0.064416	0.009028	1.0004	-0.822	-1.4115	-3.165	0	4	1030	1
2026-02-11	16:24:12.250	-0.91	0.035	-24.745	0.060756	-0.019032	1.00284	-0.8235	-1.4145	-3.1635	0	4	1030	1
2026-02-11	16:24:12.270	-0.735	-0.07	-20.44	0.058072	-0.016592	1.009672	-0.822	-1.4145	-3.1635	0	4	1030	1
2026-02-11	16:24:12.290	-0.735	0.035	-16.835	0.05612	-0.007076	0.999668	-0.822	-1.416	-3.1635	0	4	1030	1
2026-02-11	16:24:12.310	-0.63	0	-13.58	0.050264	-0.010736	1.008208	-0.822	-1.4145	-3.1605	0	4	1030	1
2026-02-11	16:24:12.330	-0.56	0.07	-10.92	0.046604	-0.01342	1.007964	-0.8145	-1.4175	-3.162	0	4	1030	1
2026-02-11	16:24:12.350	-0.455	-0.035	-7.28	0.055632	-0.011712	1.006256	-0.825	-1.422	-3.162	0	4	1030	1
2026-02-11	16:24:12.370	-0.42	0.14	-4.62	0.055876	-0.005368	1.009916	-0.822	-1.419	-3.162	0	4	1030	1
2026-02-11	16:24:12.390	-0.315	0.21	-1.785	0.041236	-0.010004	1.007476	-0.819	-1.4205	-3.1605	0	4	1030	1
2026-02-11	16:24:12.410	-0.245	0.105	-0.385	0.034648	-0.007564	1.008696	-0.819	-1.422	-3.1635	0	5	1030	1
2026-02-11	16:24:12.430	-0.315	0	-0.455	0.033184	-0.012932	1.005036	-0.8205	-1.422	-3.1665	0	5	1030	1
2026-02-11	16:24:12.450	-0.28	0.07	-0.455	0.033428	-0.011956	1.00772	-0.8205	-1.422	-3.165	0	5	1030	1
2026-02-11	16:24:12.470	-0.315	0	-0.455	0.033428	-0.011712	1.01138	-0.822	-1.4205	-3.162	0	5	1030	1
2026-02-11	16:24:12.490	-0.28	0	-0.455	0.029768	-0.010492	1.006012	-0.825	-1.419	-3.1635	0	5	1030	1
2026-02-11	16:24:12.510	-0.28	0	-0.49	0.034892	-0.010736	1.005524	-0.825	-1.419	-3.165	0	5	1030	1
2026-02-11	16:24:12.530	-0.315	0.105	-0.49	0.036356	-0.01098	1.01016	-0.8235	-1.416	-3.159	0	5	1030	1
2026-02-11	16:24:12.550	-0.315	0.14	-0.525	0.035136	-0.012932	1.005768	-0.819	-1.416	-3.1575	0	5	1030	1
2026-02-11	16:24:12.570	-0.315	0.14	-0.455	0.03294	-0.011712	1.008208	-0.8205	-1.4205	-3.1605	0	5	1030	1
2026-02-11	16:24:12.590	-0.28	0.105	-0.49	0.032208	-0.011712	1.006988	-0.8235	-1.419	-3.1605	0	5	1030	1
2026-02-11	16:24:12.610	-0.28	0.07	-0.49	0.037088	-0.010492	1.008208	-0.8205	-1.4205	-3.159	0	6	1030	1
2026-02-11	16:24:12.630	-0.28	0.035	-0.49	0.03172	-0.013664	1.009428	-0.819	-1.422	-3.159	0	6	1030	1
2026-02-11	16:24:12.650	-0.28	0.07	-0.455	0.03294	-0.00854	1.009672	-0.8205	-1.419	-3.1575	0	6	1030	1
2026-02-11	16:24:12.670	-0.28	0	-0.455	0.032696	-0.011712	1.007476	-0.8205	-1.4175	-3.1605	0	6	1030	1
2026-02-11	16:24:12.690	-0.28	0.035	-0.455	0.032208	-0.010248	1.009184	-0.8235	-1.4175	-3.1635	0	6	1030	1
2026-02-11	16:24:12.710	-0.28	0.07	-0.49	0.032696	-0.010248	1.006988	-0.822	-1.4205	-3.165	0	6	1030	1
2026-02-11	16:24:12.730	-0.28	0.07	-0.455	0.033916	-0.00976	1.007232	-0.8175	-1.422	-3.1635	0	6	1030	1
2026-02-11	16:24:12.750	-0.28	0.07	-0.455	0.034892	-0.009028	1.003328	-0.819	-1.4235	-3.162	0	6	1030	1
2026-02-11	16:24:12.770	-0.28	0.14	-0.49	0.0366	-0.009272	1.009916	-0.819	-1.419	-3.1635	0	6	1030	1
2026-02-11	16:24:12.790	-0.315	0.105	-0.49	0.031476	-0.006588	1.009672	-0.8175	-1.4205	-3.159	0	6	1030	1
2026-02-11	16:24:12.810	-0.28	0.035	-0.49	0.032452	-0.009516	1.009672	-0.816	-1.425	-3.1575	0	7	1030	1
2026-02-11	16:24:12.830	-0.28	0	-0.49	0.035624	-0.009516	1.003084	-0.8175	-1.422	-3.162	0	7	1030	1
2026-02-11	16:24:12.850	-0.28	0.035	-0.455	0.037332	-0.007564	1.005524	-0.8175	-1.4205	-3.165	0	7	1030	1
2026-02-11	16:24:12.870	-0.245	0.07	-0.455	0.028304	-0.00976	1.007964	-0.819	-1.419	-3.165	0	7	1030	1
2026-02-11	16:24:12.890	-0.28	0	-0.49	0.030744	-0.009028	1.007232	-0.8235	-1.4205	-3.1635	0	7	1030	1
2026-02-11	16:24:12.910	-0.315	0.035	-0.49	0.036356	-0.009272	1.011868	-0.8235	-1.4205	-3.1635	0	7	1030	1
2026-02-11	16:24:12.930	-0.315	0.07	-0.49	0.033428	-0.009028	1.006012	-0.822	-1.425	-3.1665	0	7	1030	1
2026-02-11	16:24:12.950	-0.28	0.105	-0.525	0.03416	-0.011956	1.003816	-0.828	-1.4205	-3.159	0	7	1030	1
2026-02-11	16:24:12.970	-0.315	0.14	-0.49	0.033916	-0.010248	1.008208	-0.8205	-1.425	-3.153	0	7	1030	1
2026-02-11	16:24:12.990	-0.245	0.105	-0.49	0.030988	-0.010004	1.011136	-0.8145	-1.4175	-3.1605	0	7	1030	1
2026-02-11	16:24:13.010	-0.28	0	-0.49	0.028792	-0.009516	1.003572	-0.822	-1.425	-3.168	0	8	1030	1
2026-02-11	16:24:13.030	-0.28	0.035	-0.49	0.036356	-0.011468	1.008208	-0.8235	-1.416	-3.1635	0	8	1030	1
2026-02-11	16:24:13.050	-0.28	0.035	-0.49	0.035868	-0.011468	1.01016	-0.8175	-1.4175	-3.1575	0	8	1030	1
2026-02-11	16:24:13.070	-0.315	0	-0.49	0.03416	-0.007808	1.006988	-0.8265	-1.419	-3.171	0	8	1030	1
2026-02-11	16:24:13.090	-0.28	0	-0.49	0.032452	-0.009028	1.00894	-0.816	-1.4175	-3.159	0	8	1030	1
2026-02-11	16:24:13.110	-0.245	0.035	-0.455	0.030012	-0.009028	1.0065	-0.828	-1.422	-3.1605	0	8	1030	1
2026-02-11	16:24:13.130	-0.315	0.07	-0.525	0.035868	-0.009272	1.005524	-0.8205	-1.419	-3.1695	0	8	1030	1
2026-02-11	16:24:13.150	-0.28	0.07	-0.49	0.036844	-0.00976	1.008208	-0.8235	-1.422	-3.1665	0	8	1030	1
2026-02-11	16:24:13.170	-0.245	0.07	-0.49	0.034648	-0.008052	1.00894	-0.8235	-1.422	-3.1665	0	8	1030	1
2026-02-11	16:24:13.190	-0.28	0.105	-0.49	0.035136	-0.008784	1.01016	-0.8235	-1.422	-3.1665	0	8	1030	1
2026-02-11	16:24:13.210	-0.245	0.035	-0.49	0.033184	-0.0122	1.006256	-0.8265	-1.422	-3.1605	0	9	1030	1
2026-02-11	16:24:13.230	-0.245	0.035	-0.49	0.037576	-0.008784	1.000888	-0.813	-1.419	-3.1695	0	9	1030	1
2026-02-11	16:24:13.250	-0.28	0.07	-0.525	0.03538	-0.010248	1.006256	-0.816	-1.4205	-3.165	0	9	1030	1
2026-02-11	16:24:13.270	-0.28	0.105	-0.49	0.033916	-0.008296	1.007232	-0.825	-1.4115	-3.153	0	9	1030	1
2026-02-11	16:24:13.290	-0.245	0.035	-0.49	0.03294	-0.008296	1.0065	-0.831	-1.4175	-3.159	0	9	1030	1
2026-02-11	16:24:13.310	-0.245	0.07	-0.455	0.031232	-0.008052	1.00528	-0.825	-1.422	-3.156	0	9	1030	1
2026-02-11	16:24:13.330	-0.28	0.07	-0.49	0.03416	-0.008784	1.008208	-0.816	-1.4175	-3.165	0	9	1030	1
2026-02-11	16:24:13.350	-0.245	0.105	-0.49	0.033184	-0.0122	1.009184	-0.822	-1.419	-3.162	0	9	1030	1
2026-02-11	16:24:13.370	-0.28	0.105	-0.49	0.036844	-0.00854	1.008452	-0.822	-1.416	-3.159	0	9	1030	1
2026-02-11	16:24:13.390	-0.28	0.07	-0.525	0.03416	-0.012932	1.006744	-0.819	-1.4145	-3.1635	0	9	1030	1
2026-02-11	16:24:13.410	-0.28	0.07	-0.455	0.036112	-0.008784	1.007964	-0.825	-1.416	-3.1575	0	8	1030	1
2026-02-11	16:24:13.430	-0.315	0.07	-0.49	0.034404	-0.0122	1.005036	-0.8205	-1.419	-3.1605	0	8	1030	1
2026-02-11	16:24:13.450	-0.245	0.07	-0.455	0.03538	-0.010248	1.008452	-0.8205	-1.416	-3.162	0	8	1030	1
2026-02-11	16:24:13.470	-0.28	0.035	-0.455	0.032208	-0.008784	1.003816	-0.8265	-1.4145	-3.165	0	8	1030	1
2026-02-11	16:24:13.490	-0.28	0.07	-0.49	0.032696	-0.011712	1.011136	-0.825	-1.419	-3.165	0	8	1030	1
2026-02-11	16:24:13.510	-0.28	0.07	-0.525	0.036844	-0.009516	1.008696	-0.8175	-1.422	-3.1635	0	8	1030	1
2026-02-11	16:24:13.530	-0.28	0.105	-0.49	0.033672	-0.008784	1.008452	-0.813	-1.422	-3.1635	0	8	1030	1
2026-02-11	16:24:13.550	-0.315	0.105	-0.49	0.034648	-0.010248	1.005036	-0.8145	-1.419	-3.1605	0	8	1030	1
2026-02-11	16:24:13.570	-0.28	0.14	-0.525	0.032208	-0.013176	1.005036	-0.819	-1.419	-3.159	0	8	1030	1
2026-02-11	16:24:13.590	-0.28	0.14	-0.49	0.033672	-0.014884	1.006744	-0.8235	-1.416	-3.1575	0	8	1030	1
2026-02-11	16:24:13.610	-0.28	0.105	-0.49	0.036844	-0.010492	1.006988	-0.8205	-1.4175	-3.1605	0	8	1030	1
2026-02-11	16:24:13.630	-0.245	0.175	-0.49	0.033428	-0.009028	1.00894	-0.819	-1.422	-3.1635	0	8	1030	1
2026-02-11	16:24:13.650	-0.315	0.14	-0.49	0.035624	-0.012444	1.005768	-0.8235	-1.422	-3.162	0	8	1030	1
2026-02-11	16:24:13.670	-0.28	0.105	-0.525	0.028304	-0.008052	1.011136	-0.8235	-1.425	-3.162	0	8	1030	1
2026-02-11	16:24:13.690	-0.315	0	-0.49	0.035624	-0.008784	1.005036	-0.822	-1.419	-3.1575	0	8	1030	1
2026-02-11	16:24:13.710	-0.28	0.14	-0.49	0.037332	-0.011468	1.009428	-0.825	-1.4145	-3.1545	0	8	1030	1
2026-02-11	16:24:13.730	-0.28	0.14	-0.49	0.03294	-0.006588	1.008208	-0.822	-1.4235	-3.1635	0	8	1030	1
2026-02-11	16:24:13.750	-0.28	0.14	-0.49	0.032696	-0.011224	1.006744	-0.819	-1.425	-3.162	0	8	1030	1
2026-02-11	16:24:13.770	-0.28	0.07	-0.455	0.034404	-0.010492	1.004792	-0.819	-1.419	-3.1635	0	8	1030	1
2026-02-11	16:24:13.790	-0.245	0.105	-0.49	0.035868	-0.010492	1.007232	-0.8235	-1.419	-3.1635	0	8	1030	1
2026-02-11	16:24:13.810	-0.315	0.07	-0.49	0.035868	-0.008784	1.008452	-0.825	-1.4235	-3.1605	0	7	1030	1
2026-02-11	16:24:13.830	-0.28	0.035	-0.455	0.033184	-0.009028	1.009672	-0.819	-1.4205	-3.1605	0	7	1030	1
2026-02-11	16:24:13.850	-0.28	0	-0.525	0.032696	-0.01098	1.006256	-0.8175	-1.422	-3.168	0	7	1030	1
2026-02-11	16:24:13.870	-0.28	0.07	-0.49	0.036356	-0.010004	1.006744	-0.8205	-1.4235	-3.1695	0	7	1030	1
2026-02-11	16:24:13.890	-0.28	0.105	-0.455	0.032696	-0.011224	1.009184	-0.8205	-1.4235	-3.162	0	7	1030	1
2026-02-11	16:24:13.910	-0.245	0.105	-0.455	0.03294	-0.007564	1.01016	-0.822	-1.419	-3.162	0	7	1030	1
2026-02-11	16:24:13.930	-0.315	0.035	-0.525	0.030012	-0.009272	1.009672	-0.819	-1.4175	-3.159	0	7	1030	1
2026-02-11	16:24:13.950	-0.28	0.035	-0.455	0.038064	-0.009272	1.006256	-0.8175	-1.419	-3.1545	0	7	1030	1
2026-02-11	16:24:13.970	-0.28	0.035	-0.455	0.03538	-0.011712	1.00772	-0.8205	-1.4175	-3.1575	0	7	1030	1
2026-02-11	16:24:13.990	-0.28	0.105	-0.49	0.033916	-0.011224	1.004792	-0.8205	-1.4175	-3.1575	0	7	1030	1
2026-02-11	16:24:14.010	-0.28	0.105	-0.49	0.034892	-0.00976	1.008696	-0.825	-1.428	-3.1635	0	6	1030	1
2026-02-11	16:24:14.030	-0.245	0.07	-0.49	0.033428	-0.00732	1.009184	-0.825	-1.422	-3.168	0	6	1030	1
2026-02-11	16:24:14.050	-0.28	0.035	-0.455	0.03782	-0.009516	1.00772	-0.822	-1.431	-3.165	0	6	1030	1
2026-02-11	16:24:14.070	-0.28	0.035	-0.455	0.033672	-0.01098	1.004792	-0.819	-1.419	-3.1575	0	6	1030	1
2026-02-11	16:24:14.090	-0.28	0.07	-0.49	0.034892	-0.0122	1.006988	-0.825	-1.4235	-3.162	0	6	1030	1
2026-02-11	16:24:14.110	-0.28	0.105	-0.455	0.037088	-0.007076	1.012112	-0.816	-1.4175	-3.1635	0	6	1030	1
2026-02-11	16:24:14.130	-0.315	0.035	-0.49	0.032452	-0.01098	1.007964	-0.822	-1.422	-3.156	0	6	1030	1
2026-02-11	16:24:14.150	-0.28	0	-0.455	0.030988	-0.009272	1.009184	-0.819	-1.419	-3.162	0	6	1030	1
2026-02-11	16:24:14.170	-0.21	0.07	-0.455	0.03538	-0.009028	1.007964	-0.8205	-1.416	-3.168	0	6	1030	1
2026-02-11	16:24:14.190	-0.28	0	-0.455	0.03538	-0.013176	1.006744	-0.8235	-1.4235	-3.1575	0	6	1030	1
2026-02-11	16:24:14.210	-0.315	0.07	-0.49	0.031964	-0.014396	1.006988	-0.828	-1.419	-3.159	0	6	1030	1
2026-02-11	16:24:14.230	-0.28	0.07	-0.49	0.033184	-0.010492	1.0065	-0.816	-1.419	-3.1665	0	6	1030	1
2026-02-11	16:24:14.250	-0.28	0.07	-0.49	0.03172	-0.010736	1.006988	-0.816	-1.419	-3.1665	0	6	1030	1
2026-02-11	16:24:14.270	-0.315	-0.035	-0.49	0.03782	-0.010004	1.001864	-0.8175	-1.419	-3.1635	0	6	1030	1
2026-02-11	16:24:14.290	-0.28	0.14	-0.455	0.0366	-0.00976	1.009184	-0.819	-1.4175	-3.162	0	6	1030	1
2026-02-11	16:24:14.310	-0.28	0.14	-0.49	0.029768	-0.009272	1.009916	-0.819	-1.416	-3.162	0	6	1030	1
2026-02-11	16:24:14.330	-0.315	0.07	-0.525	0.030988	-0.011956	1.008452	-0.8175	-1.4205	-3.165	0	6	1030	1
2026-02-11	16:24:14.350	-0.315	0	-0.49	0.0366	-0.012932	1.005768	-0.8175	-1.416	-3.165	0	6	1030	1
2026-02-11	16:24:14.370	-0.315	0.07	-0.525	0.037576	-0.010248	1.007232	-0.831	-1.4205	-3.162	0	6	1030	1
2026-02-11	16:24:14.390	-0.315	0.105	-0.49	0.035868	-0.010004	1.009184	-0.822	-1.4175	-3.162	0	6	1030	1
2026-02-11	16:24:14.410	-0.28	0.105	-0.49	0.032696	-0.008052	1.0065	-0.816	-1.428	-3.162	0	5	1030	1
2026-02-11	16:24:14.430	-0.28	0.035	-0.49	0.02928	-0.010736	1.008452	-0.825	-1.425	-3.159	0	5	1030	1
2026-02-11	16:24:14.450	-0.28	0	-0.49	0.035136	-0.009272	1.006988	-0.822	-1.419	-3.162	0	5	1030	1
2026-02-11	16:24:14.470	-0.315	0.07	-0.525	0.033428	-0.008296	1.005036	-0.819	-1.425	-3.165	0	5	1030	1
2026-02-11	16:24:14.490	-0.28	0.105	-0.49	0.034892	-0.010736	1.008208	-0.819	-1.4205	-3.168	0	5	1030	1
2026-02-11	16:24:14.510	-0.28	0.105	-0.49	0.030988	-0.010248	1.009184	-0.822	-1.422	-3.1695	0	5	1030	1
2026-02-11	16:24:14.530	-0.28	0.035	-0.49	0.033184	-0.010736	1.008452	-0.819	-1.4235	-3.1635	0	5	1030	1
2026-02-11	16:24:14.550	-0.28	0.07	-0.455	0.036356	-0.009272	1.00528	-0.822	-1.422	-3.1605	0	5	1030	1
2026-02-11	16:24:14.570	-0.28	0.035	-0.455	0.036356	-0.011956	1.007232	-0.8265	-1.419	-3.162	0	5	1030	1
2026-02-11	16:24:14.590	-0.28	0.175	-0.49	0.028548	-0.009028	1.0126	-0.8265	-1.419	-3.1635	0	5	1030	1
2026-02-11	16:24:14.610	-0.35	0	-0.49	0.031476	-0.009028	1.002352	-0.825	-1.422	-3.165	0	5	1030	1
2026-02-11	16:24:14.630	-0.28	0.035	-0.49	0.032208	-0.009028	1.004304	-0.8175	-1.4205	-3.1605	0	5	1030	1
2026-02-11	16:24:14.650	-0.28	0.14	-0.455	0.030012	-0.00854	1.006988	-0.8175	-1.4175	-3.1545	0	5	1030	1
2026-02-11	16:24:14.670	-0.315	0	-0.49	0.033672	-0.011468	1.006988	-0.822	-1.4205	-3.159	0	5	1030	1
2026-02-11	16:24:14.690	-0.28	0.14	-0.49	0.032208	-0.008296	1.00406	-0.8205	-1.4235	-3.162	0	5	1030	1
2026-02-11	16:24:14.710	-0.28	0.14	-0.49	0.037088	-0.008784	1.008208	-0.8175	-1.425	-3.162	0	5	1030	1
2026-02-11	16:24:14.730	-0.315	0.175	-0.49	0.033184	-0.011712	1.015284	-0.819	-1.422	-3.162	0	5	1030	1
2026-02-11	16:24:14.750	-0.245	0	-0.525	0.027572	-0.00854	1.002352	-0.819	-1.419	-3.1605	0	5	1030	1
2026-02-11	16:24:14.770	-0.28	0.07	-0.49	0.036356	-0.01098	1.005036	-0.816	-1.4205	-3.162	0	5	1030	1
2026-02-11	16:24:14.790	-0.28	0.105	-0.49	0.03172	-0.010248	1.006256	-0.8175	-1.4205	-3.1605	0	5	1030	1
2026-02-11	16:24:14.810	-0.28	0.07	-0.525	0.032208	-0.009272	1.009184	-0.819	-1.419	-3.1605	0	5	1030	1
2026-02-11	16:24:14.830	-0.28	0.035	-0.525	0.036112	-0.007076	1.00772	-0.822	-1.422	-3.1575	0	5	1030	1
2026-02-11	16:24:14.850	-0.315	0.035	-0.49	0.033672	-0.011468	1.010892	-0.8295	-1.416	-3.1545	0	5	1030	1
2026-02-11	16:24:14.870	-0.28	0.035	-0.49	0.033916	-0.011224	1.00528	-0.81	-1.416	-3.1665	0	5	1030	1
2026-02-11	16:24:14.890	-0.28	0.035	-0.49	0.034404	-0.008784	1.003816	-0.8145	-1.422	-3.165	0	5	1030	1
2026-02-11	16:24:14.910	-0.28	0.105	-0.455	0.033916	-0.01098	1.006744	-0.819	-1.4235	-3.162	0	5	1030	1
2026-02-11	16:24:14.930	-0.315	0.105	-0.525	0.030988	-0.011224	1.008208	-0.819	-1.4205	-3.1635	0	5	1030	1
2026-02-11	16:24:14.950	-0.28	0.07	-0.525	0.033916	-0.00976	1.009184	-0.825	-1.422	-3.1605	0	5	1030	1
2026-02-11	16:24:14.970	-0.315	0.105	-0.49	0.03172	-0.009272	1.006988	-0.819	-1.422	-3.1575	0	5	1030	1
2026-02-11	16:24:14.990	-0.315	0.07	-0.525	0.0305	-0.010248	1.007476	-0.813	-1.425	-3.159	0	5	1030	1
2026-02-11	16:24:15.010	-0.315	0.105	-0.455	0.032452	-0.009028	1.008452	-0.819	-1.425	-3.156	0	4	1030	1
2026-02-11	16:24:15.030	-0.28	0	-0.49	0.034404	-0.013664	1.007964	-0.819	-1.4235	-3.159	0	4	1030	1
2026-02-11	16:24:15.050	-0.315	0.07	-0.49	0.033184	-0.009272	1.004792	-0.8175	-1.4235	-3.165	0	4	1030	1
2026-02-11	16:24:15.070	-0.28	0.14	-0.455	0.03416	-0.011712	1.006256	-0.8175	-1.4235	-3.165	0	4	1030	1
2026-02-11	16:24:15.090	-0.28	0.175	-0.525	0.034404	-0.01098	1.007964	-0.816	-1.419	-3.1575	0	4	1030	1
2026-02-11	16:24:15.110	-0.28	0.14	-0.49	0.031476	-0.012688	1.009428	-0.828	-1.4205	-3.1605	0	4	1030	1
2026-02-11	16:24:15.130	-0.315	0.14	-0.49	0.03172	-0.00854	1.011868	-0.8205	-1.422	-3.156	0	4	1030	1
2026-02-11	16:24:15.150	-0.245	0.07	-0.525	0.0366	-0.012688	1.007476	-0.819	-1.416	-3.1635	0	4	1030	1
2026-02-11	16:24:15.170	-0.28	0.07	-0.49	0.037332	-0.0122	1.005768	-0.819	-1.416	-3.1635	0	4	1030	1
2026-02-11	16:24:15.190	-0.28	0.14	-0.49	0.033428	-0.0122	1.008208	-0.8115	-1.4145	-3.153	0	4	1030	1
2026-02-11	16:24:15.210	-0.28	0.07	-0.49	0.030744	-0.008052	1.009672	-0.819	-1.419	-3.1665	0	4	1030	1
2026-02-11	16:24:15.230	-0.28	0.07	-0.525	0.030988	-0.00854	1.006012	-0.8295	-1.425	-3.1665	0	4	1030	1
2026-02-11	16:24:15.250	-0.315	0.07	-0.525	0.034892	-0.006344	1.008696	-0.8295	-1.4235	-3.156	0	4	1030	1
2026-02-11	16:24:15.270	-0.28	0.105	-0.525	0.032208	-0.008784	1.007964	-0.8205	-1.422	-3.153	0	4	1030	1
2026-02-11	16:24:15.290	-0.28	0.07	-0.455	0.0366	-0.01098	1.006012	-0.8235	-1.4205	-3.1695	0	4	1030	1
2026-02-11	16:24:15.310	-0.28	0.07	-0.49	0.032208	-0.008784	1.003084	-0.8235	-1.4145	-3.1635	0	4	1030	1
2026-02-11	16:24:15.330	-0.28	0.105	-0.49	0.034404	-0.01098	1.007476	-0.8235	-1.4145	-3.1635	0	4	1030	1
2026-02-11	16:24:15.350	-0.315	0.035	-0.49	0.031476	-0.006832	1.009184	-0.822	-1.416	-3.1635	0	4	1030	1
2026-02-11	16:24:15.370	-0.315	0	-0.455	0.03416	-0.010248	1.006744	-0.8205	-1.4175	-3.162	0	4	1030	1
2026-02-11	16:24:15.390	-0.28	0	-0.49	0.029768	-0.009028	1.00894	-0.8175	-1.4235	-3.162	0	4	1030	1
2026-02-11	16:24:15.410	-0.28	0.035	-0.49	0.032452	-0.008296	1.00772	-0.8205	-1.419	-3.165	0	4	1030	1
2026-02-11	16:24:15.430	-0.28	0	-0.49	0.03416	-0.008296	1.004792	-0.8235	-1.4145	-3.1635	0	4	1030	1
2026-02-11	16:24:15.450	-0.28	0	-0.525	0.034404	-0.007076	1.007232	-0.8205	-1.4175	-3.159	0	4	1030	1
2026-02-11	16:24:15.470	-0.28	0.07	-0.525	0.032208	-0.011224	1.007232	-0.819	-1.419	-3.159	0	4	1030	1
2026-02-11	16:24:15.490	-0.28	0.035	-0.455	0.034892	-0.010004	1.006012	-0.828	-1.419	-3.1605	0	4	1030	1
2026-02-11	16:24:15.510	-0.315	0.07	-0.49	0.031964	-0.009516	1.008208	-0.822	-1.4145	-3.162	0	4	1030	1
2026-02-11	16:24:15.530	-0.28	0.105	-0.49	0.030012	-0.01098	1.0065	-0.819	-1.4235	-3.174	0	4	1030	1
2026-02-11	16:24:15.550	-0.28	0.105	-0.49	0.032452	-0.010004	1.007964	-0.825	-1.419	-3.159	0	4	1030	1
2026-02-11	16:24:15.570	-0.28	0	-0.49	0.033916	-0.007808	1.006256	-0.819	-1.4175	-3.156	0	4	1030	1
2026-02-11	16:24:15.590	-0.28	0.07	-0.49	0.033184	-0.009028	1.009184	-0.819	-1.4115	-3.156	0	4	1030	1
2026-02-11	16:24:15.610	-0.315	0.07	-0.49	0.037576	-0.007076	1.007964	-0.822	-1.416	-3.162	0	4	1030	1
2026-02-11	16:24:15.630	-0.315	0.07	-0.49	0.036356	-0.010248	1.009916	-0.828	-1.419	-3.1635	0	4	1030	1
2026-02-11	16:24:15.650	-0.28	0.035	-0.49	0.03172	-0.0122	1.007476	-0.8235	-1.4205	-3.1605	0	4	1030	1
2026-02-11	16:24:15.670	-0.28	0.07	-0.525	0.032208	-0.010492	1.008452	-0.822	-1.419	-3.162	0	4	1030	1
2026-02-11	16:24:15.690	-0.28	0.07	-0.525	0.033184	-0.008784	1.006988	-0.825	-1.4175	-3.159	0	4	1030	1
2026-02-11	16:24:15.710	-0.28	0.14	-0.49	0.032208	-0.009028	1.008208	-0.8145	-1.419	-3.1575	0	4	1030	1
2026-02-11	16:24:15.730	-0.28	0.07	-0.455	0.028548	-0.01098	1.00406	-0.8175	-1.419	-3.162	0	4	1030	1
2026-02-11	16:24:15.750	-0.28	0.105	-0.49	0.033672	-0.01342	1.006012	-0.822	-1.4205	-3.1635	0	4	1030	1
2026-02-11	16:24:15.770	-0.245	0.07	-0.49	0.034892	-0.01098	1.005524	-0.8175	-1.422	-3.1605	0	4	1030	1
2026-02-11	16:24:15.790	-0.315	0.07	-0.49	0.032452	-0.010004	1.009184	-0.822	-1.4175	-3.1605	0	4	1030	1
2026-02-11	16:24:15.810	-0.28	0.105	-0.49	0.03294	-0.010004	1.008452	-0.819	-1.416	-3.165	0	3	1030	1
2026-02-11	16:24:15.830	-0.315	0.07	-0.49	0.0366	-0.012444	1.008452	-0.816	-1.419	-3.1605	0	3	1030	1
2026-02-11	16:24:15.850	-0.28	0.07	-0.49	0.033672	-0.010492	1.010404	-0.822	-1.419	-3.159	0	3	1030	1
2026-02-11	16:24:15.870	-0.28	0.035	-0.49	0.033672	-0.009028	1.0065	-0.828	-1.419	-3.1635	0	3	1030	1
2026-02-11	16:24:15.890	-0.28	0.07	-0.49	0.031476	-0.010492	1.0065	-0.8205	-1.4175	-3.1635	0	3	1030	1
2026-02-11	16:24:15.910	-0.28	0.14	-0.56	0.034404	-0.008784	1.00772	-0.8235	-1.416	-3.165	0	3	1030	1
2026-02-11	16:24:15.930	-0.28	0.105	-0.49	0.034892	-0.006588	1.00528	-0.8205	-1.4265	-3.165	0	3	1030	1
2026-02-11	16:24:15.950	-0.245	0.105	-0.455	0.032208	-0.010004	1.009916	-0.822	-1.4235	-3.1605	0	3	1030	1
2026-02-11	16:24:15.970	-0.28	0.07	-0.49	0.030012	-0.010248	1.006988	-0.8145	-1.422	-3.159	0	3	1030	1
2026-02-11	16:24:15.990	-0.28	0.07	-0.525	0.031964	-0.008052	1.00528	-0.819	-1.419	-3.159	0	3	1030	1
2026-02-11	16:24:16.010	-0.315	0.07	-0.49	0.038796	-0.0122	1.007964	-0.819	-1.419	-3.159	0	3	1030	1
2026-02-11	16:24:16.030	-0.28	0.035	-0.49	0.035136	-0.010004	1.006012	-0.825	-1.428	-3.1545	0	3	1030	1
2026-02-11	16:24:16.050	-0.28	0.07	-0.455	0.035868	-0.008052	1.009428	-0.822	-1.425	-3.156	0	3	1030	1
2026-02-11	16:24:16.070	-0.315	0.07	-0.49	0.03172	-0.010492	1.009428	-0.819	-1.422	-3.159	0	3	1030	1
2026-02-11	16:24:16.090	-0.28	0.035	-0.455	0.029768	-0.008296	1.008452	-0.8205	-1.419	-3.159	0	3	1030	1
2026-02-11	16:24:16.110	-0.315	0.07	-0.49	0.034404	-0.008784	1.009184	-0.8205	-1.419	-3.156	0	3	1030	1
2026-02-11	16:24:16.130	-0.28	0.07	-0.49	0.03294	-0.010248	1.007476	-0.8205	-1.419	-3.1545	0	3	1030	1
2026-02-11	16:24:16.150	-0.28	0.035	-0.49	0.036112	-0.00976	1.006988	-0.8205	-1.419	-3.1545	0	3	1030	1
2026-02-11	16:24:16.170	-0.28	0.07	-0.49	0.033672	-0.00854	1.00894	-0.822	-1.416	-3.1635	0	3	1030	1
2026-02-11	16:24:16.190	-0.28	0.035	-0.49	0.02928	-0.008052	1.00894	-0.825	-1.413	-3.1665	0	3	1030	1
2026-02-11	16:24:16.210	-0.28	0.035	-0.455	0.030744	-0.012444	1.007476	-0.822	-1.4175	-3.1635	0	3	1030	1
2026-02-11	16:24:16.230	-0.28	0.07	-0.455	0.029036	-0.01098	1.008452	-0.8175	-1.4235	-3.162	0	3	1030	1
2026-02-11	16:24:16.250	-0.315	0.035	-0.49	0.035136	-0.010736	1.006988	-0.8205	-1.416	-3.165	0	3	1030	1
2026-02-11	16:24:16.270	-0.315	0.035	-0.455	0.036844	-0.010736	1.008452	-0.819	-1.4205	-3.1605	0	3	1030	1
2026-02-11	16:24:16.290	-0.28	0.07	-0.49	0.03172	-0.009272	1.007476	-0.8235	-1.416	-3.156	0	3	1030	1
2026-02-11	16:24:16.310	-0.245	0.07	-0.455	0.032696	-0.008052	1.007476	-0.816	-1.422	-3.165	0	3	1030	1
2026-02-11	16:24:16.330	-0.28	0.07	-0.455	0.034892	-0.011956	1.004548	-0.8205	-1.419	-3.171	0	3	1030	1
2026-02-11	16:24:16.350	-0.28	0.035	-0.455	0.032208	-0.011956	1.003572	-0.819	-1.422	-3.162	0	3	1030	1
2026-02-11	16:24:16.370	-0.28	0.035	-0.49	0.034404	-0.012444	1.008696	-0.825	-1.4145	-3.1605	0	3	1030	1
2026-02-11	16:24:16.390	-0.315	0.07	-0.49	0.031232	-0.009516	1.009916	-0.816	-1.422	-3.168	0	3	1030	1
2026-02-11	16:24:16.410	-0.28	0.07	-0.49	0.032208	-0.008052	1.008696	-0.816	-1.422	-3.168	0	3	1030	1
2026-02-11	16:24:16.430	-0.245	0.07	-0.455	0.033428	-0.007808	1.005768	-0.8235	-1.4175	-3.165	0	3	1030	1
2026-02-11	16:24:16.450	-0.315	0.105	-0.525	0.034404	-0.008296	1.0065	-0.828	-1.4205	-3.162	0	3	1030	1
2026-02-11	16:24:16.470	-0.28	0.035	-0.525	0.035868	-0.012444	1.009428	-0.822	-1.4235	-3.1635	0	3	1030	1
2026-02-11	16:24:16.490	-0.315	0.07	-0.49	0.033428	-0.011224	1.009184	-0.8205	-1.4205	-3.162	0	3	1030	1
2026-02-11	16:24:16.510	-0.28	0.07	-0.49	0.032696	-0.00732	1.010404	-0.819	-1.4205	-3.1605	0	3	1030	1
2026-02-11	16:24:16.530	-0.28	0.07	-0.49	0.034404	-0.008296	1.006256	-0.819	-1.419	-3.162	0	3	1030	1
2026-02-11	16:24:16.550	-0.28	0.07	-0.525	0.036356	-0.011224	1.009184	-0.819	-1.422	-3.1605	0	3	1030	1
2026-02-11	16:24:16.570	-0.28	0.07	-0.49	0.033916	-0.010248	1.005036	-0.8205	-1.422	-3.162	0	3	1030	1
2026-02-11	16:24:16.590	-0.28	0.07	-0.49	0.031232	-0.009028	1.006988	-0.8235	-1.4205	-3.1635	0	3	1030	1
2026-02-11	16:24:16.610	-0.28	0.07	-0.49	0.037332	-0.00854	1.007964	-0.8235	-1.4205	-3.1605	0	3	1030	1
2026-02-11	16:24:16.630	-0.28	0.07	-0.49	0.03294	-0.012444	1.007232	-0.825	-1.4175	-3.159	0	3	1030	1
2026-02-11	16:24:16.650	-0.245	0.035	-0.49	0.036844	-0.010736	1.006988	-0.8145	-1.422	-3.1635	0	3	1030	1
2026-02-11	16:24:16.670	-0.28	0.07	-0.49	0.029036	-0.010248	1.0065	-0.828	-1.4235	-3.1605	0	3	1030	1
2026-02-11	16:24:16.690	-0.315	0.07	-0.49	0.032208	-0.011468	1.009916	-0.8235	-1.419	-3.1575	0	3	1030	1
2026-02-11	16:24:16.710	-0.28	0.105	-0.49	0.033184	-0.010248	1.00894	-0.813	-1.416	-3.159	0	3	1030	1
2026-02-11	16:24:16.730	-0.28	0.07	-0.525	0.030012	-0.011224	1.006744	-0.816	-1.4205	-3.165	0	3	1030	1
2026-02-11	16:24:16.750	-0.28	0.07	-0.49	0.035868	-0.01098	1.008696	-0.8235	-1.4235	-3.1605	0	3	1030	1
2026-02-11	16:24:16.770	-0.28	0.07	-0.525	0.031964	-0.00976	1.008208	-0.8175	-1.4235	-3.156	0	3	1030	1
2026-02-11	16:24:16.790	-0.28	0.035	-0.49	0.030988	-0.011712	1.009916	-0.8175	-1.4235	-3.1635	0	3	1030	1
2026-02-11	16:24:16.810	-0.28	0.07	-0.49	0.030988	-0.006588	1.007476	-0.8205	-1.425	-3.168	0	3	1030	1
2026-02-11	16:24:16.830	-0.28	0.07	-0.49	0.031964	-0.010736	1.007232	-0.8205	-1.4235	-3.165	0	3	1030	1
2026-02-11	16:24:16.850	-0.28	0.035	-0.49	0.034648	-0.009272	1.006256	-0.8205	-1.419	-3.1605	0	3	1030	1
2026-02-11	16:24:16.870	-0.28	0.07	-0.49	0.033916	-0.00732	1.006744	-0.8205	-1.416	-3.159	0	3	1030	1
2026-02-11	16:24:16.890	-0.28	0.07	-0.525	0.034892	-0.008296	1.010404	-0.8205	-1.4175	-3.162	0	3	1030	1
2026-02-11	16:24:16.910	-0.28	0.07	-0.455	0.032452	-0.010736	1.008208	-0.819	-1.4175	-3.1605	0	3	1030	1
2026-02-11	16:24:16.930	-0.28	0.035	-0.455	0.033672	-0.012932	1.006744	-0.816	-1.416	-3.1605	0	3	1030	1
2026-02-11	16:24:16.950	-0.28	0.07	-0.49	0.030744	-0.010736	1.007476	-0.8145	-1.419	-3.1605	0	3	1030	1
2026-02-11	16:24:16.970	-0.28	0.07	-0.49	0.033916	-0.00976	1.00162	-0.825	-1.422	-3.1635	0	3	1030	1
2026-02-11	16:24:16.990	-0.28	0.07	-0.49	0.0305	-0.01098	1.01016	-0.828	-1.4235	-3.159	0	3	1030	1
2026-02-11	16:24:17.010	-0.28	0.07	-0.49	0.032452	-0.009028	1.006988	-0.8205	-1.425	-3.153	0	3	1030	1
2026-02-11	16:24:17.030	-0.28	0.035	-0.49	0.032208	-0.010004	1.007232	-0.828	-1.428	-3.162	0	3	1030	1
2026-02-11	16:24:17.050	-0.28	0.07	-0.49	0.034892	-0.009516	1.008696	-0.8175	-1.4235	-3.165	0	3	1030	1
2026-02-11	16:24:17.070	-0.28	0.07	-0.49	0.034648	-0.007564	1.008452	-0.8205	-1.425	-3.1545	0	3	1030	1
2026-02-11	16:24:17.090	-0.315	0.07	-0.49	0.03416	-0.010736	1.0065	-0.819	-1.4205	-3.156	0	3	1030	1
2026-02-11	16:24:17.110	-0.28	0.07	-0.49	0.034404	-0.010736	1.006012	-0.8265	-1.4205	-3.1635	0	3	1030	1
2026-02-11	16:24:17.130	-0.28	0.07	-0.49	0.035868	-0.007564	1.008452	-0.822	-1.4265	-3.1695	0	3	1030	1
2026-02-11	16:24:17.150	-0.28	0.07	-0.49	0.032696	-0.009272	1.004792	-0.8205	-1.4235	-3.165	0	3	1030	1
2026-02-11	16:24:17.170	-0.28	0.105	-0.49	0.03172	-0.013176	1.009184	-0.822	-1.4235	-3.159	0	3	1030	1
2026-02-11	16:24:17.190	-0.315	0.07	-0.49	0.033184	-0.01098	1.006012	-0.822	-1.4235	-3.1545	0	3	1030	1
2026-02-11	16:24:17.210	-0.28	0.07	-0.49	0.036112	-0.010248	1.006988	-0.819	-1.422	-3.156	0	3	1030	1
2026-02-11	16:24:17.230	-0.28	0.105	-0.49	0.033428	-0.012688	1.006256	-0.819	-1.422	-3.156	0	3	1030	1
2026-02-11	16:24:17.250	-0.28	0.07	-0.49	0.0366	-0.010736	1.009184	-0.8175	-1.428	-3.1635	0	3	1030	1
2026-02-11	16:24:17.270	-0.28	0.035	-0.525	0.03538	-0.011224	1.007964	-0.8235	-1.419	-3.162	0	3	1030	1
2026-02-11	16:24:17.290	-0.28	0.035	-0.525	0.033672	-0.008784	1.006744	-0.822	-1.4265	-3.156	0	3	1030	1
2026-02-11	16:24:17.310	-0.28	0.07	-0.49	0.032208	-0.01098	1.004548	-0.8205	-1.407	-3.162	0	3	1030	1
2026-02-11	16:24:17.330	-0.28	0.07	-0.49	0.03294	-0.008784	1.0065	-0.825	-1.422	-3.1725	0	3	1030	1
2026-02-11	16:24:17.350	-0.245	0.035	-0.49	0.032452	-0.011956	1.00772	-0.825	-1.4265	-3.156	0	3	1030	1
2026-02-11	16:24:17.370	-0.315	0.07	-0.49	0.031964	-0.0122	1.008696	-0.8145	-1.4265	-3.156	0	3	1030	1
2026-02-11	16:24:17.390	-0.28	0.035	-0.49	0.032208	-0.009516	1.006988	-0.828	-1.4205	-3.162	0	3	1030	1
2026-02-11	16:24:17.410	-0.28	0.07	-0.525	0.03172	-0.010248	1.006744	-0.819	-1.422	-3.1605	0	3	1030	1
2026-02-11	16:24:17.430	-0.28	0.07	-0.525	0.033428	-0.010004	1.007476	-0.816	-1.4265	-3.1605	0	3	1030	1
2026-02-11	16:24:17.450	-0.28	0.035	-0.49	0.034648	-0.010736	1.007232	-0.819	-1.422	-3.165	0	3	1030	1
2026-02-11	16:24:17.470	-0.28	0.07	-0.455	0.035624	-0.012444	1.00772	-0.8235	-1.4205	-3.1575	0	3	1030	1
2026-02-11	16:24:17.490	-0.28	0.035	-0.525	0.033916	-0.012444	1.007476	-0.8235	-1.4205	-3.1575	0	3	1030	1
2026-02-11	16:24:17.510	-0.28	0.07	-0.49	0.032452	-0.011468	1.00772	-0.8235	-1.4175	-3.162	0	3	1030	1
2026-02-11	16:24:17.530	-0.28	0.07	-0.49	0.034892	-0.01342	1.006744	-0.8205	-1.4115	-3.165	0	3	1030	1
2026-02-11	16:24:17.550	-0.315	0.07	-0.49	0.032696	-0.007564	1.005768	-0.8235	-1.4145	-3.162	0	3	1030	1
2026-02-11	16:24:17.570	-0.245	0.07	-0.49	0.031964	-0.010004	1.008208	-0.822	-1.422	-3.162	0	3	1030	1
2026-02-11	16:24:17.590	-0.315	0.035	-0.455	0.031964	-0.010492	1.00894	-0.819	-1.4235	-3.1605	0	3	1030	1
2026-02-11	16:24:17.610	-0.245	0.07	-0.455	0.031232	-0.009516	1.008208	-0.822	-1.4235	-3.159	0	3	1030	1
2026-02-11	16:24:17.630	-0.28	0.105	-0.455	0.032208	-0.011224	1.008452	-0.8175	-1.4205	-3.156	0	3	1030	1
2026-02-11	16:24:17.650	-0.28	0.07	-0.49	0.034404	-0.007076	1.007476	-0.819	-1.4175	-3.159	0	3	1030	1
2026-02-11	16:24:17.670	-0.28	0.07	-0.49	0.033184	-0.010492	1.00894	-0.822	-1.4175	-3.1605	0	3	1030	1
2026-02-11	16:24:17.690	-0.28	0.035	-0.49	0.034892	-0.008296	1.0065	-0.816	-1.4145	-3.159	0	3	1030	1
2026-02-11	16:24:17.710	-0.28	0.07	-0.49	0.033184	-0.011956	1.008208	-0.819	-1.4145	-3.1635	0	3	1030	1
2026-02-11	16:24:17.730	-0.315	0.07	-0.455	0.037332	-0.011224	1.010648	-0.8235	-1.419	-3.1605	0	3	1030	1
2026-02-11	16:24:17.750	-0.315	0.035	-0.525	0.033916	-0.009272	1.0065	-0.8235	-1.4205	-3.156	0	3	1030	1
2026-02-11	16:24:17.770	-0.245	0.07	-0.455	0.031476	-0.011956	1.008208	-0.8235	-1.4205	-3.15	0	3	1030	1
2026-02-11	16:24:17.790	-0.245	0.07	-0.525	0.03172	-0.010248	1.009184	-0.8205	-1.419	-3.15	0	3	1030	1
2026-02-11	16:24:17.810	-0.28	0.035	-0.49	0.031476	-0.011224	1.005036	-0.816	-1.419	-3.162	0	2	1030	1
2026-02-11	16:24:17.830	-0.28	0.035	-0.49	0.033184	-0.00976	1.008208	-0.819	-1.419	-3.1635	0	2	1030	1
2026-02-11	16:24:17.850	-0.28	0.105	-0.49	0.030744	-0.013664	1.007476	-0.819	-1.416	-3.1605	0	2	1030	1
2026-02-11	16:24:17.870	-0.245	0.105	-0.49	0.035136	-0.009028	1.006744	-0.816	-1.4175	-3.159	0	2	1030	1
2026-02-11	16:24:17.890	-0.28	0.105	-0.49	0.03294	-0.012688	1.006744	-0.819	-1.4205	-3.1545	0	2	1030	1
2026-02-11	16:24:17.910	-0.315	0.105	-0.455	0.034404	-0.010248	1.00894	-0.8205	-1.422	-3.1575	0	2	1030	1
2026-02-11	16:24:17.930	-0.28	0.07	-0.49	0.032696	-0.011224	1.007964	-0.822	-1.4235	-3.1605	0	2	1030	1
2026-02-11	16:24:17.950	-0.28	0.07	-0.49	0.033428	-0.0122	1.007964	-0.822	-1.4205	-3.1635	0	2	1030	1
2026-02-11	16:24:17.970	-0.315	0.07	-0.525	0.033916	-0.010492	1.006988	-0.8175	-1.419	-3.1635	0	2	1030	1
2026-02-11	16:24:17.990	-0.28	0.105	-0.49	0.030256	-0.013664	1.009916	-0.816	-1.4205	-3.1575	0	2	1030	1
2026-02-11	16:24:18.010	-0.28	0.07	-0.49	0.032208	-0.009516	1.00772	-0.8235	-1.419	-3.1575	0	2	1030	1
2026-02-11	16:24:18.030	-0.315	0.035	-0.49	0.0305	-0.008784	1.006744	-0.831	-1.4175	-3.159	0	2	1030	1
2026-02-11	16:24:18.050	-0.315	0.07	-0.525	0.03294	-0.00976	1.005524	-0.822	-1.422	-3.1575	0	2	1030	1
2026-02-11	16:24:18.070	-0.28	0.07	-0.525	0.035624	-0.013908	1.009184	-0.8145	-1.422	-3.156	0	2	1030	1
2026-02-11	16:24:18.090	-0.315	0.07	-0.49	0.031964	-0.009516	1.007476	-0.813	-1.4145	-3.1575	0	2	1030	1
2026-02-11	16:24:18.110	-0.28	0.07	-0.49	0.031964	-0.011712	1.00894	-0.816	-1.4145	-3.1575	0	2	1030	1
2026-02-11	16:24:18.130	-0.28	0.035	-0.49	0.030744	-0.010004	1.006988	-0.819	-1.422	-3.1515	0	2	1030	1
2026-02-11	16:24:18.150	-0.28	0.07	-0.455	0.034648	-0.011224	1.006744	-0.825	-1.425	-3.156	0	2	1030	1
2026-02-11	16:24:18.170	-0.315	0.035	-0.49	0.034648	-0.00976	1.003816	-0.8085	-1.4295	-3.1605	0	2	1030	1
2026-02-11	16:24:18.190	-0.315	0.035	-0.455	0.0305	-0.007564	1.009428	-0.828	-1.4145	-3.165	0	2	1030	1
2026-02-11	16:24:18.210	-0.315	0.07	-0.525	0.03782	-0.010004	1.009672	-0.819	-1.4175	-3.1605	0	2	1030	1
2026-02-11	16:24:18.230	-0.28	0.07	-0.525	0.033428	-0.010492	1.00528	-0.8145	-1.4145	-3.1515	0	2	1030	1
2026-02-11	16:24:18.250	-0.315	0.035	-0.525	0.036112	-0.010004	1.006988	-0.8205	-1.4205	-3.1605	0	2	1030	1
2026-02-11	16:24:18.270	-0.28	0.035	-0.49	0.03172	-0.00854	1.006256	-0.822	-1.4235	-3.168	0	2	1030	1
2026-02-11	16:24:18.290	-0.28	0.035	-0.49	0.028548	-0.009272	1.00772	-0.819	-1.419	-3.1635	0	2	1030	1
2026-02-11	16:24:18.310	-0.28	0.035	-0.455	0.034648	-0.00854	1.0065	-0.819	-1.4175	-3.1545	0	2	1030	1
2026-02-11	16:24:18.330	-0.28	0.07	-0.49	0.035868	-0.011468	1.006744	-0.819	-1.4205	-3.162	0	2	1030	1
2026-02-11	16:24:18.350	-0.315	0.07	-0.455	0.038308	-0.00976	1.00894	-0.8205	-1.4235	-3.1665	0	2	1030	1
2026-02-11	16:24:18.370	-0.28	0.07	-0.49	0.032208	-0.013664	1.005768	-0.819	-1.416	-3.1605	0	2	1030	1
2026-02-11	16:24:18.390	-0.28	0.07	-0.49	0.034648	-0.008296	1.004548	-0.819	-1.428	-3.159	0	2	1030	1
2026-02-11	16:24:18.410	-0.28	0.07	-0.49	0.034648	-0.009272	1.007964	-0.822	-1.4265	-3.165	0	2	1030	1
2026-02-11	16:24:18.430	-0.245	0.07	-0.455	0.032452	-0.013176	1.006744	-0.8175	-1.4145	-3.1575	0	2	1030	1
2026-02-11	16:24:18.450	-0.28	0.035	-0.49	0.033672	-0.008052	1.006256	-0.819	-1.4145	-3.1605	0	2	1030	1
2026-02-11	16:24:18.470	-0.28	0.07	-0.49	0.032452	-0.009028	1.008452	-0.813	-1.41	-3.159	0	2	1030	1
2026-02-11	16:24:18.490	-0.28	0.035	-0.525	0.03172	-0.00732	1.008452	-0.8265	-1.4175	-3.1575	0	2	1030	1
2026-02-11	16:24:18.510	-0.28	0	-0.525	0.035868	-0.003904	1.009184	-0.8205	-1.41	-3.156	0	2	1030	1
2026-02-11	16:24:18.530	-0.28	0	-0.49	0.035136	-0.010004	1.008696	-0.8175	-1.425	-3.1605	0	2	1030	1
2026-02-11	16:24:18.550	-0.28	0.07	-0.49	0.031232	-0.00976	1.01016	-0.819	-1.4115	-3.1575	0	2	1030	1
2026-02-11	16:24:18.570	-0.28	0.035	-0.525	0.033428	-0.012688	1.007964	-0.819	-1.4115	-3.1575	0	2	1030	1
2026-02-11	16:24:18.590	-0.28	0.07	-0.525	0.033672	-0.009028	1.007232	-0.819	-1.4145	-3.159	0	2	1030	1
2026-02-11	16:24:18.610	-0.315	0.07	-0.49	0.034648	-0.008296	1.007232	-0.8205	-1.419	-3.159	0	2	1030	1
2026-02-11	16:24:18.630	-0.28	0.07	-0.49	0.033428	-0.009028	1.00894	-0.819	-1.422	-3.156	0	2	1030	1
2026-02-11	16:24:18.650	-0.28	0.035	-0.49	0.0366	-0.012444	1.005036	-0.8175	-1.4205	-3.1575	0	2	1030	1
2026-02-11	16:24:18.670	-0.245	0.07	-0.49	0.02928	-0.009516	1.00894	-0.819	-1.416	-3.162	0	2	1030	1
2026-02-11	16:24:18.690	-0.315	0.035	-0.455	0.034892	-0.009272	1.006988	-0.8175	-1.4175	-3.159	0	2	1030	1
2026-02-11	16:24:18.710	-0.28	0.07	-0.455	0.031964	-0.0061	1.011136	-0.819	-1.4205	-3.1575	0	2	1030	1
2026-02-11	16:24:18.730	-0.315	0.07	-0.49	0.032696	-0.00976	1.006012	-0.8175	-1.422	-3.1605	0	2	1030	1
2026-02-11	16:24:18.750	-0.28	0.07	-0.525	0.029768	-0.011224	1.00528	-0.8265	-1.4175	-3.159	0	2	1030	1
2026-02-11	16:24:18.770	-0.28	0.105	-0.49	0.032452	-0.011956	1.007232	-0.825	-1.419	-3.159	0	2	1030	1
2026-02-11	16:24:18.790	-0.28	0.035	-0.49	0.033428	-0.009516	1.005524	-0.8175	-1.4205	-3.1575	0	2	1030	1
2026-02-11	16:24:18.810	-0.28	0.035	-0.455	0.037088	-0.009516	1.004304	-0.8235	-1.4175	-3.159	0	2	1030	1
2026-02-11	16:24:18.830	-0.315	0.07	-0.525	0.030012	-0.011712	1.00894	-0.8265	-1.416	-3.1635	0	2	1030	1
2026-02-11	16:24:18.850	-0.28	0.07	-0.525	0.031964	-0.010492	1.009916	-0.8265	-1.416	-3.1635	0	2	1030	1
2026-02-11	16:24:18.870	-0.28	0.07	-0.49	0.033916	-0.009516	1.008696	-0.8235	-1.416	-3.1635	0	2	1030	1
2026-02-11	16:24:18.890	-0.28	0.105	-0.49	0.033184	-0.00854	1.009672	-0.816	-1.4205	-3.1605	0	2	1030	1
2026-02-11	16:24:18.910	-0.315	0.035	-0.525	0.03294	-0.009272	1.003816	-0.8175	-1.422	-3.1605	0	2	1030	1
2026-02-11	16:24:18.930	-0.315	0.035	-0.525	0.033184	-0.008052	1.008696	-0.822	-1.4205	-3.1605	0	2	1030	1
2026-02-11	16:24:18.950	-0.28	0.105	-0.455	0.032452	-0.010736	1.009428	-0.819	-1.419	-3.156	0	2	1030	1
2026-02-11	16:24:18.970	-0.315	0.035	-0.49	0.034404	-0.01098	1.004792	-0.816	-1.4175	-3.156	0	2	1030	1
2026-02-11	16:24:18.990	-0.28	0.105	-0.455	0.03294	-0.00854	1.00772	-0.8205	-1.4175	-3.1605	0	2	1030	1
2026-02-11	16:24:19.010	-0.28	0.035	-0.525	0.034892	-0.012688	1.002352	-0.822	-1.419	-3.162	0	2	1030	1
2026-02-11	16:24:19.030	-0.245	0	-0.49	0.033184	-0.008784	1.011868	-0.822	-1.419	-3.162	0	2	1030	1
2026-02-11	16:24:19.050	-0.28	0.14	-0.49	0.032452	-0.007808	1.012356	-0.819	-1.4175	-3.162	0	2	1030	1
2026-02-11	16:24:19.070	-0.385	-0.035	-0.525	0.030256	-0.00976	1.0004	-0.8175	-1.4175	-3.1605	0	2	1030	1
2026-02-11	16:24:19.090	-0.245	0.105	-0.49	0.034648	-0.011224	1.008452	-0.822	-1.4175	-3.1575	0	2	1030	1
2026-02-11	16:24:19.110	-0.28	0.035	-0.455	0.03538	-0.00732	1.006988	-0.822	-1.416	-3.156	0	2	1030	1
2026-02-11	16:24:19.130	-0.28	0.105	-0.49	0.032452	-0.011468	1.0065	-0.8265	-1.4265	-3.1605	0	2	1030	1
2026-02-11	16:24:19.150	-0.245	0.035	-0.525	0.027084	-0.010736	1.00406	-0.828	-1.416	-3.159	0	2	1030	1
2026-02-11	16:24:19.170	-0.28	0.105	-0.455	0.034404	-0.009516	1.01382	-0.8145	-1.4175	-3.162	0	2	1030	1
2026-02-11	16:24:19.190	-0.315	0	-0.49	0.03416	-0.009028	1.003816	-0.825	-1.422	-3.1695	0	2	1030	1
2026-02-11	16:24:19.210	-0.315	-0.035	-0.525	0.031964	-0.011956	1.0065	-0.828	-1.4205	-3.171	0	2	1030	1
2026-02-11	16:24:19.230	-0.28	0.07	-0.49	0.034892	-0.011468	1.01016	-0.8235	-1.413	-3.168	0	2	1030	1
2026-02-11	16:24:19.250	-0.315	0.035	-0.525	0.031232	-0.009272	1.009428	-0.8265	-1.413	-3.1725	0	2	1030	1
2026-02-11	16:24:19.270	-0.315	0	-0.525	0.035136	-0.01098	0.999668	-0.8325	-1.4235	-3.168	0	2	1030	1
2026-02-11	16:24:19.290	-0.28	0	-0.455	0.035136	-0.011224	1.008208	-0.8115	-1.4205	-3.1665	0	2	1030	1
2026-02-11	16:24:19.310	-0.28	0.105	-0.49	0.035624	-0.011468	1.011868	-0.819	-1.4205	-3.1635	0	2	1030	1
2026-02-11	16:24:19.330	-0.28	0	-0.525	0.032208	-0.007564	1.002108	-0.819	-1.4265	-3.165	0	2	1030	1
2026-02-11	16:24:19.350	-0.315	0.07	-0.49	0.032208	-0.009272	1.010892	-0.819	-1.4235	-3.1665	0	2	1030	1
2026-02-11	16:24:19.370	-0.245	0	-0.49	0.033184	-0.009516	1.006744	-0.8235	-1.422	-3.162	0	2	1030	1
2026-02-11	16:24:19.390	-0.28	0.035	-0.49	0.032452	-0.015372	1.007964	-0.822	-1.419	-3.162	0	2	1030	1
2026-02-11	16:24:19.410	-0.315	0.035	-0.49	0.033916	-0.00976	1.006012	-0.8205	-1.4175	-3.1635	0	2	1030	1
2026-02-11	16:24:19.430	-0.28	0.07	-0.49	0.03294	-0.00976	1.007964	-0.8175	-1.4265	-3.1575	0	2	1030	1
2026-02-11	16:24:19.450	-0.315	0.035	-0.49	0.033428	-0.01464	1.01016	-0.822	-1.416	-3.162	0	2	1030	1
2026-02-11	16:24:19.470	-0.28	0	-0.49	0.03538	-0.0061	1.005768	-0.8235	-1.4205	-3.1635	0	2	1030	1
2026-02-11	16:24:19.490	-0.315	0	-0.49	0.037088	-0.011468	1.0065	-0.816	-1.4235	-3.162	0	2	1030	1
2026-02-11	16:24:19.510	-0.28	0.07	-0.49	0.034648	-0.011224	1.010404	-0.816	-1.416	-3.1605	0	2	1030	1
2026-02-11	16:24:19.530	-0.315	0.035	-0.49	0.036356	-0.010004	1.004548	-0.819	-1.422	-3.1485	0	2	1030	1
2026-02-11	16:24:19.550	-0.28	0.035	-0.49	0.036112	-0.014152	1.009184	-0.8205	-1.425	-3.1725	0	2	1030	1
2026-02-11	16:24:19.570	-0.245	0.105	-0.49	0.036844	-0.008784	1.00894	-0.8205	-1.4145	-3.168	0	2	1030	1
2026-02-11	16:24:19.590	-0.315	0	-0.49	0.036356	-0.010248	1.0065	-0.8235	-1.4115	-3.159	0	2	1030	1
2026-02-11	16:24:19.610	-0.28	0.07	-0.49	0.034648	-0.011956	1.00772	-0.8295	-1.416	-3.1605	0	2	1030	1
2026-02-11	16:24:19.630	-0.28	0.105	-0.49	0.033428	-0.008052	1.007476	-0.8175	-1.425	-3.159	0	2	1030	1
2026-02-11	16:24:19.650	-0.315	0.035	-0.49	0.03172	-0.011956	1.003572	-0.8175	-1.425	-3.159	0	2	1030	1
2026-02-11	16:24:19.670	-0.28	0.07	-0.525	0.032696	-0.01098	1.006256	-0.819	-1.419	-3.165	0	2	1030	1
2026-02-11	16:24:19.690	-0.28	0.07	-0.49	0.03538	-0.009028	1.007232	-0.825	-1.4175	-3.1695	0	2	1030	1
2026-02-11	16:24:19.710	-0.28	0.07	-0.49	0.03416	-0.008296	1.00528	-0.8265	-1.4205	-3.162	0	2	1030	1
2026-02-11	16:24:19.730	-0.315	0.175	-0.525	0.031476	-0.00976	1.006988	-0.819	-1.4175	-3.162	0	2	1030	1
2026-02-11	16:24:19.750	-0.245	0.105	-0.525	0.033916	-0.009028	1.009672	-0.8175	-1.4205	-3.168	0	2	1030	1
2026-02-11	16:24:19.770	-0.28	0.105	-0.49	0.034404	-0.008296	1.009916	-0.8205	-1.422	-3.168	0	2	1030	1
2026-02-11	16:24:19.790	-0.315	0.035	-0.49	0.034404	-0.007076	1.006012	-0.8205	-1.419	-3.165	0	2	1030	1
2026-02-11	16:24:19.810	-0.28	0.105	-0.525	0.032208	-0.01098	1.01016	-0.822	-1.422	-3.1605	0	3	1030	1
2026-02-11	16:24:19.830	-0.28	0.07	-0.49	0.03416	-0.010492	1.00894	-0.8235	-1.4235	-3.1605	0	3	1030	1
2026-02-11	16:24:19.850	-0.28	0.07	-0.455	0.034648	-0.008784	1.006256	-0.825	-1.4235	-3.1605	0	3	1030	1
2026-02-11	16:24:19.870	-0.28	0.07	-0.49	0.034404	-0.00976	1.005036	-0.8265	-1.4175	-3.159	0	3	1030	1
2026-02-11	16:24:19.890	-0.28	0.105	-0.525	0.035136	-0.009516	1.007964	-0.822	-1.416	-3.156	0	3	1030	1
2026-02-11	16:24:19.910	-0.28	0.035	-0.525	0.037088	-0.010736	1.00528	-0.8175	-1.4205	-3.156	0	3	1030	1
2026-02-11	16:24:19.930	-0.28	0.105	-0.49	0.034404	-0.008052	1.009428	-0.8175	-1.4205	-3.156	0	3	1030	1
2026-02-11	16:24:19.950	-0.245	0.105	-0.455	0.03294	-0.011224	1.006988	-0.825	-1.41	-3.1605	0	3	1030	1
2026-02-11	16:24:19.970	-0.315	0.07	-0.49	0.036844	-0.014152	1.006744	-0.8235	-1.419	-3.165	0	3	1030	1
2026-02-11	16:24:19.990	-0.28	0.07	-0.525	0.032696	-0.010492	1.00528	-0.8235	-1.4175	-3.171	0	3	1030	1
2026-02-11	16:24:20.010	-0.315	0.105	-0.49	0.033184	-0.010492	1.009916	-0.8235	-1.419	-3.165	0	3	1030	1
2026-02-11	16:24:20.030	-0.28	0.035	-0.49	0.030988	-0.006344	1.005768	-0.822	-1.419	-3.159	0	3	1030	1
2026-02-11	16:24:20.050	-0.28	0.07	-0.49	0.029524	-0.009516	1.008208	-0.8175	-1.4205	-3.1605	0	3	1030	1
2026-02-11	16:24:20.070	-0.28	0.07	-0.49	0.033916	-0.010736	1.007964	-0.8175	-1.4205	-3.1635	0	3	1030	1
2026-02-11	16:24:20.090	-0.28	0.07	-0.525	0.032208	-0.009516	1.008208	-0.825	-1.419	-3.159	0	3	1030	1
2026-02-11	16:24:20.110	-0.28	0.07	-0.49	0.032452	-0.011224	1.007476	-0.8265	-1.422	-3.1575	0	3	1030	1
2026-02-11	16:24:20.130	-0.245	0.105	-0.49	0.033184	-0.010004	1.006744	-0.8205	-1.4205	-3.159	0	3	1030	1
2026-02-11	16:24:20.150	-0.28	0.07	-0.49	0.03538	-0.01098	1.009428	-0.816	-1.416	-3.1605	0	3	1030	1
2026-02-11	16:24:20.170	-0.315	0.07	-0.49	0.032696	-0.011224	1.008208	-0.819	-1.4175	-3.156	0	3	1030	1
2026-02-11	16:24:20.190	-0.28	0.07	-0.455	0.031476	-0.009028	1.007964	-0.822	-1.4205	-3.1515	0	3	1030	1
2026-02-11	16:24:20.210	-0.28	0.105	-0.49	0.0366	-0.010736	1.009184	-0.822	-1.419	-3.168	0	3	1030	1
2026-02-11	16:24:20.230	-0.28	0.035	-0.525	0.034892	-0.010492	1.010648	-0.8175	-1.4145	-3.1605	0	3	1030	1
2026-02-11	16:24:20.250	-0.28	0.035	-0.49	0.034648	-0.009272	1.006012	-0.831	-1.422	-3.165	0	3	1030	1
2026-02-11	16:24:20.270	-0.28	0.07	-0.455	0.032208	-0.005856	1.00772	-0.807	-1.422	-3.1635	0	3	1030	1
2026-02-11	16:24:20.290	-0.28	0.07	-0.525	0.034648	-0.011956	1.007964	-0.816	-1.4235	-3.165	0	3	1030	1
2026-02-11	16:24:20.310	-0.28	0.07	-0.525	0.032696	-0.01464	1.006744	-0.828	-1.4235	-3.1575	0	3	1030	1
2026-02-11	16:24:20.330	-0.28	0.035	-0.49	0.033184	-0.007564	1.006256	-0.825	-1.4205	-3.165	0	3	1030	1
2026-02-11	16:24:20.350	-0.315	0.07	-0.49	0.03416	-0.01342	1.006744	-0.825	-1.416	-3.1545	0	3	1030	1
2026-02-11	16:24:20.370	-0.28	0.105	-0.42	0.033184	-0.010004	1.008452	-0.8235	-1.4145	-3.159	0	3	1030	1
2026-02-11	16:24:20.390	-0.28	0.105	-0.49	0.033672	-0.008052	1.009428	-0.822	-1.4235	-3.1575	0	3	1030	1
2026-02-11	16:24:20.410	-0.315	0.07	-0.49	0.033916	-0.010736	1.009672	-0.8175	-1.419	-3.1515	0	3	1030	1
2026-02-11	16:24:20.430	-0.28	0.07	-0.49	0.035136	-0.00732	1.00772	-0.813	-1.422	-3.165	0	3	1030	1
2026-02-11	16:24:20.450	-0.315	0.105	-0.49	0.031476	-0.010736	1.008208	-0.825	-1.4145	-3.168	0	3	1030	1
2026-02-11	16:24:20.470	-0.28	0.105	-0.455	0.032696	-0.009516	1.006988	-0.825	-1.4175	-3.165	0	3	1030	1
2026-02-11	16:24:20.490	-0.28	0.07	-0.525	0.030988	-0.00732	1.007964	-0.8205	-1.422	-3.1605	0	3	1030	1
2026-02-11	16:24:20.510	-0.315	0.035	-0.49	0.032452	-0.010248	1.007476	-0.8175	-1.4205	-3.1575	0	3	1030	1
2026-02-11	16:24:20.530	-0.28	0.035	-0.455	0.032696	-0.009028	1.0065	-0.8175	-1.4205	-3.1575	0	3	1030	1
2026-02-11	16:24:20.550	-0.28	0.105	-0.49	0.032696	-0.012444	1.008696	-0.816	-1.4235	-3.159	0	3	1030	1
2026-02-11	16:24:20.570	-0.28	0.07	-0.455	0.030988	-0.005612	1.007232	-0.8205	-1.413	-3.1635	0	3	1030	1
2026-02-11	16:24:20.590	-0.28	0.07	-0.525	0.034648	-0.013908	1.00528	-0.8175	-1.4205	-3.1635	0	3	1030	1
2026-02-11	16:24:20.610	-0.28	0.07	-0.49	0.030012	-0.006588	1.007476	-0.8265	-1.422	-3.165	0	3	1030	1
2026-02-11	16:24:20.630	-0.28	0.105	-0.49	0.033428	-0.010004	1.005524	-0.819	-1.4205	-3.162	0	3	1030	1
2026-02-11	16:24:20.650	-0.28	0.035	-0.49	0.0305	-0.012444	1.006012	-0.8145	-1.4175	-3.159	0	3	1030	1
2026-02-11	16:24:20.670	-0.28	0.105	-0.525	0.035136	-0.01098	1.006988	-0.816	-1.4205	-3.162	0	3	1030	1
2026-02-11	16:24:20.690	-0.28	0.105	-0.49	0.031476	-0.009516	1.00528	-0.816	-1.422	-3.156	0	3	1030	1
2026-02-11	16:24:20.710	-0.245	0.035	-0.49	0.038064	-0.010736	1.011136	-0.828	-1.419	-3.1635	0	3	1030	1
2026-02-11	16:24:20.730	-0.28	0.07	-0.49	0.033672	-0.011468	1.007232	-0.828	-1.419	-3.1635	0	3	1030	1
2026-02-11	16:24:20.750	-0.28	0.07	-0.455	0.032452	-0.008052	1.004792	-0.822	-1.422	-3.1635	0	3	1030	1
2026-02-11	16:24:20.770	-0.28	0.105	-0.455	0.032208	-0.010736	1.009184	-0.8145	-1.4205	-3.165	0	3	1030	1
2026-02-11	16:24:20.790	-0.28	0.07	-0.455	0.036844	-0.01098	1.009428	-0.819	-1.416	-3.165	0	3	1030	1
2026-02-11	16:24:20.810	-0.315	0.035	-0.49	0.034648	-0.010492	1.006012	-0.822	-1.4175	-3.165	0	3	1030	1
2026-02-11	16:24:20.830	-0.28	0.07	-0.525	0.03416	-0.007808	1.006744	-0.8205	-1.419	-3.1635	0	3	1030	1
2026-02-11	16:24:20.850	-0.28	0.07	-0.525	0.033916	-0.012688	1.011868	-0.819	-1.4175	-3.159	0	3	1030	1
2026-02-11	16:24:20.870	-0.28	0.07	-0.525	0.033672	-0.009516	1.01016	-0.8145	-1.4145	-3.1575	0	3	1030	1
2026-02-11	16:24:20.890	-0.28	0.07	-0.455	0.033672	-0.010492	1.007964	-0.8145	-1.4205	-3.1575	0	3	1030	1
2026-02-11	16:24:20.910	-0.315	0.07	-0.49	0.034892	-0.012444	1.00406	-0.8175	-1.4235	-3.1635	0	3	1030	1
2026-02-11	16:24:20.930	-0.28	0.07	-0.455	0.031476	-0.009028	1.007232	-0.8175	-1.422	-3.1665	0	3	1030	1
2026-02-11	16:24:20.950	-0.245	0.105	-0.525	0.030744	-0.010004	1.006744	-0.8205	-1.4235	-3.1635	0	3	1030	1
2026-02-11	16:24:20.970	-0.245	0.105	-0.49	0.033916	-0.010736	1.00894	-0.8235	-1.4235	-3.1605	0	3	1030	1
2026-02-11	16:24:20.990	-0.28	0.07	-0.525	0.03782	-0.00732	1.005524	-0.822	-1.4235	-3.159	0	3	1030	1
2026-02-11	16:24:21.010	-0.315	0.07	-0.49	0.034648	-0.010248	1.008696	-0.822	-1.4235	-3.159	0	3	1030	1
2026-02-11	16:24:21.030	-0.28	0.07	-0.49	0.033916	-0.008052	1.006012	-0.8205	-1.416	-3.1635	0	3	1030	1
2026-02-11	16:24:21.050	-0.245	0.035	-0.455	0.033672	-0.008784	1.008208	-0.8115	-1.422	-3.159	0	3	1030	1
2026-02-11	16:24:21.070	-0.28	0.07	-0.49	0.036356	-0.00854	1.006744	-0.8205	-1.413	-3.1635	0	3	1030	1
2026-02-11	16:24:21.090	-0.28	0.035	-0.525	0.03294	-0.00854	1.009916	-0.8205	-1.422	-3.1635	0	3	1030	1
2026-02-11	16:24:21.110	-0.28	0.035	-0.49	0.0305	-0.010492	1.008208	-0.825	-1.419	-3.1575	0	3	1030	1
2026-02-11	16:24:21.130	-0.28	0.07	-0.49	0.034648	-0.009028	1.005768	-0.819	-1.422	-3.162	0	3	1030	1
2026-02-11	16:24:21.150	-0.315	0.035	-0.49	0.034648	-0.0122	1.007476	-0.8145	-1.4235	-3.1635	0	3	1030	1
2026-02-11	16:24:21.170	-0.315	0.07	-0.49	0.035136	-0.009272	1.010404	-0.816	-1.422	-3.156	0	3	1030	1
2026-02-11	16:24:21.190	-0.28	0.07	-0.49	0.03172	-0.011712	1.006744	-0.8115	-1.4175	-3.1575	0	3	1030	1
2026-02-11	16:24:21.210	-0.28	0.07	-0.49	0.034404	-0.010004	1.007476	-0.8085	-1.416	-3.1605	0	3	1030	1
2026-02-11	16:24:21.230	-0.28	0.035	-0.525	0.031964	-0.009516	1.008452	-0.816	-1.416	-3.1605	0	3	1030	1
2026-02-11	16:24:21.250	-0.28	0.07	-0.49	0.032208	-0.010248	1.006256	-0.8205	-1.4115	-3.1635	0	3	1030	1
2026-02-11	16:24:21.270	-0.28	0.035	-0.525	0.035136	-0.009028	1.0065	-0.819	-1.41	-3.1605	0	3	1030	1
2026-02-11	16:24:21.290	-0.315	0.105	-0.455	0.033916	-0.011468	1.009672	-0.819	-1.422	-3.1635	0	3	1030	1
2026-02-11	16:24:21.310	-0.315	0.07	-0.525	0.033184	-0.007076	1.00772	-0.8175	-1.4205	-3.159	0	3	1030	1
2026-02-11	16:24:21.330	-0.315	0.07	-0.49	0.03172	-0.010736	1.007476	-0.819	-1.4175	-3.1605	0	3	1030	1
2026-02-11	16:24:21.350	-0.28	0.035	-0.455	0.034648	-0.009028	1.008208	-0.8175	-1.4175	-3.1575	0	3	1030	1
2026-02-11	16:24:21.370	-0.28	0.07	-0.525	0.032696	-0.013176	1.001864	-0.8085	-1.4115	-3.171	0	3	1030	1
2026-02-11	16:24:21.390	-0.245	0.105	-0.49	0.030744	-0.011224	1.0065	-0.822	-1.4085	-3.153	0	3	1030	1
2026-02-11	16:24:21.410	-0.28	0.105	-0.49	0.033184	-0.011224	1.007964	-0.8205	-1.4175	-3.162	0	3	1030	1
2026-02-11	16:24:21.430	-0.28	0.035	-0.49	0.033428	-0.010492	1.0065	-0.8145	-1.4175	-3.1605	0	3	1030	1
2026-02-11	16:24:21.450	-0.245	0.035	-0.525	0.034892	-0.01098	1.004792	-0.822	-1.419	-3.1545	0	3	1030	1
2026-02-11	16:24:21.470	-0.28	0.07	-0.49	0.033672	-0.010736	1.00772	-0.8235	-1.419	-3.156	0	3	1030	1
2026-02-11	16:24:21.490	-0.245	0.07	-0.455	0.03294	-0.009272	1.007964	-0.8145	-1.413	-3.153	0	3	1030	1
2026-02-11	16:24:21.510	-0.315	0.035	-0.49	0.03294	-0.00732	1.005036	-0.804	-1.425	-3.156	0	3	1030	1
2026-02-11	16:24:21.530	-0.28	0.105	-0.525	0.034404	-0.00976	1.008452	-0.813	-1.419	-3.1635	0	3	1030	1
2026-02-11	16:24:21.550	-0.28	0.07	-0.49	0.034648	-0.009028	1.008452	-0.813	-1.416	-3.159	0	3	1030	1
2026-02-11	16:24:21.570	-0.315	0.07	-0.49	0.032696	-0.012932	1.007232	-0.8145	-1.4145	-3.159	0	3	1030	1
2026-02-11	16:24:21.590	-0.28	0.07	-0.49	0.031964	-0.00976	1.009184	-0.8145	-1.4175	-3.1575	0	3	1030	1
2026-02-11	16:24:21.610	-0.28	0.07	-0.49	0.030744	-0.010736	1.007964	-0.816	-1.4175	-3.156	0	3	1030	1
2026-02-11	16:24:21.630	-0.28	0.035	-0.49	0.033672	-0.00976	1.006744	-0.8205	-1.4145	-3.1575	0	3	1030	1
2026-02-11	16:24:21.650	-0.315	0.07	-0.49	0.032452	-0.00732	1.007232	-0.816	-1.4145	-3.159	0	3	1030	1
2026-02-11	16:24:21.670	-0.315	0.07	-0.49	0.034648	-0.00976	1.007964	-0.8145	-1.4175	-3.159	0	3	1030	1
2026-02-11	16:24:21.690	-0.28	0.035	-0.455	0.03416	-0.010736	1.007964	-0.819	-1.4175	-3.1605	0	3	1030	1
2026-02-11	16:24:21.710	-0.315	0.035	-0.49	0.034892	-0.01342	1.006988	-0.825	-1.4265	-3.1545	0	3	1030	1
2026-02-11	16:24:21.730	-0.315	0.07	-0.49	0.035624	-0.012444	1.008452	-0.816	-1.422	-3.162	0	3	1030	1
2026-02-11	16:24:21.750	-0.315	0.07	-0.49	0.03294	-0.009028	1.009184	-0.8175	-1.416	-3.1605	0	3	1030	1
2026-02-11	16:24:21.770	-0.28	0.07	-0.49	0.034892	-0.012444	1.009428	-0.822	-1.416	-3.156	0	3	1030	1
2026-02-11	16:24:21.790	-0.28	0.07	-0.49	0.03782	-0.012688	1.007476	-0.8265	-1.419	-3.159	0	3	1030	1
2026-02-11	16:24:21.810	-0.28	0.105	-0.525	0.031476	-0.011712	1.009672	-0.8265	-1.419	-3.159	0	3	1030	1
2026-02-11	16:24:21.830	-0.315	0.07	-0.49	0.034892	-0.008784	1.008452	-0.8205	-1.419	-3.159	0	3	1030	1
2026-02-11	16:24:21.850	-0.28	0.07	-0.525	0.034404	-0.00976	1.007232	-0.8175	-1.419	-3.1575	0	3	1030	1
2026-02-11	16:24:21.870	-0.28	0.07	-0.49	0.032452	-0.00854	1.009184	-0.819	-1.422	-3.156	0	3	1030	1
2026-02-11	16:24:21.890	-0.28	0.07	-0.49	0.033428	-0.00854	1.007476	-0.816	-1.4175	-3.159	0	3	1030	1
2026-02-11	16:24:21.910	-0.28	0.07	-0.455	0.034648	-0.009516	1.006988	-0.8175	-1.4175	-3.1575	0	3	1030	1
2026-02-11	16:24:21.930	-0.28	0.07	-0.49	0.030744	-0.009272	1.009672	-0.822	-1.4205	-3.1575	0	3	1030	1
2026-02-11	16:24:21.950	-0.315	0.035	-0.49	0.03416	-0.006588	1.009428	-0.816	-1.416	-3.162	0	3	1030	1
2026-02-11	16:24:21.970	-0.315	0.035	-0.49	0.031476	-0.010736	1.00528	-0.813	-1.419	-3.1635	0	3	1030	1
2026-02-11	16:24:21.990	-0.245	0.07	-0.49	0.03172	-0.011712	1.009672	-0.8175	-1.4205	-3.1635	0	3	1030	1
2026-02-11	16:24:22.010	-0.28	0.035	-0.455	0.033916	-0.011224	1.002596	-0.8205	-1.4175	-3.1635	0	3	1030	1
2026-02-11	16:24:22.030	-0.28	0.07	-0.455	0.033428	-0.00854	1.007964	-0.819	-1.422	-3.1605	0	3	1030	1
2026-02-11	16:24:22.050	-0.315	0.07	-0.525	0.03294	-0.008784	1.007232	-0.816	-1.422	-3.156	0	3	1030	1
2026-02-11	16:24:22.070	-0.245	0.105	-0.49	0.034404	-0.008296	1.0065	-0.816	-1.4175	-3.153	0	3	1030	1
2026-02-11	16:24:22.090	-0.28	0.07	-0.455	0.032452	-0.011712	1.006988	-0.822	-1.4115	-3.1605	0	3	1030	1
2026-02-11	16:24:22.110	-0.28	0.035	-0.49	0.032696	-0.012444	1.0065	-0.8145	-1.4115	-3.1575	0	3	1030	1
2026-02-11	16:24:22.130	-0.28	0.07	-0.49	0.033672	-0.009516	1.008696	-0.8205	-1.4145	-3.168	0	3	1030	1
2026-02-11	16:24:22.150	-0.28	0.07	-0.49	0.034892	-0.00976	1.013332	-0.819	-1.413	-3.159	0	3	1030	1
2026-02-11	16:24:22.170	-0.28	0.07	-0.525	0.02806	-0.009028	1.001864	-0.8145	-1.4205	-3.162	0	3	1030	1
2026-02-11	16:24:22.190	-0.28	0.07	-0.49	0.031964	-0.008296	1.009672	-0.825	-1.4175	-3.165	0	3	1030	1
2026-02-11	16:24:22.210	-0.28	0.035	-0.49	0.038064	-0.011468	1.007964	-0.8175	-1.4235	-3.159	0	3	1030	1
2026-02-11	16:24:22.230	-0.315	0.035	-0.49	0.034648	-0.010492	1.002596	-0.822	-1.419	-3.1545	0	3	1030	1
2026-02-11	16:24:22.250	-0.28	0.105	-0.49	0.034648	-0.007564	1.010892	-0.8175	-1.416	-3.1575	0	3	1030	1
2026-02-11	16:24:22.270	-0.28	0.07	-0.525	0.031232	-0.010248	1.00772	-0.81	-1.416	-3.1605	0	3	1030	1
2026-02-11	16:24:22.290	-0.28	0.035	-0.455	0.031964	-0.011712	1.007476	-0.81	-1.4205	-3.1605	0	3	1030	1
2026-02-11	16:24:22.310	-0.28	0.035	-0.455	0.034648	-0.008296	1.007476	-0.8145	-1.419	-3.1605	0	3	1030	1
2026-02-11	16:24:22.330	-0.28	0.035	-0.455	0.034648	-0.011712	1.0065	-0.8175	-1.4175	-3.1575	0	3	1030	1
2026-02-11	16:24:22.350	-0.28	0.07	-0.49	0.033672	-0.010736	1.004792	-0.8175	-1.422	-3.1545	0	3	1030	1
2026-02-11	16:24:22.370	-0.28	0.07	-0.49	0.03538	-0.010492	1.005036	-0.816	-1.416	-3.1635	0	3	1030	1
2026-02-11	16:24:22.390	-0.28	0.07	-0.49	0.035624	-0.009272	1.008696	-0.8175	-1.419	-3.156	0	3	1030	1
2026-02-11	16:24:22.410	-0.28	0.105	-0.49	0.031476	-0.01098	1.005524	-0.816	-1.4145	-3.159	0	3	1030	1
2026-02-11	16:24:22.430	-0.315	0.105	-0.49	0.033916	-0.009028	1.009916	-0.8205	-1.416	-3.1575	0	3	1030	1
2026-02-11	16:24:22.450	-0.28	0.07	-0.49	0.030012	-0.014396	1.00528	-0.8115	-1.4115	-3.162	0	3	1030	1
2026-02-11	16:24:22.470	-0.28	0.105	-0.49	0.03416	-0.00732	1.009916	-0.8085	-1.4175	-3.1635	0	3	1030	1
2026-02-11	16:24:22.490	-0.28	0.035	-0.49	0.03538	-0.009028	1.007476	-0.804	-1.425	-3.162	0	3	1030	1
2026-02-11	16:24:22.510	-0.28	0.035	-0.455	0.035624	-0.010004	1.004792	-0.8235	-1.4265	-3.159	0	3	1030	1
2026-02-11	16:24:22.530	-0.315	0.07	-0.49	0.032696	-0.008296	1.006256	-0.819	-1.4205	-3.1605	0	3	1030	1
2026-02-11	16:24:22.550	-0.315	0.07	-0.49	0.034404	-0.009516	1.007476	-0.822	-1.4205	-3.1635	0	3	1030	1
2026-02-11	16:24:22.570	-0.28	0.07	-0.49	0.030744	-0.009516	1.009184	-0.831	-1.4145	-3.1575	0	3	1030	1
2026-02-11	16:24:22.590	-0.28	0.07	-0.525	0.032696	-0.011712	1.008452	-0.8205	-1.4175	-3.156	0	3	1030	1
2026-02-11	16:24:22.610	-0.28	0.07	-0.49	0.034892	-0.00976	1.00894	-0.822	-1.4235	-3.156	0	3	1030	1
2026-02-11	16:24:22.630	-0.315	0.07	-0.455	0.034892	-0.007076	1.00772	-0.819	-1.419	-3.153	0	3	1030	1
2026-02-11	16:24:22.650	-0.28	0.07	-0.455	0.035868	-0.008784	1.005524	-0.8145	-1.4115	-3.153	0	3	1030	1
2026-02-11	16:24:22.670	-0.28	0.07	-0.525	0.031476	-0.009028	1.00894	-0.8145	-1.4145	-3.159	0	3	1030	1
2026-02-11	16:24:22.690	-0.315	0.035	-0.525	0.032696	-0.006832	1.003572	-0.8175	-1.422	-3.156	0	3	1030	1
2026-02-11	16:24:22.710	-0.28	0.105	-0.49	0.033672	-0.007564	1.00772	-0.8175	-1.4205	-3.1515	0	3	1030	1
2026-02-11	16:24:22.730	-0.315	0.105	-0.49	0.033672	-0.013176	1.007476	-0.819	-1.4175	-3.1605	0	3	1030	1
2026-02-11	16:24:22.750	-0.28	0.07	-0.49	0.031964	-0.010736	1.008452	-0.8175	-1.416	-3.1635	0	3	1030	1
2026-02-11	16:24:22.770	-0.28	0.07	-0.49	0.032452	-0.008296	1.009916	-0.8175	-1.416	-3.159	0	3	1030	1
2026-02-11	16:24:22.790	-0.315	0.07	-0.49	0.038064	-0.01098	1.007476	-0.822	-1.4205	-3.1605	0	3	1030	1
2026-02-11	16:24:22.810	-0.315	0.035	-0.49	0.032452	-0.013664	1.00406	-0.819	-1.422	-3.1575	0	3	1030	1
2026-02-11	16:24:22.830	-0.28	0.07	-0.49	0.033184	-0.0061	1.0065	-0.8145	-1.422	-3.1575	0	3	1030	1
2026-02-11	16:24:22.850	-0.28	0.105	-0.49	0.031964	-0.01098	1.010404	-0.8175	-1.4235	-3.159	0	3	1030	1
2026-02-11	16:24:22.870	-0.28	0	-0.525	0.036844	-0.007564	1.007476	-0.819	-1.4235	-3.156	0	3	1030	1
2026-02-11	16:24:22.890	-0.28	0.035	-0.525	0.033428	-0.01098	1.009672	-0.819	-1.4235	-3.156	0	3	1030	1
2026-02-11	16:24:22.910	-0.315	0	-0.525	0.03782	-0.008296	1.0065	-0.8175	-1.425	-3.1545	0	3	1030	1
2026-02-11	16:24:22.930	-0.315	0.035	-0.455	0.03538	-0.011468	1.007232	-0.8175	-1.4265	-3.1545	0	3	1030	1
2026-02-11	16:24:22.950	-0.28	0.105	-0.525	0.031964	-0.00976	1.011136	-0.819	-1.422	-3.1605	0	3	1030	1
2026-02-11	16:24:22.970	-0.315	0.07	-0.56	0.033672	-0.009272	1.008452	-0.825	-1.419	-3.1635	0	3	1030	1
2026-02-11	16:24:22.990	-0.28	0.105	-0.56	0.03782	-0.010004	1.00772	-0.825	-1.4175	-3.1605	0	3	1030	1
2026-02-11	16:24:23.010	-0.28	0.14	-0.49	0.038064	-0.008052	1.008208	-0.819	-1.4205	-3.1545	0	3	1030	1
2026-02-11	16:24:23.030	-0.315	0.105	-0.49	0.034648	-0.010492	1.008452	-0.8175	-1.4205	-3.156	0	3	1030	1
2026-02-11	16:24:23.050	-0.315	0.035	-0.49	0.035868	-0.010004	1.006988	-0.8205	-1.4205	-3.162	0	3	1030	1
2026-02-11	16:24:23.070	-0.28	0.035	-0.49	0.033184	-0.011224	1.007232	-0.819	-1.4205	-3.1635	0	3	1030	1
2026-02-11	16:24:23.090	-0.315	0.035	-0.49	0.034404	-0.011712	1.008208	-0.8175	-1.419	-3.1635	0	3	1030	1
2026-02-11	16:24:23.110	-0.28	0.07	-0.49	0.031476	-0.007076	1.006988	-0.8205	-1.4145	-3.159	0	3	1030	1
2026-02-11	16:24:23.130	-0.245	0.07	-0.49	0.033428	-0.012444	1.007476	-0.8205	-1.419	-3.156	0	3	1030	1
2026-02-11	16:24:23.150	-0.28	0	-0.49	0.034648	-0.008296	1.0065	-0.819	-1.425	-3.1575	0	3	1030	1
2026-02-11	16:24:23.170	-0.245	0.07	-0.49	0.032452	-0.009272	1.007964	-0.8175	-1.4175	-3.1545	0	3	1030	1
2026-02-11	16:24:23.190	-0.28	0.105	-0.49	0.03172	-0.012444	1.006988	-0.822	-1.419	-3.1575	0	3	1030	1
2026-02-11	16:24:23.210	-0.28	0.105	-0.49	0.028304	-0.008296	1.006744	-0.822	-1.4145	-3.159	0	3	1030	1
2026-02-11	16:24:23.230	-0.315	0.07	-0.49	0.034892	-0.010004	1.01016	-0.8175	-1.41	-3.1665	0	3	1030	1
2026-02-11	16:24:23.250	-0.28	0.07	-0.49	0.032208	-0.010492	1.007232	-0.822	-1.422	-3.159	0	3	1030	1
2026-02-11	16:24:23.270	-0.28	0.07	-0.49	0.03416	-0.011468	1.007476	-0.8205	-1.419	-3.1575	0	3	1030	1
2026-02-11	16:24:23.290	-0.28	0.035	-0.49	0.03294	-0.007076	1.005524	-0.813	-1.41	-3.162	0	3	1030	1
2026-02-11	16:24:23.310	-0.28	0.07	-0.49	0.036112	-0.010736	1.008208	-0.819	-1.419	-3.159	0	3	1030	1
2026-02-11	16:24:23.330	-0.28	0.035	-0.49	0.035136	-0.007076	1.009184	-0.8235	-1.4205	-3.1605	0	3	1030	1
2026-02-11	16:24:23.350	-0.28	0.035	-0.455	0.034404	-0.010004	1.004792	-0.816	-1.425	-3.1605	0	3	1030	1
2026-02-11	16:24:23.370	-0.28	0.105	-0.525	0.031232	-0.009516	1.0065	-0.819	-1.4205	-3.1575	0	3	1030	1
2026-02-11	16:24:23.390	-0.245	0.105	-0.525	0.030012	-0.011224	1.009428	-0.8115	-1.4235	-3.153	0	3	1030	1
2026-02-11	16:24:23.410	-0.28	0.07	-0.49	0.037576	-0.007564	1.0065	-0.8175	-1.416	-3.1725	0	3	1030	1
2026-02-11	16:24:23.430	-0.28	0.07	-0.49	0.034892	-0.009272	1.002108	-0.822	-1.4145	-3.165	0	3	1030	1
2026-02-11	16:24:23.450	-0.28	0.07	-0.49	0.033672	-0.010492	1.0065	-0.828	-1.413	-3.159	0	3	1030	1
2026-02-11	16:24:23.470	-0.28	0.07	-0.49	0.032208	-0.011712	1.0065	-0.8175	-1.422	-3.1605	0	3	1030	1
2026-02-11	16:24:23.490	-0.28	0.07	-0.455	0.032452	-0.009516	1.009184	-0.822	-1.4235	-3.1515	0	3	1030	1
2026-02-11	16:24:23.510	-0.315	0.035	-0.49	0.031964	-0.010004	1.0065	-0.819	-1.416	-3.156	0	3	1030	1
2026-02-11	16:24:23.530	-0.315	0.035	-0.49	0.031964	-0.008296	1.005768	-0.819	-1.419	-3.1575	0	3	1030	1
2026-02-11	16:24:23.550	-0.315	0.105	-0.49	0.034404	-0.011224	1.006012	-0.8235	-1.4175	-3.159	0	3	1030	1
2026-02-11	16:24:23.570	-0.28	0.105	-0.49	0.033428	-0.010736	1.008208	-0.8205	-1.419	-3.1575	0	3	1030	1
2026-02-11	16:24:23.590	-0.315	0.14	-0.525	0.031232	-0.011712	1.008696	-0.819	-1.422	-3.168	0	3	1030	1
2026-02-11	16:24:23.610	-0.315	0.07	-0.525	0.033428	-0.010004	1.009184	-0.8265	-1.4175	-3.1605	0	3	1030	1
2026-02-11	16:24:23.630	-0.315	0.035	-0.49	0.031232	-0.009028	1.00894	-0.822	-1.422	-3.1605	0	3	1030	1
2026-02-11	16:24:23.650	-0.28	0.035	-0.49	0.035868	-0.00854	1.009672	-0.819	-1.419	-3.159	0	3	1030	1
2026-02-11	16:24:23.670	-0.315	0.035	-0.455	0.035136	-0.00976	1.004304	-0.819	-1.419	-3.153	0	3	1030	1
2026-02-11	16:24:23.690	-0.28	0.07	-0.49	0.03538	-0.009028	1.007964	-0.819	-1.419	-3.153	0	3	1030	1
2026-02-11	16:24:23.710	-0.315	0.035	-0.49	0.03538	-0.011468	1.003572	-0.816	-1.419	-3.156	0	3	1030	1
2026-02-11	16:24:23.730	-0.28	0.07	-0.455	0.033672	-0.00976	1.008208	-0.81	-1.419	-3.1575	0	3	1030	1
2026-02-11	16:24:23.750	-0.315	0.105	-0.49	0.030988	-0.008784	1.011868	-0.816	-1.4145	-3.156	0	3	1030	1
2026-02-11	16:24:23.770	-0.315	0.07	-0.455	0.031232	-0.010248	1.005524	-0.819	-1.4145	-3.1605	0	3	1030	1
2026-02-11	16:24:23.790	-0.28	0.07	-0.525	0.034404	-0.0061	1.006744	-0.8145	-1.416	-3.1605	0	3	1030	1
2026-02-11	16:24:23.810	-0.28	0.105	-0.49	0.03538	-0.013664	1.007232	-0.816	-1.4145	-3.1605	0	3	1030	1
2026-02-11	16:24:23.830	-0.28	0.035	-0.49	0.03294	-0.010736	1.005036	-0.816	-1.413	-3.159	0	3	1030	1
2026-02-11	16:24:23.850	-0.28	0.105	-0.525	0.028792	-0.007076	1.005524	-0.8175	-1.416	-3.162	0	3	1030	1
2026-02-11	16:24:23.870	-0.245	0.105	-0.455	0.033916	-0.009516	1.009672	-0.8175	-1.4175	-3.1635	0	3	1030	1
2026-02-11	16:24:23.890	-0.28	0.035	-0.49	0.030256	-0.0122	1.005524	-0.8205	-1.416	-3.162	0	3	1030	1
2026-02-11	16:24:23.910	-0.28	0.035	-0.49	0.038308	-0.010248	1.006988	-0.822	-1.4205	-3.162	0	3	1030	1
2026-02-11	16:24:23.930	-0.28	0.035	-0.49	0.035624	-0.009028	1.006744	-0.8145	-1.4205	-3.153	0	3	1030	1
2026-02-11	16:24:23.950	-0.28	0.07	-0.49	0.03294	-0.00854	1.006988	-0.8115	-1.4175	-3.147	0	3	1030	1
2026-02-11	16:24:23.970	-0.28	0.105	-0.525	0.031476	-0.009272	1.010404	-0.8115	-1.4175	-3.147	0	3	1030	1
2026-02-11	16:24:23.990	-0.315	0.105	-0.49	0.031964	-0.01098	1.008696	-0.8235	-1.4145	-3.159	0	3	1030	1
2026-02-11	16:24:24.010	-0.28	0.07	-0.49	0.030988	-0.008296	1.010892	-0.8175	-1.422	-3.159	0	3	1030	1
2026-02-11	16:24:24.030	-0.28	0.035	-0.49	0.031964	-0.010004	1.0065	-0.8175	-1.419	-3.156	0	3	1030	1
2026-02-11	16:24:24.050	-0.28	0.035	-0.49	0.035868	-0.011224	1.007232	-0.8175	-1.419	-3.1545	0	3	1030	1
2026-02-11	16:24:24.070	-0.28	0.035	-0.49	0.032696	-0.0061	1.004792	-0.8175	-1.419	-3.153	0	3	1030	1
2026-02-11	16:24:24.090	-0.28	0.07	-0.525	0.031476	-0.011468	1.009672	-0.816	-1.4175	-3.1545	0	3	1030	1
2026-02-11	16:24:24.110	-0.28	0.07	-0.49	0.032208	-0.00976	1.011136	-0.8145	-1.422	-3.1575	0	3	1030	1
2026-02-11	16:24:24.130	-0.28	0.07	-0.49	0.030744	-0.009272	1.007964	-0.8145	-1.419	-3.1635	0	3	1030	1
2026-02-11	16:24:24.150	-0.315	0.07	-0.525	0.033428	-0.010248	1.006988	-0.8175	-1.4145	-3.162	0	3	1030	1
2026-02-11	16:24:24.170	-0.28	0.035	-0.49	0.03294	-0.010248	1.004304	-0.8175	-1.416	-3.156	0	3	1030	1
2026-02-11	16:24:24.190	-0.28	0.07	-0.49	0.033672	-0.010004	1.008208	-0.819	-1.419	-3.1575	0	3	1030	1
2026-02-11	16:24:24.210	-0.315	0.105	-0.455	0.033428	-0.0122	1.007476	-0.8175	-1.425	-3.1605	0	3	1030	1
2026-02-11	16:24:24.230	-0.28	0.07	-0.49	0.033428	-0.011224	1.007964	-0.8145	-1.4265	-3.1605	0	3	1030	1
2026-02-11	16:24:24.250	-0.28	0.035	-0.525	0.032208	-0.006588	1.007476	-0.8175	-1.4175	-3.153	0	3	1030	1
2026-02-11	16:24:24.270	-0.315	0.07	-0.49	0.03538	-0.011468	1.009428	-0.819	-1.419	-3.165	0	3	1030	1
2026-02-11	16:24:24.290	-0.315	0.035	-0.455	0.034892	-0.010248	1.003816	-0.8205	-1.4205	-3.159	0	3	1030	1
2026-02-11	16:24:24.310	-0.28	0.07	-0.49	0.032696	-0.010004	1.010404	-0.825	-1.422	-3.159	0	3	1030	1
2026-02-11	16:24:24.330	-0.28	0.07	-0.525	0.035868	-0.012444	1.007964	-0.8205	-1.425	-3.1575	0	3	1030	1
2026-02-11	16:24:24.350	-0.28	0.07	-0.525	0.034648	-0.00976	1.010404	-0.822	-1.4205	-3.162	0	3	1030	1
2026-02-11	16:24:24.370	-0.315	0.14	-0.525	0.03538	-0.007808	1.008208	-0.819	-1.4235	-3.156	0	3	1030	1
2026-02-11	16:24:24.390	-0.28	0.105	-0.49	0.028792	-0.011712	1.009428	-0.8175	-1.419	-3.1635	0	3	1030	1
2026-02-11	16:24:24.410	-0.28	0.07	-0.525	0.032696	-0.006832	1.008452	-0.813	-1.4175	-3.159	0	3	1030	1
2026-02-11	16:24:24.430	-0.28	0.035	-0.525	0.032452	-0.009028	1.008696	-0.8175	-1.4175	-3.1605	0	3	1030	1
2026-02-11	16:24:24.450	-0.315	0.035	-0.525	0.032452	-0.008296	1.00528	-0.8205	-1.4145	-3.1545	0	3	1030	1
2026-02-11	16:24:24.470	-0.28	0.035	-0.49	0.033428	-0.012932	1.001132	-0.816	-1.4145	-3.1575	0	3	1030	1
2026-02-11	16:24:24.490	-0.245	0.07	-0.455	0.033916	-0.01098	1.009184	-0.816	-1.416	-3.1575	0	3	1030	1
2026-02-11	16:24:24.510	-0.28	0.07	-0.49	0.0305	-0.010492	1.009916	-0.822	-1.4205	-3.159	0	3	1030	1
2026-02-11	16:24:24.530	-0.315	0.035	-0.49	0.034404	-0.014152	1.006744	-0.825	-1.422	-3.1605	0	3	1030	1
2026-02-11	16:24:24.550	-0.28	0.035	-0.49	0.034648	-0.007564	1.0065	-0.819	-1.422	-3.1575	0	3	1030	1
2026-02-11	16:24:24.570	-0.28	0.035	-0.49	0.034648	-0.011468	1.006256	-0.8175	-1.4235	-3.1575	0	3	1030	1
2026-02-11	16:24:24.590	-0.28	0.14	-0.49	0.031476	-0.009028	1.009916	-0.8175	-1.4175	-3.159	0	3	1030	1
2026-02-11	16:24:24.610	-0.315	0.07	-0.525	0.031964	-0.010492	1.006744	-0.8145	-1.419	-3.1635	0	3	1030	1
2026-02-11	16:24:24.630	-0.28	0	-0.455	0.0366	-0.011468	1.006012	-0.816	-1.4235	-3.168	0	3	1030	1
2026-02-11	16:24:24.650	-0.28	0.035	-0.49	0.033184	-0.00732	1.00772	-0.819	-1.422	-3.159	0	3	1030	1
2026-02-11	16:24:24.670	-0.315	0.035	-0.49	0.03538	-0.010492	1.006988	-0.819	-1.4145	-3.1635	0	3	1030	1
