yyyy-MM-dd	HH:mm:ss.fff	gyrX	gyrY	gyrZ	accX	accY	accZ	magX	magY	magZ	Marker	Energy	Angle	Classification
2026-02-12	14:41:31.210	1.82	-0.945	0.21	0.00976	0.018788	1.026508	0.6405	-0.2235	0.0405	0	40	1034	1
2026-02-12	14:41:31.230	1.26	0.105	0.245	0.00854	0.0183	1.007232	0.642	-0.228	0.0525	0	40	1034	1
2026-02-12	14:41:31.250	1.4	-1.715	0.315	0.011956	0.011712	1.007232	0.6435	-0.264	0.045	0	40	1034	1
2026-02-12	14:41:31.270	1.54	-0.21	0.245	0.009272	0.017324	1.01992	0.6255	-0.2925	0.048	0	40	1034	1
2026-02-12	14:41:31.290	1.33	-0.14	0.21	0.00854	0.00976	1.009672	0.636	-0.264	0.0525	0	40	1034	1
2026-02-12	14:41:31.310	1.225	-1.61	0.28	0.012444	0.012688	1.015284	0.639	-0.2835	0.0465	0	40	1034	1
2026-02-12	14:41:31.330	1.225	0.385	0.245	0.010004	0.017324	1.0187	0.639	-0.228	0.042	0	40	1034	1
2026-02-12	14:41:31.350	1.05	-0.665	0.245	0.005368	0.00976	1.003816	0.639	-0.228	0.042	0	40	1034	1
2026-02-12	14:41:31.370	1.225	-1.19	0.21	0.014884	0.015616	1.016748	0.6315	-0.273	0.048	0	40	1034	1
2026-02-12	14:41:31.390	1.225	0.105	0.21	0.010004	0.015616	1.015772	0.6255	-0.3195	0.054	0	40	1034	1
2026-02-12	14:41:31.410	1.155	-0.385	0.245	0.006344	0.015616	1.005036	0.633	-0.273	0.0495	0	35	1035	1
2026-02-12	14:41:31.430	1.435	-1.435	0.28	0.012932	0.01342	1.022116	0.6405	-0.24	0.045	0	35	1035	1
2026-02-12	14:41:31.450	1.435	0.28	0.245	0.010736	0.009028	1.006744	0.6405	-0.252	0.048	0	35	1035	1
2026-02-12	14:41:31.470	1.4	-1.33	0.315	0.0122	0.014884	1.011136	0.6375	-0.2685	0.051	0	35	1035	1
2026-02-12	14:41:31.490	1.435	-0.525	0.28	0.011224	0.011224	1.018212	0.639	-0.2865	0.0525	0	35	1035	1
2026-02-12	14:41:31.510	1.19	-0.14	0.245	0.007564	0.0122	1.008208	0.639	-0.261	0.0495	0	35	1035	1
2026-02-12	14:41:31.530	1.33	-1.295	0.245	0.01342	0.01342	1.023092	0.636	-0.228	0.0465	0	35	1035	1
2026-02-12	14:41:31.550	1.085	0.245	0.28	0.008052	0.014396	1.007476	0.639	-0.234	0.0465	0	35	1035	1
2026-02-12	14:41:31.570	1.19	-1.295	0.28	0.008052	0.017324	1.016992	0.639	-0.2655	0.0525	0	35	1035	1
2026-02-12	14:41:31.590	1.26	-0.105	0.28	0.00854	0.012688	1.014064	0.642	-0.2805	0.0555	0	35	1035	1
2026-02-12	14:41:31.610	1.19	-0.7	0.28	0.010004	0.011956	1.007476	0.636	-0.252	0.051	0	31	1035	1
2026-02-12	14:41:31.630	1.575	-1.015	0.21	0.0122	0.010736	1.020408	0.63	-0.2355	0.0465	0	31	1035	1
2026-02-12	14:41:31.650	1.19	0.105	0.21	0.00732	0.011224	1.004792	0.6345	-0.243	0.048	0	31	1035	1
2026-02-12	14:41:31.670	1.4	-1.54	0.245	0.013908	0.010004	1.022116	0.6375	-0.2475	0.048	0	31	1035	1
2026-02-12	14:41:31.690	1.19	0.245	0.28	0.008052	0.014396	1.007964	0.6345	-0.261	0.048	0	31	1035	1
2026-02-12	14:41:31.710	1.33	-1.225	0.315	0.0122	0.01464	1.016992	0.633	-0.27	0.0495	0	31	1035	1
2026-02-12	14:41:31.730	1.33	-0.245	0.245	0.00854	0.017568	1.013088	0.6375	-0.2535	0.045	0	31	1035	1
2026-02-12	14:41:31.750	1.19	-0.63	0.245	0.007808	0.013176	1.007232	0.636	-0.228	0.042	0	31	1035	1
2026-02-12	14:41:31.770	1.33	-0.805	0.21	0.009028	0.013176	1.019676	0.636	-0.2385	0.0405	0	31	1035	1
2026-02-12	14:41:31.790	1.155	-0.175	0.28	0.009028	0.011468	1.006012	0.633	-0.273	0.0465	0	31	1035	1
2026-02-12	14:41:31.810	1.435	-1.225	0.28	0.0122	0.01098	1.017968	0.6315	-0.27	0.0465	0	27	1036	1
2026-02-12	14:41:31.830	1.33	0	0.245	0.01098	0.01586	1.006988	0.6345	-0.24	0.0435	0	27	1036	1
2026-02-12	14:41:31.850	1.435	-1.295	0.245	0.010736	0.01464	1.01504	0.636	-0.2415	0.045	0	27	1036	1
2026-02-12	14:41:31.870	1.4	-0.105	0.28	0.006832	0.016104	1.014308	0.6345	-0.2655	0.048	0	27	1036	1
2026-02-12	14:41:31.890	1.26	-0.84	0.28	0.008052	0.016348	1.010648	0.6405	-0.27	0.054	0	27	1036	1
2026-02-12	14:41:31.910	1.4	-0.84	0.28	0.010492	0.015616	1.016504	0.6375	-0.258	0.051	0	27	1036	1
2026-02-12	14:41:31.930	1.33	-0.14	0.245	0.010736	0.01464	1.007232	0.636	-0.2415	0.0465	0	27	1036	1
2026-02-12	14:41:31.950	1.435	-1.225	0.315	0.011712	0.0122	1.018944	0.6405	-0.225	0.042	0	27	1036	1
2026-02-12	14:41:31.970	1.26	0	0.21	0.005856	0.012444	1.008452	0.636	-0.2325	0.042	0	27	1036	1
2026-02-12	14:41:31.990	1.295	-1.085	0.245	0.010736	0.011224	1.012844	0.636	-0.2115	0.039	0	27	1036	1
2026-02-12	14:41:32.010	1.26	-0.28	0.315	0.010248	0.010492	1.009672	0.6405	-0.1995	0.036	0	24	1036	1
2026-02-12	14:41:32.030	1.4	-0.91	0.28	0.00976	0.011468	1.006744	0.6405	-0.231	0.042	0	24	1036	1
2026-02-12	14:41:32.050	1.785	-0.84	0.245	0.016104	0.024644	1.059204	0.6345	-0.237	0.0465	0	24	1036	1
2026-02-12	14:41:32.070	1.295	0	0.245	0.017568	0.003172	0.987712	0.6345	-0.2235	0.045	0	24	1036	1
2026-02-12	14:41:32.090	1.575	-1.785	0.28	0.00976	0.032696	1.029192	0.6375	-0.1875	0.0375	0	24	1036	1
2026-02-12	14:41:32.110	1.33	0.42	0.21	0.01342	0.012932	1.016992	0.639	-0.198	0.036	0	24	1036	1
2026-02-12	14:41:32.130	0.525	-0.455	0.28	0.015128	-0.01342	1.012844	0.639	-0.21	0.039	0	24	1036	1
2026-02-12	14:41:32.150	0.245	-0.42	0.35	0.011712	0.034892	1.061888	0.642	-0.2145	0.0435	0	24	1036	1
2026-02-12	14:41:32.170	0.525	0	0.21	0.010004	0.013176	1.025532	0.642	-0.2355	0.0465	0	24	1036	1
2026-02-12	14:41:32.190	1.33	-0.63	0.245	0.00976	0.013908	1.000644	0.6375	-0.234	0.0465	0	24	1036	1
2026-02-12	14:41:30.210	1.26	-0.56	0.28	0.008784	0.011956	1.013576	0.6375	-0.2475	0.045	0	84	1028	1
2026-02-12	14:41:30.230	1.26	-0.665	0.245	0.01098	0.015372	1.016992	0.6375	-0.219	0.045	0	84	1028	1
2026-02-12	14:41:30.250	1.19	-0.42	0.245	0.01098	0.012932	1.012356	0.639	-0.2235	0.0375	0	84	1028	1
2026-02-12	14:41:30.270	1.26	-0.77	0.28	0.013908	0.01342	1.013332	0.642	-0.222	0.039	0	84	1028	1
2026-02-12	14:41:30.290	1.33	-0.385	0.245	0.010004	0.01342	1.010892	0.642	-0.222	0.039	0	84	1028	1
2026-02-12	14:41:30.310	1.26	-0.63	0.28	0.014884	0.009272	1.01138	0.642	-0.222	0.039	0	84	1028	1
2026-02-12	14:41:30.330	1.365	-0.84	0.315	0.008052	0.01586	1.015528	0.639	-0.2205	0.042	0	84	1028	1
2026-02-12	14:41:30.350	1.295	-0.315	0.245	0.00854	0.008784	1.00894	0.639	-0.1965	0.0465	0	84	1028	1
2026-02-12	14:41:30.370	1.295	-0.91	0.28	0.010492	0.010492	1.013576	0.6435	-0.1875	0.045	0	84	1028	1
2026-02-12	14:41:30.390	1.365	-0.35	0.245	0.01098	0.013176	1.016016	0.6405	-0.219	0.0435	0	84	1028	1
2026-02-12	14:41:30.410	1.295	-0.735	0.28	0.01098	0.013908	1.012844	0.636	-0.201	0.0405	0	71	1030	1
2026-02-12	14:41:30.430	1.295	-0.665	0.28	0.013664	0.01464	1.016992	0.636	-0.204	0.039	0	71	1030	1
2026-02-12	14:41:30.450	1.155	-0.28	0.245	0.008052	0.011712	1.00894	0.639	-0.21	0.036	0	71	1030	1
2026-02-12	14:41:30.470	1.33	-1.015	0.28	0.013908	0.01464	1.017968	0.642	-0.1665	0.0345	0	71	1030	1
2026-02-12	14:41:30.490	1.225	-0.105	0.245	0.011956	0.01586	1.01016	0.642	-0.186	0.039	0	71	1030	1
2026-02-12	14:41:30.510	1.33	-1.015	0.245	0.009028	0.012932	1.01504	0.6405	-0.2115	0.0405	0	71	1030	1
2026-02-12	14:41:30.530	1.365	-0.35	0.245	0.008052	0.011956	1.012844	0.645	-0.213	0.042	0	71	1030	1
2026-02-12	14:41:30.550	1.295	-0.595	0.28	0.011224	0.013908	1.008452	0.6435	-0.2295	0.045	0	71	1030	1
2026-02-12	14:41:30.570	1.4	-0.875	0.28	0.010004	0.015372	1.014552	0.6345	-0.2025	0.042	0	71	1030	1
2026-02-12	14:41:30.590	1.225	-0.175	0.245	0.00854	0.013664	1.008696	0.6345	-0.1935	0.039	0	71	1030	1
2026-02-12	14:41:30.610	1.33	-1.05	0.28	0.01342	0.01342	1.01992	0.642	-0.225	0.039	0	61	1032	1
2026-02-12	14:41:30.630	1.26	-0.21	0.245	0.011224	0.013908	1.006744	0.633	-0.246	0.042	0	61	1032	1
2026-02-12	14:41:30.650	1.365	-0.945	0.28	0.013176	0.011468	1.009428	0.6315	-0.249	0.045	0	61	1032	1
2026-02-12	14:41:30.670	1.4	-0.49	0.28	0.010004	0.018544	1.020896	0.6375	-0.225	0.045	0	61	1032	1
2026-02-12	14:41:30.690	1.155	-0.42	0.245	0.014884	0.01342	1.007232	0.6345	-0.219	0.0465	0	61	1032	1
2026-02-12	14:41:30.710	1.225	-0.875	0.28	0.009272	0.015128	1.014796	0.633	-0.222	0.048	0	61	1032	1
2026-02-12	14:41:30.730	1.295	-0.28	0.245	0.009272	0.010736	1.009428	0.6375	-0.222	0.0495	0	61	1032	1
2026-02-12	14:41:30.750	1.225	-0.665	0.245	0.00854	0.01342	1.016504	0.642	-0.198	0.0465	0	61	1032	1
2026-02-12	14:41:30.770	1.19	-0.595	0.245	0.006344	0.010492	1.006988	0.636	-0.1635	0.039	0	61	1032	1
2026-02-12	14:41:30.790	1.645	-1.015	0.245	0.01098	0.012688	1.022604	0.6345	-0.189	0.0375	0	61	1032	1
2026-02-12	14:41:30.810	1.26	0.07	0.28	0.011224	0.020008	1.014552	0.639	-0.225	0.0405	0	53	1033	1
2026-02-12	14:41:30.830	1.225	-1.225	0.28	0.011956	0.012688	1.003084	0.639	-0.225	0.045	0	53	1033	1
2026-02-12	14:41:30.850	1.47	-0.595	0.28	0.013908	0.01708	1.02358	0.636	-0.2025	0.0465	0	53	1033	1
2026-02-12	14:41:30.870	1.225	0.07	0.245	0.010736	0.012688	1.008208	0.633	-0.189	0.0435	0	53	1033	1
2026-02-12	14:41:30.890	1.365	-1.75	0.28	0.01464	0.012444	1.015528	0.633	-0.195	0.0435	0	53	1033	1
2026-02-12	14:41:30.910	1.54	0.07	0.245	0.009028	0.012932	1.0126	0.636	-0.207	0.0435	0	53	1033	1
2026-02-12	14:41:30.930	1.4	-0.805	0.245	0.0122	0.015128	1.016748	0.6375	-0.2715	0.048	0	53	1033	1
2026-02-12	14:41:30.950	1.155	-0.91	0.245	0.008784	0.015128	1.024068	0.6315	-0.3015	0.051	0	53	1033	1
2026-02-12	14:41:30.970	0.875	0.315	0.245	0.006344	0.011224	1.011624	0.6315	-0.255	0.048	0	53	1033	1
2026-02-12	14:41:30.990	0.91	-1.05	0.315	0.00732	0.00854	1.00772	0.6345	-0.2265	0.0465	0	53	1033	1
2026-02-12	14:41:39.010	1.33	0.07	0.28	0.00732	0.010736	1.001864	0.6405	-0.231	0.042	0	40	83	2
2026-02-12	14:41:39.030	1.4	-0.91	0.28	0.00976	0.011468	1.006744	0.6405	-0.231	0.042	0	40	83	2
2026-02-12	14:41:39.050	1.785	-0.84	0.245	0.016104	0.024644	1.059204	0.6345	-0.237	0.0465	0	40	83	2
2026-02-12	14:41:39.070	1.295	0	0.245	0.017568	0.003172	0.987712	0.6345	-0.2235	0.045	0	40	83	2
2026-02-12	14:41:39.090	1.575	-1.785	0.28	0.00976	0.032696	1.029192	0.6375	-0.1875	0.0375	0	40	83	2
2026-02-12	14:41:39.110	2.31	-5.74	12.005	0.065148	0.004636	1.055056	0.6375	-0.1995	0.039	0	40	83	2
2026-02-12	14:41:39.130	3.115	-8.54	22.225	0.115168	0.027816	1.084092	0.1455	-0.252	-0.096	0	40	83	2
2026-02-12	14:41:39.150	5.915	-4.375	13.3	0.143228	0.049288	1.08946	0.174	-0.228	-0.09	0	40	83	2
2026-02-12	14:41:39.170	9.345	-5.425	6.335	0.173972	0.079788	1.086532	0.1635	-0.2535	-0.096	0	40	83	2
2026-02-12	14:41:39.190	12.425	-4.55	-1.155	0.195444	0.065148	1.064328	0.135	-0.258	-0.0975	0	40	83	2
2026-02-12	14:41:39.210	15.715	-4.305	-3.325	0.198128	0.053192	1.029924	0.135	-0.258	-0.0975	0	149	290	3
2026-02-12	14:41:39.230	17.08	-3.465	-4.515	0.195688	0.057096	1.026996	0.147	-0.2445	-0.0915	0	149	290	3
2026-02-12	14:41:39.250	16.31	-4.48	-5.67	0.201056	0.05978	1.033828	0.1395	-0.246	-0.09	0	149	290	3
2026-02-12	14:41:39.270	14.875	-2.8	-6.755	0.192272	0.071492	1.032852	0.144	-0.237	-0.1005	0	149	290	3
2026-02-12	14:41:39.290	12.845	1.435	-7.105	0.110288	0.07442	1.014796	0.1455	-0.2415	-0.0975	0	149	290	3
2026-02-12	14:41:39.310	7.805	7.63	-3.43	0.16592	0.026352	0.968436	0.1545	-0.2595	-0.093	0	149	290	3
2026-02-12	14:41:39.330	-3.57	20.475	-3.605	0.135664	0.050264	0.86864	0.156	-0.2505	-0.105	0	149	290	3
2026-02-12	14:41:39.350	-13.16	21.14	0.14	0.154208	0.058804	0.8723	0.147	-0.255	-0.111	0	149	290	3
2026-02-12	14:41:39.370	-17.43	17.115	4.97	0.209108	0.096624	0.995276	0.1695	-0.2505	-0.1005	0	149	290	3
2026-02-12	14:41:39.390	-20.335	15.365	11.55	0.256688	0.11834	1.074576	0.1785	-0.231	-0.1035	0	149	290	3
2026-02-12	14:41:39.410	-21.28	18.41	18.76	0.219112	0.10614	1.006988	0.186	-0.2325	-0.102	0	272	504	1
2026-02-12	14:41:39.430	-20.02	11.48	23.975	0.156404	0.10248	0.935496	0.1635	-0.2415	-0.1035	0	272	504	1
2026-02-12	14:41:39.450	-15.925	6.93	24.605	0.120536	0.085644	0.89182	0.189	-0.204	-0.111	0	272	504	1
2026-02-12	14:41:39.470	-11.06	-0.42	21.665	0.134444	0.080764	0.953796	0.174	-0.231	-0.1125	0	272	504	1
2026-02-12	14:41:39.490	-7.245	-2.905	17.325	0.152256	0.071736	1.010648	0.168	-0.249	-0.114	0	272	504	1
2026-02-12	14:41:39.510	-4.585	1.995	10.815	0.128344	0.049044	0.968436	0.1785	-0.237	-0.0975	0	272	504	1
2026-02-12	14:41:39.530	-2.695	0.945	6.02	0.08784	0.049044	0.919148	0.162	-0.249	-0.105	0	272	504	1
2026-02-12	14:41:39.550	-0.98	2.415	1.05	0.072956	0.043432	0.896212	0.1755	-0.231	-0.111	0	272	504	1
2026-02-12	14:41:39.570	-0.315	2.065	-1.19	0.07515199	0.038796	0.921832	0.0195	-0.2805	-0.12	0	272	504	1
2026-02-12	14:41:39.590	-2.065	-1.085	0.21	0.081252	0.038552	0.967216	0.1905	-0.2085	-0.105	0	272	504	1
2026-02-12	14:41:39.610	-4.235	5.81	3.325	0.055876	0.03172	0.939156	0.174	-0.222	-0.1065	0	357	645	1
2026-02-12	14:41:39.630	-4.97	1.295	7.595	0.053192	0.031476	0.968192	0.192	-0.204	-0.108	0	357	645	1
2026-02-12	14:41:39.650	-4.69	1.155	11.34	0.052216	0.02318	0.981856	0.177	-0.219	-0.111	0	357	645	1
2026-02-12	14:41:39.670	-4.06	-0.42	13.51	0.048556	0.030256	0.99918	0.1635	-0.228	-0.114	0	357	645	1
2026-02-12	14:41:39.690	-2.625	0.14	14.28	0.030744	0.032696	0.998204	0.1455	-0.2475	-0.12	0	357	645	1
2026-02-12	14:41:39.710	-0.455	-1.015	14.77	0.039528	0.034892	1.011624	0.168	-0.2265	-0.1125	0	357	645	1
2026-02-12	14:41:39.730	1.365	-2.485	15.54	0.054412	0.027816	1.032608	0.186	-0.198	-0.108	0	357	645	1
2026-02-12	14:41:39.750	2.03	-1.015	16.45	0.078812	0.019276	1.03944	0.171	-0.2235	-0.114	0	357	645	1
2026-02-12	14:41:39.770	1.855	-1.085	17.255	0.091744	0.009272	1.037732	0.186	-0.186	-0.114	0	357	645	1
2026-02-12	14:41:39.790	1.75	-3.395	17.85	0.107604	0.009028	1.046516	0.165	-0.2175	-0.12	0	357	645	1
2026-02-12	14:41:39.810	2.17	-4.27	18.62	0.131028	0.01586	1.058228	0.138	-0.2445	-0.108	0	404	741	1
2026-02-12	14:41:39.830	3.535	-4.235	19.565	0.140544	0.020496	1.062376	0.156	-0.2085	-0.1185	0	404	741	1
2026-02-12	14:41:39.850	6.055	-2.52	20.23	0.144692	0.017324	1.056764	0.162	-0.2205	-0.111	0	404	741	1
2026-02-12	14:41:39.870	8.82	-1.855	20.755	0.151036	0.004148	1.048712	0.1785	-0.2025	-0.102	0	404	741	1
2026-02-12	14:41:39.890	10.64	0.63	21.245	0.157868	-0.012932	1.036268	0.1665	-0.213	-0.114	0	404	741	1
2026-02-12	14:41:39.910	10.85	5.53	21.49	0.163724	-0.031476	1.023824	0.1425	-0.222	-0.102	0	404	741	1
2026-02-12	14:41:39.930	9.135	6.79	21.63	0.210328	-0.043188	1.049688	0.1485	-0.222	-0.117	0	404	741	1
2026-02-12	14:41:39.950	5.775	4.13	22.12	0.231068	-0.031232	1.056764	0.1965	-0.1845	-0.114	0	404	741	1
2026-02-12	14:41:39.970	2.87	0.28	22.89	0.202032	-0.005856	1.042612	0.177	-0.1875	-0.1095	0	404	741	1
2026-02-12	14:41:39.990	2.625	-0.175	21.805	0.172752	0.020008	1.014552	0.192	-0.165	-0.1155	0	404	741	1
2026-02-12	14:41:40.010	4.865	-1.05	19.81	0.159576	0.033672	0.991128	0.2115	-0.1725	-0.1125	0	417	817	1
2026-02-12	14:41:40.030	9.275	-0.175	17.465	0.164456	0.020252	0.984052	0.183	-0.1845	-0.1035	0	417	817	1
2026-02-12	14:41:40.050	13.825	1.085	15.785	0.18544	-0.011712	0.976976	0.195	-0.1665	-0.117	0	417	817	1
2026-02-12	14:41:40.070	16.135	0.56	15.26	0.177632	-0.041724	0.94184	0.18	-0.1905	-0.1125	0	417	817	1
2026-02-12	14:41:40.090	15.925	0.455	15.4	0.17324	-0.062708	0.939888	0.18	-0.1905	-0.1125	0	417	817	1
2026-02-12	14:41:40.110	14	-2.03	16.31	0.179096	-0.071736	0.961116	0.1695	-0.198	-0.117	0	417	817	1
2026-02-12	14:41:40.130	12.25	-3.885	17.255	0.187148	-0.07076	0.974536	0.1605	-0.207	-0.123	0	417	817	1
2026-02-12	14:41:40.150	8.19	-6.895	19.285	0.166408	-0.062708	0.98332	0.1635	-0.2055	-0.123	0	417	817	1
2026-02-12	14:41:40.170	5.565	-8.155	19.81	0.136396	-0.038064	0.982344	0.1665	-0.198	-0.123	0	417	817	1
2026-02-12	14:41:40.190	4.725	-8.855	19.285	0.110288	-0.02684	0.938424	0.168	-0.192	-0.1245	0	417	817	1
2026-02-12	14:41:40.210	5.635	-9.45	18.06	0.077104	-0.015616	0.935984	0.159	-0.1995	-0.123	0	404	872	1
2026-02-12	14:41:40.230	6.825	-5.425	16.695	0.064416	-0.017812	0.941352	0.1275	-0.222	-0.1245	0	404	872	1
2026-02-12	14:41:40.250	7.49	-2.065	15.96	0.0488	-0.021228	0.937448	0.1365	-0.2295	-0.117	0	404	872	1
2026-02-12	14:41:40.270	7.77	-0.035	16.135	0.06222	-0.028548	0.9272	0.1665	-0.222	-0.105	0	404	872	1
2026-02-12	14:41:40.290	6.86	-2.1	17.08	0.06466	-0.037576	0.99796	0.1665	-0.222	-0.105	0	404	872	1
2026-02-12	14:41:40.310	2.695	-0.7	18.48	0.089304	-0.061	1.023336	0.1665	-0.222	-0.105	0	404	872	1
2026-02-12	14:41:40.330	-1.015	5.32	19.215	0.052948	-0.053436	0.977464	0.156	-0.198	-0.1275	0	404	872	1
2026-02-12	14:41:40.350	-0.63	4.13	18.48	0.026596	-0.050752	0.942084	0.1605	-0.1875	-0.12	0	404	872	1
2026-02-12	14:41:40.370	2.415	-10.045	17.78	0.069784	-0.032696	1.048956	0.1575	-0.1905	-0.1215	0	404	872	1
2026-02-12	14:41:40.390	5.005	-7.07	15.295	0.083936	-0.0244	1.111664	0.132	-0.189	-0.1215	0	404	872	1
2026-02-12	14:41:40.410	7	-2.975	11.585	0.0732	-0.017324	1.097268	0.1605	-0.2025	-0.1215	0	376	911	1
2026-02-12	14:41:40.430	9.94	1.4	7.63	0.040992	-0.01342	1.04066	0.165	-0.1875	-0.126	0	376	911	1
2026-02-12	14:41:40.450	13.65	-1.61	3.185	0.03904	-0.010736	1.0431	0.1635	-0.1875	-0.1245	0	376	911	1
2026-02-12	14:41:40.470	16.52	-6.055	-1.365	0.087108	-0.001708	1.09556	0.1455	-0.1995	-0.123	0	376	911	1
2026-02-12	14:41:40.490	17.185	-5.04	-5.25	0.132004	0.00732	1.126792	0.12	-0.207	-0.1245	0	376	911	1
2026-02-12	14:41:40.510	16.24	-1.925	-7.77	0.149328	0.017568	1.111176	0.1485	-0.195	-0.1245	0	376	911	1
2026-02-12	14:41:40.530	15.19	0.98	-8.61	0.128344	0.0244	1.062864	0.135	-0.213	-0.1335	0	376	911	1
2026-02-12	14:41:40.550	15.155	-0.875	-8.26	0.094428	0.027328	1.035292	0.1365	-0.21	-0.1335	0	376	911	1
2026-02-12	14:41:40.570	15.295	-4.55	-7.455	0.104432	0.035868	1.059936	0.1485	-0.207	-0.1305	0	376	911	1
2026-02-12	14:41:40.590	14.35	-4.445	-5.775	0.133956	0.049532	1.098244	0.108	-0.225	-0.1335	0	376	911	1
2026-02-12	14:41:40.610	11.935	0.245	-2.765	0.1525	0.063684	1.086044	0.1455	-0.204	-0.123	0	340	945	1
2026-02-12	14:41:40.630	8.085	0.98	0.98	0.162992	0.061244	1.050908	0.15	-0.21	-0.1305	0	340	945	1
2026-02-12	14:41:40.650	3.255	-4.305	4.655	0.179096	0.066368	1.018944	0.1515	-0.2085	-0.1245	0	340	945	1
2026-02-12	14:41:40.670	-1.785	-13.3	7.49	0.198372	0.074176	1.0004	0.126	-0.2385	-0.132	0	340	945	1
2026-02-12	14:41:40.690	-6.055	-12.04	6.72	0.196664	0.098088	0.99308	0.1095	-0.231	-0.126	0	340	945	1
2026-02-12	14:41:40.710	-9.275	-10.71	4.515	0.176412	0.122976	0.948916	0.117	-0.2265	-0.1305	0	340	945	1
2026-02-12	14:41:40.730	-8.995	-7.91	1.155	0.140544	0.141276	0.899628	0.0435	-0.264	-0.144	0	340	945	1
2026-02-12	14:41:40.750	-7.14	-2.52	-2.345	0.131516	0.156892	0.898896	0.009	-0.249	-0.132	0	340	945	1
2026-02-12	14:41:40.770	-4.095	3.745	-4.48	0.142984	0.160064	0.929396	-0.0885	-0.291	-0.144	0	340	945	1
2026-02-12	14:41:40.790	-1.19	9.73	-4.34	0.166896	0.156892	0.960628	-0.0405	-0.282	-0.1305	0	340	945	1
2026-02-12	14:41:40.810	0.315	14.455	-1.925	0.184952	0.1403	0.959164	-0.036	-0.288	-0.141	0	303	972	1
2026-02-12	14:41:40.830	0.35	14.105	1.96	0.210328	0.113704	0.97234	0.003	-0.2805	-0.126	0	303	972	1
2026-02-12	14:41:40.850	-1.575	8.435	6.685	0.225456	0.099064	0.984784	0.072	-0.237	-0.1335	0	303	972	1
2026-02-12	14:41:40.870	-4.025	0.035	10.85	0.208132	0.094916	0.98698	0.0675	-0.234	-0.1485	0	303	972	1
2026-02-12	14:41:40.890	-5.88	-3.92	13.02	0.188612	0.095892	0.976488	0.162	-0.2175	-0.12	0	303	972	1
2026-02-12	14:41:40.910	-6.51	-5.145	13.055	0.149084	0.0854	0.9394	0.1665	-0.177	-0.1245	0	303	972	1
2026-02-12	14:41:40.930	-6.335	-6.72	11.655	0.109556	0.079788	0.91378	0.174	-0.18	-0.1185	0	303	972	1
2026-02-12	14:41:40.950	-6.755	-4.305	9.765	0.096136	0.083936	0.906216	0.195	-0.1485	-0.114	0	303	972	1
2026-02-12	14:41:40.970	-7.21	-3.15	8.435	0.094916	0.083936	0.927444	0.1815	-0.1575	-0.117	0	303	972	1
2026-02-12	14:41:40.990	-6.615	-1.19	6.615	0.08662	0.095404	0.96014	0.183	-0.1755	-0.1125	0	303	972	1
2026-02-12	14:41:41.010	-5.18	0.84	3.115	0.09028	0.08295999	0.960872	0.159	-0.1905	-0.1275	0	268	984	1
2026-02-12	14:41:41.030	-3.815	1.785	-0.56	0.065392	0.076372	0.9821	0.1695	-0.186	-0.114	0	268	984	1
2026-02-12	14:41:41.050	-2.835	4.34	2.275	0.050508	0.088572	0.993324	0.1995	-0.1605	-0.117	0	268	984	1
2026-02-12	14:41:41.070	-1.68	3.535	0.245	0.061488	0.06588	1.000888	0.18	-0.171	-0.1155	0	268	984	1
2026-02-12	14:41:41.090	-0.7	1.925	1.925	0.083204	0.097356	1.025044	0.1635	-0.189	-0.1245	0	268	984	1
2026-02-12	14:41:41.110	0.315	2.415	3.78	0.0976	0.062708	1.080188	0.1605	-0.183	-0.123	0	268	984	1
2026-02-12	14:41:41.130	0.805	3.675	-5.145	0.093696	0.062708	1.087996	0.1605	-0.195	-0.1095	0	268	984	1
2026-02-12	14:41:41.150	6.3	0.245	-5.32	0.118096	0.029768	0.9821	0.1605	-0.195	-0.1095	0	268	984	1
2026-02-12	14:41:41.170	16.1	-1.645	-9.66	0.100772	0.099796	1.070184	0.174	-0.1785	-0.1125	0	268	984	1
2026-02-12	14:41:41.190	23.59	-0.77	-6.335	0.128832	0.07808	1.032608	0.189	-0.162	-0.117	0	268	984	1
2026-02-12	14:41:41.210	29.645	-1.54	-1.155	0.152012	0.078324	1.076284	0.189	-0.162	-0.117	0	238	991	1
2026-02-12	14:41:41.230	44.625	0.315	0.35	0.171044	0.086376	1.069452	0.195	-0.171	-0.1185	0	238	991	1
2026-02-12	14:41:41.250	63.595	4.585	3.22	0.158356	0.135176	1.030656	0.2025	-0.1845	-0.12	0	238	991	1
2026-02-12	14:41:41.270	73.885	10.535	15.47	0.153476	0.169824	1.020896	0.2145	-0.183	-0.117	0	238	991	1
2026-02-12	14:41:41.290	79.205	6.125	12.81	0.185196	0.139324	0.98942	0.225	-0.171	-0.1185	0	238	991	1
2026-02-12	14:41:41.310	85.82	3.815	15.995	0.200568	0.208132	1.006012	0.2205	-0.1815	-0.12	0	238	991	1
2026-02-12	14:41:41.330	90.195	1.155	16.87	0.237656	0.163968	1.002596	0.219	-0.204	-0.1215	0	238	991	1
2026-02-12	14:41:41.350	97.825	17.08	24.535	0.312076	0.102236	0.833016	0.2355	-0.192	-0.12	0	238	991	1
2026-02-12	14:41:41.370	108.71	-6.44	43.33	0.244976	0.181292	0.898896	0.246	-0.1965	-0.111	0	238	991	1
2026-02-12	14:41:41.390	119.665	28.14	52.465	0.111508	0.062952	0.94062	0.243	-0.21	-0.111	0	238	991	1
2026-02-12	14:41:41.410	99.995	89.39	63.63	0.14518	-0.050996	0.989176	0.2505	-0.21	-0.1155	0	212	996	1
2026-02-12	14:41:41.430	-34.615	69.86	108.115	-0.002684	-0.01952	0.596824	0.2565	-0.243	-0.1245	0	212	996	1
2026-02-12	14:41:41.450	10.115	35.805	126.77	0.110288	-0.040992	0.717116	0.2535	-0.2595	-0.1515	0	212	996	1
2026-02-12	14:41:41.470	-86.52	41.405	133.91	0.056364	0.129808	0.893284	0.2745	-0.2205	-0.186	0	212	996	1
2026-02-12	14:41:41.490	-129.08	48.055	147.875	0.279624	0.246928	0.979904	0.2985	-0.147	-0.2025	0	212	996	1
2026-02-12	14:41:41.510	-61.46	29.47	174.86	0.218136	0.250588	0.79422	0.3105	-0.072	-0.2085	0	212	996	1
2026-02-12	14:41:41.530	-79.59	5.215	182.07	0.25132	0.336476	0.775432	0.3285	-0.0195	-0.2205	0	212	996	1
2026-02-12	14:41:41.550	-28.77	6.37	119.07	0.08295999	0.746152	1.084336	0.345	0.0165	-0.2265	0	212	996	1
2026-02-12	14:41:41.570	29.155	5.355	68.32	0.121268	0.221796	1.177544	0.3555	0.0405	-0.2385	0	212	996	1
2026-02-12	14:41:41.590	15.96	4.025	53.41	0.115412	0.18056	0.962092	0.354	0.0405	-0.249	0	212	996	1
2026-02-12	14:41:41.610	-10.605	5.705	48.16	0.083692	0.166652	0.947208	0.3495	0.0345	-0.246	0	195	991	1
2026-02-12	14:41:41.630	-17.01	0.595	36.365	0.054168	0.1403	0.960872	0.3495	0.0345	-0.246	0	195	991	1
2026-02-12	14:41:41.650	-14.175	2.555	25.76	0.0366	0.149328	1.00406	0.3495	0.0345	-0.246	0	195	991	1
2026-02-12	14:41:41.670	0.035	-0.525	11.83	0.040016	0.101748	0.999668	0.3825	0.0495	-0.2565	0	195	991	1
2026-02-12	14:41:41.690	18.76	-1.68	8.855	0.07905599	0.116876	0.991616	0.3915	0.0465	-0.2565	0	195	991	1
2026-02-12	14:41:41.710	16.87	-0.07	10.15	0.07515199	0.112972	1.013088	0.354	0.066	-0.237	0	195	991	1
2026-02-12	14:41:41.730	17.92	0.28	11.55	0.05978	0.116876	1.013088	0.339	0.0615	-0.243	0	195	991	1
2026-02-12	14:41:41.750	16.17	1.4	11.795	0.032208	0.115168	1.016748	0.366	0.0555	-0.267	0	195	991	1
2026-02-12	14:41:41.770	15.855	1.435	11.62	0.011956	0.121756	1.026752	0.393	0.0465	-0.258	0	195	991	1
2026-02-12	14:41:41.790	14.665	1.365	10.85	0.010736	0.13542	1.036756	0.3795	0.051	-0.2595	0	195	991	1
2026-02-12	14:41:41.810	4.585	3.465	12.635	0.00854	0.153232	1.057496	0.378	0.048	-0.2895	0	186	987	1
2026-02-12	14:41:41.830	-8.645	5.845	12.355	-0.044408	0.197884	1.070672	0.3495	0.048	-0.2415	0	186	987	1
2026-02-12	14:41:41.850	-10.815	6.02	5.81	-0.05246	0.165676	1.07238	0.393	0.0465	-0.267	0	186	987	1
2026-02-12	14:41:41.870	2.975	7.98	0.945	-0.05368	0.210328	1.077016	0.399	0.045	-0.276	0	186	987	1
2026-02-12	14:41:41.890	14.63	11.865	-2.835	0.000488	0.214964	1.083116	0.3645	0.0495	-0.2475	0	186	987	1
2026-02-12	14:41:41.910	12.845	12.67	-2.835	0.044408	0.203252	1.081652	0.4005	0.0645	-0.255	0	186	987	1
2026-02-12	14:41:41.930	10.15	11.9	-1.26	0.06344	0.20496	1.071648	0.3615	0.051	-0.2565	0	186	987	1
2026-02-12	14:41:41.950	6.055	11.48	0.525	0.066368	0.208864	1.05164	0.3675	0.0585	-0.2505	0	186	987	1
2026-02-12	14:41:41.970	3.08	11.165	1.26	0.05002	0.223992	1.023092	0.429	0.0525	-0.2685	0	186	987	1
2026-02-12	14:41:41.990	4.06	10.465	0.455	0.02928	0.2501	1.025776	0.408	0.042	-0.267	0	186	987	1
2026-02-12	14:41:42.010	5.425	11.725	-2.31	0.019276	0.268644	1.017236	0.429	0.0345	-0.258	0	179	997	1
2026-02-12	14:41:42.030	5.915	14	-7	0.017324	0.291092	1.02968	0.3795	0.051	-0.2565	0	179	997	1
2026-02-12	14:41:42.050	2.38	17.64	-13.37	0.048312	0.277916	1.020164	0.405	0.051	-0.255	0	179	997	1
2026-02-12	14:41:42.070	-0.98	17.64	-18.34	0.095892	0.245708	1.0187	0.417	0.0375	-0.2745	0	179	997	1
2026-02-12	14:41:42.090	-8.505	14.63	-22.12	0.130296	0.215208	1.013088	0.4185	0.039	-0.276	0	179	997	1
2026-02-12	14:41:42.110	-12.95	9.275	-23.66	0.13542	0.214476	0.990884	0.3825	0.0495	-0.255	0	179	997	1
2026-02-12	14:41:42.130	-18.97	7.315	-25.095	0.104676	0.221308	0.94794	0.4215	0.042	-0.282	0	179	997	1
2026-02-12	14:41:42.150	-20.685	7.28	-25.795	0.074176	0.235704	0.90646	0.39	0.057	-0.258	0	179	997	1
2026-02-12	14:41:42.170	-17.64	7.98	-24.99	0.066124	0.24888	0.907192	0.4095	0.063	-0.2535	0	179	997	1
2026-02-12	14:41:42.190	-15.645	10.955	-23.8	0.059292	0.245952	0.909876	0.447	0.0645	-0.285	0	179	997	1
2026-02-12	14:41:42.210	-12.18	13.65	-21.035	0.061976	0.244732	0.92964	0.447	0.0645	-0.285	0	174	1008	1
2026-02-12	14:41:42.230	-12.32	16.135	-17.395	0.066124	0.229604	0.957212	0.438	0.06	-0.2745	0	174	1008	1
2026-02-12	14:41:42.250	-12.565	16.065	-13.825	0.07564	0.202764	0.97966	0.4305	0.0555	-0.2655	0	174	1008	1
2026-02-12	14:41:42.270	-10.185	11.025	-10.43	0.101748	0.184952	0.982588	0.429	0.0615	-0.2625	0	174	1008	1
2026-02-12	14:41:42.290	-3.01	-0.91	-9.38	0.120048	0.206424	0.984296	0.426	0.0675	-0.264	0	174	1008	1
2026-02-12	14:41:42.310	-5.075	-5.6	-11.515	0.091256	0.22692	0.918416	0.426	0.066	-0.2715	0	174	1008	1
2026-02-12	14:41:42.330	-9.94	-11.2	-14.49	0.045872	0.23668	0.891088	0.4425	0.0645	-0.2805	0	174	1008	1
2026-02-12	14:41:42.350	-9.905	-21.455	-15.015	0.071004	0.238388	0.914756	0.4245	0.069	-0.2685	0	174	1008	1
2026-02-12	14:41:42.370	-14.945	-24.325	-17.43	0.01952	0.171044	0.93452	0.39	0.0675	-0.2475	0	174	1008	1
2026-02-12	14:41:42.390	-15.435	-23.065	-19.355	-0.04148	0.165676	0.884988	0.384	0.0735	-0.2445	0	174	1008	1
2026-02-12	14:41:42.410	-25.025	-12.075	-24.885	-0.06588	0.140056	0.832528	0.39	0.078	-0.2505	0	167	1007	1
2026-02-12	14:41:42.430	-19.74	-6.615	-23.8	-0.027816	0.10858	0.815692	0.426	0.069	-0.2715	0	167	1007	1
2026-02-12	14:41:42.450	-17.78	-3.325	-20.965	0.023424	0.083204	0.855708	0.4155	0.072	-0.2625	0	167	1007	1
2026-02-12	14:41:42.470	-16.87	-4.41	-15.12	0.057584	0.090524	0.90768	0.3945	0.072	-0.24	0	167	1007	1
2026-02-12	14:41:42.490	-18.305	-6.3	-6.265	0.027816	0.123952	0.945744	0.3915	0.0825	-0.2445	0	167	1007	1
2026-02-12	14:41:42.510	-25.83	-7.105	0.91	-0.002196	0.174948	1.069696	0.3795	0.0915	-0.2445	0	167	1007	1
2026-02-12	14:41:42.530	-27.09	-7.035	5.355	-0.022692	0.197884	1.097268	0.3915	0.093	-0.246	0	167	1007	1
2026-02-12	14:41:42.550	-22.12	-7.875	8.61	-0.032208	0.202764	1.105076	0.4005	0.1005	-0.255	0	167	1007	1
2026-02-12	14:41:42.570	-10.57	-5.04	11.69	-0.038308	0.184708	1.098	0.3975	0.075	-0.2505	0	167	1007	1
2026-02-12	14:41:42.590	2.94	-5.075	13.86	-0.022692	0.197884	1.136796	0.396	0.084	-0.2355	0	167	1007	1
2026-02-12	14:41:42.610	-4.305	5.775	10.395	-0.038064	0.213256	1.210484	0.393	0.117	-0.2265	0	161	1002	1
2026-02-12	14:41:42.630	1.505	18.27	7	-0.04636	0.23668	1.283196	0.387	0.1155	-0.225	0	161	1002	1
2026-02-12	14:41:42.650	12.285	28.805	2.59	0.038308	0.16836	1.211704	0.396	0.114	-0.2355	0	161	1002	1
2026-02-12	14:41:42.670	15.995	33.95	2.38	0.097844	0.116632	1.197552	0.405	0.114	-0.24	0	161	1002	1
2026-02-12	14:41:42.690	11.13	38.535	6.195	0.128832	0.075396	1.198284	0.4065	0.111	-0.231	0	161	1002	1
2026-02-12	14:41:42.710	7.7	41.545	12.11	0.07564	0.02562	1.1651	0.414	0.108	-0.2295	0	161	1002	1
2026-02-12	14:41:42.730	2.38	42.28	13.405	0.020008	0.09394	1.19072	0.429	0.111	-0.2415	0	161	1002	1
2026-02-12	14:41:42.750	6.65	38.185	14.735	0.00366	0.121268	1.184132	0.432	0.1155	-0.2475	0	161	1002	1
2026-02-12	14:41:42.770	9.94	34.93	14.21	0.031964	0.095404	1.121912	0.444	0.1125	-0.246	0	161	1002	1
2026-02-12	14:41:42.790	17.815	27.475	14.63	0.036112	0.084912	1.061156	0.435	0.1095	-0.243	0	161	1002	1
2026-02-12	14:41:42.810	19.6	22.785	14	0.027084	0.052216	0.984784	0.4305	0.105	-0.2475	0	156	1017	1
2026-02-12	14:41:42.830	24.045	22.365	16.38	0.011468	0.087108	0.906216	0.45	0.1035	-0.2565	0	156	1017	1
2026-02-12	14:41:42.850	24.465	19.285	14.07	-0.020008	0.072712	0.830088	0.486	0.093	-0.2745	0	156	1017	1
2026-02-12	14:41:42.870	24.745	16.31	11.76	-0.047092	0.05246	0.750056	0.4845	0.0855	-0.273	0	156	1017	1
2026-02-12	14:41:42.890	30.24	11.725	12.32	-0.060756	0.07124799	0.742492	0.45	0.096	-0.255	0	156	1017	1
2026-02-12	14:41:42.910	27.23	8.47	11.76	-0.054412	0.101016	0.79422	0.444	0.1005	-0.255	0	156	1017	1
2026-02-12	14:41:42.930	22.575	3.36	10.185	-0.07076	0.116144	0.834236	0.438	0.0975	-0.252	0	156	1017	1
2026-02-12	14:41:42.950	11.795	6.965	6.195	-0.10614	0.127368	0.824476	0.438	0.0975	-0.252	0	156	1017	1
2026-02-12	14:41:42.970	14.525	4.06	0.91	-0.145668	0.121512	0.7869	0.438	0.0975	-0.252	0	156	1017	1
2026-02-12	14:41:42.990	15.96	1.33	-1.26	-0.117364	0.179828	0.813008	0.438	0.0975	-0.252	0	156	1017	1
2026-02-12	14:41:43.010	11.795	-5.74	-3.535	-0.087352	0.164456	0.897676	0.4785	0.072	-0.2715	0	153	1022	1
2026-02-12	14:41:43.030	5.495	-13.72	-2.975	-0.068076	0.142496	0.935252	0.48	0.075	-0.273	0	153	1022	1
2026-02-12	14:41:43.050	-3.22	-19.915	0.49	-0.051972	0.141276	0.92232	0.495	0.069	-0.2925	0	153	1022	1
2026-02-12	14:41:43.070	-18.62	-18.795	0.945	-0.070272	0.138592	0.868884	0.501	0.0615	-0.3075	0	153	1022	1
2026-02-12	14:41:43.090	-31.29	-17.745	1.085	-0.10614	0.084424	0.850828	0.474	0.072	-0.2805	0	153	1022	1
2026-02-12	14:41:43.110	-40.845	-16.065	0.14	-0.080276	0.18666	1.174372	0.435	0.0825	-0.261	0	153	1022	1
2026-02-12	14:41:43.130	-44.31	-7.665	-2.38	-0.193492	0.116388	0.872544	0.4695	0.0945	-0.279	0	153	1022	1
2026-02-12	14:41:43.150	-30.1	-23.45	4.2	-0.176656	0.1952	0.912804	0.438	0.111	-0.2775	0	153	1022	1
2026-02-12	14:41:43.170	-42.455	-6.86	-5.18	-0.129808	0.138104	1.010404	0.456	0.1095	-0.27	0	153	1022	1
2026-02-12	14:41:43.190	-29.505	-5.355	-4.935	-0.148596	0.19886	1.068476	0.4575	0.117	-0.273	0	153	1022	1
2026-02-12	14:41:43.210	-8.925	0.77	-8.19	-0.116388	0.091012	1.08702	0.4575	0.1305	-0.267	0	153	1011	1
2026-02-12	14:41:43.230	1.575	7.56	-6.895	-0.11712	0.062708	1.064328	0.429	0.1275	-0.2565	0	153	1011	1
2026-02-12	14:41:43.250	12.39	5.075	-7.07	-0.136152	0.0854	1.08092	0.447	0.1365	-0.2625	0	153	1011	1
2026-02-12	14:41:43.270	30.765	8.89	-5.81	-0.125172	0.100284	1.110444	0.447	0.1365	-0.2625	0	153	1011	1
2026-02-12	14:41:43.290	37.1	11.655	-5.285	-0.12688	0.118828	1.148508	0.4515	0.129	-0.267	0	153	1011	1
2026-02-12	14:41:43.310	37.975	13.055	-4.48	-0.123952	0.137128	1.19072	0.456	0.123	-0.273	0	153	1011	1
2026-02-12	14:41:43.330	34.58	12.775	-4.795	-0.10858	0.10004	1.162172	0.465	0.117	-0.276	0	153	1011	1
2026-02-12	14:41:43.350	29.96	6.055	-4.97	-0.070516	0.095892	1.189012	0.4725	0.1065	-0.2775	0	153	1011	1
2026-02-12	14:41:43.370	19.565	1.225	-7.91	-0.039284	0.115656	1.166808	0.4695	0.102	-0.2835	0	153	1011	1
2026-02-12	14:41:43.390	7.21	-2.835	-12.25	-0.052704	0.14518	1.130452	0.4785	0.1035	-0.2955	0	153	1011	1
2026-02-12	14:41:43.410	-8.785	-7.56	-14.945	-0.030012	0.140056	1.051396	0.4785	0.099	-0.297	0	153	1011	1
2026-02-12	14:41:43.430	-15.54	-15.505	-21.175	0.002684	0.191052	1.00528	0.4695	0.0945	-0.2895	0	153	1011	1
2026-02-12	14:41:43.450	-18.41	-21.175	-27.51	-0.004636	0.16104	0.986492	0.468	0.096	-0.2775	0	153	1011	1
2026-02-12	14:41:43.470	-20.58	-17.57	-30.73	0.038796	0.138836	0.957212	0.4485	0.1065	-0.267	0	153	1011	1
2026-02-12	14:41:43.490	-15.68	-9.66	-31.01	-0.005368	0.1586	0.881328	0.429	0.1155	-0.2775	0	153	1011	1
2026-02-12	14:41:43.510	-11.375	-3.15	-30.835	-0.040992	0.199836	0.881816	0.432	0.111	-0.282	0	153	1011	1
2026-02-12	14:41:43.530	-0.84	0	-29.61	-0.0244	0.196176	0.9333	0.4455	0.1095	-0.273	0	153	1011	1
2026-02-12	14:41:43.550	7.735	-2.87	-27.195	-0.00244	0.226676	1.014308	0.45	0.1095	-0.2775	0	153	1011	1
2026-02-12	14:41:43.570	0.56	-4.935	-26.705	0	0.21472	1.0858	0.426	0.108	-0.2685	0	153	1011	1
2026-02-12	14:41:43.590	-3.255	-12.67	-24.745	-0.000976	0.190808	1.086532	0.399	0.099	-0.258	0	153	1011	1
2026-02-12	14:41:43.610	-5.53	-21.315	-23.38	-0.031964	0.17568	1.007232	0.408	0.096	-0.2655	0	152	1021	1
2026-02-12	14:41:43.630	-9.205	-21.98	-25.865	-0.060268	0.145424	0.918172	0.42	0.1005	-0.2685	0	152	1021	1
2026-02-12	14:41:43.650	-3.01	-23.1	-28.07	-0.076128	0.14518	0.848144	0.423	0.0975	-0.264	0	152	1021	1
2026-02-12	14:41:43.670	4.97	-21.035	-31.045	-0.056364	0.15616	0.854732	0.414	0.0945	-0.255	0	152	1021	1
2026-02-12	14:41:43.690	6.895	-15.435	-34.405	-0.02928	0.160796	0.912316	0.387	0.0945	-0.258	0	152	1021	1
2026-02-12	14:41:43.710	6.65	-9.87	-35.77	-0.030988	0.164456	0.933544	0.396	0.093	-0.267	0	152	1021	1
2026-02-12	14:41:43.730	-1.155	-3.85	-36.75	-0.076372	0.17446	0.945256	0.408	0.09	-0.2715	0	152	1021	1
2026-02-12	14:41:43.750	-9.1	1.19	-36.435	-0.101748	0.177144	0.944036	0.3975	0.087	-0.267	0	152	1021	1
2026-02-12	14:41:43.770	-12.495	4.025	-33.635	-0.101504	0.178852	0.954772	0.4005	0.0885	-0.258	0	152	1021	1
2026-02-12	14:41:43.790	-16.905	8.435	-29.82	-0.083936	0.16958	0.97966	0.3885	0.093	-0.2535	0	152	1021	1
2026-02-12	14:41:43.810	-16.205	12.075	-25.06	-0.052216	0.169092	1.03334	0.3795	0.0915	-0.2595	0	151	1022	1
2026-02-12	14:41:43.830	-10.5	14.385	-21	-0.047824	0.167872	1.060912	0.3945	0.09	-0.2715	0	151	1022	1
2026-02-12	14:41:43.850	1.47	17.57	-18.9	-0.052948	0.167872	1.092388	0.4095	0.0765	-0.2745	0	151	1022	1
2026-02-12	14:41:43.870	14.455	16.135	-17.15	-0.062952	0.172264	1.117276	0.399	0.078	-0.2625	0	151	1022	1
2026-02-12	14:41:43.890	22.12	16.52	-17.815	-0.078812	0.16958	1.145336	0.3795	0.0945	-0.258	0	151	1022	1
2026-02-12	14:41:43.910	28.875	18.2	-16.66	-0.047336	0.1403	1.160952	0.4125	0.0885	-0.2655	0	151	1022	1
2026-02-12	14:41:43.930	20.44	12.915	-8.575	-0.080032	0.15494	1.215852	0.4455	0.0765	-0.282	0	151	1022	1
2026-02-12	14:41:43.950	5.46	9.66	-2.94	-0.114192	0.137128	1.208776	0.4335	0.0705	-0.2865	0	151	1022	1
2026-02-12	14:41:43.970	-14.91	-5.845	4.725	-0.1647	0.083448	1.155096	0.4215	0.0765	-0.2775	0	151	1022	1
2026-02-12	14:41:43.990	-33.81	-10.745	15.435	-0.102236	0.016348	1.421544	0.4065	0.0855	-0.279	0	151	1022	1
2026-02-12	14:41:44.010	-38.395	-12.705	22.155	-0.196908	0.011956	1.13704	0.411	0.0885	-0.2865	0	148	1029	1
2026-02-12	14:41:44.030	-68.705	-25.935	28.245	-0.073932	-0.127124	1.184864	0.414	0.105	-0.2895	0	148	1029	1
2026-02-12	14:41:44.050	-49.07	-12.915	32.025	-0.040016	-0.178364	0.858636	0.4245	0.126	-0.297	0	148	1029	1
2026-02-12	14:41:44.070	19.495	-2.135	35.7	0.115656	-0.0854	0.998692	0.4425	0.1395	-0.3015	0	148	1029	1
2026-02-12	14:41:44.090	21.595	-5.565	32.55	0.120292	-0.17202	0.85644	0.4485	0.1455	-0.312	0	148	1029	1
2026-02-12	14:41:44.110	27.37	-1.855	30.45	0.104432	-0.085888	0.7686	0.4365	0.1455	-0.306	0	148	1029	1
2026-02-12	14:41:44.130	27.125	6.895	24.99	0.115412	-0.020496	0.79788	0.4095	0.1425	-0.288	0	148	1029	1
2026-02-12	14:41:44.150	8.26	17.64	14.245	0.10736	-0.036356	0.948184	0.432	0.1335	-0.2955	0	148	1029	1
2026-02-12	14:41:44.170	-3.605	17.29	12.6	0.060024	-0.028792	0.984296	0.4515	0.132	-0.306	0	148	1029	1
2026-02-12	14:41:44.190	7.455	-4.9	15.155	0.05856	0.000976	1.020652	0.4305	0.1335	-0.291	0	148	1029	1
2026-02-12	14:41:44.210	-2.1	-6.44	17.395	0.01586	0.032208	0.96136	0.432	0.129	-0.273	0	148	1037	1
2026-02-12	14:41:44.230	-8.47	-14.875	16.87	-0.060024	0.038064	0.884988	0.4605	0.1335	-0.294	0	148	1037	1
2026-02-12	14:41:44.250	15.96	-16.205	16.17	-0.108092	0.050508	0.79544	0.462	0.138	-0.3165	0	148	1037	1
2026-02-12	14:41:44.270	42.805	-10.675	13.825	-0.11956	0.079544	0.775676	0.453	0.1335	-0.318	0	148	1037	1
2026-02-12	14:41:44.290	39.795	-3.185	11.445	-0.146156	0.09467199	0.781532	0.453	0.1335	-0.318	0	148	1037	1
2026-02-12	14:41:44.310	15.435	-5.18	7.665	-0.173728	0.109556	0.835456	0.453	0.1335	-0.318	0	148	1037	1
2026-02-12	14:41:44.330	-21.91	-14.245	6.23	-0.174216	0.090524	0.91134	0.4245	0.1155	-0.309	0	148	1037	1
2026-02-12	14:41:44.350	-56.665	-25.48	5.11	-0.18056	0.03294	0.886208	0.4245	0.1155	-0.309	0	148	1037	1
2026-02-12	14:41:44.370	-27.09	-19.495	4.515	-0.214232	0.000976	0.991372	0.4275	0.123	-0.339	0	148	1037	1
2026-02-12	14:41:44.390	-4.2	-8.155	3.36	-0.199592	0.053192	1.018212	0.432	0.132	-0.369	0	148	1037	1
2026-02-12	14:41:44.410	-1.75	1.26	-0.07	-0.18788	0.052216	1.043588	0.4245	0.138	-0.3225	0	150	1028	1
2026-02-12	14:41:44.430	-9.03	6.615	-1.68	-0.184952	0.068564	1.101904	0.4335	0.1425	-0.3	0	150	1028	1
2026-02-12	14:41:44.450	-2.205	10.115	-2.555	-0.179584	0.027084	1.085312	0.4515	0.141	-0.3105	0	150	1028	1
2026-02-12	14:41:44.470	-1.47	10.955	-3.255	-0.183488	0.000244	1.096536	0.4545	0.1425	-0.3045	0	150	1028	1
2026-02-12	14:41:44.490	4.025	13.545	-7.35	-0.16348	0.018788	1.108004	0.4635	0.138	-0.315	0	150	1028	1
2026-02-12	14:41:44.510	8.96	15.085	-12.705	-0.120292	0.038064	1.253428	0.4605	0.126	-0.3195	0	150	1028	1
2026-02-12	14:41:44.530	11.375	14.77	-17.815	-0.110776	0.00366	1.219756	0.462	0.126	-0.3075	0	150	1028	1
2026-02-12	14:41:44.550	10.465	6.65	-20.055	-0.09467199	-0.009516	1.250744	0.474	0.1305	-0.303	0	150	1028	1
2026-02-12	14:41:44.570	7.945	-3.465	-18.865	-0.050264	-0.045872	1.276608	0.459	0.1275	-0.3075	0	150	1028	1
2026-02-12	14:41:44.590	4.97	-9.8	-13.685	-0.027328	-0.05856	1.241716	0.4485	0.129	-0.312	0	150	1028	1
2026-02-12	14:41:44.610	0.315	-13.685	-6.405	-0.049288	-0.049288	1.131184	0.4545	0.1305	-0.321	0	153	1027	1
2026-02-12	14:41:44.630	-2.59	-16.24	-2.555	-0.022936	-0.0549	1.076284	0.4425	0.1305	-0.321	0	153	1027	1
2026-02-12	14:41:44.650	-5.915	-12.495	1.015	0.011224	-0.061732	0.980148	0.432	0.129	-0.297	0	153	1027	1
2026-02-12	14:41:44.670	-5.635	-5.355	4.13	0.02684	-0.032208	0.866932	0.423	0.1305	-0.2715	0	153	1027	1
2026-02-12	14:41:44.690	-2.905	3.36	6.685	0.0366	0.034404	0.8052	0.4185	0.1305	-0.282	0	153	1027	1
2026-02-12	14:41:44.710	-3.29	17.255	8.015	0.057584	0.08686399	0.834724	0.429	0.129	-0.297	0	153	1027	1
2026-02-12	14:41:44.730	-14.665	25.48	9.345	0.06832	0.092964	0.892552	0.4455	0.129	-0.3135	0	153	1027	1
2026-02-12	14:41:44.750	-28.21	16.94	12.18	0.060268	0.091744	0.964532	0.4515	0.123	-0.2985	0	153	1027	1
2026-02-12	14:41:44.770	-25.165	-0.665	14	0.088328	-0.02318	1.008696	0.453	0.132	-0.2925	0	153	1027	1
2026-02-12	14:41:44.790	-10.675	-2.59	11.725	0.021228	0.127124	0.933544	0.435	0.1365	-0.288	0	153	1027	1
2026-02-12	14:41:44.810	-8.82	-2.38	7.315	-0.02074	0.05246	0.898652	0.441	0.1365	-0.282	0	158	1032	1
2026-02-12	14:41:44.830	9.8	-4.69	4.76	-0.060756	0.107848	0.808616	0.498	0.141	-0.333	0	158	1032	1
2026-02-12	14:41:44.850	23.8	-9.8	3.99	-0.0427	0.107848	0.822768	0.4785	0.141	-0.3195	0	158	1032	1
2026-02-12	14:41:44.870	10.78	-12.145	3.22	-0.031964	0.137128	0.851072	0.4275	0.1335	-0.279	0	158	1032	1
2026-02-12	14:41:44.890	-20.3	-16.8	2.24	-0.0427	0.10614	0.892308	0.4185	0.132	-0.285	0	158	1032	1
2026-02-12	14:41:44.910	-38.5	-25.41	1.89	-0.039772	0.064904	0.936716	0.402	0.138	-0.276	0	158	1032	1
2026-02-12	14:41:44.930	-4.9	-16.24	0.805	-0.025864	-0.023668	1.065304	0.4215	0.147	-0.2805	0	158	1032	1
2026-02-12	14:41:44.950	5.775	2.52	-1.4	-0.084424	0.170312	0.951112	0.447	0.15	-0.3	0	158	1032	1
2026-02-12	14:41:44.970	-5.46	2.59	-1.015	-0.093208	0.050264	1.01016	0.4485	0.1455	-0.303	0	158	1032	1
2026-02-12	14:41:44.990	-4.34	-8.085	2.38	-0.079788	0.150304	1.032852	0.4515	0.141	-0.3015	0	158	1032	1
2026-02-12	14:41:45.010	-1.645	3.71	0.035	-0.079544	0.132492	1.085312	0.471	0.1395	-0.321	0	161	1026	1
2026-02-12	14:41:45.030	3.36	11.69	-2.73	-0.077836	0.110288	1.087264	0.498	0.141	-0.3405	0	161	1026	1
2026-02-12	14:41:45.050	5.845	12.425	-4.41	-0.027084	0.05368	1.136552	0.5115	0.1185	-0.366	0	161	1026	1
2026-02-12	14:41:45.070	8.26	22.575	-6.475	-0.022936	0.032696	1.170224	0.51	0.1155	-0.3645	0	161	1026	1
2026-02-12	14:41:45.090	9.1	23.52	-4.375	-0.022448	0.05246	1.16388	0.4875	0.1335	-0.336	0	161	1026	1
2026-02-12	14:41:45.110	9.205	21.63	-0.875	-0.041724	0.027572	1.143872	0.474	0.114	-0.33	0	161	1026	1
2026-02-12	14:41:45.130	9.87	17.185	2.415	-0.096868	0.01708	1.121912	0.495	0.108	-0.342	0	161	1026	1
2026-02-12	14:41:45.150	11.725	9.345	4.655	-0.137128	0.002684	1.130452	0.498	0.1185	-0.339	0	161	1026	1
2026-02-12	14:41:45.170	15.4	-0.7	6.125	-0.123464	-0.023424	1.175348	0.468	0.1245	-0.3135	0	161	1026	1
2026-02-12	14:41:45.190	20.51	-8.47	6.3	-0.109068	-0.032452	1.155096	0.4665	0.1245	-0.312	0	161	1026	1
2026-02-12	14:41:45.210	23.17	-17.5	10.745	0.00976	-0.055388	1.209508	0.4755	0.1215	-0.324	0	163	1029	1
2026-02-12	14:41:45.230	22.785	-19.39	16.905	0.0976	-0.1098	1.196332	0.4815	0.1215	-0.3225	0	163	1029	1
2026-02-12	14:41:45.250	19.145	-8.54	19.81	0.095648	-0.08295999	0.920368	0.477	0.117	-0.318	0	163	1029	1
2026-02-12	14:41:45.270	17.325	-11.97	13.405	0.073444	-0.07808	0.802028	0.462	0.1185	-0.2895	0	163	1029	1
2026-02-12	14:41:45.290	20.755	-17.29	12.81	0.090036	-0.044164	0.791048	0.4455	0.117	-0.276	0	163	1029	1
2026-02-12	14:41:45.310	-0.07	-15.26	17.15	0.156892	-0.118096	1.083116	0.4395	0.1155	-0.2955	0	163	1029	1
2026-02-12	14:41:45.330	6.51	2.625	18.935	0.10248	-0.033672	0.860588	0.4455	0.1185	-0.306	0	163	1029	1
2026-02-12	14:41:45.350	0.35	-5.46	18.97	0.0854	-0.132492	0.947452	0.4455	0.126	-0.3105	0	163	1029	1
2026-02-12	14:41:45.370	-3.43	-17.29	24.465	0.052948	0.018788	1.044076	0.4515	0.1245	-0.3015	0	163	1029	1
2026-02-12	14:41:45.390	-4.655	-7.805	22.54	-0.017568	0.040748	0.954772	0.4545	0.12	-0.2955	0	163	1029	1
2026-02-12	14:41:45.410	-1.96	-16.975	22.925	-0.07515199	0.064904	0.892552	0.4545	0.12	-0.2955	0	164	1036	1
2026-02-12	14:41:45.430	2.905	-18.235	19.215	-0.101016	0.070272	0.845704	0.4125	0.1365	-0.2625	0	164	1036	1
2026-02-12	14:41:45.450	5.6	-18.515	17.675	-0.102236	0.077348	0.84058	0.4125	0.1365	-0.2625	0	164	1036	1
2026-02-12	14:41:45.470	-1.575	-21.91	13.51	-0.11712	0.08052	0.844728	0.3975	0.1245	-0.2535	0	164	1036	1
2026-02-12	14:41:45.490	-14.77	-25.83	10.465	-0.098088	0.004636	0.838628	0.4215	0.1305	-0.2895	0	164	1036	1
2026-02-12	14:41:45.510	-3.01	-13.3	6.965	-0.082716	0.019276	0.960872	0.438	0.126	-0.2955	0	164	1036	1
2026-02-12	14:41:45.530	-5.495	0.175	3.43	-0.109068	0.15372	1.003816	0.399	0.1275	-0.2655	0	164	1036	1
2026-02-12	14:41:45.550	-5.11	7.84	3.29	-0.09394	0.062952	1.017724	0.4365	0.1275	-0.297	0	164	1036	1
2026-02-12	14:41:45.570	-7.07	3.885	4.095	-0.103212	0.095404	1.040416	0.4605	0.1245	-0.3075	0	164	1036	1
2026-02-12	14:41:45.590	-5.565	4.235	3.605	-0.097844	0.06734399	1.092144	0.3795	0.138	-0.276	0	164	1036	1
2026-02-12	14:41:45.610	-3.99	11.095	1.295	-0.117608	0.039284	1.098244	0.4395	0.1305	-0.282	0	165	1031	1
2026-02-12	14:41:45.630	-1.995	14.56	-1.54	-0.133956	0.03538	1.097512	0.4395	0.1305	-0.282	0	165	1031	1
2026-02-12	14:41:45.650	0.56	19.425	-6.02	-0.146888	0.036844	1.120204	0.4395	0.1305	-0.282	0	165	1031	1
2026-02-12	14:41:45.670	2.835	20.755	-10.78	-0.127856	0.038552	1.164124	0.4185	0.135	-0.285	0	165	1031	1
2026-02-12	14:41:45.690	3.78	19.635	-14.49	-0.100284	0.019764	1.19072	0.4185	0.1365	-0.288	0	165	1031	1
2026-02-12	14:41:45.710	3.255	16.94	-16.66	-0.090036	0.002928	1.188768	0.444	0.1335	-0.294	0	165	1031	1
2026-02-12	14:41:45.730	1.4	12.81	-17.08	-0.1037	0.005124	1.16876	0.456	0.1305	-0.285	0	165	1031	1
2026-02-12	14:41:45.750	-0.315	5.95	-15.155	-0.103456	0.01708	1.149728	0.447	0.132	-0.2805	0	165	1031	1
2026-02-12	14:41:45.770	-0.455	0.945	-13.02	-0.094428	0.022448	1.131184	0.4305	0.1335	-0.2715	0	165	1031	1
2026-02-12	14:41:45.790	0.525	-2.73	-12.355	-0.033428	0.011956	1.129476	0.438	0.1305	-0.27	0	165	1031	1
2026-02-12	14:41:45.810	2.205	-3.22	-12.915	0.055144	0.01586	1.112152	0.4425	0.132	-0.294	0	165	1035	1
2026-02-12	14:41:45.830	3.43	5.215	-14.385	0.10126	0.028548	0.98088	0.45	0.075	-0.333	0	165	1035	1
2026-02-12	14:41:45.850	5.075	9.905	-15.435	0.099308	0.059048	0.866932	0.4395	0.0735	-0.339	0	165	1035	1
2026-02-12	14:41:45.870	14.84	12.285	-15.015	0.08784	0.099796	0.81618	0.405	0.129	-0.285	0	165	1035	1
2026-02-12	14:41:45.890	12.495	16.24	-13.335	0.077836	0.122976	0.844728	0.396	0.1245	-0.252	0	165	1035	1
2026-02-12	14:41:45.910	-12.6	12.145	-10.08	0.060268	0.101748	0.876936	0.4215	0.12	-0.27	0	165	1035	1
2026-02-12	14:41:45.930	-49.49	-6.615	-3.57	0.096868	0.067588	1.652124	0.4485	0.123	-0.291	0	165	1035	1
2026-02-12	14:41:45.950	-12.845	6.44	-1.295	-0.04026	0.164944	0.831064	0.429	0.126	-0.267	0	165	1035	1
2026-02-12	14:41:45.970	-27.895	-3.325	-1.015	-0.036112	-0.074908	0.923784	0.411	0.1275	-0.249	0	165	1035	1
2026-02-12	14:41:45.990	-12.6	-8.785	-0.525	-0.085644	-0.006344	0.831796	0.4125	0.1305	-0.249	0	165	1035	1
2026-02-12	14:41:46.010	2.975	-8.925	-1.365	-0.118584	0.020008	0.790804	0.417	0.135	-0.2655	0	165	1040	1
2026-02-12	14:41:46.030	-0.875	-19.53	-0.21	-0.110044	0.029524	0.78568	0.4515	0.1275	-0.3075	0	165	1040	1
2026-02-12	14:41:46.050	-14.945	-32.97	2.24	-0.083692	0.038796	0.812764	0.474	0.12	-0.3255	0	165	1040	1
2026-02-12	14:41:46.070	-20.055	-37.275	4.445	0.008052	-0.235704	0.861564	0.471	0.123	-0.3165	0	165	1040	1
2026-02-12	14:41:46.090	2.065	-18.83	2.59	-0.06466	0.141032	0.845216	0.4485	0.1275	-0.2805	0	165	1040	1
2026-02-12	14:41:46.110	-7.945	-15.155	2.94	-0.07564	0.193004	1.00406	0.408	0.138	-0.276	0	165	1040	1
2026-02-12	14:41:46.130	-1.82	-12.005	4.655	-0.048312	0.019276	0.988688	0.4005	0.1365	-0.288	0	165	1040	1
2026-02-12	14:41:46.150	-7.105	-15.33	6.72	-0.08686399	0.128588	0.966484	0.414	0.141	-0.2715	0	165	1040	1
2026-02-12	14:41:46.170	-4.2	-10.99	7.175	-0.060024	0.068808	1.0675	0.393	0.1485	-0.2445	0	165	1040	1
2026-02-12	14:41:46.190	-2.625	-6.895	6.44	-0.063684	0.076128	1.041392	0.399	0.144	-0.2385	0	165	1040	1
2026-02-12	14:41:46.210	0.035	-8.47	5.53	-0.040992	0.084912	1.188768	0.4095	0.1455	-0.2505	0	167	1034	1
2026-02-12	14:41:46.230	2.94	2.625	2.31	-0.027328	0.027084	1.21756	0.4035	0.147	-0.249	0	167	1034	1
2026-02-12	14:41:46.250	5.005	8.19	1.645	-0.026596	0.016592	1.222196	0.4185	0.144	-0.2655	0	167	1034	1
2026-02-12	14:41:46.270	5.985	15.575	3.815	-0.045628	0.007076	1.19682	0.4335	0.141	-0.288	0	167	1034	1
2026-02-12	14:41:46.290	6.72	17.255	8.89	-0.052216	-0.003416	1.181448	0.423	0.1455	-0.267	0	167	1034	1
2026-02-12	14:41:46.310	9.38	13.44	13.965	-0.076128	-0.004148	1.181448	0.4215	0.144	-0.2595	0	167	1034	1
2026-02-12	14:41:46.330	14.035	7.14	15.505	-0.08784	-0.011712	1.198772	0.438	0.141	-0.276	0	167	1034	1
2026-02-12	14:41:46.350	20.09	-4.725	14.245	-0.024156	-0.021716	1.263188	0.4365	0.1395	-0.2745	0	167	1034	1
2026-02-12	14:41:46.370	25.41	-12.6	11.585	0.068564	-0.027328	1.290516	0.414	0.1395	-0.2535	0	167	1034	1
2026-02-12	14:41:46.390	27.3	-15.54	13.195	0.16714	-0.054168	1.238544	0.4185	0.1365	-0.252	0	167	1034	1
2026-02-12	14:41:46.410	24.36	-11.095	18.62	0.2013	-0.031964	1.077016	0.423	0.129	-0.2655	0	170	1040	1
2026-02-12	14:41:46.430	20.055	-7.595	18.9	0.182268	-0.0183	0.859124	0.414	0.129	-0.264	0	170	1040	1
2026-02-12	14:41:46.450	22.47	-13.615	21.28	0.16958	-0.017324	0.746396	0.45	0.123	-0.2865	0	170	1040	1
2026-02-12	14:41:46.470	22.925	-20.02	20.895	0.141032	0.00122	0.758108	0.4725	0.117	-0.3	0	170	1040	1
2026-02-12	14:41:46.490	16.765	-7.525	19.39	0.663436	-0.113704	1.253916	0.4725	0.117	-0.3	0	170	1040	1
2026-02-12	14:41:46.510	37.275	11.305	14	0.255712	-0.006588	0.948672	0.42	0.1215	-0.234	0	170	1040	1
2026-02-12	14:41:46.530	6.965	18.34	10.71	0.194224	-0.043432	0.9333	0.42	0.1215	-0.234	0	170	1040	1
2026-02-12	14:41:46.550	10.465	-3.22	9.905	0.126636	0.027572	0.911828	0.4425	0.1215	-0.24	0	170	1040	1
2026-02-12	14:41:46.570	-6.965	-9.17	9.975	0.051484	0.043676	0.91744	0.4065	0.102	-0.315	0	170	1040	1
2026-02-12	14:41:46.590	-12.18	-18.655	10.36	0	0.05612	0.94184	0.432	0.1245	-0.27	0	170	1040	1
2026-02-12	14:41:46.610	-13.195	-19.25	10.955	-0.088328	0.07808	0.894992	0.435	0.1245	-0.2955	0	174	1049	1
2026-02-12	14:41:46.630	-11.97	-22.715	8.33	-0.138104	0.063684	0.872056	0.426	0.1245	-0.2535	0	174	1049	1
2026-02-12	14:41:46.650	-1.96	-23.73	5.81	-0.152744	0.08174	0.874496	0.441	0.1275	-0.2805	0	174	1049	1
2026-02-12	14:41:46.670	-0.35	-23.45	1.61	-0.140788	0.069052	0.939156	0.4185	0.1245	-0.24	0	174	1049	1
2026-02-12	14:41:46.690	-3.465	-20.055	-1.155	-0.11468	0.030012	1.020408	0.4215	0.129	-0.249	0	174	1049	1
2026-02-12	14:41:46.710	1.295	-15.19	-2.1	-0.085644	0.012688	1.0736	0.435	0.1245	-0.264	0	174	1049	1
2026-02-12	14:41:46.730	3.78	-12.145	-1.89	-0.055876	0.020496	1.070184	0.4125	0.132	-0.243	0	174	1049	1
2026-02-12	14:41:46.750	2.275	-5.565	-1.19	-0.039772	0.045384	1.18096	0.387	0.1245	-0.2205	0	174	1049	1
2026-02-12	14:41:46.770	0.735	-1.295	-0.77	-0.040504	0.041236	1.179984	0.3735	0.1365	-0.2175	0	174	1049	1
2026-02-12	14:41:46.790	-0.385	6.79	-1.785	-0.078812	0.05002	1.156072	0.4185	0.1305	-0.2655	0	174	1049	1
2026-02-12	14:41:46.810	-0.735	13.65	-4.165	-0.105896	0.075396	1.144116	0.4125	0.111	-0.2565	0	178	1048	1
2026-02-12	14:41:46.830	0.84	21.035	-7.28	-0.071736	0.077104	1.150704	0.4155	0.12	-0.2655	0	178	1048	1
2026-02-12	14:41:46.850	3.465	27.3	-11.025	-0.029524	0.064172	1.179008	0.4425	0.123	-0.2835	0	178	1048	1
2026-02-12	14:41:46.870	5.04	28.315	-14.07	0.002928	0.058804	1.196576	0.4275	0.123	-0.231	0	178	1048	1
2026-02-12	14:41:46.890	5.215	24.01	-16.555	0.028548	0.04392	1.231712	0.4425	0.1185	-0.288	0	178	1048	1
2026-02-12	14:41:46.910	2.975	19.985	-16.73	0.031964	0.01342	1.210972	0.4425	0.126	-0.267	0	178	1048	1
2026-02-12	14:41:46.930	0.28	5.915	-14	0.033428	0.015128	1.163148	0.417	0.1095	-0.249	0	178	1048	1
2026-02-12	14:41:46.950	-3.045	-5.355	-11.025	0.053436	0.002196	1.112152	0.417	0.1095	-0.249	0	178	1048	1
2026-02-12	14:41:46.970	-5.425	-8.61	-9.45	0.09638	-0.006344	1.067744	0.417	0.1095	-0.249	0	178	1048	1
2026-02-12	14:41:46.990	-6.72	-2.17	-9.1	0.120292	-0.001952	0.975024	0.4155	0.114	-0.2535	0	178	1048	1
2026-02-12	14:41:47.010	-7.175	3.22	-8.085	0.104188	0.037576	0.85766	0.42	0.1215	-0.258	0	182	1057	1
2026-02-12	14:41:47.030	-2.415	4.69	-4.9	0.099064	0.061	0.790072	0.426	0.1185	-0.246	0	182	1057	1
2026-02-12	14:41:47.050	1.435	12.25	-2.17	0.102236	0.108824	0.792268	0.426	0.093	-0.2565	0	182	1057	1
2026-02-12	14:41:47.070	-14.84	20.545	-0.455	0.126636	0.081496	0.901336	0.438	0.093	-0.282	0	182	1057	1
2026-02-12	14:41:47.090	-18.865	24.01	-0.35	0.122244	0.071004	0.917928	0.4635	0.108	-0.3075	0	182	1057	1
2026-02-12	14:41:47.110	-13.055	8.155	2.065	0.1037	0.090524	0.939156	0.4485	0.069	-0.339	0	182	1057	1
2026-02-12	14:41:47.130	-15.12	3.29	1.75	0.06832	0.089548	0.921832	0.441	0.084	-0.3075	0	182	1057	1
2026-02-12	14:41:47.150	-12.425	-4.06	-0.07	0.026108	0.099064	0.859124	0.456	0.132	-0.27	0	182	1057	1
2026-02-12	14:41:47.170	-7.175	-12.145	-1.89	0.004148	0.077348	0.821792	0.4425	0.135	-0.2715	0	182	1057	1
2026-02-12	14:41:47.190	-2.73	-18.2	-3.255	-0.003416	0.081984	0.788608	0.4395	0.1365	-0.2775	0	182	1057	1
2026-02-12	14:41:47.210	2.205	-20.23	-3.815	-0.000244	0.083936	0.822036	0.4515	0.1305	-0.2895	0	183	1053	1
2026-02-12	14:41:47.230	-1.015	-14.735	-2.905	-0.007564	0.083692	0.885964	0.4695	0.0915	-0.2955	0	183	1053	1
2026-02-12	14:41:47.250	-1.645	-11.305	-2.94	-0.015616	0.064904	0.919392	0.48	0.093	-0.3105	0	183	1053	1
2026-02-12	14:41:47.270	0.35	-14.945	-0.525	-0.024644	0.083448	0.97112	0.4725	0.1305	-0.309	0	183	1053	1
2026-02-12	14:41:47.290	-5.425	-12.18	2.275	-0.042212	0.088328	0.982344	0.4185	0.102	-0.285	0	183	1053	1
2026-02-12	14:41:47.310	-10.57	-12.565	5.04	-0.048556	0.091744	0.989664	0.4065	0.06	-0.288	0	183	1053	1
2026-02-12	14:41:47.330	-9.38	-10.43	7.77	-0.0427	0.083936	1.00406	0.408	0.033	-0.306	0	183	1053	1
2026-02-12	14:41:47.350	-4.55	-7.77	8.61	-0.024888	0.081984	1.041392	0.3735	0.033	-0.3075	0	183	1053	1
2026-02-12	14:41:47.370	-3.78	-3.605	8.4	0.005856	0.052948	1.118252	0.4185	0.0945	-0.3075	0	183	1053	1
2026-02-12	14:41:47.390	-2.415	2.87	7.7	0.034892	0.011468	1.130452	0.4125	0.09	-0.309	0	183	1053	1
2026-02-12	14:41:47.410	-0.875	8.68	7.42	0.050996	0.001952	1.160708	0.3615	0.0465	-0.2955	0	182	1037	1
2026-02-12	14:41:47.430	0.945	15.085	8.365	0.047824	-0.010736	1.16022	0.3615	0.03	-0.288	0	182	1037	1
2026-02-12	14:41:47.450	2.66	16.1	11.2	0.02684	-0.035624	1.128988	0.42	0.075	-0.291	0	182	1037	1
2026-02-12	14:41:47.470	3.535	9.835	16.66	-0.017324	-0.036356	1.160708	0.426	0.0795	-0.297	0	182	1037	1
2026-02-12	14:41:47.490	7.49	-1.645	21.455	-0.00732	-0.039772	1.177788	0.3705	0.027	-0.3	0	182	1037	1
2026-02-12	14:41:47.510	12.495	-15.505	24.15	0.025376	-0.060268	1.232444	0.369	0.03	-0.294	0	182	1037	1
2026-02-12	14:41:47.530	18.935	-19.285	23.695	0.102724	-0.063928	1.351272	0.3675	0.024	-0.294	0	182	1037	1
2026-02-12	14:41:47.550	22.295	-21.91	25.515	0.187392	-0.058072	1.189012	0.3675	0.024	-0.294	0	182	1037	1
2026-02-12	14:41:47.570	21.7	-19.845	25.095	0.183244	-0.05978	1.137284	0.363	-0.015	-0.3	0	182	1037	1
2026-02-12	14:41:47.590	20.86	-9.275	17.99	0.198616	-0.084424	0.875716	0.363	-0.015	-0.3	0	182	1037	1
2026-02-12	14:41:47.610	21.245	-5.215	12.32	0.195444	-0.058316	0.79422	0.3735	0.0555	-0.3	0	180	1038	1
2026-02-12	14:41:47.630	24.465	-10.465	7.7	0.22448	-0.021472	0.80276	0.36	0.036	-0.297	0	180	1038	1
2026-02-12	14:41:47.650	21.84	2.94	4.2	0.263764	-0.0183	0.89914	0.4305	0.126	-0.2565	0	180	1038	1
2026-02-12	14:41:47.670	13.965	20.055	5.04	0.20252	-0.045872	0.957456	0.4575	0.057	-0.3255	0	180	1038	1
2026-02-12	14:41:47.690	11.62	10.675	11.725	0.153476	0.004148	0.975268	0.4155	0.063	-0.3405	0	180	1038	1
2026-02-12	14:41:47.710	-2.485	5.18	19.145	0.114436	0.020252	1.002352	0.372	0.0225	-0.3105	0	180	1038	1
2026-02-12	14:41:47.730	-7.63	-3.92	26.215	0.069784	0.034404	1.01138	0.3765	0.027	-0.309	0	180	1038	1
2026-02-12	14:41:47.750	-10.675	-5.145	31.325	-0.00244	0.053192	0.94062	0.3795	0.0255	-0.3105	0	180	1038	1
2026-02-12	14:41:47.770	-10.605	-11.095	30.52	-0.06344	0.080764	0.853268	0.3735	-0.003	-0.324	0	180	1038	1
2026-02-12	14:41:47.790	-7.875	-12.46	25.585	-0.093696	0.062952	0.845948	0.372	0.018	-0.309	0	180	1038	1
2026-02-12	14:41:47.810	1.715	-12.775	15.925	-0.088572	0.076128	0.887672	0.3795	0.036	-0.312	0	178	1040	1
2026-02-12	14:41:47.830	6.3	-13.02	7.98	-0.082228	0.07808	0.917928	0.432	0.1275	-0.324	0	178	1040	1
2026-02-12	14:41:47.850	6.405	-8.4	2.03	-0.069296	0.0793	0.981856	0.3765	0.0225	-0.3135	0	178	1040	1
2026-02-12	14:41:47.870	1.925	-2.695	-1.68	-0.058316	0.08784	1.0614	0.4215	0.0945	-0.2925	0	178	1040	1
2026-02-12	14:41:47.890	1.645	-5.53	-2.52	-0.065392	0.07564	1.043588	0.402	0.048	-0.327	0	178	1040	1
2026-02-12	14:41:47.910	-2.52	-2.24	-1.995	-0.06588	0.056852	1.0858	0.372	0.033	-0.2955	0	178	1040	1
2026-02-12	14:41:47.930	-5.46	4.41	-2.065	-0.08174	0.061244	1.101172	0.3675	0.033	-0.303	0	178	1040	1
2026-02-12	14:41:47.950	-6.86	12.39	-2.66	-0.115168	0.063196	1.090192	0.3915	0.0555	-0.318	0	178	1040	1
2026-02-12	14:41:47.970	-6.23	18.06	-3.535	-0.135908	0.064416	1.096048	0.4095	0.123	-0.219	0	178	1040	1
2026-02-12	14:41:47.990	-3.395	24.78	-5.46	-0.111752	0.05002	1.129964	0.414	0.1455	-0.219	0	178	1040	1
2026-02-12	14:41:48.010	0.21	28.105	-8.575	-0.068564	0.023424	1.208288	0.45	0.1485	-0.2595	0	176	1038	1
2026-02-12	14:41:48.030	2.065	28.875	-12.6	-0.044164	0.011468	1.249524	0.459	0.141	-0.273	0	176	1038	1
2026-02-12	14:41:48.050	2.45	23.905	-13.895	-0.015616	-0.004392	1.24318	0.426	0.1515	-0.2295	0	176	1038	1
2026-02-12	14:41:48.070	1.68	13.965	-11.83	0.023912	-0.023912	1.221708	0.4815	0.1335	-0.282	0	176	1038	1
2026-02-12	14:41:48.090	1.33	3.255	-6.72	0.02196	-0.004148	1.172664	0.459	0.129	-0.234	0	176	1038	1
2026-02-12	14:41:48.110	2.555	-1.47	-4.06	0.03416	0.00122	1.119716	0.468	0.1425	-0.2685	0	176	1038	1
2026-02-12	14:41:48.130	4.235	1.82	-5.005	0.067588	-0.000244	1.050664	0.435	0.1485	-0.2145	0	176	1038	1
2026-02-12	14:41:48.150	4.69	3.605	-6.16	0.105164	0.014152	0.953064	0.468	0.1365	-0.2535	0	176	1038	1
2026-02-12	14:41:48.170	3.815	9.8	-8.89	0.103944	0.0488	0.856196	0.4095	0.132	-0.2175	0	176	1038	1
2026-02-12	14:41:48.190	2.1	11.13	-9.31	0.125904	0.083692	0.837896	0.4545	0.141	-0.2595	0	176	1038	1
2026-02-12	14:41:48.210	-5.04	12.67	-9.205	0.13176	0.0915	0.88206	0.4725	0.1335	-0.2655	0	174	1047	1
2026-02-12	14:41:48.230	-10.185	15.68	-8.995	0.144936	0.0793	0.913292	0.408	0.132	-0.222	0	174	1047	1
2026-02-12	14:41:48.250	-14.525	6.895	-9.38	0.136152	0.084912	0.937448	0.408	0.132	-0.222	0	174	1047	1
2026-02-12	14:41:48.270	-19.88	2.52	-9.765	0.09076799	0.072956	0.91012	0.408	0.132	-0.222	0	174	1047	1
2026-02-12	14:41:48.290	-20.615	-2.345	-11.935	0.022204	0.05978	0.839604	0.432	0.141	-0.237	0	174	1047	1
2026-02-12	14:41:48.310	-16.625	-7.28	-16.17	-0.025132	0.062464	0.784216	0.4575	0.1515	-0.2625	0	174	1047	1
2026-02-12	14:41:48.330	-9.31	-10.29	-18.935	-0.049044	0.05246	0.76372	0.4635	0.15	-0.2655	0	174	1047	1
2026-02-12	14:41:48.350	-6.405	-16.835	-18.41	-0.040504	0.058316	0.786412	0.4425	0.1485	-0.2385	0	174	1047	1
2026-02-12	14:41:48.370	-3.605	-13.895	-16.135	-0.062708	0.056852	0.83082	0.423	0.15	-0.2175	0	174	1047	1
2026-02-12	14:41:48.390	-4.375	-10.57	-13.475	-0.065392	0.052948	0.891088	0.4395	0.15	-0.2205	0	174	1047	1
2026-02-12	14:41:48.410	-3.675	-14.035	-10.64	-0.068808	0.033916	0.949648	0.45	0.1485	-0.237	0	173	1040	1
2026-02-12	14:41:48.430	0.875	-20.65	-6.93	-0.07076	0.076128	0.975756	0.462	0.144	-0.2625	0	173	1040	1
2026-02-12	14:41:48.450	-7.56	-20.58	-5.11	-0.04758	0.013176	1.022116	0.438	0.144	-0.2505	0	173	1040	1
2026-02-12	14:41:48.470	-0.28	-15.96	-3.255	-0.02196	0.070516	1.067256	0.4125	0.15	-0.225	0	173	1040	1
2026-02-12	14:41:48.490	-0.385	-9.66	-2.94	-0.0122	0.107604	1.043832	0.4425	0.147	-0.222	0	173	1040	1
2026-02-12	14:41:48.510	0.525	-6.685	-2.975	0.007564	0.104188	1.08702	0.4515	0.147	-0.2295	0	173	1040	1
2026-02-12	14:41:48.530	2.73	0.175	-4.69	0.03538	0.057828	1.126548	0.438	0.153	-0.237	0	173	1040	1
2026-02-12	14:41:48.550	5.39	7.98	-6.65	0.0732	0.019032	1.158512	0.435	0.156	-0.2385	0	173	1040	1
2026-02-12	14:41:48.570	6.615	16.66	-6.965	0.066368	0.026596	1.180716	0.4755	0.147	-0.2775	0	173	1040	1
2026-02-12	14:41:48.590	6.125	18.13	-5.04	0.049532	0.016592	1.185596	0.5175	0.1395	-0.3165	0	173	1040	1
2026-02-12	14:41:48.610	6.58	14.805	-2.485	0.07076	-0.022936	1.136796	0.5175	0.1395	-0.3165	0	171	1030	1
2026-02-12	14:41:48.630	6.86	15.715	-2.1	-0.051728	-0.02318	1.181448	0.405	0.159	-0.2145	0	171	1030	1
2026-02-12	14:41:48.650	9.695	4.55	0.595	-0.08906	-0.000488	1.154608	0.405	0.159	-0.2145	0	171	1030	1
2026-02-12	14:41:48.670	12.915	-11.305	2.345	-0.05124	-0.014396	1.224392	0.447	0.141	-0.252	0	171	1030	1
2026-02-12	14:41:48.690	15.89	-20.265	2.345	0.056852	-0.055144	1.265872	0.462	0.1395	-0.2685	0	171	1030	1
2026-02-12	14:41:48.710	16.87	-28.665	6.58	0.236436	-0.091744	1.253916	0.438	0.1425	-0.225	0	171	1030	1
2026-02-12	14:41:48.730	13.965	-23.1	14.28	0.22204	-0.116632	1.03456	0.453	0.138	-0.252	0	171	1030	1
2026-02-12	14:41:48.750	11.62	-18.62	8.26	0.202276	-0.11956	0.847412	0.4545	0.138	-0.261	0	171	1030	1
2026-02-12	14:41:48.770	18.165	-19.285	2.17	0.205936	-0.101504	0.744444	0.453	0.1305	-0.2895	0	171	1030	1
2026-02-12	14:41:48.790	22.68	-16.555	-2.52	0.234728	-0.078324	0.782264	0.4365	0.135	-0.3045	0	171	1030	1
2026-02-12	14:41:48.810	7.595	1.645	-9.38	0.216184	-0.061	0.909388	0.4455	0.1245	-0.2895	0	171	1036	1
2026-02-12	14:41:48.830	3.255	5.705	-8.26	0.177632	-0.087352	0.943792	0.4455	0.1215	-0.273	0	171	1036	1
2026-02-12	14:41:48.850	4.025	-6.93	1.015	0.104432	-0.044652	1.02968	0.4305	0.1305	-0.267	0	171	1036	1
2026-02-12	14:41:48.870	-9.905	-4.585	7.7	0.033428	-0.024888	1.01504	0.447	0.126	-0.273	0	171	1036	1
2026-02-12	14:41:48.890	-8.89	-14.14	13.265	-0.0305	-0.011224	0.973072	0.432	0.1275	-0.2655	0	171	1036	1
2026-02-12	14:41:48.910	-12.075	-19.46	16.065	-0.096624	0.027816	0.921344	0.459	0.1215	-0.27	0	171	1036	1
2026-02-12	14:41:48.930	-5.915	-18.62	16.765	-0.11956	0.000976	0.823256	0.426	0.1335	-0.2475	0	171	1036	1
2026-02-12	14:41:48.950	6.685	-18.235	16.065	-0.10614	0.004148	0.857172	0.456	0.1275	-0.2835	0	171	1036	1
2026-02-12	14:41:48.970	13.02	-20.3	12.425	-0.067832	0.005368	0.911584	0.462	0.132	-0.3015	0	171	1036	1
2026-02-12	14:41:48.990	15.155	-16.485	12.005	-0.037332	0.013908	0.972584	0.4485	0.138	-0.2805	0	171	1036	1
2026-02-12	14:41:49.010	10.57	-7.945	11.83	-0.015372	0.022204	1.015528	0.453	0.1305	-0.2655	0	171	1037	1
2026-02-12	14:41:49.030	9.52	-6.23	10.185	0.011712	0.028304	1.070428	0.435	0.1245	-0.255	0	171	1037	1
2026-02-12	14:41:49.050	5.075	-1.89	7.63	0.00976	0.036356	1.103368	0.429	0.1335	-0.252	0	171	1037	1
2026-02-12	14:41:49.070	0.63	5.285	4.34	-0.000244	0.040504	1.106296	0.444	0.129	-0.267	0	171	1037	1
2026-02-12	14:41:49.090	-1.785	14.14	1.54	-0.027328	0.05734	1.113616	0.4575	0.1275	-0.2745	0	171	1037	1
2026-02-12	14:41:49.110	-0.91	21.455	-0.84	-0.059292	0.084912	1.102636	0.4605	0.12	-0.249	0	171	1037	1
2026-02-12	14:41:49.130	1.75	28.385	-4.62	-0.071492	0.092232	1.126548	0.438	0.1365	-0.2565	0	171	1037	1
2026-02-12	14:41:49.150	5.145	29.12	-9.275	-0.014884	0.078324	1.1651	0.447	0.147	-0.261	0	171	1037	1
2026-02-12	14:41:49.170	7.595	29.645	-15.19	-0.002196	0.068076	1.197064	0.444	0.1455	-0.2835	0	171	1037	1
2026-02-12	14:41:49.190	8.925	26.005	-20.51	-0.021472	0.054168	1.160708	0.45	0.135	-0.2775	0	171	1037	1
2026-02-12	14:41:49.210	7	17.465	-23.625	-0.036112	0.036844	1.149484	0.489	0.1215	-0.3045	0	170	1039	1
2026-02-12	14:41:49.230	3.5	7.35	-22.47	-0.012932	0.028792	1.14314	0.483	0.129	-0.2895	0	170	1039	1
2026-02-12	14:41:49.250	-0.105	-3.15	-18.165	0.022936	0.02318	1.127524	0.462	0.1275	-0.288	0	170	1039	1
2026-02-12	14:41:49.270	-2.17	-7.525	-14.035	0.076616	0.009028	1.098	0.4785	0.1275	-0.3	0	170	1039	1
2026-02-12	14:41:49.290	-3.465	-4.41	-12.565	0.123464	-0.010004	1.00406	0.492	0.1245	-0.3045	0	170	1039	1
2026-02-12	14:41:49.310	-4.725	0.14	-11.27	0.137372	0.011956	0.907436	0.498	0.1275	-0.318	0	170	1039	1
2026-02-12	14:41:49.330	-5.775	1.05	-9.73	0.14518	0.0427	0.820084	0.5175	0.111	-0.333	0	170	1039	1
2026-02-12	14:41:49.350	-5.915	2.485	-7.735	0.15494	0.067588	0.808616	0.4125	0.042	-0.294	0	170	1039	1
2026-02-12	14:41:49.370	-11.13	8.54	-6.895	0.212768	0.07686	0.893528	0.468	0.1245	-0.306	0	170	1039	1
2026-02-12	14:41:49.390	-13.51	13.23	-7.595	0.132492	0.080276	0.88572	0.4785	0.111	-0.3075	0	170	1039	1
2026-02-12	14:41:49.410	-12.845	-2.45	-6.895	0.146156	0.048068	0.926712	0.4815	0.126	-0.291	0	169	1043	1
2026-02-12	14:41:49.430	-16.695	-6.02	-8.645	0.110532	0.028792	0.926224	0.483	0.1305	-0.2835	0	169	1043	1
2026-02-12	14:41:49.450	-14.56	-10.92	-11.795	0.065148	0.0183	0.863516	0.465	0.135	-0.2595	0	169	1043	1
2026-02-12	14:41:49.470	-11.305	-15.925	-13.545	0.00122	0.031232	0.793732	0.48	0.1365	-0.2925	0	169	1043	1
2026-02-12	14:41:49.490	-7.07	-20.895	-14.21	-0.016592	0.025376	0.785924	0.459	0.1395	-0.27	0	169	1043	1
2026-02-12	14:41:49.510	-5.39	-22.05	-13.37	-0.008052	0.024156	0.8296	0.4515	0.141	-0.261	0	169	1043	1
2026-02-12	14:41:49.530	-8.925	-18.34	-9.59	-0.002928	0.02196	0.882792	0.4605	0.141	-0.2775	0	169	1043	1
2026-02-12	14:41:49.550	-9.065	-16.835	-4.69	-0.005612	0.038552	0.94428	0.4605	0.141	-0.2775	0	169	1043	1
2026-02-12	14:41:49.570	-11.375	-12.635	-0.35	-0.014152	0.050996	0.98576	0.4605	0.141	-0.2775	0	169	1043	1
2026-02-12	14:41:49.590	-15.995	-13.265	2.345	-0.00732	0.040748	0.99064	0.444	0.1365	-0.2595	0	169	1043	1
2026-02-12	14:41:49.610	-6.965	-11.655	4.9	-0.008052	0.0976	1.038952	0.45	0.1305	-0.2595	0	167	1032	1
2026-02-12	14:41:49.630	-1.435	-9.31	4.76	0.019276	0.089548	1.079456	0.4635	0.138	-0.2685	0	167	1032	1
2026-02-12	14:41:49.650	2.45	-5.005	3.71	0.037088	0.08295999	1.09678	0.456	0.147	-0.258	0	167	1032	1
2026-02-12	14:41:49.670	5.74	-0.7	2.24	0.039284	0.06832	1.142164	0.456	0.147	-0.258	0	167	1032	1
2026-02-12	14:41:49.690	8.505	5.075	0.28	0.06222	0.05002	1.189256	0.4365	0.1515	-0.2595	0	167	1032	1
2026-02-12	14:41:49.710	9.87	8.26	-0.455	0.085888	0.04026	1.21634	0.4365	0.1515	-0.2595	0	167	1032	1
2026-02-12	14:41:49.730	12.11	18.305	-1.435	0.081984	0.0549	1.197064	0.4515	0.15	-0.2775	0	167	1032	1
2026-02-12	14:41:49.750	12.145	21.35	-1.05	0.054656	0.076372	1.168028	0.462	0.141	-0.2685	0	167	1032	1
2026-02-12	14:41:49.770	10.99	15.295	0.315	-0.011224	0.074664	1.17852	0.4455	0.141	-0.2565	0	167	1032	1
2026-02-12	14:41:49.790	10.605	-2.205	2.52	-0.012932	0.096868	1.287344	0.4695	0.1395	-0.273	0	167	1032	1
2026-02-12	14:41:49.810	11.62	-14.42	-0.14	0.09516	0.037332	1.329556	0.471	0.1455	-0.267	0	165	1031	1
2026-02-12	14:41:49.830	13.23	-21.77	-2.485	0.207156	-0.009516	1.330532	0.414	0.045	-0.2955	0	165	1031	1
2026-02-12	14:41:49.850	12.775	-26.6	-1.085	0.235948	-0.03172	1.093852	0.4935	0.135	-0.3195	0	165	1031	1
2026-02-12	14:41:49.870	10.045	-21.035	-5.495	0.208376	-0.011468	1.01626	0.4665	0.132	-0.2805	0	165	1031	1
2026-02-12	14:41:49.890	10.465	-7.63	-15.19	0.209352	-0.061976	0.8113	0.4425	0.138	-0.276	0	165	1031	1
2026-02-12	14:41:49.910	16.485	0.56	-21.735	0.288652	-0.077836	0.831308	0.423	0.1335	-0.249	0	165	1031	1
2026-02-12	14:41:49.930	8.54	2.31	-24.395	0.325252	-0.081984	0.814228	0.426	0.129	-0.2505	0	165	1031	1
2026-02-12	14:41:49.950	8.085	11.13	-26.005	0.304024	-0.071492	0.891332	0.4395	0.129	-0.276	0	165	1031	1
2026-02-12	14:41:49.970	6.895	14.245	-22.435	0.275232	-0.053436	0.96136	0.438	0.1275	-0.285	0	165	1031	1
2026-02-12	14:41:49.990	4.165	14.595	-14.77	0.216916	-0.038552	1.008452	0.453	0.1275	-0.267	0	165	1031	1
2026-02-12	14:41:50.010	3.325	10.465	-6.615	0.127368	-0.019032	0.982588	0.4335	0.123	-0.2535	0	165	1041	1
2026-02-12	14:41:50.030	5.95	4.06	-1.085	0.043188	-0.00976	0.925248	0.429	0.114	-0.246	0	165	1041	1
2026-02-12	14:41:50.050	8.855	0.63	1.68	-0.034892	0.006344	0.88572	0.4365	0.123	-0.258	0	165	1041	1
2026-02-12	14:41:50.070	9.45	-1.54	0.595	-0.0793	0.001708	0.842044	0.4275	0.078	-0.297	0	165	1041	1
2026-02-12	14:41:50.090	14.875	-0.84	-0.07	-0.102968	0.029524	0.853512	0.4215	0.114	-0.2925	0	165	1041	1
2026-02-12	14:41:50.110	17.255	0.7	-1.96	-0.10126	0.022936	0.893772	0.4335	0.123	-0.2655	0	165	1041	1
2026-02-12	14:41:50.130	16.45	-0.245	-3.605	-0.093452	0.018056	0.955992	0.5265	0.1095	-0.357	0	165	1041	1
2026-02-12	14:41:50.150	12.32	1.365	-4.655	-0.099308	0.019032	1.00528	0.447	0.1065	-0.276	0	165	1041	1
2026-02-12	14:41:50.170	6.545	1.855	-6.09	-0.091012	0.015372	1.04432	0.4485	0.1095	-0.2805	0	165	1041	1
2026-02-12	14:41:50.190	0.385	7.175	-8.68	-0.075396	-0.004392	1.086532	0.444	0.0735	-0.3015	0	165	1041	1
2026-02-12	14:41:50.210	-5.39	14.945	-10.01	-0.090524	-0.009028	1.079212	0.4635	0.087	-0.2565	0	166	1040	1
2026-02-12	14:41:50.230	-10.29	21.245	-9.73	-0.120292	-0.002684	1.065548	0.4605	0.1065	-0.2955	0	166	1040	1
2026-02-12	14:41:50.250	-12.985	29.085	-8.75	-0.142984	0.022692	1.060912	0.4515	0.108	-0.2655	0	166	1040	1
2026-02-12	14:41:50.270	-12.46	32.375	-7.735	-0.13908	0.042944	1.09678	0.4515	0.114	-0.276	0	166	1040	1
2026-02-12	14:41:50.290	-8.855	34.895	-8.61	-0.106628	0.0366	1.132648	0.477	0.111	-0.3135	0	166	1040	1
2026-02-12	14:41:50.310	-5.32	31.535	-9.905	-0.073688	0.034892	1.1895	0.4785	0.1095	-0.2865	0	166	1040	1
2026-02-12	14:41:50.330	-3.64	20.02	-9.345	0.004392	-0.00244	1.259284	0.4935	0.117	-0.3045	0	166	1040	1
2026-02-12	14:41:50.350	-3.71	4.27	-6.16	0.11834	-0.030256	1.324676	0.471	0.1215	-0.2715	0	166	1040	1
2026-02-12	14:41:50.370	-3.535	-5.74	-1.96	0.145424	-0.023668	1.24806	0.468	0.1155	-0.2775	0	166	1040	1
2026-02-12	14:41:50.390	-2.205	-14.42	0.525	0.127856	-0.01098	1.105564	0.4935	0.108	-0.285	0	166	1040	1
2026-02-12	14:41:50.410	0	-16.52	0.35	0.122976	0.013176	0.951112	0.486	0.114	-0.2865	0	168	1042	1
2026-02-12	14:41:50.430	1.715	-12.985	-2.555	0.117608	0.035624	0.838384	0.5385	0.009	-0.3675	0	168	1042	1
2026-02-12	14:41:50.450	3.71	-10.325	-4.55	0.124196	0.06734399	0.775432	0.4365	0	-0.303	0	168	1042	1
2026-02-12	14:41:50.470	-2.73	-5.46	-5.88	0.149328	0.10126	0.81984	0.462	0.126	-0.2595	0	168	1042	1
2026-02-12	14:41:50.490	-8.365	11.9	-6.895	0.15738	0.120536	0.880596	0.459	0.1155	-0.264	0	168	1042	1
2026-02-12	14:41:50.510	-17.5	24.605	-7.175	0.126392	0.112972	0.908168	0.483	0.129	-0.2835	0	168	1042	1
2026-02-12	14:41:50.530	-26.18	5.005	-3.395	0.11712	0.091988	0.932812	0.411	-0.0285	-0.3075	0	168	1042	1
2026-02-12	14:41:50.550	-29.54	6.685	-5.005	0.072712	0.07564	0.926956	0.4725	0.1275	-0.2595	0	168	1042	1
2026-02-12	14:41:50.570	-28.525	1.96	-7.63	0.019276	0.073932	0.89182	0.5025	0.123	-0.279	0	168	1042	1
2026-02-12	14:41:50.590	-24.465	-8.925	-9.275	0.00244	0.05978	0.887428	0.4875	0.1185	-0.2715	0	168	1042	1
2026-02-12	14:41:50.610	-17.15	-10.01	-11.48	-0.033672	0.035624	0.840336	0.498	0.1095	-0.279	0	171	1040	1
2026-02-12	14:41:50.630	-12.18	-18.095	-10.71	-0.044164	0.026108	0.849852	0.4935	0.126	-0.2805	0	171	1040	1
2026-02-12	14:41:50.650	-5.32	-18.41	-8.96	-0.047092	0.024156	0.858392	0.492	0.1425	-0.2565	0	171	1040	1
2026-02-12	14:41:50.670	-1.505	-13.37	-6.825	-0.038796	0.03782	0.929884	0.477	0.147	-0.261	0	171	1040	1
2026-02-12	14:41:50.690	1.82	-5.145	-4.34	-0.053924	0.037332	0.962092	0.4605	0.147	-0.2625	0	171	1040	1
2026-02-12	14:41:50.710	2.135	-6.405	-1.54	-0.054656	0.04392	0.986248	0.459	0.138	-0.276	0	171	1040	1
2026-02-12	14:41:50.730	0.7	-9.205	1.47	-0.043676	0.060756	1.038708	0.459	0.138	-0.276	0	171	1040	1
2026-02-12	14:41:50.750	-1.155	-3.045	2.275	-0.030744	0.053924	1.067744	0.468	0.1365	-0.2625	0	171	1040	1
2026-02-12	14:41:50.770	-2.1	-4.025	3.71	-0.02318	0.057096	1.06994	0.477	0.1365	-0.249	0	171	1040	1
2026-02-12	14:41:50.790	-1.89	0.805	3.115	-0.037576	0.059536	1.065792	0.486	0.1395	-0.264	0	171	1040	1
2026-02-12	14:41:50.810	-0.315	4.34	1.26	-0.022692	0.04758	1.08702	0.486	0.141	-0.276	0	173	1029	1
2026-02-12	14:41:50.830	2.485	8.96	-0.98	-0.00488	0.01586	1.123376	0.4905	0.138	-0.2835	0	173	1029	1
2026-02-12	14:41:50.850	4.83	13.405	-1.82	0.018788	-0.008784	1.169492	0.495	0.1395	-0.2835	0	173	1029	1
2026-02-12	14:41:50.870	6.3	15.155	0.175	0.015372	-0.027816	1.18096	0.4875	0.141	-0.2715	0	173	1029	1
2026-02-12	14:41:50.890	8.015	13.405	3.92	-0.01464	-0.038308	1.1895	0.4875	0.141	-0.2715	0	173	1029	1
2026-02-12	14:41:50.910	10.605	9.555	7.63	-0.049288	-0.04758	1.179984	0.477	0.144	-0.24	0	173	1029	1
2026-02-12	14:41:50.930	13.895	1.61	10.29	-0.0305	-0.064416	1.147532	0.4785	0.147	-0.2565	0	173	1029	1
2026-02-12	14:41:50.950	17.325	-3.675	11.55	0.034404	-0.072712	1.271972	0.4965	0.132	-0.276	0	173	1029	1
2026-02-12	14:41:50.970	20.79	-11.375	15.96	0.14274	-0.115656	1.247084	0.483	0.1485	-0.27	0	173	1029	1
2026-02-12	14:41:50.990	21.14	-10.255	19.25	0.20984	-0.097112	1.135088	0.4755	0.1245	-0.2505	0	173	1029	1
2026-02-12	14:41:51.010	18.655	-2.065	18.9	0.216428	-0.082716	0.92842	0.4995	0.1335	-0.246	0	173	1033	1
2026-02-12	14:41:51.030	14	-5.565	18.76	0.19642	-0.06222	0.853268	0.483	0.141	-0.3	0	173	1033	1
2026-02-12	14:41:51.050	9.8	-3.5	17.885	0.181048	-0.041236	0.82838	0.5175	0.132	-0.2835	0	173	1033	1
2026-02-12	14:41:51.070	11.165	1.225	14.56	0.289872	-0.095648	0.81984	0.5475	0.1275	-0.2985	0	173	1033	1
2026-02-12	14:41:51.090	1.33	5.39	11.305	0.200812	-0.064172	0.928664	0.4755	0.132	-0.24	0	173	1033	1
2026-02-12	14:41:51.110	-1.855	0.875	9.1	0.138836	-0.032452	0.984296	0.48	0.147	-0.2505	0	173	1033	1
2026-02-12	14:41:51.130	-7.315	-6.65	7.7	0.077348	0	0.999912	0.4815	0.147	-0.252	0	173	1033	1
2026-02-12	14:41:51.150	-8.365	-15.96	7.175	0.028548	0.021472	1.01016	0.51	0.1395	-0.2835	0	173	1033	1
2026-02-12	14:41:51.170	-7.035	-17.185	7.35	-0.028548	0.018056	0.952088	0.528	0.1365	-0.2895	0	173	1033	1
2026-02-12	14:41:51.190	-8.015	-21.49	7.07	-0.08686399	0.022204	0.896212	0.471	0.1365	-0.2445	0	173	1033	1
2026-02-12	14:41:51.210	1.89	-15.715	6.475	-0.119316	0.018056	0.84302	0.4755	0.153	-0.2475	0	173	1038	1
2026-02-12	14:41:51.230	7.28	-19.04	0.945	-0.1037	0.022936	0.86132	0.5205	0.1365	-0.294	0	173	1038	1
2026-02-12	14:41:51.250	7.665	-17.64	-1.015	-0.08418	0.02318	0.921344	0.504	0.123	-0.27	0	173	1038	1
2026-02-12	14:41:51.270	6.195	-7	-2.66	-0.072712	0.019276	1.010404	0.495	0.1395	-0.294	0	173	1038	1
2026-02-12	14:41:51.290	4.935	-1.26	-2.73	-0.066368	0.020008	1.016016	0.4995	0.129	-0.264	0	173	1038	1
2026-02-12	14:41:51.310	1.505	-4.445	-2.135	-0.032696	0.009516	1.109468	0.5385	0.1125	-0.336	0	173	1038	1
2026-02-12	14:41:51.330	-0.875	5.075	-2.94	-0.038552	-0.013176	1.101172	0.498	0.1395	-0.291	0	173	1038	1
2026-02-12	14:41:51.350	-1.89	8.295	-3.745	-0.06954	-0.014152	1.092388	0.501	0.144	-0.276	0	173	1038	1
2026-02-12	14:41:51.370	-1.505	14.21	-5.215	-0.099064	-0.015128	1.099952	0.477	0.144	-0.291	0	173	1038	1
2026-02-12	14:41:51.390	0.315	18.235	-5.88	-0.104188	-0.001464	1.108736	0.495	0.141	-0.2775	0	173	1038	1
2026-02-12	14:41:51.410	3.955	24.395	-6.72	-0.081008	-0.00976	1.150704	0.48	0.1485	-0.2445	0	172	1037	1
2026-02-12	14:41:51.430	7.7	28.525	-9.415	-0.049532	-0.013176	1.182912	0.489	0.144	-0.255	0	172	1037	1
2026-02-12	14:41:51.450	9.59	27.195	-12.565	-0.032696	-0.034404	1.181692	0.4965	0.1455	-0.2565	0	172	1037	1
2026-02-12	14:41:51.470	9.1	23.38	-15.295	-0.042944	-0.054656	1.167784	0.492	0.147	-0.249	0	172	1037	1
2026-02-12	14:41:51.490	6.265	17.675	-16.415	-0.081008	-0.061244	1.153876	0.516	0.138	-0.276	0	172	1037	1
2026-02-12	14:41:51.510	2.94	8.925	-12.985	-0.094428	-0.053436	1.130208	0.525	0.138	-0.2655	0	172	1037	1
2026-02-12	14:41:51.530	-0.735	2.87	-8.47	-0.08418	-0.046848	1.079944	0.498	0.1395	-0.2565	0	172	1037	1
2026-02-12	14:41:51.550	-2.45	-1.785	-4.025	-0.01952	-0.048068	1.06628	0.513	0.1305	-0.2535	0	172	1037	1
2026-02-12	14:41:51.570	-2.625	1.925	0.385	0.054412	-0.040016	1.004304	0.477	0.0195	-0.3195	0	172	1037	1
2026-02-12	14:41:51.590	-2.555	8.75	1.47	0.073688	-0.017568	0.885964	0.522	0.123	-0.3285	0	172	1037	1
2026-02-12	14:41:51.610	-2.52	11.375	3.15	0.078812	0.025376	0.81008	0.5295	0.141	-0.2925	0	170	1044	1
2026-02-12	14:41:51.630	-1.995	13.825	5.04	0.105408	0.066124	0.81374	0.507	0.1365	-0.2625	0	170	1044	1
2026-02-12	14:41:51.650	-10.465	14.525	5.565	0.125172	0.036112	0.91256	0.5085	0.129	-0.2625	0	170	1044	1
2026-02-12	14:41:51.670	-9.31	1.33	8.96	0.158112	0.034648	0.939156	0.5265	0.1365	-0.255	0	170	1044	1
2026-02-12	14:41:51.690	-10.64	3.71	6.685	0.122	0.01098	0.981612	0.51	0.1455	-0.2505	0	170	1044	1
2026-02-12	14:41:51.710	-10.255	-4.235	5.11	0.063684	0.060024	0.94428	0.5385	0.144	-0.279	0	170	1044	1
2026-02-12	14:41:51.730	-7.42	-8.26	1.68	-0.002684	0.0671	0.908168	0.516	0.141	-0.2535	0	170	1044	1
2026-02-12	14:41:51.750	-2.695	-10.78	-1.96	-0.046604	0.046116	0.84912	0.5145	0.1515	-0.2505	0	170	1044	1
2026-02-12	14:41:51.770	0.84	-15.26	-3.43	-0.058804	0.052948	0.835212	0.537	0.1425	-0.2475	0	170	1044	1
2026-02-12	14:41:51.790	-2.31	-16.52	-3.745	-0.040992	0.005368	0.8357	0.537	0.1425	-0.2475	0	170	1044	1
2026-02-12	14:41:51.810	-2.17	-16.45	-2.065	-0.020984	-0.010736	0.88938	0.5445	0.1395	-0.279	0	168	1040	1
2026-02-12	14:41:51.830	-3.115	-12.32	-1.19	-0.023912	-0.006344	0.889136	0.5535	0.138	-0.3105	0	168	1040	1
2026-02-12	14:41:51.850	-5.635	-4.34	-1.225	-0.0366	0.070028	0.961116	0.5385	0.1365	-0.2955	0	168	1040	1
2026-02-12	14:41:51.870	-7.49	-2.31	-1.435	-0.045628	0.085888	0.949648	0.5355	0.1395	-0.279	0	168	1040	1
2026-02-12	14:41:51.890	-7.595	-8.19	-0.665	-0.042456	0.103944	0.979172	0.5235	0.1455	-0.261	0	168	1040	1
2026-02-12	14:41:51.910	-5.425	-3.36	-2.59	-0.050752	0.101504	0.997716	0.5025	0.1425	-0.246	0	168	1040	1
2026-02-12	14:41:51.930	-2.415	-5.6	-3.535	-0.035136	0.09516	1.041392	0.519	0.1425	-0.261	0	168	1040	1
2026-02-12	14:41:51.950	0.84	-0.35	-6.23	-0.043676	0.07905599	1.043344	0.5205	0.1395	-0.2685	0	168	1040	1
2026-02-12	14:41:51.970	3.43	2.345	-8.47	-0.049288	0.065148	1.075552	0.5115	0.138	-0.261	0	168	1040	1
2026-02-12	14:41:51.990	5.775	7.07	-9.905	-0.026352	0.038552	1.119228	0.51	0.138	-0.261	0	168	1040	1
2026-02-12	14:41:52.010	8.015	13.02	-9.1	0.020984	0.010004	1.166808	0.5175	0.1425	-0.2655	0	165	1028	1
2026-02-12	14:41:52.030	9.66	18.97	-5.635	0.021716	-0.012444	1.180472	0.531	0.1455	-0.276	0	165	1028	1
2026-02-12	14:41:52.050	10.115	18.83	-0.56	-0.014152	-0.015372	1.152656	0.5595	0.135	-0.315	0	165	1028	1
2026-02-12	14:41:52.070	10.78	14.56	3.36	-0.04514	0.0061	1.15046	0.5535	0.138	-0.309	0	165	1028	1
2026-02-12	14:41:52.090	12.565	8.085	7.385	-0.076616	-0.027572	1.174616	0.528	0.1425	-0.2835	0	165	1028	1
2026-02-12	14:41:52.110	14.945	-4.025	9.52	-0.05734	-0.05002	1.190964	0.534	0.141	-0.2805	0	165	1028	1
2026-02-12	14:41:52.130	19.04	-12.635	11.025	-0.02684	-0.059292	1.208044	0.5295	0.1425	-0.2685	0	165	1028	1
2026-02-12	14:41:52.150	19.95	-18.69	13.09	0.07198	-0.110044	1.161928	0.5295	0.141	-0.27	0	165	1028	1
2026-02-12	14:41:52.170	20.125	-15.645	13.895	0.119804	-0.120048	1.067256	0.5295	0.141	-0.27	0	165	1028	1
2026-02-12	14:41:52.190	18.06	-0.735	9.835	0.099796	-0.104188	0.868152	0.5295	0.141	-0.27	0	165	1028	1
2026-02-12	14:41:52.210	14.315	-4.41	7.49	0.099308	-0.09394	0.793244	0.5295	0.141	-0.27	0	161	1031	1
2026-02-12	14:41:52.230	9.87	-8.645	6.475	0.150304	-0.118584	0.854732	0.51	0.123	-0.27	0	161	1031	1
2026-02-12	14:41:52.250	5.565	-0.21	7.525	0.17446	-0.112728	0.93452	0.522	0.132	-0.282	0	161	1031	1
2026-02-12	14:41:52.270	-0.21	2.17	11.655	0.147864	-0.088084	0.973316	0.57	0.1035	-0.312	0	161	1031	1
2026-02-12	14:41:52.290	-6.055	-4.2	17.71	0.102724	-0.0427	1.007476	0.5175	0.1335	-0.2655	0	161	1031	1
2026-02-12	14:41:52.310	-8.855	-5.075	20.65	0.03904	-0.00244	0.97356	0.54	0.1305	-0.288	0	161	1031	1
2026-02-12	14:41:52.330	-7.56	-12.46	23.065	-0.014396	0.031476	0.922564	0.5685	0.105	-0.291	0	161	1031	1
2026-02-12	14:41:52.350	-3.71	-13.895	22.26	-0.060756	0.049288	0.862784	0.5175	0.1335	-0.27	0	161	1031	1
2026-02-12	14:41:52.370	0.665	-18.62	20.58	-0.08418	0.0427	0.850584	0.576	0.117	-0.3135	0	161	1031	1
2026-02-12	14:41:52.390	3.955	-18.41	16.975	-0.107116	0.055144	0.837896	0.525	0.126	-0.2655	0	161	1031	1
2026-02-12	14:41:52.410	2.485	-22.19	13.475	-0.102968	0.049776	0.892308	0.549	0.126	-0.2805	0	159	1032	1
2026-02-12	14:41:52.430	1.61	-19.04	9.31	-0.09076799	0.05002	0.93208	0.5415	0.1305	-0.2805	0	159	1032	1
2026-02-12	14:41:52.450	-1.925	-8.505	3.955	-0.09076799	0.037576	0.977708	0.5115	0.1335	-0.2685	0	159	1032	1
2026-02-12	14:41:52.470	-6.44	-1.68	-0.455	-0.092476	0.027328	1.01382	0.5355	0.129	-0.2895	0	159	1032	1
2026-02-12	14:41:52.490	-10.36	-8.12	-1.82	-0.066612	0.016836	1.101416	0.5295	0.141	-0.288	0	159	1032	1
2026-02-12	14:41:52.510	-12.18	1.085	-3.605	-0.0732	0.011468	1.111176	0.5055	0.1455	-0.2565	0	159	1032	1
2026-02-12	14:41:52.530	-12.32	6.16	-4.025	-0.087108	0.006344	1.10654	0.5115	0.1455	-0.264	0	159	1032	1
2026-02-12	14:41:52.550	-10.99	13.125	-3.43	-0.103944	0.00976	1.104588	0.5115	0.135	-0.2505	0	159	1032	1
2026-02-12	14:41:52.570	-7.21	18.865	-3.955	-0.13176	0.02806	1.110444	0.5475	0.1155	-0.3075	0	159	1032	1
2026-02-12	14:41:52.590	-0.84	21.035	-6.965	-0.10614	0.018788	1.149484	0.5415	0.033	-0.366	0	159	1032	1
2026-02-12	14:41:52.610	6.405	22.435	-12.67	-0.053192	-0.005124	1.200724	0.612	0.138	-0.3075	0	158	1031	1
2026-02-12	14:41:52.630	11.095	21.98	-18.9	-0.03538	-0.029036	1.215852	0.576	0.0255	-0.276	0	158	1031	1
2026-02-12	14:41:52.650	11.62	16.03	-23.38	-0.00488	-0.052704	1.233908	0.6015	0.126	-0.3225	0	158	1031	1
2026-02-12	14:41:52.670	10.15	7.84	-24.045	0.02074	-0.047336	1.19194	0.528	0.144	-0.264	0	158	1031	1
2026-02-12	14:41:52.690	8.575	1.085	-21.315	0.001464	-0.028792	1.125816	0.552	0.132	-0.2925	0	158	1031	1
2026-02-12	14:41:52.710	6.755	-1.715	-17.535	0.014884	-0.040016	1.074088	0.5475	0.087	-0.2925	0	158	1031	1
2026-02-12	14:41:52.730	4.41	-1.505	-13.79	0.05612	-0.046116	1.026752	0.5295	0.123	-0.2625	0	158	1031	1
2026-02-12	14:41:52.750	1.89	6.405	-11.795	0.063928	-0.02196	0.92598	0.546	0.138	-0.294	0	158	1031	1
2026-02-12	14:41:52.770	-1.26	14.91	-9.87	0.057096	0.023912	0.857172	0.5145	0.132	-0.2595	0	158	1031	1
2026-02-12	14:41:52.790	-5.355	14.49	-6.195	0.081252	0.0549	0.883036	0.543	0.129	-0.2955	0	158	1031	1
2026-02-12	14:41:52.810	-9.555	12.04	-1.715	0.0976	0.063928	0.935496	0.534	0.132	-0.2895	0	156	1040	1
2026-02-12	14:41:52.830	-12.95	6.51	1.75	0.115412	0.046116	1.00406	0.543	0.132	-0.306	0	156	1040	1
2026-02-12	14:41:52.850	-13.195	3.535	1.75	0.092476	0.024156	0.980636	0.543	0.132	-0.306	0	156	1040	1
2026-02-12	14:41:52.870	-10.78	0.7	-2.065	0.021716	0.027328	0.915732	0.5355	0.138	-0.2865	0	156	1040	1
2026-02-12	14:41:52.890	-8.365	-1.05	-6.37	-0.038552	0.039528	0.85522	0.5295	0.1455	-0.2685	0	156	1040	1
2026-02-12	14:41:52.910	-5.88	-5.845	-10.045	-0.057584	0.036356	0.821304	0.5445	0.141	-0.285	0	156	1040	1
2026-02-12	14:41:52.930	-4.34	-12.39	-12.635	-0.055632	0.03294	0.820572	0.555	0.111	-0.3045	0	156	1040	1
2026-02-12	14:41:52.950	-5.285	-15.925	-11.48	-0.03904	0.053924	0.870348	0.51	0.117	-0.2805	0	156	1040	1
2026-02-12	14:41:52.970	-5.81	-10.64	-9.03	-0.034648	0.046116	0.904264	0.4635	0.147	-0.2445	0	156	1040	1
2026-02-12	14:41:52.990	-8.26	-3.01	-7	-0.055144	0.063684	0.871812	0.459	0.147	-0.2205	0	156	1040	1
2026-02-12	14:41:53.010	-10.255	-1.26	-5.81	-0.065392	0.081252	0.87596	0.48	0.1515	-0.2295	0	155	1036	1
2026-02-12	14:41:53.030	-10.43	-7.7	-4.795	-0.059292	0.094184	0.926712	0.495	0.1515	-0.2475	0	155	1036	1
2026-02-12	14:41:53.050	-8.47	-10.955	-4.34	-0.042456	0.105896	0.957456	0.4965	0.1485	-0.255	0	155	1036	1
2026-02-12	14:41:53.070	-4.97	-10.605	-5.53	-0.053436	0.12078	0.974048	0.4935	0.147	-0.258	0	155	1036	1
2026-02-12	14:41:53.090	-0.455	-14.28	-6.86	-0.0427	0.125416	1.023336	0.48	0.15	-0.234	0	155	1036	1
2026-02-12	14:41:53.110	4.83	-10.535	-10.185	-0.044164	0.1098	1.050908	0.465	0.1545	-0.2145	0	155	1036	1
2026-02-12	14:41:53.130	9.555	-7.84	-13.65	-0.047092	0.085644	1.079456	0.4695	0.1515	-0.222	0	155	1036	1
2026-02-12	14:41:53.150	13.02	-3.185	-16.59	-0.00854	0.0488	1.15778	0.489	0.1455	-0.243	0	155	1036	1
2026-02-12	14:41:53.170	15.435	2.485	-17.185	0.045384	0.012932	1.235128	0.4905	0.1425	-0.234	0	155	1036	1
2026-02-12	14:41:53.190	16.17	9.275	-14.595	0.06588	-0.026352	1.25416	0.477	0.147	-0.2175	0	155	1036	1
2026-02-12	14:41:53.210	15.96	11.795	-9.52	0.027816	-0.038308	1.218292	0.4755	0.1455	-0.228	0	154	1028	1
2026-02-12	14:41:53.230	15.89	12.6	-5.18	-0.005612	-0.072712	1.134844	0.4965	0.135	-0.243	0	154	1028	1
2026-02-12	14:41:53.250	17.255	2.59	-1.26	-0.088816	-0.034892	1.208776	0.5085	0.129	-0.2535	0	154	1028	1
2026-02-12	14:41:53.270	18.9	-7.42	2.8	-0.048312	-0.092964	1.256112	0.5115	0.1275	-0.258	0	154	1028	1
2026-02-12	14:41:53.290	20.3	-8.61	4.585	0.028304	-0.110776	1.28954	0.495	0.135	-0.243	0	154	1028	1
2026-02-12	14:41:53.310	19.775	-9.485	9.625	0.10858	-0.127124	1.18096	0.483	0.138	-0.246	0	154	1028	1
2026-02-12	14:41:53.330	16.275	-1.155	15.015	0.123708	-0.11834	1.042612	0.4695	0.123	-0.255	0	154	1028	1
2026-02-12	14:41:53.350	11.795	13.265	10.43	0.084668	-0.093452	0.801784	0.4845	0.1245	-0.2685	0	154	1028	1
2026-02-12	14:41:53.370	8.12	10.045	8.12	0.10492	-0.056852	0.762744	0.489	0.129	-0.258	0	154	1028	1
2026-02-12	14:41:53.390	3.885	7.7	8.785	0.157868	-0.113216	0.831552	0.477	0.1245	-0.228	0	154	1028	1
2026-02-12	14:41:53.410	2.905	21.245	9.835	0.35868	-0.120292	0.952576	0.5055	0.1275	-0.243	0	154	1036	1
2026-02-12	14:41:53.430	-1.225	14.7	12.67	0.14274	-0.067832	0.964532	0.528	0.1245	-0.255	0	154	1036	1
2026-02-12	14:41:53.450	-4.13	2.695	16.695	0.07808	-0.009028	1.011624	0.5385	0.123	-0.2625	0	154	1036	1
2026-02-12	14:41:53.470	-4.795	-7.105	17.36	0.016592	0.02562	0.999912	0.5385	0.126	-0.2685	0	154	1036	1
2026-02-12	14:41:53.490	-5.355	-15.155	16.275	-0.047336	0.049044	0.904996	0.5385	0.126	-0.2685	0	154	1036	1
2026-02-12	14:41:53.510	-0.77	-17.535	12.705	-0.097112	0.075884	0.894748	0.5385	0.126	-0.2685	0	154	1036	1
2026-02-12	14:41:53.530	2.625	-15.085	7.315	-0.117852	0.052704	0.821548	0.492	0.126	-0.219	0	154	1036	1
2026-02-12	14:41:53.550	1.225	-17.43	3.045	-0.118584	0.05246	0.831308	0.5175	0.138	-0.267	0	154	1036	1
2026-02-12	14:41:53.570	2.275	-16.905	0.42	-0.08662	0.07564	0.88328	0.519	0.132	-0.264	0	154	1036	1
2026-02-12	14:41:53.590	-1.4	-3.15	-1.785	-0.072468	0.055632	0.924272	0.5025	0.1275	-0.2565	0	154	1036	1
2026-02-12	14:41:53.610	-3.395	3.5	-3.15	-0.079788	0.034648	0.975268	0.462	0.1395	-0.2535	0	155	1036	1
2026-02-12	14:41:53.630	-5.88	-2.03	-2.695	-0.083204	0.09467199	1.080188	0.465	0.135	-0.243	0	155	1036	1
2026-02-12	14:41:53.650	-7.945	4.55	-4.48	-0.112972	0.0427	1.055056	0.4965	0.138	-0.225	0	155	1036	1
2026-02-12	14:41:53.670	-8.015	5.145	-5.74	-0.106872	0.008296	1.096536	0.486	0.132	-0.2505	0	155	1036	1
2026-02-12	14:41:53.690	-7.14	13.09	-7.525	-0.122732	-0.019764	1.098488	0.4905	0.1395	-0.246	0	155	1036	1
2026-02-12	14:41:53.710	-5.74	17.745	-7.98	-0.164456	-0.003904	1.08092	0.4845	0.141	-0.2625	0	155	1036	1
2026-02-12	14:41:53.730	-3.5	24.675	-9.1	-0.19642	0.013908	1.070672	0.495	0.147	-0.237	0	155	1036	1
2026-02-12	14:41:53.750	-0.84	25.97	-11.655	-0.174948	0.022936	1.108736	0.498	0.1485	-0.222	0	155	1036	1
2026-02-12	14:41:53.770	1.75	24.01	-15.89	-0.139324	0.022448	1.154852	0.4965	0.144	-0.2325	0	155	1036	1
2026-02-12	14:41:53.790	3.08	23.24	-20.685	-0.123464	0.008784	1.142652	0.5145	0.1335	-0.2565	0	155	1036	1
2026-02-12	14:41:53.810	2.31	15.995	-22.855	-0.124196	-0.027084	1.190964	0.5085	0.138	-0.2595	0	157	1035	1
2026-02-12	14:41:53.830	1.26	0.735	-20.79	-0.089304	-0.064416	1.18096	0.516	0.1395	-0.2655	0	157	1035	1
2026-02-12	14:41:53.850	1.61	-12.425	-15.575	-0.049532	-0.04026	1.138992	0.5325	0.135	-0.2835	0	157	1035	1
2026-02-12	14:41:53.870	4.585	-13.055	-12.775	-0.019032	-0.025864	1.071404	0.51	0.1425	-0.273	0	157	1035	1
2026-02-12	14:41:53.890	6.965	-15.785	-10.99	0.041724	-0.032452	0.997716	0.5385	0.1365	-0.294	0	157	1035	1
2026-02-12	14:41:53.910	8.33	-15.61	-10.43	0.091988	-0.018788	0.938424	0.531	0.1425	-0.306	0	157	1035	1
2026-02-12	14:41:53.930	8.155	-4.2	-12.74	0.104188	0.010248	0.870348	0.531	0.1425	-0.306	0	157	1035	1
2026-02-12	14:41:53.950	5.18	-2.52	-13.16	0.136884	0.035624	0.876936	0.537	0.1185	-0.3045	0	157	1035	1
2026-02-12	14:41:53.970	2.73	-1.855	-13.3	0.147864	0.042456	0.896944	0.543	0.0945	-0.3045	0	157	1035	1
2026-02-12	14:41:53.990	-3.78	1.225	-13.755	0.156404	0.063684	0.937936	0.5235	0.1155	-0.291	0	157	1035	1
2026-02-12	14:41:54.010	-13.125	-1.68	-11.865	0.15006	0.070272	0.99552	0.504	0.138	-0.2775	0	159	1039	1
2026-02-12	14:41:54.030	-16.345	-3.5	-10.78	0.116144	0.075396	0.97112	0.507	0.138	-0.2775	0	159	1039	1
2026-02-12	14:41:54.050	-16.275	-5.25	-11.445	0.041968	0.085644	0.92598	0.5055	0.141	-0.2895	0	159	1039	1
2026-02-12	14:41:54.070	-12.285	-4.69	-14.98	-0.045384	0.075884	0.850828	0.513	0.1425	-0.3	0	159	1039	1
2026-02-12	14:41:54.090	-6.755	-6.125	-18.935	-0.093208	0.065148	0.797148	0.5055	0.1335	-0.285	0	159	1039	1
2026-02-12	14:41:54.110	-4.2	-8.05	-22.33	-0.118096	0.062952	0.794708	0.5175	0.1185	-0.2985	0	159	1039	1
2026-02-12	14:41:54.130	-9.345	-11.375	-22.89	-0.10126	0.043432	0.876692	0.5175	0.1095	-0.3075	0	159	1039	1
2026-02-12	14:41:54.150	-6.685	-10.99	-21.875	-0.082472	0.030744	0.878156	0.489	0.1245	-0.279	0	159	1039	1
2026-02-12	14:41:54.170	-6.825	-3.71	-20.615	-0.066124	0.034404	0.97722	0.4905	0.1275	-0.273	0	159	1039	1
2026-02-12	14:41:54.190	-6.93	3.43	-18.445	-0.07808	0.036356	0.986004	0.4905	0.123	-0.282	0	159	1039	1
2026-02-12	14:41:54.210	-6.615	-1.12	-13.895	-0.081008	0.049044	1.009672	0.4965	0.1125	-0.285	0	161	1031	1
2026-02-12	14:41:54.230	-4.97	2.03	-9.065	-0.089548	0.031232	1.0248	0.5055	0.111	-0.297	0	161	1031	1
2026-02-12	14:41:54.250	-2.52	4.795	-4.515	-0.085644	0.017568	1.039684	0.5055	0.135	-0.291	0	161	1031	1
2026-02-12	14:41:54.270	0.945	8.4	-1.26	-0.095892	0.010248	1.069208	0.4935	0.1365	-0.2775	0	161	1031	1
2026-02-12	14:41:54.290	5.39	15.225	-0.63	-0.102236	0	1.11996	0.492	0.12	-0.285	0	161	1031	1
2026-02-12	14:41:54.310	9.8	20.09	-0.525	-0.066368	-0.003172	1.20292	0.474	0.0705	-0.2955	0	161	1031	1
2026-02-12	14:41:54.330	13.265	26.075	-0.595	-0.044652	0.005856	1.200236	0.4455	0.0195	-0.3105	0	161	1031	1
2026-02-12	14:41:54.350	15.96	25.725	0.175	-0.043676	0.024156	1.196332	0.486	0.057	-0.312	0	161	1031	1
2026-02-12	14:41:54.370	18.445	22.995	1.47	-0.085888	0.010248	1.0919	0.5205	0.12	-0.288	0	161	1031	1
2026-02-12	14:41:54.390	20.755	6.16	4.27	-0.141764	0.026352	1.133624	0.5205	0.135	-0.288	0	161	1031	1
2026-02-12	14:41:54.410	20.195	-9.415	6.335	-0.121268	-0.000488	1.216584	0.534	0.1275	-0.3045	0	161	1028	1
2026-02-12	14:41:54.430	18.235	-20.545	9.905	-0.014884	-0.065636	1.285392	0.501	0.0915	-0.3015	0	161	1028	1
2026-02-12	14:41:54.450	15.61	-26.88	15.155	0.122244	-0.147376	1.23098	0.48	0.063	-0.318	0	161	1028	1
2026-02-12	14:41:54.470	12.32	-21.98	23.31	0.11712	-0.120292	1.092876	0.504	0.0915	-0.324	0	161	1028	1
2026-02-12	14:41:54.490	8.47	-7.63	18.83	0.059536	-0.107848	0.859368	0.5085	0.1245	-0.2985	0	161	1028	1
2026-02-12	14:41:54.510	5.95	-0.49	15.4	0.038552	-0.082472	0.729316	0.5025	0.1215	-0.2955	0	161	1028	1
2026-02-12	14:41:54.530	4.865	-0.21	13.37	0.09076799	-0.055388	0.743956	0.516	0.1065	-0.3015	0	161	1028	1
2026-02-12	14:41:54.550	0.91	4.445	14.385	0.180316	-0.02928	0.93208	0.5205	0.111	-0.2985	0	161	1028	1
2026-02-12	14:41:54.570	2.24	10.22	16.205	0.174948	-0.058804	1.00772	0.4845	0.093	-0.306	0	161	1028	1
2026-02-12	14:41:54.590	1.855	-2.73	20.545	0.157868	-0.054168	1.06628	0.4965	0.0885	-0.315	0	161	1028	1
2026-02-12	14:41:54.610	2.52	0.28	21.245	0.060512	-0.061	0.981856	0.5325	0.096	-0.3105	0	161	1035	1
2026-02-12	14:41:54.630	3.395	-11.27	21.875	-0.022204	-0.052704	0.925736	0.5355	0.0885	-0.3075	0	161	1035	1
2026-02-12	14:41:54.650	4.41	-11.935	19.005	-0.108092	-0.029524	0.839116	0.5385	0.102	-0.312	0	161	1035	1
2026-02-12	14:41:54.670	5.495	-18.13	16.555	-0.152256	-0.00244	0.799344	0.5265	0.1065	-0.315	0	161	1035	1
2026-02-12	14:41:54.690	4.48	-19.915	14.07	-0.1647	0.002196	0.80764	0.507	0.111	-0.3075	0	161	1035	1
2026-02-12	14:41:54.710	1.47	-21.7	12.46	-0.147376	0.027328	0.89304	0.507	0.1185	-0.2955	0	161	1035	1
2026-02-12	14:41:54.730	-0.56	-16.905	11.06	-0.117364	0.016104	0.961116	0.513	0.114	-0.2925	0	161	1035	1
2026-02-12	14:41:54.750	-3.57	-5.775	7.77	-0.132004	0.01586	0.986004	0.513	0.114	-0.2925	0	161	1035	1
2026-02-12	14:41:54.770	-6.37	-1.96	5.88	-0.156404	0.01708	0.981124	0.513	0.114	-0.2925	0	161	1035	1
2026-02-12	14:41:54.790	-8.54	-10.255	5.845	-0.122976	0.009028	1.03578	0.477	0.1455	-0.267	0	161	1035	1
2026-02-12	14:41:54.810	-9.31	-3.08	4.585	-0.120048	-0.004636	1.039928	0.5445	0.1335	-0.327	0	162	1030	1
2026-02-12	14:41:54.830	-9.555	0.525	3.71	-0.121024	-0.005612	1.062864	0.507	0.138	-0.288	0	162	1030	1
2026-02-12	14:41:54.850	-8.89	6.265	3.15	-0.119316	0.001708	1.094096	0.4965	0.1425	-0.2655	0	162	1030	1
2026-02-12	14:41:54.870	-6.965	14.91	2.17	-0.124684	0.0122	1.115812	0.522	0.1425	-0.3165	0	162	1030	1
2026-02-12	14:41:54.890	-3.85	21.14	0.42	-0.110288	0.01708	1.135576	0.5115	0.144	-0.294	0	162	1030	1
2026-02-12	14:41:54.910	0.525	24.535	-3.955	-0.083448	0.015616	1.15534	0.501	0.1485	-0.27	0	162	1030	1
2026-02-12	14:41:54.930	5.11	22.855	-9.31	-0.072468	0.0122	1.179496	0.5025	0.147	-0.2775	0	162	1030	1
2026-02-12	14:41:54.950	8.715	16.835	-13.23	-0.077836	-0.006832	1.190232	0.507	0.1575	-0.2655	0	162	1030	1
2026-02-12	14:41:54.970	9.1	7.805	-13.79	-0.060512	-0.03782	1.224148	0.498	0.147	-0.2655	0	162	1030	1
2026-02-12	14:41:54.990	6.895	-0.21	-11.41	-0.003904	-0.051728	1.250012	0.498	0.147	-0.2655	0	162	1030	1
2026-02-12	14:41:55.010	5.04	-4.55	-8.645	0.0122	-0.032452	1.177788	0.504	0.1365	-0.2715	0	163	1033	1
2026-02-12	14:41:55.030	4.69	-5.285	-7.91	0.0305	-0.02074	1.133868	0.5115	0.126	-0.279	0	163	1033	1
2026-02-12	14:41:55.050	5.215	-1.26	-9.205	0.054656	0.011224	1.021384	0.5175	0.1335	-0.3045	0	163	1033	1
2026-02-12	14:41:55.070	6.02	6.86	-14.21	0.06734399	0.05246	0.880108	0.513	0.141	-0.306	0	163	1033	1
2026-02-12	14:41:55.090	4.795	10.675	-18.585	0.088328	0.082228	0.834236	0.5115	0.1305	-0.2895	0	163	1033	1
2026-02-12	14:41:55.110	-0.42	8.47	-20.02	0.136396	0.070028	0.893284	0.507	0.129	-0.288	0	163	1033	1
2026-02-12	14:41:55.130	-4.375	6.545	-17.99	0.1342	0.081252	0.954772	0.495	0.135	-0.2805	0	163	1033	1
2026-02-12	14:41:55.150	-6.72	4.515	-15.645	0.097356	0.06832	0.995276	0.4965	0.138	-0.279	0	163	1033	1
2026-02-12	14:41:55.170	-6.23	0.28	-14.805	0.061488	0.036112	0.995276	0.501	0.1425	-0.279	0	163	1033	1
2026-02-12	14:41:55.190	-3.885	-0.525	-16.94	-0.019032	0.014396	0.930128	0.516	0.1395	-0.288	0	163	1033	1
2026-02-12	14:41:55.210	-1.82	-3.92	-20.055	-0.089792	-0.002196	0.851316	0.519	0.1365	-0.2955	0	164	1040	1
2026-02-12	14:41:55.230	-1.645	-7.385	-22.085	-0.112728	-0.022448	0.807152	0.51	0.1395	-0.2955	0	164	1040	1
2026-02-12	14:41:55.250	-3.01	-10.57	-21.63	-0.106872	-0.015372	0.804712	0.5025	0.135	-0.2865	0	164	1040	1
2026-02-12	14:41:55.270	-7.28	-12.25	-17.99	-0.07905599	-0.017568	0.854	0.507	0.1275	-0.291	0	164	1040	1
2026-02-12	14:41:55.290	-9.485	-6.86	-13.755	-0.073444	0.009272	0.884256	0.5205	0.1245	-0.3	0	164	1040	1
2026-02-12	14:41:55.310	-11.095	-0.49	-10.605	-0.06954	0.031232	0.91988	0.4935	0.081	-0.3315	0	164	1040	1
2026-02-12	14:41:55.330	-10.605	-0.84	-8.19	-0.087596	0.035136	0.929884	0.492	0.0855	-0.348	0	164	1040	1
2026-02-12	14:41:55.350	-8.19	-6.825	-4.83	-0.086132	0.052704	0.975268	0.525	0.1245	-0.3255	0	164	1040	1
2026-02-12	14:41:55.370	-4.48	-1.785	-3.22	-0.11834	0.04758	0.981124	0.528	0.0765	-0.318	0	164	1040	1
2026-02-12	14:41:55.390	-1.085	-4.13	0.595	-0.121268	0.035136	1.02236	0.4845	0.045	-0.324	0	164	1040	1
2026-02-12	14:41:55.410	2.065	0.77	2.73	-0.128832	0.017324	1.053104	0.4455	0.063	-0.333	0	163	1032	1
2026-02-12	14:41:55.430	4.97	4.2	4.515	-0.144936	-0.001464	1.088972	0.4335	0.009	-0.345	0	163	1032	1
2026-02-12	14:41:55.450	6.79	11.935	5.145	-0.174948	-0.019032	1.086776	0.4275	-0.0105	-0.3375	0	163	1032	1
2026-02-12	14:41:55.470	6.86	14.875	6.405	-0.130052	-0.039284	1.140456	0.4785	0.0345	-0.3405	0	163	1032	1
2026-02-12	14:41:55.490	6.265	20.195	9.59	-0.090036	-0.040992	1.180472	0.5265	0.09	-0.3375	0	163	1032	1
2026-02-12	14:41:55.510	5.95	18.445	14.595	-0.122976	-0.021472	1.172664	0.5175	0.1455	-0.306	0	163	1032	1
2026-02-12	14:41:55.530	8.085	7.21	20.055	-0.155672	-0.01342	1.170956	0.5175	0.1455	-0.297	0	163	1032	1
2026-02-12	14:41:55.550	12.04	-2.625	22.505	-0.145424	-0.019032	1.186084	0.51	0.1395	-0.2925	0	163	1032	1
2026-02-12	14:41:55.570	14.49	-14.175	23.03	-0.034892	-0.070272	1.281	0.495	0.147	-0.282	0	163	1032	1
2026-02-12	14:41:55.590	15.68	-25.935	23.38	0.158844	-0.155916	1.304912	0.468	0.153	-0.2595	0	163	1032	1
2026-02-12	14:41:55.610	16.8	-26.845	25.795	0.24522	-0.142252	1.161684	0.4755	0.141	-0.267	0	163	1033	1
2026-02-12	14:41:55.630	15.225	-8.925	20.3	0.157868	-0.10004	0.932324	0.5145	0.135	-0.282	0	163	1033	1
2026-02-12	14:41:55.650	12.39	-9.52	17.815	0.094428	-0.081008	0.744688	0.492	0.1455	-0.276	0	163	1033	1
2026-02-12	14:41:55.670	9.1	-11.235	18.515	0.115168	-0.057096	0.747616	0.4725	0.1425	-0.282	0	163	1033	1
2026-02-12	14:41:55.690	1.19	-4.76	15.75	0.125416	0.018544	0.981368	0.4515	0.141	-0.27	0	163	1033	1
2026-02-12	14:41:55.710	1.365	-2.1	19.075	0.107604	0.022204	1.011624	0.4455	0.1455	-0.261	0	163	1033	1
2026-02-12	14:41:55.730	1.435	-1.4	25.725	0.065148	-0.047336	1.093852	0.468	0.147	-0.2745	0	163	1033	1
2026-02-12	14:41:55.750	3.29	-3.01	29.155	-0.020496	-0.011224	1.05042	0.4755	0.1485	-0.279	0	163	1033	1
2026-02-12	14:41:55.770	6.685	-10.955	32.375	-0.096136	0.000244	0.93086	0.474	0.147	-0.2775	0	163	1033	1
2026-02-12	14:41:55.790	9.765	-9.8	28.735	-0.154208	0.018788	0.85278	0.456	0.1455	-0.2625	0	163	1033	1
2026-02-12	14:41:55.810	10.43	-9.17	24.36	-0.160308	0.044896	0.823744	0.4605	0.1425	-0.2715	0	163	1037	1
2026-02-12	14:41:55.830	8.33	-15.155	20.825	-0.12932	0.012444	0.80032	0.48	0.1425	-0.267	0	163	1037	1
2026-02-12	14:41:55.850	3.605	-17.15	18.935	-0.07564	0.00366	0.878644	0.474	0.147	-0.2565	0	163	1037	1
2026-02-12	14:41:55.870	-0.21	-6.545	16.66	-0.04514	0.011956	0.934276	0.4725	0.144	-0.27	0	163	1037	1
2026-02-12	14:41:55.890	-3.115	2.38	14.28	-0.052216	0.030012	0.9638	0.4515	0.144	-0.249	0	163	1037	1
2026-02-12	14:41:55.910	-4.48	-0.035	12.32	-0.053924	0.043432	0.978684	0.432	0.1395	-0.24	0	163	1037	1
2026-02-12	14:41:55.930	-4.41	-8.575	10.535	-0.071004	0.048556	1.031632	0.459	0.144	-0.2595	0	163	1037	1
2026-02-12	14:41:55.950	-2.52	-3.325	6.195	-0.097112	0.050508	1.055788	0.462	0.1545	-0.2685	0	163	1037	1
2026-02-12	14:41:55.970	-1.26	-0.945	2.975	-0.115168	0.039772	1.094096	0.45	0.153	-0.2835	0	163	1037	1
2026-02-12	14:41:55.990	-1.575	7.945	0.63	-0.148108	0.045628	1.125328	0.4605	0.1515	-0.2925	0	163	1037	1
2026-02-12	14:41:56.010	-3.08	15.96	-0.385	-0.16348	0.045872	1.134844	0.4605	0.153	-0.288	0	164	1034	1
2026-02-12	14:41:56.030	-5.18	22.575	-1.75	-0.143716	0.050752	1.15534	0.4605	0.153	-0.288	0	164	1034	1
2026-02-12	14:41:56.050	-7.105	26.215	-5.6	-0.0793	0.041236	1.181692	0.4605	0.153	-0.288	0	164	1034	1
2026-02-12	14:41:56.070	-7.49	25.515	-11.375	-0.041236	0.039528	1.19926	0.483	0.1515	-0.294	0	164	1034	1
2026-02-12	14:41:56.090	-6.51	22.68	-15.785	-0.029036	0.034404	1.202188	0.507	0.1515	-0.3015	0	164	1034	1
2026-02-12	14:41:56.110	-4.725	14.805	-18.375	-0.0122	0.012444	1.193648	0.4755	0.162	-0.288	0	164	1034	1
2026-02-12	14:41:56.130	-1.505	0.77	-17.465	0.011468	-0.00122	1.187304	0.4665	0.162	-0.288	0	164	1034	1
2026-02-12	14:41:56.150	1.855	-5.6	-14.035	0.00488	-0.009028	1.140944	0.468	0.159	-0.2745	0	164	1034	1
2026-02-12	14:41:56.170	3.57	-7.91	-10.99	0.02562	-0.005124	1.06018	0.4575	0.153	-0.2685	0	164	1034	1
2026-02-12	14:41:56.190	3.255	-5.355	-11.69	0.051484	0.0061	0.968192	0.468	0.1485	-0.285	0	164	1034	1
2026-02-12	14:41:56.210	1.26	0.525	-14.665	0.066612	0.026596	0.884012	0.495	0.1515	-0.2955	0	164	1041	1
2026-02-12	14:41:56.230	-1.925	5.81	-16.1	0.05856	0.058316	0.83082	0.4905	0.1515	-0.276	0	164	1041	1
2026-02-12	14:41:56.250	-6.37	8.47	-15.61	0.069296	0.0793	0.858148	0.462	0.156	-0.2445	0	164	1041	1
2026-02-12	14:41:56.270	-8.785	6.405	-13.02	0.092476	0.090036	0.943548	0.459	0.1605	-0.243	0	164	1041	1
2026-02-12	14:41:56.290	-8.015	4.13	-11.305	0.08174	0.076616	0.979416	0.465	0.159	-0.264	0	164	1041	1
2026-02-12	14:41:56.310	-3.78	0.21	-12.18	0.047336	0.049288	0.981856	0.4695	0.1575	-0.2835	0	164	1041	1
2026-02-12	14:41:56.330	1.295	-1.505	-15.505	-0.004392	0.02074	0.948916	0.4755	0.159	-0.288	0	164	1041	1
2026-02-12	14:41:56.350	3.535	-3.71	-19.04	-0.05124	0.016836	0.878156	0.477	0.1575	-0.2835	0	164	1041	1
2026-02-12	14:41:56.370	2.59	-8.225	-20.44	-0.070028	0.016348	0.852292	0.4635	0.1575	-0.279	0	164	1041	1
2026-02-12	14:41:56.390	0.07	-9.065	-19.32	-0.080032	0.031232	0.836432	0.4455	0.1575	-0.2625	0	164	1041	1
2026-02-12	14:41:56.410	-3.885	-7.665	-16.065	-0.082228	0.049044	0.854732	0.447	0.15	-0.273	0	163	1041	1
2026-02-12	14:41:56.430	-7.56	-3.815	-13.755	-0.077348	0.057096	0.873764	0.492	0.147	-0.315	0	163	1041	1
2026-02-12	14:41:56.450	-9.87	-4.375	-12.635	-0.06588	0.07905599	0.90768	0.489	0.156	-0.318	0	163	1041	1
2026-02-12	14:41:56.470	-9.45	-5.04	-11.795	-0.060756	0.091012	0.948916	0.4605	0.165	-0.2805	0	163	1041	1
2026-02-12	14:41:56.490	-6.965	-3.255	-11.55	-0.081496	0.09467199	0.964044	0.4575	0.1605	-0.249	0	163	1041	1
2026-02-12	14:41:56.510	-4.375	-6.3	-9.87	-0.083936	0.085888	1.000156	0.453	0.1545	-0.2715	0	163	1041	1
2026-02-12	14:41:56.530	-1.645	-4.06	-8.68	-0.09467199	0.07686	1.01382	0.453	0.1515	-0.291	0	163	1041	1
2026-02-12	14:41:56.550	0.875	-2.8	-7.56	-0.105652	0.066124	1.052372	0.429	0.15	-0.2715	0	163	1041	1
2026-02-12	14:41:56.570	3.01	1.575	-7.595	-0.102724	0.042456	1.112396	0.429	0.147	-0.2745	0	163	1041	1
2026-02-12	14:41:56.590	4.34	8.155	-8.33	-0.080032	0.016592	1.181448	0.4395	0.15	-0.2715	0	163	1041	1
2026-02-12	14:41:56.610	4.55	15.715	-8.68	-0.04636	-0.005856	1.236836	0.4365	0.1545	-0.2715	0	162	1032	1
2026-02-12	14:41:56.630	3.815	20.125	-7.105	-0.07515199	-0.005368	1.206824	0.447	0.147	-0.2925	0	162	1032	1
2026-02-12	14:41:56.650	2.485	20.44	-3.99	-0.13054	-0.005612	1.13948	0.423	0.147	-0.27	0	162	1032	1
2026-02-12	14:41:56.670	2.66	16.205	-0.455	-0.183976	0.004148	1.098732	0.4155	0.15	-0.2535	0	162	1032	1
2026-02-12	14:41:56.690	3.36	10.5	2.555	-0.19032	-0.003416	1.135332	0.417	0.1425	-0.2475	0	162	1032	1
2026-02-12	14:41:56.710	4.76	0.63	6.23	-0.132248	0.011956	1.242936	0.4065	0.1395	-0.2535	0	162	1032	1
2026-02-12	14:41:56.730	6.93	-4.41	11.2	-0.002196	-0.093208	1.284416	0.435	0.1425	-0.273	0	162	1032	1
2026-02-12	14:41:56.750	9.94	-10.325	16.8	0.1037	-0.151524	1.21268	0.471	0.144	-0.279	0	162	1032	1
2026-02-12	14:41:56.770	12.11	-2.87	15.26	0.117608	-0.137372	1.050908	0.468	0.147	-0.279	0	162	1032	1
2026-02-12	14:41:56.790	11.69	3.185	10.325	0.103456	-0.111508	0.84058	0.474	0.141	-0.2655	0	162	1032	1
2026-02-12	14:41:56.810	9.87	-6.86	6.02	0.121268	-0.087352	0.786412	0.4755	0.1335	-0.27	0	160	1038	1
2026-02-12	14:41:56.830	8.33	-8.995	4.655	0.166408	-0.08784	0.837408	0.4605	0.1305	-0.2895	0	160	1038	1
2026-02-12	14:41:56.850	6.545	-10.99	4.62	0.258152	-0.067832	0.962824	0.4605	0.129	-0.294	0	160	1038	1
2026-02-12	14:41:56.870	5.18	-6.16	5.075	0.11346	-0.045872	0.93452	0.4335	0.1365	-0.267	0	160	1038	1
2026-02-12	14:41:56.890	5.075	-10.395	10.395	0.034404	-0.012444	0.975024	0.423	0.1395	-0.2505	0	160	1038	1
2026-02-12	14:41:56.910	8.19	-14.315	14.035	-0.063684	0.014396	0.92598	0.4245	0.1365	-0.2625	0	160	1038	1
2026-02-12	14:41:56.930	7.56	-15.365	15.47	-0.129564	0.015616	0.866688	0.4395	0.1335	-0.264	0	160	1038	1
2026-02-12	14:41:56.950	11.83	-13.44	14.49	-0.163236	0.023668	0.816668	0.4815	0.135	-0.2835	0	160	1038	1
2026-02-12	14:41:56.970	13.3	-11.515	12.355	-0.174704	0.030744	0.800564	0.486	0.1365	-0.297	0	160	1038	1
2026-02-12	14:41:56.990	7.98	-18.235	11.76	-0.139812	0.00732	0.878644	0.468	0.1215	-0.2835	0	160	1038	1
2026-02-12	14:41:57.010	9.065	-14.945	10.325	-0.109312	-0.003904	0.915976	0.45	0.111	-0.2775	0	160	1038	1
2026-02-12	14:41:57.030	5.74	-6.72	7	-0.097356	-0.006344	0.941352	0.441	0.126	-0.273	0	160	1038	1
2026-02-12	14:41:57.050	1.54	-4.48	2.765	-0.093208	-0.004392	1.008452	0.444	0.135	-0.297	0	160	1038	1
2026-02-12	14:41:57.070	-2.765	-12.39	-0.385	-0.07515199	-0.005612	1.082384	0.423	0.1305	-0.306	0	160	1038	1
2026-02-12	14:41:57.090	-6.195	-3.99	-4.025	-0.08906	0.011224	1.054812	0.399	0.126	-0.2745	0	160	1038	1
2026-02-12	14:41:57.110	-7.63	-1.295	-6.65	-0.137372	0.02928	1.051152	0.399	0.129	-0.255	0	160	1038	1
2026-02-12	14:41:57.130	-7.525	3.185	-8.82	-0.169336	0.028792	1.064572	0.399	0.129	-0.255	0	160	1038	1
2026-02-12	14:41:57.150	-6.79	6.615	-9.485	-0.181292	0.020008	1.07726	0.447	0.1335	-0.2865	0	160	1038	1
2026-02-12	14:41:57.170	-5.6	8.645	-9.1	-0.172508	0.028304	1.103368	0.447	0.1335	-0.2865	0	160	1038	1
2026-02-12	14:41:57.190	-3.15	13.685	-10.92	-0.149328	0.040748	1.131428	0.4275	0.036	-0.3795	0	160	1038	1
2026-02-12	14:41:57.210	0.35	11.34	-16.45	-0.06222	0.03904	1.18218	0.444	0.1215	-0.2745	0	161	1032	1
2026-02-12	14:41:57.230	1.995	8.54	-20.37	-0.064172	0.028548	1.181936	0.444	0.1215	-0.2745	0	161	1032	1
2026-02-12	14:41:57.250	2.73	-0.07	-23.695	-0.068808	-0.006344	1.185352	0.405	0.1335	-0.2385	0	161	1032	1
2026-02-12	14:41:57.270	0.315	-9.24	-22.96	-0.051728	-0.025132	1.162904	0.4005	0.135	-0.2655	0	161	1032	1
2026-02-12	14:41:57.290	-3.64	-14.21	-18.445	-0.03294	-0.00244	1.127768	0.4455	0.1305	-0.273	0	161	1032	1
2026-02-12	14:41:57.310	-6.58	-8.96	-16.17	0.016592	0.00732	1.091656	0.4455	0.1305	-0.273	0	161	1032	1
2026-02-12	14:41:57.330	-8.365	-7.385	-15.785	0.115656	0.005612	1.059692	0.4455	0.1305	-0.273	0	161	1032	1
2026-02-12	14:41:57.350	-8.645	-0.875	-17.15	0.183488	0.027572	0.99186	0.417	0.1305	-0.2625	0	161	1032	1
2026-02-12	14:41:57.370	-9.275	8.05	-20.195	0.182512	0.05246	0.902556	0.39	0.132	-0.258	0	161	1032	1
2026-02-12	14:41:57.390	-10.675	5.705	-22.47	0.18666	0.081252	0.903288	0.417	0.132	-0.2685	0	161	1032	1
2026-02-12	14:41:57.410	-11.34	5.495	-25.27	0.169336	0.107604	0.921832	0.4485	0.1245	-0.279	0	162	1038	1
2026-02-12	14:41:57.430	-11.06	0.525	-25.305	0.150304	0.102236	0.957456	0.4215	0.123	-0.2565	0	162	1038	1
2026-02-12	14:41:57.450	-8.96	-4.2	-24.605	0.144936	0.063684	0.998936	0.396	0.135	-0.2295	0	162	1038	1
2026-02-12	14:41:57.470	-5.425	-3.36	-25.27	0.057828	0.027084	0.92842	0.4005	0.1395	-0.2325	0	162	1038	1
2026-02-12	14:41:57.490	-3.43	-4.865	-27.37	-0.023668	0.010248	0.846436	0.393	0.1335	-0.2475	0	162	1038	1
2026-02-12	14:41:57.510	-3.115	-3.92	-31.185	-0.080032	-0.012688	0.769332	0.408	0.1335	-0.2655	0	162	1038	1
2026-02-12	14:41:57.530	-5.74	-10.955	-30.66	-0.082228	-0.012444	0.759328	0.42	0.132	-0.264	0	162	1038	1
2026-02-12	14:41:57.550	-10.29	-14.315	-27.79	-0.07442	-0.01708	0.86376	0.4185	0.129	-0.267	0	162	1038	1
2026-02-12	14:41:57.570	-9.87	-5.25	-24.885	-0.051728	-0.036844	0.814228	0.432	0.123	-0.255	0	162	1038	1
2026-02-12	14:41:57.590	-12.005	1.96	-20.72	-0.038796	-0.055876	0.91988	0.42	0.126	-0.2535	0	162	1038	1
2026-02-12	14:41:57.610	-11.445	-6.475	-16.52	-0.04758	-0.036356	0.951844	0.408	0.129	-0.27	0	162	1033	1
2026-02-12	14:41:57.630	-10.36	-7.315	-12.635	-0.061244	-0.020496	0.976976	0.4215	0.123	-0.2685	0	162	1033	1
2026-02-12	14:41:57.650	-7.875	-7.525	-8.715	-0.08662	-0.0183	0.987468	0.4185	0.123	-0.2685	0	162	1033	1
2026-02-12	14:41:57.670	-4.2	-10.57	-3.5	-0.08784	-0.022204	1.040172	0.3945	0.129	-0.2685	0	162	1033	1
2026-02-12	14:41:57.690	0.315	-5.005	0	-0.092964	-0.048068	1.08092	0.3735	0.1365	-0.249	0	162	1033	1
2026-02-12	14:41:57.710	4.76	-0.315	3.185	-0.109556	-0.062708	1.113372	0.3855	0.1335	-0.231	0	162	1033	1
2026-02-12	14:41:57.730	8.225	6.02	6.16	-0.08662	-0.075396	1.1529	0.399	0.129	-0.243	0	162	1033	1
2026-02-12	14:41:57.750	10.29	9.695	11.34	-0.01342	-0.085888	1.197796	0.402	0.129	-0.2385	0	162	1033	1
2026-02-12	14:41:57.770	12.18	11.725	16.94	-0.021472	-0.07515199	1.19926	0.3885	0.129	-0.2205	0	162	1033	1
2026-02-12	14:41:57.790	15.435	6.965	23.905	-0.064416	-0.062708	1.197552	0.3945	0.1275	-0.237	0	162	1033	1
2026-02-12	14:41:57.810	18.9	-1.12	28.385	-0.07442	-0.054168	1.22854	0.426	0.1275	-0.2625	0	163	1028	1
2026-02-12	14:41:57.830	20.44	-11.41	30.345	-0.017568	-0.07686	1.269776	0.4575	0.1095	-0.2865	0	163	1028	1
2026-02-12	14:41:57.850	21.315	-21.63	31.08	0.07515199	-0.101992	1.225856	0.453	0.111	-0.303	0	163	1028	1
2026-02-12	14:41:57.870	21.945	-33.32	33.88	0.196176	-0.105408	1.20414	0.4005	0.129	-0.276	0	163	1028	1
2026-02-12	14:41:57.890	22.75	-19.95	33.005	0.22692	-0.097844	1.125084	0.3795	0.1305	-0.255	0	163	1028	1
2026-02-12	14:41:57.910	21.455	-7.875	29.435	0.248392	-0.119804	0.798124	0.396	0.123	-0.258	0	163	1028	1
2026-02-12	14:41:57.930	19.11	-8.505	26.145	0.18544	-0.069296	0.758596	0.42	0.1125	-0.27	0	163	1028	1
2026-02-12	14:41:57.950	14.91	-1.295	19.005	0.205204	-0.072712	0.80154	0.4095	0.114	-0.264	0	163	1028	1
2026-02-12	14:41:57.970	11.515	2.59	16.59	0.215452	-0.068076	0.91866	0.408	0.114	-0.2565	0	163	1028	1
2026-02-12	14:41:57.990	9.555	2.1	21.035	0.183244	-0.060268	1.017968	0.4245	0.1095	-0.27	0	163	1028	1
2026-02-12	14:41:58.010	5.6	0.105	25.935	0.119804	-0.03294	1.045052	0.4245	0.111	-0.267	0	164	1035	1
2026-02-12	14:41:58.030	7	-6.37	29.015	0.032208	-0.009272	0.983564	0.426	0.1095	-0.2835	0	164	1035	1
2026-02-12	14:41:58.050	2.24	-13.58	29.19	-0.069296	0.06832	0.899384	0.438	0.1095	-0.2985	0	164	1035	1
2026-02-12	14:41:58.070	8.68	-10.745	29.61	-0.086132	0.069052	0.867908	0.4455	0.114	-0.294	0	164	1035	1
2026-02-12	14:41:58.090	7.595	-10.5	23.24	-0.09467199	0.054412	0.841556	0.4335	0.0975	-0.3	0	164	1035	1
2026-02-12	14:41:58.110	5.495	-14.84	15.295	-0.073688	0.0183	0.897676	0.4245	0.1005	-0.288	0	164	1035	1
2026-02-12	14:41:58.130	1.96	-11.725	11.06	-0.04636	0.00854	0.883524	0.4095	0.063	-0.2835	0	164	1035	1
2026-02-12	14:41:58.150	-4.2	1.225	8.12	-0.042212	0.007808	0.974292	0.4335	0.033	-0.3075	0	164	1035	1
2026-02-12	14:41:58.170	-9.94	5.6	5.985	-0.0488	0.016836	0.992348	0.4725	0.057	-0.3195	0	164	1035	1
2026-02-12	14:41:58.190	-13.615	2.765	4.725	-0.0549	0.03172	1.008452	0.4725	0.057	-0.3195	0	164	1035	1
2026-02-12	14:41:58.210	-13.86	5.215	2.8	-0.076616	0.023424	1.03944	0.417	0.105	-0.273	0	166	1034	1
2026-02-12	14:41:58.230	-12.915	5.95	1.68	-0.08418	0.017812	1.043344	0.417	0.105	-0.273	0	166	1034	1
2026-02-12	14:41:58.250	-9.905	4.34	-0.875	-0.077592	0.005612	1.087264	0.3675	-0.0105	-0.3255	0	166	1034	1
2026-02-12	14:41:58.270	-5.39	9.205	-4.165	-0.0793	-0.01464	1.117764	0.3615	-0.1005	-0.387	0	166	1034	1
2026-02-12	14:41:58.290	-0.455	15.785	-6.16	-0.109068	-0.014884	1.102636	0.363	-0.105	-0.393	0	166	1034	1
2026-02-12	14:41:58.310	3.885	22.89	-7.735	-0.130052	-0.0061	1.108492	0.3855	0.009	-0.3225	0	166	1034	1
2026-02-12	14:41:58.330	6.72	27.58	-10.64	-0.1159	-0.00488	1.121668	0.366	-0.108	-0.411	0	166	1034	1
2026-02-12	14:41:58.350	7.245	30.835	-14.91	-0.08052	0.002928	1.14924	0.3525	-0.1005	-0.3285	0	166	1034	1
2026-02-12	14:41:58.370	6.335	31.29	-19.18	-0.055876	0.002196	1.140456	0.393	-0.012	-0.3225	0	166	1034	1
2026-02-12	14:41:58.390	3.325	27.37	-21.49	-0.030988	0.001708	1.189012	0.369	-0.114	-0.369	0	166	1034	1
2026-02-12	14:41:58.410	0.14	14	-18.06	0.073932	-0.024644	1.249036	0.459	0.123	-0.3105	0	167	1035	1
2026-02-12	14:41:58.430	-1.225	5.11	-12.145	0.126148	-0.039528	1.205848	0.4695	0.12	-0.303	0	167	1035	1
2026-02-12	14:41:58.450	1.085	7.07	-10.36	0.136884	-0.017324	1.074332	0.477	0.1005	-0.333	0	167	1035	1
2026-02-12	14:41:58.470	4.165	14.385	-12.705	0.097356	0.004636	0.861808	0.4725	0.1125	-0.306	0	167	1035	1
2026-02-12	14:41:58.490	7.63	7.63	-15.19	0.091012	0.041968	0.793244	0.471	0.117	-0.3165	0	167	1035	1
2026-02-12	14:41:58.510	9.135	8.365	-18.235	0.110288	0.0793	0.848144	0.4755	0.114	-0.324	0	167	1035	1
2026-02-12	14:41:58.530	8.54	7.385	-18.235	0.135176	0.093208	0.930616	0.468	0.0945	-0.291	0	167	1035	1
2026-02-12	14:41:58.550	4.97	6.265	-15.89	0.11346	0.073688	1.02602	0.471	0.1095	-0.303	0	167	1035	1
2026-02-12	14:41:58.570	0.735	5.04	-13.405	0.077592	0.0305	1.014308	0.4755	0.1125	-0.303	0	167	1035	1
2026-02-12	14:41:58.590	-1.75	1.47	-11.97	0.019032	-0.01464	0.9577	0.4485	0.117	-0.2745	0	167	1035	1
2026-02-12	14:41:58.610	-2.205	-2.275	-12.25	-0.077592	-0.023912	0.860588	0.4485	0.117	-0.2745	0	168	1040	1
2026-02-12	14:41:58.630	-1.995	-12.32	-11.62	-0.133468	-0.020008	0.8235	0.4485	0.117	-0.2745	0	168	1040	1
2026-02-12	14:41:58.650	-0.35	-18.795	-10.08	-0.155184	-0.023668	0.809348	0.4425	0.1095	-0.273	0	168	1040	1
2026-02-12	14:41:58.670	1.19	-20.755	-6.755	-0.14518	-0.015616	0.85278	0.4485	0.102	-0.2835	0	168	1040	1
2026-02-12	14:41:58.690	1.26	-15.085	-3.15	-0.134444	0.00976	0.888648	0.459	0.102	-0.303	0	168	1040	1
2026-02-12	14:41:58.710	-1.19	-4.55	-0.525	-0.135664	0.025864	0.88938	0.4365	0.096	-0.2835	0	168	1040	1
2026-02-12	14:41:58.730	-5.67	-1.925	2.52	-0.119804	0.02562	0.92476	0.417	0.096	-0.2595	0	168	1040	1
2026-02-12	14:41:58.750	-10.605	-2.45	6.02	-0.097844	0.027084	0.948428	0.4095	0.105	-0.2385	0	168	1040	1
2026-02-12	14:41:58.770	-14.98	0.98	9.345	-0.063196	0.028548	0.987224	0.3885	0.108	-0.2115	0	168	1040	1
2026-02-12	14:41:58.790	-17.92	4.935	11.48	-0.034404	0.034892	1.006988	0.381	0.111	-0.219	0	168	1040	1
2026-02-12	14:41:58.810	-19.11	8.785	11.83	-0.025132	0.039772	1.0248	0.4035	0.1095	-0.2385	0	167	1031	1
2026-02-12	14:41:58.830	-17.71	11.69	10.745	-0.01464	0.037576	1.047736	0.4305	0.1095	-0.2595	0	167	1031	1
2026-02-12	14:41:58.850	-13.615	14.735	9.1	-0.01464	0.035624	1.069696	0.411	0.1185	-0.2445	0	167	1031	1
2026-02-12	14:41:58.870	-8.19	16.24	7.21	-0.020496	0.030744	1.136308	0.432	0.1215	-0.249	0	167	1031	1
2026-02-12	14:41:58.890	-3.01	17.29	7.21	-0.008052	-0.000976	1.190476	0.4515	0.1155	-0.2535	0	167	1031	1
2026-02-12	14:41:58.910	0.28	12.32	11.235	-0.030988	-0.02928	1.226588	0.435	0.1095	-0.231	0	167	1031	1
2026-02-12	14:41:58.930	3.29	6.055	16.52	-0.101992	-0.018788	1.233664	0.4425	0.108	-0.2415	0	167	1031	1
2026-02-12	14:41:58.950	6.685	1.33	18.515	-0.193492	-0.066368	1.20414	0.4665	0.114	-0.2535	0	167	1031	1
2026-02-12	14:41:58.970	9.835	-16.03	21.7	-0.1769	-0.121024	1.173396	0.4515	0.1185	-0.2415	0	167	1031	1
2026-02-12	14:41:58.990	13.65	-27.3	26.11	-0.1342	-0.1342	1.230248	0.4125	0.1275	-0.2355	0	167	1031	1
2026-02-12	14:41:59.010	17.57	-29.505	28.98	-0.011224	-0.135664	1.234152	0.402	0.1275	-0.2325	0	167	1031	1
2026-02-12	14:41:59.030	19.565	-24.92	31.325	0.077836	-0.156404	1.154364	0.408	0.1215	-0.2265	0	167	1031	1
2026-02-12	14:41:59.050	19.705	-14	33.18	0.080032	-0.15006	0.945012	0.4245	0.111	-0.2655	0	167	1031	1
2026-02-12	14:41:59.070	19.215	-11.095	30.555	0.068808	-0.11834	0.798124	0.42	0.111	-0.27	0	167	1031	1
2026-02-12	14:41:59.090	18.515	-12.18	25.9	0.112484	-0.1037	0.797148	0.4245	0.12	-0.2355	0	167	1031	1
2026-02-12	14:41:59.110	17.395	-1.995	20.965	0.158112	-0.104188	0.830576	0.399	0.1215	-0.216	0	167	1031	1
2026-02-12	14:41:59.130	13.545	14	18.865	0.162748	-0.057096	0.86254	0.399	0.1185	-0.2325	0	167	1031	1
2026-02-12	14:41:59.150	6.79	6.72	24.885	0.152744	-0.057584	0.930128	0.423	0.1185	-0.249	0	167	1031	1
2026-02-12	14:41:59.170	-2.345	2.94	32.2	0.119804	-0.025376	0.959652	0.414	0.1215	-0.2445	0	167	1031	1
2026-02-12	14:41:59.190	-8.155	-3.29	37.835	0.071004	-0.008052	0.925248	0.4365	0.117	-0.2475	0	167	1031	1
2026-02-12	14:41:59.210	-10.115	-12.67	40.425	0.007076	0.030256	0.900848	0.45	0.1155	-0.249	0	167	1035	1
2026-02-12	14:41:59.230	-4.025	-16.905	37.8	-0.034404	0.026108	0.80398	0.4395	0.114	-0.246	0	167	1035	1
2026-02-12	14:41:59.250	3.255	-21.385	32.375	-0.074664	0.042212	0.797148	0.4395	0.114	-0.246	0	167	1035	1
2026-02-12	14:41:59.270	11.27	-28.63	27.545	-0.08686399	0.040748	0.873764	0.432	0.1155	-0.255	0	167	1035	1
2026-02-12	14:41:59.290	14.63	-29.015	24.29	-0.07564	0.037576	0.892552	0.432	0.1155	-0.255	0	167	1035	1
2026-02-12	14:41:59.310	20.055	-23.555	18.55	-0.110532	0.050508	0.968192	0.432	0.1155	-0.255	0	167	1035	1
2026-02-12	14:41:59.330	19.845	-21.77	15.4	-0.122732	0.063928	1.008208	0.432	0.1155	-0.255	0	167	1035	1
2026-02-12	14:41:59.350	15.925	-22.295	12.215	-0.12444	0.052216	1.05774	0.387	0.123	-0.2355	0	167	1035	1
2026-02-12	14:41:59.370	9.38	-17.675	9.835	-0.123464	0.044896	1.099952	0.423	0.1245	-0.24	0	167	1035	1
2026-02-12	14:41:59.390	1.89	-8.225	7.595	-0.135176	0.035624	1.122156	0.396	0.12	-0.2055	0	167	1035	1
2026-02-12	14:41:59.410	-4.48	0.28	6.545	-0.139812	0.0305	1.121912	0.4275	0.114	-0.198	0	167	1028	1
2026-02-12	14:41:59.430	-7.945	8.33	6.195	-0.159576	0.049044	1.118984	0.357	0.126	-0.1845	0	167	1028	1
2026-02-12	14:41:59.450	-7.84	14.28	5.495	-0.141764	0.061244	1.144116	0.417	0.114	-0.225	0	167	1028	1
2026-02-12	14:41:59.470	-4.13	18.725	2.45	-0.100772	0.046116	1.180472	0.417	0.126	-0.2385	0	167	1028	1
2026-02-12	14:41:59.490	-0.98	22.715	-2.73	-0.056364	0.02928	1.216828	0.456	0.1335	-0.2595	0	167	1028	1
2026-02-12	14:41:59.510	-1.19	19.635	-7.035	-0.03782	0.023424	1.248304	0.4545	0.1365	-0.2655	0	167	1028	1
2026-02-12	14:41:59.530	-4.515	12.635	-7.84	0.017568	-0.015128	1.280268	0.4335	0.1275	-0.2475	0	167	1028	1
2026-02-12	14:41:59.550	-5.845	-1.715	-3.22	0.07076	-0.016104	1.251232	0.4335	0.132	-0.246	0	167	1028	1
2026-02-12	14:41:59.570	-3.5	-9.905	0.28	0.066612	0.003172	1.17364	0.4365	0.1035	-0.2505	0	167	1028	1
2026-02-12	14:41:59.590	1.47	-6.685	-0.98	0.057828	0.001464	1.053348	0.4515	0.1215	-0.2595	0	167	1028	1
2026-02-12	14:41:59.610	6.51	-6.125	-2.87	0.076616	0.015616	0.957944	0.396	0.1275	-0.198	0	168	1035	1
2026-02-12	14:41:59.630	10.08	0.105	-6.58	0.099552	0.0427	0.86986	0.435	0.12	-0.291	0	168	1035	1
2026-02-12	14:41:59.650	10.605	7.35	-8.19	0.132736	0.066856	0.867664	0.45	0.1215	-0.2355	0	168	1035	1
2026-02-12	14:41:59.670	8.085	11.41	-7.49	0.158112	0.083692	0.890112	0.468	0.06	-0.24	0	168	1035	1
2026-02-12	14:41:59.690	2.275	13.93	-6.51	0.142984	0.093452	0.90402	0.42	0.132	-0.2445	0	168	1035	1
2026-02-12	14:41:59.710	-5.705	11.445	-5.6	0.138348	0.079544	0.92232	0.4185	0.123	-0.2325	0	168	1035	1
2026-02-12	14:41:59.730	-12.215	7.595	-5.67	0.113948	0.053192	0.92232	0.423	0.1335	-0.228	0	168	1035	1
2026-02-12	14:41:59.750	-15.68	5.005	-7.245	0.064416	0.03294	0.866932	0.426	0.1275	-0.2415	0	168	1035	1
2026-02-12	14:41:59.770	-16.625	-1.575	-8.89	0.020252	0.019764	0.806176	0.45	0.1005	-0.297	0	168	1035	1
2026-02-12	14:41:59.790	-15.33	-9.17	-9.31	-0.00732	0.020008	0.785924	0.4275	0.1365	-0.2535	0	168	1035	1
2026-02-12	14:41:59.810	-12.04	-15.225	-7.525	-0.01586	0.035136	0.815204	0.4395	0.126	-0.2685	0	170	1038	1
2026-02-12	14:41:59.830	-6.195	-15.295	-4.48	-0.02806	0.04636	0.852292	0.447	0.141	-0.267	0	170	1038	1
2026-02-12	14:41:59.850	0.77	-15.54	-1.575	-0.043432	0.063684	0.892796	0.462	0.033	-0.291	0	170	1038	1
2026-02-12	14:41:59.870	7.63	-14.805	0.525	-0.031964	0.061244	0.961604	0.4185	0.1365	-0.228	0	170	1038	1
2026-02-12	14:41:59.890	12.775	-12.95	1.61	-0.03172	0.074176	0.998692	0.4185	0.1365	-0.228	0	170	1038	1
2026-02-12	14:41:59.910	15.015	-12.145	2.8	-0.026108	0.099308	1.057008	0.4185	0.1365	-0.228	0	170	1038	1
2026-02-12	14:41:59.930	14.77	-8.33	4.62	-0.00976	0.113216	1.09556	0.4185	0.1365	-0.228	0	170	1038	1
2026-02-12	14:41:59.950	12.635	-3.15	6.965	-0.009516	0.122	1.119228	0.447	0.1305	-0.2565	0	170	1038	1
2026-02-12	14:41:59.970	9.59	4.55	8.61	-0.0305	0.114192	1.123376	0.4785	0.126	-0.297	0	170	1038	1
2026-02-12	14:41:59.990	6.265	13.475	9.1	-0.051484	0.088328	1.134356	0.426	0.039	-0.3135	0	170	1038	1
2026-02-12	14:42:00.010	3.08	21.98	8.295	-0.03782	0.060756	1.171688	0.3825	-0.03	-0.309	0	171	1031	1
2026-02-12	14:42:00.030	0.42	30.94	7.455	-0.016592	0.05612	1.19682	0.3975	-0.0015	-0.2955	0	171	1031	1
2026-02-12	14:42:00.050	-2.45	32.585	8.05	-0.019276	0.066124	1.178032	0.402	0.027	-0.279	0	171	1031	1
2026-02-12	14:42:00.070	-3.675	26.915	9.835	-0.060268	0.077348	1.147288	0.441	0.063	-0.267	0	171	1031	1
2026-02-12	14:42:00.090	-2.485	21.56	8.4	-0.11956	0.077836	1.14192	0.474	0.108	-0.2565	0	171	1031	1
2026-02-12	14:42:00.110	-0.14	4.2	7.525	-0.10492	0.075396	1.183156	0.4725	0.1365	-0.2565	0	171	1031	1
2026-02-12	14:42:00.130	3.465	-11.655	4.935	0.011224	0.0305	1.24318	0.4725	0.135	-0.276	0	171	1031	1
2026-02-12	14:42:00.150	8.96	-20.44	6.44	0.137128	-0.02684	1.277096	0.4575	0.1365	-0.267	0	171	1031	1
2026-02-12	14:42:00.170	15.785	-16.52	6.545	0.198616	-0.049776	1.114836	0.4425	0.1335	-0.2565	0	171	1031	1
2026-02-12	14:42:00.190	18.83	1.82	-0.14	0.164212	-0.048556	0.784948	0.432	0.0885	-0.2625	0	171	1031	1
2026-02-12	14:42:00.210	20.58	-14.035	-5.32	0.124196	-0.049044	0.715652	0.429	0.0855	-0.2445	0	171	1038	1
2026-02-12	14:42:00.230	23.24	-19.04	-10.395	0.423828	-0.057828	0.803492	0.4545	0.126	-0.2415	0	171	1038	1
2026-02-12	14:42:00.250	17.5	-2.345	-13.965	0.253272	-0.036112	0.971364	0.471	0.12	-0.2535	0	171	1038	1
2026-02-12	14:42:00.270	19.005	-1.225	-12.11	0.210084	-0.033428	0.99308	0.4545	0.123	-0.264	0	171	1038	1
2026-02-12	14:42:00.290	11.13	-1.19	-6.195	0.111264	-0.010248	0.97844	0.4605	0.1245	-0.2775	0	171	1038	1
2026-02-12	14:42:00.310	1.155	-8.995	-0.63	0.036112	0.010492	0.958188	0.4785	0.1185	-0.2775	0	171	1038	1
2026-02-12	14:42:00.330	-5.775	-15.155	4.305	-0.019032	0.020008	0.95404	0.4785	0.1185	-0.2775	0	171	1038	1
2026-02-12	14:42:00.350	-10.185	-14.98	6.23	-0.0549	0.015372	0.881572	0.3795	0.027	-0.291	0	171	1038	1
2026-02-12	14:42:00.370	-11.725	-20.335	6.86	-0.087108	0.037576	0.903288	0.3795	0.027	-0.291	0	171	1038	1
2026-02-12	14:42:00.390	-9.24	-17.78	5.215	-0.11224	0.045628	0.866688	0.4275	0.132	-0.267	0	171	1038	1
2026-02-12	14:42:00.410	-7.98	-17.64	0.315	-0.117608	0.04148	0.849364	0.4425	0.129	-0.234	0	172	1039	1
2026-02-12	14:42:00.430	-5.88	-18.62	-4.9	-0.074664	0.053436	0.949404	0.4155	0.135	-0.219	0	172	1039	1
