yyyy-MM-dd	HH:mm:ss.fff	gyrX	gyrY	gyrZ	accX	accY	accZ	magX	magY	magZ	Marker	Energy	Angle	Classification
2026-02-12	14:41:31.210	-102.41	79.1	191.345	1.036268	-0.358192	0.267424	0.0135	0.723	0.078	0	280	276	3
2026-02-12	14:41:31.230	-75.915	73.29	181.195	0.888892	-0.245464	0.246928	0.0135	0.723	0.078	0	280	276	3
2026-02-12	14:41:31.250	-75.39	65.345	167.335	0.784216	-0.171776	0.220088	0.0345	0.819	0.045	0	280	276	3
2026-02-12	14:41:31.270	-86.45	56.28	148.61	0.6954	-0.149572	0.206668	0.039	0.8415	0.039	0	280	276	3
2026-02-12	14:41:31.290	-100.66	47.04	126.49	0.638792	-0.158112	0.194956	0.063	0.882	0.0285	0	280	276	3
2026-02-12	14:41:31.310	-108.71	37.94	102.515	0.596092	-0.190564	0.180804	0.069	0.897	0.033	0	280	276	3
2026-02-12	14:41:31.330	-110.04	29.96	75.95	0.550464	-0.188856	0.161528	0.078	0.921	0.0345	0	280	276	3
2026-02-12	14:41:31.350	-105.77	22.295	47.985	0.505568	-0.19154	0.132248	0.093	0.936	0.0465	0	280	276	3
2026-02-12	14:41:31.370	-93.31	13.755	17.955	0.504104	-0.205204	0.10492	0.0915	0.942	0.0465	0	280	276	3
2026-02-12	14:41:31.390	-69.965	5.74	-13.405	0.52094	-0.230336	0.101016	0.093	0.9435	0.06	0	280	276	3
2026-02-12	14:41:31.410	-39.69	-1.68	-44.415	0.522404	-0.235704	0.093208	0.0885	0.9465	0.063	0	297	294	2
2026-02-12	14:41:31.430	5.145	-15.225	-90.685	0.522892	-0.22448	0.089792	0.084	0.9495	0.066	0	297	294	2
2026-02-12	14:41:31.450	29.82	-28.315	-120.505	0.53436	-0.24522	0.089548	0.081	0.9285	0.069	0	297	294	2
2026-02-12	14:41:31.470	60.55	-45.675	-148.225	0.5917	-0.301828	0.174704	0.0705	0.915	0.0705	0	297	294	2
2026-02-12	14:41:31.490	101.57	-61.145	-174.93	0.711016	-0.327692	0.287188	0.0585	0.891	0.066	0	297	294	2
2026-02-12	14:41:31.510	125.125	-71.75	-196.42	0.880108	-0.335988	0.410652	0.051	0.8625	0.0705	0	297	294	2
2026-02-12	14:41:31.530	107.485	-76.545	-207.55	1.05164	-0.43066	0.449936	0.036	0.8295	0.0795	0	297	294	2
2026-02-12	14:41:31.550	87.08	-76.475	-213.115	1.159732	-0.50752	0.445544	0.0225	0.7965	0.0855	0	297	294	2
2026-02-12	14:41:31.570	91.805	-72.555	-216.58	1.2444	-0.587064	0.399916	0.009	0.753	0.0915	0	297	294	2
2026-02-12	14:41:31.590	127.925	-66.465	-216.825	1.325164	-0.631228	0.361852	0.015	0.723	0.1035	0	297	294	2
2026-02-12	14:41:31.610	164.57	-58.695	-209.02	1.331996	-0.630984	0.310124	0.009	0.7065	0.1095	0	311	292	3
2026-02-12	14:41:31.630	213.78	-50.575	-184.345	1.29564	-0.647088	0.336964	0.009	0.666	0.123	0	311	292	3
2026-02-12	14:41:31.650	232.015	-42.14	-143.36	1.222684	-0.568764	0.366732	0.015	0.6435	0.129	0	311	292	3
2026-02-12	14:41:31.670	217.665	-35.7	-101.885	1.163636	-0.584136	0.388448	0.0225	0.597	0.1515	0	311	292	3
2026-02-12	14:41:31.690	219.87	-27.895	-58.87	1.119716	-0.47092	0.492148	0.015	0.5865	0.159	0	311	292	3
2026-02-12	14:41:31.710	208.18	-15.96	-18.2	1.095804	-0.165188	0.626104	0.03	0.5685	0.174	0	311	292	3
2026-02-12	14:41:31.730	149.45	1.785	14.665	1.066036	0.101504	0.683444	0.0225	0.573	0.1845	0	311	292	3
2026-02-12	14:41:31.750	41.125	20.195	38.71	1.030168	0.134688	0.645624	0.033	0.5745	0.186	0	311	292	3
2026-02-12	14:41:31.770	-62.51	35.315	58.625	1.041392	-0.096624	0.587552	0.027	0.576	0.1815	0	311	292	3
2026-02-12	14:41:31.790	-127.82	46.97	79.415	1.06628	-0.265228	0.525576	0.009	0.5925	0.174	0	311	292	3
2026-02-12	14:41:31.810	-159.25	56.315	98.805	1.05652	-0.349408	0.467992	0.0075	0.6	0.165	0	322	306	3
2026-02-12	14:41:31.830	-167.3	60.585	115.08	1.078968	-0.349408	0.420168	0.0105	0.6135	0.1635	0	322	306	3
2026-02-12	14:41:31.850	-169.82	62.3	130.62	1.060424	-0.364292	0.346724	0.015	0.627	0.162	0	322	306	3
2026-02-12	14:41:31.870	-153.58	60.9	141.33	1.052372	-0.441884	0.305488	0.015	0.627	0.162	0	322	306	3
2026-02-12	14:41:31.890	-117.495	57.785	146.16	1.089704	-0.43676	0.300364	0.006	0.6735	0.1245	0	322	306	3
2026-02-12	14:41:31.910	-82.32	56.105	147.84	1.085068	-0.388448	0.286944	0.006	0.6945	0.105	0	322	306	3
2026-02-12	14:41:31.930	-54.705	56.595	146.3	1.019676	-0.33428	0.270108	0.0045	0.7245	0.105	0	322	306	3
2026-02-12	14:41:31.950	-32.305	54.18	141.925	0.96502	-0.277184	0.267424	0.012	0.753	0.093	0	322	306	3
2026-02-12	14:41:31.970	-17.29	51.555	133.28	0.932568	-0.215208	0.267668	0.009	0.774	0.093	0	322	306	3
2026-02-12	14:41:31.990	-13.545	48.965	121.45	0.874008	-0.158356	0.240828	0.027	0.8025	0.078	0	322	306	3
2026-02-12	14:41:32.010	-20.44	42.525	103.11	0.790072	-0.128344	0.212524	0.027	0.8025	0.078	0	328	327	3
2026-02-12	14:41:32.030	-24.01	36.785	89.95	0.76128	-0.129564	0.204472	0.0285	0.8175	0.0735	0	328	327	3
2026-02-12	14:41:32.050	-26.845	28.595	70.56	0.743468	-0.135176	0.189588	0.036	0.843	0.066	0	328	327	3
2026-02-12	14:41:32.070	-31.115	15.225	40.215	0.699304	-0.15006	0.15738	0.0435	0.8535	0.0615	0	328	327	3
2026-02-12	14:41:32.090	-28.245	4.865	19.355	0.679052	-0.174948	0.161528	0.0435	0.867	0.0615	0	328	327	3
2026-02-12	14:41:32.110	-15.54	-4.48	-2.415	0.669292	-0.195444	0.19764	0.048	0.876	0.054	0	328	327	3
2026-02-12	14:41:32.130	1.435	-12.145	-25.025	0.675148	-0.18178	0.230336	0.051	0.867	0.0615	0	328	327	3
2026-02-12	14:41:32.150	14.875	-18.9	-47.88	0.665144	-0.1708	0.216916	0.039	0.873	0.0615	0	328	327	3
2026-02-12	14:41:32.170	21.77	-27.23	-70.7	0.674172	-0.175924	0.20496	0.036	0.87	0.0585	0	328	327	3
2026-02-12	14:41:32.190	25.655	-36.715	-93.1	0.707112	-0.201788	0.207644	0.039	0.846	0.0615	0	328	327	3
2026-02-12	14:41:30.210	237.65	-26.145	-110.25	1.204384	-0.941352	0.456036	0.0135	0.636	0.117	0	201	284	3
2026-02-12	14:41:30.230	239.995	-16.17	-61.215	1.136552	-0.608292	0.457256	0.0135	0.612	0.126	0	201	284	3
2026-02-12	14:41:30.250	177.73	-5.39	-18.2	1.048224	-0.35502	0.437248	0.021	0.6075	0.1305	0	201	284	3
2026-02-12	14:41:30.270	100.345	4.235	13.685	0.993568	-0.389668	0.417972	0.0075	0.6	0.1335	0	201	284	3
2026-02-12	14:41:30.290	38.43	11.025	42.035	0.996252	-0.401624	0.404064	0.009	0.5985	0.1365	0	201	284	3
2026-02-12	14:41:30.310	-23.415	18.34	67.445	1.029924	-0.467016	0.364536	0.012	0.6075	0.1425	0	201	284	3
2026-02-12	14:41:30.330	-66.99	25.55	91.63	1.08946	-0.563884	0.346724	0.0105	0.6255	0.141	0	201	284	3
2026-02-12	14:41:30.350	-94.92	32.795	123.2	1.151436	-0.597556	0.335012	0.0045	0.63	0.135	0	201	284	3
2026-02-12	14:41:30.370	-105.945	39.27	153.545	1.255624	-0.616832	0.370636	0	0.636	0.129	0	201	284	3
2026-02-12	14:41:30.390	-110.81	47.985	176.015	1.272216	-0.602436	0.386252	0.0075	0.6765	0.123	0	201	284	3
2026-02-12	14:41:30.410	-112.07	54.285	195.23	1.302228	-0.598044	0.343796	0.0075	0.702	0.1125	0	212	271	3
2026-02-12	14:41:30.430	-108.08	58.59	210.56	1.18584	-0.583892	0.254248	0.009	0.7425	0.1095	0	212	271	3
2026-02-12	14:41:30.450	-94.745	54.95	219.135	1.076528	-0.532652	0.210572	0.009	0.7635	0.108	0	212	271	3
2026-02-12	14:41:30.470	-72.555	47.845	218.715	1.000156	-0.431636	0.227652	0.024	0.7965	0.0945	0	212	271	3
2026-02-12	14:41:30.490	-51.73	43.925	209.16	0.88816	-0.306708	0.22814	0.0255	0.849	0.099	0	212	271	3
2026-02-12	14:41:30.510	-41.405	40.005	191.765	0.748104	-0.182268	0.190564	0.0495	0.876	0.0885	0	212	271	3
2026-02-12	14:41:30.530	-42.14	33.74	168.035	0.631716	-0.161528	0.170312	0.0615	0.909	0.0885	0	212	271	3
2026-02-12	14:41:30.550	-37.765	27.93	139.685	0.596092	-0.219356	0.22204	0.069	0.924	0.087	0	212	271	3
2026-02-12	14:41:30.570	-34.895	26.145	102.2	0.569008	-0.223748	0.205204	0.0765	0.9405	0.0855	0	212	271	3
2026-02-12	14:41:30.590	-49.42	24.15	64.89	0.512888	-0.198616	0.127368	0.0765	0.9405	0.0855	0	212	271	3
2026-02-12	14:41:30.610	-64.085	19.145	32.97	0.502152	-0.195444	0.0854	0.1185	0.975	0.093	0	226	271	3
2026-02-12	14:41:30.630	-60.095	14.595	-1.785	0.527772	-0.2074	0.067588	0.126	0.987	0.093	0	226	271	3
2026-02-12	14:41:30.650	-41.72	12.985	-36.33	0.522404	-0.206668	0.061244	0.12	0.9885	0.1005	0	226	271	3
2026-02-12	14:41:30.670	-31.115	10.78	-66.745	0.544608	-0.216428	0.058072	0.123	0.9765	0.1065	0	226	271	3
2026-02-12	14:41:30.690	-33.6	7.98	-94.185	0.554856	-0.26962	0.049288	0.1065	0.984	0.0975	0	226	271	3
2026-02-12	14:41:30.710	-29.47	3.955	-121.8	0.587552	-0.316224	0.086132	0.102	0.972	0.102	0	226	271	3
2026-02-12	14:41:30.730	-17.71	1.96	-148.995	0.627324	-0.345748	0.13176	0.081	0.9465	0.1095	0	226	271	3
2026-02-12	14:41:30.750	-1.225	1.4	-175.84	0.679052	-0.354776	0.146644	0.078	0.9285	0.111	0	226	271	3
2026-02-12	14:41:30.770	21.245	-0.49	-202.895	0.771284	-0.374296	0.144204	0.072	0.9165	0.108	0	226	271	3
2026-02-12	14:41:30.790	65.03	-7.21	-241.815	0.972828	-0.468236	0.171288	0.0675	0.9045	0.105	0	226	271	3
2026-02-12	14:41:30.810	98.98	-13.755	-261.415	1.128744	-0.582428	0.241804	0.0315	0.828	0.102	0	242	258	3
2026-02-12	14:41:30.830	124.845	-18.865	-269.535	1.289296	-0.770796	0.36844	0.0225	0.7815	0.093	0	242	258	3
2026-02-12	14:41:30.850	145.425	-21.84	-260.365	1.420812	-0.930128	0.42822	0.0165	0.7395	0.105	0	242	258	3
2026-02-12	14:41:30.870	167.44	-21.875	-238.21	1.444724	-1.022116	0.398696	0.012	0.702	0.096	0	242	258	3
2026-02-12	14:41:30.890	226.975	-22.75	-208.11	1.37372	-1.025776	0.31476	0.006	0.6525	0.096	0	242	258	3
2026-02-12	14:41:30.910	304.85	-25.585	-167.685	1.29198	-0.96868	0.283528	0.0165	0.627	0.105	0	242	258	3
2026-02-12	14:41:30.930	385.525	-24.43	-118.93	1.193648	-0.799344	0.2684	0.0165	0.594	0.126	0	242	258	3
2026-02-12	14:41:30.950	436.835	-19.775	-69.615	1.100196	-0.4575	0.303292	0.0195	0.5715	0.132	0	242	258	3
2026-02-12	14:41:30.970	411.95	-11.13	-29.435	1.037	-0.088572	0.38308	0.0225	0.567	0.1425	0	242	258	3
2026-02-12	14:41:30.990	307.93	-0.35	-1.12	1.021384	0.020008	0.410652	0.0285	0.5625	0.1635	0	242	258	3
2026-02-12	14:41:31.010	161.84	18.69	22.96	1.11996	0.216184	0.633424	0.03	0.5625	0.1755	0	260	252	3
2026-02-12	14:41:31.030	48.23	40.495	32.305	1.035048	0.300364	0.628788	0.021	0.5805	0.189	0	260	252	3
2026-02-12	14:41:31.050	-87.465	59.29	46.795	1.000888	0.120536	0.591944	0.0165	0.5955	0.1815	0	260	252	3
2026-02-12	14:41:31.070	-202.125	73.22	67.62	1.039196	-0.081008	0.538752	0.018	0.591	0.18	0	260	252	3
2026-02-12	14:41:31.090	-256.095	83.755	93.59	1.128988	-0.338672	0.55388	0.0225	0.5985	0.1575	0	260	252	3
2026-02-12	14:41:31.110	-254.275	91.875	121.24	1.173884	-0.438712	0.528992	0.018	0.612	0.1335	0	260	252	3
2026-02-12	14:41:31.130	-238.315	97.685	147.105	1.142896	-0.456036	0.453108	0.009	0.63	0.12	0	260	252	3
2026-02-12	14:41:31.150	-207.83	95.9	168.455	1.140944	-0.496296	0.403332	0.0045	0.657	0.0945	0	260	252	3
2026-02-12	14:41:31.170	-172.305	90.86	184.905	1.160708	-0.485316	0.363804	0.009	0.6885	0.084	0	260	252	3
2026-02-12	14:41:31.190	-138.425	86.275	192.92	1.120936	-0.440664	0.297436	0.0105	0.705	0.081	0	260	252	3
2026-02-12	14:41:31.210	-102.41	79.1	191.345	1.036268	-0.358192	0.267424	0.0135	0.723	0.078	0	280	276	3
2026-02-12	14:41:31.230	-75.915	73.29	181.195	0.888892	-0.245464	0.246928	0.0135	0.723	0.078	0	280	276	3
2026-02-12	14:41:31.250	-75.39	65.345	167.335	0.784216	-0.171776	0.220088	0.0345	0.819	0.045	0	280	276	3
2026-02-12	14:41:31.270	-86.45	56.28	148.61	0.6954	-0.149572	0.206668	0.039	0.8415	0.039	0	280	276	3
2026-02-12	14:41:31.290	-100.66	47.04	126.49	0.638792	-0.158112	0.194956	0.063	0.882	0.0285	0	280	276	3
2026-02-12	14:41:31.310	-108.71	37.94	102.515	0.596092	-0.190564	0.180804	0.069	0.897	0.033	0	280	276	3
2026-02-12	14:41:31.330	-110.04	29.96	75.95	0.550464	-0.188856	0.161528	0.078	0.921	0.0345	0	280	276	3
2026-02-12	14:41:31.350	-105.77	22.295	47.985	0.505568	-0.19154	0.132248	0.093	0.936	0.0465	0	280	276	3
2026-02-12	14:41:31.370	-93.31	13.755	17.955	0.504104	-0.205204	0.10492	0.0915	0.942	0.0465	0	280	276	3
2026-02-12	14:41:31.390	-69.965	5.74	-13.405	0.52094	-0.230336	0.101016	0.093	0.9435	0.06	0	280	276	3
2026-02-12	14:41:31.410	-39.69	-1.68	-44.415	0.522404	-0.235704	0.093208	0.0885	0.9465	0.063	0	297	294	2
2026-02-12	14:41:31.430	5.145	-15.225	-90.685	0.522892	-0.22448	0.089792	0.084	0.9495	0.066	0	297	294	2
2026-02-12	14:41:31.450	29.82	-28.315	-120.505	0.53436	-0.24522	0.089548	0.081	0.9285	0.069	0	297	294	2
2026-02-12	14:41:31.470	60.55	-45.675	-148.225	0.5917	-0.301828	0.174704	0.0705	0.915	0.0705	0	297	294	2
2026-02-12	14:41:31.490	101.57	-61.145	-174.93	0.711016	-0.327692	0.287188	0.0585	0.891	0.066	0	297	294	2
2026-02-12	14:41:31.510	125.125	-71.75	-196.42	0.880108	-0.335988	0.410652	0.051	0.8625	0.0705	0	297	294	2
2026-02-12	14:41:31.530	107.485	-76.545	-207.55	1.05164	-0.43066	0.449936	0.036	0.8295	0.0795	0	297	294	2
2026-02-12	14:41:31.550	87.08	-76.475	-213.115	1.159732	-0.50752	0.445544	0.0225	0.7965	0.0855	0	297	294	2
2026-02-12	14:41:31.570	91.805	-72.555	-216.58	1.2444	-0.587064	0.399916	0.009	0.753	0.0915	0	297	294	2
2026-02-12	14:41:31.590	127.925	-66.465	-216.825	1.325164	-0.631228	0.361852	0.015	0.723	0.1035	0	297	294	2
2026-02-12	14:41:31.610	164.57	-58.695	-209.02	1.331996	-0.630984	0.310124	0.009	0.7065	0.1095	0	311	292	3
2026-02-12	14:41:31.630	213.78	-50.575	-184.345	1.29564	-0.647088	0.336964	0.009	0.666	0.123	0	311	292	3
2026-02-12	14:41:31.650	232.015	-42.14	-143.36	1.222684	-0.568764	0.366732	0.015	0.6435	0.129	0	311	292	3
2026-02-12	14:41:31.670	217.665	-35.7	-101.885	1.163636	-0.584136	0.388448	0.0225	0.597	0.1515	0	311	292	3
2026-02-12	14:41:31.690	219.87	-27.895	-58.87	1.119716	-0.47092	0.492148	0.015	0.5865	0.159	0	311	292	3
2026-02-12	14:41:31.710	208.18	-15.96	-18.2	1.095804	-0.165188	0.626104	0.03	0.5685	0.174	0	311	292	3
2026-02-12	14:41:31.730	149.45	1.785	14.665	1.066036	0.101504	0.683444	0.0225	0.573	0.1845	0	311	292	3
2026-02-12	14:41:31.750	41.125	20.195	38.71	1.030168	0.134688	0.645624	0.033	0.5745	0.186	0	311	292	3
2026-02-12	14:41:31.770	-62.51	35.315	58.625	1.041392	-0.096624	0.587552	0.027	0.576	0.1815	0	311	292	3
2026-02-12	14:41:31.790	-127.82	46.97	79.415	1.06628	-0.265228	0.525576	0.009	0.5925	0.174	0	311	292	3
2026-02-12	14:41:31.810	-159.25	56.315	98.805	1.05652	-0.349408	0.467992	0.0075	0.6	0.165	0	322	306	3
2026-02-12	14:41:31.830	-167.3	60.585	115.08	1.078968	-0.349408	0.420168	0.0105	0.6135	0.1635	0	322	306	3
2026-02-12	14:41:31.850	-169.82	62.3	130.62	1.060424	-0.364292	0.346724	0.015	0.627	0.162	0	322	306	3
2026-02-12	14:41:31.870	-153.58	60.9	141.33	1.052372	-0.441884	0.305488	0.015	0.627	0.162	0	322	306	3
2026-02-12	14:41:31.890	-117.495	57.785	146.16	1.089704	-0.43676	0.300364	0.006	0.6735	0.1245	0	322	306	3
2026-02-12	14:41:31.910	-82.32	56.105	147.84	1.085068	-0.388448	0.286944	0.006	0.6945	0.105	0	322	306	3
2026-02-12	14:41:31.930	-54.705	56.595	146.3	1.019676	-0.33428	0.270108	0.0045	0.7245	0.105	0	322	306	3
2026-02-12	14:41:31.950	-32.305	54.18	141.925	0.96502	-0.277184	0.267424	0.012	0.753	0.093	0	322	306	3
2026-02-12	14:41:31.970	-17.29	51.555	133.28	0.932568	-0.215208	0.267668	0.009	0.774	0.093	0	322	306	3
2026-02-12	14:41:31.990	-13.545	48.965	121.45	0.874008	-0.158356	0.240828	0.027	0.8025	0.078	0	322	306	3
2026-02-12	14:41:32.010	-20.44	42.525	103.11	0.790072	-0.128344	0.212524	0.027	0.8025	0.078	0	328	327	3
2026-02-12	14:41:32.030	-24.01	36.785	89.95	0.76128	-0.129564	0.204472	0.0285	0.8175	0.0735	0	328	327	3
2026-02-12	14:41:32.050	-26.845	28.595	70.56	0.743468	-0.135176	0.189588	0.036	0.843	0.066	0	328	327	3
2026-02-12	14:41:32.070	-31.115	15.225	40.215	0.699304	-0.15006	0.15738	0.0435	0.8535	0.0615	0	328	327	3
2026-02-12	14:41:32.090	-28.245	4.865	19.355	0.679052	-0.174948	0.161528	0.0435	0.867	0.0615	0	328	327	3
2026-02-12	14:41:32.110	-15.54	-4.48	-2.415	0.669292	-0.195444	0.19764	0.048	0.876	0.054	0	328	327	3
2026-02-12	14:41:32.130	1.435	-12.145	-25.025	0.675148	-0.18178	0.230336	0.051	0.867	0.0615	0	328	327	3
2026-02-12	14:41:32.150	14.875	-18.9	-47.88	0.665144	-0.1708	0.216916	0.039	0.873	0.0615	0	328	327	3
2026-02-12	14:41:32.170	21.77	-27.23	-70.7	0.674172	-0.175924	0.20496	0.036	0.87	0.0585	0	328	327	3
2026-02-12	14:41:32.190	25.655	-36.715	-93.1	0.707112	-0.201788	0.207644	0.039	0.846	0.0615	0	328	327	3
2026-02-12	14:41:30.210	237.65	-26.145	-110.25	1.204384	-0.941352	0.456036	0.0135	0.636	0.117	0	201	284	3
2026-02-12	14:41:30.230	239.995	-16.17	-61.215	1.136552	-0.608292	0.457256	0.0135	0.612	0.126	0	201	284	3
2026-02-12	14:41:30.250	177.73	-5.39	-18.2	1.048224	-0.35502	0.437248	0.021	0.6075	0.1305	0	201	284	3
2026-02-12	14:41:30.270	100.345	4.235	13.685	0.993568	-0.389668	0.417972	0.0075	0.6	0.1335	0	201	284	3
2026-02-12	14:41:30.290	38.43	11.025	42.035	0.996252	-0.401624	0.404064	0.009	0.5985	0.1365	0	201	284	3
2026-02-12	14:41:30.310	-23.415	18.34	67.445	1.029924	-0.467016	0.364536	0.012	0.6075	0.1425	0	201	284	3
2026-02-12	14:41:30.330	-66.99	25.55	91.63	1.08946	-0.563884	0.346724	0.0105	0.6255	0.141	0	201	284	3
2026-02-12	14:41:30.350	-94.92	32.795	123.2	1.151436	-0.597556	0.335012	0.0045	0.63	0.135	0	201	284	3
2026-02-12	14:41:30.370	-105.945	39.27	153.545	1.255624	-0.616832	0.370636	0	0.636	0.129	0	201	284	3
2026-02-12	14:41:30.390	-110.81	47.985	176.015	1.272216	-0.602436	0.386252	0.0075	0.6765	0.123	0	201	284	3
2026-02-12	14:41:30.410	-112.07	54.285	195.23	1.302228	-0.598044	0.343796	0.0075	0.702	0.1125	0	212	271	3
2026-02-12	14:41:30.430	-108.08	58.59	210.56	1.18584	-0.583892	0.254248	0.009	0.7425	0.1095	0	212	271	3
2026-02-12	14:41:30.450	-94.745	54.95	219.135	1.076528	-0.532652	0.210572	0.009	0.7635	0.108	0	212	271	3
2026-02-12	14:41:30.470	-72.555	47.845	218.715	1.000156	-0.431636	0.227652	0.024	0.7965	0.0945	0	212	271	3
2026-02-12	14:41:30.490	-51.73	43.925	209.16	0.88816	-0.306708	0.22814	0.0255	0.849	0.099	0	212	271	3
2026-02-12	14:41:30.510	-41.405	40.005	191.765	0.748104	-0.182268	0.190564	0.0495	0.876	0.0885	0	212	271	3
2026-02-12	14:41:30.530	-42.14	33.74	168.035	0.631716	-0.161528	0.170312	0.0615	0.909	0.0885	0	212	271	3
2026-02-12	14:41:30.550	-37.765	27.93	139.685	0.596092	-0.219356	0.22204	0.069	0.924	0.087	0	212	271	3
2026-02-12	14:41:30.570	-34.895	26.145	102.2	0.569008	-0.223748	0.205204	0.0765	0.9405	0.0855	0	212	271	3
2026-02-12	14:41:30.590	-49.42	24.15	64.89	0.512888	-0.198616	0.127368	0.0765	0.9405	0.0855	0	212	271	3
2026-02-12	14:41:30.610	-64.085	19.145	32.97	0.502152	-0.195444	0.0854	0.1185	0.975	0.093	0	226	271	3
2026-02-12	14:41:30.630	-60.095	14.595	-1.785	0.527772	-0.2074	0.067588	0.126	0.987	0.093	0	226	271	3
2026-02-12	14:41:30.650	-41.72	12.985	-36.33	0.522404	-0.206668	0.061244	0.12	0.9885	0.1005	0	226	271	3
2026-02-12	14:41:30.670	-31.115	10.78	-66.745	0.544608	-0.216428	0.058072	0.123	0.9765	0.1065	0	226	271	3
2026-02-12	14:41:30.690	-33.6	7.98	-94.185	0.554856	-0.26962	0.049288	0.1065	0.984	0.0975	0	226	271	3
2026-02-12	14:41:30.710	-29.47	3.955	-121.8	0.587552	-0.316224	0.086132	0.102	0.972	0.102	0	226	271	3
2026-02-12	14:41:30.730	-17.71	1.96	-148.995	0.627324	-0.345748	0.13176	0.081	0.9465	0.1095	0	226	271	3
2026-02-12	14:41:30.750	-1.225	1.4	-175.84	0.679052	-0.354776	0.146644	0.078	0.9285	0.111	0	226	271	3
2026-02-12	14:41:30.770	21.245	-0.49	-202.895	0.771284	-0.374296	0.144204	0.072	0.9165	0.108	0	226	271	3
2026-02-12	14:41:30.790	65.03	-7.21	-241.815	0.972828	-0.468236	0.171288	0.0675	0.9045	0.105	0	226	271	3
2026-02-12	14:41:40.810	-80.745	84.945	43.75	0.949404	0.088084	0.078324	0.0195	0.774	0.2865	0	336	96	3
2026-02-12	14:41:40.830	-142.03	88.13	42.105	0.913292	-0.200812	-0.004392	0.015	0.7845	0.2715	0	336	96	3
2026-02-12	14:41:40.850	-183.26	88.375	49.49	0.888892	-0.526308	-0.014152	0.0135	0.786	0.2595	0	336	96	3
2026-02-12	14:41:40.870	-186.585	87.815	63.35	0.8235	-0.750544	-0.01586	0.012	0.786	0.2475	0	336	96	3
2026-02-12	14:41:40.890	-157.15	85.4	77.035	0.715408	-0.833748	-0.05856	0.006	0.7905	0.24	0	336	96	3
2026-02-12	14:41:40.910	-109.27	80.92	84.665	0.618296	-0.773724	-0.07686	0.0015	0.792	0.2355	0	336	96	3
2026-02-12	14:41:40.930	-76.545	76.51	85.995	0.558028	-0.605364	-0.060268	0.012	0.7995	0.222	0	336	96	3
2026-02-12	14:41:40.950	-58.765	73.325	78.82	0.497272	-0.484828	0.035624	0.0135	0.8025	0.2115	0	336	96	3
2026-02-12	14:41:40.970	-56.455	72.38	64.855	0.432612	-0.408456	0.128344	0.015	0.822	0.1995	0	336	96	3
2026-02-12	14:41:40.990	-70.735	71.96	42.49	0.361364	-0.424316	0.15372	0.021	0.834	0.204	0	336	96	3
2026-02-12	14:41:41.010	-87.57	69.37	21.525	0.305732	-0.551928	0.09076799	0.021	0.84	0.1965	0	347	91	3
2026-02-12	14:41:41.030	-94.955	63.35	9.905	0.274744	-0.74542	0.049288	0.0195	0.8445	0.1845	0	347	91	3
2026-02-12	14:41:41.050	-87.15	52.43	0.49	0.269864	-0.849608	0.014396	0.0195	0.8385	0.1785	0	347	91	3
2026-02-12	14:41:41.070	-75.67	36.89	-5.95	0.306708	-0.982344	-0.039284	0.0195	0.8385	0.1725	0	347	91	3
2026-02-12	14:41:41.090	-55.615	17.92	-11.55	0.433344	-1.038952	0.042456	0.0195	0.8355	0.1725	0	347	91	3
2026-02-12	14:41:41.110	-39.13	1.085	-14.455	0.64538	-1.07482	0.185196	0.0225	0.8355	0.174	0	347	91	3
2026-02-12	14:41:41.130	-40.985	-9.835	-6.615	0.701256	-1.170712	0.005856	0.024	0.84	0.174	0	347	91	3
2026-02-12	14:41:41.150	-40.04	-19.495	16.205	0.583648	-1.0614	-0.283772	0.015	0.8265	0.171	0	347	91	3
2026-02-12	14:41:41.170	-51.59	-34.58	26.53	0.488	-1.23342	-0.382104	0.015	0.843	0.18	0	347	91	3
2026-02-12	14:41:41.190	-45.71	-45.08	38.43	0.448228	-1.345172	-0.22814	0.0195	0.8295	0.1785	0	347	91	3
2026-02-12	14:41:41.210	-9.555	-59.815	31.325	0.606096	-1.346636	-0.12322	0.018	0.8415	0.189	0	354	73	3
2026-02-12	14:41:41.230	2.275	-72.695	19.425	0.935008	-1.479372	-0.022448	0.024	0.8415	0.198	0	354	73	3
2026-02-12	14:41:41.250	4.865	-80.08	11.48	1.146312	-1.490352	-0.20862	0.0315	0.8475	0.2145	0	354	73	3
2026-02-12	14:41:41.270	54.985	-78.505	24.255	0.939888	-0.875472	-0.368684	0.0345	0.852	0.2295	0	354	73	3
2026-02-12	14:41:41.290	124.215	-89.495	14.56	1.103612	-0.388448	-0.172996	0.039	0.858	0.2445	0	354	73	3
2026-02-12	14:41:41.310	156.275	-88.795	3.78	0.959408	-0.0976	0.066612	0.042	0.867	0.2475	0	354	73	3
2026-02-12	14:41:41.330	153.93	-85.75	-3.465	0.97478	0.027816	0.159332	0.042	0.8685	0.2445	0	354	73	3
2026-02-12	14:41:41.350	111.51	-72.45	-21.315	0.858392	0.145424	0.128832	0.0495	0.8745	0.252	0	354	73	3
2026-02-12	14:41:41.370	57.015	-62.86	-43.82	0.82838	0.08662	0.099308	0.0585	0.882	0.249	0	354	73	3
2026-02-12	14:41:41.390	6.965	-57.47	-64.225	0.791292	-0.113704	0.043676	0.0585	0.8805	0.2595	0	354	73	3
2026-02-12	14:41:41.410	-23.415	-59.01	-75.11	0.785192	-0.586332	-0.063928	0.048	0.8745	0.261	0	366	64	3
2026-02-12	14:41:41.430	29.4	-69.895	-74.935	0.665144	-1.01504	-0.261812	0.048	0.8745	0.261	0	366	64	3
2026-02-12	14:41:41.450	67.27	-78.82	-66.115	0.640744	-1.058716	-0.25376	0.048	0.858	0.273	0	366	64	3
2026-02-12	14:41:41.470	93.8	-81.97	-57.33	0.611708	-0.92476	-0.119072	0.048	0.8385	0.294	0	366	64	3
2026-02-12	14:41:41.490	116.935	-82.18	-56.455	0.609756	-0.483364	-0.009272	0.0495	0.8295	0.3045	0	366	64	3
2026-02-12	14:41:41.510	105.945	-79.485	-61.985	0.541436	-0.240828	-0.007076	0.054	0.8265	0.3105	0	366	64	3
2026-02-12	14:41:41.530	60.62	-73.71	-66.535	0.530944	-0.266692	-0.071492	0.051	0.8265	0.318	0	366	64	3
2026-02-12	14:41:41.550	12.67	-72.345	-69.23	0.645868	-0.496784	-0.153964	0.0495	0.8235	0.324	0	366	64	3
2026-02-12	14:41:41.570	-7.245	-69.895	-69.79	0.698816	-0.717848	-0.195688	0.0495	0.819	0.3285	0	366	64	3
2026-02-12	14:41:41.590	14.07	-64.47	-68.18	0.755912	-0.833992	-0.189832	0.0555	0.807	0.3405	0	366	64	3
2026-02-12	14:41:41.610	49.035	-54.81	-67.06	0.773724	-0.737368	-0.146888	0.0585	0.7965	0.3495	0	380	65	3
2026-02-12	14:41:41.630	36.4	-45.15	-66.255	0.714676	-0.591456	-0.11834	0.0585	0.7935	0.3555	0	380	65	3
2026-02-12	14:41:41.650	24.255	-34.055	-70.63	0.691252	-0.60024	-0.205692	0.0645	0.7815	0.3585	0	380	65	3
2026-02-12	14:41:41.670	33.635	-29.225	-74.025	0.691496	-0.587308	-0.30012	0.066	0.7695	0.3675	0	380	65	3
2026-02-12	14:41:41.690	43.295	-27.02	-74.515	0.72224	-0.579256	-0.325984	0.0645	0.762	0.372	0	380	65	3
2026-02-12	14:41:41.710	53.48	-25.34	-73.57	0.837896	-0.570472	-0.284992	0.0675	0.753	0.369	0	380	65	3
2026-02-12	14:41:41.730	55.16	-19.95	-70.98	0.965752	-0.538752	-0.273768	0.0705	0.7455	0.3705	0	380	65	3
2026-02-12	14:41:41.750	46.095	-11.235	-65.8	1.01016	-0.513132	-0.281576	0.0705	0.7395	0.375	0	380	65	3
2026-02-12	14:41:41.770	28.945	-2.555	-58.065	1.07848	-0.52826	-0.254004	0.0675	0.738	0.3735	0	380	65	3
2026-02-12	14:41:41.790	5.355	8.225	-46.69	1.191208	-0.592676	-0.224724	0.0675	0.7335	0.3765	0	380	65	3
2026-02-12	14:41:41.810	-3.395	21.735	-36.295	1.227808	-0.537532	-0.250344	0.066	0.7275	0.366	0	389	86	3
2026-02-12	14:41:41.830	-5.53	32.41	-28.455	1.188036	-0.422852	-0.285724	0.063	0.7185	0.3645	0	389	86	3
2026-02-12	14:41:41.850	-30.835	39.515	-14.56	1.12972	-0.423584	-0.331352	0.0585	0.717	0.366	0	389	86	3
2026-02-12	14:41:41.870	-41.23	39.55	-4.34	1.047736	-0.3538	-0.286212	0.057	0.7095	0.357	0	389	86	3
2026-02-12	14:41:41.890	-51.1	36.12	9.59	0.952088	-0.309148	-0.18788	0.057	0.7005	0.3465	0	389	86	3
2026-02-12	14:41:41.910	-46.235	30.415	23.835	1.006744	-0.286456	-0.02562	0.0555	0.7035	0.342	0	389	86	3
2026-02-12	14:41:41.930	-35.805	30.975	39.445	1.151924	-0.276696	0.137128	0.0525	0.7035	0.3345	0	389	86	3
2026-02-12	14:41:41.950	-24.08	35.84	55.44	1.189988	-0.210572	0.152988	0.0465	0.7005	0.3255	0	389	86	3
2026-02-12	14:41:41.970	-15.085	37.135	64.96	1.138504	-0.0793	0.036844	0.0405	0.702	0.321	0	389	86	3
2026-02-12	14:41:41.990	-23.31	35.91	66.5	1.08336	-0.143716	-0.092476	0.039	0.714	0.3255	0	389	86	3
2026-02-12	14:41:42.010	-42.035	30.52	73.78	0.984052	-0.468968	-0.209596	0.039	0.714	0.3255	0	392	111	3
2026-02-12	14:41:42.030	-39.97	26.635	81.69	0.917196	-0.565836	-0.207888	0.045	0.7335	0.3075	0	392	111	3
2026-02-12	14:41:42.050	-24.115	22.89	90.965	0.783972	-0.557784	-0.14152	0.0405	0.7335	0.3075	0	392	111	3
2026-02-12	14:41:42.070	7.91	21.315	96.88	0.648796	-0.513376	-0.08052	0.0405	0.7335	0.3075	0	392	111	3
2026-02-12	14:41:42.090	21.945	22.925	93.835	0.590968	-0.466284	-0.054168	0.042	0.7545	0.303	0	392	111	3
2026-02-12	14:41:42.110	28.98	24.78	84.91	0.554612	-0.309148	-0.021716	0.048	0.789	0.2985	0	392	111	3
2026-02-12	14:41:42.130	18.305	27.3	72.8	0.542168	-0.245952	-0.008784	0.0525	0.804	0.294	0	392	111	3
2026-02-12	14:41:42.150	0.665	30.03	58.415	0.51606	-0.24522	-0.02074	0.0525	0.813	0.2865	0	392	111	3
2026-02-12	14:41:42.170	-14.945	30.45	43.26	0.504592	-0.25864	-0.0366	0.054	0.822	0.2775	0	392	111	3
2026-02-12	14:41:42.190	-34.37	29.61	28.945	0.528016	-0.3416	-0.035624	0.0555	0.8265	0.273	0	392	111	3
2026-02-12	14:41:42.210	-47.04	28.63	16.24	0.52338	-0.463844	0.009516	0.057	0.8295	0.273	0	391	119	3
2026-02-12	14:41:42.230	-48.335	27.93	6.195	0.524844	-0.579988	0.074664	0.051	0.831	0.2715	0	391	119	3
2026-02-12	14:41:42.250	-42.035	25.375	-0.91	0.561444	-0.732976	0.068808	0.0555	0.8235	0.2775	0	391	119	3
2026-02-12	14:41:42.270	-23.03	19.775	-3.43	0.624396	-0.944768	0.068076	0.0525	0.822	0.2655	0	391	119	3
2026-02-12	14:41:42.290	-5.74	9.94	-0.035	0.789584	-1.131184	0.069296	0.0525	0.8235	0.264	0	391	119	3
2026-02-12	14:41:42.310	-6.16	0.84	8.89	0.876692	-1.1712	-0.02196	0.048	0.8235	0.2655	0	391	119	3
2026-02-12	14:41:42.330	-1.505	-6.965	22.925	0.869616	-1.169248	-0.0305	0.048	0.8265	0.2685	0	391	119	3
2026-02-12	14:41:42.350	-8.68	-11.375	33.565	0.885964	-1.064084	-0.040504	0.0525	0.831	0.2685	0	391	119	3
2026-02-12	14:41:42.370	-31.325	-11.06	41.545	0.820816	-1.044564	-0.17934	0.057	0.831	0.267	0	391	119	3
2026-02-12	14:41:42.390	-35.56	-14.875	41.09	0.9272	-1.166808	-0.062952	0.057	0.831	0.267	0	391	119	3
2026-02-12	14:41:42.410	-11.515	-21.07	29.47	1.138748	-1.317844	0.00854	0.054	0.831	0.2685	0	389	105	3
2026-02-12	14:41:42.430	41.125	-18.585	27.58	1.079212	-1.206336	-0.111264	0.0675	0.8355	0.2775	0	389	105	3
2026-02-12	14:41:42.450	104.755	-20.79	29.4	1.033828	-0.465796	-0.174948	0.066	0.8475	0.273	0	389	105	3
2026-02-12	14:41:42.470	102.27	-28.42	16.765	0.973316	-0.18544	-0.13664	0.075	0.858	0.2805	0	389	105	3
2026-02-12	14:41:42.490	57.365	-40.04	-7.525	0.912804	-0.066856	-0.041968	0.072	0.861	0.2745	0	389	105	3
2026-02-12	14:41:42.510	38.08	-34.86	-24.605	0.811544	0.041968	0.03416	0.072	0.8625	0.273	0	389	105	3
2026-02-12	14:41:42.530	14.84	-29.75	-44.695	0.766404	-0.05002	0.046604	0.0765	0.8565	0.276	0	389	105	3
2026-02-12	14:41:42.550	-0.42	-27.93	-63.35	0.762744	-0.295484	0.041236	0.0765	0.8475	0.279	0	389	105	3
2026-02-12	14:41:42.570	-1.925	-31.71	-70.63	0.742248	-0.578036	-0.033184	0.0705	0.849	0.2775	0	389	105	3
2026-02-12	14:41:42.590	8.33	-40.425	-66.57	0.647088	-0.685884	-0.156648	0.0675	0.843	0.282	0	389	105	3
2026-02-12	14:41:42.610	18.515	-51.765	-58.205	0.653188	-0.712968	-0.22326	0.069	0.8355	0.2865	0	390	89	3
2026-02-12	14:41:42.630	18.795	-60.55	-52.78	0.713944	-0.70516	-0.16958	0.0645	0.8235	0.288	0	390	89	3
2026-02-12	14:41:42.650	18.76	-59.22	-50.645	0.707112	-0.655872	-0.06344	0.069	0.8235	0.3	0	390	89	3
2026-02-12	14:41:42.670	29.54	-52.57	-50.015	0.773968	-0.62586	-0.053436	0.069	0.822	0.309	0	390	89	3
2026-02-12	14:41:42.690	45.325	-46.165	-51.52	0.764452	-0.468724	-0.15128	0.066	0.8025	0.3195	0	390	89	3
2026-02-12	14:41:42.710	40.215	-44.24	-55.685	0.75274	-0.398208	-0.272792	0.066	0.8025	0.3195	0	390	89	3
2026-02-12	14:41:42.730	24.535	-45.92	-56.28	0.789584	-0.482876	-0.24766	0.066	0.7965	0.3225	0	390	89	3
2026-02-12	14:41:42.750	11.235	-43.855	-54.355	0.7869	-0.562176	-0.149328	0.072	0.789	0.33	0	390	89	3
2026-02-12	14:41:42.770	6.895	-37.695	-49.49	0.75884	-0.623176	-0.068808	0.078	0.7845	0.333	0	390	89	3
2026-02-12	14:41:42.790	15.015	-30.065	-42.385	0.71858	-0.624884	-0.062464	0.078	0.7755	0.3345	0	390	89	3
2026-02-12	14:41:42.810	25.76	-23.66	-35.14	0.707356	-0.624152	-0.126636	0.0735	0.768	0.342	0	389	85	3
2026-02-12	14:41:42.830	38.255	-19.04	-30.485	0.723216	-0.560956	-0.177876	0.0705	0.7665	0.3495	0	389	85	3
2026-02-12	14:41:42.850	42.28	-14.525	-28.245	0.691496	-0.45628	-0.167872	0.0765	0.7725	0.3495	0	389	85	3
2026-02-12	14:41:42.870	36.435	-11.025	-28.21	0.711748	-0.384788	-0.135176	0.081	0.768	0.354	0	389	85	3
2026-02-12	14:41:42.890	27.195	-6.615	-31.5	0.829112	-0.371368	-0.126636	0.084	0.7575	0.345	0	389	85	3
2026-02-12	14:41:42.910	17.29	2.555	-38.745	0.980392	-0.391132	-0.15738	0.0705	0.759	0.354	0	389	85	3
2026-02-12	14:41:42.930	0.525	11.83	-43.715	1.0492	-0.44286	-0.2196	0.0735	0.756	0.351	0	389	85	3
2026-02-12	14:41:42.950	-26.775	16.135	-41.895	1.036268	-0.6161	-0.275476	0.0705	0.7515	0.348	0	389	85	3
2026-02-12	14:41:42.970	-45.955	20.02	-36.05	0.977708	-0.707356	-0.219844	0.066	0.744	0.342	0	389	85	3
2026-02-12	14:41:42.990	-50.015	22.89	-30.415	1.029924	-0.76738	-0.110288	0.0675	0.735	0.342	0	389	85	3
2026-02-12	14:41:43.010	-47.985	28.77	-24.85	1.08092	-0.744688	-0.116388	0.066	0.726	0.3405	0	382	96	3
2026-02-12	14:41:43.030	-43.365	33.04	-21.42	1.06872	-0.66612	-0.21472	0.06	0.7185	0.3315	0	382	96	3
2026-02-12	14:41:43.050	-40.705	31.395	-21.35	1.064328	-0.689788	-0.286456	0.0555	0.7185	0.3315	0	382	96	3
2026-02-12	14:41:43.070	-31.675	25.62	-18.83	1.0431	-0.707112	-0.281332	0.066	0.7095	0.3195	0	382	96	3
2026-02-12	14:41:43.090	-14.77	17.955	-11.2	0.982588	-0.65636	-0.244244	0.0585	0.699	0.3225	0	382	96	3
2026-02-12	14:41:43.110	7.175	9.205	0.28	0.91378	-0.54168	-0.193736	0.0675	0.699	0.3195	0	382	96	3
2026-02-12	14:41:43.130	32.235	-0.525	20.86	0.877424	-0.290604	-0.041968	0.0585	0.6945	0.3255	0	382	96	3
2026-02-12	14:41:43.150	47.845	-1.75	32.9	1.00894	-0.1769	0.124684	0.057	0.7005	0.3225	0	382	96	3
2026-02-12	14:41:43.170	47.53	5.6	45.99	1.163636	-0.02684	0.282308	0.054	0.7095	0.315	0	382	96	3
2026-02-12	14:41:43.190	5.775	18.34	55.825	1.158512	0.155184	0.16226	0.0555	0.72	0.309	0	382	96	3
2026-02-12	14:41:43.210	-63.7	31.22	56.77	1.064572	0.045872	-0.066124	0.057	0.729	0.3075	0	372	110	3
2026-02-12	14:41:43.230	-113.4	35.665	55.37	1.018944	-0.424316	-0.27816	0.057	0.7335	0.3045	0	372	110	3
2026-02-12	14:41:43.250	-98.42	28.91	59.92	0.960384	-0.660996	-0.304268	0.057	0.735	0.3045	0	372	110	3
2026-02-12	14:41:43.270	-68.005	21.035	69.545	0.84668	-0.756888	-0.195932	0.051	0.7335	0.306	0	372	110	3
2026-02-12	14:41:43.290	-33.495	14.98	78.26	0.748104	-0.733952	-0.104188	0.051	0.7425	0.2955	0	372	110	3
2026-02-12	14:41:43.310	-2.45	10.15	85.015	0.652456	-0.622688	-0.074176	0.057	0.7515	0.2985	0	372	110	3
2026-02-12	14:41:43.330	18.025	5.775	84.63	0.590724	-0.49776	-0.082472	0.0675	0.7635	0.291	0	372	110	3
2026-02-12	14:41:43.350	31.57	1.75	72.73	0.516548	-0.364048	-0.035136	0.0675	0.7635	0.291	0	372	110	3
2026-02-12	14:41:43.370	26.775	-0.07	61.95	0.507276	-0.340136	-0.013908	0.075	0.78	0.291	0	372	110	3
2026-02-12	14:41:43.390	26.39	-1.295	49.49	0.524356	-0.326472	-0.009272	0.0795	0.7995	0.291	0	372	110	3
2026-02-12	14:41:43.410	22.54	-1.33	37.31	0.553392	-0.376736	-0.02928	0.0705	0.8085	0.2925	0	362	113	3
2026-02-12	14:41:43.430	19.705	-0.77	23.555	0.573888	-0.390156	-0.0122	0.0705	0.816	0.2865	0	362	113	3
2026-02-12	14:41:43.450	11.025	1.295	11.025	0.566568	-0.440664	0.031476	0.0765	0.816	0.282	0	362	113	3
2026-02-12	14:41:43.470	3.36	2.905	0.945	0.570716	-0.493856	0.05368	0.078	0.8145	0.285	0	362	113	3
2026-02-12	14:41:43.490	0.245	4.025	-7.175	0.629276	-0.537288	0.090524	0.0795	0.819	0.285	0	362	113	3
2026-02-12	14:41:43.510	-11.585	6.965	-11.515	0.691496	-0.619272	0.10248	0.078	0.819	0.2865	0	362	113	3
2026-02-12	14:41:43.530	-27.615	8.855	-8.715	0.787632	-0.797392	0.08052	0.075	0.8265	0.285	0	362	113	3
2026-02-12	14:41:43.550	-39.55	9.415	5.88	0.885232	-1.137528	-0.05002	0.075	0.819	0.2865	0	362	113	3
2026-02-12	14:41:43.570	-42.245	7	29.855	0.913536	-1.240252	-0.26596	0.075	0.819	0.285	0	362	113	3
2026-02-12	14:41:43.590	-29.47	4.725	44.205	0.732	-1.17364	-0.2928	0.0735	0.8205	0.282	0	362	113	3
2026-02-12	14:41:43.610	-10.36	-5.915	47.705	0.803492	-1.009184	-0.182268	0.072	0.8205	0.2805	0	355	103	3
2026-02-12	14:41:43.630	-27.055	-11.13	43.05	0.82838	-1.157292	-0.216428	0.078	0.825	0.282	0	355	103	3
2026-02-12	14:41:43.650	-26.705	-20.265	34.72	1.026996	-1.364448	-0.122244	0.084	0.834	0.291	0	355	103	3
2026-02-12	14:41:43.670	10.85	-27.615	23.17	1.253428	-1.366888	-0.077836	0.0855	0.84	0.297	0	355	103	3
2026-02-12	14:41:43.690	75.355	-17.64	30.8	1.0614	-0.88328	-0.102724	0.099	0.8295	0.288	0	355	103	3
2026-02-12	14:41:43.710	136.99	-18.06	30.59	0.998204	-0.312076	0.001952	0.087	0.849	0.2865	0	355	103	3
2026-02-12	14:41:43.730	132.265	-19.95	27.09	0.886452	-0.08174	0.094916	0.0975	0.858	0.2835	0	355	103	3
2026-02-12	14:41:43.750	92.89	-22.61	17.71	0.895236	0.131516	0.105408	0.099	0.864	0.2835	0	355	103	3
2026-02-12	14:41:43.770	13.405	-10.99	-14.875	0.7686	0.084912	0.01586	0.0975	0.8715	0.2805	0	355	103	3
2026-02-12	14:41:43.790	-0.735	-8.12	-39.48	0.761036	-0.09272	0.020252	0.096	0.876	0.279	0	355	103	3
2026-02-12	14:41:43.810	-1.435	-10.92	-56.98	0.808128	-0.379176	-0.014396	0.096	0.876	0.279	0	354	91	3
2026-02-12	14:41:43.830	-2.625	-18.76	-63.91	0.874496	-0.602192	-0.108092	0.096	0.864	0.2775	0	354	91	3
2026-02-12	14:41:43.850	-13.93	-22.295	-58.52	0.770064	-0.739808	-0.19154	0.0945	0.855	0.279	0	354	91	3
2026-02-12	14:41:43.870	-17.185	-25.83	-49.315	0.672464	-0.745908	-0.168604	0.0945	0.843	0.2835	0	354	91	3
2026-02-12	14:41:43.890	2.065	-27.195	-47.495	0.655384	-0.67222	-0.01464	0.0975	0.837	0.288	0	354	91	3
2026-02-12	14:41:43.910	22.365	-27.79	-52.535	0.725168	-0.556564	0.054412	0.096	0.831	0.288	0	354	91	3
2026-02-12	14:41:43.930	22.33	-22.33	-60.06	0.6954	-0.436272	-0.049288	0.087	0.828	0.2985	0	354	91	3
2026-02-12	14:41:43.950	5.67	-24.675	-65.975	0.706868	-0.448716	-0.1891	0.0915	0.828	0.297	0	354	91	3
2026-02-12	14:41:43.970	-22.995	-29.12	-64.33	0.752252	-0.62952	-0.21472	0.0825	0.804	0.2985	0	354	91	3
2026-02-12	14:41:43.990	-33.845	-30.45	-53.725	0.733464	-0.751764	-0.050264	0.0825	0.804	0.2985	0	354	91	3
2026-02-12	14:41:44.010	-19.565	-28	-48.755	0.729072	-0.656116	0.022448	0.081	0.7965	0.3045	0	358	82	3
2026-02-12	14:41:44.030	-0.805	-22.82	-47.565	0.707112	-0.597312	0.000976	0.084	0.7845	0.312	0	358	82	3
2026-02-12	14:41:44.050	16.17	-19.005	-48.755	0.660264	-0.497516	-0.028792	0.087	0.777	0.318	0	358	82	3
2026-02-12	14:41:44.070	10.71	-15.19	-48.545	0.656848	-0.525332	-0.073444	0.0855	0.7695	0.3195	0	358	82	3
2026-02-12	14:41:44.090	-0.56	-14.49	-47.39	0.693692	-0.557296	-0.11224	0.0855	0.7635	0.3195	0	358	82	3
2026-02-12	14:41:44.110	-4.235	-14.385	-44.73	0.749568	-0.603412	-0.137372	0.081	0.759	0.321	0	358	82	3
2026-02-12	14:41:44.130	1.925	-15.085	-40.88	0.841068	-0.611708	-0.142496	0.087	0.7515	0.324	0	358	82	3
2026-02-12	14:41:44.150	10.99	-12.95	-36.995	0.922808	-0.599264	-0.123464	0.081	0.7485	0.3255	0	358	82	3
2026-02-12	14:41:44.170	15.75	-9.24	-35.105	0.99918	-0.508252	-0.094428	0.084	0.7365	0.3315	0	358	82	3
2026-02-12	14:41:44.190	-1.505	0.385	-34.755	1.009184	-0.475312	-0.0732	0.078	0.7305	0.3315	0	358	82	3
2026-02-12	14:41:44.210	-40.11	11.27	-29.68	1.016504	-0.637572	-0.102236	0.084	0.726	0.33	0	357	79	3
2026-02-12	14:41:44.230	-57.995	21.21	-23.065	1.097024	-0.814228	-0.117852	0.0855	0.717	0.327	0	357	79	3
2026-02-12	14:41:44.250	-41.72	33.04	-15.785	1.214144	-0.8723	-0.188368	0.0825	0.7125	0.3225	0	357	79	3
2026-02-12	14:41:44.270	-13.79	42.21	-10.22	1.184376	-0.812032	-0.284748	0.078	0.7125	0.3195	0	357	79	3
2026-02-12	14:41:44.290	5.95	42.98	-0.42	1.158268	-0.718336	-0.313784	0.0735	0.7125	0.309	0	357	79	3
2026-02-12	14:41:44.310	15.68	31.5	15.785	1.158756	-0.562664	-0.339404	0.075	0.711	0.3015	0	357	79	3
2026-02-12	14:41:44.330	17.64	20.895	29.05	1.016504	-0.417972	-0.24034	0.0675	0.7065	0.2985	0	357	79	3
2026-02-12	14:41:44.350	22.575	10.43	39.41	1.013332	-0.277672	-0.006344	0.075	0.7185	0.2955	0	357	79	3
2026-02-12	14:41:44.370	32.41	9.065	42.21	1.107516	-0.0427	0.297192	0.069	0.7215	0.3015	0	357	79	3
2026-02-12	14:41:44.390	22.54	17.57	42.385	1.206092	0.132492	0.347212	0.066	0.732	0.2925	0	357	79	3
2026-02-12	14:41:44.410	-25.235	35.98	42.91	1.073356	0.038064	0.063196	0.069	0.744	0.288	0	353	84	3
2026-02-12	14:41:44.430	-71.33	41.685	43.365	0.986492	-0.122976	-0.053192	0.0675	0.744	0.288	0	353	84	3
2026-02-12	14:41:44.450	-121.415	46.165	46.235	0.976976	-0.447496	-0.08686399	0.069	0.747	0.282	0	353	84	3
2026-02-12	14:41:44.470	-131.915	48.475	56.315	0.911096	-0.648308	-0.07808	0.069	0.7485	0.2775	0	353	84	3
2026-02-12	14:41:44.490	-103.915	49.455	66.71	0.81252	-0.645624	-0.08686399	0.066	0.7455	0.273	0	353	84	3
2026-02-12	14:41:44.510	-68.18	49.07	72.485	0.713456	-0.61366	-0.110532	0.0645	0.7485	0.261	0	353	84	3
2026-02-12	14:41:44.530	-37.66	45.64	72.975	0.630496	-0.549488	-0.111752	0.0645	0.7545	0.255	0	353	84	3
2026-02-12	14:41:44.550	-18.795	40.985	69.93	0.571448	-0.518256	-0.088328	0.0705	0.768	0.2595	0	353	84	3
2026-02-12	14:41:44.570	-5.11	36.47	64.855	0.516304	-0.497272	-0.051484	0.057	0.7725	0.255	0	353	84	3
2026-02-12	14:41:44.590	10.43	33.11	56.7	0.490928	-0.44652	-0.027572	0.0675	0.7815	0.243	0	353	84	3
2026-02-12	14:41:44.610	18.725	30.38	46.9	0.43798	-0.390644	-0.00488	0.066	0.789	0.2475	0	350	82	3
2026-02-12	14:41:44.630	15.54	27.51	28.14	0.403576	-0.341356	0.045628	0.066	0.789	0.2475	0	350	82	3
2026-02-12	14:41:44.650	3.395	25.9	14.07	0.384544	-0.344284	0.110532	0.069	0.8025	0.2355	0	350	82	3
2026-02-12	14:41:44.670	-15.925	26.32	1.505	0.34648	-0.388448	0.153964	0.0705	0.816	0.2205	0	350	82	3
2026-02-12	14:41:44.690	-37.66	26.145	-8.05	0.385764	-0.528992	0.235948	0.0675	0.816	0.2175	0	350	82	3
2026-02-12	14:41:44.710	-53.83	25.83	-11.305	0.53436	-0.820084	0.2867	0.0705	0.813	0.2175	0	350	82	3
2026-02-12	14:41:44.730	-55.51	25.795	-12.915	0.711992	-0.982588	0.215696	0.075	0.81	0.2175	0	350	82	3
2026-02-12	14:41:44.750	-61.81	21.665	-10.43	0.899628	-1.264896	0.089304	0.0705	0.8025	0.222	0	350	82	3
2026-02-12	14:41:44.770	-47.775	15.75	7.7	0.931592	-1.41764	0.005856	0.0795	0.8025	0.216	0	350	82	3
2026-02-12	14:41:44.790	-16.94	10.465	32.935	0.927932	-1.367864	-0.035624	0.069	0.798	0.213	0	350	82	3
2026-02-12	14:41:44.810	10.36	3.22	47.845	0.761768	-1.198284	0.012932	0.0675	0.807	0.219	0	350	63	3
2026-02-12	14:41:44.830	18.97	-0.385	52.08	0.862296	-1.15534	0.126392	0.078	0.8055	0.2055	0	350	63	3
2026-02-12	14:41:44.850	-14.91	-5.005	51.275	0.888404	-1.400804	-0.069296	0.078	0.8145	0.2085	0	350	63	3
2026-02-12	14:41:44.870	36.68	-21.875	41.09	1.02968	-1.052128	-0.010492	0.078	0.8265	0.213	0	350	63	3
2026-02-12	14:41:44.890	85.68	-24.92	35.14	1.027972	-0.50996	-0.065636	0.0825	0.834	0.2115	0	350	63	3
2026-02-12	14:41:44.910	99.295	-28.98	29.925	0.978684	-0.313784	-0.050508	0.087	0.8445	0.2115	0	350	63	3
2026-02-12	14:41:44.930	120.47	-40.705	13.37	1.063352	-0.083204	0.082716	0.0855	0.8535	0.2115	0	350	63	3
2026-02-12	14:41:44.950	103.775	-37.8	-8.4	1.026752	0.133224	0.147132	0.084	0.8565	0.2085	0	350	63	3
2026-02-12	14:41:44.970	41.195	-33.18	-30.24	0.97478	0.013664	0.040504	0.0945	0.8505	0.2055	0	350	63	3
2026-02-12	14:41:44.990	-7.98	-32.41	-54.285	0.896212	-0.142496	-0.085644	0.0945	0.852	0.2175	0	350	63	3
2026-02-12	14:41:45.010	-41.65	-39.34	-67.655	0.856684	-0.488488	-0.183	0.084	0.8415	0.2115	0	357	39	3
2026-02-12	14:41:45.030	-42.455	-47.635	-71.785	0.786412	-0.645136	-0.189588	0.0945	0.8355	0.219	0	357	39	3
2026-02-12	14:41:45.050	-19.215	-53.725	-73.99	0.722484	-0.780312	-0.110288	0.0885	0.822	0.231	0	357	39	3
2026-02-12	14:41:45.070	6.545	-53.585	-68.74	0.742736	-0.795196	-0.087108	0.0885	0.8115	0.24	0	357	39	3
2026-02-12	14:41:45.090	35.245	-50.47	-64.68	0.726144	-0.554368	-0.05856	0.084	0.798	0.2505	0	357	39	3
2026-02-12	14:41:45.110	38.57	-43.575	-62.265	0.665632	-0.370636	-0.066612	0.078	0.792	0.2535	0	357	39	3
2026-02-12	14:41:45.130	29.75	-37.24	-61.04	0.647576	-0.267668	-0.066856	0.0855	0.786	0.2565	0	357	39	3
2026-02-12	14:41:45.150	12.32	-33.425	-59.92	0.665144	-0.238876	-0.083448	0.093	0.783	0.258	0	357	39	3
2026-02-12	14:41:45.170	-15.015	-30.205	-58.485	0.68564	-0.272548	-0.077348	0.0795	0.7635	0.2595	0	357	39	3
2026-02-12	14:41:45.190	-39.725	-27.58	-56.35	0.709064	-0.430172	-0.060024	0.078	0.765	0.2715	0	357	39	3
2026-02-12	14:41:45.210	-44.065	-23.31	-51.73	0.74664	-0.561932	-0.030988	0.0855	0.756	0.279	0	366	30	3
2026-02-12	14:41:45.230	-29.89	-17.08	-44.94	0.777384	-0.66612	-0.032696	0.0795	0.75	0.2745	0	366	30	3
2026-02-12	14:41:45.250	-10.325	-10.29	-34.545	0.802028	-0.63074	-0.005856	0.09	0.741	0.276	0	366	30	3
2026-02-12	14:41:45.270	-20.055	-5.81	-23.415	0.861808	-0.603168	-0.020252	0.09	0.741	0.276	0	366	30	3
2026-02-12	14:41:45.290	-49.42	-3.325	-13.37	0.846436	-0.599508	-0.19764	0.0855	0.7365	0.2805	0	366	30	3
2026-02-12	14:41:45.310	-64.96	-8.645	-8.4	0.831064	-0.743468	-0.313052	0.0795	0.7275	0.2865	0	366	30	3
2026-02-12	14:41:45.330	-49.91	-20.895	-11.445	0.83326	-0.704672	-0.25864	0.081	0.7185	0.288	0	366	30	3
2026-02-12	14:41:45.350	-21.035	-30.45	-17.15	0.86986	-0.488	-0.105896	0.0825	0.714	0.2925	0	366	30	3
2026-02-12	14:41:45.370	-7.595	-30.45	-22.995	0.945988	-0.335012	-0.003904	0.0795	0.714	0.297	0	366	30	3
2026-02-12	14:41:45.390	-17.745	-21.77	-31.64	0.961116	-0.279868	-0.01708	0.087	0.7095	0.2985	0	366	30	3
2026-02-12	14:41:45.410	-41.055	-11.48	-41.86	0.965508	-0.358436	-0.117608	0.087	0.714	0.3	0	371	38	3
2026-02-12	14:41:45.430	-58.03	-5.46	-47.915	1.13094	-0.450668	-0.193004	0.0855	0.693	0.297	0	371	38	3
2026-02-12	14:41:45.450	-59.955	9.1	-46.515	1.31028	-0.643184	-0.221064	0.0975	0.6915	0.3045	0	371	38	3
2026-02-12	14:41:45.470	-51.38	33.565	-32.76	1.249036	-0.711748	-0.417728	0.0915	0.678	0.2985	0	371	38	3
2026-02-12	14:41:45.490	-29.155	42.735	-13.615	1.081896	-0.71126	-0.50142	0.09	0.672	0.2925	0	371	38	3
2026-02-12	14:41:45.510	-8.89	36.47	8.995	1.015528	-0.621712	-0.414556	0.0855	0.6645	0.285	0	371	38	3
2026-02-12	14:41:45.530	12.215	29.365	26.74	0.924272	-0.388692	-0.271328	0.0795	0.663	0.285	0	371	38	3
2026-02-12	14:41:45.550	42.56	27.51	36.82	0.89426	-0.220332	0.026352	0.0795	0.663	0.279	0	371	38	3
2026-02-12	14:41:45.570	51.94	30.1	44.065	1.010892	-0.131272	0.223748	0.084	0.666	0.273	0	371	38	3
2026-02-12	14:41:45.590	28.875	35.77	55.23	1.147776	-0.057828	0.16348	0.0795	0.681	0.2685	0	371	38	3
2026-02-12	14:41:45.610	-9.415	40.88	63.175	1.134112	-0.094916	-0.026596	0.081	0.69	0.273	0	371	63	3
2026-02-12	14:41:45.630	-46.585	41.58	67.375	1.098244	-0.245464	-0.15372	0.072	0.696	0.2655	0	371	63	3
2026-02-12	14:41:45.650	-65.905	40.005	70.07	1.0492	-0.513864	-0.210816	0.066	0.7065	0.2535	0	371	63	3
2026-02-12	14:41:45.670	-59.43	35.77	76.475	0.964532	-0.657092	-0.166164	0.078	0.7215	0.2505	0	371	63	3
2026-02-12	14:41:45.690	-21.77	30.905	85.75	0.7869	-0.6832	-0.068808	0.0765	0.726	0.2475	0	371	63	3
2026-02-12	14:41:45.710	12.985	29.4	85.68	0.677588	-0.519476	-0.02562	0.0705	0.732	0.243	0	371	63	3
2026-02-12	14:41:45.730	27.335	28.14	82.915	0.597556	-0.406504	-0.027328	0.069	0.7485	0.24	0	371	63	3
2026-02-12	14:41:45.750	19.285	26.11	78.33	0.517768	-0.346968	-0.049288	0.072	0.7665	0.2325	0	371	63	3
2026-02-12	14:41:45.770	10.675	23.275	70.595	0.44896	-0.396012	-0.070272	0.0735	0.777	0.2265	0	371	63	3
2026-02-12	14:41:45.790	12.425	19.74	59.885	0.438956	-0.394792	-0.083692	0.0765	0.78	0.2295	0	371	63	3
2026-02-12	14:41:45.810	17.815	16.59	47.81	0.44042	-0.409188	-0.074176	0.081	0.7965	0.228	0	369	80	3
2026-02-12	14:41:45.830	16.45	13.755	35.455	0.445544	-0.41114	-0.047824	0.0765	0.7935	0.225	0	369	80	3
2026-02-12	14:41:45.850	4.445	12.18	23.065	0.43432	-0.457012	0.01952	0.0705	0.804	0.2205	0	369	80	3
2026-02-12	14:41:45.870	1.015	11.83	11.06	0.444568	-0.514108	0.071492	0.0945	0.8085	0.222	0	369	80	3
2026-02-12	14:41:45.890	7.14	13.02	-2.8	0.50142	-0.633424	0.167384	0.0795	0.8025	0.219	0	369	80	3
2026-02-12	14:41:45.910	8.995	13.16	-9.345	0.593164	-0.843264	0.178852	0.0795	0.8025	0.219	0	369	80	3
2026-02-12	14:41:45.930	4.585	8.75	-9.695	0.705892	-0.990152	0.128832	0.081	0.8025	0.2145	0	369	80	3
2026-02-12	14:41:45.950	-6.65	-3.08	-2.24	0.866688	-1.203164	0.050264	0.0855	0.8085	0.204	0	369	80	3
2026-02-12	14:41:45.970	-4.445	-12.565	14.875	0.938424	-1.335656	-0.059048	0.087	0.8115	0.207	0	369	80	3
2026-02-12	14:41:45.990	20.86	-18.69	32.62	0.942816	-1.281976	0.00366	0.087	0.81	0.2145	0	369	80	3
2026-02-12	14:41:46.010	46.935	-21.28	46.62	0.913292	-1.088728	0.108092	0.09	0.8115	0.216	0	368	75	3
2026-02-12	14:41:46.030	44.8	-17.08	48.405	0.849608	-1.090436	0.090036	0.09	0.8115	0.216	0	368	75	3
2026-02-12	14:41:46.050	36.155	-19.53	50.365	0.96746	-1.0919	0.09076799	0.0885	0.8235	0.2205	0	368	75	3
2026-02-12	14:41:46.070	40.355	-23.24	44.415	1.070184	-1.040416	0.022692	0.0945	0.8385	0.225	0	368	75	3
2026-02-12	14:41:46.090	59.43	-23.94	46.375	1.0614	-0.753228	-0.087108	0.099	0.8415	0.222	0	368	75	3
2026-02-12	14:41:46.110	78.75	-27.86	36.505	1.003572	-0.407236	-0.093452	0.111	0.8475	0.222	0	368	75	3
2026-02-12	14:41:46.130	89.355	-27.86	11.55	0.873032	-0.033672	-0.021472	0.1065	0.8565	0.2205	0	368	75	3
2026-02-12	14:41:46.150	67.305	-28.77	-15.085	0.833992	0.120536	0.013664	0.1095	0.8655	0.2205	0	368	75	3
2026-02-12	14:41:46.170	17.045	-28.42	-40.565	0.8174	-0.00366	0.003416	0.1125	0.8655	0.2175	0	368	75	3
2026-02-12	14:41:46.190	-26.635	-28.035	-63	0.777384	-0.3294	-0.098088	0.108	0.8625	0.219	0	368	75	3
2026-02-12	14:41:46.210	-35.875	-36.575	-70.385	0.80642	-0.705404	-0.211304	0.1065	0.858	0.2235	0	371	58	3
2026-02-12	14:41:46.230	-8.61	-49.245	-68.81	0.865712	-0.818132	-0.227408	0.108	0.8475	0.2355	0	371	58	3
2026-02-12	14:41:46.250	22.4	-52.85	-66.185	0.813984	-0.767868	-0.169824	0.1005	0.834	0.237	0	371	58	3
2026-02-12	14:41:46.270	48.615	-54.32	-62.615	0.71004	-0.593652	-0.084668	0.099	0.8265	0.2385	0	371	58	3
2026-02-12	14:41:46.290	63.21	-55.545	-61.565	0.675636	-0.40748	-0.008052	0.1005	0.825	0.255	0	371	58	3
2026-02-12	14:41:46.310	59.045	-53.235	-64.995	0.678564	-0.213744	0.04026	0.0885	0.8175	0.255	0	371	58	3
2026-02-12	14:41:46.330	5.635	-44.135	-74.795	0.689788	-0.24888	0.021716	0.1035	0.8055	0.2535	0	371	58	3
2026-02-12	14:41:46.350	-28.595	-38.64	-74.795	0.721264	-0.443348	-0.066124	0.099	0.7965	0.2595	0	371	58	3
2026-02-12	14:41:46.370	-42.385	-36.225	-68.6	0.787632	-0.620736	-0.12566	0.0945	0.7845	0.27	0	371	58	3
2026-02-12	14:41:46.390	-41.685	-33.565	-57.715	0.783484	-0.70882	-0.161284	0.093	0.777	0.276	0	371	58	3
2026-02-12	14:41:46.410	-32.515	-29.82	-47.075	0.73688	-0.691496	-0.100528	0.093	0.7665	0.285	0	374	50	3
2026-02-12	14:41:46.430	-22.925	-24.22	-38.22	0.69418	-0.622688	-0.038552	0.0975	0.7605	0.291	0	374	50	3
2026-02-12	14:41:46.450	-22.33	-18.655	-30.765	0.697108	-0.5917	-0.033916	0.093	0.7545	0.2865	0	374	50	3
2026-02-12	14:41:46.470	-29.96	-11.935	-23.485	0.701256	-0.645624	-0.070516	0.096	0.7575	0.2955	0	374	50	3
2026-02-12	14:41:46.490	-30.8	-6.58	-16.765	0.69174	-0.60878	-0.050508	0.096	0.7485	0.297	0	374	50	3
2026-02-12	14:41:46.510	-30.1	-3.36	-11.76	0.747616	-0.64782	-0.102236	0.09	0.744	0.3045	0	374	50	3
2026-02-12	14:41:46.530	-3.745	0.105	-7.21	0.810568	-0.652212	-0.156892	0.0915	0.7425	0.3045	0	374	50	3
2026-02-12	14:41:46.550	20.37	4.305	-2.065	0.877912	-0.511424	-0.135176	0.0915	0.7425	0.3045	0	374	50	3
2026-02-12	14:41:46.570	16.975	14.525	-1.575	0.897432	-0.46726	-0.068076	0.0945	0.738	0.3	0	374	50	3
2026-02-12	14:41:46.590	-1.085	29.085	-1.75	0.884744	-0.535092	-0.043676	0.093	0.732	0.2955	0	374	50	3
2026-02-12	14:41:46.610	-17.815	41.58	-0.595	0.911828	-0.596336	-0.065392	0.0945	0.732	0.2925	0	372	53	3
2026-02-12	14:41:46.630	-37.1	48.265	0.14	1.024312	-0.724924	-0.106628	0.0915	0.7335	0.2895	0	372	53	3
2026-02-12	14:41:46.650	-44.38	51.555	2.52	1.13094	-0.988932	-0.22448	0.0855	0.732	0.2895	0	372	53	3
2026-02-12	14:41:46.670	-17.85	51.38	6.895	1.149972	-0.850584	-0.285724	0.087	0.7455	0.2775	0	372	53	3
2026-02-12	14:41:46.690	4.27	44.24	10.535	1.204872	-0.775188	-0.244976	0.078	0.738	0.273	0	372	53	3
2026-02-12	14:41:46.710	17.85	38.22	11.83	1.199748	-0.64538	-0.140544	0.0795	0.7335	0.267	0	372	53	3
2026-02-12	14:41:46.730	21	34.475	12.075	1.130696	-0.420168	-0.060512	0.069	0.7335	0.2625	0	372	53	3
2026-02-12	14:41:46.750	30.1	28	11.13	1.056032	-0.29158	0.07124799	0.0735	0.738	0.2505	0	372	53	3
2026-02-12	14:41:46.770	43.855	24.08	13.09	1.135088	-0.215208	0.244244	0.075	0.741	0.2475	0	372	53	3
2026-02-12	14:41:46.790	51.03	27.055	16.275	1.082384	-0.10736	0.232288	0.075	0.747	0.24	0	372	53	3
2026-02-12	14:41:46.810	36.12	28.735	21.105	1.007232	0.002928	0.106872	0.0735	0.753	0.2385	0	366	60	3
2026-02-12	14:41:46.830	-12.635	24.22	28	0.986004	-0.071492	0.000732	0.0705	0.756	0.237	0	366	60	3
2026-02-12	14:41:46.850	-75.845	24.15	32.69	0.945988	-0.354532	-0.027816	0.069	0.756	0.2325	0	366	60	3
2026-02-12	14:41:46.870	-111.93	23.52	40.18	0.923784	-0.623664	-0.018056	0.0705	0.765	0.2265	0	366	60	3
2026-02-12	14:41:46.890	-105	25.9	48.335	0.83204	-0.695156	0.044164	0.069	0.7635	0.2295	0	366	60	3
2026-02-12	14:41:46.910	-74.865	27.79	52.395	0.743956	-0.648064	0.061	0.072	0.774	0.2295	0	366	60	3
2026-02-12	14:41:46.930	-49.035	28.42	53.585	0.637084	-0.598288	0.04148	0.072	0.7725	0.2235	0	366	60	3
2026-02-12	14:41:46.950	-27.685	25.27	53.375	0.537044	-0.581208	-0.026352	0.084	0.783	0.2175	0	366	60	3
2026-02-12	14:41:46.970	8.295	15.33	47.075	0.452376	-0.488488	-0.043432	0.0675	0.786	0.228	0	366	60	3
2026-02-12	14:41:46.990	24.325	8.295	38.64	0.417728	-0.394304	-0.0122	0.075	0.792	0.219	0	366	60	3
2026-02-12	14:41:47.010	25.795	2.73	28.14	0.412604	-0.335744	0.021716	0.078	0.801	0.216	0	359	54	3
2026-02-12	14:41:47.030	14	-1.225	17.43	0.427244	-0.369416	0.04758	0.078	0.81	0.2145	0	359	54	3
2026-02-12	14:41:47.050	-0.525	-3.045	8.155	0.429684	-0.449692	0.07564	0.081	0.813	0.207	0	359	54	3
2026-02-12	14:41:47.070	-7.245	-4.655	-0.14	0.438224	-0.527284	0.108824	0.0795	0.81	0.2055	0	359	54	3
2026-02-12	14:41:47.090	-6.545	-6.615	-5.635	0.496296	-0.659532	0.157624	0.075	0.807	0.2115	0	359	54	3
2026-02-12	14:41:47.110	-1.015	-7.84	-6.16	0.639524	-0.803004	0.21838	0.0765	0.804	0.2145	0	359	54	3
2026-02-12	14:41:47.130	-0.315	-8.19	-0.21	0.80764	-0.964044	0.230336	0.0825	0.81	0.2175	0	359	54	3
2026-02-12	14:41:47.150	-7.175	-7.63	11.305	0.988444	-1.121424	0.209596	0.084	0.8115	0.228	0	359	54	3
2026-02-12	14:41:47.170	-4.69	-0.63	30.73	1.037488	-1.066524	0.098332	0.0795	0.804	0.2205	0	359	54	3
2026-02-12	14:41:47.190	5.39	3.605	38.15	0.925004	-1.051396	0.046604	0.0795	0.804	0.2205	0	359	54	3
2026-02-12	14:41:47.210	19.845	6.195	40.39	0.758108	-0.92842	0.09882	0.084	0.8145	0.2205	0	354	32	3
2026-02-12	14:41:47.230	25.27	2.17	42.91	0.830088	-0.792512	0.242048	0.0885	0.8235	0.2205	0	354	32	3
2026-02-12	14:41:47.250	-16.135	0.91	46.305	0.941108	-1.068964	0.1769	0.0915	0.828	0.222	0	354	32	3
2026-02-12	14:41:47.270	-32.2	-3.85	41.265	1.03944	-1.145824	-0.008784	0.099	0.837	0.2235	0	354	32	3
2026-02-12	14:41:47.290	2.03	-9.31	35.035	0.947696	-0.911096	-0.128588	0.1035	0.84	0.222	0	354	32	3
2026-02-12	14:41:47.310	51.1	-15.47	36.435	0.935984	-0.568032	-0.109312	0.1005	0.843	0.228	0	354	32	3
2026-02-12	14:41:47.330	91.14	-22.54	24.36	0.946232	-0.185196	0.020496	0.1005	0.855	0.2265	0	354	32	3
2026-02-12	14:41:47.350	90.79	-23.8	-0.56	0.92964	0.14762	0.138592	0.1095	0.8595	0.2265	0	354	32	3
2026-02-12	14:41:47.370	33.005	-25.34	-20.615	0.942572	0.0671	0.074908	0.108	0.864	0.2175	0	354	32	3
2026-02-12	14:41:47.390	-28.735	-29.96	-46.69	0.809592	-0.263764	-0.115656	0.105	0.8595	0.2205	0	354	32	3
2026-02-12	14:41:47.410	-44.205	-46.41	-67.2	0.77104	-0.59292	-0.180316	0.1035	0.852	0.2265	0	353	6	3
2026-02-12	14:41:47.430	-29.47	-56.595	-72.835	0.797148	-0.790316	-0.131028	0.099	0.84	0.237	0	353	6	3
2026-02-12	14:41:47.450	-7.945	-61.95	-70.455	0.808616	-0.9516	-0.142496	0.0975	0.8295	0.243	0	353	6	3
2026-02-12	14:41:47.470	18.235	-60.235	-65.8	0.734196	-0.958432	-0.199348	0.099	0.825	0.2505	0	353	6	3
2026-02-12	14:41:47.490	57.61	-61.845	-63.21	0.714188	-0.70394	-0.181048	0.0975	0.825	0.258	0	353	6	3
2026-02-12	14:41:47.510	72.975	-57.015	-59.535	0.682224	-0.436516	-0.115656	0.096	0.8115	0.27	0	353	6	3
2026-02-12	14:41:47.530	60.9	-51.38	-59.955	0.686128	-0.22814	-0.032452	0.1035	0.804	0.2625	0	353	6	3
2026-02-12	14:41:47.550	25.55	-42.595	-62.72	0.699792	-0.188368	0.011224	0.087	0.807	0.267	0	353	6	3
2026-02-12	14:41:47.570	-7.175	-35.315	-61.39	0.719556	-0.306952	0.000976	0.093	0.7995	0.2805	0	353	6	3
2026-02-12	14:41:47.590	-26.18	-28.91	-56.56	0.714432	-0.4331	-0.038308	0.093	0.7875	0.276	0	353	6	3
2026-02-12	14:41:47.610	-31.605	-21.525	-47.425	0.718824	-0.530944	-0.080032	0.099	0.789	0.2925	0	355	2	3
2026-02-12	14:41:47.630	-34.16	-17.955	-40.915	0.72956	-0.557052	-0.096136	0.093	0.777	0.2925	0	355	2	3
2026-02-12	14:41:47.650	-41.615	-14.945	-32.445	0.732732	-0.581696	-0.07808	0.093	0.7635	0.297	0	355	2	3
2026-02-12	14:41:47.670	-44.03	-9.835	-23.975	0.725168	-0.632448	-0.057096	0.096	0.7575	0.303	0	355	2	3
2026-02-12	14:41:47.690	-31.64	-3.885	-17.01	0.732	-0.68564	-0.08662	0.093	0.7485	0.2985	0	355	2	3
2026-02-12	14:41:47.710	-5.81	-0.315	-13.615	0.80886	-0.609512	-0.085888	0.093	0.7455	0.2955	0	355	2	3
2026-02-12	14:41:47.730	5.81	2.45	-12.81	0.869372	-0.49532	-0.148108	0.0885	0.7395	0.2955	0	355	2	3
2026-02-12	14:41:47.750	-1.82	4.795	-12.32	0.903776	-0.549732	-0.229848	0.093	0.7365	0.3	0	355	2	3
2026-02-12	14:41:47.770	-14.35	8.19	-11.305	0.908168	-0.648308	-0.210328	0.09	0.7425	0.2895	0	355	2	3
2026-02-12	14:41:47.790	-14.315	12.915	-13.72	0.907436	-0.646844	-0.130052	0.087	0.738	0.2985	0	355	2	3
2026-02-12	14:41:47.810	-14.805	22.12	-15.47	0.986248	-0.592432	-0.040504	0.0885	0.7425	0.2955	0	355	17	3
2026-02-12	14:41:47.830	-33.95	34.93	-12.285	1.146068	-0.594628	-0.09638	0.0885	0.7425	0.2955	0	355	17	3
2026-02-12	14:41:47.850	-58.03	48.09	-7.14	1.109956	-0.434808	-0.241072	0.0885	0.735	0.2895	0	355	17	3
2026-02-12	14:41:47.870	-91.945	53.095	-1.155	1.077504	-0.549976	-0.369172	0.0885	0.729	0.279	0	355	17	3
2026-02-12	14:41:47.890	-97.58	48.685	9.485	1.063596	-0.885964	-0.361852	0.0885	0.7275	0.273	0	355	17	3
2026-02-12	14:41:47.910	-47.95	38.745	23.765	1.098244	-0.776896	-0.22692	0.09	0.723	0.2715	0	355	17	3
2026-02-12	14:41:47.930	-7.665	31.85	29.365	1.087752	-0.482876	0.004636	0.081	0.72	0.2595	0	355	17	3
2026-02-12	14:41:47.950	9.975	31.255	32.76	1.172908	-0.347456	0.213744	0.075	0.726	0.255	0	355	17	3
2026-02-12	14:41:47.970	16.485	34.72	42.84	1.270996	-0.199348	0.294508	0.078	0.7305	0.2565	0	355	17	3
2026-02-12	14:41:47.990	4.165	38.465	51.8	1.24928	-0.193004	0.129808	0.069	0.726	0.2475	0	355	17	3
2026-02-12	14:41:48.010	-11.795	37.415	50.365	1.114836	-0.178608	-0.06344	0.069	0.726	0.2475	0	351	41	3
2026-02-12	14:41:48.030	-42.035	33.075	51.87	1.037976	-0.38796	-0.089548	0.0765	0.7425	0.246	0	351	41	3
2026-02-12	14:41:48.050	-67.83	29.82	60.095	0.872788	-0.673928	-0.111508	0.0735	0.7515	0.237	0	351	41	3
2026-02-12	14:41:48.070	-45.185	26.565	66.57	0.720288	-0.71492	-0.07564	0.0735	0.7635	0.231	0	351	41	3
2026-02-12	14:41:48.090	-6.125	23.31	69.86	0.629764	-0.627568	-0.043432	0.078	0.7725	0.234	0	351	41	3
2026-02-12	14:41:48.110	23.8	20.755	69.02	0.512156	-0.512156	-0.040748	0.0825	0.7785	0.2295	0	351	41	3
2026-02-12	14:41:48.130	39.725	17.71	65.24	0.433588	-0.452132	-0.02806	0.0855	0.78	0.225	0	351	41	3
2026-02-12	14:41:48.150	47.46	14.84	56.175	0.402112	-0.357948	0.003172	0.081	0.795	0.2175	0	351	41	3
2026-02-12	14:41:48.170	42.77	13.09	45.675	0.400892	-0.293776	0.044164	0.087	0.8175	0.222	0	351	41	3
2026-02-12	14:41:48.190	24.01	12.74	34.755	0.419924	-0.255224	0.051972	0.0915	0.8175	0.2145	0	351	41	3
2026-02-12	14:41:48.210	-0.35	11.725	23.625	0.438224	-0.309148	0.019276	0.093	0.822	0.213	0	347	51	3
2026-02-12	14:41:48.230	-18.585	10.78	10.71	0.486536	-0.438224	0.005124	0.0915	0.8265	0.2085	0	347	51	3
2026-02-12	14:41:48.250	-16.87	11.13	-10.045	0.476044	-0.509716	0.074176	0.093	0.828	0.2055	0	347	51	3
2026-02-12	14:41:48.270	-13.65	8.715	-18.27	0.552172	-0.589992	0.169092	0.0915	0.822	0.2055	0	347	51	3
2026-02-12	14:41:48.290	-17.36	4.795	-19.6	0.697352	-0.788852	0.263032	0.09	0.8175	0.2025	0	347	51	3
2026-02-12	14:41:48.310	-26.425	2.73	-16.415	0.8723	-0.944036	0.235948	0.09	0.819	0.2025	0	347	51	3
2026-02-12	14:41:48.330	-43.575	1.89	-10.115	0.956968	-1.1163	0.03172	0.0885	0.819	0.2055	0	347	51	3
2026-02-12	14:41:48.350	-38.5	-1.225	7.49	0.885476	-1.238788	-0.13176	0.096	0.825	0.207	0	347	51	3
2026-02-12	14:41:48.370	-2.065	-11.06	25.41	0.884988	-1.20902	-0.099552	0.093	0.8115	0.2115	0	347	51	3
2026-02-12	14:41:48.390	21.77	-7.63	35.735	0.727852	-1.12484	-0.002196	0.096	0.822	0.207	0	347	51	3
2026-02-12	14:41:48.410	46.795	-6.23	43.4	0.774944	-0.97234	0.230092	0.096	0.819	0.21	0	346	40	3
2026-02-12	14:41:48.430	27.755	-3.22	36.995	0.898164	-1.048468	0.20984	0.1095	0.8235	0.204	0	346	40	3
2026-02-12	14:41:48.450	-0.245	-2.66	31.64	0.90768	-1.115812	-0.031232	0.0975	0.834	0.2085	0	346	40	3
2026-02-12	14:41:48.470	25.13	-8.645	22.295	0.904752	-0.862784	-0.055632	0.0975	0.834	0.2085	0	346	40	3
2026-02-12	14:41:48.490	49.805	-11.48	31.29	1.0187	-0.609512	0.024644	0.1035	0.843	0.2145	0	346	40	3
2026-02-12	14:41:48.510	74.83	-13.93	27.72	0.993568	-0.313784	0.020252	0.111	0.855	0.213	0	346	40	3
2026-02-12	14:41:48.530	90.335	-13.195	6.58	0.951356	0.06832	0.069296	0.114	0.8565	0.2055	0	346	40	3
2026-02-12	14:41:48.550	60.62	-15.785	-19.18	0.953796	0.258152	0.07564	0.1155	0.858	0.207	0	346	40	3
2026-02-12	14:41:48.570	-3.64	-17.955	-41.58	0.92232	0.031476	0.015128	0.1185	0.861	0.204	0	346	40	3
2026-02-12	14:41:48.590	-58.66	-17.815	-61.88	0.87474	-0.239852	-0.09638	0.117	0.8655	0.207	0	346	40	3
2026-02-12	14:41:48.610	-99.715	-26.81	-73.605	0.94306	-0.698816	-0.179828	0.1215	0.8535	0.2025	0	350	21	3
2026-02-12	14:41:48.630	-95.41	-36.61	-71.26	0.919636	-1.054812	-0.226676	0.1125	0.831	0.222	0	350	21	3
2026-02-12	14:41:48.650	-33.04	-41.16	-64.575	0.832284	-1.061644	-0.19276	0.108	0.8295	0.2355	0	350	21	3
2026-02-12	14:41:48.670	41.895	-42.21	-57.75	0.656848	-0.754936	-0.107116	0.105	0.813	0.237	0	350	21	3
2026-02-12	14:41:48.690	78.785	-43.645	-55.3	0.574864	-0.313296	-0.008784	0.102	0.8085	0.2355	0	350	21	3
2026-02-12	14:41:48.710	60.375	-40.915	-61.145	0.578036	-0.10004	0.069784	0.1005	0.7995	0.2385	0	350	21	3
2026-02-12	14:41:48.730	16.065	-38.22	-64.855	0.62952	-0.10614	0.047336	0.1035	0.7965	0.2445	0	350	21	3
2026-02-12	14:41:48.750	-32.585	-37.625	-67.445	0.677832	-0.288896	-0.046116	0.105	0.7935	0.252	0	350	21	3
2026-02-12	14:41:48.770	-58.695	-35.98	-65.275	0.734196	-0.50508	-0.08686399	0.1065	0.7905	0.2595	0	350	21	3
2026-02-12	14:41:48.790	-63.42	-31.885	-58.45	0.74542	-0.619028	-0.10492	0.1065	0.7785	0.261	0	350	21	3
2026-02-12	14:41:48.810	-55.79	-26.67	-49.385	0.743956	-0.693936	-0.13664	0.1005	0.771	0.2745	0	358	17	3
2026-02-12	14:41:48.830	-37.03	-21.14	-42.77	0.77226	-0.6527	-0.114436	0.105	0.759	0.2715	0	358	17	3
2026-02-12	14:41:48.850	-29.75	-13.23	-35.49	0.747616	-0.6954	-0.095404	0.1065	0.747	0.279	0	358	17	3
2026-02-12	14:41:48.870	-27.545	-8.225	-25.725	0.784704	-0.754204	-0.127124	0.1095	0.7395	0.2835	0	358	17	3
2026-02-12	14:41:48.890	-10.395	-0.525	-13.685	0.781532	-0.62586	-0.181048	0.102	0.7425	0.282	0	358	17	3
2026-02-12	14:41:48.910	0.7	-0.21	-10.22	0.790804	-0.5551	-0.254248	0.105	0.7425	0.2835	0	358	17	3
2026-02-12	14:41:48.930	2.03	-0.07	-7.84	0.815692	-0.605364	-0.249368	0.1035	0.738	0.282	0	358	17	3
2026-02-12	14:41:48.950	4.795	1.645	-6.755	0.8662	-0.600484	-0.186172	0.1005	0.735	0.279	0	358	17	3
2026-02-12	14:41:48.970	5.565	7.595	-8.33	0.925248	-0.57828	-0.070272	0.1035	0.7365	0.2805	0	358	17	3
2026-02-12	14:41:48.990	-2.52	15.96	-7.175	1.045784	-0.57706	-0.010736	0.111	0.726	0.2865	0	358	17	3
2026-02-12	14:41:49.010	-18.13	27.02	-0.7	1.153876	-0.63806	-0.12566	0.1065	0.7275	0.2775	0	363	31	3
2026-02-12	14:41:49.030	-21.28	39.13	8.54	1.250256	-0.599508	-0.265472	0.096	0.7275	0.2805	0	363	31	3
2026-02-12	14:41:49.050	-21.7	48.3	14.21	1.225368	-0.63562	-0.32696	0.1005	0.7305	0.2745	0	363	31	3
2026-02-12	14:41:49.070	-16.73	48.37	20.72	1.222196	-0.72102	-0.324032	0.1005	0.732	0.276	0	363	31	3
2026-02-12	14:41:49.090	3.535	40.11	27.86	1.083116	-0.602436	-0.221796	0.099	0.732	0.2655	0	363	31	3
2026-02-12	14:41:49.110	27.965	28.665	29.225	1.009184	-0.398452	0.08418	0.099	0.7395	0.2595	0	363	31	3
2026-02-12	14:41:49.130	31.64	24.92	35.77	1.14192	-0.32818	0.374784	0.099	0.75	0.2535	0	363	31	3
2026-02-12	14:41:49.150	20.65	30.275	46.34	1.257576	-0.106872	0.403576	0.1005	0.759	0.249	0	363	31	3
2026-02-12	14:41:49.170	-8.68	41.475	50.785	1.131428	-0.043432	0.192272	0.1005	0.7695	0.243	0	363	31	3
2026-02-12	14:41:49.190	-25.865	43.26	43.435	1.015528	-0.10736	-0.014884	0.099	0.774	0.2415	0	363	31	3
2026-02-12	14:41:49.210	-54.67	41.055	37.66	0.957212	-0.289384	-0.060756	0.096	0.7665	0.2385	0	364	48	3
2026-02-12	14:41:49.230	-84.91	40.67	42.63	0.91256	-0.58072	-0.11956	0.093	0.7725	0.2235	0	364	48	3
2026-02-12	14:41:49.250	-81.725	39.655	55.055	0.733708	-0.70882	-0.068564	0.1035	0.7725	0.2325	0	364	48	3
2026-02-12	14:41:49.270	-61.145	33.11	62.965	0.644892	-0.67588	-0.03538	0.099	0.7845	0.2355	0	364	48	3
2026-02-12	14:41:49.290	-38.185	26.355	65.38	0.580964	-0.569496	-0.029036	0.1005	0.7935	0.225	0	364	48	3
2026-02-12	14:41:49.310	-11.445	20.125	62.93	0.515084	-0.486048	-0.011468	0.105	0.7905	0.222	0	364	48	3
2026-02-12	14:41:49.330	8.12	16.345	55.125	0.475068	-0.362828	0.025376	0.1065	0.798	0.219	0	364	48	3
2026-02-12	14:41:49.350	11.025	15.19	44.38	0.43676	-0.29036	0.010492	0.1095	0.813	0.219	0	364	48	3
2026-02-12	14:41:49.370	3.185	13.195	31.15	0.395768	-0.277428	-0.02318	0.1095	0.822	0.2205	0	364	48	3
2026-02-12	14:41:49.390	-6.02	9.415	15.75	0.378688	-0.30378	-0.012932	0.108	0.822	0.2205	0	364	48	3
2026-02-12	14:41:49.410	-15.015	6.825	1.645	0.390156	-0.40016	0.0427	0.1095	0.8205	0.2085	0	365	49	3
2026-02-12	14:41:49.430	-16.275	5.845	-9.135	0.422852	-0.551196	0.121756	0.1155	0.8265	0.2145	0	365	49	3
2026-02-12	14:41:49.450	-9.24	4.165	-16.03	0.56486	-0.735172	0.197152	0.123	0.822	0.2295	0	365	49	3
2026-02-12	14:41:49.470	-1.855	5.04	-18.935	0.73444	-0.861808	0.252052	0.1095	0.825	0.219	0	365	49	3
2026-02-12	14:41:49.490	-15.435	7.28	-12.67	0.947452	-1.015772	0.274012	0.1065	0.8205	0.213	0	365	49	3
2026-02-12	14:41:49.510	-51.275	11.235	5.005	0.99064	-1.216584	0.065148	0.1125	0.8295	0.219	0	365	49	3
2026-02-12	14:41:49.530	-41.825	7.665	40.285	0.904996	-1.329068	-0.251076	0.111	0.819	0.2205	0	365	49	3
2026-02-12	14:41:49.550	-12.25	3.675	52.78	0.742248	-1.204872	-0.023668	0.108	0.8235	0.2175	0	365	49	3
2026-02-12	14:41:49.570	5.705	-2.66	52.01	0.864492	-1.082384	0.05368	0.1095	0.8325	0.216	0	365	49	3
2026-02-12	14:41:49.590	6.125	-1.645	44.625	0.906704	-1.1102	0.054168	0.117	0.8385	0.219	0	365	49	3
2026-02-12	14:41:49.610	24.255	-5.145	31.36	1.057984	-0.95526	0.08295999	0.1215	0.84	0.219	0	367	33	3
2026-02-12	14:41:49.630	31.99	-0.21	38.5	0.976	-0.850828	-0.0793	0.129	0.8475	0.2115	0	367	33	3
2026-02-12	14:41:49.650	52.5	-14.175	43.365	1.095804	-0.558272	-0.046848	0.1305	0.849	0.2145	0	367	33	3
2026-02-12	14:41:49.670	61.425	-17.99	34.545	0.9028	-0.24156	-0.00244	0.1335	0.8625	0.2205	0	367	33	3
2026-02-12	14:41:49.690	59.99	-21.175	19.145	0.873764	-0.04514	0.07564	0.1275	0.8655	0.219	0	367	33	3
2026-02-12	14:41:49.710	37.765	-16.73	-3.325	0.853756	0.04148	0.058804	0.135	0.87	0.213	0	367	33	3
2026-02-12	14:41:49.730	-15.19	-12.88	-37.625	0.788608	-0.12688	-0.128832	0.1305	0.87	0.222	0	367	33	3
2026-02-12	14:41:49.750	-39.375	-19.145	-63.315	0.81252	-0.623908	-0.269864	0.1305	0.87	0.222	0	367	33	3
2026-02-12	14:41:49.770	-19.81	-31.64	-68.705	0.889136	-0.954284	-0.238144	0.1245	0.8565	0.2265	0	367	33	3
2026-02-12	14:41:49.790	16.625	-38.185	-68.53	0.910608	-0.896456	-0.119804	0.1245	0.843	0.2325	0	367	33	3
2026-02-12	14:41:49.810	45.815	-36.68	-64.575	0.77226	-0.620492	-0.075396	0.126	0.843	0.2355	0	373	21	3
2026-02-12	14:41:49.830	56.385	-36.295	-61.95	0.69784	-0.422364	-0.037332	0.1215	0.843	0.2355	0	373	21	3
2026-02-12	14:41:49.850	53.655	-35	-65.8	0.68686	-0.224724	0.024644	0.117	0.828	0.2355	0	373	21	3
2026-02-12	14:41:49.870	25.515	-31.955	-71.19	0.687836	-0.15372	0.017324	0.129	0.831	0.2415	0	373	21	3
2026-02-12	14:41:49.890	-8.96	-31.15	-74.095	0.718092	-0.291336	-0.056364	0.12	0.819	0.2385	0	373	21	3
2026-02-12	14:41:49.910	-29.085	-31.57	-72.835	0.765672	-0.486536	-0.0854	0.1185	0.8055	0.252	0	373	21	3
2026-02-12	14:41:49.930	-36.82	-30.555	-66.815	0.803004	-0.59048	-0.069296	0.1125	0.7935	0.252	0	373	21	3
2026-02-12	14:41:49.950	-38.01	-25.025	-55.44	0.777384	-0.61366	-0.064172	0.1125	0.7905	0.2565	0	373	21	3
2026-02-12	14:41:49.970	-33.075	-18.62	-46.62	0.748592	-0.599508	-0.042456	0.1095	0.7815	0.261	0	373	21	3
2026-02-12	14:41:49.990	-38.535	-12.005	-41.265	0.734928	-0.5978	-0.037088	0.1065	0.7695	0.2655	0	373	21	3
2026-02-12	14:41:50.010	-52.885	-5.285	-33.215	0.71492	-0.692716	-0.062952	0.105	0.762	0.2655	0	376	23	3
2026-02-12	14:41:50.030	-53.165	-2.415	-22.575	0.702476	-0.755668	-0.133956	0.105	0.7605	0.2655	0	376	23	3
2026-02-12	14:41:50.050	-38.395	-2.835	-14.49	0.671244	-0.697108	-0.23302	0.111	0.7515	0.273	0	376	23	3
2026-02-12	14:41:50.070	-25.83	-4.55	-8.4	0.649528	-0.756644	-0.282064	0.108	0.7515	0.2685	0	376	23	3
2026-02-12	14:41:50.090	-5.11	-7.21	-7.175	0.732976	-0.76006	-0.213988	0.1065	0.747	0.27	0	376	23	3
2026-02-12	14:41:50.110	18.025	-5.145	-7.07	0.819596	-0.60756	-0.1403	0.105	0.741	0.2775	0	376	23	3
2026-02-12	14:41:50.130	18.69	3.745	-7.385	0.845216	-0.538508	-0.117364	0.1125	0.7395	0.2685	0	376	23	3
2026-02-12	14:41:50.150	7.42	13.09	-10.325	0.87474	-0.54778	-0.101016	0.105	0.7455	0.2685	0	376	23	3
2026-02-12	14:41:50.170	-19.53	18.48	-12.775	1.0675	-0.748592	-0.127856	0.1035	0.744	0.2655	0	376	23	3
2026-02-12	14:41:50.190	-23.45	22.96	-8.645	1.123864	-0.77226	-0.251808	0.102	0.7455	0.264	0	376	23	3
2026-02-12	14:41:50.210	-11.235	25.235	-3.64	1.130208	-0.741516	-0.320372	0.1005	0.7455	0.2625	0	375	41	3
2026-02-12	14:41:50.230	8.085	22.575	1.225	1.131428	-0.782264	-0.305244	0.099	0.7455	0.2625	0	375	41	3
2026-02-12	14:41:50.250	27.79	16.765	8.75	1.134356	-0.628544	-0.291336	0.099	0.7485	0.2625	0	375	41	3
2026-02-12	14:41:50.270	34.965	10.605	10.955	1.04798	-0.499468	-0.238876	0.0975	0.7425	0.264	0	375	41	3
2026-02-12	14:41:50.290	35.56	3.99	12.95	0.967216	-0.418704	-0.104676	0.096	0.7425	0.2505	0	375	41	3
2026-02-12	14:41:50.310	49.56	-0.315	16.555	0.951844	-0.26962	0.09516	0.1005	0.7515	0.2625	0	375	41	3
2026-02-12	14:41:50.330	53.585	-1.295	22.4	1.096536	-0.188856	0.243024	0.105	0.747	0.249	0	375	41	3
2026-02-12	14:41:50.350	47.565	5.88	29.4	1.144116	-0.087352	0.225944	0.102	0.75	0.255	0	375	41	3
2026-02-12	14:41:50.370	22.855	11.55	33.215	1.008696	-0.144936	0.061	0.1005	0.7695	0.261	0	375	41	3
2026-02-12	14:41:50.390	-28.385	12.74	36.47	0.955504	-0.414312	-0.100284	0.1005	0.7695	0.261	0	375	41	3
2026-02-12	14:41:50.410	-55.265	12.075	43.715	0.955992	-0.650504	-0.129564	0.1065	0.7725	0.255	0	369	63	3
2026-02-12	14:41:50.430	-47.81	11.305	53.235	0.871568	-0.742248	-0.113948	0.1125	0.7815	0.249	0	369	63	3
2026-02-12	14:41:50.450	-23.59	11.235	59.325	0.76128	-0.71248	-0.09882	0.114	0.789	0.2505	0	369	63	3
2026-02-12	14:41:50.470	12.705	10.885	59.78	0.656848	-0.566812	-0.082228	0.1125	0.7905	0.2595	0	369	63	3
2026-02-12	14:41:50.490	36.575	9.45	58.17	0.581452	-0.430904	-0.07124799	0.117	0.792	0.2475	0	369	63	3
2026-02-12	14:41:50.510	43.715	7.42	53.935	0.527528	-0.35136	-0.04636	0.114	0.813	0.2475	0	369	63	3
2026-02-12	14:41:50.530	40.845	5.005	48.37	0.485316	-0.3538	-0.030012	0.1095	0.8175	0.252	0	369	63	3
2026-02-12	14:41:50.550	41.51	3.71	39.165	0.4453	-0.33062	0	0.111	0.825	0.2445	0	369	63	3
2026-02-12	14:41:50.570	37.17	1.33	28.385	0.45628	-0.340624	0.012688	0.12	0.8295	0.243	0	369	63	3
2026-02-12	14:41:50.590	29.995	-1.12	12.95	0.474824	-0.391864	0.038308	0.1305	0.8385	0.2385	0	369	63	3
2026-02-12	14:41:50.610	20.79	-1.785	-3.08	0.4941	-0.475312	0.10736	0.129	0.8415	0.2385	0	362	69	2
2026-02-12	14:41:50.630	11.795	-2.835	-12.39	0.567788	-0.557052	0.177144	0.126	0.843	0.237	0	362	69	2
2026-02-12	14:41:50.650	-1.26	-4.025	-14.84	0.731756	-0.76372	0.233264	0.1245	0.8385	0.2355	0	362	69	2
2026-02-12	14:41:50.670	-15.75	-4.41	-11.9	0.85034	-1.003084	0.155428	0.1245	0.837	0.2355	0	362	69	2
2026-02-12	14:41:50.690	-17.85	-8.05	-0.91	0.962824	-1.09678	0.049532	0.1125	0.84	0.2325	0	362	69	2
2026-02-12	14:41:50.710	-12.355	-11.76	18.83	1.025532	-1.105564	-0.021228	0.1245	0.8235	0.231	0	362	69	2
2026-02-12	14:41:50.730	8.33	-14.805	31.71	1.008696	-1.071892	0.056852	0.1305	0.8325	0.237	0	362	69	2
2026-02-12	14:41:50.750	26.215	-11.165	32.095	0.922808	-0.958188	0.135176	0.126	0.8355	0.24	0	362	69	2
2026-02-12	14:41:50.770	38.08	-9.275	34.09	0.89792	-0.854244	0.19398	0.132	0.8505	0.234	0	362	69	2
2026-02-12	14:41:50.790	22.855	-4.48	34.09	0.858392	-0.830088	0.140544	0.1395	0.8565	0.243	0	362	69	2
2026-02-12	14:41:50.810	-16.555	-5.705	39.935	0.883524	-0.992836	0.02928	0.1395	0.8565	0.243	0	356	53	3
2026-02-12	14:41:50.830	-1.33	-12.145	34.685	0.920612	-0.941108	-0.08295999	0.141	0.861	0.2445	0	356	53	3
2026-02-12	14:41:50.850	35.875	-16.52	23.45	0.886696	-0.68076	-0.176412	0.141	0.8655	0.2445	0	356	53	3
2026-02-12	14:41:50.870	68.74	-18.48	4.83	0.838384	-0.315736	-0.130296	0.141	0.8655	0.243	0	356	53	3
2026-02-12	14:41:50.890	75.81	-24.325	-19.005	0.887916	-0.090036	-0.04758	0.1335	0.879	0.2415	0	356	53	3
2026-02-12	14:41:50.910	44.555	-28.525	-36.05	0.894504	-0.174704	-0.109312	0.1455	0.8685	0.234	0	356	53	3
2026-02-12	14:41:50.930	20.475	-30.8	-54.04	0.869616	-0.198616	-0.206912	0.1395	0.876	0.234	0	356	53	3
2026-02-12	14:41:50.950	1.82	-37.87	-70.175	0.892796	-0.36356	-0.18056	0.144	0.879	0.246	0	356	53	3
2026-02-12	14:41:50.970	-7.735	-45.535	-75.04	0.9211	-0.591456	-0.104188	0.135	0.8655	0.2475	0	356	53	3
2026-02-12	14:41:50.990	-0.315	-47.705	-73.605	0.864492	-0.692716	-0.098088	0.135	0.852	0.252	0	356	53	3
2026-02-12	14:41:51.010	31.885	-47.845	-70.035	0.763476	-0.645136	-0.115168	0.138	0.8445	0.2505	0	353	37	3
2026-02-12	14:41:51.030	59.185	-49.84	-72.485	0.724192	-0.4758	-0.087596	0.132	0.837	0.2535	0	353	37	3
2026-02-12	14:41:51.050	55.44	-45.64	-72.485	0.673684	-0.30256	-0.061976	0.126	0.8265	0.2625	0	353	37	3
2026-02-12	14:41:51.070	26.53	-40.635	-72.345	0.660752	-0.205448	-0.029524	0.1245	0.8175	0.27	0	353	37	3
2026-02-12	14:41:51.090	-8.715	-35.595	-70.84	0.69662	-0.305488	-0.022936	0.1245	0.813	0.2745	0	353	37	3
2026-02-12	14:41:51.110	-27.125	-29.505	-66.15	0.723216	-0.4209	-0.02318	0.126	0.81	0.2745	0	353	37	3
2026-02-12	14:41:51.130	-36.68	-23.555	-58.87	0.721752	-0.51362	-0.066612	0.1215	0.7935	0.285	0	353	37	3
2026-02-12	14:41:51.150	-43.085	-18.55	-51.205	0.700768	-0.541192	-0.13298	0.1155	0.783	0.291	0	353	37	3
2026-02-12	14:41:51.170	-44.625	-15.225	-45.325	0.679784	-0.557784	-0.150304	0.117	0.7785	0.285	0	353	37	3
2026-02-12	14:41:51.190	-36.225	-13.475	-42.56	0.711748	-0.593652	-0.10614	0.123	0.7695	0.3	0	353	37	3
2026-02-12	14:41:51.210	-19.565	-11.06	-38.22	0.747372	-0.62708	-0.076128	0.117	0.7545	0.2985	0	349	38	3
2026-02-12	14:41:51.230	0.595	-5.845	-32.2	0.856684	-0.595604	-0.065148	0.1035	0.7545	0.3015	0	349	38	3
2026-02-12	14:41:51.250	8.575	-2.625	-26.74	0.9211	-0.563396	-0.111996	0.1095	0.7485	0.2955	0	349	38	3
2026-02-12	14:41:51.270	11.025	-2.135	-19.285	0.952332	-0.509228	-0.199348	0.1185	0.7455	0.2925	0	349	38	3
2026-02-12	14:41:51.290	2.1	-1.645	-12.565	0.986736	-0.562908	-0.19398	0.1215	0.7485	0.297	0	349	38	3
2026-02-12	14:41:51.310	-10.465	3.29	-8.82	0.98088	-0.602436	-0.095404	0.1125	0.735	0.3015	0	349	38	3
2026-02-12	14:41:51.330	-14.385	9.625	-7.455	1.014552	-0.670512	-0.040992	0.111	0.738	0.3	0	349	38	3
2026-02-12	14:41:51.350	-11.55	16.8	-2.66	1.049444	-0.6893	-0.047336	0.1095	0.7335	0.3105	0	349	38	3
2026-02-12	14:41:51.370	-6.405	23.625	3.535	1.081164	-0.704916	-0.137128	0.114	0.729	0.3	0	349	38	3
2026-02-12	14:41:51.390	4.725	25.865	10.57	1.120692	-0.637084	-0.230092	0.105	0.729	0.2955	0	349	38	3
2026-02-12	14:41:51.410	5.215	27.195	14.91	1.120936	-0.520452	-0.244	0.1125	0.738	0.285	0	342	51	3
2026-02-12	14:41:51.430	-8.715	26.215	21.77	1.10776	-0.515084	-0.214964	0.111	0.732	0.2805	0	342	51	3
2026-02-12	14:41:51.450	-11.655	27.825	29.75	1.0065	-0.494588	-0.105896	0.111	0.732	0.2805	0	342	51	3
2026-02-12	14:41:51.470	2.94	27.86	34.16	0.942084	-0.407724	0.01098	0.108	0.7395	0.279	0	342	51	3
2026-02-12	14:41:51.490	25.13	27.37	38.15	1.067988	-0.311344	0.182756	0.108	0.756	0.279	0	342	51	3
2026-02-12	14:41:51.510	42.56	31.465	43.715	1.263188	-0.092476	0.268888	0.1095	0.7635	0.2805	0	342	51	3
2026-02-12	14:41:51.530	32.9	38.92	48.23	1.258552	0.1037	0.146156	0.102	0.7575	0.2685	0	342	51	3
2026-02-12	14:41:51.550	-6.93	43.925	46.97	1.153876	0.037332	-0.003172	0.1005	0.7755	0.2655	0	342	51	3
2026-02-12	14:41:51.570	-66.78	44.1	48.02	1.128744	-0.200568	-0.08686399	0.111	0.7785	0.252	0	342	51	3
2026-02-12	14:41:51.590	-114.555	42.455	54.775	1.038952	-0.46604	-0.082716	0.102	0.783	0.2535	0	342	51	3
2026-02-12	14:41:51.610	-123.69	39.165	61.32	0.986736	-0.67832	-0.022692	0.1005	0.78	0.249	0	333	59	3
2026-02-12	14:41:51.630	-90.3	32.34	71.855	0.821304	-0.642452	0.038796	0.1065	0.7875	0.249	0	333	59	3
2026-02-12	14:41:51.650	-45.29	25.865	76.475	0.692228	-0.548024	0.01342	0.108	0.7875	0.2535	0	333	59	3
2026-02-12	14:41:51.670	-12.6	21.07	75.215	0.582916	-0.455304	-0.009028	0.111	0.798	0.252	0	333	59	3
2026-02-12	14:41:51.690	6.09	19.005	67.69	0.508252	-0.366732	0.004148	0.117	0.8145	0.246	0	333	59	3
2026-02-12	14:41:51.710	10.955	17.255	58.765	0.43432	-0.3538	-0.009516	0.12	0.8235	0.243	0	333	59	3
2026-02-12	14:41:51.730	9.485	14.665	47.32	0.387228	-0.386496	-0.029768	0.12	0.8295	0.246	0	333	59	3
2026-02-12	14:41:51.750	5.985	12.075	34.79	0.337696	-0.422608	-0.032208	0.1095	0.831	0.2385	0	333	59	3
2026-02-12	14:41:51.770	4.55	9.415	20.965	0.317932	-0.468968	0.00732	0.1245	0.8355	0.2415	0	333	59	3
2026-02-12	14:41:51.790	5.565	9.31	6.545	0.347944	-0.48922	0.091988	0.1185	0.837	0.237	0	333	59	3
2026-02-12	14:41:51.810	8.365	12.25	-6.685	0.442616	-0.576572	0.196664	0.126	0.8445	0.237	0	327	52	3
2026-02-12	14:41:51.830	10.22	18.06	-15.855	0.57096	-0.717848	0.325496	0.1215	0.8415	0.2355	0	327	52	3
2026-02-12	14:41:51.850	-3.115	23.765	-14.875	0.747616	-0.979172	0.327936	0.111	0.8415	0.231	0	327	52	3
2026-02-12	14:41:51.870	-16.31	24.465	1.365	1.06018	-1.125816	0.260592	0.1215	0.843	0.2265	0	327	52	3
2026-02-12	14:41:51.890	-9.905	30.345	30.38	1.133868	-1.15412	0.099064	0.1185	0.8385	0.225	0	327	52	3
2026-02-12	14:41:51.910	-0.21	32.095	39.13	1.114348	-1.19682	-0.01586	0.1185	0.84	0.225	0	327	52	3
2026-02-12	14:41:51.930	10.325	31.29	43.61	0.670512	-1.032852	0.00122	0.12	0.846	0.228	0	327	52	3
2026-02-12	14:41:51.950	28.735	16.52	50.855	0.662704	-0.865468	0.309636	0.12	0.8505	0.216	0	327	52	3
2026-02-12	14:41:51.970	3.64	2.87	51.765	0.818864	-1.180228	0.363072	0.129	0.849	0.213	0	327	52	3
2026-02-12	14:41:51.990	-9.625	-3.045	43.19	0.906948	-1.19804	0.183244	0.1275	0.861	0.21	0	327	52	3
2026-02-12	14:41:52.010	34.615	-12.145	24.605	0.84668	-0.715652	-0.058316	0.1275	0.861	0.21	0	328	23	3
2026-02-12	14:41:52.030	69.475	-19.95	18.935	0.765428	-0.439688	-0.082472	0.1365	0.8685	0.2115	0	328	23	3
2026-02-12	14:41:52.050	90.65	-33.04	16.24	0.806176	-0.161284	-0.032208	0.141	0.8745	0.21	0	328	23	3
2026-02-12	14:41:52.070	78.435	-44.52	3.43	0.904752	-0.081008	0.0122	0.132	0.8745	0.216	0	328	23	3
2026-02-12	14:41:52.090	48.405	-48.055	-27.755	0.984052	-0.268156	-0.07905599	0.132	0.8745	0.216	0	328	23	3
2026-02-12	14:41:52.110	38.15	-50.26	-53.55	0.939156	-0.333548	-0.140788	0.132	0.879	0.2145	0	328	23	3
2026-02-12	14:41:52.130	29.33	-55.16	-73.115	0.866688	-0.431392	-0.127124	0.132	0.873	0.219	0	328	23	3
2026-02-12	14:41:52.150	23.24	-65.905	-86.625	0.92598	-0.5429	-0.103212	0.132	0.861	0.2235	0	328	23	3
2026-02-12	14:41:52.170	11.375	-67.34	-82.565	0.772504	-0.565592	-0.05368	0.135	0.861	0.2295	0	328	23	3
2026-02-12	14:41:52.190	-1.225	-67.27	-75.565	0.700036	-0.66368	-0.000976	0.123	0.8445	0.228	0	328	23	3
2026-02-12	14:41:52.210	3.29	-66.115	-67.095	0.653188	-0.606828	0.025132	0.1305	0.8355	0.2445	0	334	0	3
2026-02-12	14:41:52.230	14.945	-62.51	-61.495	0.620004	-0.467992	0.056364	0.1185	0.825	0.2565	0	334	0	3
2026-02-12	14:41:52.250	17.675	-57.05	-58.31	0.63318	-0.360388	0.082472	0.1245	0.8175	0.2535	0	334	0	3
2026-02-12	14:41:52.270	3.045	-52.43	-55.055	0.666608	-0.379664	0.041724	0.123	0.813	0.27	0	334	0	3
2026-02-12	14:41:52.290	-16.485	-46.445	-49.735	0.717116	-0.459208	-0.071736	0.1215	0.8115	0.2655	0	334	0	3
2026-02-12	14:41:52.310	-29.4	-40.25	-41.93	0.733952	-0.571936	-0.091744	0.1215	0.8115	0.2655	0	334	0	3
2026-02-12	14:41:52.330	-28.98	-32.76	-38.15	0.7381	-0.617808	-0.027816	0.1215	0.7995	0.279	0	334	0	3
2026-02-12	14:41:52.350	-21.735	-21.7	-37.31	0.754936	-0.62342	0.044896	0.123	0.7875	0.2925	0	334	0	3
2026-02-12	14:41:52.370	-19.075	-8.295	-36.47	0.777384	-0.611952	0.081252	0.1245	0.786	0.2955	0	334	0	3
2026-02-12	14:41:52.390	-24.395	5.075	-32.445	0.781776	-0.615368	0.060268	0.1215	0.777	0.2955	0	334	0	3
2026-02-12	14:41:52.410	-27.72	15.33	-25.725	0.793732	-0.618296	-0.049044	0.1215	0.7635	0.2895	0	338	7	3
2026-02-12	14:41:52.430	-25.375	19.355	-19.6	0.80886	-0.598776	-0.115656	0.12	0.7575	0.2955	0	338	7	3
2026-02-12	14:41:52.450	-25.69	18.69	-15.12	0.822768	-0.744688	-0.210572	0.114	0.7605	0.2895	0	338	7	3
2026-02-12	14:41:52.470	-10.71	14.525	-8.645	0.845216	-0.741272	-0.176168	0.108	0.759	0.288	0	338	7	3
2026-02-12	14:41:52.490	2.52	15.645	-3.08	0.896212	-0.691252	-0.022204	0.12	0.7485	0.2865	0	338	7	3
2026-02-12	14:41:52.510	5.32	23.135	-1.365	1.086776	-0.614636	0.124196	0.111	0.7515	0.288	0	338	7	3
2026-02-12	14:41:52.530	-5.075	34.93	-0.56	1.174128	-0.642452	0.041724	0.111	0.7545	0.2835	0	338	7	3
2026-02-12	14:41:52.550	-12.915	42.21	3.36	1.27246	-0.69418	-0.0915	0.108	0.7545	0.273	0	338	7	3
2026-02-12	14:41:52.570	-12.215	46.97	7.035	1.290028	-0.766648	-0.240828	0.105	0.753	0.2685	0	338	7	3
2026-02-12	14:41:52.590	3.045	46.06	6.44	1.23586	-0.725168	-0.252784	0.1005	0.753	0.276	0	338	7	3
2026-02-12	14:41:52.610	8.925	40.425	6.825	1.153876	-0.483852	-0.122976	0.1035	0.753	0.267	0	337	0	3
2026-02-12	14:41:52.630	-0.21	37.66	9.87	1.124108	-0.441884	0.116144	0.102	0.7485	0.264	0	337	0	3
2026-02-12	14:41:52.650	-5.005	35.21	16.205	1.18218	-0.185928	0.233996	0.1005	0.756	0.264	0	337	0	3
2026-02-12	14:41:52.670	-17.605	35.56	24.64	1.129964	-0.056852	0.12322	0.0975	0.7575	0.2445	0	337	0	3
2026-02-12	14:41:52.690	-32.655	32.41	25.655	0.9943	-0.081496	0.089792	0.0945	0.7605	0.2385	0	337	0	3
2026-02-12	14:41:52.710	-45.71	23.17	35.49	1.0248	-0.236436	0.09638	0.093	0.7515	0.246	0	337	0	3
2026-02-12	14:41:52.730	-83.195	23.065	52.08	0.932812	-0.50874	-0.00854	0.093	0.7515	0.246	0	337	0	3
2026-02-12	14:41:52.750	-88.445	23.975	58.66	0.856196	-0.599752	-0.010492	0.096	0.762	0.2445	0	337	0	3
2026-02-12	14:41:52.770	-69.335	22.295	66.01	0.717604	-0.577792	-0.034648	0.0975	0.774	0.2385	0	337	0	3
2026-02-12	14:41:52.790	-48.895	17.885	68.495	0.632448	-0.527528	-0.041236	0.096	0.7755	0.234	0	337	0	3
2026-02-12	14:41:52.810	-31.08	14.035	69.3	0.543632	-0.470432	-0.022936	0.093	0.786	0.2355	0	334	5	3
2026-02-12	14:41:52.830	-12.67	12.005	67.305	0.48434	-0.432612	-0.011956	0.1005	0.801	0.237	0	334	5	3
2026-02-12	14:41:52.850	-2.24	9.73	66.465	0.42944	-0.32452	0.000244	0.0915	0.8025	0.24	0	334	5	3
2026-02-12	14:41:52.870	-7.56	6.405	63.595	0.438468	-0.256688	0.012932	0.105	0.807	0.2355	0	334	5	3
2026-02-12	14:41:52.890	-22.505	6.23	52.255	0.448716	-0.265716	0.025132	0.1095	0.819	0.2415	0	334	5	3
2026-02-12	14:41:52.910	-35.385	8.435	34.195	0.441884	-0.404308	0.02806	0.108	0.8235	0.2445	0	334	5	3
2026-02-12	14:41:52.930	-33.46	11.725	12.775	0.447984	-0.548512	0.009516	0.1095	0.8265	0.2355	0	334	5	3
2026-02-12	14:41:52.950	-24.255	13.265	-6.44	0.508984	-0.65636	0.011956	0.1095	0.8265	0.2355	0	334	5	3
2026-02-12	14:41:52.970	-17.115	11.41	-16.66	0.641964	-0.73078	0.092232	0.1065	0.828	0.2355	0	334	5	3
2026-02-12	14:41:52.990	-17.01	11.515	-20.265	0.768844	-0.881572	0.195688	0.105	0.8295	0.237	0	334	5	3
2026-02-12	14:41:53.010	-22.995	12.845	-15.54	0.914512	-1.056276	0.197884	0.1095	0.828	0.234	0	333	4	3
2026-02-12	14:41:53.030	-24.78	12.145	-0.805	0.956236	-1.175836	0.083936	0.1065	0.825	0.231	0	333	4	3
2026-02-12	14:41:53.050	-14.035	11.305	24.78	0.839848	-1.16876	-0.058072	0.093	0.822	0.2355	0	333	4	3
2026-02-12	14:41:53.070	10.045	0.735	38.64	0.773724	-1.136064	-0.07076	0.1035	0.819	0.2325	0	333	4	3
2026-02-12	14:41:53.090	26.005	1.575	44.975	0.580964	-1.056764	0.051728	0.1065	0.828	0.2355	0	333	4	3
2026-02-12	14:41:53.110	40.95	-5.565	46.095	0.752496	-0.996252	0.206424	0.1005	0.828	0.2325	0	333	4	3
2026-02-12	14:41:53.130	23.17	-10.01	38.465	0.851072	-1.058228	0.133712	0.108	0.8445	0.2325	0	333	4	3
2026-02-12	14:41:53.150	0.315	-14.77	35.63	0.95404	-1.278316	-0.09857599	0.108	0.8445	0.237	0	333	4	3
2026-02-12	14:41:53.170	38.535	-13.825	40.32	1.0736	-0.972584	-0.130296	0.1095	0.8535	0.2325	0	333	4	3
2026-02-12	14:41:53.190	71.925	-15.365	42.56	0.983076	-0.595604	-0.171288	0.1155	0.867	0.231	0	333	4	3
2026-02-12	14:41:53.210	105.49	-19.04	22.855	0.912804	-0.031964	-0.073932	0.1215	0.87	0.234	0	335	2	3
2026-02-12	14:41:53.230	77.595	-27.86	-1.365	0.966484	0.460672	0.11834	0.1335	0.873	0.2295	0	335	2	3
2026-02-12	14:41:53.250	-45.885	-36.89	-22.645	0.913048	0.243512	0.084424	0.123	0.873	0.2205	0	335	2	3
2026-02-12	14:41:53.270	-92.4	-32.095	-47.635	0.879864	-0.055876	-0.059292	0.1245	0.8715	0.234	0	335	2	3
2026-02-12	14:41:53.290	-96.11	-18.48	-77.175	0.90524	-0.38308	-0.187392	0.1215	0.8715	0.2385	0	335	2	3
2026-02-12	14:41:53.310	-81.06	-16.555	-88.55	0.846436	-0.765184	-0.265228	0.1125	0.858	0.2445	0	335	2	3
2026-02-12	14:41:53.330	-39.445	-26.67	-83.125	0.835944	-0.950868	-0.277672	0.117	0.8385	0.2565	0	335	2	3
2026-02-12	14:41:53.350	7.77	-36.4	-73.675	0.760548	-0.91378	-0.252296	0.1005	0.828	0.267	0	335	2	3
2026-02-12	14:41:53.370	55.23	-44.66	-64.855	0.620248	-0.583404	-0.168116	0.1005	0.828	0.267	0	335	2	3
2026-02-12	14:41:53.390	65.205	-44.415	-61.145	0.573888	-0.36478	-0.085644	0.102	0.819	0.264	0	335	2	3
2026-02-12	14:41:53.410	64.015	-42.35	-63.21	0.612928	-0.247416	-0.023912	0.1035	0.8115	0.261	0	343	2	3
2026-02-12	14:41:53.430	49.84	-39.095	-67.83	0.65148	-0.257176	-0.020984	0.105	0.807	0.2685	0	343	2	3
2026-02-12	14:41:53.450	27.86	-37.205	-66.045	0.696864	-0.367464	-0.051972	0.1005	0.795	0.279	0	343	2	3
2026-02-12	14:41:53.470	5.495	-33.285	-59.115	0.727364	-0.482388	-0.052216	0.09	0.7875	0.282	0	343	2	3
2026-02-12	14:41:53.490	-5.705	-29.785	-50.96	0.772016	-0.651236	-0.064172	0.102	0.777	0.285	0	343	2	3
2026-02-12	14:41:53.510	-5.81	-22.96	-41.44	0.7747	-0.678076	-0.05856	0.0945	0.774	0.2835	0	343	2	3
2026-02-12	14:41:53.530	-2.03	-15.47	-34.265	0.800564	-0.714676	-0.044164	0.1005	0.771	0.288	0	343	2	3
2026-02-12	14:41:53.550	0.175	-5.53	-29.61	0.823988	-0.701012	0.052704	0.099	0.7605	0.297	0	343	2	3
2026-02-12	14:41:53.570	2.45	9.625	-18.27	0.812764	-0.701012	0.039772	0.09	0.762	0.2955	0	343	2	3
2026-02-12	14:41:53.590	5.67	18.97	-8.75	0.743712	-0.615124	-0.128832	0.09	0.762	0.2955	0	343	2	3
2026-02-12	14:41:53.610	9.695	17.64	-1.54	0.704672	-0.625128	-0.22692	0.093	0.759	0.2925	0	351	18	2
2026-02-12	14:41:53.630	5.985	11.725	0.385	0.75396	-0.668316	-0.216672	0.096	0.756	0.291	0	351	18	2
2026-02-12	14:41:53.650	5.46	8.68	-2.975	0.835212	-0.606096	-0.112972	0.087	0.756	0.279	0	351	18	2
2026-02-12	14:41:53.670	8.085	14.07	-6.93	0.859856	-0.536068	0.055632	0.093	0.7545	0.288	0	351	18	2
2026-02-12	14:41:53.690	0.21	19.74	-10.605	0.971608	-0.62586	0.097356	0.087	0.756	0.2865	0	351	18	2
2026-02-12	14:41:53.710	-13.475	25.41	-9.45	1.061644	-0.711504	-0.017812	0.0855	0.7485	0.2745	0	351	18	2
2026-02-12	14:41:53.730	-22.715	29.05	-3.15	1.161684	-0.83936	-0.11834	0.0825	0.7515	0.2805	0	351	18	2
2026-02-12	14:41:53.750	-18.69	31.465	1.925	1.232932	-0.853024	-0.189832	0.0795	0.7575	0.276	0	351	18	2
2026-02-12	14:41:53.770	-7.35	30.765	8.47	1.179984	-0.86742	-0.213744	0.0795	0.7515	0.2685	0	351	18	2
2026-02-12	14:41:53.790	12.67	19.04	9.275	1.144604	-0.555832	-0.157868	0.0705	0.747	0.264	0	351	18	2
2026-02-12	14:41:53.810	15.995	12.985	3.325	1.02724	-0.279868	-0.029036	0.069	0.75	0.2595	0	354	33	3
2026-02-12	14:41:53.830	11.655	14	4.935	1.046272	-0.195932	0.132492	0.0705	0.756	0.255	0	354	33	3
2026-02-12	14:41:53.850	6.23	14.455	16.52	1.148752	-0.118584	0.186904	0.0735	0.7575	0.2535	0	354	33	3
2026-02-12	14:41:53.870	-3.57	17.045	26.6	1.119472	-0.070028	0.136884	0.072	0.756	0.246	0	354	33	3
2026-02-12	14:41:53.890	-23.205	21.21	36.925	1.135088	-0.203252	0.099796	0.0735	0.7545	0.255	0	354	33	3
2026-02-12	14:41:53.910	-57.715	26.915	45.5	1.091656	-0.383812	-0.019764	0.0615	0.7545	0.249	0	354	33	3
2026-02-12	14:41:53.930	-85.855	34.265	54.145	1.009428	-0.662704	-0.057828	0.0705	0.765	0.252	0	354	33	3
2026-02-12	14:41:53.950	-87.535	38.22	61.215	0.879376	-0.762256	-0.035624	0.0705	0.7755	0.24	0	354	33	3
2026-02-12	14:41:53.970	-62.65	39.06	65.695	0.7259	-0.772748	-0.041236	0.072	0.78	0.243	0	354	33	3
2026-02-12	14:41:53.990	-22.995	37.695	67.865	0.607316	-0.722972	-0.04758	0.0705	0.7785	0.237	0	354	33	3
2026-02-12	14:41:54.010	24.43	30.31	66.29	0.49654	-0.578036	-0.059292	0.0705	0.792	0.231	0	356	38	3
2026-02-12	14:41:54.030	46.62	25.095	61.53	0.431636	-0.47458	-0.046604	0.066	0.8085	0.2235	0	356	38	3
2026-02-12	14:41:54.050	57.19	20.055	51.555	0.383812	-0.306464	0.007076	0.063	0.8115	0.2235	0	356	38	3
2026-02-12	14:41:54.070	42.455	16.17	38.675	0.446276	-0.259372	0.064172	0.084	0.8115	0.216	0	356	38	3
2026-02-12	14:41:54.090	17.99	16.485	25.235	0.42456	-0.259372	0.132248	0.0795	0.828	0.216	0	356	38	3
2026-02-12	14:41:54.110	-2.695	15.26	11.55	0.425048	-0.293776	0.139812	0.0735	0.834	0.204	0	356	38	3
2026-02-12	14:41:54.130	-13.685	14.245	-3.815	0.420168	-0.355508	0.128832	0.075	0.8385	0.204	0	356	38	3
2026-02-12	14:41:54.150	-19.215	11.55	-17.465	0.459452	-0.455792	0.154452	0.0795	0.834	0.2055	0	356	38	3
2026-02-12	14:41:54.170	-21.63	8.75	-26.11	0.55754	-0.67588	0.209352	0.078	0.834	0.2115	0	356	38	3
2026-02-12	14:41:54.190	-25.025	7.35	-26.215	0.690764	-0.95648	0.231068	0.078	0.8295	0.195	0	356	38	3
2026-02-12	14:41:54.210	-28.49	4.655	-11.235	0.73932	-1.198284	0.11468	0.0735	0.828	0.198	0	356	26	3
2026-02-12	14:41:54.230	-25.13	-8.085	18.725	0.858392	-1.450336	0.046848	0.069	0.825	0.198	0	356	26	3
2026-02-12	14:41:54.250	4.55	-12.915	47.775	0.88694	-1.522316	0.092476	0.0675	0.825	0.201	0	356	26	3
2026-02-12	14:41:54.270	48.965	-8.085	61.495	0.95282	-1.205604	0.14396	0.072	0.8265	0.2025	0	356	26	3
2026-02-12	14:41:54.290	60.655	1.82	63.105	0.852292	-0.889136	0.1403	0.0765	0.8355	0.207	0	356	26	3
2026-02-12	14:41:54.310	19.11	7.98	69.755	0.83692	-1.126792	0.056364	0.078	0.846	0.201	0	356	26	3
2026-02-12	14:41:54.330	8.12	0.98	67.795	0.975268	-1.166076	-0.000732	0.078	0.858	0.1995	0	356	26	3
2026-02-12	14:41:54.350	32.62	-2.835	66.57	1.058472	-0.884988	0.000244	0.084	0.8625	0.1935	0	356	26	3
2026-02-12	14:41:54.370	56.28	-8.085	59.465	1.024312	-0.419924	-0.068808	0.096	0.8805	0.198	0	356	26	3
2026-02-12	14:41:54.390	69.195	-12.215	33.565	0.965264	-0.048556	0.06734399	0.1005	0.8835	0.1965	0	356	26	3
2026-02-12	14:41:54.410	55.16	-18.69	8.155	1.040904	0.122244	0.21228	0.1035	0.876	0.1845	0	361	3	3
2026-02-12	14:41:54.430	3.885	-14.14	-21.77	0.940864	-0.035624	0.113704	0.105	0.903	0.1905	0	361	3	3
2026-02-12	14:41:54.450	-42.455	-9.73	-40.46	0.860344	-0.28792	-0.06344	0.099	0.8955	0.1875	0	361	3	3
2026-02-12	14:41:54.470	-55.895	-10.815	-56.07	0.797636	-0.442616	-0.129808	0.0945	0.888	0.186	0	361	3	3
2026-02-12	14:41:54.490	-68.565	-18.865	-72.52	0.793	-0.676612	-0.123708	0.099	0.8715	0.1995	0	361	3	3
2026-02-12	14:41:54.510	-57.33	-28.56	-73.745	0.742004	-0.8235	-0.132248	0.081	0.87	0.2025	0	361	3	3
2026-02-12	14:41:54.530	-21.35	-34.37	-71.05	0.680272	-0.800808	-0.066856	0.0855	0.855	0.2025	0	361	3	3
2026-02-12	14:41:54.550	8.54	-35.35	-68.845	0.600484	-0.69052	-0.042944	0.0795	0.8415	0.216	0	361	3	3
2026-02-12	14:41:54.570	25.69	-35.385	-69.265	0.575108	-0.543144	-0.004148	0.0825	0.8385	0.213	0	361	3	3
2026-02-12	14:41:54.590	25.795	-35.77	-70.84	0.58438	-0.418704	0.021716	0.072	0.8295	0.216	0	361	3	3
2026-02-12	14:41:54.610	12.32	-37.905	-72.765	0.621468	-0.45384	-0.000732	0.0735	0.8205	0.2235	0	369	10	3
2026-02-12	14:41:54.630	1.12	-39.935	-68.6	0.638304	-0.569496	-0.059048	0.0615	0.81	0.222	0	369	10	3
2026-02-12	14:41:54.650	-4.27	-44.73	-61.425	0.669536	-0.696376	-0.068076	0.069	0.795	0.237	0	369	10	3
2026-02-12	14:41:54.670	-5.355	-43.4	-55.615	0.6954	-0.705892	-0.0183	0.069	0.786	0.2415	0	369	10	3
2026-02-12	14:41:54.690	5.46	-37.8	-53.41	0.71614	-0.63318	0.008052	0.069	0.777	0.2475	0	369	10	3
2026-02-12	14:41:54.710	10.745	-30.03	-52.115	0.726876	-0.567788	0.023912	0.0675	0.7755	0.2445	0	369	10	3
2026-02-12	14:41:54.730	10.955	-23.695	-48.545	0.768356	-0.592188	0.033184	0.069	0.7665	0.2535	0	369	10	3
2026-02-12	14:41:54.750	10.57	-18.41	-41.93	0.776652	-0.624396	-0.02318	0.0615	0.759	0.2505	0	369	10	3
2026-02-12	14:41:54.770	15.05	-15.435	-33.565	0.789584	-0.69296	-0.117608	0.063	0.756	0.2505	0	369	10	3
2026-02-12	14:41:54.790	17.08	-13.09	-26.67	0.784948	-0.633424	-0.183732	0.0585	0.753	0.2505	0	369	10	3
2026-02-12	14:41:54.810	17.745	-11.27	-18.76	0.8174	-0.583404	-0.09882	0.0735	0.747	0.258	0	371	7	2
2026-02-12	14:41:54.830	7.175	-4.935	-10.64	0.858392	-0.617564	-0.0244	0.069	0.7485	0.258	0	371	7	2
2026-02-12	14:41:54.850	2.66	4.235	-8.505	0.883524	-0.60146	-0.011956	0.0615	0.744	0.2595	0	371	7	2
2026-02-12	14:41:54.870	-2.765	10.43	-8.785	0.973804	-0.64172	-0.049288	0.0615	0.744	0.2595	0	371	7	2
2026-02-12	14:41:54.890	-9.52	12.145	-5.215	1.098	-0.709552	-0.086132	0.0615	0.744	0.2595	0	371	7	2
2026-02-12	14:41:54.910	-20.23	15.995	4.97	1.226588	-0.881572	-0.137128	0.0705	0.735	0.252	0	371	7	2
2026-02-12	14:41:54.930	-16.275	26.705	10.78	1.220244	-0.832772	-0.176168	0.0645	0.738	0.249	0	371	7	2
2026-02-12	14:41:54.950	1.855	31.325	10.325	1.140212	-0.71492	-0.164456	0.0615	0.7305	0.24	0	371	7	2
2026-02-12	14:41:54.970	11.235	28.385	4.235	1.061644	-0.527772	-0.115168	0.06	0.738	0.2385	0	371	7	2
2026-02-12	14:41:54.990	15.365	27.125	4.655	0.994788	-0.310612	-0.025132	0.063	0.7425	0.237	0	371	7	2
2026-02-12	14:41:55.010	9.66	27.265	15.61	0.961604	-0.243024	0.115656	0.0675	0.753	0.2355	0	367	5	3
2026-02-12	14:41:55.030	-0.28	27.965	24.885	1.078236	-0.146156	0.19276	0.066	0.7365	0.231	0	367	5	3
2026-02-12	14:41:55.050	-13.195	27.545	35.105	1.164856	-0.2745	0.123464	0.06	0.75	0.2265	0	367	5	3
2026-02-12	14:41:55.070	-20.195	24.255	42.525	1.016016	-0.327448	0.00122	0.0645	0.7485	0.2175	0	367	5	3
2026-02-12	14:41:55.090	-38.745	17.15	43.925	1.01504	-0.475068	-0.10492	0.0645	0.753	0.213	0	367	5	3
2026-02-12	14:41:55.110	-46.83	12.495	51.695	0.881572	-0.549	-0.034892	0.066	0.759	0.2085	0	367	5	3
2026-02-12	14:41:55.130	-46.165	8.505	55.44	0.87108	-0.620736	0.03538	0.063	0.765	0.216	0	367	5	3
2026-02-12	14:41:55.150	-29.995	8.54	59.5	0.775432	-0.610244	0.066856	0.0705	0.7695	0.216	0	367	5	3
2026-02-12	14:41:55.170	-4.585	8.855	59.5	0.70028	-0.55754	0.041724	0.075	0.777	0.21	0	367	5	3
2026-02-12	14:41:55.190	15.47	9.415	56.245	0.633424	-0.469944	-0.013664	0.069	0.786	0.219	0	367	5	3
2026-02-12	14:41:55.210	23.765	8.82	51.1	0.570228	-0.377956	-0.023912	0.075	0.7965	0.213	0	359	13	3
2026-02-12	14:41:55.230	23.87	7.245	43.085	0.543632	-0.325252	-0.004148	0.078	0.8055	0.21	0	359	13	3
2026-02-12	14:41:55.250	18.305	5.635	33.04	0.543144	-0.29768	0.022692	0.078	0.81	0.2055	0	359	13	3
2026-02-12	14:41:55.270	6.335	6.965	21.77	0.543388	-0.3233	0.03782	0.0825	0.8175	0.207	0	359	13	3
2026-02-12	14:41:55.290	-8.54	10.99	4.48	0.47702	-0.435296	0.043676	0.0825	0.8175	0.207	0	359	13	3
2026-02-12	14:41:55.310	-11.41	11.235	-3.535	0.459208	-0.484096	0.0305	0.081	0.8205	0.21	0	359	13	3
2026-02-12	14:41:55.330	-8.225	9.205	-12.705	0.475312	-0.526064	0.06588	0.081	0.825	0.213	0	359	13	3
2026-02-12	14:41:55.350	-6.93	4.76	-18.515	0.575596	-0.60634	0.134688	0.078	0.8205	0.2025	0	359	13	3
2026-02-12	14:41:55.370	-16.415	3.535	-19.145	0.665632	-0.696864	0.180804	0.0825	0.8115	0.2085	0	359	13	3
2026-02-12	14:41:55.390	-32.025	2.975	-13.685	0.762744	-0.894748	0.212036	0.078	0.804	0.207	0	359	13	3
2026-02-12	14:41:55.410	-39.55	0.7	-3.395	0.872788	-1.204872	0.153964	0.0795	0.804	0.195	0	350	9	3
2026-02-12	14:41:55.430	-30.485	-1.47	11.34	0.924516	-1.414468	-0.00854	0.0765	0.807	0.204	0	350	9	3
2026-02-12	14:41:55.450	2.38	-5.075	24.185	0.848876	-1.24684	-0.101016	0.093	0.7965	0.2055	0	350	9	3
2026-02-12	14:41:55.470	24.99	-10.395	27.895	0.864736	-1.082628	-0.044652	0.0945	0.807	0.2025	0	350	9	3
2026-02-12	14:41:55.490	28.63	-16.17	34.72	0.991616	-0.980636	0.072224	0.0885	0.8115	0.204	0	350	9	3
2026-02-12	14:41:55.510	9.87	-13.055	41.265	0.961604	-0.99308	0.055144	0.0885	0.8145	0.207	0	350	9	3
2026-02-12	14:41:55.530	26.53	-13.685	43.96	1.094828	-0.824964	0.130052	0.09	0.819	0.2115	0	350	9	3
2026-02-12	14:41:55.550	30.59	-8.085	42.735	0.976488	-0.750544	0.095648	0.0975	0.8265	0.213	0	350	9	3
2026-02-12	14:41:55.570	53.025	-4.025	32.2	0.855708	-0.447496	-0.031476	0.1005	0.8325	0.213	0	350	9	3
2026-02-12	14:41:55.590	78.82	-5.81	17.36	0.852536	-0.071492	0.040504	0.1065	0.8445	0.2085	0	350	9	3
2026-02-12	14:41:55.610	57.12	-8.365	-1.085	0.87108	0.057828	0.00488	0.1005	0.849	0.204	0	345	2	3
2026-02-12	14:41:55.630	10.535	-10.535	-18.865	0.836432	-0.059292	-0.125416	0.105	0.852	0.204	0	345	2	3
2026-02-12	14:41:55.650	-10.15	-17.395	-38.325	0.826672	-0.110532	-0.166408	0.096	0.8445	0.198	0	345	2	3
2026-02-12	14:41:55.670	-33.46	-27.545	-54.46	0.844972	-0.486048	-0.129076	0.1065	0.852	0.204	0	345	2	3
2026-02-12	14:41:55.690	-39.865	-32.76	-63.98	0.926224	-0.833748	-0.076128	0.102	0.8325	0.2145	0	345	2	3
2026-02-12	14:41:55.710	-10.605	-32.76	-61.425	0.80154	-0.863516	-0.094428	0.0915	0.819	0.2085	0	345	2	3
2026-02-12	14:41:55.730	28.42	-33.635	-55.79	0.63074	-0.648552	-0.08662	0.0885	0.813	0.2175	0	345	2	3
2026-02-12	14:41:55.750	46.06	-36.68	-55.23	0.576328	-0.453352	-0.043188	0.0855	0.8085	0.2265	0	345	2	3
2026-02-12	14:41:55.770	45.92	-39.935	-56.28	0.608536	-0.287432	0.005124	0.093	0.801	0.222	0	345	2	3
2026-02-12	14:41:55.790	25.41	-40.285	-57.54	0.672464	-0.25254	0.025864	0.084	0.7965	0.2235	0	345	2	3
2026-02-12	14:41:55.810	-0.175	-38.745	-58.45	0.719556	-0.37698	-0.011224	0.084	0.7935	0.2385	0	343	4	3
2026-02-12	14:41:55.830	-11.165	-37.695	-57.855	0.755668	-0.541192	-0.048556	0.0885	0.78	0.234	0	343	4	3
2026-02-12	14:41:55.850	-10.78	-35.28	-55.685	0.7686	-0.637084	-0.050508	0.087	0.7695	0.2385	0	343	4	3
2026-02-12	14:41:55.870	-5.88	-29.645	-54.915	0.749812	-0.637084	-0.036844	0.09	0.7635	0.2415	0	343	4	3
2026-02-12	14:41:55.890	0.035	-24.605	-53.165	0.74176	-0.649772	0.009272	0.0825	0.759	0.252	0	343	4	3
2026-02-12	14:41:55.910	3.15	-19.495	-49.28	0.763232	-0.637572	0.048312	0.0825	0.747	0.249	0	343	4	3
2026-02-12	14:41:55.930	-0.315	-10.885	-39.83	0.761036	-0.712236	-0.036356	0.0825	0.747	0.249	0	343	4	3
2026-02-12	14:41:55.950	-0.35	-11.06	-30.73	0.753228	-0.682956	-0.155428	0.0855	0.738	0.2535	0	343	4	3
2026-02-12	14:41:55.970	6.825	-14.875	-22.575	0.760792	-0.720288	-0.173728	0.0885	0.729	0.258	0	343	4	3
2026-02-12	14:41:55.990	14.175	-16.485	-16.065	0.840824	-0.644648	-0.117364	0.0795	0.726	0.255	0	343	4	3
2026-02-12	14:41:56.010	17.71	-12.74	-13.195	0.862296	-0.52704	-0.062708	0.081	0.723	0.264	0	341	2	3
2026-02-12	14:41:56.030	16.765	-7.665	-13.615	0.891332	-0.455548	-0.006344	0.0885	0.7215	0.2595	0	341	2	3
2026-02-12	14:41:56.050	11.34	-1.925	-19.285	0.997472	-0.505324	0.053192	0.0855	0.7275	0.2595	0	341	2	3
2026-02-12	14:41:56.070	3.15	6.44	-26.145	1.021384	-0.472384	0.001464	0.0825	0.7155	0.264	0	341	2	3
2026-02-12	14:41:56.090	-5.355	12.285	-25.27	1.186084	-0.5612	-0.014152	0.0855	0.711	0.2595	0	341	2	3
2026-02-12	14:41:56.110	-17.045	20.58	-13.23	1.340292	-0.67588	-0.083692	0.075	0.7065	0.2535	0	341	2	3
2026-02-12	14:41:56.130	-25.515	31.64	-1.015	1.297592	-0.635376	-0.15982	0.075	0.717	0.249	0	341	2	3
2026-02-12	14:41:56.150	-30.905	33.775	9.975	1.176568	-0.500444	-0.148352	0.075	0.711	0.2475	0	341	2	3
2026-02-12	14:41:56.170	-29.82	32.06	14.805	1.031876	-0.406504	-0.093452	0.075	0.7065	0.2475	0	341	2	3
2026-02-12	14:41:56.190	-18.83	28.98	23.415	1.008452	-0.254736	0.034892	0.078	0.714	0.249	0	341	2	3
2026-02-12	14:41:56.210	-17.535	30.065	34.58	1.068232	-0.168604	0.124196	0.075	0.711	0.2355	0	336	14	3
2026-02-12	14:41:56.230	-22.855	33.46	44.03	1.100684	-0.119072	0.09516	0.081	0.717	0.2325	0	336	14	3
2026-02-12	14:41:56.250	-35.595	33.88	53.41	1.136064	-0.185196	0.03172	0.078	0.717	0.2235	0	336	14	3
2026-02-12	14:41:56.270	-53.585	34.37	63.385	1.104588	-0.279868	-0.05002	0.075	0.7305	0.225	0	336	14	3
2026-02-12	14:41:56.290	-79.17	37.17	71.015	0.98942	-0.508008	-0.143228	0.075	0.7305	0.2145	0	336	14	3
2026-02-12	14:41:56.310	-78.785	35.77	75.6	0.921344	-0.596092	-0.115656	0.075	0.7425	0.222	0	336	14	3
2026-02-12	14:41:56.330	-66.395	34.93	77.21	0.833504	-0.596336	-0.031232	0.081	0.7515	0.213	0	336	14	3
2026-02-12	14:41:56.350	-31.57	35.7	74.725	0.671244	-0.58194	0.036356	0.072	0.753	0.2115	0	336	14	3
2026-02-12	14:41:56.370	-5.565	34.44	69.475	0.606828	-0.496296	0.037088	0.0765	0.7665	0.2085	0	336	14	3
2026-02-12	14:41:56.390	8.75	32.83	64.155	0.563884	-0.421388	0.033184	0.0825	0.7815	0.207	0	336	14	3
2026-02-12	14:41:56.410	8.96	31.605	59.605	0.512644	-0.338672	0.033672	0.0855	0.7815	0.2025	0	330	21	3
2026-02-12	14:41:56.430	-2.205	30.135	52.92	0.482388	-0.322812	0.018544	0.0795	0.7965	0.1935	0	330	21	3
2026-02-12	14:41:56.450	-15.995	28.945	44.66	0.44652	-0.365756	-0.015128	0.096	0.804	0.192	0	330	21	3
2026-02-12	14:41:56.470	-22.505	26.74	32.76	0.401624	-0.387716	-0.028548	0.0855	0.813	0.1845	0	330	21	3
2026-02-12	14:41:56.490	-28.875	22.925	21.84	0.4087	-0.445544	-0.004636	0.099	0.822	0.186	0	330	21	3
2026-02-12	14:41:56.510	-63.175	15.715	14.595	0.384544	-0.528504	0.000244	0.099	0.819	0.1815	0	330	21	3
2026-02-12	14:41:56.530	-132.475	2.835	20.265	0.449692	-0.569984	0.055876	0.0945	0.8205	0.174	0	330	21	3
2026-02-12	14:41:56.550	-150.255	-7.35	19.915	0.67832	-0.78324	0.1891	0.09	0.8115	0.189	0	330	21	3
2026-02-12	14:41:56.570	-107.73	5.705	0.105	0.797636	-0.890844	0.024156	0.09	0.8115	0.189	0	330	21	3
2026-02-12	14:41:56.590	-91.315	7.105	-1.785	0.914024	-1.124108	-0.102968	0.09	0.8115	0.189	0	330	21	3
2026-02-12	14:41:56.610	-64.68	4.935	2.625	0.916708	-1.275144	-0.241316	0.0945	0.81	0.201	0	326	22	3
2026-02-12	14:41:56.630	-21.735	4.655	20.09	0.736148	-1.243424	-0.354776	0.087	0.81	0.207	0	326	22	3
2026-02-12	14:41:56.650	10.71	1.925	40.075	0.575352	-1.135332	-0.334036	0.0975	0.813	0.2025	0	326	22	3
2026-02-12	14:41:56.670	31.815	-1.085	51.975	0.555832	-1.043344	-0.15982	0.102	0.819	0.198	0	326	22	3
2026-02-12	14:41:56.690	31.675	-7.595	43.82	0.767136	-1.062132	-0.11102	0.102	0.8235	0.198	0	326	22	3
2026-02-12	14:41:56.710	-0.98	-10.045	29.68	0.840336	-1.2688	-0.200324	0.1095	0.822	0.201	0	326	22	3
2026-02-12	14:41:56.730	11.095	-14.49	9.24	1.01748	-1.185596	-0.156648	0.105	0.8355	0.198	0	326	22	3
2026-02-12	14:41:56.750	50.47	-6.405	10.605	0.893772	-0.9943	-0.226676	0.1065	0.834	0.2025	0	326	22	3
2026-02-12	14:41:56.770	89.81	-14.105	20.23	0.757864	-0.488244	-0.268644	0.105	0.837	0.192	0	326	22	3
2026-02-12	14:41:56.790	113.96	-30.45	4.83	0.859612	-0.151036	-0.016348	0.1095	0.84	0.192	0	326	22	3
2026-02-12	14:41:56.810	102.34	-35.63	-10.92	0.887428	-0.12322	0.077104	0.114	0.843	0.192	0	329	34	3
2026-02-12	14:41:56.830	69.965	-32.55	-20.3	0.806664	-0.090524	-0.0366	0.1065	0.84	0.1845	0	329	34	3
2026-02-12	14:41:56.850	43.645	-34.3	-38.115	0.779336	-0.020496	-0.107116	0.108	0.846	0.1905	0	329	34	3
2026-02-12	14:41:56.870	6.65	-37.485	-56.245	0.742492	-0.258152	-0.126148	0.111	0.834	0.186	0	329	34	3
2026-02-12	14:41:56.890	-41.3	-47.845	-66.43	0.875472	-0.583648	-0.144204	0.111	0.828	0.198	0	329	34	3
2026-02-12	14:41:56.910	-60.725	-49.07	-63.14	0.789584	-0.840092	-0.199592	0.105	0.8265	0.201	0	329	34	3
2026-02-12	14:41:56.930	-25.13	-48.545	-62.475	0.702476	-0.758596	-0.200324	0.1065	0.816	0.213	0	329	34	3
2026-02-12	14:41:56.950	11.34	-47.145	-66.395	0.630252	-0.614148	-0.16348	0.1065	0.807	0.216	0	329	34	3
2026-02-12	14:41:56.970	34.755	-47.81	-71.61	0.629032	-0.408456	-0.103944	0.1005	0.7935	0.228	0	329	34	3
2026-02-12	14:41:56.990	24.675	-43.855	-76.09	0.643428	-0.288896	-0.067588	0.099	0.7905	0.2295	0	329	34	3
2026-02-12	14:41:57.010	8.855	-42.315	-77.63	0.710284	-0.472628	-0.123708	0.096	0.774	0.2355	0	336	56	3
2026-02-12	14:41:57.030	4.375	-43.225	-73.745	0.739564	-0.741272	-0.256688	0.093	0.759	0.2415	0	336	56	3
2026-02-12	14:41:57.050	16.555	-43.575	-71.575	0.750544	-0.854976	-0.284992	0.099	0.753	0.246	0	336	56	3
2026-02-12	14:41:57.070	38.92	-43.12	-65.905	0.710528	-0.701012	-0.15372	0.096	0.753	0.2505	0	336	56	3
2026-02-12	14:41:57.090	45.43	-38.5	-62.615	0.751764	-0.507032	-0.051484	0.102	0.744	0.2565	0	336	56	3
2026-02-12	14:41:57.110	28.21	-30.94	-58.45	0.77836	-0.454084	-0.021472	0.1065	0.7335	0.2565	0	336	56	3
2026-02-12	14:41:57.130	10.325	-22.995	-55.755	0.77836	-0.46482	-0.048312	0.0945	0.7305	0.258	0	336	56	3
2026-02-12	14:41:57.150	-1.785	-18.025	-50.295	0.773968	-0.599996	-0.132248	0.1035	0.726	0.2685	0	336	56	3
2026-02-12	14:41:57.170	-3.57	-14.385	-45.43	0.738588	-0.67222	-0.219112	0.108	0.711	0.2595	0	336	56	3
2026-02-12	14:41:57.190	4.025	-12.67	-40.005	0.750544	-0.707112	-0.260348	0.1005	0.711	0.273	0	336	56	3
2026-02-12	14:41:57.210	11.34	-4.41	-27.265	0.87108	-0.593652	-0.186904	0.1005	0.711	0.273	0	340	79	2
2026-02-12	14:41:57.230	16.1	7.21	-27.475	0.882548	-0.432856	-0.169336	0.102	0.693	0.27	0	340	79	2
2026-02-12	14:41:57.250	9.905	18.69	-33.81	0.932324	-0.435052	-0.132004	0.096	0.6915	0.2745	0	340	79	2
2026-02-12	14:41:57.270	-10.465	29.12	-36.365	0.986004	-0.5124	-0.131516	0.0885	0.687	0.264	0	340	79	2
2026-02-12	14:41:57.290	-27.405	36.505	-22.365	1.194136	-0.746884	-0.19032	0.099	0.69	0.261	0	340	79	2
2026-02-12	14:41:57.310	-22.05	45.5	-8.68	1.254648	-0.818864	-0.2867	0.1035	0.678	0.258	0	340	79	2
2026-02-12	14:41:57.330	-11.83	54.32	1.89	1.246352	-0.76006	-0.364536	0.1005	0.6855	0.243	0	340	79	2
2026-02-12	14:41:57.350	-1.015	55.72	7.56	1.154608	-0.721996	-0.368684	0.0825	0.6735	0.2325	0	340	79	2
2026-02-12	14:41:57.370	9.66	49.42	12.95	1.066768	-0.53192	-0.338916	0.099	0.672	0.2295	0	340	79	2
2026-02-12	14:41:57.390	23.555	35	20.825	0.993568	-0.410896	-0.230824	0.0945	0.678	0.222	0	340	79	2
2026-02-12	14:41:57.410	48.02	19.04	27.51	0.997228	-0.2074	0.046116	0.0825	0.675	0.2235	0	341	102	3
2026-02-12	14:41:57.430	58.275	12.005	32.2	1.11264	-0.089304	0.294264	0.081	0.678	0.2205	0	341	102	3
2026-02-12	14:41:57.450	43.05	18.13	41.195	1.247084	-0.02074	0.29402	0.081	0.6825	0.2175	0	341	102	3
2026-02-12	14:41:57.470	15.4	29.785	47.81	1.161196	-0.114924	0.11956	0.0885	0.693	0.2205	0	341	102	3
2026-02-12	14:41:57.490	-12.005	33.285	51.94	1.07726	-0.214964	-0.058804	0.093	0.6975	0.216	0	341	102	3
2026-02-12	14:41:57.510	-48.895	34.51	58.1	0.998936	-0.427	-0.117852	0.096	0.7035	0.201	0	341	102	3
2026-02-12	14:41:57.530	-72.38	35.455	64.785	0.926712	-0.630496	-0.132736	0.084	0.708	0.204	0	341	102	3
2026-02-12	14:41:57.550	-66.57	33.88	71.505	0.811056	-0.707112	-0.093696	0.09	0.7215	0.195	0	341	102	3
2026-02-12	14:41:57.570	-38.22	30.345	73.325	0.700036	-0.671	-0.055876	0.0885	0.729	0.198	0	341	102	3
2026-02-12	14:41:57.590	-7.315	24.78	72.1	0.5978	-0.591456	-0.058072	0.09	0.732	0.1995	0	341	102	3
2026-02-12	14:41:57.610	20.615	16.94	67.235	0.524356	-0.454084	-0.03904	0.0975	0.7485	0.1995	0	341	109	3
2026-02-12	14:41:57.630	31.815	8.365	56.84	0.46726	-0.3294	0.043676	0.096	0.7485	0.1965	0	341	109	3
2026-02-12	14:41:57.650	27.3	5.845	46.97	0.454328	-0.324764	0.062952	0.096	0.7485	0.1965	0	341	109	3
2026-02-12	14:41:57.670	18.235	4.515	36.05	0.460428	-0.332572	0.048312	0.1065	0.7695	0.1875	0	341	109	3
2026-02-12	14:41:57.690	10.115	4.62	22.89	0.461648	-0.370392	0.047336	0.102	0.7755	0.1845	0	341	109	3
2026-02-12	14:41:57.710	6.335	4.34	8.785	0.460916	-0.428464	0.050752	0.096	0.771	0.1875	0	341	109	3
2026-02-12	14:41:57.730	5.075	3.85	-5.74	0.475312	-0.5002	0.058072	0.1005	0.7845	0.1815	0	341	109	3
2026-02-12	14:41:57.750	6.895	3.045	-16.59	0.517524	-0.581696	0.06954	0.1125	0.786	0.1845	0	341	109	3
2026-02-12	14:41:57.770	8.435	1.225	-22.82	0.637816	-0.711992	0.112972	0.096	0.777	0.1905	0	341	109	3
2026-02-12	14:41:57.790	1.365	1.82	-22.575	0.781776	-0.892552	0.186416	0.102	0.7695	0.1845	0	341	109	3
2026-02-12	14:41:57.810	-6.23	5.075	-12.18	0.909144	-1.04188	0.268888	0.1005	0.765	0.186	0	341	91	2
2026-02-12	14:41:57.830	-13.09	9.625	7.28	0.950136	-1.133868	0.144692	0.102	0.7725	0.183	0	341	91	2
2026-02-12	14:41:57.850	-5.075	6.475	26.81	0.824476	-1.159	-0.08418	0.102	0.7725	0.183	0	341	91	2
2026-02-12	14:41:57.870	4.095	2.31	24.92	0.73078	-1.097268	-0.001708	0.0945	0.771	0.183	0	341	91	2
2026-02-12	14:41:57.890	11.83	2.205	27.58	0.811544	-0.976976	0.155428	0.108	0.7665	0.1815	0	341	91	2
2026-02-12	14:41:57.910	-3.64	1.75	28.665	0.915244	-1.066524	0.166652	0.099	0.771	0.186	0	341	91	2
2026-02-12	14:41:57.930	-15.295	-0.875	24.465	1.057252	-1.221952	0.144936	0.105	0.7725	0.18	0	341	91	2
2026-02-12	14:41:57.950	10.78	-5.25	19.39	1.124108	-1.1529	-0.004148	0.1065	0.783	0.1875	0	341	91	2
2026-02-12	14:41:57.970	76.895	-3.57	28.175	0.945256	-0.787388	-0.161528	0.1155	0.783	0.183	0	341	91	2
2026-02-12	14:41:57.990	125.58	-11.9	28.98	0.960628	-0.285968	-0.101016	0.1095	0.786	0.183	0	341	91	2
2026-02-12	14:41:58.010	91.525	-34.72	24.08	0.895724	0.098088	-0.052948	0.1095	0.786	0.183	0	344	58	3
2026-02-12	14:41:58.030	66.5	-47.635	12.11	0.908412	0.082716	0.034648	0.1035	0.801	0.1755	0	344	58	3
2026-02-12	14:41:58.050	32.27	-42.98	-20.72	0.835212	0.24522	0.05246	0.1155	0.7995	0.189	0	344	58	3
2026-02-12	14:41:58.070	1.575	-34.055	-58.485	0.802516	0.07442	0.001708	0.1155	0.7995	0.189	0	344	58	3
2026-02-12	14:41:58.090	-16.1	-39.41	-85.54	0.86986	-0.264984	0.016592	0.1155	0.792	0.201	0	344	58	3
2026-02-12	14:41:58.110	-36.435	-44.065	-98.14	0.87718	-0.732	-0.063928	0.1155	0.777	0.2055	0	344	58	3
2026-02-12	14:41:58.130	-40.46	-43.155	-93.8	0.853268	-0.990884	-0.185684	0.108	0.771	0.2085	0	344	58	3
2026-02-12	14:41:58.150	-13.3	-43.435	-69.44	0.760792	-0.951112	-0.146644	0.1035	0.756	0.21	0	344	58	3
2026-02-12	14:41:58.170	25.48	-40.355	-61.81	0.738344	-0.7137	-0.012932	0.111	0.7425	0.228	0	344	58	3
2026-02-12	14:41:58.190	45.395	-39.2	-66.955	0.734684	-0.347456	0.060268	0.108	0.744	0.2265	0	344	58	3
2026-02-12	14:41:58.210	32.725	-33.53	-72.065	0.686616	-0.32452	-0.030988	0.1095	0.729	0.2325	0	353	34	3
2026-02-12	14:41:58.230	22.12	-30.695	-65.1	0.704672	-0.233996	-0.072224	0.1065	0.72	0.237	0	353	34	3
2026-02-12	14:41:58.250	-2.94	-29.575	-55.51	0.719068	-0.427244	-0.022692	0.1155	0.714	0.243	0	353	34	3
2026-02-12	14:41:58.270	-29.4	-27.195	-37.52	0.80642	-0.667828	0.062952	0.105	0.705	0.2505	0	353	34	3
2026-02-12	14:41:58.290	-24.99	-19.6	-30.765	0.797148	-0.629764	0.05734	0.117	0.696	0.252	0	353	34	3
2026-02-12	14:41:58.310	-12.32	-12.985	-27.755	0.801296	-0.564616	0.056608	0.108	0.693	0.255	0	353	34	3
2026-02-12	14:41:58.330	-5.285	-9.38	-26.215	0.820084	-0.483608	0.037332	0.1155	0.6885	0.2565	0	353	34	3
2026-02-12	14:41:58.350	-4.165	-7.56	-28.245	0.831064	-0.461648	0.001952	0.12	0.69	0.2565	0	353	34	3
2026-02-12	14:41:58.370	-7.28	-6.965	-29.82	0.821304	-0.472628	-0.044408	0.1155	0.678	0.2565	0	353	34	3
2026-02-12	14:41:58.390	-10.36	-9.87	-24.955	0.832284	-0.579988	-0.09882	0.1155	0.6765	0.2565	0	353	34	3
2026-02-12	14:41:58.410	-6.615	-12.425	-16.275	0.885476	-0.658068	-0.115168	0.1155	0.6735	0.2565	0	359	24	3
2026-02-12	14:41:58.430	3.955	-10.465	-11.165	0.93574	-0.572424	-0.092476	0.117	0.6765	0.2625	0	359	24	3
2026-02-12	14:41:58.450	4.9	-2.625	-11.27	0.89792	-0.465796	-0.048312	0.1275	0.675	0.267	0	359	24	3
2026-02-12	14:41:58.470	-3.045	2.555	-10.92	0.942572	-0.50386	0.001952	0.1125	0.6645	0.2655	0	359	24	3
2026-02-12	14:41:58.490	-17.535	11.795	-10.22	1.086532	-0.593408	0.016348	0.1125	0.6645	0.2655	0	359	24	3
2026-02-12	14:41:58.510	-23.31	21.315	-4.445	1.196332	-0.736636	0.01342	0.117	0.663	0.261	0	359	24	3
2026-02-12	14:41:58.530	-25.095	33.215	3.5	1.208288	-0.677588	-0.121268	0.129	0.6645	0.261	0	359	24	3
2026-02-12	14:41:58.550	-26.215	37.695	14.14	1.197064	-0.68686	-0.192272	0.1185	0.6555	0.252	0	359	24	3
2026-02-12	14:41:58.570	-16.52	33.6	20.58	1.1468	-0.63562	-0.17446	0.1185	0.6675	0.252	0	359	24	3
2026-02-12	14:41:58.590	1.435	26.915	21.14	1.118008	-0.46604	-0.1159	0.1155	0.666	0.2445	0	359	24	3
2026-02-12	14:41:58.610	21.245	21.14	22.89	1.13582	-0.248148	-0.024644	0.108	0.669	0.2415	0	359	24	3
2026-02-12	14:41:58.630	28.49	19.11	31.57	1.067744	-0.109068	0.060024	0.1215	0.675	0.2385	0	359	24	3
2026-02-12	14:41:58.650	19.53	21.98	33.215	1.087508	0.002196	0.137616	0.111	0.6795	0.2385	0	359	24	3
2026-02-12	14:41:58.670	-6.65	25.2	39.06	1.082384	-0.0366	0.136152	0.1155	0.6915	0.231	0	359	24	3
2026-02-12	14:41:58.690	-45.36	26.88	56.595	1.040904	-0.222772	0.052948	0.1125	0.6975	0.2265	0	359	24	3
2026-02-12	14:41:58.710	-77.07	27.195	71.26	0.94428	-0.461404	-0.030988	0.1125	0.6975	0.2265	0	359	24	3
2026-02-12	14:41:58.730	-86.45	27.895	76.02	0.836432	-0.581696	-0.048068	0.1125	0.6975	0.2205	0	359	24	3
2026-02-12	14:41:58.750	-79.17	26.25	78.4	0.780312	-0.647332	-0.014396	0.1065	0.714	0.2235	0	359	24	3
2026-02-12	14:41:58.770	-61.04	26.985	79.17	0.7015	-0.673684	0.032452	0.12	0.72	0.2145	0	359	24	3
2026-02-12	14:41:58.790	-38.57	28.035	77.98	0.630252	-0.638548	0.033672	0.105	0.726	0.219	0	359	24	3
2026-02-12	14:41:58.810	-17.535	29.435	74.025	0.5673	-0.574132	0.013908	0.1155	0.7275	0.2205	0	355	25	3
2026-02-12	14:41:58.830	-6.02	30.38	69.16	0.51362	-0.527528	-0.001952	0.1065	0.738	0.2175	0	355	25	3
2026-02-12	14:41:58.850	1.82	29.505	62.02	0.502152	-0.475312	-0.016592	0.1155	0.747	0.207	0	355	25	3
2026-02-12	14:41:58.870	7.735	29.365	53.06	0.467016	-0.422364	-0.029768	0.1155	0.762	0.204	0	355	25	3
2026-02-12	14:41:58.890	10.675	27.16	41.37	0.463844	-0.399916	-0.027328	0.1245	0.774	0.207	0	355	25	3
2026-02-12	14:41:58.910	7.07	25.095	22.19	0.452864	-0.34282	0.032452	0.1185	0.7725	0.201	0	355	25	3
2026-02-12	14:41:58.930	1.995	24.5	4.725	0.433344	-0.33184	0.112972	0.126	0.78	0.1935	0	355	25	3
2026-02-12	14:41:58.950	0.63	24.255	-12.6	0.473604	-0.370148	0.217648	0.1155	0.7785	0.1965	0	355	25	3
2026-02-12	14:41:58.970	-4.27	24.675	-23.205	0.584624	-0.541192	0.30622	0.12	0.7755	0.1935	0	355	25	3
2026-02-12	14:41:58.990	-8.61	25.48	-26.565	0.72102	-0.77104	0.300364	0.1275	0.7755	0.183	0	355	25	3
2026-02-12	14:41:59.010	-16.485	25.34	-29.68	0.853268	-1.053348	0.203984	0.1155	0.7785	0.1815	0	350	16	2
2026-02-12	14:41:59.030	-26.985	22.82	-17.64	0.930616	-1.208044	0.082228	0.1185	0.765	0.1725	0	350	16	2
2026-02-12	14:41:59.050	-31.255	12.88	0.105	0.864004	-1.282952	-0.069296	0.1185	0.771	0.1725	0	350	16	2
2026-02-12	14:41:59.070	-19.635	-3.64	17.255	0.723216	-1.329068	-0.057584	0.1125	0.768	0.171	0	350	16	2
2026-02-12	14:41:59.090	-4.935	-15.47	30.94	0.669048	-1.3237	0.031476	0.1125	0.7695	0.1725	0	350	16	2
2026-02-12	14:41:59.110	19.215	-20.02	42	0.73444	-1.162172	0.167628	0.1125	0.765	0.1785	0	350	16	2
2026-02-12	14:41:59.130	2.03	-15.785	44.205	0.804468	-1.355664	0.056364	0.117	0.78	0.1785	0	350	16	2
2026-02-12	14:41:59.150	37.415	-21.77	44.52	0.93574	-1.249036	0.063684	0.1215	0.78	0.1875	0	350	16	2
2026-02-12	14:41:59.170	82.67	-25.795	47.39	1.083848	-0.86986	-0.109556	0.129	0.7875	0.18	0	350	16	2
2026-02-12	14:41:59.190	94.255	-30.24	42.805	1.122644	-0.370392	-0.09857599	0.1335	0.795	0.18	0	350	16	2
2026-02-12	14:41:59.210	105.14	-36.575	33.215	1.083116	-0.010736	0.053436	0.1275	0.804	0.189	0	351	2	3
2026-02-12	14:41:59.230	86.205	-37.765	17.395	1.01626	0.193248	0.125416	0.1335	0.816	0.18	0	351	2	3
2026-02-12	14:41:59.250	51.45	-35.035	-9.31	0.89426	0.270352	0.161772	0.126	0.816	0.183	0	351	2	3
2026-02-12	14:41:59.270	9.555	-30.38	-31.99	0.830088	0.166408	0.099796	0.129	0.807	0.189	0	351	2	3
2026-02-12	14:41:59.290	-27.895	-27.58	-52.675	0.788608	-0.12688	0.00122	0.1275	0.8085	0.189	0	351	2	3
2026-02-12	14:41:59.310	-59.43	-32.935	-70.735	0.830088	-0.5856	-0.046848	0.135	0.7995	0.201	0	351	2	3
2026-02-12	14:41:59.330	-55.86	-34.44	-76.3	0.784948	-1.019432	-0.1647	0.1275	0.7905	0.1965	0	351	2	3
2026-02-12	14:41:59.350	-5.425	-34.02	-65.555	0.7137	-0.914512	-0.11834	0.1245	0.7845	0.207	0	351	2	3
2026-02-12	14:41:59.370	30.345	-35.49	-57.715	0.624152	-0.662216	-0.053436	0.126	0.7665	0.2055	0	351	2	3
2026-02-12	14:41:59.390	43.995	-39.97	-55.965	0.628544	-0.456768	0.019764	0.132	0.7605	0.2115	0	351	2	3
2026-02-12	14:41:59.410	36.785	-40.215	-56.105	0.664656	-0.316224	0.0549	0.1155	0.7635	0.2265	0	360	14	3
2026-02-12	14:41:59.430	15.4	-38.605	-57.96	0.703696	-0.330132	0.047336	0.1245	0.7515	0.222	0	360	14	3
2026-02-12	14:41:59.450	-5.04	-37.765	-56.455	0.734196	-0.4392	-0.005612	0.12	0.75	0.2265	0	360	14	3
2026-02-12	14:41:59.470	-17.57	-37.94	-54.145	0.738832	-0.551684	-0.021228	0.117	0.7395	0.237	0	360	14	3
2026-02-12	14:41:59.490	-20.265	-36.155	-50.155	0.709552	-0.615368	0.039772	0.123	0.7275	0.237	0	360	14	3
2026-02-12	14:41:59.510	-20.51	-30.625	-44.765	0.697108	-0.668072	0.08686399	0.117	0.723	0.24	0	360	14	3
2026-02-12	14:41:59.530	-19.18	-23.1	-39.655	0.703452	-0.70638	0.088816	0.1185	0.7125	0.243	0	360	14	3
2026-02-12	14:41:59.550	-10.255	-15.225	-31.71	0.75762	-0.765916	0.000732	0.1215	0.708	0.249	0	360	14	3
2026-02-12	14:41:59.570	-5.74	-12.215	-27.09	0.749324	-0.7808	-0.064904	0.12	0.7035	0.249	0	360	14	3
2026-02-12	14:41:59.590	-2.905	-8.925	-24.15	0.710528	-0.763232	-0.138104	0.126	0.7065	0.249	0	360	14	3
2026-02-12	14:41:59.610	6.545	-10.185	-21.245	0.775432	-0.712724	-0.105408	0.1185	0.708	0.255	0	367	16	3
2026-02-12	14:41:59.630	15.365	-7.63	-20.23	0.83326	-0.597312	-0.032452	0.129	0.702	0.258	0	367	16	3
2026-02-12	14:41:59.650	16.415	-1.68	-19.425	0.842288	-0.45262	-0.012444	0.1245	0.7005	0.264	0	367	16	3
2026-02-12	14:41:59.670	9.52	3.43	-20.405	0.872788	-0.41846	0.02806	0.1215	0.696	0.2535	0	367	16	3
2026-02-12	14:41:59.690	-1.82	7.665	-22.715	0.991372	-0.566812	0.047092	0.126	0.6915	0.2505	0	367	16	3
2026-02-12	14:41:59.710	-12.635	13.895	-24.08	1.085068	-0.643428	-0.037332	0.1155	0.6975	0.252	0	367	16	3
2026-02-12	14:41:59.730	-18.34	17.78	-17.605	1.244156	-0.759328	-0.01952	0.1245	0.6915	0.2505	0	367	16	3
2026-02-12	14:41:59.750	-27.825	28.07	-8.295	1.326872	-0.757376	-0.061	0.1185	0.6915	0.255	0	367	16	3
2026-02-12	14:41:59.770	-24.605	43.715	10.43	1.25416	-0.69784	-0.139568	0.123	0.678	0.246	0	367	16	3
2026-02-12	14:41:59.790	-18.62	43.785	9.765	1.087264	-0.446276	-0.186904	0.1155	0.684	0.246	0	367	16	3
2026-02-12	14:41:59.810	-11.935	33.81	0.175	0.973804	-0.415532	-0.148596	0.117	0.6795	0.237	0	370	9	3
2026-02-12	14:41:59.830	-1.295	23.485	-6.265	0.990396	-0.248148	0.012688	0.1155	0.684	0.225	0	370	9	3
2026-02-12	14:41:59.850	-6.37	22.68	8.155	1.047492	-0.19154	0.155428	0.114	0.678	0.2265	0	370	9	3
2026-02-12	14:41:59.870	-17.885	28.35	21	1.059936	-0.137372	0.162992	0.1095	0.681	0.2235	0	370	9	3
2026-02-12	14:41:59.890	-31.43	29.12	32.655	1.06506	-0.260836	0.098332	0.105	0.69	0.219	0	370	9	3
2026-02-12	14:41:59.910	-45.99	28.595	45.99	1.020164	-0.37698	0.021228	0.1035	0.6825	0.213	0	370	9	3
2026-02-12	14:41:59.930	-61.915	27.93	57.4	0.96258	-0.549732	-0.059292	0.1065	0.6825	0.2085	0	370	9	3
2026-02-12	14:41:59.950	-65.73	28.945	63.49	0.884256	-0.6161	-0.044652	0.1095	0.687	0.198	0	370	9	3
2026-02-12	14:41:59.970	-47.845	30.275	68.985	0.795196	-0.644892	-0.002196	0.1065	0.6975	0.2025	0	370	9	3
2026-02-12	14:41:59.990	-16.1	30.45	70.455	0.673196	-0.535336	-0.007564	0.105	0.705	0.2025	0	370	9	3
2026-02-12	14:42:00.010	6.895	26.495	67.305	0.593164	-0.45262	-0.026108	0.1065	0.7125	0.1905	0	368	1	3
2026-02-12	14:42:00.030	20.755	20.79	61.67	0.528504	-0.357704	-0.026352	0.1005	0.7275	0.1995	0	368	1	3
2026-02-12	14:42:00.050	25.2	14.875	53.9	0.495076	-0.30378	-0.010248	0.1005	0.726	0.1875	0	368	1	3
2026-02-12	14:42:00.070	20.37	10.43	44.765	0.498736	-0.266936	0.034648	0.1065	0.7335	0.1875	0	368	1	3
2026-02-12	14:42:00.090	7.875	10.36	31.99	0.509228	-0.264008	0.062708	0.108	0.7395	0.18	0	368	1	3
2026-02-12	14:42:00.110	-8.4	12.705	18.025	0.492636	-0.27694	0.054656	0.108	0.7485	0.18	0	368	1	3
2026-02-12	14:42:00.130	-25.515	15.26	6.895	0.468968	-0.36112	0.077836	0.111	0.75	0.1785	0	368	1	3
2026-02-12	14:42:00.150	-34.72	17.605	-4.41	0.479216	-0.45384	0.116388	0.1005	0.753	0.177	0	368	1	3
2026-02-12	14:42:00.170	-37.45	20.265	-14.7	0.5612	-0.563152	0.170556	0.099	0.762	0.18	0	368	1	3
2026-02-12	14:42:00.190	-36.26	27.37	-16.555	0.7015	-0.815936	0.242292	0.1035	0.7515	0.1785	0	368	1	3
2026-02-12	14:42:00.210	-42.63	31.255	-13.51	0.72834	-0.985028	0.143716	0.102	0.7455	0.168	0	364	2	3
2026-02-12	14:42:00.230	-49.035	23.66	-6.16	0.820328	-1.11142	0.068564	0.1005	0.7425	0.1635	0	364	2	3
2026-02-12	14:42:00.250	-52.185	12.67	7.875	0.888892	-1.453752	-0.103456	0.1035	0.738	0.1575	0	364	2	3
2026-02-12	14:42:00.270	-22.785	1.96	24.955	0.815204	-1.296128	-0.094184	0.0975	0.744	0.162	0	364	2	3
2026-02-12	14:42:00.290	-0.945	-2.73	28.42	0.711504	-1.146068	-0.011468	0.1005	0.747	0.162	0	364	2	3
2026-02-12	14:42:00.310	25.27	-11.06	34.02	0.777872	-0.91012	0.147132	0.099	0.7425	0.159	0	364	2	3
2026-02-12	14:42:00.330	9.205	-16.1	32.34	0.905728	-1.116544	-0.030012	0.108	0.753	0.1635	0	364	2	3
2026-02-12	14:42:00.350	17.185	-26.25	26.88	0.996008	-1.125084	-0.059048	0.0975	0.7575	0.162	0	364	2	3
2026-02-12	14:42:00.370	66.29	-34.23	26.04	1.105808	-0.790316	0.026108	0.105	0.765	0.162	0	364	2	3
2026-02-12	14:42:00.390	79.24	-33.005	26.775	1.021384	-0.633424	0.002196	0.102	0.771	0.1725	0	364	2	3
2026-02-12	14:42:00.410	100.1	-43.155	27.755	1.118984	-0.074664	0.085156	0.1065	0.765	0.1695	0	362	10	3
2026-02-12	14:42:00.430	86.415	-43.89	16.1	0.964288	0.033184	0.035136	0.105	0.7785	0.1695	0	362	10	3
2026-02-12	14:42:00.450	53.13	-40.95	-7.245	0.915244	0.014152	0.007564	0.111	0.7845	0.1755	0	362	10	3
2026-02-12	14:42:00.470	30.975	-36.68	-34.055	0.852292	-0.116388	0.009516	0.1035	0.78	0.174	0	362	10	3
2026-02-12	14:42:00.490	8.68	-35.665	-54.915	0.80276	-0.343064	-0.007808	0.105	0.7845	0.1815	0	362	10	3
2026-02-12	14:42:00.510	-7.595	-38.535	-72.59	0.83692	-0.683688	-0.136152	0.114	0.774	0.189	0	362	10	3
2026-02-12	14:42:00.530	-7.595	-42.455	-72.555	0.762012	-0.90768	-0.184708	0.1035	0.7755	0.1935	0	362	10	3
