yyyy-MM-dd	HH:mm:ss.fff	gyrX	gyrY	gyrZ	accX	accY	accZ	magX	magY	magZ	Marker	Energy	Angle	Classification
2026-02-12	14:41:31.210	-302.225	-146.055	191.38	1.191208	0.325252	0.24278	-0.2655	0.057	0.3045	0	277	222	3
2026-02-12	14:41:31.230	-342.51	-153.615	180.145	1.247084	0.439444	0.2745	-0.264	0.09	0.315	0	277	222	3
2026-02-12	14:41:31.250	-389.165	-154.945	156.065	1.219756	0.396256	0.354288	-0.2625	0.126	0.351	0	277	222	3
2026-02-12	14:41:31.270	-380.555	-148.715	120.015	1.155096	0.114192	0.46116	-0.2625	0.1515	0.375	0	277	222	3
2026-02-12	14:41:31.290	-313.39	-130.83	88.655	1.145092	-0.056608	0.454084	-0.255	0.1725	0.4065	0	277	222	3
2026-02-12	14:41:31.310	-221.445	-109.445	66.885	1.177056	-0.119804	0.432612	-0.2565	0.1725	0.432	0	277	222	3
2026-02-12	14:41:31.330	-130.2	-83.23	52.99	1.224148	-0.188856	0.619272	-0.249	0.1785	0.462	0	277	222	3
2026-02-12	14:41:31.350	-36.575	-45.185	43.085	1.223416	-0.328668	0.656848	-0.2535	0.195	0.4785	0	277	222	3
2026-02-12	14:41:31.370	66.885	-7.42	35.91	1.131428	-0.25986	0.50142	-0.2385	0.186	0.4815	0	277	222	3
2026-02-12	14:41:31.390	142.905	16.8	27.755	1.060912	-0.094916	0.4575	-0.24	0.2055	0.4875	0	277	222	3
2026-02-12	14:41:31.410	207.165	40.285	13.16	1.083604	0.043432	0.594384	-0.2475	0.2115	0.4785	0	289	217	3
2026-02-12	14:41:31.430	287.385	78.085	-11.725	1.080432	0.0793	0.525332	-0.246	0.225	0.4695	0	289	217	3
2026-02-12	14:41:31.450	366.94	109.41	-42.91	1.009672	0.27328	0.353068	-0.2445	0.222	0.4425	0	289	217	3
2026-02-12	14:41:31.470	390.845	118.545	-69.965	1.020652	0.43066	0.319884	-0.2415	0.2235	0.399	0	289	217	3
2026-02-12	14:41:31.490	384.72	120.54	-97.895	1.049688	0.532652	0.313784	-0.2445	0.2205	0.3645	0	289	217	3
2026-02-12	14:41:31.510	365.015	117.775	-126.14	1.050176	0.552416	0.288896	-0.249	0.1965	0.3345	0	289	217	3
2026-02-12	14:41:31.530	347.865	111.51	-151.445	1.032852	0.483364	0.277672	-0.2535	0.165	0.303	0	289	217	3
2026-02-12	14:41:31.550	334.145	99.82	-171.885	1.037488	0.506544	0.201056	-0.2535	0.138	0.2805	0	289	217	3
2026-02-12	14:41:31.570	304.885	80.15	-184.73	1.032852	0.536556	0.20618	-0.249	0.1035	0.2655	0	289	217	3
2026-02-12	14:41:31.590	264.635	59.99	-190.365	1.049444	0.50752	0.250344	-0.243	0.0615	0.2505	0	289	217	3
2026-02-12	14:41:31.610	223.685	47.635	-188.685	1.013576	0.444324	0.219356	-0.2445	0.0225	0.252	0	299	241	3
2026-02-12	14:41:31.630	195.475	37.24	-180.005	0.954528	0.354532	0.115412	-0.2385	-0.0105	0.258	0	299	241	3
2026-02-12	14:41:31.650	170.415	25.095	-165.69	0.897432	0.335744	0.00488	-0.2265	-0.0285	0.2595	0	299	241	3
2026-02-12	14:41:31.670	147.07	12.81	-147.28	0.859124	0.311832	-0.066124	-0.2265	-0.0285	0.2595	0	299	241	3
2026-02-12	14:41:31.690	125.86	2.135	-125.37	0.80764	0.219112	-0.090036	-0.2175	-0.093	0.255	0	299	241	3
2026-02-12	14:41:31.710	102.585	-11.13	-80.99	0.727852	0.117364	-0.080764	-0.2175	-0.093	0.255	0	299	241	3
2026-02-12	14:41:31.730	81.2	-18.095	-48.755	0.7137	0.179584	0.009272	-0.201	-0.12	0.27	0	299	241	3
2026-02-12	14:41:31.750	45.29	-19.95	-15.785	0.694668	0.166164	0.078324	-0.189	-0.15	0.2895	0	299	241	3
2026-02-12	14:41:31.770	1.96	-17.815	19.635	0.683932	0.193736	0.070516	-0.192	-0.1545	0.294	0	299	241	3
2026-02-12	14:41:31.790	-41.195	-17.955	52.99	0.70638	0.261568	0.066612	-0.192	-0.156	0.2985	0	299	241	3
2026-02-12	14:41:31.810	-74.69	-16.31	81.235	0.722728	0.257664	0.033428	-0.1965	-0.15	0.3	0	307	241	3
2026-02-12	14:41:31.830	-90.125	-14.49	106.54	0.750056	0.304512	-0.001952	-0.2055	-0.138	0.3015	0	307	241	3
2026-02-12	14:41:31.850	-105.245	-16.345	132.335	0.817888	0.366488	-0.005368	-0.2085	-0.123	0.2985	0	307	241	3
2026-02-12	14:41:31.870	-123.76	-19.53	155.96	0.895968	0.450668	0.02196	-0.213	-0.102	0.2925	0	307	241	3
2026-02-12	14:41:31.890	-134.54	-22.715	173.495	0.962824	0.46116	0.02562	-0.225	-0.0765	0.285	0	307	241	3
2026-02-12	14:41:31.910	-130.585	-27.545	183.645	1.0248	0.54778	0.031232	-0.234	-0.0465	0.2805	0	307	241	3
2026-02-12	14:41:31.930	-146.93	-38.045	192.325	1.041392	0.592676	0.025376	-0.2355	-0.0165	0.279	0	307	241	3
2026-02-12	14:41:31.950	-182.28	-50.855	194.775	1.083848	0.733708	0.266936	-0.246	0.0135	0.282	0	307	241	3
2026-02-12	14:41:31.970	-243.285	-52.885	178.85	1.126548	0.774944	0.4087	-0.258	0.048	0.291	0	307	241	3
2026-02-12	14:41:31.990	-245.385	-52.255	147.14	1.082872	0.5612	0.314272	-0.261	0.0675	0.2955	0	307	241	3
2026-02-12	14:41:30.010	314.44	133.175	-63.385	1.062132	0.422608	0.456036	-0.2595	0.1695	0.3915	0	245	195	3
2026-02-12	14:41:30.030	307.825	138.6	-81.725	1.080676	0.434076	0.488244	-0.2625	0.162	0.3675	0	245	195	3
2026-02-12	14:41:30.050	306.46	146.79	-103.215	1.08946	0.382836	0.465796	-0.2655	0.153	0.33	0	245	195	3
2026-02-12	14:41:30.070	313.67	151.62	-123.62	1.01748	0.442616	0.33062	-0.2595	0.132	0.3045	0	245	195	3
2026-02-12	14:41:30.090	307.79	134.995	-147.035	0.90646	0.484828	0.183732	-0.2565	0.114	0.294	0	245	195	3
2026-02-12	14:41:30.110	302.645	115.22	-156.415	0.85644	0.499712	0.155672	-0.2565	0.114	0.294	0	245	195	3
2026-02-12	14:41:30.130	293.895	92.715	-159.775	0.814228	0.49776	0.14884	-0.2385	0.021	0.24	0	245	195	3
2026-02-12	14:41:30.150	279.825	70.455	-156.24	0.765428	0.481656	0.107848	-0.2295	-0.018	0.234	0	245	195	3
2026-02-12	14:41:30.170	263.06	48.3	-146.58	0.723216	0.4514	0.009272	-0.225	-0.0435	0.231	0	245	195	3
2026-02-12	14:41:30.190	241.115	25.585	-128.835	0.68198	0.44774	-0.022936	-0.2085	-0.0795	0.246	0	245	195	3
2026-02-12	14:41:30.210	201.565	6.58	-106.33	0.6893	0.494344	0.026596	-0.207	-0.1095	0.258	0	234	235	3
2026-02-12	14:41:30.230	147.21	-4.13	-80.325	0.711992	0.434808	0.0732	-0.201	-0.132	0.2745	0	234	235	3
2026-02-12	14:41:30.250	91.56	-8.435	-50.12	0.739564	0.329644	0.084668	-0.186	-0.147	0.288	0	234	235	3
2026-02-12	14:41:30.270	37.94	-9.135	-18.095	0.703452	0.316956	0.08174	-0.1845	-0.156	0.288	0	234	235	3
2026-02-12	14:41:30.290	-22.505	-10.185	13.3	0.684664	0.29036	0.074176	-0.1875	-0.1605	0.2985	0	234	235	3
2026-02-12	14:41:30.310	-77.7	-11.97	44.765	0.688812	0.305	0.031476	-0.183	-0.159	0.297	0	234	235	3
2026-02-12	14:41:30.330	-126.805	-17.43	73.71	0.724192	0.342088	-0.014152	-0.189	-0.153	0.288	0	234	235	3
2026-02-12	14:41:30.350	-175.945	-31.325	104.86	0.756156	0.3233	-0.065148	-0.1995	-0.132	0.279	0	234	235	3
2026-02-12	14:41:30.370	-210	-53.55	134.085	0.804956	0.253028	-0.102968	-0.1995	-0.132	0.279	0	234	235	3
2026-02-12	14:41:30.390	-225.015	-76.58	155.225	0.86986	0.238388	-0.110776	-0.216	-0.1005	0.27	0	234	235	3
2026-02-12	14:41:30.410	-245.805	-101.535	173.81	0.960872	0.271328	-0.059048	-0.2355	-0.054	0.261	0	233	234	3
2026-02-12	14:41:30.430	-276.5	-130.515	188.3	1.085312	0.297924	0.034892	-0.2445	-0.0195	0.267	0	233	234	3
2026-02-12	14:41:30.450	-313.915	-154.385	194.46	1.19316	0.377712	0.171776	-0.252	-0.003	0.273	0	233	234	3
2026-02-12	14:41:30.470	-367.29	-173.075	190.575	1.241716	0.45506	0.289628	-0.2565	0.0345	0.282	0	233	234	3
2026-02-12	14:41:30.490	-434.77	-186.095	172.83	1.239764	0.505324	0.361852	-0.264	0.0795	0.3135	0	233	234	3
2026-02-12	14:41:30.510	-492.45	-192.5	140.805	1.198528	0.421876	0.295972	-0.264	0.117	0.3465	0	233	234	3
2026-02-12	14:41:30.530	-480.585	-193.725	96.915	1.1773	0.137128	0.244244	-0.264	0.147	0.3765	0	233	234	3
2026-02-12	14:41:30.550	-410.935	-175.07	53.97	1.182912	0.021472	0.375028	-0.264	0.156	0.4185	0	233	234	3
2026-02-12	14:41:30.570	-326.305	-142.1	23.625	1.127036	-0.156648	0.364292	-0.255	0.162	0.4455	0	233	234	3
2026-02-12	14:41:30.590	-218.435	-112.14	4.795	1.124108	-0.399428	0.301828	-0.258	0.156	0.4785	0	233	234	3
2026-02-12	14:41:30.610	-61.075	-77.735	-0.595	1.119716	-0.46726	0.426024	-0.243	0.147	0.495	0	238	216	3
2026-02-12	14:41:30.630	91.7	-20.755	8.225	1.145336	-0.22814	0.647576	-0.2445	0.138	0.5175	0	238	216	3
2026-02-12	14:41:30.650	143.815	12.74	12.145	1.095072	-0.136152	0.609512	-0.243	0.1395	0.5145	0	238	216	3
2026-02-12	14:41:30.670	185.64	40.81	11.76	1.047248	0.022204	0.598044	-0.243	0.15	0.5115	0	238	216	3
2026-02-12	14:41:30.690	215.145	66.64	8.995	1.066524	0.044652	0.667584	-0.2445	0.1635	0.5055	0	238	216	3
2026-02-12	14:41:30.710	255.85	94.29	0.665	1.066768	0.090036	0.550708	-0.2415	0.1725	0.4935	0	238	216	3
2026-02-12	14:41:30.730	287.315	114.065	-12.775	1.01748	0.243512	0.421144	-0.2415	0.183	0.4755	0	238	216	3
2026-02-12	14:41:30.750	294.175	125.16	-32.2	1.02602	0.38186	0.42944	-0.249	0.1965	0.453	0	238	216	3
2026-02-12	14:41:30.770	309.33	135.415	-60.305	1.0797	0.394792	0.346236	-0.255	0.198	0.426	0	238	216	3
2026-02-12	14:41:30.790	333.865	141.68	-91.21	1.108492	0.39406	0.233752	-0.255	0.1905	0.3885	0	238	216	3
2026-02-12	14:41:30.810	344.925	137.235	-119.7	1.075308	0.411872	0.208864	-0.2595	0.1755	0.36	0	250	231	3
2026-02-12	14:41:30.830	336.7	126.77	-147.105	1.082384	0.493124	0.183732	-0.2655	0.1545	0.3345	0	250	231	3
2026-02-12	14:41:30.850	321.405	110.25	-169.33	1.085312	0.539728	0.124684	-0.2625	0.1275	0.3105	0	250	231	3
2026-02-12	14:41:30.870	293.545	89.74	-183.155	1.081164	0.544364	0.104676	-0.2565	0.0915	0.2925	0	250	231	3
2026-02-12	14:41:30.890	237.615	67.375	-188.545	1.081408	0.529724	0.152744	-0.2505	0.0525	0.2775	0	250	231	3
2026-02-12	14:41:30.910	174.93	49.665	-184.1	1.033096	0.426512	0.07515199	-0.249	0.0345	0.2745	0	250	231	3
2026-02-12	14:41:30.930	137.095	34.685	-173.285	0.986492	0.356972	-0.001464	-0.231	-0.039	0.2745	0	250	231	3
2026-02-12	14:41:30.950	108.535	19.705	-158.585	0.935008	0.325984	-0.047092	-0.228	-0.0675	0.27	0	250	231	3
2026-02-12	14:41:30.970	78.925	5.495	-140	0.892552	0.281088	-0.039284	-0.2235	-0.0825	0.2715	0	250	231	3
2026-02-12	14:41:30.990	45.08	-4.725	-114.1	0.848876	0.139568	0.000488	-0.21	-0.1095	0.285	0	250	231	3
2026-02-12	14:41:31.010	13.125	-10.22	-78.82	0.75762	0.025376	0.050752	-0.2055	-0.1305	0.282	0	264	242	3
2026-02-12	14:41:31.030	-33.39	-11.795	-36.05	0.61854	0.00122	0.055144	-0.195	-0.1365	0.282	0	264	242	3
2026-02-12	14:41:31.050	-78.365	-19.775	7.665	0.553392	0.096136	-0.009516	-0.189	-0.141	0.2805	0	264	242	3
2026-02-12	14:41:31.070	-108.675	-32.305	44.205	0.621224	0.183244	-0.06734399	-0.189	-0.141	0.2805	0	264	242	3
2026-02-12	14:41:31.090	-134.19	-48.16	81.165	0.708088	0.127124	-0.073932	-0.195	-0.1305	0.2745	0	264	242	3
2026-02-12	14:41:31.110	-161.525	-64.68	120.085	0.772992	0.04514	-0.033672	-0.207	-0.114	0.267	0	264	242	3
2026-02-12	14:41:31.130	-191.275	-82.075	156.38	0.861076	0.125416	0.034404	-0.216	-0.099	0.261	0	264	242	3
2026-02-12	14:41:31.150	-226.905	-100.205	181.23	0.998692	0.28426	0.1098	-0.225	-0.0735	0.27	0	264	242	3
2026-02-12	14:41:31.170	-271.075	-121.87	195.51	1.093852	0.336232	0.162504	-0.231	-0.057	0.282	0	264	242	3
2026-02-12	14:41:31.190	-287.21	-134.715	196.105	1.144116	0.304512	0.19642	-0.2535	0.012	0.282	0	264	242	3
2026-02-12	14:41:31.210	-302.225	-146.055	191.38	1.191208	0.325252	0.24278	-0.2655	0.057	0.3045	0	277	222	3
2026-02-12	14:41:31.230	-342.51	-153.615	180.145	1.247084	0.439444	0.2745	-0.264	0.09	0.315	0	277	222	3
2026-02-12	14:41:31.250	-389.165	-154.945	156.065	1.219756	0.396256	0.354288	-0.2625	0.126	0.351	0	277	222	3
2026-02-12	14:41:31.270	-380.555	-148.715	120.015	1.155096	0.114192	0.46116	-0.2625	0.1515	0.375	0	277	222	3
2026-02-12	14:41:31.290	-313.39	-130.83	88.655	1.145092	-0.056608	0.454084	-0.255	0.1725	0.4065	0	277	222	3
2026-02-12	14:41:31.310	-221.445	-109.445	66.885	1.177056	-0.119804	0.432612	-0.2565	0.1725	0.432	0	277	222	3
2026-02-12	14:41:31.330	-130.2	-83.23	52.99	1.224148	-0.188856	0.619272	-0.249	0.1785	0.462	0	277	222	3
2026-02-12	14:41:31.350	-36.575	-45.185	43.085	1.223416	-0.328668	0.656848	-0.2535	0.195	0.4785	0	277	222	3
2026-02-12	14:41:31.370	66.885	-7.42	35.91	1.131428	-0.25986	0.50142	-0.2385	0.186	0.4815	0	277	222	3
2026-02-12	14:41:31.390	142.905	16.8	27.755	1.060912	-0.094916	0.4575	-0.24	0.2055	0.4875	0	277	222	3
2026-02-12	14:41:31.410	207.165	40.285	13.16	1.083604	0.043432	0.594384	-0.2475	0.2115	0.4785	0	289	217	3
2026-02-12	14:41:31.430	287.385	78.085	-11.725	1.080432	0.0793	0.525332	-0.246	0.225	0.4695	0	289	217	3
2026-02-12	14:41:31.450	366.94	109.41	-42.91	1.009672	0.27328	0.353068	-0.2445	0.222	0.4425	0	289	217	3
2026-02-12	14:41:31.470	390.845	118.545	-69.965	1.020652	0.43066	0.319884	-0.2415	0.2235	0.399	0	289	217	3
2026-02-12	14:41:31.490	384.72	120.54	-97.895	1.049688	0.532652	0.313784	-0.2445	0.2205	0.3645	0	289	217	3
2026-02-12	14:41:31.510	365.015	117.775	-126.14	1.050176	0.552416	0.288896	-0.249	0.1965	0.3345	0	289	217	3
2026-02-12	14:41:31.530	347.865	111.51	-151.445	1.032852	0.483364	0.277672	-0.2535	0.165	0.303	0	289	217	3
2026-02-12	14:41:31.550	334.145	99.82	-171.885	1.037488	0.506544	0.201056	-0.2535	0.138	0.2805	0	289	217	3
2026-02-12	14:41:31.570	304.885	80.15	-184.73	1.032852	0.536556	0.20618	-0.249	0.1035	0.2655	0	289	217	3
2026-02-12	14:41:31.590	264.635	59.99	-190.365	1.049444	0.50752	0.250344	-0.243	0.0615	0.2505	0	289	217	3
2026-02-12	14:41:31.610	223.685	47.635	-188.685	1.013576	0.444324	0.219356	-0.2445	0.0225	0.252	0	299	241	3
2026-02-12	14:41:31.630	195.475	37.24	-180.005	0.954528	0.354532	0.115412	-0.2385	-0.0105	0.258	0	299	241	3
2026-02-12	14:41:31.650	170.415	25.095	-165.69	0.897432	0.335744	0.00488	-0.2265	-0.0285	0.2595	0	299	241	3
2026-02-12	14:41:31.670	147.07	12.81	-147.28	0.859124	0.311832	-0.066124	-0.2265	-0.0285	0.2595	0	299	241	3
2026-02-12	14:41:31.690	125.86	2.135	-125.37	0.80764	0.219112	-0.090036	-0.2175	-0.093	0.255	0	299	241	3
2026-02-12	14:41:31.710	102.585	-11.13	-80.99	0.727852	0.117364	-0.080764	-0.2175	-0.093	0.255	0	299	241	3
2026-02-12	14:41:31.730	81.2	-18.095	-48.755	0.7137	0.179584	0.009272	-0.201	-0.12	0.27	0	299	241	3
2026-02-12	14:41:31.750	45.29	-19.95	-15.785	0.694668	0.166164	0.078324	-0.189	-0.15	0.2895	0	299	241	3
2026-02-12	14:41:31.770	1.96	-17.815	19.635	0.683932	0.193736	0.070516	-0.192	-0.1545	0.294	0	299	241	3
2026-02-12	14:41:31.790	-41.195	-17.955	52.99	0.70638	0.261568	0.066612	-0.192	-0.156	0.2985	0	299	241	3
2026-02-12	14:41:31.810	-74.69	-16.31	81.235	0.722728	0.257664	0.033428	-0.1965	-0.15	0.3	0	307	241	3
2026-02-12	14:41:31.830	-90.125	-14.49	106.54	0.750056	0.304512	-0.001952	-0.2055	-0.138	0.3015	0	307	241	3
2026-02-12	14:41:31.850	-105.245	-16.345	132.335	0.817888	0.366488	-0.005368	-0.2085	-0.123	0.2985	0	307	241	3
2026-02-12	14:41:31.870	-123.76	-19.53	155.96	0.895968	0.450668	0.02196	-0.213	-0.102	0.2925	0	307	241	3
2026-02-12	14:41:31.890	-134.54	-22.715	173.495	0.962824	0.46116	0.02562	-0.225	-0.0765	0.285	0	307	241	3
2026-02-12	14:41:31.910	-130.585	-27.545	183.645	1.0248	0.54778	0.031232	-0.234	-0.0465	0.2805	0	307	241	3
2026-02-12	14:41:31.930	-146.93	-38.045	192.325	1.041392	0.592676	0.025376	-0.2355	-0.0165	0.279	0	307	241	3
2026-02-12	14:41:31.950	-182.28	-50.855	194.775	1.083848	0.733708	0.266936	-0.246	0.0135	0.282	0	307	241	3
2026-02-12	14:41:31.970	-243.285	-52.885	178.85	1.126548	0.774944	0.4087	-0.258	0.048	0.291	0	307	241	3
2026-02-12	14:41:31.990	-245.385	-52.255	147.14	1.082872	0.5612	0.314272	-0.261	0.0675	0.2955	0	307	241	3
2026-02-12	14:41:30.010	314.44	133.175	-63.385	1.062132	0.422608	0.456036	-0.2595	0.1695	0.3915	0	245	195	3
2026-02-12	14:41:30.030	307.825	138.6	-81.725	1.080676	0.434076	0.488244	-0.2625	0.162	0.3675	0	245	195	3
2026-02-12	14:41:30.050	306.46	146.79	-103.215	1.08946	0.382836	0.465796	-0.2655	0.153	0.33	0	245	195	3
2026-02-12	14:41:30.070	313.67	151.62	-123.62	1.01748	0.442616	0.33062	-0.2595	0.132	0.3045	0	245	195	3
2026-02-12	14:41:30.090	307.79	134.995	-147.035	0.90646	0.484828	0.183732	-0.2565	0.114	0.294	0	245	195	3
2026-02-12	14:41:30.110	302.645	115.22	-156.415	0.85644	0.499712	0.155672	-0.2565	0.114	0.294	0	245	195	3
2026-02-12	14:41:30.130	293.895	92.715	-159.775	0.814228	0.49776	0.14884	-0.2385	0.021	0.24	0	245	195	3
2026-02-12	14:41:30.150	279.825	70.455	-156.24	0.765428	0.481656	0.107848	-0.2295	-0.018	0.234	0	245	195	3
2026-02-12	14:41:30.170	263.06	48.3	-146.58	0.723216	0.4514	0.009272	-0.225	-0.0435	0.231	0	245	195	3
2026-02-12	14:41:30.190	241.115	25.585	-128.835	0.68198	0.44774	-0.022936	-0.2085	-0.0795	0.246	0	245	195	3
2026-02-12	14:41:30.210	201.565	6.58	-106.33	0.6893	0.494344	0.026596	-0.207	-0.1095	0.258	0	234	235	3
2026-02-12	14:41:30.230	147.21	-4.13	-80.325	0.711992	0.434808	0.0732	-0.201	-0.132	0.2745	0	234	235	3
2026-02-12	14:41:30.250	91.56	-8.435	-50.12	0.739564	0.329644	0.084668	-0.186	-0.147	0.288	0	234	235	3
2026-02-12	14:41:30.270	37.94	-9.135	-18.095	0.703452	0.316956	0.08174	-0.1845	-0.156	0.288	0	234	235	3
2026-02-12	14:41:30.290	-22.505	-10.185	13.3	0.684664	0.29036	0.074176	-0.1875	-0.1605	0.2985	0	234	235	3
2026-02-12	14:41:30.310	-77.7	-11.97	44.765	0.688812	0.305	0.031476	-0.183	-0.159	0.297	0	234	235	3
2026-02-12	14:41:30.330	-126.805	-17.43	73.71	0.724192	0.342088	-0.014152	-0.189	-0.153	0.288	0	234	235	3
2026-02-12	14:41:30.350	-175.945	-31.325	104.86	0.756156	0.3233	-0.065148	-0.1995	-0.132	0.279	0	234	235	3
2026-02-12	14:41:30.370	-210	-53.55	134.085	0.804956	0.253028	-0.102968	-0.1995	-0.132	0.279	0	234	235	3
2026-02-12	14:41:30.390	-225.015	-76.58	155.225	0.86986	0.238388	-0.110776	-0.216	-0.1005	0.27	0	234	235	3
2026-02-12	14:41:30.410	-245.805	-101.535	173.81	0.960872	0.271328	-0.059048	-0.2355	-0.054	0.261	0	233	234	3
2026-02-12	14:41:30.430	-276.5	-130.515	188.3	1.085312	0.297924	0.034892	-0.2445	-0.0195	0.267	0	233	234	3
2026-02-12	14:41:30.450	-313.915	-154.385	194.46	1.19316	0.377712	0.171776	-0.252	-0.003	0.273	0	233	234	3
2026-02-12	14:41:30.470	-367.29	-173.075	190.575	1.241716	0.45506	0.289628	-0.2565	0.0345	0.282	0	233	234	3
2026-02-12	14:41:30.490	-434.77	-186.095	172.83	1.239764	0.505324	0.361852	-0.264	0.0795	0.3135	0	233	234	3
2026-02-12	14:41:30.510	-492.45	-192.5	140.805	1.198528	0.421876	0.295972	-0.264	0.117	0.3465	0	233	234	3
2026-02-12	14:41:30.530	-480.585	-193.725	96.915	1.1773	0.137128	0.244244	-0.264	0.147	0.3765	0	233	234	3
2026-02-12	14:41:30.550	-410.935	-175.07	53.97	1.182912	0.021472	0.375028	-0.264	0.156	0.4185	0	233	234	3
2026-02-12	14:41:30.570	-326.305	-142.1	23.625	1.127036	-0.156648	0.364292	-0.255	0.162	0.4455	0	233	234	3
2026-02-12	14:41:30.590	-218.435	-112.14	4.795	1.124108	-0.399428	0.301828	-0.258	0.156	0.4785	0	233	234	3
2026-02-12	14:41:30.610	-61.075	-77.735	-0.595	1.119716	-0.46726	0.426024	-0.243	0.147	0.495	0	238	216	3
2026-02-12	14:41:30.630	91.7	-20.755	8.225	1.145336	-0.22814	0.647576	-0.2445	0.138	0.5175	0	238	216	3
2026-02-12	14:41:30.650	143.815	12.74	12.145	1.095072	-0.136152	0.609512	-0.243	0.1395	0.5145	0	238	216	3
2026-02-12	14:41:30.670	185.64	40.81	11.76	1.047248	0.022204	0.598044	-0.243	0.15	0.5115	0	238	216	3
2026-02-12	14:41:30.690	215.145	66.64	8.995	1.066524	0.044652	0.667584	-0.2445	0.1635	0.5055	0	238	216	3
2026-02-12	14:41:30.710	255.85	94.29	0.665	1.066768	0.090036	0.550708	-0.2415	0.1725	0.4935	0	238	216	3
2026-02-12	14:41:30.730	287.315	114.065	-12.775	1.01748	0.243512	0.421144	-0.2415	0.183	0.4755	0	238	216	3
2026-02-12	14:41:30.750	294.175	125.16	-32.2	1.02602	0.38186	0.42944	-0.249	0.1965	0.453	0	238	216	3
2026-02-12	14:41:30.770	309.33	135.415	-60.305	1.0797	0.394792	0.346236	-0.255	0.198	0.426	0	238	216	3
2026-02-12	14:41:30.790	333.865	141.68	-91.21	1.108492	0.39406	0.233752	-0.255	0.1905	0.3885	0	238	216	3
2026-02-12	14:41:30.810	344.925	137.235	-119.7	1.075308	0.411872	0.208864	-0.2595	0.1755	0.36	0	250	231	3
2026-02-12	14:41:30.830	336.7	126.77	-147.105	1.082384	0.493124	0.183732	-0.2655	0.1545	0.3345	0	250	231	3
2026-02-12	14:41:30.850	321.405	110.25	-169.33	1.085312	0.539728	0.124684	-0.2625	0.1275	0.3105	0	250	231	3
2026-02-12	14:41:30.870	293.545	89.74	-183.155	1.081164	0.544364	0.104676	-0.2565	0.0915	0.2925	0	250	231	3
2026-02-12	14:41:30.890	237.615	67.375	-188.545	1.081408	0.529724	0.152744	-0.2505	0.0525	0.2775	0	250	231	3
2026-02-12	14:41:30.910	174.93	49.665	-184.1	1.033096	0.426512	0.07515199	-0.249	0.0345	0.2745	0	250	231	3
2026-02-12	14:41:30.930	137.095	34.685	-173.285	0.986492	0.356972	-0.001464	-0.231	-0.039	0.2745	0	250	231	3
2026-02-12	14:41:30.950	108.535	19.705	-158.585	0.935008	0.325984	-0.047092	-0.228	-0.0675	0.27	0	250	231	3
2026-02-12	14:41:30.970	78.925	5.495	-140	0.892552	0.281088	-0.039284	-0.2235	-0.0825	0.2715	0	250	231	3
2026-02-12	14:41:30.990	45.08	-4.725	-114.1	0.848876	0.139568	0.000488	-0.21	-0.1095	0.285	0	250	231	3
2026-02-12	14:41:31.010	13.125	-10.22	-78.82	0.75762	0.025376	0.050752	-0.2055	-0.1305	0.282	0	264	242	3
2026-02-12	14:41:31.030	-33.39	-11.795	-36.05	0.61854	0.00122	0.055144	-0.195	-0.1365	0.282	0	264	242	3
2026-02-12	14:41:31.050	-78.365	-19.775	7.665	0.553392	0.096136	-0.009516	-0.189	-0.141	0.2805	0	264	242	3
2026-02-12	14:41:31.070	-108.675	-32.305	44.205	0.621224	0.183244	-0.06734399	-0.189	-0.141	0.2805	0	264	242	3
2026-02-12	14:41:31.090	-134.19	-48.16	81.165	0.708088	0.127124	-0.073932	-0.195	-0.1305	0.2745	0	264	242	3
2026-02-12	14:41:31.110	-161.525	-64.68	120.085	0.772992	0.04514	-0.033672	-0.207	-0.114	0.267	0	264	242	3
2026-02-12	14:41:31.130	-191.275	-82.075	156.38	0.861076	0.125416	0.034404	-0.216	-0.099	0.261	0	264	242	3
2026-02-12	14:41:31.150	-226.905	-100.205	181.23	0.998692	0.28426	0.1098	-0.225	-0.0735	0.27	0	264	242	3
2026-02-12	14:41:31.170	-271.075	-121.87	195.51	1.093852	0.336232	0.162504	-0.231	-0.057	0.282	0	264	242	3
2026-02-12	14:41:31.190	-287.21	-134.715	196.105	1.144116	0.304512	0.19642	-0.2535	0.012	0.282	0	264	242	3
2026-02-12	14:41:31.210	-302.225	-146.055	191.38	1.191208	0.325252	0.24278	-0.2655	0.057	0.3045	0	277	222	3
2026-02-12	14:41:31.230	-342.51	-153.615	180.145	1.247084	0.439444	0.2745	-0.264	0.09	0.315	0	277	222	3
2026-02-12	14:41:31.250	-389.165	-154.945	156.065	1.219756	0.396256	0.354288	-0.2625	0.126	0.351	0	277	222	3
2026-02-12	14:41:31.270	-380.555	-148.715	120.015	1.155096	0.114192	0.46116	-0.2625	0.1515	0.375	0	277	222	3
2026-02-12	14:41:31.290	-313.39	-130.83	88.655	1.145092	-0.056608	0.454084	-0.255	0.1725	0.4065	0	277	222	3
2026-02-12	14:41:31.310	-221.445	-109.445	66.885	1.177056	-0.119804	0.432612	-0.2565	0.1725	0.432	0	277	222	3
2026-02-12	14:41:31.330	-130.2	-83.23	52.99	1.224148	-0.188856	0.619272	-0.249	0.1785	0.462	0	277	222	3
2026-02-12	14:41:31.350	-36.575	-45.185	43.085	1.223416	-0.328668	0.656848	-0.2535	0.195	0.4785	0	277	222	3
2026-02-12	14:41:31.370	66.885	-7.42	35.91	1.131428	-0.25986	0.50142	-0.2385	0.186	0.4815	0	277	222	3
2026-02-12	14:41:31.390	142.905	16.8	27.755	1.060912	-0.094916	0.4575	-0.24	0.2055	0.4875	0	277	222	3
2026-02-12	14:41:31.410	207.165	40.285	13.16	1.083604	0.043432	0.594384	-0.2475	0.2115	0.4785	0	289	217	3
2026-02-12	14:41:31.430	287.385	78.085	-11.725	1.080432	0.0793	0.525332	-0.246	0.225	0.4695	0	289	217	3
2026-02-12	14:41:31.450	366.94	109.41	-42.91	1.009672	0.27328	0.353068	-0.2445	0.222	0.4425	0	289	217	3
2026-02-12	14:41:31.470	390.845	118.545	-69.965	1.020652	0.43066	0.319884	-0.2415	0.2235	0.399	0	289	217	3
2026-02-12	14:41:31.490	384.72	120.54	-97.895	1.049688	0.532652	0.313784	-0.2445	0.2205	0.3645	0	289	217	3
2026-02-12	14:41:31.510	365.015	117.775	-126.14	1.050176	0.552416	0.288896	-0.249	0.1965	0.3345	0	289	217	3
2026-02-12	14:41:31.530	347.865	111.51	-151.445	1.032852	0.483364	0.277672	-0.2535	0.165	0.303	0	289	217	3
2026-02-12	14:41:31.550	334.145	99.82	-171.885	1.037488	0.506544	0.201056	-0.2535	0.138	0.2805	0	289	217	3
2026-02-12	14:41:31.570	304.885	80.15	-184.73	1.032852	0.536556	0.20618	-0.249	0.1035	0.2655	0	289	217	3
2026-02-12	14:41:31.590	264.635	59.99	-190.365	1.049444	0.50752	0.250344	-0.243	0.0615	0.2505	0	289	217	3
2026-02-12	14:41:31.610	223.685	47.635	-188.685	1.013576	0.444324	0.219356	-0.2445	0.0225	0.252	0	299	241	3
2026-02-12	14:41:31.630	195.475	37.24	-180.005	0.954528	0.354532	0.115412	-0.2385	-0.0105	0.258	0	299	241	3
2026-02-12	14:41:31.650	170.415	25.095	-165.69	0.897432	0.335744	0.00488	-0.2265	-0.0285	0.2595	0	299	241	3
2026-02-12	14:41:31.670	147.07	12.81	-147.28	0.859124	0.311832	-0.066124	-0.2265	-0.0285	0.2595	0	299	241	3
2026-02-12	14:41:31.690	125.86	2.135	-125.37	0.80764	0.219112	-0.090036	-0.2175	-0.093	0.255	0	299	241	3
2026-02-12	14:41:31.710	102.585	-11.13	-80.99	0.727852	0.117364	-0.080764	-0.2175	-0.093	0.255	0	299	241	3
2026-02-12	14:41:31.730	81.2	-18.095	-48.755	0.7137	0.179584	0.009272	-0.201	-0.12	0.27	0	299	241	3
2026-02-12	14:41:31.750	45.29	-19.95	-15.785	0.694668	0.166164	0.078324	-0.189	-0.15	0.2895	0	299	241	3
2026-02-12	14:41:31.770	1.96	-17.815	19.635	0.683932	0.193736	0.070516	-0.192	-0.1545	0.294	0	299	241	3
2026-02-12	14:41:31.790	-41.195	-17.955	52.99	0.70638	0.261568	0.066612	-0.192	-0.156	0.2985	0	299	241	3
2026-02-12	14:41:41.810	9.345	0.175	-45.29	0.907192	1.020408	0.052704	-0.258	-0.003	0.297	0	372	138	3
2026-02-12	14:41:41.830	11.445	-12.565	-31.675	1.054568	0.945256	0.12078	-0.255	-0.0165	0.294	0	372	138	3
2026-02-12	14:41:41.850	15.435	-24.57	-17.815	1.073844	0.710528	-0.002196	-0.2685	-0.0135	0.2955	0	372	138	3
2026-02-12	14:41:41.870	-0.98	-35.035	-6.37	0.986492	0.440664	-0.094184	-0.258	-0.0255	0.303	0	372	138	3
2026-02-12	14:41:41.890	-39.55	-46.305	-2.275	0.951356	0.25864	-0.085156	-0.2535	-0.036	0.3105	0	372	138	3
2026-02-12	14:41:41.910	-53.76	-49.91	10.605	0.777384	0.18666	-0.007076	-0.258	-0.018	0.312	0	372	138	3
2026-02-12	14:41:41.930	-34.895	-48.09	15.575	0.771528	0.170312	-0.067588	-0.261	-0.012	0.3255	0	372	138	3
2026-02-12	14:41:41.950	-13.37	-44.625	23.59	0.752984	0.240584	-0.128588	-0.2655	-0.021	0.3225	0	372	138	3
2026-02-12	14:41:41.970	-12.81	-44.8	40.04	0.726388	0.264496	-0.115168	-0.264	-0.0105	0.339	0	372	138	3
2026-02-12	14:41:41.990	-12.635	-48.055	57.925	0.755424	0.266692	-0.104188	-0.2655	0.0015	0.3435	0	372	138	3
2026-02-12	14:41:42.010	-3.36	-50.12	72.835	0.774944	0.506056	-0.155428	-0.2655	0.0015	0.3435	0	373	97	3
2026-02-12	14:41:42.030	-0.735	-50.75	74.55	0.729072	0.63196	-0.270352	-0.2655	0.0015	0.3435	0	373	97	3
2026-02-12	14:41:42.050	-4.55	-50.925	70.07	0.735172	0.663436	-0.239852	-0.2655	0.0015	0.3435	0	373	97	3
2026-02-12	14:41:42.070	-15.33	-49.98	71.225	0.779336	0.539972	-0.164456	-0.2745	0.0465	0.3735	0	373	97	3
2026-02-12	14:41:42.090	-10.64	-45.43	72.415	0.82594	0.321348	-0.162992	-0.279	0.0555	0.3795	0	373	97	3
2026-02-12	14:41:42.110	30.975	-37.975	76.44	0.822768	0.167384	-0.207888	-0.273	0.069	0.408	0	373	97	3
2026-02-12	14:41:42.130	58.695	-30.415	76.405	0.813008	0.45872	-0.205692	-0.267	0.078	0.4005	0	373	97	3
2026-02-12	14:41:42.150	43.47	-29.435	72.52	0.808372	0.48434	-0.215208	-0.27	0.102	0.4035	0	373	97	3
2026-02-12	14:41:42.170	28.28	-28	63.91	0.838384	0.477508	-0.193736	-0.2745	0.099	0.4125	0	373	97	3
2026-02-12	14:41:42.190	15.05	-25.375	55.79	0.83448	0.421388	-0.160064	-0.27	0.1125	0.4095	0	373	97	3
2026-02-12	14:41:42.210	3.22	-21.98	51.205	0.823988	0.350384	-0.176412	-0.273	0.1215	0.4185	0	374	87	3
2026-02-12	14:41:42.230	-7.595	-17.815	49.595	0.842532	0.335988	-0.169824	-0.2685	0.1275	0.4215	0	374	87	3
2026-02-12	14:41:42.250	-12.18	-12.075	47.285	0.91744	0.303048	-0.186172	-0.2655	0.138	0.429	0	374	87	3
2026-02-12	14:41:42.270	-3.815	-3.815	44.03	0.95892	0.348676	-0.218136	-0.2595	0.147	0.4365	0	374	87	3
2026-02-12	14:41:42.290	6.58	6.44	34.685	1.00284	0.448716	-0.290604	-0.2655	0.156	0.4365	0	374	87	3
2026-02-12	14:41:42.310	11.55	16.03	21.035	1.026264	0.572668	-0.344528	-0.264	0.156	0.432	0	374	87	3
2026-02-12	14:41:42.330	5.53	19.67	7.77	0.995276	0.609024	-0.361364	-0.2595	0.1635	0.426	0	374	87	3
2026-02-12	14:41:42.350	-15.365	22.54	-1.12	1.006988	0.560956	-0.277916	-0.261	0.1695	0.426	0	374	87	3
2026-02-12	14:41:42.370	-35.7	27.685	-1.715	1.090924	0.458232	-0.203496	-0.261	0.1665	0.4245	0	374	87	3
2026-02-12	14:41:42.390	-41.055	34.93	0.63	1.179008	0.357704	-0.224724	-0.261	0.1665	0.4215	0	374	87	3
2026-02-12	14:41:42.410	-31.78	42.735	1.015	1.258552	0.375272	-0.265472	-0.2685	0.168	0.4155	0	369	107	3
2026-02-12	14:41:42.430	-11.9	49.455	-4.27	1.247816	0.414068	-0.332084	-0.264	0.1725	0.411	0	369	107	3
2026-02-12	14:41:42.450	1.925	50.295	-13.755	1.194624	0.412848	-0.413336	-0.258	0.1695	0.405	0	369	107	3
2026-02-12	14:41:42.470	7.49	44.415	-25.305	1.128012	0.356728	-0.378444	-0.2655	0.165	0.396	0	369	107	3
2026-02-12	14:41:42.490	3.29	35.035	-33.915	1.057496	0.21106	-0.218136	-0.264	0.162	0.39	0	369	107	3
2026-02-12	14:41:42.510	-8.75	23.835	-45.57	1.140944	0.12444	-0.006344	-0.258	0.1575	0.3855	0	369	107	3
2026-02-12	14:41:42.530	-25.83	19.32	-57.155	1.192916	-0.118096	0.098088	-0.2595	0.15	0.381	0	369	107	3
2026-02-12	14:41:42.550	-0.56	22.05	-63.49	1.122644	-0.229848	0.060268	-0.264	0.138	0.3735	0	369	107	3
2026-02-12	14:41:42.570	50.225	26.32	-68.74	1.018212	0.131272	-0.021472	-0.267	0.132	0.3705	0	369	107	3
2026-02-12	14:41:42.590	69.615	28.63	-78.75	0.923052	0.4453	-0.030012	-0.261	0.111	0.3645	0	369	107	3
2026-02-12	14:41:42.610	56.84	28.175	-92.96	0.834236	0.602192	-0.06954	-0.27	0.105	0.3615	0	362	135	3
2026-02-12	14:41:42.630	22.96	23.8	-105.14	0.764208	0.687836	-0.112728	-0.27	0.0795	0.354	0	362	135	3
2026-02-12	14:41:42.650	-19.075	17.5	-112.42	0.725656	0.619272	-0.167628	-0.27	0.0795	0.357	0	362	135	3
2026-02-12	14:41:42.670	-54.32	12.495	-116.2	0.670512	0.489952	-0.153232	-0.2715	0.069	0.3555	0	362	135	3
2026-02-12	14:41:42.690	-78.715	12.005	-105.98	0.606096	0.266204	-0.116388	-0.2685	0.048	0.345	0	362	135	3
2026-02-12	14:41:42.710	-72.94	14.21	-86.905	0.614148	0.10858	-0.057828	-0.2655	0.0285	0.342	0	362	135	3
2026-02-12	14:41:42.730	-36.785	18.69	-66.71	0.6344	0.07564	-0.00976	-0.2655	0.0165	0.3435	0	362	135	3
2026-02-12	14:41:42.750	7.035	24.115	-47.95	0.652944	0.14152	0.006344	-0.261	0.0075	0.3405	0	362	135	3
2026-02-12	14:41:42.770	42.77	31.115	-30.625	0.63684	0.279868	0.019032	-0.255	0	0.3315	0	362	135	3
2026-02-12	14:41:42.790	58.625	37.66	-14.49	0.614392	0.439932	0.04026	-0.255	-0.009	0.3255	0	362	135	3
2026-02-12	14:41:42.810	56.875	40.845	-2.24	0.616832	0.568276	0.067832	-0.2565	-0.012	0.3255	0	356	140	3
2026-02-12	14:41:42.830	58.835	41.475	7.315	0.559248	0.635376	0.046604	-0.258	-0.0105	0.3255	0	356	140	3
2026-02-12	14:41:42.850	64.925	37.94	9.52	0.50264	0.692472	0.081984	-0.258	-0.0105	0.3255	0	356	140	3
2026-02-12	14:41:42.870	65.415	31.85	10.71	0.510692	0.790804	0.155428	-0.252	-0.015	0.309	0	356	140	3
2026-02-12	14:41:42.890	57.68	23.66	10.57	0.591456	0.947208	0.155916	-0.2535	-0.015	0.3045	0	356	140	3
2026-02-12	14:41:42.910	40.145	11.13	6.125	0.715652	1.212436	0.033672	-0.255	-0.0105	0.306	0	356	140	3
2026-02-12	14:41:42.930	7.28	1.47	-6.335	0.901824	1.396412	-0.047824	-0.252	-0.0195	0.3135	0	356	140	3
2026-02-12	14:41:42.950	-25.62	-4.9	-29.085	1.03212	1.19804	-0.069052	-0.252	-0.009	0.309	0	356	140	3
2026-02-12	14:41:42.970	-37.695	-7.21	-40.04	0.914756	0.83448	-0.02196	-0.246	-0.0135	0.3165	0	356	140	3
2026-02-12	14:41:42.990	-32.62	-6.685	-29.96	0.81862	0.659044	0.087596	-0.2475	-0.0255	0.3135	0	356	140	3
2026-02-12	14:41:43.010	-1.12	-2.765	-24.15	0.82594	0.796172	0.069296	-0.249	-0.0255	0.3075	0	354	117	3
2026-02-12	14:41:43.030	18.725	-1.715	-18.69	0.864736	0.807396	0.014396	-0.246	-0.021	0.309	0	354	117	3
2026-02-12	14:41:43.050	15.12	-3.395	-9.275	1.090924	0.774212	0.030256	-0.249	-0.0225	0.309	0	354	117	3
2026-02-12	14:41:43.070	15.26	0.49	-1.855	1.218536	0.549976	0.006588	-0.2535	-0.036	0.306	0	354	117	3
2026-02-12	14:41:43.090	-5.81	-1.715	10.01	1.064816	0.498492	-0.041236	-0.2415	-0.0315	0.3105	0	354	117	3
2026-02-12	14:41:43.110	-18.655	-5.845	12.285	0.895724	0.332572	0.0183	-0.2415	-0.0315	0.3105	0	354	117	3
2026-02-12	14:41:43.130	-2.66	-3.885	14.875	0.76372	0.284016	0.017324	-0.246	-0.03	0.312	0	354	117	3
2026-02-12	14:41:43.150	15.05	-1.925	21.98	0.731024	0.351116	-0.062952	-0.2445	-0.0285	0.3135	0	354	117	3
2026-02-12	14:41:43.170	13.475	-4.48	37.625	0.74054	0.38064	-0.111752	-0.243	-0.021	0.3195	0	354	117	3
2026-02-12	14:41:43.190	-0.385	-9.66	53.515	0.745908	0.3721	-0.13786	-0.249	-0.009	0.324	0	354	117	3
2026-02-12	14:41:43.210	-7.525	-18.445	62.685	0.7747	0.40626	-0.176168	-0.2565	0.0015	0.321	0	354	87	3
2026-02-12	14:41:43.230	1.925	-27.755	66.57	0.779336	0.482632	-0.232288	-0.2625	0.0075	0.321	0	354	87	3
2026-02-12	14:41:43.250	22.05	-36.05	62.65	0.792268	0.632692	-0.243268	-0.2625	0.0075	0.321	0	354	87	3
2026-02-12	14:41:43.270	17.885	-39.235	59.115	0.802272	0.684664	-0.153476	-0.2565	0.021	0.333	0	354	87	3
2026-02-12	14:41:43.290	-3.675	-35.525	60.585	0.820572	0.558272	-0.069296	-0.255	0.027	0.342	0	354	87	3
2026-02-12	14:41:43.310	-13.58	-29.855	67.27	0.815936	0.412116	-0.06222	-0.264	0.039	0.351	0	354	87	3
2026-02-12	14:41:43.330	-7.385	-23.45	72.03	0.791048	0.349896	-0.105164	-0.2655	0.045	0.354	0	354	87	3
2026-02-12	14:41:43.350	5.355	-21.525	71.54	0.782508	0.400892	-0.140544	-0.2595	0.054	0.3615	0	354	87	3
2026-02-12	14:41:43.370	11.55	-20.93	66.99	0.791536	0.420412	-0.145424	-0.2595	0.069	0.3705	0	354	87	3
2026-02-12	14:41:43.390	15.89	-21.42	60.375	0.783484	0.427	-0.11102	-0.2595	0.081	0.372	0	354	87	3
2026-02-12	14:41:43.410	17.395	-20.02	53.795	0.803736	0.432856	-0.09638	-0.2625	0.0975	0.3735	0	351	75	3
2026-02-12	14:41:43.430	22.12	-18.025	46.83	0.820816	0.490684	-0.083692	-0.261	0.105	0.378	0	351	75	3
2026-02-12	14:41:43.450	21.385	-14.525	40.53	0.81862	0.528016	-0.092232	-0.2595	0.1155	0.3825	0	351	75	3
2026-02-12	14:41:43.470	10.71	-11.235	33.95	0.835944	0.553392	-0.114192	-0.2595	0.1215	0.387	0	351	75	3
2026-02-12	14:41:43.490	-4.06	-8.19	27.3	0.853756	0.537044	-0.152988	-0.258	0.1275	0.39	0	351	75	3
2026-02-12	14:41:43.510	-19.95	-6.685	24.325	0.889136	0.53192	-0.187148	-0.261	0.132	0.384	0	351	75	3
2026-02-12	14:41:43.530	-28.455	-5.04	23.065	0.91622	0.478728	-0.148352	-0.2625	0.1365	0.381	0	351	75	3
2026-02-12	14:41:43.550	-12.11	-2.065	19.215	1.012844	0.526308	-0.126636	-0.258	0.1395	0.3855	0	351	75	3
2026-02-12	14:41:43.570	3.045	6.44	17.255	1.120692	0.635864	-0.149816	-0.258	0.138	0.3915	0	351	75	3
2026-02-12	14:41:43.590	-0.35	19.005	15.19	1.152412	0.63074	-0.168848	-0.261	0.144	0.3975	0	351	75	3
2026-02-12	14:41:43.610	-9.52	30.205	18.13	1.144848	0.515572	-0.143472	-0.258	0.1485	0.393	0	343	82	3
2026-02-12	14:41:43.630	-0.805	45.535	19.18	1.238056	0.556076	-0.125904	-0.252	0.1485	0.384	0	343	82	3
2026-02-12	14:41:43.650	6.895	60.095	21.07	1.215364	0.547292	-0.207888	-0.252	0.1485	0.3825	0	343	82	3
2026-02-12	14:41:43.670	13.51	65.555	15.295	1.131184	0.5673	-0.22936	-0.2565	0.1665	0.363	0	343	82	3
2026-02-12	14:41:43.690	22.05	60.165	1.75	0.99674	0.504592	-0.294264	-0.255	0.1605	0.348	0	343	82	3
2026-02-12	14:41:43.710	23.66	41.44	-14.875	0.854976	0.485316	-0.294264	-0.2565	0.156	0.348	0	343	82	3
2026-02-12	14:41:43.730	-3.115	18.9	-24.78	0.870592	0.377712	-0.128344	-0.252	0.162	0.339	0	343	82	3
2026-02-12	14:41:43.750	-33.81	3.675	-34.055	1.048468	0.194468	0.121512	-0.252	0.1545	0.3405	0	343	82	3
2026-02-12	14:41:43.770	-49.735	1.505	-45.57	1.170468	0.031476	0.196664	-0.258	0.153	0.333	0	343	82	3
2026-02-12	14:41:43.790	-37.345	7.875	-56.77	1.134844	-0.155672	0.007076	-0.2535	0.1455	0.3465	0	343	82	3
2026-02-12	14:41:43.810	-4.76	12.355	-56.875	1.024312	-0.112972	-0.153232	-0.2565	0.132	0.3435	0	331	96	3
2026-02-12	14:41:43.830	40.915	17.01	-59.325	0.95526	0.073932	-0.19276	-0.2565	0.1215	0.333	0	331	96	3
2026-02-12	14:41:43.850	85.995	21.875	-67.445	0.88084	0.49776	-0.110532	-0.2535	0.1125	0.333	0	331	96	3
2026-02-12	14:41:43.870	68.005	19.145	-80.57	0.839848	0.744444	-0.065636	-0.2505	0.105	0.336	0	331	96	3
2026-02-12	14:41:43.890	7.56	15.33	-90.65	0.767624	0.773968	-0.0793	-0.2535	0.0975	0.333	0	331	96	3
2026-02-12	14:41:43.910	-55.93	8.995	-101.885	0.72712	0.556564	-0.08295999	-0.255	0.09	0.33	0	331	96	3
2026-02-12	14:41:43.930	-66.92	6.02	-105.98	0.686372	0.404308	-0.022936	-0.255	0.09	0.33	0	331	96	3
2026-02-12	14:41:43.950	-67.83	4.62	-99.05	0.67222	0.293532	0.02074	-0.2505	0.0465	0.318	0	331	96	3
2026-02-12	14:41:43.970	-59.29	5.67	-83.51	0.669292	0.221552	0.022692	-0.2445	0.0315	0.3135	0	331	96	3
2026-02-12	14:41:43.990	-39.865	8.26	-66.885	0.636108	0.201788	0.000976	-0.255	0.021	0.321	0	331	96	3
2026-02-12	14:41:44.010	-20.825	8.645	-48.825	0.630008	0.237656	-0.021228	-0.243	0.009	0.3105	0	322	99	3
2026-02-12	14:41:44.030	-10.815	9.38	-28.455	0.602436	0.296704	-0.009516	-0.2385	-0.003	0.3135	0	322	99	3
2026-02-12	14:41:44.050	-1.575	9.59	-12.53	0.598532	0.44774	0.07564	-0.246	-0.003	0.309	0	322	99	3
2026-02-12	14:41:44.070	-0.84	11.515	-3.15	0.559248	0.537776	0.123708	-0.237	-0.003	0.3075	0	322	99	3
2026-02-12	14:41:44.090	-4.305	12.18	3.465	0.534116	0.575108	0.171776	-0.2415	-0.012	0.3105	0	322	99	3
2026-02-12	14:41:44.110	6.055	11.865	5.39	0.54168	0.635376	0.193736	-0.2445	-0.0015	0.3105	0	322	99	3
2026-02-12	14:41:44.130	22.96	12.32	4.97	0.583404	0.769088	0.17202	-0.24	-0.0045	0.3045	0	322	99	3
2026-02-12	14:41:44.150	42.665	8.015	-1.47	0.659776	0.992104	0.066612	-0.2415	0	0.3	0	322	99	3
2026-02-12	14:41:44.170	45.815	-7.105	-21.14	0.762012	1.301496	-0.042456	-0.237	-0.0045	0.306	0	322	99	3
2026-02-12	14:41:44.190	14.42	-20.3	-43.68	0.856684	1.32004	-0.048312	-0.237	-0.0045	0.306	0	322	99	3
2026-02-12	14:41:44.210	-22.715	-25.76	-48.825	0.913536	1.053836	0.121512	-0.2355	-0.0105	0.309	0	316	81	3
2026-02-12	14:41:44.230	-23.8	-23.135	-47.495	0.96258	1.007232	0.136152	-0.234	-0.0195	0.318	0	316	81	3
2026-02-12	14:41:44.250	-1.365	-18.725	-46.795	1.054324	1.198284	0.03538	-0.2295	-0.03	0.315	0	316	81	3
2026-02-12	14:41:44.270	17.57	-20.755	-49.21	1.120692	0.985272	-0.132004	-0.2295	-0.039	0.312	0	316	81	3
2026-02-12	14:41:44.290	26.355	-25.55	-52.29	1.082384	0.840336	-0.184464	-0.225	-0.0435	0.321	0	316	81	3
2026-02-12	14:41:44.310	-4.2	-36.155	-37.415	0.946476	0.347212	-0.091988	-0.225	-0.0495	0.3315	0	316	81	3
2026-02-12	14:41:44.330	-39.305	-37.94	-9.59	0.89304	-0.009028	0.12566	-0.228	-0.0555	0.3375	0	316	81	3
2026-02-12	14:41:44.350	-19.355	-30.24	17.43	0.784216	-0.08662	0.13176	-0.225	-0.054	0.336	0	316	81	3
2026-02-12	14:41:44.370	47.565	-17.99	39.2	0.740052	0.043432	-0.031964	-0.2235	-0.0525	0.339	0	316	81	3
2026-02-12	14:41:44.390	98.77	-10.325	59.045	0.710772	0.290848	-0.166408	-0.225	-0.048	0.3465	0	316	81	3
2026-02-12	14:41:44.410	115.115	-8.505	71.015	0.69662	0.627812	-0.269376	-0.2295	-0.042	0.351	0	319	59	3
2026-02-12	14:41:44.430	96.88	-15.575	77.35	0.731512	0.96502	-0.388692	-0.231	-0.03	0.369	0	319	59	3
2026-02-12	14:41:44.450	-2.555	-34.72	78.4	0.683688	1.037244	-0.40382	-0.234	-0.018	0.3615	0	319	59	3
2026-02-12	14:41:44.470	-78.995	-47.11	78.715	0.671488	0.695888	-0.295972	-0.237	-0.0075	0.3735	0	319	59	3
2026-02-12	14:41:44.490	-123.97	-52.36	87.675	0.692228	0.360144	-0.15982	-0.237	0.006	0.3825	0	319	59	3
2026-02-12	14:41:44.510	-130.97	-51.87	100.905	0.682468	0.172996	-0.08295999	-0.2355	0.0135	0.387	0	319	59	3
2026-02-12	14:41:44.530	-110.915	-48.09	112.945	0.70272	0.144204	-0.06954	-0.2445	0.0285	0.396	0	319	59	3
2026-02-12	14:41:44.550	-81.97	-43.715	121.975	0.7686	0.229116	-0.10004	-0.2505	0.048	0.4005	0	319	59	3
2026-02-12	14:41:44.570	-49.91	-40.81	124.95	0.800808	0.357216	-0.156648	-0.243	0.063	0.4035	0	319	59	3
2026-02-12	14:41:44.590	-21.315	-38.01	118.545	0.814472	0.493612	-0.158844	-0.2415	0.0825	0.411	0	319	59	3
2026-02-12	14:41:44.610	-7.455	-37.065	103.145	0.826916	0.556808	-0.17934	-0.246	0.102	0.414	0	328	60	3
2026-02-12	14:41:44.630	-9.485	-36.89	88.725	0.852048	0.521672	-0.198128	-0.2415	0.111	0.417	0	328	60	3
2026-02-12	14:41:44.650	-13.825	-33.18	76.93	0.854488	0.48068	-0.154696	-0.2355	0.1185	0.432	0	328	60	3
2026-02-12	14:41:44.670	-16.45	-25.41	66.465	0.8357	0.409188	-0.10492	-0.2385	0.1335	0.4395	0	328	60	3
2026-02-12	14:41:44.690	-16.73	-17.43	56.385	0.831552	0.388692	-0.106872	-0.2355	0.1485	0.441	0	328	60	3
2026-02-12	14:41:44.710	-17.535	-9.135	41.16	0.863272	0.460916	-0.160552	-0.2325	0.159	0.4455	0	328	60	3
2026-02-12	14:41:44.730	-21.175	-1.26	25.165	0.936228	0.486292	-0.188368	-0.237	0.165	0.45	0	328	60	3
2026-02-12	14:41:44.750	-19.04	6.755	13.825	1.034316	0.487268	-0.206424	-0.2295	0.165	0.4605	0	328	60	3
2026-02-12	14:41:44.770	-10.78	17.78	6.72	1.071648	0.490684	-0.199348	-0.2355	0.174	0.45	0	328	60	3
2026-02-12	14:41:44.790	-2.03	28.84	3.08	1.097024	0.474336	-0.192028	-0.234	0.168	0.453	0	328	60	3
2026-02-12	14:41:44.810	10.325	38.045	0.28	1.116544	0.482632	-0.19886	-0.231	0.174	0.4425	0	334	80	3
2026-02-12	14:41:44.830	23.31	46.69	-3.535	1.182912	0.638548	-0.163724	-0.225	0.1755	0.438	0	334	80	3
2026-02-12	14:41:44.850	28.105	57.715	-11.62	1.183156	0.683932	-0.204716	-0.234	0.1785	0.42	0	334	80	3
2026-02-12	14:41:44.870	20.3	61.075	-17.605	1.279048	0.64782	-0.237168	-0.2325	0.171	0.4215	0	334	80	3
2026-02-12	14:41:44.890	11.375	60.97	-20.825	1.232688	0.636596	-0.237412	-0.2385	0.1605	0.4095	0	334	80	3
2026-02-12	14:41:44.910	4.025	52.92	-28.21	1.122888	0.440664	-0.218624	-0.228	0.168	0.411	0	334	80	3
2026-02-12	14:41:44.930	-19.67	36.645	-28.56	1.02724	0.3355	-0.113704	-0.2445	0.153	0.3945	0	334	80	3
2026-02-12	14:41:44.950	-66.605	22.295	-31.185	1.123132	0.174704	0.064904	-0.2325	0.147	0.3855	0	334	80	3
2026-02-12	14:41:44.970	-94.85	8.82	-43.085	1.321748	-0.180804	0.140056	-0.24	0.1455	0.3885	0	334	80	3
2026-02-12	14:41:44.990	-50.12	5.6	-59.92	1.296372	-0.319884	-0.001464	-0.2385	0.1485	0.387	0	334	80	3
2026-02-12	14:41:45.010	1.085	9.415	-63.875	1.158268	-0.191784	-0.126148	-0.234	0.129	0.387	0	336	101	3
2026-02-12	14:41:45.030	52.255	13.335	-67.235	1.047492	0.036112	-0.12322	-0.2445	0.1185	0.3825	0	336	101	3
2026-02-12	14:41:45.050	89.74	17.115	-73.465	0.927444	0.268644	-0.032208	-0.2355	0.1125	0.384	0	336	101	3
2026-02-12	14:41:45.070	100.205	19.11	-80.71	0.822036	0.457012	0.049044	-0.2355	0.093	0.375	0	336	101	3
2026-02-12	14:41:45.090	80.99	20.23	-86.205	0.731756	0.564616	0.080276	-0.24	0.09	0.3795	0	336	101	3
2026-02-12	14:41:45.110	45.85	20.51	-88.2	0.671244	0.602924	0.066368	-0.2385	0.0765	0.366	0	336	101	3
2026-02-12	14:41:45.130	11.69	18.795	-90.65	0.623664	0.558272	0.020984	-0.2385	0.063	0.3825	0	336	101	3
2026-02-12	14:41:45.150	-14.77	16.24	-92.155	0.576816	0.43554	-0.011712	-0.228	0.051	0.3705	0	336	101	3
2026-02-12	14:41:45.170	-29.785	15.085	-89.215	0.516548	0.302804	-0.020496	-0.24	0.0405	0.366	0	336	101	3
2026-02-12	14:41:45.190	-29.75	14.035	-74.305	0.463112	0.279624	-0.044652	-0.234	0.0225	0.3675	0	336	101	3
2026-02-12	14:41:45.210	-33.285	11.13	-52.78	0.44042	0.255468	-0.076128	-0.231	-0.003	0.3555	0	339	102	3
2026-02-12	14:41:45.230	-24.465	8.855	-28.98	0.421632	0.277184	-0.056852	-0.225	-0.0015	0.351	0	339	102	3
2026-02-12	14:41:45.250	-7.035	5.81	-1.925	0.448716	0.349652	0.033672	-0.228	-0.006	0.339	0	339	102	3
2026-02-12	14:41:45.270	10.185	6.44	19.46	0.533384	0.518256	0.143472	-0.228	-0.0015	0.348	0	339	102	3
2026-02-12	14:41:45.290	21.805	11.375	25.515	0.616588	0.635376	0.184952	-0.2295	0.0045	0.351	0	339	102	3
2026-02-12	14:41:45.310	37.24	16.17	24.675	0.732488	0.721752	0.201788	-0.2265	0.006	0.345	0	339	102	3
2026-02-12	14:41:45.330	62.72	18.375	16.8	0.728584	0.896944	0.099308	-0.228	0.0045	0.345	0	339	102	3
2026-02-12	14:41:45.350	78.575	15.82	7.455	0.865956	1.05286	0.015372	-0.234	0.009	0.3435	0	339	102	3
2026-02-12	14:41:45.370	71.995	3.5	-20.545	1.087508	1.463756	-0.037088	-0.2325	0.009	0.345	0	339	102	3
2026-02-12	14:41:45.390	14.105	-9.52	-45.955	1.05286	1.286124	-0.086132	-0.231	0.003	0.351	0	339	102	3
2026-02-12	14:41:45.410	-31.78	-9.1	-45.045	0.8296	0.963312	-0.049776	-0.231	-0.0015	0.3465	0	344	81	3
2026-02-12	14:41:45.430	-49.77	-7.35	-49.21	0.808128	1.012356	0.15006	-0.228	-0.009	0.3435	0	344	81	3
2026-02-12	14:41:45.450	-67.445	-11.62	-47.565	0.89426	1.09312	0.129076	-0.222	-0.0165	0.345	0	344	81	3
2026-02-12	14:41:45.470	-59.78	-8.82	-36.82	0.872544	1.053348	-0.031964	-0.219	-0.0195	0.345	0	344	81	3
2026-02-12	14:41:45.490	-64.505	-15.295	-23.73	0.960384	0.712968	-0.04758	-0.2175	-0.0255	0.3405	0	344	81	3
2026-02-12	14:41:45.510	-56.805	-24.115	-9.24	1.027728	0.542168	0.08418	-0.219	-0.0315	0.339	0	344	81	3
2026-02-12	14:41:45.530	-63.14	-25.9	-10.08	0.92476	0.381616	0.07686	-0.222	-0.0345	0.3435	0	344	81	3
2026-02-12	14:41:45.550	-97.37	-30.345	3.43	0.904508	0.09857599	0.04148	-0.219	-0.0345	0.348	0	344	81	3
2026-02-12	14:41:45.570	-90.685	-31.29	20.86	0.875228	0.026596	0.008784	-0.2205	-0.03	0.3435	0	344	81	3
2026-02-12	14:41:45.590	-56.315	-28.98	34.965	0.810812	0.11712	-0.05368	-0.219	-0.027	0.345	0	344	81	3
2026-02-12	14:41:45.610	-28.735	-30.625	53.725	0.798124	0.216672	-0.10004	-0.2175	-0.024	0.3465	0	352	54	3
2026-02-12	14:41:45.630	6.335	-37.485	63	0.812276	0.480192	-0.119316	-0.222	-0.015	0.345	0	352	54	3
2026-02-12	14:41:45.650	28.49	-43.26	61.81	0.843996	0.796416	-0.1281	-0.225	-0.0105	0.3495	0	352	54	3
2026-02-12	14:41:45.670	7.805	-49.77	58.905	0.814716	0.854732	-0.116388	-0.2235	-0.003	0.357	0	352	54	3
2026-02-12	14:41:45.690	-26.39	-54.95	58.45	0.797392	0.66368	-0.048312	-0.228	0.0075	0.3675	0	352	54	3
2026-02-12	14:41:45.710	-41.545	-56.175	62.86	0.774456	0.435052	-0.000244	-0.2355	0.0165	0.375	0	352	54	3
2026-02-12	14:41:45.730	-35.665	-52.01	68.6	0.743468	0.291336	0.023424	-0.234	0.027	0.384	0	352	54	3
2026-02-12	14:41:45.750	-14.455	-48.615	75.04	0.747372	0.208132	0.00244	-0.231	0.0345	0.387	0	352	54	3
2026-02-12	14:41:45.770	10.5	-45.08	76.825	0.746152	0.301828	-0.021472	-0.234	0.0435	0.393	0	352	54	3
2026-02-12	14:41:45.790	20.23	-42.595	74.13	0.736392	0.348676	-0.076128	-0.2355	0.051	0.399	0	352	54	3
2026-02-12	14:41:45.810	19.285	-43.645	64.89	0.765916	0.396012	-0.075396	-0.2355	0.051	0.399	0	358	38	3
2026-02-12	14:41:45.830	23.17	-40.705	50.47	0.82838	0.428464	0.001952	-0.2295	0.0915	0.4215	0	358	38	3
2026-02-12	14:41:45.850	24.36	-33.18	40.25	0.842288	0.424072	0.04148	-0.2355	0.087	0.4275	0	358	38	3
2026-02-12	14:41:45.870	18.62	-22.61	33.285	0.8479	0.416508	0.05124	-0.2265	0.0975	0.432	0	358	38	3
2026-02-12	14:41:45.890	11.13	-13.125	29.96	0.876448	0.43188	0.008296	-0.2325	0.105	0.4395	0	358	38	3
2026-02-12	14:41:45.910	9.38	-6.37	23.905	0.908168	0.458232	-0.103212	-0.2265	0.1185	0.4365	0	358	38	3
2026-02-12	14:41:45.930	10.745	-1.295	14.595	0.986248	0.463844	-0.196664	-0.2385	0.1125	0.4395	0	358	38	3
2026-02-12	14:41:45.950	14.245	1.96	9.31	1.044564	0.4697	-0.1952	-0.2325	0.1125	0.4335	0	358	38	3
2026-02-12	14:41:45.970	20.545	7.49	7.21	1.100928	0.536068	-0.154208	-0.2295	0.1185	0.4335	0	358	38	3
2026-02-12	14:41:45.990	28.315	17.395	5.04	1.100684	0.594384	-0.146888	-0.2325	0.1215	0.438	0	358	38	3
2026-02-12	14:41:46.010	42.385	32.27	-0.35	1.131672	0.668072	-0.130052	-0.2325	0.1215	0.438	0	359	36	3
2026-02-12	14:41:46.030	51.59	44.66	-4.27	1.15168	0.78446	-0.122732	-0.231	0.1215	0.429	0	359	36	3
2026-02-12	14:41:46.050	43.82	61.425	-10.885	1.08702	0.751276	-0.185928	-0.234	0.126	0.417	0	359	36	3
2026-02-12	14:41:46.070	37.345	65.905	-14.595	1.06506	0.638304	-0.149084	-0.234	0.126	0.417	0	359	36	3
2026-02-12	14:41:46.090	40.215	63.455	-18.865	1.069452	0.55144	-0.114192	-0.234	0.1215	0.402	0	359	36	3
2026-02-12	14:41:46.110	37.45	53.9	-26.565	1.134356	0.54778	-0.120292	-0.2355	0.12	0.387	0	359	36	3
2026-02-12	14:41:46.130	27.65	39.83	-28.455	1.07482	0.447008	-0.116144	-0.2385	0.1245	0.3855	0	359	36	3
2026-02-12	14:41:46.150	5.18	21.91	-27.685	1.006744	0.337452	0.066612	-0.243	0.1155	0.3855	0	359	36	3
2026-02-12	14:41:46.170	-24.57	1.68	-35.56	1.151192	0.218624	0.26352	-0.2325	0.1095	0.372	0	359	36	3
2026-02-12	14:41:46.190	-33.67	-6.965	-46.83	1.211216	0.041724	0.25254	-0.2235	0.099	0.3705	0	359	36	3
2026-02-12	14:41:46.210	-15.68	-3.08	-52.045	1.1285	-0.042456	0.09882	-0.234	0.099	0.3615	0	354	43	3
2026-02-12	14:41:46.230	16.45	3.465	-52.465	1.057008	0.075884	-0.012932	-0.231	0.09	0.366	0	354	43	3
2026-02-12	14:41:46.250	47.81	9.625	-57.085	0.953308	0.224968	-0.038308	-0.234	0.075	0.363	0	354	43	3
2026-02-12	14:41:46.270	67.655	14.735	-62.93	0.859368	0.395524	-0.01586	-0.24	0.0795	0.3675	0	354	43	3
2026-02-12	14:41:46.290	71.995	19.425	-70.7	0.775188	0.57828	-0.011712	-0.2295	0.066	0.36	0	354	43	3
2026-02-12	14:41:46.310	42.7	19.25	-77.455	0.707844	0.659532	-0.02684	-0.237	0.051	0.3555	0	354	43	3
2026-02-12	14:41:46.330	-23.135	14.525	-78.785	0.653676	0.517524	-0.07905599	-0.2295	0.033	0.3585	0	354	43	3
2026-02-12	14:41:46.350	-48.125	12.005	-74.935	0.625128	0.385276	-0.080276	-0.2295	0.024	0.354	0	354	43	3
2026-02-12	14:41:46.370	-52.395	12.32	-68.53	0.565836	0.267424	-0.026108	-0.2325	0.0105	0.3465	0	354	43	3
2026-02-12	14:41:46.390	-45.395	13.93	-58.73	0.521916	0.240096	0.016348	-0.228	0	0.3435	0	354	43	3
2026-02-12	14:41:46.410	-32.445	17.745	-41.65	0.488	0.236192	0.0488	-0.2205	-0.0045	0.336	0	348	41	2
2026-02-12	14:41:46.430	-13.405	21.28	-24.5	0.489464	0.310124	0.09272	-0.219	-0.0105	0.3315	0	348	41	2
2026-02-12	14:41:46.450	4.515	25.865	-6.16	0.454328	0.395524	0.162748	-0.219	-0.0135	0.3285	0	348	41	2
2026-02-12	14:41:46.470	15.435	28.7	8.715	0.45628	0.505324	0.212768	-0.222	-0.0135	0.324	0	348	41	2
2026-02-12	14:41:46.490	22.015	31.185	20.58	0.446764	0.604632	0.213256	-0.225	-0.015	0.321	0	348	41	2
2026-02-12	14:41:46.510	33.18	28.735	25.445	0.523136	0.71736	0.202032	-0.222	-0.009	0.318	0	348	41	2
2026-02-12	14:41:46.530	46.865	23.625	26.705	0.642452	0.85278	0.106872	-0.2205	-0.0105	0.3165	0	348	41	2
2026-02-12	14:41:46.550	66.885	13.79	26.39	0.710528	0.98454	-0.03172	-0.222	-0.0075	0.3105	0	348	41	2
2026-02-12	14:41:46.570	88.865	2.52	21.945	0.88206	1.219268	-0.02684	-0.2205	0	0.3135	0	348	41	2
2026-02-12	14:41:46.590	60.725	-10.465	-0.385	1.087264	1.546716	0.066612	-0.222	-0.0045	0.3225	0	348	41	2
2026-02-12	14:41:46.610	-58.065	-22.54	-20.58	0.891332	0.978684	0.239364	-0.2235	-0.012	0.3225	0	344	24	3
2026-02-12	14:41:46.630	-87.185	-24.5	-23.625	0.982588	0.643916	0.23668	-0.2295	-0.0045	0.327	0	344	24	3
2026-02-12	14:41:46.650	-41.615	-17.22	-30.765	0.967216	0.86376	0.048556	-0.228	-0.0045	0.324	0	344	24	3
2026-02-12	14:41:46.670	-7.63	-15.89	-37.555	1.075308	0.882548	-0.01098	-0.231	-0.0075	0.3165	0	344	24	3
2026-02-12	14:41:46.690	-5.985	-23.625	-38.08	1.122888	0.740052	-0.0061	-0.2205	-0.0165	0.33	0	344	24	3
2026-02-12	14:41:46.710	-10.57	-25.41	-33.74	1.147288	0.647576	-0.047092	-0.222	-0.021	0.3285	0	344	24	3
2026-02-12	14:41:46.730	-40.775	-26.81	-19.915	0.899628	0.23668	-0.055632	-0.219	-0.0255	0.3285	0	344	24	3
2026-02-12	14:41:46.750	-64.785	-29.54	2.975	0.845948	0.063928	0.026108	-0.219	-0.027	0.3285	0	344	24	3
2026-02-12	14:41:46.770	-56.525	-28.28	21.035	0.789584	0.140788	0.025376	-0.2175	-0.027	0.33	0	344	24	3
2026-02-12	14:41:46.790	-42.42	-27.72	38.15	0.771284	0.163968	-0.0671	-0.219	-0.0255	0.3315	0	344	24	3
2026-02-12	14:41:46.810	-26.6	-29.365	54.425	0.759084	0.222772	-0.111996	-0.2205	-0.018	0.3345	0	345	4	3
2026-02-12	14:41:46.830	4.795	-34.965	67.06	0.82228	0.451644	-0.124196	-0.225	-0.0075	0.3375	0	345	4	3
2026-02-12	14:41:46.850	22.82	-41.895	62.93	0.886452	0.89792	-0.160552	-0.225	-0.0015	0.342	0	345	4	3
2026-02-12	14:41:46.870	-22.925	-50.68	57.015	0.894504	0.79422	-0.18178	-0.2205	0	0.345	0	345	4	3
2026-02-12	14:41:46.890	-66.395	-53.795	56.035	0.84668	0.535336	-0.081984	-0.2205	0	0.345	0	345	4	3
2026-02-12	14:41:46.910	-75.215	-50.89	59.815	0.776164	0.35624	-0.0183	-0.237	0.033	0.372	0	345	4	3
2026-02-12	14:41:46.930	-63.665	-46.06	67.2	0.72956	0.183976	0.009028	-0.237	0.0405	0.3735	0	345	4	3
2026-02-12	14:41:46.950	-30.8	-40.25	69.335	0.702964	0.212036	-0.011468	-0.231	0.0435	0.378	0	345	4	3
2026-02-12	14:41:46.970	6.86	-37.345	66.99	0.707112	0.354532	-0.04392	-0.24	0.0585	0.39	0	345	4	3
2026-02-12	14:41:46.990	27.335	-36.015	59.185	0.71004	0.462868	-0.087352	-0.2415	0.072	0.387	0	345	4	3
2026-02-12	14:41:47.010	26.775	-35.595	50.435	0.717116	0.489708	-0.088328	-0.237	0.078	0.39	0	347	1	3
2026-02-12	14:41:47.030	19.04	-35.49	41.615	0.741516	0.470432	-0.027328	-0.2415	0.084	0.4005	0	347	1	3
2026-02-12	14:41:47.050	12.495	-31.745	34.23	0.80398	0.446276	0.056364	-0.246	0.0915	0.408	0	347	1	3
2026-02-12	14:41:47.070	10.92	-24.78	30.135	0.847168	0.482388	0.07686	-0.237	0.099	0.414	0	347	1	3
2026-02-12	14:41:47.090	3.64	-15.05	27.615	0.849608	0.500688	-0.011712	-0.2415	0.105	0.417	0	347	1	3
2026-02-12	14:41:47.110	-7.385	-8.015	25.515	0.88694	0.467016	-0.101016	-0.2325	0.1035	0.4155	0	347	1	3
2026-02-12	14:41:47.130	-0.21	-5.74	20.965	0.9577	0.480924	-0.210816	-0.2385	0.117	0.4215	0	347	1	3
2026-02-12	14:41:47.150	13.23	-1.12	19.425	1.052372	0.565592	-0.180804	-0.2385	0.117	0.4215	0	347	1	3
2026-02-12	14:41:47.170	15.89	8.75	19.845	1.103612	0.644648	-0.122976	-0.2355	0.1215	0.4215	0	347	1	3
2026-02-12	14:41:47.190	17.5	23.73	20.44	1.111908	0.650748	-0.114192	-0.2385	0.1245	0.4185	0	347	1	3
2026-02-12	14:41:47.210	20.16	37.975	21.07	1.08214	0.661728	-0.135664	-0.2415	0.126	0.4155	0	346	11	3
2026-02-12	14:41:47.230	26.32	50.89	15.47	1.07848	0.769576	-0.125172	-0.2385	0.132	0.411	0	346	11	3
2026-02-12	14:41:47.250	21.07	60.27	7.63	1.04798	0.766648	-0.1525	-0.234	0.1395	0.402	0	346	11	3
2026-02-12	14:41:47.270	5.915	62.51	-1.365	0.989664	0.686616	-0.1281	-0.234	0.1365	0.3945	0	346	11	3
2026-02-12	14:41:47.290	-13.3	55.615	-18.27	0.975756	0.72956	-0.04636	-0.237	0.129	0.3915	0	346	11	3
2026-02-12	14:41:47.310	-50.295	42.49	-39.235	1.010404	0.56486	-0.126148	-0.24	0.126	0.384	0	346	11	3
2026-02-12	14:41:47.330	-84.49	26.04	-46.27	1.057008	0.436516	-0.06466	-0.243	0.1245	0.3705	0	346	11	3
2026-02-12	14:41:47.350	-109.27	15.575	-45.815	1.115812	0.182512	0.123464	-0.2415	0.12	0.3675	0	346	11	3
2026-02-12	14:41:47.370	-115.71	6.16	-49.84	1.352248	-0.005612	0.245708	-0.237	0.1155	0.3735	0	346	11	3
2026-02-12	14:41:47.390	-100.975	7.665	-54.39	1.46522	-0.149816	0.143472	-0.2385	0.1125	0.3675	0	346	11	3
2026-02-12	14:41:47.410	-23.8	21.21	-49.105	1.243668	-0.08418	-0.123952	-0.24	0.102	0.369	0	341	26	3
2026-02-12	14:41:47.430	33.6	27.23	-47.915	1.118496	0.1342	-0.0854	-0.2415	0.093	0.3615	0	341	26	3
2026-02-12	14:41:47.450	72.765	33.67	-49.84	1.012356	0.310124	0.00976	-0.2415	0.078	0.3555	0	341	26	3
2026-02-12	14:41:47.470	96.285	40.18	-52.5	0.887916	0.461404	0.083692	-0.2415	0.0705	0.354	0	341	26	3
2026-02-12	14:41:47.490	94.465	44.87	-54.6	0.744688	0.561688	0.124928	-0.24	0.066	0.348	0	341	26	3
2026-02-12	14:41:47.510	72.8	45.325	-57.295	0.650016	0.592432	0.131272	-0.24	0.057	0.3405	0	341	26	3
2026-02-12	14:41:47.530	39.06	42.595	-57.61	0.539728	0.557784	0.098332	-0.2415	0.0465	0.333	0	341	26	3
2026-02-12	14:41:47.550	3.78	36.89	-54.81	0.488244	0.457988	0.060512	-0.2385	0.0375	0.3255	0	341	26	3
2026-02-12	14:41:47.570	-20.58	28.595	-51.695	0.431392	0.352336	0.040016	-0.234	0.0315	0.327	0	341	26	3
2026-02-12	14:41:47.590	-33.32	20.755	-40.775	0.38308	0.2623	0.050264	-0.228	0.021	0.3225	0	341	26	3
2026-02-12	14:41:47.610	-35.735	12.495	-24.745	0.399916	0.25132	0.06734399	-0.231	0.015	0.315	0	338	25	3
2026-02-12	14:41:47.630	-30.87	5.565	-7.945	0.431392	0.29768	0.09394	-0.231	0.012	0.3135	0	338	25	3
2026-02-12	14:41:47.650	-23.1	0.875	4.9	0.46726	0.37454	0.147376	-0.228	0.003	0.3105	0	338	25	3
2026-02-12	14:41:47.670	-15.365	-1.96	14.98	0.511668	0.481168	0.219356	-0.2325	0.0015	0.309	0	338	25	3
2026-02-12	14:41:47.690	-4.13	-3.395	19.25	0.594384	0.591456	0.287188	-0.237	0.003	0.3105	0	338	25	3
2026-02-12	14:41:47.710	16.065	-2.87	15.365	0.735904	0.751276	0.320616	-0.2295	0.0165	0.309	0	338	25	3
2026-02-12	14:41:47.730	39.585	-4.48	0.07	0.836432	0.94428	0.224236	-0.2325	0.0165	0.3165	0	338	25	3
2026-02-12	14:41:47.750	56.385	-12.845	-19.11	1.009184	1.098244	0.156892	-0.234	0.024	0.3135	0	338	25	3
2026-02-12	14:41:47.770	50.925	-17.745	-33.95	1.048956	1.213412	0.138348	-0.231	0.012	0.3255	0	338	25	3
2026-02-12	14:41:47.790	5.985	-18.34	-38.395	0.959408	1.003572	0.279136	-0.24	0.003	0.321	0	338	25	3
2026-02-12	14:41:47.810	-38.675	-12.635	-34.055	0.96502	0.776652	0.467992	-0.2205	0	0.324	0	338	1	3
2026-02-12	14:41:47.830	-36.61	-1.365	-32.865	1.003816	0.837408	0.366244	-0.2265	-0.0045	0.3285	0	338	1	3
2026-02-12	14:41:47.850	-7.63	10.78	-38.36	0.993324	0.96746	0.183976	-0.234	-0.0015	0.3165	0	338	1	3
2026-02-12	14:41:47.870	11.095	7.07	-44.17	1.038464	0.797392	0.053192	-0.225	-0.0045	0.3255	0	338	1	3
2026-02-12	14:41:47.890	22.155	1.155	-41.055	1.037732	0.671488	0.011224	-0.225	-0.015	0.3255	0	338	1	3
2026-02-12	14:41:47.910	10.325	-6.65	-26.565	0.9699	0.499712	0.03904	-0.228	-0.0255	0.3315	0	338	1	3
2026-02-12	14:41:47.930	-16.415	-12.705	-6.615	0.835212	0.159576	0.07124799	-0.228	-0.0285	0.3315	0	338	1	3
2026-02-12	14:41:47.950	-13.545	-22.54	22.085	0.752984	0.04392	-0.017324	-0.2265	-0.0315	0.3285	0	338	1	3
2026-02-12	14:41:47.970	6.51	-24.99	48.79	0.790316	0.073688	-0.10004	-0.2265	-0.0315	0.3285	0	338	1	3
2026-02-12	14:41:47.990	40.53	-29.995	65.03	0.826184	0.229848	-0.127612	-0.228	-0.0255	0.3375	0	338	1	3
2026-02-12	14:41:48.010	75.74	-39.655	69.44	0.918904	0.605608	-0.114924	-0.231	-0.012	0.348	0	343	36	3
2026-02-12	14:41:48.030	71.96	-46.725	62.58	0.930616	0.92476	-0.08784	-0.234	0.0015	0.354	0	343	36	3
2026-02-12	14:41:48.050	17.605	-50.82	54.74	0.861076	0.9638	-0.121024	-0.2385	0.0105	0.3645	0	343	36	3
2026-02-12	14:41:48.070	-44.24	-52.29	49.84	0.749324	0.634644	-0.078812	-0.24	0.0105	0.3735	0	343	36	3
2026-02-12	14:41:48.090	-74.725	-54.215	53.655	0.718824	0.290604	-0.033672	-0.2325	0.018	0.381	0	343	36	3
2026-02-12	14:41:48.110	-59.325	-52.57	59.78	0.678076	0.067588	-0.015616	-0.2295	0.0255	0.39	0	343	36	3
2026-02-12	14:41:48.130	-17.535	-51.625	66.045	0.722728	0.076616	-0.026596	-0.237	0.036	0.402	0	343	36	3
2026-02-12	14:41:48.150	22.715	-51.24	66.85	0.729804	0.321348	-0.083204	-0.234	0.039	0.4035	0	343	36	3
2026-02-12	14:41:48.170	31.99	-52.325	63.56	0.747616	0.542412	-0.135176	-0.2265	0.0555	0.405	0	343	36	3
2026-02-12	14:41:48.190	16.135	-54.11	53.585	0.773968	0.622444	-0.12688	-0.231	0.0555	0.426	0	343	36	3
2026-02-12	14:41:48.210	0.455	-52.955	38.955	0.840092	0.500688	-0.041968	-0.2325	0.069	0.4275	0	349	42	3
2026-02-12	14:41:48.230	3.955	-42.84	27.23	0.888648	0.430172	0.040748	-0.2325	0.0765	0.435	0	349	42	3
2026-02-12	14:41:48.250	6.02	-30.87	25.41	0.858636	0.436272	-0.024644	-0.2325	0.084	0.4395	0	349	42	3
2026-02-12	14:41:48.270	-3.5	-23.87	28.14	0.842288	0.459452	-0.092232	-0.2325	0.084	0.4455	0	349	42	3
2026-02-12	14:41:48.290	-8.085	-20.545	29.645	0.871812	0.477996	-0.14762	-0.231	0.09	0.459	0	349	42	3
2026-02-12	14:41:48.310	-7.945	-14.105	25.165	1.034804	0.531188	-0.15982	-0.228	0.093	0.4635	0	349	42	3
2026-02-12	14:41:48.330	-6.23	-1.26	27.545	1.090436	0.522404	-0.15982	-0.2265	0.0975	0.4605	0	349	42	3
2026-02-12	14:41:48.350	-1.295	11.48	27.055	1.076284	0.574864	-0.162504	-0.2265	0.102	0.4545	0	349	42	3
2026-02-12	14:41:48.370	7.49	25.235	21.91	1.04798	0.614148	-0.167628	-0.2235	0.1005	0.4545	0	349	42	3
2026-02-12	14:41:48.390	14.035	36.995	14.245	1.01748	0.598532	-0.126636	-0.2265	0.102	0.4605	0	349	42	3
2026-02-12	14:41:48.410	16.03	46.025	6.895	1.101904	0.561932	-0.040992	-0.228	0.105	0.456	0	350	22	3
2026-02-12	14:41:48.430	30.065	58.835	0.63	1.121668	0.613172	-0.04758	-0.222	0.105	0.4425	0	350	22	3
2026-02-12	14:41:48.450	39.9	63.07	-7.49	1.126304	0.634156	-0.133712	-0.225	0.1005	0.432	0	350	22	3
2026-02-12	14:41:48.470	41.475	62.65	-14.28	1.045296	0.70638	-0.157868	-0.228	0.099	0.4275	0	350	22	3
2026-02-12	14:41:48.490	20.58	48.58	-26.075	1.025044	0.63318	-0.181292	-0.2325	0.102	0.426	0	350	22	3
2026-02-12	14:41:48.510	-4.375	32.27	-30.135	0.965752	0.455792	-0.179828	-0.234	0.0975	0.4095	0	350	22	3
2026-02-12	14:41:48.530	-19.285	18.935	-32.76	0.930616	0.354776	-0.035624	-0.237	0.09	0.3945	0	350	22	3
2026-02-12	14:41:48.550	-34.265	10.185	-37.275	1.09678	0.270352	0.142008	-0.234	0.0825	0.393	0	350	22	3
2026-02-12	14:41:48.570	-45.64	6.79	-45.43	1.247816	0.147376	0.166652	-0.2295	0.078	0.3885	0	350	22	3
2026-02-12	14:41:48.590	-41.265	8.645	-47.81	1.253916	-0.01098	0.005368	-0.231	0.0735	0.3855	0	350	22	3
2026-02-12	14:41:48.610	-8.19	14.175	-45.64	1.1712	0.010004	-0.102968	-0.2295	0.0585	0.384	0	348	6	3
2026-02-12	14:41:48.630	41.58	23.17	-44.24	1.050176	0.207156	-0.097844	-0.228	0.051	0.3795	0	348	6	3
2026-02-12	14:41:48.650	77.77	30.205	-48.265	0.918416	0.5002	-0.045384	-0.2265	0.045	0.3765	0	348	6	3
2026-02-12	14:41:48.670	79.8	30.45	-57.75	0.7991	0.657824	0.003416	-0.228	0.0405	0.372	0	348	6	3
2026-02-12	14:41:48.690	47.11	25.445	-67.305	0.679052	0.66978	0.0305	-0.231	0.036	0.366	0	348	6	3
2026-02-12	14:41:48.710	-3.325	19.215	-70.49	0.606584	0.559248	0.006832	-0.2295	0.024	0.357	0	348	6	3
2026-02-12	14:41:48.730	-42.945	12.565	-69.195	0.538508	0.412848	-0.023668	-0.222	0.009	0.3525	0	348	6	3
2026-02-12	14:41:48.750	-58.52	5.74	-61.32	0.489952	0.235948	0.003172	-0.219	-0.0015	0.351	0	348	6	3
2026-02-12	14:41:48.770	-45.885	2.625	-49.035	0.476776	0.17324	0.049776	-0.2205	-0.003	0.3465	0	348	6	3
2026-02-12	14:41:48.790	-31.535	1.05	-37.87	0.475312	0.233264	0.037576	-0.2145	-0.021	0.3465	0	348	6	3
2026-02-12	14:41:48.810	-20.09	0.805	-22.365	0.510204	0.297192	0.035624	-0.2145	-0.018	0.336	0	343	20	2
2026-02-12	14:41:48.830	-12.18	2.24	-4.9	0.519964	0.375028	0.078812	-0.213	-0.027	0.33	0	343	20	2
2026-02-12	14:41:48.850	-8.995	3.64	10.57	0.54656	0.464088	0.173972	-0.2145	-0.018	0.3255	0	343	20	2
2026-02-12	14:41:48.870	-1.855	8.47	22.575	0.569252	0.571692	0.27816	-0.21	-0.021	0.3375	0	343	20	2
2026-02-12	14:41:48.890	19.705	17.115	27.16	0.684908	0.762012	0.333304	-0.21	-0.0195	0.333	0	343	20	2
2026-02-12	14:41:48.910	48.79	22.47	16.905	0.772016	0.950136	0.20618	-0.2145	-0.0165	0.333	0	343	20	2
2026-02-12	14:41:48.930	55.16	18.375	5.425	0.865468	1.016016	0.050752	-0.213	-0.015	0.3285	0	343	20	2
2026-02-12	14:41:48.950	51.555	13.895	-11.9	1.098488	1.241228	0.035868	-0.2145	-0.018	0.327	0	343	20	2
2026-02-12	14:41:48.970	27.72	0.175	-43.33	1.190964	1.27246	0.114192	-0.2025	-0.0225	0.33	0	343	20	2
2026-02-12	14:41:48.990	-15.26	-3.5	-51.03	1.10898	0.88816	0.254492	-0.21	-0.03	0.3285	0	343	20	2
2026-02-12	14:41:49.010	-19.67	5.81	-46.095	1.005524	0.892552	0.187392	-0.2085	-0.033	0.327	0	342	9	3
2026-02-12	14:41:49.030	-3.045	-0.56	-53.445	0.98576	1.001376	-0.003416	-0.2085	-0.033	0.327	0	342	9	3
2026-02-12	14:41:49.050	-14.945	-17.115	-49.665	0.976	0.763476	-0.055632	-0.2085	-0.033	0.327	0	342	9	3
2026-02-12	14:41:49.070	-26.39	-30.695	-36.715	0.953064	0.583404	-0.068808	-0.1995	-0.048	0.318	0	342	9	3
2026-02-12	14:41:49.090	-46.62	-34.965	-17.465	0.757864	0.27084	-0.050264	-0.198	-0.0615	0.318	0	342	9	3
2026-02-12	14:41:49.110	-58.38	-35.875	4.41	0.635132	-0.00244	0.028304	-0.1935	-0.0675	0.3195	0	342	9	3
2026-02-12	14:41:49.130	-45.99	-40.075	28.07	0.650016	0.032208	0.040748	-0.195	-0.0645	0.3225	0	342	9	3
2026-02-12	14:41:49.150	-28.63	-44.135	55.93	0.661728	0.196664	-0.032452	-0.1995	-0.0555	0.33	0	342	9	3
2026-02-12	14:41:49.170	-16.1	-47.95	81.97	0.80398	0.3172	-0.103456	-0.198	-0.048	0.324	0	342	9	3
2026-02-12	14:41:49.190	10.57	-51.345	88.655	0.931104	0.659532	-0.184708	-0.21	-0.0405	0.327	0	342	9	3
2026-02-12	14:41:49.210	9.38	-53.62	81.725	0.953064	0.980392	-0.257664	-0.2115	-0.0285	0.339	0	344	6	3
2026-02-12	14:41:49.230	-38.815	-60.62	72.205	0.942572	0.87962	-0.260348	-0.2115	-0.015	0.345	0	344	6	3
2026-02-12	14:41:49.250	-85.05	-66.71	66.815	0.8601	0.514108	-0.1464	-0.2205	-0.006	0.36	0	344	6	3
2026-02-12	14:41:49.270	-88.865	-65.205	64.68	0.752984	0.33306	-0.027084	-0.222	0.006	0.357	0	344	6	3
2026-02-12	14:41:49.290	-54.565	-56.77	62.405	0.7015	0.175436	-0.040504	-0.222	0.012	0.366	0	344	6	3
2026-02-12	14:41:49.310	-10.325	-48.58	59.71	0.70882	0.242536	-0.10248	-0.222	0.012	0.366	0	344	6	3
2026-02-12	14:41:49.330	6.615	-46.2	57.015	0.729316	0.350872	-0.140056	-0.2265	0.0255	0.381	0	344	6	3
2026-02-12	14:41:49.350	7.385	-46.27	50.68	0.770308	0.42334	-0.142984	-0.2295	0.045	0.396	0	344	6	3
2026-02-12	14:41:49.370	9.695	-43.785	40.215	0.80398	0.440176	-0.093696	-0.2295	0.0555	0.399	0	344	6	3
2026-02-12	14:41:49.390	12.53	-36.505	32.165	0.809592	0.33428	-0.008052	-0.2295	0.0645	0.405	0	344	6	3
2026-02-12	14:41:49.410	16.59	-24.71	29.365	0.820328	0.2806	0.037088	-0.228	0.069	0.411	0	348	0	3
2026-02-12	14:41:49.430	19.39	-15.4	30.485	0.839116	0.360144	-0.015616	-0.2325	0.0735	0.4155	0	348	0	3
2026-02-12	14:41:49.450	16.135	-8.61	31.605	0.859856	0.39894	-0.099064	-0.234	0.078	0.4215	0	348	0	3
2026-02-12	14:41:49.470	16.905	-3.57	29.435	0.891576	0.495808	-0.150548	-0.231	0.081	0.4215	0	348	0	3
2026-02-12	14:41:49.490	17.78	-0.175	23.205	0.971608	0.591212	-0.166164	-0.234	0.0885	0.423	0	348	0	3
2026-02-12	14:41:49.510	18.515	3.885	14.7	1.081896	0.725168	-0.142008	-0.2325	0.0915	0.426	0	348	0	3
2026-02-12	14:41:49.530	10.815	11.235	8.295	1.111176	0.715164	-0.134444	-0.2325	0.093	0.4245	0	348	0	3
2026-02-12	14:41:49.550	8.015	22.12	6.02	1.090436	0.620248	-0.153232	-0.231	0.099	0.4215	0	348	0	3
2026-02-12	14:41:49.570	19.81	39.55	0.875	1.176812	0.66612	-0.088328	-0.2265	0.1005	0.417	0	348	0	3
2026-02-12	14:41:49.590	27.615	56.63	-1.785	1.08946	0.554368	-0.136396	-0.2295	0.096	0.4125	0	348	0	3
2026-02-12	14:41:49.610	38.045	63	1.085	1.068476	0.559004	-0.183976	-0.234	0.0915	0.4005	0	348	20	3
2026-02-12	14:41:49.630	48.405	62.055	-3.64	1.030168	0.623908	-0.208132	-0.2355	0.093	0.39	0	348	20	3
2026-02-12	14:41:49.650	47.25	51.345	-20.93	0.97722	0.608292	-0.2745	-0.228	0.0945	0.3855	0	348	20	3
2026-02-12	14:41:49.670	27.125	34.335	-33.18	0.98454	0.509716	-0.200812	-0.2295	0.0945	0.372	0	348	20	3
2026-02-12	14:41:49.690	-5.705	14.49	-41.93	1.068232	0.345748	-0.0305	-0.231	0.0915	0.3615	0	348	20	3
2026-02-12	14:41:49.710	-39.235	-1.82	-48.055	1.291248	0.15372	0.194712	-0.228	0.0855	0.3615	0	348	20	3
2026-02-12	14:41:49.730	-51.52	-7.28	-55.755	1.39446	-0.105896	0.232776	-0.234	0.0825	0.36	0	348	20	3
2026-02-12	14:41:49.750	-24.885	-0.35	-57.12	1.314428	-0.119804	0.101016	-0.2325	0.072	0.3645	0	348	20	3
2026-02-12	14:41:49.770	20.755	9.625	-55.86	1.185596	0.113216	-0.011224	-0.2295	0.063	0.366	0	348	20	3
2026-02-12	14:41:49.790	55.86	16.73	-58.94	1.079944	0.331596	-0.028792	-0.228	0.06	0.36	0	348	20	3
2026-02-12	14:41:49.810	73.045	22.015	-64.68	0.91134	0.512888	-0.01342	-0.225	0.0465	0.36	0	345	40	3
2026-02-12	14:41:49.830	57.89	21.98	-72.275	0.740052	0.66368	-0.038308	-0.2295	0.036	0.36	0	345	40	3
2026-02-12	14:41:49.850	9.905	15.155	-78.68	0.62708	0.723704	-0.06954	-0.2295	0.036	0.36	0	345	40	3
2026-02-12	14:41:49.870	-38.78	6.58	-80.675	0.588772	0.571204	-0.103212	-0.2265	0.0015	0.3555	0	345	40	3
2026-02-12	14:41:49.890	-64.47	-0.28	-81.06	0.560956	0.387716	-0.082472	-0.219	0	0.345	0	345	40	3
2026-02-12	14:41:49.910	-66.815	-2.03	-72.52	0.507276	0.224724	-0.02074	-0.216	-0.0075	0.345	0	345	40	3
2026-02-12	14:41:49.930	-58.065	-1.995	-58.555	0.507764	0.202032	0.015616	-0.2115	-0.021	0.3435	0	345	40	3
2026-02-12	14:41:49.950	-43.295	0.14	-42.245	0.499468	0.260836	0.028304	-0.207	-0.0345	0.339	0	345	40	3
2026-02-12	14:41:49.970	-31.815	3.08	-24.115	0.480924	0.337696	0.027084	-0.2145	-0.036	0.33	0	345	40	3
2026-02-12	14:41:49.990	-29.435	2.835	-5.495	0.467504	0.361608	0.028304	-0.204	-0.0435	0.3285	0	345	40	3
2026-02-12	14:41:50.010	-24.605	2.555	20.44	0.476776	0.37332	0.085156	-0.204	-0.0435	0.3285	0	343	44	2
2026-02-12	14:41:50.030	-13.79	3.535	34.335	0.471652	0.4087	0.137616	-0.21	-0.0375	0.33	0	343	44	2
2026-02-12	14:41:50.050	12.005	5.635	45.185	0.506788	0.49776	0.248392	-0.2175	-0.0345	0.324	0	343	44	2
2026-02-12	14:41:50.070	47.25	9.975	46.13	0.66368	0.790316	0.371124	-0.2175	-0.024	0.33	0	343	44	2
2026-02-12	14:41:50.090	72.275	15.085	45.535	0.752252	1.046516	0.216672	-0.2055	-0.018	0.324	0	343	44	2
2026-02-12	14:41:50.110	70.14	8.785	0.49	1.220976	1.458388	-0.054412	-0.2055	-0.018	0.324	0	343	44	2
2026-02-12	14:41:50.130	32.9	-11.935	-41.79	1.352736	1.282952	-0.07686	-0.21	-0.0195	0.3285	0	343	44	2
2026-02-12	14:41:50.150	-33.18	-14.77	-42.105	1.124108	0.726632	0.160308	-0.2145	-0.0255	0.3315	0	343	44	2
2026-02-12	14:41:50.170	-32.55	-10.15	-38.64	1.056032	0.691252	0.234728	-0.2145	-0.03	0.3315	0	343	44	2
2026-02-12	14:41:50.190	2.695	2.835	-45.08	0.975024	1.08336	0.182756	-0.2055	-0.0285	0.339	0	343	44	2
2026-02-12	14:41:50.210	-13.055	6.265	-55.125	1.016748	0.998448	0.126148	-0.2055	-0.039	0.33	0	345	26	3
2026-02-12	14:41:50.230	-44.87	2.87	-51.17	0.995764	0.488244	-0.059292	-0.204	-0.0495	0.3285	0	345	26	3
2026-02-12	14:41:50.250	-37.905	1.75	-34.58	0.903044	0.360876	-0.067588	-0.2055	-0.048	0.33	0	345	26	3
2026-02-12	14:41:50.270	-28.035	-3.99	-13.37	0.859368	0.295972	0.00732	-0.198	-0.0615	0.318	0	345	26	3
2026-02-12	14:41:50.290	-27.405	-6.825	3.64	0.799832	0.200812	0.025132	-0.1905	-0.0585	0.321	0	345	26	3
2026-02-12	14:41:50.310	-19.6	-9.065	18.795	0.75884	0.11956	-0.03904	-0.204	-0.0615	0.309	0	345	26	3
2026-02-12	14:41:50.330	-4.41	-9.31	35.77	0.7503	0.188368	-0.101504	-0.201	-0.0555	0.3105	0	345	26	3
2026-02-12	14:41:50.350	8.19	-13.125	53.375	0.77958	0.34038	-0.151768	-0.198	-0.0615	0.3135	0	345	26	3
2026-02-12	14:41:50.370	20.93	-24.255	61.425	0.899384	0.65148	-0.167628	-0.2055	-0.048	0.3195	0	345	26	3
2026-02-12	14:41:50.390	8.155	-36.61	54.005	0.92964	0.8052	-0.144936	-0.21	-0.0375	0.3195	0	345	26	3
2026-02-12	14:41:50.410	-17.745	-40.355	46.2	0.864492	0.653188	-0.112484	-0.21	-0.0285	0.327	0	350	7	3
2026-02-12	14:41:50.430	-34.615	-41.055	44.275	0.82716	0.479704	-0.05124	-0.207	-0.027	0.333	0	350	7	3
2026-02-12	14:41:50.450	-37.345	-39.76	49.245	0.770308	0.311588	-0.013908	-0.21	-0.0135	0.3375	0	350	7	3
2026-02-12	14:41:50.470	-23.695	-37.17	56.665	0.76616	0.187148	-0.013908	-0.213	-0.006	0.3435	0	350	7	3
2026-02-12	14:41:50.490	4.97	-33.32	62.125	0.7808	0.205448	-0.007808	-0.2145	0	0.3495	0	350	7	3
2026-02-12	14:41:50.510	30.835	-31.465	67.06	0.773724	0.359412	-0.048068	-0.2205	0.0135	0.3555	0	350	7	3
2026-02-12	14:41:50.530	39.27	-29.54	65.17	0.752984	0.4636	-0.108092	-0.222	0.0195	0.36	0	350	7	3
2026-02-12	14:41:50.550	37.415	-27.93	56.735	0.721752	0.488976	-0.09467199	-0.2175	0.0255	0.366	0	350	7	3
2026-02-12	14:41:50.570	39.55	-26.04	46.69	0.740052	0.49044	-0.031964	-0.2205	0.036	0.375	0	350	7	3
2026-02-12	14:41:50.590	43.085	-17.325	35.665	0.782752	0.52826	0.043432	-0.2265	0.0465	0.3795	0	350	7	3
2026-02-12	14:41:50.610	37.975	-9.31	30.765	0.804224	0.606584	0.03904	-0.2265	0.048	0.3855	0	354	6	2
2026-02-12	14:41:50.630	20.44	0.7	24.675	0.792512	0.583648	-0.062464	-0.225	0.0525	0.384	0	354	6	2
2026-02-12	14:41:50.650	8.015	6.51	17.395	0.853268	0.5734	-0.12566	-0.228	0.0555	0.381	0	354	6	2
2026-02-12	14:41:50.670	7.455	11.48	13.3	0.89914	0.592432	-0.151036	-0.2325	0.0615	0.3735	0	354	6	2
2026-02-12	14:41:50.690	6.475	17.29	13.685	0.941596	0.606828	-0.147132	-0.231	0.06	0.378	0	354	6	2
2026-02-12	14:41:50.710	9.1	25.83	12.81	0.957456	0.65636	-0.141032	-0.2265	0.0735	0.372	0	354	6	2
2026-02-12	14:41:50.730	17.045	31.745	8.295	0.999424	0.736148	-0.162748	-0.225	0.0675	0.3705	0	354	6	2
2026-02-12	14:41:50.750	20.265	37.24	3.955	1.023824	0.7381	-0.15128	-0.2235	0.0705	0.3675	0	354	6	2
2026-02-12	14:41:50.770	20.86	43.05	1.54	1.0309	0.733464	-0.07515199	-0.231	0.0765	0.363	0	354	6	2
2026-02-12	14:41:50.790	20.09	50.085	-0.77	1.024312	0.67222	-0.061732	-0.231	0.0765	0.363	0	354	6	2
2026-02-12	14:41:50.810	19.67	54.355	-4.725	1.060668	0.729804	-0.08418	-0.228	0.075	0.354	0	351	18	3
2026-02-12	14:41:50.830	11.725	54.215	-10.395	1.109224	0.754936	-0.08174	-0.225	0.0705	0.342	0	351	18	3
2026-02-12	14:41:50.850	-0.77	49.035	-19.04	1.154852	0.692716	-0.026108	-0.2265	0.069	0.3345	0	351	18	3
2026-02-12	14:41:50.870	-19.95	37.135	-24.01	1.236104	0.549976	-0.020496	-0.225	0.0705	0.3285	0	351	18	3
2026-02-12	14:41:50.890	-43.26	23.8	-21.07	1.138748	0.247904	-0.000732	-0.222	0.0645	0.3225	0	351	18	3
2026-02-12	14:41:50.910	-62.895	7.63	-22.575	1.132404	0.098332	0.2257	-0.225	0.06	0.318	0	351	18	3
2026-02-12	14:41:50.930	-59.29	4.76	-31.22	1.209752	-0.016836	0.232288	-0.225	0.06	0.318	0	351	18	3
2026-02-12	14:41:50.950	-29.505	9.345	-35.7	1.127524	-0.118096	0.113216	-0.216	0.0615	0.312	0	351	18	3
2026-02-12	14:41:50.970	17.465	14.595	-36.435	1.022848	0.027572	-0.000976	-0.2295	0.054	0.312	0	351	18	3
2026-02-12	14:41:50.990	57.4	19.005	-38.395	0.968924	0.221308	-0.02074	-0.225	0.051	0.312	0	351	18	3
2026-02-12	14:41:51.010	98.56	25.06	-47.32	0.8845	0.452132	0.021228	-0.222	0.0465	0.3165	0	345	27	3
2026-02-12	14:41:51.030	113.75	28.105	-59.885	0.79788	0.687348	0.05978	-0.2175	0.0315	0.3045	0	345	27	3
2026-02-12	14:41:51.050	84.7	26.355	-70.21	0.68076	0.734928	0.071492	-0.2145	0.0285	0.3	0	345	27	3
2026-02-12	14:41:51.070	28.665	21.035	-72.485	0.630252	0.675392	0.040992	-0.216	0.0165	0.3105	0	345	27	3
2026-02-12	14:41:51.090	-20.44	15.47	-71.225	0.578768	0.510936	0.037576	-0.2145	0.0075	0.2985	0	345	27	3
2026-02-12	14:41:51.110	-45.43	11.69	-67.585	0.544608	0.366976	0.04636	-0.2025	-0.0015	0.3075	0	345	27	3
2026-02-12	14:41:51.130	-51.695	10.185	-61.985	0.54534	0.270108	0.070028	-0.207	-0.0135	0.291	0	345	27	3
2026-02-12	14:41:51.150	-47.985	11.48	-54.74	0.509472	0.22814	0.08662	-0.204	-0.0135	0.2985	0	345	27	3
2026-02-12	14:41:51.170	-31.92	14.35	-35.455	0.484828	0.275964	0.10248	-0.201	-0.033	0.288	0	345	27	3
2026-02-12	14:41:51.190	-10.15	15.785	-15.68	0.457744	0.36234	0.141032	-0.201	-0.033	0.288	0	345	27	3
2026-02-12	14:41:51.210	4.585	17.57	0.7	0.47092	0.52094	0.22326	-0.195	-0.03	0.2835	0	341	17	3
2026-02-12	14:41:51.230	10.22	21.49	11.235	0.518256	0.70272	0.268156	-0.192	-0.03	0.2805	0	341	17	3
2026-02-12	14:41:51.250	13.195	26.6	14.595	0.592432	0.843752	0.28182	-0.1935	-0.0345	0.2775	0	341	17	3
2026-02-12	14:41:51.270	22.61	27.44	9.905	0.6954	0.934764	0.225456	-0.195	-0.036	0.2775	0	341	17	3
2026-02-12	14:41:51.290	40.74	20.37	-0.07	0.840824	1.111664	0.236924	-0.198	-0.03	0.276	0	341	17	3
2026-02-12	14:41:51.310	39.585	16.31	-10.955	1.066524	1.304424	0.303048	-0.195	-0.03	0.2685	0	341	17	3
2026-02-12	14:41:51.330	6.405	10.99	-35.455	1.107272	1.212924	0.216428	-0.1905	-0.0345	0.2685	0	341	17	3
2026-02-12	14:41:51.350	-31.5	7.49	-39.935	0.876936	0.833504	0.279136	-0.192	-0.039	0.27	0	341	17	3
2026-02-12	14:41:51.370	-35.385	8.435	-37.345	0.825696	0.81008	0.28426	-0.1935	-0.039	0.2685	0	341	17	3
2026-02-12	14:41:51.390	-4.725	8.155	-39.34	0.819108	0.988444	0.19154	-0.1935	-0.0375	0.264	0	341	17	3
2026-02-12	14:41:51.410	3.99	-5.145	-34.58	0.88938	0.854244	0.095892	-0.1845	-0.054	0.2595	0	340	15	3
2026-02-12	14:41:51.430	-4.13	-19.775	-22.995	0.968436	0.794708	0.091012	-0.1875	-0.0645	0.2625	0	340	15	3
2026-02-12	14:41:51.450	-41.51	-31.395	-10.71	0.928664	0.432612	-0.036356	-0.1815	-0.048	0.2625	0	340	15	3
2026-02-12	14:41:51.470	-64.68	-41.615	0.42	0.882792	0.139568	-0.08662	-0.183	-0.0555	0.264	0	340	15	3
2026-02-12	14:41:51.490	-65.205	-51.59	22.715	0.8479	0.062708	-0.067832	-0.1845	-0.06	0.2655	0	340	15	3
2026-02-12	14:41:51.510	-45.815	-53.795	43.155	0.836432	0.130784	-0.082472	-0.189	-0.054	0.2685	0	340	15	3
2026-02-12	14:41:51.530	-28.525	-54.145	63.98	0.880596	0.17812	-0.078812	-0.1965	-0.0435	0.2745	0	340	15	3
2026-02-12	14:41:51.550	-3.815	-56.175	73.675	0.924028	0.397964	-0.024888	-0.1965	-0.036	0.282	0	340	15	3
2026-02-12	14:41:51.570	22.505	-54.005	73.85	0.889624	0.681004	-0.02074	-0.1995	-0.0285	0.2895	0	340	15	3
2026-02-12	14:41:51.590	18.935	-53.48	68.11	0.867176	0.78812	-0.063928	-0.207	-0.0165	0.2985	0	340	15	3
2026-02-12	14:41:51.610	-4.795	-53.27	61.88	0.772992	0.6649	-0.077836	-0.2115	-0.006	0.303	0	343	42	3
2026-02-12	14:41:51.630	-20.265	-54.6	66.15	0.692228	0.521916	-0.040748	-0.2115	0.0045	0.309	0	343	42	3
2026-02-12	14:41:51.650	-19.6	-55.44	68.145	0.652212	0.39528	-0.021472	-0.216	0.012	0.318	0	343	42	3
2026-02-12	14:41:51.670	-5.25	-52.64	68.355	0.672708	0.391132	0.010248	-0.219	0.024	0.3285	0	343	42	3
2026-02-12	14:41:51.690	9.17	-47.88	60.69	0.726144	0.4697	0.007564	-0.222	0.0345	0.342	0	343	42	3
2026-02-12	14:41:51.710	6.475	-43.925	54.285	0.732	0.518988	-0.010004	-0.225	0.039	0.3495	0	343	42	3
2026-02-12	14:41:51.730	-5.285	-39.865	46.655	0.749812	0.467016	0.017324	-0.225	0.042	0.351	0	343	42	3
2026-02-12	14:41:51.750	-3.955	-34.545	39.62	0.782508	0.433344	0.049532	-0.228	0.06	0.3585	0	343	42	3
2026-02-12	14:41:51.770	-0.28	-26.635	36.085	0.815936	0.427244	0.02806	-0.228	0.066	0.369	0	343	42	3
2026-02-12	14:41:51.790	-12.25	-19.25	41.545	0.822524	0.366488	-0.037088	-0.2265	0.0705	0.375	0	343	42	3
2026-02-12	14:41:51.810	-27.65	-18.2	49.455	0.854976	0.3355	-0.096136	-0.222	0.084	0.3735	0	344	43	3
2026-02-12	14:41:51.830	-27.58	-18.9	49.49	0.923784	0.36966	-0.158844	-0.225	0.0795	0.372	0	344	43	3
2026-02-12	14:41:51.850	-12.285	-16.17	42.14	1.01016	0.438712	-0.182512	-0.2265	0.0945	0.3795	0	344	43	3
2026-02-12	14:41:51.870	11.34	-10.29	33.6	1.0797	0.604144	-0.15616	-0.2265	0.1005	0.381	0	344	43	3
2026-02-12	14:41:51.890	23.38	1.05	24.465	1.206336	0.767868	-0.101016	-0.225	0.105	0.3825	0	344	43	3
2026-02-12	14:41:51.910	20.055	23.695	20.475	1.300032	0.732244	-0.077348	-0.216	0.105	0.372	0	344	43	3
2026-02-12	14:41:51.930	6.895	51.695	20.755	1.21756	0.671	-0.11834	-0.2235	0.111	0.3825	0	344	43	3
2026-02-12	14:41:51.950	-7.525	68.495	8.645	1.1773	0.639768	-0.10858	-0.219	0.117	0.378	0	344	43	3
2026-02-12	14:41:51.970	9.065	83.755	-12.46	1.026996	0.598532	-0.077348	-0.2235	0.1185	0.363	0	344	43	3
2026-02-12	14:41:51.990	43.96	84.525	-31.255	0.938912	0.51972	-0.05124	-0.2115	0.1095	0.3465	0	344	43	3
2026-02-12	14:41:52.010	51.835	73.815	-40.46	0.842532	0.588772	0.014152	-0.2115	0.1095	0.3465	0	341	25	3
2026-02-12	14:41:52.030	26.25	45.92	-46.935	0.847168	0.612684	0.023424	-0.216	0.1095	0.327	0	341	25	3
2026-02-12	14:41:52.050	-27.72	13.055	-46.935	0.876448	0.434076	0.086376	-0.219	0.105	0.3075	0	341	25	3
2026-02-12	14:41:52.070	-65.625	-10.78	-45.5	0.950136	0.237168	0.2257	-0.2175	0.1005	0.3105	0	341	25	3
2026-02-12	14:41:52.090	-75.915	-20.37	-43.785	1.219512	0.152256	0.316712	-0.219	0.0915	0.306	0	341	25	3
2026-02-12	14:41:52.110	-50.54	-9.345	-43.89	1.253916	0.048556	0.191052	-0.21	0.0885	0.3195	0	341	25	3
2026-02-12	14:41:52.130	-11.69	-1.855	-45.325	1.193892	0.048312	-0.003904	-0.21	0.081	0.3225	0	341	25	3
2026-02-12	14:41:52.150	27.79	2.17	-44.31	1.068232	0.106628	-0.112728	-0.216	0.0795	0.327	0	341	25	3
2026-02-12	14:41:52.170	77.63	5.88	-44.065	0.971364	0.222528	-0.055876	-0.216	0.081	0.3135	0	341	25	3
2026-02-12	14:41:52.190	113.645	10.92	-47.6	0.88694	0.477996	0.076372	-0.21	0.06	0.3105	0	341	25	3
2026-02-12	14:41:52.210	105.07	11.76	-57.26	0.76616	0.675148	0.113948	-0.213	0.051	0.3165	0	337	12	3
2026-02-12	14:41:52.230	69.335	9.415	-68.285	0.726632	0.736392	0.087596	-0.204	0.0465	0.3105	0	337	12	3
2026-02-12	14:41:52.250	6.895	3.29	-74.165	0.630008	0.548268	0.001464	-0.213	0.036	0.3165	0	337	12	3
2026-02-12	14:41:52.270	-36.68	-3.29	-74.27	0.56364	0.33306	-0.031232	-0.213	0.036	0.3165	0	337	12	3
2026-02-12	14:41:52.290	-50.855	-8.785	-66.675	0.525332	0.204716	-0.004636	-0.2115	0.021	0.3135	0	337	12	3
2026-02-12	14:41:52.310	-47.355	-10.955	-54.775	0.51606	0.121024	0.041968	-0.2085	0.003	0.309	0	337	12	3
2026-02-12	14:41:52.330	-32.865	-9.695	-37.52	0.530212	0.100528	0.055388	-0.2055	0	0.312	0	337	12	3
2026-02-12	14:41:52.350	-8.645	-7	-20.16	0.55144	0.162748	0.057096	-0.2025	-0.006	0.312	0	337	12	3
2026-02-12	14:41:52.370	18.27	-3.885	-0.875	0.53314	0.362584	0.095404	-0.1995	-0.012	0.3105	0	337	12	3
2026-02-12	14:41:52.390	25.515	-1.575	17.01	0.5612	0.615124	0.171532	-0.201	-0.015	0.315	0	337	12	3
2026-02-12	14:41:52.410	20.02	4.795	29.26	0.621224	0.77836	0.230824	-0.2025	-0.0105	0.315	0	333	14	3
2026-02-12	14:41:52.430	23.94	14.07	33.075	0.716384	0.917196	0.262544	-0.201	-0.003	0.3135	0	333	14	3
2026-02-12	14:41:52.450	44.695	21.105	22.925	0.766404	1.038952	0.113216	-0.201	-0.003	0.3105	0	333	14	3
2026-02-12	14:41:52.470	60.83	23.205	3.15	0.902068	1.218536	0.019764	-0.204	0	0.3105	0	333	14	3
2026-02-12	14:41:52.490	55.125	19.845	-32.865	1.126548	1.44936	0.005368	-0.207	0.003	0.3135	0	333	14	3
2026-02-12	14:41:52.510	8.225	13.335	-57.05	1.037732	1.10044	0.070516	-0.2085	0	0.312	0	333	14	3
2026-02-12	14:41:52.530	-28.98	20.37	-48.685	1.005036	0.802516	0.24156	-0.2085	-0.0045	0.312	0	333	14	3
2026-02-12	14:41:52.550	17.325	26.565	-56.945	0.999912	1.199992	0.136884	-0.2085	-0.0045	0.312	0	333	14	3
2026-02-12	14:41:52.570	19.705	18.655	-56.805	1.017968	1.077992	0.06344	-0.2025	-0.0255	0.303	0	333	14	3
2026-02-12	14:41:52.590	-26.285	-1.365	-43.575	1.088728	0.911584	0.031476	-0.1935	-0.0315	0.3	0	333	14	3
2026-02-12	14:41:52.610	-64.505	-13.86	-34.335	0.978196	0.67344	-0.066612	-0.198	-0.0345	0.2925	0	334	27	3
2026-02-12	14:41:52.630	-114.555	-26.74	-20.16	0.81374	0.203008	-0.147864	-0.1965	-0.0345	0.297	0	334	27	3
2026-02-12	14:41:52.650	-137.515	-45.5	4.62	0.82594	-0.128588	-0.083692	-0.1965	-0.0375	0.297	0	334	27	3
2026-02-12	14:41:52.670	-105.42	-52.885	30.065	0.785924	-0.223016	-0.050752	-0.1965	-0.033	0.294	0	334	27	3
2026-02-12	14:41:52.690	-54.25	-58.275	53.9	0.801296	-0.07515199	-0.066124	-0.201	-0.0315	0.2985	0	334	27	3
2026-02-12	14:41:52.710	-8.575	-65.135	77.98	0.826672	0.090524	-0.048068	-0.207	-0.03	0.303	0	334	27	3
2026-02-12	14:41:52.730	45.465	-68.32	93.73	0.907436	0.534848	0.034404	-0.21	-0.021	0.315	0	334	27	3
2026-02-12	14:41:52.750	62.37	-67.445	85.645	0.92842	0.93818	-0.00976	-0.216	-0.0045	0.327	0	334	27	3
2026-02-12	14:41:52.770	10.675	-66.185	77.735	0.853024	0.877424	-0.099552	-0.2235	0.009	0.3375	0	334	27	3
2026-02-12	14:41:52.790	-53.865	-72.94	80.045	0.713212	0.485804	-0.083204	-0.222	0.015	0.348	0	334	27	3
2026-02-12	14:41:52.810	-50.715	-71.47	79.835	0.66978	0.310612	-0.016104	-0.2175	0.0195	0.3525	0	342	31	3
2026-02-12	14:41:52.830	-28.035	-65.24	76.72	0.674172	0.306952	-0.030256	-0.225	0.0495	0.375	0	342	31	3
2026-02-12	14:41:52.850	-8.47	-59.395	71.54	0.732488	0.306464	-0.085888	-0.2205	0.0615	0.387	0	342	31	3
2026-02-12	14:41:52.870	9.555	-52.92	63	0.762256	0.420168	-0.092476	-0.213	0.0735	0.39	0	342	31	3
2026-02-12	14:41:52.890	18.725	-45.675	50.575	0.81862	0.476776	-0.029768	-0.2325	0.09	0.399	0	342	31	3
2026-02-12	14:41:52.910	24.815	-34.965	36.365	0.854488	0.532164	0.074908	-0.2295	0.0945	0.4125	0	342	31	3
2026-02-12	14:41:52.930	22.715	-22.05	23.135	0.86254	0.505812	0.063684	-0.2295	0.1035	0.4185	0	342	31	3
2026-02-12	14:41:52.950	12.81	-11.9	17.22	0.850096	0.482632	-0.032696	-0.228	0.105	0.42	0	342	31	3
2026-02-12	14:41:52.970	4.27	-4.69	17.71	0.826672	0.473604	-0.06954	-0.225	0.099	0.42	0	342	31	3
2026-02-12	14:41:52.990	5.845	1.295	17.325	0.827404	0.47336	-0.078324	-0.24	0.105	0.4185	0	342	31	3
2026-02-12	14:41:53.010	4.025	5.81	17.465	0.865468	0.452376	-0.09076799	-0.2205	0.1065	0.423	0	348	21	3
2026-02-12	14:41:53.030	0.21	9.52	17.64	0.922564	0.496052	-0.132492	-0.231	0.1095	0.42	0	348	21	3
2026-02-12	14:41:53.050	1.925	12.18	13.37	0.98576	0.579256	-0.162992	-0.231	0.1095	0.42	0	348	21	3
2026-02-12	14:41:53.070	6.58	19.81	6.37	1.140456	0.619028	-0.127368	-0.2235	0.117	0.4155	0	348	21	3
2026-02-12	14:41:53.090	13.125	35.28	8.225	1.11386	0.47092	-0.099308	-0.225	0.1185	0.4095	0	348	21	3
2026-02-12	14:41:53.110	28.63	46.76	7.56	1.189988	0.491416	-0.023912	-0.2265	0.1185	0.408	0	348	21	3
2026-02-12	14:41:53.130	54.425	62.3	3.045	1.174616	0.608048	-0.059048	-0.228	0.117	0.408	0	348	21	3
2026-02-12	14:41:53.150	64.96	73.185	-6.02	1.142652	0.730292	-0.112728	-0.2325	0.117	0.393	0	348	21	3
2026-02-12	14:41:53.170	60.83	74.025	-18.9	1.067256	0.86864	-0.08295999	-0.234	0.12	0.375	0	348	21	3
2026-02-12	14:41:53.190	32.095	64.855	-32.235	1.009428	0.756644	-0.050996	-0.234	0.117	0.3675	0	348	21	3
2026-02-12	14:41:53.210	-6.615	47.88	-39.795	0.984296	0.45994	-0.081984	-0.234	0.1065	0.36	0	349	3	3
2026-02-12	14:41:53.230	-32.27	27.055	-38.955	0.960628	0.36966	0.036356	-0.228	0.1005	0.351	0	349	3	3
2026-02-12	14:41:53.250	-52.29	7.735	-40.075	1.082628	0.25498	0.20008	-0.2265	0.1005	0.3495	0	349	3	3
2026-02-12	14:41:53.270	-54.25	-1.75	-53.48	1.250744	0.1037	0.177388	-0.2265	0.1005	0.3495	0	349	3	3
2026-02-12	14:41:53.290	-37.45	-2.065	-59.15	1.175592	-0.055144	0.046116	-0.234	0.09	0.3375	0	349	3	3
2026-02-12	14:41:53.310	-19.565	-1.47	-54.775	1.146556	0.060024	-0.01586	-0.234	0.0825	0.3405	0	349	3	3
2026-02-12	14:41:53.330	12.39	5.565	-50.61	1.07482	0.2989	0.010248	-0.234	0.069	0.3435	0	349	3	3
2026-02-12	14:41:53.350	42.595	15.47	-54.145	0.902556	0.486048	0.037576	-0.234	0.069	0.3435	0	349	3	3
2026-02-12	14:41:53.370	46.305	19.46	-61.95	0.769088	0.514108	0.024888	-0.231	0.0555	0.342	0	349	3	3
2026-02-12	14:41:53.390	32.935	19.775	-66.955	0.640256	0.53802	0.022936	-0.228	0.0375	0.3345	0	349	3	3
2026-02-12	14:41:53.410	4.515	16.03	-71.225	0.586576	0.554368	0.021472	-0.2325	0.0285	0.3315	0	347	7	3
2026-02-12	14:41:53.430	-27.3	13.405	-73.535	0.553148	0.451156	0.017812	-0.231	0.018	0.3315	0	347	7	3
2026-02-12	14:41:53.450	-48.895	10.255	-72.38	0.53802	0.30988	0.004392	-0.2235	0.0075	0.3255	0	347	7	3
2026-02-12	14:41:53.470	-52.71	7.56	-63.875	0.498736	0.223992	-0.005124	-0.222	-0.003	0.321	0	347	7	3
2026-02-12	14:41:53.490	-44.485	6.37	-49.14	0.46238	0.185928	-0.007564	-0.219	-0.012	0.318	0	347	7	3
2026-02-12	14:41:53.510	-24.36	4.935	-28.56	0.477996	0.21106	0.007076	-0.2145	-0.015	0.3135	0	347	7	3
2026-02-12	14:41:53.530	-0.735	5.005	-7.105	0.502152	0.302072	0.076128	-0.213	-0.0165	0.312	0	347	7	3
2026-02-12	14:41:53.550	18.48	7.56	14.35	0.537044	0.440664	0.171532	-0.2145	-0.021	0.309	0	347	7	3
2026-02-12	14:41:53.570	29.19	13.405	30.485	0.604632	0.591456	0.26474	-0.219	-0.024	0.3075	0	347	7	3
2026-02-12	14:41:53.590	40.39	21.945	38.01	0.67222	0.707356	0.278892	-0.2235	-0.018	0.3075	0	347	7	3
2026-02-12	14:41:53.610	72.555	30.66	35.84	0.74054	1.075308	0.092232	-0.228	-0.015	0.3045	0	343	2	3
2026-02-12	14:41:53.630	75.04	24.605	7.105	0.858148	1.194868	-0.020984	-0.228	-0.015	0.3045	0	343	2	3
2026-02-12	14:41:53.650	65.1	8.54	-38.36	1.064084	1.311256	0.009272	-0.2355	-0.003	0.3045	0	343	2	3
2026-02-12	14:41:53.670	24.255	-2.905	-63.805	0.985028	1.072868	0.098332	-0.222	-0.0075	0.3075	0	343	2	3
2026-02-12	14:41:53.690	-6.37	-0.98	-62.58	0.769088	0.863516	0.3233	-0.2205	-0.018	0.303	0	343	2	3
2026-02-12	14:41:53.710	-18.655	5.355	-61.39	0.881328	0.858148	0.452376	-0.222	-0.0345	0.294	0	343	2	3
2026-02-12	14:41:53.730	-4.06	11.375	-59.255	0.871812	0.930616	0.182268	-0.228	-0.0345	0.2985	0	343	2	3
2026-02-12	14:41:53.750	14.91	8.645	-52.92	0.875472	0.9638	-0.011224	-0.2175	-0.045	0.2955	0	343	2	3
2026-02-12	14:41:53.770	11.48	-5.075	-35.42	0.93696	0.7686	-0.11224	-0.225	-0.054	0.294	0	343	2	3
2026-02-12	14:41:53.790	-2.065	-15.855	-19.145	0.877912	0.835212	-0.027572	-0.2175	-0.0555	0.2985	0	343	2	3
2026-02-12	14:41:53.810	-43.505	-26.915	-4.69	0.888648	0.58438	0.059292	-0.2205	-0.0465	0.2955	0	344	16	3
2026-02-12	14:41:53.830	-67.375	-29.855	6.51	0.867176	0.332328	0.003416	-0.225	-0.0525	0.294	0	344	16	3
2026-02-12	14:41:53.850	-69.895	-34.335	25.27	0.809592	0.20618	-0.094916	-0.225	-0.054	0.2985	0	344	16	3
2026-02-12	14:41:53.870	-55.615	-43.575	52.885	0.822524	0.199592	-0.148108	-0.225	-0.042	0.3015	0	344	16	3
2026-02-12	14:41:53.890	-30.66	-55.755	77.945	0.851804	0.306952	-0.182512	-0.225	-0.042	0.3015	0	344	16	3
2026-02-12	14:41:53.910	-2.94	-64.645	85.19	0.894992	0.5124	-0.09638	-0.24	-0.0255	0.3105	0	344	16	3
2026-02-12	14:41:53.930	3.745	-71.295	80.675	0.921832	0.72834	-0.018788	-0.2475	-0.0165	0.3195	0	344	16	3
2026-02-12	14:41:53.950	-16.835	-70.455	73.745	0.862052	0.679784	0.023912	-0.243	-0.006	0.3285	0	344	16	3
2026-02-12	14:41:53.970	-44.485	-68.355	72.87	0.794952	0.499956	0.016836	-0.2535	0.015	0.3435	0	344	16	3
2026-02-12	14:41:53.990	-50.19	-69.37	78.26	0.736148	0.335744	0.006588	-0.2535	0.03	0.357	0	344	16	3
2026-02-12	14:41:54.010	-33.495	-66.99	82.32	0.737612	0.262544	-0.015616	-0.252	0.0435	0.363	0	345	25	3
2026-02-12	14:41:54.030	-6.545	-60.9	83.895	0.722972	0.269132	-0.083204	-0.2565	0.0555	0.3675	0	345	25	3
2026-02-12	14:41:54.050	19.46	-55.265	82.18	0.726388	0.415776	-0.126392	-0.264	0.072	0.375	0	345	25	3
2026-02-12	14:41:54.070	31.22	-47.6	72.24	0.700036	0.572668	-0.112484	-0.264	0.0765	0.402	0	345	25	3
2026-02-12	14:41:54.090	23.765	-39.375	57.96	0.71126	0.548756	-0.05856	-0.264	0.096	0.405	0	345	25	3
2026-02-12	14:41:54.110	13.16	-29.085	45.08	0.720044	0.483364	-0.007076	-0.2595	0.105	0.414	0	345	25	3
2026-02-12	14:41:54.130	5.145	-18.9	37.835	0.747616	0.399672	-0.005368	-0.27	0.1185	0.4215	0	345	25	3
2026-02-12	14:41:54.150	2.765	-4.76	33.355	0.833748	0.354288	-0.050752	-0.27	0.1185	0.4215	0	345	25	3
2026-02-12	14:41:54.170	10.5	4.9	29.89	0.896456	0.376248	-0.07515199	-0.267	0.1245	0.4215	0	345	25	3
2026-02-12	14:41:54.190	19.075	12.67	26.18	0.94184	0.389424	-0.11834	-0.2625	0.1305	0.426	0	345	25	3
2026-02-12	14:41:54.210	29.365	18.41	20.545	0.987956	0.421876	-0.148352	-0.267	0.132	0.4305	0	343	16	2
2026-02-12	14:41:54.230	52.255	20.685	10.5	1.014308	0.538508	-0.182756	-0.267	0.1395	0.429	0	343	16	2
2026-02-12	14:41:54.250	73.605	18.795	4.2	1.035292	0.693936	-0.130784	-0.2625	0.1455	0.426	0	343	16	2
2026-02-12	14:41:54.270	73.745	19.46	6.86	1.011624	0.741028	-0.023668	-0.267	0.141	0.423	0	343	16	2
2026-02-12	14:41:54.290	49.315	17.675	9.66	1.107028	0.748836	0.061976	-0.2655	0.1425	0.42	0	343	16	2
2026-02-12	14:41:54.310	23.17	18.935	5.705	1.222684	0.726632	0.000732	-0.2625	0.1515	0.4215	0	343	16	2
2026-02-12	14:41:54.330	6.37	24.22	4.445	1.365424	0.666608	-0.182268	-0.267	0.1515	0.4245	0	343	16	2
2026-02-12	14:41:54.350	9.03	31.325	6.545	1.277828	0.62464	-0.273768	-0.2655	0.1485	0.4185	0	343	16	2
2026-02-12	14:41:54.370	13.615	29.715	0.07	1.183888	0.618784	-0.24888	-0.2655	0.153	0.4155	0	343	16	2
2026-02-12	14:41:54.390	7.735	27.09	-11.305	1.08458	0.480192	-0.279868	-0.264	0.1515	0.4155	0	343	16	2
2026-02-12	14:41:54.410	-13.825	21.07	-23.275	0.953308	0.385764	-0.132248	-0.261	0.1485	0.414	0	338	5	3
2026-02-12	14:41:54.430	-48.37	15.96	-34.545	1.055544	0.08052	0.080276	-0.261	0.1485	0.414	0	338	5	3
2026-02-12	14:41:54.450	-49.455	19.635	-48.335	1.169004	0.00854	0.16714	-0.267	0.132	0.402	0	338	5	3
2026-02-12	14:41:54.470	-34.44	24.885	-61.565	1.18462	-0.045628	0.082472	-0.2625	0.1305	0.4065	0	338	5	3
2026-02-12	14:41:54.490	-11.48	27.615	-68.88	1.10532	0.016104	-0.029036	-0.261	0.123	0.4065	0	338	5	3
2026-02-12	14:41:54.510	13.615	24.57	-71.995	1.031144	0.085888	-0.074176	-0.264	0.1065	0.402	0	338	5	3
2026-02-12	14:41:54.530	41.65	22.68	-73.64	0.930616	0.23912	-0.063196	-0.2685	0.093	0.3945	0	338	5	3
2026-02-12	14:41:54.550	57.96	22.19	-75.25	0.835456	0.406504	-0.028548	-0.267	0.084	0.3915	0	338	5	3
2026-02-12	14:41:54.570	50.47	20.44	-78.715	0.7686	0.530212	-0.009272	-0.2685	0.0705	0.39	0	338	5	3
2026-02-12	14:41:54.590	24.5	17.885	-81.41	0.716384	0.548512	0.009516	-0.2715	0.0555	0.387	0	338	5	3
2026-02-12	14:41:54.610	-7.385	13.93	-83.51	0.701256	0.50386	-0.00732	-0.2655	0.0435	0.384	0	334	24	3
2026-02-12	14:41:54.630	-27.72	10.325	-88.795	0.60634	0.421876	-0.020252	-0.264	0.0315	0.381	0	334	24	3
2026-02-12	14:41:54.650	-35.49	10.57	-81.55	0.533384	0.307928	-0.000244	-0.2595	0.018	0.3825	0	334	24	3
2026-02-12	14:41:54.670	-31.815	11.025	-66.85	0.487512	0.240584	0.026108	-0.2595	0.003	0.381	0	334	24	3
2026-02-12	14:41:54.690	-12.915	13.09	-37.765	0.446276	0.293044	0.02806	-0.264	-0.0045	0.3765	0	334	24	3
2026-02-12	14:41:54.710	-1.855	13.125	-17.43	0.465796	0.33062	0.058072	-0.2535	-0.0135	0.3735	0	334	24	3
2026-02-12	14:41:54.730	6.965	16.205	1.89	0.488732	0.426756	0.122244	-0.246	-0.0135	0.3825	0	334	24	3
2026-02-12	14:41:54.750	15.82	21.56	18.34	0.503616	0.486048	0.182024	-0.2505	-0.024	0.363	0	334	24	3
2026-02-12	14:41:54.770	29.785	28.14	30.135	0.584868	0.649528	0.233264	-0.2445	-0.0225	0.3615	0	334	24	3
2026-02-12	14:41:54.790	50.61	35.21	29.61	0.673684	0.83326	0.18544	-0.2505	-0.018	0.366	0	334	24	3
2026-02-12	14:41:54.810	70.63	37.52	21.14	0.728096	1.112396	0.08906	-0.2535	-0.0105	0.357	0	332	24	3
2026-02-12	14:41:54.830	66.885	35.945	-2.205	0.927932	1.401536	0.06466	-0.255	-0.0105	0.3675	0	332	24	3
2026-02-12	14:41:54.850	36.365	26.355	-45.955	1.156316	1.443992	0.019764	-0.261	-0.0135	0.36	0	332	24	3
2026-02-12	14:41:54.870	-11.865	24.99	-59.535	0.995276	0.947208	0.182756	-0.2565	-0.018	0.351	0	332	24	3
2026-02-12	14:41:54.890	-38.43	30.485	-47.705	0.945256	0.676368	0.395768	-0.246	-0.027	0.354	0	332	24	3
2026-02-12	14:41:54.910	-7.385	37.765	-46.69	0.968192	0.993324	0.210572	-0.2445	-0.033	0.3465	0	332	24	3
2026-02-12	14:41:54.930	26.355	36.925	-48.545	0.939156	1.260504	0.048312	-0.2385	-0.042	0.3405	0	332	24	3
2026-02-12	14:41:54.950	-11.865	12.005	-32.62	0.985028	0.958188	-0.002684	-0.2415	-0.0435	0.3375	0	332	24	3
2026-02-12	14:41:54.970	-54.88	-10.465	-20.37	0.87718	0.633912	-0.024644	-0.2355	-0.051	0.3345	0	332	24	3
2026-02-12	14:41:54.990	-89.915	-28.805	-19.88	0.8357	0.174704	-0.05856	-0.234	-0.0555	0.3315	0	332	24	3
2026-02-12	14:41:55.010	-92.645	-45.78	-2.59	0.77958	-0.067588	-0.081984	-0.237	-0.0585	0.3285	0	336	4	3
2026-02-12	14:41:55.030	-69.055	-55.895	20.125	0.770308	-0.060268	-0.091012	-0.234	-0.063	0.327	0	336	4	3
2026-02-12	14:41:55.050	-43.61	-63.665	47.04	0.771284	-0.012444	-0.122976	-0.234	-0.0585	0.3315	0	336	4	3
2026-02-12	14:41:55.070	-10.71	-70.875	72.905	0.862296	0.213012	-0.064172	-0.234	-0.0465	0.3375	0	336	4	3
2026-02-12	14:41:55.090	24.92	-73.325	85.96	0.936472	0.547292	-0.000976	-0.234	-0.036	0.342	0	336	4	3
2026-02-12	14:41:55.110	39.235	-74.9	78.33	0.99674	0.854244	-0.03904	-0.2355	-0.0315	0.3555	0	336	4	3
2026-02-12	14:41:55.130	14.84	-74.305	67.235	0.904752	0.975512	-0.155428	-0.2445	-0.018	0.3675	0	336	4	3
2026-02-12	14:41:55.150	-35.735	-75.67	65.31	0.786656	0.6283	-0.154696	-0.2445	-0.0015	0.381	0	336	4	3
2026-02-12	14:41:55.170	-57.96	-80.535	72.66	0.769088	0.266448	-0.089792	-0.2445	-0.0015	0.3975	0	336	4	3
2026-02-12	14:41:55.190	-32.445	-75.46	78.995	0.74176	0.156404	-0.050752	-0.2475	0.012	0.4035	0	336	4	3
2026-02-12	14:41:55.210	5.215	-63.84	81.305	0.729804	0.228384	-0.07076	-0.252	0.021	0.417	0	345	4	3
2026-02-12	14:41:55.230	24.92	-55.72	77	0.72834	0.435052	-0.145424	-0.252	0.021	0.417	0	345	4	3
2026-02-12	14:41:55.250	32.06	-49.105	65.065	0.75396	0.530456	-0.139568	-0.249	0.039	0.4305	0	345	4	3
2026-02-12	14:41:55.270	29.19	-40.075	54.11	0.784948	0.515816	-0.04636	-0.2475	0.063	0.45	0	345	4	3
2026-02-12	14:41:55.290	21.77	-29.225	47.39	0.831796	0.461892	0.056852	-0.2445	0.0735	0.4545	0	345	4	3
2026-02-12	14:41:55.310	15.785	-16.415	41.475	0.850584	0.414068	0.047092	-0.246	0.0825	0.456	0	345	4	3
2026-02-12	14:41:55.330	19.005	-3.955	35.7	0.864492	0.426756	-0.034648	-0.2475	0.0915	0.462	0	345	4	3
2026-02-12	14:41:55.350	30.52	5.425	28.945	0.879132	0.489464	-0.116388	-0.2475	0.099	0.471	0	345	4	3
2026-02-12	14:41:55.370	33.845	9.905	21.385	0.909388	0.54656	-0.1525	-0.2445	0.105	0.474	0	345	4	3
2026-02-12	14:41:55.390	27.685	10.955	15.435	0.949404	0.520452	-0.12932	-0.243	0.105	0.4665	0	345	4	3
2026-02-12	14:41:55.410	22.68	13.09	11.515	0.970876	0.492392	-0.0915	-0.243	0.108	0.465	0	351	4	3
2026-02-12	14:41:55.430	25.69	18.41	7.56	0.982588	0.515328	-0.087352	-0.24	0.117	0.4635	0	351	4	3
2026-02-12	14:41:55.450	38.01	25.48	3.325	0.99918	0.571204	-0.082472	-0.24	0.117	0.456	0	351	4	3
2026-02-12	14:41:55.470	48.265	34.685	-0.91	1.042856	0.650748	-0.086132	-0.2445	0.114	0.453	0	351	4	3
2026-02-12	14:41:55.490	50.785	49.665	-9.87	1.09922	0.80398	-0.09857599	-0.249	0.1125	0.45	0	351	4	3
2026-02-12	14:41:55.510	40.11	58.275	-13.93	1.105564	0.861808	-0.2013	-0.249	0.1125	0.45	0	351	4	3
2026-02-12	14:41:55.530	16.59	65.345	-19.18	1.081896	0.862052	-0.228384	-0.2475	0.1125	0.426	0	351	4	3
2026-02-12	14:41:55.550	-4.55	63.63	-22.96	1.0614	0.826916	-0.182268	-0.246	0.1065	0.4125	0	351	4	3
2026-02-12	14:41:55.570	-19.845	55.825	-26.88	0.992592	0.504592	-0.197152	-0.252	0.105	0.411	0	351	4	3
2026-02-12	14:41:55.590	-26.88	39.55	-29.085	1.025288	0.25132	-0.137128	-0.2535	0.1065	0.4065	0	351	4	3
2026-02-12	14:41:55.610	-32.585	26.005	-26.67	0.996496	0.315004	0.086132	-0.2505	0.105	0.4035	0	351	24	3
2026-02-12	14:41:55.630	-53.06	10.605	-34.965	1.171444	0.187148	0.179096	-0.255	0.093	0.3915	0	351	24	3
2026-02-12	14:41:55.650	-61.915	1.575	-49.945	1.229272	-0.082228	0.070272	-0.2565	0.0915	0.393	0	351	24	3
2026-02-12	14:41:55.670	-46.165	-2.8	-51.765	1.162416	-0.166896	-0.06344	-0.2505	0.087	0.3945	0	351	24	3
2026-02-12	14:41:55.690	-12.495	-3.15	-51.31	1.143384	0.044896	-0.098332	-0.2505	0.0795	0.393	0	351	24	3
2026-02-12	14:41:55.710	29.575	1.33	-51.94	1.085312	0.217404	-0.053924	-0.255	0.0705	0.39	0	351	24	3
2026-02-12	14:41:55.730	64.575	7.56	-60.725	0.9577	0.462624	0.020984	-0.252	0.0615	0.3885	0	351	24	3
2026-02-12	14:41:55.750	56.455	10.815	-72.485	0.787144	0.521916	0.01098	-0.2475	0.0585	0.3915	0	351	24	3
2026-02-12	14:41:55.770	28	10.36	-76.65	0.70028	0.521428	-0.006344	-0.246	0.0585	0.3945	0	351	24	3
2026-02-12	14:41:55.790	1.645	9.135	-77.175	0.667828	0.492636	-0.035624	-0.2415	0.036	0.384	0	351	24	3
2026-02-12	14:41:55.810	-16.1	7.35	-77.49	0.598532	0.39894	-0.073444	-0.243	0.021	0.3825	0	349	38	3
2026-02-12	14:41:55.830	-22.75	3.29	-74.725	0.548512	0.288164	-0.091012	-0.24	0.015	0.384	0	349	38	3
2026-02-12	14:41:55.850	-15.12	3.815	-64.4	0.466528	0.231068	-0.055144	-0.2445	0	0.3765	0	349	38	3
2026-02-12	14:41:55.870	-3.92	8.54	-44.485	0.445056	0.224236	-0.025864	-0.2385	-0.0105	0.381	0	349	38	3
2026-02-12	14:41:55.890	6.09	15.225	-22.155	0.447252	0.268644	0.015128	-0.237	-0.0045	0.384	0	349	38	3
2026-02-12	14:41:55.910	18.445	23.59	-2.59	0.455792	0.3843	0.061488	-0.24	-0.015	0.3855	0	349	38	3
2026-02-12	14:41:55.930	32.585	32.69	12.915	0.506788	0.503616	0.0793	-0.24	-0.0285	0.369	0	349	38	3
2026-02-12	14:41:55.950	51.59	42.315	19.53	0.565348	0.636596	0.178364	-0.2385	-0.0195	0.3735	0	349	38	3
2026-02-12	14:41:55.970	68.845	48.545	19.355	0.7198	0.892552	0.216184	-0.2415	-0.0105	0.372	0	349	38	3
2026-02-12	14:41:55.990	100.17	52.465	9.52	0.748348	1.143384	0.030012	-0.2415	-0.0105	0.372	0	349	38	3
2026-02-12	14:41:56.010	107.73	42.21	-18.06	0.96258	1.191696	0.024156	-0.237	-0.0045	0.3615	0	347	38	3
2026-02-12	14:41:56.030	46.445	23.415	-65.765	1.048468	1.338828	-0.027816	-0.2415	-0.012	0.36	0	347	38	3
2026-02-12	14:41:56.050	-0.455	16.31	-66.15	0.76372	0.985272	0.010248	-0.231	-0.0225	0.36	0	347	38	3
2026-02-12	14:41:56.070	-9.52	19.74	-65.695	0.55388	0.924272	0.136884	-0.2235	-0.0375	0.357	0	347	38	3
2026-02-12	14:41:56.090	10.01	16.87	-76.44	0.66978	1.000156	0.076616	-0.2235	-0.045	0.3525	0	347	38	3
2026-02-12	14:41:56.110	34.09	8.68	-66.22	0.67954	1.205116	-0.10126	-0.219	-0.0495	0.3525	0	347	38	3
2026-02-12	14:41:56.130	9.1	-11.025	-34.44	0.869372	1.087264	-0.105652	-0.2145	-0.0585	0.3525	0	347	38	3
2026-02-12	14:41:56.150	-43.365	-31.185	1.855	1.01504	0.8296	-0.057828	-0.216	-0.069	0.3555	0	347	38	3
2026-02-12	14:41:56.170	-77.21	-39.585	9.905	0.854	0.611952	-0.106384	-0.2175	-0.066	0.357	0	347	38	3
2026-02-12	14:41:56.190	-117.04	-45.85	5.845	0.813008	0.150548	-0.089304	-0.2145	-0.063	0.357	0	347	38	3
2026-02-12	14:41:56.210	-124.145	-54.355	24.535	0.880108	-0.05734	-0.042456	-0.216	-0.0645	0.3585	0	350	29	3
2026-02-12	14:41:56.230	-89.39	-54.845	47.145	0.857904	0.0671	-0.020984	-0.219	-0.0615	0.3585	0	350	29	3
2026-02-12	14:41:56.250	-61.53	-54.67	68.285	0.866932	0.168848	-0.070028	-0.2145	-0.054	0.3555	0	350	29	3
2026-02-12	14:41:56.270	-36.995	-56.21	84.21	0.899872	0.2928	-0.13542	-0.2235	-0.048	0.372	0	350	29	3
2026-02-12	14:41:56.290	2.17	-63.77	83.615	0.946476	0.710284	-0.17812	-0.2235	-0.0315	0.3765	0	350	29	3
2026-02-12	14:41:56.310	-4.585	-73.29	72.03	0.91622	1.017968	-0.171776	-0.2235	-0.0315	0.3765	0	350	29	3
2026-02-12	14:41:56.330	-57.785	-78.26	66.43	0.784216	0.811544	-0.129808	-0.231	-0.015	0.3885	0	350	29	3
2026-02-12	14:41:56.350	-94.29	-83.125	67.935	0.765672	0.483364	-0.07905599	-0.2385	0.0015	0.4065	0	350	29	3
2026-02-12	14:41:56.370	-92.575	-80.99	72.975	0.70516	0.25254	-0.059536	-0.2355	0.006	0.414	0	350	29	3
2026-02-12	14:41:56.390	-64.155	-75.215	79.03	0.664412	0.165188	-0.073444	-0.231	0.015	0.426	0	350	29	3
2026-02-12	14:41:56.410	-26.285	-67.795	78.33	0.677588	0.236924	-0.119316	-0.228	0.0285	0.4425	0	356	29	3
2026-02-12	14:41:56.430	0.805	-61.915	74.83	0.672708	0.365756	-0.142496	-0.231	0.0405	0.45	0	356	29	3
2026-02-12	14:41:56.450	14.56	-55.405	64.645	0.685884	0.42212	-0.11102	-0.2325	0.0525	0.4575	0	356	29	3
2026-02-12	14:41:56.470	17.745	-45.85	57.19	0.670756	0.432124	-0.038308	-0.2295	0.0645	0.4695	0	356	29	3
2026-02-12	14:41:56.490	12.425	-34.37	52.5	0.701988	0.379664	0.02684	-0.231	0.0735	0.477	0	356	29	3
2026-02-12	14:41:56.510	14.595	-25.585	45.185	0.792268	0.427	-0.016836	-0.234	0.084	0.483	0	356	29	3
2026-02-12	14:41:56.530	21.525	-16.625	41.37	0.869128	0.518256	-0.084424	-0.234	0.0915	0.486	0	356	29	3
2026-02-12	14:41:56.550	25.48	-7.28	36.925	0.94672	0.55754	-0.115412	-0.2325	0.0945	0.486	0	356	29	3
2026-02-12	14:41:56.570	20.09	1.855	33.04	1.031144	0.555832	-0.114192	-0.2325	0.0975	0.4875	0	356	29	3
2026-02-12	14:41:56.590	11.13	9.275	35.595	1.060912	0.497028	-0.12322	-0.2325	0.0975	0.4875	0	356	29	3
2026-02-12	14:41:56.610	13.755	16.345	33.39	1.087996	0.621712	-0.159576	-0.222	0.1155	0.486	0	359	40	3
2026-02-12	14:41:56.630	20.895	21.98	25.76	1.041636	0.72102	-0.139812	-0.2145	0.126	0.4905	0	359	40	3
2026-02-12	14:41:56.650	19.915	26.215	18.445	1.010404	0.660508	-0.05124	-0.2265	0.129	0.4965	0	359	40	3
2026-02-12	14:41:56.670	6.965	27.265	10.08	1.048224	0.621224	-0.026352	-0.222	0.1365	0.4815	0	359	40	3
2026-02-12	14:41:56.690	-5.88	28.35	-0.28	1.140456	0.594628	0	-0.2295	0.141	0.483	0	359	40	3
2026-02-12	14:41:56.710	-9.94	34.37	-10.395	1.242692	0.494344	-0.054168	-0.222	0.1365	0.4755	0	359	40	3
2026-02-12	14:41:56.730	-9.975	42.105	-17.395	1.287588	0.496296	-0.117852	-0.2235	0.1245	0.4695	0	359	40	3
2026-02-12	14:41:56.750	-11.935	46.2	-22.295	1.2505	0.542168	-0.140788	-0.2205	0.129	0.468	0	359	40	3
2026-02-12	14:41:56.770	-21.77	43.05	-26.53	1.159488	0.365024	-0.213012	-0.234	0.1215	0.456	0	359	40	3
2026-02-12	14:41:56.790	-25.97	30.135	-30.59	0.990884	0.280112	-0.233264	-0.231	0.12	0.456	0	359	40	3
2026-02-12	14:41:56.810	-37.24	18.06	-33.32	0.976244	0.186416	-0.09882	-0.2265	0.1155	0.4515	0	358	53	3
2026-02-12	14:41:56.830	-46.41	10.71	-40.53	1.057496	0.041968	0.016348	-0.225	0.1095	0.45	0	358	53	3
2026-02-12	14:41:56.850	-39.515	13.58	-47.39	1.18706	-0.170068	0.00366	-0.225	0.1095	0.45	0	358	53	3
2026-02-12	14:41:56.870	0.42	19.39	-47.285	1.12606	-0.125416	-0.05124	-0.225	0.096	0.4455	0	358	53	3
2026-02-12	14:41:56.890	49.315	24.955	-44.485	1.067256	0.036356	-0.055632	-0.2355	0.0795	0.4425	0	358	53	3
2026-02-12	14:41:56.910	98.7	33.425	-45.115	0.998692	0.3233	-0.023912	-0.228	0.0855	0.441	0	358	53	3
2026-02-12	14:41:56.930	133.665	43.4	-54.74	0.90524	0.562176	0.023912	-0.2355	0.075	0.4425	0	358	53	3
2026-02-12	14:41:56.950	132.02	49.63	-65.59	0.811056	0.693936	0.022936	-0.2325	0.0735	0.4335	0	358	53	3
2026-02-12	14:41:56.970	106.295	48.895	-75.845	0.700768	0.67832	-0.008784	-0.2295	0.0675	0.429	0	358	53	3
2026-02-12	14:41:56.990	71.995	43.155	-80.675	0.623908	0.606828	-0.076372	-0.225	0.0555	0.4215	0	358	53	3
2026-02-12	14:41:57.010	38.955	33.705	-82.04	0.551928	0.514352	-0.1098	-0.2355	0.048	0.411	0	356	61	3
2026-02-12	14:41:57.030	12.495	22.015	-80.535	0.55144	0.389912	-0.06588	-0.228	0.0405	0.4065	0	356	61	3
2026-02-12	14:41:57.050	-5.67	15.505	-71.155	0.537776	0.307196	-0.007564	-0.2265	0.027	0.408	0	356	61	3
2026-02-12	14:41:57.070	-16.24	14.63	-54.705	0.544608	0.28792	0.023424	-0.228	0.0165	0.3915	0	356	61	3
2026-02-12	14:41:57.090	-14.63	18.41	-37.17	0.553148	0.316956	0.02684	-0.222	0.0045	0.4005	0	356	61	3
2026-02-12	14:41:57.110	3.535	25.41	-17.78	0.550952	0.406748	0.03294	-0.2205	0.003	0.3915	0	356	61	3
2026-02-12	14:41:57.130	7.665	29.925	-3.71	0.52948	0.525088	0.049776	-0.2175	0	0.387	0	356	61	3
2026-02-12	14:41:57.150	11.62	31.745	5.285	0.51362	0.603656	0.102236	-0.2145	-0.009	0.3885	0	356	61	3
2026-02-12	14:41:57.170	23.38	34.44	12.46	0.576816	0.675392	0.182756	-0.2175	-0.006	0.3855	0	356	61	3
2026-02-12	14:41:57.190	47.95	35.035	12.39	0.671976	0.826916	0.189344	-0.219	-0.0015	0.3795	0	356	61	3
2026-02-12	14:41:57.210	78.19	28.805	-0.42	0.746396	1.063352	0.11346	-0.222	-0.003	0.375	0	354	55	3
2026-02-12	14:41:57.230	75.6	24.395	-15.54	0.880108	1.379088	0.07124799	-0.2235	-0.0015	0.372	0	354	55	3
2026-02-12	14:41:57.250	36.68	19.145	-49.525	0.972828	1.59942	-0.014152	-0.222	-0.0015	0.3705	0	354	55	3
2026-02-12	14:41:57.270	-25.095	7.875	-67.025	0.89792	1.05652	0.065148	-0.222	-0.0045	0.369	0	354	55	3
2026-02-12	14:41:57.290	-43.47	7.21	-58.765	0.81984	0.81008	0.130784	-0.219	-0.0135	0.3765	0	354	55	3
2026-02-12	14:41:57.310	-16.52	8.645	-58.45	0.925492	1.028948	0.065392	-0.2115	-0.021	0.3705	0	354	55	3
2026-02-12	14:41:57.330	-15.47	3.605	-49.735	1.027728	0.971364	0.055876	-0.207	-0.033	0.3585	0	354	55	3
2026-02-12	14:41:57.350	-29.33	0	-41.405	1.192184	0.844484	0.067832	-0.2085	-0.0435	0.3555	0	354	55	3
2026-02-12	14:41:57.370	-41.685	-3.185	-25.13	1.0065	0.435052	-0.008052	-0.2085	-0.0435	0.3555	0	354	55	3
2026-02-12	14:41:57.390	-51.975	-11.375	-0.805	0.80642	0.089792	0.018544	-0.207	-0.0435	0.3525	0	354	55	3
2026-02-12	14:41:57.410	-35.595	-18.27	18.13	0.739808	0.085644	0.02318	-0.2055	-0.045	0.351	0	355	34	3
2026-02-12	14:41:57.430	-18.83	-23.485	36.085	0.723948	0.22692	-0.0305	-0.2025	-0.0465	0.354	0	355	34	3
2026-02-12	14:41:57.450	-15.96	-29.645	58.45	0.744932	0.318908	-0.084912	-0.201	-0.0435	0.3585	0	355	34	3
2026-02-12	14:41:57.470	-11.305	-40.67	73.815	0.79544	0.444324	-0.09638	-0.2085	-0.0345	0.3585	0	355	34	3
2026-02-12	14:41:57.490	-10.64	-54.11	75.075	0.857172	0.727364	-0.104188	-0.216	-0.021	0.3675	0	355	34	3
2026-02-12	14:41:57.510	-25.725	-66.99	68.425	0.938912	0.859612	-0.09394	-0.216	-0.015	0.378	0	355	34	3
2026-02-12	14:41:57.530	-49.665	-70.56	60.655	0.87352	0.766404	-0.102724	-0.2175	-0.0045	0.384	0	355	34	3
2026-02-12	14:41:57.550	-71.015	-72.87	59.99	0.818132	0.577792	-0.102724	-0.2175	0.006	0.39	0	355	34	3
2026-02-12	14:41:57.570	-79.135	-75.32	64.82	0.789096	0.364536	-0.081252	-0.2145	0.015	0.3975	0	355	34	3
2026-02-12	14:41:57.590	-58.94	-76.545	74.41	0.715408	0.215208	-0.048312	-0.216	0.027	0.4065	0	355	34	3
2026-02-12	14:41:57.610	-18.935	-69.685	76.615	0.699548	0.210084	-0.05856	-0.219	0.036	0.417	0	359	21	3
2026-02-12	14:41:57.630	13.615	-63.28	77.245	0.6832	0.322324	-0.080276	-0.2175	0.0495	0.429	0	359	21	3
2026-02-12	14:41:57.650	33.53	-53.34	66.36	0.7015	0.518012	-0.067588	-0.2145	0.057	0.4335	0	359	21	3
2026-02-12	14:41:57.670	30.38	-43.295	57.715	0.71126	0.509228	-0.009272	-0.216	0.081	0.45	0	359	21	3
2026-02-12	14:41:57.690	22.05	-32.06	50.75	0.77714	0.473116	0.06222	-0.222	0.0855	0.462	0	359	21	3
2026-02-12	14:41:57.710	15.645	-21.035	47.005	0.808372	0.457012	0.022936	-0.2115	0.0975	0.4635	0	359	21	3
2026-02-12	14:41:57.730	13.265	-12.285	45.5	0.833016	0.445056	-0.063928	-0.213	0.099	0.474	0	359	21	3
2026-02-12	14:41:57.750	24.08	-5.005	40.67	0.876692	0.525576	-0.09638	-0.21	0.111	0.468	0	359	21	3
2026-02-12	14:41:57.770	37.59	0.77	30.31	0.914024	0.612684	-0.097112	-0.2145	0.1125	0.4665	0	359	21	3
2026-02-12	14:41:57.790	33.915	6.685	21.945	0.948428	0.632692	-0.06466	-0.204	0.12	0.465	0	359	21	3
2026-02-12	14:41:57.810	20.055	14.56	18.655	0.952576	0.55876	-0.067832	-0.2115	0.126	0.465	0	358	22	3
2026-02-12	14:41:57.830	13.51	21.98	16.555	0.993568	0.55754	-0.085888	-0.21	0.1275	0.471	0	358	22	3
2026-02-12	14:41:57.850	20.895	28.42	9.8	1.067012	0.638304	-0.071736	-0.207	0.1335	0.4515	0	358	22	3
2026-02-12	14:41:57.870	30.03	36.96	4.095	1.09678	0.676856	-0.062464	-0.204	0.1335	0.4635	0	358	22	3
2026-02-12	14:41:57.890	26.285	45.5	0.63	1.14314	0.645624	-0.05734	-0.2085	0.1365	0.4575	0	358	22	3
2026-02-12	14:41:57.910	26.74	58.065	-5.355	1.147288	0.584624	-0.037332	-0.213	0.1395	0.4545	0	358	22	3
2026-02-12	14:41:57.930	35.945	70.28	-10.885	1.103368	0.594872	-0.061976	-0.21	0.1365	0.444	0	358	22	3
2026-02-12	14:41:57.950	37.975	74.725	-17.115	1.05408	0.703208	-0.081008	-0.207	0.135	0.4275	0	358	22	3
2026-02-12	14:41:57.970	22.715	68.985	-24.57	0.970632	0.73444	-0.117608	-0.207	0.1365	0.4215	0	358	22	3
2026-02-12	14:41:57.990	-12.005	50.365	-28.735	0.895236	0.550952	-0.125172	-0.2115	0.138	0.4155	0	358	22	3
2026-02-12	14:41:58.010	-49.105	25.9	-36.295	0.95526	0.347212	-0.05856	-0.213	0.126	0.4005	0	352	30	3
2026-02-12	14:41:58.030	-77.35	7	-42.315	1.0858	0.20374	0.050264	-0.204	0.1275	0.3945	0	352	30	3
2026-02-12	14:41:58.050	-79.625	2.66	-47.81	1.221708	-0.038796	0.071492	-0.213	0.1155	0.3945	0	352	30	3
2026-02-12	14:41:58.070	-47.11	6.44	-55.86	1.251964	-0.176656	0.025376	-0.2055	0.114	0.3885	0	352	30	3
2026-02-12	14:41:58.090	3.045	10.955	-59.185	1.16876	-0.125172	-0.064172	-0.216	0.1035	0.399	0	352	30	3
2026-02-12	14:41:58.110	51.45	15.995	-56.42	1.030412	0.072956	-0.101748	-0.213	0.096	0.384	0	352	30	3
2026-02-12	14:41:58.130	100.765	26.46	-56.875	0.8967	0.320372	-0.04026	-0.213	0.1005	0.3855	0	352	30	3
2026-02-12	14:41:58.150	132.44	36.015	-63.63	0.887184	0.660264	0.063684	-0.216	0.081	0.381	0	352	30	3
2026-02-12	14:41:58.170	102.41	33.11	-79.415	0.778604	0.771772	0.103212	-0.207	0.078	0.384	0	352	30	3
2026-02-12	14:41:58.190	35.07	26.67	-89.565	0.734684	0.7991	0.018056	-0.207	0.078	0.384	0	352	30	3
2026-02-12	14:41:58.210	-11.48	20.545	-95.375	0.661972	0.568276	-0.025864	-0.2085	0.0615	0.375	0	345	34	3
2026-02-12	14:41:58.230	-33.11	13.51	-93.695	0.58438	0.383812	-0.024888	-0.21	0.036	0.366	0	345	34	3
2026-02-12	14:41:58.250	-34.545	8.96	-81.655	0.553392	0.304024	0.009272	-0.207	0.0225	0.3615	0	345	34	3
2026-02-12	14:41:58.270	-30.065	7.805	-64.365	0.47946	0.26596	0.041236	-0.2055	0.012	0.3555	0	345	34	3
2026-02-12	14:41:58.290	-19.95	7.91	-42.035	0.481656	0.284748	0.0793	-0.2055	0.0045	0.3495	0	345	34	3
2026-02-12	14:41:58.310	-8.715	12.11	-20.51	0.440664	0.365024	0.132248	-0.201	0	0.348	0	345	34	3
2026-02-12	14:41:58.330	-2.52	15.68	-1.225	0.438224	0.511912	0.135908	-0.1965	-0.0015	0.351	0	345	34	3
2026-02-12	14:41:58.350	0.805	18.27	13.055	0.43188	0.589992	0.136152	-0.195	-0.0015	0.3495	0	345	34	3
2026-02-12	14:41:58.370	4.48	17.15	26.075	0.489708	0.703696	0.148596	-0.195	-0.0015	0.3495	0	345	34	3
2026-02-12	14:41:58.390	14.7	15.26	25.795	0.576572	0.8723	0.138592	-0.1965	0	0.348	0	345	34	3
2026-02-12	14:41:58.410	19.18	10.85	18.935	0.70028	0.974536	0.149084	-0.1965	0.003	0.3435	0	340	25	3
2026-02-12	14:41:58.430	22.12	5.285	4.83	0.794464	1.14924	0.117364	-0.201	0.0045	0.3405	0	340	25	3
2026-02-12	14:41:58.450	0.175	-1.4	-27.3	0.90402	1.20414	0.065148	-0.204	0.006	0.342	0	340	25	3
2026-02-12	14:41:58.470	-20.09	-1.75	-40.565	0.800808	0.991372	0.025376	-0.204	0.006	0.342	0	340	25	3
2026-02-12	14:41:58.490	-33.46	-0.28	-35.84	0.720288	0.81496	0.239608	-0.2025	0.003	0.342	0	340	25	3
2026-02-12	14:41:58.510	-19.215	2.415	-32.655	0.828868	0.9272	0.25132	-0.192	-0.0075	0.345	0	340	25	3
2026-02-12	14:41:58.530	17.29	5.32	-29.82	0.822524	1.247816	0.13786	-0.192	-0.012	0.339	0	340	25	3
2026-02-12	14:41:58.550	-12.32	-5.425	-15.54	1.018944	1.022848	0.166652	-0.192	-0.0135	0.339	0	340	25	3
2026-02-12	14:41:58.570	-49.49	-1.365	-3.85	1.057496	0.893772	0.122	-0.1935	-0.0135	0.339	0	340	25	3
2026-02-12	14:41:58.590	-73.255	-10.815	-10.815	0.981612	0.620736	-0.049776	-0.189	-0.012	0.339	0	340	25	3
2026-02-12	14:41:58.610	-90.3	-34.755	-11.27	0.921344	0.145668	-0.122976	-0.183	-0.0135	0.333	0	340	1	3
2026-02-12	14:41:58.630	-82.285	-52.255	8.365	0.855708	-0.00488	0.001708	-0.186	-0.015	0.336	0	340	1	3
2026-02-12	14:41:58.650	-57.05	-56.735	26.705	0.77592	0.14884	0.0244	-0.1905	-0.015	0.345	0	340	1	3
2026-02-12	14:41:58.670	-44.38	-64.12	52.29	0.708576	0.274256	-0.007076	-0.192	-0.012	0.345	0	340	1	3
2026-02-12	14:41:58.690	-36.575	-74.025	75.425	0.709552	0.406748	-0.02196	-0.189	-0.0075	0.3495	0	340	1	3
2026-02-12	14:41:58.710	-10.045	-85.995	74.725	0.837164	0.587308	-0.040504	-0.195	0.0015	0.3585	0	340	1	3
2026-02-12	14:41:58.730	-8.645	-94.885	66.465	0.833992	0.790804	-0.130784	-0.201	0.0075	0.3615	0	340	1	3
2026-02-12	14:41:58.750	-41.545	-105.42	69.825	0.80886	0.55998	-0.191296	-0.207	0.0345	0.39	0	340	1	3
2026-02-12	14:41:58.770	-49.875	-110.04	75.67	0.8113	0.343308	-0.137128	-0.207	0.045	0.4035	0	340	1	3
2026-02-12	14:41:58.790	-32.375	-102.095	80.57	0.787632	0.316468	-0.093452	-0.21	0.048	0.4185	0	340	1	3
2026-02-12	14:41:58.810	-18.165	-92.47	86.66	0.779092	0.281576	-0.066856	-0.198	0.063	0.429	0	344	12	3
2026-02-12	14:41:58.830	-7.945	-81.69	88.725	0.789096	0.242048	-0.1037	-0.1905	0.0765	0.4485	0	344	12	3
2026-02-12	14:41:58.850	9.45	-72.135	85.295	0.78934	0.347944	-0.132004	-0.1905	0.093	0.444	0	344	12	3
2026-02-12	14:41:58.870	25.97	-61.74	75.18	0.796904	0.419192	-0.130052	-0.1875	0.108	0.471	0	344	12	3
2026-02-12	14:41:58.890	37.24	-50.295	62.685	0.787144	0.430172	-0.089548	-0.183	0.1035	0.471	0	344	12	3
2026-02-12	14:41:58.910	40.67	-38.325	50.225	0.831064	0.429684	-0.010736	-0.189	0.1245	0.4815	0	344	12	3
2026-02-12	14:41:58.930	36.225	-25.655	36.085	0.876204	0.416508	-0.000732	-0.189	0.1305	0.4845	0	344	12	3
2026-02-12	14:41:58.950	31.605	-14.56	26.355	0.86986	0.434564	-0.083448	-0.1845	0.15	0.4905	0	344	12	3
2026-02-12	14:41:58.970	27.93	-5.46	21.805	0.877668	0.426024	-0.113704	-0.1875	0.147	0.4905	0	344	12	3
2026-02-12	14:41:58.990	43.435	4.165	10.185	0.904508	0.49288	-0.083692	-0.1845	0.153	0.4905	0	344	12	3
2026-02-12	14:41:59.010	43.785	11.795	5.005	0.937448	0.504104	-0.096624	-0.183	0.153	0.4905	0	345	3	2
2026-02-12	14:41:59.030	34.58	18.62	3.08	0.966972	0.54656	-0.130296	-0.18	0.153	0.4845	0	345	3	2
2026-02-12	14:41:59.050	20.055	24.43	1.925	1.01382	0.585356	-0.184464	-0.18	0.1545	0.4785	0	345	3	2
2026-02-12	14:41:59.070	20.16	32.48	0	1.036024	0.593408	-0.162504	-0.1785	0.1575	0.48	0	345	3	2
2026-02-12	14:41:59.090	28.595	42	-1.645	1.075552	0.541192	-0.113948	-0.177	0.1575	0.48	0	345	3	2
2026-02-12	14:41:59.110	36.82	50.47	-3.745	1.194136	0.536556	-0.03904	-0.1815	0.1545	0.474	0	345	3	2
2026-02-12	14:41:59.130	49.84	65.135	-3.85	1.254892	0.65758	-0.050996	-0.183	0.1635	0.4635	0	345	3	2
2026-02-12	14:41:59.150	47.18	82.145	-8.015	1.267092	0.676612	-0.154208	-0.183	0.159	0.453	0	345	3	2
2026-02-12	14:41:59.170	41.825	94.71	-13.93	1.1468	0.691496	-0.185196	-0.186	0.162	0.45	0	345	3	2
2026-02-12	14:41:59.190	33.39	91.63	-17.745	1.0187	0.575108	-0.234728	-0.1815	0.1695	0.4335	0	345	3	2
2026-02-12	14:41:59.210	17.745	75.18	-19.915	0.950136	0.466528	-0.249856	-0.1905	0.159	0.42	0	341	20	3
2026-02-12	14:41:59.230	0.385	46.165	-14.56	0.887672	0.480192	-0.138836	-0.1815	0.1575	0.396	0	341	20	3
2026-02-12	14:41:59.250	-37.065	14.77	-20.615	0.989908	0.438956	0.104676	-0.186	0.156	0.3945	0	341	20	3
2026-02-12	14:41:59.270	-79.275	-5.215	-40.11	1.18584	0.182512	0.137372	-0.186	0.156	0.3945	0	341	20	3
2026-02-12	14:41:59.290	-82.04	-7.56	-48.3	1.15778	-0.08295999	-0.005368	-0.186	0.1515	0.4005	0	341	20	3
2026-02-12	14:41:59.310	-52.5	-6.02	-48.37	1.090436	-0.093208	-0.129808	-0.1875	0.1395	0.402	0	341	20	3
2026-02-12	14:41:59.330	-4.76	-1.96	-46.83	1.01626	-0.000732	-0.133956	-0.189	0.1305	0.3975	0	341	20	3
2026-02-12	14:41:59.350	42.77	6.475	-50.575	0.918904	0.24888	-0.057096	-0.186	0.126	0.3975	0	341	20	3
2026-02-12	14:41:59.370	74.655	13.16	-57.645	0.867176	0.429196	0.017324	-0.186	0.117	0.3975	0	341	20	3
2026-02-12	14:41:59.390	71.47	17.36	-65.94	0.775676	0.549244	0.053924	-0.186	0.111	0.393	0	341	20	3
2026-02-12	14:41:59.410	43.26	16.345	-74.305	0.703452	0.562908	0.026352	-0.186	0.1095	0.393	0	335	40	3
2026-02-12	14:41:59.430	4.55	12.81	-74.305	0.645136	0.473116	-0.00488	-0.1875	0.1065	0.393	0	335	40	3
2026-02-12	14:41:59.450	-23.66	9.975	-69.125	0.610244	0.3538	-0.025376	-0.1875	0.0945	0.3885	0	335	40	3
2026-02-12	14:41:59.470	-31.29	8.26	-63.175	0.566324	0.299388	-0.029524	-0.186	0.0795	0.3885	0	335	40	3
2026-02-12	14:41:59.490	-27.93	7.665	-54.985	0.529724	0.270352	-0.01586	-0.189	0.069	0.39	0	335	40	3
2026-02-12	14:41:59.510	-16.275	8.12	-48.265	0.482144	0.286944	-0.00366	-0.1875	0.063	0.387	0	335	40	3
2026-02-12	14:41:59.530	-7.98	8.33	-23.59	0.498004	0.316224	0.057584	-0.1875	0.0585	0.384	0	335	40	3
2026-02-12	14:41:59.550	4.06	12.11	-3.045	0.526308	0.36844	0.120048	-0.1875	0.0585	0.384	0	335	40	3
2026-02-12	14:41:59.570	23.555	19.355	17.045	0.58316	0.47824	0.20374	-0.1905	0.0525	0.381	0	335	40	3
2026-02-12	14:41:59.590	46.305	28.175	26.635	0.66002	0.674416	0.248392	-0.1785	0.0615	0.3795	0	335	40	3
2026-02-12	14:41:59.610	74.935	36.82	23.94	0.72712	0.809592	0.158844	-0.192	0.072	0.375	0	330	42	3
2026-02-12	14:41:59.630	101.85	42.49	19.53	0.81008	1.096536	0.025132	-0.18	0.069	0.369	0	330	42	3
2026-02-12	14:41:59.650	85.295	36.645	-1.575	0.994056	1.368596	-0.002196	-0.1845	0.066	0.366	0	330	42	3
2026-02-12	14:41:59.670	40.285	21.105	-36.19	1.042124	1.321992	-0.026596	-0.1845	0.069	0.3675	0	330	42	3
2026-02-12	14:41:59.690	-10.045	10.325	-43.855	0.877424	0.948672	-0.032208	-0.1815	0.0645	0.363	0	330	42	3
2026-02-12	14:41:59.710	-30.52	4.27	-40.565	0.772504	0.83814	0.144448	-0.1845	0.0585	0.3615	0	330	42	3
2026-02-12	14:41:59.730	-17.955	-2.66	-51.87	0.877912	1.006256	0.172752	-0.189	0.0585	0.3615	0	330	42	3
2026-02-12	14:41:59.750	2.38	-8.715	-56	0.926956	1.173152	0.106628	-0.186	0.0525	0.3585	0	330	42	3
2026-02-12	14:41:59.770	-20.125	-20.79	-44.94	1.153388	0.984052	0.070272	-0.1845	0.0465	0.36	0	330	42	3
2026-02-12	14:41:59.790	-66.185	-28.63	-35.28	1.0675	0.673928	-0.088084	-0.183	0.0405	0.3615	0	330	42	3
2026-02-12	14:41:59.810	-100.485	-35.14	-31.57	0.987712	0.21228	-0.14884	-0.183	0.0345	0.3645	0	330	26	3
2026-02-12	14:41:59.830	-100.065	-42.84	-7	0.8601	-0.07808	-0.044164	-0.183	0.036	0.369	0	330	26	3
2026-02-12	14:41:59.850	-67.9	-45.185	16.135	0.768112	-0.026596	-0.023668	-0.186	0.0285	0.372	0	330	26	3
2026-02-12	14:41:59.870	-41.44	-47.39	35.49	0.74664	0.117608	-0.083448	-0.18	0.0435	0.3825	0	330	26	3
2026-02-12	14:41:59.890	-28.84	-50.575	55.475	0.752496	0.215452	-0.107604	-0.192	0.036	0.387	0	330	26	3
2026-02-12	14:41:59.910	-6.265	-57.085	68.775	0.817888	0.43554	-0.118584	-0.183	0.0465	0.396	0	330	26	3
2026-02-12	14:41:59.930	13.09	-64.19	68.355	0.92964	0.772748	-0.127124	-0.1845	0.054	0.402	0	330	26	3
2026-02-12	14:41:59.950	2.59	-69.895	59.92	0.927932	0.830576	-0.142496	-0.1815	0.0735	0.411	0	330	26	3
2026-02-12	14:41:59.970	-25.06	-72.065	57.365	0.86254	0.678076	-0.096136	-0.1815	0.072	0.4125	0	330	26	3
2026-02-12	14:41:59.990	-52.185	-73.815	61.215	0.806908	0.43432	-0.058804	-0.177	0.087	0.4395	0	330	26	3
2026-02-12	14:42:00.010	-48.86	-74.375	71.19	0.73932	0.266692	-0.024156	-0.177	0.087	0.4395	0	335	17	3
2026-02-12	14:42:00.030	-30.03	-69.265	72.345	0.730536	0.228384	-0.036112	-0.18	0.0975	0.45	0	335	17	3
2026-02-12	14:42:00.050	-2.24	-61.705	75.04	0.71858	0.236192	-0.0732	-0.18	0.111	0.4695	0	335	17	3
2026-02-12	14:42:00.070	27.055	-51.625	69.16	0.744688	0.4697	-0.10858	-0.1725	0.1155	0.471	0	335	17	3
2026-02-12	14:42:00.090	28.84	-44.205	60.655	0.734928	0.542168	-0.081008	-0.171	0.1275	0.4815	0	335	17	3
2026-02-12	14:42:00.110	21.315	-35.07	52.185	0.763476	0.518988	-0.01342	-0.1695	0.147	0.498	0	335	17	3
2026-02-12	14:42:00.130	14.84	-25.97	43.89	0.799344	0.509228	0.005368	-0.168	0.1515	0.504	0	335	17	3
2026-02-12	14:42:00.150	7.07	-17.43	40.285	0.827648	0.481656	-0.044408	-0.168	0.153	0.507	0	335	17	3
2026-02-12	14:42:00.170	4.76	-10.185	37.1	0.861564	0.489708	-0.07905599	-0.1665	0.159	0.5085	0	335	17	3
2026-02-12	14:42:00.190	7.98	-4.025	33.565	0.892552	0.496784	-0.112728	-0.159	0.165	0.513	0	335	17	3
2026-02-12	14:42:00.210	6.895	1.26	30.94	0.947452	0.510204	-0.101016	-0.1545	0.168	0.5145	0	338	22	3
2026-02-12	14:42:00.230	6.755	5.6	25.235	1.014796	0.540948	-0.109312	-0.1485	0.174	0.513	0	338	22	3
2026-02-12	14:42:00.250	6.545	11.13	17.92	1.057984	0.583648	-0.146644	-0.15	0.18	0.516	0	338	22	3
2026-02-12	14:42:00.270	9.59	18.62	11.305	1.06872	0.607316	-0.1281	-0.153	0.18	0.519	0	338	22	3
2026-02-12	14:42:00.290	10.92	28.245	9.485	1.042612	0.577792	-0.07808	-0.1545	0.171	0.51	0	338	22	3
2026-02-12	14:42:00.310	9.87	35.945	6.3	1.133868	0.506544	-0.047336	-0.156	0.186	0.513	0	338	22	3
2026-02-12	14:42:00.330	18.515	48.37	-3.885	1.270996	0.52704	-0.054168	-0.153	0.18	0.5055	0	338	22	3
2026-02-12	14:42:00.350	25.9	66.605	-17.255	1.261968	0.536312	-0.172752	-0.153	0.18	0.5055	0	338	22	3
2026-02-12	14:42:00.370	28.315	76.3	-30.625	1.175592	0.59536	-0.182756	-0.1575	0.18	0.4995	0	338	22	3
2026-02-12	14:42:00.390	21.91	77.385	-39.725	1.02968	0.467504	-0.239852	-0.1635	0.177	0.4875	0	338	22	3
