yyyy-MM-dd	HH:mm:ss.fff	gyrX	gyrY	gyrZ	accX	accY	accZ	magX	magY	magZ	Marker	Energy	Angle	Classification
2026-02-12	16:11:16.810	1.295	-0.595	0.245	0.013176	-0.038552	1.01504	0.5445	-0.0555	0.0465	0	3	1036	1
2026-02-12	16:11:16.830	1.26	-0.595	0.245	0.013664	-0.038796	1.010892	0.546	-0.0585	0.0465	0	3	1036	1
2026-02-12	16:11:16.850	1.295	-0.595	0.28	0.012932	-0.0366	1.012356	0.5445	-0.0645	0.0495	0	3	1036	1
2026-02-12	16:11:16.870	1.26	-0.595	0.245	0.009028	-0.0305	1.012356	0.5445	-0.06	0.054	0	3	1036	1
2026-02-12	16:11:16.890	1.295	-0.595	0.245	0.012932	-0.033672	1.011624	0.5445	-0.06	0.054	0	3	1036	1
2026-02-12	16:11:16.910	1.295	-0.595	0.28	0.01342	-0.03538	1.01382	0.5445	-0.0615	0.0555	0	3	1036	1
2026-02-12	16:11:16.930	1.26	-0.595	0.28	0.011224	-0.037088	1.013576	0.5415	-0.054	0.054	0	3	1036	1
2026-02-12	16:11:16.950	1.295	-0.595	0.245	0.01098	-0.034892	1.013088	0.5445	-0.0555	0.0525	0	3	1036	1
2026-02-12	16:11:16.970	1.295	-0.595	0.245	0.014396	-0.037088	1.009428	0.546	-0.06	0.057	0	3	1036	1
2026-02-12	16:11:16.990	1.26	-0.595	0.245	0.009516	-0.0366	1.014552	0.5415	-0.057	0.0555	0	3	1036	1
2026-02-12	16:11:17.010	1.26	-0.595	0.245	0.012932	-0.037088	1.012356	0.5445	-0.0555	0.051	0	3	1036	1
2026-02-12	16:11:17.030	1.295	-0.56	0.245	0.012932	-0.037332	1.014064	0.5475	-0.0585	0.051	0	3	1036	1
2026-02-12	16:11:17.050	1.295	-0.595	0.28	0.010004	-0.03782	1.010648	0.5445	-0.0555	0.0495	0	3	1036	1
2026-02-12	16:11:17.070	1.26	-0.595	0.245	0.012444	-0.040504	1.011136	0.5445	-0.06	0.0495	0	3	1036	1
2026-02-12	16:11:17.090	1.295	-0.595	0.28	0.01098	-0.036112	1.013332	0.5415	-0.0645	0.045	0	3	1036	1
2026-02-12	16:11:17.110	1.26	-0.595	0.245	0.014884	-0.037576	1.0126	0.546	-0.06	0.045	0	3	1036	1
2026-02-12	16:11:17.130	1.295	-0.595	0.245	0.013176	-0.037088	1.014552	0.5505	-0.0585	0.0525	0	3	1036	1
2026-02-12	16:11:17.150	1.295	-0.595	0.28	0.012444	-0.036844	1.0126	0.5475	-0.06	0.0525	0	3	1036	1
2026-02-12	16:11:17.170	1.295	-0.595	0.245	0.0122	-0.039772	1.01504	0.5475	-0.0585	0.051	0	3	1036	1
2026-02-12	16:11:17.190	1.295	-0.56	0.245	0.009272	-0.039772	1.0126	0.546	-0.0585	0.0525	0	3	1036	1
2026-02-12	16:11:17.210	1.26	-0.595	0.245	0.010248	-0.036356	1.014796	0.5445	-0.06	0.0525	0	3	1036	1
2026-02-12	16:11:17.230	1.26	-0.595	0.245	0.010004	-0.037088	1.015528	0.5445	-0.0615	0.051	0	3	1036	1
2026-02-12	16:11:17.250	1.295	-0.595	0.28	0.011712	-0.039284	1.014552	0.546	-0.06	0.0465	0	3	1036	1
2026-02-12	16:11:17.270	1.26	-0.595	0.245	0.011712	-0.033916	1.010648	0.552	-0.057	0.048	0	3	1036	1
2026-02-12	16:11:17.290	1.295	-0.595	0.245	0.0061	-0.0366	1.014064	0.5535	-0.057	0.054	0	3	1036	1
2026-02-12	16:11:17.310	1.26	-0.56	0.28	0.014152	-0.040992	1.011868	0.549	-0.0555	0.0525	0	3	1036	1
2026-02-12	16:11:17.330	1.26	-0.595	0.21	0.009028	-0.039772	1.0126	0.5475	-0.0585	0.051	0	3	1036	1
2026-02-12	16:11:17.350	1.26	-0.56	0.245	0.01342	-0.03904	1.01138	0.5475	-0.06	0.048	0	3	1036	1
2026-02-12	16:11:17.370	1.26	-0.56	0.28	0.011956	-0.038552	1.01138	0.546	-0.06	0.0465	0	3	1036	1
2026-02-12	16:11:17.390	1.295	-0.63	0.28	0.011468	-0.038796	1.012356	0.546	-0.06	0.0495	0	3	1036	1
2026-02-12	16:11:17.410	1.26	-0.56	0.28	0.010492	-0.038064	1.011624	0.5415	-0.06	0.0495	0	3	1036	1
2026-02-12	16:11:17.430	1.26	-0.595	0.21	0.011956	-0.0366	1.01138	0.5385	-0.057	0.0525	0	3	1036	1
2026-02-12	16:11:17.450	1.295	-0.56	0.28	0.0122	-0.035136	1.011624	0.54	-0.057	0.0525	0	3	1036	1
2026-02-12	16:11:17.470	1.26	-0.56	0.245	0.00976	-0.037088	1.013088	0.543	-0.06	0.0495	0	3	1036	1
2026-02-12	16:11:17.490	1.295	-0.56	0.28	0.010248	-0.038796	1.012356	0.546	-0.06	0.048	0	3	1036	1
2026-02-12	16:11:17.510	1.295	-0.595	0.245	0.011224	-0.035624	1.014308	0.5445	-0.057	0.0465	0	3	1036	1
2026-02-12	16:11:17.530	1.295	-0.56	0.28	0.01464	-0.03782	1.011868	0.5445	-0.057	0.0465	0	3	1036	1
2026-02-12	16:11:17.550	1.26	-0.595	0.28	0.012688	-0.037332	1.0126	0.546	-0.057	0.045	0	3	1036	1
2026-02-12	16:11:17.570	1.26	-0.56	0.245	0.014396	-0.036112	1.01382	0.543	-0.0555	0.045	0	3	1036	1
2026-02-12	16:11:17.590	1.295	-0.56	0.245	0.013176	-0.035868	1.012356	0.5415	-0.0585	0.045	0	3	1036	1
2026-02-12	16:11:17.610	1.295	-0.595	0.245	0.008296	-0.03904	1.010648	0.543	-0.0645	0.0495	0	3	1036	1
2026-02-12	16:11:17.630	1.26	-0.56	0.245	0.013664	-0.036112	1.010892	0.5475	-0.0615	0.0525	0	3	1036	1
2026-02-12	16:11:17.650	1.26	-0.595	0.245	0.012688	-0.034892	1.013332	0.5475	-0.0585	0.051	0	3	1036	1
2026-02-12	16:11:17.670	1.295	-0.595	0.28	0.013664	-0.034892	1.011624	0.5445	-0.06	0.051	0	3	1036	1
2026-02-12	16:11:17.690	1.26	-0.56	0.245	0.012932	-0.0366	1.012356	0.546	-0.0585	0.0495	0	3	1036	1
2026-02-12	16:11:17.710	1.26	-0.595	0.28	0.012688	-0.039284	1.01138	0.546	-0.0585	0.0495	0	3	1036	1
2026-02-12	16:11:17.730	1.295	-0.56	0.28	0.01098	-0.03538	1.014308	0.537	-0.066	0.048	0	3	1036	1
2026-02-12	16:11:17.750	1.295	-0.595	0.245	0.0122	-0.038796	1.014796	0.537	-0.066	0.048	0	3	1036	1
2026-02-12	16:11:17.770	1.26	-0.56	0.28	0.009028	-0.03782	1.013576	0.54	-0.063	0.048	0	3	1036	1
2026-02-12	16:11:17.790	1.26	-0.595	0.245	0.009516	-0.038064	1.014552	0.5505	-0.0615	0.0495	0	3	1036	1
2026-02-12	16:11:17.810	1.26	-0.595	0.28	0.0122	-0.037576	1.014796	0.555	-0.06	0.0495	0	3	1036	1
2026-02-12	16:11:17.830	1.26	-0.595	0.245	0.009272	-0.039772	1.013088	0.5415	-0.0705	0.0555	0	3	1036	1
2026-02-12	16:11:17.850	1.26	-0.595	0.245	0.011956	-0.03538	1.012844	0.5535	-0.063	0.0495	0	3	1036	1
2026-02-12	16:11:17.870	1.26	-0.56	0.245	0.009272	-0.037332	1.011624	0.5475	-0.057	0.051	0	3	1036	1
2026-02-12	16:11:17.890	1.295	-0.56	0.245	0.011224	-0.036844	1.012844	0.543	-0.0615	0.051	0	3	1036	1
2026-02-12	16:11:17.910	1.295	-0.56	0.245	0.013908	-0.03782	1.010404	0.5475	-0.0585	0.0465	0	3	1036	1
2026-02-12	16:11:17.930	1.26	-0.595	0.28	0.012688	-0.034404	1.013088	0.549	-0.0675	0.051	0	3	1036	1
2026-02-12	16:11:17.950	1.26	-0.595	0.245	0.011468	-0.033184	1.014796	0.549	-0.0675	0.051	0	3	1036	1
2026-02-12	16:11:17.970	1.295	-0.56	0.28	0.01342	-0.03416	1.013576	0.549	-0.0675	0.051	0	3	1036	1
2026-02-12	16:11:17.990	1.26	-0.56	0.245	0.011468	-0.038308	1.013332	0.5445	-0.0645	0.0495	0	3	1036	1
2026-02-12	16:11:16.010	1.26	-0.595	0.245	0.0122	-0.036112	1.012112	0.537	-0.054	0.045	0	3	1036	1
2026-02-12	16:11:16.030	1.225	-0.595	0.21	0.0122	-0.034404	1.0126	0.543	-0.0645	0.048	0	3	1036	1
2026-02-12	16:11:16.050	1.295	-0.595	0.28	0.013176	-0.035136	1.015284	0.543	-0.066	0.0465	0	3	1036	1
2026-02-12	16:11:16.070	1.295	-0.56	0.245	0.011224	-0.03416	1.015528	0.5415	-0.063	0.051	0	3	1036	1
2026-02-12	16:11:16.090	1.33	-0.56	0.28	0.011712	-0.03904	1.012356	0.5415	-0.0615	0.054	0	3	1036	1
2026-02-12	16:11:16.110	1.295	-0.56	0.28	0.012932	-0.037576	1.013088	0.5415	-0.0585	0.051	0	3	1036	1
2026-02-12	16:11:16.130	1.26	-0.56	0.315	0.010736	-0.038552	1.013576	0.543	-0.0615	0.051	0	3	1036	1
2026-02-12	16:11:16.150	1.26	-0.595	0.28	0.0122	-0.037576	1.012356	0.5415	-0.06	0.051	0	3	1036	1
2026-02-12	16:11:16.170	1.26	-0.595	0.28	0.012932	-0.037332	1.011868	0.54	-0.054	0.0495	0	3	1036	1
2026-02-12	16:11:16.190	1.295	-0.56	0.245	0.009272	-0.036844	1.01382	0.543	-0.057	0.054	0	3	1036	1
2026-02-12	16:11:28.210	1.26	-0.595	0.28	0.0122	-0.037576	1.014796	0.555	-0.06	0.0495	0	48	3	2
2026-02-12	16:11:28.230	1.26	-0.595	0.245	0.009272	-0.039772	1.013088	0.5415	-0.0705	0.0555	0	48	3	2
2026-02-12	16:11:28.250	1.26	-0.595	0.245	0.011956	-0.03538	1.012844	0.5535	-0.063	0.0495	0	48	3	2
2026-02-12	16:11:28.270	1.26	-0.56	0.245	0.009272	-0.037332	1.011624	0.5475	-0.057	0.051	0	48	3	2
2026-02-12	16:11:28.290	8.365	15.54	-39.305	1.017236	0.01342	-0.033916	0.2565	0.0405	0.243	0	48	3	2
2026-02-12	16:11:28.310	-14.63	14.455	-34.195	0.994788	0.012444	-0.034648	-0.0285	0.135	0.441	0	48	3	2
2026-02-12	16:11:28.330	-30.695	-2.065	-17.465	0.931104	-0.00122	-0.007564	-0.03	0.129	0.4425	0	48	3	2
2026-02-12	16:11:28.350	-56.56	-16.31	4.445	0.897432	0.011224	0.041724	-0.0315	0.126	0.444	0	48	3	2
2026-02-12	16:11:28.370	-93.205	-26.285	24.325	0.887184	0.033428	0.050508	-0.0315	0.1245	0.444	0	48	3	2
2026-02-12	16:11:28.390	-101.36	-31.605	36.33	0.887184	0.068808	0.119804	-0.0285	0.1305	0.4515	0	48	3	2
2026-02-12	16:11:28.410	-107.345	-33.18	41.195	0.93574	0.08906	0.107116	-0.0255	0.132	0.4635	0	157	7	2
2026-02-12	16:11:28.430	-104.3	-25.515	38.535	0.965508	0.116388	0.094428	-0.0195	0.1335	0.4695	0	157	7	2
2026-02-12	16:11:28.450	-84.315	-13.055	30.17	0.987468	0.141276	0.07564	-0.018	0.135	0.477	0	157	7	2
2026-02-12	16:11:28.470	-57.505	-4.69	15.225	0.972828	0.145912	0.03904	-0.0165	0.138	0.4815	0	157	7	2
2026-02-12	16:11:28.490	-29.33	-2.485	0.56	0.93696	0.140544	0.047336	-0.021	0.135	0.4815	0	157	7	2
2026-02-12	16:11:28.510	-20.545	-7.805	-11.41	0.913048	0.124928	0.05246	-0.024	0.132	0.4845	0	157	7	2
2026-02-12	16:11:28.530	-27.125	-15.435	-19.635	0.909632	0.11102	0.07564	-0.021	0.1335	0.486	0	157	7	2
2026-02-12	16:11:28.550	-32.97	-20.51	-26.425	0.937204	0.089792	0.093452	-0.0195	0.1305	0.492	0	157	7	2
2026-02-12	16:11:28.570	-30.8	-21.455	-31.745	0.955016	0.074908	0.122976	-0.021	0.1245	0.4935	0	157	7	2
2026-02-12	16:11:28.590	-27.79	-18.83	-36.47	0.963068	0.056608	0.15128	-0.0195	0.12	0.4905	0	157	7	2
2026-02-12	16:11:28.610	-20.265	-15.19	-41.72	0.973316	0.03538	0.13908	-0.0165	0.114	0.495	0	266	0	2
2026-02-12	16:11:28.630	-7.14	-12.11	-46.235	0.97722	0.016836	0.167872	-0.015	0.1095	0.495	0	266	0	2
2026-02-12	16:11:28.650	-4.48	-8.75	-47.915	0.997716	-0.001952	0.171288	-0.009	0.105	0.495	0	266	0	2
2026-02-12	16:11:28.670	-2.94	-6.37	-49.945	1.05042	-0.02196	0.183976	-0.009	0.0945	0.4965	0	266	0	2
2026-02-12	16:11:28.690	6.195	-2.835	-51.94	1.069208	-0.039528	0.185684	-0.0135	0.0855	0.4995	0	266	0	2
2026-02-12	16:11:28.710	14.7	-0.455	-52.045	1.11508	-0.06222	0.207644	-0.0135	0.0765	0.4995	0	266	0	2
2026-02-12	16:11:28.730	22.19	3.78	-47.81	1.15412	-0.094184	0.203252	-0.015	0.069	0.4935	0	266	0	2
2026-02-12	16:11:28.750	34.44	10.535	-36.575	1.187548	-0.11468	0.223016	-0.0105	0.066	0.4965	0	266	0	2
2026-02-12	16:11:28.770	28.35	20.3	-19.495	1.171444	-0.119316	0.225944	-0.009	0.0645	0.4935	0	266	0	2
2026-02-12	16:11:28.790	10.78	33.88	-1.295	1.187304	-0.103456	0.148596	-0.0135	0.0555	0.489	0	266	0	2
2026-02-12	16:11:28.810	8.785	43.505	13.09	1.189256	-0.077348	0.145668	-0.012	0.054	0.4875	0	342	25	2
2026-02-12	16:11:28.830	1.435	46.41	23.345	1.18096	-0.05734	0.072224	-0.0105	0.0585	0.48	0	342	25	2
2026-02-12	16:11:28.850	6.475	40.495	30.345	1.156316	-0.046116	0.044408	-0.0135	0.06	0.477	0	342	25	2
2026-02-12	16:11:28.870	16.065	35.35	35.28	1.14802	-0.036356	0.032696	-0.0135	0.069	0.468	0	342	25	2
2026-02-12	16:11:28.890	19.285	29.855	41.23	1.12972	-0.01952	0.026352	-0.0135	0.069	0.468	0	342	25	2
2026-02-12	16:11:28.910	24.43	22.19	49.525	1.080676	-0.00732	0.014152	-0.0195	0.0825	0.462	0	342	25	2
2026-02-12	16:11:28.930	25.585	14.735	58.73	1.043588	0.031232	0.03172	-0.021	0.0885	0.453	0	342	25	2
2026-02-12	16:11:28.950	12.11	9.205	64.435	1.008208	0.05734	0.016104	-0.0255	0.0885	0.4455	0	342	25	2
2026-02-12	16:11:28.970	5.32	2.59	63.245	0.942328	0.071004	0.025864	-0.0285	0.108	0.4515	0	342	25	2
2026-02-12	16:11:28.990	4.515	1.33	59.57	0.923296	0.09638	0.048556	-0.0195	0.1185	0.45	0	342	25	2
2026-02-12	16:11:29.010	0.21	5.39	52.395	0.923784	0.120048	0.033916	-0.0225	0.135	0.4425	0	386	49	3
2026-02-12	16:11:29.030	10.99	8.995	36.715	0.968924	0.129076	0.00366	-0.024	0.1395	0.444	0	386	49	3
2026-02-12	16:11:29.050	36.96	9.485	18.06	0.89548	0.1281	0.031964	-0.0255	0.147	0.4395	0	386	49	3
2026-02-12	16:11:29.070	49.805	10.465	-0.175	0.882548	0.113216	0.035868	-0.015	0.1575	0.4425	0	386	49	3
2026-02-12	16:11:29.090	71.33	7.7	-17.08	0.846924	0.082472	0.05856	-0.0105	0.15	0.4395	0	386	49	3
2026-02-12	16:11:29.110	78.855	4.06	-25.375	0.840092	0.055388	0.089304	-0.015	0.1455	0.435	0	386	49	3
2026-02-12	16:11:29.130	63.805	-3.15	-25.27	0.854732	0.024644	0.08418	-0.0165	0.1425	0.432	0	386	49	3
2026-02-12	16:11:29.150	51.555	-14.98	-20.405	0.859368	0.007076	0.12688	-0.0165	0.153	0.4275	0	386	49	3
2026-02-12	16:11:29.170	28.84	-25.305	-10.01	0.883036	-0.00854	0.139568	-0.0225	0.144	0.441	0	386	49	3
2026-02-12	16:11:29.190	13.965	-34.335	0.385	0.874984	-0.008296	0.167384	-0.018	0.1425	0.432	0	386	49	3
2026-02-12	16:11:29.210	9.695	-38.29	10.99	0.87474	-0.000976	0.204228	-0.0105	0.1365	0.429	0	401	62	3
2026-02-12	16:11:29.230	-2.205	-42.105	18.41	0.877912	0.002196	0.228872	-0.003	0.147	0.4275	0	401	62	3
2026-02-12	16:11:29.250	-3.92	-43.26	22.995	0.861808	0.002196	0.244488	-0.0075	0.1365	0.435	0	401	62	3
2026-02-12	16:11:29.270	-3.185	-39.97	26.95	0.890112	0.0122	0.275964	-0.003	0.1545	0.4395	0	401	62	3
2026-02-12	16:11:29.290	-8.68	-35.14	30.205	0.907436	0.020252	0.278648	-0.0075	0.156	0.447	0	401	62	3
2026-02-12	16:11:29.310	-14.455	-30.73	29.4	0.924272	0.037576	0.271084	0	0.159	0.4515	0	401	62	3
2026-02-12	16:11:29.330	-11.375	-28.525	24.43	0.945744	0.037576	0.312076	0.0105	0.168	0.4635	0	401	62	3
2026-02-12	16:11:29.350	-9.485	-22.75	21.455	0.946476	0.036112	0.308172	0.006	0.1635	0.4605	0	401	62	3
2026-02-12	16:11:29.370	-13.09	-14.28	19.145	0.9699	0.043188	0.312808	0.0045	0.1755	0.465	0	401	62	3
2026-02-12	16:11:29.390	-15.225	-2.905	15.575	1.01016	0.053436	0.304512	0.0045	0.1755	0.465	0	401	62	3
2026-02-12	16:11:29.410	-16.52	11.69	10.22	1.06018	0.06832	0.266692	0.0045	0.1755	0.465	0	392	84	2
2026-02-12	16:11:29.430	-15.785	23.8	2.485	1.10776	0.079544	0.221552	0.006	0.1785	0.4665	0	392	84	2
2026-02-12	16:11:29.450	-10.255	31.99	-6.545	1.12118	0.089548	0.1708	0.006	0.18	0.465	0	392	84	2
2026-02-12	16:11:29.470	-8.12	33.565	-16.66	1.114348	0.089304	0.137128	0.0045	0.177	0.456	0	392	84	2
2026-02-12	16:11:29.490	-0.42	29.785	-29.365	1.067012	0.081008	0.098332	0.003	0.1695	0.4515	0	392	84	2
2026-02-12	16:11:29.510	11.025	25.2	-40.985	1.097512	0.056852	0.12566	0	0.168	0.447	0	392	84	2
2026-02-12	16:11:29.530	5.88	21.35	-44.66	1.085556	0.037088	0.11956	0	0.165	0.4455	0	392	84	2
2026-02-12	16:11:29.550	-3.045	20.265	-41.58	1.104832	0.029036	0.113704	-0.0015	0.1545	0.4485	0	392	84	2
2026-02-12	16:11:29.570	-9.1	20.37	-34.3	1.047736	0.034404	0.094428	-0.009	0.1485	0.4485	0	392	84	2
2026-02-12	16:11:29.590	-18.725	23.485	-29.505	1.099464	0.034892	0.128832	-0.012	0.144	0.4395	0	392	84	2
2026-02-12	16:11:29.610	-20.16	15.89	-24.15	1.016748	0.042212	0.049532	-0.0135	0.141	0.438	0	370	111	3
2026-02-12	16:11:29.630	-37.24	8.68	-17.15	0.97356	0.04392	0.04514	-0.0225	0.1395	0.447	0	370	111	3
2026-02-12	16:11:29.650	-47.18	1.295	-10.745	0.936472	0.053924	0.055876	-0.024	0.1335	0.4455	0	370	111	3
2026-02-12	16:11:29.670	-57.05	-3.255	-7.91	0.918416	0.069052	0.071736	-0.0225	0.126	0.444	0	370	111	3
2026-02-12	16:11:29.690	-54.775	-1.47	-7.595	0.934032	0.0732	0.074908	-0.027	0.129	0.4425	0	370	111	3
2026-02-12	16:11:29.710	-50.645	3.15	-9.03	0.967216	0.089548	0.052704	-0.0225	0.1335	0.4365	0	370	111	3
2026-02-12	16:11:29.730	-37.205	5.88	-14.245	0.968192	0.085644	0.024156	-0.0195	0.1275	0.441	0	370	111	3
2026-02-12	16:11:29.750	-15.12	3.5	-21.105	0.949648	0.08295999	0.015372	-0.0255	0.123	0.447	0	370	111	3
2026-02-12	16:11:29.770	-0.945	-5.32	-27.475	0.917196	0.057828	0.026108	-0.0255	0.12	0.45	0	370	111	3
2026-02-12	16:11:29.790	4.9	-15.785	-28.875	0.937692	0.024644	0.06466	-0.0255	0.111	0.444	0	370	111	3
2026-02-12	16:11:29.810	-4.9	-23.52	-22.19	0.985272	0.001952	0.08784	-0.0225	0.105	0.444	0	341	120	3
2026-02-12	16:11:29.830	-12.845	-29.505	-11.585	0.98698	-0.011224	0.11224	-0.0225	0.1005	0.45	0	341	120	3
2026-02-12	16:11:29.850	-20.02	-33.495	1.26	0.957944	-0.015616	0.163724	-0.024	0.1035	0.45	0	341	120	3
2026-02-12	16:11:29.870	-37.695	-33.145	14.35	0.955504	-0.001464	0.18788	-0.0195	0.102	0.4575	0	341	120	3
2026-02-12	16:11:29.890	-45.43	-28.49	22.155	0.958676	0.00732	0.193004	-0.018	0.096	0.465	0	341	120	3
2026-02-12	16:11:29.910	-36.645	-20.86	25.2	0.954772	0.018788	0.205448	-0.0135	0.099	0.465	0	341	120	3
2026-02-12	16:11:29.930	-30.87	-13.09	25.375	0.978684	0.03172	0.197152	-0.0105	0.102	0.465	0	341	120	3
2026-02-12	16:11:29.950	-27.79	-9.835	24.22	0.996496	0.035624	0.188612	-0.0105	0.102	0.465	0	341	120	3
2026-02-12	16:11:29.970	-16.66	-4.55	20.3	1.024312	0.0427	0.19642	-0.009	0.12	0.471	0	341	120	3
2026-02-12	16:11:29.990	-11.62	1.505	15.995	1.051152	0.046848	0.190076	-0.003	0.114	0.4755	0	341	120	3
2026-02-12	16:11:30.010	-0.385	8.015	9.03	1.079212	0.040504	0.183	-0.003	0.114	0.4755	0	308	122	3
2026-02-12	16:11:30.030	5.67	11.13	5.6	1.086044	0.044164	0.18666	-0.003	0.114	0.4755	0	308	122	3
2026-02-12	16:11:30.050	5.6	16.065	1.715	1.126548	0.04758	0.157136	-0.0045	0.123	0.4725	0	308	122	3
2026-02-12	16:11:30.070	17.08	19.285	-5.53	1.127036	0.038308	0.156648	-0.015	0.1125	0.459	0	308	122	3
2026-02-12	16:11:30.090	27.195	23.415	-11.795	1.140944	0.036844	0.151524	-0.0105	0.12	0.453	0	308	122	3
2026-02-12	16:11:30.110	27.895	26.565	-17.29	1.139724	0.02196	0.111264	-0.006	0.123	0.465	0	308	122	3
2026-02-12	16:11:30.130	43.89	27.335	-22.295	1.108736	0.011712	0.123464	-0.009	0.1185	0.4575	0	308	122	3
2026-02-12	16:11:30.150	38.92	28.525	-22.365	1.097268	0.00488	0.110044	-0.0105	0.1125	0.4515	0	308	122	3
2026-02-12	16:11:30.170	30.8	28.63	-20.79	1.066768	-0.003904	0.085644	-0.021	0.1095	0.4605	0	308	122	3
2026-02-12	16:11:30.190	38.255	30.24	-20.44	1.014308	-0.01342	0.005856	-0.0165	0.1155	0.4395	0	308	122	3
2026-02-12	16:11:30.210	36.12	26.215	-17.22	1.032608	-0.006588	0.052216	-0.021	0.1035	0.4275	0	276	124	3
2026-02-12	16:11:30.230	24.465	22.225	-12.495	1.009184	-0.0122	0.0305	-0.018	0.1065	0.432	0	276	124	3
2026-02-12	16:11:30.250	26.67	17.71	-6.93	0.951356	-0.007808	0.063684	-0.0195	0.099	0.423	0	276	124	3
2026-02-12	16:11:30.270	16.625	15.225	0.98	0.912072	-0.00488	0.066856	-0.027	0.1005	0.4215	0	276	124	3
2026-02-12	16:11:30.290	3.045	13.51	7.63	0.871324	0.0061	0.06344	-0.0315	0.1005	0.417	0	276	124	3
2026-02-12	16:11:30.310	-0.175	13.44	10.605	0.86376	0.017568	0.05978	-0.0315	0.108	0.4155	0	276	124	3
2026-02-12	16:11:30.330	0.21	13.125	9.1	0.870592	0.026596	0.033428	-0.024	0.1065	0.4215	0	276	124	3
2026-02-12	16:11:30.350	13.02	7.98	3.955	0.864736	0.03538	0.059048	-0.0225	0.111	0.405	0	276	124	3
2026-02-12	16:11:30.370	23.625	-1.085	-1.89	0.8723	0.012932	0.014396	-0.03	0.1065	0.408	0	276	124	3
2026-02-12	16:11:30.390	38.325	-13.055	-6.44	0.853756	-0.005368	0.054168	-0.033	0.108	0.4035	0	276	124	3
2026-02-12	16:11:30.410	44.17	-27.265	-6.755	0.843996	-0.035624	0.116388	-0.0285	0.1095	0.4095	0	248	120	3
2026-02-12	16:11:30.430	32.06	-39.13	0.42	0.846436	-0.056608	0.166652	-0.0285	0.102	0.4155	0	248	120	3
2026-02-12	16:11:30.450	19.915	-44.38	13.055	0.85644	-0.071004	0.186904	-0.0255	0.1125	0.4185	0	248	120	3
2026-02-12	16:11:30.470	8.96	-46.48	28.945	0.906704	-0.062952	0.214964	-0.018	0.096	0.4215	0	248	120	3
2026-02-12	16:11:30.490	-12.18	-47.95	44.415	0.927688	-0.05246	0.225944	-0.018	0.114	0.429	0	248	120	3
2026-02-12	16:11:30.510	-26.845	-47.81	55.825	0.926468	-0.021716	0.239608	-0.015	0.117	0.4335	0	248	120	3
2026-02-12	16:11:30.530	-37.135	-47.565	59.71	0.94672	0.016348	0.233508	-0.0165	0.1245	0.435	0	248	120	3
2026-02-12	16:11:30.550	-34.51	-48.86	51.66	0.972096	0.03294	0.225944	-0.0045	0.129	0.441	0	248	120	3
2026-02-12	16:11:30.570	-10.85	-49.63	36.225	0.996984	0.035136	0.258396	0.0015	0.1395	0.447	0	248	120	3
2026-02-12	16:11:30.590	3.64	-46.235	22.155	1.0248	0.027572	0.288652	0.0015	0.1395	0.447	0	248	120	3
2026-02-12	16:11:30.610	8.715	-38.71	10.675	1.06628	0.02196	0.304268	0.0015	0.1395	0.447	0	224	122	3
2026-02-12	16:11:30.630	15.54	-28.175	-0.525	1.083604	0.010004	0.325984	0.0045	0.1485	0.4575	0	224	122	3
2026-02-12	16:11:30.650	19.075	-12.11	-8.015	1.115812	-0.007076	0.3416	0.0075	0.156	0.474	0	224	122	3
2026-02-12	16:11:30.670	15.33	7.945	-10.675	1.131184	-0.019276	0.3233	0.0135	0.1545	0.477	0	224	122	3
2026-02-12	16:11:30.690	13.3	28.595	-8.61	1.148264	-0.015616	0.295484	0.0165	0.1545	0.4695	0	224	122	3
2026-02-12	16:11:30.710	-2.31	44.415	-2.87	1.171932	-0.000488	0.230824	0.012	0.1575	0.4635	0	224	122	3
2026-02-12	16:11:30.730	-17.185	52.115	1.505	1.154364	0.01464	0.166164	0.006	0.1545	0.456	0	224	122	3
2026-02-12	16:11:30.750	-18.83	53.69	1.12	1.102392	0.03538	0.138104	0	0.15	0.453	0	224	122	3
2026-02-12	16:11:30.770	-22.96	52.5	-1.855	1.057252	0.049044	0.110288	-0.003	0.1515	0.45	0	224	122	3
2026-02-12	16:11:30.790	-20.685	50.54	-7.56	1.043588	0.06588	0.071004	-0.0045	0.15	0.441	0	224	122	3
2026-02-12	16:11:30.810	-7.98	47.46	-15.12	1.035536	0.069052	0.05124	-0.006	0.147	0.4335	0	207	138	3
2026-02-12	16:11:30.830	1.47	45.85	-22.295	1.049444	0.071004	0.020008	-0.0105	0.1485	0.4305	0	207	138	3
2026-02-12	16:11:30.850	12.495	44.66	-27.895	1.054324	0.087108	0.032452	-0.018	0.147	0.429	0	207	138	3
2026-02-12	16:11:30.870	16.345	35.735	-29.855	0.963068	0.05856	-0.015128	-0.024	0.1425	0.4245	0	207	138	3
2026-02-12	16:11:30.890	1.68	25.655	-27.825	0.868396	0.05246	-0.005612	-0.03	0.1335	0.4185	0	207	138	3
2026-02-12	16:11:30.910	-11.165	19.39	-22.855	0.8479	0.058316	-0.00976	-0.027	0.1275	0.4095	0	207	138	3
2026-02-12	16:11:30.930	-27.335	11.515	-20.16	0.887916	0.064416	-0.0122	-0.027	0.129	0.4125	0	207	138	3
2026-02-12	16:11:30.950	-30.38	4.585	-18.9	0.918416	0.073444	-0.02074	-0.0285	0.126	0.4155	0	207	138	3
2026-02-12	16:11:30.970	-29.365	-2.94	-19.6	0.941596	0.090036	-0.031964	-0.0255	0.1215	0.414	0	207	138	3
2026-02-12	16:11:30.990	-19.18	-13.51	-25.655	0.936228	0.083936	-0.02806	-0.0315	0.12	0.4125	0	207	138	3
2026-02-12	16:11:31.010	-0.735	-21.105	-32.41	0.929884	0.072712	-0.000976	-0.0285	0.1245	0.417	0	194	140	3
2026-02-12	16:11:31.030	15.19	-28.91	-38.78	0.928908	0.044652	0.018544	-0.0285	0.1245	0.417	0	194	140	3
2026-02-12	16:11:31.050	33.39	-39.865	-40.81	0.928908	-0.002928	0.052704	-0.033	0.096	0.417	0	194	140	3
2026-02-12	16:11:31.070	39.585	-51.31	-30.905	0.952088	-0.036356	0.102236	-0.0285	0.0945	0.42	0	194	140	3
2026-02-12	16:11:31.090	16.94	-62.23	-10.885	0.957212	-0.057096	0.153232	-0.0345	0.099	0.417	0	194	140	3
2026-02-12	16:11:31.110	-12.81	-66.815	14.595	0.967216	-0.065636	0.193736	-0.0225	0.096	0.438	0	194	140	3
2026-02-12	16:11:31.130	-39.655	-64.505	39.69	0.969656	-0.038064	0.229116	-0.0255	0.093	0.441	0	194	140	3
2026-02-12	16:11:31.150	-58.87	-55.72	58.695	0.97844	-0.00732	0.235216	-0.0165	0.102	0.453	0	194	140	3
2026-02-12	16:11:31.170	-63	-43.89	67.865	0.996496	0.03416	0.219356	-0.018	0.1005	0.465	0	194	140	3
2026-02-12	16:11:31.190	-54.39	-33.39	66.605	0.996984	0.06832	0.208864	-0.003	0.1125	0.468	0	194	140	3
2026-02-12	16:11:31.210	-38.64	-24.29	57.26	0.986736	0.0915	0.202032	-0.003	0.1275	0.4635	0	185	130	3
2026-02-12	16:11:31.230	-19.705	-14.385	42.665	1.025288	0.109312	0.197152	-0.0015	0.1305	0.48	0	185	130	3
2026-02-12	16:11:31.250	-0.98	-4.34	24.5	1.113128	0.10858	0.183244	0	0.135	0.483	0	185	130	3
2026-02-12	16:11:31.270	20.615	-0.28	4.55	1.144848	0.088816	0.179096	0.0075	0.1425	0.4785	0	185	130	3
2026-02-12	16:11:31.290	36.75	9.415	-11.97	1.194136	0.043188	0.221308	0.012	0.144	0.48	0	185	130	3
2026-02-12	16:11:31.310	38.885	19.95	-19.005	1.178764	0.026596	0.235216	0	0.1425	0.48	0	185	130	3
2026-02-12	16:11:31.330	34.055	33.74	-24.57	1.224636	0	0.233264	0.0015	0.15	0.4695	0	185	130	3
2026-02-12	16:11:31.350	44.38	45.99	-29.05	1.219512	-0.018788	0.227408	-0.003	0.138	0.459	0	185	130	3
2026-02-12	16:11:31.370	44.765	56	-30.24	1.156316	-0.029768	0.214964	-0.009	0.141	0.456	0	185	130	3
2026-02-12	16:11:31.390	40.425	64.75	-30.765	1.11752	-0.043676	0.182756	-0.006	0.1365	0.4455	0	185	130	3
2026-02-12	16:11:31.410	40.46	69.09	-31.185	1.078968	-0.044896	0.165188	-0.009	0.1335	0.4395	0	178	131	3
2026-02-12	16:11:31.430	33.775	67.97	-36.225	0.992592	-0.033672	0.139324	-0.015	0.126	0.4275	0	178	131	3
2026-02-12	16:11:31.450	41.895	62.475	-38.885	0.882548	-0.027572	0.120292	-0.0255	0.1245	0.42	0	178	131	3
2026-02-12	16:11:31.470	52.605	58.835	-37.065	0.837652	-0.061	-0.102236	-0.024	0.117	0.408	0	178	131	3
2026-02-12	16:11:31.490	109.34	49.035	-38.745	1.023092	-0.063196	0.071492	-0.0285	0.1095	0.4035	0	178	131	3
2026-02-12	16:11:31.510	64.4	34.475	-23.205	0.89304	-0.0976	0.054656	-0.0195	0.1065	0.3945	0	178	131	3
2026-02-12	16:11:31.530	31.885	29.855	-1.715	0.83692	-0.060268	0.009516	-0.0345	0.093	0.3885	0	178	131	3
2026-02-12	16:11:31.550	42.105	29.995	16.66	0.785192	-0.054168	0.05856	-0.027	0.0945	0.3855	0	178	131	3
2026-02-12	16:11:31.570	25.585	30.03	35.98	0.786412	-0.009516	0.034404	-0.0315	0.1035	0.375	0	178	131	3
2026-02-12	16:11:31.590	-7.91	25.06	52.01	0.82838	0.054168	-0.04148	-0.036	0.102	0.369	0	178	131	3
2026-02-12	16:11:31.610	-17.745	12.425	56.525	0.865956	0.096624	-0.08295999	-0.0375	0.126	0.369	0	174	131	3
2026-02-12	16:11:31.630	6.825	-6.475	51.8	0.887184	0.133468	-0.094184	-0.039	0.132	0.369	0	174	131	3
2026-02-12	16:11:31.650	-0.14	-34.86	42.735	0.906216	0.150792	-0.029768	-0.0315	0.1305	0.372	0	174	131	3
2026-02-12	16:11:31.670	-17.675	-65.38	31.955	0.885232	0.096136	-0.100284	-0.03	0.144	0.372	0	174	131	3
2026-02-12	16:11:31.690	1.435	-91.525	18.795	0.928664	0.089792	0.00976	-0.0255	0.1455	0.381	0	174	131	3
2026-02-12	16:11:31.710	24.43	-112.385	10.115	0.953552	0.0732	0.110288	-0.0345	0.1455	0.393	0	174	131	3
2026-02-12	16:11:31.730	14.84	-127.645	5.81	0.988932	0.050752	0.166164	-0.024	0.15	0.4005	0	174	131	3
2026-02-12	16:11:31.750	12.18	-135.45	5.565	1.011868	0.020252	0.22204	-0.021	0.1575	0.423	0	174	131	3
2026-02-12	16:11:31.770	7.245	-132.44	9.555	1.036512	0.00366	0.321348	-0.012	0.1635	0.4335	0	174	131	3
2026-02-12	16:11:31.790	-0.49	-116.095	15.155	1.038464	-0.010492	0.375028	-0.012	0.1635	0.4335	0	174	131	3
2026-02-12	16:11:31.810	-3.955	-89.95	23.835	1.042612	-0.001708	0.410896	-0.012	0.1635	0.4335	0	173	123	3
2026-02-12	16:11:31.830	-14.63	-61.11	30.765	1.028704	0.020252	0.408456	0.003	0.168	0.459	0	173	123	3
2026-02-12	16:11:31.850	-18.41	-31.92	33.95	1.041148	0.04148	0.3843	0.021	0.174	0.4845	0	173	123	3
2026-02-12	16:11:31.870	-18.9	-5.53	33.145	1.051396	0.070028	0.338184	0.024	0.18	0.489	0	173	123	3
2026-02-12	16:11:31.890	-14.91	13.825	27.3	1.067988	0.085644	0.292556	0.0225	0.1845	0.4935	0	173	123	3
2026-02-12	16:11:31.910	-9.555	27.58	18.9	1.098	0.104676	0.26962	0.0255	0.1845	0.492	0	173	123	3
2026-02-12	16:11:31.930	-6.37	38.815	8.575	1.0797	0.107604	0.2196	0.0285	0.183	0.4935	0	173	123	3
2026-02-12	16:11:31.950	4.48	49.14	-0.945	1.06872	0.095648	0.20252	0.024	0.1845	0.489	0	173	123	3
2026-02-12	16:11:31.970	3.64	64.505	-6.405	1.06506	0.09882	0.1708	0.018	0.189	0.4845	0	173	123	3
2026-02-12	16:11:31.990	-0.84	77.805	-11.76	1.10776	0.102236	0.107848	0.012	0.186	0.4755	0	173	123	3
2026-02-12	16:11:32.010	2.695	83.23	-19.88	1.121668	0.100772	0.062952	0.006	0.1785	0.4665	0	173	132	3
2026-02-12	16:11:32.030	0.245	82.88	-25.62	1.136796	0.1098	0.013664	0.0045	0.174	0.465	0	173	132	3
2026-02-12	16:11:32.050	-9.1	73.045	-32.725	1.104344	0.104432	-0.05612	0.0045	0.174	0.465	0	173	132	3
2026-02-12	16:11:32.070	2.73	48.16	-44.135	1.098488	0.079788	-0.04636	-0.0195	0.177	0.4425	0	173	132	3
2026-02-12	16:11:32.090	14.385	37.87	-46.13	1.086776	0.05734	-0.083936	-0.0195	0.177	0.4425	0	173	132	3
2026-02-12	16:11:32.110	25.795	17.5	-46.83	1.217804	0.08295999	0.05124	-0.03	0.153	0.4335	0	173	132	3
2026-02-12	16:11:32.130	-29.785	-8.085	-41.895	1.172176	0.046116	-0.031232	-0.024	0.1515	0.432	0	173	132	3
2026-02-12	16:11:32.150	-36.015	-19.88	-40.74	1.136308	0.034404	-0.028792	-0.0435	0.1455	0.429	0	173	132	3
2026-02-12	16:11:32.170	-21.21	-23.345	-38.85	1.072136	0.025376	0.10004	-0.03	0.1395	0.438	0	173	132	3
2026-02-12	16:11:32.190	-37.555	-19.075	-31.815	0.9699	0.006832	0.119316	-0.0345	0.135	0.456	0	173	132	3
2026-02-12	16:11:32.210	-47.95	-8.75	-21.665	0.888892	0.012932	0.160064	-0.033	0.1275	0.4395	0	174	134	3
2026-02-12	16:11:32.230	-63.84	8.645	-10.325	0.915	0.0244	0.127856	-0.0255	0.1155	0.444	0	174	134	3
2026-02-12	16:11:32.250	-67.585	25.41	-1.4	0.925492	0.050264	0.0793	-0.027	0.117	0.444	0	174	134	3
2026-02-12	16:11:32.270	-59.185	37.415	5.285	0.908656	0.081984	0.063684	-0.03	0.1095	0.441	0	174	134	3
2026-02-12	16:11:32.290	-63.245	43.89	7.42	0.904996	0.133712	-0.1037	-0.0255	0.111	0.441	0	174	134	3
2026-02-12	16:11:32.310	-11.725	34.825	-0.175	0.771528	0.103212	-0.031232	-0.042	0.114	0.438	0	174	134	3
2026-02-12	16:11:32.330	23.31	30.135	-4.585	0.833504	0.078812	-0.046604	-0.039	0.111	0.438	0	174	134	3
2026-02-12	16:11:32.350	-0.735	13.055	-1.19	0.818132	0.082716	-0.06734399	-0.045	0.108	0.4335	0	174	134	3
2026-02-12	16:11:32.370	-25.62	-3.01	2.17	0.87352	0.078324	-0.091256	-0.0525	0.105	0.4335	0	174	134	3
2026-02-12	16:11:32.390	-17.885	-21.42	4.095	0.874252	0.062464	-0.0488	-0.0465	0.1065	0.432	0	174	134	3
2026-02-12	16:11:32.410	-20.475	-35.84	7.35	0.906704	0.057584	-0.007808	-0.0435	0.108	0.4395	0	175	120	3
2026-02-12	16:11:32.430	-32.235	-47.74	10.465	0.939156	0.044652	0.049532	-0.051	0.1155	0.438	0	175	120	3
2026-02-12	16:11:32.450	-23.765	-53.865	12.53	0.9455	0.035624	0.086376	-0.051	0.114	0.4455	0	175	120	3
2026-02-12	16:11:32.470	-22.645	-56.21	16.835	0.967216	0.019032	0.1281	-0.039	0.1095	0.4515	0	175	120	3
2026-02-12	16:11:32.490	-31.92	-54.88	23.03	0.989664	0.020496	0.152988	-0.0315	0.1215	0.471	0	175	120	3
2026-02-12	16:11:32.510	-36.715	-51.31	27.58	1.009672	0.02318	0.172508	-0.024	0.1185	0.48	0	175	120	3
2026-02-12	16:11:32.530	-36.33	-44.905	29.925	1.032608	0.033672	0.187636	-0.018	0.1155	0.4815	0	175	120	3
2026-02-12	16:11:32.550	-33.53	-38.675	30.485	1.061888	0.04026	0.17812	-0.018	0.117	0.495	0	175	120	3
2026-02-12	16:11:32.570	-32.48	-28.42	27.93	1.109224	0.052948	0.194956	-0.0135	0.117	0.492	0	175	120	3
2026-02-12	16:11:32.590	-16.485	-19.565	20.125	1.099952	0.058072	0.20374	0	0.123	0.501	0	175	120	3
2026-02-12	16:11:32.610	-4.655	-8.715	10.08	1.105564	0.054656	0.175924	-0.006	0.1305	0.5025	0	174	103	3
2026-02-12	16:11:32.630	4.235	4.13	-0.56	1.139968	0.04758	0.193004	-0.003	0.132	0.4875	0	174	103	3
2026-02-12	16:11:32.650	20.615	13.79	-10.395	1.152412	0.047336	0.167872	-0.003	0.132	0.504	0	174	103	3
2026-02-12	16:11:32.670	23.415	21.28	-18.41	1.166808	0.04026	0.1403	-0.003	0.129	0.4995	0	174	103	3
2026-02-12	16:11:32.690	26.6	26.705	-26.215	1.189744	0.033916	0.10248	-0.006	0.132	0.5025	0	174	103	3
2026-02-12	16:11:32.710	34.72	27.93	-33.04	1.18584	0.029524	0.080032	-0.012	0.132	0.495	0	174	103	3
2026-02-12	16:11:32.730	39.27	24.99	-38.78	1.159488	0.013664	0.06954	-0.0045	0.1215	0.477	0	174	103	3
2026-02-12	16:11:32.750	45.64	21.805	-43.82	1.181448	0.010736	0.152744	-0.012	0.114	0.4875	0	174	103	3
2026-02-12	16:11:32.770	52.535	18.62	-44.065	1.135332	-0.019032	0.11102	-0.024	0.108	0.48	0	174	103	3
2026-02-12	16:11:32.790	43.68	23.94	-38.01	1.108004	-0.034404	0.075884	-0.0285	0.102	0.4665	0	174	103	3
2026-02-12	16:11:32.810	47.985	35.035	-28.315	1.068232	-0.05002	0.077104	-0.0285	0.1035	0.477	0	173	100	3
2026-02-12	16:11:32.830	43.26	46.725	-16.205	0.98088	-0.025376	0.079788	-0.0255	0.096	0.4695	0	173	100	3
2026-02-12	16:11:32.850	16.555	56.315	-3.465	0.942084	0.00366	0.030012	-0.0255	0.105	0.4545	0	173	100	3
2026-02-12	16:11:32.870	2.625	61.005	3.43	0.916464	0.035136	-0.023424	-0.0255	0.108	0.453	0	173	100	3
2026-02-12	16:11:32.890	13.055	61.25	5.04	0.924516	0.060024	-0.067588	-0.0315	0.099	0.456	0	173	100	3
2026-02-12	16:11:32.910	23.45	54.915	3.43	0.916952	0.07124799	-0.094916	-0.036	0.1035	0.4395	0	173	100	3
2026-02-12	16:11:32.930	27.93	40.565	1.435	0.885964	0.073688	-0.099308	-0.033	0.1095	0.4395	0	173	100	3
2026-02-12	16:11:32.950	22.785	21.105	0.77	0.851804	0.069296	-0.08662	-0.033	0.1095	0.4395	0	173	100	3
2026-02-12	16:11:32.970	13.475	-0.245	0.945	0.843996	0.062464	-0.06466	-0.033	0.1095	0.4395	0	173	100	3
2026-02-12	16:11:32.990	8.61	-21	1.96	0.837652	0.047336	-0.014396	-0.0345	0.108	0.4275	0	173	100	3
2026-02-12	16:11:33.010	3.08	-40.075	4.585	0.826916	0.0244	0.042456	-0.036	0.1095	0.4155	0	170	93	3
2026-02-12	16:11:33.030	0.525	-56.63	9.485	0.812764	0.01098	0.103456	-0.0405	0.108	0.4245	0	170	93	3
2026-02-12	16:11:33.050	-13.02	-70.105	16.45	0.83936	0.004392	0.146644	-0.036	0.1095	0.435	0	170	93	3
2026-02-12	16:11:33.070	-22.89	-80.64	21.56	0.883036	0.0061	0.182756	-0.0255	0.108	0.441	0	170	93	3
2026-02-12	16:11:33.090	-20.265	-86.695	24.255	0.917196	0.001464	0.22936	-0.0195	0.1125	0.4545	0	170	93	3
2026-02-12	16:11:33.110	-14.875	-84.245	26.915	0.951112	-0.002684	0.281332	-0.0165	0.1215	0.4635	0	170	93	3
2026-02-12	16:11:33.130	-9.275	-72.905	29.715	0.964776	0.00122	0.319152	-0.0165	0.12	0.468	0	170	93	3
2026-02-12	16:11:33.150	-5.04	-59.22	32.655	0.983808	0.003416	0.329644	-0.009	0.129	0.483	0	170	93	3
2026-02-12	16:11:33.170	-6.02	-44.52	35.28	0.983564	0.009272	0.342088	-0.009	0.129	0.483	0	170	93	3
2026-02-12	16:11:33.190	-12.18	-24.92	37.45	1.023336	0.023668	0.323056	0.0075	0.132	0.4935	0	170	93	3
2026-02-12	16:11:33.210	-17.57	-9.31	38.185	1.072624	0.055632	0.282308	0.0045	0.1425	0.4965	0	169	94	3
2026-02-12	16:11:33.230	-20.475	-1.295	35.49	1.103124	0.05978	0.277428	0.012	0.1485	0.4965	0	169	94	3
2026-02-12	16:11:33.250	-16.765	3.71	27.685	1.160464	0.079544	0.269132	0.015	0.1455	0.489	0	169	94	3
2026-02-12	16:11:33.270	-11.865	12.635	19.005	1.159732	0.06832	0.262056	0.006	0.153	0.4965	0	169	94	3
2026-02-12	16:11:33.290	-7.875	26.985	9.555	1.176568	0.068808	0.255712	0.0195	0.1515	0.4995	0	169	94	3
2026-02-12	16:11:33.310	-0.175	39.165	-0.49	1.164856	0.08686399	0.190808	0.003	0.1515	0.495	0	169	94	3
2026-02-12	16:11:33.330	7.98	43.68	-11.2	1.089704	0.004148	0.21472	0.003	0.153	0.4905	0	169	94	3
2026-02-12	16:11:33.350	6.195	52.955	-14.77	1.131916	0.029524	0.198616	0	0.147	0.483	0	169	94	3
2026-02-12	16:11:33.370	-1.33	58.38	-14.91	1.10776	0.009516	0.156404	-0.0015	0.153	0.4725	0	169	94	3
2026-02-12	16:11:33.390	1.225	64.33	-12.495	1.10654	0.013908	0.122244	-0.0045	0.15	0.4695	0	169	94	3
2026-02-12	16:11:33.410	2.275	66.99	-9.065	1.033584	0.003904	0.062952	-0.006	0.141	0.465	0	168	113	3
2026-02-12	16:11:33.430	7	70.175	-1.4	1.081652	-0.012688	0.046116	-0.0135	0.144	0.4485	0	168	113	3
2026-02-12	16:11:33.450	4.13	61.18	7.385	1.027484	0.050508	0.025376	-0.0255	0.15	0.447	0	168	113	3
2026-02-12	16:11:33.470	-33.985	54.075	14.77	0.986492	0.079544	-0.086132	-0.024	0.1425	0.4365	0	168	113	3
2026-02-12	16:11:33.490	-34.44	33.81	11.655	0.884256	0.074908	-0.071736	-0.0255	0.1365	0.435	0	168	113	3
2026-02-12	16:11:33.510	-26.985	16.59	11.585	0.79544	0.087596	0.023668	-0.033	0.144	0.438	0	168	113	3
2026-02-12	16:11:33.530	-55.23	4.34	15.085	0.792024	0.1159	-0.027816	-0.0225	0.153	0.444	0	168	113	3
2026-02-12	16:11:33.550	-78.33	-11.795	11.48	0.792268	0.163968	0.026352	-0.039	0.15	0.444	0	168	113	3
2026-02-12	16:11:33.570	-75.565	-19.075	3.535	0.862784	0.125904	-0.006344	-0.0225	0.1545	0.438	0	168	113	3
2026-02-12	16:11:33.590	-33.95	-22.4	-10.99	0.90402	0.138836	0.042212	-0.033	0.147	0.45	0	168	113	3
2026-02-12	16:11:33.610	-17.675	-23.59	-23.485	0.94428	0.12444	0.03782	-0.027	0.15	0.4545	0	168	121	3
2026-02-12	16:11:33.630	-14.14	-24.115	-34.055	0.923052	0.10004	0.02196	-0.036	0.1425	0.468	0	168	121	3
2026-02-12	16:11:33.650	7.385	-29.33	-44.345	0.869616	0.087108	0.0915	-0.027	0.138	0.462	0	168	121	3
2026-02-12	16:11:33.670	5.25	-30.975	-51.765	0.87352	0.04636	0.07124799	-0.036	0.144	0.459	0	168	121	3
2026-02-12	16:11:33.690	16.905	-32.095	-51.835	0.940376	0.009516	0.023668	-0.0255	0.129	0.465	0	168	121	3
2026-02-12	16:11:33.710	-2.345	-36.155	-43.855	0.847412	-0.007564	0.149084	-0.036	0.1215	0.468	0	168	121	3
2026-02-12	16:11:33.730	-21	-20.125	-33.845	0.88938	-0.002928	0.008296	-0.027	0.1125	0.4755	0	168	121	3
2026-02-12	16:11:33.750	1.365	-14.315	-26.145	0.985516	-0.007808	-0.016104	-0.0345	0.108	0.4815	0	168	121	3
2026-02-12	16:11:33.770	8.68	-24.08	-21.35	0.973316	-0.02928	-0.09638	-0.0195	0.0855	0.4815	0	168	121	3
2026-02-12	16:11:33.790	8.33	-38.99	-8.4	1.021384	-0.011712	-0.014884	-0.0255	0.093	0.4935	0	168	121	3
2026-02-12	16:11:33.810	-16.065	-54.495	2.31	1.093364	-0.024156	0.011956	-0.012	0.093	0.489	0	168	111	3
2026-02-12	16:11:33.830	-29.54	-70.49	13.09	1.109468	-0.021472	0.110532	-0.009	0.09	0.504	0	168	111	3
2026-02-12	16:11:33.850	-34.335	-78.47	17.78	1.140212	-0.005124	0.154208	-0.006	0.09	0.5055	0	168	111	3
2026-02-12	16:11:33.870	-9.31	-74.515	17.255	1.218536	-0.018056	0.233752	0	0.09	0.5235	0	168	111	3
2026-02-12	16:11:33.890	9.275	-59.045	22.26	1.309304	-0.022448	0.368928	0.0135	0.087	0.531	0	168	111	3
2026-02-12	16:11:33.910	-4.025	-31.465	32.725	1.191208	-0.020008	0.447496	0.021	0.093	0.5295	0	168	111	3
2026-02-12	16:11:33.930	-19.775	16.135	38.64	1.168516	-0.002196	0.486048	0.0285	0.1035	0.5355	0	168	111	3
2026-02-12	16:11:33.950	-5.67	70.035	36.19	1.274656	0.020496	0.432856	0.0255	0.0975	0.5355	0	168	111	3
2026-02-12	16:11:33.970	29.54	113.925	32.34	1.223172	0.01586	0.49044	0.018	0.1125	0.522	0	168	111	3
2026-02-12	16:11:33.990	102.795	173.46	27.51	1.148264	0.188856	0.146644	0.006	0.1185	0.522	0	168	111	3
2026-02-12	16:11:34.010	52.78	143.745	7.175	1.073112	0.17202	0.36722	-0.0105	0.123	0.495	0	169	110	3
2026-02-12	16:11:34.030	-45.43	157.955	7.49	1.050664	0.179584	-0.097356	-0.0225	0.1395	0.474	0	169	110	3
2026-02-12	16:11:34.050	48.86	147.315	-18.9	1.003328	0.186904	-0.055144	-0.039	0.132	0.459	0	169	110	3
2026-02-12	16:11:34.070	93.975	120.015	-44.485	0.994056	0.143472	-0.166408	-0.0345	0.1335	0.4395	0	169	110	3
2026-02-12	16:11:34.090	98.21	72.625	-60.795	0.977952	0.108092	-0.122732	-0.0345	0.1335	0.4395	0	169	110	3
2026-02-12	16:11:34.110	56.525	28.28	-64.715	0.936716	0.061	-0.070272	-0.0345	0.1335	0.4395	0	169	110	3
2026-02-12	16:11:34.130	30.1	-5.845	-61.635	0.872056	0.022692	0.022204	-0.0435	0.114	0.4155	0	169	110	3
2026-02-12	16:11:34.150	28.665	-23.66	-56.735	0.885476	0.008784	0.099552	-0.0525	0.0885	0.3915	0	169	110	3
2026-02-12	16:11:34.170	25.515	-32.2	-49.315	0.881328	-0.004392	0.194712	-0.051	0.0825	0.39	0	169	110	3
2026-02-12	16:11:34.190	17.605	-27.72	-41.51	0.909388	-0.016592	0.211548	-0.051	0.0825	0.39	0	169	110	3
2026-02-12	16:11:34.210	22.54	-22.785	-34.895	0.903776	-0.028304	0.250344	-0.0585	0.066	0.3915	0	175	116	3
2026-02-12	16:11:34.230	26.74	-14.175	-26.04	0.922808	-0.034648	0.249368	-0.0585	0.066	0.3915	0	175	116	3
2026-02-12	16:11:34.250	29.12	-3.955	-10.43	0.913292	-0.040992	0.22692	-0.0525	0.063	0.4065	0	175	116	3
2026-02-12	16:11:34.270	18.305	-1.89	7.385	0.885232	-0.03782	0.215696	-0.051	0.051	0.4095	0	175	116	3
2026-02-12	16:11:34.290	1.05	-5.25	25.41	0.848876	0.000244	0.198616	-0.057	0.0615	0.399	0	175	116	3
2026-02-12	16:11:34.310	-16.135	-13.965	39.375	0.870592	0.037088	0.16348	-0.0525	0.0675	0.3975	0	175	116	3
2026-02-12	16:11:34.330	-22.12	-28.805	45.745	0.865468	0.084424	0.2257	-0.051	0.078	0.3945	0	175	116	3
2026-02-12	16:11:34.350	-21.77	-40.32	48.37	0.894504	0.090036	0.2318	-0.0555	0.075	0.4005	0	175	116	3
2026-02-12	16:11:34.370	-19.635	-48.37	47.11	0.940864	0.07905599	0.20984	-0.051	0.0765	0.411	0	175	116	3
2026-02-12	16:11:34.390	-7.385	-55.895	42.28	0.9211	0.136884	0.3416	-0.0525	0.093	0.4215	0	175	116	3
2026-02-12	16:11:34.410	-26.18	-51.31	38.465	0.970632	0.207644	0.51606	-0.0465	0.1005	0.432	0	181	130	3
2026-02-12	16:11:34.430	-54.565	-47.495	25.55	0.934032	0.116388	0.31476	-0.042	0.1065	0.441	0	181	130	3
2026-02-12	16:11:34.450	17.57	-36.4	7.84	0.942084	0.127856	0.380884	-0.051	0.108	0.441	0	181	130	3
2026-02-12	16:11:34.470	24.045	-24.78	-5.32	0.951844	0.114436	0.407724	-0.0345	0.108	0.441	0	181	130	3
2026-02-12	16:11:34.490	5.915	-13.545	-13.37	0.982832	0.100528	0.366	-0.045	0.102	0.441	0	181	130	3
2026-02-12	16:11:34.510	17.85	-4.13	-23.59	1.001132	0.079788	0.348188	-0.0345	0.108	0.447	0	181	130	3
2026-02-12	16:11:34.530	35.7	2.555	-29.4	0.996008	0.044408	0.36844	-0.0345	0.1035	0.447	0	181	130	3
2026-02-12	16:11:34.550	21.175	10.605	-27.055	0.999424	0.024644	0.344772	-0.0405	0.1035	0.456	0	181	130	3
2026-02-12	16:11:34.570	17.115	17.01	-22.295	1.00162	0.020496	0.320372	-0.042	0.099	0.4425	0	181	130	3
2026-02-12	16:11:34.590	22.155	22.505	-15.925	1.041636	0.00244	0.279136	-0.0405	0.099	0.4425	0	181	130	3
2026-02-12	16:11:34.610	19.95	24.045	-4.795	1.015284	-0.009028	0.260348	-0.042	0.093	0.444	0	186	162	3
2026-02-12	16:11:34.630	8.925	21.7	9.17	1.016504	-0.004148	0.235948	-0.0495	0.096	0.429	0	186	162	3
2026-02-12	16:11:34.650	-4.165	15.435	23.275	1.02236	0.017568	0.229848	-0.039	0.0915	0.426	0	186	162	3
2026-02-12	16:11:34.670	-15.12	5.285	34.545	1.041148	0.047336	0.236192	-0.0375	0.096	0.4305	0	186	162	3
2026-02-12	16:11:34.690	-24.29	-6.72	41.02	1.05774	0.074664	0.273036	-0.048	0.096	0.426	0	186	162	3
2026-02-12	16:11:34.710	-20.475	-13.405	42.49	1.098488	0.09394	0.283528	-0.0435	0.1035	0.4245	0	186	162	3
2026-02-12	16:11:34.730	-14.56	-18.41	40.88	1.082872	0.103212	0.341844	-0.0405	0.1155	0.4215	0	186	162	3
2026-02-12	16:11:34.750	-20.16	-14.91	39.9	1.081164	0.125172	0.343796	-0.0345	0.1275	0.426	0	186	162	3
2026-02-12	16:11:34.770	-25.515	-7.42	37.695	1.057984	0.152012	0.334036	-0.045	0.132	0.4365	0	186	162	3
2026-02-12	16:11:34.790	-24.99	3.92	30.45	1.012112	0.177632	0.313784	-0.0375	0.132	0.444	0	186	162	3
2026-02-12	16:11:34.810	-21.91	19.075	19.775	1.017968	0.200324	0.251564	-0.0315	0.141	0.4395	0	187	197	3
2026-02-12	16:11:34.830	-13.23	30.625	6.125	0.952332	0.21106	0.1952	-0.042	0.147	0.447	0	187	197	3
2026-02-12	16:11:34.850	-11.69	37.065	-7.525	0.916952	0.206668	0.148352	-0.0435	0.147	0.429	0	187	197	3
2026-02-12	16:11:34.870	-18.9	38.43	-22.715	0.864004	0.214964	0.111508	-0.0435	0.153	0.432	0	187	197	3
2026-02-12	16:11:34.890	-13.09	36.855	-40.67	0.844484	0.204472	0.07198	-0.0465	0.138	0.4185	0	187	197	3
2026-02-12	16:11:34.910	6.79	32.76	-58.87	0.887428	0.17202	0.024156	-0.057	0.1425	0.4215	0	187	197	3
2026-02-12	16:11:34.930	27.055	22.715	-71.61	0.91134	0.129564	0.021716	-0.066	0.132	0.4155	0	187	197	3
2026-02-12	16:11:34.950	32.375	10.85	-76.58	0.9089	0.09638	0.039772	-0.0585	0.1185	0.417	0	187	197	3
2026-02-12	16:11:34.970	30.8	-0.28	-74.935	0.901824	0.06222	0.046848	-0.0645	0.1005	0.417	0	187	197	3
2026-02-12	16:11:34.990	33.88	-11.83	-69.615	0.865224	0.016836	0.094428	-0.063	0.09	0.408	0	187	197	3
2026-02-12	16:11:35.010	32.83	-18.62	-56.77	0.877912	-0.020252	0.128344	-0.06	0.0825	0.4065	0	185	212	3
2026-02-12	16:11:35.030	14.98	-23.625	-37.17	0.909388	-0.036356	0.1464	-0.0585	0.081	0.402	0	185	212	3
2026-02-12	16:11:35.050	-2.275	-27.685	-14.945	0.929152	-0.039528	0.160064	-0.063	0.0615	0.42	0	185	212	3
2026-02-12	16:11:35.070	-11.97	-30.17	7.98	0.939888	-0.02684	0.196176	-0.0645	0.066	0.417	0	185	212	3
2026-02-12	16:11:35.090	-31.535	-30.59	31.955	0.944524	0.009272	0.210084	-0.063	0.0615	0.423	0	185	212	3
2026-02-12	16:11:35.110	-51.73	-31.465	49.84	0.94306	0.059536	0.191296	-0.057	0.06	0.4335	0	185	212	3
2026-02-12	16:11:35.130	-49.56	-34.23	57.855	0.920124	0.099064	0.23912	-0.057	0.072	0.438	0	185	212	3
2026-02-12	16:11:35.150	-49.21	-32.025	58.485	0.949404	0.13298	0.247172	-0.051	0.075	0.4425	0	185	212	3
2026-02-12	16:11:35.170	-46.165	-29.82	54.005	0.95038	0.16104	0.248148	-0.0555	0.084	0.4455	0	185	212	3
2026-02-12	16:11:35.190	-37.415	-26.88	44.31	0.948184	0.181292	0.248392	-0.0555	0.099	0.45	0	185	212	3
2026-02-12	16:11:35.210	-23.555	-25.795	29.645	0.933056	0.18666	0.262056	-0.0555	0.0975	0.447	0	182	208	3
2026-02-12	16:11:35.230	-7	-22.715	12.11	0.972828	0.17568	0.272304	-0.0555	0.1155	0.462	0	182	208	3
2026-02-12	16:11:35.250	11.2	-18.095	-5.005	1.032364	0.152744	0.265716	-0.0555	0.1155	0.462	0	182	208	3
2026-02-12	16:11:35.270	25.48	-14.175	-18.445	1.053836	0.11468	0.2745	-0.054	0.1125	0.4605	0	182	208	3
2026-02-12	16:11:35.290	32.69	-10.43	-24.745	1.06262	0.092964	0.283772	-0.0525	0.111	0.4605	0	182	208	3
2026-02-12	16:11:35.310	36.785	-5.775	-27.72	1.070672	0.068808	0.267912	-0.0525	0.111	0.4605	0	182	208	3
2026-02-12	16:11:35.330	40.46	-0.245	-29.785	1.104588	0.044408	0.241804	-0.0525	0.111	0.4605	0	182	208	3
2026-02-12	16:11:35.350	40.565	0.35	-29.05	1.133868	0.025864	0.254004	-0.0465	0.099	0.468	0	182	208	3
2026-02-12	16:11:35.370	28.105	-3.57	-23.345	1.170468	-0.000732	0.196176	-0.0525	0.099	0.4695	0	182	208	3
2026-02-12	16:11:35.390	21.14	-9.485	-15.295	1.205848	-0.005124	0.23546	-0.054	0.093	0.4605	0	182	208	3
2026-02-12	16:11:35.410	17.64	-10.78	-6.195	1.179496	-0.01098	0.237412	-0.057	0.0915	0.474	0	177	208	3
2026-02-12	16:11:35.430	18.095	-8.75	3.045	1.15656	-0.012932	0.271084	-0.0555	0.09	0.468	0	177	208	3
2026-02-12	16:11:35.450	13.3	-2.345	13.125	1.147776	-0.000244	0.313296	-0.057	0.096	0.48	0	177	208	3
2026-02-12	16:11:35.470	-3.815	8.96	20.86	1.101904	0.019276	0.196664	-0.048	0.093	0.4755	0	177	208	3
2026-02-12	16:11:35.490	7.665	18.795	24.535	1.10044	0.07442	0.199348	-0.054	0.102	0.4695	0	177	208	3
2026-02-12	16:11:35.510	19.25	33.74	22.89	1.107272	0.0915	0.12444	-0.0525	0.102	0.459	0	177	208	3
2026-02-12	16:11:35.530	27.37	43.4	19.95	1.067256	0.09882	0.061244	-0.0585	0.111	0.471	0	177	208	3
2026-02-12	16:11:35.550	34.79	46.27	17.045	0.9699	0.107116	0.044164	-0.0585	0.1185	0.4605	0	177	208	3
2026-02-12	16:11:35.570	29.68	43.54	14.735	0.87474	0.11224	0.034892	-0.0555	0.1155	0.4455	0	177	208	3
2026-02-12	16:11:35.590	18.795	38.465	11.515	0.83692	0.122488	0.011956	-0.0705	0.1185	0.4485	0	177	208	3
2026-02-12	16:11:35.610	17.675	31.325	4.585	0.84668	0.130296	0	-0.072	0.1245	0.4455	0	172	206	3
2026-02-12	16:11:35.630	26.705	24.815	-4.13	0.885232	0.127368	-0.014152	-0.0615	0.1215	0.435	0	172	206	3
2026-02-12	16:11:35.650	37.625	15.4	-12.11	0.887184	0.110532	-0.01586	-0.069	0.123	0.4335	0	172	206	3
2026-02-12	16:11:35.670	46.025	4.34	-16.345	0.88694	0.083204	-0.006832	-0.066	0.123	0.4335	0	172	206	3
2026-02-12	16:11:35.690	45.85	-8.575	-14.28	0.854	0.05612	0.03538	-0.06	0.1155	0.4365	0	172	206	3
2026-02-12	16:11:35.710	33.145	-21.14	-7.315	0.85522	0.042944	0.055388	-0.0645	0.1125	0.426	0	172	206	3
2026-02-12	16:11:35.730	23.8	-33.81	1.05	0.8479	0.028548	0.101992	-0.069	0.12	0.429	0	172	206	3
2026-02-12	16:11:35.750	14.14	-43.54	11.375	0.861564	0.022448	0.147376	-0.069	0.1185	0.4365	0	172	206	3
2026-02-12	16:11:35.770	0.98	-50.085	23.625	0.864736	0.044652	0.141032	-0.069	0.123	0.435	0	172	206	3
2026-02-12	16:11:35.790	-13.93	-56.175	29.855	0.929884	0.065636	0.162016	-0.066	0.1215	0.444	0	172	206	3
2026-02-12	16:11:35.810	-12.53	-65.975	29.155	0.947208	0.068564	0.234972	-0.069	0.129	0.45	0	168	189	3
2026-02-12	16:11:35.830	-15.54	-66.85	26.635	1.004792	0.103212	0.27328	-0.054	0.135	0.468	0	168	189	3
2026-02-12	16:11:35.850	-16.275	-65.52	16.485	1.033584	0.120536	0.318908	-0.0585	0.1395	0.4815	0	168	189	3
2026-02-12	16:11:35.870	2.625	-58.17	0.98	1.014552	0.0976	0.377224	-0.048	0.1365	0.483	0	168	189	3
2026-02-12	16:11:35.890	25.34	-39.585	-10.885	1.038952	0.09467199	0.424072	-0.054	0.141	0.492	0	168	189	3
2026-02-12	16:11:35.910	23.765	-20.09	-20.265	1.041392	0.077592	0.418704	-0.045	0.132	0.4965	0	168	189	3
2026-02-12	16:11:35.930	23.73	0.315	-26.355	1.064572	0.063684	0.390644	-0.054	0.1335	0.504	0	168	189	3
2026-02-12	16:11:35.950	30.8	17.395	-30.065	1.0736	0.053192	0.345992	-0.0465	0.135	0.492	0	168	189	3
2026-02-12	16:11:35.970	37.485	29.54	-32.655	1.07238	0.036356	0.309636	-0.0465	0.135	0.492	0	168	189	3
2026-02-12	16:11:35.990	43.855	38.325	-31.255	1.080432	0.005124	0.266936	-0.0495	0.1275	0.492	0	168	189	3
2026-02-12	16:11:36.010	39.48	46.27	-21.735	1.076528	-0.002928	0.223016	-0.057	0.12	0.4845	0	165	185	3
2026-02-12	16:11:36.030	24.92	48.65	-8.33	1.056032	-0.000732	0.165432	-0.054	0.1155	0.4815	0	165	185	3
2026-02-12	16:11:36.050	12.775	46.095	5.985	1.050176	0.0061	0.127856	-0.06	0.1035	0.4755	0	165	185	3
2026-02-12	16:11:36.070	0.91	39.69	21.63	1.037	0.047336	0.0976	-0.06	0.117	0.4665	0	165	185	3
2026-02-12	16:11:36.090	-18.27	25.76	32.235	1.031144	0.08052	0.06734399	-0.0645	0.117	0.4635	0	165	185	3
2026-02-12	16:11:36.110	-17.325	7.98	35.28	1.035048	0.109068	0.073932	-0.0735	0.123	0.45	0	165	185	3
2026-02-12	16:11:36.130	-12.11	-10.43	35.21	1.0492	0.120292	0.137372	-0.0705	0.132	0.4635	0	165	185	3
2026-02-12	16:11:36.150	-17.43	-21.665	35.455	1.02114	0.128588	0.197884	-0.0735	0.1335	0.4665	0	165	185	3
2026-02-12	16:11:36.170	-12.67	-20.055	33.39	0.991372	0.155916	0.259372	-0.057	0.138	0.465	0	165	185	3
2026-02-12	16:11:36.190	-15.435	-7.525	29.225	1.017968	0.148108	0.216672	-0.0585	0.1425	0.4635	0	165	185	3
2026-02-12	16:11:36.210	-8.05	8.995	24.955	0.988444	0.166164	0.202032	-0.066	0.1485	0.4725	0	163	191	3
2026-02-12	16:11:36.230	-11.655	21.315	21.385	0.969656	0.180072	0.166896	-0.063	0.1545	0.4755	0	163	191	3
2026-02-12	16:11:36.250	-21.805	30.485	17.325	0.929884	0.191784	0.118584	-0.051	0.153	0.477	0	163	191	3
2026-02-12	16:11:36.270	-24.815	36.12	9.59	0.923052	0.213988	0.063684	-0.0675	0.159	0.471	0	163	191	3
2026-02-12	16:11:36.290	-17.815	36.82	-3.115	0.923296	0.210816	0.01708	-0.0615	0.165	0.465	0	163	191	3
2026-02-12	16:11:36.310	-2.17	32.27	-17.43	0.925492	0.197396	0	-0.069	0.162	0.4635	0	163	191	3
2026-02-12	16:11:36.330	6.195	25.655	-27.23	0.941352	0.182268	-0.012932	-0.072	0.159	0.462	0	163	191	3
2026-02-12	16:11:36.350	5.53	19.81	-32.27	0.91988	0.174704	-0.029768	-0.075	0.1575	0.462	0	163	191	3
2026-02-12	16:11:36.370	6.265	10.465	-37.24	0.889624	0.150548	-0.028304	-0.0765	0.15	0.456	0	163	191	3
2026-02-12	16:11:36.390	15.085	-1.82	-42.49	0.871812	0.12932	-0.021472	-0.078	0.1365	0.45	0	163	191	3
2026-02-12	16:11:36.410	21	-16.1	-45.36	0.88206	0.094428	0.021228	-0.081	0.1275	0.4455	0	161	183	3
2026-02-12	16:11:36.430	16.555	-27.72	-42.77	0.895724	0.066856	0.06588	-0.0825	0.123	0.447	0	161	183	3
2026-02-12	16:11:36.450	5.04	-34.965	-35.84	0.933544	0.049288	0.107604	-0.081	0.111	0.4545	0	161	183	3
2026-02-12	16:11:36.470	-0.49	-37.695	-27.195	0.929396	0.03294	0.154208	-0.0765	0.1035	0.4605	0	161	183	3
2026-02-12	16:11:36.490	-4.34	-34.44	-17.745	0.909388	0.027084	0.17934	-0.0735	0.102	0.462	0	161	183	3
2026-02-12	16:11:36.510	-10.395	-28.63	-8.68	0.915732	0.02806	0.195444	-0.0735	0.102	0.462	0	161	183	3
2026-02-12	16:11:36.530	-11.795	-20.475	-1.015	0.942816	0.043188	0.181292	-0.0735	0.102	0.462	0	161	183	3
2026-02-12	16:11:36.550	-6.86	-14.525	5.285	0.92598	0.048312	0.177388	-0.084	0.0915	0.48	0	161	183	3
2026-02-12	16:11:36.570	-10.64	-11.375	11.55	0.926712	0.062708	0.146156	-0.072	0.09	0.4755	0	161	183	3
2026-02-12	16:11:36.590	-14.21	-12.775	15.155	0.93452	0.07808	0.12566	-0.072	0.09	0.474	0	161	183	3
2026-02-12	16:11:36.610	-5.46	-19.215	14.385	0.975024	0.090036	0.157624	-0.072	0.09	0.474	0	158	166	3
2026-02-12	16:11:36.630	-4.55	-23.905	13.615	0.983564	0.097356	0.164944	-0.063	0.093	0.4875	0	158	166	3
2026-02-12	16:11:36.650	-2.03	-27.685	12.74	1.033096	0.100528	0.18788	-0.0705	0.096	0.486	0	158	166	3
2026-02-12	16:11:36.670	8.33	-24.885	10.92	1.091168	0.101748	0.202276	-0.0705	0.0855	0.495	0	158	166	3
2026-02-12	16:11:36.690	17.115	-20.09	9.695	1.133136	0.110044	0.201056	-0.0675	0.093	0.498	0	158	166	3
2026-02-12	16:11:36.710	20.58	-16.31	9.835	1.139968	0.108336	0.208864	-0.069	0.1065	0.4965	0	158	166	3
2026-02-12	16:11:36.730	18.9	-11.585	10.815	1.150216	0.116388	0.215696	-0.069	0.096	0.504	0	158	166	3
2026-02-12	16:11:36.750	14.455	-5.04	10.43	1.248304	0.117364	0.232776	-0.0705	0.108	0.5025	0	158	166	3
2026-02-12	16:11:36.770	19.04	0.35	8.015	1.186572	0.135664	0.219356	-0.069	0.1005	0.498	0	158	166	3
2026-02-12	16:11:36.790	20.895	8.82	5.88	1.227076	0.116632	0.190808	-0.066	0.105	0.498	0	158	166	3
2026-02-12	16:11:36.810	27.265	17.57	4.2	1.169248	0.101748	0.1891	-0.0585	0.105	0.4965	0	155	158	3
2026-02-12	16:11:36.830	29.96	29.26	5.635	1.144848	0.11468	0.148352	-0.063	0.1035	0.489	0	155	158	3
2026-02-12	16:11:36.850	22.75	33.46	3.465	1.098732	0.100528	0.11346	-0.066	0.1065	0.492	0	155	158	3
2026-02-12	16:11:36.870	30.66	38.22	0.875	1.07726	0.099064	0.079544	-0.0615	0.111	0.474	0	155	158	3
2026-02-12	16:11:36.890	31.5	41.335	0.245	1.053104	0.099552	0.053436	-0.0645	0.108	0.471	0	155	158	3
2026-02-12	16:11:36.910	25.69	42.035	-0.315	1.033584	0.101504	0.0061	-0.066	0.1185	0.474	0	155	158	3
2026-02-12	16:11:36.930	26.39	37.1	-1.68	0.969412	0.104432	-0.000488	-0.069	0.1125	0.4695	0	155	158	3
2026-02-12	16:11:36.950	21.175	28.77	-3.57	0.909632	0.104676	0.010736	-0.0735	0.1125	0.4605	0	155	158	3
2026-02-12	16:11:36.970	13.825	20.195	-6.93	0.864248	0.101016	0.02928	-0.078	0.114	0.45	0	155	158	3
2026-02-12	16:11:36.990	12.635	15.925	-10.955	0.876448	0.096624	0.03904	-0.081	0.111	0.444	0	155	158	3
2026-02-12	16:11:37.010	15.96	13.09	-15.155	0.863028	0.087352	0.044652	-0.0705	0.1125	0.4455	0	152	151	3
2026-02-12	16:11:37.030	19.67	11.165	-16.905	0.902068	0.077592	0.028548	-0.0735	0.1065	0.4395	0	152	151	3
2026-02-12	16:11:37.050	25.62	7.07	-16.765	0.910364	0.056364	0.026596	-0.072	0.1065	0.429	0	152	151	3
2026-02-12	16:11:37.070	29.47	0.945	-12.39	0.893528	0.037576	0.04026	-0.075	0.1005	0.4275	0	152	151	3
2026-02-12	16:11:37.090	15.645	-8.47	-3.01	0.871324	0.031964	0.060024	-0.063	0.1035	0.4365	0	152	151	3
2026-02-12	16:11:37.110	-4.445	-19.46	6.545	0.874496	0.040504	0.071004	-0.0675	0.1005	0.438	0	152	151	3
2026-02-12	16:11:37.130	-7.315	-30.8	12.705	0.919148	0.046604	0.101504	-0.0705	0.102	0.438	0	152	151	3
2026-02-12	16:11:37.150	-7.77	-39.305	19.11	0.9577	0.061488	0.16592	-0.069	0.099	0.441	0	152	151	3
2026-02-12	16:11:37.170	-20.51	-44.8	24.605	0.952088	0.0732	0.212524	-0.066	0.1065	0.441	0	152	151	3
2026-02-12	16:11:37.190	-23.765	-44.625	26.95	0.959652	0.0915	0.254248	-0.072	0.108	0.465	0	152	151	3
2026-02-12	16:11:37.210	-20.3	-40.495	25.375	0.964044	0.105896	0.291092	-0.063	0.111	0.4575	0	149	140	3
2026-02-12	16:11:37.230	-16.73	-32.515	22.435	0.973804	0.120536	0.3111	-0.0645	0.117	0.4725	0	149	140	3
2026-02-12	16:11:37.250	-13.475	-23.345	15.505	0.94672	0.122244	0.324276	-0.0525	0.1185	0.4695	0	149	140	3
2026-02-12	16:11:37.270	-0.91	-11.305	7	0.934032	0.12932	0.324764	-0.051	0.117	0.477	0	149	140	3
2026-02-12	16:11:37.290	6.055	-0.385	-0.42	0.944036	0.112728	0.314272	-0.054	0.12	0.4815	0	149	140	3
2026-02-12	16:11:37.310	7.49	8.855	-6.79	0.948916	0.102236	0.27694	-0.06	0.117	0.4725	0	149	140	3
2026-02-12	16:11:37.330	17.92	16.17	-12.04	0.960872	0.085888	0.244732	-0.0615	0.12	0.4725	0	149	140	3
2026-02-12	16:11:37.350	20.475	19.565	-13.58	0.952332	0.066856	0.21716	-0.0555	0.1155	0.4725	0	149	140	3
2026-02-12	16:11:37.370	14.63	19.39	-11.235	0.95282	0.05368	0.179096	-0.063	0.123	0.468	0	149	140	3
2026-02-12	16:11:37.390	13.72	15.085	-6.65	0.97966	0.040504	0.164944	-0.063	0.123	0.468	0	149	140	3
2026-02-12	16:11:37.410	9.45	9.87	1.82	1.022604	0.037088	0.174948	-0.063	0.117	0.4695	0	147	145	3
2026-02-12	16:11:37.430	1.925	7.35	7.385	1.054812	0.041968	0.189588	-0.063	0.1125	0.471	0	147	145	3
2026-02-12	16:11:37.450	-11.83	2.73	17.535	1.007232	0.0549	0.209352	-0.0615	0.1065	0.465	0	147	145	3
2026-02-12	16:11:37.470	-18.62	0.035	25.2	1.047248	0.075396	0.229604	-0.0585	0.1095	0.4575	0	147	145	3
2026-02-12	16:11:37.490	-28.175	-2.835	29.33	1.058228	0.103212	0.250588	-0.0585	0.12	0.462	0	147	145	3
2026-02-12	16:11:37.510	-32.095	-2.03	26.775	1.08336	0.135908	0.248636	-0.0585	0.126	0.462	0	147	145	3
2026-02-12	16:11:37.530	-23.555	1.19	18.55	1.120936	0.152744	0.235216	-0.0555	0.129	0.4605	0	147	145	3
2026-02-12	16:11:37.550	-14.315	4.165	7.21	1.12118	0.156892	0.253028	-0.057	0.1275	0.4605	0	147	145	3
2026-02-12	16:11:37.570	-3.325	7.35	-5.775	1.069696	0.157624	0.232532	-0.057	0.126	0.4575	0	147	145	3
2026-02-12	16:11:37.590	3.675	12.95	-18.48	1.052128	0.142984	0.201788	-0.0555	0.129	0.459	0	147	145	3
2026-02-12	16:11:37.610	8.925	17.605	-30.03	1.055544	0.128832	0.166896	-0.06	0.1275	0.459	0	144	160	3
2026-02-12	16:11:37.630	6.685	22.61	-37.485	1.064816	0.11346	0.123952	-0.0645	0.123	0.459	0	144	160	3
2026-02-12	16:11:37.650	5.67	24.22	-42.91	1.033096	0.099308	0.089792	-0.06	0.117	0.456	0	144	160	3
2026-02-12	16:11:37.670	7	21.875	-46.27	0.965508	0.084668	0.087352	-0.06	0.1095	0.4545	0	144	160	3
2026-02-12	16:11:37.690	0.21	19.46	-44.905	0.905728	0.066124	0.089304	-0.0615	0.1095	0.459	0	144	160	3
2026-02-12	16:11:37.710	-11.34	16.87	-41.3	0.886208	0.072712	0.07442	-0.0615	0.1095	0.459	0	144	160	3
2026-02-12	16:11:37.730	-12.81	15.015	-37.765	0.929396	0.063684	0.05124	-0.0615	0.1095	0.459	0	144	160	3
2026-02-12	16:11:37.750	-0.91	12.565	-33.005	0.923784	0.051484	0.055144	-0.0675	0.081	0.441	0	144	160	3
2026-02-12	16:11:37.770	0.945	10.64	-23.485	0.910852	0.04758	0.05368	-0.072	0.069	0.4335	0	144	160	3
2026-02-12	16:11:37.790	-7.28	7.56	-12.145	0.86864	0.050508	0.046604	-0.0705	0.0705	0.438	0	144	160	3
2026-02-12	16:11:37.810	-7.56	4.48	-1.435	0.857904	0.05246	0.027328	-0.0705	0.0735	0.432	0	140	166	3
2026-02-12	16:11:37.830	-4.13	-1.225	8.365	0.872544	0.063196	0.014884	-0.0645	0.0675	0.435	0	140	166	3
2026-02-12	16:11:37.850	-6.335	-10.325	18.27	0.90402	0.075396	0.001464	-0.0735	0.0735	0.435	0	140	166	3
2026-02-12	16:11:37.870	-14.7	-24.255	27.86	0.907436	0.087108	0.039284	-0.0705	0.069	0.438	0	140	166	3
2026-02-12	16:11:37.890	-29.26	-35.945	37.485	0.918172	0.096868	0.08052	-0.0675	0.075	0.4425	0	140	166	3
2026-02-12	16:11:37.910	-34.09	-43.995	44.24	0.917196	0.12444	0.155184	-0.063	0.0825	0.4485	0	140	166	3
2026-02-12	16:11:37.930	-43.54	-45.08	47.53	0.909632	0.134688	0.20008	-0.066	0.093	0.465	0	140	166	3
2026-02-12	16:11:37.950	-43.33	-38.465	46.76	0.91378	0.159088	0.23424	-0.054	0.093	0.4545	0	140	166	3
2026-02-12	16:11:37.970	-35.875	-27.65	41.44	0.923296	0.180072	0.239852	-0.069	0.1065	0.465	0	140	166	3
2026-02-12	16:11:37.990	-24.815	-15.855	32.795	0.962336	0.1952	0.206424	-0.057	0.1065	0.4755	0	140	166	3
2026-02-12	16:11:38.010	-9.94	-7.665	23.275	0.954772	0.1891	0.156648	-0.057	0.117	0.4785	0	137	157	3
2026-02-12	16:11:38.030	-4.165	-6.195	12.32	0.964288	0.190076	0.117608	-0.0525	0.111	0.4785	0	137	157	3
2026-02-12	16:11:38.050	6.37	-10.185	0.42	0.968924	0.172508	0.106872	-0.0555	0.1155	0.489	0	137	157	3
2026-02-12	16:11:38.070	15.54	-17.36	-10.955	1.012112	0.142252	0.111752	-0.0495	0.108	0.483	0	137	157	3
2026-02-12	16:11:38.090	25.69	-24.955	-17.78	1.094828	0.109556	0.16104	-0.0525	0.1185	0.4755	0	137	157	3
2026-02-12	16:11:38.110	22.575	-26.53	-16.695	1.175592	0.091988	0.220088	-0.0555	0.1185	0.4905	0	137	157	3
2026-02-12	16:11:38.130	9.205	-22.26	-12.81	1.173884	0.083692	0.243512	-0.042	0.1155	0.492	0	137	157	3
2026-02-12	16:11:38.150	9.345	-12.075	-11.48	1.158756	0.07198	0.266692	-0.0405	0.1065	0.495	0	137	157	3
2026-02-12	16:11:38.170	12.39	1.96	-10.605	1.167784	0.062708	0.260836	-0.0495	0.108	0.483	0	137	157	3
2026-02-12	16:11:38.190	11.655	14.49	-8.68	1.173396	0.055144	0.233264	-0.042	0.1065	0.495	0	137	157	3
2026-02-12	16:11:38.210	17.99	24.36	-7.49	1.153144	0.045628	0.193248	-0.045	0.1035	0.5025	0	134	153	3
2026-02-12	16:11:38.230	24.675	30.345	-6.965	1.136308	0.036356	0.16226	-0.042	0.1035	0.4845	0	134	153	3
2026-02-12	16:11:38.250	27.825	30.765	-6.65	1.114836	0.030012	0.128588	-0.048	0.1065	0.4815	0	134	153	3
2026-02-12	16:11:38.270	35.63	27.79	-6.58	1.0919	0.016592	0.11224	-0.045	0.0975	0.483	0	134	153	3
2026-02-12	16:11:38.290	41.335	23.17	-5.215	1.078968	0.002684	0.114192	-0.0525	0.102	0.471	0	134	153	3
2026-02-12	16:11:38.310	38.955	21.105	-1.82	1.09556	-0.001952	0.094184	-0.0525	0.1035	0.4725	0	134	153	3
2026-02-12	16:11:38.330	38.115	21.35	3.29	1.07604	-0.010492	0.088084	-0.0465	0.1035	0.4635	0	134	153	3
2026-02-12	16:11:38.350	32.935	22.96	12.88	1.007476	-0.009272	0.100528	-0.042	0.1005	0.465	0	134	153	3
2026-02-12	16:11:38.370	8.75	24.43	26.53	0.906216	0.015616	0.108092	-0.057	0.108	0.462	0	134	153	3
2026-02-12	16:11:38.390	-23.765	24.255	35.455	0.863516	0.066856	0.086376	-0.0525	0.1155	0.456	0	134	153	3
2026-02-12	16:11:38.410	-27.86	23.45	34.16	0.8296	0.105896	0.081496	-0.0495	0.114	0.453	0	133	151	3
2026-02-12	16:11:38.430	-17.395	24.99	24.85	0.848388	0.134688	0.055876	-0.057	0.12	0.444	0	133	151	3
2026-02-12	16:11:38.450	-5.81	23.275	9.38	0.836432	0.140788	0.033184	-0.057	0.12	0.444	0	133	151	3
2026-02-12	16:11:38.470	15.085	20.93	-6.58	0.853756	0.133468	0.003416	-0.0555	0.1215	0.444	0	133	151	3
2026-02-12	16:11:38.490	28.07	15.54	-17.85	0.8601	0.11834	-0.024888	-0.0555	0.1245	0.444	0	133	151	3
2026-02-12	16:11:38.510	36.33	3.045	-27.72	0.84912	0.088572	-0.017568	-0.057	0.126	0.444	0	133	151	3
2026-02-12	16:11:38.530	40.46	-17.08	-35.56	0.861808	0.049532	0.00488	-0.0555	0.1215	0.444	0	133	151	3
2026-02-12	16:11:38.550	37.975	-39.06	-38.115	0.87474	0.001464	0.077836	-0.0525	0.1185	0.441	0	133	151	3
2026-02-12	16:11:38.570	32.235	-56.63	-34.23	0.91744	-0.027328	0.159576	-0.0525	0.114	0.4455	0	133	151	3
2026-02-12	16:11:38.590	19.46	-65.94	-24.045	0.955504	-0.049776	0.231068	-0.051	0.1065	0.4515	0	133	151	3
2026-02-12	16:11:38.610	6.195	-67.515	-10.185	0.961116	-0.050996	0.299876	-0.0435	0.102	0.4575	0	133	144	3
2026-02-12	16:11:38.630	-5.74	-59.99	4.34	0.972828	-0.039528	0.346968	-0.0375	0.0975	0.4635	0	133	144	3
2026-02-12	16:11:38.650	-12.495	-45.395	16.695	0.966484	-0.01586	0.375028	-0.0345	0.099	0.474	0	133	144	3
2026-02-12	16:11:38.670	-15.12	-24.85	25.585	0.980392	0.036356	0.377224	-0.033	0.102	0.483	0	133	144	3
2026-02-12	16:11:38.690	-18.165	-5.355	28.735	0.97234	0.054168	0.322324	-0.033	0.108	0.4905	0	133	144	3
2026-02-12	16:11:38.710	-4.305	8.715	28.56	0.977952	0.082228	0.257176	-0.03	0.108	0.4935	0	133	144	3
2026-02-12	16:11:38.730	-8.225	11.305	25.725	0.978196	0.102724	0.20862	-0.0315	0.102	0.4875	0	133	144	3
2026-02-12	16:11:38.750	-6.755	7.07	20.125	0.99308	0.12078	0.178608	-0.036	0.1065	0.4845	0	133	144	3
2026-02-12	16:11:38.770	-1.47	-0.07	12.635	1.019676	0.124684	0.19154	-0.039	0.117	0.4845	0	133	144	3
2026-02-12	16:11:38.790	-1.05	-6.475	5.6	1.007476	0.122732	0.231556	-0.0375	0.1215	0.48	0	133	144	3
2026-02-12	16:11:38.810	1.61	-7.315	1.4	1.016504	0.11102	0.262788	-0.039	0.1245	0.4785	0	134	148	3
2026-02-12	16:11:38.830	3.08	-2.135	0.28	1.026264	0.096624	0.288652	-0.039	0.126	0.48	0	134	148	3
2026-02-12	16:11:38.850	-2.135	6.195	1.785	1.032608	0.093452	0.289384	-0.0315	0.1215	0.48	0	134	148	3
2026-02-12	16:11:38.870	-8.505	15.54	3.885	1.037	0.103944	0.25498	-0.03	0.123	0.48	0	134	148	3
2026-02-12	16:11:38.890	-7.77	21.875	4.27	1.045296	0.10858	0.199348	-0.0315	0.129	0.48	0	134	148	3
2026-02-12	16:11:38.910	-8.96	20.755	3.045	1.047248	0.108824	0.174948	-0.0315	0.129	0.48	0	134	148	3
2026-02-12	16:11:38.930	-11.9	16.905	0.63	1.070916	0.121268	0.120292	-0.0315	0.129	0.48	0	134	148	3
2026-02-12	16:11:38.950	-5.18	7.07	-5.075	1.075064	0.107848	0.119072	-0.033	0.123	0.4755	0	134	148	3
2026-02-12	16:11:38.970	-0.805	-1.435	-8.645	1.082628	0.091012	0.145668	-0.0435	0.117	0.4815	0	134	148	3
2026-02-12	16:11:38.990	-7.7	-2.835	-7.35	1.078968	0.086376	0.147132	-0.033	0.1215	0.4785	0	134	148	3
2026-02-12	16:11:39.010	-15.995	1.015	-4.235	1.08336	0.091012	0.13908	-0.036	0.114	0.474	0	136	162	3
2026-02-12	16:11:39.030	-24.535	7.63	-1.33	1.08458	0.105164	0.110288	-0.0405	0.1065	0.4785	0	136	162	3
2026-02-12	16:11:39.050	-31.5	12.32	-2.38	1.016016	0.112484	0.076372	-0.042	0.111	0.477	0	136	162	3
2026-02-12	16:11:39.070	-31.85	15.715	-6.125	0.948428	0.11346	0.068564	-0.0405	0.108	0.4785	0	136	162	3
2026-02-12	16:11:39.090	-36.435	18.62	-8.015	0.918416	0.122244	0.060756	-0.0405	0.108	0.477	0	136	162	3
2026-02-12	16:11:39.110	-47.95	20.3	-10.36	0.92232	0.14152	0.021716	-0.051	0.102	0.489	0	136	162	3
2026-02-12	16:11:39.130	-44.17	18.585	-17.815	0.917684	0.134688	0	-0.0465	0.099	0.477	0	136	162	3
2026-02-12	16:11:39.150	-25.2	16.94	-24.57	0.918904	0.11712	-0.0061	-0.0555	0.0915	0.474	0	136	162	3
2026-02-12	16:11:39.170	-17.535	13.37	-27.51	0.890112	0.110532	-0.00854	-0.0555	0.1005	0.468	0	136	162	3
2026-02-12	16:11:39.190	-18.13	6.51	-29.47	0.864248	0.09272	-0.016836	-0.0465	0.081	0.4755	0	136	162	3
2026-02-12	16:11:39.210	-7.315	-0.665	-30.905	0.864004	0.072468	-0.021472	-0.048	0.078	0.4725	0	136	161	3
2026-02-12	16:11:39.230	5.04	-9.345	-29.05	0.874984	0.045384	0.00244	-0.051	0.066	0.468	0	136	161	3
2026-02-12	16:11:39.250	1.26	-18.97	-22.19	0.880108	0.02806	0.022204	-0.048	0.072	0.483	0	136	161	3
2026-02-12	16:11:39.270	-9.765	-27.685	-11.725	0.895724	0.00488	0.046116	-0.0435	0.063	0.471	0	136	161	3
2026-02-12	16:11:39.290	-14.7	-33.95	0.91	0.910608	-0.00122	0.0793	-0.0465	0.066	0.474	0	136	161	3
2026-02-12	16:11:39.310	-22.12	-37.625	15.645	0.930616	0.0122	0.116876	-0.048	0.063	0.4785	0	136	161	3
2026-02-12	16:11:39.330	-37.765	-39.795	29.365	0.93452	0.03416	0.144692	-0.0405	0.0555	0.4845	0	136	161	3
2026-02-12	16:11:39.350	-45.675	-39.095	38.325	0.931104	0.052704	0.164212	-0.033	0.063	0.489	0	136	161	3
2026-02-12	16:11:39.370	-43.12	-35.14	43.19	0.943792	0.083936	0.181536	-0.0315	0.066	0.4965	0	136	161	3
2026-02-12	16:11:39.390	-46.48	-30.065	44.905	0.958676	0.114436	0.183488	-0.033	0.0705	0.507	0	136	161	3
2026-02-12	16:11:39.410	-45.465	-23.975	42.595	0.976488	0.143228	0.1769	-0.0255	0.0765	0.5205	0	136	145	3
2026-02-12	16:11:39.430	-35.63	-18.375	34.86	0.993568	0.16714	0.15494	-0.027	0.081	0.5055	0	136	145	3
2026-02-12	16:11:39.450	-22.155	-14.245	23.555	1.016504	0.1769	0.142984	-0.024	0.084	0.5175	0	136	145	3
2026-02-12	16:11:39.470	-9.24	-10.395	10.78	1.058228	0.17934	0.130052	-0.021	0.087	0.5265	0	136	145	3
2026-02-12	16:11:39.490	5.565	-8.19	-3.885	1.091412	0.166896	0.116388	-0.018	0.0885	0.519	0	136	145	3
2026-02-12	16:11:39.510	24.71	-7	-18.34	1.108492	0.128832	0.146156	-0.027	0.087	0.516	0	136	145	3
2026-02-12	16:11:39.530	32.9	-2.415	-27.195	1.127768	0.097356	0.153232	-0.027	0.087	0.516	0	136	145	3
2026-02-12	16:11:39.550	33.985	5.215	-31.955	1.164124	0.077348	0.127124	-0.0255	0.081	0.5205	0	136	145	3
2026-02-12	16:11:39.570	38.5	8.68	-34.265	1.1773	0.05612	0.118828	-0.0255	0.075	0.525	0	136	145	3
2026-02-12	16:11:39.590	48.895	14.315	-35.875	1.195356	0.025864	0.103212	-0.024	0.0735	0.5235	0	136	145	3
2026-02-12	16:11:39.610	46.655	16.135	-32.725	1.186084	0	0.08662	-0.0225	0.069	0.5145	0	135	133	3
2026-02-12	16:11:39.630	39.305	14.735	-26.39	1.1468	-0.01708	0.074664	-0.024	0.063	0.5085	0	135	133	3
2026-02-12	16:11:39.650	35.735	11.55	-19.215	1.146312	-0.027816	0.063196	-0.0255	0.06	0.513	0	135	133	3
2026-02-12	16:11:39.670	32.445	6.16	-10.64	1.159	-0.029768	0.059536	-0.0225	0.057	0.5115	0	135	133	3
2026-02-12	16:11:39.690	25.935	0.98	-1.155	1.183888	-0.027084	0.072956	-0.0255	0.0555	0.51	0	135	133	3
2026-02-12	16:11:39.710	17.465	0.91	8.33	1.164856	-0.020984	0.09394	-0.021	0.0585	0.513	0	135	133	3
2026-02-12	16:11:39.730	11.13	7.665	17.185	1.08824	-0.006344	0.11346	-0.021	0.0585	0.51	0	135	133	3
2026-02-12	16:11:39.750	3.43	18.235	24.99	0.97356	0.027816	0.126148	-0.03	0.0615	0.5085	0	135	133	3
2026-02-12	16:11:39.770	-7.14	30.695	28.7	0.923052	0.066856	0.0976	-0.0285	0.0675	0.5115	0	135	133	3
2026-02-12	16:11:39.790	-6.65	42.875	25.305	0.921344	0.103456	0.043432	-0.0315	0.0735	0.5055	0	135	133	3
2026-02-12	16:11:39.810	5.355	52.29	14	0.949892	0.128344	-0.0122	-0.0345	0.075	0.501	0	135	123	3
2026-02-12	16:11:39.830	23.975	56.245	-2.1	0.953308	0.131028	-0.05368	-0.0345	0.0765	0.492	0	135	123	3
2026-02-12	16:11:39.850	43.785	53.2	-19.635	0.928908	0.110288	-0.084668	-0.0345	0.0825	0.486	0	135	123	3
2026-02-12	16:11:39.870	59.325	41.72	-33.88	0.902068	0.080032	-0.102968	-0.036	0.078	0.4815	0	135	123	3
2026-02-12	16:11:39.890	64.575	19.985	-42.735	0.906948	0.041236	-0.095892	-0.036	0.075	0.4755	0	135	123	3
2026-02-12	16:11:39.910	60.97	-9.03	-44.45	0.887916	-0.01098	-0.019764	-0.036	0.075	0.4695	0	135	123	3
2026-02-12	16:11:39.930	48.755	-33.775	-37.695	0.923296	-0.04514	0.05246	-0.036	0.066	0.4665	0	135	123	3
2026-02-12	16:11:39.950	33.67	-53.095	-25.375	0.931836	-0.067588	0.153232	-0.0375	0.0585	0.471	0	135	123	3
2026-02-12	16:11:39.970	16.065	-61.635	-10.535	0.92964	-0.074908	0.222772	-0.0345	0.0645	0.477	0	135	123	3
2026-02-12	16:11:39.990	6.755	-61.11	5.53	0.912316	-0.069784	0.320616	-0.0285	0.066	0.483	0	135	123	3
2026-02-12	16:11:40.010	0.665	-47.635	21.665	0.910364	-0.067832	0.35014	-0.027	0.0585	0.492	0	135	111	3
2026-02-12	16:11:40.030	-1.82	-27.965	37.065	0.925492	-0.023912	0.377712	-0.021	0.0585	0.4995	0	135	111	3
2026-02-12	16:11:40.050	-10.185	-7.42	48.44	0.904752	0.000244	0.34038	-0.015	0.0645	0.498	0	135	111	3
2026-02-12	16:11:40.070	-10.115	13.615	57.645	0.93696	0.030744	0.310856	-0.0135	0.0705	0.495	0	135	111	3
2026-02-12	16:11:40.090	-19.285	25.13	57.365	0.858148	0.083204	0.243756	-0.0135	0.0705	0.495	0	135	111	3
2026-02-12	16:11:40.110	9.135	30.905	52.395	0.824232	0.100772	0.203984	-0.0135	0.0705	0.495	0	135	111	3
2026-02-12	16:11:40.130	2.905	26.46	46.445	0.784704	0.117364	0.19886	-0.0165	0.099	0.486	0	135	111	3
2026-02-12	16:11:40.150	-3.535	21.525	40.705	0.877912	0.137616	0.113948	-0.0105	0.1035	0.498	0	135	111	3
2026-02-12	16:11:40.170	13.3	9.835	31.255	0.914024	0.141032	0.109312	-0.0255	0.114	0.489	0	135	111	3
2026-02-12	16:11:40.190	22.54	-2.94	23.24	1.01504	0.13542	0.11468	-0.021	0.117	0.486	0	135	111	3
2026-02-12	16:11:40.210	19.88	-13.51	20.02	1.000644	0.120536	0.156892	-0.024	0.12	0.483	0	137	116	3
2026-02-12	16:11:40.230	13.545	-16.31	20.615	1.0431	0.124684	0.156404	-0.0135	0.1245	0.4845	0	137	116	3
2026-02-12	16:11:40.250	6.09	-20.895	18.06	1.046028	0.131516	0.160064	-0.018	0.1305	0.495	0	137	116	3
2026-02-12	16:11:40.270	2.415	-27.335	12.005	1.114592	0.128588	0.204228	-0.0165	0.1305	0.4845	0	137	116	3
2026-02-12	16:11:40.290	1.295	-28.98	2.66	1.136552	0.112484	0.235948	-0.0015	0.138	0.4995	0	137	116	3
2026-02-12	16:11:40.310	12.355	-21.91	-5.81	1.18584	0.104676	0.253028	-0.0105	0.138	0.5025	0	137	116	3
2026-02-12	16:11:40.330	12.705	-14.07	-11.83	1.19072	0.083936	0.242292	-0.006	0.126	0.507	0	137	116	3
2026-02-12	16:11:40.350	13.16	-6.265	-14.7	1.148996	0.076372	0.211792	-0.009	0.138	0.504	0	137	116	3
2026-02-12	16:11:40.370	9.59	-0.84	-16.065	1.116056	0.075884	0.184952	0	0.135	0.5055	0	137	116	3
2026-02-12	16:11:40.390	-2.1	2.625	-19.005	1.123132	0.082228	0.142252	-0.0075	0.1215	0.5025	0	137	116	3
2026-02-12	16:11:40.410	-5.005	7.455	-21.49	1.095316	0.090524	0.146156	-0.012	0.129	0.5085	0	141	131	3
2026-02-12	16:11:40.430	-18.655	15.225	-22.925	1.046028	0.09882	0.131272	-0.006	0.117	0.501	0	141	131	3
2026-02-12	16:11:40.450	-27.755	25.025	-26.39	0.993324	0.118096	0.101504	-0.012	0.1215	0.4995	0	141	131	3
2026-02-12	16:11:40.470	-21.63	34.16	-34.37	0.931592	0.114192	0.078324	-0.018	0.1215	0.504	0	141	131	3
2026-02-12	16:11:40.490	-11.48	42.77	-42.21	0.918416	0.109068	0.045872	-0.0135	0.102	0.4965	0	141	131	3
2026-02-12	16:11:40.510	-4.515	48.755	-47.6	0.931104	0.10248	0.005368	-0.021	0.1005	0.4935	0	141	131	3
2026-02-12	16:11:40.530	6.685	49.945	-50.68	0.917928	0.08784	-0.038064	-0.021	0.0945	0.483	0	141	131	3
2026-02-12	16:11:40.550	16.275	44.205	-52.535	0.903532	0.07442	-0.066124	-0.0255	0.0825	0.483	0	141	131	3
2026-02-12	16:11:40.570	30.135	33.775	-51.94	0.869372	0.037576	-0.07808	-0.0375	0.0855	0.4755	0	141	131	3
2026-02-12	16:11:40.590	38.99	19.495	-46.165	0.832284	0.015128	-0.077836	-0.0375	0.0855	0.4755	0	141	131	3
2026-02-12	16:11:40.610	30.205	1.295	-37.52	0.84912	-0.0122	-0.062708	-0.0405	0.0735	0.474	0	143	135	3
2026-02-12	16:11:40.630	26.635	-11.97	-28.175	0.884988	-0.04026	-0.057096	-0.0435	0.063	0.4725	0	143	135	3
2026-02-12	16:11:40.650	24.185	-24.955	-15.47	0.8906	-0.049532	0.022448	-0.039	0.06	0.468	0	143	135	3
2026-02-12	16:11:40.670	-5.04	-37.45	5.075	0.90524	-0.067832	0.02806	-0.033	0.0525	0.4665	0	143	135	3
2026-02-12	16:11:40.690	-22.015	-49.455	26.39	0.905972	-0.055144	0.13786	-0.0255	0.051	0.477	0	143	135	3
2026-02-12	16:11:40.710	-47.74	-51.31	45.92	0.944768	-0.03416	0.1586	-0.0165	0.0585	0.489	0	143	135	3
2026-02-12	16:11:40.730	-47.075	-50.715	59.92	0.959652	-0.002684	0.19398	-0.015	0.063	0.492	0	143	135	3
2026-02-12	16:11:40.750	-43.68	-45.885	69.02	0.986248	0.023424	0.219844	-0.0135	0.0675	0.4965	0	143	135	3
2026-02-12	16:11:40.770	-46.13	-40.495	73.78	1.023092	0.05246	0.230824	-0.006	0.078	0.498	0	143	135	3
2026-02-12	16:11:40.790	-38.78	-32.795	73.22	1.03212	0.081984	0.264984	-0.003	0.0885	0.5055	0	143	135	3
2026-02-12	16:11:40.810	-53.69	-24.465	64.75	1.06872	0.099552	0.207156	-0.0015	0.096	0.516	0	146	125	3
2026-02-12	16:11:40.830	-11.725	-15.68	50.47	1.116788	0.13298	0.228872	0	0.1005	0.519	0	146	125	3
2026-02-12	16:11:40.850	3.64	-6.65	33.635	1.141676	0.134688	0.237168	-0.0015	0.105	0.522	0	146	125	3
2026-02-12	16:11:40.870	11.935	3.71	15.61	1.159976	0.134932	0.202764	0	0.114	0.525	0	146	125	3
2026-02-12	16:11:40.890	30.59	12.11	-4.865	1.169736	0.114436	0.165188	0.0075	0.1185	0.5265	0	146	125	3
2026-02-12	16:11:40.910	45.885	16.38	-23.52	1.203164	0.080032	0.138348	0.003	0.12	0.5235	0	146	125	3
2026-02-12	16:11:40.930	50.855	15.61	-37.03	1.20048	0.0488	0.126148	0	0.114	0.516	0	146	125	3
2026-02-12	16:11:40.950	56.525	13.23	-47.145	1.203164	0.017324	0.117852	0.006	0.1095	0.516	0	146	125	3
2026-02-12	16:11:40.970	65.38	10.185	-53.095	1.203408	-0.014884	0.124684	0.0045	0.108	0.5175	0	146	125	3
2026-02-12	16:11:40.990	68.74	5.355	-53.83	1.176812	-0.049532	0.155916	0	0.102	0.516	0	146	125	3
2026-02-12	16:11:41.010	65.555	2.31	-49.28	1.133624	-0.083936	0.199348	0.0015	0.0975	0.5145	0	149	125	3
2026-02-12	16:11:41.030	60.13	7.84	-38.08	1.143872	-0.097356	0.226676	0.0045	0.093	0.507	0	149	125	3
2026-02-12	16:11:41.050	50.19	21.42	-21.98	1.087264	-0.087352	0.268156	0.003	0.0945	0.4995	0	149	125	3
2026-02-12	16:11:41.070	41.895	44.135	-3.78	1.03944	-0.09467199	0.23912	0.0075	0.0945	0.498	0	149	125	3
2026-02-12	16:11:41.090	30.59	69.02	15.855	0.968924	-0.054412	0.127612	0.0045	0.0945	0.495	0	149	125	3
2026-02-12	16:11:41.110	14.98	85.05	30.03	0.925004	0.007076	0.070028	-0.0015	0.099	0.489	0	149	125	3
2026-02-12	16:11:41.130	8.925	96.46	36.575	0.915244	0.04514	-0.039528	-0.006	0.102	0.474	0	149	125	3
2026-02-12	16:11:41.150	26.215	97.755	34.825	0.896944	0.084668	-0.090524	-0.015	0.111	0.462	0	149	125	3
2026-02-12	16:11:41.170	32.655	89.18	27.615	0.871324	0.107116	-0.15006	-0.015	0.1245	0.453	0	149	125	3
2026-02-12	16:11:41.190	33.775	68.915	18.935	0.844972	0.11346	-0.193004	-0.018	0.1275	0.4395	0	149	125	3
2026-02-12	16:11:41.210	43.89	38.325	7.07	0.771284	0.102968	-0.188612	-0.021	0.129	0.429	0	152	124	3
2026-02-12	16:11:41.230	46.795	1.89	-3.36	0.744932	0.081496	-0.160308	-0.0195	0.135	0.429	0	152	124	3
2026-02-12	16:11:41.250	43.995	-36.085	-10.325	0.765916	0.054168	-0.09394	-0.0225	0.132	0.426	0	152	124	3
2026-02-12	16:11:41.270	38.08	-70.91	-12.39	0.820328	0.020252	0.002196	-0.0225	0.1275	0.426	0	152	124	3
2026-02-12	16:11:41.290	33.845	-94.29	-9.275	0.86254	0.010492	0.108336	-0.024	0.126	0.432	0	152	124	3
2026-02-12	16:11:41.310	25.935	-108.045	-6.51	0.924516	0.002684	0.183732	-0.024	0.126	0.432	0	152	124	3
2026-02-12	16:11:41.330	21.63	-114.975	-4.83	0.956236	-0.022936	0.276696	-0.024	0.126	0.432	0	152	124	3
2026-02-12	16:11:41.350	20.65	-107.87	1.295	0.920612	-0.031476	0.358436	0.0045	0.132	0.468	0	152	124	3
2026-02-12	16:11:41.370	14.945	-91.91	7.875	0.93086	-0.030744	0.391376	0.003	0.126	0.4725	0	152	124	3
2026-02-12	16:11:41.390	13.615	-72.8	12.6	0.95038	-0.0366	0.428708	0.0165	0.129	0.483	0	152	124	3
2026-02-12	16:11:41.410	5.705	-48.58	20.545	0.976	-0.01952	0.380884	0.015	0.1215	0.495	0	157	117	3
2026-02-12	16:11:41.430	11.41	-25.305	24.85	0.998936	-0.003904	0.391864	0.0285	0.129	0.4935	0	157	117	3
2026-02-12	16:11:41.450	33.04	-3.99	29.855	0.995276	-0.005124	0.368928	0.0255	0.138	0.492	0	157	117	3
2026-02-12	16:11:41.470	24.85	14.035	40.39	0.994544	0.02806	0.294508	0.0255	0.1425	0.4935	0	157	117	3
2026-02-12	16:11:41.490	15.925	23.38	47.11	1.026508	0.054656	0.182268	0.018	0.1575	0.495	0	157	117	3
2026-02-12	16:11:41.510	27.825	23.87	50.54	1.075796	0.066368	0.138592	0.0225	0.1605	0.492	0	157	117	3
2026-02-12	16:11:41.530	28.945	22.33	57.085	1.116788	0.090524	0.118584	0.018	0.162	0.489	0	157	117	3
2026-02-12	16:11:41.550	13.02	17.43	63.35	1.139724	0.12322	0.083448	0.027	0.1695	0.4845	0	157	117	3
2026-02-12	16:11:41.570	0.98	9.135	65.03	1.146068	0.154208	0.07808	0.018	0.183	0.483	0	157	117	3
2026-02-12	16:11:41.590	-8.295	0.595	61.775	1.164124	0.164456	0.066124	0.0285	0.1905	0.4905	0	157	117	3
2026-02-12	16:11:41.610	-14.07	-11.095	53.235	1.15656	0.19886	0.08662	0.033	0.195	0.4935	0	163	127	3
2026-02-12	16:11:41.630	-17.29	-21.49	37.905	1.191452	0.239852	0.093208	0.03	0.2085	0.4905	0	163	127	3
2026-02-12	16:11:41.650	-8.645	-30.94	14.385	1.20536	0.21472	0.134932	0.0375	0.2085	0.495	0	163	127	3
2026-02-12	16:11:41.670	12.565	-33.46	-8.47	1.158756	0.206912	0.202764	0.0375	0.2085	0.495	0	163	127	3
2026-02-12	16:11:41.690	14.21	-29.61	-31.605	1.092388	0.183244	0.278648	0.039	0.213	0.498	0	163	127	3
2026-02-12	16:11:41.710	12.005	-21.98	-42.525	1.092632	0.170068	0.28304	0.042	0.219	0.5025	0	163	127	3
2026-02-12	16:11:41.730	20.265	0.315	-62.3	1.129232	0.152988	0.256688	0.039	0.2145	0.498	0	163	127	3
2026-02-12	16:11:41.750	33.74	24.815	-79.415	1.14314	0.122244	0.207156	0.036	0.204	0.4995	0	163	127	3
2026-02-12	16:11:41.770	30.415	45.255	-90.195	1.094096	0.08662	0.15006	0.0285	0.195	0.498	0	163	127	3
2026-02-12	16:11:41.790	24.605	61.145	-96.075	1.010404	0.060268	0.091988	0.024	0.183	0.483	0	163	127	3
2026-02-12	16:11:41.810	27.965	71.4	-99.155	0.92598	0.031232	0.049776	0.0195	0.1725	0.4725	0	169	139	3
2026-02-12	16:11:41.830	32.41	77.175	-98.455	0.883768	-0.025864	-0.022448	0.0075	0.1605	0.468	0	169	139	3
2026-02-12	16:11:41.850	40.145	79.555	-90.335	0.930372	-0.01464	-0.045628	0.003	0.1485	0.4575	0	169	139	3
2026-02-12	16:11:41.870	42.28	71.645	-77.385	0.861808	-0.049288	-0.08052	0	0.1335	0.4455	0	169	139	3
2026-02-12	16:11:41.890	40.425	60.445	-59.465	0.835944	-0.066368	-0.034892	-0.006	0.123	0.4395	0	169	139	3
2026-02-12	16:11:41.910	7.385	48.825	-34.58	0.793244	-0.070516	-0.0854	-0.0135	0.117	0.4275	0	169	139	3
2026-02-12	16:11:41.930	-22.995	29.505	-9.555	0.775676	-0.051484	-0.103456	-0.0165	0.1095	0.42	0	169	139	3
2026-02-12	16:11:41.950	-40.39	5.845	12.88	0.803248	-0.04148	-0.1281	-0.012	0.105	0.42	0	169	139	3
2026-02-12	16:11:41.970	-43.505	-21.035	34.37	0.819352	-0.028548	-0.077348	-0.0135	0.1065	0.4215	0	169	139	3
2026-02-12	16:11:41.990	-61.6	-45.22	56.945	0.866444	-0.012688	-0.026352	-0.0135	0.108	0.4275	0	169	139	3
2026-02-12	16:11:42.010	-84.385	-67.305	78.435	0.9333	0.015372	0.02806	-0.0075	0.1185	0.438	0	174	133	3
2026-02-12	16:11:42.030	-92.12	-83.44	94.885	0.976976	0.0549	0.0915	-0.0075	0.135	0.444	0	174	133	3
2026-02-12	16:11:42.050	-96.355	-94.045	103.145	0.975024	0.099064	0.18788	-0.0045	0.1395	0.45	0	174	133	3
2026-02-12	16:11:42.070	-111.685	-94.535	105.28	0.986004	0.132736	0.266204	0.0015	0.147	0.4725	0	174	133	3
2026-02-12	16:11:42.090	-133.07	-81.935	99.68	1.036268	0.12322	0.260592	0.012	0.1575	0.4905	0	174	133	3
2026-02-12	16:11:42.110	-92.12	-67.795	83.72	1.027972	0.188368	0.315248	0.0195	0.1695	0.5025	0	174	133	3
2026-02-12	16:11:42.130	-74.515	-42.35	63.105	1.02724	0.200812	0.300852	0.0315	0.177	0.516	0	174	133	3
2026-02-12	16:11:42.150	-61.46	-16.205	37.87	1.045784	0.227652	0.2806	0.042	0.1815	0.5235	0	174	133	3
2026-02-12	16:11:42.170	-42.91	8.54	5.705	1.04798	0.225212	0.182756	0.045	0.1815	0.531	0	174	133	3
2026-02-12	16:11:42.190	4.97	25.2	-31.605	1.05774	0.198128	0.10492	0.045	0.18	0.534	0	174	133	3
2026-02-12	16:11:42.210	38.01	30.555	-64.365	1.08946	0.144936	0.07198	0.0405	0.1785	0.5295	0	179	121	3
2026-02-12	16:11:42.230	39.69	25.515	-88.725	1.107516	0.095648	0.026108	0.036	0.174	0.5235	0	179	121	3
2026-02-12	16:11:42.250	43.015	10.255	-108.64	1.133624	0.035624	0.008296	0.03	0.1635	0.519	0	179	121	3
2026-02-12	16:11:42.270	57.575	-7.35	-122.01	1.192428	-0.017324	0.07808	0.024	0.15	0.5175	0	179	121	3
2026-02-12	16:11:42.290	59.92	-22.505	-125.37	1.288076	-0.08295999	0.1281	0.021	0.138	0.51	0	179	121	3
2026-02-12	16:11:42.310	46.48	-29.68	-115.5	1.355176	-0.128588	0.145912	0.0225	0.12	0.5085	0	179	121	3
2026-02-12	16:11:42.330	40.39	-32.97	-97.51	1.31638	-0.151036	0.272304	0.0255	0.1035	0.516	0	179	121	3
2026-02-12	16:11:42.350	10.99	-23.1	-68.6	1.213656	-0.17568	0.251564	0.033	0.093	0.513	0	179	121	3
2026-02-12	16:11:42.370	-1.155	0.175	-33.95	1.203896	-0.206668	0.493856	0.0375	0.081	0.516	0	179	121	3
2026-02-12	16:11:42.390	-8.47	31.36	4.375	1.167296	-0.213012	0.249612	0.036	0.0765	0.522	0	179	121	3
2026-02-12	16:11:42.410	-27.72	65.625	46.62	1.153144	-0.109556	0.240096	0.0315	0.078	0.5205	0	183	121	3
2026-02-12	16:11:42.430	-48.685	91.28	83.335	1.132648	0.000732	0.114924	0.027	0.078	0.513	0	183	121	3
2026-02-12	16:11:42.450	-75.67	105.77	106.225	1.06872	0.07076	-0.0183	0.024	0.0885	0.5055	0	183	121	3
2026-02-12	16:11:42.470	-60.235	108.955	112.84	1.016748	0.135908	-0.095404	0.024	0.099	0.504	0	183	121	3
2026-02-12	16:11:42.490	-28.21	104.3	105.91	0.968192	0.183244	-0.101016	0.024	0.099	0.504	0	183	121	3
2026-02-12	16:11:42.510	-21.07	89.95	90.79	0.940376	0.189832	-0.079544	0.024	0.099	0.504	0	183	121	3
2026-02-12	16:11:42.530	-32.445	67.9	71.295	0.839604	0.24522	-0.142496	0.0015	0.1515	0.462	0	183	121	3
2026-02-12	16:11:42.550	-31.85	41.125	45.43	0.859612	0.232776	-0.192028	-0.0015	0.1695	0.465	0	183	121	3
2026-02-12	16:11:42.570	-37.275	10.885	18.445	0.822036	0.273036	-0.143716	0.003	0.1545	0.4485	0	183	121	3
2026-02-12	16:11:42.590	-6.44	-21.42	-21.035	0.78568	0.155916	-0.124196	-0.003	0.165	0.45	0	183	121	3
2026-02-12	16:11:42.610	71.715	-47.04	-45.605	0.827648	0.145424	0.01098	-0.0015	0.162	0.456	0	189	118	3
2026-02-12	16:11:42.630	30.66	-75.985	-60.2	0.831796	0.101016	0.099796	0.003	0.1575	0.4635	0	189	118	3
2026-02-12	16:11:42.650	4.41	-98.91	-69.3	0.894504	0.056852	0.123952	0.0075	0.1485	0.4665	0	189	118	3
2026-02-12	16:11:42.670	19.25	-119.315	-73.29	0.964532	0.016836	0.233264	0.0105	0.135	0.4665	0	189	118	3
2026-02-12	16:11:42.690	19.6	-128.8	-66.325	0.988444	-0.034892	0.383568	0.009	0.1335	0.489	0	189	118	3
2026-02-12	16:11:42.710	-2.555	-117.985	-49.84	1.020652	-0.043188	0.448716	0.021	0.12	0.4995	0	189	118	3
2026-02-12	16:11:42.730	-17.465	-92.05	-32.06	1.053592	-0.043432	0.48068	0.021	0.12	0.4995	0	189	118	3
2026-02-12	16:11:42.750	-15.47	-58.73	-17.29	1.0126	-0.033672	0.517036	0.0285	0.117	0.51	0	189	118	3
2026-02-12	16:11:42.770	-10.745	-30.38	-7.175	0.977464	-0.044164	0.538996	0.0375	0.114	0.522	0	189	118	3
2026-02-12	16:11:42.790	-10.395	-0.63	6.09	0.97356	-0.01708	0.530212	0.0435	0.1095	0.525	0	189	118	3
2026-02-12	16:11:42.810	-33.495	34.195	19.88	0.965996	0.029524	0.423096	0.045	0.108	0.525	0	196	120	3
2026-02-12	16:11:42.830	-31.15	56.595	25.2	1.005036	0.049532	0.305732	0.039	0.108	0.5175	0	196	120	3
2026-02-12	16:11:42.850	-13.125	67.515	27.09	1.014064	0.061976	0.25986	0.033	0.111	0.5085	0	196	120	3
2026-02-12	16:11:42.870	-9.45	62.755	26.425	1.041636	0.072468	0.182024	0.0315	0.1095	0.504	0	196	120	3
2026-02-12	16:11:42.890	-17.115	62.58	29.225	1.104832	0.087596	0.084424	0.0285	0.1095	0.501	0	196	120	3
2026-02-12	16:11:42.910	-0.91	56.49	29.75	1.068476	0.08418	0.08906	0.0195	0.1155	0.4965	0	196	120	3
2026-02-12	16:11:42.930	-5.775	49.49	33.25	1.11142	0.105164	0.047092	0.021	0.12	0.4905	0	196	120	3
2026-02-12	16:11:42.950	-26.04	34.265	34.195	1.114836	0.127368	0.00854	0.021	0.1275	0.4875	0	196	120	3
2026-02-12	16:11:42.970	-33.285	13.44	28.595	1.130452	0.144448	0	0.015	0.1305	0.4875	0	196	120	3
2026-02-12	16:11:42.990	-29.575	-9.94	18.445	1.13582	0.148596	0.058072	0.021	0.1365	0.48	0	196	120	3
2026-02-12	16:11:43.010	-33.075	-28.7	8.05	1.133136	0.146156	0.119072	0.021	0.1395	0.48	0	204	141	3
2026-02-12	16:11:43.030	-32.76	-38.22	-2.1	1.099952	0.14274	0.215696	0.0135	0.135	0.4845	0	204	141	3
2026-02-12	16:11:43.050	-30.415	-30.66	-12.005	1.088484	0.135908	0.25986	0.0135	0.1305	0.492	0	204	141	3
2026-02-12	16:11:43.070	-25.305	-12.46	-21.07	1.0431	0.12322	0.27328	0.0195	0.1275	0.4995	0	204	141	3
2026-02-12	16:11:43.090	-22.89	9.73	-28.07	0.963068	0.111996	0.258884	0.0225	0.126	0.501	0	204	141	3
2026-02-12	16:11:43.110	-23.31	32.76	-32.55	0.880352	0.106872	0.205936	0.021	0.12	0.4995	0	204	141	3
2026-02-12	16:11:43.130	-25.935	50.54	-36.12	0.881084	0.110288	0.117852	0.015	0.1155	0.4965	0	204	141	3
2026-02-12	16:11:43.150	-19.425	58.52	-38.395	0.88572	0.106384	0.049532	0.015	0.1125	0.495	0	204	141	3
2026-02-12	16:11:43.170	-6.93	59.045	-38.22	0.914024	0.09272	-0.00244	0.0135	0.1035	0.4905	0	204	141	3
2026-02-12	16:11:43.190	3.955	52.815	-34.685	0.89304	0.081252	-0.03294	0.0075	0.099	0.4815	0	204	141	3
2026-02-12	16:11:43.210	6.685	40.355	-27.475	0.843752	0.065392	-0.040748	0.003	0.093	0.4815	0	208	153	3
2026-02-12	16:11:43.230	3.675	25.83	-16.485	0.813008	0.052948	-0.044408	-0.0045	0.0915	0.474	0	208	153	3
2026-02-12	16:11:43.250	-2.94	9.905	-4.13	0.849364	0.057828	-0.059536	-0.0015	0.093	0.4665	0	208	153	3
2026-02-12	16:11:43.270	-6.65	-8.75	7.035	0.878644	0.058804	-0.05124	0.003	0.0885	0.4665	0	208	153	3
2026-02-12	16:11:43.290	-13.37	-28.595	16.905	0.889136	0.054412	0.008784	-0.003	0.087	0.468	0	208	153	3
2026-02-12	16:11:43.310	-25.865	-43.855	27.125	0.89792	0.07442	0.068564	-0.003	0.0885	0.477	0	208	153	3
2026-02-12	16:11:43.330	-33.845	-52.78	32.83	0.905484	0.084912	0.129564	0	0.0885	0.4845	0	208	153	3
2026-02-12	16:11:43.350	-35.35	-53.305	33.74	0.903532	0.0854	0.196664	0.0045	0.09	0.486	0	208	153	3
2026-02-12	16:11:43.370	-37.135	-42.84	33.04	0.9272	0.103212	0.224724	0.0105	0.096	0.495	0	208	153	3
2026-02-12	16:11:43.390	-36.19	-27.44	29.12	0.88206	0.116144	0.235216	0.0135	0.099	0.4995	0	208	153	3
2026-02-12	16:11:43.410	-29.68	-11.165	20.23	0.896212	0.127612	0.172996	0.015	0.0975	0.504	0	209	145	2
2026-02-12	16:11:43.430	-11.69	-5.285	6.685	0.884988	0.117608	0.149328	0.0195	0.099	0.513	0	209	145	2
2026-02-12	16:11:43.450	-5.88	-7.455	-3.395	0.922564	0.10248	0.126636	0.0225	0.102	0.513	0	209	145	2
2026-02-12	16:11:43.470	-11.305	-14.875	-11.2	1.017236	0.089304	0.098088	0.018	0.099	0.5145	0	209	145	2
2026-02-12	16:11:43.490	3.5	-26.495	-21.315	1.10166	0.075884	0.105896	0.021	0.0945	0.519	0	209	145	2
2026-02-12	16:11:43.510	20.335	-37.555	-28.84	1.125328	0.038552	0.189832	0.0225	0.0945	0.5205	0	209	145	2
2026-02-12	16:11:43.530	17.15	-40.04	-28.42	1.112884	0.01708	0.231068	0.021	0.0915	0.522	0	209	145	2
2026-02-12	16:11:43.550	12.635	-37.1	-27.405	1.16632	0.006588	0.234484	0.0255	0.0885	0.5235	0	209	145	2
2026-02-12	16:11:43.570	21.735	-34.02	-28.63	1.179008	-0.01952	0.261568	0.033	0.0855	0.525	0	209	145	2
2026-02-12	16:11:43.590	31.01	-27.23	-27.615	1.239764	-0.037088	0.254492	0.039	0.0795	0.525	0	209	145	2
2026-02-12	16:11:43.610	37.905	-19.46	-24.57	1.257576	-0.052948	0.260104	0.042	0.0795	0.528	0	207	140	3
2026-02-12	16:11:43.630	45.115	-10.535	-19.81	1.227076	-0.070272	0.304024	0.0405	0.0795	0.5355	0	207	140	3
2026-02-12	16:11:43.650	44.275	4.935	-9.94	1.274656	-0.07442	0.245952	0.042	0.075	0.5325	0	207	140	3
2026-02-12	16:11:43.670	32.375	17.92	5.145	1.235372	-0.07442	0.251564	0.045	0.0735	0.5295	0	207	140	3
2026-02-12	16:11:43.690	14.525	37.975	22.085	1.196088	-0.057584	0.193004	0.0435	0.0705	0.531	0	207	140	3
2026-02-12	16:11:43.710	22.085	58.415	37.975	1.100684	-0.000244	0.170556	0.0435	0.0705	0.531	0	207	140	3
2026-02-12	16:11:43.730	-5.355	76.44	51.03	0.99186	0.037576	0.073688	0.0435	0.0705	0.531	0	207	140	3
2026-02-12	16:11:43.750	-5.25	87.99	56.49	0.958188	0.09394	0.000244	0.03	0.0915	0.5175	0	207	140	3
2026-02-12	16:11:43.770	4.27	92.225	53.41	0.914268	0.134444	-0.052704	0.024	0.1005	0.5085	0	207	140	3
2026-02-12	16:11:43.790	8.575	91.245	44.87	0.894748	0.160308	-0.110776	0.0195	0.1095	0.4995	0	207	140	3
2026-02-12	16:11:43.810	20.335	83.125	29.645	0.9089	0.183	-0.166896	0.012	0.114	0.4995	0	204	141	3
2026-02-12	16:11:43.830	37.59	63.07	9.345	0.883524	0.180316	-0.195932	0.0045	0.117	0.492	0	204	141	3
2026-02-12	16:11:43.850	46.62	49.315	-0.385	0.845948	0.170312	-0.18788	0.0045	0.1155	0.483	0	204	141	3
2026-02-12	16:11:43.870	52.01	18.34	-16.03	0.78934	0.149084	-0.176656	0.0015	0.1155	0.4785	0	204	141	3
2026-02-12	16:11:43.890	40.075	-18.2	-28.105	0.769088	0.1159	-0.125172	-0.003	0.1185	0.4725	0	204	141	3
2026-02-12	16:11:43.910	33.53	-53.62	-36.68	0.792512	0.079544	-0.060024	-0.0015	0.117	0.471	0	204	141	3
2026-02-12	16:11:43.930	36.995	-84.77	-41.055	0.827892	0.048556	0.05124	0	0.1065	0.477	0	204	141	3
2026-02-12	16:11:43.950	28.175	-107.135	-40.565	0.891088	0.015128	0.1403	0.0015	0.105	0.489	0	204	141	3
2026-02-12	16:11:43.970	16.73	-120.785	-33.67	0.916952	-0.012444	0.242536	0.012	0.1005	0.4995	0	204	141	3
2026-02-12	16:11:43.990	6.86	-120.645	-21.77	0.938424	-0.027816	0.325252	0.018	0.096	0.5115	0	204	141	3
2026-02-12	16:11:44.010	1.4	-109.13	-8.96	0.982344	-0.033184	0.366732	0.027	0.096	0.525	0	203	127	3
2026-02-12	16:11:44.030	-9.065	-90.335	5.11	0.983808	0.010004	0.461648	0.0375	0.09	0.5295	0	203	127	3
2026-02-12	16:11:44.050	-5.32	-67.725	16.31	0.994544	-0.010492	0.447252	0.042	0.0825	0.5385	0	203	127	3
2026-02-12	16:11:44.070	2.135	-42.21	26.915	1.042368	-0.005856	0.463112	0.0555	0.0885	0.549	0	203	127	3
2026-02-12	16:11:44.090	-11.585	-16.03	37.765	1.0675	0.029524	0.443104	0.0615	0.099	0.546	0	203	127	3
2026-02-12	16:11:44.110	-15.33	10.36	44.66	1.09922	0.066612	0.374296	0.06	0.1005	0.549	0	203	127	3
2026-02-12	16:11:44.130	-8.12	32.095	45.045	1.081164	0.088084	0.337208	0.06	0.105	0.552	0	203	127	3
2026-02-12	16:11:44.150	-7.28	53.9	44.38	1.07726	0.109556	0.246196	0.0555	0.1125	0.549	0	203	127	3
2026-02-12	16:11:44.170	3.43	67.83	40.425	1.098	0.116632	0.151524	0.045	0.111	0.546	0	203	127	3
2026-02-12	16:11:44.190	2.905	72.24	35.42	1.034316	0.137616	0.092964	0.039	0.1125	0.5385	0	203	127	3
2026-02-12	16:11:44.210	-3.535	70.175	29.505	1.053836	0.159088	-0.002196	0.036	0.117	0.5355	0	204	132	3
2026-02-12	16:11:44.230	-1.295	52.745	18.095	1.013332	0.172752	-0.03172	0.03	0.117	0.528	0	204	132	3
2026-02-12	16:11:44.250	3.5	31.255	3.71	1.014552	0.165188	-0.059292	0.027	0.12	0.522	0	204	132	3
2026-02-12	16:11:44.270	12.25	5.355	-10.57	1.036756	0.153232	-0.056364	0.0225	0.123	0.522	0	204	132	3
2026-02-12	16:11:44.290	9.94	-23.45	-21.28	1.049932	0.132004	0.011468	0.021	0.1215	0.519	0	204	132	3
2026-02-12	16:11:44.310	-3.185	-43.82	-26.74	1.084824	0.126148	0.071004	0.021	0.1155	0.5205	0	204	132	3
2026-02-12	16:11:44.330	-5.53	-52.815	-32.445	1.154364	0.108092	0.122976	0.0285	0.108	0.528	0	204	132	3
2026-02-12	16:11:44.350	2.695	-50.05	-37.24	1.186816	0.099552	0.17934	0.033	0.102	0.5295	0	204	132	3
2026-02-12	16:11:44.370	-3.78	-38.185	-38.675	1.089216	0.07686	0.212768	0.0315	0.096	0.5325	0	204	132	3
2026-02-12	16:11:44.390	-14.245	-18.2	-37.8	1.015284	0.077592	0.216916	0.0315	0.09	0.5385	0	204	132	3
2026-02-12	16:11:44.410	-14.56	5.915	-39.06	0.947452	0.068564	0.187148	0.033	0.0825	0.5385	0	206	138	3
2026-02-12	16:11:44.430	-11.41	29.995	-38.36	0.937692	0.068564	0.119804	0.0375	0.0765	0.5325	0	206	138	3
2026-02-12	16:11:44.450	-18.76	47.425	-35.14	0.959164	0.076128	0.026352	0.0315	0.0735	0.5265	0	206	138	3
2026-02-12	16:11:44.470	-18.55	54.285	-32.305	0.93574	0.081252	-0.022204	0.021	0.066	0.525	0	206	138	3
2026-02-12	16:11:44.490	-14	56.7	-29.435	0.905728	0.091256	-0.070028	0.015	0.0615	0.525	0	206	138	3
2026-02-12	16:11:44.510	-7.525	50.715	-29.155	0.883768	0.096868	-0.108336	0.0105	0.0525	0.5175	0	206	138	3
2026-02-12	16:11:44.530	3.045	39.165	-29.995	0.84302	0.088084	-0.116144	0.006	0.0405	0.5115	0	206	138	3
2026-02-12	16:11:44.550	10.465	22.645	-29.89	0.83448	0.07198	-0.144204	0	0.0405	0.5085	0	206	138	3
2026-02-12	16:11:44.570	13.72	0.315	-26.53	0.80154	0.054168	-0.11834	-0.0045	0.039	0.4995	0	206	138	3
2026-02-12	16:11:44.590	8.015	-21.525	-19.355	0.800808	0.044896	-0.120048	-0.006	0.0315	0.498	0	206	138	3
2026-02-12	16:11:44.610	0.315	-44.905	-10.465	0.908656	0.027328	-0.108824	-0.0045	0.027	0.501	0	206	127	3
2026-02-12	16:11:44.630	-2.94	-68.845	-0.63	1.001376	0.015372	-0.0488	0.003	0.03	0.5055	0	206	127	3
2026-02-12	16:11:44.650	-5.215	-87.675	11.06	0.994056	0.000732	0.069784	0.0075	0.024	0.5145	0	206	127	3
2026-02-12	16:11:44.670	-12.6	-92.75	26.495	0.970144	-0.001952	0.180072	0.0135	0.0225	0.522	0	206	127	3
2026-02-12	16:11:44.690	-23.275	-84.56	42.175	0.982344	0.008052	0.25254	0.024	0.0285	0.528	0	206	127	3
2026-02-12	16:11:44.710	-36.96	-65.275	58.695	1.03212	0.020496	0.269864	0.033	0.033	0.5355	0	206	127	3
2026-02-12	16:11:44.730	-39.27	-44.52	70.525	1.105808	0.053192	0.28914	0.039	0.036	0.5475	0	206	127	3
2026-02-12	16:11:44.750	-35.875	-28.315	75.18	1.0675	0.08784	0.27328	0.0405	0.039	0.552	0	206	127	3
2026-02-12	16:11:44.770	-35.875	-8.155	77.63	1.12606	0.126148	0.246196	0.039	0.0525	0.5475	0	206	127	3
2026-02-12	16:11:44.790	-37.765	7.42	73.605	1.138016	0.171044	0.198372	0.039	0.063	0.549	0	206	127	3
2026-02-12	16:11:44.810	-34.44	19.88	60.97	1.133868	0.196176	0.129564	0.042	0.066	0.5475	0	206	110	3
2026-02-12	16:11:44.830	-10.325	29.26	40.215	1.141432	0.208376	0.0732	0.0345	0.075	0.5505	0	206	110	3
2026-02-12	16:11:44.850	15.715	33.67	14.77	1.132404	0.212036	0.033184	0.03	0.09	0.552	0	206	110	3
2026-02-12	16:11:44.870	31.57	33.075	-12.67	1.144116	0.196664	0.00122	0.033	0.0975	0.549	0	206	110	3
2026-02-12	16:11:44.890	47.355	27.72	-40.53	1.153632	0.167872	-0.036112	0.033	0.0975	0.549	0	206	110	3
2026-02-12	16:11:44.910	64.4	19.425	-60.445	1.128744	0.122	-0.017812	0.033	0.0975	0.549	0	206	110	3
2026-02-12	16:11:44.930	79.275	13.265	-75.04	1.15168	0.080764	-0.00976	0.027	0.0855	0.534	0	206	110	3
2026-02-12	16:11:44.950	84.63	3.045	-87.955	1.175592	0.053192	0.00732	0.018	0.069	0.5235	0	206	110	3
2026-02-12	16:11:44.970	84.385	-7.455	-95.235	1.1895	-0.006344	0.04514	0.015	0.063	0.525	0	206	110	3
2026-02-12	16:11:44.990	89.985	-13.755	-94.36	1.18462	-0.053436	0.105408	0.0135	0.054	0.525	0	206	110	3
2026-02-12	16:11:45.010	83.965	-7.35	-80.885	1.150216	-0.076616	0.172752	0.0135	0.0435	0.525	0	204	101	3
2026-02-12	16:11:45.030	52.64	10.57	-58.94	1.082872	-0.114924	0.144936	0.018	0.0405	0.513	0	204	101	3
2026-02-12	16:11:45.050	46.235	32.62	-35.735	0.965996	-0.068076	0.163968	0.018	0.036	0.5085	0	204	101	3
2026-02-12	16:11:45.070	24.15	55.475	-13.265	0.89548	-0.055632	0.121756	0.012	0.033	0.513	0	204	101	3
2026-02-12	16:11:45.090	13.16	72.905	6.65	0.887428	-0.021716	0.04758	0.009	0.0315	0.5085	0	204	101	3
2026-02-12	16:11:45.110	-9.52	83.16	21.875	0.914024	0.036356	-0.039772	0.0075	0.0315	0.4905	0	204	101	3
2026-02-12	16:11:45.130	-17.535	83.685	29.26	0.91378	0.072712	-0.12078	0	0.036	0.477	0	204	101	3
2026-02-12	16:11:45.150	10.115	76.895	29.855	0.879132	0.095404	-0.158844	-0.006	0.039	0.471	0	204	101	3
2026-02-12	16:11:45.170	27.825	60.165	26.53	0.854488	0.108336	-0.18056	-0.0135	0.0435	0.4605	0	204	101	3
2026-02-12	16:11:45.190	33.6	33.46	22.4	0.827892	0.107848	-0.18788	-0.015	0.054	0.4515	0	204	101	3
2026-02-12	16:11:45.210	53.305	-19.81	-33.005	1.00284	0.014152	0.016592	0	0.0525	0.489	0	203	89	3
2026-02-12	16:11:45.230	12.565	-38.57	19.565	0.85156	0.103212	-0.109312	-0.015	0.0645	0.4485	0	203	89	3
2026-02-12	16:11:45.250	-0.77	-75.215	18.375	0.908412	0.096868	-0.032208	-0.0135	0.069	0.453	0	203	89	3
2026-02-12	16:11:45.270	1.785	-105.84	15.89	0.903288	0.059048	0.07905599	-0.0105	0.069	0.4665	0	203	89	3
2026-02-12	16:11:45.290	9.17	-122.675	17.85	0.927688	0.040016	0.24034	-0.0075	0.069	0.474	0	203	89	3
2026-02-12	16:11:45.310	-20.3	-124.18	24.5	1.013088	0.022448	0.449692	0.0015	0.0705	0.4875	0	203	89	3
2026-02-12	16:11:45.330	-73.15	-117.95	15.365	1.019676	0.027328	0.223748	0.0105	0.075	0.504	0	203	89	3
2026-02-12	16:11:45.350	32.655	-99.12	6.65	1.03334	0.061732	0.471652	0.018	0.078	0.5115	0	203	89	3
2026-02-12	16:11:45.370	20.16	-64.19	4.83	1.064328	0.036356	0.4392	0.0255	0.081	0.5175	0	203	89	3
2026-02-12	16:11:45.390	24.675	-29.225	4.725	1.046272	0.032452	0.46116	0.036	0.0885	0.5205	0	203	89	3
2026-02-12	16:11:45.410	25.445	8.33	8.015	1.06506	0.029036	0.421632	0.0345	0.0885	0.5295	0	203	84	3
2026-02-12	16:11:45.430	22.54	40.32	12.635	1.087264	0.041968	0.354044	0.0345	0.087	0.5265	0	203	84	3
2026-02-12	16:11:45.450	9.065	61.005	16.555	1.114592	0.081008	0.253272	0.0345	0.0945	0.5115	0	203	84	3
2026-02-12	16:11:45.470	22.785	72.94	17.325	1.167784	0.057584	0.11468	0.0225	0.096	0.501	0	203	84	3
2026-02-12	16:11:45.490	23.17	72.45	19.18	1.098244	0.08174	0.1098	0.0195	0.0945	0.498	0	203	84	3
2026-02-12	16:11:45.510	7.525	71.575	22.155	1.120448	0.096868	0.02562	0.0165	0.099	0.4905	0	203	84	3
2026-02-12	16:11:45.530	10.255	59.045	20.895	1.040416	0.101992	0.030744	0.0075	0.1035	0.486	0	203	84	3
2026-02-12	16:11:45.550	7.175	46.515	20.72	1.048468	0.116388	0.02196	0.0015	0.1095	0.4815	0	203	84	3
2026-02-12	16:11:45.570	-3.045	32.97	17.85	1.067988	0.133224	0.01464	-0.0015	0.117	0.4725	0	203	84	3
2026-02-12	16:11:45.590	-0.56	18.655	10.43	1.069452	0.127124	0.061	-0.003	0.123	0.4665	0	203	84	3
2026-02-12	16:11:45.610	12.705	9.1	3.045	1.07116	0.12566	0.0732	0	0.12	0.465	0	204	99	3
2026-02-12	16:11:45.630	10.43	7.07	-2.485	1.089704	0.12688	0.081008	0	0.12	0.4665	0	204	99	3
2026-02-12	16:11:45.650	2.94	9.625	-7.945	1.100196	0.11956	0.064172	-0.006	0.12	0.459	0	204	99	3
2026-02-12	16:11:45.670	5.04	16.065	-14.49	1.095804	0.117608	0.03416	-0.006	0.117	0.456	0	204	99	3
2026-02-12	16:11:45.690	6.335	20.65	-21.07	1.030656	0.112972	0.023912	-0.003	0.117	0.4545	0	204	99	3
2026-02-12	16:11:45.710	-1.96	21.105	-26.04	0.91622	0.09857599	0.046116	-0.009	0.111	0.4515	0	204	99	3
2026-02-12	16:11:45.730	-15.155	24.115	-27.3	0.85766	0.109312	0.029524	-0.018	0.1125	0.45	0	204	99	3
2026-02-12	16:11:45.750	-26.39	25.235	-30.1	0.86986	0.121268	-0.011224	-0.024	0.1155	0.453	0	204	99	3
2026-02-12	16:11:45.770	-17.22	22.61	-36.4	0.915244	0.12078	-0.039772	-0.0285	0.1065	0.453	0	204	99	3
2026-02-12	16:11:45.790	4.48	18.97	-41.965	0.945744	0.10004	-0.046116	-0.0255	0.0975	0.444	0	204	99	3
2026-02-12	16:11:45.810	19.67	13.93	-42.385	0.91866	0.079544	-0.050996	-0.024	0.0915	0.4425	0	203	104	3
2026-02-12	16:11:45.830	22.925	4.34	-38.675	0.859856	0.054168	-0.0366	-0.027	0.0825	0.4365	0	203	104	3
2026-02-12	16:11:45.850	23.835	-5.425	-30.59	0.85034	0.02318	-0.022448	-0.0345	0.0795	0.4365	0	203	104	3
2026-02-12	16:11:45.870	25.83	-14.98	-18.2	0.881572	0.007564	-0.005368	-0.036	0.0765	0.4365	0	203	104	3
2026-02-12	16:11:45.890	14.77	-25.9	-2.415	0.906704	-0.011712	0.043432	-0.0315	0.069	0.4335	0	203	104	3
2026-02-12	16:11:45.910	-3.08	-33.285	17.185	0.897432	-0.016348	0.086376	-0.027	0.0645	0.4455	0	203	104	3
2026-02-12	16:11:45.930	-17.745	-35.35	36.96	0.918416	0.002928	0.109312	-0.024	0.0615	0.45	0	203	104	3
2026-02-12	16:11:45.950	-23.765	-35.21	53.13	0.984784	0.035136	0.104188	-0.024	0.0615	0.45	0	203	104	3
2026-02-12	16:11:45.970	-28.84	-37.87	64.96	0.980636	0.068076	0.137372	-0.0255	0.0795	0.4605	0	203	104	3
2026-02-12	16:11:45.990	-35.525	-38.57	69.335	0.969168	0.082228	0.149084	-0.0255	0.0795	0.4605	0	203	104	3
2026-02-12	16:11:46.010	-46.585	-38.185	74.13	0.970632	0.121024	0.168848	-0.012	0.096	0.4635	0	200	94	3
2026-02-12	16:11:46.030	-47.005	-35.665	71.855	0.96258	0.151768	0.173972	-0.0165	0.1095	0.4755	0	200	94	3
2026-02-12	16:11:46.050	-42.07	-32.375	63.525	0.948184	0.178852	0.185684	-0.015	0.111	0.4755	0	200	94	3
2026-02-12	16:11:46.070	-35.595	-25.515	50.505	0.989664	0.202764	0.171044	-0.0135	0.126	0.489	0	200	94	3
2026-02-12	16:11:46.090	-20.37	-19.25	31.535	1.026996	0.218624	0.15372	-0.0135	0.126	0.489	0	200	94	3
2026-02-12	16:11:46.110	6.3	-12.145	8.645	1.051152	0.205204	0.139324	-0.0135	0.126	0.489	0	200	94	3
2026-02-12	16:11:46.130	33.565	-5.775	-14.21	1.053592	0.165432	0.13786	-0.009	0.132	0.4935	0	200	94	3
2026-02-12	16:11:46.150	46.83	-0.805	-31.185	1.076528	0.132004	0.111752	-0.0075	0.1335	0.495	0	200	94	3
2026-02-12	16:11:46.170	50.505	-1.085	-44.065	1.10654	0.0854	0.105164	-0.009	0.129	0.495	0	200	94	3
2026-02-12	16:11:46.190	56.875	-2.73	-50.855	1.132892	0.041236	0.1159	-0.0075	0.1305	0.4965	0	200	94	3
2026-02-12	16:11:46.210	57.89	-3.115	-50.085	1.165832	0.000976	0.12932	-0.0075	0.1245	0.492	0	195	92	3
2026-02-12	16:11:46.230	49.105	-5.46	-44.485	1.171932	-0.036112	0.13786	-0.0045	0.1155	0.4875	0	195	92	3
2026-02-12	16:11:46.250	44.835	-6.475	-33.145	1.163148	-0.06344	0.159332	-0.0075	0.108	0.486	0	195	92	3
2026-02-12	16:11:46.270	36.015	-5.11	-13.58	1.152168	-0.08418	0.184708	-0.0135	0.102	0.4845	0	195	92	3
2026-02-12	16:11:46.290	9.45	-1.82	12.95	1.139968	-0.06588	0.20862	-0.009	0.105	0.486	0	195	92	3
2026-02-12	16:11:46.310	-18.375	6.755	38.675	1.138748	-0.017568	0.169824	-0.009	0.108	0.483	0	195	92	3
2026-02-12	16:11:46.330	-26.985	16.905	55.125	1.11142	0.030744	0.138592	-0.012	0.111	0.483	0	195	92	3
2026-02-12	16:11:46.350	-26.53	26.845	62.545	1.073844	0.081496	0.087108	-0.006	0.117	0.4845	0	195	92	3
2026-02-12	16:11:46.370	-19.775	35.56	63.7	1.054812	0.113704	0.023668	-0.0075	0.132	0.4815	0	195	92	3
2026-02-12	16:11:46.390	-12.39	38.01	60.515	1.006012	0.146644	0.005368	-0.012	0.138	0.4815	0	195	92	3
2026-02-12	16:11:46.410	-16.1	38.64	55.3	0.996496	0.177388	-0.028548	-0.015	0.144	0.477	0	188	97	3
2026-02-12	16:11:46.430	-22.225	33.565	44.73	0.945256	0.210572	-0.047824	-0.0195	0.153	0.4725	0	188	97	3
2026-02-12	16:11:46.450	-14.56	26.25	26.95	0.95282	0.216916	-0.04636	-0.018	0.153	0.471	0	188	97	3
2026-02-12	16:11:46.470	2.24	21.875	6.615	0.942816	0.218136	-0.034892	-0.012	0.159	0.468	0	188	97	3
2026-02-12	16:11:46.490	10.5	15.435	-15.785	0.934276	0.18544	-0.000976	-0.015	0.1665	0.468	0	188	97	3
2026-02-12	16:11:46.510	22.47	12.075	-35.14	0.925736	0.145912	0.047092	-0.018	0.162	0.4695	0	188	97	3
2026-02-12	16:11:46.530	25.585	11.9	-47.39	0.933544	0.109312	0.064172	-0.015	0.156	0.465	0	188	97	3
2026-02-12	16:11:46.550	20.405	10.255	-55.125	0.9699	0.073688	0.05612	-0.024	0.1485	0.4575	0	188	97	3
2026-02-12	16:11:46.570	24.01	6.685	-58.765	0.96136	0.0366	0.07564	-0.0315	0.1425	0.447	0	188	97	3
2026-02-12	16:11:46.590	17.43	2.17	-57.925	0.948916	0.008052	0.095404	-0.0285	0.138	0.4455	0	188	97	3
2026-02-12	16:11:46.610	3.92	-3.465	-54.6	0.909632	-0.017324	0.09857599	-0.0285	0.126	0.45	0	182	94	3
2026-02-12	16:11:46.630	-0.875	-10.185	-50.505	0.874008	-0.033916	0.121024	-0.0285	0.114	0.4515	0	182	94	3
2026-02-12	16:11:46.650	-3.255	-16.765	-44.835	0.88694	-0.020008	0.251808	-0.0225	0.105	0.447	0	182	94	3
2026-02-12	16:11:46.670	-16.73	-17.57	-35.91	0.90402	-0.069784	0.148108	-0.024	0.0975	0.45	0	182	94	3
2026-02-12	16:11:46.690	-12.145	-17.22	-27.65	0.881084	-0.084424	0.166652	-0.0255	0.09	0.45	0	182	94	3
2026-02-12	16:11:46.710	-8.295	-12.25	-13.545	0.915244	-0.070028	0.223992	-0.0255	0.0795	0.4545	0	182	94	3
2026-02-12	16:11:46.730	-33.565	-4.55	5.46	0.925492	-0.067832	0.164212	-0.0255	0.0765	0.456	0	182	94	3
2026-02-12	16:11:46.750	-36.05	-1.365	22.715	0.925004	-0.037332	0.12932	-0.024	0.078	0.4545	0	182	94	3
2026-02-12	16:11:46.770	-48.405	-7.385	35.77	0.924516	-0.0183	0.135908	-0.027	0.0795	0.459	0	182	94	3
2026-02-12	16:11:46.790	-62.125	-13.09	46.235	0.937448	0.014884	0.156404	-0.0255	0.0825	0.4575	0	182	94	3
2026-02-12	16:11:46.810	-65.45	-15.19	52.43	0.952088	0.04026	0.161528	-0.0225	0.087	0.456	0	176	95	3
2026-02-12	16:11:46.830	-63.315	-15.365	53.445	0.975024	0.065636	0.14518	-0.021	0.093	0.4635	0	176	95	3
2026-02-12	16:11:46.850	-56.77	-17.99	49.07	0.956968	0.060024	0.175192	-0.0195	0.099	0.4695	0	176	95	3
2026-02-12	16:11:46.870	-66.395	-18.375	43.225	0.921832	0.159576	0.22204	-0.0195	0.108	0.4755	0	176	95	3
2026-02-12	16:11:46.890	-82.775	-16.415	30.835	0.945256	0.095404	0.155184	-0.0195	0.111	0.4785	0	176	95	3
2026-02-12	16:11:46.910	-33.95	-13.195	13.79	0.96502	0.115168	0.226676	-0.0165	0.1095	0.4755	0	176	95	3
2026-02-12	16:11:46.930	-35.77	-8.995	-0.735	1.001864	0.111752	0.223992	-0.009	0.1095	0.4785	0	176	95	3
2026-02-12	16:11:46.950	-37.485	-6.615	-14.56	1.02968	0.10004	0.209352	-0.0105	0.1065	0.4785	0	176	95	3
2026-02-12	16:11:46.970	-25.55	-9.1	-30.905	1.057496	0.082472	0.207156	-0.0105	0.108	0.4845	0	176	95	3
2026-02-12	16:11:46.990	-19.005	-10.815	-44.275	1.11264	0.046848	0.235948	-0.0045	0.1005	0.483	0	176	95	3
2026-02-12	16:11:47.010	-15.785	-11.445	-53.305	1.129232	0.009272	0.25132	-0.0045	0.09	0.4755	0	170	108	3
2026-02-12	16:11:47.030	-15.19	-14.315	-58.905	1.12362	-0.01586	0.274744	-0.0045	0.09	0.4755	0	170	108	3
2026-02-12	16:11:47.050	-15.89	-15.05	-60.06	1.11386	-0.036356	0.294752	-0.0135	0.081	0.4785	0	170	108	3
2026-02-12	16:11:47.070	-14.49	-11.375	-57.68	1.130208	-0.046604	0.318664	-0.0135	0.081	0.4785	0	170	108	3
2026-02-12	16:11:47.090	-10.22	0.77	-51.45	1.125572	0.01098	0.332816	-0.0135	0.0675	0.477	0	170	108	3
2026-02-12	16:11:47.110	-9.52	21.385	-42.77	1.13338	-0.046604	0.358192	-0.0045	0.051	0.471	0	170	108	3
2026-02-12	16:11:47.130	-28.77	42.805	-22.435	1.121912	-0.100284	0.229116	-0.009	0.0555	0.4635	0	170	108	3
2026-02-12	16:11:47.150	-24.15	47.845	7	1.153876	0.208376	-0.394792	-0.0045	0.0465	0.465	0	170	108	3
2026-02-12	16:11:47.170	70.945	15.155	-2.03	0.78934	0.423584	0.192028	-0.012	0.0405	0.4605	0	170	108	3
2026-02-12	16:11:47.190	-113.645	26.53	-4.76	1.066036	0.134444	-0.2318	-0.009	0.0465	0.456	0	170	108	3
2026-02-12	16:11:47.210	-12.985	11.305	-8.75	0.972828	0.168116	0	-0.015	0.054	0.465	0	166	128	3
2026-02-12	16:11:47.230	-41.16	18.34	-3.57	0.901824	0.16836	0.001708	-0.0225	0.0525	0.4545	0	166	128	3
2026-02-12	16:11:47.250	-28.56	27.3	-4.165	0.946964	0.173972	0.03904	-0.0225	0.0525	0.4545	0	166	128	3
2026-02-12	16:11:47.270	-18.76	29.785	-8.82	0.90524	0.285724	0.189588	-0.0225	0.0525	0.4545	0	166	128	3
2026-02-12	16:11:47.290	-49.175	46.27	-19.075	0.85644	0.272304	0.171044	-0.024	0.048	0.444	0	166	128	3
2026-02-12	16:11:47.310	-97.02	65.73	-20.125	0.865468	0.243756	0.118584	-0.027	0.042	0.435	0	166	128	3
2026-02-12	16:11:47.330	-70.245	75.39	-28.665	1.045052	0.329156	-0.03904	-0.0345	0.042	0.432	0	166	128	3
2026-02-12	16:11:47.350	10.605	58.695	-53.025	0.976	0.262788	0.06734399	-0.039	0.039	0.4245	0	166	128	3
2026-02-12	16:11:47.370	30.66	48.51	-64.33	0.911828	0.174216	0.124684	-0.042	0.036	0.4125	0	166	128	3
2026-02-12	16:11:47.390	18.025	43.505	-62.58	0.926468	0.120536	0.107116	-0.0495	0.0285	0.411	0	166	128	3
2026-02-12	16:11:47.410	-12.845	33.075	-55.615	0.831796	0.19032	0.335988	-0.0465	0.015	0.4125	0	166	135	3
2026-02-12	16:11:47.430	-48.16	51.73	-47.67	0.959408	0.062952	0.364292	-0.045	0.006	0.4065	0	166	135	3
2026-02-12	16:11:47.450	-120.995	55.965	-27.3	0.988444	0.129564	0.529968	-0.051	0.0045	0.402	0	166	135	3
2026-02-12	16:11:47.470	-201.39	60.9	-8.575	0.89182	0.15616	0.46238	-0.054	0.003	0.3915	0	166	135	3
2026-02-12	16:11:47.490	-177.73	77.14	-1.575	0.891576	0.357948	0.321836	-0.054	-0.0015	0.3765	0	166	135	3
2026-02-12	16:11:47.510	-61.11	72.905	-25.165	0.863272	0.31354	0.316224	-0.054	0	0.366	0	166	135	3
2026-02-12	16:11:47.530	-38.745	52.92	-38.535	0.992104	-0.006832	0.1342	-0.0585	0.0045	0.3585	0	166	135	3
2026-02-12	16:11:47.550	-61.495	12.285	-23.065	0.681736	0.153476	0.429196	-0.0615	0.003	0.3555	0	166	135	3
2026-02-12	16:11:47.570	-0.42	24.815	-24.815	0.841556	0.124928	0.607072	-0.06	-0.0015	0.357	0	166	135	3
2026-02-12	16:11:47.590	-9.905	34.825	-21.21	0.972828	0.12078	0.804956	-0.06	-0.0045	0.351	0	166	135	3
2026-02-12	16:11:47.610	-17.675	36.89	-9.905	0.983076	0.051484	0.814716	-0.0585	-0.0045	0.3435	0	170	160	3
2026-02-12	16:11:47.630	3.85	66.115	-1.575	0.786656	0.111264	0.783484	-0.057	-0.0045	0.3405	0	170	160	3
2026-02-12	16:11:47.650	21.035	94.815	-6.86	0.83204	0.23058	0.635864	-0.0615	-0.003	0.333	0	170	160	3
2026-02-12	16:11:47.670	-27.055	104.265	-9.17	0.8601	0.203252	0.623908	-0.063	-0.0045	0.321	0	170	160	3
2026-02-12	16:11:47.690	-46.2	106.085	-7.105	0.896456	0.187636	0.77348	-0.063	-0.0075	0.3	0	170	160	3
2026-02-12	16:11:47.710	-41.3	110.565	-3.255	1.0126	0.131272	0.74786	-0.06	-0.0045	0.2895	0	170	160	3
2026-02-12	16:11:47.730	-36.225	83.335	2.065	0.798368	0.160308	0.815448	-0.054	0	0.2805	0	170	160	3
2026-02-12	16:11:47.750	-24.92	87.465	0.875	0.707844	0.17934	0.832772	-0.0525	0.003	0.2685	0	170	160	3
2026-02-12	16:11:47.770	-6.755	96.18	-7	0.743224	0.17812	0.826428	-0.051	0.0045	0.261	0	170	160	3
2026-02-12	16:11:47.790	15.505	92.89	-14.28	0.798368	0.110288	0.815204	-0.048	0.0015	0.2505	0	170	160	3
2026-02-12	16:11:47.810	28	84.56	-14.805	0.721752	0.215696	0.706868	-0.048	0.0015	0.24	0	180	238	3
2026-02-12	16:11:47.830	63.875	64.365	-18.305	0.727852	0.333304	0.693692	-0.048	0.0015	0.231	0	180	238	3
2026-02-12	16:11:47.850	37.38	54.74	-16.765	0.660508	0.223504	0.624152	-0.0435	0	0.2235	0	180	238	3
2026-02-12	16:11:47.870	31.045	36.19	-12.67	0.779824	0.242048	0.641964	-0.039	0	0.2175	0	180	238	3
2026-02-12	16:11:47.890	34.545	37.73	-15.575	1.224392	0.327692	0.78812	-0.036	-0.0045	0.2175	0	180	238	3
2026-02-12	16:11:47.910	22.295	109.235	5.705	0.376248	0.064172	0.265716	-0.0345	-0.012	0.213	0	180	238	3
2026-02-12	16:11:47.930	-3.465	62.055	33.915	0.446276	0.42822	0.541924	-0.0285	-0.0135	0.2025	0	180	238	3
2026-02-12	16:11:47.950	56.42	71.925	23.38	0.453108	0.404064	0.504592	-0.03	-0.0075	0.195	0	180	238	3
2026-02-12	16:11:47.970	68.11	72.38	8.365	0.556564	0.399916	0.617076	-0.027	-0.003	0.1845	0	180	238	3
2026-02-12	16:11:47.990	71.715	83.86	-0.175	0.853756	0.219112	0.65148	-0.018	-0.0105	0.171	0	180	238	3
2026-02-12	16:11:48.010	101.36	94.08	19.67	0.517768	0.1037	0.576816	-0.0135	-0.0165	0.156	0	195	344	3
2026-02-12	16:11:48.030	98.035	78.26	16.345	0.004636	0.766648	1.136552	-0.0135	-0.018	0.141	0	195	344	3
2026-02-12	16:11:48.050	-27.02	49.805	-5.11	0.323788	0.520452	0.770308	-0.0165	-0.0195	0.129	0	195	344	3
2026-02-12	16:11:48.070	-51.94	26.11	-9.73	0.416508	0.296704	0.752496	-0.012	-0.0195	0.123	0	195	344	3
2026-02-12	16:11:48.090	-78.47	29.75	-12.425	0.601704	0.124196	0.847412	-0.0075	-0.018	0.123	0	195	344	3
2026-02-12	16:11:48.110	-50.05	54.775	-0.315	0.679296	0.050996	0.847656	-0.021	-0.015	0.1185	0	195	344	3
2026-02-12	16:11:48.130	-40.04	58.8	13.965	0.396256	0.091988	0.701744	-0.021	-0.015	0.1185	0	195	344	3
2026-02-12	16:11:48.150	4.13	19.915	17.85	-0.2989	0.393328	0.531188	-0.006	-0.0075	0.0975	0	195	344	3
2026-02-12	16:11:48.170	45.15	-4.235	-1.715	-0.037332	0.439444	0.762744	-0.0045	0	0.096	0	195	344	3
2026-02-12	16:11:48.190	14	-5.95	-17.85	0.4026	0.239852	1.171932	-0.0045	-0.003	0.0975	0	195	344	3
2026-02-12	16:11:48.210	-28.735	34.86	-14.91	0.6161	0.07686	0.793244	-0.0045	-0.003	0.0975	0	216	448	3
2026-02-12	16:11:48.230	12.95	43.225	-1.015	0.366488	0.1952	0.80764	0.0045	-0.003	0.0885	0	216	448	3
2026-02-12	16:11:48.250	10.885	67.97	35.63	0.491416	0.711016	0.858148	-0.0015	-0.0045	0.0825	0	216	448	3
2026-02-12	16:11:48.270	-43.05	107.87	114.1	-0.231556	0.32574	0.806664	-0.0015	-0.012	0.0855	0	216	448	3
2026-02-12	16:11:48.290	-52.045	16.1	31.64	-0.02074	0.33794	1.05652	-0.0135	0.027	0.054	0	216	448	3
2026-02-12	16:11:48.310	-66.43	1.645	-0.84	0.161284	0.275232	1.136796	-0.039	0.042	0.0315	0	216	448	3
2026-02-12	16:11:48.330	-60.095	41.79	-7.455	0.261324	0.127612	1.243424	-0.0345	0.039	0.0195	0	216	448	3
2026-02-12	16:11:48.350	-66.01	57.505	-6.58	0.384056	0.334036	0.93452	-0.045	0.0555	0.012	0	216	448	3
2026-02-12	16:11:48.370	-60.9	38.885	1.61	0.128832	0.391132	0.857172	-0.051	0.0495	-0.003	0	216	448	3
2026-02-12	16:11:48.390	-6.65	22.61	-18.515	0.18544	0.25864	1.041636	-0.0405	0.0705	-0.015	0	216	448	3
2026-02-12	16:11:48.410	25.655	29.855	-35.56	0.188856	0.18788	1.123864	-0.0555	0.072	-0.021	0	242	557	1
2026-02-12	16:11:48.430	22.575	33.005	-39.515	0.13664	0.27694	1.235616	-0.0615	0.0585	-0.0285	0	242	557	1
2026-02-12	16:11:48.450	-18.2	37.8	-45.465	0.251564	0.146644	1.283684	-0.0615	0.0585	-0.0285	0	242	557	1
2026-02-12	16:11:48.470	-43.68	46.27	-37.45	0.334768	0.152988	1.074088	-0.0615	0.0585	-0.0285	0	242	557	1
2026-02-12	16:11:48.490	-45.815	32.025	-24.22	0.356484	0.113704	1.038708	-0.057	0.0615	-0.0375	0	242	557	1
2026-02-12	16:11:48.510	-56.035	5.46	-8.75	0.413092	0.092964	0.87596	-0.0585	0.0705	-0.051	0	242	557	1
2026-02-12	16:11:48.530	15.05	-39.48	-13.825	1.392264	-0.06832	1.595028	-0.0675	0.0705	-0.066	0	242	557	1
2026-02-12	16:11:48.550	26.985	-36.155	32.235	0.765428	-0.006832	1.257088	-0.072	0.045	-0.108	0	242	557	1
2026-02-12	16:11:48.570	-9.695	30.415	96.39	-0.202276	0.331108	0.796416	-0.063	0.0105	-0.213	0	242	557	1
2026-02-12	16:11:48.590	9.975	54.145	77.735	-0.234728	0.392352	0.737368	0	-0.0315	-0.3525	0	242	557	1
2026-02-12	16:11:48.610	6.3	-10.92	25.165	0.473604	0.195932	0.783728	0.108	-0.093	-0.438	0	270	674	1
2026-02-12	16:11:48.630	56.595	-23.52	8.085	-0.205204	0.364536	0.6588	0.2055	-0.171	-0.426	0	270	674	1
2026-02-12	16:11:48.650	37.73	-62.545	-0.28	0.060756	0.35014	1.0614	0.2685	-0.219	-0.348	0	270	674	1
2026-02-12	16:11:48.670	-16.8	-36.015	-27.685	0.437004	0.14518	1.034072	0.2865	-0.2265	-0.2925	0	270	674	1
2026-02-12	16:11:48.690	-0.21	-13.195	-21.175	0.332084	0.220576	0.894748	0.282	-0.225	-0.2835	0	270	674	1
2026-02-12	16:11:48.710	2.975	4.83	-25.235	0.275476	0.290604	0.947696	0.273	-0.225	-0.2775	0	270	674	1
2026-02-12	16:11:48.730	16.38	18.55	-32.235	0.266936	0.314516	0.82472	0.27	-0.2265	-0.273	0	270	674	1
2026-02-12	16:11:48.750	35.56	13.16	-41.335	0.164944	0.359168	0.892552	0.273	-0.228	-0.2745	0	270	674	1
2026-02-12	16:11:48.770	34.405	19.285	-56.63	0.291824	0.171532	0.87474	0.2775	-0.2355	-0.273	0	270	674	1
2026-02-12	16:11:48.790	48.755	23.415	-61.285	0.081496	0.243512	0.811544	0.282	-0.2445	-0.2805	0	270	674	1
2026-02-12	16:11:48.810	41.23	13.16	-71.4	0.127124	0.356728	0.80276	0.291	-0.255	-0.291	0	296	766	1
2026-02-12	16:11:48.830	-16.31	6.65	-87.325	0.086376	0.375028	0.88206	0.3015	-0.27	-0.309	0	296	766	1
2026-02-12	16:11:48.850	-50.05	-0.525	-104.405	0.05612	0.010004	0.85034	0.3195	-0.291	-0.357	0	296	766	1
2026-02-12	16:11:48.870	-22.855	-15.75	-73.955	0.128588	0.2928	0.777628	0.3435	-0.3195	-0.4365	0	296	766	1
2026-02-12	16:11:48.890	-19.425	-35.35	-72.275	0.116388	0.609024	1.181692	0.36	-0.345	-0.5175	0	296	766	1
2026-02-12	16:11:48.910	-152.075	-30.205	-81.34	0.096624	-0.178608	1.13704	0.363	-0.336	-0.6135	0	296	766	1
2026-02-12	16:11:48.930	-66.5	-8.47	-62.965	0.126636	-0.43066	1.005036	0.3555	-0.2745	-0.7575	0	296	766	1
2026-02-12	16:11:48.950	-10.885	6.02	-13.335	0.160796	0.043188	0.87596	0.348	-0.225	-0.843	0	296	766	1
2026-02-12	16:11:48.970	6.02	-5.04	1.295	0.1464	0.09857599	0.996008	0.3465	-0.2235	-0.8505	0	296	766	1
2026-02-12	16:11:48.990	47.425	-17.045	10.255	0.158112	0.19032	1.142896	0.348	-0.2205	-0.8715	0	296	766	1
2026-02-12	16:11:49.010	95.025	-5.145	-2.975	0.10614	0.320372	1.115812	0.3495	-0.219	-0.8745	0	315	827	1
2026-02-12	16:11:49.030	90.125	2.66	-14.28	0.059536	0.16836	1.0187	0.345	-0.234	-0.8535	0	315	827	1
2026-02-12	16:11:49.050	75.075	-8.4	-3.955	0.214232	0.159576	1.186084	0.3405	-0.24	-0.8565	0	315	827	1
2026-02-12	16:11:49.070	79.625	-4.095	20.685	0.356728	0.428952	1.240984	0.3195	-0.2475	-0.8565	0	315	827	1
2026-02-12	16:11:49.090	14.105	2.31	41.86	0.174216	0.518256	1.121668	0.303	-0.2655	-0.8415	0	315	827	1
2026-02-12	16:11:49.110	-13.825	1.96	28.595	0.082472	0.501908	1.012112	0.3135	-0.2685	-0.8655	0	315	827	1
2026-02-12	16:11:49.130	-8.47	-12.775	1.995	0.15616	0.27694	1.035536	0.321	-0.249	-0.924	0	315	827	1
2026-02-12	16:11:49.150	52.395	-24.395	-17.29	0.260592	0.480924	1.148752	0.321	-0.2355	-0.9585	0	315	827	1
2026-02-12	16:11:49.170	63.91	-8.68	-35.49	0.276452	0.38674	1.087752	0.321	-0.2355	-0.9585	0	315	827	1
2026-02-12	16:11:49.190	38.325	4.515	-35.315	0.184952	0.320372	1.036024	0.3195	-0.171	-0.99	0	315	827	1
2026-02-12	16:11:49.210	-11.795	14.7	-25.165	0.233752	0.488	0.910608	0.3195	-0.171	-0.99	0	326	880	1
2026-02-12	16:11:49.230	-11.97	8.68	-34.09	0.2623	0.57096	0.825696	0.3195	0.027	-1.257	0	326	880	1
2026-02-12	16:11:49.250	24.99	-18.025	-41.755	0.291824	0.614636	0.79544	0.2535	0.1605	-1.368	0	326	880	1
2026-02-12	16:11:49.270	78.12	-25.865	-55.72	0.276208	0.262544	0.954772	0.141	0.282	-1.383	0	326	880	1
2026-02-12	16:11:49.290	63.035	-6.545	-41.02	0.329156	0.046848	0.996008	-0.0555	0.3045	-0.942	0	326	880	1
2026-02-12	16:11:49.310	53.06	26.495	-15.575	0.18178	0.425292	0.6466	-0.0585	0.141	-0.474	0	326	880	1
2026-02-12	16:11:49.330	51.345	7.28	-44.135	0.152744	0.396256	0.91744	-0.0315	0.0705	-0.4065	0	326	880	1
2026-02-12	16:11:49.350	6.72	31.71	-72.065	0.215696	0.29402	0.987712	-0.021	0.039	-0.3705	0	326	880	1
2026-02-12	16:11:49.370	-45.71	55.335	-68.39	0.191296	0.087108	-0.076128	0.0045	0.0105	-0.33	0	326	880	1
2026-02-12	16:11:49.390	174.755	-53.76	15.75	0.178608	0.289384	0.4453	0.0225	0.012	-0.312	0	326	880	1
2026-02-12	16:11:49.410	204.085	-84.805	-6.86	0.476532	1.029924	1.881484	0.0135	-0.027	-0.291	0	332	910	1
2026-02-12	16:11:49.430	15.82	-19.565	22.645	-0.060024	0.635132	0.498492	-0.03	-0.0945	-0.276	0	332	910	1
2026-02-12	16:11:49.450	-15.33	-15.54	21.805	-0.210328	0.619516	0.818864	-0.006	-0.1275	-0.2835	0	332	910	1
2026-02-12	16:11:49.470	85.54	-9.975	-36.75	0.188612	0.913048	0.550952	0.003	-0.1365	-0.288	0	332	910	1
2026-02-12	16:11:49.490	54.53	-28.525	-49.455	0.0183	0.453108	0.750056	0.0165	-0.162	-0.285	0	332	910	1
2026-02-12	16:11:49.510	-30.275	-50.225	-36.12	0.048556	0.2867	0.73688	0.012	-0.1755	-0.2775	0	332	910	1
2026-02-12	16:11:49.530	78.68	-52.255	-17.745	-0.000976	0.629276	0.553148	0.0075	-0.174	-0.2985	0	332	910	1
2026-02-12	16:11:49.550	148.645	-67.34	-17.5	0.050508	0.55388	0.994056	-0.009	-0.168	-0.3015	0	332	910	1
2026-02-12	16:11:49.570	84.455	-30.625	-3.605	0.070516	0.718824	1.046516	-0.0195	-0.1755	-0.291	0	332	910	1
2026-02-12	16:11:49.590	48.825	-19.005	-15.575	0.050508	0.529724	0.931836	-0.0195	-0.195	-0.285	0	332	910	1
2026-02-12	16:11:49.610	52.22	-17.325	-0.455	0.13298	0.60634	0.940376	-0.0195	-0.195	-0.285	0	337	907	1
2026-02-12	16:11:49.630	47.215	-18.27	-22.82	0.224236	0.51972	0.977952	-0.0195	-0.195	-0.285	0	337	907	1
2026-02-12	16:11:49.650	32.025	-16.38	-13.195	0.334524	0.830088	0.940132	-0.0255	-0.1875	-0.192	0	337	907	1
2026-02-12	16:11:49.670	28.595	-20.09	-21.455	0.164944	0.647576	1.050664	-0.0105	-0.165	-0.0705	0	337	907	1
2026-02-12	16:11:49.690	43.33	-19.32	-5.46	0.213012	0.805932	0.789584	0.0135	-0.1485	-0.03	0	337	907	1
2026-02-12	16:11:49.710	21.91	-5.145	6.72	0.226188	0.810568	0.914268	0.009	-0.147	-0.0315	0	337	907	1
2026-02-12	16:11:49.730	-1.26	11.62	11.655	0.23912	1.00162	1.001376	0	-0.1425	-0.039	0	337	907	1
2026-02-12	16:11:49.750	-31.85	33.81	-13.93	0.159576	0.796172	0.728584	-0.006	-0.1395	-0.051	0	337	907	1
2026-02-12	16:11:49.770	-8.75	19.705	-20.09	0.169824	0.829112	0.766648	-0.006	-0.1365	-0.0615	0	337	907	1
2026-02-12	16:11:49.790	-8.96	3.605	-23.8	0.098088	0.93696	0.879376	-0.0015	-0.1365	-0.0585	0	337	907	1
2026-02-12	16:11:49.810	-28.56	-0.07	-40.005	0.131028	0.871324	0.6893	0	-0.1455	-0.0645	0	342	897	1
2026-02-12	16:11:49.830	-4.445	-11.27	-46.725	0.235216	0.853756	0.703452	0.0045	-0.1515	-0.0675	0	342	897	1
2026-02-12	16:11:49.850	1.12	-11.935	-47.25	0.385764	0.827648	0.784216	0.0165	-0.156	-0.0645	0	342	897	1
2026-02-12	16:11:49.870	-12.39	0.035	-37.485	0.30622	0.77958	0.744932	0.0225	-0.159	-0.066	0	342	897	1
2026-02-12	16:11:49.890	-7.455	-3.57	-36.855	0.214964	0.68686	0.650504	0.0195	-0.1605	-0.0735	0	342	897	1
2026-02-12	16:11:49.910	-21	-4.06	-32.55	0.1891	0.675392	0.585844	0.018	-0.1575	-0.078	0	342	897	1
2026-02-12	16:11:49.930	-21.35	-0.28	-29.19	0.200324	0.561444	0.63562	0.0195	-0.156	-0.093	0	342	897	1
2026-02-12	16:11:49.950	-12.6	-0.035	-26.495	0.213012	0.509716	0.616588	0.027	-0.1545	-0.1065	0	342	897	1
2026-02-12	16:11:49.970	-12.705	-6.055	-17.045	0.227164	0.490928	0.588772	0.0345	-0.1455	-0.111	0	342	897	1
2026-02-12	16:11:49.990	-3.815	-6.055	-4.515	0.194224	0.63074	0.610488	0.0375	-0.138	-0.114	0	342	897	1
2026-02-12	16:11:50.010	-4.655	-9.1	-2.205	0.127124	0.698572	0.65514	0.039	-0.1305	-0.1065	0	343	874	1
2026-02-12	16:11:50.030	-40.67	-8.015	1.19	0.295972	0.669536	0.7625	0.045	-0.126	-0.099	0	343	874	1
2026-02-12	16:11:50.050	-69.895	2.975	12.67	0.173972	0.617564	0.681004	0.045	-0.1245	-0.105	0	343	874	1
2026-02-12	16:11:50.070	-46.725	-10.85	10.325	0.215696	0.614636	0.74664	0.042	-0.1275	-0.1095	0	343	874	1
2026-02-12	16:11:50.090	-48.51	-3.78	10.71	0.210572	0.806664	0.806664	0.048	-0.1245	-0.102	0	343	874	1
2026-02-12	16:11:50.110	-59.08	-1.155	-4.48	0.152256	0.571692	0.565836	0.054	-0.1185	-0.0855	0	343	874	1
2026-02-12	16:11:50.130	-5.285	-0.525	-5.705	0.010492	0.423584	0.708576	0.066	-0.1035	-0.057	0	343	874	1
2026-02-12	16:11:50.150	15.715	-7.28	2.065	0.044652	0.49654	0.868152	0.084	-0.09	-0.036	0	343	874	1
2026-02-12	16:11:50.170	-30.8	0.7	10.64	0.069052	0.47702	0.763476	0.0855	-0.09	-0.036	0	343	874	1
2026-02-12	16:11:50.190	-41.09	2.8	24.5	0.23302	0.354532	0.691008	0.0855	-0.0885	-0.045	0	343	874	1
