yyyy-MM-dd	HH:mm:ss.fff	gyrX	gyrY	gyrZ	accX	accY	accZ	magX	magY	magZ	Marker	Energy	Angle	Classification
2026-02-12	16:11:16.810	-3.71	-67.235	146.51	0.111508	-0.743224	-0.096136	0.2505	0.933	0.0825	0	182	229	3
2026-02-12	16:11:16.830	-6.195	-66.255	136.57	0.062708	-0.743224	-0.06954	0.282	0.9405	0.087	0	182	229	3
2026-02-12	16:11:16.850	1.015	-64.995	119.735	0.002196	-0.609756	-0.047092	0.2955	0.945	0.0855	0	182	229	3
2026-02-12	16:11:16.870	-3.605	-62.615	105.805	0.023424	-0.795928	-0.032452	0.3165	0.9525	0.0885	0	182	229	3
2026-02-12	16:11:16.890	-7.77	-59.01	97.195	-0.009516	-0.807396	-0.050508	0.324	0.9525	0.099	0	182	229	3
2026-02-12	16:11:16.910	-13.51	-57.33	86.415	-0.030256	-0.810568	-0.110288	0.348	0.969	0.099	0	182	229	3
2026-02-12	16:11:16.930	-13.895	-53.725	72.975	-0.068076	-0.806664	-0.103456	0.369	0.966	0.1125	0	182	229	3
2026-02-12	16:11:16.950	-8.855	-50.855	61.18	-0.055144	-0.844728	-0.12078	0.369	0.966	0.1125	0	182	229	3
2026-02-12	16:11:16.970	-14.28	-48.615	56.455	-0.052704	-0.909632	-0.160796	0.39	0.9735	0.1185	0	182	229	3
2026-02-12	16:11:16.990	-21.42	-46.62	51.66	-0.105164	-0.836188	-0.161284	0.399	0.972	0.1125	0	182	229	3
2026-02-12	16:11:17.010	-22.96	-42.875	44.73	-0.160064	-0.791048	-0.129076	0.414	0.975	0.1215	0	197	176	3
2026-02-12	16:11:17.030	-15.715	-38.955	37.8	-0.176656	-0.884012	-0.148596	0.4155	0.9795	0.129	0	197	176	3
2026-02-12	16:11:17.050	2.975	-36.61	31.92	-0.238144	-0.863028	-0.122244	0.4245	0.9795	0.1215	0	197	176	3
2026-02-12	16:11:17.070	18.025	-31.85	27.475	-0.238632	-0.863272	-0.070272	0.441	0.9915	0.138	0	197	176	3
2026-02-12	16:11:17.090	20.3	-27.335	24.675	-0.27816	-0.8967	-0.088328	0.4395	0.978	0.132	0	197	176	3
2026-02-12	16:11:17.110	20.93	-22.715	22.715	-0.319884	-0.88938	-0.07198	0.447	0.9825	0.1215	0	197	176	3
2026-02-12	16:11:17.130	19.985	-18.9	19.74	-0.360876	-0.888892	-0.07515199	0.4425	0.975	0.126	0	197	176	3
2026-02-12	16:11:17.150	10.255	-15.785	13.825	-0.382836	-0.830332	-0.066124	0.45	0.975	0.1215	0	197	176	3
2026-02-12	16:11:17.170	7.28	-14.28	10.08	-0.389912	-0.838628	-0.046604	0.4545	0.9825	0.1215	0	197	176	3
2026-02-12	16:11:17.190	4.69	-13.09	6.02	-0.395768	-0.844484	-0.041236	0.4605	0.9825	0.117	0	197	176	3
2026-02-12	16:11:17.210	3.605	-13.615	2.275	-0.40748	-0.86498	-0.065636	0.465	0.978	0.1245	0	225	111	3
2026-02-12	16:11:17.230	5.425	-14.63	-1.47	-0.397964	-0.886696	-0.057584	0.462	0.984	0.123	0	225	111	3
2026-02-12	16:11:17.250	3.01	-15.19	-3.99	-0.3904	-0.899384	-0.041968	0.465	0.9885	0.126	0	225	111	3
2026-02-12	16:11:17.270	-6.23	-14.945	-5.81	-0.393328	-0.898408	-0.035868	0.468	0.9825	0.12	0	225	111	3
2026-02-12	16:11:17.290	-15.26	-14.525	-7.35	-0.386496	-0.897432	-0.067588	0.4725	0.9825	0.12	0	225	111	3
2026-02-12	16:11:17.310	-19.845	-14.385	-9.59	-0.383812	-0.906948	-0.101504	0.462	0.984	0.117	0	225	111	3
2026-02-12	16:11:17.330	-17.395	-15.715	-11.97	-0.371368	-0.944036	-0.113704	0.4755	0.978	0.132	0	225	111	3
2026-02-12	16:11:17.350	-11.795	-17.5	-13.545	-0.354044	-0.957212	-0.114436	0.456	0.975	0.1245	0	225	111	3
2026-02-12	16:11:17.370	-9.17	-18.865	-14.175	-0.3355	-0.963312	-0.089304	0.4695	0.975	0.1335	0	225	111	3
2026-02-12	16:11:17.390	-12.915	-18.9	-13.965	-0.3294	-0.963068	-0.085644	0.4545	0.984	0.1305	0	225	111	3
2026-02-12	16:11:17.410	-17.15	-19.53	-13.58	-0.329156	-0.979416	-0.107116	0.45	0.987	0.1365	0	257	55	3
2026-02-12	16:11:17.430	-16.625	-20.65	-13.125	-0.321104	-0.96746	-0.122244	0.4545	0.981	0.135	0	257	55	3
2026-02-12	16:11:17.450	-12.145	-22.505	-12.67	-0.324764	-0.968192	-0.11468	0.4425	0.9825	0.135	0	257	55	3
2026-02-12	16:11:17.470	-8.19	-24.01	-11.655	-0.3172	-0.9638	-0.102236	0.4515	0.9795	0.138	0	257	55	3
2026-02-12	16:11:17.490	-5.53	-24.36	-10.325	-0.312076	-0.956724	-0.095648	0.4545	0.981	0.144	0	257	55	3
2026-02-12	16:11:17.510	-4.27	-24.115	-8.925	-0.320372	-0.943548	-0.088084	0.456	0.984	0.135	0	257	55	3
2026-02-12	16:11:17.530	-7.49	-23.555	-6.72	-0.321592	-0.935008	-0.089548	0.441	0.9795	0.147	0	257	55	3
2026-02-12	16:11:17.550	-10.43	-22.96	-4.06	-0.327448	-0.947208	-0.101504	0.4545	0.9825	0.15	0	257	55	3
2026-02-12	16:11:17.570	-10.395	-22.75	-0.7	-0.314516	-0.944524	-0.122488	0.453	0.9705	0.1395	0	257	55	3
2026-02-12	16:11:17.590	-8.365	-21.455	1.89	-0.299876	-0.96258	-0.113948	0.4545	0.975	0.15	0	257	55	3
2026-02-12	16:11:17.610	-9.38	-20.16	2.555	-0.298656	-0.953308	-0.094428	0.45	0.9765	0.1485	0	282	11	3
2026-02-12	16:11:17.630	-13.02	-18.34	2.94	-0.298168	-0.964532	-0.08662	0.453	0.9735	0.147	0	282	11	3
2026-02-12	16:11:17.650	-17.08	-16.835	3.15	-0.299388	-0.923296	-0.077104	0.453	0.9855	0.1545	0	282	11	3
2026-02-12	16:11:17.670	-18.375	-16.03	2.45	-0.301584	-0.912072	-0.074908	0.453	0.972	0.1575	0	282	11	3
2026-02-12	16:11:17.690	-18.095	-17.395	1.015	-0.305976	-0.924516	-0.092232	0.459	0.9735	0.1605	0	282	11	3
2026-02-12	16:11:17.710	-17.815	-19.145	-0.42	-0.310124	-0.916952	-0.089792	0.4635	0.9855	0.1545	0	282	11	3
2026-02-12	16:11:17.730	-21.14	-20.545	-2.205	-0.310856	-0.912072	-0.077348	0.459	0.972	0.1665	0	282	11	3
2026-02-12	16:11:17.750	-26.32	-22.015	-3.99	-0.297924	-0.910364	-0.090524	0.4575	0.963	0.174	0	282	11	3
2026-02-12	16:11:17.770	-30.345	-23.31	-5.425	-0.313784	-0.93818	-0.133224	0.465	0.9705	0.1665	0	282	11	3
2026-02-12	16:11:17.790	-24.395	-23.275	-6.055	-0.316468	-0.951112	-0.126148	0.453	0.9705	0.177	0	282	11	3
2026-02-12	16:11:15.810	18.025	0.98	28.21	0.921588	-0.243024	0.213744	0.021	0.531	-0.072	0	294	228	2
2026-02-12	16:11:15.830	20.125	0.21	24.325	0.919148	-0.24156	0.22448	0.0195	0.534	-0.0795	0	294	228	2
2026-02-12	16:11:15.850	19.81	-0.595	20.545	0.926468	-0.24156	0.224724	0.018	0.543	-0.075	0	294	228	2
2026-02-12	16:11:15.870	17.185	-2.1	15.82	0.9333	-0.244244	0.218624	0.0255	0.5355	-0.075	0	294	228	2
2026-02-12	16:11:15.890	14.875	-2.695	13.125	0.939644	-0.258396	0.219844	0.0195	0.54	-0.0795	0	294	228	2
2026-02-12	16:11:15.910	13.755	-2.555	11.34	0.930128	-0.26108	0.225944	0.0135	0.546	-0.084	0	294	228	2
2026-02-12	16:11:15.930	10.64	-3.045	9.695	0.919636	-0.270352	0.230824	0.0285	0.5535	-0.0765	0	294	228	2
2026-02-12	16:11:15.950	7.42	-4.27	7.56	0.909876	-0.280356	0.233264	0.0195	0.5415	-0.066	0	294	228	2
2026-02-12	16:11:15.970	5.495	-6.02	4.76	0.90158	-0.28914	0.233752	0.027	0.5445	-0.066	0	294	228	2
2026-02-12	16:11:15.990	7	-7	1.68	0.905728	-0.308904	0.244244	0.018	0.549	-0.075	0	294	228	2
2026-02-12	16:11:16.010	8.645	-7	-1.785	0.910364	-0.31598	0.257908	0.018	0.549	-0.075	0	259	230	2
2026-02-12	16:11:16.030	7.35	-6.755	-2.8	0.89792	-0.311832	0.25742	0.021	0.5505	-0.069	0	259	230	2
2026-02-12	16:11:16.050	4.69	-7.525	-4.025	0.8967	-0.323788	0.252784	0.018	0.555	-0.0645	0	259	230	2
2026-02-12	16:11:16.070	3.29	-9.24	-6.02	0.904264	-0.33062	0.258396	0.0165	0.5385	-0.063	0	259	230	2
2026-02-12	16:11:16.090	5.215	-9.73	-8.015	0.917928	-0.349408	0.27206	0.0165	0.5385	-0.063	0	259	230	2
2026-02-12	16:11:16.110	7.14	-9.03	-9.275	0.919392	-0.350384	0.277672	0.0165	0.5385	-0.063	0	259	230	2
2026-02-12	16:11:16.130	7	-8.75	-10.08	0.910852	-0.349896	0.27938	0.0135	0.5475	-0.06	0	259	230	2
2026-02-12	16:11:16.150	5.74	-9.415	-10.08	0.903288	-0.36234	0.2745	0.0255	0.5505	-0.06	0	259	230	2
2026-02-12	16:11:16.170	4.725	-10.325	-9.59	0.902312	-0.367708	0.278648	0.0195	0.546	-0.0615	0	259	230	2
2026-02-12	16:11:16.190	6.23	-10.64	-8.75	0.906948	-0.379908	0.283284	0.0165	0.5355	-0.0555	0	259	230	2
2026-02-12	16:11:16.210	9.695	-10.745	-8.155	0.905972	-0.377956	0.282308	0.0195	0.537	-0.054	0	228	234	2
2026-02-12	16:11:16.230	12.18	-11.06	-7.595	0.905484	-0.370148	0.283772	0.012	0.543	-0.0495	0	228	234	2
2026-02-12	16:11:16.250	12.845	-11.095	-7.595	0.906216	-0.36478	0.2806	0.018	0.5355	-0.0495	0	228	234	2
2026-02-12	16:11:16.270	13.23	-10.85	-7.35	0.909144	-0.359168	0.280844	0.0165	0.531	-0.0525	0	228	234	2
2026-02-12	16:11:16.290	12.46	-9.695	-7.035	0.91744	-0.352824	0.277916	0.015	0.5295	-0.054	0	228	234	2
2026-02-12	16:11:16.310	10.92	-8.4	-6.265	0.926712	-0.365512	0.280112	0.015	0.534	-0.051	0	228	234	2
2026-02-12	16:11:16.330	10.99	-6.3	-4.165	0.939156	-0.375028	0.284748	0.0165	0.5385	-0.0495	0	228	234	2
2026-02-12	16:11:16.350	10.08	-4.48	-0.14	0.946232	-0.376248	0.283284	0.0165	0.531	-0.051	0	228	234	2
2026-02-12	16:11:16.370	6.44	-2.24	5.635	0.952576	-0.403332	0.288652	0.0135	0.531	-0.0435	0	228	234	2
2026-02-12	16:11:16.390	0.035	-0.28	13.895	0.972584	-0.429684	0.293288	0	0.5265	-0.045	0	228	234	2
2026-02-12	16:11:16.410	-9.87	2.765	26.53	1.016016	-0.488244	0.302072	0.0165	0.5325	-0.042	0	201	243	2
2026-02-12	16:11:16.430	-27.195	5.915	45.325	1.029924	-0.522404	0.281088	0.015	0.5355	-0.048	0	201	243	2
2026-02-12	16:11:16.450	-43.33	7.7	66.115	1.048712	-0.63074	0.263032	0.0165	0.5385	-0.0495	0	201	243	2
2026-02-12	16:11:16.470	-57.05	9.485	87.955	1.081652	-0.70394	0.235216	0.0045	0.5505	-0.051	0	201	243	2
2026-02-12	16:11:16.490	-61.845	12.11	113.19	1.109468	-0.72468	0.324764	0.0135	0.564	-0.0435	0	201	243	2
2026-02-12	16:11:16.510	-92.47	14.175	142.765	1.03212	-0.777628	0.264008	0.0105	0.5775	-0.0465	0	201	243	2
2026-02-12	16:11:16.530	-120.715	13.86	158.55	0.987712	-0.901336	0.22326	0.0105	0.5775	-0.0465	0	201	243	2
2026-02-12	16:11:16.550	-123.165	9.415	172.165	0.943792	-1.00772	0.181048	0.0195	0.621	-0.057	0	201	243	2
2026-02-12	16:11:16.570	-109.13	3.325	185.605	0.92842	-1.0248	0.157136	0.0375	0.657	-0.042	0	201	243	2
2026-02-12	16:11:16.590	-97.055	-0.28	200.13	0.734196	-0.939644	0.16104	0.0435	0.69	-0.0495	0	201	243	2
2026-02-12	16:11:16.610	-102.445	-6.825	203.56	0.7625	-1.009672	0.114192	0.0405	0.7125	-0.042	0	184	249	3
2026-02-12	16:11:16.630	-108.15	-10.955	209.58	0.685152	-0.965752	0.092964	0.06	0.7455	-0.0285	0	184	249	3
2026-02-12	16:11:16.650	-109.27	-20.055	212.1	0.620492	-0.96868	0.051972	0.078	0.7725	-0.0165	0	184	249	3
2026-02-12	16:11:16.670	-104.16	-27.545	209.44	0.580964	-1.031876	-0.014152	0.0915	0.7965	-0.009	0	184	249	3
2026-02-12	16:11:16.690	-90.44	-33.6	210	0.528016	-0.878644	0.009272	0.114	0.8205	0.009	0	184	249	3
2026-02-12	16:11:16.710	-92.995	-40.425	205.905	0.413824	-0.864004	-0.0549	0.132	0.8505	0.015	0	184	249	3
2026-02-12	16:11:16.730	-74.795	-53.2	195.475	0.382348	-0.92842	-0.06588	0.132	0.8505	0.015	0	184	249	3
2026-02-12	16:11:16.750	-47.215	-60.62	188.37	0.28426	-0.796904	-0.044164	0.171	0.8895	0.0435	0	184	249	3
2026-02-12	16:11:16.770	-29.82	-63.455	176.33	0.199592	-0.7076	-0.0488	0.195	0.906	0.0585	0	184	249	3
2026-02-12	16:11:16.790	-18.55	-65.345	161.315	0.1464	-0.749568	-0.073688	0.2325	0.9255	0.0705	0	184	249	3
2026-02-12	16:11:16.810	-3.71	-67.235	146.51	0.111508	-0.743224	-0.096136	0.2505	0.933	0.0825	0	182	229	3
2026-02-12	16:11:16.830	-6.195	-66.255	136.57	0.062708	-0.743224	-0.06954	0.282	0.9405	0.087	0	182	229	3
2026-02-12	16:11:16.850	1.015	-64.995	119.735	0.002196	-0.609756	-0.047092	0.2955	0.945	0.0855	0	182	229	3
2026-02-12	16:11:16.870	-3.605	-62.615	105.805	0.023424	-0.795928	-0.032452	0.3165	0.9525	0.0885	0	182	229	3
2026-02-12	16:11:16.890	-7.77	-59.01	97.195	-0.009516	-0.807396	-0.050508	0.324	0.9525	0.099	0	182	229	3
2026-02-12	16:11:16.910	-13.51	-57.33	86.415	-0.030256	-0.810568	-0.110288	0.348	0.969	0.099	0	182	229	3
2026-02-12	16:11:16.930	-13.895	-53.725	72.975	-0.068076	-0.806664	-0.103456	0.369	0.966	0.1125	0	182	229	3
2026-02-12	16:11:16.950	-8.855	-50.855	61.18	-0.055144	-0.844728	-0.12078	0.369	0.966	0.1125	0	182	229	3
2026-02-12	16:11:16.970	-14.28	-48.615	56.455	-0.052704	-0.909632	-0.160796	0.39	0.9735	0.1185	0	182	229	3
2026-02-12	16:11:16.990	-21.42	-46.62	51.66	-0.105164	-0.836188	-0.161284	0.399	0.972	0.1125	0	182	229	3
2026-02-12	16:11:17.010	-22.96	-42.875	44.73	-0.160064	-0.791048	-0.129076	0.414	0.975	0.1215	0	197	176	3
2026-02-12	16:11:17.030	-15.715	-38.955	37.8	-0.176656	-0.884012	-0.148596	0.4155	0.9795	0.129	0	197	176	3
2026-02-12	16:11:17.050	2.975	-36.61	31.92	-0.238144	-0.863028	-0.122244	0.4245	0.9795	0.1215	0	197	176	3
2026-02-12	16:11:17.070	18.025	-31.85	27.475	-0.238632	-0.863272	-0.070272	0.441	0.9915	0.138	0	197	176	3
2026-02-12	16:11:17.090	20.3	-27.335	24.675	-0.27816	-0.8967	-0.088328	0.4395	0.978	0.132	0	197	176	3
2026-02-12	16:11:17.110	20.93	-22.715	22.715	-0.319884	-0.88938	-0.07198	0.447	0.9825	0.1215	0	197	176	3
2026-02-12	16:11:17.130	19.985	-18.9	19.74	-0.360876	-0.888892	-0.07515199	0.4425	0.975	0.126	0	197	176	3
2026-02-12	16:11:17.150	10.255	-15.785	13.825	-0.382836	-0.830332	-0.066124	0.45	0.975	0.1215	0	197	176	3
2026-02-12	16:11:17.170	7.28	-14.28	10.08	-0.389912	-0.838628	-0.046604	0.4545	0.9825	0.1215	0	197	176	3
2026-02-12	16:11:17.190	4.69	-13.09	6.02	-0.395768	-0.844484	-0.041236	0.4605	0.9825	0.117	0	197	176	3
2026-02-12	16:11:17.210	3.605	-13.615	2.275	-0.40748	-0.86498	-0.065636	0.465	0.978	0.1245	0	225	111	3
2026-02-12	16:11:17.230	5.425	-14.63	-1.47	-0.397964	-0.886696	-0.057584	0.462	0.984	0.123	0	225	111	3
2026-02-12	16:11:17.250	3.01	-15.19	-3.99	-0.3904	-0.899384	-0.041968	0.465	0.9885	0.126	0	225	111	3
2026-02-12	16:11:17.270	-6.23	-14.945	-5.81	-0.393328	-0.898408	-0.035868	0.468	0.9825	0.12	0	225	111	3
2026-02-12	16:11:17.290	-15.26	-14.525	-7.35	-0.386496	-0.897432	-0.067588	0.4725	0.9825	0.12	0	225	111	3
2026-02-12	16:11:17.310	-19.845	-14.385	-9.59	-0.383812	-0.906948	-0.101504	0.462	0.984	0.117	0	225	111	3
2026-02-12	16:11:17.330	-17.395	-15.715	-11.97	-0.371368	-0.944036	-0.113704	0.4755	0.978	0.132	0	225	111	3
2026-02-12	16:11:17.350	-11.795	-17.5	-13.545	-0.354044	-0.957212	-0.114436	0.456	0.975	0.1245	0	225	111	3
2026-02-12	16:11:17.370	-9.17	-18.865	-14.175	-0.3355	-0.963312	-0.089304	0.4695	0.975	0.1335	0	225	111	3
2026-02-12	16:11:17.390	-12.915	-18.9	-13.965	-0.3294	-0.963068	-0.085644	0.4545	0.984	0.1305	0	225	111	3
2026-02-12	16:11:17.410	-17.15	-19.53	-13.58	-0.329156	-0.979416	-0.107116	0.45	0.987	0.1365	0	257	55	3
2026-02-12	16:11:17.430	-16.625	-20.65	-13.125	-0.321104	-0.96746	-0.122244	0.4545	0.981	0.135	0	257	55	3
2026-02-12	16:11:17.450	-12.145	-22.505	-12.67	-0.324764	-0.968192	-0.11468	0.4425	0.9825	0.135	0	257	55	3
2026-02-12	16:11:17.470	-8.19	-24.01	-11.655	-0.3172	-0.9638	-0.102236	0.4515	0.9795	0.138	0	257	55	3
2026-02-12	16:11:17.490	-5.53	-24.36	-10.325	-0.312076	-0.956724	-0.095648	0.4545	0.981	0.144	0	257	55	3
2026-02-12	16:11:17.510	-4.27	-24.115	-8.925	-0.320372	-0.943548	-0.088084	0.456	0.984	0.135	0	257	55	3
2026-02-12	16:11:17.530	-7.49	-23.555	-6.72	-0.321592	-0.935008	-0.089548	0.441	0.9795	0.147	0	257	55	3
2026-02-12	16:11:17.550	-10.43	-22.96	-4.06	-0.327448	-0.947208	-0.101504	0.4545	0.9825	0.15	0	257	55	3
2026-02-12	16:11:17.570	-10.395	-22.75	-0.7	-0.314516	-0.944524	-0.122488	0.453	0.9705	0.1395	0	257	55	3
2026-02-12	16:11:17.590	-8.365	-21.455	1.89	-0.299876	-0.96258	-0.113948	0.4545	0.975	0.15	0	257	55	3
2026-02-12	16:11:17.610	-9.38	-20.16	2.555	-0.298656	-0.953308	-0.094428	0.45	0.9765	0.1485	0	282	11	3
2026-02-12	16:11:17.630	-13.02	-18.34	2.94	-0.298168	-0.964532	-0.08662	0.453	0.9735	0.147	0	282	11	3
2026-02-12	16:11:17.650	-17.08	-16.835	3.15	-0.299388	-0.923296	-0.077104	0.453	0.9855	0.1545	0	282	11	3
2026-02-12	16:11:17.670	-18.375	-16.03	2.45	-0.301584	-0.912072	-0.074908	0.453	0.972	0.1575	0	282	11	3
2026-02-12	16:11:17.690	-18.095	-17.395	1.015	-0.305976	-0.924516	-0.092232	0.459	0.9735	0.1605	0	282	11	3
2026-02-12	16:11:17.710	-17.815	-19.145	-0.42	-0.310124	-0.916952	-0.089792	0.4635	0.9855	0.1545	0	282	11	3
2026-02-12	16:11:17.730	-21.14	-20.545	-2.205	-0.310856	-0.912072	-0.077348	0.459	0.972	0.1665	0	282	11	3
2026-02-12	16:11:17.750	-26.32	-22.015	-3.99	-0.297924	-0.910364	-0.090524	0.4575	0.963	0.174	0	282	11	3
2026-02-12	16:11:17.770	-30.345	-23.31	-5.425	-0.313784	-0.93818	-0.133224	0.465	0.9705	0.1665	0	282	11	3
2026-02-12	16:11:17.790	-24.395	-23.275	-6.055	-0.316468	-0.951112	-0.126148	0.453	0.9705	0.177	0	282	11	3
2026-02-12	16:11:15.810	18.025	0.98	28.21	0.921588	-0.243024	0.213744	0.021	0.531	-0.072	0	294	228	2
2026-02-12	16:11:15.830	20.125	0.21	24.325	0.919148	-0.24156	0.22448	0.0195	0.534	-0.0795	0	294	228	2
2026-02-12	16:11:15.850	19.81	-0.595	20.545	0.926468	-0.24156	0.224724	0.018	0.543	-0.075	0	294	228	2
2026-02-12	16:11:15.870	17.185	-2.1	15.82	0.9333	-0.244244	0.218624	0.0255	0.5355	-0.075	0	294	228	2
2026-02-12	16:11:15.890	14.875	-2.695	13.125	0.939644	-0.258396	0.219844	0.0195	0.54	-0.0795	0	294	228	2
2026-02-12	16:11:15.910	13.755	-2.555	11.34	0.930128	-0.26108	0.225944	0.0135	0.546	-0.084	0	294	228	2
2026-02-12	16:11:15.930	10.64	-3.045	9.695	0.919636	-0.270352	0.230824	0.0285	0.5535	-0.0765	0	294	228	2
2026-02-12	16:11:15.950	7.42	-4.27	7.56	0.909876	-0.280356	0.233264	0.0195	0.5415	-0.066	0	294	228	2
2026-02-12	16:11:15.970	5.495	-6.02	4.76	0.90158	-0.28914	0.233752	0.027	0.5445	-0.066	0	294	228	2
2026-02-12	16:11:15.990	7	-7	1.68	0.905728	-0.308904	0.244244	0.018	0.549	-0.075	0	294	228	2
2026-02-12	16:11:16.010	8.645	-7	-1.785	0.910364	-0.31598	0.257908	0.018	0.549	-0.075	0	259	230	2
2026-02-12	16:11:16.030	7.35	-6.755	-2.8	0.89792	-0.311832	0.25742	0.021	0.5505	-0.069	0	259	230	2
2026-02-12	16:11:16.050	4.69	-7.525	-4.025	0.8967	-0.323788	0.252784	0.018	0.555	-0.0645	0	259	230	2
2026-02-12	16:11:16.070	3.29	-9.24	-6.02	0.904264	-0.33062	0.258396	0.0165	0.5385	-0.063	0	259	230	2
2026-02-12	16:11:16.090	5.215	-9.73	-8.015	0.917928	-0.349408	0.27206	0.0165	0.5385	-0.063	0	259	230	2
2026-02-12	16:11:16.110	7.14	-9.03	-9.275	0.919392	-0.350384	0.277672	0.0165	0.5385	-0.063	0	259	230	2
2026-02-12	16:11:16.130	7	-8.75	-10.08	0.910852	-0.349896	0.27938	0.0135	0.5475	-0.06	0	259	230	2
2026-02-12	16:11:16.150	5.74	-9.415	-10.08	0.903288	-0.36234	0.2745	0.0255	0.5505	-0.06	0	259	230	2
2026-02-12	16:11:16.170	4.725	-10.325	-9.59	0.902312	-0.367708	0.278648	0.0195	0.546	-0.0615	0	259	230	2
2026-02-12	16:11:16.190	6.23	-10.64	-8.75	0.906948	-0.379908	0.283284	0.0165	0.5355	-0.0555	0	259	230	2
2026-02-12	16:11:16.210	9.695	-10.745	-8.155	0.905972	-0.377956	0.282308	0.0195	0.537	-0.054	0	228	234	2
2026-02-12	16:11:16.230	12.18	-11.06	-7.595	0.905484	-0.370148	0.283772	0.012	0.543	-0.0495	0	228	234	2
2026-02-12	16:11:16.250	12.845	-11.095	-7.595	0.906216	-0.36478	0.2806	0.018	0.5355	-0.0495	0	228	234	2
2026-02-12	16:11:16.270	13.23	-10.85	-7.35	0.909144	-0.359168	0.280844	0.0165	0.531	-0.0525	0	228	234	2
2026-02-12	16:11:16.290	12.46	-9.695	-7.035	0.91744	-0.352824	0.277916	0.015	0.5295	-0.054	0	228	234	2
2026-02-12	16:11:16.310	10.92	-8.4	-6.265	0.926712	-0.365512	0.280112	0.015	0.534	-0.051	0	228	234	2
2026-02-12	16:11:16.330	10.99	-6.3	-4.165	0.939156	-0.375028	0.284748	0.0165	0.5385	-0.0495	0	228	234	2
2026-02-12	16:11:16.350	10.08	-4.48	-0.14	0.946232	-0.376248	0.283284	0.0165	0.531	-0.051	0	228	234	2
2026-02-12	16:11:16.370	6.44	-2.24	5.635	0.952576	-0.403332	0.288652	0.0135	0.531	-0.0435	0	228	234	2
2026-02-12	16:11:16.390	0.035	-0.28	13.895	0.972584	-0.429684	0.293288	0	0.5265	-0.045	0	228	234	2
2026-02-12	16:11:16.410	-9.87	2.765	26.53	1.016016	-0.488244	0.302072	0.0165	0.5325	-0.042	0	201	243	2
2026-02-12	16:11:16.430	-27.195	5.915	45.325	1.029924	-0.522404	0.281088	0.015	0.5355	-0.048	0	201	243	2
2026-02-12	16:11:16.450	-43.33	7.7	66.115	1.048712	-0.63074	0.263032	0.0165	0.5385	-0.0495	0	201	243	2
2026-02-12	16:11:16.470	-57.05	9.485	87.955	1.081652	-0.70394	0.235216	0.0045	0.5505	-0.051	0	201	243	2
2026-02-12	16:11:16.490	-61.845	12.11	113.19	1.109468	-0.72468	0.324764	0.0135	0.564	-0.0435	0	201	243	2
2026-02-12	16:11:16.510	-92.47	14.175	142.765	1.03212	-0.777628	0.264008	0.0105	0.5775	-0.0465	0	201	243	2
2026-02-12	16:11:16.530	-120.715	13.86	158.55	0.987712	-0.901336	0.22326	0.0105	0.5775	-0.0465	0	201	243	2
2026-02-12	16:11:16.550	-123.165	9.415	172.165	0.943792	-1.00772	0.181048	0.0195	0.621	-0.057	0	201	243	2
2026-02-12	16:11:16.570	-109.13	3.325	185.605	0.92842	-1.0248	0.157136	0.0375	0.657	-0.042	0	201	243	2
2026-02-12	16:11:16.590	-97.055	-0.28	200.13	0.734196	-0.939644	0.16104	0.0435	0.69	-0.0495	0	201	243	2
2026-02-12	16:11:16.610	-102.445	-6.825	203.56	0.7625	-1.009672	0.114192	0.0405	0.7125	-0.042	0	184	249	3
2026-02-12	16:11:16.630	-108.15	-10.955	209.58	0.685152	-0.965752	0.092964	0.06	0.7455	-0.0285	0	184	249	3
2026-02-12	16:11:16.650	-109.27	-20.055	212.1	0.620492	-0.96868	0.051972	0.078	0.7725	-0.0165	0	184	249	3
2026-02-12	16:11:16.670	-104.16	-27.545	209.44	0.580964	-1.031876	-0.014152	0.0915	0.7965	-0.009	0	184	249	3
2026-02-12	16:11:16.690	-90.44	-33.6	210	0.528016	-0.878644	0.009272	0.114	0.8205	0.009	0	184	249	3
2026-02-12	16:11:16.710	-92.995	-40.425	205.905	0.413824	-0.864004	-0.0549	0.132	0.8505	0.015	0	184	249	3
2026-02-12	16:11:16.730	-74.795	-53.2	195.475	0.382348	-0.92842	-0.06588	0.132	0.8505	0.015	0	184	249	3
2026-02-12	16:11:16.750	-47.215	-60.62	188.37	0.28426	-0.796904	-0.044164	0.171	0.8895	0.0435	0	184	249	3
2026-02-12	16:11:16.770	-29.82	-63.455	176.33	0.199592	-0.7076	-0.0488	0.195	0.906	0.0585	0	184	249	3
2026-02-12	16:11:16.790	-18.55	-65.345	161.315	0.1464	-0.749568	-0.073688	0.2325	0.9255	0.0705	0	184	249	3
2026-02-12	16:11:30.810	-8.19	35.175	-7.315	-0.189832	-0.978684	-0.191784	0.546	0.915	0.2415	0	359	176	3
2026-02-12	16:11:30.830	-3.395	30.135	0.525	-0.193248	-0.8845	-0.156404	0.546	0.9165	0.246	0	359	176	3
2026-02-12	16:11:30.850	7.42	24.955	8.645	-0.221552	-0.826184	-0.121512	0.54	0.915	0.2475	0	359	176	3
2026-02-12	16:11:30.870	19.355	20.37	14.63	-0.249368	-0.809348	-0.123952	0.5415	0.918	0.2385	0	359	176	3
2026-02-12	16:11:30.890	26.845	17.465	17.85	-0.254248	-0.819108	-0.115168	0.543	0.915	0.2295	0	359	176	3
2026-02-12	16:11:30.910	24.815	17.43	18.025	-0.267912	-0.842044	-0.13176	0.543	0.9105	0.2295	0	359	176	3
2026-02-12	16:11:30.930	12.95	19.425	16.625	-0.26718	-0.890844	-0.150792	0.5475	0.9165	0.237	0	359	176	3
2026-02-12	16:11:30.950	1.33	21.98	15.015	-0.2684	-0.91012	-0.16104	0.537	0.9255	0.234	0	359	176	3
2026-02-12	16:11:30.970	-4.83	24.535	12.495	-0.288652	-0.935984	-0.181048	0.537	0.915	0.2385	0	359	176	3
2026-02-12	16:11:30.990	-7.98	25.83	6.93	-0.294996	-0.965996	-0.169092	0.537	0.915	0.2385	0	359	176	3
2026-02-12	16:11:31.010	-9.52	25.41	2.94	-0.304268	-0.99064	-0.193492	0.534	0.918	0.2415	0	393	182	3
2026-02-12	16:11:31.030	-9.87	23.135	1.645	-0.315004	-0.977708	-0.182756	0.534	0.921	0.246	0	393	182	3
2026-02-12	16:11:31.050	-12.53	19.53	1.085	-0.3294	-0.929396	-0.143716	0.537	0.9165	0.2475	0	393	182	3
2026-02-12	16:11:31.070	-15.085	15.89	0.525	-0.343552	-0.919636	-0.09638	0.5355	0.9165	0.2445	0	393	182	3
2026-02-12	16:11:31.090	-13.93	11.445	0.105	-0.340868	-0.92598	-0.089792	0.531	0.9195	0.246	0	393	182	3
2026-02-12	16:11:31.110	-7.84	6.755	0.63	-0.351848	-0.906216	-0.081252	0.5295	0.918	0.249	0	393	182	3
2026-02-12	16:11:31.130	0.63	2.52	1.015	-0.361364	-0.888404	-0.092232	0.528	0.912	0.2535	0	393	182	3
2026-02-12	16:11:31.150	6.125	-1.645	1.505	-0.365268	-0.872544	-0.098088	0.525	0.912	0.252	0	393	182	3
2026-02-12	16:11:31.170	7.455	-4.27	2.24	-0.360876	-0.878156	-0.087596	0.537	0.9165	0.2475	0	393	182	3
2026-02-12	16:11:31.190	6.055	-4.69	2.73	-0.362828	-0.882304	-0.063196	0.5325	0.915	0.243	0	393	182	3
2026-02-12	16:11:31.210	4.55	-3.325	3.43	-0.361852	-0.892064	-0.060756	0.5295	0.915	0.246	0	397	175	2
2026-02-12	16:11:31.230	5.67	-2.905	3.78	-0.36844	-0.892796	-0.069052	0.5295	0.9135	0.249	0	397	175	2
2026-02-12	16:11:31.250	7.105	-3.71	4.795	-0.372588	-0.879376	-0.05368	0.537	0.912	0.249	0	397	175	2
2026-02-12	16:11:31.270	8.4	-4.83	6.23	-0.39894	-0.8845	-0.051484	0.5385	0.915	0.246	0	397	175	2
2026-02-12	16:11:31.290	7.595	-5.635	7.875	-0.419924	-0.887672	-0.046848	0.537	0.918	0.2415	0	397	175	2
2026-02-12	16:11:31.310	6.09	-6.44	8.785	-0.435052	-0.896456	-0.05002	0.54	0.918	0.2415	0	397	175	2
2026-02-12	16:11:31.330	4.48	-7.56	9.94	-0.436028	-0.910608	-0.05978	0.5415	0.9195	0.243	0	397	175	2
2026-02-12	16:11:31.350	3.36	-8.96	10.99	-0.437736	-0.91378	-0.080032	0.537	0.9105	0.249	0	397	175	2
2026-02-12	16:11:31.370	2.835	-10.01	10.535	-0.43554	-0.923784	-0.092232	0.5415	0.9225	0.2295	0	397	175	2
2026-02-12	16:11:31.390	4.655	-10.01	8.925	-0.41358	-0.979172	-0.116388	0.5475	0.9165	0.2385	0	397	175	2
2026-02-12	16:11:31.410	6.37	-7.455	6.335	-0.384544	-1.017236	-0.13176	0.5415	0.9105	0.243	0	381	159	2
2026-02-12	16:11:31.430	2.975	-4.585	4.27	-0.390644	-1.028216	-0.147864	0.5475	0.9105	0.243	0	381	159	2
2026-02-12	16:11:31.450	-0.14	-0.7	0.315	-0.421388	-1.050664	-0.17446	0.5505	0.9135	0.2385	0	381	159	2
2026-02-12	16:11:31.470	-5.355	3.045	-4.62	-0.43432	-1.130696	-0.206668	0.5535	0.915	0.237	0	381	159	2
2026-02-12	16:11:31.490	-11.48	3.745	-6.23	-0.39162	-1.12606	-0.23546	0.5535	0.918	0.243	0	381	159	2
2026-02-12	16:11:31.510	-14.42	1.4	-6.23	-0.347212	-1.072624	-0.239852	0.549	0.9165	0.2475	0	381	159	2
2026-02-12	16:11:31.530	-13.02	-2.835	-0.98	-0.340868	-0.985272	-0.195688	0.5505	0.912	0.249	0	381	159	2
2026-02-12	16:11:31.550	-9.905	-7.42	4.795	-0.337452	-0.905972	-0.162016	0.546	0.915	0.246	0	381	159	2
2026-02-12	16:11:31.570	-2.1	-11.095	8.19	-0.360388	-0.867908	-0.168604	0.5475	0.9075	0.2505	0	381	159	2
2026-02-12	16:11:31.590	5.25	-14.945	8.47	-0.357948	-0.860588	-0.172508	0.552	0.9015	0.258	0	381	159	2
2026-02-12	16:11:31.610	7.175	-19.39	6.685	-0.35746	-0.876204	-0.208864	0.558	0.9075	0.246	0	354	148	3
2026-02-12	16:11:31.630	2.905	-25.305	0.735	-0.36844	-0.906216	-0.244244	0.558	0.9075	0.246	0	354	148	3
2026-02-12	16:11:31.650	-1.085	-24.815	-4.655	-0.339404	-0.936716	-0.228872	0.555	0.9105	0.2415	0	354	148	3
2026-02-12	16:11:31.670	-4.165	-21.385	-8.855	-0.315492	-0.972828	-0.239364	0.558	0.909	0.2385	0	354	148	3
2026-02-12	16:11:31.690	-7.35	-18.06	-10.955	-0.306464	-0.975268	-0.243512	0.5655	0.909	0.2415	0	354	148	3
2026-02-12	16:11:31.710	-11.97	-17.5	-11.62	-0.306708	-0.953796	-0.249124	0.564	0.9135	0.2475	0	354	148	3
2026-02-12	16:11:31.730	-12.705	-17.78	-12.215	-0.308416	-0.91256	-0.248636	0.5625	0.9105	0.249	0	354	148	3
2026-02-12	16:11:31.750	-11.27	-18.515	-12.145	-0.31232	-0.890844	-0.206912	0.564	0.9075	0.246	0	354	148	3
2026-02-12	16:11:31.770	-11.025	-19.46	-10.745	-0.338184	-0.860344	-0.158844	0.5565	0.903	0.252	0	354	148	3
2026-02-12	16:11:31.790	-9.415	-19.88	-9.625	-0.342088	-0.848632	-0.146644	0.555	0.912	0.252	0	354	148	3
2026-02-12	16:11:31.810	-7.49	-19.6	-8.785	-0.35258	-0.84546	-0.151036	0.5655	0.9105	0.2475	0	321	153	3
2026-02-12	16:11:31.830	-3.955	-19.915	-9.45	-0.3477	-0.855708	-0.134932	0.5625	0.903	0.2595	0	321	153	3
2026-02-12	16:11:31.850	-1.05	-18.9	-10.22	-0.336964	-0.8479	-0.137616	0.561	0.909	0.2565	0	321	153	3
2026-02-12	16:11:31.870	5.565	-15.96	-11.515	-0.353068	-0.836676	-0.131516	0.564	0.912	0.252	0	321	153	3
2026-02-12	16:11:31.890	9.485	-12.705	-11.165	-0.359168	-0.838384	-0.117364	0.5655	0.9105	0.246	0	321	153	3
2026-02-12	16:11:31.910	6.44	-10.64	-9.59	-0.36356	-0.86498	-0.118096	0.564	0.915	0.2445	0	321	153	3
2026-02-12	16:11:31.930	1.96	-8.505	-7.175	-0.392596	-0.90402	-0.135176	0.564	0.9105	0.2475	0	321	153	3
2026-02-12	16:11:31.950	5.285	-5.915	-5.95	-0.400892	-0.875716	-0.128832	0.561	0.9105	0.252	0	321	153	3
2026-02-12	16:11:31.970	6.125	-3.99	-5.32	-0.410164	-0.85888	-0.122976	0.561	0.915	0.2595	0	321	153	3
2026-02-12	16:11:31.990	2.94	-2.38	-2.975	-0.40382	-0.876204	-0.117608	0.5655	0.9105	0.2385	0	321	153	3
2026-02-12	16:11:32.010	2.59	-0.595	-0.385	-0.404064	-0.90402	-0.108824	0.5655	0.9105	0.2385	0	287	159	3
2026-02-12	16:11:32.030	6.685	0.7	1.085	-0.404796	-0.903044	-0.112972	0.5565	0.909	0.243	0	287	159	3
2026-02-12	16:11:32.050	13.86	4.235	3.395	-0.406748	-0.941596	-0.1342	0.5565	0.912	0.243	0	287	159	3
2026-02-12	16:11:32.070	13.51	6.755	3.36	-0.406016	-0.96502	-0.13908	0.558	0.912	0.24	0	287	159	3
2026-02-12	16:11:32.090	12.565	9.975	0.805	-0.399428	-0.999668	-0.172508	0.5625	0.9135	0.234	0	287	159	3
2026-02-12	16:11:32.110	10.255	13.405	-1.19	-0.409188	-0.99796	-0.180072	0.5655	0.9135	0.237	0	287	159	3
2026-02-12	16:11:32.130	8.785	16.24	-3.78	-0.440908	-1.029192	-0.2013	0.5625	0.9135	0.24	0	287	159	3
2026-02-12	16:11:32.150	8.96	18.97	-7.875	-0.4392	-1.098732	-0.211304	0.5595	0.912	0.237	0	287	159	3
2026-02-12	16:11:32.170	7.105	22.435	-11.375	-0.395036	-1.17486	-0.231068	0.5595	0.9135	0.2385	0	287	159	3
2026-02-12	16:11:32.190	0.315	24.85	-12.425	-0.329644	-1.180716	-0.22692	0.5595	0.9135	0.243	0	287	159	3
2026-02-12	16:11:32.210	-5.46	25.69	-12.11	-0.287676	-1.145092	-0.205936	0.5475	0.9165	0.2325	0	256	160	3
2026-02-12	16:11:32.230	-5.075	24.465	-12.04	-0.233752	-1.073112	-0.17202	0.5445	0.9255	0.2415	0	256	160	3
2026-02-12	16:11:32.250	0.385	22.505	-9.065	-0.18422	-0.989176	-0.12566	0.5475	0.921	0.2415	0	256	160	3
2026-02-12	16:11:32.270	14.21	17.325	0.875	-0.200324	-0.842044	-0.054656	0.5475	0.921	0.2415	0	256	160	3
2026-02-12	16:11:32.290	27.23	12.88	7.665	-0.234728	-0.772504	-0.031232	0.543	0.9225	0.2385	0	256	160	3
2026-02-12	16:11:32.310	37.695	11.76	11.55	-0.265716	-0.775676	-0.045384	0.5385	0.927	0.237	0	256	160	3
2026-02-12	16:11:32.330	38.29	14.525	12.635	-0.274744	-0.810568	-0.072712	0.537	0.927	0.2355	0	256	160	3
2026-02-12	16:11:32.350	29.61	19.705	11.445	-0.265472	-0.876448	-0.112972	0.5415	0.9285	0.2295	0	256	160	3
2026-02-12	16:11:32.370	14.77	25.41	9.66	-0.245708	-0.936716	-0.15372	0.5445	0.9315	0.2235	0	256	160	3
2026-02-12	16:11:32.390	2.8	29.435	10.045	-0.225212	-0.944036	-0.150792	0.546	0.93	0.2205	0	256	160	3
2026-02-12	16:11:32.410	-2.345	31.01	11.83	-0.22448	-0.928176	-0.130296	0.54	0.936	0.225	0	230	159	3
2026-02-12	16:11:32.430	-2.1	30.94	13.02	-0.25864	-0.918904	-0.123464	0.5415	0.927	0.222	0	230	159	3
2026-02-12	16:11:32.450	4.375	29.855	14	-0.29402	-0.93452	-0.122732	0.537	0.93	0.228	0	230	159	3
2026-02-12	16:11:32.470	9.87	27.195	13.755	-0.334768	-0.914512	-0.115168	0.54	0.9255	0.222	0	230	159	3
2026-02-12	16:11:32.490	6.335	24.815	12.46	-0.36722	-0.8601	-0.104188	0.5385	0.93	0.222	0	230	159	3
2026-02-12	16:11:32.510	-3.43	23.45	10.29	-0.397476	-0.86132	-0.093452	0.5415	0.9345	0.222	0	230	159	3
2026-02-12	16:11:32.530	-11.655	21.455	7.56	-0.413824	-0.876448	-0.10858	0.5445	0.933	0.219	0	230	159	3
2026-02-12	16:11:32.550	-13.895	17.5	5.81	-0.423584	-0.895968	-0.11224	0.543	0.933	0.2205	0	230	159	3
2026-02-12	16:11:32.570	-10.815	13.475	4.69	-0.428952	-0.872056	-0.0854	0.54	0.9315	0.2235	0	230	159	3
2026-02-12	16:11:32.590	-9.59	9.135	4.375	-0.435296	-0.83692	-0.053192	0.537	0.93	0.2265	0	230	159	3
2026-02-12	16:11:32.610	-10.36	5.46	3.08	-0.430904	-0.839116	-0.04514	0.5325	0.936	0.219	0	209	150	3
2026-02-12	16:11:32.630	-11.235	1.855	2.905	-0.421632	-0.860832	-0.040016	0.546	0.93	0.228	0	209	150	3
2026-02-12	16:11:32.650	-10.22	-0.875	2.765	-0.418948	-0.873032	-0.050996	0.5415	0.9315	0.2325	0	209	150	3
2026-02-12	16:11:32.670	-8.89	-3.395	3.36	-0.421632	-0.881816	-0.055632	0.543	0.93	0.231	0	209	150	3
2026-02-12	16:11:32.690	-4.795	-6.23	3.78	-0.42578	-0.878888	-0.03294	0.543	0.9285	0.2325	0	209	150	3
2026-02-12	16:11:32.710	-3.395	-8.295	4.06	-0.433588	-0.864248	-0.00976	0.5415	0.927	0.231	0	209	150	3
2026-02-12	16:11:32.730	-2.66	-9.17	3.955	-0.434564	-0.882548	0.002684	0.54	0.9285	0.231	0	209	150	3
2026-02-12	16:11:32.750	-0.595	-10.325	3.57	-0.445544	-0.898896	-0.01342	0.543	0.9285	0.234	0	209	150	3
2026-02-12	16:11:32.770	4.2	-13.475	2.87	-0.44896	-0.90646	-0.015616	0.549	0.9255	0.2355	0	209	150	3
2026-02-12	16:11:32.790	7.385	-17.01	1.785	-0.459208	-0.896944	-0.025132	0.5505	0.927	0.234	0	209	150	3
2026-02-12	16:11:32.810	8.33	-19.25	-0.56	-0.453596	-0.922564	-0.044164	0.552	0.93	0.2355	0	193	134	3
2026-02-12	16:11:32.830	7.84	-19.39	-4.165	-0.435296	-0.998448	-0.072712	0.552	0.9405	0.2295	0	193	134	3
2026-02-12	16:11:32.850	2.485	-18.2	-7	-0.382348	-1.065548	-0.067588	0.5445	0.9285	0.228	0	193	134	3
2026-02-12	16:11:32.870	-4.935	-15.785	-7.21	-0.356972	-1.123864	-0.124928	0.5535	0.9315	0.231	0	193	134	3
2026-02-12	16:11:32.890	-3.64	-13.72	-7.665	-0.390644	-1.07604	-0.159332	0.549	0.939	0.234	0	193	134	3
2026-02-12	16:11:32.910	-7.77	-12.145	-9.73	-0.4087	-1.0797	-0.189832	0.549	0.939	0.234	0	193	134	3
2026-02-12	16:11:32.930	-14.35	-12.04	-10.71	-0.387716	-1.128988	-0.18178	0.5475	0.933	0.2295	0	193	134	3
2026-02-12	16:11:32.950	-14.35	-12.495	-9.625	-0.369904	-1.079944	-0.214964	0.552	0.93	0.2295	0	193	134	3
2026-02-12	16:11:32.970	-3.955	-13.65	-7.14	-0.360388	-0.936472	-0.166408	0.555	0.9345	0.228	0	193	134	3
2026-02-12	16:11:32.990	-1.155	-15.68	-3.605	-0.349652	-0.83692	-0.15616	0.5475	0.9345	0.228	0	193	134	3
2026-02-12	16:11:33.010	-1.225	-19.18	0.35	-0.364048	-0.858636	-0.163724	0.543	0.9345	0.2325	0	180	120	3
2026-02-12	16:11:33.030	2.205	-22.155	1.61	-0.359412	-0.882548	-0.160552	0.546	0.9315	0.2265	0	180	120	3
2026-02-12	16:11:33.050	4.795	-23.17	1.855	-0.341844	-0.901336	-0.160552	0.5625	0.9345	0.228	0	180	120	3
2026-02-12	16:11:33.070	5.775	-22.96	0.35	-0.335012	-0.895236	-0.17934	0.558	0.9345	0.231	0	180	120	3
2026-02-12	16:11:33.090	4.48	-21.77	-2.87	-0.322812	-0.887672	-0.188124	0.5595	0.933	0.228	0	180	120	3
2026-02-12	16:11:33.110	-2.24	-18.235	-7.315	-0.306464	-0.909144	-0.213012	0.5595	0.9315	0.2235	0	180	120	3
2026-02-12	16:11:33.130	-8.96	-14.56	-10.675	-0.304024	-0.938668	-0.232776	0.5595	0.9315	0.2235	0	180	120	3
2026-02-12	16:11:33.150	-14.07	-12.565	-12.215	-0.302316	-0.961116	-0.244	0.5535	0.936	0.222	0	180	120	3
2026-02-12	16:11:33.170	-17.08	-11.305	-13.335	-0.290848	-0.94672	-0.226432	0.552	0.936	0.228	0	180	120	3
2026-02-12	16:11:33.190	-17.64	-11.27	-13.72	-0.298168	-0.90524	-0.187392	0.5565	0.933	0.2355	0	180	120	3
2026-02-12	16:11:33.210	-17.465	-12.075	-13.195	-0.314028	-0.867908	-0.15494	0.552	0.9285	0.234	0	170	122	3
2026-02-12	16:11:33.230	-16.275	-13.09	-12.88	-0.329156	-0.855952	-0.138348	0.5475	0.921	0.2355	0	170	122	3
2026-02-12	16:11:33.250	-12.46	-14.735	-12.53	-0.35502	-0.843752	-0.12566	0.5565	0.93	0.234	0	170	122	3
2026-02-12	16:11:33.270	-6.86	-16.695	-12.11	-0.376736	-0.824476	-0.107604	0.5475	0.936	0.237	0	170	122	3
2026-02-12	16:11:33.290	-4.095	-18.025	-11.76	-0.384544	-0.7991	-0.090036	0.555	0.936	0.2445	0	170	122	3
2026-02-12	16:11:33.310	-4.62	-18.06	-11.655	-0.397232	-0.805688	-0.07808	0.552	0.936	0.243	0	170	122	3
2026-02-12	16:11:33.330	-5.915	-16.415	-11.515	-0.412604	-0.838628	-0.08686399	0.5505	0.933	0.2415	0	170	122	3
2026-02-12	16:11:33.350	-4.095	-13.615	-11.06	-0.428464	-0.862052	-0.097356	0.549	0.933	0.243	0	170	122	3
2026-02-12	16:11:33.370	-2.485	-10.92	-10.08	-0.426024	-0.868152	-0.110044	0.5505	0.93	0.2505	0	170	122	3
2026-02-12	16:11:33.390	-2.24	-8.855	-8.54	-0.427732	-0.889868	-0.118828	0.549	0.9315	0.2445	0	170	122	3
2026-02-12	16:11:33.410	-3.115	-7.315	-5.845	-0.42456	-0.920368	-0.124684	0.5505	0.9345	0.237	0	162	130	3
2026-02-12	16:11:33.430	-1.855	-6.125	-2.415	-0.416996	-0.94062	-0.130784	0.5505	0.9345	0.24	0	162	130	3
2026-02-12	16:11:33.450	0.91	-5.285	1.12	-0.410652	-0.986004	-0.131516	0.546	0.9345	0.2415	0	162	130	3
2026-02-12	16:11:33.470	5.04	-4.13	3.78	-0.385276	-1.03212	-0.142008	0.5445	0.9285	0.243	0	162	130	3
2026-02-12	16:11:33.490	10.5	-2.17	6.055	-0.375272	-1.040172	-0.154696	0.5505	0.9375	0.246	0	162	130	3
2026-02-12	16:11:33.510	14.91	0.35	6.51	-0.353312	-1.036756	-0.167872	0.549	0.9375	0.237	0	162	130	3
2026-02-12	16:11:33.530	17.325	3.325	5.355	-0.37332	-1.024068	-0.182024	0.5505	0.9375	0.243	0	162	130	3
2026-02-12	16:11:33.550	14.77	8.82	-0.77	-0.39284	-1.069696	-0.20008	0.5475	0.939	0.2355	0	162	130	3
2026-02-12	16:11:33.570	9.345	13.09	-6.3	-0.39284	-1.119228	-0.210084	0.5475	0.939	0.237	0	162	130	3
2026-02-12	16:11:33.590	1.12	16.94	-10.43	-0.33062	-1.197552	-0.210328	0.546	0.942	0.24	0	162	130	3
2026-02-12	16:11:33.610	-6.72	20.02	-11.41	-0.248392	-1.185596	-0.198372	0.546	0.945	0.2385	0	155	136	3
2026-02-12	16:11:33.630	-11.9	20.79	-8.715	-0.188856	-1.113128	-0.178364	0.537	0.945	0.234	0	155	136	3
2026-02-12	16:11:33.650	-10.675	18.69	-2.1	-0.174704	-0.953552	-0.137616	0.5265	0.945	0.2325	0	155	136	3
2026-02-12	16:11:33.670	-4.935	13.545	5.355	-0.178608	-0.870592	-0.105896	0.534	0.939	0.2445	0	155	136	3
2026-02-12	16:11:33.690	5.95	8.785	11.795	-0.203984	-0.798856	-0.087108	0.528	0.9405	0.234	0	155	136	3
2026-02-12	16:11:33.710	16.8	5.6	17.78	-0.221308	-0.798856	-0.08418	0.5325	0.9375	0.2415	0	155	136	3
2026-02-12	16:11:33.730	25.62	5.11	23.17	-0.23912	-0.825208	-0.07905599	0.5385	0.945	0.237	0	155	136	3
2026-02-12	16:11:33.750	26.04	8.435	24.395	-0.23668	-0.854	-0.099796	0.537	0.948	0.237	0	155	136	3
2026-02-12	16:11:33.770	17.675	15.225	21.98	-0.224968	-0.90402	-0.094916	0.537	0.948	0.237	0	155	136	3
2026-02-12	16:11:33.790	3.64	21.525	19.18	-0.233264	-0.91866	-0.144936	0.543	0.945	0.234	0	155	136	3
2026-02-12	16:11:33.810	-0.805	26.355	15.26	-0.249124	-0.930372	-0.152744	0.549	0.9495	0.2295	0	151	140	3
2026-02-12	16:11:33.830	-3.01	29.155	12.145	-0.260104	-0.939644	-0.116144	0.5475	0.9495	0.2295	0	151	140	3
2026-02-12	16:11:33.850	-11.2	30.87	11.095	-0.274256	-0.978928	-0.085644	0.546	0.9435	0.234	0	151	140	3
2026-02-12	16:11:33.870	-17.22	32.585	9.66	-0.309636	-0.994056	-0.106628	0.5445	0.9435	0.237	0	151	140	3
2026-02-12	16:11:33.890	-9.87	31.78	7.665	-0.336964	-0.983076	-0.119072	0.5505	0.9495	0.237	0	151	140	3
2026-02-12	16:11:33.910	-1.26	28.315	5.985	-0.3599	-0.857416	-0.076128	0.5415	0.9555	0.2385	0	151	140	3
2026-02-12	16:11:33.930	-2.24	23.065	5.215	-0.368196	-0.862296	-0.049044	0.54	0.9465	0.2415	0	151	140	3
2026-02-12	16:11:33.950	-2.87	19.075	5.18	-0.382592	-0.881572	-0.032208	0.5475	0.945	0.2415	0	151	140	3
2026-02-12	16:11:33.970	1.05	14.735	5.53	-0.392352	-0.889868	-0.02684	0.5475	0.9525	0.24	0	151	140	3
2026-02-12	16:11:33.990	5.88	10.955	5.67	-0.402844	-0.857416	-0.02806	0.5415	0.948	0.2415	0	151	140	3
2026-02-12	16:11:34.010	6.475	9.135	5.005	-0.400648	-0.826428	-0.021472	0.5355	0.945	0.2445	0	147	135	3
2026-02-12	16:11:34.030	5.53	7.945	4.305	-0.40138	-0.860588	-0.024644	0.537	0.942	0.24	0	147	135	3
2026-02-12	16:11:34.050	6.02	7.56	4.27	-0.39162	-0.875472	-0.006588	0.5385	0.9435	0.2385	0	147	135	3
2026-02-12	16:11:34.070	6.65	8.295	4.515	-0.404796	-0.88328	-0.000976	0.5415	0.9495	0.2415	0	147	135	3
2026-02-12	16:11:34.090	5.915	9.24	5.425	-0.416508	-0.883036	-0.00244	0.5385	0.9465	0.237	0	147	135	3
2026-02-12	16:11:34.110	5.075	9.8	6.755	-0.431148	-0.881084	-0.003416	0.5475	0.9465	0.237	0	147	135	3
2026-02-12	16:11:34.130	4.235	9.695	8.365	-0.454816	-0.889136	-0.011468	0.543	0.9495	0.237	0	147	135	3
2026-02-12	16:11:34.150	3.92	8.68	9.905	-0.463112	-0.9089	-0.018056	0.54	0.9495	0.243	0	147	135	3
2026-02-12	16:11:34.170	4.69	6.58	11.34	-0.472384	-0.918416	-0.030744	0.5355	0.9525	0.237	0	147	135	3
2026-02-12	16:11:34.190	4.34	3.29	13.09	-0.472628	-0.935496	-0.062952	0.5445	0.9525	0.237	0	147	135	3
2026-02-12	16:11:34.210	4.655	1.05	12.81	-0.465308	-0.97478	-0.092232	0.5415	0.951	0.234	0	144	119	3
2026-02-12	16:11:34.230	5.39	0.21	10.745	-0.45506	-0.981856	-0.104676	0.546	0.951	0.231	0	144	119	3
2026-02-12	16:11:34.250	3.85	0.42	7.175	-0.447984	-0.974536	-0.109068	0.549	0.9525	0.231	0	144	119	3
2026-02-12	16:11:34.270	-3.85	0.595	3.5	-0.46726	-0.999668	-0.130296	0.549	0.948	0.2295	0	144	119	3
2026-02-12	16:11:34.290	-12.18	0.56	-0.91	-0.47336	-1.012112	-0.151524	0.5505	0.945	0.228	0	144	119	3
2026-02-12	16:11:34.310	-23.52	0.595	-4.515	-0.466284	-1.106052	-0.173728	0.543	0.954	0.2355	0	144	119	3
2026-02-12	16:11:34.330	-29.575	1.225	-3.78	-0.448716	-1.144604	-0.20862	0.5385	0.951	0.234	0	144	119	3
2026-02-12	16:11:34.350	-19.495	1.225	-3.29	-0.4392	-1.056764	-0.22814	0.546	0.9465	0.24	0	144	119	3
2026-02-12	16:11:34.370	-7.875	-1.75	-2.8	-0.407236	-0.929884	-0.227408	0.5505	0.936	0.243	0	144	119	3
2026-02-12	16:11:34.390	6.685	-11.165	0.245	-0.353312	-0.885232	-0.181048	0.5415	0.9435	0.2505	0	144	119	3
2026-02-12	16:11:34.410	12.075	-18.41	6.195	-0.359168	-0.87352	-0.127124	0.5415	0.9435	0.2505	0	142	108	3
2026-02-12	16:11:34.430	12.46	-21.98	8.47	-0.389912	-0.841556	-0.16592	0.5415	0.9465	0.2415	0	142	108	3
2026-02-12	16:11:34.450	20.335	-25.165	6.895	-0.3904	-0.823256	-0.179584	0.546	0.9495	0.234	0	142	108	3
2026-02-12	16:11:34.470	20.3	-26.775	1.365	-0.388692	-0.815204	-0.195688	0.5475	0.9495	0.231	0	142	108	3
2026-02-12	16:11:34.490	11.76	-26.285	-5.53	-0.367952	-0.893528	-0.22204	0.549	0.9495	0.228	0	142	108	3
2026-02-12	16:11:34.510	3.815	-23.135	-11.13	-0.362584	-0.972584	-0.23424	0.552	0.951	0.228	0	142	108	3
2026-02-12	16:11:34.530	-5.145	-19.845	-13.475	-0.352092	-0.965996	-0.195932	0.5625	0.954	0.2295	0	142	108	3
2026-02-12	16:11:34.550	-17.465	-16.415	-15.33	-0.334036	-0.942328	-0.187636	0.5475	0.9525	0.228	0	142	108	3
2026-02-12	16:11:34.570	-25.795	-13.055	-16.415	-0.344284	-0.900848	-0.199348	0.5535	0.957	0.2265	0	142	108	3
2026-02-12	16:11:34.590	-22.54	-11.165	-16.24	-0.347456	-0.874984	-0.190808	0.5505	0.9525	0.2355	0	142	108	3
2026-02-12	16:11:34.610	-13.44	-12.67	-14.595	-0.348676	-0.864004	-0.153476	0.5475	0.9495	0.2295	0	139	115	3
2026-02-12	16:11:34.630	-6.265	-14.63	-12.25	-0.373076	-0.852048	-0.14152	0.546	0.9525	0.2325	0	139	115	3
2026-02-12	16:11:34.650	-4.165	-15.68	-10.36	-0.37698	-0.822768	-0.114436	0.5415	0.954	0.2385	0	139	115	3
2026-02-12	16:11:34.670	-5.425	-16.52	-9.345	-0.386984	-0.832284	-0.117852	0.5415	0.9525	0.24	0	139	115	3
2026-02-12	16:11:34.690	-5.425	-16.765	-9.03	-0.386008	-0.843508	-0.118584	0.546	0.9525	0.234	0	139	115	3
2026-02-12	16:11:34.710	-3.22	-16.135	-8.68	-0.38918	-0.852536	-0.127856	0.5445	0.9525	0.2295	0	139	115	3
2026-02-12	16:11:34.730	0.14	-14.805	-8.68	-0.396744	-0.851072	-0.120536	0.5505	0.948	0.2415	0	139	115	3
2026-02-12	16:11:34.750	0.98	-13.23	-8.155	-0.401868	-0.864736	-0.124928	0.5385	0.9465	0.237	0	139	115	3
2026-02-12	16:11:34.770	-0.07	-10.92	-7.525	-0.42456	-0.856928	-0.127124	0.5415	0.9615	0.2415	0	139	115	3
2026-02-12	16:11:34.790	-1.645	-9.485	-6.72	-0.431636	-0.873764	-0.126148	0.54	0.951	0.2415	0	139	115	3
2026-02-12	16:11:34.810	-2.275	-8.54	-5.81	-0.436028	-0.892064	-0.112484	0.5415	0.945	0.2385	0	136	126	3
2026-02-12	16:11:34.830	-0.77	-8.015	-3.465	-0.448716	-0.903288	-0.105164	0.5325	0.954	0.2355	0	136	126	3
2026-02-12	16:11:34.850	-1.015	-8.155	-0.875	-0.44652	-0.89792	-0.10248	0.54	0.951	0.2355	0	136	126	3
2026-02-12	16:11:34.870	-0.07	-8.61	0.805	-0.432856	-0.922564	-0.115656	0.5445	0.9495	0.237	0	136	126	3
2026-02-12	16:11:34.890	8.085	-7.245	1.295	-0.441884	-0.958432	-0.127368	0.54	0.951	0.2385	0	136	126	3
2026-02-12	16:11:34.910	19.005	-4.62	0.35	-0.440664	-0.944768	-0.13176	0.5415	0.9495	0.2355	0	136	126	3
2026-02-12	16:11:34.930	21.91	0	-3.01	-0.421388	-0.945256	-0.129076	0.5445	0.9465	0.234	0	136	126	3
2026-02-12	16:11:34.950	12.18	2.03	-2.94	-0.418704	-0.997228	-0.17202	0.543	0.96	0.231	0	136	126	3
2026-02-12	16:11:34.970	9.59	2.835	-1.715	-0.459452	-1.032608	-0.184464	0.546	0.9615	0.231	0	136	126	3
2026-02-12	16:11:34.990	13.055	4.48	-3.29	-0.469456	-1.029192	-0.160308	0.5445	0.963	0.2205	0	136	126	3
2026-02-12	16:11:35.010	9.66	8.785	-7.42	-0.414068	-1.055788	-0.156892	0.54	0.948	0.234	0	132	133	3
2026-02-12	16:11:35.030	-0.21	13.265	-10.465	-0.363804	-1.11264	-0.17324	0.537	0.9525	0.2265	0	132	133	3
2026-02-12	16:11:35.050	-12.46	15.89	-11.41	-0.293776	-1.123864	-0.167384	0.537	0.9525	0.2265	0	132	133	3
2026-02-12	16:11:35.070	-12.635	17.15	-10.535	-0.254004	-1.065548	-0.13908	0.537	0.954	0.228	0	132	133	3
2026-02-12	16:11:35.090	-9.135	17.71	-6.685	-0.231312	-0.95404	-0.10492	0.531	0.954	0.2265	0	132	133	3
2026-02-12	16:11:35.110	-4.27	15.12	-0.385	-0.241072	-0.859612	-0.092232	0.531	0.951	0.228	0	132	133	3
2026-02-12	16:11:35.130	4.935	9.835	6.51	-0.28426	-0.787144	-0.08418	0.5355	0.9495	0.2325	0	132	133	3
2026-02-12	16:11:35.150	15.155	6.685	12.11	-0.323788	-0.760548	-0.082716	0.528	0.9525	0.2295	0	132	133	3
2026-02-12	16:11:35.170	20.055	6.405	16.17	-0.353556	-0.775676	-0.10614	0.528	0.957	0.2235	0	132	133	3
2026-02-12	16:11:35.190	17.85	8.575	16.905	-0.348676	-0.793488	-0.109068	0.534	0.951	0.2205	0	132	133	3
2026-02-12	16:11:35.210	6.545	13.51	14.315	-0.330132	-0.847168	-0.129808	0.528	0.9585	0.2235	0	128	136	3
2026-02-12	16:11:35.230	-6.79	19.11	11.76	-0.29036	-0.900604	-0.152256	0.531	0.9585	0.225	0	128	136	3
2026-02-12	16:11:35.250	-14.385	23.45	10.185	-0.287188	-0.915244	-0.154696	0.543	0.9525	0.2265	0	128	136	3
2026-02-12	16:11:35.270	-14.245	24.36	8.47	-0.3111	-0.926224	-0.135176	0.5385	0.951	0.228	0	128	136	3
2026-02-12	16:11:35.290	-13.055	24.01	6.23	-0.334036	-0.948916	-0.11224	0.5325	0.954	0.228	0	128	136	3
2026-02-12	16:11:35.310	-11.655	23.205	3.395	-0.360632	-0.953796	-0.101992	0.531	0.957	0.231	0	128	136	3
2026-02-12	16:11:35.330	-10.185	20.615	0.595	-0.379664	-0.928176	-0.09394	0.5295	0.9525	0.2385	0	128	136	3
2026-02-12	16:11:35.350	-11.515	16.275	-2.17	-0.39528	-0.8967	-0.09028	0.531	0.9495	0.24	0	128	136	3
2026-02-12	16:11:35.370	-13.685	10.99	-4.2	-0.402844	-0.88938	-0.089548	0.5265	0.9435	0.24	0	128	136	3
2026-02-12	16:11:35.390	-12.04	6.09	-5.845	-0.397232	-0.894504	-0.081252	0.5175	0.9405	0.2445	0	128	136	3
2026-02-12	16:11:35.410	-7.56	2.135	-6.615	-0.394548	-0.88572	-0.07686	0.522	0.945	0.2355	0	124	133	3
2026-02-12	16:11:35.430	-3.255	-1.47	-6.37	-0.386496	-0.864736	-0.070516	0.5175	0.942	0.2415	0	124	133	3
2026-02-12	16:11:35.450	-1.54	-3.605	-5.495	-0.379908	-0.866688	-0.067588	0.525	0.9465	0.24	0	124	133	3
2026-02-12	16:11:35.470	-0.945	-4.9	-3.535	-0.369904	-0.87352	-0.074176	0.5235	0.9465	0.237	0	124	133	3
2026-02-12	16:11:35.490	-1.47	-5.04	-2.1	-0.377224	-0.876448	-0.06466	0.519	0.942	0.2415	0	124	133	3
2026-02-12	16:11:35.510	-1.33	-4.62	-0.63	-0.38674	-0.883524	-0.048068	0.5175	0.9405	0.24	0	124	133	3
2026-02-12	16:11:35.530	-0.28	-3.64	0.7	-0.396988	-0.883036	-0.03294	0.5265	0.939	0.24	0	124	133	3
2026-02-12	16:11:35.550	0.175	-2.975	2.17	-0.412848	-0.874252	-0.023912	0.528	0.942	0.2415	0	124	133	3
2026-02-12	16:11:35.570	-0.49	-3.43	4.27	-0.426512	-0.878644	-0.017812	0.5235	0.948	0.2385	0	124	133	3
2026-02-12	16:11:35.590	-0.7	-4.375	6.72	-0.449204	-0.884256	-0.017812	0.516	0.945	0.2475	0	124	133	3
2026-02-12	16:11:35.610	0.105	-6.055	8.225	-0.453596	-0.882304	-0.042456	0.5235	0.945	0.2445	0	120	124	3
2026-02-12	16:11:35.630	1.435	-7.42	9.415	-0.466284	-0.886452	-0.066612	0.531	0.9405	0.2325	0	120	124	3
2026-02-12	16:11:35.650	1.54	-9.52	10.43	-0.453596	-0.925248	-0.08784	0.5355	0.942	0.2385	0	120	124	3
2026-02-12	16:11:35.670	3.36	-10.08	10.675	-0.446764	-0.990152	-0.103944	0.5325	0.9375	0.2415	0	120	124	3
2026-02-12	16:11:35.690	4.935	-6.65	8.645	-0.411628	-1.030412	-0.109556	0.5325	0.9375	0.2415	0	120	124	3
2026-02-12	16:11:35.710	2.73	-2.03	6.58	-0.406748	-1.068476	-0.131516	0.5325	0.936	0.24	0	120	124	3
2026-02-12	16:11:35.730	-1.155	1.995	2.765	-0.425048	-1.089216	-0.157136	0.5385	0.936	0.2385	0	120	124	3
2026-02-12	16:11:35.750	-5.985	5.145	0.035	-0.44896	-1.074332	-0.204228	0.54	0.9375	0.237	0	120	124	3
2026-02-12	16:11:35.770	-5.565	5.46	-2.135	-0.460428	-1.05164	-0.213988	0.537	0.9405	0.237	0	120	124	3
2026-02-12	16:11:35.790	-8.12	5.04	-2.905	-0.441884	-1.021384	-0.196664	0.5325	0.924	0.2445	0	120	124	3
2026-02-12	16:11:35.810	-12.88	3.535	-2.45	-0.397232	-0.99186	-0.19764	0.5325	0.933	0.249	0	117	115	3
2026-02-12	16:11:35.830	-12.46	1.155	0.875	-0.373808	-0.901092	-0.191052	0.5355	0.933	0.24	0	117	115	3
2026-02-12	16:11:35.850	-8.54	-3.325	5.355	-0.38308	-0.851316	-0.179584	0.534	0.9405	0.2415	0	117	115	3
2026-02-12	16:11:35.870	-0.28	-8.96	8.33	-0.394548	-0.826672	-0.160552	0.54	0.936	0.2475	0	117	115	3
2026-02-12	16:11:35.890	6.37	-15.75	8.925	-0.394548	-0.817156	-0.172996	0.5265	0.93	0.246	0	117	115	3
2026-02-12	16:11:35.910	7.035	-21.245	6.475	-0.40992	-0.824964	-0.21106	0.5325	0.9375	0.243	0	117	115	3
2026-02-12	16:11:35.930	4.13	-23.905	1.33	-0.396744	-0.87352	-0.241316	0.54	0.9375	0.24	0	117	115	3
2026-02-12	16:11:35.950	2.205	-22.295	-5.32	-0.377224	-0.913292	-0.24644	0.543	0.9285	0.2445	0	117	115	3
2026-02-12	16:11:35.970	-2.415	-18.2	-10.745	-0.358924	-0.950136	-0.264252	0.5445	0.93	0.2445	0	117	115	3
2026-02-12	16:11:35.990	-8.645	-15.12	-14.28	-0.35502	-0.945988	-0.265228	0.543	0.936	0.243	0	117	115	3
2026-02-12	16:11:36.010	-18.83	-12.985	-15.96	-0.345748	-0.947208	-0.28182	0.54	0.9345	0.2445	0	114	121	3
2026-02-12	16:11:36.030	-19.18	-12.6	-15.295	-0.348188	-0.923052	-0.263276	0.54	0.9345	0.2445	0	114	121	3
2026-02-12	16:11:36.050	-14.315	-13.23	-13.44	-0.358436	-0.896456	-0.229848	0.5505	0.927	0.2445	0	114	121	3
2026-02-12	16:11:36.070	-9.065	-15.19	-11.305	-0.365024	-0.86986	-0.18788	0.5325	0.924	0.246	0	114	121	3
2026-02-12	16:11:36.090	-4.585	-16.695	-9.94	-0.374052	-0.836188	-0.16348	0.54	0.927	0.2415	0	114	121	3
2026-02-12	16:11:36.110	-2.8	-17.99	-8.75	-0.369172	-0.837408	-0.138836	0.549	0.933	0.2535	0	114	121	3
2026-02-12	16:11:36.130	-2.485	-18.235	-8.295	-0.370148	-0.837408	-0.135176	0.5475	0.9225	0.249	0	114	121	3
2026-02-12	16:11:36.150	0.35	-17.08	-8.645	-0.37698	-0.826428	-0.13786	0.5445	0.9195	0.2445	0	114	121	3
2026-02-12	16:11:36.170	2.975	-15.19	-8.715	-0.386496	-0.823988	-0.13786	0.5415	0.927	0.249	0	114	121	3
2026-02-12	16:11:36.190	3.85	-12.775	-9.1	-0.3965	-0.826428	-0.132004	0.5415	0.927	0.2505	0	114	121	3
2026-02-12	16:11:36.210	3.5	-10.08	-9.275	-0.40016	-0.838628	-0.14152	0.5445	0.927	0.246	0	112	138	3
2026-02-12	16:11:36.230	3.5	-6.86	-9.52	-0.423584	-0.853024	-0.142008	0.5385	0.9255	0.2445	0	112	138	3
2026-02-12	16:11:36.250	2.73	-4.06	-10.01	-0.424316	-0.876936	-0.1464	0.5445	0.9225	0.2445	0	112	138	3
2026-02-12	16:11:36.270	1.4	-1.435	-9.94	-0.428952	-0.884256	-0.145668	0.5415	0.9255	0.2355	0	112	138	3
2026-02-12	16:11:36.290	0.91	0	-8.89	-0.432856	-0.893772	-0.127856	0.5415	0.924	0.246	0	112	138	3
2026-02-12	16:11:36.310	1.47	1.015	-7.035	-0.438956	-0.911584	-0.131516	0.531	0.921	0.24	0	112	138	3
2026-02-12	16:11:36.330	7.84	2.135	-4.9	-0.42456	-0.949648	-0.140056	0.531	0.921	0.24	0	112	138	3
2026-02-12	16:11:36.350	9.94	2.31	-3.92	-0.426756	-0.918904	-0.143716	0.531	0.924	0.237	0	112	138	3
2026-02-12	16:11:36.370	5.6	3.22	-4.55	-0.427732	-0.929152	-0.186416	0.5295	0.927	0.237	0	112	138	3
2026-02-12	16:11:36.390	2.135	4.2	-6.02	-0.443836	-0.964044	-0.214964	0.531	0.927	0.2355	0	112	138	3
2026-02-12	16:11:36.410	2.415	5.635	-9.625	-0.46482	-0.955748	-0.199592	0.534	0.9285	0.234	0	110	150	3
2026-02-12	16:11:36.430	4.725	9.03	-13.79	-0.44286	-1.051884	-0.201056	0.5295	0.9285	0.2385	0	110	150	3
2026-02-12	16:11:36.450	6.16	14.385	-19.81	-0.438712	-1.0797	-0.22082	0.525	0.9345	0.2445	0	110	150	3
2026-02-12	16:11:36.470	4.305	16.345	-20.195	-0.373808	-1.192428	-0.22448	0.5145	0.93	0.228	0	110	150	3
2026-02-12	16:11:36.490	-8.33	16.135	-16.835	-0.317932	-1.178032	-0.226676	0.5145	0.9315	0.231	0	110	150	3
2026-02-12	16:11:36.510	-12.355	14.595	-12.11	-0.244244	-1.129232	-0.182512	0.5265	0.9405	0.2355	0	110	150	3
2026-02-12	16:11:36.530	-9.87	12.67	-3.99	-0.217648	-0.963312	-0.148352	0.5115	0.942	0.2355	0	110	150	3
2026-02-12	16:11:36.550	-0.14	8.435	4.025	-0.216916	-0.86376	-0.126148	0.51	0.939	0.237	0	110	150	3
2026-02-12	16:11:36.570	11.55	5.18	10.29	-0.22326	-0.826916	-0.1098	0.507	0.933	0.237	0	110	150	3
2026-02-12	16:11:36.590	19.88	4.06	16.17	-0.251076	-0.816668	-0.098088	0.5085	0.9315	0.2325	0	110	150	3
2026-02-12	16:11:36.610	26.53	6.3	20.125	-0.261568	-0.822768	-0.098332	0.5145	0.9345	0.2325	0	109	158	3
2026-02-12	16:11:36.630	22.995	11.655	20.895	-0.258884	-0.819352	-0.102236	0.519	0.936	0.234	0	109	158	3
2026-02-12	16:11:36.650	10.43	17.675	18.585	-0.245952	-0.86986	-0.123952	0.513	0.9315	0.234	0	109	158	3
2026-02-12	16:11:36.670	-2.345	22.015	16.835	-0.23302	-0.90158	-0.134688	0.519	0.9315	0.228	0	109	158	3
2026-02-12	16:11:36.690	-6.895	25.06	15.225	-0.240096	-0.932324	-0.134688	0.522	0.9375	0.2205	0	109	158	3
2026-02-12	16:11:36.710	-5.215	27.09	13.02	-0.261812	-0.943304	-0.133468	0.51	0.933	0.2295	0	109	158	3
2026-02-12	16:11:36.730	-3.745	27.93	10.85	-0.289628	-0.96258	-0.126148	0.522	0.927	0.2355	0	109	158	3
2026-02-12	16:11:36.750	-5.705	27.545	8.785	-0.313296	-0.980392	-0.131516	0.5235	0.9375	0.2325	0	109	158	3
2026-02-12	16:11:36.770	-5.145	25.27	7.14	-0.347456	-0.949892	-0.116144	0.5175	0.9375	0.2325	0	109	158	3
2026-02-12	16:11:36.790	-5.495	22.89	6.02	-0.37088	-0.90646	-0.098332	0.516	0.9375	0.234	0	109	158	3
2026-02-12	16:11:36.810	-5.215	19.39	4.445	-0.393572	-0.9028	-0.093452	0.519	0.936	0.234	0	109	157	3
2026-02-12	16:11:36.830	-3.115	14.7	3.605	-0.39162	-0.887428	-0.089548	0.5175	0.9375	0.2355	0	109	157	3
2026-02-12	16:11:36.850	0.63	10.255	3.15	-0.401136	-0.860344	-0.077592	0.51	0.924	0.2385	0	109	157	3
2026-02-12	16:11:36.870	1.645	6.72	3.29	-0.401868	-0.857416	-0.071492	0.504	0.939	0.2295	0	109	157	3
2026-02-12	16:11:36.890	1.365	4.34	3.675	-0.40138	-0.862296	-0.076616	0.5085	0.9315	0.231	0	109	157	3
2026-02-12	16:11:36.910	2.52	3.255	4.515	-0.401624	-0.86986	-0.07564	0.5175	0.9375	0.2325	0	109	157	3
2026-02-12	16:11:36.930	4.585	2.59	5.46	-0.4026	-0.865224	-0.063684	0.513	0.9345	0.234	0	109	157	3
2026-02-12	16:11:36.950	4.445	2.52	5.985	-0.416996	-0.870348	-0.054168	0.516	0.927	0.231	0	109	157	3
2026-02-12	16:11:36.970	3.99	2.765	7.14	-0.435052	-0.870592	-0.04514	0.525	0.9255	0.228	0	109	157	3
2026-02-12	16:11:36.990	3.64	2.17	8.12	-0.447008	-0.87474	-0.04148	0.5175	0.9285	0.231	0	109	157	3
2026-02-12	16:11:37.010	3.395	0.56	9.8	-0.45506	-0.876448	-0.033428	0.5115	0.9345	0.231	0	109	147	2
2026-02-12	16:11:37.030	2.905	-1.015	12.145	-0.467992	-0.878644	-0.025132	0.513	0.9375	0.2265	0	109	147	2
2026-02-12	16:11:37.050	2.695	-2.8	14.595	-0.480436	-0.896212	-0.060268	0.513	0.9375	0.225	0	109	147	2
2026-02-12	16:11:37.070	5.11	-4.69	16.555	-0.49166	-0.9028	-0.071736	0.5145	0.93	0.2265	0	109	147	2
2026-02-12	16:11:37.090	6.58	-6.825	17.15	-0.49898	-0.91134	-0.08784	0.519	0.936	0.2265	0	109	147	2
2026-02-12	16:11:37.110	5.6	-8.155	15.365	-0.496052	-0.948428	-0.100772	0.5295	0.933	0.219	0	109	147	2
2026-02-12	16:11:37.130	4.095	-8.19	12.005	-0.472872	-0.982588	-0.110776	0.516	0.927	0.219	0	109	147	2
2026-02-12	16:11:37.150	1.225	-6.65	8.085	-0.465308	-0.993324	-0.122488	0.528	0.939	0.222	0	109	147	2
2026-02-12	16:11:37.170	-4.97	-5.11	3.08	-0.476044	-1.016504	-0.143472	0.5205	0.9375	0.2205	0	109	147	2
2026-02-12	16:11:37.190	-9.975	-4.41	-1.4	-0.48434	-1.04432	-0.171776	0.5235	0.9345	0.219	0	109	147	2
2026-02-12	16:11:37.210	-12.565	-3.92	-3.78	-0.477264	-1.048224	-0.194468	0.531	0.936	0.219	0	110	132	3
2026-02-12	16:11:37.230	-16.8	-3.815	-5.005	-0.460184	-1.02114	-0.207888	0.5295	0.9345	0.222	0	110	132	3
2026-02-12	16:11:37.250	-18.235	-5.53	-5.005	-0.427976	-0.997716	-0.218868	0.5235	0.933	0.225	0	110	132	3
2026-02-12	16:11:37.270	-12.67	-8.925	-2.94	-0.400892	-0.9333	-0.20618	0.525	0.936	0.225	0	110	132	3
2026-02-12	16:11:37.290	-4.27	-13.3	0.385	-0.404552	-0.900848	-0.19398	0.528	0.9315	0.228	0	110	132	3
2026-02-12	16:11:37.310	5.845	-18.55	2.695	-0.405772	-0.86742	-0.180804	0.525	0.939	0.2385	0	110	132	3
2026-02-12	16:11:37.330	11.48	-22.75	1.89	-0.398696	-0.840824	-0.182512	0.534	0.927	0.2355	0	110	132	3
2026-02-12	16:11:37.350	10.85	-26.495	-0.315	-0.391132	-0.839604	-0.193736	0.528	0.927	0.234	0	110	132	3
2026-02-12	16:11:37.370	6.65	-29.085	-4.2	-0.390888	-0.847412	-0.208864	0.531	0.9255	0.2145	0	110	132	3
2026-02-12	16:11:37.390	0.77	-29.155	-11.445	-0.387228	-0.878156	-0.22448	0.531	0.9405	0.2205	0	110	132	3
2026-02-12	16:11:37.410	-4.69	-25.655	-18.55	-0.382592	-0.937448	-0.243756	0.534	0.9345	0.2205	0	110	131	3
2026-02-12	16:11:37.430	-9.205	-23.275	-21.595	-0.377224	-0.93574	-0.252052	0.534	0.9315	0.219	0	110	131	3
2026-02-12	16:11:37.450	-16.835	-22.47	-21.945	-0.34648	-0.943304	-0.250588	0.5295	0.936	0.2205	0	110	131	3
2026-02-12	16:11:37.470	-19.215	-21.42	-20.475	-0.318176	-0.917928	-0.238632	0.5295	0.9375	0.2235	0	110	131	3
2026-02-12	16:11:37.490	-14.385	-21.035	-17.395	-0.335012	-0.876936	-0.209352	0.5235	0.933	0.2145	0	110	131	3
2026-02-12	16:11:37.510	-8.855	-21.28	-14.525	-0.345504	-0.86254	-0.173728	0.531	0.927	0.225	0	110	131	3
2026-02-12	16:11:37.530	-5.285	-21.735	-12.46	-0.364292	-0.841556	-0.145668	0.5235	0.9255	0.2265	0	110	131	3
2026-02-12	16:11:37.550	-3.92	-21.35	-10.78	-0.367952	-0.83082	-0.121024	0.528	0.924	0.2205	0	110	131	3
2026-02-12	16:11:37.570	-2.87	-20.825	-10.36	-0.371612	-0.812276	-0.107848	0.525	0.927	0.225	0	110	131	3
2026-02-12	16:11:37.590	-3.85	-20.125	-10.465	-0.38308	-0.800808	-0.107604	0.531	0.9165	0.2205	0	110	131	3
2026-02-12	16:11:37.610	-4.55	-18.305	-11.585	-0.40748	-0.810812	-0.121268	0.5205	0.927	0.2295	0	110	141	3
2026-02-12	16:11:37.630	-3.22	-16.555	-12.845	-0.4087	-0.831552	-0.122	0.519	0.9255	0.2295	0	110	141	3
2026-02-12	16:11:37.650	-1.54	-14.315	-13.93	-0.425048	-0.846436	-0.122976	0.5205	0.9285	0.228	0	110	141	3
2026-02-12	16:11:37.670	-2.66	-11.375	-14.595	-0.440176	-0.856928	-0.129808	0.5205	0.93	0.228	0	110	141	3
2026-02-12	16:11:37.690	-6.825	-8.995	-14.7	-0.442372	-0.874008	-0.133712	0.519	0.93	0.2295	0	110	141	3
2026-02-12	16:11:37.710	-10.29	-8.085	-13.72	-0.442372	-0.892796	-0.135908	0.525	0.93	0.2235	0	110	141	3
2026-02-12	16:11:37.730	-10.185	-8.155	-11.515	-0.430172	-0.914756	-0.130296	0.5265	0.939	0.228	0	110	141	3
2026-02-12	16:11:37.750	-6.055	-8.435	-8.26	-0.415288	-0.92964	-0.12444	0.516	0.9225	0.2235	0	110	141	3
2026-02-12	16:11:37.770	0	-8.47	-4.97	-0.413336	-0.937204	-0.117364	0.513	0.9195	0.225	0	110	141	3
2026-02-12	16:11:37.790	5.495	-7.7	-2.345	-0.3965	-0.942084	-0.113704	0.5115	0.933	0.222	0	110	141	3
2026-02-12	16:11:37.810	8.575	-5.355	-0.595	-0.39284	-0.942816	-0.13542	0.5085	0.927	0.231	0	109	149	3
2026-02-12	16:11:37.830	8.4	-1.645	-1.505	-0.394548	-0.947208	-0.15616	0.5085	0.927	0.231	0	109	149	3
2026-02-12	16:11:37.850	6.545	2.1	-4.62	-0.407724	-0.947452	-0.163236	0.513	0.9255	0.2265	0	109	149	3
2026-02-12	16:11:37.870	5.81	6.02	-8.89	-0.445544	-0.963312	-0.186904	0.5145	0.9285	0.2235	0	109	149	3
2026-02-12	16:11:37.890	3.115	10.22	-13.965	-0.440664	-1.030412	-0.201544	0.5145	0.93	0.2235	0	109	149	3
2026-02-12	16:11:37.910	-0.56	14.35	-18.9	-0.397476	-1.131184	-0.2135	0.519	0.927	0.222	0	109	149	3
2026-02-12	16:11:37.930	-7.945	19.075	-18.48	-0.316224	-1.185596	-0.22326	0.5025	0.9285	0.2235	0	109	149	3
2026-02-12	16:11:37.950	-12.985	21.63	-15.61	-0.248636	-1.159	-0.20618	0.5025	0.9285	0.231	0	109	149	3
2026-02-12	16:11:37.970	-8.89	21.875	-11.48	-0.20618	-1.102392	-0.210572	0.495	0.9255	0.2175	0	109	149	3
2026-02-12	16:11:37.990	4.025	19.355	-5.075	-0.16714	-1.010648	-0.167872	0.4905	0.927	0.2325	0	109	149	3
2026-02-12	16:11:38.010	13.895	12.705	6.37	-0.159332	-0.921832	-0.104432	0.4905	0.927	0.2325	0	108	153	3
2026-02-12	16:11:38.030	20.79	9.835	13.86	-0.183488	-0.84424	-0.091256	0.489	0.9225	0.2205	0	108	153	3
2026-02-12	16:11:38.050	28.42	10.045	18.06	-0.232776	-0.788364	-0.095892	0.4905	0.9285	0.2205	0	108	153	3
2026-02-12	16:11:38.070	24.395	13.055	16.835	-0.261568	-0.797636	-0.105164	0.492	0.93	0.2175	0	108	153	3
2026-02-12	16:11:38.090	13.3	17.115	12.6	-0.261568	-0.842776	-0.130296	0.498	0.933	0.2175	0	108	153	3
2026-02-12	16:11:38.110	-0.77	21.77	8.365	-0.252784	-0.899872	-0.14762	0.504	0.9405	0.2205	0	108	153	3
2026-02-12	16:11:38.130	-10.01	25.55	6.125	-0.25498	-0.908168	-0.148108	0.4905	0.936	0.2175	0	108	153	3
2026-02-12	16:11:38.150	-12.845	27.755	5.53	-0.282064	-0.896944	-0.138348	0.489	0.93	0.2205	0	108	153	3
2026-02-12	16:11:38.170	-11.55	28.455	4.795	-0.30622	-0.904508	-0.136152	0.4965	0.933	0.21	0	108	153	3
2026-02-12	16:11:38.190	-7.385	28.98	2.94	-0.333792	-0.950624	-0.150304	0.4935	0.933	0.213	0	108	153	3
2026-02-12	16:11:38.210	-4.655	29.505	1.75	-0.355996	-0.950624	-0.1525	0.495	0.9285	0.222	0	108	153	3
2026-02-12	16:11:38.230	-6.65	28.84	1.05	-0.376248	-0.933544	-0.141764	0.4875	0.933	0.222	0	108	153	3
2026-02-12	16:11:38.250	-14.455	24.08	1.61	-0.39284	-0.897188	-0.129076	0.4845	0.9285	0.2265	0	108	153	3
2026-02-12	16:11:38.270	-15.645	19.425	1.82	-0.39772	-0.892064	-0.111508	0.4845	0.93	0.228	0	108	153	3
2026-02-12	16:11:38.290	-11.2	14.595	2.135	-0.389424	-0.892064	-0.094916	0.486	0.9285	0.225	0	108	153	3
2026-02-12	16:11:38.310	-5.46	10.115	2.835	-0.377224	-0.875228	-0.076372	0.486	0.9225	0.225	0	108	153	3
2026-02-12	16:11:38.330	-2.38	5.985	3.57	-0.380152	-0.871568	-0.081984	0.486	0.9225	0.2295	0	108	153	3
2026-02-12	16:11:38.350	-0.735	3.01	4.305	-0.375516	-0.866444	-0.087108	0.471	0.9315	0.2235	0	108	153	3
2026-02-12	16:11:38.370	0.14	1.05	4.9	-0.38674	-0.86498	-0.087596	0.4845	0.924	0.222	0	108	153	3
2026-02-12	16:11:38.390	0.735	-0.315	5.18	-0.385276	-0.871324	-0.066612	0.477	0.9225	0.2325	0	108	153	3
2026-02-12	16:11:38.410	1.435	-0.665	5.88	-0.385764	-0.886696	-0.05246	0.474	0.9225	0.2265	0	109	149	3
2026-02-12	16:11:38.430	2.31	-0.14	7.035	-0.395036	-0.877668	-0.04392	0.483	0.9165	0.2265	0	109	149	3
2026-02-12	16:11:38.450	2.975	-0.525	8.925	-0.419924	-0.873276	-0.04392	0.4725	0.9225	0.231	0	109	149	3
2026-02-12	16:11:38.470	2.975	-3.01	10.675	-0.427488	-0.90158	-0.045384	0.4725	0.9225	0.231	0	109	149	3
2026-02-12	16:11:38.490	3.15	-4.935	12.145	-0.422852	-0.921344	-0.053924	0.477	0.921	0.228	0	109	149	3
2026-02-12	16:11:38.510	5.04	-5.74	13.16	-0.437492	-0.94062	-0.074908	0.486	0.924	0.2265	0	109	149	3
2026-02-12	16:11:38.530	5.95	-6.16	12.88	-0.454328	-0.965996	-0.101504	0.4905	0.93	0.2265	0	109	149	3
2026-02-12	16:11:38.550	4.9	-5.215	10.185	-0.454816	-1.004792	-0.1281	0.4905	0.9345	0.225	0	109	149	3
2026-02-12	16:11:38.570	2.45	-3.29	6.65	-0.434808	-1.039196	-0.142496	0.4845	0.93	0.2235	0	109	149	3
2026-02-12	16:11:38.590	-2.415	-1.4	3.85	-0.427244	-1.046516	-0.162992	0.492	0.924	0.222	0	109	149	3
2026-02-12	16:11:38.610	-7.63	-0.21	1.4	-0.434564	-1.051152	-0.171288	0.4875	0.921	0.2265	0	108	138	3
2026-02-12	16:11:38.630	-11.34	0.525	-1.68	-0.446276	-1.065548	-0.195444	0.4815	0.921	0.2265	0	108	138	3
2026-02-12	16:11:38.650	-12.565	0.875	-4.795	-0.462624	-1.063352	-0.213012	0.489	0.915	0.225	0	108	138	3
2026-02-12	16:11:38.670	-12.915	-0.21	-7.525	-0.43798	-1.036268	-0.235948	0.4875	0.921	0.225	0	108	138	3
2026-02-12	16:11:38.690	-12.88	-4.025	-7.42	-0.378444	-0.979416	-0.240096	0.483	0.9195	0.2265	0	108	138	3
2026-02-12	16:11:38.710	-9.975	-9.03	-4.69	-0.350384	-0.91256	-0.240096	0.4815	0.9165	0.2295	0	108	138	3
2026-02-12	16:11:38.730	-3.5	-14.735	0.21	-0.350384	-0.886696	-0.2257	0.489	0.915	0.2295	0	108	138	3
2026-02-12	16:11:38.750	4.06	-19.285	3.22	-0.349164	-0.859124	-0.215696	0.495	0.9165	0.2295	0	108	138	3
2026-02-12	16:11:38.770	8.225	-21.28	4.41	-0.349408	-0.847412	-0.21228	0.486	0.921	0.2355	0	108	138	3
2026-02-12	16:11:38.790	7.525	-23.66	3.955	-0.351604	-0.852536	-0.23912	0.486	0.9105	0.237	0	108	138	3
2026-02-12	16:11:38.810	5.915	-25.515	1.26	-0.360876	-0.873276	-0.246928	0.4935	0.9105	0.231	0	108	138	3
2026-02-12	16:11:38.830	6.545	-24.955	-3.045	-0.354532	-0.896212	-0.246684	0.489	0.9105	0.237	0	108	138	3
2026-02-12	16:11:38.850	4.83	-22.295	-7.245	-0.351848	-0.929884	-0.26352	0.4995	0.915	0.2325	0	108	138	3
2026-02-12	16:11:38.870	-0.91	-20.055	-10.185	-0.337452	-0.953796	-0.256932	0.489	0.909	0.222	0	108	138	3
2026-02-12	16:11:38.890	-10.85	-16.59	-11.76	-0.300608	-0.951112	-0.244488	0.495	0.906	0.2355	0	108	138	3
2026-02-12	16:11:38.910	-9.975	-14.49	-10.185	-0.307684	-0.892552	-0.22204	0.492	0.909	0.231	0	108	138	3
2026-02-12	16:11:38.930	-6.86	-13.895	-7.77	-0.314516	-0.84912	-0.172264	0.492	0.9105	0.228	0	108	138	3
2026-02-12	16:11:38.950	-4.795	-13.51	-6.09	-0.338672	-0.828868	-0.147132	0.492	0.9135	0.234	0	108	138	3
2026-02-12	16:11:38.970	-1.75	-12.775	-5.215	-0.359412	-0.821548	-0.129808	0.492	0.9165	0.2385	0	108	138	3
2026-02-12	16:11:38.990	0.805	-12.18	-6.3	-0.368684	-0.80398	-0.124684	0.495	0.9135	0.237	0	108	138	3
2026-02-12	16:11:39.010	-0.84	-12.005	-8.575	-0.374296	-0.810812	-0.12688	0.489	0.915	0.2295	0	108	151	3
2026-02-12	16:11:39.030	-2.66	-12.075	-10.64	-0.38308	-0.814472	-0.117608	0.495	0.912	0.237	0	108	151	3
2026-02-12	16:11:39.050	-3.395	-12.285	-12.95	-0.384788	-0.840824	-0.116144	0.495	0.906	0.2325	0	108	151	3
2026-02-12	16:11:39.070	-1.505	-11.305	-15.05	-0.395036	-0.8357	-0.117852	0.495	0.9105	0.237	0	108	151	3
2026-02-12	16:11:39.090	0.245	-10.115	-17.675	-0.400648	-0.846924	-0.129808	0.492	0.9165	0.2445	0	108	151	3
2026-02-12	16:11:39.110	-1.365	-8.19	-20.65	-0.41602	-0.887428	-0.167384	0.492	0.9165	0.2445	0	108	151	3
2026-02-12	16:11:39.130	-3.43	-7.945	-19.705	-0.394792	-0.923052	-0.152988	0.4875	0.9135	0.243	0	108	151	3
2026-02-12	16:11:39.150	-4.62	-7.735	-16.275	-0.38552	-0.93818	-0.143228	0.486	0.909	0.243	0	108	151	3
2026-02-12	16:11:39.170	3.92	-6.79	-13.545	-0.377956	-0.925004	-0.113948	0.4845	0.909	0.24	0	108	151	3
2026-02-12	16:11:39.190	11.83	-4.69	-10.045	-0.3904	-0.924028	-0.137616	0.4815	0.9105	0.237	0	108	151	3
2026-02-12	16:11:39.210	15.89	-3.64	-6.475	-0.390156	-0.981612	-0.154208	0.477	0.9135	0.234	0	107	159	3
2026-02-12	16:11:39.230	13.265	-4.76	-1.61	-0.394304	-1.019676	-0.200812	0.4845	0.906	0.237	0	107	159	3
2026-02-12	16:11:39.250	16.94	-5.215	0.98	-0.395036	-1.01992	-0.180072	0.474	0.9045	0.237	0	107	159	3
2026-02-12	16:11:39.270	19.04	-2.03	2.625	-0.4087	-1.006012	-0.163236	0.486	0.9165	0.243	0	107	159	3
2026-02-12	16:11:39.290	16.17	4.2	0.42	-0.418216	-1.022848	-0.1586	0.477	0.9045	0.2355	0	107	159	3
2026-02-12	16:11:39.310	4.935	13.16	-7	-0.38674	-1.047004	-0.175192	0.483	0.9135	0.234	0	107	159	3
2026-02-12	16:11:39.330	-4.34	19.775	-13.58	-0.337696	-1.10654	-0.186904	0.4815	0.9135	0.234	0	107	159	3
2026-02-12	16:11:39.350	-6.685	21.49	-14.98	-0.264008	-1.116544	-0.176412	0.4785	0.9135	0.2295	0	107	159	3
2026-02-12	16:11:39.370	-9.065	21.595	-12.18	-0.220088	-1.067988	-0.152256	0.4755	0.9105	0.2325	0	107	159	3
2026-02-12	16:11:39.390	-7	19.32	-7.14	-0.202764	-1.026508	-0.122	0.4695	0.9045	0.2385	0	107	159	3
2026-02-12	16:11:39.410	-0.63	15.225	-1.33	-0.182024	-0.96258	-0.09394	0.465	0.903	0.237	0	107	162	3
2026-02-12	16:11:39.430	8.61	11.83	5.88	-0.178852	-0.892308	-0.077104	0.4725	0.9105	0.2415	0	107	162	3
2026-02-12	16:11:39.450	19.285	10.605	13.125	-0.207888	-0.842532	-0.08174	0.462	0.912	0.234	0	107	162	3
2026-02-12	16:11:39.470	27.895	10.57	18.515	-0.23302	-0.838872	-0.10126	0.4785	0.909	0.2355	0	107	162	3
2026-02-12	16:11:39.490	31.78	13.16	20.72	-0.250588	-0.843508	-0.113704	0.471	0.9075	0.2295	0	107	162	3
2026-02-12	16:11:39.510	26.32	18.305	20.265	-0.26352	-0.870104	-0.135176	0.4695	0.9135	0.231	0	107	162	3
2026-02-12	16:11:39.530	8.26	24.605	17.85	-0.271328	-0.917928	-0.152744	0.4695	0.912	0.2235	0	107	162	3
2026-02-12	16:11:39.550	1.19	26.88	15.61	-0.283772	-0.964044	-0.159332	0.474	0.909	0.2235	0	107	162	3
2026-02-12	16:11:39.570	-0.805	28.735	12.95	-0.286944	-0.98088	-0.148596	0.477	0.909	0.225	0	107	162	3
2026-02-12	16:11:39.590	-3.605	29.715	10.78	-0.289384	-0.981124	-0.150792	0.474	0.9135	0.225	0	107	162	3
2026-02-12	16:11:39.610	-6.965	28.91	9.87	-0.295728	-0.974048	-0.135908	0.474	0.9105	0.2265	0	107	158	3
2026-02-12	16:11:39.630	-8.855	25.9	10.22	-0.306464	-0.92842	-0.112484	0.474	0.906	0.2265	0	107	158	3
2026-02-12	16:11:39.650	-8.855	22.225	10.92	-0.329644	-0.89182	-0.081984	0.471	0.921	0.2295	0	107	158	3
2026-02-12	16:11:39.670	-7.735	18.025	11.2	-0.351116	-0.853512	-0.055632	0.465	0.9135	0.2265	0	107	158	3
2026-02-12	16:11:39.690	-4.41	13.335	10.43	-0.360632	-0.85278	-0.035868	0.4635	0.915	0.219	0	107	158	3
2026-02-12	16:11:39.710	-0.385	9.555	9.695	-0.365024	-0.842044	-0.015616	0.4785	0.903	0.231	0	107	158	3
2026-02-12	16:11:39.730	1.575	6.755	8.995	-0.36722	-0.843508	0.004392	0.474	0.9105	0.222	0	107	158	3
2026-02-12	16:11:39.750	0.77	4.41	7.735	-0.388448	-0.856196	0.004148	0.474	0.9105	0.222	0	107	158	3
2026-02-12	16:11:39.770	0.07	3.92	6.545	-0.393084	-0.863516	-0.00244	0.474	0.909	0.225	0	107	158	3
2026-02-12	16:11:39.790	0.315	3.78	5.39	-0.401624	-0.870348	-0.004636	0.4725	0.9075	0.225	0	107	158	3
2026-02-12	16:11:39.810	-0.49	3.885	4.62	-0.408944	-0.893772	0.002928	0.4785	0.903	0.225	0	107	145	3
2026-02-12	16:11:39.830	-1.015	3.85	5.355	-0.415044	-0.905972	0.004148	0.4875	0.9	0.228	0	107	145	3
2026-02-12	16:11:39.850	-0.49	3.01	7.315	-0.430172	-0.91866	-0.00488	0.4755	0.9045	0.2295	0	107	145	3
2026-02-12	16:11:39.870	1.715	1.4	10.115	-0.440664	-0.925492	-0.012932	0.4815	0.906	0.2235	0	107	145	3
2026-02-12	16:11:39.890	3.22	-0.49	12.635	-0.452132	-0.94306	-0.034892	0.48	0.9015	0.2175	0	107	145	3
2026-02-12	16:11:39.910	5.04	-1.715	13.93	-0.46848	-0.96014	-0.059292	0.4725	0.906	0.225	0	107	145	3
2026-02-12	16:11:39.930	4.41	-2.8	14.56	-0.464576	-0.980636	-0.091256	0.4905	0.9105	0.2265	0	107	145	3
2026-02-12	16:11:39.950	0.7	-3.325	13.16	-0.45872	-1.013576	-0.132004	0.4815	0.9075	0.234	0	107	145	3
2026-02-12	16:11:39.970	-3.08	-2.415	10.115	-0.460428	-1.052128	-0.160064	0.4815	0.9075	0.234	0	107	145	3
2026-02-12	16:11:39.990	-7.91	0.105	6.02	-0.455792	-1.118252	-0.165676	0.4875	0.9075	0.2295	0	107	145	3
2026-02-12	16:11:40.010	-11.62	3.01	2.345	-0.465064	-1.133624	-0.184708	0.4905	0.9045	0.228	0	108	126	3
2026-02-12	16:11:40.030	-14.175	5.915	0.665	-0.455548	-1.11264	-0.198128	0.486	0.8985	0.2295	0	108	126	3
2026-02-12	16:11:40.050	-14.245	6.93	0.525	-0.42212	-1.038952	-0.194956	0.486	0.897	0.228	0	108	126	3
2026-02-12	16:11:40.070	-15.33	5.67	3.395	-0.392108	-0.976244	-0.195932	0.4845	0.906	0.225	0	108	126	3
2026-02-12	16:11:40.090	-12.425	2.555	7.595	-0.38308	-0.904264	-0.18422	0.486	0.894	0.2355	0	108	126	3
2026-02-12	16:11:40.110	-4.655	-1.89	11.305	-0.382104	-0.8662	-0.17568	0.495	0.891	0.2385	0	108	126	3
2026-02-12	16:11:40.130	5.67	-7	13.86	-0.393328	-0.823012	-0.158844	0.492	0.897	0.2385	0	108	126	3
2026-02-12	16:11:40.150	10.605	-12.46	13.125	-0.395768	-0.790804	-0.159576	0.5055	0.8925	0.24	0	108	126	3
2026-02-12	16:11:40.170	7.49	-17.99	7.14	-0.425292	-0.791536	-0.188856	0.5055	0.891	0.237	0	108	126	3
2026-02-12	16:11:40.190	1.19	-20.545	-0.49	-0.423828	-0.847168	-0.213744	0.501	0.8955	0.237	0	108	126	3
2026-02-12	16:11:40.210	-1.12	-20.02	-8.33	-0.405284	-0.882548	-0.226676	0.4995	0.897	0.2355	0	109	121	3
2026-02-12	16:11:40.230	-1.05	-17.29	-14.735	-0.385276	-0.86986	-0.237168	0.504	0.8925	0.2325	0	109	121	3
2026-02-12	16:11:40.250	-2.625	-16.065	-19.495	-0.367952	-0.842288	-0.236436	0.501	0.894	0.234	0	109	121	3
2026-02-12	16:11:40.270	-10.465	-15.295	-22.085	-0.343308	-0.832772	-0.251808	0.498	0.8955	0.2355	0	109	121	3
2026-02-12	16:11:40.290	-16.24	-13.51	-23.205	-0.339892	-0.826428	-0.233996	0.5025	0.891	0.2325	0	109	121	3
2026-02-12	16:11:40.310	-17.815	-13.125	-22.82	-0.34526	-0.811788	-0.209596	0.4935	0.8955	0.24	0	109	121	3
2026-02-12	16:11:40.330	-17.255	-13.615	-22.575	-0.367464	-0.799588	-0.183488	0.4995	0.8985	0.2355	0	109	121	3
2026-02-12	16:11:40.350	-16.8	-13.93	-22.645	-0.373808	-0.80154	-0.166652	0.4995	0.882	0.2415	0	109	121	3
2026-02-12	16:11:40.370	-15.54	-13.79	-23.66	-0.377468	-0.798368	-0.152988	0.4935	0.891	0.2355	0	109	121	3
2026-02-12	16:11:40.390	-13.09	-14.385	-24.325	-0.375028	-0.807396	-0.127124	0.4935	0.891	0.2355	0	109	121	3
2026-02-12	16:11:40.410	-13.125	-13.545	-24.185	-0.377712	-0.828868	-0.127124	0.4935	0.8865	0.237	0	111	131	3
2026-02-12	16:11:40.430	-12.985	-11.725	-24.01	-0.39406	-0.845948	-0.13786	0.4935	0.8865	0.24	0	111	131	3
2026-02-12	16:11:40.450	-10.36	-9.87	-23.555	-0.398208	-0.879376	-0.140544	0.489	0.888	0.2415	0	111	131	3
2026-02-12	16:11:40.470	-7.875	-7.945	-22.015	-0.3965	-0.897676	-0.135908	0.4875	0.8865	0.2415	0	111	131	3
2026-02-12	16:11:40.490	-8.33	-5.67	-19.18	-0.401136	-0.933544	-0.134444	0.4815	0.8745	0.2535	0	111	131	3
2026-02-12	16:11:40.510	-7.455	-3.465	-15.82	-0.408212	-0.944524	-0.1403	0.4785	0.8865	0.246	0	111	131	3
2026-02-12	16:11:40.530	-3.01	-2.555	-11.515	-0.403088	-0.953064	-0.144936	0.4665	0.876	0.2475	0	111	131	3
2026-02-12	16:11:40.550	3.85	-2.52	-6.685	-0.408944	-0.959164	-0.143228	0.4815	0.8805	0.2445	0	111	131	3
2026-02-12	16:11:40.570	9.66	-2.38	-1.61	-0.408456	-0.975268	-0.15006	0.4725	0.879	0.2445	0	111	131	3
2026-02-12	16:11:40.590	15.085	-0.98	2.94	-0.408944	-0.999424	-0.166408	0.4815	0.8805	0.243	0	111	131	3
2026-02-12	16:11:40.610	16.17	2.38	5.635	-0.397232	-0.998448	-0.182512	0.4815	0.8805	0.243	0	112	143	3
2026-02-12	16:11:40.630	14.7	6.405	5.74	-0.417484	-0.987224	-0.203008	0.48	0.882	0.237	0	112	143	3
2026-02-12	16:11:40.650	14	9.905	4.235	-0.460916	-0.999912	-0.23058	0.4755	0.885	0.2325	0	112	143	3
2026-02-12	16:11:40.670	12.565	13.16	1.715	-0.479216	-1.05042	-0.24888	0.4755	0.888	0.2355	0	112	143	3
2026-02-12	16:11:40.690	9.24	16.275	-1.96	-0.460672	-1.112396	-0.268644	0.4785	0.888	0.237	0	112	143	3
2026-02-12	16:11:40.710	1.225	19.985	-5.04	-0.406016	-1.168272	-0.284504	0.4725	0.888	0.237	0	112	143	3
2026-02-12	16:11:40.730	-9.31	20.895	-6.335	-0.340624	-1.178764	-0.29158	0.468	0.8955	0.2355	0	112	143	3
2026-02-12	16:11:40.750	-14.595	19.285	-6.545	-0.280844	-1.166808	-0.275476	0.474	0.8925	0.2325	0	112	143	3
2026-02-12	16:11:40.770	-13.51	15.225	-2.975	-0.216428	-1.079944	-0.220088	0.477	0.894	0.24	0	112	143	3
2026-02-12	16:11:40.790	-7.35	8.995	3.57	-0.18544	-0.949648	-0.160308	0.4695	0.888	0.24	0	112	143	3
2026-02-12	16:11:40.810	11.725	0.49	14.315	-0.179584	-0.800564	-0.09076799	0.4695	0.8895	0.2295	0	113	156	3
2026-02-12	16:11:40.830	31.535	-4.935	24.605	-0.223992	-0.70516	-0.070028	0.4725	0.891	0.2295	0	113	156	3
2026-02-12	16:11:40.850	40.915	-4.445	29.225	-0.278892	-0.71492	-0.091744	0.477	0.891	0.2295	0	113	156	3
2026-02-12	16:11:40.870	42.77	-0.63	28.595	-0.310856	-0.750788	-0.132736	0.486	0.8955	0.2265	0	113	156	3
2026-02-12	16:11:40.890	35.245	5.775	23.94	-0.313784	-0.81984	-0.149816	0.492	0.9015	0.219	0	113	156	3
2026-02-12	16:11:40.910	18.025	13.055	18.305	-0.294752	-0.864004	-0.144936	0.4905	0.9	0.213	0	113	156	3
2026-02-12	16:11:40.930	-1.085	19.32	13.65	-0.282064	-0.891576	-0.151036	0.486	0.903	0.2175	0	113	156	3
2026-02-12	16:11:40.950	-13.65	23.1	10.71	-0.295728	-0.918416	-0.147376	0.498	0.9045	0.2175	0	113	156	3
2026-02-12	16:11:40.970	-18.27	23.94	7.945	-0.316224	-0.931104	-0.14396	0.489	0.906	0.2145	0	113	156	3
2026-02-12	16:11:40.990	-17.71	22.715	4.83	-0.325496	-0.943792	-0.120048	0.483	0.9015	0.2235	0	113	156	3
2026-02-12	16:11:41.010	-14.245	20.055	1.995	-0.347456	-0.931348	-0.110288	0.4965	0.894	0.2205	0	115	163	3
2026-02-12	16:11:41.030	-10.85	13.125	-0.28	-0.400892	-0.899384	-0.100284	0.4815	0.9015	0.2295	0	115	163	3
2026-02-12	16:11:41.050	-10.885	8.4	-0.665	-0.417972	-0.86864	-0.091256	0.48	0.897	0.2295	0	115	163	3
2026-02-12	16:11:41.070	-10.71	4.06	-0.84	-0.421144	-0.853512	-0.07076	0.4785	0.894	0.228	0	115	163	3
2026-02-12	16:11:41.090	-8.365	0.175	-0.385	-0.422608	-0.84546	-0.061	0.4785	0.8895	0.228	0	115	163	3
2026-02-12	16:11:41.110	-3.955	-1.505	0	-0.414068	-0.836676	-0.048312	0.48	0.8895	0.2295	0	115	163	3
2026-02-12	16:11:41.130	-1.89	-1.82	0.42	-0.413336	-0.834724	-0.039284	0.4845	0.8955	0.228	0	115	163	3
2026-02-12	16:11:41.150	-3.325	-1.75	1.12	-0.417728	-0.849608	-0.05612	0.4815	0.8925	0.2265	0	115	163	3
2026-02-12	16:11:41.170	-3.815	-1.505	2.205	-0.425048	-0.8662	-0.055632	0.48	0.897	0.231	0	115	163	3
2026-02-12	16:11:41.190	-3.045	-1.05	3.325	-0.427732	-0.872544	-0.046604	0.48	0.8985	0.2235	0	115	163	3
2026-02-12	16:11:41.210	-1.33	-0.28	4.445	-0.426512	-0.876936	-0.035136	0.483	0.8955	0.2355	0	117	156	3
2026-02-12	16:11:41.230	-0.035	-0.805	6.265	-0.431148	-0.8662	-0.021472	0.4785	0.8925	0.228	0	117	156	3
2026-02-12	16:11:41.250	3.29	-2.905	7.98	-0.445544	-0.858148	-0.00854	0.4785	0.8925	0.228	0	117	156	3
2026-02-12	16:11:41.270	8.225	-4.655	8.47	-0.451644	-0.861076	-0.01464	0.483	0.8955	0.228	0	117	156	3
2026-02-12	16:11:41.290	12.11	-6.23	7.42	-0.464088	-0.872056	-0.043676	0.4875	0.8985	0.2265	0	117	156	3
2026-02-12	16:11:41.310	12.6	-7.77	6.195	-0.484828	-0.933544	-0.094428	0.4905	0.894	0.228	0	117	156	3
2026-02-12	16:11:41.330	12.775	-9.59	2.415	-0.483608	-0.986736	-0.121268	0.4935	0.8895	0.2325	0	117	156	3
2026-02-12	16:11:41.350	12.775	-9.38	-3.955	-0.479216	-1.068964	-0.153476	0.4905	0.897	0.219	0	117	156	3
2026-02-12	16:11:41.370	5.67	-6.615	-10.185	-0.482144	-1.19804	-0.197396	0.4845	0.897	0.2205	0	117	156	3
2026-02-12	16:11:41.390	-6.755	-3.885	-16.03	-0.476776	-1.213412	-0.254492	0.495	0.9	0.2145	0	117	156	3
2026-02-12	16:11:41.410	-17.57	-2.87	-20.475	-0.456036	-1.19194	-0.28914	0.483	0.897	0.219	0	119	141	3
2026-02-12	16:11:41.430	-21.56	-5.425	-21.035	-0.409432	-1.14558	-0.257908	0.4845	0.9015	0.225	0	119	141	3
2026-02-12	16:11:41.450	-12.845	-10.395	-16.24	-0.35624	-1.020408	-0.199104	0.486	0.9	0.2265	0	119	141	3
2026-02-12	16:11:41.470	3.255	-15.575	-6.825	-0.341112	-0.898652	-0.172264	0.48	0.8985	0.228	0	119	141	3
2026-02-12	16:11:41.490	15.89	-19.775	0.07	-0.351848	-0.794464	-0.163968	0.4815	0.8985	0.2325	0	119	141	3
2026-02-12	16:11:41.510	21.525	-24.5	3.78	-0.365756	-0.734196	-0.169336	0.486	0.9	0.2325	0	119	141	3
2026-02-12	16:11:41.530	20.86	-26.81	2.73	-0.371368	-0.728096	-0.178852	0.486	0.906	0.225	0	119	141	3
2026-02-12	16:11:41.550	15.26	-27.79	-2.205	-0.375028	-0.793244	-0.205692	0.486	0.912	0.222	0	119	141	3
2026-02-12	16:11:41.570	9.345	-27.23	-7.56	-0.358924	-0.847412	-0.23912	0.495	0.9015	0.225	0	119	141	3
2026-02-12	16:11:41.590	7.14	-25.445	-14.28	-0.346236	-0.9211	-0.2806	0.4905	0.9045	0.222	0	119	141	3
2026-02-12	16:11:41.610	1.05	-23.66	-18.34	-0.321592	-0.978196	-0.304756	0.486	0.903	0.2115	0	123	139	3
2026-02-12	16:11:41.630	-10.745	-21.84	-21.21	-0.29524	-0.996008	-0.297192	0.489	0.9075	0.2145	0	123	139	3
2026-02-12	16:11:41.650	-20.3	-18.41	-22.855	-0.264008	-0.990152	-0.24278	0.483	0.8985	0.2145	0	123	139	3
2026-02-12	16:11:41.670	-19.81	-14.945	-21.525	-0.222528	-0.971852	-0.164944	0.4845	0.9045	0.2205	0	123	139	3
2026-02-12	16:11:41.690	-15.61	-13.44	-16.45	-0.244976	-0.946232	-0.162992	0.486	0.9015	0.219	0	123	139	3
2026-02-12	16:11:41.710	-7.07	-12.985	-12.425	-0.3111	-0.88694	-0.169824	0.4845	0.9	0.2205	0	123	139	3
2026-02-12	16:11:41.730	-1.61	-15.015	-11.375	-0.3294	-0.836676	-0.139324	0.4815	0.8955	0.225	0	123	139	3
2026-02-12	16:11:41.750	-1.435	-17.535	-11.935	-0.328912	-0.822524	-0.091744	0.4785	0.8925	0.2235	0	123	139	3
2026-02-12	16:11:41.770	-6.195	-18.48	-11.515	-0.33916	-0.83082	-0.07076	0.477	0.8955	0.2205	0	123	139	3
2026-02-12	16:11:41.790	-8.96	-18.2	-11.235	-0.363316	-0.827404	-0.060268	0.4815	0.9015	0.2265	0	123	139	3
2026-02-12	16:11:41.810	-6.265	-16.94	-12.6	-0.386252	-0.818132	-0.062464	0.48	0.903	0.222	0	126	148	3
2026-02-12	16:11:41.830	-4.97	-16.1	-13.405	-0.409188	-0.841068	-0.097844	0.48	0.9045	0.228	0	126	148	3
2026-02-12	16:11:41.850	-3.57	-15.925	-14	-0.428708	-0.862052	-0.132248	0.483	0.897	0.225	0	126	148	3
2026-02-12	16:11:41.870	-2.94	-16.17	-13.93	-0.411628	-0.908168	-0.109556	0.471	0.897	0.228	0	126	148	3
2026-02-12	16:11:41.890	-4.935	-14.035	-9.765	-0.39528	-0.881572	-0.073932	0.471	0.897	0.228	0	126	148	3
2026-02-12	16:11:41.910	4.2	-9.52	-9.345	-0.376248	-0.965996	-0.109556	0.4755	0.9015	0.2235	0	126	148	3
2026-02-12	16:11:41.930	9.8	-6.37	-4.34	-0.37942	-0.972096	-0.118584	0.4755	0.903	0.2235	0	126	148	3
2026-02-12	16:11:41.950	12.845	-4.935	-0.035	-0.357216	-0.986736	-0.118828	0.477	0.9	0.228	0	126	148	3
2026-02-12	16:11:41.970	12.81	-2.59	5.53	-0.350628	-1.018456	-0.147132	0.4815	0.9045	0.228	0	126	148	3
2026-02-12	16:11:41.990	13.055	0.56	8.995	-0.354288	-1.012844	-0.155916	0.4815	0.9075	0.2295	0	126	148	3
2026-02-12	16:11:42.010	16.485	5.565	7.98	-0.356972	-0.960628	-0.1708	0.4695	0.9	0.2175	0	129	152	3
2026-02-12	16:11:42.030	13.685	10.71	4.585	-0.365756	-0.927932	-0.183976	0.477	0.912	0.2235	0	129	152	3
2026-02-12	16:11:42.050	5.6	14.875	0.77	-0.391132	-0.936472	-0.19276	0.4755	0.903	0.213	0	129	152	3
2026-02-12	16:11:42.070	-1.68	17.815	-3.815	-0.38552	-0.97722	-0.1952	0.474	0.906	0.216	0	129	152	3
2026-02-12	16:11:42.090	-5.985	22.33	-11.655	-0.341356	-1.033584	-0.197884	0.4815	0.903	0.216	0	129	152	3
2026-02-12	16:11:42.110	-10.99	26.355	-18.655	-0.25742	-1.093608	-0.192516	0.4695	0.906	0.216	0	129	152	3
2026-02-12	16:11:42.130	-19.075	27.65	-19.145	-0.210572	-1.116788	-0.183244	0.4635	0.909	0.216	0	129	152	3
2026-02-12	16:11:42.150	-23.205	24.815	-15.61	-0.165188	-1.076528	-0.154696	0.4605	0.912	0.216	0	129	152	3
2026-02-12	16:11:42.170	-18.655	18.41	-9.625	-0.158112	-0.996984	-0.099796	0.4545	0.912	0.222	0	129	152	3
2026-02-12	16:11:42.190	-6.685	12.18	-1.925	-0.175924	-0.921832	-0.061732	0.456	0.909	0.2265	0	129	152	3
2026-02-12	16:11:42.210	7.315	8.26	5.11	-0.22814	-0.862296	-0.062708	0.4575	0.9	0.2295	0	130	152	3
2026-02-12	16:11:42.230	17.815	6.79	9.275	-0.285236	-0.86254	-0.08906	0.459	0.906	0.2295	0	130	152	3
2026-02-12	16:11:42.250	20.265	7.35	10.01	-0.283528	-0.889136	-0.1098	0.4605	0.9135	0.2295	0	130	152	3
2026-02-12	16:11:42.270	10.78	9.765	9.415	-0.256688	-0.926956	-0.113704	0.447	0.9105	0.2145	0	130	152	3
2026-02-12	16:11:42.290	0.77	12.635	8.715	-0.23546	-0.966484	-0.141276	0.4635	0.9135	0.2205	0	130	152	3
2026-02-12	16:11:42.310	-5.6	16.73	10.22	-0.2318	-0.981124	-0.177388	0.4545	0.912	0.216	0	130	152	3
2026-02-12	16:11:42.330	-3.29	16.975	10.57	-0.235216	-0.991128	-0.183244	0.4545	0.9075	0.219	0	130	152	3
2026-02-12	16:11:42.350	-1.82	16.87	11.48	-0.253516	-0.98698	-0.160552	0.4575	0.906	0.219	0	130	152	3
2026-02-12	16:11:42.370	-3.08	16.555	12.81	-0.276208	-0.979172	-0.132492	0.4605	0.9075	0.216	0	130	152	3
2026-02-12	16:11:42.390	-3.36	17.115	13.055	-0.290848	-0.941596	-0.10858	0.459	0.909	0.2205	0	130	152	3
2026-02-12	16:11:42.410	-5.18	17.465	12.11	-0.30866	-0.918904	-0.111752	0.459	0.912	0.225	0	129	149	3
2026-02-12	16:11:42.430	-6.79	15.365	11.095	-0.312076	-0.912072	-0.116388	0.462	0.9045	0.216	0	129	149	3
2026-02-12	16:11:42.450	-4.515	11.865	9.87	-0.320128	-0.875716	-0.094184	0.45	0.9075	0.2265	0	129	149	3
2026-02-12	16:11:42.470	-3.885	8.645	8.47	-0.32696	-0.850828	-0.061488	0.465	0.915	0.2175	0	129	149	3
2026-02-12	16:11:42.490	-3.815	6.44	6.965	-0.343796	-0.840824	-0.054168	0.468	0.912	0.2205	0	129	149	3
2026-02-12	16:11:42.510	-3.675	4.06	5.355	-0.354044	-0.848144	-0.062952	0.459	0.915	0.2205	0	129	149	3
2026-02-12	16:11:42.530	-1.015	1.085	3.29	-0.364536	-0.853512	-0.07442	0.459	0.915	0.2205	0	129	149	3
2026-02-12	16:11:42.550	-1.05	0.21	2.135	-0.368684	-0.85156	-0.064416	0.4605	0.915	0.2175	0	129	149	3
2026-02-12	16:11:42.570	-2.31	0.315	1.33	-0.372832	-0.85888	-0.06588	0.459	0.9135	0.2175	0	129	149	3
2026-02-12	16:11:42.590	-3.325	0.875	1.015	-0.386984	-0.878888	-0.072956	0.459	0.9105	0.2145	0	129	149	3
2026-02-12	16:11:42.610	-2.835	1.225	2.205	-0.401136	-0.892552	-0.059048	0.4605	0.9105	0.2145	0	127	141	2
2026-02-12	16:11:42.630	-1.785	1.82	3.29	-0.414312	-0.883036	-0.051728	0.4605	0.9105	0.2205	0	127	141	2
2026-02-12	16:11:42.650	1.75	2.59	3.815	-0.422608	-0.878156	-0.05734	0.465	0.9165	0.216	0	127	141	2
2026-02-12	16:11:42.670	3.045	2.485	5.635	-0.433832	-0.8906	-0.050264	0.4605	0.9075	0.216	0	127	141	2
2026-02-12	16:11:42.690	-1.26	0.245	9.205	-0.43554	-0.924028	-0.06954	0.462	0.915	0.213	0	127	141	2
2026-02-12	16:11:42.710	-5.005	-2.59	12.39	-0.449692	-0.951112	-0.083936	0.4635	0.9045	0.216	0	127	141	2
2026-02-12	16:11:42.730	-0.525	-5.74	14.105	-0.441152	-0.9577	-0.089548	0.468	0.9075	0.219	0	127	141	2
2026-02-12	16:11:42.750	-0.735	-7.14	13.09	-0.434076	-0.97478	-0.09882	0.4665	0.909	0.2235	0	127	141	2
2026-02-12	16:11:42.770	-4.83	-7.21	10.08	-0.43188	-1.017724	-0.127612	0.4725	0.915	0.222	0	127	141	2
2026-02-12	16:11:42.790	-9.135	-7.49	5.845	-0.444324	-1.027972	-0.14518	0.474	0.9165	0.2205	0	127	141	2
2026-02-12	16:11:42.810	-13.055	-6.895	0.98	-0.461648	-1.084092	-0.170312	0.4725	0.915	0.222	0	124	130	3
2026-02-12	16:11:42.830	-14.105	-6.3	-3.08	-0.486536	-1.078236	-0.198128	0.4755	0.9135	0.219	0	124	130	3
2026-02-12	16:11:42.850	-19.495	-6.335	-5.32	-0.4758	-1.075064	-0.227652	0.4755	0.9075	0.2205	0	124	130	3
2026-02-12	16:11:42.870	-23.905	-7.98	-5.985	-0.426512	-1.0431	-0.23424	0.4755	0.912	0.2235	0	124	130	3
2026-02-12	16:11:42.890	-23.695	-12.355	-3.325	-0.384056	-0.967216	-0.238632	0.483	0.9165	0.219	0	124	130	3
2026-02-12	16:11:42.910	-16.03	-17.85	0.945	-0.382104	-0.9089	-0.238388	0.474	0.912	0.2325	0	124	130	3
2026-02-12	16:11:42.930	-5.075	-23.73	4.76	-0.382348	-0.863272	-0.218136	0.486	0.9045	0.225	0	124	130	3
2026-02-12	16:11:42.950	7.105	-31.395	6.65	-0.39772	-0.81374	-0.218624	0.4875	0.9045	0.234	0	124	130	3
2026-02-12	16:11:42.970	6.65	-36.225	3.85	-0.415288	-0.825208	-0.24156	0.4905	0.9105	0.2295	0	124	130	3
2026-02-12	16:11:42.990	-0.56	-40.18	-1.26	-0.405772	-0.878156	-0.246928	0.492	0.9105	0.2265	0	124	130	3
2026-02-12	16:11:43.010	-5.215	-40.74	-7.805	-0.375272	-0.91622	-0.267424	0.4935	0.906	0.2295	0	122	131	3
2026-02-12	16:11:43.030	-7.42	-38.57	-12.285	-0.341356	-0.981856	-0.286212	0.4965	0.906	0.228	0	122	131	3
2026-02-12	16:11:43.050	-9.415	-37.03	-14.245	-0.326472	-1.010892	-0.303536	0.4965	0.9015	0.2265	0	122	131	3
2026-02-12	16:11:43.070	-12.845	-37.415	-14.735	-0.29402	-0.99674	-0.306952	0.501	0.912	0.2325	0	122	131	3
2026-02-12	16:11:43.090	-14.49	-37.135	-13.615	-0.28182	-0.963556	-0.286944	0.504	0.9075	0.228	0	122	131	3
2026-02-12	16:11:43.110	-13.195	-36.68	-11.235	-0.278648	-0.907924	-0.233752	0.501	0.909	0.2295	0	122	131	3
2026-02-12	16:11:43.130	-11.06	-36.68	-8.575	-0.305	-0.864004	-0.194224	0.4995	0.903	0.231	0	122	131	3
2026-02-12	16:11:43.150	-7.175	-36.68	-6.615	-0.327448	-0.826916	-0.158112	0.513	0.912	0.228	0	122	131	3
2026-02-12	16:11:43.170	-1.82	-36.05	-4.62	-0.341356	-0.794708	-0.111264	0.513	0.912	0.228	0	122	131	3
2026-02-12	16:11:43.190	0.49	-34.545	-3.745	-0.354044	-0.77714	-0.092964	0.5115	0.906	0.2295	0	122	131	3
2026-02-12	16:11:43.210	0.945	-32.55	-3.92	-0.381372	-0.763964	-0.101748	0.522	0.9045	0.2355	0	121	147	3
2026-02-12	16:11:43.230	-0.63	-30.275	-4.655	-0.38552	-0.789584	-0.113704	0.5265	0.9075	0.237	0	121	147	3
2026-02-12	16:11:43.250	-1.61	-27.72	-5.425	-0.404796	-0.824476	-0.119072	0.522	0.9075	0.234	0	121	147	3
2026-02-12	16:11:43.270	-1.435	-24.325	-6.685	-0.415532	-0.861076	-0.121756	0.5325	0.903	0.228	0	121	147	3
2026-02-12	16:11:43.290	-2.275	-20.86	-7.56	-0.435052	-0.8784	-0.111752	0.5265	0.9165	0.2355	0	121	147	3
2026-02-12	16:11:43.310	-5.39	-18.585	-7.665	-0.44286	-0.906216	-0.105896	0.5265	0.903	0.231	0	121	147	3
2026-02-12	16:11:43.330	-7.63	-18.585	-5.705	-0.433832	-0.939888	-0.099064	0.522	0.909	0.225	0	121	147	3
2026-02-12	16:11:43.350	-5.005	-19.6	-1.575	-0.411628	-0.961116	-0.093208	0.531	0.9	0.2235	0	121	147	3
2026-02-12	16:11:43.370	8.05	-19.285	3.29	-0.399428	-0.958676	-0.13054	0.528	0.915	0.234	0	121	147	3
2026-02-12	16:11:43.390	20.58	-18.165	7.42	-0.384544	-0.958432	-0.183976	0.5295	0.909	0.2325	0	121	147	3
2026-02-12	16:11:43.410	23.87	-17.115	9.38	-0.37698	-0.966728	-0.208376	0.537	0.909	0.2295	0	121	158	3
2026-02-12	16:11:43.430	24.395	-13.545	9.45	-0.396012	-0.968924	-0.216672	0.5415	0.9135	0.222	0	121	158	3
2026-02-12	16:11:43.450	21.805	-6.58	6.195	-0.43432	-0.964776	-0.218624	0.543	0.9165	0.2175	0	121	158	3
2026-02-12	16:11:43.470	11.445	3.325	-0.595	-0.441396	-0.988932	-0.242048	0.546	0.921	0.219	0	121	158	3
2026-02-12	16:11:43.490	-2.59	13.265	-8.47	-0.446764	-1.026996	-0.267424	0.54	0.9225	0.2085	0	121	158	3
2026-02-12	16:11:43.510	-15.575	21.525	-15.82	-0.401624	-1.049932	-0.248636	0.5415	0.918	0.2145	0	121	158	3
2026-02-12	16:11:43.530	-24.78	28	-20.125	-0.309148	-1.057984	-0.214232	0.5415	0.9135	0.2145	0	121	158	3
2026-02-12	16:11:43.550	-31.605	32.025	-17.745	-0.245952	-1.052128	-0.167384	0.5325	0.915	0.2265	0	121	158	3
2026-02-12	16:11:43.570	-30.8	32.165	-9.135	-0.234728	-0.96868	-0.120536	0.525	0.9135	0.2205	0	121	158	3
2026-02-12	16:11:43.590	-14.525	26.355	5.985	-0.254736	-0.854976	-0.089792	0.528	0.9165	0.2325	0	121	158	3
2026-02-12	16:11:43.610	-2.1	21.49	15.085	-0.303292	-0.81496	-0.091012	0.528	0.9135	0.231	0	121	164	3
2026-02-12	16:11:43.630	10.36	17.115	21.805	-0.34038	-0.826916	-0.08906	0.5295	0.9105	0.234	0	121	164	3
2026-02-12	16:11:43.650	20.195	15.12	23.8	-0.353312	-0.832528	-0.11346	0.5325	0.9075	0.2355	0	121	164	3
2026-02-12	16:11:43.670	19.425	16.03	21.595	-0.346724	-0.86742	-0.13054	0.54	0.9135	0.2265	0	121	164	3
2026-02-12	16:11:43.690	10.92	18.305	17.5	-0.314028	-0.905484	-0.152012	0.5445	0.921	0.2205	0	121	164	3
2026-02-12	16:11:43.710	1.225	20.79	14.735	-0.291336	-0.963312	-0.178364	0.537	0.915	0.2265	0	121	164	3
2026-02-12	16:11:43.730	-6.125	22.645	13.72	-0.293532	-0.985516	-0.178364	0.5355	0.912	0.222	0	121	164	3
2026-02-12	16:11:43.750	-7.875	23.31	11.9	-0.314028	-0.977952	-0.169824	0.537	0.9195	0.2355	0	121	164	3
2026-02-12	16:11:43.770	-7.56	23.205	10.15	-0.33916	-0.957456	-0.1525	0.534	0.9105	0.2325	0	121	164	3
2026-02-12	16:11:43.790	-5.355	22.435	7.665	-0.36356	-0.9211	-0.143716	0.5475	0.9105	0.231	0	121	164	3
2026-02-12	16:11:43.810	-5.495	18.9	3.99	-0.401136	-0.853512	-0.126148	0.5475	0.9105	0.231	0	120	164	3
2026-02-12	16:11:43.830	-9.1	15.82	1.19	-0.42334	-0.835456	-0.108336	0.543	0.912	0.231	0	120	164	3
2026-02-12	16:11:43.850	-12.565	12.145	-1.155	-0.439444	-0.818376	-0.097112	0.54	0.912	0.234	0	120	164	3
2026-02-12	16:11:43.870	-13.16	7.28	-2.905	-0.437736	-0.826184	-0.0915	0.5385	0.9135	0.2385	0	120	164	3
2026-02-12	16:11:43.890	-8.575	3.08	-3.78	-0.427732	-0.833016	-0.08174	0.537	0.9165	0.2385	0	120	164	3
2026-02-12	16:11:43.910	-4.165	-0.63	-3.5	-0.415776	-0.830088	-0.074908	0.5295	0.9045	0.2355	0	120	164	3
2026-02-12	16:11:43.930	-3.185	-2.975	-2.45	-0.415044	-0.836188	-0.083204	0.5355	0.9015	0.2415	0	120	164	3
2026-02-12	16:11:43.950	-2.415	-3.78	-1.05	-0.420412	-0.84668	-0.088572	0.5295	0.903	0.237	0	120	164	3
2026-02-12	16:11:43.970	-0.735	-4.165	0.315	-0.426268	-0.857416	-0.088816	0.543	0.9045	0.2355	0	120	164	3
2026-02-12	16:11:43.990	0.56	-3.99	1.015	-0.432368	-0.856196	-0.07808	0.543	0.9105	0.2355	0	120	164	3
2026-02-12	16:11:44.010	0.7	-2.415	2.975	-0.43798	-0.860344	-0.059536	0.546	0.9075	0.2355	0	119	157	2
2026-02-12	16:11:44.030	-0.105	-1.96	5.005	-0.451156	-0.857172	-0.061732	0.549	0.906	0.237	0	119	157	2
2026-02-12	16:11:44.050	-0.35	-2.31	6.51	-0.458476	-0.86498	-0.069784	0.5475	0.906	0.2355	0	119	157	2
2026-02-12	16:11:44.070	-0.105	-2.625	7.455	-0.47458	-0.881328	-0.097112	0.5475	0.9075	0.24	0	119	157	2
2026-02-12	16:11:44.090	1.645	-3.115	7.735	-0.485316	-0.903776	-0.121512	0.546	0.9075	0.2445	0	119	157	2
2026-02-12	16:11:44.110	2.45	-4.235	6.615	-0.48678	-0.923784	-0.141032	0.546	0.9075	0.243	0	119	157	2
2026-02-12	16:11:44.130	1.575	-5.18	4.515	-0.480436	-0.946476	-0.14518	0.5535	0.906	0.243	0	119	157	2
2026-02-12	16:11:44.150	-1.47	-4.27	1.715	-0.47214	-0.966972	-0.146644	0.5505	0.909	0.24	0	119	157	2
2026-02-12	16:11:44.170	-6.125	-3.29	-1.365	-0.473604	-1.010648	-0.169824	0.5565	0.9045	0.234	0	119	157	2
2026-02-12	16:11:44.190	-11.83	-1.47	-3.605	-0.48922	-1.058472	-0.201788	0.558	0.9045	0.2385	0	119	157	2
2026-02-12	16:11:44.210	-17.115	-0.14	-5.25	-0.491416	-1.1102	-0.249368	0.5565	0.9015	0.2415	0	117	147	3
2026-02-12	16:11:44.230	-18.865	0.07	-6.44	-0.476776	-1.081408	-0.267668	0.558	0.9105	0.24	0	117	147	3
2026-02-12	16:11:44.250	-20.72	-0.98	-5.53	-0.42822	-1.028216	-0.258884	0.558	0.906	0.2475	0	117	147	3
2026-02-12	16:11:44.270	-18.305	-4.2	-2.45	-0.392596	-0.958188	-0.239364	0.5565	0.9045	0.252	0	117	147	3
2026-02-12	16:11:44.290	-8.715	-10.15	1.365	-0.375516	-0.9272	-0.218624	0.5535	0.906	0.252	0	117	147	3
2026-02-12	16:11:44.310	3.535	-14.875	4.515	-0.387472	-0.875472	-0.203496	0.5535	0.9015	0.252	0	117	147	3
2026-02-12	16:11:44.330	10.745	-18.76	4.865	-0.393084	-0.866932	-0.210328	0.5565	0.8985	0.249	0	117	147	3
2026-02-12	16:11:44.350	10.605	-23.31	3.255	-0.376004	-0.878156	-0.232532	0.5565	0.897	0.2535	0	117	147	3
2026-02-12	16:11:44.370	7.595	-27.335	0.21	-0.36722	-0.898652	-0.255468	0.561	0.897	0.255	0	117	147	3
2026-02-12	16:11:44.390	4.55	-27.825	-5.425	-0.356484	-0.905484	-0.25986	0.5655	0.9045	0.255	0	117	147	3
2026-02-12	16:11:44.410	-0.07	-24.29	-11.83	-0.335744	-0.95404	-0.276696	0.561	0.9105	0.2385	0	116	151	3
2026-02-12	16:11:44.430	-3.78	-19.985	-15.925	-0.327204	-0.953552	-0.281088	0.5745	0.8985	0.246	0	116	151	3
2026-02-12	16:11:44.450	-10.92	-19.6	-18.27	-0.29768	-0.927932	-0.258396	0.567	0.9075	0.2475	0	116	151	3
2026-02-12	16:11:44.470	-10.43	-18.235	-17.29	-0.30134	-0.887184	-0.216672	0.567	0.903	0.246	0	116	151	3
2026-02-12	16:11:44.490	-7.525	-16.52	-14.49	-0.318908	-0.856928	-0.189588	0.5655	0.8985	0.243	0	116	151	3
2026-02-12	16:11:44.510	-2.31	-16.065	-13.02	-0.341356	-0.822036	-0.16836	0.5655	0.9045	0.2445	0	116	151	3
2026-02-12	16:11:44.530	0.28	-17.185	-11.55	-0.35136	-0.820084	-0.162748	0.5685	0.909	0.249	0	116	151	3
2026-02-12	16:11:44.550	1.295	-17.395	-10.57	-0.371368	-0.813496	-0.142008	0.564	0.9135	0.246	0	116	151	3
2026-02-12	16:11:44.570	2.555	-16.73	-9.975	-0.372832	-0.815692	-0.130784	0.567	0.9105	0.2445	0	116	151	3
2026-02-12	16:11:44.590	2.765	-15.19	-9.835	-0.377956	-0.815204	-0.142496	0.5715	0.9075	0.2475	0	116	151	3
2026-02-12	16:11:44.610	3.22	-12.915	-9.695	-0.377712	-0.824476	-0.152988	0.558	0.9075	0.2475	0	115	164	3
2026-02-12	16:11:44.630	5.775	-9.94	-9.17	-0.388448	-0.822036	-0.150304	0.579	0.912	0.243	0	115	164	3
2026-02-12	16:11:44.650	8.435	-5.6	-8.19	-0.394304	-0.843752	-0.15494	0.573	0.9165	0.246	0	115	164	3
2026-02-12	16:11:44.670	8.4	-0.7	-6.965	-0.410164	-0.850096	-0.167628	0.573	0.9165	0.246	0	115	164	3
2026-02-12	16:11:44.690	5.915	2.975	-6.405	-0.417728	-0.862052	-0.16958	0.5685	0.9105	0.243	0	115	164	3
2026-02-12	16:11:44.710	4.13	5.32	-5.495	-0.421144	-0.866688	-0.166164	0.564	0.9075	0.2355	0	115	164	3
2026-02-12	16:11:44.730	4.515	6.3	-3.885	-0.416996	-0.88084	-0.162748	0.564	0.912	0.2355	0	115	164	3
2026-02-12	16:11:44.750	6.335	6.335	-1.82	-0.419436	-0.898164	-0.160796	0.564	0.915	0.24	0	115	164	3
2026-02-12	16:11:44.770	9.38	5.6	-0.21	-0.415044	-0.90524	-0.151036	0.567	0.9165	0.228	0	115	164	3
2026-02-12	16:11:44.790	11.41	5.25	0.7	-0.409676	-0.933788	-0.160064	0.5685	0.918	0.234	0	115	164	3
2026-02-12	16:11:44.810	12.145	6.335	0.105	-0.40992	-0.951112	-0.172264	0.564	0.9285	0.2295	0	113	172	3
2026-02-12	16:11:44.830	11.375	8.715	-2.415	-0.409188	-0.963312	-0.186416	0.5655	0.921	0.2295	0	113	172	3
2026-02-12	16:11:44.850	8.085	11.06	-6.65	-0.437248	-0.969168	-0.211304	0.567	0.918	0.225	0	113	172	3
2026-02-12	16:11:44.870	4.445	13.545	-15.225	-0.44164	-1.00284	-0.228872	0.5625	0.9225	0.2325	0	113	172	3
2026-02-12	16:11:44.890	0.77	15.05	-24.36	-0.41114	-1.091412	-0.221796	0.5565	0.918	0.2295	0	113	172	3
2026-02-12	16:11:44.910	-3.64	15.33	-27.79	-0.355264	-1.16998	-0.207156	0.549	0.918	0.225	0	113	172	3
2026-02-12	16:11:44.930	-6.72	15.54	-27.23	-0.321104	-1.17608	-0.190076	0.5475	0.921	0.2235	0	113	172	3
2026-02-12	16:11:44.950	-7.84	14.77	-22.995	-0.260592	-1.125572	-0.18666	0.5475	0.918	0.225	0	113	172	3
2026-02-12	16:11:44.970	-3.43	10.955	-15.89	-0.222284	-1.037	-0.169824	0.5445	0.9255	0.2295	0	113	172	3
2026-02-12	16:11:44.990	7.35	5.74	-7.105	-0.191296	-0.943548	-0.118828	0.5385	0.9225	0.2265	0	113	172	3
2026-02-12	16:11:45.010	19.425	2.59	3.255	-0.196176	-0.867176	-0.097356	0.537	0.9225	0.2235	0	111	176	3
2026-02-12	16:11:45.030	29.12	1.89	13.755	-0.239852	-0.831308	-0.09516	0.549	0.924	0.2265	0	111	176	3
2026-02-12	16:11:45.050	36.295	3.22	20.195	-0.264252	-0.846924	-0.116388	0.5385	0.9255	0.2205	0	111	176	3
2026-02-12	16:11:45.070	36.645	7.91	22.68	-0.251564	-0.875716	-0.116632	0.54	0.9345	0.2205	0	111	176	3
2026-02-12	16:11:45.090	17.71	18.48	23.275	-0.220088	-0.894504	-0.119804	0.552	0.933	0.2145	0	111	176	3
2026-02-12	16:11:45.110	3.99	24.22	23.52	-0.222284	-0.9089	-0.135664	0.5535	0.93	0.21	0	111	176	3
2026-02-12	16:11:45.130	-0.245	28.805	23.66	-0.268888	-0.90402	-0.142496	0.555	0.933	0.2085	0	111	176	3
2026-02-12	16:11:45.150	-0.175	32.935	21.63	-0.304268	-0.916464	-0.130052	0.5595	0.939	0.2115	0	111	176	3
2026-02-12	16:11:45.170	-4.165	35.805	17.78	-0.332816	-0.932812	-0.131272	0.5655	0.9405	0.2145	0	111	176	3
2026-02-12	16:11:45.190	-10.675	36.785	14.77	-0.332328	-0.926468	-0.124196	0.5535	0.936	0.2085	0	111	176	3
2026-02-12	16:11:45.210	-15.82	34.965	13.3	-0.346724	-0.902312	-0.098332	0.5535	0.927	0.2115	0	111	172	3
2026-02-12	16:11:45.230	-16.59	30.45	13.02	-0.364536	-0.872056	-0.068564	0.5565	0.9285	0.216	0	111	172	3
2026-02-12	16:11:45.250	-14.245	25.165	13.405	-0.393572	-0.851804	-0.047336	0.552	0.927	0.225	0	111	172	3
2026-02-12	16:11:45.270	-10.465	20.965	13.475	-0.407236	-0.86254	-0.034892	0.5655	0.936	0.216	0	111	172	3
2026-02-12	16:11:45.290	-4.76	17.08	14.385	-0.428464	-0.859368	-0.029036	0.555	0.9255	0.2175	0	111	172	3
2026-02-12	16:11:45.310	-1.05	15.33	15.785	-0.438712	-0.847168	-0.030988	0.555	0.9255	0.2175	0	111	172	3
2026-02-12	16:11:45.330	-0.49	14.525	17.255	-0.443104	-0.8357	-0.032696	0.5595	0.927	0.222	0	111	172	3
2026-02-12	16:11:45.350	-1.505	14.105	18.55	-0.45262	-0.844484	-0.035868	0.564	0.924	0.2265	0	111	172	3
2026-02-12	16:11:45.370	0.735	13.335	19.67	-0.464332	-0.860344	-0.03904	0.564	0.918	0.225	0	111	172	3
2026-02-12	16:11:45.390	4.585	12.005	21	-0.461648	-0.85766	-0.025376	0.5625	0.918	0.2235	0	111	172	3
2026-02-12	16:11:45.410	8.365	10.255	21.945	-0.4758	-0.859368	-0.017324	0.57	0.918	0.228	0	111	157	3
2026-02-12	16:11:45.430	10.36	7.77	22.995	-0.485316	-0.850096	-0.01708	0.576	0.9225	0.225	0	111	157	3
2026-02-12	16:11:45.450	9.03	4.41	24.29	-0.496052	-0.861564	-0.02562	0.5775	0.924	0.225	0	111	157	3
2026-02-12	16:11:45.470	6.09	0.945	25.025	-0.507032	-0.884988	-0.046604	0.57	0.921	0.219	0	111	157	3
2026-02-12	16:11:45.490	5.285	-2.275	24.605	-0.5063	-0.919148	-0.075884	0.5805	0.912	0.228	0	111	157	3
2026-02-12	16:11:45.510	6.265	-3.535	22.54	-0.498248	-0.95404	-0.1098	0.5835	0.9195	0.219	0	111	157	3
2026-02-12	16:11:45.530	6.23	-1.855	19.005	-0.470188	-0.971608	-0.153476	0.588	0.918	0.225	0	111	157	3
2026-02-12	16:11:45.550	3.465	1.12	15.085	-0.498736	-0.975512	-0.177388	0.594	0.918	0.2295	0	111	157	3
2026-02-12	16:11:45.570	-3.605	4.515	9.31	-0.51362	-1.047736	-0.21228	0.5985	0.9195	0.2235	0	111	157	3
2026-02-12	16:11:45.590	-10.465	8.085	3.15	-0.50996	-1.106784	-0.245708	0.6015	0.9195	0.222	0	111	157	3
2026-02-12	16:11:45.610	-17.64	11.865	-1.015	-0.49898	-1.081652	-0.274744	0.591	0.909	0.228	0	112	139	3
2026-02-12	16:11:45.630	-21.735	12.425	-1.54	-0.477752	-0.992836	-0.292068	0.5955	0.9135	0.2385	0	112	139	3
2026-02-12	16:11:45.650	-20.055	8.295	0.35	-0.453596	-0.91134	-0.27816	0.5925	0.9135	0.2325	0	112	139	3
2026-02-12	16:11:45.670	-12.74	1.295	3.64	-0.4331	-0.853756	-0.24644	0.5895	0.909	0.231	0	112	139	3
2026-02-12	16:11:45.690	-3.045	-6.335	7.07	-0.436516	-0.837896	-0.20496	0.5955	0.9195	0.246	0	112	139	3
2026-02-12	16:11:45.710	4.48	-14.105	8.785	-0.43798	-0.81252	-0.170556	0.6	0.9105	0.2445	0	112	139	3
2026-02-12	16:11:45.730	8.085	-21.77	6.965	-0.428708	-0.847168	-0.17934	0.609	0.9045	0.2355	0	112	139	3
2026-02-12	16:11:45.750	6.23	-22.82	2.73	-0.428464	-0.890112	-0.217892	0.6075	0.9045	0.2355	0	112	139	3
2026-02-12	16:11:45.770	2.94	-21.735	-2.45	-0.406504	-0.901824	-0.244732	0.606	0.906	0.234	0	112	139	3
2026-02-12	16:11:45.790	-0.245	-17.99	-7.77	-0.404552	-0.916708	-0.264252	0.6075	0.906	0.234	0	112	139	3
2026-02-12	16:11:45.810	-3.22	-13.965	-11.795	-0.393084	-0.932812	-0.258152	0.6105	0.9045	0.237	0	114	139	3
2026-02-12	16:11:45.830	-7.56	-10.185	-13.23	-0.388936	-0.934032	-0.259372	0.6135	0.9105	0.2325	0	114	139	3
2026-02-12	16:11:45.850	-10.43	-6.965	-12.46	-0.383812	-0.90402	-0.249856	0.6045	0.906	0.2415	0	114	139	3
2026-02-12	16:11:45.870	-9.52	-4.62	-10.325	-0.39894	-0.85644	-0.225212	0.606	0.9015	0.237	0	114	139	3
2026-02-12	16:11:45.890	-8.995	-5.075	-7.28	-0.406992	-0.845948	-0.188124	0.609	0.9165	0.24	0	114	139	3
2026-02-12	16:11:45.910	-5.11	-6.615	-4.48	-0.417728	-0.819108	-0.144448	0.6	0.909	0.2415	0	114	139	3
2026-02-12	16:11:45.930	-1.225	-7.315	-2.065	-0.43676	-0.809592	-0.127612	0.603	0.9105	0.243	0	114	139	3
2026-02-12	16:11:45.950	3.36	-8.26	-0.56	-0.443348	-0.781044	-0.118584	0.603	0.9105	0.243	0	114	139	3
2026-02-12	16:11:45.970	3.395	-8.26	-0.49	-0.448716	-0.770796	-0.10736	0.6045	0.906	0.243	0	114	139	3
2026-02-12	16:11:45.990	2.555	-7.49	-0.7	-0.449692	-0.782264	-0.109556	0.6075	0.903	0.2385	0	114	139	3
2026-02-12	16:11:46.010	4.235	-5.425	-1.365	-0.461404	-0.787876	-0.109312	0.612	0.903	0.2355	0	116	152	3
2026-02-12	16:11:46.030	7.77	-2.45	-2.065	-0.4758	-0.792512	-0.108824	0.615	0.903	0.237	0	116	152	3
2026-02-12	16:11:46.050	9.38	1.015	-2.975	-0.487756	-0.797148	-0.110044	0.606	0.9045	0.2385	0	116	152	3
2026-02-12	16:11:46.070	9.135	3.57	-4.48	-0.499956	-0.826428	-0.112484	0.6045	0.915	0.2325	0	116	152	3
2026-02-12	16:11:46.090	8.33	5.425	-5.18	-0.505812	-0.833016	-0.10736	0.6045	0.9	0.24	0	116	152	3
2026-02-12	16:11:46.110	8.015	6.65	-5.39	-0.514352	-0.832284	-0.104676	0.6135	0.9015	0.228	0	116	152	3
2026-02-12	16:11:46.130	9.38	7.21	-4.515	-0.514596	-0.852292	-0.097112	0.5985	0.912	0.2295	0	116	152	3
2026-02-12	16:11:46.150	13.51	7	-3.955	-0.501176	-0.896212	-0.101504	0.603	0.9105	0.237	0	116	152	3
2026-02-12	16:11:46.170	18.55	8.33	-3.465	-0.477752	-0.959164	-0.119072	0.6015	0.912	0.2325	0	116	152	3
2026-02-12	16:11:46.190	22.54	10.815	-3.955	-0.46238	-0.96624	-0.133956	0.6	0.912	0.2295	0	116	152	3
2026-02-12	16:11:46.210	24.01	13.79	-4.445	-0.47092	-0.939644	-0.158356	0.5985	0.9135	0.228	0	117	157	3
2026-02-12	16:11:46.230	25.655	16.135	-5.285	-0.51728	-0.929884	-0.186416	0.6	0.918	0.2265	0	117	157	3
2026-02-12	16:11:46.250	26.985	18.83	-9.94	-0.53436	-0.939644	-0.195444	0.5955	0.9195	0.222	0	117	157	3
2026-02-12	16:11:46.270	25.27	22.96	-18.69	-0.519476	-0.948184	-0.197152	0.5925	0.921	0.222	0	117	157	3
2026-02-12	16:11:46.290	17.22	26.985	-28.14	-0.443104	-1.032852	-0.179584	0.597	0.924	0.216	0	117	157	3
2026-02-12	16:11:46.310	7.105	29.33	-33.425	-0.37698	-1.104588	-0.184952	0.582	0.9255	0.2175	0	117	157	3
2026-02-12	16:11:46.330	6.72	30.695	-36.4	-0.317688	-1.058472	-0.173972	0.5745	0.921	0.2295	0	117	157	3
2026-02-12	16:11:46.350	10.15	31.955	-32.97	-0.24766	-0.97112	-0.155184	0.57	0.9255	0.2235	0	117	157	3
2026-02-12	16:11:46.370	8.75	29.68	-22.96	-0.237412	-0.886208	-0.155428	0.5625	0.93	0.222	0	117	157	3
2026-02-12	16:11:46.390	15.575	24.045	-15.47	-0.24888	-0.80642	-0.136884	0.555	0.9285	0.222	0	117	157	3
2026-02-12	16:11:46.410	21.805	20.545	-3.5	-0.265472	-0.8174	-0.08906	0.546	0.93	0.2205	0	117	157	3
2026-02-12	16:11:46.430	19.25	21	5.705	-0.298168	-0.857416	-0.101504	0.546	0.9315	0.2175	0	117	157	3
2026-02-12	16:11:46.450	21.665	24.955	10.395	-0.299632	-0.89426	-0.11102	0.5505	0.9315	0.219	0	117	157	3
2026-02-12	16:11:46.470	18.2	31.29	12.845	-0.307928	-0.920856	-0.142252	0.54	0.9345	0.213	0	117	157	3
2026-02-12	16:11:46.490	10.01	38.01	13.895	-0.301584	-0.919392	-0.159332	0.5475	0.9435	0.207	0	117	157	3
2026-02-12	16:11:46.510	0.77	42.805	14.455	-0.316468	-0.926468	-0.15006	0.54	0.939	0.204	0	117	157	3
2026-02-12	16:11:46.530	-4.41	46.27	14.42	-0.334036	-0.957212	-0.132492	0.543	0.9345	0.2115	0	117	157	3
2026-02-12	16:11:46.550	-3.15	49.245	14.315	-0.363316	-0.946964	-0.111508	0.5385	0.939	0.2175	0	117	157	3
2026-02-12	16:11:46.570	0.91	50.47	13.51	-0.378444	-0.957212	-0.095404	0.534	0.9345	0.213	0	117	157	3
2026-02-12	16:11:46.590	0.665	48.545	12.53	-0.397964	-0.905484	-0.074908	0.534	0.9345	0.213	0	117	157	3
2026-02-12	16:11:46.610	-2.345	45.185	11.935	-0.400404	-0.880596	-0.055144	0.534	0.9315	0.21	0	117	153	3
2026-02-12	16:11:46.630	-2.625	40.32	11.55	-0.415532	-0.855464	-0.032452	0.5295	0.9315	0.2145	0	117	153	3
2026-02-12	16:11:46.650	0.77	34.755	10.57	-0.427	-0.851316	-0.02074	0.5265	0.9345	0.222	0	117	153	3
2026-02-12	16:11:46.670	4.9	30.1	10.15	-0.428952	-0.835456	-0.00732	0.5355	0.9345	0.222	0	117	153	3
2026-02-12	16:11:46.690	7.63	26.74	9.975	-0.434564	-0.843264	-0.012932	0.5355	0.9345	0.2175	0	117	153	3
2026-02-12	16:11:46.710	10.255	24.325	9.205	-0.438224	-0.825452	-0.015616	0.531	0.942	0.2235	0	117	153	3
2026-02-12	16:11:46.730	9.555	23.17	8.995	-0.442128	-0.832772	-0.025132	0.5235	0.9345	0.2145	0	117	153	3
2026-02-12	16:11:46.750	9.065	22.365	8.89	-0.44408	-0.850828	-0.033428	0.525	0.9255	0.219	0	117	153	3
2026-02-12	16:11:46.770	8.995	21.7	9.87	-0.455548	-0.862052	-0.027328	0.5235	0.9285	0.2145	0	117	153	3
2026-02-12	16:11:46.790	9.415	21.14	11.41	-0.480436	-0.871812	-0.025376	0.525	0.939	0.213	0	117	153	3
2026-02-12	16:11:46.810	9.555	19.81	12.775	-0.50142	-0.882548	-0.039528	0.5265	0.936	0.21	0	117	139	3
2026-02-12	16:11:46.830	8.61	17.815	13.545	-0.501664	-0.917684	-0.05246	0.5295	0.9375	0.2085	0	117	139	3
2026-02-12	16:11:46.850	8.155	15.47	14.77	-0.492148	-0.930128	-0.067832	0.5325	0.936	0.2085	0	117	139	3
2026-02-12	16:11:46.870	7.665	12.81	16.485	-0.49166	-0.937204	-0.085888	0.534	0.9315	0.2085	0	117	139	3
2026-02-12	16:11:46.890	7.315	10.43	17.815	-0.489464	-0.94184	-0.108824	0.5325	0.933	0.2085	0	117	139	3
2026-02-12	16:11:46.910	7.945	9.065	17.01	-0.505568	-0.981124	-0.143228	0.5295	0.9345	0.207	0	117	139	3
2026-02-12	16:11:46.930	9.345	9.975	13.265	-0.53192	-1.003816	-0.158356	0.531	0.9345	0.2055	0	117	139	3
2026-02-12	16:11:46.950	6.475	11.935	5.495	-0.523624	-1.067256	-0.181048	0.534	0.948	0.207	0	117	139	3
2026-02-12	16:11:46.970	2.625	14.49	-2.695	-0.500444	-1.103856	-0.205448	0.5385	0.939	0.207	0	117	139	3
2026-02-12	16:11:46.990	-4.795	17.01	-8.645	-0.467748	-1.100928	-0.222284	0.534	0.9345	0.2025	0	117	139	3
2026-02-12	16:11:47.010	-14.035	16.24	-10.885	-0.415532	-0.97234	-0.194956	0.528	0.939	0.201	0	117	124	3
2026-02-12	16:11:47.030	-11.655	13.265	-8.96	-0.39406	-0.906948	-0.17202	0.525	0.936	0.21	0	117	124	3
2026-02-12	16:11:47.050	-1.435	8.96	-4.55	-0.384544	-0.898896	-0.152012	0.525	0.9345	0.213	0	117	124	3
2026-02-12	16:11:47.070	12.425	4.34	-0.7	-0.37576	-0.867908	-0.1342	0.5205	0.936	0.21	0	117	124	3
2026-02-12	16:11:47.090	21.385	0.7	1.19	-0.378444	-0.81984	-0.121512	0.516	0.9375	0.2145	0	117	124	3
2026-02-12	16:11:47.110	20.58	-0.84	0.315	-0.390888	-0.799344	-0.148596	0.522	0.933	0.201	0	117	124	3
2026-02-12	16:11:47.130	16.695	-1.05	-3.57	-0.403088	-0.837408	-0.194224	0.522	0.9375	0.2025	0	117	124	3
2026-02-12	16:11:47.150	15.855	-0.595	-7.875	-0.400892	-0.885964	-0.245952	0.525	0.9435	0.1965	0	117	124	3
2026-02-12	16:11:47.170	17.115	0	-11.83	-0.399428	-0.913292	-0.28548	0.5175	0.9375	0.2085	0	117	124	3
2026-02-12	16:11:47.190	17.535	0.875	-14.07	-0.39894	-0.929396	-0.29158	0.522	0.942	0.1995	0	117	124	3
2026-02-12	16:11:47.210	12.81	1.505	-15.295	-0.390888	-0.911584	-0.284992	0.525	0.9345	0.192	0	117	124	3
2026-02-12	16:11:47.230	0.35	2.03	-14.28	-0.383812	-0.86864	-0.261812	0.513	0.9405	0.1935	0	117	124	3
2026-02-12	16:11:47.250	-3.815	0.385	-11.585	-0.404796	-0.823256	-0.248392	0.513	0.9405	0.195	0	117	124	3
2026-02-12	16:11:47.270	-3.745	-2.625	-8.96	-0.430172	-0.79788	-0.231068	0.5115	0.942	0.1965	0	117	124	3
2026-02-12	16:11:47.290	-3.08	-5.285	-7.805	-0.45018	-0.795684	-0.204228	0.5115	0.9435	0.1965	0	117	124	3
2026-02-12	16:11:47.310	-3.045	-7.665	-8.295	-0.443104	-0.805444	-0.17446	0.5055	0.945	0.1965	0	117	124	3
2026-02-12	16:11:47.330	-4.585	-8.96	-8.925	-0.438468	-0.841312	-0.158112	0.513	0.9435	0.1965	0	117	124	3
2026-02-12	16:11:47.350	-2.975	-9.765	-9.415	-0.432124	-0.85522	-0.140056	0.501	0.9375	0.201	0	117	124	3
2026-02-12	16:11:47.370	-1.4	-10.57	-9.8	-0.417484	-0.821304	-0.13664	0.4995	0.951	0.1965	0	117	124	3
2026-02-12	16:11:47.390	-2.38	-10.955	-10.64	-0.425048	-0.822768	-0.130052	0.504	0.9435	0.198	0	117	124	3
2026-02-12	16:11:47.410	-3.465	-12.11	-11.515	-0.427732	-0.847168	-0.133224	0.5145	0.942	0.1965	0	116	139	3
2026-02-12	16:11:47.430	-0.21	-12.565	-12.845	-0.429684	-0.869128	-0.13542	0.5055	0.9435	0.1935	0	116	139	3
2026-02-12	16:11:47.450	5.67	-12.18	-14.28	-0.438712	-0.888404	-0.127856	0.501	0.942	0.195	0	116	139	3
2026-02-12	16:11:47.470	3.815	-11.55	-14.945	-0.433344	-0.872544	-0.128588	0.501	0.942	0.198	0	116	139	3
2026-02-12	16:11:47.490	0.28	-10.78	-15.19	-0.431392	-0.870348	-0.121512	0.4965	0.942	0.198	0	116	139	3
2026-02-12	16:11:47.510	0.385	-10.99	-14.245	-0.42456	-0.87718	-0.125172	0.4905	0.942	0.198	0	116	139	3
2026-02-12	16:11:47.530	4.55	-11.76	-12.355	-0.43432	-0.919148	-0.13786	0.4935	0.9435	0.1965	0	116	139	3
2026-02-12	16:11:47.550	9.065	-12.32	-10.815	-0.419436	-0.946964	-0.158112	0.501	0.942	0.198	0	116	139	3
2026-02-12	16:11:47.570	13.125	-12.005	-9.31	-0.407968	-0.95526	-0.16226	0.495	0.9375	0.1965	0	116	139	3
2026-02-12	16:11:47.590	12.88	-10.115	-7.175	-0.41236	-0.958188	-0.174948	0.498	0.939	0.1905	0	116	139	3
2026-02-12	16:11:47.610	12.25	-6.37	-7.525	-0.431636	-0.976244	-0.214964	0.489	0.9405	0.1815	0	115	151	3
2026-02-12	16:11:47.630	9.975	-0.56	-10.675	-0.434808	-1.031388	-0.243756	0.486	0.948	0.1905	0	115	151	3
2026-02-12	16:11:47.650	1.68	8.68	-17.99	-0.394548	-1.059448	-0.255468	0.4845	0.945	0.183	0	115	151	3
2026-02-12	16:11:47.670	-8.225	13.16	-21.77	-0.359656	-1.128256	-0.270108	0.486	0.9465	0.1845	0	115	151	3
2026-02-12	16:11:47.690	-15.61	15.155	-22.47	-0.300608	-1.120448	-0.241316	0.4845	0.951	0.1905	0	115	151	3
2026-02-12	16:11:47.710	-19.145	14.805	-20.125	-0.245464	-1.055544	-0.19398	0.477	0.951	0.195	0	115	151	3
2026-02-12	16:11:47.730	-18.515	10.885	-15.085	-0.205936	-0.987712	-0.142984	0.474	0.951	0.1965	0	115	151	3
2026-02-12	16:11:47.750	-12.39	5.53	-7.875	-0.186416	-0.9028	-0.103212	0.4785	0.951	0.1905	0	115	151	3
2026-02-12	16:11:47.770	-2.625	0.63	0.455	-0.191784	-0.854976	-0.076372	0.4665	0.9405	0.1965	0	115	151	3
2026-02-12	16:11:47.790	9.94	-2.485	7.875	-0.210328	-0.82106	-0.059292	0.477	0.9435	0.1995	0	115	151	3
2026-02-12	16:11:47.810	21.21	-2.73	12.145	-0.23912	-0.809836	-0.06954	0.459	0.942	0.1935	0	114	159	3
2026-02-12	16:11:47.830	23.1	1.155	13.475	-0.249612	-0.828136	-0.080032	0.4755	0.936	0.1905	0	114	159	3
2026-02-12	16:11:47.850	12.88	7	12.425	-0.25986	-0.86498	-0.09857599	0.474	0.945	0.1845	0	114	159	3
2026-02-12	16:11:47.870	-3.99	15.085	8.435	-0.262544	-0.913048	-0.117608	0.474	0.945	0.1845	0	114	159	3
2026-02-12	16:11:47.890	-9.695	19.46	6.125	-0.2806	-0.942572	-0.112484	0.477	0.9465	0.1875	0	114	159	3
2026-02-12	16:11:47.910	-11.305	22.33	4.13	-0.295972	-0.979416	-0.110288	0.477	0.945	0.1875	0	114	159	3
2026-02-12	16:11:47.930	-10.115	23.975	3.22	-0.311832	-0.975024	-0.105652	0.474	0.9405	0.186	0	114	159	3
2026-02-12	16:11:47.950	-8.715	24.92	2.905	-0.319396	-0.987468	-0.106872	0.48	0.948	0.192	0	114	159	3
2026-02-12	16:11:47.970	-7.945	24.045	3.85	-0.34282	-0.952088	-0.1098	0.4695	0.942	0.192	0	114	159	3
2026-02-12	16:11:47.990	-7.175	20.93	4.725	-0.357216	-0.930128	-0.0976	0.465	0.9405	0.192	0	114	159	3
2026-02-12	16:11:48.010	-4.48	17.325	5.53	-0.365268	-0.90524	-0.081496	0.465	0.9405	0.192	0	114	156	3
2026-02-12	16:11:48.030	-2.17	15.05	6.195	-0.365024	-0.898408	-0.072224	0.4695	0.9435	0.1965	0	114	156	3
2026-02-12	16:11:48.050	0.77	12.53	6.755	-0.37576	-0.876448	-0.059536	0.4755	0.942	0.189	0	114	156	3
2026-02-12	16:11:48.070	1.785	10.395	6.755	-0.375272	-0.864492	-0.065636	0.4665	0.9405	0.1935	0	114	156	3
2026-02-12	16:11:48.090	2.31	8.82	6.37	-0.381128	-0.858148	-0.064904	0.4665	0.9405	0.1935	0	114	156	3
2026-02-12	16:11:48.110	2.835	7.595	6.055	-0.379176	-0.849852	-0.05978	0.465	0.9405	0.192	0	114	156	3
2026-02-12	16:11:48.130	3.885	6.895	5.705	-0.386008	-0.85522	-0.0488	0.4695	0.9405	0.195	0	114	156	3
2026-02-12	16:11:48.150	4.55	6.685	6.09	-0.393816	-0.847656	-0.037576	0.4755	0.9405	0.1995	0	114	156	3
2026-02-12	16:11:48.170	4.69	6.195	6.755	-0.408944	-0.836676	-0.039528	0.4605	0.9435	0.1905	0	114	156	3
2026-02-12	16:11:48.190	3.99	4.2	8.155	-0.424804	-0.83692	-0.039284	0.465	0.9435	0.195	0	114	156	3
2026-02-12	16:11:48.210	3.01	1.96	9.8	-0.427	-0.84912	-0.044164	0.468	0.942	0.1905	0	113	143	3
2026-02-12	16:11:48.230	1.61	0.175	11.375	-0.44164	-0.86498	-0.061976	0.471	0.9405	0.18	0	113	143	3
2026-02-12	16:11:48.250	0.175	-1.715	12.425	-0.448228	-0.893284	-0.088572	0.474	0.9525	0.186	0	113	143	3
2026-02-12	16:11:48.270	0.28	-3.92	12.845	-0.456036	-0.929884	-0.105896	0.4785	0.9465	0.1845	0	113	143	3
2026-02-12	16:11:48.290	0.21	-5.845	11.375	-0.46116	-0.974048	-0.125172	0.483	0.9465	0.192	0	113	143	3
2026-02-12	16:11:48.310	-2.835	-6.23	8.12	-0.466772	-1.013088	-0.144692	0.4815	0.948	0.189	0	113	143	3
2026-02-12	16:11:48.330	-8.015	-5.95	3.99	-0.48068	-1.062864	-0.174704	0.4845	0.9495	0.1845	0	113	143	3
2026-02-12	16:11:48.350	-12.53	-5.845	-2.275	-0.477752	-1.113616	-0.213012	0.4845	0.945	0.1875	0	113	143	3
2026-02-12	16:11:48.370	-15.715	-5.565	-8.4	-0.465308	-1.118496	-0.235216	0.48	0.942	0.1905	0	113	143	3
2026-02-12	16:11:48.390	-21.105	-5.95	-12.88	-0.424316	-1.086776	-0.24156	0.4725	0.936	0.195	0	113	143	3
2026-02-12	16:11:48.410	-25.27	-8.645	-14.525	-0.389424	-1.038464	-0.239852	0.4755	0.9345	0.1935	0	113	131	3
2026-02-12	16:11:48.430	-23.065	-13.545	-12.775	-0.362828	-0.97844	-0.23668	0.48	0.9435	0.1965	0	113	131	3
2026-02-12	16:11:48.450	-14.315	-18.935	-8.4	-0.357704	-0.907192	-0.227164	0.4755	0.936	0.2025	0	113	131	3
2026-02-12	16:11:48.470	-6.23	-24.08	-4.41	-0.368928	-0.86864	-0.216184	0.48	0.936	0.201	0	113	131	3
2026-02-12	16:11:48.490	-1.54	-29.015	-1.015	-0.36966	-0.85644	-0.233264	0.468	0.933	0.207	0	113	131	3
2026-02-12	16:11:48.510	-1.4	-35.385	-0.525	-0.367952	-0.854488	-0.259616	0.4785	0.936	0.2025	0	113	131	3
2026-02-12	16:11:48.530	-4.48	-37.38	-3.465	-0.365756	-0.903532	-0.27572	0.48	0.936	0.2025	0	113	131	3
2026-02-12	16:11:48.550	-3.92	-36.225	-7.63	-0.34404	-0.948672	-0.290604	0.4845	0.9345	0.2055	0	113	131	3
2026-02-12	16:11:48.570	0	-32.76	-10.115	-0.31964	-0.971608	-0.310612	0.4875	0.933	0.207	0	113	131	3
2026-02-12	16:11:48.590	-0.315	-30.975	-10.71	-0.289872	-0.968436	-0.309148	0.486	0.933	0.2055	0	113	131	3
2026-02-12	16:11:48.610	-4.41	-29.54	-9.66	-0.274988	-0.948184	-0.292068	0.489	0.927	0.2085	0	114	139	3
2026-02-12	16:11:48.630	-7.91	-26.46	-7.245	-0.27572	-0.918416	-0.274012	0.489	0.9345	0.207	0	114	139	3
2026-02-12	16:11:48.650	-8.925	-23.835	-4.865	-0.295728	-0.870836	-0.23912	0.489	0.9315	0.207	0	114	139	3
2026-02-12	16:11:48.670	-8.575	-22.19	-3.43	-0.306708	-0.854488	-0.209352	0.489	0.927	0.207	0	114	139	3
2026-02-12	16:11:48.690	-5.845	-20.44	-2.87	-0.335988	-0.843996	-0.188124	0.4845	0.9375	0.2145	0	114	139	3
2026-02-12	16:11:48.710	-3.885	-18.655	-4.13	-0.337208	-0.83448	-0.155916	0.4935	0.9255	0.21	0	114	139	3
2026-02-12	16:11:48.730	-7.98	-17.15	-6.195	-0.339404	-0.811056	-0.138348	0.4935	0.9255	0.21	0	114	139	3
2026-02-12	16:11:48.750	-12.075	-15.645	-8.015	-0.338184	-0.816912	-0.125904	0.4875	0.9285	0.213	0	114	139	3
2026-02-12	16:11:48.770	-12.775	-14.595	-8.995	-0.343552	-0.839604	-0.119804	0.486	0.9315	0.2145	0	114	139	3
2026-02-12	16:11:48.790	-8.75	-13.685	-9.555	-0.35502	-0.848632	-0.119072	0.4905	0.9315	0.213	0	114	139	3
2026-02-12	16:11:48.810	-3.71	-12.53	-10.185	-0.376736	-0.850828	-0.118096	0.492	0.9285	0.213	0	115	157	2
2026-02-12	16:11:48.830	-2.345	-11.06	-10.64	-0.38674	-0.863272	-0.127856	0.489	0.9285	0.213	0	115	157	2
2026-02-12	16:11:48.850	-3.045	-9.59	-10.85	-0.38064	-0.886696	-0.127124	0.477	0.9255	0.2205	0	115	157	2
2026-02-12	16:11:48.870	-1.925	-8.26	-10.115	-0.382836	-0.911584	-0.121268	0.4875	0.9225	0.213	0	115	157	2
2026-02-12	16:11:48.890	0.42	-6.545	-8.715	-0.382348	-0.931836	-0.116144	0.4875	0.9195	0.219	0	115	157	2
2026-02-12	16:11:48.910	2.87	-4.305	-7.035	-0.379664	-0.93818	-0.114924	0.4815	0.924	0.222	0	115	157	2
2026-02-12	16:11:48.930	8.75	-2.065	-3.43	-0.379908	-0.968436	-0.122244	0.483	0.924	0.216	0	115	157	2
2026-02-12	16:11:48.950	15.505	-0.455	0.665	-0.376248	-1.020164	-0.129564	0.4815	0.9225	0.216	0	115	157	2
2026-02-12	16:11:48.970	19.285	2.87	2.905	-0.367952	-1.020896	-0.133712	0.48	0.921	0.2175	0	115	157	2
2026-02-12	16:11:48.990	18.515	8.295	3.395	-0.371856	-1.019188	-0.152012	0.483	0.9255	0.216	0	115	157	2
2026-02-12	16:11:49.010	15.995	12.67	2.205	-0.400892	-0.996496	-0.17202	0.486	0.9315	0.213	0	115	166	2
2026-02-12	16:11:49.030	14.84	15.75	-1.575	-0.448228	-0.998204	-0.195688	0.4785	0.93	0.213	0	115	166	2
2026-02-12	16:11:49.050	14.105	18.725	-7.63	-0.452376	-1.059204	-0.214964	0.4845	0.9345	0.2115	0	115	166	2
2026-02-12	16:11:49.070	11.865	20.265	-13.685	-0.430172	-1.087264	-0.210084	0.486	0.93	0.2085	0	115	166	2
2026-02-12	16:11:49.090	5.74	21.14	-17.325	-0.349896	-1.136064	-0.223992	0.483	0.933	0.204	0	115	166	2
2026-02-12	16:11:49.110	-1.925	20.825	-16.695	-0.287188	-1.129964	-0.215696	0.4695	0.9255	0.198	0	115	166	2
2026-02-12	16:11:49.130	-4.935	18.865	-13.3	-0.244244	-1.043344	-0.186416	0.471	0.9345	0.201	0	115	166	2
2026-02-12	16:11:49.150	-1.015	13.965	-4.445	-0.22082	-0.903776	-0.15372	0.4635	0.927	0.2115	0	115	166	2
2026-02-12	16:11:49.170	7.175	10.5	3.115	-0.236924	-0.809592	-0.129808	0.4635	0.924	0.204	0	115	166	2
2026-02-12	16:11:49.190	14.665	7.35	9.87	-0.25742	-0.764696	-0.116876	0.4635	0.9285	0.201	0	115	166	2
2026-02-12	16:11:49.210	22.4	7.175	15.26	-0.286212	-0.755424	-0.123708	0.462	0.936	0.207	0	115	168	3
2026-02-12	16:11:49.230	23.625	9.38	17.57	-0.293288	-0.776652	-0.13298	0.471	0.9225	0.189	0	115	168	3
2026-02-12	16:11:49.250	14.56	13.335	17.395	-0.288652	-0.83326	-0.149084	0.474	0.9345	0.192	0	115	168	3
2026-02-12	16:11:49.270	3.045	17.395	15.645	-0.263764	-0.871812	-0.161284	0.471	0.933	0.183	0	115	168	3
2026-02-12	16:11:49.290	-4.235	21.525	14.315	-0.257664	-0.929884	-0.168848	0.4695	0.939	0.1935	0	115	168	3
2026-02-12	16:11:49.310	-5.88	24.99	13.895	-0.263032	-0.9577	-0.162992	0.474	0.9375	0.1905	0	115	168	3
2026-02-12	16:11:49.330	-5.53	27.79	13.055	-0.297192	-0.94184	-0.151768	0.4665	0.9255	0.1875	0	115	168	3
2026-02-12	16:11:49.350	-8.645	29.925	10.045	-0.329644	-0.94306	-0.159576	0.474	0.939	0.1995	0	115	168	3
2026-02-12	16:11:49.370	-13.93	29.89	6.475	-0.356728	-0.92598	-0.158356	0.474	0.939	0.1995	0	115	168	3
2026-02-12	16:11:49.390	-16.31	26.145	4.375	-0.376248	-0.895724	-0.138592	0.4725	0.936	0.198	0	115	168	3
2026-02-12	16:11:49.410	-17.57	20.475	2.975	-0.393328	-0.8784	-0.110288	0.4695	0.933	0.1995	0	116	166	3
2026-02-12	16:11:49.430	-15.75	14.875	1.68	-0.4087	-0.870592	-0.086376	0.468	0.9345	0.2025	0	116	166	3
2026-02-12	16:11:49.450	-12.67	10.395	1.12	-0.41236	-0.863028	-0.07686	0.474	0.9285	0.1995	0	116	166	3
2026-02-12	16:11:49.470	-9.345	4.97	0.7	-0.408944	-0.865468	-0.082716	0.477	0.927	0.213	0	116	166	3
2026-02-12	16:11:49.490	-6.055	0.525	0.35	-0.392352	-0.875472	-0.085156	0.471	0.9255	0.21	0	116	166	3
2026-02-12	16:11:49.510	-3.815	-1.575	0.385	-0.388204	-0.879132	-0.084424	0.471	0.9135	0.2115	0	116	166	3
2026-02-12	16:11:49.530	-1.925	-2.695	0.91	-0.377956	-0.89182	-0.08052	0.4755	0.9195	0.207	0	116	166	3
2026-02-12	16:11:49.550	-0.77	-2.835	1.82	-0.381616	-0.903288	-0.0732	0.4755	0.933	0.21	0	116	166	3
2026-02-12	16:11:49.570	0.98	-1.575	2.765	-0.393328	-0.908656	-0.06344	0.477	0.9285	0.2055	0	116	166	3
2026-02-12	16:11:49.590	2.45	-1.68	4.165	-0.4026	-0.907192	-0.06344	0.477	0.9255	0.207	0	116	166	3
2026-02-12	16:11:49.610	3.43	-2.625	6.055	-0.41846	-0.887184	-0.056852	0.477	0.918	0.21	0	116	158	3
2026-02-12	16:11:49.630	3.99	-3.605	7.735	-0.433832	-0.873276	-0.055388	0.4755	0.921	0.207	0	116	158	3
2026-02-12	16:11:49.650	2.31	-4.935	9.135	-0.451156	-0.894504	-0.08295999	0.477	0.93	0.204	0	116	158	3
2026-02-12	16:11:49.670	1.61	-6.125	9.835	-0.453596	-0.916464	-0.090524	0.483	0.921	0.2085	0	116	158	3
2026-02-12	16:11:49.690	1.015	-7.035	9.38	-0.447252	-0.940864	-0.122976	0.4875	0.933	0.21	0	116	158	3
2026-02-12	16:11:49.710	-0.21	-7.7	7.91	-0.44652	-0.974048	-0.142496	0.4905	0.9225	0.213	0	116	158	3
2026-02-12	16:11:49.730	-0.28	-7.945	5.67	-0.429196	-1.003572	-0.156648	0.492	0.933	0.207	0	116	158	3
2026-02-12	16:11:49.750	-2.345	-6.86	2.73	-0.43066	-1.020164	-0.171288	0.483	0.9315	0.207	0	116	158	3
2026-02-12	16:11:49.770	-8.12	-6.405	-0.175	-0.442616	-1.052616	-0.195444	0.489	0.924	0.2055	0	116	158	3
2026-02-12	16:11:49.790	-13.09	-7.595	-4.305	-0.455548	-1.056032	-0.220576	0.492	0.927	0.2085	0	116	158	3
2026-02-12	16:11:49.810	-12.53	-8.47	-6.615	-0.442616	-1.04798	-0.227896	0.4935	0.9255	0.2085	0	114	147	3
2026-02-12	16:11:49.830	-13.335	-10.745	-7.63	-0.41602	-0.995032	-0.221308	0.495	0.9225	0.204	0	114	147	3
2026-02-12	16:11:49.850	-14.35	-14.35	-7.63	-0.386008	-0.937204	-0.227164	0.4935	0.9195	0.1995	0	114	147	3
2026-02-12	16:11:49.870	-13.755	-17.85	-5.53	-0.37698	-0.884988	-0.203496	0.4905	0.9195	0.213	0	114	147	3
