yyyy-MM-dd	HH:mm:ss.fff	gyrX	gyrY	gyrZ	accX	accY	accZ	magX	magY	magZ	Marker	Energy	Angle	Classification
2026-02-12	16:11:16.810	-26.53	-11.76	-25.935	0.94062	0.258396	0.1586	-0.324	0.06	0.345	0	123	171	3
2026-02-12	16:11:16.830	-31.955	-12.495	-19.81	0.938912	0.255712	0.171044	-0.324	0.0555	0.345	0	123	171	3
2026-02-12	16:11:16.850	-35.21	-11.865	-13.09	0.933544	0.25132	0.1708	-0.327	0.0495	0.3465	0	123	171	3
2026-02-12	16:11:16.870	-35.525	-10.29	-6.44	0.93818	0.24644	0.173728	-0.321	0.048	0.345	0	123	171	3
2026-02-12	16:11:16.890	-33.565	-7.91	-0.735	0.945744	0.237168	0.174948	-0.3195	0.048	0.348	0	123	171	3
2026-02-12	16:11:16.910	-24.99	-3.255	4.9	0.956968	0.232288	0.180072	-0.3255	0.048	0.351	0	123	171	3
2026-02-12	16:11:16.930	-16.94	-0.245	6.65	0.969412	0.229116	0.172996	-0.3255	0.048	0.351	0	123	171	3
2026-02-12	16:11:16.950	-7.91	2.66	7.175	0.979172	0.230336	0.177632	-0.3165	0.0465	0.3525	0	123	171	3
2026-02-12	16:11:16.970	0.735	5.11	6.475	0.989664	0.241804	0.181048	-0.3315	0.0495	0.354	0	123	171	3
2026-02-12	16:11:16.990	8.47	7.07	4.515	0.994056	0.241316	0.17446	-0.3255	0.048	0.3495	0	123	171	3
2026-02-12	16:11:17.010	15.085	8.365	1.61	0.994788	0.24644	0.170312	-0.3225	0.0525	0.345	0	110	169	3
2026-02-12	16:11:17.030	19.67	8.68	-1.715	0.987224	0.253028	0.16958	-0.318	0.051	0.348	0	110	169	3
2026-02-12	16:11:17.050	21.035	7.98	-4.935	0.9699	0.256932	0.163968	-0.3225	0.0555	0.3435	0	110	169	3
2026-02-12	16:11:17.070	19.25	6.44	-7.28	0.9699	0.26596	0.166408	-0.3165	0.063	0.3375	0	110	169	3
2026-02-12	16:11:17.090	15.155	4.655	-8.505	0.959896	0.27084	0.166652	-0.3165	0.051	0.345	0	110	169	3
2026-02-12	16:11:17.110	10.325	3.115	-8.05	0.960384	0.261812	0.169092	-0.3195	0.0405	0.348	0	110	169	3
2026-02-12	16:11:17.130	7.49	2.345	-6.195	0.952088	0.255224	0.168116	-0.3225	0.0525	0.351	0	110	169	3
2026-02-12	16:11:17.150	7.28	2.065	-3.36	0.9455	0.246196	0.175436	-0.315	0.048	0.345	0	110	169	3
2026-02-12	16:11:17.170	9.415	2.205	0.63	0.92598	0.245952	0.173972	-0.3195	0.0495	0.3405	0	110	169	3
2026-02-12	16:11:17.190	11.585	2.24	4.69	0.914024	0.25986	0.180316	-0.3195	0.0495	0.3405	0	110	169	3
2026-02-12	16:11:17.210	12.39	2.31	7.735	0.91866	0.266692	0.177388	-0.321	0.045	0.342	0	99	169	3
2026-02-12	16:11:17.230	12.775	2.555	10.5	0.927688	0.267912	0.181536	-0.3225	0.0435	0.3405	0	99	169	3
2026-02-12	16:11:17.250	13.335	3.045	12.915	0.938912	0.270352	0.18056	-0.3255	0.0465	0.339	0	99	169	3
2026-02-12	16:11:17.270	14.595	3.815	14.945	0.944036	0.277184	0.17812	-0.3255	0.051	0.3435	0	99	169	3
2026-02-12	16:11:17.290	15.68	4.41	16.31	0.950624	0.278892	0.1769	-0.321	0.0525	0.348	0	99	169	3
2026-02-12	16:11:17.310	16.695	4.935	16.87	0.952576	0.285724	0.179096	-0.318	0.054	0.3435	0	99	169	3
2026-02-12	16:11:17.330	17.36	5.495	16.765	0.9577	0.286456	0.175924	-0.3225	0.0615	0.3375	0	99	169	3
2026-02-12	16:11:17.350	17.71	6.02	16.24	0.968192	0.28548	0.172264	-0.327	0.063	0.3375	0	99	169	3
2026-02-12	16:11:17.370	18.13	6.58	15.54	0.966728	0.285968	0.165676	-0.327	0.0615	0.336	0	99	169	3
2026-02-12	16:11:17.390	19.425	7.14	14.56	0.972096	0.282796	0.161772	-0.3225	0.069	0.3375	0	99	169	3
2026-02-12	16:11:17.410	21.175	7.7	13.37	0.965996	0.273524	0.155672	-0.327	0.0765	0.3345	0	88	170	3
2026-02-12	16:11:17.430	23.345	7.945	11.9	0.96258	0.281088	0.150304	-0.3165	0.0705	0.339	0	88	170	3
2026-02-12	16:11:17.450	24.71	7.735	10.08	0.975024	0.283772	0.14518	-0.318	0.075	0.3345	0	88	170	3
2026-02-12	16:11:17.470	24.08	7.525	9.17	0.976	0.286212	0.1464	-0.3165	0.078	0.333	0	88	170	3
2026-02-12	16:11:17.490	22.575	7.315	9.03	0.982832	0.286212	0.141032	-0.3165	0.078	0.333	0	88	170	3
2026-02-12	16:11:17.510	20.93	7.21	9.345	0.984296	0.285236	0.140544	-0.318	0.0765	0.33	0	88	170	3
2026-02-12	16:11:17.530	19.39	6.86	10.08	0.985028	0.286456	0.138348	-0.3195	0.0765	0.3285	0	88	170	3
2026-02-12	16:11:17.550	18.2	6.37	10.885	0.983808	0.29036	0.142984	-0.3195	0.0825	0.327	0	88	170	3
2026-02-12	16:11:17.570	16.835	5.845	11.655	0.989908	0.291824	0.147132	-0.315	0.087	0.324	0	88	170	3
2026-02-12	16:11:17.590	14.98	5.53	12.215	0.994056	0.298168	0.149572	-0.318	0.084	0.324	0	88	170	3
2026-02-12	16:11:17.610	12.985	5.67	12.285	0.98454	0.299144	0.154696	-0.3255	0.0885	0.321	0	79	169	3
2026-02-12	16:11:17.630	12.075	6.335	11.34	0.968192	0.291336	0.155428	-0.321	0.0945	0.321	0	79	169	3
2026-02-12	16:11:17.650	12.46	7.035	9.205	0.9455	0.281576	0.15128	-0.3165	0.096	0.3195	0	79	169	3
2026-02-12	16:11:17.670	13.685	7.49	6.055	0.936228	0.2867	0.1525	-0.3195	0.0975	0.321	0	79	169	3
2026-02-12	16:11:17.690	14.42	7.91	2.835	0.93818	0.282552	0.152256	-0.318	0.096	0.3225	0	79	169	3
2026-02-12	16:11:17.710	14.07	8.785	-0.525	0.950624	0.292312	0.154452	-0.3165	0.0945	0.3225	0	79	169	3
2026-02-12	16:11:17.730	13.16	9.905	-2.835	0.953796	0.282552	0.149572	-0.3165	0.0975	0.3225	0	79	169	3
2026-02-12	16:11:17.750	14	10.71	-3.675	0.964288	0.270352	0.143472	-0.321	0.099	0.3105	0	79	169	3
2026-02-12	16:11:17.770	16.275	11.13	-3.71	0.98088	0.27206	0.140056	-0.321	0.099	0.315	0	79	169	3
2026-02-12	16:11:17.790	18.41	11.165	-3.08	1.005524	0.279624	0.139568	-0.3195	0.096	0.3105	0	79	169	3
2026-02-12	16:11:15.810	-15.155	-9.555	-28.07	0.87596	0.202276	0.181536	-0.318	-0.03	0.354	0	198	181	3
2026-02-12	16:11:15.830	-11.095	-6.965	-7.42	0.895236	0.193248	0.183976	-0.3165	-0.0345	0.357	0	198	181	3
2026-02-12	16:11:15.850	-6.44	-4.48	5.53	0.91256	0.200812	0.185196	-0.3165	-0.0345	0.357	0	198	181	3
2026-02-12	16:11:15.870	-0.35	-1.61	16.73	0.922564	0.21594	0.18788	-0.318	-0.0285	0.354	0	198	181	3
2026-02-12	16:11:15.890	4.165	0.595	26.425	0.929396	0.227896	0.192028	-0.315	-0.0345	0.351	0	198	181	3
2026-02-12	16:11:15.910	7.385	2.66	34.825	0.93086	0.23668	0.193248	-0.318	-0.036	0.357	0	198	181	3
2026-02-12	16:11:15.930	9.24	4.2	41.93	0.93452	0.255468	0.192028	-0.321	-0.0345	0.3495	0	198	181	3
2026-02-12	16:11:15.950	8.89	5.215	47.915	0.944524	0.262544	0.196176	-0.312	-0.015	0.354	0	198	181	3
2026-02-12	16:11:15.970	8.015	5.88	53.2	0.953308	0.268888	0.193248	-0.324	-0.0135	0.3525	0	198	181	3
2026-02-12	16:11:15.990	7.805	6.615	57.715	0.963556	0.283284	0.194224	-0.3165	-0.0075	0.357	0	198	181	3
2026-02-12	16:11:16.010	7.385	7.525	61.985	0.968924	0.273036	0.187636	-0.3165	-0.0075	0.357	0	181	180	3
2026-02-12	16:11:16.030	7.665	7.77	63.945	0.976976	0.284504	0.184708	-0.3165	0.0165	0.354	0	181	180	3
2026-02-12	16:11:16.050	7.945	8.225	65.905	0.994056	0.298656	0.1891	-0.3195	0.018	0.36	0	181	180	3
2026-02-12	16:11:16.070	6.02	8.785	66.5	0.997716	0.3111	0.182024	-0.3285	0.03	0.3525	0	181	180	3
2026-02-12	16:11:16.090	5.95	9.905	66.115	1.01016	0.283284	0.17568	-0.321	0.045	0.354	0	181	180	3
2026-02-12	16:11:16.110	9.03	10.99	64.19	1.003328	0.304512	0.170556	-0.321	0.0555	0.36	0	181	180	3
2026-02-12	16:11:16.130	9.695	10.78	61.39	1.002108	0.292556	0.170556	-0.3195	0.0645	0.354	0	181	180	3
2026-02-12	16:11:16.150	10.64	11.375	57.925	0.987956	0.307684	0.172508	-0.318	0.0765	0.3495	0	181	180	3
2026-02-12	16:11:16.170	10.395	11.06	54.18	1.002108	0.301828	0.172264	-0.321	0.084	0.3495	0	181	180	3
2026-02-12	16:11:16.190	11.76	11.41	49.525	0.992836	0.2989	0.166652	-0.321	0.0945	0.345	0	181	180	3
2026-02-12	16:11:16.210	12.46	10.675	44.31	0.986004	0.310856	0.159332	-0.3165	0.102	0.3435	0	165	181	3
2026-02-12	16:11:16.230	12.495	10.115	39.55	0.986736	0.315736	0.156648	-0.318	0.105	0.345	0	165	181	3
2026-02-12	16:11:16.250	12.74	9.45	34.475	0.987956	0.309392	0.156892	-0.321	0.1125	0.3435	0	165	181	3
2026-02-12	16:11:16.270	12.6	8.575	29.435	0.987956	0.314028	0.15494	-0.321	0.12	0.3435	0	165	181	3
2026-02-12	16:11:16.290	11.83	7.455	24.92	0.990152	0.31232	0.15128	-0.3105	0.117	0.342	0	165	181	3
2026-02-12	16:11:16.310	10.78	6.405	20.51	0.983808	0.320372	0.152256	-0.3135	0.1185	0.3405	0	165	181	3
2026-02-12	16:11:16.330	8.645	5.425	16.17	0.982344	0.3172	0.148352	-0.3105	0.1275	0.3435	0	165	181	3
2026-02-12	16:11:16.350	7.665	4.41	11.62	0.975024	0.315004	0.150304	-0.3135	0.1335	0.3405	0	165	181	3
2026-02-12	16:11:16.370	6.02	2.625	5.005	0.964532	0.3111	0.147132	-0.3135	0.132	0.3375	0	165	181	3
2026-02-12	16:11:16.390	4.515	1.47	0.56	0.959896	0.312076	0.151524	-0.312	0.1335	0.339	0	165	181	3
2026-02-12	16:11:16.410	2.38	0.35	-4.06	0.955992	0.306464	0.1525	-0.3105	0.135	0.339	0	150	179	3
2026-02-12	16:11:16.430	0.49	-0.595	-8.54	0.946476	0.301584	0.155916	-0.3105	0.135	0.339	0	150	179	3
2026-02-12	16:11:16.450	-1.54	-1.505	-12.705	0.951112	0.294508	0.159332	-0.312	0.138	0.339	0	150	179	3
2026-02-12	16:11:16.470	-3.255	-2.1	-16.555	0.964288	0.289872	0.162992	-0.3135	0.135	0.336	0	150	179	3
2026-02-12	16:11:16.490	-4.305	-2.17	-19.915	0.965752	0.283528	0.161528	-0.3135	0.1275	0.333	0	150	179	3
2026-02-12	16:11:16.510	-5.495	-2.345	-22.82	0.97478	0.278648	0.16592	-0.312	0.126	0.333	0	150	179	3
2026-02-12	16:11:16.530	-6.755	-2.31	-25.235	0.988932	0.277672	0.164944	-0.309	0.1245	0.339	0	150	179	3
2026-02-12	16:11:16.550	-7.42	-2.065	-27.405	0.980636	0.273524	0.16226	-0.3135	0.1215	0.339	0	150	179	3
2026-02-12	16:11:16.570	-8.225	-2.205	-29.085	0.981856	0.273768	0.168848	-0.3135	0.1185	0.333	0	150	179	3
2026-02-12	16:11:16.590	-9.695	-2.415	-30.31	0.98576	0.273036	0.172264	-0.3105	0.1125	0.3375	0	150	179	3
2026-02-12	16:11:16.610	-11.34	-2.275	-31.255	0.987956	0.271572	0.172752	-0.3165	0.108	0.3375	0	136	175	3
2026-02-12	16:11:16.630	-12.88	-1.715	-32.34	0.986736	0.262056	0.167384	-0.318	0.1065	0.3315	0	136	175	3
2026-02-12	16:11:16.650	-13.545	-1.19	-33.95	0.976	0.253272	0.158356	-0.3165	0.1035	0.3315	0	136	175	3
2026-02-12	16:11:16.670	-13.545	-1.505	-35.455	0.97112	0.245952	0.14884	-0.3135	0.0945	0.336	0	136	175	3
2026-02-12	16:11:16.690	-14.07	-2.625	-36.715	0.97112	0.24888	0.15128	-0.318	0.087	0.339	0	136	175	3
2026-02-12	16:11:16.710	-15.47	-4.165	-37.45	0.986004	0.242536	0.152012	-0.315	0.0855	0.3345	0	136	175	3
2026-02-12	16:11:16.730	-15.89	-5.25	-37.59	0.98332	0.242292	0.147864	-0.3225	0.0735	0.339	0	136	175	3
2026-02-12	16:11:16.750	-16.38	-6.615	-36.61	0.969412	0.240828	0.138348	-0.318	0.069	0.3465	0	136	175	3
2026-02-12	16:11:16.770	-18.025	-8.33	-34.405	0.95404	0.244244	0.138836	-0.3255	0.0585	0.3375	0	136	175	3
2026-02-12	16:11:16.790	-21.525	-10.29	-30.94	0.94916	0.247416	0.152744	-0.3195	0.063	0.339	0	136	175	3
2026-02-12	16:11:16.810	-26.53	-11.76	-25.935	0.94062	0.258396	0.1586	-0.324	0.06	0.345	0	123	171	3
2026-02-12	16:11:16.830	-31.955	-12.495	-19.81	0.938912	0.255712	0.171044	-0.324	0.0555	0.345	0	123	171	3
2026-02-12	16:11:16.850	-35.21	-11.865	-13.09	0.933544	0.25132	0.1708	-0.327	0.0495	0.3465	0	123	171	3
2026-02-12	16:11:16.870	-35.525	-10.29	-6.44	0.93818	0.24644	0.173728	-0.321	0.048	0.345	0	123	171	3
2026-02-12	16:11:16.890	-33.565	-7.91	-0.735	0.945744	0.237168	0.174948	-0.3195	0.048	0.348	0	123	171	3
2026-02-12	16:11:16.910	-24.99	-3.255	4.9	0.956968	0.232288	0.180072	-0.3255	0.048	0.351	0	123	171	3
2026-02-12	16:11:16.930	-16.94	-0.245	6.65	0.969412	0.229116	0.172996	-0.3255	0.048	0.351	0	123	171	3
2026-02-12	16:11:16.950	-7.91	2.66	7.175	0.979172	0.230336	0.177632	-0.3165	0.0465	0.3525	0	123	171	3
2026-02-12	16:11:16.970	0.735	5.11	6.475	0.989664	0.241804	0.181048	-0.3315	0.0495	0.354	0	123	171	3
2026-02-12	16:11:16.990	8.47	7.07	4.515	0.994056	0.241316	0.17446	-0.3255	0.048	0.3495	0	123	171	3
2026-02-12	16:11:17.010	15.085	8.365	1.61	0.994788	0.24644	0.170312	-0.3225	0.0525	0.345	0	110	169	3
2026-02-12	16:11:17.030	19.67	8.68	-1.715	0.987224	0.253028	0.16958	-0.318	0.051	0.348	0	110	169	3
2026-02-12	16:11:17.050	21.035	7.98	-4.935	0.9699	0.256932	0.163968	-0.3225	0.0555	0.3435	0	110	169	3
2026-02-12	16:11:17.070	19.25	6.44	-7.28	0.9699	0.26596	0.166408	-0.3165	0.063	0.3375	0	110	169	3
2026-02-12	16:11:17.090	15.155	4.655	-8.505	0.959896	0.27084	0.166652	-0.3165	0.051	0.345	0	110	169	3
2026-02-12	16:11:17.110	10.325	3.115	-8.05	0.960384	0.261812	0.169092	-0.3195	0.0405	0.348	0	110	169	3
2026-02-12	16:11:17.130	7.49	2.345	-6.195	0.952088	0.255224	0.168116	-0.3225	0.0525	0.351	0	110	169	3
2026-02-12	16:11:17.150	7.28	2.065	-3.36	0.9455	0.246196	0.175436	-0.315	0.048	0.345	0	110	169	3
2026-02-12	16:11:17.170	9.415	2.205	0.63	0.92598	0.245952	0.173972	-0.3195	0.0495	0.3405	0	110	169	3
2026-02-12	16:11:17.190	11.585	2.24	4.69	0.914024	0.25986	0.180316	-0.3195	0.0495	0.3405	0	110	169	3
2026-02-12	16:11:17.210	12.39	2.31	7.735	0.91866	0.266692	0.177388	-0.321	0.045	0.342	0	99	169	3
2026-02-12	16:11:17.230	12.775	2.555	10.5	0.927688	0.267912	0.181536	-0.3225	0.0435	0.3405	0	99	169	3
2026-02-12	16:11:17.250	13.335	3.045	12.915	0.938912	0.270352	0.18056	-0.3255	0.0465	0.339	0	99	169	3
2026-02-12	16:11:17.270	14.595	3.815	14.945	0.944036	0.277184	0.17812	-0.3255	0.051	0.3435	0	99	169	3
2026-02-12	16:11:17.290	15.68	4.41	16.31	0.950624	0.278892	0.1769	-0.321	0.0525	0.348	0	99	169	3
2026-02-12	16:11:17.310	16.695	4.935	16.87	0.952576	0.285724	0.179096	-0.318	0.054	0.3435	0	99	169	3
2026-02-12	16:11:17.330	17.36	5.495	16.765	0.9577	0.286456	0.175924	-0.3225	0.0615	0.3375	0	99	169	3
2026-02-12	16:11:17.350	17.71	6.02	16.24	0.968192	0.28548	0.172264	-0.327	0.063	0.3375	0	99	169	3
2026-02-12	16:11:17.370	18.13	6.58	15.54	0.966728	0.285968	0.165676	-0.327	0.0615	0.336	0	99	169	3
2026-02-12	16:11:17.390	19.425	7.14	14.56	0.972096	0.282796	0.161772	-0.3225	0.069	0.3375	0	99	169	3
2026-02-12	16:11:17.410	21.175	7.7	13.37	0.965996	0.273524	0.155672	-0.327	0.0765	0.3345	0	88	170	3
2026-02-12	16:11:17.430	23.345	7.945	11.9	0.96258	0.281088	0.150304	-0.3165	0.0705	0.339	0	88	170	3
2026-02-12	16:11:17.450	24.71	7.735	10.08	0.975024	0.283772	0.14518	-0.318	0.075	0.3345	0	88	170	3
2026-02-12	16:11:17.470	24.08	7.525	9.17	0.976	0.286212	0.1464	-0.3165	0.078	0.333	0	88	170	3
2026-02-12	16:11:17.490	22.575	7.315	9.03	0.982832	0.286212	0.141032	-0.3165	0.078	0.333	0	88	170	3
2026-02-12	16:11:17.510	20.93	7.21	9.345	0.984296	0.285236	0.140544	-0.318	0.0765	0.33	0	88	170	3
2026-02-12	16:11:17.530	19.39	6.86	10.08	0.985028	0.286456	0.138348	-0.3195	0.0765	0.3285	0	88	170	3
2026-02-12	16:11:17.550	18.2	6.37	10.885	0.983808	0.29036	0.142984	-0.3195	0.0825	0.327	0	88	170	3
2026-02-12	16:11:17.570	16.835	5.845	11.655	0.989908	0.291824	0.147132	-0.315	0.087	0.324	0	88	170	3
2026-02-12	16:11:17.590	14.98	5.53	12.215	0.994056	0.298168	0.149572	-0.318	0.084	0.324	0	88	170	3
2026-02-12	16:11:17.610	12.985	5.67	12.285	0.98454	0.299144	0.154696	-0.3255	0.0885	0.321	0	79	169	3
2026-02-12	16:11:17.630	12.075	6.335	11.34	0.968192	0.291336	0.155428	-0.321	0.0945	0.321	0	79	169	3
2026-02-12	16:11:17.650	12.46	7.035	9.205	0.9455	0.281576	0.15128	-0.3165	0.096	0.3195	0	79	169	3
2026-02-12	16:11:17.670	13.685	7.49	6.055	0.936228	0.2867	0.1525	-0.3195	0.0975	0.321	0	79	169	3
2026-02-12	16:11:17.690	14.42	7.91	2.835	0.93818	0.282552	0.152256	-0.318	0.096	0.3225	0	79	169	3
2026-02-12	16:11:17.710	14.07	8.785	-0.525	0.950624	0.292312	0.154452	-0.3165	0.0945	0.3225	0	79	169	3
2026-02-12	16:11:17.730	13.16	9.905	-2.835	0.953796	0.282552	0.149572	-0.3165	0.0975	0.3225	0	79	169	3
2026-02-12	16:11:17.750	14	10.71	-3.675	0.964288	0.270352	0.143472	-0.321	0.099	0.3105	0	79	169	3
2026-02-12	16:11:17.770	16.275	11.13	-3.71	0.98088	0.27206	0.140056	-0.321	0.099	0.315	0	79	169	3
2026-02-12	16:11:17.790	18.41	11.165	-3.08	1.005524	0.279624	0.139568	-0.3195	0.096	0.3105	0	79	169	3
2026-02-12	16:11:15.810	-15.155	-9.555	-28.07	0.87596	0.202276	0.181536	-0.318	-0.03	0.354	0	198	181	3
2026-02-12	16:11:15.830	-11.095	-6.965	-7.42	0.895236	0.193248	0.183976	-0.3165	-0.0345	0.357	0	198	181	3
2026-02-12	16:11:15.850	-6.44	-4.48	5.53	0.91256	0.200812	0.185196	-0.3165	-0.0345	0.357	0	198	181	3
2026-02-12	16:11:15.870	-0.35	-1.61	16.73	0.922564	0.21594	0.18788	-0.318	-0.0285	0.354	0	198	181	3
2026-02-12	16:11:15.890	4.165	0.595	26.425	0.929396	0.227896	0.192028	-0.315	-0.0345	0.351	0	198	181	3
2026-02-12	16:11:15.910	7.385	2.66	34.825	0.93086	0.23668	0.193248	-0.318	-0.036	0.357	0	198	181	3
2026-02-12	16:11:15.930	9.24	4.2	41.93	0.93452	0.255468	0.192028	-0.321	-0.0345	0.3495	0	198	181	3
2026-02-12	16:11:15.950	8.89	5.215	47.915	0.944524	0.262544	0.196176	-0.312	-0.015	0.354	0	198	181	3
2026-02-12	16:11:15.970	8.015	5.88	53.2	0.953308	0.268888	0.193248	-0.324	-0.0135	0.3525	0	198	181	3
2026-02-12	16:11:15.990	7.805	6.615	57.715	0.963556	0.283284	0.194224	-0.3165	-0.0075	0.357	0	198	181	3
2026-02-12	16:11:16.010	7.385	7.525	61.985	0.968924	0.273036	0.187636	-0.3165	-0.0075	0.357	0	181	180	3
2026-02-12	16:11:16.030	7.665	7.77	63.945	0.976976	0.284504	0.184708	-0.3165	0.0165	0.354	0	181	180	3
2026-02-12	16:11:16.050	7.945	8.225	65.905	0.994056	0.298656	0.1891	-0.3195	0.018	0.36	0	181	180	3
2026-02-12	16:11:16.070	6.02	8.785	66.5	0.997716	0.3111	0.182024	-0.3285	0.03	0.3525	0	181	180	3
2026-02-12	16:11:16.090	5.95	9.905	66.115	1.01016	0.283284	0.17568	-0.321	0.045	0.354	0	181	180	3
2026-02-12	16:11:16.110	9.03	10.99	64.19	1.003328	0.304512	0.170556	-0.321	0.0555	0.36	0	181	180	3
2026-02-12	16:11:16.130	9.695	10.78	61.39	1.002108	0.292556	0.170556	-0.3195	0.0645	0.354	0	181	180	3
2026-02-12	16:11:16.150	10.64	11.375	57.925	0.987956	0.307684	0.172508	-0.318	0.0765	0.3495	0	181	180	3
2026-02-12	16:11:16.170	10.395	11.06	54.18	1.002108	0.301828	0.172264	-0.321	0.084	0.3495	0	181	180	3
2026-02-12	16:11:16.190	11.76	11.41	49.525	0.992836	0.2989	0.166652	-0.321	0.0945	0.345	0	181	180	3
2026-02-12	16:11:16.210	12.46	10.675	44.31	0.986004	0.310856	0.159332	-0.3165	0.102	0.3435	0	165	181	3
2026-02-12	16:11:16.230	12.495	10.115	39.55	0.986736	0.315736	0.156648	-0.318	0.105	0.345	0	165	181	3
2026-02-12	16:11:16.250	12.74	9.45	34.475	0.987956	0.309392	0.156892	-0.321	0.1125	0.3435	0	165	181	3
2026-02-12	16:11:16.270	12.6	8.575	29.435	0.987956	0.314028	0.15494	-0.321	0.12	0.3435	0	165	181	3
2026-02-12	16:11:16.290	11.83	7.455	24.92	0.990152	0.31232	0.15128	-0.3105	0.117	0.342	0	165	181	3
2026-02-12	16:11:16.310	10.78	6.405	20.51	0.983808	0.320372	0.152256	-0.3135	0.1185	0.3405	0	165	181	3
2026-02-12	16:11:16.330	8.645	5.425	16.17	0.982344	0.3172	0.148352	-0.3105	0.1275	0.3435	0	165	181	3
2026-02-12	16:11:16.350	7.665	4.41	11.62	0.975024	0.315004	0.150304	-0.3135	0.1335	0.3405	0	165	181	3
2026-02-12	16:11:16.370	6.02	2.625	5.005	0.964532	0.3111	0.147132	-0.3135	0.132	0.3375	0	165	181	3
2026-02-12	16:11:16.390	4.515	1.47	0.56	0.959896	0.312076	0.151524	-0.312	0.1335	0.339	0	165	181	3
2026-02-12	16:11:30.410	39.445	2.17	-22.155	0.819108	0.328424	0.231556	-0.276	0.126	0.168	0	387	139	3
2026-02-12	16:11:30.430	31.115	1.085	-18.69	0.836432	0.320128	0.235704	-0.276	0.12	0.1665	0	387	139	3
2026-02-12	16:11:30.450	23.1	0.105	-13.86	0.854	0.304756	0.24522	-0.2805	0.1125	0.1635	0	387	139	3
2026-02-12	16:11:30.470	17.15	-0.525	-9.555	0.854488	0.283284	0.252296	-0.2775	0.1095	0.165	0	387	139	3
2026-02-12	16:11:30.490	14.525	-1.61	-6.37	0.857172	0.27084	0.262544	-0.273	0.1095	0.1695	0	387	139	3
2026-02-12	16:11:30.510	12.53	-2.905	-4.515	0.868152	0.278648	0.279624	-0.27	0.111	0.1665	0	387	139	3
2026-02-12	16:11:30.530	8.785	-4.76	-4.165	0.873764	0.280356	0.296948	-0.2655	0.1155	0.165	0	387	139	3
2026-02-12	16:11:30.550	8.19	-5.215	-5.565	0.861564	0.287188	0.306464	-0.2655	0.1155	0.165	0	387	139	3
2026-02-12	16:11:30.570	6.545	-5.53	-7.63	0.837164	0.273768	0.29646	-0.2715	0.1005	0.1665	0	387	139	3
2026-02-12	16:11:30.590	3.745	-6.755	-9.345	0.827892	0.262056	0.279136	-0.288	0.102	0.1695	0	387	139	3
2026-02-12	16:11:30.610	-0.91	-8.96	-9.765	0.853756	0.263032	0.280356	-0.2835	0.105	0.1695	0	376	172	3
2026-02-12	16:11:30.630	-7.49	-11.235	-8.575	0.915488	0.28304	0.287676	-0.2745	0.102	0.1695	0	376	172	3
2026-02-12	16:11:30.650	-14.56	-12.74	-5.67	1.0065	0.291336	0.314272	-0.2745	0.096	0.171	0	376	172	3
2026-02-12	16:11:30.670	-19.775	-12.915	-1.505	1.088728	0.289872	0.311344	-0.27	0.0975	0.174	0	376	172	3
2026-02-12	16:11:30.690	-20.405	-12.705	2.8	1.165344	0.29036	0.306952	-0.2715	0.099	0.1815	0	376	172	3
2026-02-12	16:11:30.710	-17.5	-11.865	5.25	1.222196	0.284504	0.298412	-0.282	0.102	0.183	0	376	172	3
2026-02-12	16:11:30.730	-14.385	-10.325	4.9	1.204384	0.300852	0.289872	-0.2805	0.105	0.183	0	376	172	3
2026-02-12	16:11:30.750	-15.365	-10.78	3.99	1.179984	0.31598	0.27938	-0.279	0.1035	0.186	0	376	172	3
2026-02-12	16:11:30.770	-19.18	-11.515	1.855	1.146068	0.339648	0.277428	-0.282	0.1065	0.1875	0	376	172	3
2026-02-12	16:11:30.790	-32.865	-11.55	-2.31	1.058472	0.376736	0.276208	-0.2835	0.108	0.186	0	376	172	3
2026-02-12	16:11:30.810	-52.815	-9.8	-8.575	0.958188	0.372832	0.238144	-0.285	0.102	0.1815	0	353	202	3
2026-02-12	16:11:30.830	-68.215	-7.84	-15.365	0.886208	0.35258	0.204472	-0.2835	0.114	0.189	0	353	202	3
2026-02-12	16:11:30.850	-76.09	-6.02	-23.73	0.850584	0.313784	0.18056	-0.2865	0.1125	0.192	0	353	202	3
2026-02-12	16:11:30.870	-77.56	-4.375	-32.97	0.874008	0.29524	0.181536	-0.2835	0.12	0.2025	0	353	202	3
2026-02-12	16:11:30.890	-75.32	-1.925	-40.985	0.945988	0.301584	0.204228	-0.2835	0.1215	0.1905	0	353	202	3
2026-02-12	16:11:30.910	-70.665	1.89	-50.89	1.01626	0.278404	0.191296	-0.285	0.111	0.1965	0	353	202	3
2026-02-12	16:11:30.930	-60.235	6.405	-58.345	1.081652	0.290116	0.195444	-0.285	0.102	0.201	0	353	202	3
2026-02-12	16:11:30.950	-47.53	10.01	-63.91	1.113616	0.306708	0.16714	-0.2895	0.0975	0.1995	0	353	202	3
2026-02-12	16:11:30.970	-37.415	12.215	-69.58	1.172908	0.307196	0.141032	-0.2895	0.087	0.204	0	353	202	3
2026-02-12	16:11:30.990	-29.645	14.805	-73.92	1.16632	0.301096	0.123464	-0.288	0.087	0.198	0	353	202	3
2026-02-12	16:11:31.010	-23.59	15.47	-77.84	1.173152	0.293532	0.11712	-0.2895	0.0795	0.1935	0	325	217	3
2026-02-12	16:11:31.030	-18.27	15.68	-81.865	1.101172	0.271328	0.113704	-0.2835	0.075	0.195	0	325	217	3
2026-02-12	16:11:31.050	-10.71	14.91	-85.12	1.053592	0.285968	0.111752	-0.291	0.063	0.192	0	325	217	3
2026-02-12	16:11:31.070	-4.375	11.76	-87.465	0.95038	0.282552	0.09857599	-0.3015	0.054	0.183	0	325	217	3
2026-02-12	16:11:31.090	-4.515	8.75	-87.395	0.899872	0.284992	0.101016	-0.297	0.0405	0.1815	0	325	217	3
2026-02-12	16:11:31.110	-9.45	6.23	-86.205	0.861808	0.26108	0.088816	-0.2925	0.024	0.1785	0	325	217	3
2026-02-12	16:11:31.130	-12.53	4.655	-83.51	0.821304	0.251076	0.082228	-0.2895	0.015	0.177	0	325	217	3
2026-02-12	16:11:31.150	-15.19	3.22	-78.505	0.798856	0.24644	0.067832	-0.288	0.0105	0.1755	0	325	217	3
2026-02-12	16:11:31.170	-18.375	1.68	-71.47	0.793732	0.233996	0.070516	-0.297	-0.0015	0.1695	0	325	217	3
2026-02-12	16:11:31.190	-20.37	0.455	-61.88	0.79666	0.228384	0.074908	-0.285	-0.0105	0.1785	0	325	217	3
2026-02-12	16:11:31.210	-21.77	-0.42	-50.505	0.792512	0.21716	0.08174	-0.2775	-0.0135	0.18	0	296	209	3
2026-02-12	16:11:31.230	-21.315	-0.77	-37.345	0.795196	0.221796	0.096136	-0.288	-0.024	0.1725	0	296	209	3
2026-02-12	16:11:31.250	-19.11	-0.7	-23.66	0.789584	0.218136	0.102236	-0.288	-0.027	0.171	0	296	209	3
2026-02-12	16:11:31.270	-15.155	-0.49	-9.66	0.792512	0.210572	0.095892	-0.2895	-0.027	0.168	0	296	209	3
2026-02-12	16:11:31.290	-9.275	-0.56	4.235	0.7991	0.202276	0.10248	-0.288	-0.0315	0.1725	0	296	209	3
2026-02-12	16:11:31.310	-2.31	-1.015	17.955	0.811544	0.202032	0.109312	-0.282	-0.0255	0.171	0	296	209	3
2026-02-12	16:11:31.330	5.495	-2.52	33.6	0.822524	0.206668	0.1281	-0.2865	-0.027	0.1695	0	296	209	3
2026-02-12	16:11:31.350	12.215	-4.55	47.705	0.859856	0.226432	0.140544	-0.2865	-0.027	0.1695	0	296	209	3
2026-02-12	16:11:31.370	15.4	-6.51	58.485	0.915976	0.238876	0.149328	-0.285	-0.018	0.171	0	296	209	3
2026-02-12	16:11:31.390	16.66	-8.19	69.3	0.98576	0.250588	0.162016	-0.2865	-0.012	0.1725	0	296	209	3
2026-02-12	16:11:31.410	16.765	-9.275	80.22	1.04066	0.254736	0.169824	-0.288	-0.0015	0.1755	0	271	188	3
2026-02-12	16:11:31.430	16.135	-10.78	92.12	1.122888	0.27206	0.177388	-0.285	0.012	0.1785	0	271	188	3
2026-02-12	16:11:31.450	14.21	-13.16	106.785	1.271728	0.284016	0.199592	-0.2865	0.021	0.18	0	271	188	3
2026-02-12	16:11:31.470	10.045	-15.855	121.415	1.44692	0.315004	0.24034	-0.2865	0.036	0.1845	0	271	188	3
2026-02-12	16:11:31.490	9.975	-13.44	134.12	1.481324	0.336964	0.276208	-0.282	0.051	0.183	0	271	188	3
2026-02-12	16:11:31.510	18.06	-8.225	136.5	1.29442	0.340624	0.263276	-0.2835	0.069	0.1815	0	271	188	3
2026-02-12	16:11:31.530	34.02	-4.235	130.025	1.040904	0.323788	0.243756	-0.285	0.0855	0.1875	0	271	188	3
2026-02-12	16:11:31.550	49.77	-6.02	110.32	0.801052	0.324764	0.27328	-0.2865	0.093	0.195	0	271	188	3
2026-02-12	16:11:31.570	49.14	-8.4	98.805	0.737124	0.325252	0.312564	-0.279	0.114	0.195	0	271	188	3
2026-02-12	16:11:31.590	33.88	-12.495	81.235	0.787632	0.335744	0.336476	-0.273	0.1365	0.195	0	271	188	3
2026-02-12	16:11:31.610	2.17	-9.975	56.49	0.898164	0.395524	0.302804	-0.276	0.1365	0.195	0	251	178	3
2026-02-12	16:11:31.630	-13.265	-9.135	40.355	1.063352	0.303292	0.234728	-0.276	0.1365	0.195	0	251	178	3
2026-02-12	16:11:31.650	-7.245	-1.085	25.76	1.094096	0.279868	0.183976	-0.2685	0.153	0.207	0	251	178	3
2026-02-12	16:11:31.670	7.84	5.215	13.825	1.148996	0.227896	0.18544	-0.2655	0.162	0.204	0	251	178	3
2026-02-12	16:11:31.690	31.325	12.32	4.305	1.10166	0.19154	0.193004	-0.2715	0.1575	0.204	0	251	178	3
2026-02-12	16:11:31.710	57.785	13.93	-5.88	1.066768	0.194224	0.208864	-0.27	0.1605	0.201	0	251	178	3
2026-02-12	16:11:31.730	78.155	14.49	-14.105	0.993568	0.23546	0.227896	-0.2685	0.159	0.201	0	251	178	3
2026-02-12	16:11:31.750	88.865	13.58	-20.79	0.918172	0.261568	0.232776	-0.2685	0.1545	0.1935	0	251	178	3
2026-02-12	16:11:31.770	91.7	11.725	-26.39	0.866444	0.310368	0.225212	-0.2715	0.15	0.183	0	251	178	3
2026-02-12	16:11:31.790	84.77	9.17	-29.785	0.840336	0.33794	0.210328	-0.2775	0.144	0.1815	0	251	178	3
2026-02-12	16:11:31.810	70.735	6.475	-30.45	0.831064	0.359656	0.197152	-0.2745	0.1395	0.1755	0	236	184	3
2026-02-12	16:11:31.830	51.555	3.92	-28.28	0.827892	0.358436	0.201788	-0.27	0.129	0.171	0	236	184	3
2026-02-12	16:11:31.850	31.465	1.785	-23.765	0.837164	0.337696	0.204716	-0.27	0.12	0.174	0	236	184	3
2026-02-12	16:11:31.870	14.42	0.14	-16.94	0.847412	0.305732	0.219844	-0.267	0.12	0.1725	0	236	184	3
2026-02-12	16:11:31.890	4.235	-0.525	-10.36	0.86376	0.270352	0.225212	-0.267	0.1215	0.1665	0	236	184	3
2026-02-12	16:11:31.910	2.24	-1.155	-6.16	0.886696	0.260836	0.238876	-0.2835	0.1095	0.1635	0	236	184	3
2026-02-12	16:11:31.930	3.64	-1.435	-3.465	0.901824	0.250588	0.250832	-0.27	0.1155	0.168	0	236	184	3
2026-02-12	16:11:31.950	7.595	-1.75	-2.275	0.911096	0.250344	0.256688	-0.2745	0.114	0.1785	0	236	184	3
2026-02-12	16:11:31.970	11.13	-2.205	-2.73	0.887672	0.252784	0.2684	-0.2775	0.1155	0.171	0	236	184	3
2026-02-12	16:11:31.990	12.915	-3.22	-4.445	0.871324	0.24888	0.273036	-0.267	0.1155	0.171	0	236	184	3
2026-02-12	16:11:32.010	12.425	-4.69	-6.195	0.852292	0.262788	0.271816	-0.2745	0.105	0.174	0	224	196	3
2026-02-12	16:11:32.030	8.47	-6.58	-7.035	0.850096	0.280844	0.273036	-0.282	0.1095	0.1725	0	224	196	3
2026-02-12	16:11:32.050	-0.105	-8.855	-5.95	0.887184	0.2928	0.291092	-0.273	0.1005	0.1725	0	224	196	3
2026-02-12	16:11:32.070	-11.2	-10.57	-2.555	0.953796	0.295972	0.316224	-0.2805	0.108	0.177	0	224	196	3
2026-02-12	16:11:32.090	-19.95	-10.815	2.31	1.037732	0.299876	0.338672	-0.285	0.1065	0.1785	0	224	196	3
2026-02-12	16:11:32.110	-23.24	-8.61	7.07	1.075064	0.293532	0.327204	-0.2685	0.111	0.174	0	224	196	3
2026-02-12	16:11:32.130	-20.44	-5.985	10.57	1.094828	0.26718	0.292068	-0.2835	0.114	0.1755	0	224	196	3
2026-02-12	16:11:32.150	-8.12	-3.815	12.705	1.113616	0.2684	0.264984	-0.2775	0.1095	0.1845	0	224	196	3
2026-02-12	16:11:32.170	-4.62	-3.64	13.265	1.094584	0.291824	0.256688	-0.279	0.1095	0.1815	0	224	196	3
2026-02-12	16:11:32.190	-5.565	-5.355	14.14	1.086532	0.314272	0.26474	-0.282	0.1155	0.1815	0	224	196	3
2026-02-12	16:11:32.210	-11.165	-6.79	15.715	1.093364	0.359168	0.276696	-0.282	0.1215	0.1845	0	213	213	3
2026-02-12	16:11:32.230	-23.695	-6.16	16.52	1.040172	0.399916	0.264984	-0.282	0.1275	0.1875	0	213	213	3
2026-02-12	16:11:32.250	-40.355	-4.445	14.42	0.957944	0.405772	0.23302	-0.282	0.132	0.192	0	213	213	3
2026-02-12	16:11:32.270	-58.135	-3.15	9.45	0.879376	0.394792	0.19032	-0.2775	0.132	0.192	0	213	213	3
2026-02-12	16:11:32.290	-70.175	-3.045	1.61	0.854244	0.36966	0.16226	-0.276	0.1335	0.192	0	213	213	3
2026-02-12	16:11:32.310	-76.615	-3.675	-7.525	0.890356	0.333548	0.166408	-0.279	0.15	0.2025	0	213	213	3
2026-02-12	16:11:32.330	-76.895	-3.675	-16.345	0.971608	0.318664	0.186172	-0.2805	0.144	0.1995	0	213	213	3
2026-02-12	16:11:32.350	-72.275	-1.4	-24.185	1.045296	0.323544	0.206424	-0.285	0.141	0.198	0	213	213	3
2026-02-12	16:11:32.370	-63.035	2.625	-31.745	1.081408	0.325496	0.205204	-0.2865	0.147	0.201	0	213	213	3
2026-02-12	16:11:32.390	-51.135	6.86	-40.32	1.101904	0.356728	0.178608	-0.282	0.1395	0.198	0	213	213	3
2026-02-12	16:11:32.410	-41.825	11.9	-52.395	1.087508	0.351604	0.135176	-0.285	0.141	0.21	0	202	224	3
2026-02-12	16:11:32.430	-39.06	14.735	-65.24	1.082872	0.343552	0.105408	-0.285	0.141	0.21	0	202	224	3
2026-02-12	16:11:32.450	-38.43	15.015	-75.25	1.070184	0.317932	0.101748	-0.288	0.135	0.207	0	202	224	3
2026-02-12	16:11:32.470	-34.265	14.105	-84.14	1.069208	0.286944	0.104432	-0.2925	0.12	0.2025	0	202	224	3
2026-02-12	16:11:32.490	-26.915	12.425	-92.085	1.0614	0.267424	0.11468	-0.2925	0.1065	0.1965	0	202	224	3
2026-02-12	16:11:32.510	-19.32	10.185	-98.35	1.0553	0.26474	0.11224	-0.294	0.0945	0.192	0	202	224	3
2026-02-12	16:11:32.530	-13.895	7.84	-102.305	1.034316	0.26962	0.113948	-0.2985	0.0825	0.192	0	202	224	3
2026-02-12	16:11:32.550	-11.025	5.81	-103.67	0.995032	0.266204	0.105652	-0.297	0.069	0.195	0	202	224	3
2026-02-12	16:11:32.570	-9.835	3.99	-102.55	0.953796	0.263276	0.099796	-0.2955	0.054	0.192	0	202	224	3
2026-02-12	16:11:32.590	-8.995	2.17	-100.31	0.908412	0.260592	0.09467199	-0.3015	0.0405	0.1875	0	202	224	3
2026-02-12	16:11:32.610	-10.115	0.49	-95.725	0.87352	0.249612	0.092476	-0.3015	0.027	0.186	0	192	217	3
2026-02-12	16:11:32.630	-13.475	-0.98	-89.11	0.848388	0.235948	0.102724	-0.2985	0.0195	0.1815	0	192	217	3
2026-02-12	16:11:32.650	-15.995	-1.715	-81.27	0.825208	0.235704	0.108336	-0.3045	0.0075	0.1845	0	192	217	3
2026-02-12	16:11:32.670	-18.41	-2.205	-71.645	0.805444	0.223016	0.104432	-0.306	-0.009	0.186	0	192	217	3
2026-02-12	16:11:32.690	-18.375	-2.73	-55.265	0.760304	0.213744	0.113216	-0.3	-0.018	0.1815	0	192	217	3
2026-02-12	16:11:32.710	-16.625	-3.465	-43.47	0.737368	0.196908	0.11834	-0.306	-0.024	0.1875	0	192	217	3
2026-02-12	16:11:32.730	-13.265	-4.69	-30.625	0.739564	0.19276	0.122732	-0.291	-0.039	0.1725	0	192	217	3
2026-02-12	16:11:32.750	-10.08	-6.125	-15.96	0.756644	0.184708	0.143716	-0.2985	-0.0435	0.174	0	192	217	3
2026-02-12	16:11:32.770	-6.195	-6.86	0	0.77836	0.198372	0.165432	-0.294	-0.045	0.18	0	192	217	3
2026-02-12	16:11:32.790	-1.365	-7.245	15.96	0.807152	0.204472	0.173972	-0.2895	-0.033	0.186	0	192	217	3
2026-02-12	16:11:32.810	5.39	-7.42	31.78	0.864492	0.213256	0.171288	-0.294	-0.0345	0.1845	0	184	198	3
2026-02-12	16:11:32.830	11.305	-7.56	48.125	0.93452	0.2257	0.17568	-0.2985	-0.0345	0.189	0	184	198	3
2026-02-12	16:11:32.850	14.35	-7.56	64.4	0.975268	0.24522	0.173484	-0.3015	-0.0285	0.192	0	184	198	3
2026-02-12	16:11:32.870	12.425	-8.715	81.095	1.034804	0.264008	0.1769	-0.3045	-0.0255	0.1905	0	184	198	3
2026-02-12	16:11:32.890	6.685	-11.445	100.03	1.157048	0.293532	0.205692	-0.306	-0.0195	0.1935	0	184	198	3
2026-02-12	16:11:32.910	-2.94	-14.525	121.625	1.327848	0.331596	0.237412	-0.3075	-0.0075	0.189	0	184	198	3
2026-02-12	16:11:32.930	-9.205	-14.455	137.515	1.413248	0.360876	0.285968	-0.312	0.012	0.189	0	184	198	3
2026-02-12	16:11:32.950	-3.605	-9.485	144.9	1.262456	0.383568	0.277916	-0.315	0.027	0.1935	0	184	198	3
2026-02-12	16:11:32.970	12.04	-4.41	138.04	0.98332	0.338672	0.227164	-0.315	0.027	0.1935	0	184	198	3
2026-02-12	16:11:32.990	26.005	-5.6	123.9	0.821304	0.28792	0.23546	-0.306	0.0825	0.198	0	184	198	3
2026-02-12	16:11:33.010	29.4	-9.8	108.325	0.776896	0.315248	0.297192	-0.3015	0.096	0.204	0	178	187	3
2026-02-12	16:11:33.030	15.155	-14.105	91.175	0.853024	0.27084	0.333304	-0.3045	0.12	0.2025	0	178	187	3
2026-02-12	16:11:33.050	7.84	-11.095	74.9	0.921344	0.382348	0.324032	-0.3	0.1275	0.213	0	178	187	3
2026-02-12	16:11:33.070	-13.37	-12.53	57.12	1.06628	0.317444	0.28304	-0.297	0.1395	0.207	0	178	187	3
2026-02-12	16:11:33.090	-12.145	-7.105	41.685	1.12484	0.30988	0.216184	-0.294	0.15	0.204	0	178	187	3
2026-02-12	16:11:33.110	3.01	-1.015	28	1.172664	0.261568	0.193736	-0.288	0.1575	0.2175	0	178	187	3
2026-02-12	16:11:33.130	21.42	4.62	15.085	1.16388	0.235704	0.221796	-0.291	0.168	0.213	0	178	187	3
2026-02-12	16:11:33.150	40.53	7.49	1.995	1.114592	0.215696	0.242292	-0.303	0.1545	0.2115	0	178	187	3
2026-02-12	16:11:33.170	57.89	8.295	-9.905	1.041392	0.22326	0.27206	-0.297	0.1635	0.213	0	178	187	3
2026-02-12	16:11:33.190	70.035	8.925	-19.53	0.93208	0.234972	0.26474	-0.2895	0.1545	0.2055	0	178	187	3
2026-02-12	16:11:33.210	79.275	8.575	-27.125	0.86254	0.262788	0.249856	-0.2955	0.1545	0.2025	0	175	192	3
2026-02-12	16:11:33.230	80.675	6.895	-34.335	0.799832	0.308416	0.212036	-0.2955	0.1545	0.2025	0	175	192	3
2026-02-12	16:11:33.250	73.675	5.285	-36.015	0.792756	0.310856	0.209352	-0.297	0.1425	0.1965	0	175	192	3
2026-02-12	16:11:33.270	61.88	3.815	-34.86	0.78446	0.30988	0.207644	-0.294	0.1245	0.189	0	175	192	3
2026-02-12	16:11:33.290	47.53	2.24	-30.205	0.782752	0.298168	0.21716	-0.291	0.12	0.1845	0	175	192	3
2026-02-12	16:11:33.310	34.895	0.91	-23.17	0.792024	0.291824	0.223504	-0.3	0.1185	0.1815	0	175	192	3
2026-02-12	16:11:33.330	25.375	0.21	-14.525	0.806664	0.286944	0.242536	-0.3075	0.1185	0.183	0	175	192	3
2026-02-12	16:11:33.350	18.445	0.315	-5.075	0.82838	0.282796	0.265228	-0.297	0.1095	0.183	0	175	192	3
2026-02-12	16:11:33.370	16.485	1.085	3.71	0.842044	0.263276	0.274744	-0.3	0.102	0.1875	0	175	192	3
2026-02-12	16:11:33.390	19.005	2.205	11.27	0.84546	0.256444	0.275964	-0.3045	0.108	0.1815	0	175	192	3
2026-02-12	16:11:33.410	24.325	2.94	16.38	0.826916	0.25132	0.276208	-0.2985	0.1065	0.1815	0	173	205	3
2026-02-12	16:11:33.430	28.875	2.73	19.355	0.819352	0.25498	0.272304	-0.3	0.105	0.1665	0	173	205	3
2026-02-12	16:11:33.450	29.75	1.05	21.28	0.841068	0.276452	0.274012	-0.303	0.1125	0.1665	0	173	205	3
2026-02-12	16:11:33.470	24.535	-1.225	23.205	0.892796	0.299144	0.275232	-0.2925	0.1125	0.174	0	173	205	3
2026-02-12	16:11:33.490	13.895	-3.85	25.69	0.981612	0.323544	0.293776	-0.3	0.1095	0.177	0	173	205	3
2026-02-12	16:11:33.510	2.065	-5.32	28.035	1.070428	0.327448	0.302072	-0.297	0.114	0.174	0	173	205	3
2026-02-12	16:11:33.530	-4.445	-6.44	29.96	1.168028	0.319396	0.3111	-0.2985	0.12	0.1695	0	173	205	3
2026-02-12	16:11:33.550	-7.945	-6.685	29.26	1.249524	0.328912	0.321104	-0.3045	0.1245	0.1695	0	173	205	3
2026-02-12	16:11:33.570	-8.995	-4.725	27.16	1.260504	0.320616	0.318908	-0.303	0.1305	0.171	0	173	205	3
2026-02-12	16:11:33.590	-10.29	-3.57	23.205	1.267336	0.325496	0.307684	-0.3	0.1335	0.174	0	173	205	3
2026-02-12	16:11:33.610	-12.215	-1.54	18.375	1.239764	0.338184	0.295972	-0.3	0.1365	0.1755	0	172	221	3
2026-02-12	16:11:33.630	-13.37	1.295	10.955	1.123132	0.337208	0.2562	-0.3	0.141	0.177	0	172	221	3
2026-02-12	16:11:33.650	-15.995	2.765	1.995	1.007476	0.3355	0.223504	-0.294	0.141	0.177	0	172	221	3
2026-02-12	16:11:33.670	-22.645	2.87	-8.12	0.908168	0.320128	0.199836	-0.2955	0.1425	0.1755	0	172	221	3
2026-02-12	16:11:33.690	-30.94	2.065	-18.095	0.83692	0.303292	0.187392	-0.2985	0.144	0.1755	0	172	221	3
2026-02-12	16:11:33.710	-36.785	0.42	-28.42	0.813008	0.304024	0.188368	-0.2985	0.1455	0.174	0	172	221	3
2026-02-12	16:11:33.730	-39.2	-0.945	-37.66	0.847656	0.314272	0.189588	-0.2985	0.1395	0.1725	0	172	221	3
2026-02-12	16:11:33.750	-40.145	-1.295	-45.08	0.907436	0.326228	0.196908	-0.303	0.1365	0.1725	0	172	221	3
2026-02-12	16:11:33.770	-38.92	0.63	-53.55	1.021628	0.348188	0.202276	-0.309	0.1425	0.1725	0	172	221	3
2026-02-12	16:11:33.790	-37.205	3.955	-58.24	1.079212	0.347944	0.163968	-0.306	0.1245	0.177	0	172	221	3
2026-02-12	16:11:33.810	-35.35	7.455	-60.69	1.110932	0.359656	0.11102	-0.2925	0.123	0.1815	0	171	232	3
2026-02-12	16:11:33.830	-32.2	10.08	-64.12	1.140944	0.37088	0.090524	-0.312	0.12	0.177	0	171	232	3
2026-02-12	16:11:33.850	-30.415	11.55	-67.025	1.110444	0.352824	0.065636	-0.309	0.108	0.168	0	171	232	3
2026-02-12	16:11:33.870	-25.9	11.27	-70.945	1.066768	0.326472	0.070516	-0.3165	0.1065	0.171	0	171	232	3
2026-02-12	16:11:33.890	-19.915	9.135	-74.935	1.014308	0.312564	0.07905599	-0.3165	0.1005	0.1635	0	171	232	3
2026-02-12	16:11:33.910	-13.58	5.74	-79.135	0.956968	0.303536	0.081008	-0.3195	0.099	0.1635	0	171	232	3
2026-02-12	16:11:33.930	-7.875	1.82	-82.635	0.902068	0.314516	0.073932	-0.3165	0.0885	0.165	0	171	232	3
2026-02-12	16:11:33.950	-6.615	-2.1	-84.385	0.861808	0.312808	0.061	-0.315	0.075	0.165	0	171	232	3
2026-02-12	16:11:33.970	-9.94	-5.46	-83.475	0.833504	0.327936	0.049288	-0.321	0.06	0.1665	0	171	232	3
2026-02-12	16:11:33.990	-17.535	-8.26	-80.325	0.825208	0.322812	0.052948	-0.324	0.0465	0.168	0	171	232	3
2026-02-12	16:11:34.010	-24.535	-9.625	-75.81	0.822768	0.328912	0.061732	-0.327	0.0405	0.165	0	170	221	3
2026-02-12	16:11:34.030	-29.26	-9.905	-68.005	0.82228	0.300608	0.066368	-0.3285	0.036	0.1605	0	170	221	3
2026-02-12	16:11:34.050	-29.995	-8.855	-57.61	0.827648	0.2867	0.0671	-0.3285	0.036	0.1605	0	170	221	3
2026-02-12	16:11:34.070	-28.665	-7.805	-48.055	0.82594	0.26352	0.07076	-0.3375	0.009	0.1755	0	170	221	3
2026-02-12	16:11:34.090	-24.605	-6.23	-37.485	0.809104	0.263764	0.07808	-0.336	0.0075	0.174	0	170	221	3
2026-02-12	16:11:34.110	-20.51	-5.075	-27.055	0.805932	0.2501	0.084424	-0.333	0.0075	0.1695	0	170	221	3
2026-02-12	16:11:34.130	-15.855	-4.34	-16.31	0.815936	0.251564	0.10248	-0.3345	0.006	0.1815	0	170	221	3
2026-02-12	16:11:34.150	-12.39	-3.85	-5.425	0.840336	0.255224	0.122732	-0.342	-0.0045	0.174	0	170	221	3
2026-02-12	16:11:34.170	-9.24	-2.905	4.725	0.856684	0.263764	0.138348	-0.327	0.0015	0.1725	0	170	221	3
2026-02-12	16:11:34.190	-6.86	-2.59	13.825	0.890844	0.261812	0.14762	-0.342	-0.0015	0.1815	0	170	221	3
2026-02-12	16:11:34.210	-4.445	-2.485	22.26	0.93452	0.254248	0.145424	-0.336	0.003	0.18	0	168	195	3
2026-02-12	16:11:34.230	-2.345	-2.625	30.66	0.985516	0.25864	0.15006	-0.333	0	0.1845	0	168	195	3
2026-02-12	16:11:34.250	-1.645	-2.8	39.585	1.021872	0.26474	0.163968	-0.348	0.009	0.186	0	168	195	3
2026-02-12	16:11:34.270	-3.675	-4.06	50.365	1.103612	0.272548	0.183976	-0.3345	0.0135	0.1875	0	168	195	3
2026-02-12	16:11:34.290	-7.28	-4.375	63.805	1.207068	0.291824	0.216672	-0.345	0.024	0.1935	0	168	195	3
2026-02-12	16:11:34.310	-7.455	-2.17	84.665	1.324188	0.304268	0.215452	-0.345	0.024	0.1935	0	168	195	3
2026-02-12	16:11:34.330	0.945	1.82	94.15	1.248792	0.289384	0.20862	-0.3435	0.0375	0.192	0	168	195	3
2026-02-12	16:11:34.350	14.175	3.99	98	1.116544	0.281088	0.203008	-0.3405	0.0645	0.1965	0	168	195	3
2026-02-12	16:11:34.370	32.305	5.845	94.01	0.89914	0.273036	0.202276	-0.336	0.0825	0.1995	0	168	195	3
2026-02-12	16:11:34.390	47.46	3.08	84.245	0.743712	0.257908	0.232532	-0.3315	0.0945	0.195	0	168	195	3
2026-02-12	16:11:34.410	50.33	-2.415	74.025	0.74298	0.283772	0.264984	-0.3315	0.108	0.198	0	167	177	3
2026-02-12	16:11:34.430	39.515	-6.405	64.645	0.792268	0.319396	0.28426	-0.333	0.117	0.198	0	167	177	3
2026-02-12	16:11:34.450	22.19	-8.295	55.51	0.906216	0.352336	0.284748	-0.33	0.12	0.1935	0	167	177	3
2026-02-12	16:11:34.470	3.64	-6.265	47.285	1.031388	0.351116	0.24766	-0.3285	0.1185	0.195	0	167	177	3
2026-02-12	16:11:34.490	-5.075	-2.1	40.775	1.117276	0.30012	0.21594	-0.333	0.1275	0.2055	0	167	177	3
2026-02-12	16:11:34.510	0.84	3.185	32.235	1.171444	0.271816	0.203496	-0.3225	0.138	0.2025	0	167	177	3
2026-02-12	16:11:34.530	14.21	9.065	27.37	1.134112	0.227164	0.203008	-0.3285	0.144	0.2085	0	167	177	3
2026-02-12	16:11:34.550	36.33	11.48	20.755	1.067988	0.196176	0.2135	-0.3255	0.144	0.2085	0	167	177	3
2026-02-12	16:11:34.570	61.67	11.27	12.39	0.970632	0.236436	0.223504	-0.33	0.1515	0.1995	0	167	177	3
2026-02-12	16:11:34.590	73.29	8.225	4.025	0.881572	0.258152	0.229116	-0.327	0.144	0.192	0	167	177	3
2026-02-12	16:11:34.610	73.185	5.25	-1.47	0.842044	0.290116	0.2135	-0.327	0.1395	0.186	0	166	177	3
2026-02-12	16:11:34.630	64.925	2.205	-4.725	0.81984	0.321836	0.203252	-0.327	0.1425	0.1875	0	166	177	3
2026-02-12	16:11:34.650	49.665	-0.14	-5.145	0.817644	0.334036	0.201056	-0.318	0.1395	0.1875	0	166	177	3
2026-02-12	16:11:34.670	32.585	-1.715	-3.115	0.820084	0.333548	0.19886	-0.3225	0.1365	0.186	0	166	177	3
2026-02-12	16:11:34.690	18.515	-2.765	0.63	0.835456	0.318664	0.205936	-0.327	0.1365	0.183	0	166	177	3
2026-02-12	16:11:34.710	10.15	-3.045	5.46	0.853268	0.300364	0.219844	-0.3225	0.1335	0.183	0	166	177	3
2026-02-12	16:11:34.730	6.37	-2.765	10.955	0.868396	0.278648	0.228872	-0.3255	0.129	0.183	0	166	177	3
2026-02-12	16:11:34.750	7.665	-2.415	15.96	0.886452	0.26108	0.238388	-0.33	0.1305	0.1815	0	166	177	3
2026-02-12	16:11:34.770	13.16	-1.89	19.565	0.907924	0.264008	0.246684	-0.327	0.138	0.186	0	166	177	3
2026-02-12	16:11:34.790	18.97	-1.295	21.175	0.912316	0.284504	0.250588	-0.324	0.1395	0.192	0	166	177	3
2026-02-12	16:11:34.810	21.84	-0.665	20.825	0.905728	0.28182	0.250344	-0.3255	0.1425	0.1905	0	164	187	3
2026-02-12	16:11:34.830	22.785	-0.735	19.075	0.891576	0.285724	0.253272	-0.318	0.1395	0.1905	0	164	187	3
2026-02-12	16:11:34.850	19.95	-1.785	15.4	0.888404	0.307928	0.260104	-0.315	0.135	0.195	0	164	187	3
2026-02-12	16:11:34.870	15.05	-3.255	12.845	0.902556	0.315736	0.260592	-0.315	0.15	0.1905	0	164	187	3
2026-02-12	16:11:34.890	8.12	-5.145	11.375	0.956236	0.323788	0.277428	-0.3255	0.1455	0.195	0	164	187	3
2026-02-12	16:11:34.910	0.7	-6.3	11.13	1.02602	0.332816	0.300364	-0.327	0.1515	0.1935	0	164	187	3
2026-02-12	16:11:34.930	-4.725	-5.95	11.27	1.07482	0.32452	0.299632	-0.327	0.1575	0.195	0	164	187	3
2026-02-12	16:11:34.950	-5.74	-4.55	10.535	1.07848	0.30012	0.285968	-0.3225	0.156	0.2055	0	164	187	3
2026-02-12	16:11:34.970	-1.365	-3.815	7.665	1.075552	0.281088	0.263032	-0.3285	0.15	0.195	0	164	187	3
2026-02-12	16:11:34.990	4.9	-4.585	3.92	1.097756	0.2928	0.27206	-0.315	0.15	0.198	0	164	187	3
2026-02-12	16:11:35.010	6.475	-4.83	1.715	1.087264	0.315004	0.262056	-0.3285	0.15	0.195	0	161	202	3
2026-02-12	16:11:35.030	3.99	-6.09	-0.35	1.070672	0.330864	0.255956	-0.33	0.1515	0.21	0	161	202	3
2026-02-12	16:11:35.050	-4.445	-7.7	-0.35	1.070428	0.37332	0.249856	-0.327	0.15	0.2055	0	161	202	3
2026-02-12	16:11:35.070	-20.09	-8.855	1.75	1.070672	0.40626	0.257176	-0.324	0.15	0.204	0	161	202	3
2026-02-12	16:11:35.090	-38.64	-7.665	3.15	1.006744	0.415776	0.240828	-0.3255	0.153	0.2055	0	161	202	3
2026-02-12	16:11:35.110	-61.67	-6.265	1.085	0.853756	0.388448	0.19154	-0.327	0.1545	0.2055	0	161	202	3
2026-02-12	16:11:35.130	-80.675	-7.245	-5.46	0.804224	0.366244	0.16958	-0.327	0.1545	0.2055	0	161	202	3
2026-02-12	16:11:35.150	-94.185	-8.82	-13.23	0.83204	0.389668	0.175192	-0.33	0.1605	0.2175	0	161	202	3
2026-02-12	16:11:35.170	-111.265	-9.275	-24.045	0.90036	0.447984	0.183244	-0.3345	0.162	0.228	0	161	202	3
2026-02-12	16:11:35.190	-134.575	-8.19	-36.89	1.016504	0.463844	0.185196	-0.327	0.1545	0.231	0	161	202	3
2026-02-12	16:11:35.210	-150.465	-5.075	-51.205	1.1163	0.412116	0.168848	-0.339	0.1545	0.24	0	157	215	3
2026-02-12	16:11:35.230	-154.14	1.26	-62.125	1.146068	0.41602	0.142252	-0.3285	0.1545	0.2475	0	157	215	3
2026-02-12	16:11:35.250	-154.455	3.08	-74.27	1.19438	0.340624	0.118584	-0.3225	0.1515	0.2535	0	157	215	3
2026-02-12	16:11:35.270	-142.1	8.085	-82.53	1.203652	0.243268	0.114436	-0.3375	0.144	0.258	0	157	215	3
2026-02-12	16:11:35.290	-113.54	13.51	-88.97	1.201456	0.206912	0.133224	-0.327	0.129	0.2565	0	157	215	3
2026-02-12	16:11:35.310	-77.98	18.27	-93.17	1.167784	0.185928	0.146644	-0.3315	0.1185	0.2625	0	157	215	3
2026-02-12	16:11:35.330	-38.955	22.26	-96.635	1.118252	0.196908	0.1525	-0.3495	0.1005	0.255	0	157	215	3
2026-02-12	16:11:35.350	-5.32	24.465	-99.435	1.046028	0.207156	0.146156	-0.33	0.096	0.252	0	157	215	3
2026-02-12	16:11:35.370	21.105	24.78	-100.73	0.978684	0.217648	0.136152	-0.3345	0.0735	0.246	0	157	215	3
2026-02-12	16:11:35.390	43.295	22.925	-99.96	0.887916	0.24888	0.116144	-0.3345	0.0735	0.246	0	157	215	3
2026-02-12	16:11:35.410	45.395	21.14	-97.405	0.836676	0.274744	0.105896	-0.3345	0.045	0.237	0	154	213	3
2026-02-12	16:11:35.430	40.04	19.95	-93.1	0.809104	0.257908	0.100284	-0.3345	0.015	0.231	0	154	213	3
2026-02-12	16:11:35.450	33.25	19.18	-86.8	0.776164	0.269132	0.088572	-0.3375	0.003	0.234	0	154	213	3
2026-02-12	16:11:35.470	22.015	16.835	-77.595	0.757132	0.240096	0.092476	-0.3375	-0.0135	0.228	0	154	213	3
2026-02-12	16:11:35.490	14.49	15.05	-65.38	0.762012	0.240584	0.1037	-0.33	-0.0285	0.222	0	154	213	3
2026-02-12	16:11:35.510	9.065	13.65	-53.445	0.749812	0.239608	0.112972	-0.3285	-0.036	0.225	0	154	213	3
2026-02-12	16:11:35.530	4.655	11.235	-39.865	0.739808	0.233264	0.113704	-0.3315	-0.0435	0.222	0	154	213	3
2026-02-12	16:11:35.550	3.675	8.995	-25.305	0.740784	0.20984	0.123464	-0.3255	-0.048	0.2205	0	154	213	3
2026-02-12	16:11:35.570	5.95	6.51	-10.29	0.73688	0.217648	0.118096	-0.3225	-0.051	0.222	0	154	213	3
2026-02-12	16:11:35.590	7.56	3.08	4.69	0.759328	0.22082	0.13176	-0.327	-0.054	0.2175	0	154	213	3
2026-02-12	16:11:35.610	8.505	0.35	20.125	0.785436	0.254248	0.16104	-0.33	-0.0525	0.216	0	153	198	3
2026-02-12	16:11:35.630	5.215	-2.24	35	0.825208	0.26352	0.183	-0.3225	-0.054	0.216	0	153	198	3
2026-02-12	16:11:35.650	1.225	-3.745	54.6	0.91012	0.263276	0.193736	-0.3225	-0.048	0.219	0	153	198	3
2026-02-12	16:11:35.670	2.275	-3.92	65.1	0.996008	0.259372	0.18422	-0.3255	-0.0345	0.2205	0	153	198	3
2026-02-12	16:11:35.690	5.565	-4.025	75.32	1.060668	0.255956	0.175924	-0.3285	-0.0195	0.2235	0	153	198	3
2026-02-12	16:11:35.710	8.715	-4.935	86.87	1.141188	0.25132	0.18178	-0.3285	-0.012	0.228	0	153	198	3
2026-02-12	16:11:35.730	10.78	-7	100.415	1.281488	0.279624	0.202764	-0.33	-0.003	0.228	0	153	198	3
2026-02-12	16:11:35.750	14.28	-6.335	113.54	1.36396	0.314272	0.225944	-0.336	0.0075	0.2235	0	153	198	3
2026-02-12	16:11:35.770	21.105	-5.425	124.425	1.418616	0.29036	0.233264	-0.3345	0.021	0.2235	0	153	198	3
2026-02-12	16:11:35.790	35.595	-2.24	129.535	1.318576	0.302804	0.219112	-0.333	0.042	0.228	0	153	198	3
2026-02-12	16:11:35.810	54.075	-0.525	126.735	1.1468	0.325984	0.218868	-0.3345	0.0615	0.2295	0	154	185	3
2026-02-12	16:11:35.830	66.08	0.525	117.705	0.912804	0.304024	0.230336	-0.3345	0.0735	0.231	0	154	185	3
2026-02-12	16:11:35.850	73.5	-1.085	104.055	0.772748	0.299876	0.255224	-0.3315	0.087	0.2325	0	154	185	3
2026-02-12	16:11:35.870	70.07	-3.815	90.09	0.72468	0.333548	0.276208	-0.324	0.1065	0.2325	0	154	185	3
2026-02-12	16:11:35.890	50.12	-7.105	76.72	0.789828	0.372588	0.281332	-0.321	0.1215	0.2325	0	154	185	3
2026-02-12	16:11:35.910	23.52	-7.21	63.455	0.911828	0.405528	0.266692	-0.324	0.1275	0.2295	0	154	185	3
2026-02-12	16:11:35.930	-7.98	-3.29	46.725	1.089948	0.330376	0.202764	-0.3285	0.1335	0.2265	0	154	185	3
2026-02-12	16:11:35.950	-4.62	3.85	35	1.132404	0.28426	0.169336	-0.3105	0.1485	0.2325	0	154	185	3
2026-02-12	16:11:35.970	9.31	9.52	26.495	1.158268	0.219112	0.173972	-0.318	0.1575	0.234	0	154	185	3
2026-02-12	16:11:35.990	35.245	13.72	18.97	1.110688	0.193492	0.18666	-0.3135	0.1575	0.222	0	154	185	3
2026-02-12	16:11:36.010	64.12	14.105	11.27	1.053348	0.207644	0.212524	-0.3075	0.168	0.231	0	158	185	3
2026-02-12	16:11:36.030	84.28	12.845	1.925	0.964532	0.240828	0.2257	-0.309	0.165	0.2235	0	158	185	3
2026-02-12	16:11:36.050	94.675	10.465	-5.53	0.899872	0.2745	0.225944	-0.3075	0.156	0.213	0	158	185	3
2026-02-12	16:11:36.070	95.62	7.35	-12.53	0.842776	0.316468	0.211792	-0.3105	0.1545	0.2115	0	158	185	3
2026-02-12	16:11:36.090	84.805	3.43	-17.5	0.81984	0.35136	0.197152	-0.309	0.156	0.2085	0	158	185	3
2026-02-12	16:11:36.110	64.155	-0.21	-19.39	0.809592	0.366	0.19886	-0.309	0.1305	0.207	0	158	185	3
2026-02-12	16:11:36.130	39.9	-3.36	-18.725	0.811056	0.36356	0.203984	-0.3075	0.1455	0.2085	0	158	185	3
2026-02-12	16:11:36.150	18.305	-5.705	-16.1	0.817888	0.338672	0.21472	-0.309	0.1425	0.207	0	158	185	3
2026-02-12	16:11:36.170	3.29	-7.105	-12.18	0.836188	0.314516	0.233264	-0.3135	0.138	0.207	0	158	185	3
2026-02-12	16:11:36.190	-8.61	-7.7	-6.51	0.858636	0.276696	0.241804	-0.312	0.135	0.2055	0	158	185	3
2026-02-12	16:11:36.210	-8.47	-8.015	-1.05	0.886696	0.260104	0.253272	-0.3105	0.1335	0.204	0	162	192	3
2026-02-12	16:11:36.230	-5.495	-8.47	2.065	0.911096	0.256688	0.275964	-0.315	0.1305	0.2055	0	162	192	3
2026-02-12	16:11:36.250	-0.875	-8.225	3.535	0.918904	0.255712	0.28914	-0.3195	0.1335	0.2145	0	162	192	3
2026-02-12	16:11:36.270	3.85	-7.84	3.5	0.894016	0.261812	0.284748	-0.315	0.138	0.2055	0	162	192	3
2026-02-12	16:11:36.290	5.915	-8.295	2.17	0.879132	0.269864	0.277428	-0.3045	0.1305	0.213	0	162	192	3
2026-02-12	16:11:36.310	4.025	-9.38	0.49	0.864492	0.279624	0.27206	-0.3165	0.1365	0.2115	0	162	192	3
2026-02-12	16:11:36.330	-2.38	-11.13	-0.77	0.882304	0.29158	0.285724	-0.312	0.138	0.2205	0	162	192	3
2026-02-12	16:11:36.350	-10.885	-12.285	-1.365	0.915	0.310856	0.296216	-0.3075	0.1365	0.216	0	162	192	3
2026-02-12	16:11:36.370	-20.02	-13.125	-0.665	0.98942	0.305244	0.305	-0.309	0.135	0.2235	0	162	192	3
2026-02-12	16:11:36.390	-26.915	-12.635	1.295	1.070916	0.30012	0.305732	-0.315	0.144	0.2205	0	162	192	3
2026-02-12	16:11:36.410	-29.89	-11.27	3.185	1.14924	0.282064	0.29524	-0.315	0.1455	0.225	0	164	206	3
2026-02-12	16:11:36.430	-27.965	-9.905	4.935	1.22244	0.267668	0.294264	-0.315	0.1365	0.228	0	164	206	3
2026-02-12	16:11:36.450	-20.86	-7.21	3.22	1.215608	0.270596	0.27572	-0.312	0.141	0.231	0	164	206	3
2026-02-12	16:11:36.470	-9.555	-5.95	-0.14	1.190232	0.292312	0.25254	-0.312	0.141	0.231	0	164	206	3
2026-02-12	16:11:36.490	-6.685	-5.915	-2.87	1.14192	0.327204	0.25742	-0.312	0.147	0.231	0	164	206	3
2026-02-12	16:11:36.510	-8.82	-5.285	-7.105	1.043832	0.342576	0.246196	-0.3135	0.1485	0.231	0	164	206	3
2026-02-12	16:11:36.530	-13.72	-4.445	-12.635	0.966972	0.35502	0.213744	-0.3165	0.1425	0.2325	0	164	206	3
2026-02-12	16:11:36.550	-21.735	-3.64	-19.74	0.892064	0.355996	0.183	-0.3225	0.141	0.234	0	164	206	3
2026-02-12	16:11:36.570	-30.24	-3.08	-28.105	0.840336	0.342332	0.16348	-0.3195	0.144	0.237	0	164	206	3
2026-02-12	16:11:36.590	-35.945	-3.395	-36.82	0.842776	0.32818	0.162992	-0.3165	0.141	0.24	0	164	206	3
2026-02-12	16:11:36.610	-40.95	-3.465	-44.275	0.884744	0.341112	0.168604	-0.318	0.132	0.24	0	163	220	3
2026-02-12	16:11:36.630	-46.095	-2.905	-50.645	0.93574	0.33306	0.186904	-0.318	0.126	0.24	0	163	220	3
2026-02-12	16:11:36.650	-47.67	-0.42	-55.44	1.00406	0.38796	0.195444	-0.324	0.123	0.24	0	163	220	3
2026-02-12	16:11:36.670	-50.855	3.43	-59.78	1.042856	0.379908	0.169092	-0.33	0.123	0.24	0	163	220	3
2026-02-12	16:11:36.690	-50.12	7.7	-62.37	1.084336	0.383812	0.12688	-0.321	0.111	0.24	0	163	220	3
2026-02-12	16:11:36.710	-44.87	12.285	-65.555	1.113616	0.3843	0.101504	-0.3255	0.1065	0.252	0	163	220	3
2026-02-12	16:11:36.730	-36.435	15.54	-70.175	1.095072	0.354776	0.078568	-0.333	0.0975	0.246	0	163	220	3
2026-02-12	16:11:36.750	-26.18	15.925	-75.005	1.065304	0.331108	0.091012	-0.33	0.0855	0.24	0	163	220	3
2026-02-12	16:11:36.770	-17.605	14.875	-78.19	1.028948	0.32574	0.103212	-0.3315	0.069	0.2355	0	163	220	3
2026-02-12	16:11:36.790	-9.205	13.23	-80.64	0.984784	0.328912	0.09638	-0.33	0.057	0.237	0	163	220	3
2026-02-12	16:11:36.810	-2.695	11.445	-82.145	0.936472	0.330376	0.07808	-0.3285	0.0495	0.237	0	162	219	3
2026-02-12	16:11:36.830	-0.84	9.135	-82.285	0.89426	0.33062	0.06734399	-0.33	0.0405	0.2325	0	162	219	3
2026-02-12	16:11:36.850	-2.275	7.14	-81.34	0.862784	0.324764	0.057584	-0.327	0.0315	0.228	0	162	219	3
2026-02-12	16:11:36.870	-5.775	5.39	-79.03	0.813008	0.315492	0.06222	-0.33	0.0195	0.231	0	162	219	3
2026-02-12	16:11:36.890	-9.625	3.43	-74.06	0.801052	0.30012	0.072712	-0.333	0.009	0.2325	0	162	219	3
2026-02-12	16:11:36.910	-14.35	1.505	-67.515	0.78934	0.283284	0.06832	-0.3285	0	0.2295	0	162	219	3
2026-02-12	16:11:36.930	-15.225	0.735	-59.99	0.77592	0.292068	0.085156	-0.324	-0.018	0.225	0	162	219	3
2026-02-12	16:11:36.950	-17.15	-0.56	-50.33	0.77714	0.293532	0.093696	-0.327	-0.0225	0.222	0	162	219	3
2026-02-12	16:11:36.970	-18.515	-1.015	-39.305	0.762744	0.280112	0.099552	-0.327	-0.024	0.222	0	162	219	3
2026-02-12	16:11:36.990	-18.095	-1.19	-27.44	0.758108	0.277428	0.105652	-0.3225	-0.0315	0.2205	0	162	219	3
2026-02-12	16:11:37.010	-16.24	-1.61	-9.24	0.754936	0.260348	0.110288	-0.321	-0.0345	0.2175	0	160	200	3
2026-02-12	16:11:37.030	-13.965	-2.17	3.43	0.773724	0.274012	0.12566	-0.3195	-0.0375	0.225	0	160	200	3
2026-02-12	16:11:37.050	-12.775	-2.52	15.645	0.804956	0.277428	0.154696	-0.315	-0.0375	0.222	0	160	200	3
2026-02-12	16:11:37.070	-11.515	-2.17	26.6	0.845948	0.276452	0.170312	-0.321	-0.0435	0.2235	0	160	200	3
2026-02-12	16:11:37.090	-8.225	-1.645	36.19	0.892064	0.273036	0.1708	-0.3165	-0.0375	0.2265	0	160	200	3
2026-02-12	16:11:37.110	-3.185	-1.225	45.885	0.954284	0.266448	0.159576	-0.321	-0.027	0.228	0	160	200	3
2026-02-12	16:11:37.130	3.22	-1.05	56.07	1.00772	0.268888	0.15738	-0.324	-0.021	0.2235	0	160	200	3
2026-02-12	16:11:37.150	8.96	-1.47	65.94	1.0614	0.2684	0.160064	-0.3255	-0.006	0.2265	0	160	200	3
2026-02-12	16:11:37.170	13.37	-2.485	77.805	1.150704	0.278892	0.180316	-0.315	-0.0135	0.228	0	160	200	3
2026-02-12	16:11:37.190	15.505	-3.465	91.7	1.243912	0.305732	0.194468	-0.3315	0.009	0.234	0	160	200	3
2026-02-12	16:11:37.210	18.2	-2.555	103.845	1.281	0.323544	0.204716	-0.3285	0.0105	0.231	0	158	179	3
2026-02-12	16:11:37.230	21.56	-1.505	113.75	1.265628	0.329888	0.207156	-0.327	0.0165	0.228	0	158	179	3
2026-02-12	16:11:37.250	27.23	-0.7	117.25	1.150704	0.327936	0.209596	-0.3285	0.0345	0.2325	0	158	179	3
2026-02-12	16:11:37.270	39.83	-0.98	109.55	0.883524	0.313296	0.230824	-0.33	0.048	0.2385	0	158	179	3
2026-02-12	16:11:37.290	43.12	-4.935	98.56	0.795684	0.329156	0.255956	-0.33	0.048	0.2385	0	158	179	3
2026-02-12	16:11:37.310	33.915	-8.785	88.83	0.829112	0.345016	0.2867	-0.3255	0.1005	0.237	0	158	179	3
2026-02-12	16:11:37.330	19.075	-9.94	77.245	0.885232	0.35136	0.284504	-0.3165	0.111	0.237	0	158	179	3
2026-02-12	16:11:37.350	6.23	-8.085	66.045	0.974048	0.327204	0.255956	-0.3165	0.12	0.2445	0	158	179	3
2026-02-12	16:11:37.370	2.1	-4.13	56.035	1.07482	0.305976	0.210084	-0.3165	0.132	0.24	0	158	179	3
2026-02-12	16:11:37.390	7	1.4	47.39	1.123132	0.266204	0.180072	-0.312	0.1425	0.2475	0	158	179	3
2026-02-12	16:11:37.410	20.79	6.755	39.76	1.138016	0.24034	0.18178	-0.3075	0.1545	0.237	0	157	174	3
2026-02-12	16:11:37.430	42.7	10.85	31.29	1.096292	0.221796	0.18666	-0.3075	0.147	0.246	0	157	174	3
2026-02-12	16:11:37.450	66.43	11.865	22.12	1.03944	0.249368	0.20008	-0.3	0.147	0.2415	0	157	174	3
2026-02-12	16:11:37.470	79.555	10.36	12.845	0.97356	0.269864	0.207644	-0.309	0.1575	0.2385	0	157	174	3
2026-02-12	16:11:37.490	83.02	7.7	3.92	0.905484	0.301096	0.216184	-0.3	0.1575	0.2325	0	157	174	3
2026-02-12	16:11:37.510	78.26	4.69	-3.92	0.855952	0.317688	0.20496	-0.297	0.156	0.231	0	157	174	3
2026-02-12	16:11:37.530	63.84	1.12	-10.15	0.832772	0.335744	0.189344	-0.303	0.1575	0.2265	0	157	174	3
2026-02-12	16:11:37.550	44.975	-1.785	-12.39	0.8235	0.337696	0.18178	-0.303	0.1575	0.2265	0	157	174	3
2026-02-12	16:11:37.570	30.275	-3.64	-11.27	0.8357	0.311832	0.193004	-0.3	0.147	0.222	0	157	174	3
2026-02-12	16:11:37.590	21.56	-4.41	-8.61	0.846192	0.294996	0.198372	-0.3	0.138	0.216	0	157	174	3
2026-02-12	16:11:37.610	16.24	-4.9	-4.795	0.872544	0.278892	0.208864	-0.3	0.138	0.216	0	156	180	3
2026-02-12	16:11:37.630	14.91	-4.795	-0.035	0.905728	0.269376	0.22204	-0.303	0.1365	0.216	0	156	180	3
2026-02-12	16:11:37.650	16.31	-4.585	4.025	0.937204	0.26962	0.23546	-0.3015	0.135	0.2175	0	156	180	3
2026-02-12	16:11:37.670	19.215	-4.095	6.615	0.956968	0.25986	0.242048	-0.3015	0.1335	0.219	0	156	180	3
2026-02-12	16:11:37.690	22.785	-3.745	7.455	0.953796	0.268888	0.2501	-0.3045	0.1305	0.2205	0	156	180	3
2026-02-12	16:11:37.710	25.375	-3.885	6.685	0.923052	0.274012	0.249856	-0.3015	0.141	0.2205	0	156	180	3
2026-02-12	16:11:37.730	25.235	-4.97	4.9	0.896212	0.28182	0.253028	-0.3045	0.1455	0.2145	0	156	180	3
2026-02-12	16:11:37.750	21.07	-6.755	2.94	0.87474	0.290604	0.26108	-0.3075	0.141	0.2145	0	156	180	3
2026-02-12	16:11:37.770	13.86	-8.575	1.575	0.872544	0.301584	0.271084	-0.306	0.1485	0.225	0	156	180	3
2026-02-12	16:11:37.790	5.18	-9.94	1.925	0.8967	0.305732	0.27938	-0.2955	0.141	0.219	0	156	180	3
2026-02-12	16:11:37.810	-5.145	-10.78	5.145	0.958676	0.299144	0.28792	-0.297	0.1395	0.219	0	153	191	3
2026-02-12	16:11:37.830	-12.635	-10.745	10.01	1.042856	0.30866	0.294996	-0.3015	0.1425	0.225	0	153	191	3
2026-02-12	16:11:37.850	-15.505	-9.835	13.895	1.101416	0.299876	0.297924	-0.3015	0.144	0.231	0	153	191	3
2026-02-12	16:11:37.870	-14.35	-8.96	16.415	1.151436	0.288896	0.288408	-0.3	0.1395	0.2295	0	153	191	3
2026-02-12	16:11:37.890	-10.745	-8.015	17.535	1.173884	0.30134	0.29768	-0.3015	0.141	0.231	0	153	191	3
2026-02-12	16:11:37.910	-7.56	-6.825	15.33	1.127524	0.318176	0.284016	-0.3	0.15	0.2355	0	153	191	3
2026-02-12	16:11:37.930	-9.905	-7.35	13.125	1.07482	0.344772	0.272792	-0.2985	0.1515	0.2325	0	153	191	3
2026-02-12	16:11:37.950	-17.815	-8.47	10.5	1.045052	0.384544	0.279868	-0.2925	0.1545	0.237	0	153	191	3
2026-02-12	16:11:37.970	-35.07	-8.645	6.93	1.013332	0.413336	0.284504	-0.294	0.1605	0.24	0	153	191	3
2026-02-12	16:11:37.990	-57.33	-6.65	1.68	0.94794	0.40748	0.249612	-0.2985	0.1605	0.2385	0	153	191	3
2026-02-12	16:11:38.010	-82.11	-3.71	-7.035	0.879376	0.377956	0.186416	-0.3015	0.162	0.2415	0	150	208	3
2026-02-12	16:11:38.030	-92.33	-2.555	-12.915	0.856928	0.357948	0.1647	-0.3015	0.1605	0.2475	0	150	208	3
2026-02-12	16:11:38.050	-106.4	-3.045	-21.14	0.897432	0.319884	0.1647	-0.303	0.159	0.2565	0	150	208	3
2026-02-12	16:11:38.070	-119.84	-2.1	-30.24	0.986004	0.313052	0.19154	-0.3015	0.1605	0.258	0	150	208	3
2026-02-12	16:11:38.090	-127.61	2.625	-39.83	1.10776	0.312564	0.207888	-0.2985	0.162	0.258	0	150	208	3
2026-02-12	16:11:38.110	-121.625	11.83	-50.365	1.091168	0.300852	0.176168	-0.3045	0.1575	0.282	0	150	208	3
2026-02-12	16:11:38.130	-102.76	17.745	-57.54	1.135576	0.253028	0.141032	-0.3	0.1515	0.279	0	150	208	3
2026-02-12	16:11:38.150	-74.9	23.345	-63.7	1.118008	0.239364	0.112484	-0.2985	0.141	0.282	0	150	208	3
2026-02-12	16:11:38.170	-44.275	26.005	-70.595	1.145824	0.236436	0.114924	-0.306	0.129	0.276	0	150	208	3
2026-02-12	16:11:38.190	-17.15	27.615	-77.98	1.151436	0.251076	0.121756	-0.3135	0.132	0.2715	0	150	208	3
2026-02-12	16:11:38.210	3.815	28.595	-85.085	1.11508	0.258884	0.122244	-0.3195	0.1095	0.264	0	146	216	3
2026-02-12	16:11:38.230	20.37	27.755	-91.63	1.07482	0.282796	0.115656	-0.312	0.1035	0.261	0	146	216	3
2026-02-12	16:11:38.250	30.975	25.305	-96.355	1.01016	0.278892	0.096624	-0.3165	0.093	0.2535	0	146	216	3
2026-02-12	16:11:38.270	37.17	22.26	-99.295	0.956724	0.302072	0.09272	-0.3195	0.072	0.252	0	146	216	3
2026-02-12	16:11:38.290	35.525	19.215	-100.275	0.90036	0.310612	0.08052	-0.315	0.063	0.249	0	146	216	3
2026-02-12	16:11:38.310	29.82	16.38	-99.33	0.8601	0.30622	0.073688	-0.3135	0.0525	0.2445	0	146	216	3
2026-02-12	16:11:38.330	21.28	13.72	-96.04	0.83082	0.278648	0.060268	-0.315	0.036	0.2385	0	146	216	3
2026-02-12	16:11:38.350	10.605	10.29	-86.31	0.801296	0.290848	0.059048	-0.318	0.03	0.237	0	146	216	3
2026-02-12	16:11:38.370	2.415	7.805	-77.875	0.770308	0.258884	0.064904	-0.318	0.03	0.237	0	146	216	3
2026-02-12	16:11:38.390	-2.24	5.495	-67.375	0.765672	0.2745	0.081496	-0.312	-0.0135	0.2295	0	146	216	3
2026-02-12	16:11:38.410	-8.085	3.5	-55.405	0.75396	0.261568	0.08784	-0.315	-0.0105	0.234	0	144	204	3
2026-02-12	16:11:38.430	-12.46	1.435	-42.63	0.748592	0.254736	0.091988	-0.3075	-0.024	0.231	0	144	204	3
2026-02-12	16:11:38.450	-14.91	-0.665	-28.77	0.762988	0.24156	0.10492	-0.303	-0.03	0.2355	0	144	204	3
2026-02-12	16:11:38.470	-16.38	-2.975	-13.895	0.781044	0.250588	0.12444	-0.3045	-0.03	0.24	0	144	204	3
2026-02-12	16:11:38.490	-17.36	-4.76	1.47	0.823256	0.262544	0.162504	-0.306	-0.0315	0.2325	0	144	204	3
2026-02-12	16:11:38.510	-17.045	-5.25	15.96	0.84424	0.262544	0.182024	-0.3135	-0.036	0.237	0	144	204	3
2026-02-12	16:11:38.530	-14.385	-5.075	28.385	0.868396	0.252296	0.194224	-0.3015	-0.0315	0.234	0	144	204	3
2026-02-12	16:11:38.550	-9.59	-5.145	40.005	0.901092	0.257176	0.200324	-0.3135	-0.024	0.237	0	144	204	3
2026-02-12	16:11:38.570	-3.36	-5.04	51.625	0.935252	0.255224	0.195444	-0.3	-0.015	0.231	0	144	204	3
2026-02-12	16:11:38.590	2.205	-5.705	62.895	0.989908	0.253272	0.18788	-0.306	-0.015	0.2355	0	144	204	3
2026-02-12	16:11:38.610	5.46	-7.49	79.835	1.137528	0.288164	0.205204	-0.3105	-0.0045	0.2325	0	143	185	3
2026-02-12	16:11:38.630	5.635	-8.05	98.49	1.290272	0.299876	0.23668	-0.3105	-0.0045	0.2325	0	143	185	3
2026-02-12	16:11:38.650	10.29	-5.46	109.375	1.34566	0.289384	0.254004	-0.3105	0.015	0.2385	0	143	185	3
2026-02-12	16:11:38.670	23.59	-0.945	115.395	1.249524	0.293044	0.243268	-0.306	0.0435	0.2475	0	143	185	3
2026-02-12	16:11:38.690	41.37	1.82	114.065	1.09068	0.313296	0.228872	-0.309	0.0585	0.252	0	143	185	3
2026-02-12	16:11:38.710	56.63	2.555	105.525	0.86986	0.2745	0.2196	-0.3105	0.0735	0.246	0	143	185	3
2026-02-12	16:11:38.730	66.885	0.945	94.255	0.757864	0.285968	0.244976	-0.303	0.0885	0.24	0	143	185	3
2026-02-12	16:11:38.750	63.56	-3.255	81.865	0.769332	0.34038	0.278648	-0.306	0.0945	0.243	0	143	185	3
2026-02-12	16:11:38.770	44.66	-6.44	69.58	0.85522	0.365024	0.281332	-0.3045	0.102	0.2445	0	143	185	3
2026-02-12	16:11:38.790	21.49	-6.125	57.61	0.963312	0.388692	0.257176	-0.2985	0.1155	0.246	0	143	185	3
2026-02-12	16:11:38.810	1.435	-3.64	47.32	1.05164	0.33794	0.199348	-0.297	0.123	0.246	0	143	180	3
2026-02-12	16:11:38.830	-4.585	-0.35	37.345	1.11874	0.30866	0.176412	-0.297	0.1275	0.246	0	143	180	3
2026-02-12	16:11:38.850	-1.19	3.92	29.82	1.13582	0.25864	0.183976	-0.3	0.1305	0.249	0	143	180	3
2026-02-12	16:11:38.870	12.53	7.035	23.52	1.117032	0.210572	0.207888	-0.291	0.141	0.252	0	143	180	3
2026-02-12	16:11:38.890	46.76	8.505	14.21	1.018456	0.216672	0.236924	-0.3015	0.144	0.2445	0	143	180	3
2026-02-12	16:11:38.910	62.965	7.875	8.645	0.937936	0.250344	0.232288	-0.2955	0.147	0.246	0	143	180	3
2026-02-12	16:11:38.930	70.98	6.195	3.92	0.870592	0.270108	0.213256	-0.291	0.147	0.243	0	143	180	3
2026-02-12	16:11:38.950	73.08	4.515	0.28	0.81984	0.299876	0.188856	-0.291	0.1485	0.237	0	143	180	3
2026-02-12	16:11:38.970	66.15	1.96	-1.4	0.80032	0.318664	0.188612	-0.288	0.144	0.231	0	143	180	3
2026-02-12	16:11:38.990	52.22	-0.21	-0.595	0.79788	0.329156	0.197396	-0.2925	0.138	0.2295	0	143	180	3
2026-02-12	16:11:39.010	36.085	-1.75	1.995	0.809592	0.323056	0.197396	-0.2925	0.141	0.2295	0	145	186	3
2026-02-12	16:11:39.030	23.66	-2.695	6.195	0.821304	0.308172	0.2013	-0.291	0.1425	0.228	0	145	186	3
2026-02-12	16:11:39.050	16.135	-3.22	11.62	0.849852	0.305976	0.213744	-0.288	0.138	0.2265	0	145	186	3
2026-02-12	16:11:39.070	12.88	-3.045	17.045	0.87474	0.287676	0.224724	-0.285	0.1365	0.234	0	145	186	3
2026-02-12	16:11:39.090	13.615	-2.765	21.91	0.901092	0.270352	0.234484	-0.2865	0.141	0.2325	0	145	186	3
2026-02-12	16:11:39.110	18.06	-2.415	25.41	0.915488	0.278404	0.245708	-0.2835	0.144	0.231	0	145	186	3
2026-02-12	16:11:39.130	23.205	-1.855	26.46	0.918416	0.288408	0.255468	-0.2805	0.1485	0.2325	0	145	186	3
2026-02-12	16:11:39.150	27.16	-1.645	24.675	0.903044	0.29768	0.251564	-0.2775	0.15	0.2295	0	145	186	3
2026-02-12	16:11:39.170	27.405	-2.275	21.315	0.884988	0.304512	0.244	-0.276	0.15	0.231	0	145	186	3
2026-02-12	16:11:39.190	22.505	-4.375	18.34	0.91622	0.3233	0.250344	-0.2745	0.1575	0.2265	0	145	186	3
2026-02-12	16:11:39.210	14.21	-6.475	16.24	0.966484	0.343552	0.267668	-0.282	0.1605	0.2295	0	146	196	3
2026-02-12	16:11:39.230	3.92	-7.98	15.05	1.024312	0.35258	0.284992	-0.273	0.162	0.234	0	146	196	3
2026-02-12	16:11:39.250	-5.74	-8.855	14.735	1.080676	0.344772	0.287432	-0.279	0.1635	0.2265	0	146	196	3
2026-02-12	16:11:39.270	-12.18	-9.975	14.7	1.166564	0.342332	0.288164	-0.2775	0.165	0.2355	0	146	196	3
2026-02-12	16:11:39.290	-15.96	-10.36	14.035	1.240984	0.34038	0.303292	-0.273	0.1635	0.225	0	146	196	3
2026-02-12	16:11:39.310	-16.45	-8.645	9.94	1.224148	0.321836	0.295484	-0.2685	0.1755	0.2415	0	146	196	3
2026-02-12	16:11:39.330	-15.82	-8.4	4.655	1.208776	0.333792	0.284748	-0.273	0.168	0.2415	0	146	196	3
2026-02-12	16:11:39.350	-19.495	-7.7	-1.295	1.14802	0.35746	0.272304	-0.276	0.1785	0.237	0	146	196	3
2026-02-12	16:11:39.370	-28.21	-7.49	-8.295	1.071648	0.359656	0.243756	-0.2655	0.1875	0.243	0	146	196	3
2026-02-12	16:11:39.390	-37.94	-7.875	-15.75	1.007964	0.35014	0.22204	-0.273	0.177	0.2475	0	146	196	3
2026-02-12	16:11:39.410	-49.315	-8.225	-22.715	0.956968	0.35014	0.208864	-0.27	0.1725	0.2475	0	146	210	3
2026-02-12	16:11:39.430	-66.115	-7.49	-33.6	0.853512	0.312076	0.188856	-0.2685	0.1695	0.2475	0	146	210	3
2026-02-12	16:11:39.450	-72.065	-7.595	-40.705	0.8479	0.30134	0.18422	-0.2685	0.1695	0.2475	0	146	210	3
2026-02-12	16:11:39.470	-75.145	-7.385	-47.355	0.879376	0.297192	0.181292	-0.2775	0.1665	0.2565	0	146	210	3
2026-02-12	16:11:39.490	-74.515	-6.195	-53.55	0.9272	0.2989	0.186416	-0.2805	0.165	0.2595	0	146	210	3
2026-02-12	16:11:39.510	-71.295	-3.465	-57.82	0.99308	0.305976	0.194712	-0.2805	0.159	0.2655	0	146	210	3
2026-02-12	16:11:39.530	-65.275	-0.105	-62.195	1.047492	0.316956	0.18056	-0.282	0.156	0.27	0	146	210	3
2026-02-12	16:11:39.550	-52.57	4.445	-65.52	1.131428	0.336964	0.16104	-0.288	0.1515	0.2655	0	146	210	3
2026-02-12	16:11:39.570	-40.46	9.59	-68.635	1.140944	0.34892	0.121024	-0.291	0.147	0.2685	0	146	210	3
2026-02-12	16:11:39.590	-32.655	13.195	-73.43	1.154364	0.345504	0.09028	-0.288	0.1305	0.2685	0	146	210	3
2026-02-12	16:11:39.610	-25.655	16.94	-77.665	1.108004	0.3233	0.074664	-0.291	0.129	0.267	0	145	216	3
2026-02-12	16:11:39.630	-17.92	17.64	-83.09	1.04432	0.32086	0.065148	-0.2895	0.117	0.27	0	145	216	3
2026-02-12	16:11:39.650	-11.795	16.17	-86.975	0.986736	0.314028	0.067832	-0.294	0.105	0.2595	0	145	216	3
2026-02-12	16:11:39.670	-8.085	13.65	-89.775	0.934764	0.318664	0.073932	-0.3	0.0915	0.255	0	145	216	3
2026-02-12	16:11:39.690	-8.715	10.57	-90.51	0.8784	0.309148	0.062952	-0.297	0.069	0.252	0	145	216	3
2026-02-12	16:11:39.710	-11.69	7.455	-88.83	0.833748	0.309636	0.041724	-0.297	0.069	0.252	0	145	216	3
2026-02-12	16:11:39.730	-17.815	5.145	-84.665	0.81496	0.302316	0.025864	-0.2955	0.06	0.252	0	145	216	3
2026-02-12	16:11:39.750	-24.78	2.905	-78.575	0.817156	0.29646	0.017812	-0.294	0.0405	0.249	0	145	216	3
2026-02-12	16:11:39.770	-30.94	1.12	-70.385	0.8052	0.287432	0.026596	-0.303	0.024	0.249	0	145	216	3
2026-02-12	16:11:39.790	-37.03	-0.42	-60.13	0.81618	0.268888	0.036112	-0.3015	0.0195	0.249	0	145	216	3
2026-02-12	16:11:39.810	-41.44	-1.295	-50.015	0.819352	0.268156	0.046604	-0.291	0.012	0.2445	0	144	201	3
2026-02-12	16:11:39.830	-44.205	-1.89	-38.71	0.81618	0.25132	0.051972	-0.2895	0.0075	0.2415	0	144	201	3
2026-02-12	16:11:39.850	-44.1	-2.31	-27.58	0.803492	0.232532	0.054412	-0.2925	0.003	0.24	0	144	201	3
2026-02-12	16:11:39.870	-41.44	-3.395	-15.75	0.82838	0.219356	0.067832	-0.2955	-0.0015	0.2415	0	144	201	3
2026-02-12	16:11:39.890	-36.4	-4.235	-3.185	0.856196	0.219112	0.084668	-0.297	0	0.246	0	144	201	3
2026-02-12	16:11:39.910	-29.75	-4.585	9.73	0.909876	0.21106	0.106628	-0.297	-0.0015	0.243	0	144	201	3
2026-02-12	16:11:39.930	-20.3	-3.92	22.4	0.9516	0.210084	0.110776	-0.294	-0.003	0.24	0	144	201	3
2026-02-12	16:11:39.950	-8.295	-3.22	34.51	0.987468	0.202032	0.1037	-0.291	0.003	0.2475	0	144	201	3
2026-02-12	16:11:39.970	8.54	-4.55	52.29	1.091412	0.2196	0.11102	-0.291	0.009	0.255	0	144	201	3
2026-02-12	16:11:39.990	15.33	-6.23	68.11	1.189012	0.239852	0.145424	-0.291	0.0165	0.255	0	144	201	3
2026-02-12	16:11:40.010	18.375	-7	84.525	1.264164	0.264008	0.205936	-0.294	0.027	0.249	0	144	174	3
2026-02-12	16:11:40.030	23.695	-4.76	98.28	1.278316	0.2806	0.225456	-0.2925	0.0405	0.252	0	144	174	3
2026-02-12	16:11:40.050	34.44	-0.35	107.03	1.156804	0.270596	0.194712	-0.288	0.0525	0.258	0	144	174	3
2026-02-12	16:11:40.070	49.98	1.47	108.43	0.998936	0.27206	0.1708	-0.2895	0.063	0.2535	0	144	174	3
2026-02-12	16:11:40.090	63.42	0.665	102.865	0.832284	0.286944	0.185928	-0.288	0.0765	0.2505	0	144	174	3
2026-02-12	16:11:40.110	67.41	-3.29	91.945	0.747616	0.284748	0.223748	-0.288	0.09	0.2565	0	144	174	3
2026-02-12	16:11:40.130	58.45	-8.82	79.94	0.768844	0.27206	0.244732	-0.288	0.099	0.252	0	144	174	3
2026-02-12	16:11:40.150	43.33	-13.3	69.615	0.891088	0.293532	0.256444	-0.285	0.1095	0.249	0	144	174	3
2026-02-12	16:11:40.170	25.865	-14.49	61.845	1.027972	0.318908	0.257176	-0.2805	0.12	0.2565	0	144	174	3
2026-02-12	16:11:40.190	11.13	-12.215	57.295	1.137772	0.304512	0.24522	-0.2775	0.1305	0.258	0	144	174	3
2026-02-12	16:11:40.210	8.925	-8.295	54.145	1.211216	0.297192	0.235948	-0.273	0.144	0.2595	0	145	161	3
2026-02-12	16:11:40.230	22.715	-0.665	50.715	1.145824	0.262544	0.249856	-0.273	0.1455	0.2595	0	145	161	3
2026-02-12	16:11:40.250	43.365	3.675	45.99	1.067256	0.235948	0.277428	-0.276	0.1425	0.258	0	145	161	3
2026-02-12	16:11:40.270	61.775	5.075	39.62	0.99308	0.25742	0.303536	-0.2715	0.1635	0.258	0	145	161	3
2026-02-12	16:11:40.290	68.81	5.005	33.285	0.921344	0.275964	0.299632	-0.2685	0.156	0.258	0	145	161	3
2026-02-12	16:11:40.310	69.125	4.27	27.125	0.861076	0.305488	0.2684	-0.2625	0.1695	0.2535	0	145	161	3
2026-02-12	16:11:40.330	63.07	4.025	21.84	0.821548	0.33306	0.25254	-0.2565	0.165	0.2445	0	145	161	3
2026-02-12	16:11:40.350	50.54	3.815	18.2	0.8113	0.340624	0.249124	-0.261	0.1755	0.2475	0	145	161	3
2026-02-12	16:11:40.370	36.435	4.27	15.855	0.820816	0.332572	0.246684	-0.255	0.1695	0.234	0	145	161	3
2026-02-12	16:11:40.390	26.25	5.075	14.63	0.842044	0.313052	0.24766	-0.252	0.1725	0.237	0	145	161	3
2026-02-12	16:11:40.410	21.14	5.81	14.63	0.856928	0.293044	0.24766	-0.2505	0.1755	0.237	0	147	170	3
2026-02-12	16:11:40.430	20.09	6.23	15.365	0.875228	0.282552	0.249856	-0.2535	0.171	0.24	0	147	170	3
2026-02-12	16:11:40.450	21.525	6.055	15.96	0.891332	0.290848	0.247416	-0.249	0.171	0.2355	0	147	170	3
2026-02-12	16:11:40.470	21.7	5.32	15.925	0.898652	0.306952	0.250832	-0.261	0.18	0.237	0	147	170	3
2026-02-12	16:11:40.490	19.88	4.305	15.015	0.90158	0.316224	0.254492	-0.2535	0.1815	0.237	0	147	170	3
2026-02-12	16:11:40.510	13.93	2.45	11.69	0.880596	0.311832	0.257664	-0.252	0.1875	0.2295	0	147	170	3
2026-02-12	16:11:40.530	9.66	1.19	8.54	0.867176	0.313052	0.25376	-0.252	0.1875	0.2295	0	147	170	3
2026-02-12	16:11:40.550	5.95	-0.14	4.97	0.857416	0.305	0.243756	-0.2565	0.1815	0.234	0	147	170	3
2026-02-12	16:11:40.570	2.03	-1.82	1.96	0.8845	0.314028	0.244488	-0.246	0.183	0.228	0	147	170	3
2026-02-12	16:11:40.590	-3.605	-3.535	-0.035	0.941352	0.32818	0.258152	-0.246	0.1935	0.2295	0	147	170	3
2026-02-12	16:11:40.610	-10.85	-4.83	-1.05	1.008208	0.33306	0.268156	-0.246	0.1905	0.231	0	148	190	3
2026-02-12	16:11:40.630	-17.01	-5.53	-1.12	1.080432	0.32208	0.274012	-0.249	0.18	0.225	0	148	190	3
2026-02-12	16:11:40.650	-19.18	-5.775	-1.12	1.14558	0.300608	0.275476	-0.2505	0.18	0.2295	0	148	190	3
2026-02-12	16:11:40.670	-15.645	-5.565	-2.345	1.213168	0.285236	0.271572	-0.249	0.189	0.2295	0	148	190	3
2026-02-12	16:11:40.690	-7.07	-4.55	-6.615	1.215608	0.28792	0.26108	-0.2475	0.18	0.2355	0	148	190	3
2026-02-12	16:11:40.710	-1.015	-5.005	-10.85	1.209996	0.3172	0.255956	-0.252	0.186	0.2385	0	148	190	3
2026-02-12	16:11:40.730	-1.26	-6.09	-15.4	1.16998	0.361364	0.250588	-0.252	0.192	0.2325	0	148	190	3
2026-02-12	16:11:40.750	-12.18	-7.42	-18.935	1.124596	0.38796	0.25742	-0.249	0.1845	0.2355	0	148	190	3
2026-02-12	16:11:40.770	-32.83	-7.28	-25.445	1.006256	0.397232	0.23058	-0.2475	0.1875	0.2475	0	148	190	3
2026-02-12	16:11:40.790	-55.79	-6.72	-34.58	0.911096	0.375272	0.1891	-0.2475	0.1875	0.2475	0	148	190	3
2026-02-12	16:11:40.810	-67.305	-6.265	-44.87	0.863516	0.32208	0.181292	-0.252	0.18	0.246	0	148	209	3
2026-02-12	16:11:40.830	-70.35	-5.705	-57.19	0.859856	0.291092	0.168604	-0.258	0.1755	0.249	0	148	209	3
2026-02-12	16:11:40.850	-66.885	-5.635	-69.65	0.920612	0.262788	0.181048	-0.2595	0.171	0.2565	0	148	209	3
2026-02-12	16:11:40.870	-61.565	-4.97	-80.71	1.022604	0.27206	0.24156	-0.264	0.1605	0.2565	0	148	209	3
2026-02-12	16:11:40.890	-58.625	-2.31	-90.44	1.118252	0.268888	0.26474	-0.267	0.153	0.2535	0	148	209	3
2026-02-12	16:11:40.910	-54.705	3.325	-96.46	1.142164	0.280844	0.256444	-0.267	0.1455	0.2535	0	148	209	3
2026-02-12	16:11:40.930	-49	8.26	-99.995	1.163636	0.299632	0.216672	-0.2685	0.1335	0.252	0	148	209	3
2026-02-12	16:11:40.950	-42.805	13.265	-101.64	1.148996	0.294264	0.180072	-0.2715	0.1185	0.258	0	148	209	3
2026-02-12	16:11:40.970	-39.41	16.45	-100.38	1.1407	0.253516	0.168848	-0.276	0.108	0.2595	0	148	209	3
2026-02-12	16:11:40.990	-31.045	20.3	-96.845	1.088728	0.234728	0.169092	-0.2805	0.096	0.252	0	148	209	3
2026-02-12	16:11:41.010	-19.6	21.875	-91.665	1.031144	0.245952	0.170312	-0.2775	0.084	0.2445	0	148	219	3
2026-02-12	16:11:41.030	-9.24	22.4	-86.52	0.960384	0.248148	0.165432	-0.276	0.072	0.2415	0	148	219	3
2026-02-12	16:11:41.050	3.185	21.35	-79.45	0.86132	0.264008	0.142008	-0.279	0.0645	0.2415	0	148	219	3
2026-02-12	16:11:41.070	6.195	20.02	-74.165	0.806664	0.271328	0.116876	-0.279	0.0645	0.2415	0	148	219	3
2026-02-12	16:11:41.090	5.355	17.85	-68.845	0.768356	0.265472	0.090524	-0.273	0.0315	0.2385	0	148	219	3
2026-02-12	16:11:41.110	1.89	15.47	-62.44	0.740296	0.26474	0.07442	-0.2715	0.0315	0.2415	0	148	219	3
2026-02-12	16:11:41.130	-3.99	12.565	-54.11	0.72468	0.254004	0.073688	-0.267	0.0225	0.237	0	148	219	3
2026-02-12	16:11:41.150	-8.89	9.87	-44.135	0.718824	0.26474	0.083204	-0.273	0.0105	0.2295	0	148	219	3
2026-02-12	16:11:41.170	-12.74	7.35	-32.48	0.72468	0.259128	0.089304	-0.2775	0.0075	0.2265	0	148	219	3
2026-02-12	16:11:41.190	-14.035	5.565	-19.6	0.738588	0.256932	0.092476	-0.273	0.006	0.222	0	148	219	3
2026-02-12	16:11:41.210	-12.565	4.235	-6.23	0.748348	0.25376	0.097356	-0.273	0.003	0.2235	0	147	212	3
2026-02-12	16:11:41.230	-8.26	3.29	7.385	0.762988	0.246196	0.100528	-0.2715	0.003	0.2265	0	147	212	3
2026-02-12	16:11:41.250	-1.89	2.485	21.105	0.782264	0.251076	0.111752	-0.27	0.006	0.225	0	147	212	3
2026-02-12	16:11:41.270	3.535	1.61	34.02	0.820328	0.259372	0.135664	-0.2715	0.0105	0.225	0	147	212	3
2026-02-12	16:11:41.290	7.7	1.47	45.675	0.862052	0.278648	0.155672	-0.273	0.012	0.228	0	147	212	3
2026-02-12	16:11:41.310	11.725	2.38	58.555	0.926956	0.269864	0.172996	-0.273	0.015	0.2295	0	147	212	3
2026-02-12	16:11:41.330	18.62	3.85	70.35	1.009916	0.259616	0.167872	-0.2715	0.0165	0.231	0	147	212	3
2026-02-12	16:11:41.350	27.37	4.55	79.31	1.081896	0.256444	0.147132	-0.267	0.0405	0.231	0	147	212	3
2026-02-12	16:11:41.370	35.14	3.115	92.12	1.225368	0.268888	0.171288	-0.282	0.045	0.225	0	147	212	3
2026-02-12	16:11:41.390	40.215	1.435	107.03	1.397876	0.304024	0.202276	-0.2685	0.06	0.228	0	147	212	3
2026-02-12	16:11:41.410	47.25	2.94	120.085	1.453752	0.324032	0.203008	-0.2625	0.069	0.219	0	148	195	3
2026-02-12	16:11:41.430	59.045	4.935	127.61	1.344684	0.33306	0.20008	-0.2625	0.078	0.225	0	148	195	3
2026-02-12	16:11:41.450	73.15	7.07	126.42	1.072624	0.338428	0.191296	-0.27	0.1005	0.2235	0	148	195	3
2026-02-12	16:11:41.470	84.595	5.355	115.745	0.7991	0.369172	0.211304	-0.264	0.1125	0.225	0	148	195	3
2026-02-12	16:11:41.490	80.99	-1.12	100.765	0.667096	0.361852	0.244244	-0.2565	0.1215	0.225	0	148	195	3
2026-02-12	16:11:41.510	63.7	-9.275	84.07	0.67832	0.369904	0.282552	-0.2595	0.135	0.216	0	148	195	3
2026-02-12	16:11:41.530	33.53	-15.12	68.775	0.777384	0.379176	0.310124	-0.2505	0.1485	0.219	0	148	195	3
2026-02-12	16:11:41.550	4.13	-15.505	53.865	0.909144	0.433344	0.29158	-0.2415	0.156	0.219	0	148	195	3
2026-02-12	16:11:41.570	-21.7	-14.77	42.63	1.042124	0.359656	0.222528	-0.243	0.15	0.225	0	148	195	3
2026-02-12	16:11:41.590	-21.21	-9.205	27.965	1.191208	0.261568	0.16226	-0.2415	0.162	0.231	0	148	195	3
2026-02-12	16:11:41.610	-4.13	-1.54	21.28	1.18706	0.207156	0.196176	-0.243	0.1665	0.231	0	152	188	3
2026-02-12	16:11:41.630	22.995	1.855	15.365	1.136552	0.173972	0.21838	-0.2415	0.171	0.2325	0	152	188	3
2026-02-12	16:11:41.650	54.495	3.5	9.485	1.040904	0.20984	0.244	-0.2415	0.174	0.2295	0	152	188	3
2026-02-12	16:11:41.670	73.36	2.625	3.99	0.93574	0.254492	0.249124	-0.24	0.18	0.225	0	152	188	3
2026-02-12	16:11:41.690	81.515	0.42	-0.84	0.86376	0.30134	0.244732	-0.237	0.1815	0.2235	0	152	188	3
2026-02-12	16:11:41.710	77.595	-2.52	-4.725	0.846192	0.348676	0.23668	-0.24	0.171	0.2265	0	152	188	3
2026-02-12	16:11:41.730	61.81	-4.83	-6.93	0.842288	0.369904	0.220576	-0.2415	0.1725	0.213	0	152	188	3
2026-02-12	16:11:41.750	40.355	-6.475	-6.265	0.844484	0.363804	0.210572	-0.24	0.1635	0.219	0	152	188	3
2026-02-12	16:11:41.770	20.825	-7.525	-3.535	0.857172	0.340136	0.211548	-0.24	0.1605	0.2145	0	152	188	3
2026-02-12	16:11:41.790	7.91	-7.595	0.385	0.866932	0.310612	0.230336	-0.249	0.1605	0.2145	0	152	188	3
2026-02-12	16:11:41.810	1.155	-6.895	4.585	0.867176	0.2806	0.241316	-0.2385	0.165	0.2175	0	157	192	3
2026-02-12	16:11:41.830	2.625	-6.195	8.435	0.8784	0.260104	0.253272	-0.246	0.168	0.213	0	157	192	3
2026-02-12	16:11:41.850	11.06	-5.88	11.305	0.90158	0.264252	0.264252	-0.24	0.1575	0.2175	0	157	192	3
2026-02-12	16:11:41.870	18.095	-5.53	11.62	0.911828	0.28182	0.277672	-0.24	0.1575	0.2175	0	157	192	3
2026-02-12	16:11:41.890	19.355	-5.32	10.22	0.90768	0.293532	0.277916	-0.237	0.162	0.213	0	157	192	3
2026-02-12	16:11:41.910	16.555	-5.74	7.805	0.887916	0.304024	0.27938	-0.2385	0.1665	0.2115	0	157	192	3
2026-02-12	16:11:41.930	11.165	-6.685	4.97	0.869372	0.302072	0.268644	-0.243	0.168	0.2145	0	157	192	3
2026-02-12	16:11:41.950	3.5	-8.61	2.905	0.883768	0.309392	0.274256	-0.2445	0.1695	0.2115	0	157	192	3
2026-02-12	16:11:41.970	-6.125	-10.745	2.835	0.932324	0.315004	0.290116	-0.243	0.1725	0.216	0	157	192	3
2026-02-12	16:11:41.990	-15.785	-12.285	4.865	1.021872	0.318176	0.310368	-0.2415	0.174	0.2205	0	157	192	3
2026-02-12	16:11:42.010	-23.695	-11.34	8.435	1.115324	0.30866	0.327936	-0.243	0.171	0.2175	0	160	206	3
2026-02-12	16:11:42.030	-23.94	-9.275	9.59	1.136796	0.293044	0.314028	-0.24	0.174	0.2205	0	160	206	3
2026-02-12	16:11:42.050	-19.145	-6.93	8.96	1.151436	0.267424	0.283772	-0.2385	0.1785	0.228	0	160	206	3
2026-02-12	16:11:42.070	-10.22	-5.6	6.195	1.14802	0.26352	0.261812	-0.24	0.1785	0.234	0	160	206	3
2026-02-12	16:11:42.090	-5.495	-5.67	2.52	1.135088	0.292312	0.260104	-0.237	0.1755	0.2355	0	160	206	3
2026-02-12	16:11:42.110	-8.68	-6.79	-0.035	1.107272	0.324276	0.268888	-0.237	0.1785	0.2325	0	160	206	3
2026-02-12	16:11:42.130	-27.37	-7.14	-1.715	1.07604	0.402356	0.280356	-0.24	0.1845	0.231	0	160	206	3
2026-02-12	16:11:42.150	-47.11	-5.18	-3.57	1.026752	0.416264	0.26596	-0.24	0.1845	0.231	0	160	206	3
2026-02-12	16:11:42.170	-64.925	-1.54	-7.56	0.96136	0.378444	0.229116	-0.237	0.186	0.2355	0	160	206	3
2026-02-12	16:11:42.190	-71.89	2.8	-14.175	0.889136	0.343552	0.192272	-0.24	0.189	0.2445	0	160	206	3
2026-02-12	16:11:42.210	-70.56	5.46	-23.45	0.877668	0.306708	0.175436	-0.2325	0.192	0.243	0	160	222	3
2026-02-12	16:11:42.230	-62.335	7.77	-33.285	0.91622	0.280844	0.183732	-0.2385	0.18	0.2475	0	160	222	3
2026-02-12	16:11:42.250	-54.215	10.64	-42.665	0.976	0.289384	0.20496	-0.2385	0.183	0.249	0	160	222	3
2026-02-12	16:11:42.270	-48.545	14.525	-52.115	1.03334	0.310124	0.207644	-0.237	0.183	0.255	0	160	222	3
2026-02-12	16:11:42.290	-42.525	18.725	-60.76	1.09068	0.339404	0.184952	-0.237	0.1815	0.2535	0	160	222	3
2026-02-12	16:11:42.310	-37.625	23.205	-68.145	1.118496	0.34404	0.152012	-0.24	0.18	0.252	0	160	222	3
2026-02-12	16:11:42.330	-35.175	26.285	-74.375	1.131428	0.329888	0.12444	-0.246	0.171	0.2565	0	160	222	3
2026-02-12	16:11:42.350	-31.22	27.825	-80.08	1.118496	0.292556	0.095892	-0.2505	0.162	0.255	0	160	222	3
2026-02-12	16:11:42.370	-23.275	27.475	-85.05	1.08946	0.26474	0.087352	-0.2535	0.1545	0.2535	0	160	222	3
2026-02-12	16:11:42.390	-10.85	24.78	-89.67	1.039196	0.269376	0.092232	-0.2595	0.144	0.252	0	160	222	3
2026-02-12	16:11:42.410	-1.575	20.58	-91.525	0.994544	0.266448	0.09394	-0.264	0.138	0.249	0	159	226	3
2026-02-12	16:11:42.430	2.73	16.8	-90.93	0.955016	0.299388	0.09076799	-0.264	0.1095	0.249	0	159	226	3
2026-02-12	16:11:42.450	-0.07	12.46	-88.865	0.911096	0.295728	0.076128	-0.2655	0.1035	0.2475	0	159	226	3
2026-02-12	16:11:42.470	-6.65	8.96	-85.19	0.867908	0.301828	0.063928	-0.2745	0.0975	0.2415	0	159	226	3
2026-02-12	16:11:42.490	-16.625	5.04	-80.36	0.83204	0.290848	0.045872	-0.2805	0.084	0.246	0	159	226	3
2026-02-12	16:11:42.510	-26.005	1.435	-73.955	0.814228	0.27694	0.039772	-0.264	0.0795	0.2415	0	159	226	3
2026-02-12	16:11:42.530	-33.775	-2.03	-66.29	0.806664	0.257664	0.045384	-0.279	0.0675	0.2565	0	159	226	3
2026-02-12	16:11:42.550	-38.605	-5.04	-57.96	0.80764	0.241072	0.05856	-0.2715	0.048	0.243	0	159	226	3
2026-02-12	16:11:42.570	-40.11	-7	-48.055	0.805688	0.231068	0.069296	-0.2745	0.054	0.246	0	159	226	3
2026-02-12	16:11:42.590	-37.975	-8.155	-37.275	0.801784	0.2135	0.076372	-0.2745	0.0435	0.249	0	159	226	3
2026-02-12	16:11:42.610	-31.885	-8.925	-26.53	0.79544	0.208376	0.07515199	-0.282	0.039	0.2535	0	157	208	3
2026-02-12	16:11:42.630	-24.43	-10.045	-15.505	0.797636	0.197884	0.080276	-0.282	0.0375	0.255	0	157	208	3
2026-02-12	16:11:42.650	-15.33	-11.13	-4.27	0.80642	0.19032	0.09857599	-0.279	0.0345	0.255	0	157	208	3
2026-02-12	16:11:42.670	-2.135	-13.195	12.74	0.828136	0.213256	0.129808	-0.2805	0.0345	0.264	0	157	208	3
2026-02-12	16:11:42.690	4.34	-14.455	23.555	0.8418	0.219356	0.139812	-0.2805	0.0375	0.264	0	157	208	3
2026-02-12	16:11:42.710	9.1	-15.855	33.565	0.859856	0.23302	0.141276	-0.2805	0.036	0.2685	0	157	208	3
2026-02-12	16:11:42.730	11.62	-17.64	43.575	0.905484	0.243512	0.135664	-0.2805	0.033	0.27	0	157	208	3
2026-02-12	16:11:42.750	9.52	-19.565	53.9	0.96502	0.253272	0.146156	-0.279	0.039	0.2685	0	157	208	3
2026-02-12	16:11:42.770	3.99	-20.3	65.975	1.036756	0.24888	0.183488	-0.279	0.048	0.2685	0	157	208	3
2026-02-12	16:11:42.790	0.91	-19.95	80.29	1.146068	0.241316	0.213744	-0.282	0.057	0.2745	0	157	208	3
2026-02-12	16:11:42.810	6.475	-18.585	96.565	1.270264	0.244732	0.235704	-0.2835	0.063	0.2835	0	155	184	3
2026-02-12	16:11:42.830	17.5	-15.225	113.085	1.38226	0.281088	0.248636	-0.282	0.075	0.285	0	155	184	3
2026-02-12	16:11:42.850	29.155	-10.92	125.37	1.415688	0.302804	0.24644	-0.2835	0.0825	0.288	0	155	184	3
2026-02-12	16:11:42.870	45.955	-4.9	131.775	1.28222	0.294996	0.227896	-0.276	0.1095	0.2835	0	155	184	3
2026-02-12	16:11:42.890	69.16	-0.91	127.645	1.078236	0.29646	0.248392	-0.267	0.1215	0.2895	0	155	184	3
2026-02-12	16:11:42.910	86.485	0.875	115.745	0.848876	0.320372	0.261812	-0.273	0.135	0.282	0	155	184	3
2026-02-12	16:11:42.930	84.035	-3.5	96.95	0.774944	0.307684	0.294508	-0.255	0.1455	0.279	0	155	184	3
2026-02-12	16:11:42.950	63.49	-6.825	79.1	0.867908	0.333304	0.328668	-0.255	0.1605	0.279	0	155	184	3
2026-02-12	16:11:42.970	40.075	-6.685	67.445	0.993568	0.336476	0.324764	-0.255	0.177	0.2805	0	155	184	3
2026-02-12	16:11:42.990	24.185	-1.645	58.905	1.0614	0.337208	0.289384	-0.2505	0.183	0.282	0	155	184	3
2026-02-12	16:11:43.010	20.335	3.92	50.505	1.124596	0.308904	0.240828	-0.24	0.192	0.2775	0	155	177	3
2026-02-12	16:11:43.030	31.36	12.075	43.54	1.09068	0.275232	0.216916	-0.2355	0.2055	0.276	0	155	177	3
2026-02-12	16:11:43.050	47.985	16.905	36.925	1.076772	0.245708	0.220088	-0.237	0.213	0.276	0	155	177	3
2026-02-12	16:11:43.070	69.055	20.755	29.61	1.035048	0.243512	0.233508	-0.237	0.2145	0.2685	0	155	177	3
2026-02-12	16:11:43.090	83.93	22.19	21.28	0.97478	0.260592	0.225944	-0.2325	0.2145	0.261	0	155	177	3
2026-02-12	16:11:43.110	91.91	21.805	13.02	0.90036	0.285236	0.214232	-0.2295	0.216	0.258	0	155	177	3
2026-02-12	16:11:43.130	91.175	19.635	5.285	0.844484	0.323544	0.2013	-0.2295	0.219	0.2505	0	155	177	3
2026-02-12	16:11:43.150	82.285	16.765	-0.91	0.810324	0.345504	0.189832	-0.228	0.2085	0.2445	0	155	177	3
2026-02-12	16:11:43.170	66.57	13.195	-5.74	0.801784	0.357704	0.187148	-0.2295	0.2025	0.2445	0	155	177	3
2026-02-12	16:11:43.190	47.635	9.695	-8.365	0.808616	0.3538	0.18666	-0.2295	0.207	0.2385	0	155	177	3
2026-02-12	16:11:43.210	21.42	4.9	-8.12	0.838628	0.331352	0.196664	-0.2295	0.2055	0.231	0	155	186	3
2026-02-12	16:11:43.230	10.465	2.065	-6.335	0.866932	0.312564	0.211792	-0.2295	0.2055	0.231	0	155	186	3
2026-02-12	16:11:43.250	3.92	-0.035	-3.885	0.884256	0.29768	0.222284	-0.2325	0.1935	0.231	0	155	186	3
2026-02-12	16:11:43.270	0.945	-1.89	-1.75	0.892552	0.284504	0.236436	-0.2295	0.186	0.2235	0	155	186	3
2026-02-12	16:11:43.290	1.085	-3.5	-0.7	0.898652	0.278892	0.247904	-0.2355	0.1935	0.2295	0	155	186	3
2026-02-12	16:11:43.310	3.185	-4.83	-1.225	0.890356	0.279624	0.258152	-0.231	0.1965	0.228	0	155	186	3
2026-02-12	16:11:43.330	5.845	-6.055	-3.185	0.870592	0.283772	0.257176	-0.2415	0.1905	0.231	0	155	186	3
2026-02-12	16:11:43.350	7.245	-7.77	-5.88	0.849608	0.277428	0.246928	-0.2295	0.1815	0.2355	0	155	186	3
2026-02-12	16:11:43.370	4.55	-10.85	-8.365	0.884744	0.29402	0.256688	-0.2355	0.1845	0.237	0	155	186	3
2026-02-12	16:11:43.390	-2.695	-13.86	-9.87	0.933788	0.322812	0.282796	-0.2385	0.189	0.234	0	155	186	3
2026-02-12	16:11:43.410	-12.88	-15.785	-10.255	0.997716	0.326716	0.313052	-0.24	0.1875	0.2325	0	155	199	2
2026-02-12	16:11:43.430	-22.015	-16.87	-9.275	1.086044	0.323788	0.33184	-0.2415	0.1815	0.237	0	155	199	2
2026-02-12	16:11:43.450	-28.77	-17.22	-7.49	1.198772	0.330864	0.340136	-0.2385	0.18	0.24	0	155	199	2
2026-02-12	16:11:43.470	-33.215	-14.805	-6.16	1.289052	0.317444	0.335012	-0.24	0.18	0.24	0	155	199	2
2026-02-12	16:11:43.490	-29.365	-10.01	-8.505	1.267824	0.289384	0.309636	-0.2445	0.1785	0.2385	0	155	199	2
2026-02-12	16:11:43.510	-25.305	-7.035	-10.85	1.240252	0.305244	0.296216	-0.246	0.18	0.2535	0	155	199	2
2026-02-12	16:11:43.530	-23.66	-3.22	-15.26	1.147288	0.316712	0.28304	-0.2505	0.1695	0.2595	0	155	199	2
2026-02-12	16:11:43.550	-22.47	0.56	-22.05	1.021872	0.298168	0.262544	-0.246	0.159	0.255	0	155	199	2
2026-02-12	16:11:43.570	-20.86	1.96	-30.52	0.913048	0.305488	0.238632	-0.249	0.1755	0.2535	0	155	199	2
2026-02-12	16:11:43.590	-19.565	1.925	-40.04	0.856684	0.318908	0.220576	-0.252	0.156	0.2535	0	155	199	2
2026-02-12	16:11:43.610	-20.93	1.19	-52.325	0.810568	0.282796	0.217648	-0.2535	0.1515	0.252	0	154	217	3
2026-02-12	16:11:43.630	-20.72	-0.315	-63.42	0.842776	0.297924	0.229604	-0.252	0.144	0.2475	0	154	217	3
2026-02-12	16:11:43.650	-22.61	-1.995	-74.655	0.906704	0.30256	0.241072	-0.255	0.1425	0.249	0	154	217	3
2026-02-12	16:11:43.670	-27.615	-2.485	-83.405	0.987712	0.377468	0.239608	-0.2595	0.123	0.2535	0	154	217	3
2026-02-12	16:11:43.690	-37.415	-0.385	-88.27	1.063352	0.40748	0.236924	-0.2565	0.108	0.2535	0	154	217	3
2026-02-12	16:11:43.710	-48.265	3.535	-92.295	1.103368	0.410408	0.182268	-0.264	0.1065	0.2505	0	154	217	3
2026-02-12	16:11:43.730	-52.64	8.225	-93.485	1.125084	0.371368	0.132004	-0.2715	0.087	0.2475	0	154	217	3
2026-02-12	16:11:43.750	-45.5	13.65	-92.225	1.132648	0.33062	0.113216	-0.267	0.0795	0.243	0	154	217	3
2026-02-12	16:11:43.770	-33.46	16.17	-90.79	1.109956	0.31232	0.111996	-0.27	0.0645	0.237	0	154	217	3
2026-02-12	16:11:43.790	-18.27	18.06	-88.34	1.06628	0.263032	0.114192	-0.2775	0.045	0.234	0	154	217	3
2026-02-12	16:11:43.810	1.33	18.445	-86.765	1.007476	0.314028	0.099552	-0.279	0.0345	0.2325	0	154	226	3
2026-02-12	16:11:43.830	13.055	16.905	-83.755	0.941352	0.339892	0.082472	-0.276	0.018	0.2265	0	154	226	3
2026-02-12	16:11:43.850	15.89	14.665	-82.74	0.880596	0.324764	0.07124799	-0.2805	0.0075	0.2205	0	154	226	3
2026-02-12	16:11:43.870	11.41	11.76	-81.48	0.833504	0.328668	0.06588	-0.2775	-0.003	0.2115	0	154	226	3
2026-02-12	16:11:43.890	1.26	8.785	-78.82	0.764696	0.320128	0.056608	-0.2715	-0.015	0.207	0	154	226	3
2026-02-12	16:11:43.910	-7.56	5.355	-73.85	0.748104	0.290848	0.063684	-0.273	-0.0255	0.2055	0	154	226	3
2026-02-12	16:11:43.930	-12.495	2.73	-67.375	0.719556	0.287432	0.066612	-0.276	-0.036	0.204	0	154	226	3
2026-02-12	16:11:43.950	-16.31	-0.385	-59.465	0.7198	0.274012	0.077104	-0.276	-0.0405	0.204	0	154	226	3
2026-02-12	16:11:43.970	-18.515	-2.625	-49.525	0.72468	0.269376	0.090524	-0.2655	-0.042	0.198	0	154	226	3
2026-02-12	16:11:43.990	-20.58	-4.585	-37.765	0.727852	0.267912	0.105408	-0.2715	-0.0525	0.189	0	154	226	3
2026-02-12	16:11:44.010	-22.365	-5.985	-21.175	0.734196	0.258396	0.116876	-0.2685	-0.06	0.1995	0	154	213	3
2026-02-12	16:11:44.030	-20.86	-6.72	-3.955	0.740296	0.241316	0.118096	-0.2685	-0.06	0.1995	0	154	213	3
2026-02-12	16:11:44.050	-16.17	-7	11.515	0.7686	0.24522	0.13176	-0.2745	-0.06	0.198	0	154	213	3
2026-02-12	16:11:44.070	-10.325	-6.86	27.86	0.80276	0.25498	0.152988	-0.279	-0.063	0.198	0	154	213	3
2026-02-12	16:11:44.090	-3.535	-6.125	43.05	0.827404	0.248392	0.169336	-0.279	-0.06	0.1995	0	154	213	3
2026-02-12	16:11:44.110	4.375	-5.25	56.385	0.878888	0.256444	0.164944	-0.282	-0.051	0.1995	0	154	213	3
2026-02-12	16:11:44.130	12.67	-4.655	68.075	0.929884	0.255468	0.150304	-0.2835	-0.042	0.2025	0	154	213	3
2026-02-12	16:11:44.150	18.62	-5.18	79.87	0.988932	0.27084	0.15372	-0.285	-0.033	0.201	0	154	213	3
2026-02-12	16:11:44.170	20.125	-6.265	92.015	1.064084	0.28792	0.175924	-0.285	-0.0285	0.201	0	154	213	3
2026-02-12	16:11:44.190	18.55	-8.085	106.575	1.20658	0.305732	0.203252	-0.2835	-0.018	0.2025	0	154	213	3
2026-02-12	16:11:44.210	13.79	-9.24	124.74	1.368108	0.33306	0.229848	-0.285	-0.0045	0.2025	0	154	193	3
2026-02-12	16:11:44.230	13.265	-7.175	140	1.452532	0.346724	0.22814	-0.2895	0.0105	0.207	0	154	193	3
2026-02-12	16:11:44.250	22.085	-2.135	149.1	1.343952	0.33916	0.235704	-0.2925	0.03	0.21	0	154	193	3
2026-02-12	16:11:44.270	33.81	0.77	149.695	1.123132	0.366	0.230336	-0.294	0.048	0.21	0	154	193	3
2026-02-12	16:11:44.290	46.34	-0.245	134.785	0.838384	0.330376	0.280112	-0.297	0.057	0.2115	0	154	193	3
2026-02-12	16:11:44.310	44.03	-4.76	121.275	0.849852	0.330132	0.321104	-0.297	0.057	0.2115	0	154	193	3
2026-02-12	16:11:44.330	33.495	-5.53	105.595	0.87962	0.371368	0.323056	-0.2895	0.108	0.216	0	154	193	3
2026-02-12	16:11:44.350	16.1	-4.935	90.265	0.9943	0.333792	0.27938	-0.2805	0.1245	0.213	0	154	193	3
2026-02-12	16:11:44.370	6.72	-1.365	76.86	1.086532	0.422608	0.231556	-0.279	0.1305	0.2145	0	154	193	3
2026-02-12	16:11:44.390	-1.645	1.085	61.215	1.15046	0.2806	0.175436	-0.2715	0.153	0.213	0	154	193	3
2026-02-12	16:11:44.410	12.985	8.015	51.625	1.169004	0.276696	0.173972	-0.2685	0.153	0.216	0	157	186	3
2026-02-12	16:11:44.430	31.325	12.775	40.775	1.140944	0.239852	0.196908	-0.27	0.159	0.2145	0	157	186	3
2026-02-12	16:11:44.450	57.015	16.065	29.05	1.03456	0.264496	0.21716	-0.264	0.168	0.21	0	157	186	3
2026-02-12	16:11:44.470	72.065	14.49	17.43	0.976732	0.250832	0.213988	-0.2685	0.165	0.2055	0	157	186	3
2026-02-12	16:11:44.490	85.75	13.545	6.3	0.903532	0.287676	0.2074	-0.2655	0.1545	0.201	0	157	186	3
2026-02-12	16:11:44.510	88.06	11.27	-1.645	0.838872	0.31598	0.189588	-0.261	0.1575	0.195	0	157	186	3
2026-02-12	16:11:44.530	80.08	7.735	-7.595	0.83204	0.355264	0.188368	-0.261	0.1605	0.1905	0	157	186	3
2026-02-12	16:11:44.550	58.975	3.745	-11.795	0.827648	0.377712	0.185196	-0.2625	0.1545	0.189	0	157	186	3
2026-02-12	16:11:44.570	35.07	0.665	-12.11	0.8296	0.373076	0.194468	-0.2595	0.15	0.1875	0	157	186	3
2026-02-12	16:11:44.590	18.445	-1.61	-9.765	0.850828	0.348432	0.202764	-0.2655	0.138	0.1845	0	157	186	3
2026-02-12	16:11:44.610	6.79	-2.975	-6.895	0.849608	0.332328	0.219844	-0.267	0.1485	0.1875	0	160	191	3
2026-02-12	16:11:44.630	-2.485	-4.725	-3.92	0.85766	0.308416	0.231068	-0.2685	0.144	0.18	0	160	191	3
2026-02-12	16:11:44.650	-7.84	-6.405	-1.855	0.873032	0.292068	0.256932	-0.2685	0.1455	0.1845	0	160	191	3
2026-02-12	16:11:44.670	-9.695	-7.455	-1.75	0.88572	0.291336	0.275232	-0.267	0.144	0.1755	0	160	191	3
2026-02-12	16:11:44.690	-9.205	-7.875	-3.395	0.894016	0.2867	0.280844	-0.2685	0.1455	0.186	0	160	191	3
2026-02-12	16:11:44.710	-7.84	-7.875	-5.845	0.887428	0.27816	0.28548	-0.2685	0.15	0.1905	0	160	191	3
2026-02-12	16:11:44.730	-6.16	-7.84	-9.24	0.873764	0.270596	0.276696	-0.2715	0.1515	0.1845	0	160	191	3
2026-02-12	16:11:44.750	-4.865	-8.05	-12.81	0.851316	0.263764	0.26108	-0.2775	0.147	0.1905	0	160	191	3
2026-02-12	16:11:44.770	-5.25	-8.995	-15.645	0.859612	0.273768	0.253028	-0.279	0.141	0.189	0	160	191	3
2026-02-12	16:11:44.790	-9.555	-10.465	-16.695	0.907436	0.291824	0.261568	-0.273	0.138	0.186	0	160	191	3
2026-02-12	16:11:44.810	-17.885	-11.165	-15.015	0.988932	0.304268	0.277184	-0.282	0.138	0.201	0	161	201	2
2026-02-12	16:11:44.830	-27.23	-10.535	-8.61	1.145092	0.31476	0.2928	-0.273	0.1395	0.1935	0	161	201	2
2026-02-12	16:11:44.850	-25.97	-9.135	-4.06	1.260504	0.308416	0.293288	-0.2775	0.135	0.1995	0	161	201	2
2026-02-12	16:11:44.870	-17.29	-6.335	-0.91	1.274412	0.30012	0.269864	-0.285	0.132	0.2025	0	161	201	2
2026-02-12	16:11:44.890	-1.715	-3.955	-4.235	1.186084	0.298168	0.231068	-0.2865	0.1365	0.201	0	161	201	2
2026-02-12	16:11:44.910	9.345	-5.845	-8.575	1.136796	0.32086	0.210816	-0.2835	0.138	0.204	0	161	201	2
2026-02-12	16:11:44.930	11.27	-7.84	-14.735	1.093608	0.363072	0.218624	-0.282	0.135	0.2025	0	161	201	2
2026-02-12	16:11:44.950	2.45	-9.065	-22.505	1.044808	0.409676	0.216428	-0.2895	0.1275	0.201	0	161	201	2
2026-02-12	16:11:44.970	-13.405	-9.1	-32.62	0.965996	0.414068	0.187392	-0.2895	0.1245	0.1995	0	161	201	2
2026-02-12	16:11:44.990	-28.49	-9.03	-42.595	0.910364	0.424072	0.1525	-0.282	0.1215	0.198	0	161	201	2
2026-02-12	16:11:45.010	-37.31	-8.75	-55.02	0.84912	0.400892	0.120048	-0.288	0.12	0.201	0	161	213	3
2026-02-12	16:11:45.030	-47.565	-10.99	-68.145	0.918416	0.450912	0.111752	-0.291	0.117	0.207	0	161	213	3
2026-02-12	16:11:45.050	-79.555	-12.285	-81.235	1.001376	0.497028	0.125416	-0.288	0.111	0.21	0	161	213	3
2026-02-12	16:11:45.070	-125.23	-12.39	-89.88	1.081652	0.507276	0.143228	-0.2955	0.108	0.2205	0	161	213	3
2026-02-12	16:11:45.090	-148.54	-7.665	-99.61	1.133624	0.467992	0.148596	-0.2925	0.1005	0.2205	0	161	213	3
2026-02-12	16:11:45.110	-145.145	-2.8	-106.4	1.125572	0.381372	0.102236	-0.2925	0.1005	0.2205	0	161	213	3
2026-02-12	16:11:45.130	-123.69	-0.91	-108.815	1.13338	0.325496	0.0854	-0.3	0.09	0.2295	0	161	213	3
2026-02-12	16:11:45.150	-92.47	1.225	-108.92	1.116056	0.324764	0.099308	-0.306	0.0765	0.24	0	161	213	3
2026-02-12	16:11:45.170	-61.635	2.17	-106.365	1.099708	0.343796	0.128344	-0.3015	0.066	0.2475	0	161	213	3
2026-02-12	16:11:45.190	-38.71	4.06	-103.04	1.037244	0.39162	0.13298	-0.3045	0.0435	0.255	0	161	213	3
2026-02-12	16:11:45.210	-25.375	4.76	-101.115	0.961116	0.349896	0.1159	-0.306	0.021	0.261	0	161	211	3
2026-02-12	16:11:45.230	-10.885	6.02	-98.49	0.898164	0.404308	0.09857599	-0.303	-0.0015	0.267	0	161	211	3
2026-02-12	16:11:45.250	-8.435	4.515	-96.18	0.833504	0.340868	0.072712	-0.2985	-0.0225	0.27	0	161	211	3
2026-02-12	16:11:45.270	-4.97	3.01	-92.575	0.786168	0.30988	0.078324	-0.288	-0.042	0.2745	0	161	211	3
2026-02-12	16:11:45.290	-0.665	1.575	-87.71	0.745664	0.285236	0.074176	-0.2745	-0.066	0.276	0	161	211	3
2026-02-12	16:11:45.310	3.29	-0.035	-80.08	0.721752	0.27572	0.075396	-0.261	-0.09	0.2685	0	161	211	3
2026-02-12	16:11:45.330	5.74	-1.61	-70.98	0.70516	0.282552	0.08052	-0.2565	-0.108	0.255	0	161	211	3
2026-02-12	16:11:45.350	6.335	-3.255	-59.955	0.702476	0.26474	0.082716	-0.2445	-0.1215	0.2475	0	161	211	3
2026-02-12	16:11:45.370	2.975	-5.075	-41.37	0.70394	0.289872	0.098088	-0.2355	-0.129	0.2445	0	161	211	3
2026-02-12	16:11:45.390	-6.86	-6.37	-27.72	0.699792	0.28304	0.099308	-0.2355	-0.129	0.2445	0	161	211	3
2026-02-12	16:11:45.410	-15.715	-7.455	-13.055	0.709064	0.274988	0.107116	-0.2265	-0.1395	0.2085	0	161	193	3
2026-02-12	16:11:45.430	-21.84	-8.155	1.82	0.711016	0.265472	0.117608	-0.2265	-0.141	0.204	0	161	193	3
2026-02-12	16:11:45.450	-24.99	-8.82	17.745	0.738588	0.260592	0.1342	-0.216	-0.141	0.1875	0	161	193	3
2026-02-12	16:11:45.470	-25.375	-9.135	33.81	0.78202	0.254736	0.1525	-0.2325	-0.1425	0.186	0	161	193	3
2026-02-12	16:11:45.490	-20.965	-8.68	49.105	0.8479	0.251808	0.15738	-0.234	-0.1275	0.1755	0	161	193	3
2026-02-12	16:11:45.510	-12.775	-7.91	63.245	0.932812	0.251564	0.146644	-0.2385	-0.114	0.1755	0	161	193	3
2026-02-12	16:11:45.530	-2.66	-6.58	76.65	0.996984	0.258152	0.143228	-0.24	-0.1065	0.1665	0	161	193	3
2026-02-12	16:11:45.550	6.335	-6.405	90.685	1.082384	0.265472	0.138592	-0.255	-0.093	0.1695	0	161	193	3
2026-02-12	16:11:45.570	13.86	-7.245	106.785	1.208288	0.275232	0.153964	-0.255	-0.087	0.171	0	161	193	3
2026-02-12	16:11:45.590	17.99	-9.695	125.09	1.402512	0.329156	0.1769	-0.267	-0.0705	0.171	0	161	193	3
2026-02-12	16:11:45.610	19.74	-8.4	142.31	1.4579	0.366976	0.195932	-0.264	-0.0525	0.174	0	162	174	3
2026-02-12	16:11:45.630	26.635	-5.845	152.67	1.300276	0.386008	0.207156	-0.267	-0.0405	0.171	0	162	174	3
2026-02-12	16:11:45.650	35.49	-4.83	150.29	1.012112	0.4026	0.232288	-0.27	-0.03	0.1695	0	162	174	3
2026-02-12	16:11:45.670	34.79	-8.015	136.885	0.83326	0.36478	0.255224	-0.276	0.0045	0.1785	0	162	174	3
2026-02-12	16:11:45.690	27.79	-12.425	121.87	0.7503	0.327448	0.289628	-0.279	0.024	0.1785	0	162	174	3
2026-02-12	16:11:45.710	13.44	-17.465	107.87	0.854244	0.313784	0.30988	-0.285	0.042	0.18	0	162	174	3
2026-02-12	16:11:45.730	-0.28	-16.625	92.96	0.958432	0.365756	0.309392	-0.2745	0.0495	0.1755	0	162	174	3
2026-02-12	16:11:45.750	-16.345	-13.72	82.53	1.108004	0.307684	0.270108	-0.2745	0.072	0.1935	0	162	174	3
2026-02-12	16:11:45.770	-15.015	-7.14	71.68	1.177788	0.35502	0.224968	-0.2865	0.0825	0.1905	0	162	174	3
2026-02-12	16:11:45.790	-6.545	-0.77	62.93	1.189988	0.251808	0.17934	-0.2715	0.093	0.186	0	162	174	3
2026-02-12	16:11:45.810	17.325	7.315	56.035	1.170712	0.246684	0.188856	-0.282	0.105	0.1905	0	165	170	3
2026-02-12	16:11:45.830	47.11	11.445	46.83	1.116056	0.228872	0.223016	-0.2745	0.1065	0.1905	0	165	170	3
2026-02-12	16:11:45.850	75.74	13.09	35.84	1.019188	0.26108	0.25498	-0.276	0.1215	0.1815	0	165	170	3
2026-02-12	16:11:45.870	88.725	11.445	24.71	0.935984	0.273036	0.264008	-0.2745	0.1215	0.18	0	165	170	3
2026-02-12	16:11:45.890	93.66	9.415	14.105	0.848144	0.31232	0.2562	-0.27	0.1335	0.174	0	165	170	3
2026-02-12	16:11:45.910	80.15	3.885	0.455	0.797148	0.385032	0.243024	-0.273	0.12	0.171	0	165	170	3
2026-02-12	16:11:45.930	56.07	0.525	-4.725	0.805688	0.39894	0.23668	-0.2715	0.123	0.165	0	165	170	3
2026-02-12	16:11:45.950	29.75	-1.295	-7.98	0.80154	0.396988	0.231312	-0.2745	0.123	0.162	0	165	170	3
2026-02-12	16:11:45.970	7.455	-2.59	-9.03	0.815204	0.35868	0.232044	-0.2775	0.1185	0.162	0	165	170	3
2026-02-12	16:11:45.990	-5.985	-2.73	-9.45	0.825696	0.334768	0.236436	-0.279	0.12	0.162	0	165	170	3
2026-02-12	16:11:46.010	-15.085	-2.31	-7.945	0.8418	0.299388	0.237412	-0.2775	0.1275	0.1635	0	169	182	3
2026-02-12	16:11:46.030	-17.465	-1.925	-6.16	0.853024	0.267424	0.243512	-0.282	0.132	0.1665	0	169	182	3
2026-02-12	16:11:46.050	-13.475	-1.54	-4.305	0.876204	0.25742	0.25254	-0.2865	0.132	0.168	0	169	182	3
2026-02-12	16:11:46.070	-6.58	-0.98	-3.08	0.886696	0.261568	0.25742	-0.2835	0.138	0.171	0	169	182	3
2026-02-12	16:11:46.090	-0.105	-0.28	-2.8	0.874496	0.2745	0.26108	-0.2865	0.144	0.177	0	169	182	3
2026-02-12	16:11:46.110	2.94	-0.28	-3.57	0.856196	0.293044	0.24766	-0.288	0.15	0.1845	0	169	182	3
2026-02-12	16:11:46.130	1.61	-1.05	-5.355	0.838384	0.307684	0.239608	-0.2925	0.1485	0.195	0	169	182	3
2026-02-12	16:11:46.150	-4.06	-2.975	-7.455	0.855708	0.317932	0.229116	-0.2985	0.144	0.201	0	169	182	3
2026-02-12	16:11:46.170	-16.03	-6.02	-8.54	0.93086	0.335256	0.235704	-0.294	0.1515	0.216	0	169	182	3
2026-02-12	16:11:46.190	-29.61	-7.91	-8.225	1.022848	0.33306	0.250588	-0.294	0.1515	0.216	0	169	182	3
2026-02-12	16:11:46.210	-37.1	-8.155	-7.665	1.075064	0.310124	0.240828	-0.2895	0.1245	0.222	0	171	198	2
2026-02-12	16:11:46.230	-38.5	-8.96	-7.49	1.17486	0.291824	0.240584	-0.2805	0.099	0.2265	0	171	198	2
2026-02-12	16:11:46.250	-34.86	-9.03	-8.575	1.254892	0.29524	0.238388	-0.279	0.102	0.213	0	171	198	2
2026-02-12	16:11:46.270	-29.54	-8.225	-13.335	1.258796	0.297192	0.241316	-0.276	0.1005	0.198	0	171	198	2
2026-02-12	16:11:46.290	-26.46	-7.735	-18.69	1.23098	0.309392	0.240096	-0.2715	0.1065	0.1875	0	171	198	2
2026-02-12	16:11:46.310	-29.085	-8.435	-25.27	1.19926	0.339404	0.238632	-0.273	0.12	0.18	0	171	198	2
2026-02-12	16:11:46.330	-36.96	-8.68	-32.305	1.131672	0.351848	0.225944	-0.276	0.129	0.1815	0	171	198	2
2026-02-12	16:11:46.350	-45.71	-8.365	-40.25	1.072868	0.345016	0.190564	-0.2745	0.1275	0.1845	0	171	198	2
2026-02-12	16:11:46.370	-53.41	-7.91	-47.635	1.003816	0.354776	0.168116	-0.2805	0.1215	0.186	0	171	198	2
2026-02-12	16:11:46.390	-57.995	-8.015	-55.09	0.944524	0.326472	0.153232	-0.2865	0.126	0.1935	0	171	198	2
2026-02-12	16:11:46.410	-54.88	-7.525	-65.24	0.910608	0.302316	0.142252	-0.2865	0.1275	0.195	0	172	210	3
2026-02-12	16:11:46.430	-48.825	-7.91	-74.725	0.937448	0.304756	0.139568	-0.291	0.12	0.1935	0	172	210	3
2026-02-12	16:11:46.450	-43.47	-8.68	-86.135	1.046028	0.366976	0.143716	-0.294	0.1185	0.198	0	172	210	3
2026-02-12	16:11:46.470	-45.535	-7.35	-90.335	1.108004	0.393572	0.144448	-0.294	0.1185	0.198	0	172	210	3
2026-02-12	16:11:46.490	-46.9	-5.215	-93.625	1.113128	0.476532	0.10248	-0.288	0.093	0.207	0	172	210	3
2026-02-12	16:11:46.510	-55.685	-4.095	-97.265	1.15778	0.438712	0.048068	-0.2925	0.093	0.2115	0	172	210	3
2026-02-12	16:11:46.530	-57.855	-2.975	-98.805	1.14924	0.398696	0.026352	-0.2955	0.0795	0.2055	0	172	210	3
2026-02-12	16:11:46.550	-51.24	-3.675	-100.66	1.102636	0.368684	0.032696	-0.297	0.06	0.213	0	172	210	3
2026-02-12	16:11:46.570	-41.3	-5.775	-100.59	1.040904	0.34892	0.04636	-0.2985	0.054	0.1965	0	172	210	3
2026-02-12	16:11:46.590	-29.05	-7.77	-100.52	0.943304	0.332572	0.055144	-0.303	0.045	0.207	0	172	210	3
2026-02-12	16:11:46.610	-15.4	-10.29	-100.03	0.8845	0.38186	0.058072	-0.294	0.03	0.207	0	171	204	3
2026-02-12	16:11:46.630	-10.99	-14.175	-98.63	0.821792	0.375272	0.03782	-0.2985	0.0135	0.216	0	171	204	3
2026-02-12	16:11:46.650	-14.945	-17.57	-96.705	0.794952	0.39284	0.033428	-0.2955	0.0045	0.2145	0	171	204	3
2026-02-12	16:11:46.670	-26.53	-20.195	-93.135	0.74786	0.379664	0.022448	-0.297	-0.012	0.222	0	171	204	3
2026-02-12	16:11:46.690	-39.235	-22.365	-87.22	0.731024	0.355264	0.02684	-0.294	-0.015	0.222	0	171	204	3
2026-02-12	16:11:46.710	-48.23	-23.695	-77.035	0.730292	0.331352	0.0366	-0.297	-0.0225	0.222	0	171	204	3
2026-02-12	16:11:46.730	-51.03	-23.45	-65.1	0.726144	0.313052	0.058316	-0.3015	-0.027	0.222	0	171	204	3
2026-02-12	16:11:46.750	-48.545	-22.19	-53.62	0.730536	0.300852	0.071736	-0.288	-0.0495	0.2325	0	171	204	3
2026-02-12	16:11:46.770	-44.66	-21.28	-40.845	0.733952	0.288896	0.081252	-0.297	-0.0495	0.234	0	171	204	3
2026-02-12	16:11:46.790	-40.355	-20.09	-28.035	0.747128	0.276452	0.091012	-0.288	-0.0585	0.231	0	171	204	3
2026-02-12	16:11:46.810	-35.63	-18.69	-14.595	0.77226	0.266936	0.098088	-0.2895	-0.0585	0.2355	0	170	180	3
2026-02-12	16:11:46.830	-28.455	-16.45	-0.035	0.795196	0.291336	0.117608	-0.279	-0.0645	0.243	0	170	180	3
2026-02-12	16:11:46.850	-22.785	-14.805	14.735	0.822768	0.299144	0.133468	-0.285	-0.063	0.237	0	170	180	3
2026-02-12	16:11:46.870	-16.94	-12.46	27.755	0.843264	0.294508	0.154208	-0.2955	-0.06	0.237	0	170	180	3
2026-02-12	16:11:46.890	-10.78	-10.57	38.29	0.887428	0.30012	0.158356	-0.2895	-0.0585	0.2445	0	170	180	3
2026-02-12	16:11:46.910	-6.16	-9.415	47.705	0.9455	0.295728	0.144692	-0.2895	-0.0495	0.2415	0	170	180	3
2026-02-12	16:11:46.930	-3.57	-9.59	59.36	1.054324	0.295728	0.149328	-0.2895	-0.0525	0.2415	0	170	180	3
2026-02-12	16:11:46.950	-4.655	-10.395	75.215	1.206092	0.317932	0.179096	-0.3	-0.0435	0.2505	0	170	180	3
2026-02-12	16:11:46.970	-8.155	-9.485	94.43	1.31638	0.312808	0.208376	-0.3	-0.03	0.2505	0	170	180	3
2026-02-12	16:11:46.990	-0.98	-4.9	116.585	1.319064	0.338672	0.21472	-0.303	-0.006	0.2475	0	170	180	3
2026-02-12	16:11:47.010	8.75	-0.525	124.6	1.146312	0.347456	0.195932	-0.306	0.006	0.249	0	170	158	3
2026-02-12	16:11:47.030	22.155	0.315	122.85	0.951844	0.337696	0.210084	-0.3105	0.0225	0.252	0	170	158	3
2026-02-12	16:11:47.050	31.78	-1.785	113.995	0.794952	0.314272	0.233264	-0.3105	0.036	0.2565	0	170	158	3
2026-02-12	16:11:47.070	30.73	-7.385	102.97	0.774212	0.294508	0.261812	-0.306	0.06	0.264	0	170	158	3
2026-02-12	16:11:47.090	21.63	-11.305	92.05	0.810812	0.297192	0.278648	-0.3075	0.0795	0.261	0	170	158	3
2026-02-12	16:11:47.110	10.08	-13.16	81.41	0.946476	0.330132	0.284748	-0.3045	0.087	0.2595	0	170	158	3
2026-02-12	16:11:47.130	1.225	-10.605	72.52	1.05408	0.350384	0.254492	-0.3	0.099	0.264	0	170	158	3
2026-02-12	16:11:47.150	-2.835	-6.86	64.645	1.137284	0.273768	0.20496	-0.3	0.108	0.267	0	170	158	3
2026-02-12	16:11:47.170	8.05	-1.75	58.065	1.171688	0.279868	0.194224	-0.294	0.1155	0.267	0	170	158	3
2026-02-12	16:11:47.190	20.265	3.185	52.395	1.142164	0.2623	0.22448	-0.291	0.1275	0.2685	0	170	158	3
2026-02-12	16:11:47.210	35	5.495	47.215	1.09068	0.245708	0.249612	-0.2865	0.1365	0.267	0	171	157	3
2026-02-12	16:11:47.230	51.94	7.525	40.075	0.994544	0.285724	0.281088	-0.282	0.1395	0.264	0	171	157	3
2026-02-12	16:11:47.250	58.73	7.07	30.24	0.903776	0.293532	0.271572	-0.288	0.1395	0.2625	0	171	157	3
2026-02-12	16:11:47.270	58.135	5.635	20.79	0.856928	0.312564	0.238388	-0.2865	0.1425	0.261	0	171	157	3
2026-02-12	16:11:47.290	50.365	4.41	15.645	0.847168	0.325008	0.220088	-0.2835	0.1485	0.258	0	171	157	3
2026-02-12	16:11:47.310	39.095	3.535	13.16	0.852292	0.31842	0.216184	-0.2835	0.1575	0.255	0	171	157	3
2026-02-12	16:11:47.330	28.98	3.36	12.775	0.867908	0.31598	0.22204	-0.2865	0.1545	0.252	0	171	157	3
2026-02-12	16:11:47.350	21.175	3.64	13.65	0.86132	0.312076	0.222284	-0.285	0.1515	0.2505	0	171	157	3
2026-02-12	16:11:47.370	17.255	3.815	15.505	0.854244	0.306464	0.225944	-0.2835	0.156	0.2535	0	171	157	3
2026-02-12	16:11:47.390	15.365	3.675	18.13	0.85888	0.31476	0.225212	-0.2835	0.1545	0.255	0	171	157	3
2026-02-12	16:11:47.410	13.37	2.94	20.23	0.861808	0.316224	0.228872	-0.285	0.153	0.252	0	171	171	3
2026-02-12	16:11:47.430	10.395	1.645	21.735	0.87962	0.31476	0.230824	-0.2805	0.159	0.252	0	171	171	3
2026-02-12	16:11:47.450	7.63	0.525	21.875	0.899384	0.310368	0.24278	-0.2775	0.1575	0.2505	0	171	171	3
2026-02-12	16:11:47.470	5.845	-0.385	20.405	0.905728	0.3172	0.239852	-0.2805	0.156	0.252	0	171	171	3
2026-02-12	16:11:47.490	4.865	-1.12	17.185	0.892552	0.32086	0.233508	-0.282	0.1605	0.2535	0	171	171	3
2026-02-12	16:11:47.510	3.78	-2.275	12.67	0.876936	0.312076	0.22082	-0.2805	0.1605	0.249	0	171	171	3
2026-02-12	16:11:47.530	0.21	-5.915	5.32	0.903288	0.313296	0.216916	-0.279	0.162	0.2475	0	171	171	3
2026-02-12	16:11:47.550	-4.62	-8.505	1.365	0.929396	0.326472	0.22814	-0.279	0.162	0.2475	0	171	171	3
2026-02-12	16:11:47.570	-9.415	-11.235	-1.33	0.978928	0.328424	0.238876	-0.2745	0.1725	0.2595	0	171	171	3
2026-02-12	16:11:47.590	-13.51	-13.895	-1.785	1.05164	0.337696	0.246928	-0.2775	0.1695	0.2505	0	171	171	3
2026-02-12	16:11:47.610	-17.185	-16.24	-0.7	1.151192	0.346236	0.258152	-0.285	0.1605	0.2565	0	168	189	3
2026-02-12	16:11:47.630	-22.085	-17.605	1.575	1.247572	0.364536	0.300364	-0.2835	0.1725	0.2655	0	168	189	3
2026-02-12	16:11:47.650	-23.87	-16.45	1.33	1.27734	0.355752	0.304756	-0.2775	0.168	0.2685	0	168	189	3
2026-02-12	16:11:47.670	-25.725	-14.035	-2.03	1.230736	0.371612	0.295484	-0.2835	0.162	0.273	0	168	189	3
2026-02-12	16:11:47.690	-30.625	-12.88	-7.805	1.18218	0.381128	0.283284	-0.276	0.1725	0.2595	0	168	189	3
2026-02-12	16:11:47.710	-38.325	-10.64	-16.695	1.072868	0.366732	0.255468	-0.279	0.1755	0.2685	0	168	189	3
2026-02-12	16:11:47.730	-48.545	-10.01	-27.825	0.986492	0.357704	0.226432	-0.288	0.1725	0.27	0	168	189	3
2026-02-12	16:11:47.750	-59.605	-9.1	-38.5	0.914756	0.332572	0.201788	-0.2775	0.1695	0.2775	0	168	189	3
2026-02-12	16:11:47.770	-68.25	-8.225	-50.225	0.869616	0.323544	0.191784	-0.291	0.1635	0.279	0	168	189	3
2026-02-12	16:11:47.790	-73.675	-7.455	-62.895	0.894504	0.29402	0.202276	-0.2865	0.1605	0.279	0	168	189	3
2026-02-12	16:11:47.810	-72.065	-4.865	-73.955	0.96624	0.290604	0.205204	-0.2835	0.1575	0.2805	0	165	205	3
2026-02-12	16:11:47.830	-71.54	-2.17	-82.215	1.052372	0.307928	0.213256	-0.291	0.1425	0.2895	0	165	205	3
2026-02-12	16:11:47.850	-72.275	2.205	-88.445	1.108248	0.292556	0.20618	-0.2925	0.1305	0.2865	0	165	205	3
2026-02-12	16:11:47.870	-66.955	7.28	-91.175	1.177788	0.307684	0.1891	-0.3015	0.123	0.297	0	165	205	3
2026-02-12	16:11:47.890	-62.51	12.425	-93.695	1.20658	0.288896	0.1525	-0.3	0.117	0.2955	0	165	205	3
2026-02-12	16:11:47.910	-54.88	17.605	-95.83	1.188768	0.239608	0.137616	-0.3045	0.093	0.2985	0	165	205	3
2026-02-12	16:11:47.930	-38.99	21.14	-97.195	1.15412	0.22936	0.121756	-0.306	0.087	0.2925	0	165	205	3
2026-02-12	16:11:47.950	-21.14	22.68	-98.875	1.092144	0.212768	0.108824	-0.3015	0.072	0.2865	0	165	205	3
2026-02-12	16:11:47.970	-2.415	22.925	-99.4	1.02846	0.20862	0.10248	-0.306	0.051	0.291	0	165	205	3
2026-02-12	16:11:47.990	10.36	20.895	-97.055	0.967948	0.244488	0.103212	-0.312	0.048	0.282	0	165	205	3
2026-02-12	16:11:48.010	13.72	17.675	-94.01	0.91012	0.260104	0.096624	-0.309	0.033	0.285	0	161	210	3
2026-02-12	16:11:48.030	12.425	14.21	-90.58	0.86864	0.2745	0.088084	-0.3075	0.0135	0.273	0	161	210	3
2026-02-12	16:11:48.050	4.375	11.27	-85.575	0.808616	0.2684	0.072224	-0.306	-0.0015	0.279	0	161	210	3
2026-02-12	16:11:48.070	-9.205	6.895	-73.99	0.775432	0.25498	0.065148	-0.2985	-0.0165	0.273	0	161	210	3
2026-02-12	16:11:48.090	-16.065	4.445	-64.365	0.746396	0.244	0.058316	-0.3	-0.0225	0.273	0	161	210	3
2026-02-12	16:11:48.110	-20.475	1.365	-52.85	0.731756	0.23058	0.062464	-0.3045	-0.0315	0.2715	0	161	210	3
2026-02-12	16:11:48.130	-22.47	-1.26	-40.075	0.720776	0.219356	0.07124799	-0.3045	-0.0405	0.2715	0	161	210	3
2026-02-12	16:11:48.150	-22.435	-3.465	-26.25	0.715408	0.213744	0.073932	-0.2985	-0.0495	0.27	0	161	210	3
2026-02-12	16:11:48.170	-19.74	-5.145	-12.39	0.70394	0.20984	0.076372	-0.294	-0.051	0.2685	0	161	210	3
2026-02-12	16:11:48.190	-15.015	-6.895	1.925	0.72346	0.202764	0.080764	-0.3	-0.0525	0.2715	0	161	210	3
2026-02-12	16:11:48.210	-9.555	-8.435	16.59	0.751276	0.22448	0.09516	-0.303	-0.0525	0.27	0	158	195	3
2026-02-12	16:11:48.230	-6.825	-9.94	31.29	0.798612	0.23668	0.12078	-0.3015	-0.0465	0.2655	0	158	195	3
2026-02-12	16:11:48.250	-5.005	-10.22	44.87	0.86132	0.247172	0.138104	-0.3015	-0.042	0.2685	0	158	195	3
2026-02-12	16:11:48.270	-3.535	-9.45	58.8	0.914756	0.25742	0.147132	-0.303	-0.0375	0.276	0	158	195	3
2026-02-12	16:11:48.290	-1.365	-8.715	72.03	0.9943	0.25498	0.151768	-0.3045	-0.033	0.2805	0	158	195	3
2026-02-12	16:11:48.310	2.345	-8.05	84.455	1.071648	0.262544	0.152012	-0.3045	-0.033	0.2835	0	158	195	3
2026-02-12	16:11:48.330	9.66	-8.085	101.08	1.20414	0.249856	0.17202	-0.3	-0.018	0.279	0	158	195	3
2026-02-12	16:11:48.350	18.795	-8.75	118.825	1.40056	0.293532	0.207888	-0.3	-0.0015	0.2805	0	158	195	3
2026-02-12	16:11:48.370	26.705	-6.895	134.155	1.521828	0.302316	0.22814	-0.3	0.0255	0.2865	0	158	195	3
2026-02-12	16:11:48.390	38.255	-2.905	142.38	1.464732	0.319152	0.204716	-0.3045	0.0465	0.2865	0	158	195	3
2026-02-12	16:11:48.410	54.005	0.455	142.24	1.28954	0.354776	0.223504	-0.303	0.0615	0.2835	0	159	177	3
2026-02-12	16:11:48.430	66.5	2.8	133.07	1.015284	0.342332	0.252296	-0.3	0.0765	0.2865	0	159	177	3
2026-02-12	16:11:48.450	73.43	1.155	116.97	0.8296	0.322568	0.28792	-0.3015	0.0945	0.2895	0	159	177	3
2026-02-12	16:11:48.470	70.035	-2.94	96.845	0.758108	0.329888	0.306708	-0.3015	0.111	0.288	0	159	177	3
2026-02-12	16:11:48.490	52.57	-6.58	76.685	0.807884	0.311588	0.31598	-0.294	0.1275	0.2835	0	159	177	3
2026-02-12	16:11:48.510	32.55	-5.81	61.95	0.84424	0.386252	0.28914	-0.288	0.141	0.282	0	159	177	3
2026-02-12	16:11:48.530	6.23	-7.035	44.94	0.969412	0.344284	0.229604	-0.288	0.15	0.285	0	159	177	3
2026-02-12	16:11:48.550	-2.695	-2.415	36.155	1.045784	0.278404	0.179584	-0.2805	0.153	0.2895	0	159	177	3
2026-02-12	16:11:48.570	9.03	5.53	28.105	1.094584	0.244244	0.164944	-0.2805	0.159	0.2895	0	159	177	3
2026-02-12	16:11:48.590	31.185	13.615	21.84	1.070428	0.220576	0.174948	-0.285	0.1635	0.288	0	159	177	3
2026-02-12	16:11:48.610	67.27	16.24	14.175	0.997716	0.219844	0.188124	-0.285	0.1635	0.2895	0	162	175	3
2026-02-12	16:11:48.630	85.715	15.435	8.785	0.93818	0.253516	0.217404	-0.285	0.1635	0.2895	0	162	175	3
2026-02-12	16:11:48.650	95.235	13.58	3.745	0.892308	0.282552	0.223016	-0.2835	0.1665	0.2775	0	162	175	3
2026-02-12	16:11:48.670	95.725	11.2	0.455	0.8662	0.316468	0.217892	-0.2775	0.1695	0.276	0	162	175	3
2026-02-12	16:11:48.690	86.52	7.91	-1.575	0.857904	0.362584	0.209596	-0.282	0.165	0.261	0	162	175	3
2026-02-12	16:11:48.710	68.775	4.76	-1.785	0.86254	0.373564	0.205936	-0.282	0.1695	0.258	0	162	175	3
2026-02-12	16:11:48.730	48.685	2.52	-0.525	0.854732	0.371368	0.203496	-0.2775	0.168	0.255	0	162	175	3
2026-02-12	16:11:48.750	29.47	0.14	1.575	0.85156	0.341112	0.210084	-0.273	0.1575	0.252	0	162	175	3
2026-02-12	16:11:48.770	15.295	-1.505	3.325	0.857416	0.319884	0.223992	-0.2805	0.1575	0.255	0	162	175	3
2026-02-12	16:11:48.790	5.74	-2.8	4.095	0.867908	0.294752	0.23302	-0.279	0.156	0.249	0	162	175	3
2026-02-12	16:11:48.810	2.345	-3.465	3.43	0.87962	0.278404	0.238876	-0.282	0.165	0.243	0	165	183	3
2026-02-12	16:11:48.830	3.57	-3.85	1.785	0.890356	0.264008	0.24522	-0.2775	0.1605	0.255	0	165	183	3
2026-02-12	16:11:48.850	7.07	-4.41	-0.42	0.903532	0.25742	0.246684	-0.279	0.1605	0.252	0	165	183	3
2026-02-12	16:11:48.870	9.73	-5.355	-3.745	0.902312	0.266448	0.258884	-0.2775	0.159	0.249	0	165	183	3
2026-02-12	16:11:48.890	9.1	-6.335	-7.28	0.887672	0.283284	0.264008	-0.2745	0.159	0.249	0	165	183	3
2026-02-12	16:11:48.910	5.845	-7.245	-9.555	0.863516	0.293288	0.253516	-0.2715	0.1605	0.255	0	165	183	3
2026-02-12	16:11:48.930	-0.595	-9.17	-10.57	0.860832	0.300364	0.254492	-0.2835	0.1575	0.258	0	165	183	3
2026-02-12	16:11:48.950	-11.095	-11.935	-9.695	0.895724	0.31476	0.269376	-0.2745	0.1635	0.2565	0	165	183	3
2026-02-12	16:11:48.970	-23.415	-14.035	-6.79	0.95648	0.318908	0.291092	-0.2685	0.1605	0.261	0	165	183	3
2026-02-12	16:11:48.990	-33.215	-14.665	-3.325	1.024312	0.319884	0.299632	-0.276	0.156	0.2565	0	165	183	3
2026-02-12	16:11:49.010	-38.29	-13.825	0.175	1.091656	0.305976	0.291336	-0.2715	0.159	0.27	0	166	197	2
2026-02-12	16:11:49.030	-39.34	-12.775	2.135	1.179984	0.300608	0.28182	-0.2715	0.153	0.2625	0	166	197	2
2026-02-12	16:11:49.050	-37.45	-10.465	2.17	1.215608	0.2928	0.265716	-0.273	0.1545	0.2685	0	166	197	2
2026-02-12	16:11:49.070	-34.23	-8.68	-1.365	1.222684	0.293288	0.266936	-0.2655	0.1545	0.267	0	166	197	2
2026-02-12	16:11:49.090	-34.37	-7.42	-4.76	1.180472	0.306952	0.25864	-0.2715	0.1575	0.2715	0	166	197	2
2026-02-12	16:11:49.110	-38.15	-7.525	-8.75	1.154852	0.329888	0.262544	-0.2715	0.1665	0.282	0	166	197	2
2026-02-12	16:11:49.130	-46.865	-6.93	-12.775	1.104588	0.357704	0.262056	-0.282	0.162	0.285	0	166	197	2
2026-02-12	16:11:49.150	-61.25	-3.29	-20.615	1.014308	0.310124	0.243024	-0.282	0.162	0.285	0	166	197	2
2026-02-12	16:11:49.170	-59.71	0.91	-27.965	0.928176	0.272304	0.208376	-0.279	0.159	0.2865	0	166	197	2
2026-02-12	16:11:49.190	-50.995	3.815	-37.135	0.893284	0.244732	0.188856	-0.276	0.153	0.2895	0	166	197	2
2026-02-12	16:11:49.210	-38.745	5.985	-46.935	0.909876	0.251808	0.199836	-0.273	0.1485	0.288	0	164	213	3
2026-02-12	16:11:49.230	-29.05	7.805	-57.19	0.96136	0.264496	0.213988	-0.276	0.1425	0.2895	0	164	213	3
2026-02-12	16:11:49.250	-24.92	9.52	-65.905	1.03944	0.30744	0.218136	-0.2745	0.138	0.2925	0	164	213	3
2026-02-12	16:11:49.270	-22.925	12.25	-74.97	1.093852	0.340136	0.203252	-0.276	0.1305	0.2895	0	164	213	3
2026-02-12	16:11:49.290	-22.295	14.595	-80.185	1.109712	0.352824	0.180804	-0.2775	0.12	0.285	0	164	213	3
2026-02-12	16:11:49.310	-21	16.52	-84.07	1.114104	0.330376	0.1342	-0.2775	0.1095	0.285	0	164	213	3
2026-02-12	16:11:49.330	-20.615	17.92	-87.045	1.125328	0.325984	0.110532	-0.285	0.096	0.282	0	164	213	3
2026-02-12	16:11:49.350	-19.775	17.255	-88.865	1.101416	0.28792	0.104188	-0.2835	0.087	0.2745	0	164	213	3
2026-02-12	16:11:49.370	-16.17	15.995	-88.62	1.057008	0.308172	0.105164	-0.2835	0.0765	0.2715	0	164	213	3
2026-02-12	16:11:49.390	-13.58	14.14	-87.395	1.000156	0.284992	0.104188	-0.2865	0.0705	0.2715	0	164	213	3
2026-02-12	16:11:49.410	-7.595	11.865	-85.015	0.936716	0.301828	0.103944	-0.285	0.0675	0.2805	0	161	217	3
2026-02-12	16:11:49.430	-6.685	8.785	-82.775	0.869128	0.291336	0.0915	-0.282	0.0525	0.2715	0	161	217	3
2026-02-12	16:11:49.450	-9.275	6.86	-80.29	0.825208	0.272304	0.076372	-0.282	0.03	0.261	0	161	217	3
2026-02-12	16:11:49.470	-14.49	4.34	-76.755	0.785436	0.252296	0.060512	-0.285	0.0195	0.264	0	161	217	3
2026-02-12	16:11:49.490	-17.745	2.275	-70.525	0.768844	0.238632	0.07198	-0.285	0.0135	0.2685	0	161	217	3
2026-02-12	16:11:49.510	-19.845	0.315	-62.825	0.759328	0.231556	0.073444	-0.2835	0.0075	0.2655	0	161	217	3
2026-02-12	16:11:49.530	-19.74	-1.05	-54.495	0.753472	0.21594	0.07686	-0.276	-0.003	0.2655	0	161	217	3
2026-02-12	16:11:49.550	-16.835	-2.205	-43.12	0.75518	0.221308	0.089304	-0.2775	-0.015	0.264	0	161	217	3
2026-02-12	16:11:49.570	-14.56	-3.255	-30.555	0.752252	0.21716	0.101016	-0.279	-0.0225	0.2625	0	161	217	3
2026-02-12	16:11:49.590	-11.27	-3.815	-16.835	0.753716	0.20984	0.104432	-0.2745	-0.027	0.2595	0	161	217	3
2026-02-12	16:11:49.610	-5.25	-3.92	-2.52	0.75518	0.20496	0.1159	-0.276	-0.0255	0.258	0	158	203	3
2026-02-12	16:11:49.630	1.365	-4.305	12.215	0.77958	0.220576	0.129076	-0.276	-0.024	0.267	0	158	203	3
2026-02-12	16:11:49.650	6.335	-4.655	27.16	0.815204	0.229848	0.151524	-0.273	-0.0225	0.2655	0	158	203	3
2026-02-12	16:11:49.670	9.135	-4.55	41.405	0.866932	0.237656	0.172996	-0.2775	-0.018	0.261	0	158	203	3
2026-02-12	16:11:49.690	12.425	-3.22	59.36	0.938912	0.236192	0.182024	-0.2835	-0.018	0.264	0	158	203	3
2026-02-12	16:11:49.710	15.89	-2.24	70.665	1.01016	0.231312	0.185196	-0.282	-0.0045	0.2655	0	158	203	3
2026-02-12	16:11:49.730	19.495	-1.61	82.285	1.087996	0.238388	0.193004	-0.276	0.0075	0.2565	0	158	203	3
2026-02-12	16:11:49.750	24.675	-0.525	94.815	1.188036	0.247904	0.2135	-0.279	0.0135	0.264	0	158	203	3
2026-02-12	16:11:49.770	30.275	0.14	108.15	1.292956	0.253028	0.23302	-0.2895	0.027	0.2685	0	158	203	3
2026-02-12	16:11:49.790	38.185	2.17	120.75	1.385188	0.280844	0.239852	-0.288	0.036	0.27	0	158	203	3
2026-02-12	16:11:49.810	48.475	5.6	130.585	1.401292	0.281332	0.251076	-0.279	0.0585	0.2715	0	157	186	3
2026-02-12	16:11:49.830	62.44	9.065	133.735	1.293932	0.320372	0.239608	-0.2775	0.069	0.2745	0	157	186	3
2026-02-12	16:11:49.850	74.2	11.06	130.445	1.13216	0.324276	0.243024	-0.2805	0.0945	0.264	0	157	186	3
2026-02-12	16:11:49.870	81.76	13.09	119.98	0.910364	0.338428	0.2623	-0.2775	0.105	0.2655	0	157	186	3
2026-02-12	16:11:49.890	79.73	10.395	106.785	0.787632	0.320616	0.27572	-0.2685	0.1245	0.258	0	157	186	3
2026-02-12	16:11:49.910	70.525	7.175	89.565	0.75762	0.369904	0.274744	-0.279	0.1335	0.2565	0	157	186	3
2026-02-12	16:11:49.930	44.485	4.585	75.18	0.83814	0.350628	0.250344	-0.27	0.135	0.2535	0	157	186	3
2026-02-12	16:11:49.950	14.455	4.515	59.745	0.9699	0.38796	0.220332	-0.261	0.138	0.252	0	157	186	3
2026-02-12	16:11:49.970	0.175	7.385	44.835	1.100196	0.284016	0.175192	-0.261	0.138	0.252	0	157	186	3
2026-02-12	16:11:49.990	10.92	13.72	37.03	1.15778	0.263032	0.17202	-0.2475	0.1575	0.2505	0	157	186	3
2026-02-12	16:11:50.010	32.83	19.39	28.91	1.099464	0.218624	0.182024	-0.255	0.1725	0.2535	0	158	183	3
2026-02-12	16:11:50.030	59.815	20.265	20.195	1.05774	0.232044	0.19764	-0.2505	0.183	0.246	0	158	183	3
2026-02-12	16:11:50.050	80.85	20.02	10.43	0.989908	0.243024	0.208376	-0.2445	0.1755	0.243	0	158	183	3
2026-02-12	16:11:50.070	93.835	17.815	0.805	0.93452	0.259128	0.202764	-0.2535	0.1725	0.231	0	158	183	3
2026-02-12	16:11:50.090	99.26	15.47	-7.385	0.877912	0.307684	0.183244	-0.2415	0.18	0.2355	0	158	183	3
2026-02-12	16:11:50.110	93.87	11.935	-14.315	0.8601	0.335256	0.174704	-0.252	0.165	0.2265	0	158	183	3
2026-02-12	16:11:50.130	80.745	9.03	-18.62	0.838628	0.33794	0.161772	-0.252	0.162	0.2205	0	158	183	3
2026-02-12	16:11:50.150	64.89	6.475	-20.055	0.82716	0.340624	0.160064	-0.2445	0.159	0.2145	0	158	183	3
2026-02-12	16:11:50.170	49.21	4.13	-18.76	0.832284	0.329156	0.166164	-0.2505	0.1575	0.2175	0	158	183	3
2026-02-12	16:11:50.190	37.31	2.275	-15.68	0.820572	0.3111	0.178852	-0.2595	0.147	0.207	0	158	183	3
2026-02-12	16:11:50.210	29.26	0.175	-11.375	0.826184	0.304268	0.189588	-0.252	0.138	0.2055	0	160	188	3
2026-02-12	16:11:50.230	21.84	-2.8	-4.13	0.859856	0.289872	0.223504	-0.252	0.138	0.2055	0	160	188	3
