BLE Address: 2D2CD1AEC8C600
time	ax	ay	az	gx	gy	gz	mx	my	mz

06/12/2025 11:48:57.257	0.9455	0.34282	0.13176	-2.205	-2.03	1.96	-20.238	-38.3025	-4.308
06/12/2025 11:48:57.277	0.945012	0.337452	0.13054	-2.03	-1.89	2.065	-19.8525	-38.226	-4.392
06/12/2025 11:48:57.297	0.935008	0.35014	0.134688	-1.61	-1.4	1.89	-19.9215	-38.9535	-3.897
06/12/2025 11:48:57.317	0.938424	0.3538	0.133224	-1.645	-1.33	1.54	-20.2305	-38.6925	-4.5345
06/12/2025 11:48:57.337	0.944768	0.350628	0.126636	-1.925	-1.295	1.19	-20.076	-38.865	-4.1355
06/12/2025 11:48:57.357	0.942328	0.351116	0.126636	-2.485	-1.435	0.805	-20.382	-39.108	-3.81
06/12/2025 11:48:57.377	0.937692	0.349164	0.125904	-3.08	-1.54	0.455	-20.307	-38.8635	-4.0545
06/12/2025 11:48:57.397	0.942328	0.345504	0.122	-3.5	-1.575	0.14	-20.226	-39.015	-4.3665
06/12/2025 11:48:57.417	0.945012	0.343552	0.11956	-3.255	-1.435	-0.21	-20.1435	-39.5025	-4.038
06/12/2025 11:48:57.437	0.9455	0.348188	0.11834	-3.01	-1.085	-0.245	-20.6865	-39.255	-4.041
06/12/2025 11:48:57.457	0.951112	0.335256	0.121024	-3.255	-0.7	-0.175	-20.4525	-39.4095	-4.3545
06/12/2025 11:48:57.477	0.94794	0.329156	0.116876	-3.08	-0.77	-0.175	-20.913	-39.4815	-4.35
06/12/2025 11:48:57.497	0.95038	0.329888	0.121512	-2.1	-0.805	-0.21	-20.295	-39.654	-4.1895
06/12/2025 11:48:57.517	0.949648	0.33062	0.124928	-2.345	-0.945	0.105	-20.295	-39.654	-4.1895
06/12/2025 11:48:57.537	0.94794	0.327692	0.125904	-2.905	-1.295	0.28	-21.0615	-39.876	-4.338
06/12/2025 11:48:57.557	0.945256	0.320616	0.124928	-2.835	-1.26	0.14	-20.685	-39.333	-4.119
06/12/2025 11:48:57.577	0.94428	0.3233	0.116876	-2.275	-0.735	-0.245	-21.0645	-39.7215	-4.1835
06/12/2025 11:48:57.597	0.946964	0.323788	0.115412	-1.75	-0.105	-0.455	-20.985	-39.9645	-4.098
06/12/2025 11:48:57.617	0.95892	0.323788	0.113948	-1.05	0.42	-0.56	-21.06	-40.035	-4.3335
06/12/2025 11:48:57.637	0.96258	0.325008	0.11102	0.035	1.155	-0.595	-20.52	-40.0455	-4.257
06/12/2025 11:48:57.657	0.96136	0.323056	0.110044	0.945	1.54	-0.595	-21.1335	-40.2795	-4.089
06/12/2025 11:48:57.677	0.95404	0.321836	0.109556	2.135	1.82	-0.875	-21.138	-40.0425	-4.017
06/12/2025 11:48:57.697	0.956724	0.316956	0.105164	3.885	2.03	-1.365	-21.75	-40.4355	-3.843
06/12/2025 11:48:57.717	0.952332	0.321836	0.102724	4.935	1.96	-1.645	-21.3615	-40.509	-4.239
06/12/2025 11:48:57.737	0.95282	0.325252	0.106384	5.355	1.925	-1.26	-21.291	-40.0365	-4.173
06/12/2025 11:48:57.757	0.951356	0.324032	0.108824	5.425	1.75	-0.455	-21.444	-40.0275	-4.41
06/12/2025 11:48:57.777	0.947208	0.318176	0.113948	5.845	1.4	0.385	-21.0585	-40.0335	-4.4115
06/12/2025 11:48:57.797	0.938912	0.333548	0.117852	6.51	1.33	0.7	-21.6045	-39.711	-4.26
06/12/2025 11:48:57.817	0.942328	0.334768	0.117852	6.44	1.12	1.085	-21.6045	-39.711	-4.26
06/12/2025 11:48:57.837	0.946232	0.33916	0.1159	6.16	1.12	1.225	-21.6045	-39.711	-4.26
06/12/2025 11:48:57.857	0.947208	0.336964	0.121756	5.425	0.84	1.435	-21.906	-40.1025	-4.326
06/12/2025 11:48:57.877	0.957456	0.33916	0.122	4.655	0.49	1.75	-21.984	-40.0125	-4.644
06/12/2025 11:48:57.897	0.964044	0.340136	0.120536	4.725	0.91	1.855	-21.6735	-40.098	-4.5645
06/12/2025 11:48:57.917	0.958676	0.338672	0.1159	5.705	1.785	1.575	-21.915	-39.459	-4.5825
06/12/2025 11:48:57.937	0.957944	0.336232	0.117852	6.79	2.485	0.875	-22.2195	-39.78	-4.3335
06/12/2025 11:48:57.957	0.953552	0.3355	0.125416	7.35	3.29	0.245	-21.8325	-39.951	-4.0935
06/12/2025 11:48:57.977	0.941352	0.332328	0.115656	7.665	3.955	-0.07	-21.7545	-39.948	-4.2525
06/12/2025 11:48:57.997	0.951356	0.32452	0.110532	8.33	4.235	-0.105	-21.8415	-39.3135	-4.191
06/12/2025 11:48:58.017	0.945256	0.321836	0.105408	9.555	4.865	0.175	-22.218	-39.7725	-4.572
06/12/2025 11:48:58.037	0.954772	0.33184	0.105408	10.185	4.76	0.98	-21.984	-40.0185	-4.407
06/12/2025 11:48:58.057	0.951112	0.327936	0.108092	10.395	4.515	1.995	-22.3755	-39.7845	-4.0965
06/12/2025 11:48:58.077	0.955992	0.339404	0.10736	10.29	3.78	2.52	-22.2195	-39.609	-4.734
06/12/2025 11:48:58.097	0.957456	0.341112	0.11468	9.87	3.325	2.625	-22.4535	-39.5325	-4.4985
06/12/2025 11:48:58.117	0.95038	0.334524	0.121756	9.135	3.01	2.415	-22.149	-39.297	-4.5855
06/12/2025 11:48:58.137	0.942572	0.329156	0.124928	8.82	2.38	2.065	-22.4535	-39.6165	-4.338
06/12/2025 11:48:58.157	0.929396	0.328912	0.130296	8.995	2.205	2.275	-22.4535	-39.6165	-4.338
06/12/2025 11:48:58.177	0.9272	0.335988	0.127612	8.61	1.61	2.975	-22.536	-39.387	-4.0275
06/12/2025 11:48:58.197	0.926712	0.345504	0.130052	7.245	0.84	3.885	-22.767	-39.297	-4.266
06/12/2025 11:48:58.217	0.926468	0.357704	0.125172	5.005	-0.245	4.725	-22.074	-39.144	-4.4325
06/12/2025 11:48:58.237	0.93574	0.365024	0.12932	2.59	-1.4	5.46	-22.3875	-38.991	-4.0395
06/12/2025 11:48:58.257	0.946476	0.36478	0.137372	0.21	-2.45	5.705	-22.38	-39.378	-4.4235
06/12/2025 11:48:58.277	0.941596	0.365024	0.142008	-1.61	-3.255	5.39	-22.6125	-39.3855	-4.0275
06/12/2025 11:48:58.297	0.939644	0.369416	0.14884	-2.975	-3.815	4.585	-22.4595	-39.222	-4.2705
06/12/2025 11:48:58.317	0.93208	0.376492	0.150548	-4.27	-3.78	3.5	-22.464	-38.907	-4.2
06/12/2025 11:48:58.337	0.926224	0.36722	0.145424	-5.81	-3.36	2.24	-22.3905	-38.664	-4.365
06/12/2025 11:48:58.357	0.925004	0.372344	0.145424	-6.545	-3.115	0.98	-22.8495	-38.8965	-4.356
06/12/2025 11:48:58.377	0.934764	0.368196	0.148108	-7.21	-2.485	-0.105	-22.5375	-39.1365	-4.4295
06/12/2025 11:48:58.397	0.9394	0.366488	0.144204	-7.84	-1.855	-0.945	-22.461	-39.0585	-4.4325
06/12/2025 11:48:58.417	0.94672	0.366488	0.1403	-9.52	-1.89	-1.365	-22.5255	-39.936	-4.2495
06/12/2025 11:48:58.437	0.944768	0.353556	0.137616	-11.165	-1.89	-2.1	-22.377	-39.537	-4.419
06/12/2025 11:48:58.457	0.937448	0.348432	0.134932	-12.04	-1.715	-3.85	-23.1495	-39.4455	-4.4175
06/12/2025 11:48:58.477	0.942328	0.34282	0.133468	-12.18	-1.715	-5.145	-22.842	-39.4545	-4.2615
06/12/2025 11:48:58.497	0.94306	0.336232	0.129808	-12.355	-0.98	-6.405	-22.299	-39.5355	-4.4985
06/12/2025 11:48:58.517	0.94672	0.333548	0.122976	-12.285	-0.56	-7.7	-22.299	-39.5355	-4.4985
06/12/2025 11:48:58.537	0.948916	0.321592	0.116388	-10.535	-0.105	-9.31	-22.917	-39.5325	-4.2585
06/12/2025 11:48:58.557	0.942572	0.318176	0.1098	-7.525	0.49	-10.99	-22.53	-39.786	-3.9375
06/12/2025 11:48:58.577	0.939888	0.322324	0.103456	-4.34	0.455	-12.285	-22.9875	-40.092	-4.0845
06/12/2025 11:48:58.597	0.939888	0.321592	0.097844	-3.465	-0.56	-12.635	-22.8285	-40.158	-4.6365
06/12/2025 11:48:58.617	0.93574	0.309148	0.087352	-4.515	-2.415	-12.145	-23.22	-40.0065	-4.164
06/12/2025 11:48:58.637	0.940376	0.305976	0.07808	-5.915	-4.935	-10.885	-22.296	-39.774	-4.4925
06/12/2025 11:48:58.657	0.959652	0.309148	0.078324	-6.86	-7.77	-8.33	-22.443	-40.335	-4.2375
06/12/2025 11:48:58.677	0.974536	0.306464	0.083936	-8.82	-10.465	-3.99	-22.9095	-40.173	-4.0815
06/12/2025 11:48:58.697	0.983564	0.299388	0.087108	-11.025	-13.23	0.735	-22.596	-40.3245	-4.4745
06/12/2025 11:48:58.717	0.980148	0.286212	0.085644	-12.6	-15.47	5.11	-22.3725	-39.942	-4.092
06/12/2025 11:48:58.737	0.98454	0.285968	0.091744	-12.285	-17.71	8.785	-22.752	-40.3335	-4.0785
06/12/2025 11:48:58.757	0.985516	0.298656	0.099064	-10.675	-18.62	12.11	-22.4505	-39.948	-3.8535
06/12/2025 11:48:58.777	0.976	0.301584	0.10248	-10.675	-19.53	16.45	-22.2105	-40.5015	-4.077
06/12/2025 11:48:58.797	0.98332	0.301096	0.099064	-11.69	-19.565	18.865	-22.686	-39.7065	-3.8595
06/12/2025 11:48:58.817	0.987712	0.293044	0.082228	-12.005	-19.565	20.79	-22.2255	-39.5505	-4.0245
06/12/2025 11:48:58.837	0.984296	0.289628	0.078324	-10.29	-18.445	21.805	-22.146	-39.888	-3.3825
06/12/2025 11:48:58.857	0.983564	0.294508	0.071004	-8.505	-17.745	22.015	-22.23	-39.237	-3.876
06/12/2025 11:48:58.877	0.987712	0.292556	0.068076	-7.49	-17.08	22.12	-22.23	-39.237	-3.876
06/12/2025 11:48:58.897	0.986492	0.296948	0.065636	-7.35	-16.24	22.19	-22.0785	-39.255	-3.3225
06/12/2025 11:48:58.917	0.986248	0.282796	0.053436	-7.595	-15.05	21.945	-22.23	-39.666	-2.757
06/12/2025 11:48:58.937	0.98698	0.269132	0.04514	-7	-13.3	20.93	-22.155	-39.252	-3.402
06/12/2025 11:48:58.957	1.000156	0.260104	0.037576	-4.725	-11.97	18.795	-22.0035	-39.1815	-3.168
06/12/2025 11:48:58.977	1.000644	0.256932	0.027328	-0.315	-9.765	15.995	-21.7095	-38.403	-2.796
06/12/2025 11:48:58.997	1.02724	0.263032	0.016104	4.305	-8.295	13.02	-21.786	-38.3205	-2.877
06/12/2025 11:48:59.017	1.036268	0.264008	0.001708	6.58	-6.51	10.22	-22.245	-38.6325	-2.787
06/12/2025 11:48:59.037	1.03944	0.277184	0.00732	4.27	-6.405	7.49	-21.8685	-38.085	-2.7255
06/12/2025 11:48:59.057	1.00528	0.277184	0.00244	-4.375	-6.3	5.705	-21.7875	-38.3295	-2.5605
06/12/2025 11:48:59.077	0.977708	0.245952	0.002928	-12.145	-8.435	4.48	-22.1805	-38.0145	-2.2515
06/12/2025 11:48:59.097	0.972828	0.19642	0.00976	-12.985	-10.64	6.055	-21.7125	-38.166	-2.724
06/12/2025 11:48:59.117	0.955992	0.159332	0.020496	-4.9	-11.515	9.625	-21.402	-38.4165	-2.481
06/12/2025 11:48:59.137	0.952332	0.149572	0.028792	7.91	-12.11	14.105	-21.399	-38.568	-2.7135
06/12/2025 11:48:59.157	0.93818	0.182024	0.030988	19.985	-11.9	19.075	-21.255	-38.0265	-2.3355
06/12/2025 11:48:59.177	0.932324	0.209596	0.032452	24.395	-12.145	23.87	-21.567	-37.704	-2.343
06/12/2025 11:48:59.197	0.937692	0.227652	0.035624	22.085	-13.195	27.335	-21.7245	-37.5495	-2.109
06/12/2025 11:48:59.217	0.956236	0.208864	-0.014884	17.815	-14.525	30.17	-21.4935	-37.551	-2.19
06/12/2025 11:48:59.237	1.003084	0.232044	-0.010492	11.41	-17.325	32.165	-21.4935	-37.551	-2.19
06/12/2025 11:48:59.257	1.024068	0.220088	-0.028792	4.585	-17.92	31.57	-21.6615	-36.942	-1.179
06/12/2025 11:48:59.277	1.01138	0.185928	-0.02806	0.035	-18.55	29.435	-21.276	-36.7725	-1.74
06/12/2025 11:48:59.297	1.016016	0.167384	-0.027084	0.77	-18.235	26.46	-21.27	-37.086	-1.8885
06/12/2025 11:48:59.317	1.006744	0.149084	-0.037088	4.62	-18.095	23.065	-20.9685	-36.783	-1.5825
06/12/2025 11:48:59.337	1.025532	0.157136	-0.046604	8.015	-18.095	20.58	-21.21	-36.234	-1.2015
06/12/2025 11:48:59.357	1.040416	0.157136	-0.062708	9.31	-17.605	19.04	-21.12	-37.11	-1.1775
06/12/2025 11:48:59.377	1.017968	0.130784	-0.07686	8.995	-17.045	19.075	-21.516	-36.4695	-1.1145
06/12/2025 11:48:59.397	1.032608	0.124928	-0.082228	7	-19.355	20.44	-21.372	-35.9295	-0.657
06/12/2025 11:48:59.417	1.017968	0.104432	-0.0915	2.94	-21.98	22.61	-20.9055	-36.18	-0.495
06/12/2025 11:48:59.437	1.01748	0.093452	-0.089548	1.12	-25.06	23.38	-20.838	-35.5425	-0.5925
06/12/2025 11:48:59.457	1.022604	0.065148	-0.09857599	0.35	-27.16	25.095	-20.6145	-35.163	-0.1305
06/12/2025 11:48:59.477	1.032608	0.055632	-0.11346	1.785	-28.98	27.545	-20.7705	-35.0835	-0.0525
06/12/2025 11:48:59.497	1.040416	0.062464	-0.117364	3.465	-29.82	30.03	-20.31	-35.1045	0.4185
06/12/2025 11:48:59.517	1.043344	0.052704	-0.115412	4.095	-30.31	32.375	-20.244	-34.392	0.477
06/12/2025 11:48:59.537	1.04188	0.033672	-0.127856	4.725	-30.555	34.51	-20.2395	-34.626	0.3255
06/12/2025 11:48:59.557	1.02968	0.015616	-0.154208	4.76	-30.695	35.63	-20.25	-34.1655	0.8655
06/12/2025 11:48:59.577	1.02968	-0.019764	-0.172752	4.83	-31.36	36.54	-20.25	-34.1655	0.8655
06/12/2025 11:48:59.597	1.06506	-0.031476	-0.201056	5.565	-32.375	38.71	-19.716	-33.777	0.8505
06/12/2025 11:48:59.617	1.090436	-0.03904	-0.2135	5.635	-33.635	40.985	-19.572	-33.15	1.0695
06/12/2025 11:48:59.637	1.090436	-0.059048	-0.236192	3.64	-33.915	43.715	-19.422	-33.0045	1.4595
06/12/2025 11:48:59.657	1.075308	-0.096624	-0.246928	2.66	-34.755	45.92	-19.1175	-32.601	1.05
06/12/2025 11:48:59.677	1.0492	-0.116632	-0.240828	2.835	-35.49	48.09	-19.119	-32.784	1.9245
06/12/2025 11:48:59.697	1.02358	-0.122976	-0.232776	1.925	-37.45	50.295	-18.51	-32.238	1.9065
06/12/2025 11:48:59.717	1.030168	-0.116388	-0.241804	-3.92	-40.845	54.46	-18.9015	-31.9215	2.136
06/12/2025 11:48:59.737	1.00284	-0.140788	-0.237656	-8.785	-43.085	57.4	-18.9015	-31.9215	2.136
06/12/2025 11:48:59.757	0.998448	-0.131272	-0.244488	-11.76	-45.255	60.235	-17.8335	-31.3155	2.5875
06/12/2025 11:48:59.777	1.0004	-0.144448	-0.260348	-12.74	-46.55	61.985	-17.532	-31.014	2.9715
06/12/2025 11:48:59.797	0.992348	-0.157868	-0.273524	-11.305	-47.635	63.315	-16.5315	-31.038	3.2835
06/12/2025 11:48:59.817	0.980392	-0.156892	-0.271328	-8.645	-47.775	63.21	-16.452	-31.1955	3.2085
06/12/2025 11:48:59.837	0.98088	-0.152256	-0.28548	-7.525	-47.635	61.25	-15.9165	-31.056	3.5955
06/12/2025 11:48:59.857	0.974048	-0.174704	-0.305976	-6.86	-47.075	57.995	-15.846	-30.579	3.5025
06/12/2025 11:48:59.877	0.977708	-0.212524	-0.342332	-3.325	-45.22	54.285	-15.318	-29.964	3.957
06/12/2025 11:48:59.897	0.995032	-0.219112	-0.385276	3.36	-42.105	50.05	-14.7735	-30.3795	4.281
06/12/2025 11:48:59.917	0.996008	-0.2623	-0.419192	11.235	-37.66	46.515	-14.472	-29.823	4.1055
06/12/2025 11:48:59.937	0.9577	-0.27938	-0.428708	22.085	-33.04	43.68	-14.472	-29.823	4.1055
06/12/2025 11:48:59.957	0.915976	-0.269132	-0.418216	31.36	-29.96	40.215	-14.322	-29.5935	4.335
06/12/2025 11:48:59.977	0.878644	-0.258396	-0.397232	33.95	-29.015	38.395	-14.4	-29.5905	4.257
06/12/2025 11:48:59.997	0.88694	-0.230336	-0.364536	30.66	-29.33	37.38	-14.1045	-28.8105	4.548
06/12/2025 11:49:00.017	0.857416	-0.234972	-0.364536	24.36	-28.945	36.12	-13.56	-28.968	4.2345
06/12/2025 11:49:00.037	0.82106	-0.27084	-0.357948	18.375	-29.68	34.72	-13.182	-28.581	4.3785
06/12/2025 11:49:00.057	0.821548	-0.276208	-0.356484	17.5	-29.715	32.585	-13.182	-28.581	4.3785
06/12/2025 11:49:00.077	0.826428	-0.278648	-0.35868	16.45	-28.875	30.415	-12.8115	-27.726	4.827
06/12/2025 11:49:00.097	0.823744	-0.297924	-0.35502	16.87	-27.055	27.02	-13.041	-27.714	4.5105
06/12/2025 11:49:00.117	0.811544	-0.315736	-0.360876	19.04	-24.29	23.66	-12.8865	-27.7155	4.5105
06/12/2025 11:49:00.137	0.792268	-0.317688	-0.360388	22.05	-21.14	19.39	-12.357	-27.0915	4.569
06/12/2025 11:49:00.157	0.787632	-0.323056	-0.352092	23.415	-17.815	15.715	-12.1275	-26.937	4.6425
06/12/2025 11:49:00.177	0.785436	-0.343308	-0.360144	23.485	-14.105	12.355	-12.1245	-27.1785	4.728
06/12/2025 11:49:00.197	0.786412	-0.371368	-0.378444	25.34	-9.695	9.73	-11.8245	-26.6295	4.7895
06/12/2025 11:49:00.217	0.782752	-0.3843	-0.393084	30.31	-4.48	7.525	-12.3645	-26.5365	4.632
06/12/2025 11:49:00.237	0.769088	-0.391132	-0.409676	35.385	0.035	4.865	-11.9835	-26.22	4.4625
06/12/2025 11:49:00.257	0.752496	-0.389424	-0.41602	37.135	2.73	3.605	-12.06	-26.301	4.5435
06/12/2025 11:49:00.277	0.763232	-0.373564	-0.40504	33.95	1.89	2.52	-11.8305	-26.0595	4.299
06/12/2025 11:49:00.297	0.784948	-0.374784	-0.377956	24.605	-0.525	1.715	-11.8305	-26.0595	4.299
06/12/2025 11:49:00.317	0.792268	-0.420656	-0.38064	14.805	-2.94	1.995	-12.4575	-25.5885	4.842
06/12/2025 11:49:00.337	0.800076	-0.447496	-0.397964	11.935	-4.585	2.485	-12.2235	-25.575	4.2075
06/12/2025 11:49:00.357	0.784704	-0.474336	-0.423096	17.255	-4.865	3.745	-12.384	-25.263	4.5165
06/12/2025 11:49:00.377	0.790072	-0.47824	-0.415532	20.44	-4.935	4.795	-12.384	-25.263	4.5165
06/12/2025 11:49:00.397	0.803248	-0.500444	-0.421876	21.07	-5.005	5.95	-12.003	-24.6975	3.945
06/12/2025 11:49:00.417	0.810812	-0.515084	-0.426512	20.65	-4.34	6.58	-11.7705	-24.864	4.1055
06/12/2025 11:49:00.437	0.803736	-0.531676	-0.416264	20.72	-3.745	7.455	-11.8455	-24.852	3.711
06/12/2025 11:49:00.457	0.793976	-0.521916	-0.399672	20.79	-3.675	8.47	-12.2325	-24.7665	3.711
06/12/2025 11:49:00.477	0.781532	-0.529724	-0.39162	17.43	-4.235	10.22	-11.7795	-24.138	3.69
06/12/2025 11:49:00.497	0.796416	-0.543632	-0.387228	13.335	-6.335	12.88	-11.928	-24.537	3.861
06/12/2025 11:49:00.517	0.792268	-0.527772	-0.363072	10.325	-6.965	15.19	-11.391	-24.4695	4.014
06/12/2025 11:49:00.537	0.789096	-0.51972	-0.353068	3.78	-8.645	17.465	-11.3175	-24.1515	3.9255
06/12/2025 11:49:00.557	0.784216	-0.54778	-0.364536	-4.445	-9.485	19.67	-11.0865	-23.9865	3.603
06/12/2025 11:49:00.577	0.767868	-0.612684	-0.391132	-8.925	-9.52	22.96	-11.0145	-23.838	3.9135
06/12/2025 11:49:00.597	0.738344	-0.628788	-0.391132	-7.42	-9.415	26.145	-10.6995	-24.153	3.684
06/12/2025 11:49:00.617	0.73444	-0.570716	-0.376736	-4.655	-9.905	29.225	-11.088	-23.991	3.7605
06/12/2025 11:49:00.637	0.745176	-0.5734	-0.382348	-7.07	-11.62	32.375	-10.701	-24.165	4.08
06/12/2025 11:49:00.657	0.745908	-0.587552	-0.396744	-10.605	-11.76	36.4	-10.701	-24.165	4.08
06/12/2025 11:49:00.677	0.754692	-0.621956	-0.422608	-10.08	-10.08	41.195	-10.4775	-23.61	3.984
06/12/2025 11:49:00.697	0.722728	-0.620248	-0.444324	-8.015	-9.1	43.505	-10.4775	-23.61	3.984
06/12/2025 11:49:00.717	0.713456	-0.579744	-0.437004	-8.645	-10.605	44.66	-9.627	-23.8635	4.065
06/12/2025 11:49:00.737	0.7137	-0.592676	-0.443592	-11.375	-12.985	44.38	-9.5535	-23.6265	4.0575
06/12/2025 11:49:00.757	0.720044	-0.576572	-0.44896	-15.12	-15.05	46.095	-9.627	-23.7795	3.9045
06/12/2025 11:49:00.777	0.675392	-0.60268	-0.436272	-13.475	-12.845	44.31	-9.3945	-23.949	4.146
06/12/2025 11:49:00.797	0.560468	-0.411628	-0.36844	-13.3	-10.64	46.025	-8.9295	-24.204	4.467
06/12/2025 11:49:00.817	0.683932	-0.567544	-0.424072	-23.555	-18.97	40.425	-9.012	-23.8005	4.2975
06/12/2025 11:49:00.837	0.70394	-0.62342	-0.46482	-25.165	-22.015	41.895	-8.6235	-24.051	4.539
06/12/2025 11:49:00.857	0.58194	-0.5673	-0.441396	-11.095	-9.52	36.61	-8.472	-23.976	4.6155
06/12/2025 11:49:00.877	0.595116	-0.497516	-0.409188	-8.19	-13.09	31.465	-7.932	-23.9055	4.611
06/12/2025 11:49:00.897	0.637084	-0.53924	-0.429196	-15.295	-15.12	29.785	-7.926	-24.387	4.782
06/12/2025 11:49:00.917	0.599264	-0.582672	-0.441152	-16.905	-11.55	28.245	-7.6995	-24.072	4.7715
06/12/2025 11:49:00.937	0.576084	-0.572912	-0.42944	-10.78	-8.68	23.905	-7.923	-24.711	5.028
06/12/2025 11:49:00.957	0.531188	-0.700036	-0.458964	-5.285	-8.085	19.425	-7.3905	-24.24	4.9335
06/12/2025 11:49:00.977	0.601704	-0.79422	-0.61976	-6.02	-10.29	12.285	-7.2345	-24.408	5.1735
06/12/2025 11:49:00.997	0.622688	-0.515328	-0.477996	12.25	0.56	14.595	-7.2345	-24.408	5.1735
06/12/2025 11:49:01.017	0.542412	-0.604388	-0.510692	4.41	-1.61	16.59	-7.7055	-23.763	5.079
06/12/2025 11:49:01.037	0.633424	-0.68564	-0.530944	-3.5	2.695	14.7	-7.3125	-24.156	4.6935
06/12/2025 11:49:01.057	0.656604	-0.640988	-0.5124	-5.845	11.55	13.055	-7.233	-24.315	4.698
06/12/2025 11:49:01.077	0.529968	-0.615856	-0.505324	-7.63	21.035	9.135	-7.161	-23.9145	4.527
06/12/2025 11:49:01.097	0.495076	-0.656848	-0.516304	-11.025	10.43	9.485	-7.47	-24.0825	5.0085
06/12/2025 11:49:01.117	0.48434	-0.686128	-0.508252	-8.75	1.085	13.825	-7.314	-24.0765	4.6905
06/12/2025 11:49:01.137	0.486536	-0.62708	-0.498492	1.015	-4.13	17.885	-7.626	-23.6655	4.365
06/12/2025 11:49:01.157	0.53192	-0.605364	-0.498004	1.225	-9.905	17.325	-7.0815	-24.1605	4.7715
06/12/2025 11:49:01.177	0.603168	-0.60878	-0.479216	-3.85	-10.185	13.37	-7.1565	-24.231	4.458
06/12/2025 11:49:01.197	0.568032	-0.626348	-0.482632	-8.155	-2.59	7.875	-7.0035	-24.3255	4.9335
06/12/2025 11:49:01.217	0.538996	-0.640744	-0.49532	-12.635	-0.07	3.535	-6.9285	-23.9985	4.5285
06/12/2025 11:49:01.237	0.520452	-0.663436	-0.498248	-11.655	0.385	2.415	-7.083	-23.997	4.608
06/12/2025 11:49:01.257	0.483852	-0.654652	-0.49166	-8.715	-0.105	4.165	-6.774	-23.9955	4.3695
06/12/2025 11:49:01.277	0.48434	-0.649528	-0.469212	-8.4	-3.255	6.685	-6.546	-23.934	4.8405
06/12/2025 11:49:01.297	0.521428	-0.632936	-0.486048	-5.67	-5.32	7.07	-6.927	-24.1635	4.77
06/12/2025 11:49:01.317	0.548756	-0.650748	-0.480192	-4.13	-3.045	5.425	-6.927	-24.1635	4.77
06/12/2025 11:49:01.337	0.511424	-0.686616	-0.495076	-5.46	0.455	3.85	-6.768	-24.57	5.0175
06/12/2025 11:49:01.357	0.531432	-0.695156	-0.51362	-6.755	0.98	2.94	-6.546	-23.9385	4.9995
06/12/2025 11:49:01.377	0.528504	-0.709308	-0.538508	-5.46	3.325	3.22	-6.6945	-24.3285	4.8525
06/12/2025 11:49:01.397	0.540216	-0.692228	-0.528016	-1.015	3.605	3.885	-6.303	-24.564	4.542
06/12/2025 11:49:01.417	0.516304	-0.682956	-0.527528	1.995	6.055	3.745	-6.153	-24.4995	5.013
06/12/2025 11:49:01.437	0.513864	-0.681004	-0.532652	1.54	5.075	3.5	-6.3105	-24.171	4.6875
06/12/2025 11:49:01.457	0.531188	-0.706868	-0.542656	2.975	4.9	3.395	-6.4575	-24.561	4.542
06/12/2025 11:49:01.477	0.525576	-0.672708	-0.543876	4.48	4.165	4.2	-6.384	-24.4095	4.7745
06/12/2025 11:49:01.497	0.522404	-0.670512	-0.531432	0.595	3.465	4.445	-6.4635	-24.159	4.3725
06/12/2025 11:49:01.517	0.524112	-0.643672	-0.530456	-1.645	2.485	4.41	-6.4635	-24.1635	4.53
06/12/2025 11:49:01.537	0.529968	-0.651724	-0.53924	-2.31	0.49	4.97	-5.9175	-24.651	4.6215
06/12/2025 11:49:01.557	0.542168	-0.655384	-0.518744	0.14	-2.205	5.355	-6.2325	-24.1725	4.6875
06/12/2025 11:49:01.577	0.5246	-0.635864	-0.509228	1.715	-3.01	4.41	-6.765	-24.549	4.3065
06/12/2025 11:49:01.597	0.545096	-0.649772	-0.519476	-1.47	-5.39	2.8	-6.3825	-24.315	4.218
06/12/2025 11:49:01.617	0.548024	-0.6527	-0.50996	-0.735	-5.81	3.325	-6.222	-24.708	3.9915
06/12/2025 11:49:01.637	0.519964	-0.609756	-0.495076	-3.99	-3.675	2.73	-6.222	-24.708	3.9915
06/12/2025 11:49:01.657	0.534116	-0.683932	-0.524356	-12.32	-4.095	2.31	-6.222	-24.708	3.9915
06/12/2025 11:49:01.677	0.54046	-0.69174	-0.529236	-12.005	-2.415	2.065	-6.0705	-24.639	4.305
06/12/2025 11:49:01.697	0.527284	-0.688568	-0.52826	-9.625	0	0.35	-6.069	-24.6345	4.1475
06/12/2025 11:49:01.717	0.532408	-0.6832	-0.542412	-8.33	1.085	-0.385	-6.3	-24.7155	4.308
06/12/2025 11:49:01.737	0.538264	-0.680272	-0.55144	-4.795	2.485	-0.35	-6.2925	-25.1055	4.083
06/12/2025 11:49:01.757	0.545096	-0.670024	-0.54168	-1.015	3.045	-1.19	-6.456	-24.468	4.065
06/12/2025 11:49:01.777	0.534848	-0.652456	-0.529236	-0.84	3.955	-2.94	-6.2205	-24.7845	3.915
06/12/2025 11:49:01.797	0.525088	-0.643428	-0.537288	-4.55	5.04	-4.095	-6.1425	-24.867	3.996
06/12/2025 11:49:01.817	0.50752	-0.660264	-0.542656	-6.58	4.48	-3.605	-6.3735	-24.867	4.077
06/12/2025 11:49:01.837	0.50996	-0.66368	-0.541924	-4.76	2.905	-2.38	-6.225	-24.558	4.3035
06/12/2025 11:49:01.857	0.513376	-0.6649	-0.536312	-2.8	1.96	-2.135	-6.222	-24.624	3.831
06/12/2025 11:49:01.877	0.522892	-0.6588	-0.535092	-1.085	1.05	-2.8	-6.5235	-25.0935	3.768
06/12/2025 11:49:01.897	0.529236	-0.655872	-0.532408	-0.98	1.155	-3.71	-6.4545	-24.5385	3.7515
06/12/2025 11:49:01.917	0.515572	-0.66368	-0.532652	-1.015	2.17	-4.9	-6.4545	-24.627	4.0695
06/12/2025 11:49:01.937	0.51362	-0.644892	-0.517036	-1.75	1.05	-3.955	-6.8325	-25.0095	3.7665
06/12/2025 11:49:01.957	0.525576	-0.606828	-0.500688	-7.665	0.63	-3.885	-6.8325	-25.0095	3.7665
06/12/2025 11:49:01.977	0.534848	-0.638304	-0.532164	-14.875	1.68	-4.41	-6.8325	-25.0095	3.7665
06/12/2025 11:49:01.997	0.53192	-0.659532	-0.544364	-16.87	2.59	-4.445	-6.3675	-25.1745	3.7695
06/12/2025 11:49:02.017	0.53558	-0.660508	-0.548756	-12.565	3.815	-6.09	-6.6	-25.011	3.687
06/12/2025 11:49:02.037	0.532652	-0.643672	-0.55022	-7.175	4.795	-7.595	-6.4455	-25.176	3.849
06/12/2025 11:49:02.057	0.521428	-0.6283	-0.552416	-2.45	5.25	-8.26	-6.4425	-25.335	3.8535
06/12/2025 11:49:02.077	0.51362	-0.6222	-0.55144	0.665	4.62	-8.19	-6.4425	-25.338	3.933
06/12/2025 11:49:02.097	0.529724	-0.650992	-0.56974	2.8	3.57	-8.33	-6.5895	-25.809	3.867
06/12/2025 11:49:02.117	0.545096	-0.658312	-0.564372	6.475	3.115	-8.645	-6.675	-25.3335	3.933
06/12/2025 11:49:02.137	0.554856	-0.65392	-0.549732	9.31	3.29	-9.275	-6.7425	-25.716	3.471
06/12/2025 11:49:02.157	0.569984	-0.661728	-0.548756	11.865	2.975	-9.45	-6.8355	-24.7665	3.6015
06/12/2025 11:49:02.177	0.570716	-0.669292	-0.549	15.015	2.415	-8.96	-6.9855	-25.005	3.6885
06/12/2025 11:49:02.197	0.565836	-0.654164	-0.527772	15.75	1.295	-8.225	-6.753	-25.08	3.453
06/12/2025 11:49:02.217	0.568276	-0.642696	-0.5185	13.125	-0.175	-6.685	-6.75	-25.155	3.297
06/12/2025 11:49:02.237	0.574376	-0.6344	-0.515328	6.615	-1.155	-5.11	-6.984	-24.9885	3.135
06/12/2025 11:49:02.257	0.588528	-0.6527	-0.532896	-0.28	-1.47	-2.205	-6.7515	-25.1625	3.534
06/12/2025 11:49:02.277	0.581208	-0.669048	-0.543388	-0.945	-1.89	-1.365	-6.7515	-25.1625	3.534
06/12/2025 11:49:02.297	0.570472	-0.658068	-0.533384	0.42	-2.695	-1.54	-6.8205	-25.5465	3.15
06/12/2025 11:49:02.317	0.566812	-0.65026	-0.52704	-0.595	-3.78	-0.7	-6.831	-24.9975	3.372
06/12/2025 11:49:02.337	0.565104	-0.63562	-0.532164	-2.555	-4.69	0.385	-6.8205	-25.5465	3.15
06/12/2025 11:49:02.357	0.569252	-0.646356	-0.526552	-3.71	-4.97	1.47	-6.5205	-25.0815	3.372
06/12/2025 11:49:02.377	0.573888	-0.645624	-0.526064	-2.765	-4.48	2.17	-6.4395	-25.2345	3.1395
06/12/2025 11:49:02.397	0.574132	-0.63684	-0.520452	-1.785	-3.465	1.155	-6.828	-25.152	3.2175
06/12/2025 11:49:02.417	0.572424	-0.635864	-0.518256	-0.98	-2.87	-0.455	-6.9045	-25.1505	3.219
06/12/2025 11:49:02.437	0.57096	-0.619272	-0.517524	1.785	-1.68	-0.91	-6.747	-25.3095	3.1425
06/12/2025 11:49:02.457	0.565592	-0.594384	-0.510936	2.8	0.07	-0.98	-6.7425	-25.5435	2.9925
06/12/2025 11:49:02.477	0.566812	-0.594628	-0.522648	-0.35	1.54	-1.47	-6.6675	-25.641	3.5475
06/12/2025 11:49:02.497	0.559736	-0.60512	-0.520452	-3.85	1.75	-2.45	-6.9	-25.4715	3.306
06/12/2025 11:49:02.517	0.555832	-0.606096	-0.5185	-5.88	1.4	-3.185	-7.0515	-25.542	3.072
06/12/2025 11:49:02.537	0.563396	-0.583404	-0.521184	-8.33	1.19	-4.095	-7.0515	-25.71	3.393
06/12/2025 11:49:02.557	0.556808	-0.605852	-0.528748	-10.71	1.33	-4.725	-6.9765	-25.4625	3.069
06/12/2025 11:49:02.577	0.5612	-0.621224	-0.54412	-10.955	0.84	-5.39	-7.2105	-25.308	3.303
06/12/2025 11:49:02.597	0.568276	-0.609512	-0.530212	-9.975	-0.455	-5.95	-7.2105	-25.308	3.303
06/12/2025 11:49:02.617	0.572668	-0.595848	-0.533384	-10.255	-0.035	-5.915	-7.2105	-25.2165	2.9055
06/12/2025 11:49:02.637	0.581208	-0.629276	-0.549976	-11.515	-0.105	-5.74	-6.9735	-25.71	3.393
06/12/2025 11:49:02.657	0.592676	-0.64782	-0.55998	-8.54	0.035	-5.495	-7.194	-26.157	2.4585
06/12/2025 11:49:02.677	0.592432	-0.629276	-0.541192	-3.43	0.07	-5.18	-6.963	-26.253	2.934
06/12/2025 11:49:02.697	0.580232	-0.616588	-0.533384	-2.17	-0.21	-5.355	-7.3455	-26.4015	2.7825
06/12/2025 11:49:02.717	0.577792	-0.617808	-0.535824	-2.975	-0.28	-4.62	-7.275	-26.007	2.85
06/12/2025 11:49:02.737	0.58194	-0.612196	-0.538508	-4.935	0.105	-3.605	-7.1115	-26.475	2.4675
06/12/2025 11:49:02.757	0.589016	-0.60634	-0.559004	-6.51	0.84	-3.325	-7.272	-26.25	3.015
06/12/2025 11:49:02.777	0.589748	-0.631716	-0.5673	-6.02	1.085	-2.975	-6.8025	-26.6475	2.787
06/12/2025 11:49:02.797	0.58682	-0.614148	-0.560712	-2.625	1.54	-2.87	-6.9645	-26.2605	3.171
06/12/2025 11:49:02.817	0.587552	-0.618052	-0.578524	-0.595	1.785	-2.38	-7.35	-26.25	3.015
06/12/2025 11:49:02.837	0.589504	-0.623908	-0.575352	-0.28	1.225	-2.03	-7.587	-26.019	3.405
06/12/2025 11:49:02.857	0.58804	-0.619272	-0.577548	1.47	0.875	-1.4	-7.353	-26.1	3.327
06/12/2025 11:49:02.877	0.593652	-0.627568	-0.576572	2.66	0.28	-1.12	-7.122	-26.1855	3.408
06/12/2025 11:49:02.897	0.585356	-0.641232	-0.571936	5.915	-1.295	-0.385	-7.269	-26.4915	3.1005
06/12/2025 11:49:02.917	0.598776	-0.645624	-0.557784	7.595	-2.59	0.21	-7.269	-26.4915	3.1005
06/12/2025 11:49:02.937	0.592676	-0.6283	-0.538752	10.71	-2.52	1.015	-6.966	-26.1825	3.249
06/12/2025 11:49:02.957	0.590236	-0.615612	-0.5246	13.3	-2.52	1.75	-7.0365	-26.661	3.342
06/12/2025 11:49:02.977	0.590968	-0.607804	-0.511912	13.79	-2.31	3.08	-7.272	-26.334	3.1755
06/12/2025 11:49:02.997	0.604632	-0.591456	-0.50874	11.76	-1.68	3.955	-7.2	-26.106	3.4845
06/12/2025 11:49:03.017	0.605608	-0.57462	-0.507032	7.56	-0.035	4.27	-7.128	-25.704	3.2355
06/12/2025 11:49:03.037	0.593652	-0.572424	-0.519476	2.38	2.66	4.13	-7.1985	-26.181	3.3285
06/12/2025 11:49:03.057	0.581208	-0.559248	-0.522404	-4.025	4.9	3.57	-7.3545	-26.016	3.1665
06/12/2025 11:49:03.077	0.574132	-0.58682	-0.53314	-8.575	6.16	1.995	-7.4325	-25.851	3.0045
06/12/2025 11:49:03.097	0.553148	-0.59902	-0.546316	-7.945	6.37	1.365	-7.2765	-25.8465	2.766
06/12/2025 11:49:03.117	0.548756	-0.595604	-0.556076	-3.045	5.53	0.805	-7.2765	-25.9305	2.9265
06/12/2025 11:49:03.137	0.5551	-0.581208	-0.542168	1.82	3.815	0.14	-7.125	-25.776	3
06/12/2025 11:49:03.157	0.570228	-0.569008	-0.536556	2.065	2.485	-0.35	-7.281	-25.6965	3.078
06/12/2025 11:49:03.177	0.57828	-0.5795	-0.538508	-0.175	1.855	-1.995	-6.894	-25.779	3
06/12/2025 11:49:03.197	0.580476	-0.599752	-0.530456	-1.015	1.68	-3.43	-7.275	-26.094	3.09
06/12/2025 11:49:03.217	0.585112	-0.62098	-0.535336	-2.03	0.455	-4.585	-7.275	-26.094	3.09
06/12/2025 11:49:03.237	0.58926	-0.613416	-0.523136	-0.35	0.56	-4.375	-7.275	-26.094	3.09
06/12/2025 11:49:03.257	0.578768	-0.605364	-0.530944	-0.56	1.75	-4.515	-7.506	-26.088	3.012
06/12/2025 11:49:03.277	0.583648	-0.62586	-0.543144	-2.24	2.03	-5.04	-7.1985	-26.013	3.0075
06/12/2025 11:49:03.297	0.597312	-0.619028	-0.543144	-0.77	3.36	-5.25	-7.272	-26.2485	2.9355
06/12/2025 11:49:03.317	0.595604	-0.621712	-0.540216	0.35	4.305	-5.985	-6.966	-26.013	2.8485
06/12/2025 11:49:03.337	0.600728	-0.627812	-0.54046	2.1	4.305	-6.545	-7.659	-26.3355	3.414
06/12/2025 11:49:03.357	0.610976	-0.618296	-0.5429	2.1	4.375	-6.58	-7.7355	-26.2485	3.1755
06/12/2025 11:49:03.377	0.599752	-0.613416	-0.53924	1.05	4.2	-5.985	-7.59	-25.608	2.919
06/12/2025 11:49:03.397	0.610244	-0.609756	-0.540216	-0.525	4.025	-5.285	-7.737	-26.1645	3.015
06/12/2025 11:49:03.417	0.603656	-0.628788	-0.546072	-4.06	3.815	-4.62	-8.0475	-26.085	3.1725
06/12/2025 11:49:03.437	0.599264	-0.650992	-0.545828	-5.075	3.5	-4.165	-7.737	-26.25	3.255
06/12/2025 11:49:03.457	0.600972	-0.644648	-0.548512	-2.73	2.38	-2.59	-7.659	-26.25	3.1755
06/12/2025 11:49:03.477	0.614148	-0.635376	-0.546804	0.175	1.75	-1.54	-7.353	-26.0925	3.09
06/12/2025 11:49:03.497	0.600728	-0.620736	-0.540704	2.66	1.085	-1.19	-7.8165	-25.9245	3.009
06/12/2025 11:49:03.517	0.593164	-0.611708	-0.531676	3.43	-0.49	0	-7.5825	-26.166	3.015
06/12/2025 11:49:03.537	0.592432	-0.582184	-0.527284	0.805	-3.045	1.155	-7.5825	-26.166	3.015
06/12/2025 11:49:03.557	0.591212	-0.589748	-0.5185	-1.05	-4.305	1.33	-7.5825	-26.166	3.015
06/12/2025 11:49:03.577	0.598288	-0.582916	-0.520208	-1.085	-4.76	1.575	-7.3515	-26.0865	2.853
06/12/2025 11:49:03.597	0.607804	-0.589016	-0.524112	-1.47	-4.13	0.84	-7.1235	-25.9395	3.1635
06/12/2025 11:49:03.617	0.615612	-0.565348	-0.511912	-1.925	-3.22	-0.56	-7.5825	-25.998	2.694
06/12/2025 11:49:03.637	0.603656	-0.560224	-0.508984	-2.87	-1.925	-1.925	-7.662	-25.923	2.85
06/12/2025 11:49:03.657	0.600972	-0.571936	-0.512644	-5.6	-1.435	-3.36	-7.3515	-26.088	2.9325
06/12/2025 11:49:03.677	0.591456	-0.568276	-0.523624	-6.895	0.175	-2.695	-7.044	-26.1015	3.246
06/12/2025 11:49:03.697	0.588528	-0.571936	-0.5429	-8.785	0.28	-2.8	-6.969	-25.6785	2.286
06/12/2025 11:49:03.717	0.59414	-0.578036	-0.546072	-9.275	0.665	-3.955	-6.894	-25.869	3.318
06/12/2025 11:49:03.737	0.597312	-0.600484	-0.552172	-7.63	1.47	-5.39	-7.3485	-26.247	2.937
06/12/2025 11:49:03.757	0.582916	-0.611952	-0.555344	-4.9	1.995	-6.055	-7.0485	-25.7745	2.9205
06/12/2025 11:49:03.777	0.599996	-0.634644	-0.569252	-1.785	0.875	-6.3	-7.1895	-26.6475	2.9475
06/12/2025 11:49:03.797	0.603412	-0.6283	-0.567788	4.025	1.05	-5.18	-7.041	-26.2515	2.9355
06/12/2025 11:49:03.817	0.608292	-0.626348	-0.565104	7.595	0.385	-4.76	-7.344	-26.565	2.946
06/12/2025 11:49:03.837	0.621712	-0.631472	-0.546072	9.45	-1.12	-4.165	-7.1925	-26.4105	3.0195
06/12/2025 11:49:03.857	0.633668	-0.614636	-0.52948	8.82	-1.365	-2.835	-7.1925	-26.4105	3.0195
06/12/2025 11:49:03.877	0.60878	-0.63684	-0.541924	7.21	-1.26	-1.75	-7.1925	-26.4105	3.0195
06/12/2025 11:49:03.897	0.617808	-0.621712	-0.53558	10.255	-1.855	0	-7.344	-26.565	2.946
06/12/2025 11:49:03.917	0.6344	-0.609756	-0.526552	11.55	-1.995	1.645	-7.206	-25.536	2.994
06/12/2025 11:49:03.937	0.631472	-0.594872	-0.515328	10.885	-1.575	1.855	-7.356	-25.8585	3.2415
06/12/2025 11:49:03.957	0.607804	-0.587552	-0.514108	9.8	-0.56	1.47	-7.818	-25.8405	2.8485
06/12/2025 11:49:03.977	0.603168	-0.567788	-0.512888	8.26	-0.49	1.015	-7.509	-25.932	3.0855
06/12/2025 11:49:03.997	0.596824	-0.543144	-0.506056	6.895	0.245	0.245	-7.671	-25.3755	3.15
06/12/2025 11:49:04.017	0.581452	-0.521916	-0.499468	5.53	1.05	-0.805	-7.5135	-25.695	3.159
06/12/2025 11:49:04.037	0.577304	-0.509472	-0.501664	3.71	1.645	-2.31	-7.5105	-25.6845	2.763
06/12/2025 11:49:04.057	0.583404	-0.508984	-0.507764	1.05	1.995	-3.78	-7.281	-25.524	2.5995
06/12/2025 11:49:04.077	0.600484	-0.50264	-0.508252	-1.75	2.52	-5.46	-7.7505	-25.0425	2.667
06/12/2025 11:49:04.097	0.604876	-0.515572	-0.510448	-5.39	3.85	-7.7	-7.6665	-25.6935	3.159
06/12/2025 11:49:04.117	0.609756	-0.560468	-0.517524	-7.7	4.55	-10.745	-7.74	-25.755	2.6085
06/12/2025 11:49:04.137	0.60634	-0.56486	-0.518744	-5.6	5.32	-13.37	-8.358	-25.6665	2.6085
06/12/2025 11:49:04.157	0.628056	-0.586576	-0.516792	-4.445	4.725	-14.14	-8.0565	-25.4505	3.234
06/12/2025 11:49:04.177	0.640012	-0.597068	-0.498736	-1.68	4.795	-13.685	-8.523	-25.206	3.2295
06/12/2025 11:49:04.197	0.630252	-0.591212	-0.498004	-0.56	5.285	-12.6	-8.523	-25.206	3.2295
06/12/2025 11:49:04.217	0.63318	-0.59902	-0.504836	-0.98	5.355	-11.585	-8.451	-24.807	3.138
06/12/2025 11:49:04.237	0.64538	-0.62098	-0.504836	0.91	5.46	-10.92	-8.5875	-25.9065	2.775
06/12/2025 11:49:04.257	0.637572	-0.610976	-0.510448	6.79	6.44	-10.08	-8.6715	-25.6035	3.3195
06/12/2025 11:49:04.277	0.642452	-0.597068	-0.513132	12.215	7.35	-10.115	-8.439	-25.518	3
06/12/2025 11:49:04.297	0.646844	-0.574132	-0.492148	14.56	7.7	-10.675	-8.517	-25.515	2.922
06/12/2025 11:49:04.317	0.651968	-0.554124	-0.471652	14.28	8.505	-10.85	-8.6685	-25.674	3.006
06/12/2025 11:49:04.337	0.649528	-0.535336	-0.466284	11.27	8.61	-10.325	-8.4405	-25.434	2.8395
06/12/2025 11:49:04.357	0.640988	-0.525332	-0.454328	6.02	8.645	-10.185	-8.517	-25.4325	2.841
06/12/2025 11:49:04.377	0.6344	-0.495076	-0.443104	0.455	8.785	-10.85	-8.52	-25.1925	2.754
06/12/2025 11:49:04.397	0.62464	-0.447008	-0.418704	-7.245	10.36	-12.285	-8.52	-25.278	2.994
06/12/2025 11:49:04.417	0.638792	-0.447008	-0.426512	-18.935	11.97	-15.015	-9.285	-25.578	2.769
06/12/2025 11:49:04.437	0.660508	-0.464332	-0.450912	-27.86	15.26	-18.305	-9.2895	-25.428	3.081
06/12/2025 11:49:04.457	0.668316	-0.467992	-0.469456	-30.45	19.53	-22.715	-9.363	-25.5795	2.8485
06/12/2025 11:49:04.477	0.670756	-0.463356	-0.462624	-29.4	23.87	-29.47	-9.6615	-26.289	2.871
06/12/2025 11:49:04.497	0.696864	-0.437492	-0.468724	-29.05	25.095	-33.355	-9.6615	-26.289	2.871
06/12/2025 11:49:04.517	0.701988	-0.464576	-0.468236	-29.12	27.3	-36.4	-10.1145	-26.9205	2.9715
06/12/2025 11:49:04.537	0.710284	-0.47214	-0.49166	-21.98	28.84	-39.27	-10.41	-27.789	2.997
06/12/2025 11:49:04.557	0.72346	-0.471164	-0.481168	-9.73	30.59	-40.635	-10.41	-27.789	2.997
06/12/2025 11:49:04.577	0.75518	-0.447008	-0.475312	0.315	31.01	-42.245	-10.956	-27.384	2.9895
06/12/2025 11:49:04.597	0.770796	-0.439932	-0.470676	4.41	32.2	-44.975	-11.028	-27.6105	2.601
06/12/2025 11:49:04.617	0.770308	-0.460428	-0.461404	7.735	32.095	-47.075	-11.0265	-27.774	2.763
06/12/2025 11:49:04.637	0.777628	-0.427732	-0.434808	13.895	31.5	-47.915	-11.253	-28.0875	2.7735
06/12/2025 11:49:04.657	0.787632	-0.424316	-0.403576	16.275	30.66	-48.09	-11.949	-28.0005	2.8545
06/12/2025 11:49:04.677	0.808128	-0.406748	-0.358192	18.62	29.61	-47.04	-11.706	-28.6275	2.475
06/12/2025 11:49:04.697	0.830576	-0.351116	-0.33184	20.58	30.135	-44.345	-11.946	-27.9825	2.2215
06/12/2025 11:49:04.717	0.868396	-0.311344	-0.316956	17.465	30.485	-41.58	-12.7095	-28.6215	2.7975
06/12/2025 11:49:04.737	0.892796	-0.304756	-0.313052	10.605	31.57	-39.935	-13.248	-28.521	2.3235
06/12/2025 11:49:04.757	0.895236	-0.27694	-0.302804	4.935	34.405	-39.445	-13.4055	-28.275	2.1585
06/12/2025 11:49:04.777	0.87474	-0.268888	-0.300852	-3.605	37.555	-39.165	-13.7115	-28.3455	2.004
06/12/2025 11:49:04.797	0.918172	-0.271084	-0.319396	-12.775	37.135	-39.83	-13.9395	-28.6665	2.2515
06/12/2025 11:49:04.817	0.96624	-0.261568	-0.345504	-7.315	39.27	-40.88	-13.9395	-28.6665	2.2515
06/12/2025 11:49:04.837	0.924516	-0.350872	-0.34404	1.33	41.37	-43.785	-15.09	-29.04	2.0325
06/12/2025 11:49:04.857	0.917196	-0.347944	-0.321836	26.355	40.67	-48.195	-15.3945	-29.271	1.962
06/12/2025 11:49:04.877	0.977952	-0.285236	-0.299144	47.565	40.635	-52.64	-15.627	-29.1015	1.7205
06/12/2025 11:49:04.897	1.003328	-0.27206	-0.309392	53.48	41.58	-54.705	-15.627	-29.1015	1.7205
06/12/2025 11:49:04.917	1.00894	-0.287676	-0.297924	52.36	42.49	-56.42	-16.32	-29.0835	1.4865
06/12/2025 11:49:04.937	0.967216	-0.287676	-0.278892	52.255	39.795	-57.295	-16.32	-28.9185	1.245
06/12/2025 11:49:04.957	0.98454	-0.26718	-0.238388	46.41	33.425	-55.475	-17.085	-29.2995	1.1025
06/12/2025 11:49:04.977	1.00284	-0.287676	-0.20984	35.35	29.33	-52.185	-16.854	-29.1345	0.78
06/12/2025 11:49:04.997	1.03944	-0.313052	-0.193004	31.605	27.685	-46.515	-17.706	-28.8795	0.6195
06/12/2025 11:49:05.017	1.025532	-0.299144	-0.193736	31.185	27.65	-41.895	-17.943	-28.653	1.167
06/12/2025 11:49:05.037	0.998936	-0.216428	-0.171044	27.335	28.245	-38.22	-17.7765	-29.3565	0.7125
06/12/2025 11:49:05.057	1.009428	-0.209108	-0.167872	12.67	29.75	-34.3	-17.784	-28.7985	0.618
06/12/2025 11:49:05.077	1.015772	-0.210328	-0.187636	2.765	31.885	-32.55	-18.324	-28.7055	0.4605
06/12/2025 11:49:05.097	1.028216	-0.216672	-0.19032	4.445	32.55	-29.68	-18.3975	-28.8555	0.1485
06/12/2025 11:49:05.117	1.0309	-0.188124	-0.15616	18.025	32.795	-30.695	-18.5475	-29.1705	0.159
06/12/2025 11:49:05.137	1.016992	-0.130784	-0.126148	24.36	33.6	-31.045	-18.5475	-29.1705	0.159
06/12/2025 11:49:05.157	1.008452	-0.111996	-0.114436	22.68	33.18	-30.87	-19.467	-29.301	-0.3045
06/12/2025 11:49:05.177	1.033096	-0.077348	-0.102968	15.96	33.74	-28.315	-19.7715	-29.5335	-0.3765
06/12/2025 11:49:05.197	1.065304	-0.060512	-0.115168	13.055	32.69	-29.575	-20.16	-29.28	-0.6975
06/12/2025 11:49:05.217	1.006744	-0.105896	-0.106628	9.345	34.65	-28.525	-20.001	-29.598	-0.768
06/12/2025 11:49:05.237	1.004548	-0.03904	-0.116632	17.57	29.82	-33.985	-20.4705	-29.1165	-0.7005
06/12/2025 11:49:05.257	1.002352	0.004392	-0.079788	17.045	28.07	-30.765	-20.4705	-29.1165	-0.7005
06/12/2025 11:49:05.277	0.995764	-0.034892	-0.052216	7.14	25.48	-32.305	-20.9985	-29.814	-0.993
06/12/2025 11:49:05.297	1.01016	-0.021472	-0.057096	8.05	24.535	-34.195	-20.8395	-29.9655	-1.305
06/12/2025 11:49:05.317	1.009672	-0.0366	-0.056364	12.04	23.415	-36.785	-21.5265	-30.3435	-1.6065
06/12/2025 11:49:05.337	1.00894	-0.024888	-0.066124	18.795	22.4	-39.83	-21.675	-30.8265	-1.2765
06/12/2025 11:49:05.357	1.006012	0.036844	-0.05368	26.075	21.42	-41.09	-21.6045	-30.261	-1.6875
06/12/2025 11:49:05.377	0.998204	0.06954	-0.010004	25.235	21.35	-41.055	-21.675	-30.654	-1.755
06/12/2025 11:49:05.397	0.991372	0.075884	0.015128	18.095	21.035	-40.18	-21.675	-30.6495	-1.914
06/12/2025 11:49:05.417	0.986004	0.083936	0.008052	10.955	19.67	-39.865	-21.9015	-30.7965	-2.2245
06/12/2025 11:49:05.437	0.998936	0.091988	0.007808	-4.34	18.06	-38.01	-22.137	-30.7275	-1.7505
06/12/2025 11:49:05.457	1.055788	0.08784	0.007076	-13.335	17.08	-35.315	-22.137	-30.7275	-1.7505
06/12/2025 11:49:05.477	1.00772	0.02806	0.007076	-19.425	18.06	-35.98	-22.7355	-31.728	-2.5095
06/12/2025 11:49:05.497	1.028216	0.07442	0.00122	-10.01	14.49	-37.52	-22.8045	-32.1165	-2.7345
06/12/2025 11:49:05.517	1.002596	0.063684	0.029036	-6.72	13.125	-36.68	-22.8075	-31.9605	-2.6595
06/12/2025 11:49:05.537	1.004548	0.109312	0.048556	-6.09	7.84	-37.1	-22.6425	-32.7645	-2.4
06/12/2025 11:49:05.557	1.016992	0.129808	0.056364	-8.785	5.6	-34.3	-23.262	-32.685	-2.0835
06/12/2025 11:49:05.577	1.053348	0.162016	0.054168	-11.13	3.71	-34.125	-23.022	-33.0645	-2.784
06/12/2025 11:49:05.597	1.05896	0.189344	0.072468	-13.09	6.545	-34.615	-23.4795	-33.459	-2.613
06/12/2025 11:49:05.617	1.002108	0.201788	0.06344	-18.095	7.735	-33.95	-23.4795	-33.459	-2.613
06/12/2025 11:49:05.637	1.00772	0.206424	0.0732	-23.835	4.515	-31.57	-22.7865	-33.3015	-2.937
06/12/2025 11:49:05.657	1.05042	0.18544	0.055632	-25.165	6.02	-30.03	-23.1705	-33.5445	-2.6115
06/12/2025 11:49:05.677	1.04554	0.199836	0.065148	-18.585	12.425	-30.835	-23.2335	-34.3305	-2.826
06/12/2025 11:49:05.697	1.006744	0.197152	0.06466	-16.52	13.37	-32.34	-23.307	-34.56	-3.0555
06/12/2025 11:49:05.717	0.993812	0.17202	0.069784	-15.33	11.9	-30.87	-23.541	-34.4895	-2.6625
06/12/2025 11:49:05.737	1.010892	0.2013	0.0732	-10.29	10.675	-29.33	-23.2995	-35.0355	-3.1215
06/12/2025 11:49:05.757	1.01626	0.23912	0.072224	-4.2	11.375	-27.16	-23.8365	-35.1015	-3.2745
06/12/2025 11:49:05.777	1.002108	0.246928	0.061732	-4.9	10.57	-25.83	-23.2155	-35.4285	-3.2685
06/12/2025 11:49:05.797	1.009672	0.245464	0.060756	-8.295	8.82	-24.325	-23.673	-35.7375	-3.336
06/12/2025 11:49:05.817	1.018212	0.247416	0.06344	-11.095	7.28	-23.45	-23.3535	-36.4545	-3.396
06/12/2025 11:49:05.837	1.042856	0.239608	0.062952	-12.74	6.405	-23.625	-23.13	-35.9025	-3.414
06/12/2025 11:49:05.857	1.010892	0.22448	0.05368	-14.525	7.35	-22.015	-23.3565	-36.2145	-3.483
06/12/2025 11:49:05.877	0.990152	0.227896	0.058804	-17.43	5.635	-21.07	-23.277	-36.456	-3.3975
06/12/2025 11:49:05.897	0.987468	0.241316	0.060268	-24.57	3.675	-18.9	-23.115	-36.7605	-3.942
06/12/2025 11:49:05.917	0.982832	0.240096	0.072956	-30.66	2.24	-16.135	-23.727	-37.158	-3.6105
06/12/2025 11:49:05.937	1.00162	0.2379	0.066856	-35.98	0.21	-12.635	-23.643	-37.5495	-3.837
06/12/2025 11:49:05.957	1.004792	0.244976	0.06344	-39.235	-0.455	-9.94	-23.253	-37.7025	-4.23
06/12/2025 11:49:05.977	0.992348	0.245708	0.058072	-39.97	-0.455	-7.945	-23.253	-37.7025	-4.23
06/12/2025 11:49:05.997	0.988444	0.249368	0.069784	-39.62	-1.61	-6.3	-23.4015	-38.097	-4.218
06/12/2025 11:49:06.017	0.98942	0.256932	0.081252	-39.2	-2.8	-4.76	-23.4855	-37.788	-3.9105
06/12/2025 11:49:06.037	0.994788	0.259128	0.08784	-40.11	-4.13	-3.71	-23.3205	-38.421	-4.0515
06/12/2025 11:49:06.057	0.993568	0.240584	0.089792	-40.145	-4.97	-2.765	-23.163	-38.4915	-4.4445
06/12/2025 11:49:06.077	0.970632	0.244732	0.105896	-35.665	-6.265	-1.68	-23.1585	-38.8095	-4.4355
06/12/2025 11:49:06.097	0.992104	0.250832	0.11834	-31.71	-7.7	-0.595	-23.541	-38.958	-4.587
06/12/2025 11:49:06.117	1.005524	0.254492	0.115412	-27.335	-7.595	0.63	-23.226	-39.441	-4.497
06/12/2025 11:49:06.137	0.981856	0.247904	0.110044	-21.77	-6.16	1.575	-23.226	-39.357	-4.656
06/12/2025 11:49:06.157	0.972584	0.242048	0.11468	-15.33	-5.32	2.24	-23.376	-39.762	-4.3275
06/12/2025 11:49:06.177	0.966972	0.2501	0.116876	-8.575	-4.62	2.52	-22.926	-39.06	-4.1145
06/12/2025 11:49:06.197	0.96624	0.262788	0.12322	-4.83	-4.2	3.01	-23.3025	-39.438	-4.575
06/12/2025 11:49:06.217	0.969412	0.277916	0.135176	-4.305	-4.27	3.465	-23.31	-39.132	-4.188
06/12/2025 11:49:06.237	0.968436	0.268644	0.129564	-4.97	-3.535	3.255	-23.4585	-39.4425	-4.3365
06/12/2025 11:49:06.257	0.953064	0.260592	0.129076	-5.495	-3.185	3.115	-23.6925	-39.1935	-4.5795
06/12/2025 11:49:06.277	0.943792	0.274256	0.126636	-5.285	-2.835	2.765	-23.2275	-39.4485	-4.2585
06/12/2025 11:49:06.297	0.9516	0.272548	0.12566	-4.55	-2.345	2.66	-22.998	-39.291	-4.344
06/12/2025 11:49:06.317	0.964776	0.283284	0.122488	-3.745	-2.065	3.01	-23.3835	-39.372	-4.1025
06/12/2025 11:49:06.337	0.982344	0.276696	0.115656	-3.115	-1.12	2.66	-23.3835	-39.372	-4.1025
06/12/2025 11:49:06.357	0.974048	0.27938	0.110776	-1.575	-0.035	1.855	-23.0025	-39.057	-4.1925
06/12/2025 11:49:06.377	0.964776	0.279868	0.112728	0.14	0.7	1.05	-23.5425	-38.97	-4.1925
06/12/2025 11:49:06.397	0.965752	0.28426	0.114924	0	0.28	0.035	-23.463	-39.036	-4.665
06/12/2025 11:49:06.417	0.960872	0.277184	0.122	-0.7	0.28	-0.56	-23.1585	-38.9775	-4.1145
06/12/2025 11:49:06.437	0.95648	0.278648	0.126148	-0.945	-0.035	-1.19	-23.2395	-38.661	-4.044
06/12/2025 11:49:06.457	0.95648	0.273768	0.127612	-1.4	-0.525	-1.295	-23.538	-39.285	-4.2615
06/12/2025 11:49:06.477	0.957456	0.275476	0.126636	-2.45	-0.77	-1.12	-22.9245	-39.144	-3.954
06/12/2025 11:49:06.497	0.968924	0.265716	0.12322	-3.185	-1.015	-1.085	-23.4675	-38.805	-4.434
06/12/2025 11:49:06.517	0.96624	0.260592	0.113216	-2.8	-0.385	-0.98	-23.2365	-38.811	-4.356
06/12/2025 11:49:06.537	0.977952	0.266448	0.115656	-1.575	-0.49	-1.05	-22.764	-39.3675	-4.5795
06/12/2025 11:49:06.557	0.977952	0.263764	0.123952	-0.805	-0.42	-1.155	-22.9305	-38.658	-4.284
06/12/2025 11:49:06.577	0.972828	0.262056	0.139568	-0.35	-0.35	-1.085	-22.929	-38.82	-4.2
06/12/2025 11:49:06.597	0.985028	0.267424	0.133224	-0.77	-1.4	-1.26	-22.848	-38.9715	-4.512
06/12/2025 11:49:06.617	0.98576	0.266936	0.12932	-2.03	-1.82	-0.98	-22.8465	-39.3075	-3.87
06/12/2025 11:49:06.637	0.972828	0.26352	0.135176	-2.94	-1.54	-0.98	-22.9215	-39.297	-4.1865
06/12/2025 11:49:06.657	0.961848	0.256688	0.13298	-3.395	-1.19	-0.595	-23.151	-39.2865	-4.422
06/12/2025 11:49:06.677	0.976732	0.25132	0.129808	-2.905	-0.91	-0.175	-23.229	-39.369	-4.2615
06/12/2025 11:49:06.697	0.97478	0.250588	0.12444	0.49	0.735	0.035	-23.229	-39.369	-4.2615
06/12/2025 11:49:06.717	0.97234	0.269864	0.121512	2.24	1.365	0.07	-23.229	-39.369	-4.2615
06/12/2025 11:49:06.737	0.959164	0.275232	0.130052	2.695	1.89	0.105	-22.851	-38.8215	-4.2
06/12/2025 11:49:06.757	0.95648	0.281576	0.130052	2.31	1.645	0.105	-23.223	-39.7665	-4.2495
06/12/2025 11:49:06.777	0.95892	0.294752	0.132492	1.33	0.98	-0.07	-22.8345	-39.8445	-4.4865
06/12/2025 11:49:06.797	0.962336	0.294264	0.137372	-0.245	1.05	-0.28	-23.382	-39.2805	-4.5
06/12/2025 11:49:06.817	0.951844	0.287432	0.130784	-1.505	1.33	-0.84	-22.9155	-39.6075	-4.4145
06/12/2025 11:49:06.837	0.94794	0.280356	0.127612	-1.575	1.365	-1.785	-23.2245	-39.6045	-4.3335
06/12/2025 11:49:06.857	0.9516	0.28304	0.122488	-0.735	1.785	-2.625	-22.764	-39.4515	-4.419
06/12/2025 11:49:06.877	0.961116	0.298656	0.123464	-0.42	2.135	-3.08	-22.995	-39.4425	-4.5765
06/12/2025 11:49:06.897	0.96746	0.288408	0.123708	-0.63	2.695	-3.36	-23.0715	-39.528	-4.3365
06/12/2025 11:49:06.917	0.961116	0.2867	0.121756	0.14	2.835	-3.5	-22.9935	-39.522	-4.5735
06/12/2025 11:49:06.937	0.95038	0.293532	0.119316	0.91	3.15	-3.605	-22.995	-39.3585	-4.737
06/12/2025 11:49:06.957	0.95404	0.302316	0.1159	0.665	2.8	-3.64	-23.5275	-39.825	-4.8
06/12/2025 11:49:06.977	0.964044	0.30134	0.122488	0	2.45	-3.5	-22.914	-39.6	-4.6515
06/12/2025 11:49:06.997	0.95038	0.292556	0.120536	-0.245	2.415	-3.535	-23.2965	-39.915	-4.5615
06/12/2025 11:49:07.017	0.960384	0.29036	0.118096	0.14	1.33	-3.955	-22.845	-39.216	-4.2675
06/12/2025 11:49:07.037	0.965752	0.294264	0.118584	-0.035	1.05	-4.34	-22.845	-39.0405	-4.8255
06/12/2025 11:49:07.057	0.9577	0.29524	0.12078	-0.49	0.56	-4.795	-22.5285	-39.6855	-4.6515
06/12/2025 11:49:07.077	0.9577	0.29768	0.120536	-1.26	-0.035	-5.005	-23.1465	-39.684	-4.41
06/12/2025 11:49:07.097	0.962336	0.291824	0.120536	-1.785	-0.525	-4.9	-22.6845	-39.441	-4.815
06/12/2025 11:49:07.117	0.963312	0.296948	0.12566	-1.645	-0.875	-4.655	-22.305	-39.219	-4.428
06/12/2025 11:49:07.137	0.964776	0.292556	0.122244	-1.26	-1.155	-4.095	-22.842	-39.2835	-4.6605
06/12/2025 11:49:07.157	0.963068	0.297436	0.12566	-1.575	-1.12	-3.5	-22.842	-39.2835	-4.6605
06/12/2025 11:49:07.177	0.964532	0.29402	0.126636	-1.785	-1.085	-3.08	-22.461	-38.9745	-4.593
06/12/2025 11:49:07.197	0.953308	0.286944	0.121512	-1.12	-0.805	-2.835	-22.4595	-39.0495	-4.749
06/12/2025 11:49:07.217	0.945256	0.29402	0.116632	-0.035	-0.63	-2.59	-22.3785	-39.282	-4.98
06/12/2025 11:49:07.237	0.948428	0.302316	0.118096	0.7	-0.49	-2.135	-22.302	-39.2895	-4.743
06/12/2025 11:49:07.257	0.94062	0.307684	0.11346	1.085	-0.455	-1.33	-22.302	-39.378	-4.4235
06/12/2025 11:49:07.277	0.944524	0.312076	0.113216	1.435	-0.945	-0.455	-22.221	-39.5295	-4.737
06/12/2025 11:49:07.297	0.955992	0.30866	0.11102	1.435	-1.4	0.35	-22.158	-38.664	-4.524
06/12/2025 11:49:07.317	0.96258	0.314028	0.112972	1.4	-1.925	0.63	-22.071	-39.2145	-4.746
06/12/2025 11:49:07.337	0.979416	0.31598	0.125904	0.805	-2.625	-0.28	-21.84	-39.3	-4.6665
06/12/2025 11:49:07.357	0.97234	0.306952	0.131272	-0.035	-2.835	-1.4	-21.84	-39.3	-4.6665
06/12/2025 11:49:07.377	0.98088	0.298168	0.136152	-0.98	-3.36	-2.415	-21.6855	-39.2205	-4.7475
06/12/2025 11:49:07.397	0.973804	0.285236	0.135908	-1.19	-3.115	-3.15	-21.3825	-39.0795	-4.2795
06/12/2025 11:49:07.417	0.962092	0.275476	0.140788	-1.12	-2.66	-3.15	-21.3045	-38.994	-4.5195
06/12/2025 11:49:07.437	0.95404	0.277428	0.145424	-0.595	-2.59	-2.485	-21.6885	-39.0615	-4.752
06/12/2025 11:49:07.457	0.950136	0.274988	0.146156	0.14	-2.45	-1.365	-21.3	-39.225	-4.7505
06/12/2025 11:49:07.477	0.9516	0.285236	0.140788	0.49	-2.38	-0.07	-21.2235	-39.231	-4.593
06/12/2025 11:49:07.497	0.9577	0.282064	0.144204	0.14	-2.135	1.47	-20.9235	-38.6775	-4.689
06/12/2025 11:49:07.517	0.9577	0.295728	0.140788	-0.21	-2.135	2.975	-20.997	-39.09	-4.1235
06/12/2025 11:49:07.537	0.963312	0.294264	0.130052	-0.315	-2.065	3.885	-21.147	-39.3165	-4.4325
06/12/2025 11:49:07.557	0.9699	0.300364	0.126636	-0.84	-2.415	4.235	-20.8515	-38.4495	-4.38
06/12/2025 11:49:07.577	0.965752	0.308172	0.125416	-1.75	-2.45	4.2	-20.535	-39.015	-4.2075
06/12/2025 11:49:07.597	0.97112	0.314028	0.12932	-3.325	-2.38	3.92	-21.3945	-38.2875	-4.224
06/12/2025 11:49:07.617	0.979172	0.309148	0.128344	-4.095	-1.89	3.115	-21.081	-38.691	-4.134
06/12/2025 11:49:07.637	0.975756	0.30012	0.122	-3.92	-1.05	2.065	-21.2385	-38.2785	-4.62
06/12/2025 11:49:07.657	0.961116	0.29768	0.121268	-2.835	0.245	0.105	-20.622	-38.373	-4.383
06/12/2025 11:49:07.677	0.956724	0.297436	0.120292	-2.835	0.525	-0.63	-20.622	-38.373	-4.383
06/12/2025 11:49:07.697	0.962824	0.285724	0.11834	-2.695	0.525	-0.77	-20.859	-37.887	-4.6335
06/12/2025 11:49:07.717	0.955992	0.294996	0.111508	-2.03	0.525	-0.56	-20.2455	-37.662	-4.485
06/12/2025 11:49:07.737	0.979172	0.322568	0.115656	-2.17	-0.945	0.735	-20.9355	-37.8855	-4.632
06/12/2025 11:49:07.757	0.947452	0.33428	0.151524	-6.3	-2.1	3.745	-20.3205	-37.908	-4.161
06/12/2025 11:49:07.777	0.918904	0.334768	0.173484	-11.34	-3.675	5.845	-19.854	-38.2305	-4.233
06/12/2025 11:49:07.797	0.931836	0.324764	0.172508	-14.98	-5.74	6.51	-19.8615	-37.677	-4.17
06/12/2025 11:49:07.817	0.967216	0.316468	0.172996	-16.1	-5.25	5.005	-20.1705	-37.5	-4.6485
06/12/2025 11:49:07.837	0.961604	0.316956	0.162992	-15.75	-2.03	2.345	-19.8585	-37.6545	-4.962
06/12/2025 11:49:07.857	0.969168	0.313784	0.152012	-16.1	0.35	-0.56	-19.935	-37.8255	-4.482
06/12/2025 11:49:07.877	0.9699	0.298412	0.151036	-17.01	2.835	-3.22	-19.548	-37.9995	-4.1625
06/12/2025 11:49:07.897	0.964288	0.278648	0.149816	-16.555	5.845	-5.6	-19.7055	-37.581	-4.806
06/12/2025 11:49:07.917	0.977464	0.298412	0.169824	-14.14	8.75	-8.26	-19.9365	-37.662	-4.644
06/12/2025 11:49:07.937	0.964532	0.336232	0.177632	-14.14	11.375	-10.955	-19.857	-37.7385	-4.8015
06/12/2025 11:49:07.957	0.9943	0.392596	0.18544	-18.375	12.215	-14.525	-19.938	-37.581	-4.7265
06/12/2025 11:49:07.977	1.02968	0.438468	0.203008	-32.795	17.395	-23.03	-19.938	-37.581	-4.7265
06/12/2025 11:49:07.997	1.042856	0.410896	0.186904	-38.115	21.77	-30.94	-19.938	-37.581	-4.7265
06/12/2025 11:49:08.017	1.037732	0.375516	0.233264	-31.255	23.695	-40.075	-18.921	-38.3805	-5.025
06/12/2025 11:49:08.037	1.010648	0.383568	0.293044	-11.41	28.385	-51.8	-19.1445	-38.7585	-5.565
06/12/2025 11:49:08.057	0.997716	0.489952	0.340868	9.38	33.67	-63.525	-18.984	-38.9865	-6.0345
06/12/2025 11:49:08.077	0.98698	0.596824	0.345992	13.265	40.565	-72.765	-19.212	-39.1305	-6.423
06/12/2025 11:49:08.097	0.993812	0.650748	0.352336	-1.155	44.59	-79.87	-18.816	-39.8535	-6.3255
06/12/2025 11:49:08.117	0.99064	0.663192	0.326472	-24.01	48.545	-86.52	-18.888	-39.9975	-6.795
06/12/2025 11:49:08.137	0.960872	0.631228	0.318176	-45.815	51.87	-92.855	-18.9555	-40.629	-6.8565
06/12/2025 11:49:08.157	0.940132	0.605608	0.349652	-59.535	55.3	-99.575	-18.402	-41.2455	-7.7895
06/12/2025 11:49:08.177	0.894748	0.615124	0.386008	-65.8	60.62	-103.67	-18.309	-42.105	-8.319
06/12/2025 11:49:08.197	0.850096	0.627812	0.41114	-71.33	63.945	-105	-18.0675	-42.486	-9.0195
06/12/2025 11:49:08.217	0.809104	0.603412	0.402112	-79.87	66.185	-102.585	-17.7405	-43.584	-9.6225
06/12/2025 11:49:08.237	0.782752	0.578768	0.406016	-84.28	67.48	-99.155	-17.3325	-44.7555	-10.539
06/12/2025 11:49:08.257	0.742248	0.549	0.405772	-83.685	69.055	-94.78	-17.3205	-45.207	-11.3955
06/12/2025 11:49:08.277	0.718336	0.556076	0.401868	-81.725	68.67	-89.565	-17.223	-46.3785	-12.0735
06/12/2025 11:49:08.297	0.67466	0.561688	0.40382	-82.6	68.88	-82.635	-17.223	-46.3785	-12.0735
06/12/2025 11:49:08.317	0.648308	0.526064	0.415044	-85.855	67.375	-76.265	-17.223	-46.3785	-12.0735
06/12/2025 11:49:08.337	0.635864	0.50142	0.422608	-85.295	64.085	-69.79	-15.966	-47.04	-14.589
06/12/2025 11:49:08.357	0.633424	0.497028	0.429928	-80.64	61.985	-64.05	-15.252	-47.97	-15.7515
06/12/2025 11:49:08.377	0.6161	0.506056	0.450424	-75.18	59.99	-58.03	-15.711	-48.1095	-16.14
06/12/2025 11:49:08.397	0.604144	0.536312	0.466284	-71.225	57.855	-53.585	-15.1605	-48.318	-17.4795
06/12/2025 11:49:08.417	0.586088	0.518256	0.476044	-69.685	53.725	-49.21	-14.9235	-48.546	-17.949
06/12/2025 11:49:08.437	0.560468	0.482876	0.487024	-64.365	48.72	-45.815	-14.5305	-48.6795	-19.053
06/12/2025 11:49:08.457	0.543876	0.4636	0.507764	-56.56	45.045	-43.225	-14.139	-48.996	-19.284
06/12/2025 11:49:08.477	0.511668	0.476776	0.528748	-48.93	42.21	-39.655	-13.4355	49.089	-20.3085
06/12/2025 11:49:08.497	0.488	0.465552	0.548512	-42.63	36.995	-35.56	-13.122	48.942	-20.859
06/12/2025 11:49:08.517	0.467016	0.456524	0.56242	-35.07	30.94	-32.095	-13.281	-49.1235	-20.7855
06/12/2025 11:49:08.537	0.419192	0.445544	0.58438	-26.775	25.445	-28.98	-12.8115	48.951	-21.3345
06/12/2025 11:49:08.557	0.396256	0.442128	0.631228	-19.985	18.69	-25.655	-12.894	-49.041	-21.1065
06/12/2025 11:49:08.577	0.382836	0.44774	0.660752	-13.79	12.215	-23.45	-12.27	48.9495	-21.5745
06/12/2025 11:49:08.597	0.369904	0.46726	0.710284	-7.63	7.14	-21.07	-12.348	48.9495	-21.5745
06/12/2025 11:49:08.617	0.3477	0.482632	0.76006	0.7	3.045	-19.635	-12.348	48.9495	-21.5745
06/12/2025 11:49:08.637	0.339892	0.490684	0.763232	4.585	1.435	-18.34	-12.348	48.9495	-21.5745
06/12/2025 11:49:08.657	0.336476	0.523136	0.76494	6.965	0	-16.765	-11.6565	49.0965	-21.504
06/12/2025 11:49:08.677	0.340136	0.555588	0.774456	5.95	-0.105	-15.75	-11.8815	48.705	-21.57
06/12/2025 11:49:08.697	0.340624	0.556564	0.793976	2.695	0.735	-15.05	-11.568	48.3825	-21.5625
06/12/2025 11:49:08.717	0.325496	0.560712	0.7991	1.26	2.555	-14.77	-11.109	48.525	-21.2535
06/12/2025 11:49:08.737	0.308416	0.554856	0.793732	0.105	3.395	-14.595	-11.4915	48.3795	-21.4845
06/12/2025 11:49:08.757	0.324276	0.5429	0.78568	1.575	2.94	-14.665	-11.181	48.2145	-21.4815
06/12/2025 11:49:08.777	0.347212	0.554612	0.808128	3.29	2.135	-13.79	-11.0265	48.2175	-21.639
06/12/2025 11:49:08.797	0.35136	0.585112	0.83448	2.625	3.885	-14.42	-11.334	48.138	-21.477
06/12/2025 11:49:08.817	0.354776	0.5856	0.843264	-3.92	5.39	-15.26	-11.262	48.2805	-20.9295
06/12/2025 11:49:08.837	0.362828	0.571936	0.842288	-9.17	5.845	-14.77	-11.253	47.7255	-20.9925
06/12/2025 11:49:08.857	0.352336	0.569496	0.837408	-10.395	7.595	-15.54	-10.566	48.108	-20.8485
06/12/2025 11:49:08.877	0.340136	0.570716	0.848632	-11.935	10.57	-16.765	-10.785	47.664	-21.8625
06/12/2025 11:49:08.897	0.3294	0.566324	0.852536	-12.285	13.615	-18.48	-10.551	47.334	-21.5385
06/12/2025 11:49:08.917	0.31232	0.577792	0.864736	-11.165	16.835	-19.985	-10.4745	47.496	-21.7005
06/12/2025 11:49:08.937	0.275964	0.590968	0.876692	-16.415	22.085	-22.19	-10.4745	47.496	-21.7005
06/12/2025 11:49:08.957	0.254492	0.571448	0.881816	-22.47	23.87	-23.555	-10.4745	47.496	-21.7005
06/12/2025 11:49:08.977	0.255956	0.574132	0.892308	-26.18	26.075	-25.445	-9.936	47.6565	-22.0245
06/12/2025 11:49:08.997	0.239608	0.554856	0.879864	-30.135	28.875	-27.195	-9.469501	47.583	-22.4985
06/12/2025 11:49:09.017	0.226188	0.52216	0.871812	-31.675	30.59	-26.915	-9.471	47.835	-22.98
06/12/2025 11:49:09.037	0.206424	0.523136	0.857904	-29.015	33.11	-27.125	-9.084	47.6655	-22.8195
06/12/2025 11:49:09.057	0.205692	0.522404	0.848876	-25.62	35	-27.72	-8.85	47.679	-23.3745
06/12/2025 11:49:09.077	0.197152	0.510936	0.842044	-21.945	35.63	-27.615	-8.229	47.517	-23.61
06/12/2025 11:49:09.097	0.176168	0.52216	0.836432	-17.675	36.61	-27.72	-7.9155	47.37	-24.1605
06/12/2025 11:49:09.117	0.159576	0.527772	0.833504	-14.98	36.26	-28.735	-7.602	47.049	-24.2325
06/12/2025 11:49:09.137	0.138104	0.53192	0.831796	-15.33	35.385	-28.665	-7.5255	47.13	-24.3135
06/12/2025 11:49:09.157	0.126636	0.519232	0.815204	-17.185	34.44	-28.7	-6.7545	47.379	-25.116
06/12/2025 11:49:09.177	0.101504	0.50996	0.797636	-19.215	32.69	-28.42	-6.525	47.367	-24.801
06/12/2025 11:49:09.197	0.101748	0.50874	0.795196	-20.02	29.82	-28.42	-6.372	47.532	-25.122
06/12/2025 11:49:09.217	0.09638	0.490684	0.80032	-19.6	26.67	-27.58	-5.823	47.0595	-25.506
06/12/2025 11:49:09.237	0.080764	0.488244	0.787144	-18.235	24.29	-26.495	-5.751	47.3685	-25.2795
06/12/2025 11:49:09.257	0.080276	0.514352	0.790072	-18.095	19.88	-25.655	-5.751	47.3685	-25.2795
06/12/2025 11:49:09.277	0.080032	0.502152	0.787388	-22.925	15.925	-23.87	-5.208	47.2905	-25.596
06/12/2025 11:49:09.297	0.091744	0.507764	0.806908	-27.265	12.775	-23.135	-5.043	46.8345	-26.373
06/12/2025 11:49:09.317	0.120048	0.49532	0.833504	-31.15	10.815	-22.855	-4.5975	47.853	-26.169
06/12/2025 11:49:09.337	0.111752	0.470188	0.823012	-30.59	10.29	-22.4	-4.1985	47.148	-26.703
06/12/2025 11:49:09.357	0.100528	0.438956	0.817888	-25.165	10.255	-22.225	-4.2105	47.94	-26.6475
06/12/2025 11:49:09.377	0.08174	0.43066	0.804224	-18.27	9.485	-21.56	-3.978	47.9415	-26.8065
06/12/2025 11:49:09.397	0.071492	0.431636	0.803736	-12.565	8.05	-20.475	-4.281	47.637	-27.1125
06/12/2025 11:49:09.417	0.07515199	0.422608	0.826428	-10.15	5.915	-19.565	-4.137	48.432	-27.2145
06/12/2025 11:49:09.437	0.090524	0.404308	0.837408	-8.785	3.43	-17.22	-3.588	47.7885	-27.1995
06/12/2025 11:49:09.457	0.088084	0.41114	0.843264	-6.125	2.905	-14.98	-3.4395	48.1035	-27.2085
06/12/2025 11:49:09.477	0.078812	0.40504	0.84302	-4.13	2.73	-13.44	-3.204	47.859	-27.1245
06/12/2025 11:49:09.497	0.073444	0.386496	0.867908	-3.885	1.33	-11.06	-3.2835	48.1995	-27.8445
06/12/2025 11:49:09.517	0.077592	0.377468	0.862784	-0.14	1.085	-8.645	-3.666	47.8755	-27.438
06/12/2025 11:49:09.537	0.07905599	0.390644	0.887916	3.85	0.42	-5.915	-3.5925	48.1125	-27.4455
06/12/2025 11:49:09.557	0.073444	0.381128	0.929396	7.945	0.595	-2.555	-2.973	47.9475	-27.5235
06/12/2025 11:49:09.577	0.058072	0.368196	0.937448	12.39	1.575	-1.4	-2.973	47.9475	-27.5235
06/12/2025 11:49:09.597	0.037088	0.405772	0.937448	16.905	3.08	-0.98	-2.895	47.8575	-27.2055
06/12/2025 11:49:09.617	0.00488	0.434076	0.942084	16.835	3.325	-0.665	-3.2685	47.07	-27.2595
06/12/2025 11:49:09.637	-0.002196	0.43432	0.960384	11.515	1.61	-0.315	-3.126	47.697	-27.0405
06/12/2025 11:49:09.657	0.000244	0.449936	0.96746	5.845	1.4	-0.7	-3.201	47.7075	-27.357
06/12/2025 11:49:09.677	-0.000732	0.44164	0.976244	1.68	2.66	-1.82	-3.432	47.625	-27.117
06/12/2025 11:49:09.697	0	0.444812	0.975756	-1.26	5.04	-1.68	-3.2055	47.7705	-26.8065
06/12/2025 11:49:09.717	0.00122	0.419192	0.988932	-1.82	7.84	-1.155	-2.9655	47.3835	-27.27
06/12/2025 11:49:09.737	-0.00732	0.411384	1.0248	-0.385	12.25	0.28	-3.126	47.5245	-26.562
06/12/2025 11:49:09.757	-0.04514	0.41602	1.061156	2.73	19.39	1.925	-3.5865	47.454	-26.637
06/12/2025 11:49:09.777	-0.087108	0.434564	1.0553	3.045	26.355	4.06	-2.8935	47.6115	-26.961
06/12/2025 11:49:09.797	-0.108824	0.47946	1.037488	2.765	32.025	3.605	-2.514	48.0825	-26.976
06/12/2025 11:49:09.817	-0.130052	0.489952	1.035048	-0.7	36.085	1.645	-3.1275	47.775	-26.964
06/12/2025 11:49:09.837	-0.134444	0.481168	1.038708	-7.14	36.82	-0.14	-2.5035	47.454	-27.195
06/12/2025 11:49:09.857	-0.130784	0.4697	1.02968	-12.67	38.045	-3.36	-2.277	47.862	-27.6825
06/12/2025 11:49:09.877	-0.126392	0.456036	0.999912	-20.58	40.39	-7.42	-1.974	47.9115	-26.817
06/12/2025 11:49:09.897	-0.140056	0.454328	0.964776	-24.57	42.77	-10.15	-1.815	47.931	-27.6075
06/12/2025 11:49:09.917	-0.134688	0.451888	0.934276	-28.455	43.89	-12.25	-1.743	48.2475	-27.618
06/12/2025 11:49:09.937	-0.13664	0.43432	0.905972	-30.31	44.765	-12.74	-1.4295	48.1005	-28.1685
06/12/2025 11:49:09.957	-0.138836	0.447252	0.883768	-28.665	45.08	-12.88	-1.353	48.0975	-28.089
06/12/2025 11:49:09.977	-0.142252	0.437004	0.858148	-29.225	44.205	-13.37	-0.5865	48.5715	-28.4235
06/12/2025 11:49:09.997	-0.15494	0.406992	0.851316	-31.22	41.58	-14.105	-0.6555	48.1065	-28.8045
06/12/2025 11:49:10.017	-0.163968	0.412848	0.835944	-30.975	39.27	-15.435	-0.6645	48.7455	-28.902
06/12/2025 11:49:10.037	-0.168848	0.40626	0.82228	-31.64	36.715	-16.485	0.3375	48.564	-28.665
06/12/2025 11:49:10.057	-0.179584	0.405284	0.816424	-34.265	33.39	-17.29	-0.1245	48.912	-29.463
06/12/2025 11:49:10.077	-0.187636	0.374784	0.79544	-36.96	30.205	-18.62	0.411	49.137	-29.3145
06/12/2025 11:49:10.097	-0.191296	0.34404	0.782752	-37.135	25.935	-18.76	0.723	48.9825	-29.628
06/12/2025 11:49:10.117	-0.192516	0.330864	0.77836	-34.825	22.645	-19.635	0.6435	-48.99	-30.0315
06/12/2025 11:49:10.137	-0.191784	0.333548	0.800808	-32.48	19.565	-19.67	1.1055	-48.909	-30.3525
06/12/2025 11:49:10.157	-0.185928	0.311344	0.8052	-33.845	16.59	-18.97	1.566	-48.8475	-29.9625
06/12/2025 11:49:10.177	-0.199836	0.276452	0.811788	-33.18	13.79	-17.71	1.488	-48.5925	-30.522
06/12/2025 11:49:10.197	-0.19764	0.256932	0.815204	-22.785	10.045	-14.77	1.56	-48.2775	-30.453
06/12/2025 11:49:10.217	-0.203984	0.242292	0.8113	-14.7	8.47	-13.475	1.56	-48.2775	-30.453
06/12/2025 11:49:10.237	-0.224968	0.231068	0.81984	-7.805	5.285	-11.725	2.016	-47.631	-31.1055
06/12/2025 11:49:10.257	-0.227164	0.24034	0.848144	-2.03	2.415	-10.92	2.016	-47.631	-31.1055
06/12/2025 11:49:10.277	-0.223016	0.244488	0.857172	-1.54	0.49	-9.03	2.013	-47.4765	-30.9525
06/12/2025 11:49:10.297	-0.232532	0.23302	0.864004	-1.4	-1.575	-7.56	2.1705	-47.715	-31.0245
06/12/2025 11:49:10.317	-0.244976	0.228384	0.86254	-0.455	-3.43	-6.44	2.022	-48.1095	-31.0125
06/12/2025 11:49:10.337	-0.236924	0.200568	0.877668	2.17	-6.86	-4.795	2.1705	-47.463	-31.506
06/12/2025 11:49:10.357	-0.231556	0.19398	0.914268	7.7	-8.715	-2.8	2.1795	-48.2685	-31.089
06/12/2025 11:49:10.377	-0.2318	0.232532	0.939644	15.995	-8.155	-1.75	2.3205	-47.4015	-30.9555
06/12/2025 11:49:10.397	-0.246684	0.263764	0.939888	18.76	-7.42	0.315	2.172	-47.8815	-30.783
06/12/2025 11:49:10.417	-0.242536	0.268888	0.940376	14.56	-8.61	1.54	1.872	-48.4305	-30.8445
06/12/2025 11:49:10.437	-0.24034	0.275964	0.930128	9.135	-9.24	1.75	2.178	-48.3645	-30.5325
06/12/2025 11:49:10.457	-0.231068	0.262544	0.92598	5.18	-9.8	1.995	2.331	-48.12	-30.8565
06/12/2025 11:49:10.477	-0.231312	0.255956	0.927688	5.11	-9.415	2.345	2.712	-47.9775	-30.468
06/12/2025 11:49:10.497	-0.243512	0.247172	0.942572	6.79	-8.785	3.08	1.95	-48.516	-30.6855
06/12/2025 11:49:10.517	-0.245464	0.26352	0.964532	10.955	-7.805	4.76	2.1	-48.195	-30.8535
06/12/2025 11:49:10.537	-0.251808	0.285968	0.965508	11.795	-6.195	5.985	2.256	-48.534	-30.2115
06/12/2025 11:49:10.557	-0.255956	0.288408	0.959164	9.555	-5.425	6.475	1.8705	-48.441	-30.45
06/12/2025 11:49:10.577	-0.264984	0.277428	0.962336	6.86	-4.725	6.685	1.9485	-48.606	-30.2865
06/12/2025 11:49:10.597	-0.27328	0.28304	0.974048	8.085	-3.29	6.09	2.184	-48.846	-30.36
06/12/2025 11:49:10.617	-0.27328	0.296216	0.976488	10.08	-1.12	5.25	2.184	-48.846	-30.36
06/12/2025 11:49:10.637	-0.270596	0.301584	0.959164	9.59	0.455	4.9	2.0295	-48.7575	-30.6
06/12/2025 11:49:10.657	-0.276696	0.314516	0.959164	8.085	1.47	3.99	2.265	-49.0875	-30.2745
06/12/2025 11:49:10.677	-0.274256	0.316956	0.958676	5.705	2.17	2.8	1.9515	-48.768	-30.204
06/12/2025 11:49:10.697	-0.275232	0.319884	0.947696	4.83	2.555	2.415	1.9545	-49.0905	-30.036
06/12/2025 11:49:10.717	-0.26596	0.325984	0.94916	4.725	3.045	1.47	2.5755	49.137	-30.432
06/12/2025 11:49:10.737	-0.263764	0.322812	0.942816	5.25	3.955	0.35	2.3385	-48.6795	-30.6825
06/12/2025 11:49:10.757	-0.255956	0.330864	0.94916	6.65	4.725	-1.015	2.1135	49.1475	-30.588
06/12/2025 11:49:10.777	-0.253516	0.339892	0.937936	5.53	5.565	-1.785	2.8065	49.044	-30.1155
06/12/2025 11:49:10.797	-0.257176	0.338916	0.93574	1.96	5.915	-2.52	2.961	48.879	-29.9535
06/12/2025 11:49:10.817	-0.254248	0.327448	0.933056	-1.365	5.985	-3.535	2.193	48.9045	-30.423
06/12/2025 11:49:10.837	-0.256444	0.310368	0.913292	-2.275	6.965	-4.34	2.5005	48.897	-30.3465
06/12/2025 11:49:10.857	-0.255224	0.31354	0.914024	-0.63	7.315	-4.095	2.5035	48.657	-30.2595
06/12/2025 11:49:10.877	-0.248392	0.316468	0.916952	1.085	7.735	-4.235	2.58	48.819	-30.423
06/12/2025 11:49:10.897	-0.25132	0.311832	0.905972	1.435	7.735	-4.55	3.1155	49.047	-30.354
06/12/2025 11:49:10.917	-0.252296	0.311344	0.904752	2.24	6.93	-5.11	2.9565	-49.0215	-30.2025
06/12/2025 11:49:10.937	-0.250832	0.306952	0.907192	4.235	6.16	-5.635	2.808	48.885	-30.111
06/12/2025 11:49:10.957	-0.254736	0.306708	0.89182	7.105	5.635	-5.775	2.808	48.885	-30.111
06/12/2025 11:49:10.977	-0.251076	0.33062	0.891088	10.465	4.76	-6.055	2.964	49.0605	-30.7485
06/12/2025 11:49:10.997	-0.254248	0.335256	0.876204	9.1	3.71	-5.6	3.2025	48.3255	-30.1755
06/12/2025 11:49:11.017	-0.25376	0.327692	0.875716	5.04	2.415	-5.215	3.432	48.486	-30.339
06/12/2025 11:49:11.037	-0.263032	0.312076	0.876936	1.68	1.05	-4.445	3.351	48.807	-30.4275
06/12/2025 11:49:11.057	-0.274012	0.305	0.863516	1.12	0.07	-3.36	3.513	48.3375	-30.7305
06/12/2025 11:49:11.077	-0.27206	0.310612	0.8662	2.205	-1.26	-1.855	3.5085	48.4785	-30.102
06/12/2025 11:49:11.097	-0.257176	0.317444	0.876204	3.395	-2.415	-0.49	3.819	48.405	-30.498
06/12/2025 11:49:11.117	-0.254736	0.325984	0.896212	3.605	-2.73	0.77	3.8865	49.1175	-30.4395
06/12/2025 11:49:11.137	-0.254248	0.345748	0.90402	3.78	-2.625	1.26	3.894	48.5625	-30.5025
06/12/2025 11:49:11.157	-0.2623	0.32574	0.903532	1.085	-2.695	1.82	3.975	48.237	-30.2565
06/12/2025 11:49:11.177	-0.26108	0.324032	0.904508	3.605	-2.45	1.435	4.206	48.402	-30.579
06/12/2025 11:49:11.197	-0.266448	0.346968	0.916708	6.79	-2.8	0.91	4.2795	48.6405	-30.6645
06/12/2025 11:49:11.217	-0.27084	0.353556	0.919148	4.2	-3.185	0.105	4.5195	47.9115	-30.2505
06/12/2025 11:49:11.237	-0.267912	0.337452	0.917684	-0.175	-4.585	-0.595	4.281	48.393	-30.342
06/12/2025 11:49:11.257	-0.26474	0.306952	0.914512	-2.1	-5.005	-1.015	3.9735	48.396	-30.261
06/12/2025 11:49:11.277	-0.262788	0.30866	0.913048	-0.07	-4.305	-0.875	4.2075	48.2355	-30.336
06/12/2025 11:49:11.297	-0.259372	0.32208	0.918172	1.12	-3.22	-0.49	4.3575	48.558	-30.5835
06/12/2025 11:49:11.317	-0.25864	0.325984	0.91256	-0.56	-2.59	0.14	4.3575	48.558	-30.5835
06/12/2025 11:49:11.337	-0.257908	0.310124	0.906948	-2.24	-2.695	1.225	4.5135	48.2235	-30.1005
06/12/2025 11:49:11.357	-0.26474	0.305488	0.9028	-1.855	-1.47	1.785	4.665	48.546	-30.348
06/12/2025 11:49:11.377	-0.268888	0.3172	0.90036	0.7	-1.365	2.555	4.122	48.882	-30.6705
06/12/2025 11:49:11.397	-0.264008	0.343552	0.915488	0.35	-1.12	2.38	4.362	48.1515	-30.2565
06/12/2025 11:49:11.417	-0.271084	0.327936	0.913292	-2.17	-1.19	2.205	4.44	48.4155	-31.212
06/12/2025 11:49:11.437	-0.277184	0.322324	0.905728	-2.415	-2.1	1.12	4.281	48.645	-30.8235
06/12/2025 11:49:11.457	-0.267912	0.330864	0.908168	-0.105	-2.135	0.63	4.596	48.2505	-31.05
06/12/2025 11:49:11.477	-0.262544	0.341844	0.911828	2.52	-0.49	-0.175	4.518	48.3315	-31.0515
06/12/2025 11:49:11.497	-0.268644	0.339404	0.903532	3.15	0.14	-0.245	4.206	48.4905	-30.897
06/12/2025 11:49:11.517	-0.267912	0.349164	0.918172	2.8	0.525	-0.56	4.593	48.3225	-30.8145
06/12/2025 11:49:11.537	-0.274744	0.34282	0.914024	2.03	0.595	-0.7	4.056	48.084	-30.489
06/12/2025 11:49:11.557	-0.274988	0.3355	0.904996	1.085	0.735	-0.525	4.131	48.249	-30.732
06/12/2025 11:49:11.577	-0.271084	0.328424	0.908168	-0.21	-0.035	-0.595	3.984	47.9445	-31.1175
06/12/2025 11:49:11.597	-0.271572	0.323788	0.909876	-1.05	-0.035	-1.05	4.131	48.333	-30.8925
06/12/2025 11:49:11.617	-0.262788	0.312564	0.920368	0.07	-0.385	-1.12	3.981	48.096	-30.885
06/12/2025 11:49:11.637	-0.253028	0.3294	0.927688	2.52	0.14	-1.26	4.2885	48.006	-30.6465
06/12/2025 11:49:11.657	-0.248148	0.347944	0.92354	1.4	1.295	-1.435	4.2885	48.171	-30.888
06/12/2025 11:49:11.677	-0.257664	0.32208	0.92232	-3.885	1.4	-1.05	4.2885	48.171	-30.888
06/12/2025 11:49:11.697	-0.254004	0.304268	0.924028	-4.655	1.505	-0.84	4.212	48.093	-30.885
06/12/2025 11:49:11.717	-0.255712	0.302316	0.927932	-0.175	3.115	-0.35	4.5945	48.159	-30.6525
06/12/2025 11:49:11.737	-0.260592	0.324032	0.92964	4.13	4.55	0	4.3665	48.174	-31.047
06/12/2025 11:49:11.757	-0.262056	0.352824	0.935984	4.48	5.355	0.315	4.2135	48.0135	-30.8835
06/12/2025 11:49:11.777	-0.269864	0.337452	0.93452	-1.19	5.985	1.47	4.443	48.258	-31.2075
06/12/2025 11:49:11.797	-0.267912	0.327936	0.937448	-1.785	6.44	1.4	4.443	48.258	-31.2075
06/12/2025 11:49:11.817	-0.270352	0.330864	0.920612	-2.345	7.385	1.365	4.68	47.772	-31.0365
06/12/2025 11:49:11.837	-0.2745	0.33428	0.913536	-2.975	7.105	0.77	4.5975	48.087	-30.888
06/12/2025 11:49:11.857	-0.265716	0.331352	0.900604	-3.15	7.35	0.21	4.284	48.405	-30.7365
06/12/2025 11:49:11.877	-0.27816	0.329888	0.89548	-3.045	7.595	-0.14	4.4415	48.2505	-30.9705
06/12/2025 11:49:11.897	-0.273768	0.335988	0.894016	-3.395	6.51	-0.595	4.83	48.0045	-30.8865
06/12/2025 11:49:11.917	-0.273036	0.32208	0.876448	-3.605	5.81	-0.875	4.983	48.3405	-31.608
06/12/2025 11:49:11.937	-0.27694	0.330132	0.8723	-2.345	4.9	-0.98	4.6755	48.174	-31.206
06/12/2025 11:49:11.957	-0.277672	0.322568	0.867908	-1.33	4.06	-1.05	4.4415	48.4215	-31.371
06/12/2025 11:49:11.977	-0.276452	0.325496	0.870104	-0.035	3.15	-0.525	5.0595	48.2505	-31.29
06/12/2025 11:49:11.997	-0.280356	0.329644	0.877912	1.155	2.625	-0.77	4.7475	48.4905	-31.2165
06/12/2025 11:49:12.017	-0.289628	0.33062	0.87108	0.35	1.785	-0.525	4.9065	48.168	-31.128
06/12/2025 11:49:12.037	-0.289872	0.324032	0.87352	-0.175	0.42	-0.175	4.9035	48.3225	-30.975
06/12/2025 11:49:12.057	-0.28914	0.323788	0.876936	0.665	-0.63	0.42	4.9035	48.3225	-30.975
06/12/2025 11:49:12.077	-0.286456	0.324764	0.880596	1.995	-1.785	0.735	4.743	48.72	-30.906
06/12/2025 11:49:12.097	-0.27938	0.315736	0.886696	2.94	-2.975	0.63	4.7505	48.3315	-31.212
06/12/2025 11:49:12.117	-0.295972	0.32452	0.895724	4.27	-3.15	0.35	4.7505	48.3315	-31.212
06/12/2025 11:49:12.137	-0.285968	0.325252	0.89792	3.745	-3.78	0.35	4.827	48.3285	-31.1325
06/12/2025 11:49:12.157	-0.287676	0.31964	0.893772	2.625	-4.095	0.455	4.6665	48.642	-30.9045
06/12/2025 11:49:12.177	-0.287188	0.323544	0.902556	2.38	-4.9	0.665	4.824	48.663	-31.695
06/12/2025 11:49:12.197	-0.282796	0.322812	0.913292	2.555	-4.585	0.665	4.137	48.1035	-31.2015
06/12/2025 11:49:12.217	-0.280112	0.333792	0.92598	2.975	-3.99	0.98	4.44	48.3315	-31.0515
06/12/2025 11:49:12.237	-0.278892	0.336476	0.919148	1.645	-2.555	0.56	4.4445	48.099	-31.203
06/12/2025 11:49:12.257	-0.268156	0.332816	0.921344	0.595	-2.17	0.875	4.3665	48.0945	-31.044
06/12/2025 11:49:12.277	-0.267668	0.323788	0.913048	1.225	-0.98	1.085	4.056	48.2565	-30.969
06/12/2025 11:49:12.297	-0.280844	0.332816	0.908412	2.555	0.455	0.805	4.1325	48.5115	-31.608
06/12/2025 11:49:12.317	-0.286944	0.336232	0.91012	2.52	0.84	0.91	4.3665	48.3465	-31.5255
06/12/2025 11:49:12.337	-0.282064	0.340624	0.914024	2.03	0.315	0.945	3.9765	48.5025	-31.212
06/12/2025 11:49:12.357	-0.26962	0.33794	0.91744	1.225	0.14	1.225	4.284	48.4905	-30.9765
06/12/2025 11:49:12.377	-0.279136	0.329888	0.910852	0.7	0.455	0.875	3.7455	48.252	-30.651
06/12/2025 11:49:12.397	-0.276696	0.349408	0.913536	1.05	0.7	0.7	3.7455	48.252	-30.651
06/12/2025 11:49:12.417	-0.271572	0.330376	0.909144	0.28	1.61	0.42	3.4395	48.357	-31.3635
06/12/2025 11:49:12.437	-0.275232	0.335012	0.910852	0.21	1.995	0.175	3.4395	48.357	-31.3635
06/12/2025 11:49:12.457	-0.271572	0.3355	0.912804	1.96	2.24	-0.035	3.747	48.258	-30.888
06/12/2025 11:49:12.477	-0.282796	0.346724	0.909876	2.275	3.01	0.28	3.906	48.027	-31.1985
06/12/2025 11:49:12.497	-0.280112	0.349896	0.90158	1.295	2.695	0.175	3.897	48.66	-31.137
06/12/2025 11:49:12.517	-0.279624	0.338184	0.89182	-0.77	2.1	0.315	4.287	48.2505	-30.891
06/12/2025 11:49:12.537	-0.283772	0.327204	0.887916	-0.98	1.645	0.455	4.128	48.576	-31.0575
06/12/2025 11:49:12.557	-0.2806	0.342332	0.898408	0.7	1.575	0.14	4.056	48.174	-30.8865
06/12/2025 11:49:12.577	-0.280356	0.347456	0.895724	0.945	1.33	0.595	3.825	48.351	-31.365
06/12/2025 11:49:12.597	-0.287188	0.336232	0.893284	0.28	1.505	0.525	3.9765	48.4185	-31.0515
06/12/2025 11:49:12.617	-0.275964	0.343308	0.886208	0.98	1.19	0.805	4.14	47.862	-31.116
06/12/2025 11:49:12.637	-0.26962	0.354776	0.89304	1.715	0.91	0.7	3.7485	48.186	-31.122
06/12/2025 11:49:12.657	-0.277672	0.35014	0.890844	1.225	1.295	0.42	4.0605	48.027	-31.278
06/12/2025 11:49:12.677	-0.273036	0.349896	0.8906	0.735	1.12	-0.035	4.2105	48.3405	-31.209
06/12/2025 11:49:12.697	-0.281088	0.343064	0.886208	1.085	0.945	-0.035	4.4415	48.252	-31.05
06/12/2025 11:49:12.717	-0.285724	0.338672	0.88572	2.905	0.805	-0.21	4.209	48.504	-31.371
06/12/2025 11:49:12.737	-0.29036	0.341844	0.883768	4.795	-0.595	0.175	4.362	48.4155	-31.1325
06/12/2025 11:49:12.757	-0.285236	0.347456	0.884988	5.39	-1.155	0.28	3.984	48.1125	-31.4385
06/12/2025 11:49:12.777	-0.283772	0.349896	0.89304	5.915	-1.68	0.42	4.3695	47.9385	-31.119
06/12/2025 11:49:12.797	-0.27328	0.3599	0.891332	6.405	-1.855	-0.035	4.3695	48.024	-31.359
06/12/2025 11:49:12.817	-0.281088	0.360144	0.890356	5.81	-1.68	-0.525	4.0575	48.183	-31.203
06/12/2025 11:49:12.837	-0.281332	0.371856	0.90646	5.67	-1.82	-0.945	4.2105	48.261	-31.206
06/12/2025 11:49:12.857	-0.2867	0.371368	0.907924	3.535	-1.995	-1.085	3.984	47.8575	-30.8775
06/12/2025 11:49:12.877	-0.282796	0.367708	0.908168	1.435	-1.89	-1.54	4.1325	48.255	-30.969
06/12/2025 11:49:12.897	-0.28792	0.348188	0.897676	0.175	-0.98	-1.715	4.059	48.018	-30.9615
06/12/2025 11:49:12.917	-0.281576	0.335256	0.88816	2.24	-0.42	-1.61	4.059	48.0195	-31.041
06/12/2025 11:49:12.937	-0.281088	0.335988	0.889624	8.26	0.595	-0.91	4.368	48.0975	-31.1235
06/12/2025 11:49:12.957	-0.282552	0.358924	0.885964	14.175	1.89	-0.525	3.675	47.862	-30.876
06/12/2025 11:49:12.977	-0.281332	0.380884	0.88328	16.87	2.835	-0.7	3.9075	47.688	-30.477
06/12/2025 11:49:12.997	-0.288164	0.392596	0.876204	15.225	3.185	-1.19	4.2165	47.688	-30.6375
06/12/2025 11:49:13.017	-0.2867	0.396256	0.877912	12.635	2.555	-1.505	4.215	47.679	-30.321
06/12/2025 11:49:13.037	-0.280112	0.38308	0.866932	10.465	2.275	-1.4	4.2105	48	-30.408
06/12/2025 11:49:13.057	-0.283528	0.369904	0.859612	12.04	1.05	-1.365	4.2105	48	-30.408
06/12/2025 11:49:13.077	-0.275232	0.382836	0.862784	14.98	0.315	-1.12	4.2105	48	-30.408
06/12/2025 11:49:13.097	-0.272548	0.3843	0.859856	16.415	0.21	-0.875	3.99	47.202	-30.147
06/12/2025 11:49:13.117	-0.279136	0.386008	0.849852	16.345	-0.805	-0.595	3.909	47.268	-29.6745
06/12/2025 11:49:13.137	-0.272548	0.403332	0.851072	16.835	-1.89	-0.35	4.2225	46.8615	-29.5065
06/12/2025 11:49:13.157	-0.274012	0.412116	0.862052	16.45	-2.625	0	4.455	46.95	-29.9055
06/12/2025 11:49:13.177	-0.268156	0.426756	0.869128	14.7	-2.66	0.315	4.068	47.0325	-29.8275
06/12/2025 11:49:13.197	-0.263764	0.424316	0.851804	12.425	-2.8	1.05	4.062	47.514	-29.9985
06/12/2025 11:49:13.217	-0.267668	0.41114	0.843508	12.39	-3.185	1.435	4.455	46.7745	-29.3475
06/12/2025 11:49:13.237	-0.275232	0.415288	0.846436	16.8	-3.5	1.855	4.3005	46.782	-29.505
06/12/2025 11:49:13.257	-0.274988	0.416264	0.843752	23.905	-3.78	1.89	4.452	46.935	-29.4315
06/12/2025 11:49:13.277	-0.272304	0.437004	0.83814	32.935	-3.92	1.89	4.296	47.097	-29.4345
06/12/2025 11:49:13.297	-0.270352	0.44286	0.839116	42.91	-4.83	1.855	4.3695	47.16	-28.884
06/12/2025 11:49:13.317	-0.270108	0.456036	0.836188	52.115	-4.69	1.61	4.38	46.272	-28.3845
06/12/2025 11:49:13.337	-0.283284	0.48434	0.834724	60.27	-3.36	0.91	4.3815	46.113	-28.38
06/12/2025 11:49:13.357	-0.2806	0.51606	0.829112	64.33	-2.275	-0.14	4.134	46.7055	-26.8155
06/12/2025 11:49:13.377	-0.290116	0.549488	0.825208	60.76	-1.155	-0.875	4.134	46.7055	-26.8155
06/12/2025 11:49:13.397	-0.286212	0.578768	0.813496	54.6	-0.56	-1.155	4.134	46.7055	-26.8155
06/12/2025 11:49:13.417	-0.291092	0.578768	0.80398	48.405	0.07	-1.54	3.996	45.1695	-25.743
06/12/2025 11:49:13.437	-0.29524	0.57584	0.810568	43.925	-0.14	-2.17	4.5375	44.9925	-25.425
06/12/2025 11:49:13.457	-0.293776	0.571448	0.806176	42.175	-0.175	-2.66	4.149	45.156	-25.3485
06/12/2025 11:49:13.477	-0.28914	0.58316	0.813008	43.82	0.245	-2.975	4.224	45.141	-24.8745
06/12/2025 11:49:13.497	-0.293044	0.606828	0.800808	44.59	1.75	-4.06	4.1505	44.733	-24.468
06/12/2025 11:49:13.517	-0.299388	0.633424	0.79178	41.58	0.63	-4.725	4.149	44.7285	-24.309
06/12/2025 11:49:13.537	-0.277672	0.644648	0.784704	37.905	-1.715	-5.32	4.224	44.7105	-23.7555
06/12/2025 11:49:13.557	-0.287676	0.614148	0.765428	39.445	2.205	-7.07	3.996	44.5605	-23.9085
06/12/2025 11:49:13.577	-0.299632	0.5917	0.739076	49.385	3.71	-7.875	3.9885	45.0345	-23.8425
06/12/2025 11:49:13.597	-0.287432	0.6161	0.716384	66.745	5.88	-9.905	3.9135	44.613	-22.962
06/12/2025 11:49:13.617	-0.299876	0.670024	0.689056	80.64	11.27	-11.48	4.0725	44.1225	-22.5525
06/12/2025 11:49:13.637	-0.311832	0.72346	0.669048	85.54	13.79	-12.74	4.374	44.25	-21.6105
06/12/2025 11:49:13.657	-0.314272	0.740296	0.633912	79.94	15.26	-13.685	3.9105	43.998	-20.889
06/12/2025 11:49:13.677	-0.339892	0.726144	0.614636	68.775	15.435	-13.125	3.9855	43.9815	-20.3355
06/12/2025 11:49:13.697	-0.338672	0.716628	0.57706	53.375	11.865	-10.36	3.9855	43.9815	-20.3355
06/12/2025 11:49:13.717	-0.317444	0.699304	0.559004	46.97	7.35	-7.35	3.9855	43.9815	-20.3355
06/12/2025 11:49:13.737	-0.321592	0.713456	0.53924	47.355	7.49	-6.265	4.3665	43.6935	-18.828
06/12/2025 11:49:13.757	-0.304024	0.727364	0.521916	53.13	5.775	-4.62	4.3665	43.773	-18.831
06/12/2025 11:49:13.777	-0.295972	0.750544	0.507032	59.64	6.265	-4.305	4.437	43.9095	-18.1245
06/12/2025 11:49:13.797	-0.307928	0.783484	0.495076	68.74	7.665	-4.515	4.5885	43.974	-17.652
06/12/2025 11:49:13.817	-0.302316	0.807396	0.476532	74.76	7	-5.565	4.587	43.707	-16.6965
06/12/2025 11:49:13.837	-0.3233	0.83448	0.468968	75.635	7.665	-6.335	4.5045	43.77	-16.0665
06/12/2025 11:49:13.857	-0.333304	0.839848	0.45506	72.485	6.51	-6.615	4.725	44.391	-15.69
06/12/2025 11:49:13.877	-0.337452	0.861076	0.452132	66.29	6.72	-7.315	4.647	44.124	-14.655
06/12/2025 11:49:13.897	-0.34038	0.88206	0.433344	57.68	6.335	-7.91	4.716	44.427	-14.19
06/12/2025 11:49:13.917	-0.345748	0.863028	0.418704	45.675	5.11	-7.21	5.025	44.3385	-14.031
06/12/2025 11:49:13.937	-0.36356	0.82472	0.407236	37.415	3.57	-6.02	4.638	44.5035	-14.034
06/12/2025 11:49:13.957	-0.347456	0.841068	0.378932	34.685	1.26	-3.815	4.782	44.8725	-13.176
06/12/2025 11:49:13.977	-0.343552	0.852048	0.372344	34.65	1.015	-3.325	4.7085	44.463	-12.69
06/12/2025 11:49:13.997	-0.341112	0.856684	0.372832	33.32	1.33	-2.345	4.863	44.292	-12.369
06/12/2025 11:49:14.017	-0.355264	0.869372	0.34892	34.055	5.04	-2.31	4.863	44.292	-12.369
06/12/2025 11:49:14.037	-0.352824	0.854244	0.348676	38.955	3.955	-1.54	4.863	44.292	-12.369
06/12/2025 11:49:14.057	-0.337696	0.854488	0.332084	47.705	4.69	-2.625	4.773	44.9925	-11.8365
06/12/2025 11:49:14.077	-0.351604	0.861808	0.314272	57.47	7.805	-2.695	4.4655	44.6595	-11.1135
06/12/2025 11:49:14.097	-0.361364	0.867908	0.297924	65.415	8.645	-2.275	4.536	44.88	-10.5675
06/12/2025 11:49:14.117	-0.348188	0.874008	0.285968	71.995	8.54	-2.31	4.5315	45.1125	-10.3365
06/12/2025 11:49:14.137	-0.343064	0.907192	0.260592	75.32	10.99	-2.66	4.062	45.423	-9.8685
06/12/2025 11:49:14.157	-0.354288	0.925736	0.238632	73.01	13.195	-1.925	3.5925	45.4725	-8.604
06/12/2025 11:49:14.177	-0.372832	0.91866	0.215208	66.115	12.88	0.21	4.047	45.852	-8.2215
06/12/2025 11:49:14.197	-0.356484	0.91744	0.184952	62.79	11.41	0.56	3.4275	45.8505	-7.824
06/12/2025 11:49:14.217	-0.355752	0.91622	0.168116	61.81	12.565	0.98	3.729	46.149	-7.3605
06/12/2025 11:49:14.237	-0.363072	0.89914	0.130296	62.825	14.35	1.96	3.573	46.224	-7.1235
06/12/2025 11:49:14.257	-0.376004	0.923296	0.118584	68.53	14.385	2.73	3.867	46.8255	-6.1155
06/12/2025 11:49:14.277	-0.376004	0.94916	0.087352	67.865	12.565	4.06	3.555	46.812	-5.481
06/12/2025 11:49:14.297	-0.382348	0.958432	0.058072	64.12	13.09	3.71	3.165	47.136	-5.4885
06/12/2025 11:49:14.317	-0.381616	0.945744	0.042944	60.62	10.745	3.395	2.6955	47.2785	-4.6995
06/12/2025 11:49:14.337	-0.380152	0.954528	0.018544	60.095	10.325	3.64	2.6955	47.2785	-4.6995
06/12/2025 11:49:14.357	-0.38674	0.96502	-0.009272	61.18	10.325	2.59	2.6835	47.808	-3.7665
06/12/2025 11:49:14.377	-0.377956	0.976976	-0.044408	59.325	8.89	1.715	2.295	47.9685	-3.612
06/12/2025 11:49:14.397	-0.379908	0.986736	-0.067588	52.78	7.84	1.365	2.511	48.573	-2.682
06/12/2025 11:49:14.417	-0.380884	0.993812	-0.068564	44.24	6.405	0.105	2.901	48.4125	-2.838
06/12/2025 11:49:14.437	-0.37698	0.97234	-0.080032	33.11	4.48	-0.595	2.739	48.7215	-2.451
06/12/2025 11:49:14.457	-0.360632	0.958188	-0.087352	25.375	3.64	-0.455	3.123	48.786	-2.139
06/12/2025 11:49:14.477	-0.360876	0.9455	-0.102236	21.77	4.165	-1.225	2.7285	-48.954	-2.232
06/12/2025 11:49:14.497	-0.378932	0.941596	-0.1037	19.425	3.535	-1.575	2.34	-48.882	-1.758
06/12/2025 11:49:14.517	-0.36722	0.94672	-0.109312	16.38	1.54	-0.875	2.721	-48.657	-1.5285
06/12/2025 11:49:14.537	-0.365512	0.941352	-0.11102	14.77	1.575	-0.98	2.3445	48.9285	-1.1895
06/12/2025 11:49:14.557	-0.36356	0.92476	-0.116876	16.205	0.875	-1.19	2.7945	-48.501	-1.455
06/12/2025 11:49:14.577	-0.358192	0.927444	-0.11102	17.99	0.315	-0.385	2.5635	-48.327	-1.854
06/12/2025 11:49:14.597	-0.354532	0.958676	-0.10858	17.36	-0.525	0.875	2.253	-48.504	-1.056
06/12/2025 11:49:14.617	-0.349652	0.95892	-0.108092	11.515	-0.035	0.91	2.4885	-48.6555	-1.449
06/12/2025 11:49:14.637	-0.35136	0.94184	-0.119316	2.8	-0.595	1.68	2.949	-48.4245	-1.458
06/12/2025 11:49:14.657	-0.352336	0.940864	-0.112972	-0.07	-1.26	1.96	2.949	-48.4245	-1.458
06/12/2025 11:49:14.677	-0.3599	0.93818	-0.106628	-1.4	-1.435	2.695	2.637	-48.177	-1.6215
06/12/2025 11:49:14.697	-0.353068	0.931104	-0.10736	-1.085	-0.805	3.01	2.5635	-48.5835	-1.2135
06/12/2025 11:49:14.717	-0.351116	0.939156	-0.113216	0.945	0	3.29	2.715	-48.4335	-0.9825
06/12/2025 11:49:14.737	-0.358436	0.940132	-0.110776	3.675	0.07	2.835	2.4855	-48.5055	-1.137
06/12/2025 11:49:14.757	-0.359412	0.935496	-0.11346	2.31	-0.735	3.92	2.64	-48.5895	-1.056
06/12/2025 11:49:14.777	-0.35624	0.938912	-0.118096	1.33	0.035	3.465	2.4075	-48.42	-1.2975
06/12/2025 11:49:14.797	-0.355508	0.943792	-0.122976	1.365	0.49	2.695	2.331	-48.585	-1.0545
06/12/2025 11:49:14.817	-0.36112	0.943304	-0.121268	1.4	1.365	2.31	2.253	-48.507	-0.978
06/12/2025 11:49:14.837	-0.361364	0.94184	-0.128832	1.68	2.345	1.505	2.2545	-48.495	-1.3725
06/12/2025 11:49:14.857	-0.356972	0.952332	-0.1281	1.575	2.975	0.56	2.2545	-48.5025	-1.1355
06/12/2025 11:49:14.877	-0.355752	0.94428	-0.127856	-0.7	3.01	0.735	2.406	-48.345	-1.1415
06/12/2025 11:49:14.897	-0.34526	0.928664	-0.132004	-1.54	1.575	1.015	2.0235	-48.4095	-1.4535
06/12/2025 11:49:14.917	-0.346236	0.917928	-0.120048	-0.84	1.785	0.735	2.0145	-47.853	-1.4685
06/12/2025 11:49:14.937	-0.34404	0.915488	-0.113216	0.7	1.4	1.47	2.0985	-48.33	-1.5345
06/12/2025 11:49:14.957	-0.357704	0.939156	-0.122732	4.935	2.135	1.61	2.175	-48.255	-1.38
06/12/2025 11:49:14.977	-0.36478	0.948672	-0.124928	4.585	1.96	1.925	2.175	-48.255	-1.38
06/12/2025 11:49:14.997	-0.360388	0.963068	-0.13054	4.27	2.065	1.61	1.8645	-48.1755	-1.2225
06/12/2025 11:49:15.017	-0.362584	0.957212	-0.128832	1.365	1.925	0.735	1.9455	-48.4935	-1.293
06/12/2025 11:49:15.037	-0.359412	0.9516	-0.127368	-1.505	1.925	0.56	1.8675	-48.414	-1.215
06/12/2025 11:49:15.057	-0.363316	0.9455	-0.122976	-1.785	2.065	0.14	1.7115	-48.2505	-1.2975
06/12/2025 11:49:15.077	-0.358192	0.941596	-0.128832	-1.855	2.345	0	2.331	-48.5055	-1.0575
06/12/2025 11:49:15.097	-0.352824	0.945988	-0.129564	-1.575	2.38	0.35	2.478	-48.1125	-0.99
06/12/2025 11:49:15.117	-0.35136	0.943304	-0.132736	-0.875	3.465	0.98	2.631	-47.952	-1.1535
06/12/2025 11:49:15.137	-0.353312	0.95648	-0.125416	0.875	3.5	1.085	2.094	-48.27	-0.825
06/12/2025 11:49:15.157	-0.333792	0.947696	-0.123464	-1.085	1.365	1.575	2.3235	-47.94	-1.389
06/12/2025 11:49:15.177	-0.342332	0.955016	-0.112728	-2.205	1.89	1.995	2.565	-48.666	-1.1325
06/12/2025 11:49:15.197	-0.345748	0.953552	-0.11712	-3.675	1.54	1.995	2.4825	-48.4305	-0.981
06/12/2025 11:49:15.217	-0.35258	0.951356	-0.117364	-4.935	1.785	2.31	2.6355	-48.099	-1.545
06/12/2025 11:49:15.237	-0.355996	0.942084	-0.12444	-4.34	1.82	2.415	2.5575	-48.189	-1.146
06/12/2025 11:49:15.257	-0.356972	0.933788	-0.126392	-3.045	1.96	2.975	2.4825	-48.261	-1.3815
06/12/2025 11:49:15.277	-0.3477	0.94306	-0.121268	-1.365	2.695	3.29	2.4825	-48.261	-1.3815
06/12/2025 11:49:15.297	-0.343552	0.948428	-0.126148	-1.4	3.29	2.765	2.4825	-48.261	-1.3815
06/12/2025 11:49:15.317	-0.339404	0.946964	-0.124196	-1.47	3.325	2.24	2.4825	-48.3495	-1.062
06/12/2025 11:49:15.337	-0.333548	0.94672	-0.119804	-1.75	1.715	1.295	2.4825	-48.258	-1.4595
06/12/2025 11:49:15.357	-0.320616	0.932324	-0.123708	-5.18	1.47	1.995	2.5665	-48.573	-1.6095
06/12/2025 11:49:15.377	-0.334768	0.950136	-0.124928	-3.885	3.64	2.135	2.2605	-48.897	-1.203
06/12/2025 11:49:15.397	-0.333548	0.951844	-0.116632	-2.485	3.08	1.995	2.0235	-48.4095	-1.4535
06/12/2025 11:49:15.417	-0.331108	0.950136	-0.11468	-2.31	2.975	2.38	2.3295	-48.2505	-1.617
06/12/2025 11:49:15.437	-0.340624	0.955016	-0.119804	-1.855	3.29	2.695	2.715	-48.2565	-1.62
06/12/2025 11:49:15.457	-0.332572	0.958676	-0.113704	-1.4	1.225	2.31	2.1735	-48.351	-0.8235
06/12/2025 11:49:15.477	-0.332572	0.957456	-0.11102	-2.94	1.96	2.625	2.103	-48.6495	-1.446
06/12/2025 11:49:15.497	-0.335012	0.948916	-0.114192	-3.885	2.45	2.345	1.95	-48.7335	-1.206
06/12/2025 11:49:15.517	-0.3294	0.951356	-0.11468	-3.92	2.065	2.38	1.8705	-48.483	-1.608
06/12/2025 11:49:15.537	-0.332084	0.952576	-0.110532	-1.75	2.555	2.345	1.9485	-48.651	-1.2885
06/12/2025 11:49:15.557	-0.3355	0.95648	-0.1098	-0.665	2.66	2.31	1.947	-48.402	-1.6905
06/12/2025 11:49:15.577	-0.331108	0.96258	-0.116144	-0.56	2.59	2.31	1.95	-48.6465	-1.446
06/12/2025 11:49:15.597	-0.343308	0.958676	-0.121268	-1.575	2.45	2.345	2.1045	-48.645	-1.605
06/12/2025 11:49:15.617	-0.345504	0.961116	-0.12078	-1.435	1.19	2.065	2.1045	-48.645	-1.605
06/12/2025 11:49:15.637	-0.335988	0.95404	-0.11224	-1.295	-0.42	1.295	1.4835	-48.486	-1.29
06/12/2025 11:49:15.657	-0.335744	0.94916	-0.115412	-2.24	0.805	0.875	1.953	-48.969	-1.278
06/12/2025 11:49:15.677	-0.342332	0.96014	-0.120536	-1.19	1.05	0.245	1.875	-48.885	-1.4385
06/12/2025 11:49:15.697	-0.343552	0.948672	-0.122244	-0.665	0.315	-0.525	2.1765	-48.3255	-1.6935
06/12/2025 11:49:15.717	-0.335744	0.94794	-0.12322	-0.91	-0.035	-0.315	2.178	-48.489	-1.5315
06/12/2025 11:49:15.737	-0.340624	0.951356	-0.123952	-0.77	0.42	-0.56	2.1765	-48.414	-1.3755
06/12/2025 11:49:15.757	-0.34038	0.953796	-0.122732	0.14	0.14	-0.875	1.8735	-48.639	-1.683
06/12/2025 11:49:15.777	-0.337452	0.953796	-0.122244	0.28	0.175	-0.945	2.2575	-48.4815	-1.848
06/12/2025 11:49:15.797	-0.337452	0.951356	-0.12322	0.7	-0.105	-0.77	2.0205	-48.3375	-1.218
06/12/2025 11:49:15.817	-0.343796	0.970632	-0.126148	1.75	-0.56	-0.63	2.334	-48.5715	-1.53
06/12/2025 11:49:15.837	-0.346236	0.975512	-0.11834	0.7	-1.995	-0.84	1.953	-48.7995	-1.6785
06/12/2025 11:49:15.857	-0.3416	0.971364	-0.118096	-1.96	-2.485	-0.945	2.253	-48.4185	-1.296
06/12/2025 11:49:15.877	-0.346236	0.98454	-0.1098	-4.41	-3.185	-0.805	2.028	-48.8955	-1.1235
06/12/2025 11:49:15.897	-0.34404	0.98576	-0.098088	-6.79	-3.535	-1.155	2.718	-48.414	-1.6935
06/12/2025 11:49:15.917	-0.338184	0.965752	-0.101504	-8.365	-3.99	-2.345	1.953	-48.7995	-1.6785
06/12/2025 11:49:15.937	-0.343064	0.96258	-0.10492	-6.195	-3.395	-2.485	2.2605	-48.804	-1.68
06/12/2025 11:49:15.957	-0.352336	0.96014	-0.092476	-3.815	-2.905	-2.835	2.184	-48.7215	-1.761
06/12/2025 11:49:15.977	-0.339404	0.959408	-0.094184	-3.08	-3.92	-3.22	2.184	-48.7215	-1.761
06/12/2025 11:49:15.997	-0.337696	0.963068	-0.09516	-1.855	-3.29	-3.99	2.499	49.017	-1.5885
06/12/2025 11:49:16.017	-0.34892	0.96624	-0.1037	-2.38	-3.36	-4.76	2.4135	-48.732	-1.5255
06/12/2025 11:49:16.037	-0.346968	0.953796	-0.103944	-4.795	-3.57	-5.81	2.187	-49.128	-1.434
06/12/2025 11:49:16.057	-0.339404	0.935252	-0.107116	-5.285	-3.92	-6.16	2.2635	-48.9675	-1.518
06/12/2025 11:49:16.077	-0.348676	0.93818	-0.10614	-3.36	-2.73	-5.81	2.4945	-48.966	-1.677
06/12/2025 11:49:16.097	-0.34892	0.93818	-0.110044	-1.855	-2.485	-5.705	2.19	-49.1115	-1.9875
06/12/2025 11:49:16.117	-0.342088	0.926468	-0.1098	-1.89	-2.31	-5.145	2.187	-49.044	-1.5945
06/12/2025 11:49:16.137	-0.3477	0.929152	-0.110532	-2.345	-2.59	-4.235	2.3445	49.0995	-1.59
06/12/2025 11:49:16.157	-0.346236	0.928176	-0.102968	-2.66	-3.115	-3.115	2.7375	48.705	-1.8975
06/12/2025 11:49:16.177	-0.343064	0.926956	-0.0976	-3.605	-3.57	-2.205	2.193	48.9495	-1.8225
06/12/2025 11:49:16.197	-0.335988	0.921832	-0.100528	-2.415	-4.97	-1.925	2.58	48.78	-1.6605
06/12/2025 11:49:16.217	-0.333548	0.917928	-0.091256	-2.415	-5.005	-0.84	1.881	49.1085	-1.6665
06/12/2025 11:49:16.237	-0.331596	0.933788	-0.088572	-1.645	-5.005	0.21	2.427	48.957	-2.2185
06/12/2025 11:49:16.257	-0.337208	0.925736	-0.077836	-2.1	-4.585	0.56	2.4285	48.714	-2.0535
06/12/2025 11:49:16.277	-0.335256	0.922564	-0.082716	-1.89	-3.745	0.84	1.9635	48.8805	-2.0565
06/12/2025 11:49:16.297	-0.335744	0.928664	-0.081496	-0.805	-2.905	0.91	2.505	48.882	-2.3745
06/12/2025 11:49:16.317	-0.339648	0.926956	-0.081984	-0.7	-1.54	1.33	2.514	48.0705	-1.7985
06/12/2025 11:49:16.337	-0.33794	0.94184	-0.074176	-0.385	-1.015	1.75	2.514	48.0705	-1.7985
06/12/2025 11:49:16.357	-0.334768	0.939644	-0.078568	-0.42	-0.455	2.38	2.8155	48.624	-1.8945
06/12/2025 11:49:16.377	-0.337208	0.942572	-0.078324	1.435	-0.14	2.695	2.664	48.5565	-2.208
06/12/2025 11:49:16.397	-0.34648	0.954284	-0.07198	2.275	-0.035	3.115	2.7375	48.7935	-2.2155
06/12/2025 11:49:16.417	-0.349652	0.946476	-0.068564	1.68	-0.35	3.115	2.739	48.549	-1.971
06/12/2025 11:49:16.437	-0.356728	0.955504	-0.076616	0.875	-0.35	3.36	2.8965	48.3915	-2.1255
06/12/2025 11:49:16.457	-0.373808	0.96624	-0.07198	0.14	-0.21	3.57	2.9655	48.858	-1.824
06/12/2025 11:49:16.477	-0.357704	0.96136	-0.06954	0.035	-2.24	2.87	2.5095	48.387	-1.728
06/12/2025 11:49:16.497	-0.349652	0.952576	-0.068564	-0.49	-1.75	2.8	3.126	48.3795	-1.8105
06/12/2025 11:49:16.517	-0.358192	0.962336	-0.069784	0.91	-0.455	2.66	2.973	48.4725	-2.208
06/12/2025 11:49:16.537	-0.345504	0.967948	-0.078324	-0.42	0.07	1.19	2.967	48.7785	-1.821
06/12/2025 11:49:16.557	-0.34526	0.957456	-0.080276	-0.98	0.7	-0.035	2.967	48.7785	-1.821
06/12/2025 11:49:16.577	-0.34404	0.953796	-0.078568	-1.085	1.05	-0.595	3.0495	48.3825	-1.89
06/12/2025 11:49:16.597	-0.346236	0.947696	-0.07905599	-0.35	1.645	-0.84	3.0555	47.988	-1.9575
06/12/2025 11:49:16.617	-0.3477	0.951844	-0.07905599	0.7	1.26	-1.015	3.132	48.066	-1.959
06/12/2025 11:49:16.637	-0.34038	0.947208	-0.0793	2.03	0.315	-1.295	3.5175	48.0585	-1.8825
06/12/2025 11:49:16.657	-0.345748	0.935984	-0.081496	0.665	0.595	-0.7	3.204	48.3825	-1.9695
06/12/2025 11:49:16.677	-0.351604	0.937936	-0.08174	0.28	0.735	0.385	3.666	48.3645	-1.5765
06/12/2025 11:49:16.697	-0.35258	0.93818	-0.0854	-0.455	0.07	1.505	3.666	48.3645	-1.5765
06/12/2025 11:49:16.717	-0.343064	0.94062	-0.087352	-0.84	-0.175	1.82	3.7575	47.589	-2.265
06/12/2025 11:49:16.737	-0.336476	0.938424	-0.077348	-1.05	-0.315	2.415	3.3585	48.381	-1.9695
06/12/2025 11:49:16.757	-0.34648	0.940864	-0.07808	-0.21	0.56	2.905	3.1335	47.991	-2.115
06/12/2025 11:49:16.777	-0.338184	0.96014	-0.081008	0.21	0.35	2.45	3.135	47.7375	-1.5555
06/12/2025 11:49:16.797	-0.326228	0.963312	-0.078812	-1.715	0.175	1.575	3.3645	48.0645	-2.04
06/12/2025 11:49:16.817	-0.320372	0.952332	-0.081252	-3.395	0.875	1.155	3.4425	47.9025	-1.956
06/12/2025 11:49:16.837	-0.341844	0.955748	-0.084912	-3.955	1.855	1.435	3.063	47.595	-2.1045
06/12/2025 11:49:16.857	-0.335256	0.952332	-0.07076	-3.5	0.595	1.47	3.363	48.063	-1.9605
06/12/2025 11:49:16.877	-0.339892	0.948672	-0.072956	-1.785	1.085	1.995	3.363	48.063	-1.9605
06/12/2025 11:49:16.897	-0.340136	0.946964	-0.071736	-0.105	0.63	2.135	3.2175	47.3385	-1.5435
06/12/2025 11:49:16.917	-0.348676	0.957944	-0.067832	1.4	0.63	1.96	3.294	47.508	-1.944
06/12/2025 11:49:16.937	-0.342576	0.961848	-0.067588	0.63	0.595	1.435	3.2955	47.256	-1.4625
06/12/2025 11:49:16.957	-0.3416	0.958188	-0.073444	-1.12	0.945	1.12	3.45	47.424	-1.8645
06/12/2025 11:49:16.977	-0.338672	0.953552	-0.080764	-1.575	1.47	0.84	3.6885	47.0295	-2.091
06/12/2025 11:49:16.997	-0.34282	0.959164	-0.07686	-1.47	1.785	0.875	3.453	47.2665	-1.938
06/12/2025 11:49:17.017	-0.333304	0.961604	-0.070272	-0.49	1.26	0.42	3.837	47.343	-2.022
06/12/2025 11:49:17.037	-0.324032	0.955504	-0.076128	0.14	1.435	-0.175	3.3765	47.106	-1.854
06/12/2025 11:49:17.057	-0.33306	0.954528	-0.07124799	0.63	2.555	-0.105	3.3765	47.106	-1.854
06/12/2025 11:49:17.077	-0.332328	0.95404	-0.07564	0.455	2.065	-0.105	3.6795	47.3295	-1.467
06/12/2025 11:49:17.097	-0.321836	0.944036	-0.07442	0.245	2.275	0.525	3.909	47.655	-1.8735
06/12/2025 11:49:17.117	-0.325984	0.942816	-0.07686	-0.35	2.94	1.33	3.903	47.9685	-1.7235
06/12/2025 11:49:17.137	-0.33916	0.944524	-0.078568	0.385	3.43	2.065	3.996	47.1105	-2.3325
06/12/2025 11:49:17.157	-0.32574	0.94306	-0.077836	1.085	3.045	2.135	4.0635	47.568	-1.713
06/12/2025 11:49:17.177	-0.330376	0.947452	-0.083936	1.295	3.045	2.485	4.2195	47.493	-1.9485
06/12/2025 11:49:17.197	-0.334036	0.954528	-0.091744	0.595	2.835	2.45	4.2195	47.493	-1.9485
06/12/2025 11:49:17.217	-0.3355	0.960628	-0.091012	0.98	2.8	2.45	4.221	47.5005	-2.187
06/12/2025 11:49:17.237	-0.326716	0.956968	-0.09394	1.19	2.835	2.275	4.5255	47.727	-1.9575
06/12/2025 11:49:17.257	-0.330376	0.951356	-0.09272	1.82	3.15	1.925	4.4505	47.487	-1.872
06/12/2025 11:49:17.277	-0.343552	0.95892	-0.08686399	2.45	3.185	1.61	4.617	46.7745	-2.01
06/12/2025 11:49:17.297	-0.338916	0.955992	-0.093208	3.5	1.785	0.525	3.8325	47.4045	-1.392
06/12/2025 11:49:17.317	-0.3355	0.960628	-0.091012	2.695	1.645	0.455	4.2945	47.565	-1.7145
06/12/2025 11:49:17.337	-0.343308	0.958676	-0.093696	2.485	1.645	0.315	4.377	47.16	-1.467
06/12/2025 11:49:17.357	-0.338916	0.963068	-0.087352	1.82	1.365	0.175	3.9915	47.0835	-1.383
06/12/2025 11:49:17.377	-0.32818	0.956968	-0.084424	0.98	0.665	0.105	4.449	47.4765	-1.476
06/12/2025 11:49:17.397	-0.331352	0.954528	-0.07808	2.17	0.7	-0.21	4.3665	47.793	-1.4055
06/12/2025 11:49:17.417	-0.327692	0.964532	-0.0854	1.925	0.91	-0.7	4.3665	47.793	-1.4055
06/12/2025 11:49:17.437	-0.33306	0.965264	-0.09638	1.155	1.89	-1.05	4.068	47.2455	-1.5465
06/12/2025 11:49:17.457	-0.321592	0.953552	-0.093696	0.84	2.03	-0.875	3.9915	47.1705	-1.623
06/12/2025 11:49:17.477	-0.331596	0.953064	-0.093696	1.715	2.38	-0.63	4.2195	47.403	-1.551
06/12/2025 11:49:17.497	-0.329156	0.95648	-0.101504	2.59	1.12	-1.12	4.29	47.7945	-1.4055
06/12/2025 11:49:17.517	-0.323788	0.951844	-0.102724	1.505	1.05	-0.945	4.29	47.7945	-1.4055
06/12/2025 11:49:17.537	-0.330132	0.948916	-0.103456	1.085	0.805	-0.77	4.455	46.908	-1.065
06/12/2025 11:49:17.557	-0.328912	0.954772	-0.09882	1.4	0.42	-0.49	4.1385	47.5575	-1.398
06/12/2025 11:49:17.577	-0.333304	0.948672	-0.10004	1.12	0.105	-0.315	4.296	47.3985	-1.473
06/12/2025 11:49:17.597	-0.327448	0.9455	-0.099064	0.805	-0.14	-0.105	4.065	47.232	-1.071
06/12/2025 11:49:17.617	-0.331352	0.941352	-0.104676	0.945	0.35	0.28	4.062	47.391	-1.0755
06/12/2025 11:49:17.637	-0.327448	0.9455	-0.09882	2.135	0.28	0.56	4.209	47.8635	-1.011
06/12/2025 11:49:17.657	-0.333304	0.954528	-0.100284	2.065	0.455	1.19	4.065	47.232	-1.071
06/12/2025 11:49:17.677	-0.3294	0.950136	-0.099796	1.75	0.385	1.225	4.215	47.553	-1.2405
06/12/2025 11:49:17.697	-0.326716	0.953796	-0.103944	1.05	-0.42	1.26	4.2915	47.628	-1.164
06/12/2025 11:49:17.717	-0.322568	0.953796	-0.10492	1.05	-0.525	1.505	4.29	47.622	-0.9255
06/12/2025 11:49:17.737	-0.332328	0.959408	-0.106628	1.225	-0.42	2.03	4.0695	47.0025	-1.3815
06/12/2025 11:49:17.757	-0.320128	0.964776	-0.107604	1.435	-1.015	1.995	4.143	47.154	-1.149
06/12/2025 11:49:17.777	-0.3172	0.962092	-0.102236	1.085	-1.4	1.925	4.143	47.154	-1.149
06/12/2025 11:49:17.797	-0.3172	0.952088	-0.0976	0.315	-1.47	1.645	3.987	47.4855	-1.5525
06/12/2025 11:49:17.817	-0.325252	0.951356	-0.098332	0.735	-1.26	1.785	4.371	47.4735	-1.317
06/12/2025 11:49:17.837	-0.325984	0.945256	-0.096624	0.84	-1.295	2.1	4.371	47.4735	-1.317
06/12/2025 11:49:17.857	-0.322324	0.948916	-0.0976	0.525	-1.295	2.66	3.906	47.469	-0.9195
06/12/2025 11:49:17.877	-0.326472	0.960872	-0.10004	0.595	-0.84	3.115	4.1415	47.31	-1.074
06/12/2025 11:49:17.897	-0.316468	0.955748	-0.097844	-0.56	-0.805	3.185	4.29	47.538	-0.765
06/12/2025 11:49:17.917	-0.314516	0.954772	-0.09638	-1.19	-0.945	3.185	4.065	47.232	-1.071
06/12/2025 11:49:17.937	-0.316224	0.96014	-0.092964	-0.735	-0.14	3.185	4.2195	47.148	-0.9915
06/12/2025 11:49:17.957	-0.317932	0.964532	-0.087596	-0.105	0.35	2.8	4.209	47.7765	-0.7725
06/12/2025 11:49:17.977	-0.314028	0.970144	-0.09028	-1.05	0.385	2.485	4.1385	47.3835	-0.84
06/12/2025 11:49:17.997	-0.316224	0.961604	-0.093452	-1.96	0.77	2.45	4.14	47.3925	-1.155
06/12/2025 11:49:18.017	-0.323056	0.96624	-0.093208	-3.15	0.91	2.8	4.1445	47.1555	-1.2285
06/12/2025 11:49:18.037	-0.325496	0.963068	-0.09076799	-3.99	0.98	2.8	3.7515	47.4705	-0.9195
06/12/2025 11:49:18.057	-0.31842	0.954772	-0.097844	-4.235	0.28	2.625	3.984	47.553	-1.1595
06/12/2025 11:49:18.077	-0.320616	0.970144	-0.088084	-3.605	0.63	2.38	3.7545	47.484	-1.3935
06/12/2025 11:49:18.097	-0.322812	0.99186	-0.09638	-6.895	0.315	2.205	3.9885	47.238	-1.23
06/12/2025 11:49:18.117	-0.320372	1.042612	-0.093452	-16.94	-0.56	1.47	3.7635	47.019	-1.7745
06/12/2025 11:49:18.137	-0.31354	1.015772	-0.068564	-40.285	-3.605	-0.14	3.7635	47.019	-1.7745
06/12/2025 11:49:18.157	-0.313296	0.96136	-0.0549	-49.21	-4.2	-0.595	2.9955	46.788	-1.6065
06/12/2025 11:49:18.177	-0.315004	0.936472	-0.035136	-47.74	-4.41	-0.91	3.5355	46.8735	-2.085
06/12/2025 11:49:18.197	-0.317688	0.929396	-0.019032	-39.76	-4.375	-0.805	3.162	46.254	-2.4615
06/12/2025 11:49:18.217	-0.307196	0.944036	-0.010248	-31.185	-3.57	-0.875	3.7035	46.0845	-2.3805
06/12/2025 11:49:18.237	-0.306708	0.965752	-0.012932	-27.335	-2.59	-0.56	3.4725	46.2585	-2.778
06/12/2025 11:49:18.257	-0.308904	0.964288	-0.004148	-29.015	-2.765	-0.28	3.0945	45.8835	-3.3195
06/12/2025 11:49:18.277	-0.308172	0.990152	0.0183	-34.195	-2.73	-0.035	3.4815	45.6255	-2.8395
06/12/2025 11:49:18.297	-0.305244	1.075796	0.027572	-51.17	-3.745	0.665	3.405	45.888	-3.6375
06/12/2025 11:49:18.317	-0.30378	1.081408	0.055144	-83.16	-5.6	1.12	3.4125	45.5865	-4.1805
06/12/2025 11:49:18.337	-0.303536	0.994544	0.069296	-113.89	-8.61	1.12	3.726	45.522	-4.8915
06/12/2025 11:49:18.357	-0.29646	0.894016	0.109556	-123.48	-10.43	1.365	3.5085	44.6655	-5.34
06/12/2025 11:49:18.377	-0.291824	0.86986	0.155672	-113.645	-10.885	2.625	3.3585	44.9445	-6.6915
06/12/2025 11:49:18.397	-0.28914	0.884744	0.19276	-99.33	-9.765	4.655	3.2925	44.3265	-7.2255
06/12/2025 11:49:18.417	-0.28548	0.861564	0.210572	-85.33	-8.33	5.88	3.927	43.6365	-8.394
06/12/2025 11:49:18.437	-0.289384	0.876448	0.227652	-71.82	-7.28	6.405	3.4725	43.2645	-9.0135
06/12/2025 11:49:18.457	-0.287432	0.91378	0.262544	-58.94	-7.315	7.525	3.4725	43.2645	-9.0135
06/12/2025 11:49:18.477	-0.29036	0.940132	0.289628	-62.09	-7.805	8.12	3.2445	43.458	-10.1235
06/12/2025 11:49:18.497	-0.314028	0.91744	0.321104	-67.445	-8.33	8.995	3.5625	42.903	-10.2675
06/12/2025 11:49:18.517	-0.309148	0.891088	0.352336	-69.23	-9.415	8.295	4.0305	42.927	-11.3775
06/12/2025 11:49:18.537	-0.29036	0.876204	0.376736	-66.325	-10.115	7.735	3.3405	42.7035	-11.5245
06/12/2025 11:49:18.557	-0.295972	0.892552	0.403088	-62.65	-8.54	7.385	3.1065	43.041	-12.087
06/12/2025 11:49:18.577	-0.306464	0.897676	0.412848	-61.81	-7.245	7.21	3.426	42.5775	-12.7065
06/12/2025 11:49:18.597	-0.29402	0.875716	0.436272	-60.725	-8.4	5.95	3.495	43.3125	-13.44
06/12/2025 11:49:18.617	-0.280356	0.863516	0.457744	-57.61	-8.225	4.76	3.276	42.69	-13.737
06/12/2025 11:49:18.637	-0.28426	0.860344	0.481412	-53.69	-6.685	3.605	3.126	42.465	-14.124
06/12/2025 11:49:18.657	-0.280356	0.860588	0.487512	-51.275	-6.02	2.905	3.048	42.804	-14.8455
06/12/2025 11:49:18.677	-0.273768	0.862784	0.505812	-49.98	-5.67	1.715	3.1335	42.5085	-15.627
06/12/2025 11:49:18.697	-0.271816	0.851316	0.521428	-51.345	-5.39	-0.21	3.3585	42.9	-15.561
06/12/2025 11:49:18.717	-0.270352	0.832528	0.533384	-55.125	-5.74	-0.63	3.753	42.5145	-16.1835
06/12/2025 11:49:18.737	-0.26718	0.81862	0.557296	-57.155	-6.09	-0.665	3.297	42.381	-16.809
06/12/2025 11:49:18.757	-0.268156	0.798368	0.572912	-55.02	-4.9	-1.715	3.2145	42.8745	-17.376
06/12/2025 11:49:18.777	-0.274744	0.790072	0.57096	-52.71	-3.745	-1.995	3.2145	42.8745	-17.376
06/12/2025 11:49:18.797	-0.275232	0.772748	0.591944	-52.885	-5.11	-2.765	3.2145	42.8745	-17.376
06/12/2025 11:49:18.817	-0.272792	0.751032	0.619028	-53.515	-5.355	-3.255	3.3	42.576	-18.0795
06/12/2025 11:49:18.837	-0.271328	0.760548	0.63806	-53.865	-4.795	-3.815	3.0705	42.759	-18.795
06/12/2025 11:49:18.857	-0.27572	0.764696	0.646844	-57.645	-4.305	-4.095	3.381	42.5985	-18.87
06/12/2025 11:49:18.877	-0.276208	0.712968	0.663924	-63.735	-5.145	-4.27	3.15	43.0335	-20.067
06/12/2025 11:49:18.897	-0.261812	0.677344	0.659288	-61.565	-4.655	-4.375	3.225	43.368	-20.709
06/12/2025 11:49:18.917	-0.260592	0.702232	0.658312	-55.125	-2.03	-3.85	3.2265	43.545	-21.3465
06/12/2025 11:49:18.937	-0.26962	0.702232	0.670024	-53.9	-0.91	-3.15	3.231	43.23	-21.417
06/12/2025 11:49:18.957	-0.260836	0.65392	0.671244	-56.035	-2.17	-3.43	2.763	43.8915	-22.065
06/12/2025 11:49:18.977	-0.255712	0.611464	0.687592	-50.505	-2.135	-3.045	3.1545	43.578	-22.4535
06/12/2025 11:49:18.997	-0.2562	0.605852	0.691252	-39.655	-0.91	-2.38	3.303	44.0595	-22.7055
06/12/2025 11:49:19.017	-0.256688	0.616832	0.693936	-31.64	-0.28	-1.995	3.615	43.905	-23.019
06/12/2025 11:49:19.037	-0.259616	0.618052	0.702964	-28.385	-1.435	-1.4	2.8455	44.0085	-23.412
06/12/2025 11:49:19.057	-0.260348	0.603656	0.71736	-27.79	-2.52	-1.085	3.0795	43.9335	-23.727
06/12/2025 11:49:19.077	-0.26596	0.587064	0.73078	-24.92	-3.535	-0.07	3.1545	44.094	-23.811
06/12/2025 11:49:19.097	-0.265228	0.58438	0.737612	-22.82	-4.515	0.49	3.1545	44.094	-23.811
06/12/2025 11:49:19.117	-0.260104	0.58194	0.753716	-21.805	-5.18	1.4	3.384	44.5125	-24.6945
06/12/2025 11:49:19.137	-0.255956	0.57828	0.761768	-21.175	-5.845	1.505	3.2295	44.343	-24.2145
06/12/2025 11:49:19.157	-0.26108	0.582184	0.763232	-18.9	-6.02	1.47	3.3855	44.433	-24.6915
06/12/2025 11:49:19.177	-0.258884	0.592188	0.76372	-17.85	-6.265	1.785	3.2355	44.1135	-24.5235
06/12/2025 11:49:19.197	-0.25498	0.57828	0.781044	-18.235	-7	2.205	3.1545	44.442	-24.849
06/12/2025 11:49:19.217	-0.253028	0.560468	0.787632	-15.645	-7.315	2.625	3.4605	44.6775	-24.936
06/12/2025 11:49:19.237	-0.25864	0.568276	0.800808	-11.13	-5.6	1.82	3.456	45.003	-25.182
06/12/2025 11:49:19.257	-0.257176	0.558028	0.797148	-8.54	-5.005	1.75	3.537	44.8515	-25.494
06/12/2025 11:49:19.277	-0.256444	0.566812	0.809592	-5.6	-4.375	1.505	3.459	44.841	-25.098
06/12/2025 11:49:19.297	-0.2562	0.583892	0.81496	-4.375	-2.345	0.49	2.9235	44.616	-25.248
06/12/2025 11:49:19.317	-0.263032	0.582916	0.817888	-6.79	-1.47	-0.245	3.225	45.0915	-25.4205
06/12/2025 11:49:19.337	-0.260592	0.578036	0.813496	-10.71	-1.505	-1.225	3.2985	45.5025	-25.9065
06/12/2025 11:49:19.357	-0.260104	0.556076	0.810324	-13.825	-0.84	-1.715	3.5385	44.943	-25.8915
06/12/2025 11:49:19.377	-0.252052	0.545828	0.81252	-12.005	-0.455	-2.275	3.459	45.0165	-25.6575
06/12/2025 11:49:19.397	-0.24644	0.557784	0.811544	-5.25	0.735	-2.73	3.0015	44.6265	-25.6425
06/12/2025 11:49:19.417	-0.248636	0.562908	0.812764	-3.22	0.98	-2.8	3.0015	44.6265	-25.6425
06/12/2025 11:49:19.437	-0.249612	0.559736	0.815204	-3.22	1.085	-3.15	3.3	45.2505	-25.425
06/12/2025 11:49:19.457	-0.244244	0.564128	0.810324	-4.55	1.89	-3.85	3.294	45.8175	-25.8375
06/12/2025 11:49:19.477	-0.244976	0.562664	0.807884	-7.945	2.065	-4.06	3.45	45.657	-25.833
06/12/2025 11:49:19.497	-0.246196	0.551196	0.808128	-10.71	2.345	-4.655	3.5265	45.825	-26.2335
06/12/2025 11:49:19.517	-0.249612	0.537776	0.799344	-12.18	2.31	-4.515	3.4515	45.579	-25.9095
06/12/2025 11:49:19.537	-0.255224	0.538996	0.795196	-11.76	2.17	-4.235	3.5295	45.6705	-26.3865
06/12/2025 11:49:19.557	-0.244732	0.5307	0.798368	-11.83	2.03	-3.85	3.6105	45.345	-26.1405
06/12/2025 11:49:19.577	-0.25254	0.5429	0.791048	-12.775	1.96	-4.165	3.3765	45.501	-25.908
06/12/2025 11:49:19.597	-0.24888	0.537776	0.799832	-16.24	1.085	-3.955	3.531	45.594	-26.4645
06/12/2025 11:49:19.617	-0.249612	0.504348	0.794464	-19.88	-0.175	-3.465	3.459	45.2775	-26.454
06/12/2025 11:49:19.637	-0.24156	0.50508	0.800808	-18.41	-0.77	-3.185	3.2985	45.843	-26.7075
06/12/2025 11:49:19.657	-0.239852	0.493856	0.801296	-14.455	-0.35	-2.765	3.531	45.765	-26.8635
06/12/2025 11:49:19.677	-0.237656	0.488	0.79056	-10.955	0.175	-1.785	2.9865	46.0875	-26.7915
06/12/2025 11:49:19.697	-0.248148	0.497272	0.802516	-5.39	0.315	-1.4	3.1365	46.494	-27.1995
06/12/2025 11:49:19.717	-0.246684	0.498248	0.80276	0.14	-0.315	-0.665	3.3	45.6855	-26.781
06/12/2025 11:49:19.737	-0.257908	0.511424	0.80276	1.575	-0.665	-0.42	3.3	45.6855	-26.781
06/12/2025 11:49:19.757	-0.262788	0.506544	0.800564	0.805	-1.085	-0.035	3.2175	45.9975	-26.553
06/12/2025 11:49:19.777	-0.266692	0.506056	0.816424	-0.49	-2.31	0.14	3.066	45.9255	-26.7075
06/12/2025 11:49:19.797	-0.258152	0.504836	0.816424	-0.875	-3.15	0.21	3.069	45.951	-27.5775
06/12/2025 11:49:19.817	-0.252296	0.496296	0.819596	-0.98	-3.255	0.63	3.0615	46.4205	-27.354
06/12/2025 11:49:19.837	-0.24888	0.504836	0.834236	0.49	-3.115	0.525	3.1455	45.9375	-27.183
06/12/2025 11:49:19.857	-0.253028	0.504836	0.836188	0.315	-2.555	0.49	3.1335	46.7355	-27.285
06/12/2025 11:49:19.877	-0.256688	0.496052	0.832528	0.07	-2.415	0.63	3.2925	46.326	-26.958
06/12/2025 11:49:19.897	-0.257664	0.492636	0.834968	0.91	-2.415	0.875	2.985	46.335	-27.114
06/12/2025 11:49:19.917	-0.2623	0.491416	0.826916	1.26	-1.96	1.05	2.7525	46.335	-26.955
06/12/2025 11:49:19.937	-0.259616	0.489952	0.829112	2.135	-1.82	1.33	2.823	46.5555	-26.409
06/12/2025 11:49:19.957	-0.261812	0.4941	0.825696	3.115	-1.68	1.715	2.982	46.4055	-26.8005
06/12/2025 11:49:19.977	-0.261568	0.500932	0.825696	4.095	-1.645	2.17	2.7525	46.4235	-27.2745
06/12/2025 11:49:19.997	-0.265472	0.500444	0.822524	4.375	-1.645	2.555	2.8275	46.4925	-26.9595
06/12/2025 11:49:20.017	-0.260836	0.503616	0.822036	5.845	-1.645	2.52	2.9055	46.2435	-26.637
06/12/2025 11:49:20.037	-0.257908	0.535092	0.818864	5.95	-1.19	1.96	2.9055	46.2435	-26.637
06/12/2025 11:49:20.057	-0.248148	0.54168	0.817888	2.8	-1.435	1.645	2.9055	46.2435	-26.637
06/12/2025 11:49:20.077	-0.238876	0.52826	0.812764	0.21	-2.31	1.715	2.2845	46.4895	-26.562
06/12/2025 11:49:20.097	-0.243512	0.512644	0.813008	0.735	-2.135	1.68	2.6655	46.7985	-26.4945
06/12/2025 11:49:20.117	-0.243024	0.522648	0.813252	4.97	-1.68	1.26	2.5965	46.4115	-26.799
06/12/2025 11:49:20.137	-0.244	0.53924	0.805688	6.475	-1.225	0.805	2.745	46.641	-26.5695
06/12/2025 11:49:20.157	-0.250588	0.534604	0.812032	4.935	-1.96	0.28	2.823	46.6395	-26.5695
06/12/2025 11:49:20.177	-0.240584	0.514108	0.811544	2.345	-3.115	0.21	2.13	46.575	-26.721
06/12/2025 11:49:20.197	-0.241072	0.514596	0.814472	3.85	-3.045	0.245	1.74	46.8135	-26.49
06/12/2025 11:49:20.217	-0.23912	0.519964	0.81496	6.44	-3.185	0.42	2.2815	46.725	-26.49
06/12/2025 11:49:20.237	-0.232044	0.533628	0.819108	7.525	-3.29	0.7	1.974	46.653	-26.565
06/12/2025 11:49:20.257	-0.229604	0.54778	0.822524	6.02	-3.15	0.56	1.5855	46.7265	-26.1705
06/12/2025 11:49:20.277	-0.230092	0.53802	0.824476	2.695	-3.01	0.7	1.7445	46.32	-25.9215
06/12/2025 11:49:20.297	-0.224968	0.533872	0.831308	0.7	-3.045	0.98	1.281	46.491	-26.082
06/12/2025 11:49:20.317	-0.224236	0.53314	0.829112	0.595	-2.31	1.12	1.5885	46.4835	-26.0055
06/12/2025 11:49:20.337	-0.224968	0.52948	0.826428	0.735	-1.855	1.47	1.4295	46.7985	-25.8555
06/12/2025 11:49:20.357	-0.22326	0.523624	0.830332	1.26	-1.05	1.4	1.4295	46.7985	-25.8555
06/12/2025 11:49:20.377	-0.22692	0.516792	0.826672	1.96	-0.595	1.505	1.4295	46.7985	-25.8555
06/12/2025 11:49:20.397	-0.228872	0.524112	0.825208	3.465	-0.35	1.68	1.2	46.4715	-25.371
06/12/2025 11:49:20.417	-0.22692	0.536312	0.823744	3.36	0.315	1.645	1.5105	46.482	-25.926
06/12/2025 11:49:20.437	-0.229116	0.536312	0.817888	1.96	0.28	1.68	1.2795	46.395	-25.527
06/12/2025 11:49:20.457	-0.23058	0.528748	0.81252	0.42	0.07	2.135	1.122	46.725	-25.851
06/12/2025 11:49:20.477	-0.239852	0.539484	0.817644	0.525	0.035	2.275	1.503	46.8705	-25.62
06/12/2025 11:49:20.497	-0.22936	0.55998	0.820816	1.855	0.49	2.17	0.9675	46.638	-25.5315
06/12/2025 11:49:20.517	-0.22814	0.551196	0.820572	0.28	0.455	2.135	1.1235	46.4745	-25.449
06/12/2025 11:49:20.537	-0.223992	0.54046	0.814716	-0.84	-0.28	1.855	0.963	46.8765	-25.539
06/12/2025 11:49:20.557	-0.219112	0.536556	0.813252	-0.525	-0.105	0.91	1.3545	46.5555	-25.611
06/12/2025 11:49:20.577	-0.234484	0.53436	0.817156	0.385	0.455	0.385	0.9675	46.5525	-25.293
06/12/2025 11:49:20.597	-0.233264	0.53924	0.810568	0.805	0.42	0.14	0.8175	46.323	-25.5225
06/12/2025 11:49:20.617	-0.235704	0.529724	0.809104	-0.105	0.28	0.385	1.275	46.4625	-25.134
06/12/2025 11:49:20.637	-0.227164	0.53314	0.809592	-0.28	0.315	0.875	1.119	46.7055	-25.218
06/12/2025 11:49:20.657	-0.231312	0.533872	0.817156	-0.035	0.56	1.12	0.3525	46.4865	-25.4445
06/12/2025 11:49:20.677	-0.238632	0.538996	0.81374	0.665	0.98	1.295	0.3525	46.4865	-25.4445
06/12/2025 11:49:20.697	-0.2501	0.533384	0.81984	0.35	0.665	1.435	0.3525	46.4865	-25.4445
06/12/2025 11:49:20.717	-0.242048	0.529236	0.8235	0.735	0.385	0.91	0.7365	46.389	-25.05
06/12/2025 11:49:20.737	-0.238388	0.541192	0.822036	1.785	0.42	0.245	1.4265	46.7895	-25.539
06/12/2025 11:49:20.757	-0.241804	0.550464	0.817644	-0.07	0.805	-0.735	1.5045	46.7865	-25.4595
06/12/2025 11:49:20.777	-0.237168	0.533628	0.812276	-3.08	0.63	-0.91	1.425	46.8645	-25.383
06/12/2025 11:49:20.797	-0.237168	0.532652	0.816424	-3.185	0.91	-0.91	1.503	46.8705	-25.62
06/12/2025 11:49:20.817	-0.2257	0.52704	0.809592	-2.45	1.505	-0.56	1.4235	46.944	-25.3845
06/12/2025 11:49:20.837	-0.231312	0.525088	0.805932	-1.96	2.1	-0.14	1.497	47.0925	-25.074
06/12/2025 11:49:20.857	-0.236436	0.533384	0.81008	-1.365	2.065	0.105	1.3515	46.458	-24.975
06/12/2025 11:49:20.877	-0.237168	0.521428	0.811544	-0.49	1.295	0.56	0.96	46.947	-25.224
06/12/2025 11:49:20.897	-0.244	0.523868	0.811788	0.805	0.735	0.7	1.3485	46.698	-25.062
06/12/2025 11:49:20.917	-0.246196	0.535336	0.808372	0.455	0.105	0.21	1.347	46.8615	-25.224
06/12/2025 11:49:20.937	-0.24644	0.537776	0.807152	-1.015	-0.595	-0.07	0.804	46.935	-24.75
06/12/2025 11:49:20.957	-0.246928	0.521916	0.802028	-1.19	-0.7	-0.315	1.191	46.8495	-24.7485
06/12/2025 11:49:20.977	-0.24522	0.530456	0.802516	0.14	-0.315	-0.035	0.9585	47.019	-24.99
06/12/2025 11:49:20.997	-0.239608	0.54534	0.811056	2.485	-0.455	0.315	0.9585	47.019	-24.99
06/12/2025 11:49:21.017	-0.23424	0.545584	0.805932	2.415	-0.35	0.175	0.9585	47.019	-24.99
06/12/2025 11:49:21.037	-0.243756	0.545584	0.80642	1.54	-0.455	-0.35	0.8145	46.3935	-25.2075
06/12/2025 11:49:21.057	-0.244	0.538264	0.8113	1.12	-1.365	-0.735	1.2735	46.7055	-25.299
06/12/2025 11:49:21.077	-0.232288	0.53924	0.805932	1.4	-2.065	-1.155	1.2735	46.6215	-25.1385
06/12/2025 11:49:21.097	-0.232532	0.538752	0.803736	1.33	-2.135	-1.68	0.8865	46.6215	-24.8985
06/12/2025 11:49:21.117	-0.234728	0.538752	0.803736	0.665	-2.8	-1.855	0.4215	46.8735	-25.14
06/12/2025 11:49:21.137	-0.23546	0.532164	0.806176	1.085	-2.345	-1.855	1.2705	46.779	-25.0635
06/12/2025 11:49:21.157	-0.227896	0.532164	0.804956	1.295	-1.925	-1.505	0.885	46.698	-24.822
06/12/2025 11:49:21.177	-0.223748	0.534116	0.80398	1.54	-1.575	-0.91	0.966	46.464	-24.9735
06/12/2025 11:49:21.197	-0.219356	0.531432	0.808616	2.345	-1.855	-0.35	1.0395	46.701	-24.981
06/12/2025 11:49:21.217	-0.218624	0.538508	0.813252	3.01	-2.205	0.21	0.9645	46.452	-24.579
06/12/2025 11:49:21.237	-0.215452	0.54046	0.813008	2.59	-2.94	0.7	1.3515	46.455	-24.897
06/12/2025 11:49:21.257	-0.224724	0.53558	0.810568	2.17	-3.78	1.155	1.119	46.626	-25.2165
06/12/2025 11:49:21.277	-0.222528	0.541924	0.82472	2.8	-3.99	1.33	0.888	46.5435	-24.975
06/12/2025 11:49:21.297	-0.216672	0.544364	0.830576	2.415	-3.99	1.26	1.119	46.533	-24.7395
06/12/2025 11:49:21.317	-0.222284	0.545584	0.823988	1.645	-3.22	0.805	1.119	46.533	-24.7395
06/12/2025 11:49:21.337	-0.227652	0.534604	0.81984	0.735	-2.8	0.875	1.4235	46.686	-24.666
06/12/2025 11:49:21.357	-0.221796	0.535336	0.822768	1.715	-1.96	1.155	1.044	46.38	-24.8925
06/12/2025 11:49:21.377	-0.227408	0.551196	0.809348	2.695	-0.63	1.295	1.428	46.365	-24.579
06/12/2025 11:49:21.397	-0.227896	0.550464	0.813252	2.03	-0.42	1.715	0.741	45.9855	-24.801
06/12/2025 11:49:21.417	-0.22936	0.54778	0.814472	1.75	-0.315	1.82	1.5015	46.7685	-24.828
06/12/2025 11:49:21.437	-0.224968	0.56242	0.814472	1.715	-0.21	1.715	1.584	46.2885	-24.735
06/12/2025 11:49:21.457	-0.217404	0.564128	0.809592	0.77	0	1.295	1.1235	46.047	-24.4095
06/12/2025 11:49:21.477	-0.2257	0.553148	0.800808	0.105	0.315	0.56	1.656	46.5165	-24.426
06/12/2025 11:49:21.497	-0.226432	0.545584	0.799344	-0.49	0.385	-0.07	1.659	46.614	-25.0605
06/12/2025 11:49:21.517	-0.226188	0.54046	0.801296	0.315	0	-0.28	1.584	46.368	-24.738
06/12/2025 11:49:21.537	-0.227652	0.545828	0.798368	1.61	0.385	-0.49	1.1955	46.5345	-24.819
06/12/2025 11:49:21.557	-0.223504	0.556076	0.797148	1.33	-0.035	-0.28	1.2735	46.368	-24.5775
06/12/2025 11:49:21.577	-0.22814	0.542168	0.802028	0.035	-0.77	0.21	1.1955	46.449	-24.579
06/12/2025 11:49:21.597	-0.217404	0.545096	0.80276	0.945	-1.05	0.385	1.7355	46.6965	-25.221
06/12/2025 11:49:21.617	-0.217648	0.546804	0.802272	1.75	-1.295	0.245	1.8105	46.602	-24.7455
06/12/2025 11:49:21.637	-0.219844	0.551196	0.809592	1.155	-1.75	0.42	1.8105	46.602	-24.7455
06/12/2025 11:49:21.657	-0.223016	0.54656	0.817156	1.47	-1.33	0.28	1.809	46.68	-24.669
06/12/2025 11:49:21.677	-0.21838	0.544608	0.809348	2.065	-1.26	0.42	1.965	46.6815	-24.828
06/12/2025 11:49:21.697	-0.219356	0.549244	0.804956	2.03	-1.05	0.595	1.965	46.6815	-24.828
06/12/2025 11:49:21.717	-0.2135	0.546804	0.807396	1.4	-1.05	0.77	1.5765	46.9335	-25.0695
06/12/2025 11:49:21.737	-0.211548	0.53924	0.803004	1.68	-0.735	0.91	1.425	46.5195	-24.4245
06/12/2025 11:49:21.757	-0.219112	0.55266	0.801784	2.835	-0.14	0.84	1.5855	46.1205	-24.414
06/12/2025 11:49:21.777	-0.212036	0.55388	0.80398	3.115	-0.595	0.91	1.575	46.9245	-24.753
06/12/2025 11:49:21.797	-0.21228	0.554124	0.798856	2.24	-0.91	1.575	1.275	46.29	-24.654
06/12/2025 11:49:21.817	-0.210084	0.561688	0.802028	2.03	-1.085	1.785	1.1925	46.6005	-24.3465
06/12/2025 11:49:21.837	-0.209108	0.562664	0.792268	1.26	-1.155	2.205	1.8165	46.1985	-24.4965
06/12/2025 11:49:21.857	-0.214964	0.559736	0.79544	0.7	-1.435	2.485	1.197	46.2855	-24.417
06/12/2025 11:49:21.877	-0.214476	0.560224	0.799832	1.26	-1.75	2.59	1.278	46.047	-24.489
06/12/2025 11:49:21.897	-0.210816	0.570472	0.809836	2.695	-1.96	2.59	1.584	46.1955	-24.258
06/12/2025 11:49:21.917	-0.203008	0.568032	0.80398	3.535	-2.24	2.38	1.047	46.1355	-24.648
06/12/2025 11:49:21.937	-0.204228	0.566568	0.80764	3.465	-2.03	2.065	1.128	45.8115	-24.4815
06/12/2025 11:49:21.957	-0.19642	0.567544	0.805688	2.835	-1.96	1.82	1.128	45.8115	-24.4815
06/12/2025 11:49:21.977	-0.204716	0.561444	0.804224	1.75	-0.98	1.68	0.966	46.29	-24.495
06/12/2025 11:49:21.997	-0.21594	0.547292	0.797636	0.735	-1.155	1.89	0.738	46.0515	-24.3285
06/12/2025 11:49:22.017	-0.208864	0.548024	0.804956	1.365	-1.225	2.38	0.9645	46.191	-23.781
06/12/2025 11:49:22.037	-0.198372	0.567056	0.802028	3.5	-0.665	2.94	0.813	46.122	-24.0945
06/12/2025 11:49:22.057	-0.199104	0.563884	0.797636	3.535	-0.42	3.255	0.813	46.122	-24.0945
06/12/2025 11:49:22.077	-0.200324	0.546316	0.787388	2.87	-0.595	3.325	1.047	46.047	-24.33
06/12/2025 11:49:22.097	-0.194468	0.538752	0.793732	5.74	-1.19	3.885	1.041	46.4445	-24.342
06/12/2025 11:49:22.117	-0.181292	0.54534	0.78934	12.11	-0.98	4.795	0.5835	46.137	-24.4875
06/12/2025 11:49:22.137	-0.180072	0.593652	0.789828	17.99	0.14	5.145	1.278	45.8685	-23.7735
06/12/2025 11:49:22.157	-0.190076	0.610976	0.786412	16.24	0.595	5.39	1.347	46.3455	-23.8665
06/12/2025 11:49:22.177	-0.194468	0.60756	0.793	10.85	0.07	5.705	0.735	45.9495	-23.535
06/12/2025 11:49:22.197	-0.190076	0.597556	0.785192	5.845	0.28	5.565	0.66	45.7935	-23.61
06/12/2025 11:49:22.217	-0.188368	0.589504	0.78324	3.01	0.21	5.81	0.7335	46.0245	-23.379
06/12/2025 11:49:22.237	-0.175436	0.586332	0.77836	3.15	0.77	5.985	0.5805	46.035	-23.6955
06/12/2025 11:49:22.257	-0.177144	0.583648	0.76616	5.6	2.135	7.455	0.8115	46.032	-23.6955
06/12/2025 11:49:22.277	-0.169092	0.58438	0.758352	7.98	2.695	8.925	0.8115	46.032	-23.6955
06/12/2025 11:49:22.297	-0.174948	0.598288	0.763964	10.325	2.905	10.955	0.735	45.858	-23.1375
06/12/2025 11:49:22.317	-0.17446	0.604632	0.768112	12.005	2.1	13.3	0.585	45.717	-23.6865
06/12/2025 11:49:22.337	-0.170556	0.632936	0.7686	12.46	1.47	14.735	0.5055	45.705	-23.211
06/12/2025 11:49:22.357	-0.168604	0.637084	0.7625	9.1	0.805	15.26	0.4215	46.356	-23.703
06/12/2025 11:49:22.377	-0.173972	0.620492	0.75152	5.67	-0.525	16.03	-0.267	45.789	-22.9725
06/12/2025 11:49:22.397	-0.171044	0.605852	0.753472	6.16	-1.47	16.625	-0.2685	45.864	-22.8165
06/12/2025 11:49:22.417	-0.16226	0.609268	0.750788	9.485	-1.54	17.71	-0.2685	45.864	-22.8165
06/12/2025 11:49:22.437	-0.151768	0.622444	0.743712	12.705	-1.33	18.69	-0.3405	45.5445	-22.728
06/12/2025 11:49:22.457	-0.140056	0.621468	0.730048	15.155	-1.19	20.02	-0.648	45.6435	-23.2035
06/12/2025 11:49:22.477	-0.1403	0.61976	0.716628	18.06	-0.84	21.455	-0.6525	45.7905	-22.812
06/12/2025 11:49:22.497	-0.143228	0.63196	0.705648	22.645	-0.105	22.47	-0.957	45.384	-22.3245
06/12/2025 11:49:22.517	-0.133712	0.655628	0.699548	26.215	-0.105	23.1	-1.4115	45.099	-23.1825
06/12/2025 11:49:22.537	-0.12566	0.672464	0.68442	27.965	-0.21	23.31	-1.497	45.3105	-22.2405
06/12/2025 11:49:22.557	-0.133956	0.678076	0.678076	28.105	-0.805	23.8	-1.116	45.5325	-21.8535
06/12/2025 11:49:22.577	-0.129076	0.69296	0.693692	26.88	-3.745	24.185	-1.4205	45.2205	-21.9225
06/12/2025 11:49:22.597	-0.11834	0.721752	0.692716	25.515	-5.425	23.87	-2.5725	44.8275	-21.4305
06/12/2025 11:49:22.617	-0.12688	0.731268	0.696864	22.925	-7.175	23.45	-2.268	44.973	-21.12
06/12/2025 11:49:22.637	-0.121512	0.7259	0.697352	19.18	-9.765	23.555	-2.19	44.8935	-21.198
06/12/2025 11:49:22.657	-0.106384	0.719312	0.703696	16.485	-11.62	22.785	-2.6565	44.967	-20.7225
06/12/2025 11:49:22.677	-0.089304	0.709796	0.7137	15.785	-11.2	21.385	-2.652	44.7315	-20.7945
06/12/2025 11:49:22.697	-0.063684	0.70638	0.70638	16.17	-9.485	20.79	-2.8065	44.6445	-20.4765
06/12/2025 11:49:22.717	-0.050264	0.710528	0.714188	19.635	-7.28	21.28	-3.3495	44.898	-20.7165
06/12/2025 11:49:22.737	-0.033672	0.71248	0.711504	22.54	-4.48	23.17	-2.8035	44.4015	-20.3115
06/12/2025 11:49:22.757	-0.029036	0.723948	0.7076	24.815	-2.065	24.78	-3.4995	44.49	-20.2305
06/12/2025 11:49:22.777	-0.021228	0.736148	0.690764	25.41	-0.875	25.725	-3.4995	44.49	-20.2305
06/12/2025 11:49:22.797	-0.021228	0.756156	0.694424	25.83	-0.315	26.67	-3.348	44.643	-20.157
06/12/2025 11:49:22.817	-0.022448	0.761768	0.677832	24.99	0.315	27.265	-3.7305	44.3205	-19.7505
06/12/2025 11:49:22.837	-0.023668	0.764452	0.671976	24.675	0.56	27.93	-3.5865	44.778	-19.2105
06/12/2025 11:49:22.857	-0.027816	0.755912	0.672464	24.5	0.385	27.86	-3.576	44.148	-19.3515
06/12/2025 11:49:22.877	-0.028304	0.763232	0.6588	24.325	1.05	27.405	-4.2735	44.2305	-19.113
06/12/2025 11:49:22.897	-0.02196	0.7686	0.651724	22.575	2.275	25.62	-4.431	44.4645	-18.882
06/12/2025 11:49:22.917	-0.00122	0.745664	0.639524	19.215	3.43	25.515	-4.7415	44.379	-18.4815
06/12/2025 11:49:22.937	0.018544	0.766404	0.64172	19.565	5.355	26.355	-4.3545	44.2935	-18.4815
06/12/2025 11:49:22.957	0.029768	0.793	0.653676	20.895	8.295	27.58	-4.8165	44.127	-18
06/12/2025 11:49:22.977	0.036356	0.81862	0.654652	18.025	9.73	30.275	-5.2035	44.2965	-18.1605
06/12/2025 11:49:22.997	0.0671	0.80154	0.665388	14.105	9.52	33.46	-5.5875	44.139	-17.997
06/12/2025 11:49:23.017	0.095648	0.785924	0.670756	13.335	10.71	35.105	-5.514	44.1225	-17.4435
06/12/2025 11:49:23.037	0.115168	0.758596	0.662704	14.875	12.95	35.7	-5.979	44.376	-17.7645
06/12/2025 11:49:23.057	0.117364	0.73322	0.647576	19.6	15.26	36.295	-5.8185	43.806	-17.3535
06/12/2025 11:49:23.077	0.115656	0.738344	0.63928	26.46	17.36	37.345	-6.2805	43.989	-17.91
06/12/2025 11:49:23.097	0.111508	0.7686	0.6344	32.445	19.67	38.955	-6.597	44.2035	-16.965
