time,ax,ay,az,gx,gy,gz,mx,my,mz,Label
07/03/2025 09:53:19.250,0.973804,0.178852,0.156648,-1.12,0.385,-1.12,-0.4185,-1.2675,-0.57,0
07/03/2025 09:53:19.270,0.977952,0.183732,0.156892,-1.085,0.49,-1.225,-0.4185,-1.26,-0.576,0
07/03/2025 09:53:19.290,0.986492,0.179828,0.157868,-0.245,0.595,-1.68,-0.4185,-1.257,-0.5745,0
07/03/2025 09:53:19.310,0.98576,0.183,0.158844,-0.28,0.7,-1.54,-0.4185,-1.257,-0.5745,0
07/03/2025 09:53:19.330,0.985516,0.182268,0.156404,-0.595,0.525,-1.26,-0.417,-1.2765,-0.5865,0
07/03/2025 09:53:19.350,0.979172,0.181536,0.160796,-0.91,0.35,-1.015,-0.405,-1.257,-0.5745,0
07/03/2025 09:53:19.370,0.972584,0.189832,0.155672,-1.225,-0.105,-0.945,-0.408,-1.26,-0.5835,0
07/03/2025 09:53:19.390,0.982344,0.182512,0.156404,-1.365,-0.42,-1.19,-0.4185,-1.2705,-0.582,0
07/03/2025 09:53:19.410,0.9821,0.188368,0.151036,-0.7,-0.77,-1.645,-0.4185,-1.2645,-0.5835,0
07/03/2025 09:53:19.430,0.987468,0.180316,0.154208,-0.035,-0.91,-1.96,-0.4185,-1.269,-0.5835,0
07/03/2025 09:53:19.450,0.983564,0.189588,0.153232,0.84,-1.19,-1.96,-0.4155,-1.266,-0.5775,0
07/03/2025 09:53:19.470,0.973804,0.18666,0.158112,1.33,-1.645,-1.715,-0.4275,-1.2735,-0.5775,0
07/03/2025 09:53:19.490,0.971608,0.192028,0.156404,0.945,-2.135,-1.61,-0.4155,-1.2795,-0.5775,0
07/03/2025 09:53:19.510,0.985028,0.183,0.159576,0.455,-2.45,-1.785,-0.426,-1.263,-0.573,0
07/03/2025 09:53:19.530,0.97722,0.187148,0.15372,0.945,-2.135,-2.03,-0.4215,-1.275,-0.567,0
07/03/2025 09:53:19.550,0.98454,0.192272,0.153964,1.645,-2.415,-2.345,-0.42,-1.263,-0.5775,0
07/03/2025 09:53:19.570,0.976488,0.199592,0.155916,2.17,-2.87,-2.835,-0.42,-1.263,-0.5775,0
07/03/2025 09:53:19.590,0.973072,0.193248,0.154452,2.8,-3.045,-3.01,-0.42,-1.263,-0.5775,0
07/03/2025 09:53:19.610,0.975268,0.2013,0.152988,3.43,-3.57,-3.01,-0.411,-1.2675,-0.5745,0
07/03/2025 09:53:19.630,0.97966,0.204716,0.153232,3.255,-3.815,-3.15,-0.4035,-1.2615,-0.5865,0
07/03/2025 09:53:19.650,0.988688,0.198616,0.156648,3.64,-4.025,-3.395,-0.4095,-1.254,-0.5775,0
07/03/2025 09:53:19.670,0.992348,0.194468,0.155428,3.815,-3.955,-3.5,-0.396,-1.263,-0.579,0
07/03/2025 09:53:19.690,0.989908,0.200812,0.15616,4.165,-3.85,-3.5,-0.399,-1.254,-0.5655,0
07/03/2025 09:53:19.710,0.989908,0.205692,0.160308,3.15,-3.535,-3.325,-0.393,-1.2495,-0.5625,0
07/03/2025 09:53:19.730,0.981368,0.192516,0.162992,1.575,-3.22,-3.08,-0.372,-1.233,-0.567,0
07/03/2025 09:53:19.750,0.983808,0.196664,0.162016,0.63,-2.765,-2.765,-0.39,-1.233,-0.561,0
07/03/2025 09:53:19.770,0.981124,0.192272,0.156404,0.175,-2.275,-2.38,-0.3975,-1.233,-0.5565,0
07/03/2025 09:53:19.790,0.974536,0.180072,0.156404,0.28,-1.68,-2.135,-0.3705,-1.221,-0.552,0
07/03/2025 09:53:19.810,0.976488,0.187392,0.153964,1.19,-1.33,-1.96,-0.381,-1.2315,-0.5535,0
07/03/2025 09:53:19.830,0.986004,0.19642,0.157624,1.89,-1.05,-1.75,-0.375,-1.2195,-0.5355,0
07/03/2025 09:53:19.850,0.98576,0.19642,0.15128,2.135,-0.84,-1.61,-0.3765,-1.23,-0.522,0
07/03/2025 09:53:19.870,0.981368,0.195932,0.153964,2.275,-0.56,-1.295,-0.3765,-1.23,-0.522,0
07/03/2025 09:53:19.890,0.982344,0.202764,0.144936,2.275,-0.28,-0.875,-0.3765,-1.2255,-0.519,0
07/03/2025 09:53:19.910,0.981612,0.199592,0.149572,2.345,-0.07,-0.63,-0.3765,-1.224,-0.5265,0
07/03/2025 09:53:19.930,0.981856,0.203984,0.149572,2.555,0.455,-0.42,-0.3675,-1.2375,-0.516,0
07/03/2025 09:53:19.950,0.981124,0.207644,0.143228,2.59,0.7,-0.315,-0.3855,-1.227,-0.5055,0
07/03/2025 09:53:19.970,0.98698,0.20984,0.142984,1.96,0.945,-0.315,-0.369,-1.23,-0.501,0
07/03/2025 09:53:19.990,0.986004,0.209596,0.142496,1.54,1.12,-0.21,-0.3705,-1.233,-0.498,0
07/03/2025 09:53:20.010,0.98332,0.208864,0.14152,1.505,1.225,-0.28,-0.3765,-1.224,-0.5055,0
07/03/2025 09:53:20.030,0.97966,0.216916,0.143472,2.17,1.05,-0.245,-0.3765,-1.218,-0.507,0
07/03/2025 09:53:20.050,0.981856,0.22082,0.136396,2.555,0.7,-0.35,-0.3675,-1.2375,-0.5145,0
07/03/2025 09:53:20.070,0.984784,0.219356,0.134932,2.66,0.525,-0.84,-0.3735,-1.227,-0.5265,0
07/03/2025 09:53:20.090,0.99064,0.226676,0.138348,3.115,0.875,-1.47,-0.3675,-1.2315,-0.507,0
07/03/2025 09:53:20.110,0.978684,0.229116,0.135664,2.345,0.84,-1.75,-0.3825,-1.224,-0.525,0
07/03/2025 09:53:20.130,0.98576,0.230824,0.131272,1.96,0.56,-1.575,-0.375,-1.221,-0.5175,0
07/03/2025 09:53:20.150,0.979904,0.233752,0.132736,1.995,0.455,-1.54,-0.366,-1.2255,-0.519,0
07/03/2025 09:53:20.170,0.983076,0.231068,0.132736,1.96,0.245,-1.855,-0.384,-1.23,-0.5175,0
07/03/2025 09:53:20.190,0.976,0.231312,0.123708,2.24,0.14,-2.31,-0.369,-1.2375,-0.5145,0
07/03/2025 09:53:20.210,0.977708,0.227652,0.124684,2.31,-0.42,-2.8,-0.375,-1.245,-0.5115,0
07/03/2025 09:53:20.230,0.97478,0.226188,0.13054,2.275,-0.84,-3.255,-0.3705,-1.233,-0.5115,0
07/03/2025 09:53:20.250,0.976244,0.22692,0.127368,2.135,-1.085,-3.465,-0.3795,-1.239,-0.5115,0
07/03/2025 09:53:20.270,0.976244,0.226676,0.122732,2.135,-1.225,-3.535,-0.381,-1.251,-0.4995,0
07/03/2025 09:53:20.290,0.979416,0.221796,0.131028,2.31,-1.295,-3.57,-0.375,-1.2405,-0.5085,0
07/03/2025 09:53:20.310,0.976732,0.226432,0.126392,2.065,-1.435,-3.395,-0.3885,-1.2585,-0.507,0
07/03/2025 09:53:20.330,0.979416,0.219112,0.130784,1.645,-1.4,-3.605,-0.3825,-1.2615,-0.4995,0
07/03/2025 09:53:20.350,0.97966,0.219844,0.1342,1.575,-1.855,-3.57,-0.3885,-1.272,-0.504,0
07/03/2025 09:53:20.370,0.976488,0.216428,0.130784,2.345,-2.17,-3.395,-0.3885,-1.272,-0.504,0
07/03/2025 09:53:20.390,0.975268,0.220576,0.132736,2.415,-2.275,-3.115,-0.3885,-1.2765,-0.513,0
07/03/2025 09:53:20.410,0.974292,0.231068,0.133712,1.505,-2.135,-2.485,-0.408,-1.272,-0.525,0
07/03/2025 09:53:20.430,0.967704,0.223992,0.139324,0.245,-1.68,-2.205,-0.3945,-1.29,-0.5205,0
07/03/2025 09:53:20.450,0.97112,0.223504,0.13542,-0.175,-1.4,-1.995,-0.3975,-1.2735,-0.537,0
07/03/2025 09:53:20.470,0.970144,0.220576,0.133712,0.63,-1.19,-1.925,-0.399,-1.2855,-0.5235,0
07/03/2025 09:53:20.490,0.978196,0.229604,0.135908,1.575,-1.155,-1.855,-0.396,-1.29,-0.534,0
07/03/2025 09:53:20.510,0.978928,0.234484,0.136152,1.575,-1.225,-1.785,-0.399,-1.2975,-0.546,0
07/03/2025 09:53:20.530,0.97478,0.228628,0.141276,0.91,-1.19,-1.435,-0.4035,-1.2795,-0.537,0
07/03/2025 09:53:20.550,0.97112,0.230824,0.14152,0.7,-1.05,-1.155,-0.402,-1.2855,-0.5565,0
07/03/2025 09:53:20.570,0.972584,0.235216,0.136396,1.085,-0.7,-0.84,-0.393,-1.2825,-0.5595,0
07/03/2025 09:53:20.590,0.975756,0.238632,0.134688,0.84,-0.315,-0.735,-0.399,-1.2945,-0.558,0
07/03/2025 09:53:20.610,0.975024,0.238876,0.13542,-0.14,0.07,-0.735,-0.3855,-1.2915,-0.558,0
07/03/2025 09:53:20.630,0.971608,0.238144,0.134932,-0.56,0.42,-0.56,-0.402,-1.2885,-0.5565,0
07/03/2025 09:53:20.650,0.969168,0.23302,0.129076,-0.7,0.665,-0.56,-0.402,-1.2885,-0.5565,0
07/03/2025 09:53:20.670,0.974292,0.234484,0.127856,-0.385,0.49,-0.49,-0.3855,-1.2945,-0.5445,0
07/03/2025 09:53:20.690,0.96624,0.2379,0.1281,0.42,0.49,-0.525,-0.3975,-1.2915,-0.567,0
07/03/2025 09:53:20.710,0.96746,0.244488,0.12688,1.155,0.315,-0.735,-0.4035,-1.287,-0.5565,0
07/03/2025 09:53:20.730,0.97112,0.250344,0.124928,1.54,0,-1.12,-0.396,-1.2915,-0.5565,0
07/03/2025 09:53:20.750,0.977464,0.253272,0.11834,1.645,-0.14,-1.365,-0.4035,-1.2915,-0.5475,0
07/03/2025 09:53:20.770,0.975756,0.252052,0.121512,1.435,-0.315,-1.855,-0.3975,-1.2915,-0.543,0
07/03/2025 09:53:20.790,0.977464,0.248636,0.122,1.085,-0.455,-1.82,-0.4035,-1.299,-0.555,0
07/03/2025 09:53:20.810,0.970876,0.25254,0.112972,0.875,-0.315,-1.715,-0.399,-1.2855,-0.549,0
07/03/2025 09:53:20.830,0.974536,0.249856,0.111508,0.56,-0.63,-1.82,-0.402,-1.2825,-0.558,0
07/03/2025 09:53:20.850,0.973316,0.243756,0.11102,0.77,-0.91,-2.31,-0.4035,-1.2855,-0.5565,0
07/03/2025 09:53:20.870,0.98088,0.244732,0.10858,1.33,-1.295,-2.695,-0.4095,-1.2825,-0.57,0
07/03/2025 09:53:20.890,0.981856,0.236924,0.104432,3.29,-1.4,-2.87,-0.3885,-1.278,-0.552,0
07/03/2025 09:53:20.910,0.96746,0.25864,0.106628,6.3,-1.925,-2.835,-0.3885,-1.278,-0.552,0
07/03/2025 09:53:20.930,0.977464,0.261324,0.110532,5.39,-3.045,-2.8,-0.3885,-1.278,-0.552,0
07/03/2025 09:53:20.950,0.983076,0.25132,0.106384,4.2,-3.605,-3.22,-0.381,-1.269,-0.5595,0
07/03/2025 09:53:20.970,0.994056,0.247904,0.114924,4.375,-3.78,-3.92,-0.3795,-1.2615,-0.555,0
07/03/2025 09:53:20.990,0.982832,0.255468,0.11224,4.2,-3.395,-3.99,-0.381,-1.251,-0.543,0
07/03/2025 09:53:21.010,0.97234,0.265472,0.1098,4.025,-3.675,-3.745,-0.3675,-1.2615,-0.5445,0
07/03/2025 09:53:21.030,0.97234,0.267668,0.110532,3.5,-4.27,-3.5,-0.3675,-1.251,-0.534,0
07/03/2025 09:53:21.050,0.979904,0.26962,0.110044,2.73,-4.445,-3.64,-0.3645,-1.254,-0.5295,0
07/03/2025 09:53:21.070,0.980636,0.266692,0.108336,2.17,-4.655,-4.13,-0.363,-1.2345,-0.531,0
07/03/2025 09:53:21.090,0.973804,0.269132,0.11346,2.1,-4.48,-4.41,-0.366,-1.2405,-0.5145,0
07/03/2025 09:53:21.110,0.97112,0.265228,0.113704,2.485,-4.445,-4.62,-0.3555,-1.2525,-0.516,0
07/03/2025 09:53:21.130,0.974048,0.263276,0.119804,2.135,-4.55,-4.83,-0.348,-1.2495,-0.507,0
07/03/2025 09:53:21.150,0.976976,0.267668,0.122,1.155,-4.305,-4.935,-0.3495,-1.2435,-0.504,0
07/03/2025 09:53:21.170,0.96746,0.257176,0.125416,0.84,-3.92,-4.725,-0.3675,-1.242,-0.498,0
07/03/2025 09:53:21.190,0.97112,0.258152,0.122976,1.295,-3.57,-4.69,-0.3675,-1.242,-0.498,0
07/03/2025 09:53:21.210,0.970876,0.255224,0.114192,1.19,-2.87,-4.445,-0.3615,-1.251,-0.4845,0
07/03/2025 09:53:21.230,0.973072,0.256688,0.112972,1.4,-2.485,-4.34,-0.3525,-1.2495,-0.4875,0
07/03/2025 09:53:21.250,0.981368,0.262056,0.110532,1.68,-2.345,-4.34,-0.348,-1.245,-0.4815,0
07/03/2025 09:53:21.270,0.983564,0.274744,0.111264,1.89,-2.31,-4.305,-0.351,-1.251,-0.4935,0
07/03/2025 09:53:21.290,0.978928,0.284748,0.108336,2.31,-2.24,-4.27,-0.354,-1.248,-0.477,0
07/03/2025 09:53:21.310,0.971852,0.28792,0.105408,3.15,-2.415,-4.13,-0.333,-1.254,-0.489,0
07/03/2025 09:53:21.330,0.968192,0.299388,0.099308,3.745,-2.17,-4.41,-0.348,-1.2555,-0.4815,0
07/03/2025 09:53:21.350,0.96624,0.311832,0.097844,3.675,-2.1,-4.935,-0.3525,-1.2495,-0.4935,0
07/03/2025 09:53:21.370,0.9699,0.31232,0.094428,3.29,-2.24,-5.705,-0.3495,-1.2435,-0.4875,0
07/03/2025 09:53:21.390,0.975024,0.323544,0.087596,3.675,-2.345,-6.615,-0.3495,-1.2435,-0.4875,0
07/03/2025 09:53:21.410,0.970632,0.325008,0.088328,4.27,-2.31,-7.28,-0.345,-1.239,-0.4875,0
07/03/2025 09:53:21.430,0.968924,0.332084,0.086132,4.935,-2.625,-8.12,-0.345,-1.248,-0.489,0
07/03/2025 09:53:21.450,0.967948,0.330864,0.094184,5.075,-3.5,-9.485,-0.3405,-1.245,-0.4875,0
07/03/2025 09:53:21.470,0.96746,0.32452,0.08295999,4.515,-3.675,-10.36,-0.3495,-1.263,-0.486,0
07/03/2025 09:53:21.490,0.967948,0.323788,0.085156,4.48,-3.78,-11.235,-0.342,-1.26,-0.468,0
07/03/2025 09:53:21.510,0.963312,0.328668,0.08784,4.97,-3.64,-12.145,-0.345,-1.2765,-0.489,0
07/03/2025 09:53:21.530,0.963556,0.320128,0.099308,5.845,-3.71,-12.985,-0.3555,-1.26,-0.465,0
07/03/2025 09:53:21.550,0.966484,0.329644,0.090524,6.335,-3.71,-13.51,-0.354,-1.2885,-0.4875,0
07/03/2025 09:53:21.570,0.955992,0.33916,0.089304,6.055,-3.325,-13.86,-0.351,-1.281,-0.4755,0
07/03/2025 09:53:21.590,0.96624,0.334524,0.095404,4.48,-3.15,-13.86,-0.36,-1.3035,-0.4815,0
07/03/2025 09:53:21.610,0.967216,0.327692,0.090524,3.815,-2.66,-13.405,-0.348,-1.3065,-0.471,0
07/03/2025 09:53:21.630,0.957212,0.3294,0.091256,3.885,-1.995,-13.195,-0.3705,-1.308,-0.474,0
07/03/2025 09:53:21.650,0.954772,0.345016,0.086376,4.62,-1.435,-13.055,-0.3525,-1.3215,-0.468,0
07/03/2025 09:53:21.670,0.951112,0.34526,0.079544,3.92,-0.875,-13.23,-0.3555,-1.3095,-0.492,0
07/03/2025 09:53:21.690,0.95038,0.33306,0.078812,3.745,-0.63,-13.615,-0.354,-1.3155,-0.4815,0
07/03/2025 09:53:21.710,0.948184,0.348432,0.068076,6.02,-0.735,-13.195,-0.3465,-1.326,-0.492,0
07/03/2025 09:53:21.730,0.948672,0.365512,0.076128,8.26,-0.665,-12.845,-0.3465,-1.326,-0.492,0
07/03/2025 09:53:21.750,0.943792,0.397964,0.062708,8.505,-0.91,-13.125,-0.3435,-1.329,-0.501,0
07/03/2025 09:53:21.770,0.938912,0.395036,0.056852,6.79,-0.98,-13.685,-0.351,-1.329,-0.5055,0
07/03/2025 09:53:21.790,0.946476,0.396012,0.049044,5.88,-1.365,-14.735,-0.339,-1.332,-0.516,0
07/03/2025 09:53:21.810,0.94062,0.394792,0.042944,6.23,-1.365,-15.575,-0.3375,-1.3305,-0.5145,0
07/03/2025 09:53:21.830,0.934276,0.388204,0.035136,7.07,-1.785,-16.03,-0.3405,-1.3215,-0.513,0
07/03/2025 09:53:21.850,0.93208,0.386252,0.031232,7.42,-2.065,-15.89,-0.33,-1.329,-0.5145,0
07/03/2025 09:53:21.870,0.931592,0.3782,0.020008,6.755,-2.45,-14.805,-0.3315,-1.3335,-0.507,0
07/03/2025 09:53:21.890,0.926712,0.36966,0.018788,3.85,-2.87,-14.035,-0.33,-1.3305,-0.516,0
07/03/2025 09:53:21.910,0.928908,0.339648,0.011468,1.435,-3.29,-13.405,-0.327,-1.338,-0.51,0
07/03/2025 09:53:21.930,0.921588,0.331352,0.012688,0.35,-3.57,-12.6,-0.324,-1.3425,-0.5025,0
07/03/2025 09:53:21.950,0.91622,0.327936,0.006588,0.105,-4.655,-11.41,-0.333,-1.3485,-0.4995,0
07/03/2025 09:53:21.970,0.911828,0.321104,-0.005124,1.82,-5.985,-10.535,-0.3135,-1.335,-0.5115,0
07/03/2025 09:53:21.990,0.921832,0.332084,-0.007808,10.71,-8.715,-9.17,-0.3135,-1.335,-0.5115,0
07/03/2025 09:53:22.010,0.917196,0.36356,-0.012688,15.05,-9.835,-7.56,-0.3135,-1.335,-0.5115,0
07/03/2025 09:53:22.030,0.920612,0.395524,-0.026596,15.085,-10.745,-5.845,-0.324,-1.3545,-0.4905,0
07/03/2025 09:53:22.050,0.92354,0.389424,-0.017324,13.265,-12.145,-4.83,-0.3255,-1.356,-0.489,0
07/03/2025 09:53:22.070,0.923784,0.392596,-0.01464,11.865,-13.23,-3.78,-0.321,-1.3605,-0.4875,0
07/03/2025 09:53:22.090,0.916464,0.4087,-0.020252,12.145,-13.965,-2.8,-0.318,-1.341,-0.4815,0
07/03/2025 09:53:22.110,0.912316,0.423096,-0.033428,11.375,-14.805,-2.1,-0.327,-1.341,-0.489,0
07/03/2025 09:53:22.130,0.920124,0.432368,-0.026596,10.22,-16.1,-2.17,-0.318,-1.3335,-0.4815,0
07/03/2025 09:53:22.150,0.925736,0.427976,-0.0183,8.995,-16.695,-1.89,-0.3165,-1.3395,-0.4815,0
07/03/2025 09:53:22.170,0.923052,0.437492,-0.007564,7.875,-16.835,-1.19,-0.321,-1.329,-0.4845,0
07/03/2025 09:53:22.190,0.925248,0.44164,0.013176,5.215,-16.52,-0.35,-0.3165,-1.32,-0.486,0
07/03/2025 09:53:22.210,0.91988,0.460428,0.015128,-0.805,-15.19,0.805,-0.3105,-1.326,-0.48,0
07/03/2025 09:53:22.230,0.908168,0.443592,0.017812,-8.54,-13.405,0.98,-0.306,-1.3095,-0.468,0
07/03/2025 09:53:22.250,0.903776,0.394548,0.002196,-13.65,-11.06,0.105,-0.306,-1.308,-0.468,0
07/03/2025 09:53:22.270,0.90524,0.375516,0.019276,-9.345,-10.045,-0.805,-0.3015,-1.293,-0.471,0
07/03/2025 09:53:22.290,0.91012,0.409432,0.025132,-2.905,-9.415,-1.225,-0.2925,-1.2945,-0.471,0
07/03/2025 09:53:22.310,0.915976,0.421144,0.015128,0.315,-8.855,-1.4,-0.2895,-1.2945,-0.4725,0
07/03/2025 09:53:22.330,0.935984,0.434564,0.00366,1.575,-9.065,-1.505,-0.2985,-1.2855,-0.459,0
07/03/2025 09:53:22.350,0.932812,0.440664,-0.00244,1.645,-8.12,-1.26,-0.297,-1.287,-0.4425,0
07/03/2025 09:53:22.370,0.935008,0.46116,-0.017324,0.805,-7.245,-1.155,-0.297,-1.29,-0.4425,0
07/03/2025 09:53:22.390,0.9333,0.47092,-0.027816,-0.63,-6.265,-1.435,-0.297,-1.29,-0.4425,0
07/03/2025 09:53:22.410,0.934032,0.488,-0.040504,-1.085,-6.16,-2.31,-0.2985,-1.2885,-0.4485,0
07/03/2025 09:53:22.430,0.931104,0.499956,-0.059536,-1.715,-6.265,-3.675,-0.2925,-1.281,-0.435,0
07/03/2025 09:53:22.450,0.930128,0.521184,-0.083204,-1.68,-7.035,-5.005,-0.3075,-1.284,-0.4395,0
07/03/2025 09:53:22.470,0.925492,0.543144,-0.088328,-1.82,-8.645,-6.79,-0.2985,-1.296,-0.4335,0
07/03/2025 09:53:22.490,0.923784,0.548512,-0.100528,-3.325,-10.5,-9.415,-0.3105,-1.3005,-0.4305,0
07/03/2025 09:53:22.510,0.906216,0.534604,-0.110532,-2.905,-12.075,-12.39,-0.291,-1.284,-0.4305,0
07/03/2025 09:53:22.530,0.915244,0.537532,-0.1159,1.995,-15.4,-16.695,-0.291,-1.284,-0.4305,0
07/03/2025 09:53:22.550,0.909144,0.558516,-0.130052,3.57,-17.22,-19.495,-0.279,-1.2915,-0.423,0
07/03/2025 09:53:22.570,0.928176,0.539728,-0.118584,3.36,-19.425,-22.855,-0.2895,-1.2855,-0.429,0
07/03/2025 09:53:22.590,0.933788,0.517036,-0.120536,4.62,-21,-25.375,-0.2835,-1.2915,-0.435,0
07/03/2025 09:53:22.610,0.92842,0.528992,-0.121268,6.44,-22.505,-27.02,-0.279,-1.287,-0.4305,0
07/03/2025 09:53:22.630,0.930372,0.51362,-0.111264,6.23,-23.17,-28.42,-0.2715,-1.2915,-0.4335,0
07/03/2025 09:53:22.650,0.919636,0.510692,-0.110532,3.605,-23.66,-29.54,-0.27,-1.2855,-0.4305,0
07/03/2025 09:53:22.670,0.93208,0.486048,-0.112484,1.925,-24.43,-30.52,-0.2595,-1.287,-0.4335,0
07/03/2025 09:53:22.690,0.927932,0.465552,-0.097112,3.29,-24.885,-31.115,-0.264,-1.302,-0.426,0
07/03/2025 09:53:22.710,0.91012,0.4819,-0.093208,5.67,-25.165,-31.43,-0.252,-1.296,-0.432,0
07/03/2025 09:53:22.730,0.894016,0.495808,-0.102236,4.865,-25.13,-31.185,-0.2565,-1.3245,-0.4215,0
07/03/2025 09:53:22.750,0.89304,0.498736,-0.094428,1.96,-25.34,-31.115,-0.252,-1.3095,-0.432,0
07/03/2025 09:53:22.770,0.874984,0.477264,-0.093696,0.735,-24.36,-30.765,-0.252,-1.3245,-0.4185,0
07/03/2025 09:53:22.790,0.865956,0.500932,-0.089548,5.25,-22.925,-29.96,-0.252,-1.3245,-0.4185,0
07/03/2025 09:53:22.810,0.84912,0.532164,-0.093208,8.575,-21.28,-29.155,-0.252,-1.3245,-0.4185,0
07/03/2025 09:53:22.830,0.842776,0.563884,-0.103456,8.26,-20.055,-28.42,-0.234,-1.341,-0.414,0
07/03/2025 09:53:22.850,0.821548,0.579744,-0.110288,4.9,-18.06,-28.98,-0.24,-1.3545,-0.4095,0
07/03/2025 09:53:22.870,0.81252,0.57706,-0.119316,3.325,-16.835,-29.855,-0.2535,-1.3605,-0.408,0
07/03/2025 09:53:22.890,0.803248,0.597312,-0.134932,4.235,-15.645,-30.275,-0.2445,-1.3695,-0.4035,0
07/03/2025 09:53:22.910,0.792756,0.606828,-0.16226,5.285,-14.63,-31.15,-0.246,-1.3695,-0.4065,0
07/03/2025 09:53:22.930,0.775188,0.630496,-0.18422,4.655,-14.035,-32.2,-0.234,-1.3695,-0.417,0
07/03/2025 09:53:22.950,0.777628,0.649284,-0.210084,4.13,-13.79,-33.11,-0.2385,-1.3755,-0.4125,0
07/03/2025 09:53:22.970,0.780556,0.654896,-0.240096,2.065,-14.175,-33.81,-0.228,-1.3815,-0.4215,0
07/03/2025 09:53:22.990,0.76372,0.674172,-0.267424,-0.945,-14.945,-34.405,-0.219,-1.3815,-0.4125,0
07/03/2025 09:53:23.010,0.760792,0.68076,-0.2928,-3.115,-16.345,-34.965,-0.219,-1.3965,-0.4275,0
07/03/2025 09:53:23.030,0.7503,0.681248,-0.335744,-0.07,-18.13,-35.28,-0.2145,-1.389,-0.4275,0
07/03/2025 09:53:23.050,0.756644,0.754448,-0.386496,6.195,-22.435,-36.645,-0.213,-1.395,-0.438,0
07/03/2025 09:53:23.070,0.752984,0.791048,-0.432612,7.7,-24.85,-37.625,-0.213,-1.395,-0.438,0
07/03/2025 09:53:23.090,0.753472,0.849364,-0.46238,4.97,-29.26,-38.92,-0.195,-1.3935,-0.435,0
07/03/2025 09:53:23.110,0.715652,0.859612,-0.453108,-0.525,-33.95,-41.335,-0.18,-1.3875,-0.4365,0
07/03/2025 09:53:23.130,0.701012,0.84058,-0.441152,-5.005,-39.97,-45.325,-0.1935,-1.3935,-0.426,0
07/03/2025 09:53:23.150,0.708332,0.794708,-0.390888,-2.94,-46.06,-49.63,-0.1815,-1.3965,-0.4335,0
07/03/2025 09:53:23.170,0.710528,0.800076,-0.375516,-0.77,-50.295,-53.375,-0.177,-1.395,-0.438,0
07/03/2025 09:53:23.190,0.704184,0.776652,-0.368196,1.505,-51.275,-55.405,-0.165,-1.41,-0.4335,0
07/03/2025 09:53:23.210,0.688324,0.741028,-0.357948,3.85,-50.75,-55.475,-0.174,-1.4025,-0.4275,0
07/03/2025 09:53:23.230,0.666364,0.754692,-0.322812,4.76,-49.91,-54.915,-0.1545,-1.407,-0.435,0
07/03/2025 09:53:23.250,0.643428,0.776652,-0.302316,0.455,-49.77,-54.04,-0.1395,-1.4055,-0.4215,0
07/03/2025 09:53:23.270,0.620736,0.730536,-0.293044,-8.19,-48.965,-52.325,-0.1455,-1.398,-0.4155,0
07/03/2025 09:53:23.290,0.574132,0.694668,-0.276696,-9.135,-46.62,-50.155,-0.138,-1.4115,-0.4155,0
07/03/2025 09:53:23.310,0.546072,0.692472,-0.280112,-5.32,-44.555,-47.635,-0.1395,-1.407,-0.417,0
07/03/2025 09:53:23.330,0.524112,0.676856,-0.277672,-2.94,-40.39,-43.26,-0.138,-1.416,-0.4215,0
07/03/2025 09:53:23.350,0.503372,0.686616,-0.269864,-2.59,-37.345,-40.565,-0.1245,-1.4055,-0.4215,0
07/03/2025 09:53:23.370,0.488,0.674416,-0.278404,-1.19,-34.65,-37.38,-0.114,-1.4025,-0.4305,0
07/03/2025 09:53:23.390,0.4636,0.696132,-0.302072,1.61,-32.025,-33.705,-0.114,-1.4025,-0.4305,0
07/03/2025 09:53:23.410,0.447496,0.704428,-0.31842,4.375,-30.17,-30.31,-0.1155,-1.3995,-0.4185,0
07/03/2025 09:53:23.430,0.424072,0.696132,-0.332572,8.925,-29.75,-26.88,-0.1095,-1.398,-0.426,0
07/03/2025 09:53:23.450,0.424316,0.694912,-0.321836,13.475,-30.31,-23.59,-0.1065,-1.4025,-0.4275,0
07/03/2025 09:53:23.470,0.393328,0.712236,-0.339648,17.15,-28.595,-21.385,-0.105,-1.389,-0.4335,0
07/03/2025 09:53:23.490,0.394548,0.7381,-0.35502,18.62,-28.245,-19.845,-0.0975,-1.3935,-0.4185,0
07/03/2025 09:53:23.510,0.397476,0.739076,-0.364292,18.655,-26.845,-18.165,-0.096,-1.3755,-0.4155,0
07/03/2025 09:53:23.530,0.392596,0.75396,-0.358924,18.935,-26.18,-16.625,-0.099,-1.371,-0.4095,0
07/03/2025 09:53:23.550,0.370392,0.762256,-0.37576,18.445,-25.55,-14.7,-0.0885,-1.3665,-0.408,0
07/03/2025 09:53:23.570,0.384056,0.746884,-0.37576,18.2,-25.9,-12.81,-0.093,-1.374,-0.402,0
07/03/2025 09:53:23.590,0.36722,0.74908,-0.365756,21.07,-23.66,-10.57,-0.09,-1.377,-0.3945,0
07/03/2025 09:53:23.610,0.367708,0.777384,-0.352092,22.68,-22.855,-9.03,-0.09,-1.377,-0.3945,0
07/03/2025 09:53:23.630,0.349896,0.811788,-0.371856,20.825,-19.6,-7.49,-0.0915,-1.359,-0.3735,0
07/03/2025 09:53:23.650,0.342576,0.821304,-0.396256,16.8,-17.675,-6.265,-0.09,-1.353,-0.3705,0
07/03/2025 09:53:23.670,0.35136,0.82716,-0.42822,12.355,-15.575,-5.075,-0.078,-1.3665,-0.369,0
07/03/2025 09:53:23.690,0.346236,0.834236,-0.435296,8.68,-12.67,-4.375,-0.0915,-1.3725,-0.3645,0
07/03/2025 09:53:23.710,0.33672,0.825696,-0.45018,7.385,-9.905,-3.325,-0.0855,-1.3695,-0.3615,0
07/03/2025 09:53:23.730,0.330864,0.848388,-0.459696,7.455,-8.19,-2.24,-0.0795,-1.3875,-0.3555,0
07/03/2025 09:53:23.750,0.327692,0.87352,-0.4575,7.14,-7.105,-3.325,-0.093,-1.368,-0.357,0
07/03/2025 09:53:23.770,0.332816,0.8479,-0.473848,5.355,-6.72,-5.18,-0.0885,-1.3815,-0.3585,0
07/03/2025 09:53:23.790,0.32086,0.836432,-0.47702,4.235,-5.95,-6.125,-0.0825,-1.374,-0.339,0
07/03/2025 09:53:23.810,0.31842,0.829844,-0.476532,4.655,-5.635,-6.65,-0.081,-1.362,-0.351,0
07/03/2025 09:53:23.830,0.3233,0.8235,-0.487024,4.725,-4.62,-6.685,-0.0735,-1.3755,-0.3525,0
07/03/2025 09:53:23.850,0.310612,0.811544,-0.48068,3.885,-3.395,-6.965,-0.0765,-1.374,-0.3525,0
07/03/2025 09:53:23.870,0.317444,0.775188,-0.466284,3.115,-2.52,-5.81,-0.0765,-1.374,-0.3525,0
07/03/2025 09:53:23.890,0.304512,0.80154,-0.435052,3.71,-0.84,-4.515,-0.075,-1.365,-0.366,0
07/03/2025 09:53:23.910,0.310124,0.790316,-0.443592,1.05,0.035,-2.695,-0.069,-1.3575,-0.3435,0
07/03/2025 09:53:23.930,0.307684,0.78202,-0.46116,-2.205,1.47,-1.085,-0.0795,-1.365,-0.345,0
07/03/2025 09:53:23.950,0.32818,0.755912,-0.459208,-2.975,3.01,0.35,-0.0705,-1.3605,-0.345,0
07/03/2025 09:53:23.970,0.318908,0.749568,-0.426512,-3.01,5.39,1.995,-0.0675,-1.362,-0.36,0
07/03/2025 09:53:23.990,0.321836,0.767624,-0.433588,-4.2,7.42,3.535,-0.0705,-1.377,-0.3495,0
07/03/2025 09:53:24.010,0.320616,0.768844,-0.444812,-5.88,8.26,4.865,-0.0765,-1.38,-0.345,0
07/03/2025 09:53:24.030,0.326716,0.777628,-0.453108,-6.93,8.05,6.16,-0.078,-1.3785,-0.348,0
07/03/2025 09:53:24.050,0.32696,0.778848,-0.473604,-5.985,8.19,6.86,-0.0795,-1.386,-0.363,0
07/03/2025 09:53:24.070,0.335012,0.786412,-0.494344,-3.325,8.295,6.755,-0.084,-1.3905,-0.3465,0
07/03/2025 09:53:24.090,0.343796,0.786656,-0.492636,-0.455,7.875,6.615,-0.081,-1.389,-0.3465,0
07/03/2025 09:53:24.110,0.348188,0.823988,-0.48068,0.84,7.525,6.755,-0.0855,-1.395,-0.348,0
07/03/2025 09:53:24.130,0.340624,0.854732,-0.470432,-3.815,7.28,6.86,-0.0855,-1.395,-0.348,0
07/03/2025 09:53:24.150,0.347456,0.850828,-0.494588,-8.645,7.56,6.3,-0.0855,-1.395,-0.348,0
07/03/2025 09:53:24.170,0.352092,0.848876,-0.498736,-10.22,7.595,5.495,-0.087,-1.422,-0.36,0
07/03/2025 09:53:24.190,0.343064,0.857416,-0.528016,-7.35,8.365,5.11,-0.081,-1.4175,-0.3615,0
07/03/2025 09:53:24.210,0.34404,0.861808,-0.538996,-4.13,7.315,3.99,-0.0975,-1.41,-0.354,0
07/03/2025 09:53:24.230,0.344284,0.879132,-0.53436,-2.45,5.6,2.135,-0.093,-1.4175,-0.363,0
07/03/2025 09:53:24.250,0.354288,0.87108,-0.512888,-2.66,3.36,0.14,-0.093,-1.434,-0.3705,0
07/03/2025 09:53:24.270,0.35258,0.856196,-0.503372,-2.87,1.995,-1.155,-0.0825,-1.4235,-0.3645,0
07/03/2025 09:53:24.290,0.35746,0.850584,-0.510692,-2.94,0.84,-2.03,-0.0915,-1.4235,-0.372,0
07/03/2025 09:53:24.310,0.359168,0.833992,-0.512644,-3.255,-0.105,-2.52,-0.0885,-1.428,-0.372,0
07/03/2025 09:53:24.330,0.364048,0.823012,-0.493856,-2.345,-0.595,-2.695,-0.0885,-1.41,-0.3735,0
07/03/2025 09:53:24.350,0.360876,0.81984,-0.48068,-1.505,-0.42,-2.59,-0.0915,-1.4175,-0.384,0
07/03/2025 09:53:24.370,0.362828,0.8235,-0.460428,-2.31,-0.805,-1.89,-0.078,-1.4295,-0.3705,0
07/03/2025 09:53:24.390,0.349408,0.8174,-0.443836,-7.385,-1.435,-1.26,-0.0945,-1.422,-0.3855,0
07/03/2025 09:53:24.410,0.344772,0.772504,-0.440176,-8.155,-1.54,-0.7,-0.0945,-1.422,-0.3855,0
07/03/2025 09:53:24.430,0.338184,0.78324,-0.429684,-5.495,-0.91,0.14,-0.0615,-1.4295,-0.3825,0
07/03/2025 09:53:24.450,0.342576,0.789584,-0.431392,-3.395,-0.525,0.315,-0.072,-1.425,-0.3765,0
07/03/2025 09:53:24.470,0.34526,0.782752,-0.410164,-1.54,-0.35,0.245,-0.075,-1.4235,-0.384,0
07/03/2025 09:53:24.490,0.341844,0.800564,-0.397476,0.245,0.595,0.84,-0.0765,-1.4325,-0.381,0
07/03/2025 09:53:24.510,0.316224,0.818132,-0.396256,-0.525,1.715,1.575,-0.084,-1.4295,-0.384,0
07/03/2025 09:53:24.530,0.337696,0.7991,-0.417484,-3.185,2.38,1.75,-0.084,-1.4265,-0.39,0
07/03/2025 09:53:24.550,0.345504,0.809592,-0.429196,-3.255,4.375,2.205,-0.0825,-1.4295,-0.3735,0
07/03/2025 09:53:24.570,0.34038,0.818376,-0.457744,-2.695,6.545,2.24,-0.0765,-1.431,-0.3735,0
07/03/2025 09:53:24.590,0.342088,0.820572,-0.476288,-1.4,6.93,2.03,-0.084,-1.443,-0.384,0
07/03/2025 09:53:24.610,0.335012,0.842044,-0.488732,-0.21,6.51,2.345,-0.0825,-1.4385,-0.3795,0
07/03/2025 09:53:24.630,0.348432,0.855952,-0.517036,-0.665,5.04,2.625,-0.087,-1.431,-0.378,0
07/03/2025 09:53:24.650,0.34526,0.843752,-0.517036,0.21,3.78,2.31,-0.081,-1.41,-0.3765,0
07/03/2025 09:53:24.670,0.347212,0.865712,-0.512156,1.855,3.115,1.4,-0.084,-1.413,-0.3855,0
07/03/2025 09:53:24.690,0.343796,0.863272,-0.50996,1.12,1.96,0.7,-0.0765,-1.4115,-0.387,0
07/03/2025 09:53:24.710,0.357948,0.858636,-0.495808,-0.35,0.315,0.14,-0.084,-1.4025,-0.3915,0
07/03/2025 09:53:24.730,0.355752,0.84058,-0.485316,-1.12,-0.245,-0.105,-0.0855,-1.3935,-0.39,0
07/03/2025 09:53:24.750,0.355508,0.840092,-0.456036,-0.245,-0.665,0.175,-0.0765,-1.392,-0.372,0
07/03/2025 09:53:24.770,0.354288,0.831796,-0.44652,-0.7,-0.7,0.56,-0.075,-1.389,-0.39,0
07/03/2025 09:53:24.790,0.351604,0.816668,-0.440908,-1.61,-0.35,0.98,-0.069,-1.3755,-0.384,0
07/03/2025 09:53:24.810,0.343796,0.798856,-0.426756,-1.925,0.315,1.155,-0.0795,-1.383,-0.378,0
07/03/2025 09:53:24.830,0.347456,0.79544,-0.415776,-1.47,1.155,1.61,-0.081,-1.3725,-0.375,0
07/03/2025 09:53:24.850,0.3538,0.7869,-0.413092,-1.785,1.645,2.03,-0.0825,-1.371,-0.381,0
07/03/2025 09:53:24.870,0.359412,0.779336,-0.416996,-2.835,2.415,2.835,-0.0825,-1.38,-0.3765,0
07/03/2025 09:53:24.890,0.349896,0.78202,-0.41236,-3.01,3.36,4.13,-0.084,-1.3695,-0.384,0
07/03/2025 09:53:24.910,0.354288,0.777628,-0.414556,-3.325,4.27,5.18,-0.084,-1.3695,-0.384,0
07/03/2025 09:53:24.930,0.361852,0.765672,-0.417972,-3.29,5.25,7.455,-0.0765,-1.3635,-0.372,0
07/03/2025 09:53:24.950,0.365512,0.782508,-0.41602,-3.885,5.81,8.645,-0.0765,-1.3635,-0.372,0
07/03/2025 09:53:24.970,0.37088,0.77226,-0.413824,-5.005,6.545,9.59,-0.087,-1.389,-0.378,0
07/03/2025 09:53:24.990,0.378932,0.779092,-0.438956,-5.565,7.21,11.34,-0.0855,-1.377,-0.3585,0
07/03/2025 09:53:25.010,0.366976,0.832528,-0.457744,-5.67,8.155,12.215,-0.102,-1.383,-0.375,0
07/03/2025 09:53:25.030,0.380396,0.84058,-0.476776,-7.315,7.455,11.62,-0.0915,-1.371,-0.3675,0
07/03/2025 09:53:25.050,0.383568,0.839604,-0.496052,-6.755,6.79,11.515,-0.099,-1.3725,-0.3795,0
07/03/2025 09:53:25.070,0.390888,0.853512,-0.480436,-3.29,5.145,11.445,-0.1125,-1.3695,-0.366,0
07/03/2025 09:53:25.090,0.39284,0.883524,-0.488244,-0.84,3.815,11.165,-0.102,-1.356,-0.3765,0
07/03/2025 09:53:25.110,0.394304,0.899384,-0.477508,-0.035,2.275,9.835,-0.1035,-1.3605,-0.3855,0
07/03/2025 09:53:25.130,0.390644,0.897676,-0.469944,0.035,1.61,7.035,-0.1035,-1.3635,-0.375,0
07/03/2025 09:53:25.150,0.407236,0.89426,-0.473116,0.385,1.365,4.515,-0.1125,-1.371,-0.381,0
07/03/2025 09:53:25.170,0.415044,0.895724,-0.47092,0.7,1.12,2.73,-0.105,-1.3665,-0.3855,0
07/03/2025 09:53:25.190,0.414312,0.898408,-0.459696,1.19,0.105,1.365,-0.111,-1.356,-0.372,0
07/03/2025 09:53:25.210,0.416752,0.871812,-0.429684,0.315,-1.925,-0.49,-0.111,-1.356,-0.372,0
07/03/2025 09:53:25.230,0.417972,0.851804,-0.421632,-0.56,-2.485,-1.645,-0.111,-1.356,-0.372,0
07/03/2025 09:53:25.250,0.404796,0.842044,-0.413336,-0.84,-1.68,-2.485,-0.1065,-1.3725,-0.3795,0
07/03/2025 09:53:25.270,0.396256,0.8296,-0.421144,-1.505,-1.155,-3.325,-0.1005,-1.3695,-0.3885,0
07/03/2025 09:53:25.290,0.400648,0.809104,-0.412116,-2.45,-0.455,-4.375,-0.093,-1.398,-0.3825,0
07/03/2025 09:53:25.310,0.409432,0.792268,-0.408456,-1.19,-0.56,-4.41,-0.114,-1.383,-0.384,0
07/03/2025 09:53:25.330,0.401136,0.790804,-0.398696,0.105,-0.21,-3.605,-0.105,-1.392,-0.3795,0
07/03/2025 09:53:25.350,0.391376,0.799588,-0.397476,-0.035,-0.245,-2.59,-0.099,-1.3935,-0.384,0
07/03/2025 09:53:25.370,0.386008,0.769576,-0.417728,-2.135,0.28,-2.03,-0.0975,-1.4085,-0.375,0
07/03/2025 09:53:25.390,0.394304,0.770308,-0.420168,-1.61,0.49,-1.19,-0.0945,-1.4055,-0.3705,0
07/03/2025 09:53:25.410,0.388936,0.771772,-0.42822,-0.245,1.89,-0.14,-0.0975,-1.4235,-0.378,0
07/03/2025 09:53:25.430,0.398208,0.77958,-0.43798,-0.105,1.82,1.4,-0.1035,-1.425,-0.3735,0
07/03/2025 09:53:25.450,0.403088,0.789828,-0.436272,-1.015,1.575,2.625,-0.1035,-1.422,-0.3765,0
07/03/2025 09:53:25.470,0.393816,0.781288,-0.444812,-2.59,0.665,4.06,-0.105,-1.422,-0.381,0
07/03/2025 09:53:25.490,0.402844,0.787632,-0.4392,-1.785,-0.42,5.11,-0.105,-1.422,-0.381,0
07/03/2025 09:53:25.510,0.409432,0.79666,-0.44652,-0.77,-0.455,6.02,-0.1065,-1.437,-0.384,0
07/03/2025 09:53:25.530,0.403088,0.829112,-0.447496,-0.35,-0.84,6.195,-0.1155,-1.419,-0.381,0
07/03/2025 09:53:25.550,0.405528,0.831796,-0.437736,-1.155,-1.05,5.11,-0.1035,-1.431,-0.3915,0
07/03/2025 09:53:25.570,0.4148,0.841068,-0.450424,-0.455,-1.575,4.795,-0.114,-1.4265,-0.3915,0
07/03/2025 09:53:25.590,0.419192,0.85034,-0.44774,1.54,-2.065,4.655,-0.105,-1.419,-0.399,0
07/03/2025 09:53:25.610,0.40748,0.878156,-0.435296,1.96,-2.38,4.62,-0.108,-1.4145,-0.402,0
07/03/2025 09:53:25.630,0.4026,0.876936,-0.436516,0.14,-2.94,3.395,-0.108,-1.419,-0.3975,0
07/03/2025 09:53:25.650,0.40748,0.853512,-0.415288,-1.015,-3.57,1.68,-0.105,-1.4145,-0.402,0
07/03/2025 09:53:25.670,0.419924,0.854,-0.416996,-0.14,-3.535,0.77,-0.114,-1.425,-0.396,0
07/03/2025 09:53:25.690,0.415532,0.862296,-0.415532,0,-2.52,0.105,-0.1095,-1.4235,-0.3915,0
07/03/2025 09:53:25.710,0.405772,0.850828,-0.407968,-1.925,-1.82,-0.595,-0.111,-1.431,-0.3975,0
07/03/2025 09:53:25.730,0.410408,0.820816,-0.404796,-3.815,-1.785,-0.84,-0.1005,-1.434,-0.4035,0
07/03/2025 09:53:25.750,0.411872,0.79788,-0.401868,-1.085,-0.91,-0.7,-0.1005,-1.434,-0.4035,0
07/03/2025 09:53:25.770,0.40138,0.811056,-0.4087,-0.77,0.35,-0.385,-0.114,-1.419,-0.3915,0
07/03/2025 09:53:25.790,0.40748,0.787632,-0.409432,-2.695,0.315,0.21,-0.1065,-1.4295,-0.3915,0
07/03/2025 09:53:25.810,0.41114,0.7625,-0.397476,-3.185,0.595,1.085,-0.12,-1.437,-0.3975,0
07/03/2025 09:53:25.830,0.408944,0.768844,-0.402356,-2.45,1.12,2.59,-0.111,-1.4325,-0.3915,0
07/03/2025 09:53:25.850,0.416752,0.75884,-0.39528,-2.59,1.54,3.92,-0.114,-1.416,-0.396,0
07/03/2025 09:53:25.870,0.418948,0.763476,-0.403332,-2.975,2.17,5.39,-0.1215,-1.419,-0.4035,0
07/03/2025 09:53:25.890,0.416508,0.764696,-0.396012,-2.94,2.8,6.475,-0.114,-1.4115,-0.4035,0
07/03/2025 09:53:25.910,0.414312,0.776652,-0.405528,-2.695,3.325,7.875,-0.102,-1.4055,-0.4065,0
07/03/2025 09:53:25.930,0.410652,0.782996,-0.400892,-2.59,3.01,8.68,-0.102,-1.4055,-0.4065,0
07/03/2025 09:53:25.950,0.43554,0.80276,-0.401868,-3.045,2.905,9.695,-0.117,-1.41,-0.405,0
07/03/2025 09:53:25.970,0.434564,0.812032,-0.401868,-3.815,3.815,10.325,-0.114,-1.398,-0.3975,0
07/03/2025 09:53:25.990,0.438224,0.81618,-0.398208,-4.725,3.92,10.78,-0.117,-1.3785,-0.411,0
07/03/2025 09:53:26.010,0.436272,0.846192,-0.390156,-5.18,3.64,10.465,-0.1155,-1.3815,-0.408,0
07/03/2025 09:53:26.030,0.446764,0.837164,-0.399184,-5.705,3.815,9.205,-0.108,-1.368,-0.408,0
07/03/2025 09:53:26.050,0.45384,0.835212,-0.40748,-4.515,4.375,8.295,-0.1095,-1.362,-0.4155,0
07/03/2025 09:53:26.070,0.45384,0.854976,-0.422852,-1.75,5.39,7.63,-0.129,-1.3605,-0.4065,0
07/03/2025 09:53:26.090,0.448716,0.880596,-0.434076,-1.61,5.88,6.405,-0.1155,-1.365,-0.408,0
07/03/2025 09:53:26.110,0.451156,0.859856,-0.429684,-3.29,4.655,5.215,-0.1185,-1.356,-0.4065,0
07/03/2025 09:53:26.130,0.46116,0.84058,-0.416752,-3.045,2.765,4.55,-0.132,-1.365,-0.4005,0
07/03/2025 09:53:26.150,0.45506,0.822036,-0.404552,-2.135,2.17,3.78,-0.132,-1.353,-0.393,0
07/03/2025 09:53:26.170,0.464576,0.813496,-0.379664,-1.855,1.715,3.78,-0.1245,-1.365,-0.39,0
07/03/2025 09:53:26.190,0.453108,0.819352,-0.388692,-2.065,2.905,3.605,-0.138,-1.368,-0.399,0
07/03/2025 09:53:26.210,0.452132,0.787876,-0.374784,-3.15,3.57,2.415,-0.1215,-1.362,-0.3975,0
07/03/2025 09:53:26.230,0.459696,0.775432,-0.37088,-2.17,4.655,2.905,-0.147,-1.3725,-0.396,0
07/03/2025 09:53:26.250,0.463356,0.772748,-0.356484,-0.805,5.845,4.48,-0.1245,-1.359,-0.387,0
07/03/2025 09:53:26.270,0.464088,0.77104,-0.332084,-4.13,7.42,7.595,-0.1485,-1.368,-0.39,0
07/03/2025 09:53:26.290,0.464332,0.736148,-0.305,-7.875,9.065,10.5,-0.1485,-1.368,-0.39,0
07/03/2025 09:53:26.310,0.47824,0.701988,-0.291336,-9.905,11.34,13.755,-0.132,-1.371,-0.396,0
07/03/2025 09:53:26.330,0.473604,0.694912,-0.262788,-9.905,14.84,17.71,-0.126,-1.3575,-0.4005,0
07/03/2025 09:53:26.350,0.48922,0.69784,-0.228628,-10.92,17.885,21.56,-0.144,-1.353,-0.4125,0
07/03/2025 09:53:26.370,0.491172,0.705404,-0.2013,-14.175,22.505,25.48,-0.1395,-1.362,-0.4095,0
07/03/2025 09:53:26.390,0.508984,0.703452,-0.199348,-20.055,27.055,28.525,-0.1395,-1.3545,-0.4065,0
07/03/2025 09:53:26.410,0.531188,0.687592,-0.203252,-25.41,31.71,31.57,-0.159,-1.353,-0.411,0
07/03/2025 09:53:26.430,0.555588,0.665632,-0.206668,-27.93,36.05,35.7,-0.1485,-1.341,-0.4245,0
07/03/2025 09:53:26.450,0.588284,0.673684,-0.18666,-28.77,40.18,40.18,-0.159,-1.3485,-0.4185,0
07/03/2025 09:53:26.470,0.60268,0.691008,-0.16836,-30.94,44.135,44.625,-0.153,-1.338,-0.4335,0
07/03/2025 09:53:26.490,0.606584,0.687104,-0.184952,-36.785,47.215,49.315,-0.1575,-1.3425,-0.438,0
07/03/2025 09:53:26.510,0.624884,0.655628,-0.170556,-40.53,49,53.34,-0.174,-1.3455,-0.45,0
07/03/2025 09:53:26.530,0.66124,0.653188,-0.165676,-40.355,50.54,57.295,-0.1695,-1.3515,-0.453,0
07/03/2025 09:53:26.550,0.721752,0.626348,-0.147864,-38.57,52.29,62.93,-0.1695,-1.3515,-0.453,0
07/03/2025 09:53:26.570,0.743468,0.640256,-0.120292,-38.465,53.83,66.675,-0.1695,-1.3515,-0.453,0
07/03/2025 09:53:26.590,0.765916,0.657824,-0.11346,-40.145,55.615,70.665,-0.1905,-1.3665,-0.4665,0
07/03/2025 09:53:26.610,0.763964,0.64782,-0.10004,-43.995,56.735,73.64,-0.201,-1.353,-0.4725,0
07/03/2025 09:53:26.630,0.781044,0.627812,-0.092232,-45.885,56.28,75.67,-0.204,-1.365,-0.4845,0
07/03/2025 09:53:26.650,0.799344,0.61732,-0.085156,-43.19,56.14,76.79,-0.222,-1.359,-0.486,0
07/03/2025 09:53:26.670,0.837652,0.604388,-0.06466,-38.745,56.385,77.07,-0.2265,-1.3575,-0.4995,0
07/03/2025 09:53:26.690,0.883524,0.585356,-0.019764,-33.495,55.545,77.665,-0.231,-1.3575,-0.498,0
07/03/2025 09:53:26.710,0.903288,0.606584,0.037088,-30.625,55.685,79.415,-0.24,-1.3425,-0.5235,0
07/03/2025 09:53:26.730,0.913536,0.575352,0.040748,-29.085,56.77,81.2,-0.2475,-1.347,-0.5295,0
07/03/2025 09:53:26.750,0.918172,0.540216,0.0671,-24.185,56.7,82.53,-0.2505,-1.347,-0.54,0
07/03/2025 09:53:26.770,0.933056,0.586576,0.05978,-17.815,55.895,82.53,-0.2655,-1.338,-0.5565,0
07/03/2025 09:53:26.790,0.944036,0.608048,0.063928,-15.995,55.58,80.675,-0.2715,-1.3335,-0.567,0
07/03/2025 09:53:26.810,0.923296,0.544364,0.09882,-19.145,55.335,74.97,-0.282,-1.3365,-0.5625,0
07/03/2025 09:53:26.830,0.943792,0.552416,0.101016,-18.725,52.43,70.385,-0.282,-1.3365,-0.5625,0
07/03/2025 09:53:26.850,0.93574,0.507276,0.08052,-20.825,52.43,64.995,-0.306,-1.323,-0.612,0
07/03/2025 09:53:26.870,0.961848,0.465796,0.087352,-16.66,49.49,60.165,-0.303,-1.3095,-0.6135,0
07/03/2025 09:53:26.890,1.003572,0.477752,0.087352,-9.45,45.78,56.63,-0.324,-1.308,-0.618,0
07/03/2025 09:53:26.910,0.966972,0.461404,0.094184,-4.62,46.235,53.62,-0.3165,-1.2975,-0.618,0
07/03/2025 09:53:26.930,0.943548,0.478972,0.088816,-0.245,43.435,50.645,-0.3165,-1.2975,-0.618,0
07/03/2025 09:53:26.950,0.961116,0.456768,0.09516,2.8,38.08,46.13,-0.3225,-1.3005,-0.6225,0
07/03/2025 09:53:26.970,1.008696,0.460184,0.088328,4.13,32.62,42,-0.3225,-1.302,-0.627,0
07/03/2025 09:53:26.990,0.976488,0.445056,0.064904,3.71,30.765,37.94,-0.339,-1.308,-0.6315,0
07/03/2025 09:53:27.010,0.981124,0.440664,0.063196,3.5,26.18,34.615,-0.3345,-1.2975,-0.6315,0
07/03/2025 09:53:27.030,0.961604,0.406748,0.05856,4.935,21.84,31.605,-0.3375,-1.2885,-0.621,0
07/03/2025 09:53:27.050,0.96746,0.399428,0.062708,8.575,16.415,28.28,-0.3405,-1.29,-0.6315,0
07/03/2025 09:53:27.070,0.966484,0.390156,0.080032,13.02,12.145,24.885,-0.351,-1.2975,-0.6195,0
07/03/2025 09:53:27.090,0.97112,0.40016,0.088084,16.45,5.705,19.635,-0.348,-1.287,-0.6135,0
07/03/2025 09:53:27.110,0.949892,0.38552,0.097112,15.225,3.43,17.22,-0.3555,-1.287,-0.615,0
07/03/2025 09:53:27.130,0.95038,0.366,0.109312,13.09,-0.245,15.295,-0.3645,-1.284,-0.6255,0
07/03/2025 09:53:27.150,0.959652,0.374296,0.125904,11.69,-3.22,13.965,-0.3555,-1.2825,-0.612,0
07/03/2025 09:53:27.170,0.986736,0.3538,0.163724,9.1,-5.985,11.83,-0.354,-1.2825,-0.627,0
07/03/2025 09:53:27.190,1.007964,0.357704,0.188612,7.035,-6.825,10.045,-0.3615,-1.2825,-0.6075,0
07/03/2025 09:53:27.210,0.985028,0.363804,0.188124,5.6,-5.67,9.345,-0.3555,-1.269,-0.6255,0
07/03/2025 09:53:27.230,0.99186,0.367464,0.200324,3.815,-6.055,8.75,-0.366,-1.269,-0.6135,0
07/03/2025 09:53:27.250,0.992348,0.366976,0.217892,0.77,-6.055,8.085,-0.3435,-1.2555,-0.6255,0
07/03/2025 09:53:27.270,0.993812,0.3782,0.22814,-3.115,-5.495,7.455,-0.354,-1.263,-0.636,0
07/03/2025 09:53:27.290,0.984296,0.383812,0.226188,-8.645,-4.2,6.615,-0.3555,-1.254,-0.609,0
07/03/2025 09:53:27.310,0.950868,0.401136,0.214964,-14.63,-2.87,5.425,-0.339,-1.245,-0.6195,0
07/03/2025 09:53:27.330,0.967216,0.377956,0.223748,-17.92,-3.99,3.5,-0.342,-1.2615,-0.6135,0
07/03/2025 09:53:27.350,0.986248,0.362828,0.227164,-19.495,-3.64,-1.225,-0.342,-1.2615,-0.6135,0
07/03/2025 09:53:27.370,0.992104,0.377956,0.215696,-18.165,-3.43,-4.69,-0.342,-1.2615,-0.6135,0
07/03/2025 09:53:27.390,0.959164,0.374052,0.222528,-16.485,-2.555,-8.05,-0.3435,-1.2495,-0.588,0
07/03/2025 09:53:27.410,0.961848,0.370148,0.226188,-15.925,-4.445,-10.605,-0.3435,-1.2225,-0.591,0
07/03/2025 09:53:27.430,0.96014,0.344528,0.220576,-14.35,-5.67,-12.74,-0.339,-1.2345,-0.5955,0
07/03/2025 09:53:27.450,0.979172,0.33672,0.222284,-12.005,-6.93,-14.105,-0.3495,-1.227,-0.594,0
07/03/2025 09:53:27.470,0.97478,0.318908,0.220332,-9.8,-6.93,-15.26,-0.3435,-1.227,-0.5835,0
07/03/2025 09:53:27.490,0.955748,0.308416,0.218868,-8.47,-6.825,-16.31,-0.345,-1.2285,-0.576,0
07/03/2025 09:53:27.510,0.953796,0.287432,0.22692,-7.35,-7.385,-16.94,-0.345,-1.2225,-0.576,0
07/03/2025 09:53:27.530,0.947208,0.277428,0.23058,-6.895,-7.315,-16.94,-0.348,-1.2165,-0.561,0
07/03/2025 09:53:27.550,0.929396,0.266692,0.230092,-6.895,-7.105,-16.415,-0.336,-1.2315,-0.5685,0
07/03/2025 09:53:27.570,0.939156,0.254004,0.233508,-7.035,-7.07,-15.61,-0.3375,-1.236,-0.576,0
07/03/2025 09:53:27.590,0.935984,0.236192,0.2379,-7.315,-6.055,-13.72,-0.3345,-1.2345,-0.582,0
07/03/2025 09:53:27.610,0.935008,0.22814,0.229848,-7.21,-5.075,-10.955,-0.33,-1.221,-0.585,0
07/03/2025 09:53:27.630,0.925736,0.226188,0.221308,-6.79,-3.255,-7.455,-0.33,-1.221,-0.585,0
07/03/2025 09:53:27.650,0.922564,0.22692,0.231312,-5.11,-2.555,-5.74,-0.3375,-1.2345,-0.5805,0
07/03/2025 09:53:27.670,0.920856,0.230092,0.238876,-3.675,-2.345,-4.375,-0.3165,-1.242,-0.585,0
07/03/2025 09:53:27.690,0.925004,0.240828,0.23912,-3.15,-2.835,-2.73,-0.318,-1.2345,-0.5835,0
07/03/2025 09:53:27.710,0.91866,0.243756,0.234484,-3.815,-2.275,-0.665,-0.3195,-1.23,-0.579,0
07/03/2025 09:53:27.730,0.926224,0.25132,0.22814,-5.46,-2.485,1.82,-0.324,-1.2405,-0.597,0
07/03/2025 09:53:27.750,0.931836,0.25864,0.223992,-6.44,-1.4,4.095,-0.3195,-1.2405,-0.5865,0
07/03/2025 09:53:27.770,0.936472,0.2684,0.213012,-6.195,-0.35,6.055,-0.342,-1.2375,-0.5955,0
07/03/2025 09:53:27.790,0.936472,0.298412,0.20862,-5.81,0.63,6.615,-0.3285,-1.2435,-0.585,0
07/03/2025 09:53:27.810,0.935252,0.304512,0.217892,-5.6,0.525,6.09,-0.336,-1.2465,-0.5775,0
07/03/2025 09:53:27.830,0.953308,0.304268,0.22082,-3.64,-0.35,5.81,-0.327,-1.2555,-0.5835,0
07/03/2025 09:53:27.850,0.942572,0.324032,0.2135,-1.12,-0.77,6.265,-0.3405,-1.248,-0.582,0
07/03/2025 09:53:27.870,0.953552,0.338916,0.207888,0.07,-1.19,7.035,-0.3315,-1.248,-0.582,0
07/03/2025 09:53:27.890,0.950868,0.350628,0.205692,-2.31,-0.875,6.51,-0.3465,-1.2555,-0.591,0
07/03/2025 09:53:27.910,0.94428,0.334524,0.215696,-3.745,-0.525,5.285,-0.345,-1.2585,-0.5805,0
07/03/2025 09:53:27.930,0.937936,0.334768,0.21838,-1.295,-0.56,4.025,-0.345,-1.2585,-0.5805,0
07/03/2025 09:53:27.950,0.930616,0.3416,0.215452,0.525,-0.385,2.45,-0.351,-1.266,-0.5925,0
07/03/2025 09:53:27.970,0.939888,0.326228,0.223016,0.28,-0.63,1.05,-0.357,-1.248,-0.594,0
07/03/2025 09:53:27.990,0.946964,0.32574,0.220576,0.35,-0.595,0.21,-0.3645,-1.2645,-0.6015,0
07/03/2025 09:53:28.010,0.944524,0.316468,0.22204,1.12,-0.35,-0.28,-0.3645,-1.257,-0.612,0
07/03/2025 09:53:28.030,0.947208,0.314516,0.226432,1.645,-0.945,-1.26,-0.36,-1.2705,-0.621,0
07/03/2025 09:53:28.050,0.955016,0.300852,0.228384,1.645,-0.7,-1.925,-0.369,-1.2645,-0.627,0
07/03/2025 09:53:28.070,0.954284,0.292312,0.22448,2.275,-0.175,-1.89,-0.3555,-1.2645,-0.6315,0
07/03/2025 09:53:28.090,0.955016,0.281088,0.222772,3.15,0.455,-1.26,-0.3585,-1.2765,-0.639,0
07/03/2025 09:53:28.110,0.954284,0.291336,0.22692,3.185,1.47,-0.7,-0.363,-1.269,-0.645,0
07/03/2025 09:53:28.130,0.952088,0.287676,0.228628,1.155,1.715,-0.35,-0.3585,-1.2645,-0.6405,0
07/03/2025 09:53:28.150,0.943792,0.265472,0.23058,-1.575,2.345,-0.105,-0.3585,-1.269,-0.639,0
07/03/2025 09:53:28.170,0.947452,0.249124,0.22814,-1.645,2.555,0.28,-0.3585,-1.269,-0.639,0
07/03/2025 09:53:28.190,0.958432,0.249612,0.223748,-0.665,3.045,0.91,-0.3495,-1.278,-0.6495,0
07/03/2025 09:53:28.210,0.9577,0.256932,0.225944,-0.28,3.5,1.925,-0.36,-1.2765,-0.651,0
07/03/2025 09:53:28.230,0.948428,0.25742,0.221308,-1.33,4.41,3.045,-0.351,-1.2825,-0.663,0
07/03/2025 09:53:28.250,0.94306,0.255956,0.220088,-1.925,4.62,4.48,-0.351,-1.272,-0.642,0
07/03/2025 09:53:28.270,0.949892,0.264496,0.222284,-1.855,4.095,5.32,-0.3705,-1.2765,-0.6465,0
07/03/2025 09:53:28.290,0.95892,0.262056,0.222284,-1.26,4.375,5.705,-0.369,-1.2705,-0.663,0
07/03/2025 09:53:28.310,0.953064,0.277672,0.219844,-0.735,4.97,5.985,-0.354,-1.275,-0.6465,0
07/03/2025 09:53:28.330,0.954772,0.283772,0.212036,-1.295,4.69,6.65,-0.3675,-1.2855,-0.654,0
07/03/2025 09:53:28.350,0.93696,0.288652,0.213256,-1.435,5.075,7.455,-0.3735,-1.2645,-0.6345,0
07/03/2025 09:53:28.370,0.946964,0.299632,0.216672,-1.365,3.955,7.735,-0.3705,-1.2765,-0.6375,0
07/03/2025 09:53:28.390,0.941596,0.304756,0.213012,-0.875,4.235,7.49,-0.369,-1.263,-0.6555,0
07/03/2025 09:53:28.410,0.941108,0.32086,0.210084,0.21,3.675,6.37,-0.378,-1.278,-0.6495,0
07/03/2025 09:53:28.430,0.947696,0.319884,0.211548,-0.245,2.975,4.48,-0.369,-1.2645,-0.6615,0
07/03/2025 09:53:28.450,0.944524,0.325008,0.211304,-0.805,2.485,3.395,-0.369,-1.2585,-0.654,0
07/03/2025 09:53:28.470,0.945744,0.324764,0.21228,-1.75,2.135,2.31,-0.36,-1.245,-0.651,0
07/03/2025 09:53:28.490,0.948428,0.32574,0.213744,-2.625,1.715,1.26,-0.369,-1.248,-0.666,0
07/03/2025 09:53:28.510,0.94062,0.306464,0.216184,-2.135,1.645,0.385,-0.3525,-1.248,-0.6645,0
07/03/2025 09:53:28.530,0.94306,0.312564,0.217892,-0.63,0.98,-0.455,-0.3375,-1.2465,-0.654,0
07/03/2025 09:53:28.550,0.9455,0.286456,0.2135,-0.42,0.35,-1.4,-0.3465,-1.236,-0.6495,0
07/03/2025 09:53:28.570,0.953064,0.300852,0.215696,-0.14,-0.21,-2.1,-0.3465,-1.2255,-0.6555,0
07/03/2025 09:53:28.590,0.944524,0.292068,0.222528,-0.805,-0.49,-2.66,-0.342,-1.2375,-0.6435,0
07/03/2025 09:53:28.610,0.953552,0.288652,0.2318,-2.555,-0.77,-2.695,-0.348,-1.2435,-0.642,0
07/03/2025 09:53:28.630,0.936472,0.288652,0.227896,-4.515,-0.21,-2.345,-0.339,-1.233,-0.6345,0
07/03/2025 09:53:28.650,0.9394,0.270352,0.230824,-7,0.385,-2.555,-0.3435,-1.233,-0.633,0
07/03/2025 09:53:28.670,0.948672,0.272548,0.231068,-7.665,0.455,-2.835,-0.342,-1.224,-0.6225,0
07/03/2025 09:53:28.690,0.943792,0.264252,0.23912,-9.1,0.7,-2.45,-0.3405,-1.2255,-0.6105,0
07/03/2025 09:53:28.710,0.939888,0.275476,0.240828,-10.85,1.05,-1.68,-0.3405,-1.2255,-0.6105,0
07/03/2025 09:53:28.730,0.947452,0.269132,0.24644,-14.455,1.085,-1.155,-0.333,-1.23,-0.6075,0
07/03/2025 09:53:28.750,0.944036,0.260104,0.247416,-18.13,1.995,-0.945,-0.3465,-1.224,-0.5895,0
07/03/2025 09:53:28.770,0.950624,0.253272,0.253028,-20.265,2.555,-0.35,-0.3465,-1.218,-0.603,0
07/03/2025 09:53:28.790,0.942328,0.265228,0.255468,-23.275,3.325,0.455,-0.3405,-1.2165,-0.606,0
07/03/2025 09:53:28.810,0.9394,0.24522,0.243512,-27.23,3.85,1.155,-0.3435,-1.209,-0.6045,0
07/03/2025 09:53:28.830,0.943548,0.226432,0.252052,-27.65,3.78,1.925,-0.3345,-1.218,-0.6045,0
07/03/2025 09:53:28.850,0.94184,0.223504,0.268644,-24.22,4.025,2.695,-0.3405,-1.206,-0.6165,0
07/03/2025 09:53:28.870,0.95038,0.248636,0.267424,-20.965,3.815,3.57,-0.3405,-1.212,-0.6225,0
07/03/2025 09:53:28.890,0.949404,0.264008,0.262544,-21.175,4.095,4.2,-0.336,-1.212,-0.6225,0
07/03/2025 09:53:28.910,0.94184,0.264008,0.261324,-24.01,4.235,4.27,-0.342,-1.1985,-0.624,0
07/03/2025 09:53:28.930,0.941596,0.264008,0.271816,-26.495,3.955,3.5,-0.3435,-1.197,-0.6285,0
07/03/2025 09:53:28.950,0.942572,0.27938,0.275232,-28.7,3.955,2.8,-0.336,-1.1835,-0.639,0
07/03/2025 09:53:28.970,0.949648,0.287432,0.266448,-35.28,4.165,1.89,-0.336,-1.1835,-0.639,0
07/03/2025 09:53:28.990,0.952576,0.27572,0.262544,-41.37,4.235,1.47,-0.336,-1.1835,-0.639,0
07/03/2025 09:53:29.010,0.960628,0.266936,0.260592,-46.795,3.465,1.26,-0.336,-1.1925,-0.6435,0
07/03/2025 09:53:29.030,0.968192,0.262788,0.267668,-50.68,2.17,1.05,-0.33,-1.191,-0.6525,0
07/03/2025 09:53:29.050,0.961604,0.263032,0.261324,-54.25,1.645,0.805,-0.3375,-1.179,-0.66,0
07/03/2025 09:53:29.070,0.964044,0.246196,0.251808,-55.58,0.7,0.385,-0.336,-1.1865,-0.654,0
07/03/2025 09:53:29.090,0.949404,0.233508,0.245708,-53.305,0.28,-0.21,-0.3375,-1.185,-0.6555,0
07/03/2025 09:53:29.110,0.94184,0.214476,0.235948,-47.11,-0.455,-0.945,-0.3465,-1.1625,-0.663,0
07/03/2025 09:53:29.130,0.944768,0.212524,0.243268,-38.115,-1.785,-2.17,-0.3435,-1.167,-0.672,0
07/03/2025 09:53:29.150,0.937936,0.228384,0.242048,-31.185,-2.415,-3.99,-0.333,-1.161,-0.6765,0
07/03/2025 09:53:29.170,0.939644,0.22082,0.246684,-26.005,-4.27,-6.02,-0.345,-1.17,-0.687,0
07/03/2025 09:53:29.190,0.935008,0.220332,0.246684,-21.91,-6.335,-7.315,-0.354,-1.155,-0.6855,0
07/03/2025 09:53:29.210,0.928908,0.223992,0.244488,-18.48,-7.91,-8.155,-0.354,-1.161,-0.687,0
07/03/2025 09:53:29.230,0.935252,0.2135,0.262788,-15.295,-10.36,-8.96,-0.348,-1.161,-0.7005,0
07/03/2025 09:53:29.250,0.942572,0.211548,0.266204,-13.615,-10.92,-9.345,-0.3645,-1.1505,-0.711,0
07/03/2025 09:53:29.270,0.943304,0.21472,0.282308,-14.735,-11.55,-9.1,-0.357,-1.158,-0.7245,0
07/03/2025 09:53:29.290,0.931836,0.208376,0.282552,-18.515,-11.305,-9.135,-0.345,-1.1565,-0.732,0
07/03/2025 09:53:29.310,0.930616,0.188368,0.293532,-20.37,-12.67,-9.345,-0.3585,-1.1535,-0.738,0
07/03/2025 09:53:29.330,0.937936,0.164212,0.297924,-18.13,-13.545,-9.485,-0.351,-1.1475,-0.7515,0
07/03/2025 09:53:29.350,0.92842,0.163968,0.304024,-13.265,-13.51,-9.1,-0.363,-1.1625,-0.744,0
07/03/2025 09:53:29.370,0.938912,0.16714,0.307684,-9.205,-14.245,-8.54,-0.3555,-1.173,-0.75,0
07/03/2025 09:53:29.390,0.931836,0.164944,0.315736,-6.615,-13.615,-7.77,-0.345,-1.1565,-0.765,0
07/03/2025 09:53:29.410,0.93818,0.167628,0.33062,-5.25,-13.685,-7.175,-0.363,-1.164,-0.7725,0
07/03/2025 09:53:29.430,0.94794,0.163236,0.33672,-5.46,-12.88,-6.51,-0.3525,-1.161,-0.7665,0
07/03/2025 09:53:29.450,0.943548,0.163968,0.347212,-5.845,-11.375,-5.495,-0.3525,-1.161,-0.7665,0
07/03/2025 09:53:29.470,0.94428,0.170068,0.340624,-7.945,-10.01,-4.06,-0.36,-1.161,-0.7635,0
07/03/2025 09:53:29.490,0.931348,0.175192,0.338428,-12.04,-8.015,-3.22,-0.354,-1.1655,-0.7725,0
07/03/2025 09:53:29.510,0.948428,0.16104,0.34526,-12.985,-7.595,-3.57,-0.36,-1.173,-0.7665,0
07/03/2025 09:53:29.530,0.939644,0.153476,0.345504,-10.535,-6.44,-3.675,-0.3615,-1.1535,-0.7575,0
07/03/2025 09:53:29.550,0.950868,0.162504,0.338916,-4.515,-6.055,-2.975,-0.369,-1.1565,-0.7575,0
07/03/2025 09:53:29.570,0.934764,0.216184,0.327204,3.395,-4.515,-3.01,-0.3705,-1.146,-0.765,0
07/03/2025 09:53:29.590,0.91988,0.26718,0.354044,6.475,-3.99,-6.3,-0.369,-1.1475,-0.7635,0
07/03/2025 09:53:29.610,0.955504,0.26352,0.384788,3.815,-4.9,-11.13,-0.369,-1.1595,-0.7665,0
07/03/2025 09:53:29.630,0.964288,0.268888,0.375272,-0.875,-2.87,-13.825,-0.3705,-1.146,-0.759,0
07/03/2025 09:53:29.650,0.956236,0.255956,0.352824,-5.53,-0.14,-14.35,-0.366,-1.146,-0.7515,0
07/03/2025 09:53:29.670,0.942084,0.244,0.348188,-10.815,2.66,-14.42,-0.3705,-1.155,-0.759,0
07/03/2025 09:53:29.690,0.922808,0.228384,0.33916,-15.33,4.445,-15.19,-0.36,-1.152,-0.759,0
07/03/2025 09:53:29.710,0.893772,0.175924,0.3111,-18.76,5.915,-17.5,-0.363,-1.1475,-0.7695,0
07/03/2025 09:53:29.730,0.894504,0.041236,0.299876,-11.13,6.02,-20.755,-0.348,-1.1385,-0.7605,0
07/03/2025 09:53:29.750,0.96868,0.010492,0.286456,4.97,4.655,-21.77,-0.357,-1.1475,-0.7725,0
07/03/2025 09:53:29.770,0.97844,0.007808,0.249612,19.25,8.05,-15.47,-0.357,-1.1475,-0.7725,0
07/03/2025 09:53:29.790,0.93696,0.00854,0.231556,16.24,9.38,-7.49,-0.357,-1.1475,-0.7725,0
07/03/2025 09:53:29.810,0.924516,-0.020984,0.236436,8.68,6.72,1.645,-0.336,-1.1595,-0.756,0
07/03/2025 09:53:29.830,0.927688,-0.064904,0.24278,3.29,3.885,10.955,-0.333,-1.164,-0.7635,0
07/03/2025 09:53:29.850,0.960628,-0.092476,0.239364,2.695,2.1,20.195,-0.315,-1.152,-0.762,0
07/03/2025 09:53:29.870,0.995764,-0.094916,0.244244,4.76,1.82,29.54,-0.3165,-1.149,-0.732,0
07/03/2025 09:53:29.890,0.993324,-0.088572,0.254004,5.88,2.905,39.725,-0.3285,-1.149,-0.732,0
07/03/2025 09:53:29.910,0.988932,-0.074908,0.264984,5.53,3.605,51.66,-0.33,-1.146,-0.7305,0
07/03/2025 09:53:29.930,0.995764,-0.077104,0.265228,4.795,4.06,63.63,-0.336,-1.152,-0.7185,0
07/03/2025 09:53:29.950,1.024556,-0.062952,0.2928,6.055,3.395,74.83,-0.3525,-1.1505,-0.7215,0
07/03/2025 09:53:29.970,1.065304,-0.046848,0.33428,8.4,3.465,84.42,-0.3435,-1.137,-0.696,0
07/03/2025 09:53:29.990,1.082628,-0.046604,0.360388,14.28,6.125,91.945,-0.348,-1.125,-0.705,0
07/03/2025 09:53:30.010,1.125816,-0.05002,0.377712,27.335,8.61,97.265,-0.3675,-1.1295,-0.696,0
07/03/2025 09:53:30.030,1.134112,0.017812,0.410164,46.76,21.7,104.3,-0.375,-1.122,-0.684,0
07/03/2025 09:53:30.050,1.089704,0.077348,0.4026,52.605,31.535,104.265,-0.375,-1.122,-0.684,0
07/03/2025 09:53:30.070,1.05896,0.147132,0.440908,58.24,38.815,99.295,-0.384,-1.1115,-0.6735,0
07/03/2025 09:53:30.090,1.062864,0.26962,0.553392,32.935,40.215,94.22,-0.3915,-1.098,-0.678,0
07/03/2025 09:53:30.110,1.092388,0.172508,0.50142,-21.805,39.2,93.835,-0.4035,-1.101,-0.6795,0
07/03/2025 09:53:30.130,1.02846,0.055144,0.441396,-47.215,40.635,90.265,-0.399,-1.0965,-0.702,0
07/03/2025 09:53:30.150,0.98454,0.061488,0.440908,-55.265,36.4,85.995,-0.3975,-1.065,-0.699,0
07/03/2025 09:53:30.170,0.9821,-0.001708,0.408212,-66.115,31.64,81.865,-0.4125,-1.074,-0.7095,0
07/03/2025 09:53:30.190,0.953796,-0.094184,0.3782,-65.065,30.52,75.355,-0.408,-1.0365,-0.705,0
07/03/2025 09:53:30.210,0.944036,-0.110288,0.367464,-45.5,28.455,67.48,-0.42,-1.0365,-0.7335,0
07/03/2025 09:53:30.230,0.963068,-0.097112,0.429684,-14.315,28.91,57.12,-0.4005,-1.0185,-0.7365,0
07/03/2025 09:53:30.250,1.005524,-0.051484,0.43188,9.52,32.585,47.145,-0.4185,-0.999,-0.7305,0
07/03/2025 09:53:30.270,1.05164,-0.024644,0.401136,8.54,33.81,45.745,-0.408,-1.0065,-0.75,0
07/03/2025 09:53:30.290,0.996008,-0.030012,0.406748,-11.585,37.555,46.76,-0.411,-0.996,-0.7425,0
07/03/2025 09:53:30.310,0.934276,-0.123464,0.387228,-38.185,35.875,50.19,-0.4215,-0.993,-0.735,0
07/03/2025 09:53:30.330,0.916952,-0.152012,0.367708,-42.98,33.6,52.605,-0.4155,-0.9675,-0.747,0
07/03/2025 09:53:30.350,0.878888,-0.161528,0.366244,-40.705,33.04,51.38,-0.4185,-0.954,-0.753,0
07/03/2025 09:53:30.370,0.864736,-0.1647,0.375516,-31.045,32.41,45.955,-0.4155,-0.945,-0.7605,0
07/03/2025 09:53:30.390,0.840092,-0.155184,0.394548,-22.19,32.69,36.89,-0.4245,-0.912,-0.765,0
07/03/2025 09:53:30.410,0.86254,-0.1769,0.365512,-27.23,29.96,31.325,-0.4065,-0.906,-0.7695,0
07/03/2025 09:53:30.430,0.858636,-0.2318,0.270352,-38.64,29.785,26.04,-0.4125,-0.9075,-0.7845,0
07/03/2025 09:53:30.450,0.82106,-0.34282,0.20984,-31.045,30.205,22.995,-0.405,-0.8865,-0.789,0
07/03/2025 09:53:30.470,0.835456,-0.441396,0.156648,-0.525,27.335,20.79,-0.405,-0.8865,-0.789,0
07/03/2025 09:53:30.490,0.795684,-0.35746,0.2928,46.06,30.835,18.655,-0.4005,-0.8805,-0.8025,0
07/03/2025 09:53:30.510,0.819596,-0.229604,0.525332,61.985,28.175,15.68,-0.3975,-0.891,-0.792,0
07/03/2025 09:53:30.530,0.854976,-0.23912,0.626836,28.315,27.37,17.22,-0.387,-0.885,-0.816,0
07/03/2025 09:53:30.550,0.871324,-0.379176,0.584868,-28.315,26.53,25.34,-0.3855,-0.8955,-0.819,0
07/03/2025 09:53:30.570,0.804224,-0.471896,0.435784,-70.875,19.355,35.77,-0.3885,-0.8955,-0.8355,0
07/03/2025 09:53:30.590,0.729072,-0.45262,0.33794,-61.11,15.575,34.86,-0.3885,-0.8955,-0.8355,0
07/03/2025 09:53:30.610,0.720776,-0.520208,0.366488,-27.23,14.84,28.805,-0.3645,-0.8445,-0.8625,0
07/03/2025 09:53:30.630,0.731268,-0.605364,0.437492,26.005,17.43,23.205,-0.3615,-0.843,-0.8625,0
07/03/2025 09:53:30.650,0.704184,-0.511424,0.498248,88.34,21.91,19.775,-0.3765,-0.8415,-0.864,0
07/03/2025 09:53:30.670,0.66612,-0.326472,0.547536,117.6,21.455,18.095,-0.372,-0.864,-0.8715,0
07/03/2025 09:53:30.690,0.661972,-0.256932,0.631228,98.7,17.71,18.48,-0.369,-0.8775,-0.8685,0
07/03/2025 09:53:30.710,0.659532,-0.311588,0.662948,57.015,14.455,19.075,-0.369,-0.8955,-0.876,0
07/03/2025 09:53:30.730,0.647332,-0.365512,0.663924,23.17,11.865,17.43,-0.3615,-0.894,-0.8745,0
07/03/2025 09:53:30.750,0.62586,-0.343552,0.6771,2.73,11.725,12.53,-0.3735,-0.8925,-0.876,0
07/03/2025 09:53:30.770,0.61488,-0.444324,0.676856,-2.485,15.645,7.035,-0.351,-0.915,-0.882,0
07/03/2025 09:53:30.790,0.642696,-0.49532,0.70394,16.94,18.2,4.305,-0.3705,-0.9075,-0.873,0
07/03/2025 09:53:30.810,0.639524,-0.427732,0.74054,34.65,22.715,3.255,-0.3585,-0.8955,-0.882,0
07/03/2025 09:53:30.830,0.664168,-0.4392,0.74298,26.565,24.01,5.67,-0.3525,-0.903,-0.8835,0
07/03/2025 09:53:30.850,0.668072,-0.493368,0.726388,-3.99,24.885,11.9,-0.3525,-0.903,-0.8835,0
07/03/2025 09:53:30.870,0.670512,-0.57218,0.73566,-9.625,29.75,14.84,-0.3465,-0.9015,-0.8925,0
07/03/2025 09:53:30.890,0.683932,-0.565348,0.77836,10.29,36.295,16.625,-0.339,-0.909,-0.885,0
07/03/2025 09:53:30.910,0.651236,-0.543388,0.75762,33.425,43.995,18.165,-0.318,-0.903,-0.888,0
07/03/2025 09:53:30.930,0.668316,-0.592676,0.732732,57.855,51.975,21.84,-0.321,-0.9045,-0.897,0
07/03/2025 09:53:30.950,0.678808,-0.519476,0.81862,84.84,59.43,24.955,-0.3135,-0.9225,-0.906,0
07/03/2025 09:53:30.970,0.694424,-0.57096,0.85766,95.9,65.87,31.325,-0.318,-0.9345,-0.897,0
07/03/2025 09:53:30.990,0.67222,-0.545828,0.864248,98.84,68.53,40.705,-0.3,-0.945,-0.9015,0
07/03/2025 09:53:31.010,0.624152,-0.55754,0.841556,94.5,68.285,50.12,-0.2985,-0.9675,-0.9075,0
07/03/2025 09:53:31.030,0.578036,-0.500444,0.812032,89.04,66.815,59.185,-0.2805,-0.9765,-0.8925,0
07/03/2025 09:53:31.050,0.500688,-0.403332,0.74298,81.375,63.91,64.4,-0.2775,-0.987,-0.9165,0
07/03/2025 09:53:31.070,0.45384,-0.315492,0.692472,69.265,59.325,69.79,-0.27,-0.987,-0.906,0
07/03/2025 09:53:31.090,0.405528,-0.221552,0.665876,58.38,55.58,67.865,-0.2715,-0.9945,-0.912,0
07/03/2025 09:53:31.110,0.374784,-0.211792,0.715408,40.845,51.45,58.38,-0.2715,-0.9945,-0.912,0
07/03/2025 09:53:31.130,0.366488,-0.318908,0.724436,32.13,45.64,50.925,-0.2715,-0.9945,-0.912,0
07/03/2025 09:53:31.150,0.366,-0.264008,0.78202,34.23,41.895,46.83,-0.282,-1.002,-0.882,0
07/03/2025 09:53:31.170,0.358924,-0.297192,0.77958,32.235,37.73,44.625,-0.279,-1.0005,-0.885,0
07/03/2025 09:53:31.190,0.349164,-0.246196,0.754204,30.555,31.78,42.84,-0.264,-1.008,-0.885,0
07/03/2025 09:53:31.210,0.341844,-0.256932,0.762012,26.635,26.775,40.565,-0.252,-1.0065,-0.8685,0
07/03/2025 09:53:31.230,0.351848,-0.301584,0.778848,26.6,22.19,39.27,-0.252,-1.0215,-0.8715,0
07/03/2025 09:53:31.250,0.355264,-0.305732,0.776652,30.065,16.905,39.83,-0.2505,-1.017,-0.861,0
07/03/2025 09:53:31.270,0.323056,-0.261568,0.765428,34.09,10.535,41.405,-0.255,-1.011,-0.864,0
07/03/2025 09:53:31.290,0.309392,-0.20862,0.77836,35.665,3.36,44.38,-0.2625,-1.0215,-0.8715,0
07/03/2025 09:53:31.310,0.310856,-0.209108,0.795196,34.65,-3.185,44.555,-0.2475,-1.014,-0.8655,0
07/03/2025 09:53:31.330,0.308904,-0.201056,0.806176,37.73,-7.56,41.37,-0.2445,-1.02,-0.8445,0
07/03/2025 09:53:31.350,0.305488,-0.161284,0.83204,42.245,-10.325,35.7,-0.24,-1.02,-0.8595,0
07/03/2025 09:53:31.370,0.297436,-0.127124,0.838872,33.6,-14.98,28,-0.267,-1.0305,-0.858,0
07/03/2025 09:53:31.390,0.301584,-0.096136,0.870348,26.775,-17.85,21.735,-0.267,-1.0305,-0.858,0
07/03/2025 09:53:31.410,0.31476,-0.102236,0.904508,20.23,-19.285,14.525,-0.2565,-1.0425,-0.858,0
07/03/2025 09:53:31.430,0.324276,-0.134932,0.916708,16.485,-18.9,7.245,-0.267,-1.0425,-0.8475,0
07/03/2025 09:53:31.450,0.325984,-0.119072,0.938668,15.05,-17.325,0.49,-0.282,-1.0425,-0.843,0
07/03/2025 09:53:31.470,0.33306,-0.15494,0.9516,9.135,-15.855,-4.48,-0.282,-1.0425,-0.843,0
07/03/2025 09:53:31.490,0.342576,-0.197396,0.947452,3.78,-14.56,-7.035,-0.2715,-1.059,-0.84,0
07/03/2025 09:53:31.510,0.338916,-0.218624,0.934032,3.78,-13.825,-8.365,-0.273,-1.0455,-0.828,0
07/03/2025 09:53:31.530,0.336476,-0.202764,0.93696,6.37,-14,-7.91,-0.2805,-1.05,-0.834,0
07/03/2025 09:53:31.550,0.339404,-0.232288,0.94062,6.93,-14,-5.88,-0.297,-1.0515,-0.8325,0
07/03/2025 09:53:31.570,0.346968,-0.251808,0.95892,8.4,-13.825,-2.1,-0.291,-1.0635,-0.8265,0
07/03/2025 09:53:31.590,0.342332,-0.248392,0.960872,11.025,-12.705,2.135,-0.2925,-1.044,-0.8265,0
07/03/2025 09:53:31.610,0.332328,-0.209352,0.958432,12.39,-12.075,4.375,-0.288,-1.056,-0.825,0
07/03/2025 09:53:31.630,0.338916,-0.203496,0.960628,9.94,-10.395,4.655,-0.2925,-1.065,-0.825,0
07/03/2025 09:53:31.650,0.33184,-0.202764,0.982344,5.775,-5.075,1.715,-0.2865,-1.0545,-0.813,0
07/03/2025 09:53:31.670,0.328424,-0.19154,0.957944,1.785,-2.485,0.245,-0.294,-1.0695,-0.8175,0
07/03/2025 09:53:31.690,0.329888,-0.171776,0.950136,-2.24,-0.63,-1.54,-0.3,-1.068,-0.831,0
07/03/2025 09:53:31.710,0.345992,-0.181292,0.9577,-8.085,1.155,-2.87,-0.291,-1.077,-0.8265,0
07/03/2025 09:53:31.730,0.347944,-0.210572,0.94672,-10.01,3.885,-5.005,-0.2835,-1.0845,-0.8325,0
07/03/2025 09:53:31.750,0.351604,-0.24522,0.920124,-5.53,5.04,-4.41,-0.2625,-1.0725,-0.8445,0
07/03/2025 09:53:31.770,0.355996,-0.22936,0.935008,1.225,4.655,-1.47,-0.273,-1.071,-0.84,0
07/03/2025 09:53:31.790,0.356728,-0.21594,0.938912,3.57,3.29,2.555,-0.276,-1.0665,-0.8565,0
07/03/2025 09:53:31.810,0.343796,-0.20862,0.9211,4.06,2.17,6.23,-0.27,-1.0755,-0.8535,0
07/03/2025 09:53:31.830,0.338428,-0.18666,0.902556,5.775,0.455,8.365,-0.2655,-1.08,-0.8595,0
07/03/2025 09:53:31.850,0.341844,-0.171532,0.89426,7.315,-0.77,8.995,-0.276,-1.0755,-0.8595,0
07/03/2025 09:53:31.870,0.347456,-0.160064,0.904508,7.945,-1.855,8.54,-0.2805,-1.0845,-0.8625,0
07/03/2025 09:53:31.890,0.345016,-0.163968,0.91988,7.56,-1.995,7.21,-0.27,-1.086,-0.864,0
07/03/2025 09:53:31.910,0.340868,-0.152012,0.919636,5.81,-2.59,4.515,-0.273,-1.0785,-0.8655,0
07/03/2025 09:53:31.930,0.33672,-0.141276,0.904508,3.78,-2.975,2.135,-0.273,-1.0785,-0.8655,0
07/03/2025 09:53:31.950,0.3355,-0.138348,0.893284,2.1,-4.025,-0.105,-0.2895,-1.08,-0.8625,0
07/03/2025 09:53:31.970,0.351604,-0.138836,0.898896,1.68,-4.55,-2.94,-0.2835,-1.0845,-0.8595,0
07/03/2025 09:53:31.990,0.376492,-0.161528,0.9211,1.54,-4.165,-5.215,-0.2895,-1.0785,-0.8715,0
07/03/2025 09:53:32.010,0.3843,-0.184952,0.935008,1.715,-3.115,-6.79,-0.2895,-1.08,-0.8655,0
07/03/2025 09:53:32.030,0.377956,-0.186904,0.93574,1.68,-2.24,-6.16,-0.2955,-1.083,-0.864,0
07/03/2025 09:53:32.050,0.370148,-0.209596,0.915,1.085,-1.75,-4.34,-0.285,-1.0845,-0.864,0
07/03/2025 09:53:32.070,0.366244,-0.180804,0.909632,2.45,-2.345,-2.1,-0.2865,-1.0845,-0.864,0
07/03/2025 09:53:32.090,0.364536,-0.173972,0.904508,2.835,-2.45,-0.595,-0.288,-1.083,-0.873,0
07/03/2025 09:53:32.110,0.361364,-0.199348,0.917196,1.26,-2.8,0.035,-0.297,-1.0905,-0.87,0
07/03/2025 09:53:32.130,0.357704,-0.197884,0.909632,2.275,-2.59,0.21,-0.276,-1.0995,-0.8655,0
07/03/2025 09:53:32.150,0.358436,-0.183976,0.907436,3.885,-2.59,-0.175,-0.2925,-1.098,-0.867,0
07/03/2025 09:53:32.170,0.35502,-0.169336,0.901824,2.975,-2.625,-0.77,-0.2865,-1.092,-0.8715,0
07/03/2025 09:53:32.190,0.356972,-0.163724,0.896944,-0.14,-3.57,-1.855,-0.2865,-1.092,-0.8715,0
07/03/2025 09:53:32.210,0.353068,-0.15738,0.89182,-1.47,-4.55,-2.45,-0.2865,-1.092,-0.8715,0
07/03/2025 09:53:32.230,0.35624,-0.158356,0.895968,-2.52,-5.67,-3.325,-0.291,-1.0845,-0.8775,0
07/03/2025 09:53:32.250,0.36966,-0.16958,0.894992,-2.52,-6.86,-4.06,-0.2955,-1.08,-0.879,0
07/03/2025 09:53:32.270,0.386252,-0.169092,0.903776,-0.63,-7.805,-4.585,-0.2925,-1.0965,-0.8715,0
07/03/2025 09:53:32.290,0.39284,-0.160064,0.90158,0.735,-8.33,-4.935,-0.2895,-1.089,-0.8595,0
07/03/2025 09:53:32.310,0.389424,-0.147376,0.904508,-0.42,-9.345,-5.215,-0.285,-1.077,-0.8685,0
07/03/2025 09:53:32.330,0.40382,-0.136152,0.909388,-2.345,-9.31,-6.02,-0.297,-1.074,-0.861,0
07/03/2025 09:53:32.350,0.405772,-0.103212,0.922076,-5.565,-8.645,-8.155,-0.3045,-1.083,-0.867,0
07/03/2025 09:53:32.370,0.4209,-0.140056,0.922808,-19.845,-9.38,-8.61,-0.315,-1.0725,-0.855,0
07/03/2025 09:53:32.390,0.434808,-0.250588,0.915732,-29.75,-7.735,-6.44,-0.318,-1.0755,-0.8475,0
07/03/2025 09:53:32.410,0.4392,-0.282064,0.934764,-25.2,-5.95,-4.165,-0.3105,-1.062,-0.843,0
07/03/2025 09:53:32.430,0.41968,-0.247904,0.933788,-13.23,-3.85,-1.61,-0.3105,-1.059,-0.84,0
07/03/2025 09:53:32.450,0.38552,-0.211792,0.873032,-4.725,-4.725,1.75,-0.312,-1.056,-0.837,0
07/03/2025 09:53:32.470,0.376248,-0.247416,0.854976,-6.44,-6.545,3.815,-0.312,-1.056,-0.837,0
07/03/2025 09:53:32.490,0.375028,-0.234484,0.859368,-1.085,-7.245,4.865,-0.312,-1.059,-0.8295,0
07/03/2025 09:53:32.510,0.37698,-0.187636,0.880352,6.86,-8.365,4.62,-0.3135,-1.056,-0.8235,0
07/03/2025 09:53:32.530,0.386496,-0.152012,0.900604,8.855,-8.75,3.675,-0.312,-1.0485,-0.828,0
07/03/2025 09:53:32.550,0.386008,-0.157136,0.881328,7.21,-8.085,1.68,-0.321,-1.0575,-0.81,0
07/03/2025 09:53:32.570,0.403332,-0.15982,0.874496,6.615,-8.085,-0.77,-0.3075,-1.0515,-0.804,0
07/03/2025 09:53:32.590,0.426756,-0.15982,0.896212,6.125,-8.225,-2.695,-0.3165,-1.065,-0.8085,0
07/03/2025 09:53:32.610,0.43554,-0.165676,0.904264,6.79,-6.93,-4.235,-0.3105,-1.056,-0.8115,0
07/03/2025 09:53:32.630,0.438468,-0.153476,0.916952,9.03,-5.985,-5.32,-0.3135,-1.0605,-0.7995,0
07/03/2025 09:53:32.650,0.45384,-0.146644,0.923296,9.45,-5.285,-5.775,-0.3135,-1.0605,-0.8115,0
07/03/2025 09:53:32.670,0.455548,-0.146644,0.920856,7.98,-4.025,-5.775,-0.3165,-1.074,-0.81,0
07/03/2025 09:53:32.690,0.448228,-0.150304,0.917196,7.7,-3.255,-5.215,-0.3225,-1.062,-0.8085,0
07/03/2025 09:53:32.710,0.442128,-0.15128,0.919392,8.715,-2.8,-4.97,-0.321,-1.071,-0.7965,0
07/03/2025 09:53:32.730,0.435052,-0.159576,0.920368,7.98,-1.26,-4.445,-0.321,-1.071,-0.7965,0
07/03/2025 09:53:32.750,0.4331,-0.173728,0.928176,8.015,-0.245,-3.885,-0.3135,-1.077,-0.798,0
07/03/2025 09:53:32.770,0.431636,-0.171288,0.936472,10.395,1.4,-3.57,-0.3195,-1.0695,-0.81,0
07/03/2025 09:53:32.790,0.422364,-0.154208,0.936716,11.795,2.695,-3.395,-0.321,-1.074,-0.7995,0
07/03/2025 09:53:32.810,0.422852,-0.150548,0.92842,10.815,3.885,-3.325,-0.327,-1.083,-0.801,0
07/03/2025 09:53:32.830,0.421388,-0.16592,0.932812,9.38,5.74,-3.01,-0.318,-1.068,-0.7995,0
07/03/2025 09:53:32.850,0.418216,-0.177632,0.951112,9.695,7.105,-1.855,-0.315,-1.08,-0.801,0
07/03/2025 09:53:32.870,0.41724,-0.184952,0.964288,10.045,8.82,0.07,-0.3165,-1.0905,-0.801,0
07/03/2025 09:53:32.890,0.420656,-0.1952,0.982344,11.445,11.06,1.4,-0.3045,-1.095,-0.7845,0
07/03/2025 09:53:32.910,0.40992,-0.176412,0.961116,13.265,13.755,2.66,-0.3135,-1.0995,-0.7965,0
07/03/2025 09:53:32.930,0.403332,-0.132248,0.9455,13.825,15.12,3.115,-0.3075,-1.1085,-0.789,0
07/03/2025 09:53:32.950,0.402112,-0.160064,0.967704,9.135,16.905,5.215,-0.309,-1.1025,-0.789,0
07/03/2025 09:53:32.970,0.394304,-0.180804,0.95892,8.26,19.11,7.805,-0.309,-1.0995,-0.7965,0
07/03/2025 09:53:32.990,0.377956,-0.138836,0.94062,9.87,21.315,9.555,-0.309,-1.0995,-0.7965,0
07/03/2025 09:53:33.010,0.375516,-0.160796,0.942328,7.735,22.75,9.765,-0.285,-1.107,-0.8145,0
07/03/2025 09:53:33.030,0.369172,-0.17202,0.930616,8.365,23.17,10.675,-0.285,-1.1025,-0.819,0
07/03/2025 09:53:33.050,0.360388,-0.155428,0.911828,8.925,22.925,12.285,-0.2835,-1.1145,-0.828,0
07/03/2025 09:53:33.070,0.358436,-0.149084,0.91134,9.03,22.225,13.195,-0.279,-1.11,-0.831,0
07/03/2025 09:53:33.090,0.3538,-0.157624,0.911828,7.77,21.665,14.7,-0.2775,-1.122,-0.846,0
07/03/2025 09:53:33.110,0.35136,-0.158112,0.913536,8.295,21.14,15.82,-0.267,-1.1145,-0.846,0
07/03/2025 09:53:33.130,0.340624,-0.144692,0.900116,8.82,19.81,17.71,-0.2655,-1.1115,-0.8535,0
07/03/2025 09:53:33.150,0.332816,-0.134932,0.892064,9.275,18.165,18.48,-0.27,-1.122,-0.8385,0
07/03/2025 09:53:33.170,0.33062,-0.133712,0.879864,8.225,16.345,19.81,-0.2655,-1.1175,-0.855,0
07/03/2025 09:53:33.190,0.321104,-0.136884,0.892796,9.24,14.735,19.985,-0.276,-1.1055,-0.8565,0
07/03/2025 09:53:33.210,0.321836,-0.123952,0.911584,10.22,13.02,20.895,-0.2895,-1.1235,-0.8535,0
07/03/2025 09:53:33.230,0.314028,-0.12444,0.907436,9.59,11.375,21.595,-0.282,-1.1085,-0.858,0
07/03/2025 09:53:33.250,0.301096,-0.096868,0.925004,9.835,9.66,21.7,-0.2805,-1.1055,-0.8565,0
07/03/2025 09:53:33.270,0.297436,-0.093696,0.9272,7.735,8.89,20.79,-0.2805,-1.1055,-0.8565,0
07/03/2025 09:53:33.290,0.294264,-0.110532,0.92232,5.985,8.435,19.565,-0.2805,-1.11,-0.864,0
07/03/2025 09:53:33.310,0.294264,-0.11224,0.933544,7.035,7.42,18.69,-0.273,-1.1085,-0.8535,0
07/03/2025 09:53:33.330,0.296704,-0.128832,0.944036,7.42,6.44,18.62,-0.2745,-1.11,-0.855,0
07/03/2025 09:53:33.350,0.293776,-0.123952,0.929152,7.525,5.11,19.67,-0.2715,-1.116,-0.8625,0
07/03/2025 09:53:33.370,0.280356,-0.116876,0.9272,8.295,3.605,20.72,-0.279,-1.1145,-0.8475,0
07/03/2025 09:53:33.390,0.289384,-0.121024,0.935252,7.56,2.415,22.295,-0.288,-1.1145,-0.8505,0
07/03/2025 09:53:33.410,0.277428,-0.11102,0.941108,8.505,1.295,23.17,-0.279,-1.122,-0.852,0
07/03/2025 09:53:33.430,0.282308,-0.101748,0.926224,8.575,-0.42,22.995,-0.279,-1.116,-0.8535,0
07/03/2025 09:53:33.450,0.284504,-0.086376,0.931836,8.505,-1.12,22.12,-0.273,-1.1145,-0.8505,0
07/03/2025 09:53:33.470,0.276696,-0.056364,0.930128,7.7,-1.82,20.3,-0.288,-1.119,-0.852,0
07/03/2025 09:53:33.490,0.272548,-0.043432,0.933056,4.55,-2.135,17.5,-0.2865,-1.1145,-0.8535,0
07/03/2025 09:53:33.510,0.265228,-0.041968,0.926956,3.045,-1.96,13.79,-0.2985,-1.0995,-0.8655,0
07/03/2025 09:53:33.530,0.274012,-0.064904,0.936716,1.365,-2.66,8.505,-0.2985,-1.0995,-0.8655,0
07/03/2025 09:53:33.550,0.290604,-0.039528,0.945012,2.03,-3.64,5.215,-0.2985,-1.0995,-0.8655,0
07/03/2025 09:53:33.570,0.293776,-0.058316,0.930372,-1.68,-4.2,2.87,-0.2955,-1.092,-0.8565,0
07/03/2025 09:53:33.590,0.295728,-0.077104,0.937936,-1.82,-5.32,1.085,-0.294,-1.083,-0.855,0
07/03/2025 09:53:33.610,0.299144,-0.081008,0.937448,-0.14,-6.055,0.105,-0.2925,-1.0815,-0.849,0
07/03/2025 09:53:33.630,0.301828,-0.095404,0.951112,0.245,-6.86,-0.14,-0.306,-1.0905,-0.849,0
07/03/2025 09:53:33.650,0.299876,-0.089548,0.944036,0.525,-7.56,-0.175,-0.312,-1.086,-0.8385,0
07/03/2025 09:53:33.670,0.2989,-0.088328,0.943304,0.63,-7.665,-0.42,-0.309,-1.0845,-0.8325,0
07/03/2025 09:53:33.690,0.30256,-0.101016,0.940376,0.91,-8.085,-0.49,-0.324,-1.083,-0.8235,0
07/03/2025 09:53:33.710,0.306708,-0.083204,0.944036,2.555,-8.12,-0.91,-0.327,-1.086,-0.837,0
07/03/2025 09:53:33.730,0.30744,-0.085156,0.956236,1.54,-8.33,-0.84,-0.321,-1.0785,-0.819,0
07/03/2025 09:53:33.750,0.31476,-0.089304,0.969412,0,-7.77,-1.19,-0.3285,-1.0845,-0.819,0
07/03/2025 09:53:33.770,0.304756,-0.090524,0.972096,0.455,-6.3,-2.73,-0.3165,-1.08,-0.8085,0
07/03/2025 09:53:33.790,0.311344,-0.079788,0.976976,-1.435,-4.095,-4.41,-0.315,-1.08,-0.8145,0
07/03/2025 09:53:33.810,0.30866,-0.101016,0.991372,-4.2,-2.03,-4.795,-0.315,-1.08,-0.8145,0
07/03/2025 09:53:33.830,0.304024,-0.118584,0.97722,-4.585,-0.105,-4.76,-0.324,-1.0875,-0.819,0
07/03/2025 09:53:33.850,0.30256,-0.116632,0.96746,-2.94,0.7,-4.025,-0.309,-1.095,-0.798,0
07/03/2025 09:53:33.870,0.295728,-0.111264,0.963068,-2.625,1.085,-3.535,-0.303,-1.098,-0.8145,0
07/03/2025 09:53:33.890,0.29524,-0.129808,0.959896,-3.36,1.365,-2.8,-0.306,-1.0755,-0.819,0
07/03/2025 09:53:33.910,0.294996,-0.130784,0.952576,-2.8,1.435,-2.03,-0.303,-1.089,-0.816,0
07/03/2025 09:53:33.930,0.301096,-0.129076,0.948428,-1.33,0.98,-1.19,-0.3105,-1.086,-0.804,0
07/03/2025 09:53:33.950,0.299876,-0.115412,0.944036,-0.42,0.49,-0.315,-0.3165,-1.086,-0.8025,0
07/03/2025 09:53:33.970,0.30622,-0.108336,0.938912,0.14,0.42,0.175,-0.3135,-1.0815,-0.8055,0
07/03/2025 09:53:33.990,0.31232,-0.10614,0.932812,1.225,0.735,-0.07,-0.3135,-1.0815,-0.8055,0
07/03/2025 09:53:34.010,0.315248,-0.109556,0.943304,1.26,0.665,0.035,-0.3075,-1.08,-0.804,0
07/03/2025 09:53:34.030,0.314028,-0.109556,0.945988,0.525,0.84,-0.35,-0.3105,-1.068,-0.807,0
07/03/2025 09:53:34.050,0.305732,-0.104432,0.940376,-0.315,0.945,-1.015,-0.312,-1.077,-0.8085,0
07/03/2025 09:53:34.070,0.307928,-0.107116,0.933544,-0.175,0.665,-1.68,-0.321,-1.0695,-0.81,0
07/03/2025 09:53:34.090,0.308904,-0.106384,0.942084,0.385,0.28,-1.295,-0.315,-1.08,-0.804,0
07/03/2025 09:53:34.110,0.307928,-0.116144,0.94672,-0.735,-0.035,-0.84,-0.3195,-1.0845,-0.8115,0
07/03/2025 09:53:34.130,0.302316,-0.109556,0.946476,-0.28,-0.28,-0.49,-0.309,-1.095,-0.798,0
07/03/2025 09:53:34.150,0.301584,-0.109312,0.954284,-0.245,-0.455,-0.42,-0.312,-1.0905,-0.8055,0
07/03/2025 09:53:34.170,0.302072,-0.109312,0.951844,-1.26,-0.455,-0.315,-0.3135,-1.089,-0.8055,0
07/03/2025 09:53:34.190,0.304024,-0.113704,0.953308,-1.855,-0.315,-0.28,-0.3255,-1.113,-0.8085,0
07/03/2025 09:53:34.210,0.30134,-0.116388,0.944768,-0.91,-0.175,-0.245,-0.309,-1.101,-0.7995,0
07/03/2025 09:53:34.230,0.295972,-0.114924,0.957212,0.35,0.245,-0.28,-0.303,-1.1085,-0.8175,0
07/03/2025 09:53:34.250,0.296704,-0.105408,0.958188,-0.805,0.525,-0.595,-0.3015,-1.113,-0.804,0
07/03/2025 09:53:34.270,0.298412,-0.121024,0.955748,-2.765,0.84,-0.56,-0.294,-1.1085,-0.804,0
07/03/2025 09:53:34.290,0.296704,-0.11956,0.948916,-2.8,1.12,-0.7,-0.2955,-1.1145,-0.8295,0
07/03/2025 09:53:34.310,0.29768,-0.117852,0.945012,-2.065,1.05,-0.455,-0.294,-1.1175,-0.834,0
07/03/2025 09:53:34.330,0.303292,-0.117852,0.95038,-1.4,0.91,0.14,-0.294,-1.1175,-0.834,0
07/03/2025 09:53:34.350,0.29768,-0.106384,0.939156,-2.03,0.595,0.315,-0.294,-1.1175,-0.834,0
07/03/2025 09:53:34.370,0.307196,-0.11712,0.940132,-3.01,0.035,0.455,-0.294,-1.116,-0.8415,0
07/03/2025 09:53:34.390,0.305488,-0.114192,0.931348,-2.065,-0.105,0.28,-0.2925,-1.11,-0.8385,0
07/03/2025 09:53:34.410,0.306708,-0.106872,0.937936,-0.315,-0.77,0.175,-0.2775,-1.1025,-0.846,0
07/03/2025 09:53:34.430,0.3111,-0.11712,0.929396,-0.875,-1.4,0.245,-0.2985,-1.1055,-0.8505,0
07/03/2025 09:53:34.450,0.312076,-0.114436,0.935008,-0.49,-2.03,0,-0.297,-1.1115,-0.852,0
07/03/2025 09:53:34.470,0.316468,-0.105408,0.936716,-0.525,-2.765,-0.35,-0.297,-1.119,-0.855,0
07/03/2025 09:53:34.490,0.31598,-0.100284,0.939156,-2.45,-3.465,-0.735,-0.297,-1.1025,-0.8505,0
07/03/2025 09:53:34.510,0.314272,-0.113216,0.931836,-4.27,-3.815,-1.295,-0.3015,-1.1055,-0.84,0
07/03/2025 09:53:34.530,0.319152,-0.11224,0.938424,-3.885,-3.885,-1.715,-0.2985,-1.1055,-0.837,0
07/03/2025 09:53:34.550,0.32086,-0.110044,0.950136,-3.955,-3.675,-2.17,-0.3075,-1.104,-0.8475,0
07/03/2025 09:53:34.570,0.319152,-0.114436,0.951356,-6.09,-3.605,-2.415,-0.297,-1.101,-0.843,0
07/03/2025 09:53:34.590,0.32208,-0.119804,0.952576,-7.28,-3.01,-2.205,-0.2955,-1.104,-0.8475,0
07/03/2025 09:53:34.610,0.311588,-0.12322,0.955504,-8.05,-2.45,-2.345,-0.2955,-1.104,-0.8475,0
07/03/2025 09:53:34.630,0.310856,-0.125172,0.959164,-10.185,-2.38,-2.975,-0.312,-1.1115,-0.849,0
07/03/2025 09:53:34.650,0.30866,-0.119804,0.95526,-13.685,-2.24,-3.5,-0.318,-1.116,-0.8415,0
07/03/2025 09:53:34.670,0.309636,-0.142984,0.9394,-17.92,-2.275,-3.325,-0.303,-1.11,-0.8445,0
07/03/2025 09:53:34.690,0.309636,-0.170068,0.942572,-17.57,-1.505,-2.695,-0.3,-1.0995,-0.8655,0
07/03/2025 09:53:34.710,0.311344,-0.172508,0.932812,-14.175,-1.225,-2.205,-0.3,-1.0995,-0.849,0
07/03/2025 09:53:34.730,0.315492,-0.168604,0.924516,-10.15,-1.155,-1.995,-0.3015,-1.0935,-0.8565,0
07/03/2025 09:53:34.750,0.315248,-0.148352,0.923052,-8.26,-1.715,-2.1,-0.2985,-1.086,-0.858,0
07/03/2025 09:53:34.770,0.30988,-0.149572,0.922564,-11.095,-2.695,-1.96,-0.3,-1.0965,-0.8475,0
07/03/2025 09:53:34.790,0.310368,-0.142252,0.915488,-16.275,-4.165,-2.17,-0.3,-1.077,-0.8595,0
07/03/2025 09:53:34.810,0.294752,-0.152988,0.897188,-22.4,-5.81,-2.52,-0.2985,-1.065,-0.8625,0
07/03/2025 09:53:34.830,0.296704,-0.150792,0.895968,-28.35,-7.91,-3.325,-0.3075,-1.0695,-0.8535,0
07/03/2025 09:53:34.850,0.29402,-0.164456,0.902312,-32.445,-10.045,-4.095,-0.3045,-1.0695,-0.855,0
07/03/2025 09:53:34.870,0.28792,-0.160308,0.901092,-39.69,-13.37,-6.16,-0.309,-1.0455,-0.8655,0
07/03/2025 09:53:34.890,0.286944,-0.185196,0.897432,-48.265,-16.205,-7.42,-0.318,-1.0365,-0.843,0
07/03/2025 09:53:34.910,0.308904,-0.215208,0.906216,-58.835,-19.32,-8.12,-0.3255,-1.026,-0.8505,0
07/03/2025 09:53:34.930,0.336232,-0.255712,0.920612,-69.09,-21.105,-7.56,-0.3255,-1.038,-0.8445,0
07/03/2025 09:53:34.950,0.348188,-0.288408,0.926712,-73.99,-20.475,-6.335,-0.3285,-1.0125,-0.8475,0
07/03/2025 09:53:34.970,0.379176,-0.338184,0.914024,-80.255,-20.195,-4.445,-0.3285,-1.0065,-0.8475,0
07/03/2025 09:53:34.990,0.399184,-0.380152,0.924028,-81.515,-18.935,-2.135,-0.3285,-1.0065,-0.8475,0
07/03/2025 09:53:35.010,0.417728,-0.404308,0.91988,-81.69,-16.835,0.7,-0.333,-0.978,-0.84,0
07/03/2025 09:53:35.030,0.417484,-0.418948,0.90646,-84.105,-14.105,3.99,-0.3375,-0.978,-0.8535,0
07/03/2025 09:53:35.050,0.420412,-0.478972,0.913292,-82.145,-9.45,6.79,-0.357,-0.9675,-0.8385,0
07/03/2025 09:53:35.070,0.4148,-0.5246,0.903776,-71.26,-3.36,9.24,-0.354,-0.957,-0.8265,0
07/03/2025 09:53:35.090,0.388448,-0.499468,0.874496,-58.415,1.715,11.375,-0.339,-0.9375,-0.8295,0
07/03/2025 09:53:35.110,0.371368,-0.474336,0.86742,-51.8,4.69,12.88,-0.339,-0.9405,-0.8295,0
07/03/2025 09:53:35.130,0.356972,-0.459696,0.883524,-47.145,8.295,13.23,-0.327,-0.918,-0.8355,0
07/03/2025 09:53:35.150,0.348188,-0.417728,0.87596,-49.28,10.01,13.09,-0.327,-0.918,-0.8355,0
07/03/2025 09:53:35.170,0.35136,-0.433588,0.870592,-59.29,11.305,12.425,-0.3225,-0.9015,-0.843,0
07/03/2025 09:53:35.190,0.361852,-0.484828,0.844972,-73.815,11.69,12.915,-0.3345,-0.87,-0.8385,0
07/03/2025 09:53:35.210,0.377956,-0.55998,0.815448,-85.05,12.005,15.085,-0.336,-0.873,-0.8475,0
07/03/2025 09:53:35.230,0.379908,-0.61244,0.792024,-87.325,14.805,16.765,-0.321,-0.8595,-0.8475,0
07/03/2025 09:53:35.250,0.363804,-0.636352,0.764452,-79.905,17.78,18.375,-0.312,-0.834,-0.8565,0
07/03/2025 09:53:35.270,0.35624,-0.608536,0.748592,-75.215,20.23,19.6,-0.324,-0.816,-0.8505,0
07/03/2025 09:53:35.290,0.337452,-0.617076,0.725656,-81.165,21.98,21.91,-0.315,-0.807,-0.852,0
07/03/2025 09:53:35.310,0.330376,-0.6527,0.697108,-93.94,21.63,23.59,-0.3225,-0.7965,-0.8565,0
07/03/2025 09:53:35.330,0.306708,-0.665632,0.671976,-103.845,23.31,25.97,-0.3225,-0.7785,-0.8505,0
07/03/2025 09:53:35.350,0.284748,-0.715896,0.629032,-110.565,24.15,26.95,-0.3105,-0.7515,-0.8505,0
07/03/2025 09:53:35.370,0.275476,-0.760792,0.587308,-110.775,23.73,28.665,-0.3015,-0.726,-0.8415,0
07/03/2025 09:53:35.390,0.243268,-0.773968,0.537044,-106.645,25.13,29.435,-0.291,-0.7035,-0.8445,0
07/03/2025 09:53:35.410,0.250344,-0.814472,0.552172,-98.385,23.38,28.735,-0.291,-0.7035,-0.8445,0
07/03/2025 09:53:35.430,0.217648,-0.813252,0.51484,-88.06,27.93,28.945,-0.291,-0.7035,-0.8445,0
07/03/2025 09:53:35.450,0.190564,-0.788852,0.462868,-76.265,31.045,27.685,-0.261,-0.642,-0.8325,0
07/03/2025 09:53:35.470,0.17446,-0.764208,0.4392,-70.525,31.29,25.48,-0.2625,-0.63,-0.8325,0
07/03/2025 09:53:35.490,0.172508,-0.774212,0.414068,-75.565,29.4,22.505,-0.2385,-0.618,-0.8265,0
07/03/2025 09:53:35.510,0.175924,-0.793244,0.39162,-82.565,27.825,19.915,-0.2325,-0.5955,-0.8265,0
07/03/2025 09:53:35.530,0.160796,-0.814716,0.341844,-85.435,28.595,17.64,-0.222,-0.5865,-0.8295,0
07/03/2025 09:53:35.550,0.172996,-0.836188,0.338428,-91,25.445,15.295,-0.2115,-0.564,-0.8295,0
07/03/2025 09:53:35.570,0.146644,-0.885964,0.298656,-92.33,26.005,14.735,-0.2085,-0.552,-0.822,0
07/03/2025 09:53:35.590,0.145912,-0.91378,0.244732,-81.06,26.18,14.21,-0.204,-0.537,-0.822,0
07/03/2025 09:53:35.610,0.11956,-0.884744,0.217892,-62.125,27.335,12.705,-0.207,-0.5265,-0.81,0
07/03/2025 09:53:35.630,0.124684,-0.854732,0.214476,-50.015,25.27,10.22,-0.201,-0.51,-0.8175,0
07/03/2025 09:53:35.650,0.110532,-0.838384,0.214232,-45.535,24.255,6.65,-0.192,-0.4995,-0.8085,0
07/03/2025 09:53:35.670,0.081008,-0.891576,0.187392,-42.07,19.005,1.96,-0.1875,-0.4965,-0.8085,0
07/03/2025 09:53:35.690,0.061976,-0.91866,0.171776,-36.295,12.495,-0.455,-0.1875,-0.4965,-0.8085,0
07/03/2025 09:53:35.710,0.063684,-0.936228,0.194224,-25.9,5.425,-3.185,-0.1845,-0.48,-0.8115,0
07/03/2025 09:53:35.730,0.063684,-0.95038,0.227408,-13.58,-1.61,-6.23,-0.1875,-0.4725,-0.801,0
07/03/2025 09:53:35.750,0.078324,-0.959896,0.244488,-4.025,-8.645,-8.68,-0.1845,-0.4755,-0.8025,0
07/03/2025 09:53:35.770,0.092232,-1.003084,0.281088,4.235,-14.14,-10.43,-0.2025,-0.48,-0.8025,0
07/03/2025 09:53:35.790,0.105164,-1.034804,0.303048,16.03,-17.36,-9.975,-0.2025,-0.4695,-0.8025,0
07/03/2025 09:53:35.810,0.124196,-1.031632,0.334524,27.195,-17.99,-8.925,-0.1965,-0.492,-0.8055,0
07/03/2025 09:53:35.830,0.135908,-1.011624,0.356972,30.94,-16.17,-6.3,-0.1995,-0.48,-0.8025,0
07/03/2025 09:53:35.850,0.130296,-0.986004,0.396012,25.585,-13.09,-3.08,-0.195,-0.48,-0.8145,0
07/03/2025 09:53:35.870,0.134444,-0.97844,0.404552,16.17,-8.33,0.245,-0.2085,-0.474,-0.8085,0
07/03/2025 09:53:35.890,0.111264,-0.96868,0.396988,5.46,-2.905,3.15,-0.228,-0.4905,-0.8235,0
07/03/2025 09:53:35.910,0.10004,-0.975268,0.3843,-6.23,1.155,5.145,-0.213,-0.498,-0.8175,0
07/03/2025 09:53:35.930,0.099308,-1.01504,0.363072,-13.335,4.095,7.07,-0.204,-0.483,-0.8085,0
07/03/2025 09:53:35.950,0.093208,-0.979172,0.330132,-12.81,7.035,10.43,-0.204,-0.4965,-0.807,0
07/03/2025 09:53:35.970,0.087352,-0.978684,0.312808,-12.95,7.105,11.515,-0.1845,-0.4905,-0.816,0
07/03/2025 09:53:35.990,0.095404,-0.97112,0.292312,-14.735,6.055,12.565,-0.1845,-0.4905,-0.816,0
07/03/2025 09:53:36.010,0.108092,-0.9821,0.264496,-13.51,5.005,13.475,-0.1755,-0.489,-0.8025,0
07/03/2025 09:53:36.030,0.113704,-0.988932,0.244488,-10.01,4.27,14.385,-0.195,-0.489,-0.8055,0
07/03/2025 09:53:36.050,0.113216,-0.976244,0.24644,-5.145,3.92,15.19,-0.201,-0.4965,-0.7965,0
07/03/2025 09:53:36.070,0.1098,-0.951844,0.234484,-0.84,3.255,15.855,-0.186,-0.4905,-0.8085,0
07/03/2025 09:53:36.090,0.102968,-0.904508,0.234484,1.225,2.695,15.085,-0.192,-0.486,-0.801,0
07/03/2025 09:53:36.110,0.105164,-0.88938,0.221552,-1.015,0.875,13.65,-0.201,-0.4905,-0.801,0
07/03/2025 09:53:36.130,0.105896,-0.90158,0.223016,-3.36,-0.245,11.095,-0.192,-0.489,-0.8025,0
07/03/2025 09:53:36.150,0.097112,-0.905728,0.232044,-2.66,-1.26,8.785,-0.198,-0.4995,-0.798,0
07/03/2025 09:53:36.170,0.092964,-0.902312,0.22814,-2.275,-1.47,6.51,-0.195,-0.489,-0.7935,0
07/03/2025 09:53:36.190,0.089792,-0.90524,0.237168,-4.375,-2.17,4.27,-0.198,-0.486,-0.789,0
07/03/2025 09:53:36.210,0.081008,-0.925248,0.243268,-8.575,-3.15,1.715,-0.2085,-0.504,-0.7875,0
07/03/2025 09:53:36.230,0.08052,-0.949648,0.232532,-8.68,-3.36,0.77,-0.198,-0.483,-0.78,0
07/03/2025 09:53:36.250,0.067588,-0.935252,0.243756,-7.945,-3.22,-0.07,-0.198,-0.4935,-0.768,0
07/03/2025 09:53:36.270,0.063196,-0.944524,0.260592,-10.71,-3.71,-0.875,-0.195,-0.4965,-0.7695,0
07/03/2025 09:53:36.290,0.051484,-0.953552,0.25742,-16.205,-3.885,-0.98,-0.192,-0.4845,-0.768,0
07/03/2025 09:53:36.310,0.040992,-0.97234,0.241072,-21.525,-4.41,-0.98,-0.1995,-0.4785,-0.777,0
07/03/2025 09:53:36.330,0.046604,-0.996984,0.248392,-22.715,-4.445,-1.33,-0.2025,-0.4905,-0.756,0
07/03/2025 09:53:36.350,0.045384,-1.017724,0.250832,-20.09,-3.36,-0.805,-0.198,-0.489,-0.753,0
07/03/2025 09:53:36.370,0.042944,-1.008208,0.229604,-15.015,-1.96,0.175,-0.183,-0.4755,-0.7455,0
07/03/2025 09:53:36.390,0.04026,-0.985028,0.21472,-9.765,-1.47,0.42,-0.198,-0.4815,-0.7425,0
07/03/2025 09:53:36.410,0.04636,-0.978928,0.208132,-6.09,-1.645,0.035,-0.186,-0.4785,-0.7395,0
07/03/2025 09:53:36.430,0.05734,-0.982832,0.213744,-2.17,-1.89,-0.84,-0.198,-0.4725,-0.7455,0
07/03/2025 09:53:36.450,0.05978,-0.959164,0.206912,2.065,-1.75,-1.435,-0.195,-0.486,-0.7365,0
07/03/2025 09:53:36.470,0.081008,-0.93574,0.211792,2.73,-2.17,-2.905,-0.2055,-0.471,-0.762,0
07/03/2025 09:53:36.490,0.101748,-0.936228,0.209352,0.84,-2.8,-3.675,-0.204,-0.477,-0.738,0
07/03/2025 09:53:36.510,0.116876,-0.951112,0.201056,-1.085,-2.135,-4.095,-0.1935,-0.48,-0.759,0
07/03/2025 09:53:36.530,0.117364,-0.952332,0.1891,-1.575,-1.12,-4.2,-0.1905,-0.477,-0.753,0
07/03/2025 09:53:36.550,0.125416,-0.96258,0.207888,-1.68,-0.77,-4.41,-0.204,-0.4815,-0.744,0
07/03/2025 09:53:36.570,0.118096,-0.956724,0.210084,-2.38,-0.245,-4.62,-0.2085,-0.474,-0.744,0
07/03/2025 09:53:36.590,0.112728,-0.962824,0.21228,-3.815,-0.21,-5.18,-0.21,-0.48,-0.741,0
07/03/2025 09:53:36.610,0.099064,-0.972584,0.207644,-6.055,-0.28,-5.425,-0.2055,-0.48,-0.7425,0
07/03/2025 09:53:36.630,0.089792,-0.979904,0.199348,-6.055,-1.12,-6.02,-0.216,-0.48,-0.7365,0
07/03/2025 09:53:36.650,0.081984,-0.996008,0.199104,-3.29,-1.82,-6.23,-0.201,-0.4665,-0.7335,0
07/03/2025 09:53:36.670,0.093696,-1.0065,0.194468,-0.105,-2.135,-5.88,-0.201,-0.477,-0.738,0
07/03/2025 09:53:36.690,0.083936,-1.016748,0.202764,2.31,-2.52,-5.39,-0.204,-0.462,-0.747,0
07/03/2025 09:53:36.710,0.0793,-1.005768,0.205936,3.57,-2.345,-4.06,-0.2055,-0.459,-0.729,0
07/03/2025 09:53:36.730,0.077836,-0.997472,0.206912,3.64,-2.275,-2.38,-0.2085,-0.456,-0.7335,0
07/03/2025 09:53:36.750,0.07564,-1.003572,0.221796,3.185,-1.05,0.105,-0.2085,-0.456,-0.7335,0
07/03/2025 09:53:36.770,0.074176,-0.995764,0.21838,2.065,0.7,1.715,-0.2085,-0.456,-0.7335,0
07/03/2025 09:53:36.790,0.06734399,-0.997228,0.210816,0.525,1.995,3.185,-0.189,-0.459,-0.7425,0
07/03/2025 09:53:36.810,0.060268,-0.984052,0.20618,-0.385,3.15,4.445,-0.186,-0.462,-0.753,0
07/03/2025 09:53:36.830,0.071004,-0.984784,0.20618,-2.03,3.395,4.97,-0.1815,-0.456,-0.744,0
07/03/2025 09:53:36.850,0.068808,-0.976,0.1891,-2.87,3.465,5.985,-0.1875,-0.4575,-0.7575,0
07/03/2025 09:53:36.870,0.080276,-0.973316,0.194468,-2.975,2.94,5.95,-0.192,-0.4575,-0.7665,0
07/03/2025 09:53:36.890,0.07686,-0.960872,0.185684,-4.2,2.45,5.81,-0.1875,-0.4545,-0.7695,0
07/03/2025 09:53:36.910,0.080276,-0.956236,0.182268,-4.48,1.61,5.32,-0.174,-0.444,-0.7755,0
07/03/2025 09:53:36.930,0.083692,-0.946476,0.187148,-4.025,0.77,4.13,-0.1785,-0.465,-0.7815,0
07/03/2025 09:53:36.950,0.082472,-0.939888,0.189588,-3.22,0.315,2.87,-0.1755,-0.4635,-0.78,0
07/03/2025 09:53:36.970,0.08784,-0.934764,0.183,-2.45,-0.21,1.33,-0.1785,-0.444,-0.7725,0
07/03/2025 09:53:36.990,0.099308,-0.924272,0.190564,-2.905,-1.015,-0.385,-0.1845,-0.4635,-0.774,0
07/03/2025 09:53:37.010,0.09394,-0.910364,0.188124,-5.88,-1.05,-3.535,-0.1905,-0.45,-0.777,0
07/03/2025 09:53:37.030,0.09516,-0.898164,0.182268,-9.8,-1.05,-5.705,-0.1905,-0.45,-0.777,0
07/03/2025 09:53:37.050,0.094916,-0.919636,0.185196,-14.56,-0.84,-7.77,-0.18,-0.4455,-0.777,0
07/03/2025 09:53:37.070,0.106872,-0.936228,0.19764,-18.025,-0.455,-9.66,-0.195,-0.444,-0.7665,0
07/03/2025 09:53:37.090,0.107116,-0.979904,0.17202,-20.51,-0.14,-10.29,-0.1845,-0.438,-0.774,0
07/03/2025 09:53:37.110,0.10492,-0.984052,0.160552,-19.18,-0.245,-10.185,-0.189,-0.4485,-0.777,0
07/03/2025 09:53:37.130,0.09857599,-1.011868,0.152012,-17.185,-0.63,-10.115,-0.1995,-0.438,-0.771,0
07/03/2025 09:53:37.150,0.102968,-1.010892,0.161284,-15.26,-0.98,-9.17,-0.1965,-0.444,-0.7545,0
07/03/2025 09:53:37.170,0.098088,-1.023336,0.152744,-12.18,-0.875,-8.19,-0.2055,-0.432,-0.756,0
07/03/2025 09:53:37.190,0.09272,-1.024068,0.149572,-8.085,-0.7,-6.86,-0.2055,-0.435,-0.756,0
07/03/2025 09:53:37.210,0.102724,-1.019676,0.15372,-5.145,-1.19,-5.495,-0.1875,-0.441,-0.7575,0
07/03/2025 09:53:37.230,0.098332,-1.024556,0.15616,-3.15,-0.525,-4.2,-0.189,-0.4365,-0.75,0
07/03/2025 09:53:37.250,0.107604,-1.017236,0.152012,-1.47,0.63,-3.15,-0.1815,-0.441,-0.759,0
07/03/2025 09:53:37.270,0.094916,-0.997716,0.163236,-1.89,2.205,-2.03,-0.1815,-0.4395,-0.7485,0
07/03/2025 09:53:37.290,0.098332,-0.982344,0.146156,-7.315,2.1,0.175,-0.1815,-0.4395,-0.7485,0
07/03/2025 09:53:37.310,0.098088,-0.996496,0.130296,-8.505,1.715,1.015,-0.198,-0.453,-0.75,0
07/03/2025 09:53:37.330,0.107848,-1.002352,0.132492,-5.005,1.33,1.155,-0.201,-0.453,-0.75,0
07/03/2025 09:53:37.350,0.108336,-0.97234,0.125172,-0.84,1.12,1.015,-0.192,-0.4605,-0.75,0
07/03/2025 09:53:37.370,0.113948,-0.961116,0.125416,1.33,0.28,-0.245,-0.198,-0.4605,-0.741,0
07/03/2025 09:53:37.390,0.120292,-0.970632,0.13054,0.98,-0.7,-1.365,-0.1995,-0.4665,-0.7545,0
07/03/2025 09:53:37.410,0.125904,-0.976976,0.132004,-0.385,-1.365,-1.68,-0.213,-0.4575,-0.7455,0
07/03/2025 09:53:37.430,0.12322,-0.969412,0.130296,-0.385,-1.33,-1.855,-0.222,-0.456,-0.744,0
07/03/2025 09:53:37.450,0.129808,-0.980636,0.121756,-0.98,-2.065,-1.715,-0.222,-0.4695,-0.7455,0
07/03/2025 09:53:37.470,0.129564,-0.97234,0.120048,0.21,-1.785,-1.82,-0.213,-0.468,-0.7395,0
07/03/2025 09:53:37.490,0.119804,-0.961604,0.123952,2.765,-1.575,-2.1,-0.213,-0.468,-0.7395,0
07/03/2025 09:53:37.510,0.126392,-0.968924,0.1403,2.905,-2.03,-2.555,-0.204,-0.4575,-0.7425,0
07/03/2025 09:53:37.530,0.120536,-0.978928,0.146888,0.455,-2.1,-2.38,-0.222,-0.4455,-0.7185,0
07/03/2025 09:53:37.550,0.11956,-0.995764,0.14274,0.175,-1.89,-1.505,-0.2205,-0.456,-0.72,0
07/03/2025 09:53:37.570,0.115412,-0.990396,0.155916,1.26,-1.505,-0.77,-0.2205,-0.456,-0.72,0
07/03/2025 09:53:37.590,0.115168,-1.00162,0.152012,1.89,-1.12,-0.14,-0.222,-0.456,-0.7245,0
07/03/2025 09:53:37.610,0.121268,-0.986004,0.16226,1.925,-0.98,0.595,-0.213,-0.4545,-0.72,0
07/03/2025 09:53:37.630,0.115656,-0.988688,0.154452,1.645,-0.175,0.77,-0.2115,-0.4635,-0.7275,0
07/03/2025 09:53:37.650,0.117364,-0.991372,0.152744,1.19,-0.35,1.435,-0.207,-0.468,-0.711,0
07/03/2025 09:53:37.670,0.11346,-0.989664,0.153232,0.385,0.175,1.925,-0.2055,-0.459,-0.7215,0
07/03/2025 09:53:37.690,0.110288,-0.984296,0.149572,0.7,0.56,2.38,-0.204,-0.462,-0.717,0
07/03/2025 09:53:37.710,0.116144,-0.98332,0.150792,0.665,0.49,2.45,-0.216,-0.4635,-0.7305,0
07/03/2025 09:53:37.730,0.116876,-0.978196,0.1525,0.98,0.805,2.52,-0.225,-0.462,-0.723,0
07/03/2025 09:53:37.750,0.116388,-0.965508,0.14762,3.605,1.4,2.065,-0.216,-0.4755,-0.7275,0
07/03/2025 09:53:37.770,0.12078,-0.952576,0.14884,4.27,1.015,1.645,-0.204,-0.474,-0.7335,0
07/03/2025 09:53:37.790,0.126636,-0.96258,0.152988,2.87,1.26,0.945,-0.2055,-0.459,-0.7335,0
07/03/2025 09:53:37.810,0.12444,-0.965508,0.149328,2.695,1.75,0.49,-0.2025,-0.4755,-0.72,0
07/03/2025 09:53:37.830,0.115656,-0.959164,0.1464,1.855,1.54,0.07,-0.2025,-0.4755,-0.72,0
07/03/2025 09:53:37.850,0.112972,-0.976976,0.148108,1.89,1.855,-0.49,-0.2115,-0.4665,-0.72,0
07/03/2025 09:53:37.870,0.120292,-0.967216,0.147132,2.66,1.54,-0.735,-0.2205,-0.459,-0.7275,0
07/03/2025 09:53:37.890,0.112972,-0.967216,0.149084,2.52,1.26,-0.98,-0.2235,-0.4725,-0.7335,0
07/03/2025 09:53:37.910,0.113704,-0.988444,0.145912,2.345,0.56,-1.015,-0.219,-0.456,-0.7305,0
07/03/2025 09:53:37.930,0.117608,-0.99796,0.147376,3.535,0.595,-0.665,-0.216,-0.4515,-0.717,0
07/03/2025 09:53:37.950,0.120536,-1.019432,0.160064,6.895,1.645,0.105,-0.2025,-0.4425,-0.717,0
07/03/2025 09:53:37.970,0.1098,-1.00162,0.168116,9.835,2.87,1.26,-0.216,-0.447,-0.7185,0
07/03/2025 09:53:37.990,0.102968,-0.988444,0.16226,10.29,3.535,2.065,-0.21,-0.45,-0.7215,0
07/03/2025 09:53:38.010,0.101016,-0.97966,0.17568,8.365,3.185,2.38,-0.1995,-0.4425,-0.726,0
07/03/2025 09:53:38.030,0.09467199,-0.994788,0.17568,5.775,2.73,3.255,-0.201,-0.4395,-0.7335,0
07/03/2025 09:53:38.050,0.094916,-0.989664,0.169824,4.97,2.31,4.13,-0.189,-0.4545,-0.738,0
07/03/2025 09:53:38.070,0.103212,-0.995276,0.174704,3.99,1.68,4.795,-0.1875,-0.4545,-0.741,0
07/03/2025 09:53:38.090,0.08784,-0.991372,0.182756,6.405,2.975,4.655,-0.1875,-0.4545,-0.741,0
07/03/2025 09:53:38.110,0.093696,-0.962336,0.195444,5.775,2.975,4.865,-0.1875,-0.4545,-0.741,0
07/03/2025 09:53:38.130,0.094184,-0.977464,0.194468,1.295,2.1,5.18,-0.183,-0.438,-0.759,0
07/03/2025 09:53:38.150,0.088084,-0.96746,0.185196,-1.54,1.435,5.74,-0.1815,-0.4365,-0.75,0
07/03/2025 09:53:38.170,0.091256,-0.97234,0.174948,-1.505,0.77,5.67,-0.162,-0.447,-0.7545,0
07/03/2025 09:53:38.190,0.089304,-0.957456,0.175924,-0.315,1.015,5.11,-0.186,-0.447,-0.759,0
07/03/2025 09:53:38.210,0.098088,-0.954284,0.173484,-0.56,0.7,4.27,-0.1815,-0.447,-0.765,0
07/03/2025 09:53:38.230,0.094428,-0.961116,0.16592,-1.995,0.63,3.64,-0.171,-0.441,-0.768,0
07/03/2025 09:53:38.250,0.099064,-0.970876,0.166408,-2.73,0.175,2.8,-0.1905,-0.4485,-0.762,0
07/03/2025 09:53:38.270,0.095892,-0.963068,0.16836,-3.395,-0.035,2.555,-0.1965,-0.4485,-0.7695,0
07/03/2025 09:53:38.290,0.099064,-0.961848,0.166164,-3.22,-0.28,2.345,-0.1965,-0.441,-0.765,0
07/03/2025 09:53:38.310,0.107848,-0.953064,0.171288,-3.465,-0.665,1.89,-0.201,-0.435,-0.7695,0
07/03/2025 09:53:38.330,0.101992,-0.955748,0.168116,-5.985,-1.19,1.365,-0.192,-0.435,-0.762,0
07/03/2025 09:53:38.350,0.100284,-0.965264,0.173728,-8.68,-1.435,0.595,-0.1875,-0.444,-0.762,0
07/03/2025 09:53:38.370,0.100528,-0.973316,0.166652,-8.575,-1.12,0.035,-0.1875,-0.444,-0.762,0
07/03/2025 09:53:38.390,0.0976,-0.990396,0.165188,-7.805,-0.63,-0.49,-0.1815,-0.4245,-0.765,0
07/03/2025 09:53:38.410,0.089792,-0.99186,0.16592,-6.055,-0.7,-0.56,-0.1905,-0.4275,-0.747,0
07/03/2025 09:53:38.430,0.092964,-0.987956,0.162748,-4.2,-0.945,-0.35,-0.1875,-0.438,-0.7545,0
07/03/2025 09:53:38.450,0.088328,-0.98942,0.162504,-3.395,-0.735,0.21,-0.192,-0.4365,-0.741,0
07/03/2025 09:53:38.470,0.093452,-0.988688,0.161772,-1.435,-0.56,0.595,-0.171,-0.429,-0.753,0
07/03/2025 09:53:38.490,0.088328,-0.977464,0.16836,0.315,0.77,1.12,-0.171,-0.429,-0.753,0
07/03/2025 09:53:38.510,0.087596,-0.981612,0.158112,-0.63,1.47,1.12,-0.18,-0.432,-0.7695,0
07/03/2025 09:53:38.530,0.091012,-0.986004,0.159332,-2.8,1.89,1.435,-0.1815,-0.441,-0.756,0
07/03/2025 09:53:38.550,0.08052,-0.984052,0.15982,-3.815,2.345,1.75,-0.1815,-0.435,-0.7575,0
07/03/2025 09:53:38.570,0.085156,-0.980148,0.15494,-4.095,2.31,1.82,-0.186,-0.4365,-0.7545,0
07/03/2025 09:53:38.590,0.088816,-0.992348,0.156648,-5.005,2.31,1.995,-0.189,-0.4485,-0.75,0
07/03/2025 09:53:38.610,0.083448,-0.987712,0.149572,-5.355,2.66,2.345,-0.192,-0.4485,-0.744,0
07/03/2025 09:53:38.630,0.081008,-1.000644,0.145912,-3.185,3.535,2.94,-0.183,-0.459,-0.7455,0
07/03/2025 09:53:38.650,0.083936,-0.980148,0.142252,-0.91,3.36,3.36,-0.192,-0.453,-0.75,0
07/03/2025 09:53:38.670,0.076128,-0.973072,0.141032,-0.455,3.045,3.255,-0.1905,-0.462,-0.744,0
07/03/2025 09:53:38.690,0.085644,-0.981612,0.132736,-0.84,1.82,2.73,-0.2025,-0.4545,-0.744,0
07/03/2025 09:53:38.710,0.08784,-0.978196,0.135176,-0.875,1.015,2.52,-0.207,-0.462,-0.729,0
07/03/2025 09:53:38.730,0.085156,-0.968924,0.138104,-0.035,0.49,2.31,-0.2085,-0.462,-0.7395,0
07/03/2025 09:53:38.750,0.091256,-0.969168,0.143716,0.805,0.21,1.82,-0.1965,-0.453,-0.729,0
07/03/2025 09:53:38.770,0.0915,-0.965752,0.15128,1.295,0.35,1.19,-0.201,-0.453,-0.7275,0
07/03/2025 09:53:38.790,0.09272,-0.961848,0.15494,0.805,0.7,0.84,-0.1905,-0.4665,-0.7425,0
07/03/2025 09:53:38.810,0.083936,-0.970388,0.149328,0.42,1.82,0.56,-0.1905,-0.447,-0.7305,0
07/03/2025 09:53:38.830,0.091744,-0.962336,0.151768,0.28,2.205,0.105,-0.2025,-0.45,-0.726,0
07/03/2025 09:53:38.850,0.086376,-0.976976,0.154208,-1.155,2.905,-0.28,-0.204,-0.453,-0.711,0
07/03/2025 09:53:38.870,0.084424,-0.984784,0.15494,-2.1,3.5,-0.385,-0.1965,-0.435,-0.732,0
07/03/2025 09:53:38.890,0.081252,-0.99186,0.150548,-1.365,4.27,-0.595,-0.1905,-0.441,-0.729,0
07/03/2025 09:53:38.910,0.074908,-0.98454,0.158112,-0.665,4.375,-0.665,-0.1905,-0.441,-0.729,0
07/03/2025 09:53:38.930,0.073932,-0.989908,0.150304,-1.155,4.27,-0.805,-0.183,-0.462,-0.717,0
07/03/2025 09:53:38.950,0.07515199,-1.007964,0.1464,-0.315,4.235,-0.98,-0.186,-0.453,-0.726,0
07/03/2025 09:53:38.970,0.06954,-1.00528,0.148108,0.63,4.375,-0.91,-0.1815,-0.4545,-0.723,0
07/03/2025 09:53:38.990,0.069052,-1.003328,0.151768,0.945,3.675,-0.385,-0.1875,-0.4515,-0.72,0
07/03/2025 09:53:39.010,0.060512,-1.00772,0.15372,0.665,3.185,0.735,-0.1875,-0.4605,-0.726,0
07/03/2025 09:53:39.030,0.063684,-0.993568,0.150304,0.28,2.66,1.82,-0.177,-0.462,-0.72,0
07/03/2025 09:53:39.050,0.061,-0.98088,0.148108,0.315,2.625,2.555,-0.1755,-0.459,-0.7275,0
07/03/2025 09:53:39.070,0.064416,-0.967948,0.14762,0.63,3.36,2.8,-0.183,-0.4605,-0.723,0
07/03/2025 09:53:39.090,0.061976,-0.97844,0.139324,-0.28,3.85,2.835,-0.192,-0.447,-0.729,0
07/03/2025 09:53:39.110,0.06466,-0.980148,0.13664,-0.56,4.445,2.87,-0.183,-0.456,-0.7215,0
07/03/2025 09:53:39.130,0.063684,-0.981856,0.126636,-0.805,4.83,2.94,-0.1875,-0.453,-0.7125,0
07/03/2025 09:53:39.150,0.0671,-0.970876,0.12444,-0.945,4.41,2.625,-0.1905,-0.4455,-0.726,0
07/03/2025 09:53:39.170,0.069784,-0.970876,0.12688,-1.12,3.08,2.03,-0.1905,-0.4455,-0.726,0
07/03/2025 09:53:39.190,0.07686,-0.964776,0.119804,-0.175,1.75,1.295,-0.1905,-0.4455,-0.726,0
07/03/2025 09:53:39.210,0.07442,-0.96136,0.122976,-0.14,0.315,0.665,-0.1725,-0.435,-0.72,0
07/03/2025 09:53:39.230,0.068564,-0.966972,0.125416,0.56,-0.63,-0.21,-0.183,-0.435,-0.726,0
07/03/2025 09:53:39.250,0.06832,-0.953552,0.135908,1.575,-1.295,-1.4,-0.1815,-0.4395,-0.72,0
07/03/2025 09:53:39.270,0.07124799,-0.963312,0.13908,0.98,-1.89,-2.38,-0.1815,-0.435,-0.7275,0
07/03/2025 09:53:39.290,0.06954,-0.968192,0.144204,0.805,-1.855,-3.22,-0.18,-0.426,-0.726,0
07/03/2025 09:53:39.310,0.074908,-0.977708,0.148596,1.33,-1.505,-3.71,-0.156,-0.4095,-0.7305,0
07/03/2025 09:53:39.330,0.075396,-0.985028,0.148108,0.875,-1.575,-4.06,-0.156,-0.426,-0.7305,0
07/03/2025 09:53:39.350,0.06954,-0.991128,0.152012,0.735,-1.26,-3.99,-0.15,-0.435,-0.7335,0
07/03/2025 09:53:39.370,0.063684,-0.991128,0.154208,1.295,-0.91,-3.745,-0.1635,-0.4305,-0.753,0
07/03/2025 09:53:39.390,0.066856,-0.992592,0.160064,1.47,-0.735,-3.71,-0.1545,-0.4275,-0.7365,0
07/03/2025 09:53:39.410,0.068076,-1.004548,0.154696,1.12,-0.595,-3.465,-0.1695,-0.414,-0.7365,0
07/03/2025 09:53:39.430,0.05612,-0.99308,0.155916,1.715,-0.595,-2.8,-0.165,-0.4335,-0.7635,0
07/03/2025 09:53:39.450,0.060512,-1.010892,0.16104,1.785,-0.91,-2.24,-0.1605,-0.4335,-0.747,0
07/03/2025 09:53:39.470,0.058804,-0.999668,0.161284,1.75,-1.015,-1.295,-0.1605,-0.429,-0.7455,0
07/03/2025 09:53:39.490,0.064416,-1.002108,0.155672,1.89,-1.155,-0.56,-0.1605,-0.429,-0.7455,0
07/03/2025 09:53:39.510,0.061244,-0.994056,0.158112,2.625,-1.33,-0.07,-0.15,-0.441,-0.765,0
07/03/2025 09:53:39.530,0.076128,-0.997472,0.156648,2.205,-1.75,0.385,-0.1725,-0.438,-0.756,0
07/03/2025 09:53:39.550,0.072712,-0.992104,0.156892,1.89,-1.33,0.945,-0.1755,-0.4335,-0.756,0
07/03/2025 09:53:39.570,0.080276,-0.9821,0.150304,2.73,-1.225,1.12,-0.168,-0.4275,-0.7515,0
07/03/2025 09:53:39.590,0.072956,-0.97722,0.149084,2.94,-1.295,1.05,-0.1785,-0.435,-0.753,0
07/03/2025 09:53:39.610,0.07686,-0.973072,0.155184,3.15,-1.715,1.015,-0.18,-0.438,-0.753,0
07/03/2025 09:53:39.630,0.076128,-0.978196,0.163724,3.535,-1.68,0.805,-0.1815,-0.4425,-0.765,0
07/03/2025 09:53:39.650,0.083936,-0.975268,0.156404,2.73,-1.575,0.91,-0.177,-0.4365,-0.756,0
07/03/2025 09:53:39.670,0.078812,-0.975512,0.151036,1.68,-1.61,0.91,-0.1815,-0.435,-0.7635,0
07/03/2025 09:53:39.690,0.084424,-0.967704,0.152988,1.54,-1.925,0.77,-0.1785,-0.438,-0.7725,0
07/03/2025 09:53:39.710,0.08662,-0.959408,0.160552,1.995,-1.96,-0.175,-0.1785,-0.438,-0.7725,0
07/03/2025 09:53:39.730,0.082716,-0.960384,0.162016,0.875,-2.205,-0.805,-0.1665,-0.4275,-0.753,0
07/03/2025 09:53:39.750,0.081496,-0.97234,0.168604,0.56,-2.24,-1.365,-0.1605,-0.4335,-0.7605,0
07/03/2025 09:53:39.770,0.085644,-0.968924,0.162992,1.33,-2.24,-1.855,-0.168,-0.441,-0.756,0
07/03/2025 09:53:39.790,0.087596,-0.97478,0.154696,2.1,-2.065,-2.275,-0.1695,-0.447,-0.765,0
07/03/2025 09:53:39.810,0.087596,-0.975268,0.167872,2.975,-2.45,-2.695,-0.171,-0.441,-0.7665,0
07/03/2025 09:53:39.830,0.091744,-0.98332,0.183732,3.535,-2.73,-2.555,-0.18,-0.4635,-0.765,0
07/03/2025 09:53:39.850,0.092476,-0.99674,0.171776,3.605,-2.31,-2.45,-0.186,-0.4485,-0.759,0
07/03/2025 09:53:39.870,0.089304,-0.994056,0.182756,4.06,-1.575,-2.38,-0.1815,-0.4605,-0.765,0
07/03/2025 09:53:39.890,0.09028,-0.997716,0.18544,3.605,-0.35,-2.31,-0.1905,-0.4665,-0.7575,0
07/03/2025 09:53:39.910,0.079788,-0.99674,0.190076,2.8,0.385,-1.435,-0.18,-0.462,-0.75,0
07/03/2025 09:53:39.930,0.080032,-1.003816,0.180804,2.485,0.665,0.035,-0.198,-0.4605,-0.7515,0
07/03/2025 09:53:39.950,0.074176,-0.994544,0.180072,2.625,0.77,1.155,-0.201,-0.4635,-0.762,0
07/03/2025 09:53:39.970,0.077592,-0.972584,0.186904,1.82,1.05,1.925,-0.2025,-0.4665,-0.7485,0
07/03/2025 09:53:39.990,0.085156,-0.98088,0.177632,0.455,1.33,2.275,-0.2025,-0.4665,-0.7485,0
07/03/2025 09:53:40.010,0.077104,-0.979416,0.175924,-0.245,1.47,2.52,-0.1935,-0.4695,-0.7515,0
07/03/2025 09:53:40.030,0.081008,-0.976488,0.176412,-1.015,1.47,2.415,-0.1965,-0.4635,-0.7485,0
07/03/2025 09:53:40.050,0.088084,-0.980392,0.171776,-1.295,1.015,2.415,-0.195,-0.4695,-0.7425,0
07/03/2025 09:53:40.070,0.083692,-0.966484,0.16714,-0.945,1.295,2.485,-0.207,-0.4635,-0.747,0
07/03/2025 09:53:40.090,0.08784,-0.965508,0.167628,-0.875,0.77,2.345,-0.1995,-0.4605,-0.726,0
07/03/2025 09:53:40.110,0.087108,-0.950136,0.167384,-1.155,0.84,1.855,-0.192,-0.462,-0.729,0
07/03/2025 09:53:40.130,0.081252,-0.959164,0.161772,-1.89,0.735,0.77,-0.1875,-0.4695,-0.7305,0
07/03/2025 09:53:40.150,0.083204,-0.959896,0.164456,-0.735,0.42,-0.455,-0.186,-0.462,-0.729,0
07/03/2025 09:53:40.170,0.092476,-0.972096,0.16348,-0.035,0.35,-1.225,-0.1815,-0.468,-0.729,0
07/03/2025 09:53:40.190,0.088084,-0.979172,0.164944,1.54,0.84,-1.155,-0.1905,-0.4695,-0.729,0
07/03/2025 09:53:40.210,0.076372,-0.964532,0.1647,2.555,0.77,-1.295,-0.192,-0.4545,-0.7335,0
07/03/2025 09:53:40.230,0.079544,-0.983076,0.167384,0.49,0.035,-1.295,-0.1905,-0.4695,-0.7275,0
07/03/2025 09:53:40.250,0.080764,-0.983076,0.174216,0.875,-0.035,-1.295,-0.1905,-0.4695,-0.7275,0
07/03/2025 09:53:40.270,0.084912,-0.985272,0.177144,0.875,0.245,-1.015,-0.1845,-0.4695,-0.7275,0
07/03/2025 09:53:40.290,0.08174,-0.990884,0.183976,0.455,0.735,-0.735,-0.183,-0.4695,-0.7365,0
07/03/2025 09:53:40.310,0.07515199,-0.988932,0.183,0.14,1.33,-0.42,-0.186,-0.4785,-0.738,0
07/03/2025 09:53:40.330,0.076616,-0.985028,0.187148,-0.105,1.365,0.14,-0.1815,-0.48,-0.738,0
07/03/2025 09:53:40.350,0.066856,-0.988932,0.187148,0.56,1.645,0.665,-0.192,-0.465,-0.7335,0
07/03/2025 09:53:40.370,0.075396,-0.987956,0.186904,0.945,1.47,0.84,-0.1995,-0.462,-0.735,0
07/03/2025 09:53:40.390,0.07515199,-0.981856,0.18666,1.61,1.785,0.875,-0.1815,-0.4695,-0.7365,0
07/03/2025 09:53:40.410,0.080764,-0.985272,0.190808,1.75,1.645,0.7,-0.1935,-0.459,-0.7365,0
07/03/2025 09:53:40.430,0.082228,-0.985516,0.18666,1.785,1.4,0.595,-0.189,-0.4635,-0.7425,0
07/03/2025 09:53:40.450,0.078568,-0.981368,0.183244,2.17,1.33,0.63,-0.18,-0.4545,-0.7305,0
07/03/2025 09:53:40.470,0.0732,-0.968436,0.17934,1.89,1.12,0.56,-0.1815,-0.4665,-0.735,0
07/03/2025 09:53:40.490,0.075884,-0.965752,0.177388,1.33,1.085,0.525,-0.1905,-0.4605,-0.735,0
07/03/2025 09:53:40.510,0.084668,-0.970632,0.173484,1.365,1.26,0.49,-0.1815,-0.468,-0.7455,0
07/03/2025 09:53:40.530,0.08052,-0.969656,0.169336,1.855,1.47,0.385,-0.1815,-0.468,-0.7455,0
07/03/2025 09:53:40.550,0.081252,-0.972096,0.16836,2.625,1.435,0.245,-0.1665,-0.453,-0.738,0
07/03/2025 09:53:40.570,0.08052,-0.97234,0.1769,3.325,1.295,-0.105,-0.165,-0.4485,-0.744,0
07/03/2025 09:53:40.590,0.077592,-0.969168,0.175192,3.745,1.05,-0.175,-0.159,-0.459,-0.7395,0
07/03/2025 09:53:40.610,0.082472,-0.9699,0.170068,3.465,0.665,-0.385,-0.1605,-0.4395,-0.7455,0
07/03/2025 09:53:40.630,0.087352,-0.970144,0.177144,2.625,0.105,-0.56,-0.15,-0.45,-0.759,0
07/03/2025 09:53:40.650,0.088084,-0.99064,0.17446,3.64,-0.035,-0.665,-0.165,-0.4425,-0.7605,0
07/03/2025 09:53:40.670,0.092232,-0.996252,0.180316,8.68,0.525,-0.84,-0.1605,-0.4545,-0.7545,0
07/03/2025 09:53:40.690,0.083692,-0.981124,0.18666,14.805,1.505,-0.875,-0.156,-0.453,-0.7605,0
07/03/2025 09:53:40.710,0.088084,-0.986248,0.193248,22.995,2.135,-1.155,-0.1755,-0.4635,-0.765,0
07/03/2025 09:53:40.730,0.07905599,-0.966484,0.203008,33.04,3.29,-1.96,-0.159,-0.447,-0.7695,0
07/03/2025 09:53:40.750,0.092476,-0.978684,0.197152,48.86,4.165,-4.095,-0.1635,-0.456,-0.7755,0
07/03/2025 09:53:40.770,0.080276,-1.086776,0.212036,125.055,12.915,-9.555,-0.1635,-0.474,-0.777,0
07/03/2025 09:53:40.790,0.044164,-0.855464,0.238144,187.46,17.045,-15.645,-0.1635,-0.474,-0.777,0
07/03/2025 09:53:40.810,0.04636,-0.627324,0.29768,224.875,12.39,-25.935,-0.1905,-0.513,-0.834,0
07/03/2025 09:53:40.830,0.038796,-0.450668,0.3477,228.515,5.95,-37.975,-0.18,-0.5595,-0.8655,0
07/03/2025 09:53:40.850,0.034648,-0.409432,0.381616,214.585,-3.325,-50.925,-0.1935,-0.594,-0.8865,0
07/03/2025 09:53:40.870,0.09638,-0.465064,0.455304,194.88,-18.235,-63.98,-0.195,-0.642,-0.894,0
07/03/2025 09:53:40.890,0.1952,-0.571448,0.460184,184.17,-29.54,-74.83,-0.2025,-0.693,-0.8925,0
07/03/2025 09:53:40.910,0.225456,-0.62586,0.48678,196.56,-35.07,-82.845,-0.216,-0.7125,-0.915,0
07/03/2025 09:53:40.930,0.271328,-0.493368,0.519476,209.72,-44.1,-88.34,-0.222,-0.7605,-0.924,0
07/03/2025 09:53:40.950,0.302316,-0.342332,0.521184,210.665,-54.95,-92.75,-0.234,-0.804,-0.9195,0
07/03/2025 09:53:40.970,0.350628,-0.205204,0.572424,194.88,-69.23,-96.67,-0.246,-0.8595,-0.9165,0
07/03/2025 09:53:40.990,0.434564,-0.090524,0.646844,155.68,-84.875,-100.695,-0.255,-0.8895,-0.9045,0
07/03/2025 09:53:41.010,0.544364,-0.083692,0.699792,101.08,-97.02,-103.46,-0.255,-0.8895,-0.9045,0
07/03/2025 09:53:41.030,0.615612,-0.115412,0.725168,46.62,-105.7,-105.455,-0.27,-0.936,-0.8925,0
07/03/2025 09:53:41.050,0.714676,-0.325496,0.698084,-8.155,-112.805,-105.385,-0.27,-0.936,-0.8925,0
07/03/2025 09:53:41.070,0.762256,-0.405772,0.68442,-14.21,-114.975,-103.32,-0.309,-0.975,-0.885,0
07/03/2025 09:53:41.090,0.770308,-0.495808,0.625372,-5.25,-116.445,-97.86,-0.3165,-0.9825,-0.87,0
07/03/2025 09:53:41.110,0.782508,-0.522404,0.578768,21.735,-119.665,-91.105,-0.345,-0.999,-0.861,0
07/03/2025 09:53:41.130,0.80276,-0.404796,0.603656,57.05,-124.775,-84.315,-0.3525,-1.0185,-0.849,0
07/03/2025 09:53:41.150,0.83814,-0.211792,0.654896,80.43,-130.725,-79.345,-0.36,-1.038,-0.822,0
07/03/2025 09:53:41.170,0.881572,-0.11712,0.650992,79.24,-134.26,-77.91,-0.369,-1.032,-0.804,0
07/03/2025 09:53:41.190,0.931348,-0.133956,0.589504,66.36,-135.38,-77.525,-0.396,-1.068,-0.7725,0
07/03/2025 09:53:41.210,0.964776,-0.144448,0.53924,61.39,-135.87,-77.98,-0.402,-1.08,-0.762,0
07/03/2025 09:53:41.230,1.003084,-0.079788,0.509716,63.84,-136.78,-78.225,-0.3915,-1.0845,-0.735,0
07/03/2025 09:53:41.250,1.057252,-0.014396,0.550708,62.265,-136.29,-78.61,-0.4065,-1.125,-0.702,0
07/03/2025 09:53:41.270,1.127036,-0.003172,0.566568,57.12,-133.35,-78.015,-0.405,-1.14,-0.678,0
07/03/2025 09:53:41.290,1.154852,0.00122,0.55998,49.245,-127.19,-75.705,-0.417,-1.1415,-0.654,0
07/03/2025 09:53:41.310,1.188036,-0.088084,0.524356,44.94,-114.52,-66.395,-0.417,-1.1415,-0.654,0
07/03/2025 09:53:41.330,1.17242,-0.064172,0.500444,54.285,-105.49,-56.91,-0.417,-1.1415,-0.654,0
07/03/2025 09:53:41.350,1.149728,0.027572,0.519476,62.685,-95.48,-46.34,-0.4005,-1.1865,-0.567,0
07/03/2025 09:53:41.370,1.11874,0.112728,0.513864,56.875,-84.35,-37.415,-0.411,-1.194,-0.549,0
07/03/2025 09:53:41.390,1.075064,0.1403,0.430904,37.625,-71.82,-31.29,-0.411,-1.191,-0.5235,0
07/03/2025 09:53:41.410,1.047004,0.12444,0.435296,18.725,-62.3,-27.86,-0.408,-1.2,-0.5175,0
07/03/2025 09:53:41.430,1.037732,0.07442,0.466528,6.79,-54.81,-25.725,-0.4065,-1.2045,-0.5205,0
07/03/2025 09:53:41.450,1.026508,0.062952,0.465308,-0.595,-46.55,-22.47,-0.3975,-1.2045,-0.507,0
07/03/2025 09:53:41.470,1.012844,0.087596,0.444324,-4.76,-39.62,-18.935,-0.396,-1.2195,-0.504,0
07/03/2025 09:53:41.490,1.01504,0.083204,0.450912,-8.54,-33.775,-15.995,-0.3975,-1.2075,-0.5115,0
07/03/2025 09:53:41.510,1.012356,0.085156,0.438712,-12.285,-26.495,-12.705,-0.396,-1.2195,-0.4965,0
07/03/2025 09:53:41.530,1.009184,0.071736,0.421388,-16.1,-19.005,-9.24,-0.393,-1.2135,-0.5145,0
07/03/2025 09:53:41.550,1.022848,0.055144,0.396988,-17.99,-12.145,-5.25,-0.39,-1.218,-0.4935,0
07/03/2025 09:53:41.570,0.999424,0.089792,0.358924,-17.78,-5.355,-1.47,-0.387,-1.2045,-0.5145,0
07/03/2025 09:53:41.590,0.994788,0.09394,0.353312,-19.67,1.26,1.61,-0.387,-1.2045,-0.5145,0
07/03/2025 09:53:41.610,1.009184,0.061732,0.33306,-21.035,5.32,3.395,-0.3885,-1.2105,-0.5175,0
07/03/2025 09:53:41.630,1.01382,0.037332,0.301584,-16.59,9.66,5.81,-0.3825,-1.2135,-0.516,0
07/03/2025 09:53:41.650,1.00528,0.080032,0.266936,-8.89,12.6,8.225,-0.378,-1.2255,-0.504,0
07/03/2025 09:53:41.670,0.99064,0.118584,0.249124,-6.44,14.35,9.835,-0.3945,-1.2195,-0.519,0
07/03/2025 09:53:41.690,0.984052,0.129808,0.233996,-8.61,15.4,10.255,-0.39,-1.2255,-0.513,0
07/03/2025 09:53:41.710,0.9882,0.128588,0.221308,-10.675,15.68,9.765,-0.4095,-1.233,-0.5115,0
07/03/2025 09:53:41.730,0.98454,0.121024,0.213012,-11.865,16.03,9.03,-0.399,-1.2255,-0.5145,0
07/03/2025 09:53:41.750,0.973316,0.127856,0.19154,-12.705,15.68,8.82,-0.4155,-1.23,-0.5175,0
07/03/2025 09:53:41.770,0.965752,0.140544,0.177632,-12.565,14.77,8.4,-0.432,-1.224,-0.516,0
07/03/2025 09:53:41.790,0.969168,0.143228,0.16836,-10.78,12.215,7.525,-0.4275,-1.233,-0.522,0
07/03/2025 09:53:41.810,0.967948,0.146644,0.167872,-7.665,10.395,5.88,-0.4275,-1.2405,-0.5325,0
07/03/2025 09:53:41.830,0.965264,0.155184,0.152012,-5.425,8.155,3.955,-0.4365,-1.2405,-0.5385,0
07/03/2025 09:53:41.850,0.969656,0.146156,0.157624,-3.885,4.2,1.015,-0.426,-1.2405,-0.558,0
07/03/2025 09:53:41.870,0.959408,0.154208,0.152012,-1.785,2.1,-0.35,-0.4305,-1.2405,-0.561,0
07/03/2025 09:53:41.890,0.965996,0.152988,0.155916,0.665,-0.49,-1.54,-0.426,-1.236,-0.5865,0
07/03/2025 09:53:41.910,0.962336,0.161528,0.163968,1.715,-2.8,-2.835,-0.4335,-1.239,-0.5925,0
07/03/2025 09:53:41.930,0.97722,0.147864,0.18056,0.84,-4.69,-3.955,-0.444,-1.2495,-0.588,0
07/03/2025 09:53:41.950,0.98698,0.1464,0.176412,-0.385,-5.74,-4.9,-0.435,-1.2495,-0.5895,0
07/03/2025 09:53:41.970,0.975756,0.143228,0.177876,0.14,-6.755,-5.915,-0.441,-1.236,-0.594,0
07/03/2025 09:53:41.990,0.981856,0.1403,0.197152,0.14,-7.875,-7.07,-0.4335,-1.239,-0.603,0
07/03/2025 09:53:42.010,0.979904,0.142496,0.203252,0.35,-8.575,-7.7,-0.4335,-1.239,-0.603,0
07/03/2025 09:53:42.030,0.98088,0.147864,0.211548,-1.05,-9.17,-8.365,-0.432,-1.251,-0.597,0
07/03/2025 09:53:42.050,0.981612,0.139324,0.20862,-4.095,-9.345,-8.61,-0.435,-1.245,-0.5955,0
07/03/2025 09:53:42.070,0.987956,0.146156,0.217892,-6.51,-9.1,-8.715,-0.4305,-1.251,-0.609,0
07/03/2025 09:53:42.090,0.987468,0.141276,0.210816,-10.045,-8.33,-8.19,-0.4335,-1.2555,-0.5955,0
07/03/2025 09:53:42.110,0.986248,0.129076,0.2196,-14.77,-7.84,-7.595,-0.4245,-1.254,-0.6015,0
07/03/2025 09:53:42.130,0.992348,0.120048,0.222528,-16.135,-6.965,-7.175,-0.4245,-1.254,-0.6015,0
07/03/2025 09:53:42.150,0.9882,0.126392,0.225212,-16.17,-6.44,-6.79,-0.4335,-1.242,-0.6,0
07/03/2025 09:53:42.170,0.991616,0.128832,0.216184,-16.765,-6.195,-6.405,-0.426,-1.248,-0.597,0
07/03/2025 09:53:42.190,1.00162,0.140788,0.223016,-17.815,-6.23,-6.09,-0.4335,-1.263,-0.591,0
07/03/2025 09:53:42.210,0.9882,0.13786,0.226188,-20.3,-5.88,-5.46,-0.423,-1.2585,-0.609,0
07/03/2025 09:53:42.230,0.986492,0.146644,0.2196,-22.995,-5.845,-4.83,-0.426,-1.2555,-0.591,0
07/03/2025 09:53:42.250,0.99186,0.14152,0.219356,-25.13,-5.915,-4.48,-0.429,-1.257,-0.597,0
07/03/2025 09:53:42.270,0.98576,0.15494,0.229116,-26.39,-5.775,-4.27,-0.4275,-1.2495,-0.6045,0
07/03/2025 09:53:42.290,0.987224,0.158356,0.225456,-28.7,-5.53,-4.095,-0.423,-1.239,-0.5985,0
07/03/2025 09:53:42.310,0.970388,0.165432,0.232044,-32.27,-5.285,-4.06,-0.4185,-1.23,-0.6105,0
07/03/2025 09:53:42.330,0.974292,0.16348,0.233508,-35.945,-4.83,-4.095,-0.42,-1.227,-0.624,0
07/03/2025 09:53:42.350,0.974536,0.17202,0.237656,-38.955,-4.2,-4.305,-0.42,-1.23,-0.618,0
07/03/2025 09:53:42.370,0.983076,0.15372,0.234972,-42.595,-3.64,-4.375,-0.408,-1.2165,-0.6405,0
07/03/2025 09:53:42.390,1.00284,0.132248,0.244244,-39.97,-1.505,-4.655,-0.408,-1.2165,-0.6405,0
07/03/2025 09:53:42.410,1.008452,0.154696,0.243268,-35.525,-0.21,-4.62,-0.408,-1.2165,-0.6405,0
07/03/2025 09:53:42.430,1.004792,0.15738,0.233752,-32.9,1.61,-4.48,-0.4065,-1.2075,-0.6405,0
07/03/2025 09:53:42.450,1.001132,0.184464,0.228628,-33.425,2.52,-4.06,-0.393,-1.1925,-0.633,0
07/03/2025 09:53:42.470,0.991616,0.182512,0.219356,-35.665,2.835,-3.745,-0.39,-1.188,-0.645,0
07/03/2025 09:53:42.490,0.994788,0.174216,0.22082,-37.66,2.31,-3.64,-0.3915,-1.191,-0.639,0
07/03/2025 09:53:42.510,0.98088,0.181536,0.221552,-38.22,2.415,-3.815,-0.396,-1.191,-0.633,0
07/03/2025 09:53:42.530,0.956236,0.190076,0.216916,-37.695,2.45,-4.2,-0.381,-1.185,-0.6285,0
07/03/2025 09:53:42.550,0.943548,0.190564,0.208132,-38.71,1.54,-5.285,-0.381,-1.185,-0.6315,0
07/03/2025 09:53:42.570,0.934276,0.175192,0.22082,-39.27,0.77,-5.915,-0.387,-1.1745,-0.63,0
07/03/2025 09:53:42.590,0.933788,0.176656,0.220088,-39.165,-0.21,-7.21,-0.384,-1.167,-0.6255,0
07/03/2025 09:53:42.610,0.93086,0.15494,0.217648,-37.45,-1.505,-8.4,-0.3885,-1.1805,-0.621,0
07/03/2025 09:53:42.630,0.941352,0.149816,0.230824,-33.11,-2.66,-9.485,-0.387,-1.155,-0.627,0
07/03/2025 09:53:42.650,0.93452,0.139812,0.242292,-28.14,-3.5,-10.99,-0.3855,-1.1445,-0.6285,0
07/03/2025 09:53:42.670,0.955016,0.135176,0.247172,-24.185,-5.075,-11.9,-0.3855,-1.1445,-0.6285,0
07/03/2025 09:53:42.690,0.952088,0.130052,0.246928,-21.49,-4.97,-12.88,-0.381,-1.1655,-0.6315,0
07/03/2025 09:53:42.710,0.966972,0.116876,0.24644,-20.265,-5.565,-13.58,-0.378,-1.1595,-0.6315,0
07/03/2025 09:53:42.730,0.974048,0.122,0.25498,-19.6,-6.055,-13.79,-0.372,-1.1565,-0.621,0
07/03/2025 09:53:42.750,0.961848,0.114924,0.246928,-21.7,-6.09,-13.3,-0.366,-1.155,-0.636,0
07/03/2025 09:53:42.770,0.966484,0.0976,0.24522,-24.605,-6.65,-12.25,-0.375,-1.152,-0.6345,0
07/03/2025 09:53:42.790,0.962092,0.093452,0.241316,-26.355,-6.825,-10.815,-0.375,-1.161,-0.6375,0
07/03/2025 09:53:42.810,0.96502,0.081252,0.245708,-26.775,-7.455,-9.45,-0.3705,-1.1475,-0.6405,0
07/03/2025 09:53:42.830,0.970144,0.074176,0.245952,-26.25,-7.84,-8.05,-0.36,-1.1475,-0.642,0
07/03/2025 09:53:42.850,0.96868,0.043432,0.242292,-23.275,-8.54,-6.755,-0.378,-1.143,-0.6525,0
07/03/2025 09:53:42.870,0.961848,0.045384,0.2501,-17.325,-8.47,-5.88,-0.36,-1.149,-0.651,0
07/03/2025 09:53:42.890,0.954772,0.053924,0.2501,-12.95,-8.715,-5.005,-0.354,-1.146,-0.6465,0
07/03/2025 09:53:42.910,0.958188,0.055388,0.247416,-11.27,-9.1,-3.85,-0.3585,-1.14,-0.663,0
07/03/2025 09:53:42.930,0.96258,0.05856,0.246928,-10.955,-9.94,-1.365,-0.3735,-1.1415,-0.648,0
07/03/2025 09:53:42.950,0.960628,0.061976,0.246928,-11.9,-9.695,0.42,-0.3675,-1.1475,-0.639,0
07/03/2025 09:53:42.970,0.958676,0.050264,0.250588,-12.25,-9.1,2.415,-0.3795,-1.1475,-0.6405,0
07/03/2025 09:53:42.990,0.970876,0.06344,0.246928,-11.725,-8.505,4.48,-0.384,-1.1535,-0.6435,0
07/03/2025 09:53:43.010,0.975024,0.079544,0.243024,-12.915,-7.035,6.58,-0.384,-1.1535,-0.6435,0
07/03/2025 09:53:43.030,0.978928,0.081984,0.229604,-16.065,-5.74,8.715,-0.3795,-1.1475,-0.645,0
07/03/2025 09:53:43.050,0.980148,0.093452,0.22326,-20.58,-4.165,10.815,-0.396,-1.1355,-0.651,0
07/03/2025 09:53:43.070,0.988932,0.094428,0.214476,-25.69,-2.905,13.09,-0.3885,-1.143,-0.66,0
07/03/2025 09:53:43.090,0.991616,0.094916,0.194712,-31.15,-2.03,15.225,-0.3975,-1.134,-0.657,0
07/03/2025 09:53:43.110,1.006256,0.079788,0.186172,-33.81,-1.715,17.01,-0.4095,-1.1415,-0.678,0
07/03/2025 09:53:43.130,1.015528,0.104676,0.178364,-34.125,-1.785,18.13,-0.405,-1.14,-0.6705,0
07/03/2025 09:53:43.150,0.999424,0.129564,0.18178,-36.015,-1.4,18.13,-0.4215,-1.1235,-0.669,0
07/03/2025 09:53:43.170,0.990152,0.12932,0.185684,-40.18,-2.345,17.5,-0.4035,-1.1175,-0.6885,0
07/03/2025 09:53:43.190,0.98332,0.116388,0.186904,-44.205,-5.215,16.8,-0.408,-1.119,-0.7095,0
07/03/2025 09:53:43.210,0.983808,0.096868,0.189344,-43.89,-6.37,16.485,-0.411,-1.104,-0.7215,1
07/03/2025 09:53:43.230,0.981124,0.103456,0.187636,-40.25,-6.965,16.065,-0.426,-1.104,-0.726,1
07/03/2025 09:53:43.250,0.981612,0.096624,0.190076,-36.68,-7.035,15.26,-0.4305,-1.095,-0.741,1
07/03/2025 09:53:43.270,0.998448,0.083448,0.18544,-34.125,-7.945,14.42,-0.4215,-1.0875,-0.7455,1
07/03/2025 09:53:43.290,1.016504,0.072956,0.183244,-32.34,-8.575,13.23,-0.4125,-1.086,-0.747,1
07/03/2025 09:53:43.310,1.04188,0.064172,0.176412,-29.68,-9.45,11.795,-0.432,-1.0725,-0.756,1
07/03/2025 09:53:43.330,1.037,0.04514,0.180316,-26.075,-9.065,10.15,-0.429,-1.077,-0.756,1
07/03/2025 09:53:43.350,1.023092,0.040992,0.18788,-21.35,-8.96,8.33,-0.4185,-1.0665,-0.747,1
07/03/2025 09:53:43.370,1.001132,0.031964,0.194956,-16.94,-9.695,6.545,-0.426,-1.0725,-0.753,1
07/03/2025 09:53:43.390,0.983076,0.027084,0.190564,-14.245,-10.36,4.97,-0.4245,-1.062,-0.7335,1
07/03/2025 09:53:43.410,0.965508,0.024156,0.191784,-13.055,-10.85,2.94,-0.4365,-1.056,-0.744,1
07/03/2025 09:53:43.430,0.953308,0.015128,0.195444,-12.845,-10.57,0.805,-0.4305,-1.053,-0.741,1
07/03/2025 09:53:43.450,0.92964,0.003904,0.186904,-12.74,-9.17,-2.52,-0.4455,-1.047,-0.7485,1
07/03/2025 09:53:43.470,0.960628,-0.0183,0.170556,-12.285,-8.575,-5.285,-0.4455,-1.047,-0.7485,1
07/03/2025 09:53:43.490,1.026996,-0.041236,0.158356,-12.075,-7.56,-9.205,-0.444,-1.0455,-0.7365,1
07/03/2025 09:53:43.510,1.105076,-0.056364,0.154208,-10.92,-5.95,-12.915,-0.45,-1.047,-0.741,1
07/03/2025 09:53:43.530,1.155828,-0.068564,0.149328,-10.115,-3.85,-16.415,-0.4395,-1.053,-0.747,1
07/03/2025 09:53:43.550,1.149972,-0.067588,0.149816,-10.64,-0.63,-18.48,-0.4365,-1.05,-0.753,1
07/03/2025 09:53:43.570,1.081164,-0.06832,0.146156,-12.18,2.87,-18.445,-0.4365,-1.044,-0.747,1
07/03/2025 09:53:43.590,1.009184,-0.060512,0.134932,-15.015,3.08,-16.275,-0.423,-1.0485,-0.7515,1
07/03/2025 09:53:43.610,0.98698,-0.05246,0.120536,-19.355,1.155,-13.265,-0.4095,-1.047,-0.7545,1
07/03/2025 09:53:43.630,0.98088,-0.049288,0.13054,-24.43,-0.63,-10.045,-0.417,-1.035,-0.756,1
07/03/2025 09:53:43.650,0.975512,-0.055144,0.135908,-28.42,0.175,-7.56,-0.4155,-1.05,-0.753,1
07/03/2025 09:53:43.670,0.979416,-0.038796,0.128588,-32.165,1.365,-5.495,-0.414,-1.0425,-0.759,1
07/03/2025 09:53:43.690,1.003816,-0.028548,0.115412,-38.15,2.94,-4.235,-0.402,-1.05,-0.756,1
07/03/2025 09:53:43.710,1.030412,-0.03538,0.109556,-44.065,5.495,-3.605,-0.405,-1.0395,-0.753,1
07/03/2025 09:53:43.730,1.050176,-0.026352,0.107604,-49.28,10.465,-2.73,-0.405,-1.0395,-0.753,1
07/03/2025 09:53:43.750,1.047736,-0.012444,0.09882,-52.08,13.44,-1.365,-0.405,-1.0395,-0.753,1
07/03/2025 09:53:43.770,1.033828,0.002928,0.093696,-56.21,15.26,0.56,-0.381,-1.032,-0.7425,1
07/03/2025 09:53:43.790,1.015772,0.01342,0.094184,-61.775,15.785,2.73,-0.3915,-1.0215,-0.7305,1
07/03/2025 09:53:43.810,1.0431,0.029036,0.083204,-68.285,14.735,4.235,-0.3885,-1.0215,-0.7395,1
07/03/2025 09:53:43.830,1.093364,0.0427,0.072468,-75.6,12.11,3.92,-0.39,-1.008,-0.735,1
07/03/2025 09:53:43.850,1.115324,0.02684,0.077836,-82.495,10.5,2.24,-0.378,-1.002,-0.7425,1
07/03/2025 09:53:43.870,1.067988,0.006588,0.100528,-85.26,9.625,-0.595,-0.381,-0.975,-0.753,1
07/03/2025 09:53:43.890,0.963556,-0.00976,0.13664,-82.11,8.54,-3.01,-0.378,-0.96,-0.7515,1
07/03/2025 09:53:43.910,0.890356,-0.026108,0.157136,-72.765,4.76,-5.075,-0.381,-0.9495,-0.7395,1
07/03/2025 09:53:43.930,0.862296,-0.023424,0.155184,-60.585,0.77,-6.965,-0.3855,-0.9405,-0.7485,1
07/03/2025 09:53:43.950,0.886696,0.006588,0.160552,-47.845,-3.255,-9.835,-0.3915,-0.9225,-0.741,1
07/03/2025 09:53:43.970,0.928908,0.028548,0.174704,-39.725,-4.62,-13.86,-0.384,-0.9225,-0.756,1
07/03/2025 09:53:43.990,0.947208,0.055632,0.171288,-38.29,-3.99,-19.04,-0.39,-0.9315,-0.75,1
07/03/2025 09:53:44.010,0.959652,0.053924,0.16836,-41.265,-4.375,-20.79,-0.39,-0.9315,-0.75,1
07/03/2025 09:53:44.030,0.988444,0.041968,0.171532,-43.68,-6.16,-21.245,-0.381,-0.912,-0.747,1
07/03/2025 09:53:44.050,1.008208,0.028304,0.187392,-44.59,-8.82,-20.93,-0.3885,-0.915,-0.75,1
07/03/2025 09:53:44.070,1.014064,0.01464,0.204472,-43.19,-10.78,-20.44,-0.3885,-0.9075,-0.747,1
07/03/2025 09:53:44.090,1.00284,0.008784,0.210572,-39.235,-12.53,-20.37,-0.396,-0.9105,-0.7545,1
07/03/2025 09:53:44.110,1.00528,0.010004,0.21594,-34.16,-14.98,-20.72,-0.381,-0.924,-0.7515,1
07/03/2025 09:53:44.130,1.005768,0.012688,0.23302,-28.63,-17.045,-21.385,-0.381,-0.9165,-0.75,1
07/03/2025 09:53:44.150,0.998692,0.010248,0.252052,-23.59,-18.445,-21.945,-0.372,-0.921,-0.7455,1
07/03/2025 09:53:44.170,1.003572,0.00976,0.269864,-19.285,-18.9,-22.33,-0.3795,-0.9165,-0.7545,1
07/03/2025 09:53:44.190,1.013088,0.019276,0.28304,-16.555,-18.025,-22.47,-0.3915,-0.9105,-0.741,1
07/03/2025 09:53:44.210,1.004548,0.038308,0.295972,-15.645,-15.365,-22.19,-0.402,-0.9225,-0.7245,1
07/03/2025 09:53:44.230,0.98698,0.0488,0.294264,-17.36,-12.635,-21.105,-0.408,-0.9285,-0.7305,1
07/03/2025 09:53:44.250,0.969412,0.052704,0.296216,-22.085,-9.065,-19.285,-0.405,-0.9075,-0.741,1
07/03/2025 09:53:44.270,0.962336,0.060268,0.282796,-31.08,-3.885,-14.77,-0.405,-0.903,-0.7395,1
07/03/2025 09:53:44.290,0.975268,0.060756,0.269864,-36.225,-0.175,-11.41,-0.4095,-0.8895,-0.747,1
07/03/2025 09:53:44.310,0.982588,0.063684,0.257664,-40.39,3.605,-8.295,-0.429,-0.882,-0.7425,1
07/03/2025 09:53:44.330,1.003084,0.064172,0.247904,-43.575,7.14,-5.88,-0.4215,-0.8625,-0.7485,1
07/03/2025 09:53:44.350,1.016504,0.07076,0.235216,-46.97,10.5,-4.305,-0.432,-0.87,-0.7635,1
07/03/2025 09:53:44.370,1.010892,0.078812,0.223504,-50.575,12.6,-3.5,-0.426,-0.861,-0.7575,1
07/03/2025 09:53:44.390,1.010892,0.082472,0.220332,-54.46,12.985,-3.15,-0.441,-0.852,-0.7605,1
07/03/2025 09:53:44.410,1.00284,0.0854,0.209596,-58.695,13.58,-2.625,-0.4245,-0.84,-0.783,1
07/03/2025 09:53:44.430,0.99064,0.092476,0.193492,-62.37,13.51,-1.855,-0.429,-0.846,-0.7725,1
07/03/2025 09:53:44.450,0.983076,0.093452,0.177876,-64.925,13.475,-1.05,-0.4305,-0.822,-0.777,1
07/03/2025 09:53:44.470,0.973316,0.098088,0.16958,-66.535,12.81,-0.665,-0.42,-0.819,-0.7995,1
07/03/2025 09:53:44.490,0.97356,0.112484,0.166896,-68.775,11.48,-1.05,-0.4215,-0.798,-0.8115,1
07/03/2025 09:53:44.510,0.93818,0.110044,0.174948,-70.98,10.71,-2.31,-0.426,-0.795,-0.798,1
07/03/2025 09:53:44.530,0.927444,0.09882,0.180316,-71.12,6.16,-5.355,-0.426,-0.795,-0.798,1
07/03/2025 09:53:44.550,0.926224,0.08784,0.18788,-69.65,3.535,-8.19,-0.426,-0.795,-0.798,1
07/03/2025 09:53:44.570,0.93574,0.061976,0.19276,-65.31,0.84,-11.725,-0.4155,-0.771,-0.8025,1
07/03/2025 09:53:44.590,0.95282,0.043188,0.20252,-57.12,-1.505,-15.085,-0.408,-0.774,-0.804,1
07/03/2025 09:53:44.610,0.967704,0.04636,0.218136,-48.055,-3.5,-17.745,-0.417,-0.7635,-0.801,1
07/03/2025 09:53:44.630,0.977952,0.047092,0.232044,-42.665,-4.865,-19.74,-0.435,-0.747,-0.7995,1
07/03/2025 09:53:44.650,0.988444,0.05978,0.242536,-41.265,-6.44,-21.105,-0.4275,-0.756,-0.7935,1
07/03/2025 09:53:44.670,0.994056,0.046848,0.250344,-42.91,-7.28,-21.98,-0.426,-0.7545,-0.7935,1
07/03/2025 09:53:44.690,0.988444,0.041968,0.261324,-44.87,-8.12,-22.61,-0.42,-0.7425,-0.7845,1
