BLE Address: 5971E122EFC00
time	ax	ay	az	gx	gy	gz	mx	my	mz

07/18/2025 14:03:40.666	0.953064	-0.23912	0.180072	0.35	1.75	5.635	-0.4395	-0.855	-0.315
07/18/2025 14:03:40.686	0.941352	-0.183	0.167628	4.445	2.03	4.585	-0.4395	-0.846	-0.2985
07/18/2025 14:03:40.706	0.954284	-0.21228	0.17568	3.29	1.05	3.64	-0.4455	-0.852	-0.303
07/18/2025 14:03:40.726	0.956236	-0.1891	0.18544	3.045	1.575	2.555	-0.441	-0.855	-0.3
07/18/2025 14:03:40.746	0.958432	-0.19764	0.189832	1.155	1.925	2.065	-0.4425	-0.858	-0.2985
07/18/2025 14:03:40.766	0.970144	-0.247172	0.179828	-3.57	1.05	2.135	-0.4425	-0.858	-0.2985
07/18/2025 14:03:40.786	0.959164	-0.209596	0.185196	0.525	2.205	1.61	-0.4425	-0.858	-0.2985
07/18/2025 14:03:40.806	0.9577	-0.24766	0.175924	-0.42	1.33	2.345	-0.4425	-0.849	-0.297
07/18/2025 14:03:40.826	0.96136	-0.238876	0.17568	0.105	0.665	2.94	-0.4215	-0.837	-0.3
07/18/2025 14:03:40.846	0.948916	-0.220088	0.180316	3.395	0.77	1.365	-0.432	-0.84	-0.291
07/18/2025 14:03:40.866	0.935252	-0.209596	0.167872	5.32	0.595	0.805	-0.4275	-0.825	-0.303
07/18/2025 14:03:40.886	0.951356	-0.219112	0.183976	5.32	-1.4	-0.245	-0.4125	-0.8235	-0.294
07/18/2025 14:03:40.906	0.9455	-0.22936	0.193492	4.375	-1.54	-0.77	-0.411	-0.81	-0.2835
07/18/2025 14:03:40.926	0.9577	-0.240096	0.190564	4.27	-1.89	-1.12	-0.4035	-0.8145	-0.282
07/18/2025 14:03:40.946	0.954284	-0.227164	0.181048	8.085	-2.24	-1.68	-0.417	-0.81	-0.2805
07/18/2025 14:03:40.966	0.969168	-0.237412	0.20252	2.835	-3.57	-2.52	-0.4065	-0.8175	-0.2715
07/18/2025 14:03:40.986	0.961116	-0.220088	0.192028	2.45	-2.1	-2.415	-0.405	-0.807	-0.258
07/18/2025 14:03:41.006	0.971852	-0.229848	0.18544	0.525	-1.68	-1.68	-0.4035	-0.807	-0.252
07/18/2025 14:03:41.026	0.975512	-0.23668	0.190808	0.21	-0.56	-1.33	-0.4095	-0.828	-0.2385
07/18/2025 14:03:41.046	0.961848	-0.233752	0.194468	1.155	0.28	-1.015	-0.411	-0.8235	-0.2355
07/18/2025 14:03:41.066	0.95282	-0.221552	0.197396	2.415	0.84	-0.63	-0.4005	-0.825	-0.2475
07/18/2025 14:03:41.086	0.953552	-0.21106	0.202032	0.945	0.14	-0.63	-0.405	-0.816	-0.2475
07/18/2025 14:03:41.106	0.955016	-0.238876	0.196176	-1.925	0	-0.91	-0.399	-0.8295	-0.2415
07/18/2025 14:03:41.126	0.955016	-0.233508	0.204716	0.14	0.07	-0.98	-0.402	-0.8265	-0.243
07/18/2025 14:03:41.146	0.948428	-0.233264	0.200812	1.715	0.245	-1.785	-0.405	-0.8265	-0.2475
07/18/2025 14:03:41.166	0.94306	-0.230824	0.198616	4.025	0.245	-1.645	-0.405	-0.8265	-0.2475
07/18/2025 14:03:41.186	0.950868	-0.2135	0.194468	4.935	0.42	-1.05	-0.402	-0.8325	-0.2595
07/18/2025 14:03:41.206	0.952576	-0.223016	0.20496	2.345	0.945	-0.07	-0.4065	-0.834	-0.252
07/18/2025 14:03:41.226	0.950624	-0.227408	0.194712	0.42	1.995	0.455	-0.4155	-0.828	-0.255
07/18/2025 14:03:41.246	0.951356	-0.217404	0.193492	1.295	2.52	0.56	-0.417	-0.8235	-0.2565
07/18/2025 14:03:41.266	0.949892	-0.21838	0.194712	0.105	2.52	0.35	-0.42	-0.8325	-0.255
07/18/2025 14:03:41.286	0.950136	-0.221552	0.182512	-1.96	2.555	-0.21	-0.423	-0.8505	-0.264
07/18/2025 14:03:41.306	0.9516	-0.238876	0.191784	-2.835	2.415	-0.105	-0.4275	-0.8535	-0.2565
07/18/2025 14:03:41.326	0.943792	-0.221796	0.183732	-2.205	2.31	0.63	-0.4395	-0.864	-0.264
07/18/2025 14:03:41.346	0.942328	-0.226432	0.176412	-3.185	1.855	1.015	-0.429	-0.858	-0.2745
07/18/2025 14:03:41.366	0.95648	-0.232044	0.171044	-2.87	1.05	0.77	-0.429	-0.858	-0.2745
07/18/2025 14:03:41.386	0.953308	-0.23058	0.17568	-0.945	0.805	0.525	-0.429	-0.858	-0.2745
07/18/2025 14:03:41.406	0.964044	-0.222772	0.188124	1.715	0.14	-0.315	-0.4455	-0.8595	-0.2955
07/18/2025 14:03:41.426	0.956968	-0.219844	0.193248	-0.49	-0.525	-1.47	-0.4365	-0.861	-0.312
07/18/2025 14:03:41.446	0.9577	-0.231068	0.189832	-3.5	-1.505	-1.47	-0.444	-0.8505	-0.3135
07/18/2025 14:03:41.466	0.955992	-0.232776	0.183976	-3.01	-1.995	-1.155	-0.4395	-0.852	-0.3105
07/18/2025 14:03:41.486	0.948916	-0.235216	0.172508	-0.14	-2.345	-0.875	-0.45	-0.8505	-0.318
07/18/2025 14:03:41.506	0.953064	-0.212036	0.173484	2.24	-2.03	-0.49	-0.4335	-0.858	-0.3045
07/18/2025 14:03:41.526	0.945256	-0.216916	0.189588	1.12	-1.89	-0.7	-0.4425	-0.858	-0.3105
07/18/2025 14:03:41.546	0.951844	-0.217892	0.204228	1.925	-2.17	-1.295	-0.4485	-0.8565	-0.297
07/18/2025 14:03:41.566	0.949892	-0.214232	0.210084	0.735	-2.1	-1.995	-0.4485	-0.858	-0.3135
07/18/2025 14:03:41.586	0.954528	-0.229116	0.19154	-0.21	-1.96	-2.38	-0.4485	-0.858	-0.3135
07/18/2025 14:03:41.606	0.955748	-0.227164	0.200568	2.275	-1.68	-2.135	-0.4455	-0.8595	-0.291
07/18/2025 14:03:41.626	0.965752	-0.251564	0.210328	1.645	-2.03	-1.155	-0.447	-0.858	-0.303
07/18/2025 14:03:41.646	0.955748	-0.243512	0.211548	2.17	-1.645	-0.35	-0.4395	-0.852	-0.297
07/18/2025 14:03:41.666	0.954284	-0.233508	0.201544	3.01	-1.68	0.07	-0.429	-0.84	-0.297
07/18/2025 14:03:41.686	0.945744	-0.24034	0.20618	3.045	-1.505	0.14	-0.423	-0.8385	-0.288
07/18/2025 14:03:41.706	0.944524	-0.22082	0.210328	3.64	-1.68	-0.035	-0.423	-0.8385	-0.2925
07/18/2025 14:03:41.726	0.939644	-0.241804	0.205936	5.53	-0.98	-0.105	-0.4305	-0.8325	-0.297
07/18/2025 14:03:41.746	0.957456	-0.23058	0.209596	6.58	-1.225	-0.035	-0.423	-0.825	-0.2865
07/18/2025 14:03:41.766	0.953308	-0.211548	0.202276	6.02	-0.21	-0.105	-0.414	-0.825	-0.291
07/18/2025 14:03:41.786	0.949892	-0.217648	0.205692	2.66	0.84	0.525	-0.414	-0.825	-0.291
07/18/2025 14:03:41.806	0.94794	-0.235704	0.203252	1.19	1.96	1.295	-0.4005	-0.8175	-0.2535
07/18/2025 14:03:41.826	0.952088	-0.226432	0.19276	0.77	2.31	1.61	-0.405	-0.816	-0.249
07/18/2025 14:03:41.846	0.958676	-0.224968	0.20008	0.63	2.555	2.205	-0.408	-0.8145	-0.252
07/18/2025 14:03:41.866	0.965264	-0.224724	0.195444	1.295	2.205	2.1	-0.4035	-0.8235	-0.243
07/18/2025 14:03:41.886	0.961848	-0.223016	0.191052	1.295	1.995	2.03	-0.411	-0.834	-0.2445
07/18/2025 14:03:41.906	0.955504	-0.212524	0.19276	2.065	1.855	1.645	-0.411	-0.8265	-0.2445
07/18/2025 14:03:41.926	0.955992	-0.214232	0.18544	1.715	1.89	1.82	-0.408	-0.825	-0.2445
07/18/2025 14:03:41.946	0.962336	-0.210084	0.184464	1.89	2.1	2.03	-0.4125	-0.813	-0.2475
07/18/2025 14:03:41.966	0.958432	-0.201056	0.189588	0.91	2.1	2.03	-0.4125	-0.813	-0.2475
07/18/2025 14:03:41.986	0.96014	-0.213256	0.182024	-1.19	1.715	1.4	-0.4125	-0.813	-0.2475
07/18/2025 14:03:42.006	0.959896	-0.207888	0.18178	-1.645	1.89	0.77	-0.402	-0.8205	-0.2475
07/18/2025 14:03:42.026	0.953308	-0.210816	0.175924	-2.065	1.925	0.35	-0.402	-0.828	-0.2475
07/18/2025 14:03:42.046	0.956968	-0.203496	0.171288	-0.98	1.68	0.07	-0.417	-0.816	-0.2595
07/18/2025 14:03:42.066	0.955748	-0.201788	0.17568	-0.35	1.12	-0.07	-0.405	-0.831	-0.261
07/18/2025 14:03:42.086	0.958188	-0.209352	0.182756	-1.33	0.665	0.175	-0.417	-0.8325	-0.2505
07/18/2025 14:03:42.106	0.964044	-0.21594	0.172752	-1.26	0.42	0.49	-0.4275	-0.831	-0.2535
07/18/2025 14:03:42.126	0.954284	-0.223016	0.17324	-0.35	-0.035	0.455	-0.4275	-0.837	-0.267
07/18/2025 14:03:42.146	0.95038	-0.22448	0.182756	1.33	-0.35	0.595	-0.4185	-0.846	-0.261
07/18/2025 14:03:42.166	0.93574	-0.199348	0.180804	2.485	-0.91	-0.21	-0.435	-0.858	-0.264
07/18/2025 14:03:42.186	0.941352	-0.21228	0.187392	2.38	-2.17	-1.225	-0.435	-0.858	-0.264
07/18/2025 14:03:42.206	0.954772	-0.206912	0.186172	1.89	-2.905	-1.295	-0.4335	-0.8595	-0.267
07/18/2025 14:03:42.226	0.959164	-0.218868	0.194712	0.77	-2.66	-1.645	-0.4395	-0.8535	-0.2805
07/18/2025 14:03:42.246	0.961116	-0.222528	0.196908	0.35	-2.135	-1.295	-0.4515	-0.8565	-0.288
07/18/2025 14:03:42.266	0.966972	-0.225944	0.19398	-0.035	-1.575	-0.735	-0.4425	-0.864	-0.2925
07/18/2025 14:03:42.286	0.961604	-0.226432	0.199348	-0.805	-1.225	-0.28	-0.4485	-0.8595	-0.297
07/18/2025 14:03:42.306	0.959164	-0.216428	0.202764	-0.35	-0.665	0.385	-0.4425	-0.8565	-0.3045
07/18/2025 14:03:42.326	0.962824	-0.215696	0.209108	-1.89	-0.455	0.7	-0.45	-0.852	-0.3135
07/18/2025 14:03:42.346	0.959164	-0.220576	0.208132	-3.675	-0.735	0.245	-0.447	-0.846	-0.315
07/18/2025 14:03:42.366	0.965264	-0.227408	0.20374	-4.2	-0.84	0.105	-0.4455	-0.8595	-0.294
07/18/2025 14:03:42.386	0.962092	-0.229848	0.211792	-2.695	-0.525	0.28	-0.4455	-0.8595	-0.294
07/18/2025 14:03:42.406	0.965264	-0.220088	0.207888	-1.855	-0.175	0.805	-0.447	-0.846	-0.3015
07/18/2025 14:03:42.426	0.95892	-0.212524	0.206912	-1.785	0.665	0.98	-0.444	-0.8445	-0.2985
07/18/2025 14:03:42.446	0.950624	-0.218868	0.203252	-2.52	1.085	1.4	-0.432	-0.855	-0.2985
07/18/2025 14:03:42.466	0.946964	-0.224968	0.206912	-4.2	1.4	1.47	-0.4485	-0.858	-0.3015
07/18/2025 14:03:42.486	0.939644	-0.223992	0.2013	-3.36	1.925	1.54	-0.444	-0.8535	-0.2895
07/18/2025 14:03:42.506	0.935496	-0.21228	0.201544	-1.4	1.715	1.4	-0.441	-0.8535	-0.288
07/18/2025 14:03:42.526	0.938424	-0.226432	0.208132	-0.735	1.085	0.805	-0.438	-0.852	-0.2955
07/18/2025 14:03:42.546	0.937204	-0.226676	0.211792	-0.42	0.7	-0.035	-0.4365	-0.8355	-0.297
07/18/2025 14:03:42.566	0.938668	-0.23302	0.204228	1.54	0.35	0.07	-0.4275	-0.834	-0.291
07/18/2025 14:03:42.586	0.945256	-0.223504	0.1952	1.295	-0.28	-0.07	-0.4275	-0.8355	-0.2955
07/18/2025 14:03:42.606	0.948184	-0.231068	0.192028	1.365	-0.77	0	-0.4095	-0.816	-0.2865
07/18/2025 14:03:42.626	0.952576	-0.2623	0.199348	1.085	-1.19	0.63	-0.4065	-0.8175	-0.27
07/18/2025 14:03:42.646	0.945988	-0.238388	0.200324	5.6	-1.19	0.175	-0.4065	-0.8175	-0.2775
07/18/2025 14:03:42.666	0.945744	-0.255956	0.21106	7.175	-1.855	0.945	-0.4065	-0.8265	-0.258
07/18/2025 14:03:42.686	0.945988	-0.231312	0.195932	10.99	-1.785	1.19	-0.4035	-0.8205	-0.264
07/18/2025 14:03:42.706	0.948428	-0.232044	0.19398	10.78	-1.89	1.575	-0.4065	-0.8205	-0.249
07/18/2025 14:03:42.726	0.9455	-0.222528	0.202764	7.385	-1.82	1.61	-0.4005	-0.8145	-0.246
07/18/2025 14:03:42.746	0.958676	-0.223992	0.202032	7.42	-1.96	1.085	-0.411	-0.816	-0.2445
07/18/2025 14:03:42.766	0.955504	-0.214476	0.202032	5.11	-1.4	0.56	-0.408	-0.8235	-0.243
07/18/2025 14:03:42.786	0.95404	-0.2135	0.202032	2.345	-0.77	0.875	-0.408	-0.8235	-0.243
07/18/2025 14:03:42.806	0.953796	-0.231068	0.189832	-0.35	-0.385	1.575	-0.402	-0.8265	-0.2445
07/18/2025 14:03:42.826	0.958188	-0.254492	0.182756	0.525	-0.105	2.065	-0.405	-0.8265	-0.2325
07/18/2025 14:03:42.846	0.955748	-0.24156	0.192028	5.32	0.14	3.045	-0.4035	-0.8295	-0.249
07/18/2025 14:03:42.866	0.950624	-0.235948	0.192028	7.07	0.28	3.325	-0.399	-0.816	-0.243
07/18/2025 14:03:42.886	0.9516	-0.222772	0.19154	8.96	0	3.115	-0.4065	-0.8205	-0.249
07/18/2025 14:03:42.906	0.964532	-0.192516	0.188368	11.795	-0.385	2.38	-0.411	-0.831	-0.246
07/18/2025 14:03:42.926	0.956724	-0.202276	0.192028	6.02	-0.14	1.855	-0.4095	-0.816	-0.243
07/18/2025 14:03:42.946	0.960384	-0.213012	0.183976	2.8	-0.105	1.365	-0.414	-0.8235	-0.2445
07/18/2025 14:03:42.966	0.971608	-0.230092	0.188124	2.03	0.035	1.085	-0.4155	-0.8265	-0.249
07/18/2025 14:03:42.986	0.968924	-0.217892	0.196176	4.13	1.785	1.505	-0.4155	-0.8265	-0.249
07/18/2025 14:03:43.006	0.960628	-0.209596	0.190076	3.71	1.785	1.295	-0.4155	-0.8265	-0.249
07/18/2025 14:03:43.026	0.96258	-0.211304	0.183732	4.06	1.4	0.805	-0.432	-0.8505	-0.261
07/18/2025 14:03:43.046	0.956724	-0.209108	0.188368	4.515	1.435	0.21	-0.4395	-0.8565	-0.261
07/18/2025 14:03:43.066	0.959652	-0.21472	0.181048	3.115	0.77	-0.035	-0.4395	-0.8565	-0.2685
07/18/2025 14:03:43.086	0.957456	-0.20252	0.184952	2.38	0.84	-0.245	-0.432	-0.8535	-0.276
07/18/2025 14:03:43.106	0.948916	-0.212768	0.184952	-0.14	0.56	0	-0.447	-0.8565	-0.282
07/18/2025 14:03:43.126	0.94916	-0.21838	0.179096	-0.63	-0.105	-0.385	-0.444	-0.8595	-0.2895
07/18/2025 14:03:43.146	0.94794	-0.215208	0.18422	1.785	-0.315	-0.875	-0.4485	-0.8625	-0.2865
07/18/2025 14:03:43.166	0.947452	-0.2074	0.185928	1.96	-0.63	-1.505	-0.45	-0.858	-0.2955
07/18/2025 14:03:43.186	0.963068	-0.224236	0.182024	0.49	-1.54	-1.995	-0.45	-0.858	-0.2955
07/18/2025 14:03:43.206	0.95526	-0.223992	0.181048	0.91	-1.54	-2.17	-0.45	-0.858	-0.2955
07/18/2025 14:03:43.226	0.951112	-0.216428	0.187636	1.715	-1.47	-1.89	-0.444	-0.8565	-0.2985
07/18/2025 14:03:43.246	0.956236	-0.22814	0.18422	1.435	-2.065	-1.785	-0.441	-0.858	-0.3
07/18/2025 14:03:43.266	0.953064	-0.225944	0.182268	2.38	-2.45	-1.12	-0.453	-0.849	-0.294
07/18/2025 14:03:43.286	0.952332	-0.233752	0.18666	3.78	-2.87	-0.805	-0.4425	-0.8415	-0.294
07/18/2025 14:03:43.306	0.94916	-0.224724	0.187148	4.585	-3.675	-0.49	-0.4515	-0.855	-0.285
07/18/2025 14:03:43.326	0.953064	-0.22082	0.189344	4.62	-4.025	-0.385	-0.4485	-0.8535	-0.2895
07/18/2025 14:03:43.346	0.945988	-0.237412	0.189344	4.97	-3.85	-0.21	-0.444	-0.8535	-0.2835
07/18/2025 14:03:43.366	0.957456	-0.208376	0.183976	9.38	-3.64	-0.455	-0.447	-0.849	-0.2835
07/18/2025 14:03:43.386	0.953064	-0.209352	0.200324	7.455	-3.115	-1.33	-0.432	-0.852	-0.285
07/18/2025 14:03:43.406	0.959652	-0.205692	0.21594	4.76	-3.22	-1.05	-0.4245	-0.843	-0.2805
07/18/2025 14:03:43.426	0.961848	-0.21838	0.20618	0.35	-2.275	-0.56	-0.42	-0.828	-0.2685
07/18/2025 14:03:43.446	0.955504	-0.233264	0.203252	-1.19	-1.96	-0.035	-0.42	-0.8265	-0.276
07/18/2025 14:03:43.466	0.953308	-0.193248	0.209352	1.225	-1.96	-0.105	-0.411	-0.81	-0.273
07/18/2025 14:03:43.486	0.95404	-0.221552	0.194956	1.015	-1.75	-0.035	-0.417	-0.8205	-0.2655
07/18/2025 14:03:43.506	0.959164	-0.208864	0.200324	3.01	-1.4	-0.175	-0.4065	-0.8175	-0.2565
07/18/2025 14:03:43.526	0.969656	-0.219844	0.205204	2.205	-1.155	-0.07	-0.405	-0.81	-0.24
07/18/2025 14:03:43.546	0.95892	-0.219844	0.200812	3.885	-0.315	0.175	-0.4035	-0.8205	-0.2445
07/18/2025 14:03:43.566	0.960384	-0.225456	0.206912	9.52	0.175	-0.035	-0.4035	-0.8205	-0.2445
07/18/2025 14:03:43.586	0.955016	-0.20984	0.199348	15.26	1.05	-0.35	-0.402	-0.8115	-0.237
07/18/2025 14:03:43.606	0.947452	-0.175436	0.203252	14.63	1.19	-0.175	-0.408	-0.825	-0.219
07/18/2025 14:03:43.626	0.9516	-0.154696	0.207644	8.26	1.015	0.455	-0.4065	-0.831	-0.222
07/18/2025 14:03:43.646	0.95526	-0.214232	0.208132	-1.61	-0.105	1.295	-0.4035	-0.819	-0.225
07/18/2025 14:03:43.666	0.951844	-0.205448	0.210572	-3.22	0.63	1.435	-0.3975	-0.819	-0.228
07/18/2025 14:03:43.686	0.956236	-0.220088	0.196664	-3.395	1.05	1.4	-0.402	-0.8325	-0.2415
07/18/2025 14:03:43.706	0.961116	-0.206424	0.193736	-0.07	1.82	1.12	-0.3975	-0.8265	-0.234
07/18/2025 14:03:43.726	0.958432	-0.205692	0.199104	0.735	2.205	0.735	-0.405	-0.8205	-0.2355
07/18/2025 14:03:43.746	0.96014	-0.204228	0.193736	0.21	1.89	0.35	-0.399	-0.816	-0.246
07/18/2025 14:03:43.766	0.963068	-0.206668	0.189588	-1.68	1.54	0.455	-0.399	-0.822	-0.237
07/18/2025 14:03:43.786	0.96258	-0.222772	0.183976	-2.345	1.82	1.05	-0.4035	-0.828	-0.24
07/18/2025 14:03:43.806	0.95648	-0.216672	0.18056	-1.47	1.89	1.47	-0.4035	-0.828	-0.24
07/18/2025 14:03:43.826	0.956968	-0.21472	0.182024	0.07	1.785	1.89	-0.414	-0.8355	-0.237
07/18/2025 14:03:43.846	0.956968	-0.204472	0.18422	0.385	1.33	2.1	-0.42	-0.843	-0.237
07/18/2025 14:03:43.866	0.95648	-0.220576	0.176168	0.035	0.49	1.75	-0.4275	-0.8475	-0.249
07/18/2025 14:03:43.886	0.955748	-0.206424	0.18788	2.135	-0.21	1.26	-0.4275	-0.8595	-0.2415
07/18/2025 14:03:43.906	0.960628	-0.209108	0.1769	1.925	-1.085	0.98	-0.45	-0.8715	-0.261
07/18/2025 14:03:43.926	0.952576	-0.203252	0.19154	3.605	-1.82	0.035	-0.4365	-0.8655	-0.2535
07/18/2025 14:03:43.946	0.965752	-0.198128	0.19154	2.45	-2.765	-0.35	-0.438	-0.864	-0.2655
07/18/2025 14:03:43.966	0.964288	-0.219844	0.188612	1.995	-3.5	-0.525	-0.4485	-0.8655	-0.2685
07/18/2025 14:03:43.986	0.964044	-0.203252	0.192028	2.94	-3.5	0.035	-0.4425	-0.861	-0.276
07/18/2025 14:03:44.006	0.959896	-0.20862	0.183488	3.745	-3.29	-0.49	-0.4425	-0.861	-0.276
07/18/2025 14:03:44.026	0.96014	-0.2074	0.200812	6.755	-2.555	-0.77	-0.438	-0.858	-0.2865
07/18/2025 14:03:44.046	0.969412	-0.208864	0.192272	9.8	-2.38	-1.05	-0.4365	-0.858	-0.282
07/18/2025 14:03:44.066	0.962092	-0.194956	0.198616	12.495	-1.26	-1.68	-0.438	-0.8475	-0.288
07/18/2025 14:03:44.086	0.958676	-0.173484	0.194956	11.13	-1.05	-1.82	-0.444	-0.8505	-0.2835
07/18/2025 14:03:44.106	0.955748	-0.16592	0.210328	2.31	-0.84	-1.47	-0.4545	-0.858	-0.2715
07/18/2025 14:03:44.126	0.958676	-0.204472	0.203984	-6.755	-0.77	-0.7	-0.4515	-0.8535	-0.282
07/18/2025 14:03:44.146	0.964044	-0.221064	0.20252	-8.225	-0.945	-0.315	-0.441	-0.858	-0.282
07/18/2025 14:03:44.166	0.958432	-0.23302	0.19398	-5.845	-1.085	-0.105	-0.4455	-0.8595	-0.2685
07/18/2025 14:03:44.186	0.963068	-0.225944	0.210328	0.91	-1.015	-0.35	-0.459	-0.8715	-0.2775
07/18/2025 14:03:44.206	0.960384	-0.216672	0.204716	5.39	0.455	-0.385	-0.459	-0.8715	-0.2775
07/18/2025 14:03:44.226	0.957212	-0.192516	0.215696	6.51	1.925	-0.175	-0.4305	-0.846	-0.267
07/18/2025 14:03:44.246	0.956236	-0.203496	0.212524	4.06	3.465	0.105	-0.4365	-0.831	-0.2775
07/18/2025 14:03:44.266	0.958432	-0.188124	0.216916	2.415	4.585	0.175	-0.4305	-0.8325	-0.2835
07/18/2025 14:03:44.286	0.94916	-0.188612	0.203252	-2.1	4.97	-0.245	-0.42	-0.8295	-0.261
07/18/2025 14:03:44.306	0.9455	-0.196176	0.200324	-4.795	4.55	-0.525	-0.4155	-0.8145	-0.258
07/18/2025 14:03:44.326	0.945256	-0.226676	0.193736	-5.53	4.69	-0.595	-0.42	-0.8175	-0.267
07/18/2025 14:03:44.346	0.955992	-0.209596	0.188856	-2.59	4.375	-0.035	-0.4155	-0.8175	-0.252
07/18/2025 14:03:44.366	0.959896	-0.2074	0.183244	-1.75	3.43	-0.105	-0.408	-0.822	-0.264
07/18/2025 14:03:44.386	0.961848	-0.2135	0.194712	-1.47	2.73	0.315	-0.408	-0.822	-0.264
07/18/2025 14:03:44.406	0.956236	-0.192516	0.196664	-3.99	2.03	1.33	-0.408	-0.822	-0.264
07/18/2025 14:03:44.426	0.951356	-0.183732	0.193492	-5.705	1.75	1.54	-0.399	-0.8085	-0.2325
07/18/2025 14:03:44.446	0.960628	-0.173972	0.2074	-5.705	1.47	1.47	-0.414	-0.8175	-0.2325
07/18/2025 14:03:44.466	0.964532	-0.1708	0.22448	-5.39	1.645	1.05	-0.405	-0.816	-0.2205
07/18/2025 14:03:44.486	0.962336	-0.167872	0.2318	-5.285	1.54	0.91	-0.405	-0.828	-0.228
07/18/2025 14:03:44.506	0.965996	-0.160552	0.241072	-4.41	1.47	0.245	-0.4095	-0.8235	-0.2355
07/18/2025 14:03:44.526	0.96136	-0.160064	0.244	-3.99	1.295	-0.875	-0.4005	-0.8235	-0.231
07/18/2025 14:03:44.546	0.961116	-0.167872	0.234728	-0.875	1.015	-2.52	-0.4005	-0.831	-0.2325
07/18/2025 14:03:44.566	0.962092	-0.153964	0.244976	3.99	0.98	-4.34	-0.4005	-0.816	-0.243
07/18/2025 14:03:44.586	0.95648	-0.152012	0.241804	6.79	1.505	-6.475	-0.4065	-0.825	-0.24
07/18/2025 14:03:44.606	0.953064	-0.11834	0.230092	5.005	1.68	-9.345	-0.4065	-0.825	-0.24
07/18/2025 14:03:44.626	0.958432	-0.13908	0.224236	-1.47	0.945	-11.235	-0.411	-0.828	-0.2295
07/18/2025 14:03:44.646	0.96502	-0.155672	0.227408	-5.215	0.945	-12.53	-0.4095	-0.837	-0.2445
07/18/2025 14:03:44.666	0.96746	-0.182756	0.202276	-6.895	1.925	-12.88	-0.4125	-0.8475	-0.2385
07/18/2025 14:03:44.686	0.968192	-0.156892	0.183244	-6.51	2.695	-13.72	-0.411	-0.846	-0.249
07/18/2025 14:03:44.706	0.96136	-0.16836	0.1464	-10.5	2.24	-14.525	-0.4065	-0.8505	-0.2475
07/18/2025 14:03:44.726	0.95282	-0.177144	0.12688	-12.495	1.4	-15.015	-0.417	-0.867	-0.255
07/18/2025 14:03:44.746	0.958432	-0.160308	0.124928	-15.54	-0.35	-15.015	-0.4335	-0.8715	-0.258
07/18/2025 14:03:44.766	0.95282	-0.1525	0.091256	-18.025	-1.61	-15.225	-0.4275	-0.876	-0.2595
07/18/2025 14:03:44.786	0.948672	-0.114192	0.06954	-19.53	-3.15	-16.24	-0.4215	-0.885	-0.2565
07/18/2025 14:03:44.806	0.950624	-0.045628	0.020008	-38.92	-6.72	-17.605	-0.4215	-0.885	-0.2565
07/18/2025 14:03:44.826	0.965264	-0.040748	-0.022204	-60.48	-8.54	-19.145	-0.4305	-0.897	-0.2835
07/18/2025 14:03:44.846	0.994056	-0.080032	-0.077348	-80.99	-10.185	-21.735	-0.423	-0.8805	-0.2835
07/18/2025 14:03:44.866	0.987712	0.01952	-0.13054	-93.415	-10.36	-23.73	-0.429	-0.894	-0.303
07/18/2025 14:03:44.886	0.986248	-0.030012	-0.221552	-109.76	-12.88	-26.6	-0.429	-0.888	-0.312
07/18/2025 14:03:44.906	1.008696	-0.075396	-0.248148	-99.82	-21.105	-32.305	-0.423	-0.879	-0.3075
07/18/2025 14:03:44.926	1.02236	-0.055144	-0.228384	-70.63	-31.5	-38.22	-0.429	-0.897	-0.327
07/18/2025 14:03:44.946	1.039684	0.013176	-0.197152	-43.995	-41.475	-44.065	-0.4185	-0.8925	-0.315
07/18/2025 14:03:44.966	1.047492	0.123952	-0.180804	-28.735	-51.38	-49.7	-0.4125	-0.906	-0.318
07/18/2025 14:03:44.986	1.09922	0.10858	-0.145912	-32.445	-61.355	-56.63	-0.4125	-0.909	-0.303
07/18/2025 14:03:45.006	1.158512	0.113704	-0.104676	-49.035	-72.835	-68.18	-0.4065	-0.918	-0.306
07/18/2025 14:03:45.026	1.2078	0.105652	-0.08295999	-56.35	-78.925	-74.41	-0.4035	-0.933	-0.2835
07/18/2025 14:03:45.046	1.219024	0.066612	-0.081984	-52.71	-79.695	-79.17	-0.3915	-0.9375	-0.288
07/18/2025 14:03:45.066	1.247084	0.0671	-0.105652	-43.75	-77.84	-79.94	-0.3735	-0.942	-0.2745
07/18/2025 14:03:45.086	1.235616	0.122244	-0.106872	-38.01	-75.075	-80.01	-0.3495	-0.9495	-0.264
07/18/2025 14:03:45.106	1.229028	0.103212	-0.11346	-42.98	-73.325	-81.62	-0.3555	-0.9585	-0.255
07/18/2025 14:03:45.126	1.217804	0.10858	-0.14884	-47.285	-72.03	-83.09	-0.327	-0.9585	-0.2505
07/18/2025 14:03:45.146	1.207556	0.07808	-0.22204	-48.195	-72.345	-82.95	-0.3195	-0.96	-0.24
07/18/2025 14:03:45.166	1.1712	0.099308	-0.19276	-43.05	-73.5	-81.97	-0.3	-0.9615	-0.249
07/18/2025 14:03:45.186	1.113128	0.106384	-0.206668	-38.815	-73.815	-80.64	-0.2775	-0.9765	-0.225
07/18/2025 14:03:45.206	1.0858	0.162748	-0.24156	-39.795	-75.355	-78.575	-0.2775	-0.9765	-0.225
07/18/2025 14:03:45.226	1.085068	0.122244	-0.286944	-45.115	-76.125	-78.47	-0.273	-0.9855	-0.213
07/18/2025 14:03:45.246	1.10532	0.078812	-0.285724	-41.02	-76.02	-76.93	-0.261	-0.996	-0.207
07/18/2025 14:03:45.266	1.083604	0.09638	-0.28304	-36.75	-74.06	-72.87	-0.2415	-1.005	-0.2085
07/18/2025 14:03:45.286	1.049688	0.143716	-0.281576	-37.415	-73.465	-66.57	-0.2475	-1.0125	-0.198
07/18/2025 14:03:45.306	1.015528	0.182024	-0.293776	-40.25	-72.415	-61.32	-0.2325	-1.014	-0.198
07/18/2025 14:03:45.326	1.011868	0.183732	-0.294996	-46.025	-72.31	-56.49	-0.2295	-1.0155	-0.207
07/18/2025 14:03:45.346	0.953308	0.19886	-0.300364	-48.16	-70.945	-53.83	-0.213	-1.023	-0.207
07/18/2025 14:03:45.366	0.933788	0.244732	-0.297924	-46.2	-70.385	-53.13	-0.204	-1.026	-0.216
07/18/2025 14:03:45.386	0.912804	0.272548	-0.297192	-46.27	-68.425	-51.765	-0.201	-1.0395	-0.213
07/18/2025 14:03:45.406	0.915732	0.326228	-0.302804	-44.24	-66.01	-48.37	-0.201	-1.0395	-0.213
07/18/2025 14:03:45.426	0.8784	0.347212	-0.270352	-44.03	-64.05	-46.13	-0.201	-1.0395	-0.213
07/18/2025 14:03:45.446	0.843996	0.371856	-0.214232	-42.63	-62.965	-43.925	-0.1875	-1.053	-0.228
07/18/2025 14:03:45.466	0.837652	0.393328	-0.211792	-45.78	-61.39	-41.93	-0.171	-1.0485	-0.2355
07/18/2025 14:03:45.486	0.832284	0.427244	-0.172996	-45.605	-59.92	-41.23	-0.171	-1.0575	-0.2355
07/18/2025 14:03:45.506	0.806664	0.415532	-0.1769	-42.875	-57.435	-40.74	-0.177	-1.0725	-0.24
07/18/2025 14:03:45.526	0.788608	0.46848	-0.166896	-31.5	-53.375	-41.37	-0.168	-1.0815	-0.2445
07/18/2025 14:03:45.546	0.745664	0.489464	-0.14884	-29.26	-49.35	-43.295	-0.1635	-1.092	-0.255
07/18/2025 14:03:45.566	0.732976	0.541436	-0.146888	-23.065	-44.205	-45.78	-0.162	-1.104	-0.2595
07/18/2025 14:03:45.586	0.724192	0.55754	-0.149328	-20.02	-40.18	-48.02	-0.1605	-1.101	-0.2565
07/18/2025 14:03:45.606	0.691984	0.606096	-0.152256	-18.445	-33.95	-49.21	-0.162	-1.107	-0.2595
07/18/2025 14:03:45.626	0.688812	0.58316	-0.183244	-20.23	-28.84	-49.35	-0.162	-1.107	-0.2595
07/18/2025 14:03:45.646	0.661972	0.576328	-0.194224	-13.79	-23.45	-50.435	-0.1515	-1.1265	-0.264
07/18/2025 14:03:45.666	0.659532	0.559492	-0.243268	-5.95	-18.41	-50.61	-0.1395	-1.128	-0.273
07/18/2025 14:03:45.686	0.616832	0.617564	-0.301096	2.345	-12.775	-50.12	-0.1425	-1.128	-0.279
07/18/2025 14:03:45.706	0.59658	0.634156	-0.315736	9.765	-9.555	-48.755	-0.1275	-1.1235	-0.2805
07/18/2025 14:03:45.726	0.589748	0.635132	-0.356972	15.61	-5.53	-47.565	-0.1185	-1.1325	-0.2775
07/18/2025 14:03:45.746	0.598044	0.651724	-0.432368	14.98	-1.26	-45.115	-0.102	-1.1235	-0.2895
07/18/2025 14:03:45.766	0.5795	0.70516	-0.475556	9.31	3.08	-41.51	-0.096	-1.1295	-0.2715
07/18/2025 14:03:45.786	0.58072	0.696864	-0.489464	2.03	2.205	-36.575	-0.087	-1.122	-0.276
07/18/2025 14:03:45.806	0.582184	0.687592	-0.546804	-4.9	-1.33	-31.745	-0.084	-1.1325	-0.2805
07/18/2025 14:03:45.826	0.549976	0.709552	-0.551196	-2.765	-2.975	-30.345	-0.084	-1.1325	-0.2805
07/18/2025 14:03:45.846	0.521428	0.746884	-0.570472	-2.17	-5.04	-29.61	-0.075	-1.1325	-0.264
07/18/2025 14:03:45.866	0.528748	0.750056	-0.569252	-4.095	-7.875	-30.66	-0.0795	-1.128	-0.2535
07/18/2025 14:03:45.886	0.497516	0.75274	-0.571448	-4.585	-9.695	-32.655	-0.069	-1.1235	-0.261
07/18/2025 14:03:45.906	0.480924	0.748104	-0.58926	0.7	-14.07	-33.145	-0.0645	-1.119	-0.2565
07/18/2025 14:03:45.926	0.480436	0.778604	-0.565836	7.945	-20.055	-33.39	-0.0585	-1.107	-0.261
07/18/2025 14:03:45.946	0.456768	0.776652	-0.551928	9.975	-24.08	-33.705	-0.045	-1.107	-0.273
07/18/2025 14:03:45.966	0.453108	0.720044	-0.518744	8.085	-26.95	-33.915	-0.0435	-1.0995	-0.2655
07/18/2025 14:03:45.986	0.451888	0.683688	-0.527284	9.1	-27.58	-33.39	-0.042	-1.098	-0.258
07/18/2025 14:03:46.006	0.418216	0.71004	-0.505812	11.025	-26.88	-30.52	-0.0375	-1.0845	-0.2595
07/18/2025 14:03:46.026	0.399184	0.666364	-0.459696	6.405	-26.25	-28.14	-0.0375	-1.0845	-0.2595
07/18/2025 14:03:46.046	0.3965	0.650504	-0.467016	-0.35	-24.885	-25.235	-0.0165	-1.0845	-0.252
07/18/2025 14:03:46.066	0.378444	0.634156	-0.463112	-7.245	-23.415	-21.14	-0.012	-1.089	-0.243
07/18/2025 14:03:46.086	0.381128	0.590236	-0.451888	-9.52	-23.415	-15.75	-0.021	-1.0905	-0.237
07/18/2025 14:03:46.106	0.37942	0.571692	-0.439444	-3.815	-23.135	-10.71	-0.0075	-1.089	-0.246
07/18/2025 14:03:46.126	0.361608	0.545828	-0.414556	2.8	-21.315	-5.88	-0.0075	-1.0875	-0.2325
07/18/2025 14:03:46.146	0.35258	0.624396	-0.38552	5.6	-19.635	-2.1	-0.012	-1.089	-0.2325
07/18/2025 14:03:46.166	0.359656	0.59902	-0.37088	3.99	-17.605	0.595	-0.0195	-1.0905	-0.2415
07/18/2025 14:03:46.186	0.346724	0.59902	-0.368684	7.735	-13.825	3.115	-0.0165	-1.0875	-0.234
07/18/2025 14:03:46.206	0.377712	0.603168	-0.373564	11.515	-11.41	6.86	-0.0165	-1.089	-0.237
07/18/2025 14:03:46.226	0.376248	0.6893	-0.37698	16.73	-4.235	12.845	-0.0165	-1.089	-0.237
07/18/2025 14:03:46.246	0.38796	0.709064	-0.396256	18.795	0.455	15.015	-0.0165	-1.0815	-0.2325
07/18/2025 14:03:46.266	0.387472	0.796904	-0.437492	21.21	4.76	16.03	-0.0075	-1.083	-0.2325
07/18/2025 14:03:46.286	0.379176	0.8418	-0.468724	19.635	9.065	15.89	-0.021	-1.0815	-0.2295
07/18/2025 14:03:46.306	0.381616	0.845704	-0.501664	22.365	12.25	14.805	-0.0195	-1.089	-0.2295
07/18/2025 14:03:46.326	0.412604	0.86864	-0.53558	25.725	12.46	12.845	-0.0225	-1.0965	-0.234
07/18/2025 14:03:46.346	0.398452	0.854244	-0.582184	26.075	12.67	9.765	-0.0165	-1.0965	-0.216
07/18/2025 14:03:46.366	0.404552	0.859856	-0.600972	28.14	10.36	5.88	-0.0195	-1.101	-0.2265
07/18/2025 14:03:46.386	0.377712	0.845948	-0.656116	31.255	8.925	2.135	-0.0255	-1.1115	-0.2115
07/18/2025 14:03:46.406	0.40504	0.826916	-0.678076	30.66	7.21	-1.26	-0.0345	-1.1205	-0.21
07/18/2025 14:03:46.426	0.405284	0.8052	-0.7198	24.675	7.14	-3.71	-0.042	-1.1235	-0.2145
07/18/2025 14:03:46.446	0.410164	0.798124	-0.68808	19.88	7.805	-3.78	-0.0255	-1.1265	-0.1995
07/18/2025 14:03:46.466	0.415532	0.776896	-0.695644	18.62	4.375	-4.865	-0.033	-1.128	-0.204
07/18/2025 14:03:46.486	0.40626	0.777628	-0.706136	18.095	-0.385	-6.755	-0.0345	-1.1325	-0.198
07/18/2025 14:03:46.506	0.408456	0.747128	-0.688568	16.975	-4.655	-7.42	-0.0465	-1.1295	-0.21
07/18/2025 14:03:46.526	0.388448	0.766648	-0.659288	17.43	-6.3	-7.84	-0.0375	-1.1325	-0.2025
07/18/2025 14:03:46.546	0.404064	0.762012	-0.654408	15.05	-6.65	-6.965	-0.0375	-1.14	-0.1995
07/18/2025 14:03:46.566	0.399672	0.744444	-0.661484	10.255	-5.845	-7.595	-0.03	-1.1265	-0.2025
07/18/2025 14:03:46.586	0.406504	0.720288	-0.606828	7.63	-6.02	-7.455	-0.0285	-1.1235	-0.201
07/18/2025 14:03:46.606	0.390156	0.701744	-0.634888	2.87	-6.3	-5.565	-0.021	-1.1205	-0.1965
07/18/2025 14:03:46.626	0.388692	0.699304	-0.612928	0.42	-7	-3.71	-0.015	-1.1295	-0.195
07/18/2025 14:03:46.646	0.362828	0.708088	-0.622688	-1.365	-6.475	-2.765	-0.0165	-1.1175	-0.204
07/18/2025 14:03:46.666	0.35624	0.685884	-0.632692	-4.2	-5.67	-3.43	-0.012	-1.1265	-0.204
07/18/2025 14:03:46.686	0.348188	0.647332	-0.640256	-5.705	-5.775	-4.375	-0.0075	-1.122	-0.1935
07/18/2025 14:03:46.706	0.36356	0.626348	-0.63196	-0.245	-7.245	-3.325	-0.015	-1.122	-0.1965
07/18/2025 14:03:46.726	0.381616	0.61	-0.619028	5.775	-10.045	-0.875	-0.0165	-1.134	-0.1935
07/18/2025 14:03:46.746	0.386008	0.651968	-0.620004	9.345	-11.06	2.345	-0.012	-1.1115	-0.1905
07/18/2025 14:03:46.766	0.341356	0.675148	-0.605608	5.495	-10.325	4.235	-0.018	-1.104	-0.1905
07/18/2025 14:03:46.786	0.344528	0.66368	-0.582672	2.835	-11.445	4.375	-0.0165	-1.11	-0.1965
07/18/2025 14:03:46.806	0.332816	0.638792	-0.569008	0.595	-9.555	3.78	-0.0045	-1.1025	-0.198
07/18/2025 14:03:46.826	0.363072	0.622688	-0.592432	5.425	-8.365	2.94	-0.0045	-1.1025	-0.198
07/18/2025 14:03:46.846	0.36112	0.625372	-0.6039	13.72	-8.225	3.955	-0.012	-1.08	-0.198
07/18/2025 14:03:46.866	0.39406	0.605852	-0.568276	21.665	-9.975	7.385	-0.0075	-1.0695	-0.1965
07/18/2025 14:03:46.886	0.381616	0.657824	-0.552172	30.975	-9.66	10.15	0	-1.08	-0.1815
07/18/2025 14:03:46.906	0.379176	0.698572	-0.543632	29.54	-8.715	10.99	-0.0105	-1.071	-0.1755
07/18/2025 14:03:46.926	0.369416	0.673684	-0.54412	20.65	-5.005	10.815	0	-1.0755	-0.165
07/18/2025 14:03:46.946	0.371124	0.658068	-0.559492	14.21	-1.82	9.835	-0.012	-1.059	-0.1695
07/18/2025 14:03:46.966	0.383568	0.665632	-0.601216	15.365	1.575	7.735	-0.015	-1.0605	-0.1635
07/18/2025 14:03:46.986	0.393572	0.681492	-0.634156	22.47	4.48	6.93	-0.015	-1.065	-0.1575
07/18/2025 14:03:47.006	0.392352	0.699548	-0.692716	21.14	5.25	6.545	-0.0135	-1.065	-0.1575
07/18/2025 14:03:47.026	0.39162	0.704184	-0.698816	19.495	6.72	4.795	-0.0135	-1.065	-0.1575
07/18/2025 14:03:47.046	0.386008	0.745664	-0.703452	15.05	7.315	2.415	-0.0135	-1.065	-0.1575
07/18/2025 14:03:47.066	0.367708	0.66612	-0.743712	7.945	5.705	1.785	-0.0255	-1.068	-0.15
07/18/2025 14:03:47.086	0.393816	0.704916	-0.733952	13.44	4.27	1.295	-0.0255	-1.062	-0.147
07/18/2025 14:03:47.106	0.379664	0.715164	-0.76006	14.875	2.94	-0.21	-0.021	-1.065	-0.162
07/18/2025 14:03:47.126	0.39772	0.688324	-0.75884	12.145	1.015	-2.345	-0.0255	-1.068	-0.1455
07/18/2025 14:03:47.146	0.40016	0.697108	-0.7198	11.025	2.765	-3.22	-0.015	-1.0665	-0.1485
07/18/2025 14:03:47.166	0.386984	0.705648	-0.729316	9.31	1.575	-4.445	-0.0195	-1.062	-0.1515
07/18/2025 14:03:47.186	0.379908	0.671488	-0.719556	2.94	1.47	-5.25	-0.015	-1.071	-0.15
07/18/2025 14:03:47.206	0.412604	0.656604	-0.705404	1.05	0.875	-4.165	-0.0225	-1.086	-0.1455
07/18/2025 14:03:47.226	0.382348	0.646112	-0.692472	-1.05	1.75	-4.2	-0.0225	-1.0875	-0.1395
07/18/2025 14:03:47.246	0.376248	0.6344	-0.671488	-2.87	1.54	-5.74	-0.0225	-1.0875	-0.1395
07/18/2025 14:03:47.266	0.384056	0.622688	-0.63684	-4.69	1.19	-6.755	-0.0195	-1.095	-0.153
07/18/2025 14:03:47.286	0.382592	0.626592	-0.651236	-6.755	0.945	-7.175	-0.027	-1.104	-0.147
07/18/2025 14:03:47.306	0.389668	0.637816	-0.63928	-5.495	0.77	-7.805	-0.027	-1.1145	-0.1545
07/18/2025 14:03:47.326	0.3843	0.568276	-0.609756	-6.895	2.205	-6.545	-0.03	-1.1115	-0.147
07/18/2025 14:03:47.346	0.377956	0.55632	-0.63562	-4.69	1.75	-5.67	-0.033	-1.1145	-0.1485
07/18/2025 14:03:47.366	0.388936	0.54168	-0.614636	1.54	1.4	-4.83	-0.0195	-1.1145	-0.1515
07/18/2025 14:03:47.386	0.385276	0.617076	-0.587552	10.255	2.765	-4.55	-0.0345	-1.116	-0.1545
07/18/2025 14:03:47.406	0.38308	0.630984	-0.5978	8.995	4.2	-4.2	-0.021	-1.1145	-0.162
07/18/2025 14:03:47.426	0.380884	0.609512	-0.63318	2.66	4.655	-4.375	-0.018	-1.116	-0.1605
07/18/2025 14:03:47.446	0.388936	0.55022	-0.651968	3.185	4.725	-4.76	-0.0105	-1.113	-0.1545
07/18/2025 14:03:47.466	0.374784	0.621224	-0.675636	12.075	5.81	-5.18	-0.0135	-1.113	-0.153
07/18/2025 14:03:47.486	0.381616	0.609268	-0.686616	12.495	5.285	-4.55	-0.0075	-1.11	-0.1575
07/18/2025 14:03:47.506	0.384544	0.609756	-0.713212	12.53	3.5	-2.94	-0.0195	-1.1115	-0.147
07/18/2025 14:03:47.526	0.388936	0.624884	-0.717116	12.285	1.89	-2.765	-0.012	-1.113	-0.1515
07/18/2025 14:03:47.546	0.382348	0.598776	-0.729804	12.11	1.33	-1.47	-0.006	-1.104	-0.15
07/18/2025 14:03:47.566	0.380152	0.637572	-0.72346	15.365	2.1	0.175	-0.0135	-1.1205	-0.1425
07/18/2025 14:03:47.586	0.35258	0.659044	-0.73566	13.545	2.17	-0.175	-0.015	-1.098	-0.1395
07/18/2025 14:03:47.606	0.377712	0.587552	-0.702476	10.64	1.05	-1.505	-0.0075	-1.0935	-0.138
07/18/2025 14:03:47.626	0.361364	0.648796	-0.731268	10.57	0.49	-3.36	-0.018	-1.0935	-0.129
07/18/2025 14:03:47.646	0.375272	0.625616	-0.712968	7.42	0.315	-3.395	-0.003	-1.0875	-0.1395
07/18/2025 14:03:47.666	0.376492	0.615368	-0.729316	4.06	0.385	-1.925	-0.006	-1.08	-0.129
07/18/2025 14:03:47.686	0.38918	0.603656	-0.711016	3.78	0.175	-0.21	-0.0105	-1.0665	-0.1365
07/18/2025 14:03:47.706	0.380884	0.614392	-0.709308	3.64	0.525	1.225	-0.003	-1.053	-0.132
07/18/2025 14:03:47.726	0.386252	0.596092	-0.70272	2.45	0.91	2.625	0.009	-1.0455	-0.132
07/18/2025 14:03:47.746	0.367708	0.594384	-0.69052	-0.035	2.8	3.395	-0.003	-1.0635	-0.1275
07/18/2025 14:03:47.766	0.36234	0.60634	-0.708332	-3.01	3.605	4.165	-0.003	-1.0575	-0.1335
07/18/2025 14:03:47.786	0.347944	0.567788	-0.690276	-4.375	4.27	4.62	-0.015	-1.05	-0.1305
07/18/2025 14:03:47.806	0.363804	0.54778	-0.718824	0.595	3.745	5.53	-0.0045	-1.041	-0.117
07/18/2025 14:03:47.826	0.383812	0.563884	-0.705648	4.69	5.215	6.965	-0.012	-1.053	-0.132
07/18/2025 14:03:47.846	0.394304	0.53924	-0.726388	1.75	4.83	8.715	-0.012	-1.053	-0.132
07/18/2025 14:03:47.866	0.382836	0.48434	-0.711748	-0.735	4.025	13.055	-0.0105	-1.05	-0.117
07/18/2025 14:03:47.886	0.374296	0.54778	-0.718336	4.515	3.71	16.205	-0.018	-1.056	-0.1185
07/18/2025 14:03:47.906	0.364292	0.547048	-0.698572	5.495	4.34	17.08	-0.0195	-1.05	-0.126
07/18/2025 14:03:47.926	0.373564	0.535824	-0.657092	2.31	5.6	15.855	-0.0225	-1.044	-0.126
07/18/2025 14:03:47.946	0.365756	0.544364	-0.682468	0.945	6.755	15.19	-0.03	-1.0605	-0.12
07/18/2025 14:03:47.966	0.384788	0.5185	-0.686616	2.31	7	15.68	-0.0255	-1.056	-0.123
07/18/2025 14:03:47.986	0.39284	0.59902	-0.702232	4.83	6.825	16.205	-0.0255	-1.0515	-0.1275
07/18/2025 14:03:48.006	0.404308	0.604144	-0.717848	0.245	6.545	16.38	-0.012	-1.059	-0.1275
07/18/2025 14:03:48.026	0.418948	0.610976	-0.734928	-1.295	5.32	14.735	-0.0285	-1.062	-0.123
07/18/2025 14:03:48.046	0.415044	0.605608	-0.72834	-0.175	5.285	12.495	-0.0255	-1.068	-0.1335
07/18/2025 14:03:48.066	0.436028	0.638304	-0.742004	5.355	3.535	11.34	-0.039	-1.077	-0.129
07/18/2025 14:03:48.086	0.448716	0.6283	-0.732976	7.105	2.275	10.185	-0.0345	-1.0815	-0.1215
07/18/2025 14:03:48.106	0.439932	0.655384	-0.726876	10.99	1.785	8.575	-0.0375	-1.0875	-0.138
07/18/2025 14:03:48.126	0.44408	0.695644	-0.706136	11.235	1.925	6.23	-0.0345	-1.0935	-0.1335
07/18/2025 14:03:48.146	0.443348	0.694912	-0.69662	7.175	2.94	2.135	-0.045	-1.101	-0.126
07/18/2025 14:03:48.166	0.477264	0.61732	-0.705892	3.185	2.205	-1.19	-0.0435	-1.107	-0.12
07/18/2025 14:03:48.186	0.494832	0.610488	-0.710284	8.925	3.115	-1.89	-0.0525	-1.0965	-0.126
07/18/2025 14:03:48.206	0.480192	0.633424	-0.695888	14.77	4.76	-3.745	-0.0615	-1.101	-0.1365
07/18/2025 14:03:48.226	0.466528	0.645136	-0.684664	14.805	5.495	-6.195	-0.0495	-1.11	-0.129
07/18/2025 14:03:48.246	0.457744	0.617564	-0.705404	5.95	4.445	-8.785	-0.0495	-1.11	-0.129
07/18/2025 14:03:48.266	0.441152	0.577304	-0.744688	3.675	3.5	-10.29	-0.0465	-1.098	-0.129
07/18/2025 14:03:48.286	0.447008	0.532652	-0.706624	7.77	2.765	-10.78	-0.033	-1.095	-0.129
07/18/2025 14:03:48.306	0.446032	0.530456	-0.690764	13.615	2.8	-11.375	-0.0375	-1.0965	-0.123
07/18/2025 14:03:48.326	0.454328	0.534116	-0.69296	18.48	2.66	-12.32	-0.0345	-1.1025	-0.123
07/18/2025 14:03:48.346	0.435784	0.528504	-0.680272	22.435	3.71	-13.09	-0.033	-1.0875	-0.111
07/18/2025 14:03:48.366	0.431392	0.529968	-0.669292	23.24	3.465	-13.16	-0.024	-1.092	-0.1215
07/18/2025 14:03:48.386	0.450912	0.521184	-0.651724	21.315	2.66	-12.355	-0.024	-1.0905	-0.114
07/18/2025 14:03:48.406	0.46238	0.50752	-0.678564	16.065	3.36	-10.78	-0.033	-1.0815	-0.102
07/18/2025 14:03:48.426	0.437004	0.476532	-0.688812	9.485	4.655	-7.35	-0.0255	-1.0905	-0.1065
07/18/2025 14:03:48.446	0.409432	0.468724	-0.693448	11.375	3.99	-3.01	-0.036	-1.0845	-0.099
07/18/2025 14:03:48.466	0.409676	0.4514	-0.689788	15.085	3.99	-2.275	-0.0255	-1.0785	-0.1065
07/18/2025 14:03:48.486	0.432856	0.463844	-0.706136	20.51	4.865	-2.205	-0.0345	-1.0635	-0.108
07/18/2025 14:03:48.506	0.447252	0.447496	-0.7137	21.84	6.265	-1.645	-0.015	-1.056	-0.09
07/18/2025 14:03:48.526	0.437248	0.442372	-0.745176	17.325	6.58	-0.945	-0.018	-1.053	-0.09
07/18/2025 14:03:48.546	0.437004	0.474092	-0.767136	15.26	6.335	1.75	-0.021	-1.0395	-0.093
07/18/2025 14:03:48.566	0.436272	0.480436	-0.764452	11.585	6.23	4.445	-0.0165	-1.0365	-0.0975
07/18/2025 14:03:48.586	0.434808	0.498004	-0.78324	5.74	6.72	6.895	-0.0105	-1.0245	-0.0855
07/18/2025 14:03:48.606	0.418704	0.464576	-0.81252	0.595	7.805	7.875	-0.012	-1.029	-0.087
07/18/2025 14:03:48.626	0.426268	0.457744	-0.818864	4.69	7.56	8.295	-0.012	-1.032	-0.084
07/18/2025 14:03:48.646	0.423828	0.515328	-0.822036	8.75	6.055	10.885	-0.012	-1.032	-0.084
07/18/2025 14:03:48.666	0.461648	0.49898	-0.810568	7.7	4.305	12.075	-0.021	-1.017	-0.0795
07/18/2025 14:03:48.686	0.447984	0.467016	-0.780556	5.67	4.865	12.04	-0.0195	-1.0275	-0.075
07/18/2025 14:03:48.706	0.452864	0.503372	-0.754692	5.775	4.585	12.495	-0.036	-1.032	-0.0705
07/18/2025 14:03:48.726	0.447252	0.474824	-0.730048	1.4	5.005	13.3	-0.0315	-1.0305	-0.0765
07/18/2025 14:03:48.746	0.4514	0.467992	-0.7381	-1.645	5.005	14.21	-0.036	-1.0215	-0.0765
07/18/2025 14:03:48.766	0.438956	0.480192	-0.742492	-1.085	4.62	14.875	-0.036	-1.023	-0.0825
07/18/2025 14:03:48.786	0.439444	0.479948	-0.74054	-1.715	4.83	15.05	-0.0285	-1.026	-0.0825
07/18/2025 14:03:48.806	0.453596	0.455304	-0.745176	0.35	4.375	14.455	-0.0435	-1.041	-0.0825
07/18/2025 14:03:48.826	0.456036	0.451888	-0.720532	2.135	4.62	13.265	-0.0435	-1.0245	-0.0855
07/18/2025 14:03:48.846	0.449204	0.467504	-0.687592	8.645	4.445	11.795	-0.045	-1.0335	-0.0915
07/18/2025 14:03:48.866	0.47092	0.474092	-0.684664	10.185	3.395	11.235	-0.042	-1.0275	-0.0855
07/18/2025 14:03:48.886	0.481168	0.497272	-0.704916	12.6	3.85	11.13	-0.036	-1.0365	-0.09
07/18/2025 14:03:48.906	0.501664	0.515572	-0.732976	14.945	6.37	8.925	-0.0435	-1.0395	-0.078
07/18/2025 14:03:48.926	0.486292	0.516304	-0.749812	14.7	8.505	6.545	-0.0615	-1.044	-0.078
07/18/2025 14:03:48.946	0.497516	0.486048	-0.766892	14	8.925	5.67	-0.051	-1.053	-0.078
07/18/2025 14:03:48.966	0.508252	0.516304	-0.772748	14.77	7.945	4.585	-0.0585	-1.0665	-0.081
07/18/2025 14:03:48.986	0.497028	0.511424	-0.802028	10.57	5.95	3.57	-0.066	-1.068	-0.0765
07/18/2025 14:03:49.006	0.490928	0.494832	-0.797392	6.58	5.215	2.17	-0.0675	-1.0725	-0.075
07/18/2025 14:03:49.026	0.515328	0.475556	-0.804224	4.795	4.34	0.945	-0.0765	-1.08	-0.0765
07/18/2025 14:03:49.046	0.528992	0.460184	-0.781288	14.28	2.31	-0.805	-0.069	-1.0785	-0.0705
07/18/2025 14:03:49.066	0.507032	0.499468	-0.755424	21.385	2.1	-1.575	-0.072	-1.0785	-0.075
07/18/2025 14:03:49.086	0.527528	0.508252	-0.721752	18.97	1.365	-2.59	-0.0735	-1.08	-0.0765
07/18/2025 14:03:49.106	0.528016	0.519232	-0.7259	11.935	2.87	-4.235	-0.069	-1.071	-0.0735
07/18/2025 14:03:49.126	0.5246	0.444568	-0.725656	4.655	4.305	-4.725	-0.057	-1.068	-0.0705
07/18/2025 14:03:49.146	0.515572	0.431148	-0.724436	7.21	6.44	-5.775	-0.054	-1.0575	-0.0615
07/18/2025 14:03:49.166	0.513376	0.427732	-0.728096	13.02	7.84	-6.23	-0.054	-1.0665	-0.069
07/18/2025 14:03:49.186	0.515572	0.45994	-0.7442	14.315	8.855	-6.02	-0.051	-1.0635	-0.069
07/18/2025 14:03:49.206	0.50508	0.429196	-0.74664	10.92	8.54	-6.965	-0.057	-1.056	-0.066
07/18/2025 14:03:49.226	0.491904	0.416264	-0.752252	6.58	7.035	-7.455	-0.048	-1.0575	-0.0525
07/18/2025 14:03:49.246	0.502396	0.367952	-0.766892	2.905	4.06	-7.105	-0.06	-1.065	-0.0645
07/18/2025 14:03:49.266	0.512644	0.344284	-0.776896	6.37	2.485	-5.74	-0.0585	-1.062	-0.0495
07/18/2025 14:03:49.286	0.5002	0.351116	-0.801052	11.97	2.03	-4.83	-0.054	-1.0545	-0.048
07/18/2025 14:03:49.306	0.519232	0.332084	-0.790804	13.93	1.225	-3.08	-0.0495	-1.041	-0.054
07/18/2025 14:03:49.326	0.506544	0.397232	-0.820084	17.745	2.38	-1.96	-0.048	-1.047	-0.054
07/18/2025 14:03:49.346	0.514352	0.398208	-0.815448	14.77	0.28	0	-0.0525	-1.026	-0.039
07/18/2025 14:03:49.366	0.498248	0.382104	-0.809592	9.415	-0.28	2.205	-0.0525	-1.035	-0.045
07/18/2025 14:03:49.386	0.490928	0.41236	-0.810812	5.705	-2.205	4.795	-0.039	-1.026	-0.054
07/18/2025 14:03:49.406	0.497272	0.39284	-0.776408	1.33	-2.87	5.635	-0.0435	-1.014	-0.0465
07/18/2025 14:03:49.426	0.512644	0.415776	-0.748104	2.17	-3.15	5.075	-0.048	-1.005	-0.0465
07/18/2025 14:03:49.446	0.511912	0.401624	-0.726632	-0.665	-1.61	4.305	-0.048	-1.005	-0.0465
07/18/2025 14:03:49.466	0.518744	0.41724	-0.734684	0.7	-0.455	3.955	-0.048	-1.005	-0.0465
07/18/2025 14:03:49.486	0.508496	0.422364	-0.744932	3.22	0.875	3.955	-0.0405	-0.996	-0.036
07/18/2025 14:03:49.506	0.495564	0.437736	-0.734684	5.215	2.135	2.205	-0.0465	-1.0035	-0.0465
07/18/2025 14:03:49.526	0.504592	0.432368	-0.752252	3.29	2.625	0.91	-0.042	-0.999	-0.0435
07/18/2025 14:03:49.546	0.516304	0.399184	-0.749568	3.36	3.01	-0.77	-0.051	-1.0005	-0.0405
07/18/2025 14:03:49.566	0.517524	0.393328	-0.759816	7	2.415	-1.085	-0.0465	-0.999	-0.0315
07/18/2025 14:03:49.586	0.51606	0.396256	-0.770796	11.095	1.05	-1.05	-0.0645	-1.0065	-0.048
07/18/2025 14:03:49.606	0.524356	0.408944	-0.765184	13.335	0.35	-0.665	-0.0615	-1.008	-0.033
07/18/2025 14:03:49.626	0.518256	0.414556	-0.742248	10.885	1.47	-1.54	-0.0555	-0.993	-0.042
07/18/2025 14:03:49.646	0.504104	0.379664	-0.754936	5.95	2.205	-2.24	-0.051	-0.9975	-0.0465
07/18/2025 14:03:49.666	0.517768	0.377712	-0.75274	6.125	2.73	-1.925	-0.0495	-1.0035	-0.0315
07/18/2025 14:03:49.686	0.510936	0.369416	-0.751764	5.775	3.535	-1.61	-0.045	-0.999	-0.036
07/18/2025 14:03:49.706	0.525088	0.374052	-0.751764	4.48	3.92	-1.435	-0.048	-1.002	-0.045
07/18/2025 14:03:49.726	0.517524	0.332572	-0.75518	2.555	5.6	-1.085	-0.048	-1.0035	-0.033
07/18/2025 14:03:49.746	0.504592	0.353312	-0.7564	6.93	6.86	-0.665	-0.0345	-1.008	-0.042
07/18/2025 14:03:49.766	0.508252	0.352092	-0.777628	8.435	5.845	0.385	-0.0435	-1.011	-0.036
07/18/2025 14:03:49.786	0.473604	0.349896	-0.80276	6.965	5.075	0.315	-0.042	-1.0275	-0.0315
07/18/2025 14:03:49.806	0.500444	0.344284	-0.799344	5.565	3.36	0.07	-0.0495	-1.023	-0.039
07/18/2025 14:03:49.826	0.522404	0.327692	-0.817888	6.615	1.96	0	-0.0525	-1.026	-0.039
07/18/2025 14:03:49.846	0.527772	0.32086	-0.807396	11.865	1.505	1.33	-0.0555	-1.0365	-0.036
07/18/2025 14:03:49.866	0.51972	0.37942	-0.794952	14.21	1.575	2.94	-0.0555	-1.0365	-0.036
07/18/2025 14:03:49.886	0.513376	0.395524	-0.801052	8.505	0.805	3.395	-0.066	-1.0485	-0.03
07/18/2025 14:03:49.906	0.519232	0.357216	-0.816424	1.225	0.35	2.625	-0.0645	-1.044	-0.0405
07/18/2025 14:03:49.926	0.52338	0.347456	-0.819596	1.4	-0.35	1.82	-0.0735	-1.0485	-0.03
07/18/2025 14:03:49.946	0.519232	0.36112	-0.805688	4.83	-1.015	1.785	-0.057	-1.0455	-0.033
07/18/2025 14:03:49.966	0.53314	0.369904	-0.784216	5.39	-1.89	2.17	-0.063	-1.0455	-0.0315
07/18/2025 14:03:49.986	0.534116	0.400648	-0.763964	4.305	-2.17	3.395	-0.0705	-1.041	-0.0345
07/18/2025 14:03:50.006	0.534848	0.379664	-0.7442	-0.14	-1.4	3.22	-0.063	-1.038	-0.0285
07/18/2025 14:03:50.026	0.542412	0.376248	-0.741272	-1.26	-0.595	1.575	-0.048	-1.038	-0.03
07/18/2025 14:03:50.046	0.527528	0.3721	-0.737124	2.1	1.89	-0.77	-0.054	-1.0395	-0.027
07/18/2025 14:03:50.066	0.52582	0.365024	-0.718824	4.445	2.555	-1.295	-0.0585	-1.0395	-0.0195
07/18/2025 14:03:50.086	0.531676	0.363804	-0.708576	5.775	2.975	-1.225	-0.069	-1.029	-0.0225
07/18/2025 14:03:50.106	0.512888	0.345016	-0.713212	4.515	4.27	-1.61	-0.0585	-1.026	-0.024
07/18/2025 14:03:50.126	0.518988	0.321836	-0.730048	4.9	5.845	-2.1	-0.054	-1.032	-0.021
07/18/2025 14:03:50.146	0.51362	0.2989	-0.731268	6.825	8.47	-2.59	-0.0585	-1.0395	-0.0255
07/18/2025 14:03:50.166	0.524356	0.28548	-0.73078	9.8	9.975	-2.31	-0.051	-1.0305	-0.0165
07/18/2025 14:03:50.186	0.527528	0.256688	-0.739564	11.725	8.96	-1.085	-0.0555	-1.0275	-0.018
07/18/2025 14:03:50.206	0.532408	0.263276	-0.744932	12.705	8.4	0.28	-0.0615	-1.011	-0.0165
07/18/2025 14:03:50.226	0.534604	0.255468	-0.757864	13.02	8.365	2.625	-0.054	-1.008	-0.018
07/18/2025 14:03:50.246	0.532896	0.256444	-0.76494	13.3	8.82	5.075	-0.051	-1.002	-0.012
07/18/2025 14:03:50.266	0.51728	0.237168	-0.783972	11.34	9.87	8.47	-0.051	-1.002	-0.012
07/18/2025 14:03:50.286	0.529968	0.218624	-0.791536	14.035	9.24	9.905	-0.048	-0.975	-0.0135
07/18/2025 14:03:50.306	0.534848	0.229848	-0.763232	19.355	9.485	11.2	-0.054	-0.978	-0.0135
07/18/2025 14:03:50.326	0.546804	0.250344	-0.737856	22.015	9.94	13.195	-0.0495	-0.9765	-0.0135
07/18/2025 14:03:50.346	0.548756	0.267912	-0.71492	19.915	11.305	14.315	-0.0525	-0.969	-0.0105
07/18/2025 14:03:50.366	0.544608	0.234484	-0.686128	16.17	11.83	16.59	-0.063	-0.9645	-0.009
07/18/2025 14:03:50.386	0.552904	0.202764	-0.659776	18.2	12.18	18.69	-0.063	-0.9645	0
07/18/2025 14:03:50.406	0.561444	0.156404	-0.60268	26.46	13.09	20.3	-0.069	-0.975	-0.0045
07/18/2025 14:03:50.426	0.580232	0.144692	-0.51484	38.85	15.995	20.125	-0.063	-0.9645	0
07/18/2025 14:03:50.446	0.615612	0.171532	-0.46116	48.895	21.805	19.285	-0.0705	-0.9615	0.003
07/18/2025 14:03:50.466	0.66124	0.21472	-0.396256	59.185	36.82	16.1	-0.069	-0.957	0.003
07/18/2025 14:03:50.486	0.713212	0.237168	-0.389668	55.23	48.58	13.3	-0.0765	-0.948	0.0075
07/18/2025 14:03:50.506	0.753716	0.237656	-0.40382	43.82	61.075	10.57	-0.0825	-0.9405	0.0165
07/18/2025 14:03:50.526	0.780556	0.211792	-0.426512	30.415	71.855	10.57	-0.087	-0.9435	0.0075
07/18/2025 14:03:50.546	0.798124	0.200324	-0.443592	20.02	80.745	12.145	-0.1005	-0.9375	0.015
07/18/2025 14:03:50.566	0.831064	0.166164	-0.437492	12.075	88.06	13.755	-0.1065	-0.927	0.0105
07/18/2025 14:03:50.586	0.847412	0.167384	-0.480436	1.855	95.13	12.67	-0.111	-0.918	0.0165
07/18/2025 14:03:50.606	0.873764	0.132492	-0.552904	-11.935	99.75	11.48	-0.1185	-0.927	0.012
07/18/2025 14:03:50.626	0.892064	0.053924	-0.620492	-14.665	100.975	11.935	-0.1335	-0.936	0.0015
07/18/2025 14:03:50.646	0.904752	0.053436	-0.65148	-7.63	99.365	13.44	-0.15	-0.9495	0.0075
07/18/2025 14:03:50.666	0.936472	0.118584	-0.693692	-7.84	93.1	17.605	-0.1605	-0.954	0
07/18/2025 14:03:50.686	0.977708	0.095892	-0.691984	-22.96	92.225	19.39	-0.18	-0.972	-0.003
07/18/2025 14:03:50.706	0.974292	0.004148	-0.68808	-37.485	94.71	23.835	-0.1935	-0.9885	-0.012
07/18/2025 14:03:50.726	0.976244	-0.071492	-0.698572	-36.75	92.33	30.555	-0.222	-0.993	-0.0105
07/18/2025 14:03:50.746	0.974536	-0.061976	-0.684176	-24.01	86.485	36.295	-0.2325	-0.9975	-0.0345
07/18/2025 14:03:50.766	0.980636	-0.06832	-0.657336	-9.73	79.52	40.67	-0.2385	-0.999	-0.042
07/18/2025 14:03:50.786	1.00528	0.015372	-0.626104	-3.43	74.095	43.925	-0.2505	-0.993	-0.051
07/18/2025 14:03:50.806	0.991616	0.021228	-0.595604	-16.415	71.61	46.445	-0.2595	-1.002	-0.0615
07/18/2025 14:03:50.826	0.992348	-0.005612	-0.56364	-31.43	68.74	49.805	-0.2805	-0.9975	-0.0735
07/18/2025 14:03:50.846	1.007964	0.02074	-0.528992	-46.76	68.215	54.075	-0.2865	-0.978	-0.09
07/18/2025 14:03:50.866	0.98088	-0.038064	-0.525576	-65.695	69.72	60.34	-0.2865	-0.978	-0.09
07/18/2025 14:03:50.886	1.01748	-0.078812	-0.48922	-57.4	64.96	64.155	-0.3045	-0.9885	-0.1185
07/18/2025 14:03:50.906	1.053104	-0.06832	-0.438712	-44.905	58.1	68.53	-0.312	-0.972	-0.123
07/18/2025 14:03:50.926	1.104344	-0.060024	-0.326716	-35.28	48.895	71.645	-0.327	-0.984	-0.1425
07/18/2025 14:03:50.946	1.0919	0.008784	-0.292312	-31.325	43.715	75.915	-0.333	-0.96	-0.1425
07/18/2025 14:03:50.966	1.101416	0.059536	-0.308904	-35.28	39.76	77.245	-0.345	-0.96	-0.1455
07/18/2025 14:03:50.986	1.089216	0.06734399	-0.278892	-38.22	38.5	75.285	-0.357	-0.9525	-0.1605
07/18/2025 14:03:51.006	1.065792	0.0671	-0.268156	-37.135	37.975	72.695	-0.378	-0.9525	-0.162
07/18/2025 14:03:51.026	1.053348	0.055388	-0.219356	-34.685	38.535	67.725	-0.3765	-0.9405	-0.1725
07/18/2025 14:03:51.046	1.048224	0.07076	-0.210328	-30.345	38.78	62.3	-0.3855	-0.921	-0.1815
07/18/2025 14:03:51.066	1.058228	0.044164	-0.17568	-21.07	34.09	54.88	-0.3855	-0.921	-0.1815
07/18/2025 14:03:51.086	1.060424	-0.025864	-0.166408	-13.895	29.855	50.47	-0.3855	-0.921	-0.1815
07/18/2025 14:03:51.106	1.053348	0.094184	-0.144692	6.405	28.28	41.79	-0.378	-0.888	-0.1905
07/18/2025 14:03:51.126	1.054812	0.09467199	-0.136152	22.645	27.615	33.355	-0.3765	-0.8835	-0.2055
07/18/2025 14:03:51.146	1.036268	0.133956	-0.105164	24.43	28.105	27.755	-0.372	-0.867	-0.1995
07/18/2025 14:03:51.166	1.036268	0.028304	-0.141276	6.965	29.225	26.53	-0.3645	-0.8655	-0.1935
07/18/2025 14:03:51.186	1.026752	-0.11346	-0.17202	-0.385	30.8	25.795	-0.363	-0.8685	-0.195
07/18/2025 14:03:51.206	1.002596	-0.124928	-0.164212	15.295	32.725	21.14	-0.366	-0.8655	-0.1815
07/18/2025 14:03:51.226	0.964288	-0.1281	-0.131028	38.5	32.515	14.35	-0.378	-0.864	-0.1815
07/18/2025 14:03:51.246	0.950624	-0.08295999	-0.141764	58.52	29.085	8.4	-0.3675	-0.855	-0.1875
07/18/2025 14:03:51.266	0.937692	-0.086132	-0.167384	57.855	21.14	0.56	-0.3705	-0.8535	-0.186
07/18/2025 14:03:51.286	0.961848	-0.094428	-0.16714	52.115	16.87	-2.52	-0.3705	-0.8535	-0.186
07/18/2025 14:03:51.306	0.968924	-0.094916	-0.15494	42.035	14.945	-5.425	-0.3795	-0.8535	-0.1755
07/18/2025 14:03:51.326	0.980148	-0.134932	-0.146156	28.245	12.705	-6.405	-0.375	-0.8385	-0.1725
07/18/2025 14:03:51.346	0.991128	-0.165432	-0.14762	22.12	10.675	-6.58	-0.3825	-0.837	-0.174
07/18/2025 14:03:51.366	1.004304	-0.1769	-0.174216	16.8	9.835	-5.495	-0.378	-0.846	-0.1695
07/18/2025 14:03:51.386	0.995032	-0.205936	-0.183976	13.09	8.505	-4.095	-0.375	-0.84	-0.1725
07/18/2025 14:03:51.406	0.981368	-0.225456	-0.183732	12.95	5.74	-2.1	-0.3825	-0.849	-0.1785
07/18/2025 14:03:51.426	0.970632	-0.230092	-0.173728	14.315	2.59	0.21	-0.39	-0.852	-0.183
07/18/2025 14:03:51.446	0.966484	-0.189344	-0.13908	17.29	0.525	2.17	-0.381	-0.837	-0.1905
07/18/2025 14:03:51.466	0.9516	-0.198128	-0.103944	17.325	-2.59	2.765	-0.3765	-0.849	-0.18
07/18/2025 14:03:51.486	0.937204	-0.202276	-0.094916	16.66	-4.69	2.1	-0.393	-0.8595	-0.186
07/18/2025 14:03:51.506	0.934032	-0.211548	-0.088328	18.06	-7.245	1.435	-0.4005	-0.855	-0.183
07/18/2025 14:03:51.526	0.935252	-0.204472	-0.083936	19.81	-9.975	0.595	-0.405	-0.8595	-0.1785
07/18/2025 14:03:51.546	0.932812	-0.18788	-0.059292	16.765	-11.235	0.28	-0.405	-0.867	-0.18
07/18/2025 14:03:51.566	0.938912	-0.224968	-0.044896	11.305	-12.6	0.56	-0.423	-0.873	-0.183
07/18/2025 14:03:51.586	0.946964	-0.215696	-0.017324	15.19	-14.07	0.105	-0.4245	-0.876	-0.1785
07/18/2025 14:03:51.606	0.975756	-0.261812	0.018544	19.145	-15.75	0.14	-0.432	-0.8715	-0.1935
07/18/2025 14:03:51.626	0.977952	-0.288896	0.041236	30.765	-16.485	-0.245	-0.429	-0.876	-0.189
07/18/2025 14:03:51.646	0.981368	-0.291824	0.055876	44.835	-16.59	-0.35	-0.42	-0.879	-0.195
07/18/2025 14:03:51.666	0.961848	-0.244	0.054412	59.57	-14.385	-0.28	-0.438	-0.879	-0.195
07/18/2025 14:03:51.686	0.950624	-0.205204	0.088084	64.82	-10.815	-0.14	-0.438	-0.879	-0.195
07/18/2025 14:03:51.706	0.952332	-0.186904	0.123952	60.83	-6.895	0.28	-0.4305	-0.867	-0.186
07/18/2025 14:03:51.726	0.965264	-0.210328	0.131028	52.115	-2.905	1.12	-0.4215	-0.8715	-0.1845
07/18/2025 14:03:51.746	0.975024	-0.22448	0.13176	44.52	1.505	1.05	-0.4275	-0.8595	-0.1785
07/18/2025 14:03:51.766	0.996252	-0.240584	0.12566	40.635	4.865	1.75	-0.426	-0.8535	-0.168
07/18/2025 14:03:51.786	0.996008	-0.25986	0.096624	40.145	9.065	1.575	-0.4245	-0.858	-0.1635
07/18/2025 14:03:51.806	1.005524	-0.269132	0.072712	47.53	12.775	1.47	-0.4335	-0.846	-0.1695
07/18/2025 14:03:51.826	1.000888	-0.257664	0.066612	56.945	16.03	1.155	-0.429	-0.8355	-0.159
07/18/2025 14:03:51.846	0.997716	-0.227408	0.064904	59.08	18.235	2.485	-0.4305	-0.852	-0.162
07/18/2025 14:03:51.866	0.990396	-0.187636	0.05124	45.01	20.93	4.025	-0.4305	-0.855	-0.1605
07/18/2025 14:03:51.886	0.978684	-0.199836	0.034892	29.155	21.14	4.515	-0.4305	-0.855	-0.1605
07/18/2025 14:03:51.906	0.969412	-0.238144	0.021472	20.965	21.105	4.76	-0.4245	-0.828	-0.168
07/18/2025 14:03:51.926	0.972096	-0.24522	0.008052	20.23	21.28	4.97	-0.4215	-0.825	-0.1575
07/18/2025 14:03:51.946	0.97112	-0.2623	-0.002928	23.59	21.49	4.795	-0.4215	-0.819	-0.165
07/18/2025 14:03:51.966	0.97478	-0.260348	-0.021228	33.775	21.525	3.22	-0.423	-0.813	-0.1725
07/18/2025 14:03:51.986	0.96624	-0.226432	-0.022448	42.21	20.685	1.89	-0.411	-0.8055	-0.168
07/18/2025 14:03:52.006	0.966484	-0.229604	-0.023424	45.08	19.005	-0.07	-0.402	-0.795	-0.1665
07/18/2025 14:03:52.026	0.962336	-0.199836	-0.006832	42.595	16.45	-0.63	-0.405	-0.7845	-0.165
07/18/2025 14:03:52.046	0.949648	-0.192028	-0.000976	33.11	14.385	0.315	-0.387	-0.7815	-0.159
07/18/2025 14:03:52.066	0.938668	-0.190808	-0.0244	20.02	9.975	3.15	-0.3975	-0.7755	-0.156
07/18/2025 14:03:52.086	0.932568	-0.190076	-0.008052	13.125	6.825	5.25	-0.3975	-0.7755	-0.156
07/18/2025 14:03:52.106	0.920856	-0.228384	-0.011712	8.155	3.745	6.125	-0.393	-0.7755	-0.1425
07/18/2025 14:03:52.126	0.923296	-0.233508	-0.006832	11.2	0.175	5.355	-0.3915	-0.7815	-0.138
07/18/2025 14:03:52.146	0.927444	-0.225944	0.023912	16.695	-2.94	3.325	-0.396	-0.7815	-0.1425
07/18/2025 14:03:52.166	0.925248	-0.253516	0.018056	22.4	-6.51	1.225	-0.3975	-0.783	-0.1305
07/18/2025 14:03:52.186	0.933544	-0.254736	0.025132	32.13	-10.22	-0.63	-0.399	-0.7755	-0.135
07/18/2025 14:03:52.206	0.942328	-0.25742	0.044408	41.405	-13.16	-2.555	-0.399	-0.783	-0.12
07/18/2025 14:03:52.226	0.97356	-0.25132	0.056364	51.345	-16.765	-3.605	-0.393	-0.7845	-0.132
07/18/2025 14:03:52.246	0.986248	-0.232288	0.08052	56.14	-17.675	-4.025	-0.3855	-0.78	-0.138
07/18/2025 14:03:52.266	1.00162	-0.205936	0.108092	51.03	-17.535	-3.64	-0.3885	-0.7785	-0.123
07/18/2025 14:03:52.286	1.00528	-0.208132	0.129808	35	-14.875	-2.205	-0.3885	-0.7785	-0.123
07/18/2025 14:03:52.306	1.003084	-0.219112	0.128588	24.045	-12.6	-0.595	-0.3795	-0.7695	-0.1245
07/18/2025 14:03:52.326	0.99796	-0.206424	0.136884	18.34	-10.325	0.91	-0.3825	-0.786	-0.1185
07/18/2025 14:03:52.346	0.99064	-0.216916	0.134444	13.44	-7.455	1.47	-0.4065	-0.789	-0.1185
07/18/2025 14:03:52.366	0.980392	-0.214476	0.153964	8.085	-4.34	2.065	-0.4065	-0.777	-0.1095
07/18/2025 14:03:52.386	0.975512	-0.217404	0.154452	3.15	-1.715	1.925	-0.4095	-0.7875	-0.1155
07/18/2025 14:03:52.406	0.979904	-0.21472	0.153964	-0.42	0.84	2.24	-0.42	-0.813	-0.126
07/18/2025 14:03:52.426	0.97112	-0.2257	0.142008	-3.08	3.185	1.995	-0.432	-0.81	-0.1185
07/18/2025 14:03:52.446	0.972584	-0.243512	0.144448	-3.885	4.935	1.505	-0.432	-0.8115	-0.123
07/18/2025 14:03:52.466	0.967948	-0.254492	0.147864	-1.33	6.23	1.12	-0.4395	-0.8175	-0.138
07/18/2025 14:03:52.486	0.956236	-0.236436	0.141764	6.3	7.91	1.295	-0.4395	-0.8175	-0.138
07/18/2025 14:03:52.506	0.96502	-0.238144	0.144204	9.45	8.82	1.995	-0.441	-0.8175	-0.144
07/18/2025 14:03:52.526	0.953796	-0.216428	0.142252	12.775	9.625	1.715	-0.432	-0.81	-0.1395
07/18/2025 14:03:52.546	0.962336	-0.190564	0.132736	11.655	9.625	1.645	-0.4395	-0.8205	-0.141
07/18/2025 14:03:52.566	0.96868	-0.205448	0.13664	6.545	9.87	1.68	-0.4425	-0.8055	-0.141
07/18/2025 14:03:52.586	0.978684	-0.218868	0.14518	3.36	9.835	1.015	-0.441	-0.804	-0.153
07/18/2025 14:03:52.606	0.968436	-0.25498	0.122488	2.205	11.165	0.98	-0.4365	-0.804	-0.15
07/18/2025 14:03:52.626	0.971608	-0.247904	0.116876	9.765	11.165	0.805	-0.4395	-0.801	-0.15
07/18/2025 14:03:52.646	0.965264	-0.235216	0.107848	15.645	11.69	0.525	-0.444	-0.8085	-0.144
07/18/2025 14:03:52.666	0.967216	-0.212036	0.11224	19.355	11.69	0.385	-0.4575	-0.798	-0.1545
07/18/2025 14:03:52.686	0.959652	-0.172508	0.116876	15.015	11.27	0.28	-0.4575	-0.798	-0.1545
07/18/2025 14:03:52.706	0.962092	-0.185928	0.113948	8.435	11.06	0.07	-0.4425	-0.801	-0.15
07/18/2025 14:03:52.726	0.958188	-0.218624	0.111508	6.58	10.955	-0.35	-0.444	-0.7995	-0.147
07/18/2025 14:03:52.746	0.957456	-0.223016	0.10614	12.635	10.36	-1.33	-0.4575	-0.792	-0.1485
07/18/2025 14:03:52.766	0.96258	-0.225456	0.092964	17.255	8.89	-1.05	-0.444	-0.786	-0.1575
07/18/2025 14:03:52.786	0.960872	-0.207156	0.101504	21.945	7.07	-1.26	-0.4335	-0.7755	-0.156
07/18/2025 14:03:52.806	0.965752	-0.192516	0.113216	20.23	4.62	-1.225	-0.429	-0.7845	-0.1515
07/18/2025 14:03:52.826	0.96258	-0.133712	0.129808	12.67	2.835	-0.63	-0.426	-0.7755	-0.1515
07/18/2025 14:03:52.846	0.96502	-0.15616	0.121024	-3.535	0.7	-0.21	-0.417	-0.7575	-0.15
07/18/2025 14:03:52.866	0.969412	-0.17934	0.120536	-16.38	0	0.245	-0.417	-0.747	-0.1485
07/18/2025 14:03:52.886	0.968436	-0.244	0.116144	-17.745	-0.035	1.12	-0.4005	-0.738	-0.1485
07/18/2025 14:03:52.906	0.976244	-0.24888	0.122	-7.91	-0.49	1.085	-0.4005	-0.738	-0.1485
07/18/2025 14:03:52.926	0.968436	-0.23424	0.122	3.64	-1.365	1.015	-0.399	-0.744	-0.132
07/18/2025 14:03:52.946	0.964776	-0.194956	0.125904	10.64	-2.8	0.385	-0.4035	-0.75	-0.1305
07/18/2025 14:03:52.966	0.965264	-0.163968	0.146644	9.73	-4.375	-0.315	-0.39	-0.7455	-0.132
07/18/2025 14:03:52.986	0.957944	-0.186416	0.14518	0.385	-5.67	0.21	-0.399	-0.7425	-0.12
07/18/2025 14:03:53.006	0.9516	-0.190808	0.141276	-1.785	-6.65	0.35	-0.393	-0.747	-0.1215
07/18/2025 14:03:53.026	0.950868	-0.193736	0.1586	-2.24	-6.615	0.84	-0.399	-0.753	-0.1245
07/18/2025 14:03:53.046	0.947452	-0.198372	0.152012	-1.47	-6.195	1.225	-0.3945	-0.75	-0.1215
07/18/2025 14:03:53.066	0.939644	-0.193004	0.152012	-1.505	-5.145	1.19	-0.402	-0.75	-0.1215
07/18/2025 14:03:53.086	0.950624	-0.16958	0.156648	0.875	-6.51	0.175	-0.3945	-0.7485	-0.1275
07/18/2025 14:03:53.106	0.958432	-0.212524	0.158112	-1.505	-7.245	-0.945	-0.393	-0.7545	-0.126
07/18/2025 14:03:53.126	0.984784	-0.219356	0.16714	1.225	-8.085	-1.61	-0.39	-0.747	-0.1245
07/18/2025 14:03:53.146	0.987712	-0.225944	0.169092	4.13	-7.875	-1.82	-0.396	-0.75	-0.1245
07/18/2025 14:03:53.166	1.012112	-0.22814	0.171288	8.155	-6.895	-1.925	-0.3795	-0.7575	-0.114
07/18/2025 14:03:53.186	1.016504	-0.1952	0.205204	11.865	-4.55	-2.1	-0.405	-0.765	-0.1215
07/18/2025 14:03:53.206	0.997716	-0.187636	0.204228	7.21	-1.54	-2.03	-0.408	-0.7755	-0.1275
07/18/2025 14:03:53.226	0.987712	-0.160796	0.192028	2.695	1.855	-2.03	-0.408	-0.7695	-0.126
07/18/2025 14:03:53.246	0.971852	-0.16226	0.1891	-5.285	5.635	-1.96	-0.4155	-0.7935	-0.117
07/18/2025 14:03:53.266	0.976732	-0.183488	0.183	-11.165	8.89	-1.995	-0.4275	-0.795	-0.126
07/18/2025 14:03:53.286	0.966484	-0.205204	0.17202	-16.17	12.635	-3.08	-0.4275	-0.795	-0.126
07/18/2025 14:03:53.306	0.968192	-0.200568	0.174948	-16.87	13.615	-3.64	-0.4275	-0.795	-0.126
07/18/2025 14:03:53.326	0.976976	-0.216184	0.162504	-18.445	13.335	-3.325	-0.444	-0.8115	-0.15
07/18/2025 14:03:53.346	0.97356	-0.226188	0.155916	-17.185	13.58	-3.08	-0.4425	-0.81	-0.156
07/18/2025 14:03:53.366	0.978196	-0.219356	0.147132	-11.725	12.775	-3.465	-0.4545	-0.8175	-0.1545
07/18/2025 14:03:53.386	0.976732	-0.210572	0.165188	-7.875	12.67	-3.08	-0.4485	-0.822	-0.174
07/18/2025 14:03:53.406	0.971608	-0.20862	0.1647	-7.735	13.685	-2.66	-0.4515	-0.807	-0.1665
07/18/2025 14:03:53.426	0.958432	-0.191052	0.151524	-9.345	14.28	-1.995	-0.4515	-0.795	-0.165
07/18/2025 14:03:53.446	0.958432	-0.175436	0.162748	-12.215	14.35	-2.59	-0.4515	-0.813	-0.1695
07/18/2025 14:03:53.466	0.956968	-0.16836	0.159576	-17.15	14.49	-2.625	-0.441	-0.807	-0.1725
07/18/2025 14:03:53.486	0.963068	-0.191784	0.152256	-20.79	13.825	-2.905	-0.441	-0.807	-0.1725
07/18/2025 14:03:53.506	0.966972	-0.219112	0.154208	-22.505	13.3	-2.03	-0.441	-0.807	-0.1725
07/18/2025 14:03:53.526	0.966972	-0.233264	0.157624	-21.105	12.6	-1.295	-0.4515	-0.8085	-0.18
07/18/2025 14:03:53.546	0.95526	-0.220332	0.166408	-17.85	11.655	-1.435	-0.45	-0.8145	-0.171
07/18/2025 14:03:53.566	0.948916	-0.22204	0.168116	-16.66	10.395	-1.155	-0.4605	-0.8175	-0.1785
07/18/2025 14:03:53.586	0.948184	-0.209108	0.174216	-13.125	8.89	-0.84	-0.453	-0.81	-0.189
07/18/2025 14:03:53.606	0.945256	-0.201056	0.169336	-12.74	7.595	-0.735	-0.453	-0.798	-0.1935
07/18/2025 14:03:53.626	0.953796	-0.208132	0.16348	-13.895	6.615	-0.945	-0.432	-0.789	-0.198
07/18/2025 14:03:53.646	0.949892	-0.213256	0.172752	-13.16	7.07	-0.7	-0.435	-0.7965	-0.192
07/18/2025 14:03:53.666	0.951112	-0.214232	0.174216	-10.29	7.14	-1.12	-0.4395	-0.7875	-0.198
07/18/2025 14:03:53.686	0.953308	-0.214964	0.186172	-4.305	6.3	-1.54	-0.4275	-0.78	-0.2025
07/18/2025 14:03:53.706	0.963068	-0.236924	0.186904	-2.38	4.34	-1.89	-0.402	-0.774	-0.1965
07/18/2025 14:03:53.726	0.964288	-0.226676	0.203008	2.45	2.835	-2.205	-0.402	-0.774	-0.1965
07/18/2025 14:03:53.746	0.969656	-0.223992	0.196176	5.67	1.925	-2.345	-0.4095	-0.7695	-0.1755
07/18/2025 14:03:53.766	0.970632	-0.214232	0.205936	11.76	1.785	-2.03	-0.405	-0.7725	-0.177
07/18/2025 14:03:53.786	0.955504	-0.18056	0.206668	13.265	2.52	-1.365	-0.411	-0.7605	-0.174
07/18/2025 14:03:53.806	0.94672	-0.173484	0.214476	9.485	3.045	-0.42	-0.4125	-0.762	-0.168
07/18/2025 14:03:53.826	0.945988	-0.180072	0.208376	5.355	3.29	0.14	-0.402	-0.771	-0.1605
07/18/2025 14:03:53.846	0.941108	-0.193736	0.198372	2.38	3.745	0.105	-0.411	-0.771	-0.1605
07/18/2025 14:03:53.866	0.94916	-0.210328	0.185196	3.115	3.57	-0.455	-0.405	-0.7785	-0.165
07/18/2025 14:03:53.886	0.955504	-0.268888	0.196908	16.31	4.13	-2.24	-0.402	-0.78	-0.1695
07/18/2025 14:03:53.906	0.956236	-0.25254	0.206668	33.145	3.64	-3.675	-0.402	-0.78	-0.1695
07/18/2025 14:03:53.926	0.964532	-0.20252	0.211548	45.22	3.92	-4.725	-0.4095	-0.777	-0.162
07/18/2025 14:03:53.946	0.9821	-0.194712	0.223016	48.02	4.235	-5.215	-0.42	-0.783	-0.162
07/18/2025 14:03:53.966	0.971852	-0.063928	0.223992	38.57	5.53	-4.97	-0.402	-0.771	-0.1695
07/18/2025 14:03:53.986	0.980636	-0.100284	0.2318	3.605	5.46	-2.835	-0.4065	-0.774	-0.1695
07/18/2025 14:03:54.006	0.976976	-0.14274	0.222528	-22.61	5.565	-0.245	-0.4065	-0.783	-0.168
07/18/2025 14:03:54.026	0.976	-0.233996	0.211548	-38.78	5.635	2.695	-0.423	-0.7785	-0.168
07/18/2025 14:03:54.046	0.968192	-0.253272	0.211304	-34.65	5.635	4.585	-0.42	-0.783	-0.165
07/18/2025 14:03:54.066	0.950868	-0.253516	0.197884	-21.455	5.635	5.46	-0.4275	-0.7995	-0.177
07/18/2025 14:03:54.086	0.916464	-0.204716	0.202032	-3.255	6.72	6.37	-0.426	-0.8115	-0.18
07/18/2025 14:03:54.106	0.911828	-0.18666	0.207156	-2.415	6.44	6.44	-0.426	-0.8115	-0.18
07/18/2025 14:03:54.126	0.910364	-0.183244	0.201788	-4.865	5.32	6.685	-0.4425	-0.825	-0.1785
07/18/2025 14:03:54.146	0.937448	-0.183732	0.203984	-7.63	4.235	6.86	-0.456	-0.825	-0.1905
07/18/2025 14:03:54.166	0.976488	-0.232776	0.22692	-14.35	4.445	8.015	-0.447	-0.828	-0.2055
07/18/2025 14:03:54.186	1.026264	-0.264008	0.250588	-18.235	6.265	10.85	-0.447	-0.8145	-0.204
07/18/2025 14:03:54.206	1.078724	-0.2989	0.280844	-21.98	11.795	17.745	-0.453	-0.8235	-0.219
07/18/2025 14:03:54.226	1.111664	-0.31964	0.261324	-24.535	18.97	26.95	-0.462	-0.8115	-0.2205
07/18/2025 14:03:54.246	1.12728	-0.266204	0.27816	-26.425	28.875	37.905	-0.456	-0.8055	-0.228
07/18/2025 14:03:54.266	1.139724	-0.328668	0.34038	-34.3	40.6	51.345	-0.462	-0.8025	-0.2265
07/18/2025 14:03:54.286	1.147044	-0.46726	0.3904	-50.05	52.78	64.47	-0.471	-0.7995	-0.243
07/18/2025 14:03:54.306	1.118984	-0.488244	0.479948	-46.83	72.73	79.59	-0.471	-0.7995	-0.243
07/18/2025 14:03:54.326	1.064572	-0.467504	0.524844	-31.115	85.26	83.79	-0.474	-0.7695	-0.261
07/18/2025 14:03:54.346	0.999424	-0.389424	0.559736	-6.44	96.215	82.11	-0.4695	-0.747	-0.264
07/18/2025 14:03:54.366	0.916464	-0.341844	0.630496	6.44	105.665	77.315	-0.465	-0.75	-0.282
07/18/2025 14:03:54.386	0.810324	-0.302804	0.685396	18.48	114.24	68.355	-0.483	-0.732	-0.2895
07/18/2025 14:03:54.406	0.770308	-0.301096	0.799832	27.615	119	58.415	-0.48	-0.72	-0.3165
07/18/2025 14:03:54.426	0.712968	-0.257908	0.849608	42.595	126.35	45.71	-0.477	-0.6945	-0.33
07/18/2025 14:03:54.446	0.67344	-0.227896	0.866444	52.325	132.16	33.39	-0.471	-0.699	-0.351
07/18/2025 14:03:54.466	0.655628	-0.182756	0.885964	55.65	137.06	18.48	-0.4575	-0.6735	-0.363
07/18/2025 14:03:54.486	0.618296	-0.133224	0.864248	49.245	142.52	2.905	-0.4575	-0.6735	-0.3855
07/18/2025 14:03:54.506	0.648796	-0.228628	0.882304	28.595	147.735	-15.19	-0.4575	-0.6735	-0.3855
07/18/2025 14:03:54.526	0.678076	-0.26352	0.911096	26.775	152.81	-23.87	-0.429	-0.6555	-0.4455
07/18/2025 14:03:54.546	0.663924	-0.337208	0.868396	23.52	157.465	-27.965	-0.42	-0.66	-0.459
07/18/2025 14:03:54.566	0.61854	-0.2989	0.730048	20.23	157.85	-28.91	-0.4095	-0.6615	-0.4725
07/18/2025 14:03:54.586	0.569984	-0.312076	0.686616	13.895	154.98	-29.4	-0.4095	-0.6615	-0.4725
07/18/2025 14:03:54.606	0.543144	-0.351116	0.698572	10.43	148.855	-28.28	-0.408	-0.6645	-0.48
07/18/2025 14:03:54.626	0.522892	-0.353556	0.691252	13.405	141.61	-27.195	-0.3975	-0.6675	-0.5085
07/18/2025 14:03:54.646	0.496296	-0.352092	0.652212	15.575	133.455	-27.09	-0.3765	-0.681	-0.519
07/18/2025 14:03:54.666	0.460184	-0.317688	0.627324	22.4	125.23	-28.525	-0.369	-0.675	-0.5445
07/18/2025 14:03:54.686	0.445788	-0.286212	0.648796	24.57	116.27	-30.345	-0.357	-0.684	-0.5595
07/18/2025 14:03:54.706	0.400892	-0.325008	0.594384	18.2	103.18	-32.585	-0.3465	-0.6915	-0.5685
07/18/2025 14:03:54.726	0.385032	-0.221552	0.577548	19.775	92.715	-35.28	-0.3195	-0.705	-0.5985
07/18/2025 14:03:54.746	0.38918	-0.275232	0.579256	9.45	82.075	-36.89	-0.309	-0.699	-0.6075
07/18/2025 14:03:54.766	0.397232	-0.410408	0.671	4.935	71.995	-36.19	-0.3015	-0.7035	-0.615
07/18/2025 14:03:54.786	0.407236	-0.338672	0.712236	5.145	61.565	-31.99	-0.291	-0.6975	-0.627
07/18/2025 14:03:54.806	0.382348	-0.410164	0.689544	1.575	53.445	-26.46	-0.2925	-0.705	-0.621
07/18/2025 14:03:54.826	0.363072	-0.391376	0.714188	2.485	44.345	-17.955	-0.276	-0.7125	-0.6405
07/18/2025 14:03:54.846	0.325496	-0.363072	0.704672	6.475	36.855	-11.655	-0.276	-0.7155	-0.6375
07/18/2025 14:03:54.866	0.267424	-0.352824	0.732488	8.89	29.505	-7.98	-0.27	-0.7185	-0.6435
07/18/2025 14:03:54.886	0.245464	-0.344772	0.802028	15.61	21.77	-5.46	-0.2625	-0.7335	-0.645
07/18/2025 14:03:54.906	0.173728	-0.276452	0.811788	19.845	13.09	-4.34	-0.2625	-0.7335	-0.645
07/18/2025 14:03:54.926	0.12444	-0.28792	0.816912	18.305	6.755	-3.64	-0.2625	-0.7335	-0.645
07/18/2025 14:03:54.946	0.12322	-0.245708	0.844484	15.155	-1.715	-4.655	-0.2475	-0.7515	-0.6555
07/18/2025 14:03:54.966	0.12688	-0.239364	0.921344	6.615	-6.23	-4.165	-0.2535	-0.747	-0.666
07/18/2025 14:03:54.986	0.129808	-0.23058	0.949648	-0.42	-8.61	-3.92	-0.2535	-0.7575	-0.6615
07/18/2025 14:03:55.006	0.109068	-0.215696	0.925736	-9.485	-9.17	-4.095	-0.2505	-0.7575	-0.666
07/18/2025 14:03:55.026	0.119804	-0.195444	0.9455	-13.055	-9.065	-6.055	-0.246	-0.756	-0.6615
07/18/2025 14:03:55.046	0.12078	-0.315004	0.953308	-13.16	-6.055	-6.755	-0.2505	-0.7545	-0.6645
07/18/2025 14:03:55.066	0.144692	-0.283528	1.015772	-1.05	-4.27	-7	-0.255	-0.747	-0.666
07/18/2025 14:03:55.086	0.157868	-0.252052	1.100684	-0.07	-0.14	-7.56	-0.2565	-0.7365	-0.6675
07/18/2025 14:03:55.106	0.146888	-0.297436	1.076284	-3.5	7.63	-5.215	-0.2565	-0.7365	-0.6675
07/18/2025 14:03:55.126	0.130052	-0.247904	1.082384	-0.595	12.81	-4.095	-0.2565	-0.7365	-0.6675
07/18/2025 14:03:55.146	0.127856	-0.275232	1.03578	-2.31	15.925	-2.94	-0.2565	-0.744	-0.6675
07/18/2025 14:03:55.166	0.105652	-0.292312	1.00406	3.675	18.06	-1.365	-0.2535	-0.7455	-0.6795
07/18/2025 14:03:55.186	0.097112	-0.267912	0.940132	7.805	17.115	0.175	-0.258	-0.7395	-0.672
07/18/2025 14:03:55.206	0.098332	-0.236192	0.925248	11.515	15.12	2.905	-0.2535	-0.747	-0.675
07/18/2025 14:03:55.226	0.09516	-0.238876	0.945744	16.835	12.25	4.235	-0.2595	-0.7515	-0.681
07/18/2025 14:03:55.246	0.131516	-0.254004	1.00772	20.3	8.715	6.125	-0.2475	-0.7485	-0.6675
07/18/2025 14:03:55.266	0.148596	-0.254736	1.017724	24.395	8.19	7.525	-0.2445	-0.738	-0.666
07/18/2025 14:03:55.286	0.146644	-0.224236	0.984052	26.495	8.4	8.54	-0.2565	-0.7395	-0.6735
07/18/2025 14:03:55.306	0.151768	-0.23546	0.975512	26.495	9.415	9.45	-0.246	-0.7365	-0.6765
07/18/2025 14:03:55.326	0.170068	-0.165432	1.009672	28.98	10.955	9.31	-0.252	-0.7395	-0.669
07/18/2025 14:03:55.346	0.1464	-0.158844	1.00284	23.8	14.56	8.96	-0.258	-0.726	-0.6615
07/18/2025 14:03:55.366	0.131028	-0.130784	1.002108	16.73	15.295	7.525	-0.258	-0.729	-0.6675
07/18/2025 14:03:55.386	0.117608	-0.121756	0.976244	8.47	15.085	6.475	-0.261	-0.738	-0.657
07/18/2025 14:03:55.406	0.105408	-0.117608	0.977708	1.96	13.79	4.97	-0.2565	-0.735	-0.6525
07/18/2025 14:03:55.426	0.086376	-0.105652	0.956236	-2.87	12.845	3.045	-0.2565	-0.735	-0.6525
07/18/2025 14:03:55.446	0.083448	-0.146888	0.935984	-3.71	11.13	1.015	-0.255	-0.735	-0.654
07/18/2025 14:03:55.466	0.072712	-0.168604	0.926224	3.5	8.995	-1.19	-0.249	-0.7395	-0.6645
07/18/2025 14:03:55.486	0.089792	-0.106628	0.937692	13.44	6.125	-3.01	-0.261	-0.7395	-0.6555
07/18/2025 14:03:55.506	0.073444	-0.03538	0.909144	8.225	1.435	-7.14	-0.2415	-0.7425	-0.6615
07/18/2025 14:03:55.526	0.137128	-0.186172	0.946232	-1.855	-2.205	-9.1	-0.2385	-0.747	-0.6615
07/18/2025 14:03:55.546	0.156892	-0.202764	0.974048	-0.28	-1.925	-9.66	-0.24	-0.747	-0.6615
07/18/2025 14:03:55.566	0.16226	-0.229604	1.032364	4.83	1.715	-9.275	-0.2505	-0.7515	-0.66
07/18/2025 14:03:55.586	0.159088	-0.222772	1.039684	7.595	5.6	-7.21	-0.2385	-0.756	-0.657
07/18/2025 14:03:55.606	0.138836	-0.215696	1.05042	2.065	10.43	-4.55	-0.237	-0.7335	-0.663
07/18/2025 14:03:55.626	0.115412	-0.233752	1.003328	-3.64	12.915	-3.15	-0.231	-0.7395	-0.666
07/18/2025 14:03:55.646	0.08906	-0.25742	0.993324	-3.85	14.595	-0.945	-0.237	-0.747	-0.6645
07/18/2025 14:03:55.666	0.071492	-0.23058	0.970876	1.4	15.505	1.155	-0.237	-0.7455	-0.666
07/18/2025 14:03:55.686	0.055144	-0.198372	0.907436	1.19	13.825	1.995	-0.234	-0.759	-0.672
07/18/2025 14:03:55.706	0.043188	-0.244976	0.900604	3.08	11.095	3.85	-0.2415	-0.762	-0.681
07/18/2025 14:03:55.726	0.031232	-0.22326	0.89914	9.94	9.17	4.235	-0.2415	-0.762	-0.681
07/18/2025 14:03:55.746	0.043432	-0.138104	0.925004	14.525	6.37	4.865	-0.2265	-0.7695	-0.672
07/18/2025 14:03:55.766	0.022448	-0.142984	0.878156	13.44	5.32	4.235	-0.225	-0.7725	-0.6675
07/18/2025 14:03:55.786	0.0427	-0.114436	0.921588	13.615	2.345	3.255	-0.216	-0.7815	-0.6825
07/18/2025 14:03:55.806	0.024644	-0.092476	0.885232	10.29	2.59	1.4	-0.2115	-0.7845	-0.675
07/18/2025 14:03:55.826	0.051972	-0.132004	0.959164	8.61	1.19	0.035	-0.216	-0.783	-0.678
07/18/2025 14:03:55.846	0.069052	-0.167872	0.970632	4.725	-0.14	-0.84	-0.2115	-0.7845	-0.6765
07/18/2025 14:03:55.866	0.091256	-0.15982	1.006988	0.455	-0.245	0.175	-0.2205	-0.786	-0.6885
07/18/2025 14:03:55.886	0.078324	-0.142008	1.010648	-1.26	0.805	1.015	-0.21	-0.783	-0.693
07/18/2025 14:03:55.906	0.087352	-0.180316	1.047736	1.19	2.415	4.13	-0.2025	-0.789	-0.6915
07/18/2025 14:03:55.926	0.061	-0.195444	1.022848	8.155	3.955	5.915	-0.2025	-0.789	-0.6915
07/18/2025 14:03:55.946	0.059048	-0.117364	1.016992	13.23	3.045	8.33	-0.225	-0.7725	-0.696
07/18/2025 14:03:55.966	0.044164	-0.09394	1.009916	8.365	3.92	9.45	-0.2205	-0.765	-0.6975
07/18/2025 14:03:55.986	0.047824	-0.11834	1.039684	8.575	3.85	9.555	-0.222	-0.7695	-0.6885
07/18/2025 14:03:56.006	0.034648	-0.06832	1.035536	13.16	5.075	8.295	-0.2175	-0.774	-0.6855
07/18/2025 14:03:56.026	0.054656	-0.091988	1.045052	14.63	6.475	5.565	-0.2265	-0.783	-0.687
07/18/2025 14:03:56.046	0.038796	-0.081984	1.040904	15.4	8.61	3.745	-0.2175	-0.774	-0.69
07/18/2025 14:03:56.066	0.038552	-0.07515199	1.021872	10.255	9.1	2.24	-0.216	-0.7785	-0.684
07/18/2025 14:03:56.086	0.038308	-0.065392	1.015284	6.02	8.785	1.365	-0.2175	-0.7875	-0.693
07/18/2025 14:03:56.106	0.022936	-0.111508	0.998448	4.83	8.505	0.14	-0.21	-0.771	-0.7005
07/18/2025 14:03:56.126	0.030012	-0.05856	0.9943	12.635	7.315	-1.715	-0.21	-0.771	-0.7005
07/18/2025 14:03:56.146	0.03416	-0.060024	0.975512	13.02	5.845	-3.535	-0.219	-0.768	-0.6975
07/18/2025 14:03:56.166	0.04148	-0.083936	0.976	10.57	4.795	-4.445	-0.2175	-0.7635	-0.69
07/18/2025 14:03:56.186	0.05856	-0.069052	0.982832	11.865	3.115	-5.355	-0.2325	-0.7695	-0.699
07/18/2025 14:03:56.206	0.057584	-0.107116	0.948428	9.31	2.205	-6.265	-0.231	-0.7635	-0.684
07/18/2025 14:03:56.226	0.064416	-0.071736	0.939888	10.78	0.665	-6.615	-0.2325	-0.768	-0.675
07/18/2025 14:03:56.246	0.068808	-0.08174	0.911096	7.14	-0.77	-7.07	-0.2325	-0.768	-0.675
07/18/2025 14:03:56.266	0.07515199	-0.144448	0.952332	3.22	-1.575	-5.32	-0.2295	-0.771	-0.6825
07/18/2025 14:03:56.286	0.070516	-0.145912	0.963068	6.335	-1.855	-3.57	-0.231	-0.765	-0.681
07/18/2025 14:03:56.306	0.051972	-0.118096	0.915976	8.47	-2.835	-2.03	-0.2385	-0.7605	-0.6765
07/18/2025 14:03:56.326	0.047092	-0.141276	0.919148	2.275	-5.95	-0.315	-0.2385	-0.7605	-0.6765
07/18/2025 14:03:56.346	0.035868	-0.130784	0.905484	0.525	-8.085	0.105	-0.2295	-0.7815	-0.6705
07/18/2025 14:03:56.366	0.033672	-0.099064	0.88084	-1.61	-10.395	0.245	-0.2265	-0.783	-0.675
07/18/2025 14:03:56.386	0.019276	-0.07686	0.879376	-4.69	-11.55	0.7	-0.225	-0.7845	-0.666
07/18/2025 14:03:56.406	0.032696	-0.049044	0.90524	-5.18	-14.35	-0.56	-0.225	-0.7755	-0.669
07/18/2025 14:03:56.426	0.036844	-0.049288	0.938912	-11.83	-15.225	-2.065	-0.2325	-0.7725	-0.672
07/18/2025 14:03:56.446	0.052216	-0.086376	0.969168	-19.075	-15.715	-3.92	-0.228	-0.774	-0.6645
07/18/2025 14:03:56.466	0.066124	-0.059048	0.99308	-25.375	-14.035	-5.635	-0.234	-0.774	-0.6765
07/18/2025 14:03:56.486	0.055876	-0.08662	1.007964	-30.31	-11.13	-6.37	-0.2355	-0.7695	-0.666
07/18/2025 14:03:56.506	0.07198	-0.176168	1.025776	-27.72	-8.085	-7.175	-0.231	-0.7755	-0.66
07/18/2025 14:03:56.526	0.0732	-0.145424	1.059448	-17.675	-3.64	-6.825	-0.231	-0.7755	-0.66
07/18/2025 14:03:56.546	0.081984	-0.174948	1.076284	-21.245	-0.77	-5.565	-0.2295	-0.783	-0.681
07/18/2025 14:03:56.566	0.08174	-0.166896	1.036268	-23.275	0.945	-4.515	-0.231	-0.777	-0.672
07/18/2025 14:03:56.586	0.071004	-0.163724	1.005524	-22.015	2.275	-3.43	-0.228	-0.783	-0.669
07/18/2025 14:03:56.606	0.073932	-0.167628	0.976732	-26.25	2.24	-2.45	-0.2175	-0.7875	-0.672
07/18/2025 14:03:56.626	0.069296	-0.188124	0.959896	-27.685	2.03	-1.89	-0.219	-0.783	-0.675
07/18/2025 14:03:56.646	0.057828	-0.166408	0.945988	-22.925	0.56	-2.065	-0.2235	-0.7725	-0.678
07/18/2025 14:03:56.666	0.063196	-0.146644	0.891576	-22.015	-2.065	-2.555	-0.216	-0.774	-0.6825
07/18/2025 14:03:56.686	0.078324	-0.17446	0.905972	-20.615	-4.27	-3.465	-0.222	-0.762	-0.681
07/18/2025 14:03:56.706	0.090524	-0.174948	0.92476	-18.55	-6.16	-4.655	-0.2325	-0.7665	-0.6885
07/18/2025 14:03:56.726	0.096868	-0.186172	0.965264	-13.79	-7.21	-7.385	-0.2325	-0.7665	-0.6885
07/18/2025 14:03:56.746	0.098332	-0.188612	0.978196	-16.8	-8.435	-8.505	-0.2205	-0.762	-0.6885
07/18/2025 14:03:56.766	0.100772	-0.227164	1.001376	-21.735	-9.135	-8.33	-0.222	-0.7485	-0.6945
07/18/2025 14:03:56.786	0.101748	-0.231068	1.008208	-18.305	-9.31	-8.085	-0.228	-0.75	-0.6885
07/18/2025 14:03:56.806	0.087108	-0.2318	1.0187	-12.53	-9.03	-6.86	-0.24	-0.744	-0.693
07/18/2025 14:03:56.826	0.082228	-0.246684	1.01748	-9.38	-9.52	-5.285	-0.2295	-0.7545	-0.684
07/18/2025 14:03:56.846	0.091744	-0.220576	1.051396	-5.845	-9.59	-2.94	-0.2235	-0.7515	-0.69
07/18/2025 14:03:56.866	0.080764	-0.23302	1.040904	-4.655	-7.875	-2.17	-0.234	-0.7395	-0.687
07/18/2025 14:03:56.886	0.081984	-0.214232	1.03334	-2.45	-7.49	-1.89	-0.2385	-0.744	-0.6855
07/18/2025 14:03:56.906	0.09028	-0.210816	1.060424	1.785	-4.97	-1.68	-0.2355	-0.75	-0.6855
07/18/2025 14:03:56.926	0.078812	-0.185684	1.025288	3.57	-1.365	-1.785	-0.234	-0.747	-0.696
07/18/2025 14:03:56.946	0.072956	-0.19764	1.03456	0.56	0.385	-1.54	-0.234	-0.7335	-0.6885
07/18/2025 14:03:56.966	0.08418	-0.22814	1.028704	-3.675	1.435	-1.925	-0.2295	-0.744	-0.687
07/18/2025 14:03:56.986	0.086376	-0.254492	1.014308	-2.38	2.975	-1.96	-0.2355	-0.7425	-0.687
07/18/2025 14:03:57.006	0.085888	-0.253028	0.981368	2.31	3.99	-1.365	-0.237	-0.726	-0.696
07/18/2025 14:03:57.026	0.087352	-0.233264	0.974048	5.6	4.69	-1.4	-0.2535	-0.717	-0.684
07/18/2025 14:03:57.046	0.096624	-0.212524	0.964288	7.98	4.585	-0.42	-0.246	-0.735	-0.6855
07/18/2025 14:03:57.066	0.097844	-0.236192	0.928908	1.82	3.85	-0.21	-0.246	-0.735	-0.6855
07/18/2025 14:03:57.086	0.112972	-0.225944	0.942816	-0.105	3.115	0.385	-0.258	-0.7275	-0.6705
07/18/2025 14:03:57.106	0.101992	-0.217648	0.924516	2.695	2.835	0.805	-0.2445	-0.726	-0.675
07/18/2025 14:03:57.126	0.123952	-0.216184	0.952576	5.67	1.05	1.12	-0.2475	-0.7305	-0.6825
07/18/2025 14:03:57.146	0.113216	-0.237412	0.95648	3.64	1.225	1.54	-0.246	-0.726	-0.669
07/18/2025 14:03:57.166	0.114924	-0.214964	0.970388	1.785	0.875	1.645	-0.24	-0.7365	-0.672
07/18/2025 14:03:57.186	0.089792	-0.200324	0.962092	-0.77	1.47	1.33	-0.237	-0.7455	-0.669
07/18/2025 14:03:57.206	0.08662	-0.182268	0.969412	-4.13	0.595	0.7	-0.2355	-0.738	-0.669
07/18/2025 14:03:57.226	0.08418	-0.18788	0.957456	-10.675	-0.945	0.28	-0.2325	-0.7395	-0.6735
07/18/2025 14:03:57.246	0.08418	-0.219112	0.964288	-14	-1.995	0.14	-0.2355	-0.744	-0.666
07/18/2025 14:03:57.266	0.08052	-0.22326	0.96624	-10.29	-2.695	-0.525	-0.2415	-0.7425	-0.672
07/18/2025 14:03:57.286	0.102724	-0.242048	0.979172	-0.315	-2.555	-1.54	-0.2355	-0.735	-0.6675
07/18/2025 14:03:57.306	0.088328	-0.219844	0.979172	2.38	-1.925	-1.575	-0.2385	-0.7335	-0.663
07/18/2025 14:03:57.326	0.101504	-0.24522	0.984784	-2.275	-1.435	-0.875	-0.2415	-0.7335	-0.666
07/18/2025 14:03:57.346	0.099552	-0.250344	0.966728	-1.645	-0.385	-1.155	-0.2415	-0.7335	-0.666
07/18/2025 14:03:57.366	0.113948	-0.254248	0.976976	3.465	-0.665	-1.96	-0.2415	-0.741	-0.666
07/18/2025 14:03:57.386	0.107116	-0.244488	0.968924	4.445	0.84	-1.05	-0.234	-0.735	-0.663
07/18/2025 14:03:57.406	0.10492	-0.248392	0.974048	3.36	2.1	-0.035	-0.2295	-0.735	-0.672
07/18/2025 14:03:57.426	0.093208	-0.23302	0.975268	5.18	3.535	0.56	-0.237	-0.7515	-0.672
07/18/2025 14:03:57.446	0.09076799	-0.246196	0.944036	5.25	3.99	0.105	-0.225	-0.759	-0.6795
07/18/2025 14:03:57.466	0.09028	-0.224968	0.966728	7.56	3.22	0.035	-0.2235	-0.762	-0.675
07/18/2025 14:03:57.486	0.072468	-0.214232	0.95526	5.04	3.325	-0.455	-0.219	-0.753	-0.684
07/18/2025 14:03:57.506	0.0671	-0.180072	0.91378	1.89	0.84	-0.7	-0.2235	-0.762	-0.687
07/18/2025 14:03:57.526	0.097356	-0.24156	0.949648	4.2	-0.77	0.315	-0.2235	-0.762	-0.687
07/18/2025 14:03:57.546	0.091256	-0.240096	0.947452	9.975	-0.7	0.735	-0.2235	-0.762	-0.687
07/18/2025 14:03:57.566	0.090524	-0.205692	0.972584	11.515	-1.085	1.645	-0.2175	-0.759	-0.6855
07/18/2025 14:03:57.586	0.099552	-0.25498	0.960384	4.76	-1.785	1.925	-0.2265	-0.753	-0.6945
07/18/2025 14:03:57.606	0.100528	-0.233752	0.974292	5.915	-1.12	2.485	-0.228	-0.7455	-0.693
07/18/2025 14:03:57.626	0.088328	-0.219112	0.96258	3.85	-0.245	3.115	-0.231	-0.7575	-0.687
07/18/2025 14:03:57.646	0.083936	-0.22204	0.967948	2.03	-0.385	3.57	-0.222	-0.756	-0.69
07/18/2025 14:03:57.666	0.07564	-0.210328	0.963068	1.225	-0.91	3.57	-0.228	-0.7515	-0.6885
07/18/2025 14:03:57.686	0.075884	-0.215208	0.952088	1.68	-2.135	3.64	-0.2295	-0.759	-0.69
07/18/2025 14:03:57.706	0.081496	-0.18056	0.942084	4.97	-3.675	3.955	-0.2325	-0.7485	-0.687
07/18/2025 14:03:57.726	0.091256	-0.208864	0.975268	5.67	-5.215	5.6	-0.228	-0.762	-0.6885
07/18/2025 14:03:57.746	0.111996	-0.23912	0.969168	7.07	-6.685	6.265	-0.2175	-0.7575	-0.6975
07/18/2025 14:03:57.766	0.115168	-0.18788	1.009184	12.005	-6.72	7.595	-0.2295	-0.7545	-0.696
07/18/2025 14:03:57.786	0.103212	-0.182756	0.999912	7.525	-5.285	7.84	-0.231	-0.753	-0.6855
07/18/2025 14:03:57.806	0.127124	-0.190564	1.012112	4.41	-5.215	6.825	-0.2385	-0.75	-0.681
07/18/2025 14:03:57.826	0.115412	-0.176656	1.01626	4.34	-2.135	6.37	-0.243	-0.7515	-0.69
07/18/2025 14:03:57.846	0.1098	-0.171532	1.014308	2.765	0.035	5.845	-0.2475	-0.735	-0.6825
07/18/2025 14:03:57.866	0.108092	-0.166652	1.002596	1.155	1.82	4.795	-0.2415	-0.738	-0.675
07/18/2025 14:03:57.886	0.107604	-0.163236	1.004792	-0.49	2.835	3.5	-0.2415	-0.738	-0.675
07/18/2025 14:03:57.906	0.105652	-0.141032	0.98698	-1.575	3.955	2.17	-0.249	-0.732	-0.681
07/18/2025 14:03:57.926	0.116388	-0.1891	0.99796	-3.85	3.885	1.19	-0.252	-0.7305	-0.678
07/18/2025 14:03:57.946	0.11956	-0.219112	0.99308	-5.145	3.92	1.47	-0.252	-0.7305	-0.678
07/18/2025 14:03:57.966	0.114436	-0.216916	0.989176	-2.485	4.095	2.695	-0.2445	-0.729	-0.669
07/18/2025 14:03:57.986	0.10858	-0.21838	0.976732	4.41	4.76	2.66	-0.2445	-0.7275	-0.675
07/18/2025 14:03:58.006	0.103456	-0.200568	0.970144	7.175	2.975	3.29	-0.2445	-0.7335	-0.6735
07/18/2025 14:03:58.026	0.103212	-0.188368	0.963312	5.985	0.945	3.395	-0.2415	-0.7455	-0.663
07/18/2025 14:03:58.046	0.103456	-0.192272	0.958188	6.65	-0.21	3.71	-0.234	-0.744	-0.663
07/18/2025 14:03:58.066	0.104676	-0.18544	0.951356	7.595	-1.295	3.255	-0.249	-0.7455	-0.6615
07/18/2025 14:03:58.086	0.100284	-0.182024	0.948916	8.015	-0.91	2.94	-0.246	-0.7395	-0.681
07/18/2025 14:03:58.106	0.10248	-0.185684	0.953552	9.905	-0.735	1.995	-0.24	-0.7485	-0.6735
07/18/2025 14:03:58.126	0.097112	-0.177388	0.945744	8.575	-1.435	0.98	-0.243	-0.744	-0.6705
07/18/2025 14:03:58.146	0.090524	-0.177632	0.948184	3.535	-2.59	1.26	-0.243	-0.744	-0.6705
07/18/2025 14:03:58.166	0.100284	-0.18666	0.947696	1.54	-4.62	1.295	-0.243	-0.7455	-0.675
07/18/2025 14:03:58.186	0.102968	-0.218624	0.958432	3.36	-4.83	2.03	-0.234	-0.747	-0.6675
07/18/2025 14:03:58.206	0.105408	-0.19398	0.962092	6.755	-5.635	2.38	-0.2505	-0.756	-0.6615
07/18/2025 14:03:58.226	0.097356	-0.196664	0.958188	5.67	-5.285	2.975	-0.2385	-0.753	-0.6615
07/18/2025 14:03:58.246	0.096136	-0.17934	0.96136	4.795	-5.285	3.745	-0.2445	-0.7575	-0.663
07/18/2025 14:03:58.266	0.107604	-0.182512	0.955016	2.31	-6.51	4.41	-0.246	-0.765	-0.6765
07/18/2025 14:03:58.286	0.100528	-0.188368	0.986736	3.885	-6.23	4.83	-0.24	-0.7665	-0.669
07/18/2025 14:03:58.306	0.101748	-0.16592	0.989664	4.795	-5.495	4.795	-0.2325	-0.7695	-0.666
07/18/2025 14:03:58.326	0.104432	-0.165188	0.985272	3.745	-4.34	4.2	-0.231	-0.7725	-0.672
07/18/2025 14:03:58.346	0.09857599	-0.164212	0.977464	3.115	-3.675	3.36	-0.231	-0.7725	-0.672
07/18/2025 14:03:58.366	0.109312	-0.167384	0.992592	3.465	-3.955	2.87	-0.234	-0.7695	-0.6705
07/18/2025 14:03:58.386	0.107116	-0.165676	0.98454	2.87	-3.92	2.975	-0.2325	-0.777	-0.6705
07/18/2025 14:03:58.406	0.111508	-0.165676	0.97112	0.56	-4.375	3.5	-0.234	-0.7785	-0.678
07/18/2025 14:03:58.426	0.111996	-0.156648	0.970388	-0.315	-4.97	4.515	-0.2355	-0.7605	-0.6765
07/18/2025 14:03:58.446	0.11956	-0.20374	0.973316	-1.085	-5.285	5.635	-0.234	-0.7635	-0.6855
07/18/2025 14:03:58.466	0.130784	-0.185928	0.99674	4.2	-5.18	6.685	-0.249	-0.7575	-0.681
07/18/2025 14:03:58.486	0.119316	-0.167384	0.996984	6.86	-4.375	7.735	-0.2535	-0.762	-0.6795
07/18/2025 14:03:58.506	0.118096	-0.168848	1.001864	6.265	-4.515	7.7	-0.2475	-0.768	-0.675
07/18/2025 14:03:58.526	0.122976	-0.155428	0.996984	5.74	-4.55	7.56	-0.249	-0.762	-0.6795
07/18/2025 14:03:58.546	0.121024	-0.146888	1.008452	4.655	-2.8	6.86	-0.249	-0.762	-0.6795
07/18/2025 14:03:58.566	0.127856	-0.148596	1.002352	2.94	-1.645	6.44	-0.2535	-0.7695	-0.687
07/18/2025 14:03:58.586	0.1159	-0.15372	0.986248	0.735	-0.35	5.53	-0.2565	-0.7635	-0.6855
07/18/2025 14:03:58.606	0.116632	-0.162016	0.976976	-0.42	-0.455	5.215	-0.2565	-0.768	-0.6795
07/18/2025 14:03:58.626	0.124196	-0.169336	0.960384	0.63	-0.49	5.215	-0.258	-0.7575	-0.687
07/18/2025 14:03:58.646	0.141276	-0.172508	0.94306	1.26	-2.17	5.25	-0.2505	-0.7485	-0.678
07/18/2025 14:03:58.666	0.203496	-0.195688	0.911096	0.42	-3.22	4.515	-0.2655	-0.7515	-0.678
07/18/2025 14:03:58.686	0.231312	-0.214964	0.840824	-3.29	-3.185	3.64	-0.2595	-0.759	-0.672
07/18/2025 14:03:58.706	0.242292	-0.208376	0.770308	-9.555	-4.83	2.45	-0.2595	-0.759	-0.672
07/18/2025 14:03:58.726	0.24522	-0.246928	0.69174	-19.075	-10.5	3.255	-0.264	-0.741	-0.6795
07/18/2025 14:03:58.746	0.243512	-0.30378	0.61122	-25.06	-27.685	7.28	-0.2535	-0.744	-0.672
07/18/2025 14:03:58.766	0.271816	-0.304512	0.607316	-23.52	-43.68	11.62	-0.2715	-0.729	-0.6645
07/18/2025 14:03:58.786	0.256688	-0.31232	0.5734	-25.06	-58.975	16.31	-0.2745	-0.72	-0.6615
07/18/2025 14:03:58.806	0.282552	-0.294508	0.555832	-23.73	-77.07	19.495	-0.2805	-0.726	-0.6495
07/18/2025 14:03:58.826	0.290848	-0.31354	0.533384	-21.42	-91	21.175	-0.294	-0.711	-0.645
07/18/2025 14:03:58.846	0.2928	-0.296704	0.513864	-14.63	-105.595	20.37	-0.3075	-0.7245	-0.6345
07/18/2025 14:03:58.866	0.32452	-0.29036	0.53436	-13.335	-120.085	20.195	-0.3195	-0.7215	-0.6165
07/18/2025 14:03:58.886	0.344528	-0.260348	0.55144	-15.47	-132.545	20.055	-0.3135	-0.72	-0.6045
07/18/2025 14:03:58.906	0.36112	-0.228384	0.564616	-20.65	-144.55	18.585	-0.333	-0.7125	-0.5895
07/18/2025 14:03:58.926	0.38186	-0.222528	0.594384	-21.945	-155.435	16.135	-0.339	-0.714	-0.576
07/18/2025 14:03:58.946	0.443104	-0.19032	0.645624	-15.225	-167.965	7.245	-0.339	-0.714	-0.576
07/18/2025 14:03:58.966	0.493124	-0.089304	0.645868	-8.365	-173.565	-2.275	-0.339	-0.714	-0.576
07/18/2025 14:03:58.986	0.56608	-0.027084	0.671244	-8.96	-177.345	-14.77	-0.381	-0.714	-0.501
07/18/2025 14:03:59.006	0.676856	-0.04026	0.709308	-19.495	-180.145	-27.16	-0.402	-0.7125	-0.48
07/18/2025 14:03:59.026	0.786412	-0.11468	0.749324	-33.005	-179.48	-37.905	-0.402	-0.7095	-0.456
07/18/2025 14:03:59.046	0.894992	-0.155428	0.732	-44.87	-178.57	-47.46	-0.4275	-0.726	-0.435
07/18/2025 14:03:59.066	1.008208	-0.212768	0.733708	-49.84	-173.495	-55.825	-0.4185	-0.756	-0.4035
07/18/2025 14:03:59.086	1.086776	-0.192028	0.713456	-44.8	-167.09	-61.215	-0.4305	-0.759	-0.3705
07/18/2025 14:03:59.106	1.154608	-0.23058	0.732976	-43.96	-159.565	-62.72	-0.4395	-0.7665	-0.357
07/18/2025 14:03:59.126	1.228052	-0.291336	0.706624	-40.565	-152.46	-61.285	-0.4455	-0.786	-0.3375
07/18/2025 14:03:59.146	1.254892	-0.319396	0.595848	-29.68	-136.92	-53.27	-0.4455	-0.786	-0.3375
07/18/2025 14:03:59.166	1.279048	-0.311344	0.61732	-18.76	-124.425	-46.515	-0.4455	-0.786	-0.3375
07/18/2025 14:03:59.186	1.27734	-0.285236	0.644648	-9.1	-108.99	-37.415	-0.4515	-0.819	-0.297
07/18/2025 14:03:59.206	1.24806	-0.244488	0.6283	-6.51	-92.645	-27.055	-0.453	-0.834	-0.2865
07/18/2025 14:03:59.226	1.216096	-0.22082	0.602192	-12.075	-74.48	-17.78	-0.4395	-0.8415	-0.2775
07/18/2025 14:03:59.246	1.174372	-0.197152	0.572668	-19.11	-56.455	-11.095	-0.4515	-0.8445	-0.2625
07/18/2025 14:03:59.266	1.130696	-0.20374	0.5551	-29.085	-39.76	-5.635	-0.4545	-0.837	-0.258
07/18/2025 14:03:59.286	1.077748	-0.195932	0.499712	-40.39	-25.27	-2.59	-0.447	-0.846	-0.252
07/18/2025 14:03:59.306	1.047248	-0.221796	0.460184	-54.005	-13.615	-0.245	-0.45	-0.843	-0.2595
07/18/2025 14:03:59.326	1.022116	-0.230824	0.439932	-57.12	-2.555	0.805	-0.4515	-0.8415	-0.255
07/18/2025 14:03:59.346	0.954772	-0.28792	0.386252	-48.72	10.08	2.17	-0.444	-0.8475	-0.252
07/18/2025 14:03:59.366	0.925492	-0.287676	0.363072	-33.005	14.63	2.485	-0.447	-0.837	-0.2625
07/18/2025 14:03:59.386	0.88816	-0.271572	0.322324	-15.785	17.29	2.905	-0.4545	-0.8415	-0.264
07/18/2025 14:03:59.406	0.863272	-0.236924	0.298656	-1.89	15.995	3.01	-0.4485	-0.846	-0.2655
07/18/2025 14:03:59.426	0.848144	-0.213012	0.290604	3.675	12.46	3.465	-0.4455	-0.846	-0.273
07/18/2025 14:03:59.446	0.847412	-0.223992	0.283528	4.375	8.435	3.745	-0.453	-0.8385	-0.267
07/18/2025 14:03:59.466	0.859124	-0.239852	0.276452	7.665	4.41	2.695	-0.441	-0.837	-0.2745
07/18/2025 14:03:59.486	0.87474	-0.237412	0.26718	16.1	1.505	1.155	-0.447	-0.834	-0.2715
07/18/2025 14:03:59.506	0.893528	-0.231556	0.270596	22.82	-0.35	0.28	-0.426	-0.834	-0.2715
07/18/2025 14:03:59.526	0.900116	-0.207888	0.256932	28.665	-1.505	-0.315	-0.426	-0.834	-0.2715
07/18/2025 14:03:59.546	0.935008	-0.157868	0.249124	28.315	-3.29	-0.105	-0.435	-0.822	-0.2625
07/18/2025 14:03:59.566	0.934764	-0.195688	0.233752	20.475	-3.22	-0.14	-0.4155	-0.8025	-0.261
07/18/2025 14:03:59.586	0.933056	-0.191296	0.223504	20.37	-3.01	0.56	-0.42	-0.8055	-0.2505
07/18/2025 14:03:59.606	0.945744	-0.20862	0.22326	20.055	-4.515	2.52	-0.405	-0.7965	-0.249
07/18/2025 14:03:59.626	0.952576	-0.217892	0.216184	21.665	-5.635	3.745	-0.414	-0.789	-0.2235
07/18/2025 14:03:59.646	0.958188	-0.219112	0.212524	27.055	-7.56	4.41	-0.4125	-0.789	-0.216
07/18/2025 14:03:59.666	0.953308	-0.212768	0.22204	33.285	-9.765	4.095	-0.4125	-0.7875	-0.225
07/18/2025 14:03:59.686	0.954772	-0.191296	0.232532	36.295	-11.515	3.045	-0.417	-0.7965	-0.2115
07/18/2025 14:03:59.706	0.961848	-0.17202	0.242048	35.175	-12.775	2.03	-0.405	-0.807	-0.2085
07/18/2025 14:03:59.726	0.970144	-0.165676	0.24888	32.095	-12.145	1.05	-0.4095	-0.7965	-0.21
07/18/2025 14:03:59.746	0.9699	-0.180072	0.22448	28.665	-7.77	0.175	-0.411	-0.7935	-0.1995
07/18/2025 14:03:59.766	0.98088	-0.169092	0.22326	26.53	-4.2	-0.07	-0.411	-0.7935	-0.1995
07/18/2025 14:03:59.786	0.972828	-0.171288	0.237656	20.125	0	0.105	-0.411	-0.8025	-0.207
07/18/2025 14:03:59.806	0.967704	-0.1525	0.254248	13.615	2.73	1.155	-0.42	-0.792	-0.207
07/18/2025 14:03:59.826	0.9882	-0.164212	0.294752	2.625	4.41	2.975	-0.4005	-0.8025	-0.21
07/18/2025 14:03:59.846	1.07238	-0.205936	0.374296	-15.715	5.95	6.335	-0.411	-0.7845	-0.201
07/18/2025 14:03:59.866	1.194624	-0.262544	0.481412	-34.685	11.27	13.055	-0.411	-0.7845	-0.2085
07/18/2025 14:03:59.886	1.294176	-0.365268	0.583892	-49.56	23.66	24.29	-0.405	-0.801	-0.2055
07/18/2025 14:03:59.906	1.282464	-0.283772	0.631716	-44.695	43.61	36.505	-0.4245	-0.8025	-0.2175
07/18/2025 14:03:59.926	1.222928	-0.244976	0.691496	-29.47	65.45	49.945	-0.432	-0.807	-0.2235
07/18/2025 14:03:59.946	1.0736	-0.212768	0.900604	-16.94	95.305	64.295	-0.4245	-0.8025	-0.2415
07/18/2025 14:03:59.966	0.971608	-0.173484	0.939644	-9.135	111.09	65.345	-0.4245	-0.8025	-0.2415
07/18/2025 14:03:59.986	0.899628	-0.241804	0.95282	-2.38	125.335	59.815	-0.453	-0.81	-0.264
07/18/2025 14:04:00.006	0.867664	-0.170068	0.93818	22.75	138.285	46.515	-0.4575	-0.798	-0.2925
07/18/2025 14:04:00.026	0.8906	-0.170312	0.988688	38.395	152.11	32.725	-0.459	-0.777	-0.318
07/18/2025 14:04:00.046	0.922076	-0.21106	1.031144	34.86	168.385	20.16	-0.4545	-0.7785	-0.3465
07/18/2025 14:04:00.066	0.918416	-0.267912	0.983076	23.695	184.695	10.325	-0.4485	-0.768	-0.3765
07/18/2025 14:04:00.086	0.912072	-0.312076	0.889868	17.885	197.26	1.995	-0.444	-0.7725	-0.4035
07/18/2025 14:04:00.106	0.949404	-0.4453	0.902556	22.575	205.52	-2.17	-0.4395	-0.7665	-0.4395
07/18/2025 14:04:00.126	0.959896	-0.391864	0.90524	36.365	211.785	-4.48	-0.4305	-0.7515	-0.4695
07/18/2025 14:04:00.146	0.894504	-0.441884	0.691252	19.915	213.465	0.525	-0.4155	-0.75	-0.4935
07/18/2025 14:04:00.166	0.82838	-0.470676	0.582428	10.885	206.395	7.945	-0.4155	-0.75	-0.4935
07/18/2025 14:04:00.186	0.73322	-0.516548	0.450668	2.52	195.93	15.33	-0.372	-0.7395	-0.5775
07/18/2025 14:04:00.206	0.647576	-0.475312	0.352824	11.13	180.215	21.525	-0.3555	-0.732	-0.5895
07/18/2025 14:04:00.226	0.563396	-0.410408	0.325252	29.295	161.56	25.375	-0.3375	-0.7185	-0.612
07/18/2025 14:04:00.246	0.490196	-0.350872	0.315736	39.935	140.42	27.685	-0.33	-0.7275	-0.618
07/18/2025 14:04:00.266	0.421632	-0.365512	0.291824	41.79	117.95	30.555	-0.3105	-0.7365	-0.639
07/18/2025 14:04:00.286	0.368684	-0.315004	0.272304	46.27	94.15	32.305	-0.2955	-0.7245	-0.6555
07/18/2025 14:04:00.306	0.315492	-0.301584	0.278648	44.59	71.715	34.055	-0.285	-0.729	-0.6585
07/18/2025 14:04:00.326	0.29158	-0.241072	0.305	47.775	49.7	33.355	-0.2745	-0.726	-0.6615
07/18/2025 14:04:00.346	0.26352	-0.165676	0.372344	45.745	31.045	32.095	-0.2745	-0.726	-0.6615
07/18/2025 14:04:00.366	0.200568	-0.14152	0.488732	30.94	5.215	31.36	-0.2745	-0.726	-0.6615
07/18/2025 14:04:00.386	0.186904	-0.16592	0.5795	22.295	-10.36	30.415	-0.2715	-0.7155	-0.6645
07/18/2025 14:04:00.406	0.175436	-0.142252	0.665632	18.935	-21.56	27.405	-0.291	-0.705	-0.6645
07/18/2025 14:04:00.426	0.180072	-0.063928	0.790316	17.955	-29.575	22.225	-0.294	-0.7125	-0.6555
07/18/2025 14:04:00.446	0.172264	-0.019276	0.892308	17.85	-32.375	17.15	-0.2985	-0.7035	-0.6435
07/18/2025 14:04:00.466	0.197396	0.00732	1.029924	19.005	-33.495	8.855	-0.2955	-0.717	-0.6375
07/18/2025 14:04:00.486	0.229848	-0.008296	1.120936	11.69	-30.625	1.015	-0.312	-0.708	-0.6345
07/18/2025 14:04:00.506	0.258396	-0.09076799	1.1712	1.435	-23.065	-5.635	-0.306	-0.7095	-0.624
07/18/2025 14:04:00.526	0.307928	-0.136884	1.234396	-8.155	-13.58	-11.55	-0.306	-0.72	-0.6255
07/18/2025 14:04:00.546	0.320128	-0.164944	1.236104	-23.765	-1.96	-14.315	-0.309	-0.7215	-0.6315
07/18/2025 14:04:00.566	0.308904	-0.216916	1.175348	-45.395	12.53	-14.315	-0.309	-0.7215	-0.6315
07/18/2025 14:04:00.586	0.282308	-0.306708	1.093364	-52.325	20.79	-11.235	-0.3	-0.717	-0.6285
07/18/2025 14:04:00.606	0.256688	-0.312808	1.048224	-35.28	27.125	-9.94	-0.3	-0.7065	-0.63
07/18/2025 14:04:00.626	0.249368	-0.296704	1.002352	-19.11	30.17	-8.19	-0.3015	-0.714	-0.6375
07/18/2025 14:04:00.646	0.23546	-0.308904	0.947452	-6.09	34.335	-6.79	-0.2955	-0.711	-0.6405
07/18/2025 14:04:00.666	0.217892	-0.261324	0.931836	9.38	35.63	-6.23	-0.2925	-0.7065	-0.636
07/18/2025 14:04:00.686	0.215696	-0.253516	0.899872	11.725	35.735	-5.25	-0.2805	-0.7065	-0.6435
07/18/2025 14:04:00.706	0.1952	-0.271572	0.87108	7.385	34.195	-3.43	-0.2835	-0.711	-0.6375
07/18/2025 14:04:00.726	0.172752	-0.282064	0.841068	4.97	30.94	-0.7	-0.288	-0.708	-0.645
07/18/2025 14:04:00.746	0.147864	-0.298412	0.82228	6.23	26.32	1.715	-0.27	-0.7185	-0.651
07/18/2025 14:04:00.766	0.127856	-0.287188	0.786412	13.405	17.465	4.375	-0.27	-0.7185	-0.651
07/18/2025 14:04:00.786	0.104676	-0.237412	0.799588	22.785	11.375	5.495	-0.267	-0.7215	-0.6525
07/18/2025 14:04:00.806	0.082716	-0.191296	0.815448	28.315	3.36	6.195	-0.2565	-0.726	-0.666
07/18/2025 14:04:00.826	0.080276	-0.172996	0.8723	31.115	-2.275	7.665	-0.249	-0.7395	-0.6675
07/18/2025 14:04:00.846	0.071004	-0.134932	0.89548	33.11	-6.685	8.995	-0.2595	-0.75	-0.6615
07/18/2025 14:04:00.866	0.063684	-0.124684	0.91134	34.055	-9.94	7.98	-0.2625	-0.753	-0.672
07/18/2025 14:04:00.886	0.070272	-0.079788	0.921588	36.575	-12.565	5.915	-0.258	-0.7515	-0.6675
07/18/2025 14:04:00.906	0.068076	-0.061	0.93696	31.115	-12.67	2.485	-0.258	-0.7575	-0.672
07/18/2025 14:04:00.926	0.081984	-0.029768	0.976244	21.945	-13.3	-0.77	-0.267	-0.765	-0.6675
07/18/2025 14:04:00.946	0.088816	-0.03904	0.995764	9.31	-13.58	-4.375	-0.2625	-0.762	-0.678
07/18/2025 14:04:00.966	0.130784	-0.020984	0.989176	-9.94	-13.58	-8.26	-0.2685	-0.7575	-0.672
07/18/2025 14:04:00.986	0.149572	-0.149816	0.99796	-20.265	-10.255	-9.73	-0.2715	-0.753	-0.672
07/18/2025 14:04:01.006	0.15616	-0.18422	1.020896	-12.6	-6.65	-11.375	-0.279	-0.7515	-0.6675
07/18/2025 14:04:01.026	0.164212	-0.194712	1.016016	-1.995	-3.15	-11.935	-0.276	-0.759	-0.6645
07/18/2025 14:04:01.046	0.172752	-0.199836	1.014552	10.045	-0.84	-11.165	-0.2805	-0.7545	-0.672
07/18/2025 14:04:01.066	0.178608	-0.205936	1.02724	12.705	-0.315	-8.54	-0.276	-0.753	-0.6525
07/18/2025 14:04:01.086	0.158844	-0.182512	1.022604	7.98	-0.63	-5.565	-0.279	-0.7575	-0.663
07/18/2025 14:04:01.106	0.178364	-0.213012	0.992104	1.4	-3.15	-2.625	-0.279	-0.771	-0.669
07/18/2025 14:04:01.126	0.16714	-0.180072	0.983076	3.78	-3.885	-0.14	-0.2835	-0.759	-0.6705
07/18/2025 14:04:01.146	0.16104	-0.1586	0.976244	5.95	-4.795	1.89	-0.2775	-0.7545	-0.6555
07/18/2025 14:04:01.166	0.16592	-0.122	0.979904	6.475	-6.475	3.57	-0.2775	-0.7545	-0.6555
07/18/2025 14:04:01.186	0.16958	-0.127612	0.976	4.48	-6.23	3.5	-0.276	-0.753	-0.6495
07/18/2025 14:04:01.206	0.17812	-0.105896	0.98576	6.125	-5.32	2.8	-0.2805	-0.75	-0.6555
07/18/2025 14:04:01.226	0.17446	-0.124928	0.984052	7	-2.835	1.47	-0.276	-0.744	-0.6585
07/18/2025 14:04:01.246	0.183244	-0.109556	1.002596	8.855	-0.665	-0.245	-0.2865	-0.7365	-0.66
07/18/2025 14:04:01.266	0.162748	-0.10126	1.006256	9.625	2.415	-1.295	-0.2895	-0.747	-0.651
07/18/2025 14:04:01.286	0.15616	-0.04636	0.981124	5.425	2.345	-2.38	-0.2955	-0.7395	-0.651
07/18/2025 14:04:01.306	0.175436	-0.131272	0.977464	-3.78	1.05	-2.59	-0.291	-0.744	-0.651
07/18/2025 14:04:01.326	0.165676	-0.13908	0.993568	-4.83	1.365	-1.96	-0.2895	-0.744	-0.6405
07/18/2025 14:04:01.346	0.148108	-0.144448	0.977708	-3.71	2.38	-0.7	-0.2865	-0.735	-0.651
07/18/2025 14:04:01.366	0.143716	-0.144936	0.96258	8.05	1.925	0.455	-0.2865	-0.735	-0.651
07/18/2025 14:04:01.386	0.14518	-0.099064	0.960384	16.31	1.26	0.7	-0.2865	-0.735	-0.651
07/18/2025 14:04:01.406	0.1525	-0.098332	0.986492	14.875	0.98	0.805	-0.291	-0.7485	-0.648
07/18/2025 14:04:01.426	0.143716	-0.07686	0.993812	13.16	1.505	0.805	-0.276	-0.75	-0.639
07/18/2025 14:04:01.446	0.152012	-0.057828	0.984052	9.38	0.735	0.49	-0.2865	-0.7515	-0.645
07/18/2025 14:04:01.466	0.144936	-0.066124	0.96624	7.805	0.84	-0.525	-0.2805	-0.7575	-0.6435
07/18/2025 14:04:01.486	0.158844	-0.076616	0.964776	7.56	0.875	-1.61	-0.282	-0.759	-0.645
07/18/2025 14:04:01.506	0.162504	-0.075396	0.967704	6.86	0.385	-2.345	-0.2835	-0.762	-0.6315
07/18/2025 14:04:01.526	0.165676	-0.060024	0.974048	-1.26	-0.28	-2.59	-0.288	-0.7605	-0.6435
07/18/2025 14:04:01.546	0.171044	-0.121268	0.943792	-8.89	0.105	-1.89	-0.282	-0.7575	-0.639
07/18/2025 14:04:01.566	0.183976	-0.100528	0.955016	4.69	-0.98	-1.96	-0.288	-0.768	-0.639
07/18/2025 14:04:01.586	0.173728	-0.098332	0.966484	9.66	-0.7	-1.54	-0.288	-0.768	-0.639
07/18/2025 14:04:01.606	0.18666	-0.09076799	0.971608	11.48	-1.96	-1.015	-0.2805	-0.7755	-0.642
07/18/2025 14:04:01.626	0.19032	-0.111996	0.9882	10.815	-1.435	-0.665	-0.279	-0.768	-0.645
07/18/2025 14:04:01.646	0.191296	-0.070272	0.995764	14.175	-0.98	-1.295	-0.2745	-0.783	-0.6405
07/18/2025 14:04:01.666	0.17812	-0.061244	0.983076	13.475	-0.385	-1.33	-0.273	-0.786	-0.6435
07/18/2025 14:04:01.686	0.192516	-0.055388	1.01992	10.22	-0.98	-1.785	-0.2715	-0.7905	-0.6495
07/18/2025 14:04:01.706	0.182268	-0.045384	1.010648	4.76	-0.28	-1.925	-0.273	-0.7935	-0.6525
07/18/2025 14:04:01.726	0.183244	-0.052216	1.019676	-0.595	0.175	-2.345	-0.261	-0.7875	-0.651
07/18/2025 14:04:01.746	0.165432	-0.055144	1.00162	-5.18	1.33	-3.535	-0.2715	-0.804	-0.6465
07/18/2025 14:04:01.766	0.15616	-0.066856	0.957944	-2.94	1.12	-4.445	-0.2745	-0.801	-0.657
07/18/2025 14:04:01.786	0.160064	-0.061244	0.940132	0.35	0.28	-4.41	-0.27	-0.777	-0.654
07/18/2025 14:04:01.806	0.166408	-0.053924	0.956724	1.75	-0.91	-4.445	-0.2745	-0.786	-0.66
07/18/2025 14:04:01.826	0.163968	-0.08174	0.963068	2.065	-1.645	-4.585	-0.2715	-0.7905	-0.654
07/18/2025 14:04:01.846	0.172264	-0.071004	0.979416	2.59	-2.45	-4.13	-0.282	-0.789	-0.6495
07/18/2025 14:04:01.866	0.176412	-0.084424	0.981368	2.94	-1.47	-4.655	-0.282	-0.792	-0.654
07/18/2025 14:04:01.886	0.176656	-0.094916	1.010404	4.55	-0.945	-4.025	-0.279	-0.7875	-0.6525
07/18/2025 14:04:01.906	0.166652	-0.078568	0.995764	5.81	-0.7	-3.57	-0.273	-0.786	-0.654
07/18/2025 14:04:01.926	0.156404	-0.076616	0.981612	0.21	-0.63	-2.485	-0.2895	-0.7875	-0.66
07/18/2025 14:04:01.946	0.154696	-0.084424	0.96868	-5.11	-0.735	-2.065	-0.2745	-0.798	-0.6615
07/18/2025 14:04:01.966	0.149328	-0.082472	0.954772	-5.775	-2.065	-2.345	-0.2745	-0.7965	-0.6555
07/18/2025 14:04:01.986	0.144692	-0.123464	0.932324	-5.25	-2.975	-1.54	-0.2835	-0.7905	-0.6555
07/18/2025 14:04:02.006	0.161528	-0.100284	0.927932	2.03	-4.515	-1.295	-0.2715	-0.7815	-0.642
07/18/2025 14:04:02.026	0.163236	-0.102724	0.947208	7.665	-4.9	0.315	-0.276	-0.786	-0.66
07/18/2025 14:04:02.046	0.16104	-0.088572	0.961116	14.77	-5.11	1.68	-0.2835	-0.7815	-0.657
07/18/2025 14:04:02.066	0.141764	-0.059048	0.968924	17.29	-5.6	2.485	-0.2865	-0.771	-0.642
07/18/2025 14:04:02.086	0.166408	-0.09638	0.973804	14.28	-7.805	2.8	-0.285	-0.7665	-0.654
07/18/2025 14:04:02.106	0.157624	-0.057828	0.995032	19.215	-8.33	2.31	-0.294	-0.7635	-0.6345
07/18/2025 14:04:02.126	0.165676	-0.0488	1.006012	19.355	-9.59	2.625	-0.288	-0.768	-0.636
07/18/2025 14:04:02.146	0.17934	-0.05978	1.032608	14.14	-11.025	3.885	-0.297	-0.7815	-0.6405
07/18/2025 14:04:02.166	0.183244	-0.040748	1.040904	4.06	-11.445	5.32	-0.2925	-0.7755	-0.63
07/18/2025 14:04:02.186	0.189832	-0.039528	1.025532	1.225	-10.08	5.565	-0.2925	-0.7755	-0.63
07/18/2025 14:04:02.206	0.206668	-0.062952	1.025532	3.675	-8.33	6.02	-0.2985	-0.7755	-0.627
07/18/2025 14:04:02.226	0.209352	-0.05246	1.010892	11.865	-6.405	6.51	-0.303	-0.7785	-0.627
07/18/2025 14:04:02.246	0.19886	-0.03416	0.98942	15.12	-4.025	7.84	-0.3045	-0.7815	-0.6255
07/18/2025 14:04:02.266	0.200568	-0.010736	0.983808	12.46	-3.5	9.205	-0.2955	-0.7845	-0.6255
07/18/2025 14:04:02.286	0.205692	-0.021472	0.9699	7.315	-2.415	10.115	-0.2895	-0.7875	-0.624
07/18/2025 14:04:02.306	0.201544	-0.030988	0.958676	5.74	-1.505	9.73	-0.303	-0.7875	-0.6255
07/18/2025 14:04:02.326	0.190808	-0.01098	0.955748	12.53	-0.455	8.33	-0.291	-0.7935	-0.627
07/18/2025 14:04:02.346	0.190564	-0.005368	0.947208	12.635	-2.205	7.875	-0.2925	-0.7965	-0.6195
07/18/2025 14:04:02.366	0.212524	0.000488	0.939644	7.525	-4.41	6.79	-0.294	-0.786	-0.6255
07/18/2025 14:04:02.386	0.218868	-0.00488	0.935252	1.645	-6.09	5.985	-0.2955	-0.7875	-0.618
07/18/2025 14:04:02.406	0.23058	-0.0061	0.932812	0.56	-7.21	5.075	-0.303	-0.7785	-0.6135
07/18/2025 14:04:02.426	0.243268	0.008784	0.926712	-1.855	-7.805	4.48	-0.3075	-0.7935	-0.612
07/18/2025 14:04:02.446	0.256932	0.025864	0.92354	-9.625	-8.505	4.48	-0.2985	-0.7905	-0.609
07/18/2025 14:04:02.466	0.275476	0.019276	0.938912	-20.545	-7.735	4.06	-0.306	-0.792	-0.6165
07/18/2025 14:04:02.486	0.245952	0.1159	0.954284	-38.99	-6.475	2.87	-0.2985	-0.804	-0.615
07/18/2025 14:04:02.506	0.243268	0.11834	0.937936	-81.34	-6.685	2.485	-0.3045	-0.8115	-0.6135
07/18/2025 14:04:02.526	0.23912	0.113216	0.888892	-130.865	-7.21	0.56	-0.3	-0.8025	-0.627
07/18/2025 14:04:02.546	0.25132	0.015128	0.892308	-185.955	-5.145	-0.385	-0.297	-0.7875	-0.6285
07/18/2025 14:04:02.566	0.198372	-0.09857599	0.798612	-225.26	1.855	-2.275	-0.2985	-0.768	-0.6345
07/18/2025 14:04:02.586	0.200812	-0.335256	0.761036	-236.46	9.135	-7.945	-0.2985	-0.768	-0.6345
07/18/2025 14:04:02.606	0.1952	-0.404552	0.762012	-221.165	15.4	-13.475	-0.291	-0.6915	-0.654
07/18/2025 14:04:02.626	0.189832	-0.475068	0.724436	-201.145	21.49	-18.48	-0.285	-0.657	-0.6495
07/18/2025 14:04:02.646	0.139568	-0.564616	0.643672	-178.045	26.18	-21.735	-0.2835	-0.639	-0.651
07/18/2025 14:04:02.666	0.118828	-0.544608	0.668316	-158.515	25.55	-23.625	-0.2775	-0.6225	-0.657
07/18/2025 14:04:02.686	0.139568	-0.57462	0.654408	-173.145	20.895	-23.555	-0.282	-0.5955	-0.6615
07/18/2025 14:04:02.706	0.149328	-0.626592	0.639036	-206.29	18.13	-20.615	-0.288	-0.573	-0.651
07/18/2025 14:04:02.726	0.139568	-0.735904	0.544852	-224.21	19.04	-20.965	-0.2895	-0.5505	-0.6465
07/18/2025 14:04:02.746	0.16592	-0.805688	0.461892	-222.075	17.43	-18.69	-0.2745	-0.5205	-0.6405
07/18/2025 14:04:02.766	0.176412	-0.902068	0.407968	-211.785	14.63	-18.585	-0.291	-0.5085	-0.6195
07/18/2025 14:04:02.786	0.230092	-1.052372	0.37088	-164.15	9.415	-13.51	-0.279	-0.4815	-0.6135
07/18/2025 14:04:02.806	0.227164	-1.014308	0.305488	-125.51	3.92	-11.83	-0.276	-0.4695	-0.6015
07/18/2025 14:04:02.826	0.237412	-1.015528	0.311832	-104.51	-4.095	-9.59	-0.27	-0.4515	-0.5865
07/18/2025 14:04:02.846	0.240584	-1.001376	0.348432	-94.22	-13.86	-7.7	-0.273	-0.4485	-0.576
07/18/2025 14:04:02.866	0.25986	-1.02236	0.378688	-98.21	-21.805	-3.64	-0.279	-0.438	-0.573
07/18/2025 14:04:02.886	0.27328	-1.03212	0.403576	-95.865	-27.405	0.56	-0.2865	-0.432	-0.564
07/18/2025 14:04:02.906	0.31354	-1.094584	0.438956	-80.22	-30.555	3.675	-0.2865	-0.4335	-0.552
07/18/2025 14:04:02.926	0.31964	-1.107028	0.437248	-55.3	-27.3	6.195	-0.2865	-0.4245	-0.5445
07/18/2025 14:04:02.946	0.29524	-1.10166	0.447008	-22.155	-21.84	8.19	-0.2985	-0.414	-0.5325
07/18/2025 14:04:02.966	0.26962	-1.074576	0.520452	19.74	-17.605	8.645	-0.3	-0.414	-0.5265
07/18/2025 14:04:02.986	0.2501	-0.871812	0.609024	38.43	-14.7	10.01	-0.3	-0.414	-0.5265
07/18/2025 14:04:03.006	0.255224	-0.825452	0.571692	5.53	-13.58	11.62	-0.3	-0.414	-0.5265
07/18/2025 14:04:03.026	0.304024	-0.94306	0.579012	-20.685	-10.5	11.305	-0.3	-0.423	-0.516
07/18/2025 14:04:03.046	0.286456	-0.97966	0.55876	-29.855	-3.64	10.815	-0.2985	-0.4185	-0.5115
07/18/2025 14:04:03.066	0.267424	-0.987468	0.530212	-16.31	3.99	10.185	-0.2865	-0.417	-0.5055
07/18/2025 14:04:03.086	0.260104	-0.981368	0.484584	3.395	11.06	8.75	-0.297	-0.411	-0.5025
07/18/2025 14:04:03.106	0.267424	-0.949892	0.42578	18.13	15.155	7.84	-0.282	-0.414	-0.4965
07/18/2025 14:04:03.126	0.239608	-0.880596	0.400404	19.39	17.115	4.83	-0.2835	-0.417	-0.4935
07/18/2025 14:04:03.146	0.247416	-0.867176	0.378932	7.315	16.17	3.115	-0.291	-0.417	-0.507
07/18/2025 14:04:03.166	0.24888	-0.884012	0.346236	-12.81	14.56	1.995	-0.279	-0.42	-0.5115
07/18/2025 14:04:03.186	0.224724	-0.922076	0.299144	-27.405	15.47	0.63	-0.282	-0.4155	-0.519
07/18/2025 14:04:03.206	0.189588	-0.88084	0.223504	-26.565	16.94	-0.49	-0.2805	-0.4125	-0.5205
07/18/2025 14:04:03.226	0.148108	-0.819596	0.19154	-30.625	15.015	-2.555	-0.2775	-0.405	-0.5055
07/18/2025 14:04:03.246	0.195688	-0.770796	0.168116	-43.995	10.5	-3.71	-0.273	-0.4065	-0.5145
07/18/2025 14:04:03.266	0.219844	-0.878156	0.105652	-71.365	8.61	-1.19	-0.2775	-0.3975	-0.516
07/18/2025 14:04:03.286	0.22448	-0.978928	0.153232	-78.33	9.275	-1.12	-0.276	-0.4005	-0.507
07/18/2025 14:04:03.306	0.225212	-1.08458	0.138592	-56.7	13.51	0.595	-0.2775	-0.3855	-0.4965
07/18/2025 14:04:03.326	0.194224	-1.047492	0.118584	-20.58	18.095	4.34	-0.27	-0.3825	-0.498
07/18/2025 14:04:03.346	0.170068	-0.99918	0.14518	11.095	19.775	5.6	-0.267	-0.3765	-0.5025
07/18/2025 14:04:03.366	0.16104	-0.94794	0.172996	26.915	19.075	6.895	-0.276	-0.3735	-0.498
07/18/2025 14:04:03.386	0.140056	-0.92354	0.184952	20.58	16.555	9.415	-0.258	-0.3765	-0.504
07/18/2025 14:04:03.406	0.141764	-0.917928	0.216428	10.29	14.21	10.325	-0.2505	-0.387	-0.5295
07/18/2025 14:04:03.426	0.137372	-0.915	0.216428	-2.275	13.125	11.935	-0.2475	-0.3855	-0.534
07/18/2025 14:04:03.446	0.12932	-0.939156	0.251076	-6.055	14.035	12.6	-0.2325	-0.378	-0.537
07/18/2025 14:04:03.466	0.129564	-0.934276	0.21472	-2.66	14.77	13.825	-0.2325	-0.381	-0.531
07/18/2025 14:04:03.486	0.144204	-0.97844	0.191052	2.45	15.155	13.125	-0.2385	-0.3765	-0.54
07/18/2025 14:04:03.506	0.156648	-0.958188	0.248392	9.905	15.715	13.79	-0.2385	-0.375	-0.5475
07/18/2025 14:04:03.526	0.14274	-0.928664	0.221552	8.295	16.485	14.77	-0.2415	-0.378	-0.5475
07/18/2025 14:04:03.546	0.13298	-0.902312	0.21716	-3.885	14.98	16.52	-0.2355	-0.3675	-0.5535
07/18/2025 14:04:03.566	0.13298	-0.931592	0.225456	-19.915	13.16	17.745	-0.234	-0.363	-0.5565
07/18/2025 14:04:03.586	0.121512	-0.958188	0.25986	-25.725	12.845	16.835	-0.2385	-0.36	-0.5505
07/18/2025 14:04:03.606	0.09857599	-0.960628	0.250832	-23.66	13.195	15.435	-0.234	-0.36	-0.5385
07/18/2025 14:04:03.626	0.105896	-0.94916	0.23058	-17.36	12.25	13.405	-0.2325	-0.3525	-0.5415
07/18/2025 14:04:03.646	0.106872	-0.9455	0.205448	-11.515	12.11	11.865	-0.2205	-0.348	-0.5415
07/18/2025 14:04:03.666	0.109312	-0.97478	0.213744	-10.71	11.06	9.835	-0.2235	-0.3555	-0.537
07/18/2025 14:04:03.686	0.09516	-0.96624	0.241316	-9.8	11.025	9.835	-0.222	-0.3555	-0.537
07/18/2025 14:04:03.706	0.09516	-0.9577	0.264008	-12.705	12.39	9.905	-0.228	-0.357	-0.531
07/18/2025 14:04:03.726	0.075396	-0.948428	0.245708	-21.945	14.77	10.745	-0.2205	-0.36	-0.537
07/18/2025 14:04:03.746	0.061976	-0.932568	0.225944	-29.61	16.24	10.5	-0.2235	-0.3465	-0.543
07/18/2025 14:04:03.766	0.064416	-0.969412	0.20618	-33.145	17.57	10.15	-0.2205	-0.351	-0.5295
07/18/2025 14:04:03.786	0.044164	-1.030168	0.166652	-22.61	20.86	10.255	-0.2235	-0.345	-0.5205
07/18/2025 14:04:03.806	0.032696	-1.034072	0.152012	-9.45	20.23	8.855	-0.2235	-0.345	-0.5205
07/18/2025 14:04:03.826	0.024644	-0.99308	0.134932	-3.29	19.39	8.54	-0.225	-0.3375	-0.507
07/18/2025 14:04:03.846	0.010492	-1.004304	0.120292	-4.62	16.45	9.065	-0.2355	-0.3405	-0.5085
07/18/2025 14:04:03.866	0.03416	-1.023092	0.129076	-6.335	12.075	9.275	-0.219	-0.3315	-0.504
07/18/2025 14:04:03.886	0.059048	-1.047004	0.122488	-4.655	9.24	10.92	-0.2145	-0.348	-0.5085
07/18/2025 14:04:03.906	0.0366	-1.06628	0.121512	1.155	7.14	11.76	-0.216	-0.3285	-0.498
07/18/2025 14:04:03.926	0.0488	-0.988444	0.122732	12.845	5.11	14.315	-0.213	-0.3345	-0.5025
07/18/2025 14:04:03.946	0.029036	-0.982832	0.147864	14.49	4.13	13.51	-0.2145	-0.3315	-0.4965
07/18/2025 14:04:03.966	0.02318	-0.938424	0.159576	13.195	2.38	12.53	-0.2055	-0.3405	-0.4935
07/18/2025 14:04:03.986	0.00976	-0.897188	0.18422	2.59	1.33	10.5	-0.198	-0.3345	-0.51
07/18/2025 14:04:04.006	0.049532	-0.911828	0.236924	-3.535	0.875	8.54	-0.201	-0.3405	-0.5025
07/18/2025 14:04:04.026	0.05002	-0.936716	0.180804	-11.375	2.275	8.05	-0.21	-0.333	-0.51
07/18/2025 14:04:04.046	0.0427	-0.884012	0.147132	-15.82	2.205	6.195	-0.207	-0.3375	-0.501
07/18/2025 14:04:04.066	0.04636	-0.924028	0.127856	-21.98	1.505	3.185	-0.192	-0.3435	-0.5085
07/18/2025 14:04:04.086	0.035624	-0.927688	0.10004	-13.65	0.56	-0.385	-0.195	-0.3315	-0.5085
07/18/2025 14:04:04.106	0.043188	-0.962336	0.145668	-1.225	-1.575	-3.115	-0.21	-0.327	-0.5085
07/18/2025 14:04:04.126	0.05002	-0.920368	0.160796	7.21	-3.255	-5.775	-0.198	-0.324	-0.5145
07/18/2025 14:04:04.146	0.05246	-0.929152	0.134688	5.95	-5.18	-6.615	-0.1815	-0.3225	-0.51
07/18/2025 14:04:04.166	0.056852	-0.978196	0.149816	3.22	-7.035	-8.26	-0.192	-0.33	-0.5025
07/18/2025 14:04:04.186	0.064416	-0.972584	0.2074	9.31	-6.685	-9.275	-0.195	-0.3315	-0.507
07/18/2025 14:04:04.206	0.04392	-0.98088	0.183244	8.715	-3.955	-8.96	-0.195	-0.3315	-0.507
07/18/2025 14:04:04.226	0.039284	-1.042368	0.23668	8.12	-0.42	-8.26	-0.174	-0.3315	-0.51
07/18/2025 14:04:04.246	0.031964	-1.015528	0.194956	13.3	3.255	-6.93	-0.1875	-0.339	-0.528
07/18/2025 14:04:04.266	0.022204	-0.997472	0.214964	15.05	5.145	-5.005	-0.186	-0.339	-0.5235
07/18/2025 14:04:04.286	0.033672	-1.007964	0.226188	9.03	5.81	-2.695	-0.1905	-0.339	-0.5325
07/18/2025 14:04:04.306	0.024644	-1.01382	0.211792	-1.295	6.195	0.35	-0.177	-0.3465	-0.537
07/18/2025 14:04:04.326	0.017324	-1.048224	0.209352	-9.485	5.145	3.57	-0.1815	-0.342	-0.534
07/18/2025 14:04:04.346	0.017568	-1.038708	0.164456	-11.655	4.305	5.635	-0.1845	-0.3315	-0.5445
07/18/2025 14:04:04.366	0.034404	-1.06506	0.14884	-8.015	3.325	7.84	-0.189	-0.33	-0.5445
07/18/2025 14:04:04.386	0.043676	-1.038952	0.171288	0.7	4.48	9.03	-0.186	-0.336	-0.5445
07/18/2025 14:04:04.406	0.040992	-1.008696	0.187636	11.025	7	11.27	-0.189	-0.321	-0.5385
07/18/2025 14:04:04.426	0.061244	-0.940376	0.202276	9.8	8.4	11.83	-0.186	-0.3315	-0.543
07/18/2025 14:04:04.446	0.049288	-0.970144	0.204716	-0.525	9.135	13.195	-0.183	-0.321	-0.549
07/18/2025 14:04:04.466	0.040992	-0.935252	0.181048	-9.38	8.47	13.79	-0.186	-0.3255	-0.546
07/18/2025 14:04:04.486	0.06734399	-0.938424	0.20374	-13.195	6.895	14	-0.1815	-0.3345	-0.531
07/18/2025 14:04:04.506	0.017568	-0.91622	0.1464	-22.89	5.985	11.025	-0.1785	-0.33	-0.5445
07/18/2025 14:04:04.526	0.026596	-0.92232	0.110044	-30.45	1.925	9.52	-0.168	-0.324	-0.531
07/18/2025 14:04:04.546	0.018788	-0.983076	0.077592	-26.145	-1.61	5.285	-0.1695	-0.3165	-0.528
07/18/2025 14:04:04.566	0.009272	-0.934764	0.059048	-6.335	-4.48	0.945	-0.1785	-0.3195	-0.5265
07/18/2025 14:04:04.586	0.023668	-0.915	0.12444	10.185	-6.65	-2.765	-0.183	-0.3225	-0.5265
07/18/2025 14:04:04.606	0.02928	-0.914268	0.192272	6.09	-3.78	-2.94	-0.183	-0.3225	-0.5265
07/18/2025 14:04:04.626	0.020984	-0.9089	0.186904	-7.28	0.56	-1.995	-0.195	-0.3135	-0.525
07/18/2025 14:04:04.646	0.006832	-0.927688	0.1891	-21.49	4.06	-1.47	-0.1935	-0.315	-0.5205
07/18/2025 14:04:04.666	0.003904	-0.975024	0.161528	-33.6	6.755	-1.575	-0.1965	-0.315	-0.5145
07/18/2025 14:04:04.686	0.001464	-0.981612	0.11468	-44.52	6.72	-1.155	-0.207	-0.3195	-0.5025
07/18/2025 14:04:04.706	-0.011956	-1.032364	0.084424	-48.3	5.32	-1.015	-0.201	-0.3195	-0.4905
07/18/2025 14:04:04.726	-0.021716	-1.078724	0.033916	-35.245	2.555	-1.89	-0.1965	-0.3135	-0.4875
07/18/2025 14:04:04.746	0.002928	-1.078236	0.044896	-16.24	0.035	-1.61	-0.2085	-0.3285	-0.477
07/18/2025 14:04:04.766	-0.0061	-1.028704	0.03904	3.535	-0.42	-0.595	-0.198	-0.312	-0.468
07/18/2025 14:04:04.786	0.00854	-1.037244	0.109556	13.195	-0.595	0.35	-0.201	-0.3195	-0.465
07/18/2025 14:04:04.806	-0.007564	-0.955504	0.091256	10.36	1.82	2.415	-0.1965	-0.318	-0.4665
07/18/2025 14:04:04.826	0	-0.967948	0.083936	-0.315	2.03	3.71	-0.186	-0.3165	-0.4695
07/18/2025 14:04:04.846	0	-0.995276	0.06832	-3.22	1.82	4.55	-0.195	-0.321	-0.4755
07/18/2025 14:04:04.866	0.008296	-0.963312	0.099308	-1.505	1.365	4.865	-0.192	-0.3135	-0.4695
07/18/2025 14:04:04.886	0.018788	-0.982588	0.078568	-3.08	1.61	3.675	-0.183	-0.318	-0.489
07/18/2025 14:04:04.906	0.005368	-0.98698	0.05856	-1.155	1.365	2.52	-0.1875	-0.315	-0.4815
07/18/2025 14:04:04.926	0.00488	-0.9821	0.072224	5.285	0.245	0.63	-0.1965	-0.3225	-0.4845
07/18/2025 14:04:04.946	0.008784	-0.973316	0.076372	8.575	-0.875	-0.945	-0.186	-0.324	-0.492
07/18/2025 14:04:04.966	0.013908	-0.974536	0.089548	9.31	-1.785	-1.645	-0.183	-0.3045	-0.486
07/18/2025 14:04:04.986	0.018056	-0.978928	0.089548	7.7	-1.925	-1.575	-0.186	-0.315	-0.4815
07/18/2025 14:04:05.006	0.0122	-0.986004	0.105164	1.995	-1.855	-0.105	-0.1815	-0.3135	-0.4965
07/18/2025 14:04:05.026	0.012688	-0.98942	0.10858	-0.105	-1.505	0.21	-0.18	-0.312	-0.4905
07/18/2025 14:04:05.046	-0.00488	-0.974048	0.100772	-1.155	-1.155	-0.105	-0.1785	-0.3135	-0.489
07/18/2025 14:04:05.066	-0.000244	-0.983076	0.093696	0.035	-1.19	-0.245	-0.1605	-0.3105	-0.4965
07/18/2025 14:04:05.086	-0.001464	-0.998448	0.088816	3.57	-1.645	-0.84	-0.177	-0.3135	-0.495
07/18/2025 14:04:05.106	0.0122	-1.009916	0.118584	8.05	-1.925	-1.225	-0.174	-0.315	-0.507
07/18/2025 14:04:05.126	0.004392	-0.98576	0.111508	11.305	-1.54	-1.12	-0.177	-0.3225	-0.5115
07/18/2025 14:04:05.146	0.022936	-0.986736	0.126148	10.325	-1.47	-0.315	-0.168	-0.315	-0.513
07/18/2025 14:04:05.166	0.023668	-0.981124	0.112484	5.775	-0.98	0.595	-0.165	-0.315	-0.522
07/18/2025 14:04:05.186	0.030256	-1.018456	0.118096	0.945	-1.33	1.68	-0.171	-0.315	-0.516
07/18/2025 14:04:05.206	0.01342	-1.022116	0.127368	3.325	-1.05	3.36	-0.171	-0.315	-0.516
07/18/2025 14:04:05.226	0.008052	-0.997228	0.124928	4.41	-0.84	3.955	-0.1725	-0.3075	-0.5205
07/18/2025 14:04:05.246	0.00488	-0.976488	0.124684	1.435	-0.315	5.005	-0.174	-0.3105	-0.513
07/18/2025 14:04:05.266	0.00366	-1.03578	0.125904	-2.695	0.14	6.51	-0.1785	-0.3165	-0.516
07/18/2025 14:04:05.286	0.005368	-1.01382	0.125416	0.84	1.19	7.385	-0.177	-0.309	-0.5115
07/18/2025 14:04:05.306	0.005612	-1.013332	0.137372	5.11	1.785	7.42	-0.174	-0.3195	-0.516
07/18/2025 14:04:05.326	0.011224	-1.007476	0.133956	6.09	1.89	7.49	-0.1785	-0.3195	-0.504
07/18/2025 14:04:05.346	0.004636	-0.98454	0.112972	8.085	1.785	7.665	-0.165	-0.3135	-0.5085
07/18/2025 14:04:05.366	-0.005368	-1.00162	0.123464	9.87	1.365	7.63	-0.168	-0.312	-0.513
07/18/2025 14:04:05.386	0.001464	-0.99552	0.092232	15.505	-0.455	6.72	-0.1695	-0.3195	-0.528
07/18/2025 14:04:05.406	0.00244	-0.94794	0.116144	17.85	-2.765	5.565	-0.1695	-0.3195	-0.528
07/18/2025 14:04:05.426	-0.009028	-0.937204	0.134688	14.63	-3.08	4.795	-0.1695	-0.3195	-0.528
07/18/2025 14:04:05.446	-0.00122	-0.92354	0.157136	9.8	-3.115	4.025	-0.1695	-0.318	-0.522
07/18/2025 14:04:05.466	-0.011956	-0.939888	0.166896	1.785	-2.695	3.5	-0.177	-0.318	-0.522
07/18/2025 14:04:05.486	-0.020008	-0.947452	0.157624	-1.155	-1.89	2.415	-0.1965	-0.321	-0.5235
07/18/2025 14:04:05.506	-0.03172	-0.935252	0.143472	-2.66	-1.61	0.385	-0.186	-0.321	-0.5175
07/18/2025 14:04:05.526	-0.025864	-0.92354	0.154452	-2.975	-1.435	-1.225	-0.18	-0.324	-0.504
07/18/2025 14:04:05.546	-0.03294	-0.9516	0.150304	-4.97	-1.68	-3.15	-0.1935	-0.3195	-0.504
07/18/2025 14:04:05.566	-0.043188	-0.92476	0.11956	-5.81	-2.205	-4.655	-0.1905	-0.3135	-0.4935
07/18/2025 14:04:05.586	-0.029036	-0.957456	0.122	-8.75	-3.92	-5.18	-0.192	-0.3165	-0.501
07/18/2025 14:04:05.606	-0.020008	-0.96868	0.152988	-8.26	-3.78	-5.18	-0.1995	-0.318	-0.495
07/18/2025 14:04:05.626	-0.016836	-0.96868	0.141276	-11.55	-2.415	-4.865	-0.1785	-0.3165	-0.492
07/18/2025 14:04:05.646	-0.019032	-0.979904	0.130784	-15.995	-0.42	-4.13	-0.1785	-0.3165	-0.492
07/18/2025 14:04:05.666	-0.010248	-0.976244	0.121756	-17.57	1.365	-3.045	-0.18	-0.3165	-0.4905
07/18/2025 14:04:05.686	-0.013664	-1.022116	0.093696	-17.465	2.45	-2.205	-0.183	-0.321	-0.486
07/18/2025 14:04:05.706	-0.009272	-1.035536	0.077104	-9.8	2.52	-1.47	-0.1905	-0.3195	-0.4875
07/18/2025 14:04:05.726	-0.019764	-1.012356	0.060512	2.31	2.24	-0.875	-0.183	-0.318	-0.4875
07/18/2025 14:04:05.746	-0.0122	-1.005768	0.07905599	8.82	0.525	-1.05	-0.1725	-0.3165	-0.4845
07/18/2025 14:04:05.766	-0.016592	-0.994788	0.096624	12.32	-1.225	-1.33	-0.1815	-0.3165	-0.501
07/18/2025 14:04:05.786	-0.024156	-1.001132	0.118096	13.72	-2.695	-1.26	-0.186	-0.3225	-0.501
07/18/2025 14:04:05.806	-0.03172	-1.008696	0.111752	16.03	-4.55	-0.315	-0.1785	-0.3195	-0.4965
07/18/2025 14:04:05.826	-0.021716	-1.00162	0.11102	20.615	-5.6	0.105	-0.18	-0.3135	-0.498
07/18/2025 14:04:05.846	-0.033184	-1.000156	0.13908	20.93	-6.195	0.035	-0.183	-0.3195	-0.501
07/18/2025 14:04:05.866	-0.022936	-1.002596	0.145912	19.11	-6.72	0.105	-0.1875	-0.315	-0.5085
07/18/2025 14:04:05.886	-0.00976	-1.012112	0.160064	18.445	-5.635	1.015	-0.174	-0.315	-0.519
07/18/2025 14:04:05.906	-0.00854	-1.004304	0.193492	20.475	-3.745	1.995	-0.1665	-0.3225	-0.51
07/18/2025 14:04:05.926	-0.00854	-1.003572	0.202032	19.32	-1.75	3.57	-0.171	-0.315	-0.522
07/18/2025 14:04:05.946	-0.008052	-0.997472	0.178852	14.21	-0.7	4.9	-0.1665	-0.3285	-0.5295
07/18/2025 14:04:05.966	-0.015372	-0.993568	0.172264	8.435	-0.805	6.125	-0.159	-0.3225	-0.531
07/18/2025 14:04:05.986	-0.01708	-0.977952	0.175192	5.285	-1.54	6.825	-0.1635	-0.327	-0.5355
07/18/2025 14:04:06.006	-0.005612	-1.009428	0.155916	4.725	-2.45	7.805	-0.1665	-0.3255	-0.5445
07/18/2025 14:04:06.026	-0.005368	-1.033828	0.179096	11.655	-2.275	8.295	-0.1665	-0.3255	-0.5445
07/18/2025 14:04:06.046	-0.010248	-0.985516	0.183976	25.585	-1.47	7.56	-0.177	-0.318	-0.54
07/18/2025 14:04:06.066	-0.022692	-0.94428	0.192516	29.995	-0.63	7.7	-0.1785	-0.324	-0.5385
07/18/2025 14:04:06.086	-0.010248	-0.935008	0.197396	24.08	-1.295	7.77	-0.1725	-0.336	-0.537
07/18/2025 14:04:06.106	-0.015616	-0.91012	0.208864	14.07	-1.435	8.085	-0.1725	-0.315	-0.5505
07/18/2025 14:04:06.126	-0.022692	-0.918416	0.202764	1.085	-2.485	7.385	-0.168	-0.315	-0.5475
07/18/2025 14:04:06.146	-0.00732	-0.949648	0.213988	-5.46	-2.835	7.455	-0.1725	-0.324	-0.543
07/18/2025 14:04:06.166	-0.023668	-0.94306	0.196908	-6.3	-1.89	5.6	-0.1755	-0.3255	-0.543
07/18/2025 14:04:06.186	-0.02074	-0.904996	0.20252	-6.23	-1.855	4.48	-0.159	-0.3195	-0.54
07/18/2025 14:04:06.206	-0.016348	-0.898652	0.187636	-13.195	-1.19	1.75	-0.168	-0.327	-0.5445
07/18/2025 14:04:06.226	-0.004148	-0.92232	0.154452	-17.815	-2.345	0.875	-0.168	-0.327	-0.5445
07/18/2025 14:04:06.246	-0.006588	-0.95648	0.129808	-17.955	-3.92	-0.455	-0.174	-0.3225	-0.5385
07/18/2025 14:04:06.266	0.004148	-0.967948	0.151036	-9.485	-5.005	-2.345	-0.174	-0.321	-0.534
07/18/2025 14:04:06.286	-0.010248	-0.9577	0.167872	-2.31	-5.075	-2.975	-0.1755	-0.324	-0.525
07/18/2025 14:04:06.306	-0.018788	-0.939644	0.173728	-1.645	-5.005	-3.36	-0.1905	-0.324	-0.5325
07/18/2025 14:04:06.326	-0.010004	-0.932568	0.190808	-7.42	-5.075	-2.345	-0.195	-0.324	-0.528
07/18/2025 14:04:06.346	-0.026596	-0.944524	0.198616	-15.645	-4.445	-2.52	-0.198	-0.3225	-0.5085
07/18/2025 14:04:06.366	-0.016348	-0.960384	0.205204	-23.415	-3.745	-2.1	-0.192	-0.318	-0.5145
07/18/2025 14:04:06.386	-0.02074	-0.981856	0.190076	-28.84	-2.24	-1.715	-0.195	-0.3165	-0.501
07/18/2025 14:04:06.406	-0.02196	-1.022116	0.165432	-29.925	-1.295	-1.015	-0.1995	-0.324	-0.489
07/18/2025 14:04:06.426	-0.023424	-1.064328	0.136884	-23.94	0.385	0.63	-0.1995	-0.324	-0.489
07/18/2025 14:04:06.446	-0.013176	-1.087264	0.16592	-4.83	2.345	1.295	-0.1875	-0.312	-0.48
07/18/2025 14:04:06.466	-0.013664	-1.04432	0.162992	11.235	3.85	2.73	-0.1875	-0.312	-0.48
07/18/2025 14:04:06.486	-0.023912	-1.007964	0.149328	15.785	4.34	3.85	-0.1845	-0.315	-0.489
07/18/2025 14:04:06.506	-0.026108	-1.0004	0.159332	13.825	3.29	4.62	-0.192	-0.3165	-0.489
07/18/2025 14:04:06.526	-0.016348	-1.010648	0.18056	8.4	1.785	4.83	-0.189	-0.321	-0.489
07/18/2025 14:04:06.546	-0.023424	-0.990396	0.17446	4.025	2.24	5.495	-0.1785	-0.3255	-0.492
07/18/2025 14:04:06.566	-0.040016	-0.97356	0.158112	2.275	2.135	5.04	-0.186	-0.33	-0.489
07/18/2025 14:04:06.586	-0.02806	-0.982588	0.139568	0.14	1.05	4.655	-0.183	-0.3135	-0.4995
07/18/2025 14:04:06.606	-0.033428	-0.964532	0.119316	0.77	0.77	4.025	-0.1815	-0.3165	-0.504
07/18/2025 14:04:06.626	-0.01708	-0.98698	0.139812	8.365	1.33	2.8	-0.1815	-0.3165	-0.504
