time,ax,ay,az,gx,gy,gz,mx,my,mz,Label
03/21/2025 10:29:44.475,0.93208,-0.373808,0.12322,-1.19,-0.28,-1.54,-0.594,-0.7965,-1.431,0
03/21/2025 10:29:44.495,0.93086,-0.368684,0.124196,-0.665,-0.56,-1.33,-0.6045,-0.7755,-1.4055,0
03/21/2025 10:29:44.515,0.937204,-0.375272,0.121756,-1.085,-0.945,-1.26,-0.633,-0.807,-1.389,0
03/21/2025 10:29:44.535,0.939156,-0.369904,0.129076,-0.77,-0.98,-1.4,-0.6285,-0.8115,-1.425,0
03/21/2025 10:29:44.555,0.935984,-0.370636,0.130296,0.21,-0.77,-1.82,-0.624,-0.822,-1.404,0
03/21/2025 10:29:44.575,0.935008,-0.365024,0.138592,0.875,-0.63,-2.275,-0.594,-0.8235,-1.3995,0
03/21/2025 10:29:44.595,0.935496,-0.378444,0.130296,-0.28,-0.14,-2.065,-0.624,-0.801,-1.4055,0
03/21/2025 10:29:44.615,0.933544,-0.381128,0.131272,-1.435,0.14,-1.435,-0.624,-0.78,-1.4115,0
03/21/2025 10:29:44.635,0.93086,-0.380884,0.12444,-1.33,0.245,-0.735,-0.609,-0.807,-1.41,0
03/21/2025 10:29:44.655,0.931592,-0.381616,0.12444,-0.35,0.14,-0.21,-0.624,-0.822,-1.404,0
03/21/2025 10:29:44.675,0.938424,-0.37088,0.129564,0.49,-0.035,0.07,-0.6285,-0.822,-1.4205,0
03/21/2025 10:29:44.695,0.939644,-0.373564,0.13176,-0.56,0.105,0.49,-0.618,-0.822,-1.4205,0
03/21/2025 10:29:44.715,0.936228,-0.377224,0.122976,-1.925,0.56,0.91,-0.618,-0.801,-1.41,0
03/21/2025 10:29:44.735,0.93208,-0.371368,0.12688,-2.345,0.875,1.19,-0.633,-0.8175,-1.395,0
03/21/2025 10:29:44.755,0.936716,-0.374296,0.119804,-2.485,0.84,1.33,-0.6285,-0.828,-1.3845,0
03/21/2025 10:29:44.775,0.929884,-0.366976,0.122976,-1.085,0.595,0.945,-0.648,-0.8265,-1.4355,0
03/21/2025 10:29:44.795,0.9394,-0.360144,0.123708,-0.84,0.42,0.525,-0.648,-0.8265,-1.4355,0
03/21/2025 10:29:44.815,0.936228,-0.36112,0.118584,-0.875,0.35,-0.105,-0.609,-0.8175,-1.38,0
03/21/2025 10:29:44.835,0.927444,-0.3721,0.121268,0.105,0.105,-0.245,-0.6135,-0.8175,-1.41,0
03/21/2025 10:29:44.855,0.943792,-0.359412,0.127856,0.455,-0.07,-0.665,-0.5895,-0.828,-1.395,0
03/21/2025 10:29:44.875,0.94184,-0.364292,0.125904,-0.035,-0.035,-0.875,-0.6375,-0.816,-1.4205,0
03/21/2025 10:29:44.895,0.933788,-0.363072,0.123708,0.28,0.07,-0.63,-0.6045,-0.7965,-1.395,0
03/21/2025 10:29:44.915,0.937204,-0.354776,0.123952,0.21,0.07,-0.665,-0.6135,-0.8115,-1.41,0
03/21/2025 10:29:44.935,0.9394,-0.359168,0.120292,-0.735,0.105,-0.875,-0.6045,-0.792,-1.4055,0
03/21/2025 10:29:44.955,0.947696,-0.36112,0.122244,-0.98,0,-1.155,-0.624,-0.7965,-1.395,0
03/21/2025 10:29:44.975,0.941596,-0.348432,0.122244,-0.105,0,-1.435,-0.633,-0.8265,-1.41,0
03/21/2025 10:29:44.995,0.941596,-0.355752,0.126636,0.21,-0.315,-1.75,-0.6375,-0.816,-1.4355,0
03/21/2025 10:29:45.015,0.93696,-0.36478,0.124196,-0.35,-0.665,-2.38,-0.6195,-0.801,-1.4055,0
03/21/2025 10:29:45.035,0.931592,-0.35624,0.122976,0.77,-0.735,-3.115,-0.594,-0.792,-1.4055,0
03/21/2025 10:29:45.055,0.926956,-0.3599,0.128588,2.345,-0.875,-3.64,-0.624,-0.8175,-1.4055,0
03/21/2025 10:29:45.075,0.939156,-0.340868,0.133956,2.345,-0.91,-4.165,-0.633,-0.816,-1.4145,0
03/21/2025 10:29:45.095,0.965508,-0.35746,0.129808,-0.35,-0.35,-3.85,-0.633,-0.816,-1.4145,0
03/21/2025 10:29:45.115,0.935496,-0.331596,0.122732,-1.505,0.63,-3.22,-0.633,-0.816,-1.4145,0
03/21/2025 10:29:45.135,0.975512,-0.354044,0.125416,-3.605,-0.21,-2.555,-0.6285,-0.8265,-1.44,0
03/21/2025 10:29:45.155,0.956968,-0.353312,0.127856,-1.995,-0.49,-3.605,-0.6135,-0.8115,-1.4055,0
03/21/2025 10:29:45.175,0.940132,-0.353312,0.128588,1.68,-1.75,-4.515,-0.633,-0.822,-1.4145,0
03/21/2025 10:29:45.195,0.938912,-0.348188,0.1342,3.955,-2.66,-5.005,-0.6285,-0.8475,-1.389,0
03/21/2025 10:29:45.215,0.946232,-0.331596,0.130784,4.515,-2.73,-5.005,-0.6285,-0.816,-1.4205,0
03/21/2025 10:29:45.235,0.948184,-0.32696,0.142008,3.675,-2.065,-5.495,-0.6225,-0.843,-1.419,0
03/21/2025 10:29:45.255,0.93208,-0.332572,0.130296,3.36,-0.98,-7.14,-0.6435,-0.8265,-1.404,0
03/21/2025 10:29:45.275,0.915244,-0.33428,0.12566,3.92,-0.105,-8.89,-0.6285,-0.8265,-1.4355,0
03/21/2025 10:29:45.295,0.91256,-0.336232,0.120292,4.445,0.665,-10.71,-0.633,-0.8415,-1.419,0
03/21/2025 10:29:45.315,0.964044,-0.330132,0.116632,5.215,0.77,-12.11,-0.6435,-0.837,-1.419,0
03/21/2025 10:29:45.335,0.978684,-0.323056,0.1098,4.48,1.435,-12.6,-0.648,-0.8685,-1.398,0
03/21/2025 10:29:45.355,0.976,-0.331596,0.105652,1.96,1.295,-12.005,-0.6465,-0.8565,-1.434,0
03/21/2025 10:29:45.375,0.982588,-0.318908,0.103212,1.085,0,-10.465,-0.648,-0.858,-1.404,0
03/21/2025 10:29:45.395,0.957212,-0.315004,0.091988,1.68,-1.54,-8.05,-0.6465,-0.8625,-1.4295,0
03/21/2025 10:29:45.415,0.964776,-0.28792,0.092232,3.43,-5.53,-6.825,-0.6465,-0.8625,-1.4295,0
03/21/2025 10:29:45.435,0.981856,-0.261324,0.099796,6.3,-8.54,-7.91,-0.6465,-0.8625,-1.4295,0
03/21/2025 10:29:45.455,0.978928,-0.269864,0.099064,8.33,-9.555,-10.185,-0.687,-0.8625,-1.413,0
03/21/2025 10:29:45.475,0.968924,-0.225944,0.10248,11.305,-9.555,-13.265,-0.672,-0.861,-1.434,0
03/21/2025 10:29:45.495,0.951356,-0.202032,0.106384,11.83,-8.82,-16.415,-0.6765,-0.867,-1.4535,0
03/21/2025 10:29:45.515,0.94428,-0.205448,0.107604,9.205,-8.4,-20.055,-0.672,-0.873,-1.4085,0
03/21/2025 10:29:45.535,0.948672,-0.225456,0.11224,7.77,-8.085,-24.29,-0.6915,-0.8565,-1.4235,0
03/21/2025 10:29:45.555,0.948672,-0.241072,0.109556,9.905,-7.315,-28.42,-0.6765,-0.873,-1.4085,0
03/21/2025 10:29:45.575,0.951112,-0.210816,0.122244,12.46,-6.65,-32.27,-0.7065,-0.888,-1.4175,0
03/21/2025 10:29:45.595,0.99674,-0.213256,0.12932,10.255,-6.055,-34.58,-0.7155,-0.8925,-1.4325,0
03/21/2025 10:29:45.615,0.994056,-0.2318,0.122976,6.405,-3.71,-36.05,-0.741,-0.882,-1.4175,0
03/21/2025 10:29:45.635,0.975512,-0.237168,0.122,5.46,-2.03,-37.485,-0.7305,-0.8925,-1.422,0
03/21/2025 10:29:45.655,0.98332,-0.254004,0.114436,6.755,-1.96,-38.045,-0.726,-0.903,-1.4175,0
03/21/2025 10:29:45.675,0.996252,-0.246928,0.111508,8.61,-2.73,-37.135,-0.75,-0.927,-1.4205,0
03/21/2025 10:29:45.695,0.988444,-0.259616,0.12322,9.31,-3.57,-35.315,-0.774,-0.942,-1.4415,0
03/21/2025 10:29:45.715,0.960872,-0.249612,0.117852,12.25,-2.8,-34.055,-0.7935,-0.969,-1.4085,0
03/21/2025 10:29:45.735,1.040416,-0.208864,0.1281,13.09,-2.065,-34.09,-0.7935,-0.969,-1.4085,0
03/21/2025 10:29:45.755,1.037244,-0.20862,0.121756,7.175,-0.175,-31.045,-0.7935,-0.969,-1.4085,0
03/21/2025 10:29:45.775,1.008208,-0.215452,0.113704,-0.315,0.525,-25.48,-0.783,-0.978,-1.461,0
03/21/2025 10:29:45.795,0.989908,-0.218868,0.101748,-2.975,0.525,-21.14,-0.774,-0.999,-1.4235,0
03/21/2025 10:29:45.815,0.958432,-0.229116,0.11102,-0.56,-0.525,-18.165,-0.7785,-0.993,-1.4445,0
03/21/2025 10:29:45.835,0.960872,-0.20862,0.1098,3.99,-1.925,-16.24,-0.8085,-0.993,-1.4235,0
03/21/2025 10:29:45.855,1.0065,-0.183244,0.109312,5.67,-2.765,-14.735,-0.852,-0.9915,-1.4535,0
03/21/2025 10:29:45.875,1.014552,-0.1525,0.103212,5.53,-1.925,-13.335,-0.8175,-1.0125,-1.4745,0
03/21/2025 10:29:45.895,0.996984,-0.158844,0.105652,4.83,-0.56,-11.55,-0.8325,-1.0035,-1.434,0
03/21/2025 10:29:45.915,0.971852,-0.16226,0.10614,3.15,0.105,-10.08,-0.843,-1.008,-1.4535,0
03/21/2025 10:29:45.935,0.96868,-0.187392,0.103456,2.17,0.21,-8.54,-0.837,-1.0275,-1.464,0
03/21/2025 10:29:45.955,0.967704,-0.173728,0.113948,4.13,-0.105,-7.105,-0.8325,-1.029,-1.428,0
03/21/2025 10:29:45.975,0.998692,-0.176656,0.119316,5.915,-0.14,-5.32,-0.8415,-1.0335,-1.4325,0
03/21/2025 10:29:45.995,0.997716,-0.174216,0.11346,5.915,0.455,-3.43,-0.867,-1.0125,-1.4385,0
03/21/2025 10:29:46.015,1.00162,-0.164212,0.099064,4.48,0.945,0.28,-0.8415,-1.023,-1.4475,0
03/21/2025 10:29:46.035,0.994788,-0.169336,0.104432,1.54,0.63,4.165,-0.837,-1.023,-1.4385,0
03/21/2025 10:29:46.055,0.993568,-0.16104,0.099308,-0.63,-0.07,8.05,-0.837,-1.0395,-1.4175,0
03/21/2025 10:29:46.075,0.98454,-0.135908,0.09272,0.28,-1.575,9.45,-0.8415,-1.0485,-1.443,0
03/21/2025 10:29:46.095,0.988932,-0.149572,0.093452,0.595,-2.87,11.095,-0.846,-1.044,-1.4685,0
03/21/2025 10:29:46.115,0.996008,-0.142252,0.102236,1.645,-3.71,12.775,-0.837,-1.029,-1.443,0
03/21/2025 10:29:46.135,0.994788,-0.111996,0.101504,1.4,-3.57,13.51,-0.8025,-1.035,-1.443,0
03/21/2025 10:29:46.155,1.007476,-0.114436,0.108092,-1.365,-3.115,13.335,-0.843,-1.0185,-1.4175,0
03/21/2025 10:29:46.175,0.984296,-0.117364,0.123464,-1.96,-2.1,12.215,-0.8175,-1.0185,-1.4595,0
03/21/2025 10:29:46.195,0.976,-0.133712,0.110288,-0.28,-1.855,12.075,-0.828,-0.9825,-1.4595,0
03/21/2025 10:29:46.215,0.99552,-0.128344,0.109068,1.05,-2.24,11.9,-0.798,-1.0245,-1.4385,0
03/21/2025 10:29:46.235,0.984784,-0.110776,0.108824,1.435,-2.03,11.725,-0.8475,-1.0125,-1.449,0
03/21/2025 10:29:46.255,0.995276,-0.117608,0.105164,1.505,-2.345,11.48,-0.8025,-0.987,-1.47,0
03/21/2025 10:29:46.275,1.024068,-0.114436,0.1098,1.925,-2.45,10.57,-0.798,-0.9735,-1.4295,0
03/21/2025 10:29:46.295,1.015528,-0.123464,0.110532,0.77,-1.505,10.78,-0.837,-1.008,-1.449,0
03/21/2025 10:29:46.315,1.012844,-0.114192,0.110532,-1.4,-0.63,10.71,-0.8025,-0.9825,-1.4595,0
03/21/2025 10:29:46.335,0.994788,-0.122,0.105896,-2.94,0.385,9.205,-0.7785,-1.0095,-1.449,0
03/21/2025 10:29:46.355,1.008208,-0.115412,0.10736,-2.905,0.665,8.12,-0.768,-0.9945,-1.44,0
03/21/2025 10:29:46.375,0.995276,-0.126636,0.0915,-3.71,1.225,7.595,-0.8085,-0.978,-1.455,0
03/21/2025 10:29:46.395,0.994056,-0.129076,0.093208,-3.535,1.225,6.965,-0.783,-0.9825,-1.4445,0
03/21/2025 10:29:46.415,0.99918,-0.137372,0.089304,-3.185,0.945,6.265,-0.8085,-0.9975,-1.4595,0
03/21/2025 10:29:46.435,0.99796,-0.137128,0.094184,-3.465,0.84,5.81,-0.798,-0.972,-1.476,0
03/21/2025 10:29:46.455,0.988932,-0.145912,0.094916,-3.745,1.26,5.18,-0.789,-0.9825,-1.455,0
03/21/2025 10:29:46.475,1.005768,-0.138592,0.094184,-4.235,1.715,4.235,-0.8085,-0.9615,-1.4505,0
03/21/2025 10:29:46.495,1.001864,-0.148596,0.097844,-6.405,2.485,2.765,-0.774,-0.969,-1.4145,0
03/21/2025 10:29:46.515,0.98332,-0.15738,0.094428,-7.14,2.94,2.415,-0.789,-0.963,-1.4145,0
03/21/2025 10:29:46.535,0.98942,-0.176412,0.094184,-6.16,2.555,2.87,-0.804,-0.9675,-1.44,0
03/21/2025 10:29:46.555,0.991128,-0.189832,0.09394,-5.355,1.855,2.765,-0.7545,-0.99,-1.404,0
03/21/2025 10:29:46.575,0.997716,-0.187636,0.086376,-4.725,1.26,2.94,-0.7845,-0.957,-1.4355,0
03/21/2025 10:29:46.595,0.999912,-0.191296,0.095892,-3.675,0.525,3.57,-0.7695,-0.963,-1.44,0
03/21/2025 10:29:46.615,0.996252,-0.198372,0.087352,-3.045,0.595,5.11,-0.774,-0.972,-1.4655,0
03/21/2025 10:29:46.635,0.990396,-0.19642,0.105408,-5.285,0.77,6.195,-0.774,-0.963,-1.455,0
03/21/2025 10:29:46.655,0.984784,-0.20862,0.0976,-7.56,1.54,6.475,-0.7545,-0.99,-1.425,0
03/21/2025 10:29:46.675,0.984296,-0.209108,0.101016,-7.665,1.855,6.195,-0.7695,-0.9735,-1.4445,0
03/21/2025 10:29:46.695,0.974048,-0.223992,0.106384,-7.21,1.89,7.315,-0.78,-0.948,-1.4205,0
03/21/2025 10:29:46.715,0.980636,-0.231312,0.110288,-6.44,1.715,8.47,-0.813,-0.951,-1.455,0
03/21/2025 10:29:46.735,0.997716,-0.2196,0.104676,-5.11,1.82,9.45,-0.813,-0.951,-1.455,0
03/21/2025 10:29:46.755,0.990396,-0.20252,0.111508,-5.355,1.96,9.66,-0.7395,-0.9525,-1.4415,0
03/21/2025 10:29:46.775,0.994056,-0.213012,0.107848,-6.475,2.1,10.115,-0.7395,-0.9525,-1.4415,0
03/21/2025 10:29:46.795,0.999424,-0.216672,0.110044,-7.105,2.31,10.535,-0.75,-0.9165,-1.437,0
03/21/2025 10:29:46.815,0.989176,-0.201788,0.110776,-7.385,2.835,10.64,-0.7605,-0.9435,-1.416,0
03/21/2025 10:29:46.835,0.969412,-0.213012,0.109312,-8.12,3.115,10.64,-0.7545,-0.9435,-1.431,0
03/21/2025 10:29:46.855,0.972828,-0.216916,0.11224,-7.315,3.01,10.01,-0.744,-0.948,-1.431,0
03/21/2025 10:29:46.875,0.98454,-0.212036,0.108824,-5.95,3.29,8.855,-0.7605,-0.9015,-1.4265,0
03/21/2025 10:29:46.895,0.987468,-0.199348,0.105652,-4.83,3.78,7.63,-0.7305,-0.9285,-1.4115,0
03/21/2025 10:29:46.915,0.979416,-0.195688,0.103212,-4.55,3.815,6.755,-0.735,-0.933,-1.4115,0
03/21/2025 10:29:46.935,0.976976,-0.214476,0.099308,-5.285,3.15,6.055,-0.7305,-0.897,-1.407,0
03/21/2025 10:29:46.955,0.988932,-0.221552,0.106384,-4.69,2.625,5.18,-0.7215,-0.897,-1.422,0
03/21/2025 10:29:46.975,0.992104,-0.201788,0.106628,-3.22,2.87,3.71,-0.7305,-0.912,-1.422,0
03/21/2025 10:29:46.995,0.974048,-0.2135,0.102724,-3.78,3.22,1.995,-0.7155,-0.888,-1.4115,0
03/21/2025 10:29:47.015,0.965752,-0.22814,0.102236,-3.675,3.08,1.61,-0.7155,-0.888,-1.4115,0
03/21/2025 10:29:47.035,0.977952,-0.219356,0.10248,-3.78,2.625,1.4,-0.726,-0.9285,-1.4265,0
03/21/2025 10:29:47.055,0.982588,-0.228384,0.101504,-4.2,2.38,0.91,-0.726,-0.9285,-1.4265,0
03/21/2025 10:29:47.075,0.977464,-0.230336,0.09394,-3.815,2.345,-0.105,-0.735,-0.9165,-1.4415,0
03/21/2025 10:29:47.095,0.970388,-0.220088,0.100284,-3.08,1.855,-1.4,-0.7005,-0.897,-1.4325,0
03/21/2025 10:29:47.115,0.964532,-0.243756,0.10248,-2.905,1.26,-1.54,-0.72,-0.9225,-1.437,0
03/21/2025 10:29:47.135,0.975268,-0.243756,0.10492,-1.365,0.91,-1.96,-0.705,-0.918,-1.422,0
03/21/2025 10:29:47.155,0.97478,-0.22936,0.103212,-0.595,1.33,-2.695,-0.741,-0.9075,-1.416,0
03/21/2025 10:29:47.175,0.972584,-0.23302,0.114192,-2.135,1.19,-3.43,-0.735,-0.9075,-1.4115,0
03/21/2025 10:29:47.195,0.968924,-0.256444,0.102968,-2.66,1.19,-3.955,-0.711,-0.903,-1.392,0
03/21/2025 10:29:47.215,0.981124,-0.257908,0.107116,-0.77,0.805,-4.025,-0.711,-0.903,-1.4265,0
03/21/2025 10:29:47.235,0.966484,-0.257176,0.115168,0.21,0.735,-3.815,-0.735,-0.903,-1.416,0
03/21/2025 10:29:47.255,0.966484,-0.266692,0.111996,-0.28,0.21,-3.045,-0.7215,-0.888,-1.392,0
03/21/2025 10:29:47.275,0.978684,-0.271328,0.11346,0.035,0.07,-2.38,-0.7155,-0.897,-1.4325,0
03/21/2025 10:29:47.295,0.991616,-0.250588,0.121024,0.84,0.56,-1.61,-0.741,-0.903,-1.407,0
03/21/2025 10:29:47.315,0.986248,-0.226676,0.107604,-2.94,1.75,0.455,-0.7065,-0.924,-1.401,0
03/21/2025 10:29:47.335,0.9699,-0.244488,0.099064,-5.53,1.54,1.75,-0.7305,-0.9285,-1.395,0
03/21/2025 10:29:47.355,0.971852,-0.24156,0.099796,-5.74,0.315,2.31,-0.7215,-0.8925,-1.4025,0
03/21/2025 10:29:47.375,0.965508,-0.226188,0.101992,-3.745,-0.245,1.89,-0.7155,-0.9135,-1.416,0
03/21/2025 10:29:47.395,0.985272,-0.210816,0.109312,-1.225,-0.945,0.595,-0.7155,-0.9135,-1.416,0
03/21/2025 10:29:47.415,0.987224,-0.189588,0.113216,-0.175,-1.12,-1.19,-0.7065,-0.897,-1.4175,0
03/21/2025 10:29:47.435,0.988444,-0.188612,0.112484,-1.505,-1.085,-3.045,-0.732,-0.888,-1.392,0
03/21/2025 10:29:47.455,0.995764,-0.15494,0.11102,-2.31,-1.26,-4.83,-0.7215,-0.8925,-1.392,0
03/21/2025 10:29:47.475,0.984296,-0.150304,0.100528,-1.225,-1.47,-7.84,-0.726,-0.9135,-1.3965,0
03/21/2025 10:29:47.495,0.965996,-0.13908,0.115412,2.485,-2.345,-11.76,-0.741,-0.9135,-1.3905,0
03/21/2025 10:29:47.515,0.975756,-0.141032,0.117364,6.895,-3.22,-15.995,-0.7155,-0.8925,-1.4175,0
03/21/2025 10:29:47.535,1.010892,-0.111752,0.117852,10.36,-3.745,-19.705,-0.7305,-0.918,-1.4115,0
03/21/2025 10:29:47.555,1.0553,-0.043432,0.126392,8.365,-3.885,-21.63,-0.7455,-0.876,-1.422,0
03/21/2025 10:29:47.575,1.033828,-0.01342,0.107604,0.035,-2.1,-23.24,-0.7605,-0.9285,-1.41,0
03/21/2025 10:29:47.595,1.033828,-0.011468,0.118584,-6.37,-0.84,-28.175,-0.75,-0.9375,-1.4265,0
03/21/2025 10:29:47.615,0.997716,-0.020252,0.121512,-3.36,1.225,-35.595,-0.786,-0.897,-1.416,0
03/21/2025 10:29:47.635,1.034804,-0.024156,0.135908,6.405,-0.14,-45.57,-0.7755,-0.9165,-1.41,0
03/21/2025 10:29:47.655,1.039196,0.000488,0.130296,9.94,0.175,-49.98,-0.7755,-0.9165,-1.41,0
03/21/2025 10:29:47.675,1.035536,0.003904,0.119804,9.275,0.56,-53.515,-0.7935,-0.9585,-1.4145,0
03/21/2025 10:29:47.695,1.05164,-0.006588,0.129808,6.685,1.05,-57.26,-0.8385,-0.993,-1.413,0
03/21/2025 10:29:47.715,1.05896,-0.00854,0.130296,4.935,2.17,-60.27,-0.837,-0.9975,-1.4445,0
03/21/2025 10:29:47.735,1.025288,-0.027084,0.117852,6.055,2.1,-62.37,-0.837,-0.9975,-1.4445,0
03/21/2025 10:29:47.755,1.031876,-0.002196,0.128588,9.135,1.61,-65.135,-0.852,-1.0335,-1.437,0
03/21/2025 10:29:47.775,1.054812,0.007076,0.135176,12.39,1.33,-69.23,-0.8565,-1.0545,-1.407,0
03/21/2025 10:29:47.795,1.043832,0.038308,0.137128,14.455,1.715,-72.555,-0.8715,-1.0695,-1.416,0
03/21/2025 10:29:47.815,1.039196,0.02806,0.143716,14.315,1.54,-74.165,-0.915,-1.0845,-1.4145,0
03/21/2025 10:29:47.835,1.029436,0.048068,0.141032,15.015,1.995,-75.495,-0.8955,-1.0905,-1.4145,0
03/21/2025 10:29:47.855,1.026508,0.04514,0.146156,13.895,2.835,-76.265,-0.9195,-1.131,-1.434,0
03/21/2025 10:29:47.875,1.051152,0.049288,0.14274,12.32,3.08,-75.67,-0.9585,-1.1805,-1.437,0
03/21/2025 10:29:47.895,1.051152,0.07515199,0.150548,13.195,3.08,-73.99,-0.954,-1.1865,-1.4175,0
03/21/2025 10:29:47.915,1.020408,0.09467199,0.15006,12.635,3.955,-71.155,-0.9585,-1.197,-1.4475,0
03/21/2025 10:29:47.935,1.025776,0.1525,0.156648,7.945,4.375,-67.69,-0.987,-1.2525,-1.425,0
03/21/2025 10:29:47.955,1.011624,0.19032,0.168604,9.835,3.885,-66.885,-0.9525,-1.2585,-1.461,0
03/21/2025 10:29:47.975,0.983808,0.215696,0.189344,18.655,3.22,-68.355,-0.9525,-1.2585,-1.461,0
03/21/2025 10:29:47.995,0.97722,0.265472,0.166408,26.46,3.185,-69.965,-1.035,-1.3605,-1.4265,0
03/21/2025 10:29:48.015,1.032608,0.298656,0.1708,25.13,3.605,-69.09,-1.029,-1.3395,-1.4685,0
03/21/2025 10:29:48.035,1.008452,0.27938,0.155672,15.505,6.965,-65.695,-1.0335,-1.3905,-1.437,0
03/21/2025 10:29:48.055,0.976732,0.25986,0.123708,5.39,9.52,-61.565,-1.0635,-1.401,-1.4565,0
03/21/2025 10:29:48.075,0.99552,0.264496,0.113948,1.26,10.22,-58.52,-1.0635,-1.401,-1.4565,0
03/21/2025 10:29:48.095,0.9882,0.294996,0.089304,-1.61,10.465,-54.81,-1.0725,-1.431,-1.446,0
03/21/2025 10:29:48.115,0.952332,0.299632,0.080276,-6.335,10.78,-51.38,-1.053,-1.437,-1.455,0
03/21/2025 10:29:48.135,0.917684,0.266936,0.07564,-8.54,10.465,-48.86,-1.062,-1.4835,-1.455,0
03/21/2025 10:29:48.155,0.912316,0.309636,0.08295999,-4.795,10.535,-45.92,-1.0815,-1.503,-1.464,0
03/21/2025 10:29:48.175,0.919392,0.33916,0.064172,-2.765,10.71,-43.925,-1.086,-1.482,-1.4535,0
03/21/2025 10:29:48.195,0.913048,0.343308,0.061,-5.215,10.745,-40.67,-1.071,-1.5495,-1.452,0
03/21/2025 10:29:48.215,0.905972,0.372344,0.062708,-10.43,9.275,-37.065,-1.0665,-1.5345,-1.437,0
03/21/2025 10:29:48.235,0.864248,0.35868,0.039284,-12.95,6.23,-32.83,-1.0755,-1.575,-1.446,0
03/21/2025 10:29:48.255,0.829356,0.366,0.04514,-5.845,0.56,-30.1,-1.104,-1.596,-1.4505,0
03/21/2025 10:29:48.275,0.901092,0.511424,0.0854,11.655,-7.035,-30.66,-1.0905,-1.575,-1.4565,0
03/21/2025 10:29:48.295,0.887916,0.591944,0.145424,13.3,-8.785,-34.79,-1.0905,-1.575,-1.4565,0
03/21/2025 10:29:48.315,0.866444,0.5551,0.15372,11.34,-9.38,-38.99,-1.08,-1.617,-1.4505,0
03/21/2025 10:29:48.335,0.854244,0.554124,0.14884,16.52,-10.115,-41.125,-1.089,-1.6545,-1.404,0
03/21/2025 10:29:48.355,0.906216,0.598776,0.166652,23.415,-11.095,-41.335,-1.113,-1.653,-1.4445,0
03/21/2025 10:29:48.375,0.89426,0.622688,0.17202,22.085,-10.36,-40.845,-1.1235,-1.6785,-1.443,0
03/21/2025 10:29:48.395,0.845216,0.59414,0.157136,15.225,-7.525,-41.72,-1.122,-1.719,-1.4325,0
03/21/2025 10:29:48.415,0.910608,0.60878,0.121512,12.46,-5.775,-42.735,-1.122,-1.719,-1.4325,0
03/21/2025 10:29:48.435,0.915,0.6832,0.152012,12.495,-5.46,-41.23,-1.113,-1.7145,-1.437,0
03/21/2025 10:29:48.455,0.823988,0.610976,0.143716,6.615,-3.85,-36.96,-1.137,-1.7295,-1.422,0
03/21/2025 10:29:48.475,0.735904,0.55754,0.14152,9.485,-3.15,-37.765,-1.137,-1.74,-1.422,0
03/21/2025 10:29:48.495,0.77592,0.589016,0.140788,19.075,-2.415,-39.83,-1.131,-1.776,-1.431,0
03/21/2025 10:29:48.515,0.811788,0.694912,0.136152,17.36,-1.435,-40.845,-1.1265,-1.7925,-1.4205,0
03/21/2025 10:29:48.535,0.741028,0.610732,0.092964,-0.21,2.73,-36.925,-1.1355,-1.8225,-1.434,0
03/21/2025 10:29:48.555,0.691252,0.50996,0.094184,-8.505,4.445,-34.545,-1.131,-1.833,-1.419,0
03/21/2025 10:29:48.575,0.774212,0.536312,0.100772,0.07,3.535,-34.755,-1.1205,-1.8435,-1.4235,0
03/21/2025 10:29:48.595,0.728096,0.634644,0.117852,3.64,5.46,-33.32,-1.149,-1.8945,-1.437,0
03/21/2025 10:29:48.615,0.675148,0.5673,0.108336,-6.02,6.3,-28.63,-1.149,-1.8945,-1.437,0
03/21/2025 10:29:48.635,0.71004,0.538508,0.118828,-8.33,6.3,-26.215,-1.1145,-1.9155,-1.422,0
03/21/2025 10:29:48.655,0.744932,0.584136,0.141276,-2.52,5.67,-24.64,-1.134,-1.92,-1.416,0
03/21/2025 10:29:48.675,0.689544,0.576572,0.142496,1.68,4.97,-20.825,-1.1445,-1.899,-1.422,0
03/21/2025 10:29:48.695,0.676612,0.54412,0.110044,8.575,3.535,-16.73,-1.1145,-1.947,-1.4055,0
03/21/2025 10:29:48.715,0.744932,0.630252,0.113948,14.875,1.05,-14.385,-1.134,-1.962,-1.401,0
03/21/2025 10:29:48.735,0.713456,0.66856,0.10492,10.78,1.575,-10.43,-1.134,-1.962,-1.401,0
03/21/2025 10:29:48.755,0.677588,0.680516,0.07686,3.675,2.94,-7,-1.143,-1.962,-1.395,0
03/21/2025 10:29:48.775,0.688568,0.653676,0.0915,1.715,3.325,-6.895,-1.1325,-1.998,-1.3995,0
03/21/2025 10:29:48.795,0.703452,0.656116,0.087596,1.89,3.955,-7.665,-1.1085,-1.947,-1.4115,0
03/21/2025 10:29:48.815,0.682712,0.654896,0.075396,7.63,3.395,-7,-1.1175,-1.977,-1.4355,0
03/21/2025 10:29:48.835,0.665876,0.658312,0.066124,15.575,2.975,-5.565,-1.104,-1.989,-1.41,0
03/21/2025 10:29:48.855,0.681004,0.718824,0.078812,21.595,0.91,-5.425,-1.1085,-1.9725,-1.4205,0
03/21/2025 10:29:48.875,0.72834,0.7381,0.068076,16.135,0.7,-3.01,-1.128,-1.9785,-1.395,0
03/21/2025 10:29:48.895,0.731756,0.779092,0.036844,5.18,2.485,-1.54,-1.119,-1.9785,-1.3995,0
03/21/2025 10:29:48.915,0.66856,0.722484,0.040016,-13.055,4.41,2.555,-1.113,-1.962,-1.416,0
03/21/2025 10:29:48.935,0.677344,0.64538,0.024644,-14.35,3.185,2.205,-1.1235,-1.9665,-1.4355,0
03/21/2025 10:29:48.955,0.706868,0.720776,0.03416,-1.26,0.175,1.19,-1.128,-1.983,-1.3995,0
03/21/2025 10:29:48.975,0.693692,0.788852,0.0305,5.705,-1.925,1.26,-1.113,-1.983,-1.4055,0
03/21/2025 10:29:48.995,0.687348,0.731756,0.00488,1.855,-2.59,1.19,-1.113,-1.9785,-1.416,0
03/21/2025 10:29:49.015,0.716872,0.726632,0.024888,-0.07,-3.57,-1.54,-1.1295,-1.941,-1.4115,0
03/21/2025 10:29:49.035,0.731268,0.719068,0.03172,2.8,-5.32,-2.695,-1.104,-1.9725,-1.4265,0
03/21/2025 10:29:49.055,0.693936,0.705404,0.013908,9.45,-5.565,-2.59,-1.119,-1.947,-1.431,0
03/21/2025 10:29:49.075,0.669048,0.770064,0.041236,13.51,-6.3,-3.29,-1.119,-1.947,-1.431,0
03/21/2025 10:29:49.095,0.720776,0.750056,0.05002,8.12,-7.84,-3.675,-1.098,-1.9725,-1.41,0
03/21/2025 10:29:49.115,0.72102,0.724436,0.055388,2.66,-9.03,-3.115,-1.1085,-1.989,-1.4055,0
03/21/2025 10:29:49.135,0.725168,0.738344,0.080032,6.755,-11.41,-2.24,-1.113,-1.968,-1.41,0
03/21/2025 10:29:49.155,0.703452,0.775188,0.095892,12.705,-11.48,-3.57,-1.134,-1.9785,-1.3995,0
03/21/2025 10:29:49.175,0.704184,0.76616,0.09857599,16.1,-10.045,-6.79,-1.134,-1.983,-1.389,0
03/21/2025 10:29:49.195,0.758352,0.790072,0.084912,16.59,-7.84,-8.225,-1.1025,-2.0145,-1.3935,0
03/21/2025 10:29:49.215,0.801784,0.88572,0.068808,6.545,-5.005,-7.525,-1.137,-2.013,-1.419,0
03/21/2025 10:29:49.235,0.715408,0.902556,0.043676,-15.19,0.245,-9.94,-1.128,-2.004,-1.3635,0
03/21/2025 10:29:49.255,0.720044,0.792268,0.022692,-10.43,-1.19,-17.22,-1.1175,-2.0145,-1.3845,0
03/21/2025 10:29:49.275,0.771772,0.847656,-0.001708,15.47,-6.265,-22.26,-1.128,-2.04,-1.3875,0
03/21/2025 10:29:49.295,0.719312,0.9516,-0.005856,33.32,-9.205,-22.54,-1.1085,-2.0355,-1.3635,0
03/21/2025 10:29:49.315,0.771772,1.045784,0.000976,26.425,-10.465,-25.235,-1.1325,-2.031,-1.3635,0
03/21/2025 10:29:49.335,0.83204,1.106296,0.01586,8.155,-8.4,-32.305,-1.113,-2.0565,-1.368,0
03/21/2025 10:29:49.355,0.732732,1.037976,0.059292,-7.49,-2.485,-39.97,-1.1175,-2.082,-1.3455,0
03/21/2025 10:29:49.375,0.604876,0.788608,0.033672,-9.38,2.415,-49.105,-1.1415,-2.0985,-1.32,0
03/21/2025 10:29:49.395,0.649284,0.694424,0.075884,14.875,-1.33,-59.01,-1.1115,-2.1075,-1.356,0
03/21/2025 10:29:49.415,0.682224,0.85034,0.101504,37.87,-6.195,-62.65,-1.1115,-2.1075,-1.356,0
03/21/2025 10:29:49.435,0.6832,0.945988,0.074908,34.825,-5.775,-61.25,-1.1115,-2.1495,-1.35,0
03/21/2025 10:29:49.455,0.708332,0.974292,0.033916,18.83,0.245,-61.355,-1.101,-2.181,-1.3335,0
03/21/2025 10:29:49.475,0.681736,1.075796,0.060024,-11.305,9.625,-62.93,-1.095,-2.2065,-1.323,0
03/21/2025 10:29:49.495,0.63806,1.02968,0.085156,-33.495,16.17,-68.425,-1.086,-2.244,-1.317,0
03/21/2025 10:29:49.515,0.643428,0.855952,0.048312,-25.025,15.715,-73.01,-1.0695,-2.265,-1.317,0
03/21/2025 10:29:49.535,0.649528,1.042368,0.06466,2.73,10.71,-74.69,-1.065,-2.301,-1.311,0
03/21/2025 10:29:49.555,0.632204,1.103368,0.046116,-2.45,8.505,-76.755,-1.059,-2.3265,-1.32,0
03/21/2025 10:29:49.575,0.575596,1.08214,0.05734,-9.135,12.775,-79.52,-1.0335,-2.4045,-1.314,0
03/21/2025 10:29:49.595,0.537288,0.911828,0.143716,-0.595,14.77,-85.295,-1.017,-2.436,-1.3185,0
03/21/2025 10:29:49.615,0.558516,0.929396,0.200812,24.57,14.98,-91.07,-1.026,-2.496,-1.332,0
03/21/2025 10:29:49.635,0.501908,1.071892,0.200812,29.89,16.205,-92.19,-0.9465,-2.5455,-1.3215,0
03/21/2025 10:29:49.655,0.462868,1.031144,0.12322,4.06,21.98,-87.5,-0.9315,-2.565,-1.3305,0
03/21/2025 10:29:49.675,0.447008,0.89914,0.120292,-16.52,28.945,-86.03,-0.945,-2.628,-1.314,0
03/21/2025 10:29:49.695,0.42334,0.850828,0.178852,-2.87,32.76,-88.235,-0.8805,-2.637,-1.365,0
03/21/2025 10:29:49.715,0.332816,0.8662,0.138348,11.9,36.19,-87.955,-0.8745,-2.679,-1.3545,0
03/21/2025 10:29:49.735,0.2623,0.94184,0.123952,10.99,37.03,-86.695,-0.819,-2.727,-1.344,0
03/21/2025 10:29:49.755,0.321348,0.902068,0.123708,-2.17,38.57,-86.765,-0.819,-2.727,-1.344,0
03/21/2025 10:29:49.775,0.267668,0.800076,0.105408,-12.005,44.45,-85.225,-0.7845,-2.7435,-1.338,0
03/21/2025 10:29:49.795,0.13908,0.729804,0.190564,-2.1,45.815,-82.285,-0.7635,-2.7945,-1.353,0
03/21/2025 10:29:49.815,0.171288,0.956236,0.124928,8.085,46.025,-78.19,-0.723,-2.8305,-1.398,0
03/21/2025 10:29:49.835,0.2074,0.927688,0.1891,-9.765,47.39,-78.925,-0.6675,-2.8725,-1.4085,0
03/21/2025 10:29:49.855,0.144692,0.74176,0.000732,-24.395,54.005,-79.17,-0.6435,-2.8665,-1.413,0
03/21/2025 10:29:49.875,-0.003904,0.818132,-0.068808,-3.185,51.765,-71.61,-0.6075,-2.877,-1.44,0
03/21/2025 10:29:49.895,-0.029524,0.772992,-0.05612,-2.135,48.58,-62.93,-0.513,-2.9565,-1.464,0
03/21/2025 10:29:49.915,-0.061244,0.82472,0.015372,-0.595,47.005,-54.53,-0.477,-2.94,-1.491,0
03/21/2025 10:29:49.935,-0.040992,0.765428,0.024156,-4.2,45.395,-49.63,-0.423,-2.967,-1.4805,0
03/21/2025 10:29:49.955,-0.033916,0.773236,0.020984,-6.545,46.27,-44.835,-0.4125,-2.9715,-1.5105,0
03/21/2025 10:29:49.975,-0.076128,0.763476,0.01708,-5.775,47.215,-38.01,-0.402,-2.982,-1.506,0
03/21/2025 10:29:49.995,-0.205936,0.674172,-0.033184,1.855,44.835,-32.62,-0.363,-2.9925,-1.527,0
03/21/2025 10:29:50.015,-0.132736,0.687836,0.051484,11.69,37.87,-32.13,-0.348,-3.0195,-1.521,0
03/21/2025 10:29:50.035,-0.130052,0.856928,-0.008052,15.995,39.62,-29.085,-0.3135,-3.015,-1.506,0
03/21/2025 10:29:50.055,-0.119072,0.667096,-0.101748,-12.495,41.965,-24.815,-0.3135,-3.015,-1.5105,0
03/21/2025 10:29:50.075,-0.177144,0.720288,-0.174704,-14.945,39.48,-15.68,-0.3075,-3.024,-1.536,0
03/21/2025 10:29:50.095,-0.21472,0.776896,-0.177388,-11.935,30.45,-1.645,-0.3075,-3.024,-1.536,0
03/21/2025 10:29:50.115,-0.173972,0.829844,-0.133468,-7.665,20.16,8.575,-0.2685,-3.015,-1.563,0
03/21/2025 10:29:50.135,-0.226432,0.743956,-0.081984,-3.115,15.785,12.32,-0.2775,-3.03,-1.521,0
03/21/2025 10:29:50.155,-0.165188,0.775432,-0.054168,4.305,15.33,8.435,-0.267,-3.0135,-1.578,0
03/21/2025 10:29:50.175,-0.170312,0.964776,-0.178852,4.305,20.58,9.94,-0.258,-3.051,-1.5165,0
03/21/2025 10:29:50.195,-0.177144,0.768356,-0.115656,-35.35,18.935,13.44,-0.2775,-3.015,-1.5375,0
03/21/2025 10:29:50.215,-0.192516,0.651968,-0.121268,-25.795,12.67,17.395,-0.3075,-3.009,-1.557,0
03/21/2025 10:29:50.235,-0.169336,0.855952,-0.1708,7.91,3.99,25.935,-0.288,-3.0135,-1.5885,0
03/21/2025 10:29:50.255,-0.087108,1.241228,-0.107604,15.26,-4.76,32.585,-0.3075,-2.9985,-1.5375,0
03/21/2025 10:29:50.275,-0.095404,1.10532,-0.050996,-14.875,-5.145,28.49,-0.333,-2.9925,-1.5735,0
03/21/2025 10:29:50.295,-0.098332,0.890844,-0.043432,-21.875,-4.935,25.34,-0.3435,-2.9775,-1.5375,0
03/21/2025 10:29:50.315,-0.119804,1.051152,-0.058316,-0.525,-7.91,26.915,-0.357,-2.976,-1.5735,0
03/21/2025 10:29:50.335,-0.099308,1.186328,-0.00976,7.315,-10.92,26.845,-0.357,-2.976,-1.5825,0
03/21/2025 10:29:50.355,-0.064416,1.12118,0.062708,-2.135,-11.095,21.595,-0.3975,-2.97,-1.5675,0
03/21/2025 10:29:50.375,-0.072712,1.024556,0.09076799,-11.935,-8.61,16.065,-0.3975,-2.9565,-1.5375,0
03/21/2025 10:29:50.395,-0.100284,0.95892,0.028792,-7.91,-5.74,14,-0.426,-2.9745,-1.5825,0
03/21/2025 10:29:50.415,-0.072224,0.944768,0.0244,3.85,-7.07,16.625,-0.4275,-2.97,-1.572,0
03/21/2025 10:29:50.435,-0.02074,1.150216,0.058316,7.14,-11.2,22.015,-0.4275,-2.97,-1.572,0
03/21/2025 10:29:50.455,0.023424,1.126548,0.085644,-13.335,-10.675,22.085,-0.393,-2.9355,-1.5585,0
03/21/2025 10:29:50.475,-0.027816,1.089948,0.076128,-38.57,-5.145,19.11,-0.4185,-2.9355,-1.5375,0
03/21/2025 10:29:50.495,-0.063684,0.841068,0.058316,-39.655,-6.09,16.625,-0.462,-2.9385,-1.572,0
03/21/2025 10:29:50.515,-0.012688,0.913048,0.108336,16.275,-10.675,17.99,-0.462,-2.9385,-1.572,0
03/21/2025 10:29:50.535,0.015128,1.1956,0.097844,27.895,-12.285,20.405,-0.492,-2.907,-1.5675,0
03/21/2025 10:29:50.555,0.077592,1.13094,0.113948,-9.52,-9.94,17.08,-0.501,-2.9475,-1.5765,0
03/21/2025 10:29:50.575,0.01708,0.899872,0.12566,-39.375,-4.13,13.195,-0.5025,-2.8815,-1.563,0
03/21/2025 10:29:50.595,-0.033672,0.803492,0.08686399,-30.38,-4.095,16.765,-0.522,-2.9055,-1.6245,0
03/21/2025 10:29:50.615,0.01464,0.960628,0.126392,-6.23,-10.955,22.715,-0.5415,-2.895,-1.5885,0
03/21/2025 10:29:50.635,0.071492,1.054324,0.157624,0.91,-11.515,21.525,-0.5265,-2.9115,-1.5975,0
03/21/2025 10:29:50.655,0.074176,1.075552,0.141764,-5.845,-7.455,16.59,-0.543,-2.8485,-1.59,0
03/21/2025 10:29:50.675,0.039528,0.978928,0.117852,-8.96,-4.235,13.405,-0.5565,-2.8755,-1.5735,0
03/21/2025 10:29:50.695,0.050996,0.986736,0.124196,2.135,-5.88,12.25,-0.5475,-2.874,-1.599,0
03/21/2025 10:29:50.715,0.048556,1.008452,0.164212,12.46,-8.365,13.335,-0.576,-2.8845,-1.6035,0
03/21/2025 10:29:50.735,0.081984,1.065304,0.222284,10.185,-8.855,13.965,-0.591,-2.88,-1.572,0
03/21/2025 10:29:50.755,0.07124799,1.022604,0.215208,-5.285,-2.695,11.235,-0.597,-2.853,-1.5885,0
03/21/2025 10:29:50.775,0.032208,1.009916,0.157136,-10.92,3.43,12.6,-0.597,-2.853,-1.5885,0
03/21/2025 10:29:50.795,0.061,0.958432,0.149084,-9.345,4.69,14.175,-0.582,-2.8545,-1.5585,0
03/21/2025 10:29:50.815,0.162016,1.065548,0.1586,0.665,1.925,11.795,-0.5715,-2.859,-1.599,0
03/21/2025 10:29:50.835,0.122,1.000888,0.114436,-5.635,2.87,9.555,-0.5715,-2.859,-1.599,0
03/21/2025 10:29:50.855,0.078324,0.904264,0.114192,-6.405,2.94,11.095,-0.618,-2.817,-1.563,0
03/21/2025 10:29:50.875,0.090036,1.009184,0.168604,4.27,1.995,11.795,-0.603,-2.8335,-1.563,0
03/21/2025 10:29:50.895,0.112972,1.008208,0.142252,2.765,5.6,8.925,-0.618,-2.817,-1.5735,0
03/21/2025 10:29:50.915,0.134444,0.948428,0.111996,-3.08,8.155,8.855,-0.627,-2.802,-1.5795,0
03/21/2025 10:29:50.935,0.1159,0.959164,0.108092,-1.785,7.175,13.475,-0.627,-2.8125,-1.5735,0
03/21/2025 10:29:50.955,0.0915,1.039684,0.13298,-3.15,3.71,16.835,-0.6225,-2.811,-1.5945,0
03/21/2025 10:29:50.975,0.117608,1.011868,0.11956,-10.955,2.765,15.785,-0.6375,-2.838,-1.5675,0
03/21/2025 10:29:50.995,0.15982,0.991372,0.092476,-13.195,3.92,13.055,-0.6525,-2.796,-1.5645,0
03/21/2025 10:29:51.015,0.119804,0.98942,0.085156,-8.26,7.49,11.375,-0.642,-2.796,-1.59,0
03/21/2025 10:29:51.035,0.141764,0.976488,0.099064,-1.96,4.48,10.64,-0.657,-2.796,-1.5585,0
03/21/2025 10:29:51.055,0.140788,1.008208,0.102724,-0.525,1.61,12.145,-0.6675,-2.7795,-1.5795,0
03/21/2025 10:29:51.075,0.11956,1.031632,0.10126,-3.57,0.525,12.95,-0.6675,-2.8005,-1.599,0
03/21/2025 10:29:51.095,0.138348,1.002108,0.113216,-7.14,0.42,11.76,-0.6675,-2.79,-1.5945,0
03/21/2025 10:29:51.115,0.153232,1.0126,0.127124,-3.64,0.35,11.375,-0.6675,-2.79,-1.5945,0
03/21/2025 10:29:51.135,0.159332,1.025776,0.115168,-1.33,-0.315,10.045,-0.663,-2.7645,-1.6155,0
03/21/2025 10:29:51.155,0.143228,1.04798,0.108336,-4.235,-0.735,10.045,-0.663,-2.7645,-1.6155,0
03/21/2025 10:29:51.175,0.158844,1.041636,0.128344,-10.325,-2.135,9.8,-0.678,-2.7495,-1.5855,0
03/21/2025 10:29:51.195,0.164944,0.969412,0.138104,-17.115,-1.225,8.26,-0.678,-2.7645,-1.5945,0
03/21/2025 10:29:51.215,0.14152,0.94184,0.143716,-10.78,1.085,6.3,-0.702,-2.754,-1.575,0
03/21/2025 10:29:51.235,0.160552,0.991616,0.125172,1.085,0.77,6.16,-0.702,-2.7855,-1.5735,0
03/21/2025 10:29:51.255,0.18544,1.023824,0.116632,0.21,-1.155,6.895,-0.6975,-2.7435,-1.59,0
03/21/2025 10:29:51.275,0.185196,1.030656,0.1403,-6.195,-3.395,8.015,-0.6975,-2.712,-1.5915,0
03/21/2025 10:29:51.295,0.181292,0.993324,0.148596,-12.075,-4.235,6.475,-0.693,-2.7375,-1.596,0
03/21/2025 10:29:51.315,0.164944,0.940132,0.15494,-9.975,-2.555,3.36,-0.708,-2.7225,-1.611,0
03/21/2025 10:29:51.335,0.144204,0.972096,0.16836,1.33,-2.73,2.73,-0.6825,-2.733,-1.6065,0
03/21/2025 10:29:51.355,0.172264,1.01016,0.170312,7.28,-4.375,3.15,-0.717,-2.748,-1.584,0
03/21/2025 10:29:51.375,0.17324,1.096292,0.137616,4.445,-1.54,2.66,-0.7125,-2.7435,-1.59,0
03/21/2025 10:29:51.395,0.1952,1.12728,0.128344,-6.755,0.49,0.28,-0.708,-2.7375,-1.59,0
03/21/2025 10:29:51.415,0.19886,1.003328,0.110044,-18.515,0.28,-1.925,-0.717,-2.7315,-1.605,0
03/21/2025 10:29:51.435,0.198128,0.973804,0.132248,-13.44,-2.485,-3.255,-0.6885,-2.7375,-1.59,0
03/21/2025 10:29:51.455,0.150792,1.003328,0.17324,-1.575,-7.07,-3.36,-0.6885,-2.7375,-1.59,0
03/21/2025 10:29:51.475,0.140788,0.975268,0.165188,-0.98,-6.895,-3.255,-0.6885,-2.7375,-1.59,0
03/21/2025 10:29:51.495,0.171776,1.052616,0.189588,1.19,-4.83,-3.255,-0.6975,-2.7375,-1.596,0
03/21/2025 10:29:51.515,0.183732,1.04554,0.186172,-3.99,-1.33,-7.14,-0.6975,-2.712,-1.611,0
03/21/2025 10:29:51.535,0.160796,0.954284,0.146156,-5.53,0.56,-10.535,-0.6825,-2.7585,-1.5945,0
03/21/2025 10:29:51.555,0.132492,0.8906,0.116144,6.685,-1.015,-9.24,-0.6885,-2.7375,-1.596,0
03/21/2025 10:29:51.575,0.172752,0.975512,0.134444,15.435,-7,-6.125,-0.693,-2.727,-1.626,0
03/21/2025 10:29:51.595,0.202276,0.92964,0.17568,7.28,-8.75,-5.04,-0.6825,-2.7375,-1.596,0
03/21/2025 10:29:51.615,0.15128,0.902068,0.218868,1.19,-7.105,-1.995,-0.678,-2.739,-1.596,0
03/21/2025 10:29:51.635,0.115168,0.901824,0.22082,-2.275,-5.67,1.05,-0.663,-2.76,-1.575,0
03/21/2025 10:29:51.655,0.14884,0.886696,0.252296,-2.45,-3.185,1.365,-0.7125,-2.7435,-1.59,0
03/21/2025 10:29:51.675,0.151768,0.972828,0.221552,0.84,0.84,3.815,-0.6735,-2.748,-1.596,0
03/21/2025 10:29:51.695,0.17812,0.97722,0.195932,-3.955,2.17,3.535,-0.6825,-2.754,-1.59,0
03/21/2025 10:29:51.715,0.162016,0.893772,0.183732,-2.87,4.375,0.28,-0.678,-2.7645,-1.5795,0
03/21/2025 10:29:51.735,0.174948,0.93574,0.1891,8.26,3.29,-0.595,-0.693,-2.739,-1.5705,0
03/21/2025 10:29:51.755,0.142252,0.94184,0.179096,7.14,1.645,2.8,-0.687,-2.7645,-1.6005,0
03/21/2025 10:29:51.775,0.142252,0.967216,0.169824,0.14,2.555,7.28,-0.672,-2.748,-1.6005,0
03/21/2025 10:29:51.795,0.138592,0.985028,0.152012,-1.61,4.83,6.125,-0.672,-2.748,-1.6005,0
03/21/2025 10:29:51.815,0.18666,0.946232,0.114436,-1.26,7.07,3.815,-0.708,-2.7375,-1.5855,0
03/21/2025 10:29:51.835,0.186172,0.993568,0.112728,2.24,6.65,2.625,-0.6975,-2.7495,-1.575,0
03/21/2025 10:29:51.855,0.160796,0.960384,0.099796,-1.82,3.885,4.725,-0.6825,-2.754,-1.605,0
03/21/2025 10:29:51.875,0.156648,0.94062,0.126392,-3.92,0.35,7.665,-0.678,-2.769,-1.6005,0
03/21/2025 10:29:51.895,0.171776,0.997472,0.146888,-2.59,-1.575,8.505,-0.693,-2.7435,-1.5855,0
03/21/2025 10:29:51.915,0.188856,0.979172,0.139324,-2.8,-0.595,6.965,-0.6885,-2.733,-1.596,0
03/21/2025 10:29:51.935,0.161772,0.979416,0.135908,0.35,1.33,5.775,-0.693,-2.733,-1.581,0
03/21/2025 10:29:51.955,0.177144,0.98332,0.127612,0.91,0.98,6.09,-0.7035,-2.718,-1.581,0
03/21/2025 10:29:51.975,0.1708,0.990152,0.124928,-4.235,-0.525,7.84,-0.7035,-2.754,-1.5495,0
03/21/2025 10:29:51.995,0.19154,0.982344,0.155428,-8.26,-2.835,8.995,-0.7035,-2.712,-1.596,0
03/21/2025 10:29:52.015,0.192028,0.969168,0.1708,-5.215,-2.59,7.735,-0.708,-2.712,-1.5855,0
03/21/2025 10:29:52.035,0.19642,0.992836,0.190564,-0.175,-0.42,5.285,-0.717,-2.733,-1.59,0
03/21/2025 10:29:52.055,0.181048,0.989176,0.173972,3.395,0.63,5.11,-0.663,-2.7495,-1.59,0
03/21/2025 10:29:52.075,0.184464,1.007232,0.160796,1.75,1.26,4.935,-0.693,-2.697,-1.6125,0
03/21/2025 10:29:52.095,0.204716,0.96746,0.175192,2.31,0.07,6.3,-0.693,-2.697,-1.6125,0
03/21/2025 10:29:52.115,0.191052,1.030168,0.190808,5.635,-1.155,7.42,-0.7335,-2.7225,-1.5645,0
03/21/2025 10:29:52.135,0.219112,1.017968,0.192516,1.995,1.12,3.99,-0.708,-2.712,-1.575,0
03/21/2025 10:29:52.155,0.209352,0.999424,0.182756,-1.365,4.935,0.7,-0.7185,-2.7015,-1.5915,0
03/21/2025 10:29:52.175,0.188856,0.962336,0.153476,-2.205,5.565,1.89,-0.723,-2.712,-1.6005,0
03/21/2025 10:29:52.195,0.192028,0.978684,0.155428,-1.75,3.955,3.08,-0.708,-2.712,-1.596,0
03/21/2025 10:29:52.215,0.219844,0.983808,0.173484,-2.135,2.59,3.045,-0.7185,-2.712,-1.596,0
03/21/2025 10:29:52.235,0.230092,0.958188,0.178608,-2.065,3.465,1.365,-0.7035,-2.739,-1.575,0
03/21/2025 10:29:52.255,0.187392,0.963556,0.14762,0.84,5.215,0.105,-0.7275,-2.712,-1.6005,0
03/21/2025 10:29:52.275,0.17446,0.957212,0.137372,3.99,4.34,0.42,-0.7035,-2.7375,-1.5855,0
03/21/2025 10:29:52.295,0.194956,0.946232,0.13176,3.395,3.185,1.89,-0.7335,-2.712,-1.5855,0
03/21/2025 10:29:52.315,0.223504,0.976732,0.149328,0.84,1.645,4.27,-0.7185,-2.7225,-1.5855,0
03/21/2025 10:29:52.335,0.217892,0.980636,0.144692,-6.72,2.205,5.075,-0.7275,-2.712,-1.596,0
03/21/2025 10:29:52.355,0.204472,0.948428,0.135176,-8.995,3.99,3.78,-0.732,-2.7105,-1.611,0
03/21/2025 10:29:52.375,0.165188,0.962092,0.115656,-5.67,4.725,2.94,-0.723,-2.7225,-1.6005,0
03/21/2025 10:29:52.395,0.201056,0.9699,0.109556,0.91,1.435,1.82,-0.738,-2.7015,-1.5915,0
03/21/2025 10:29:52.415,0.226676,0.969412,0.149816,4.97,-1.365,1.12,-0.738,-2.7015,-1.5915,0
03/21/2025 10:29:52.435,0.2135,0.98576,0.132004,1.995,-0.315,0.98,-0.738,-2.7015,-1.5915,0
03/21/2025 10:29:52.455,0.189344,0.949892,0.12566,-1.715,0.21,1.925,-0.723,-2.6865,-1.596,0
03/21/2025 10:29:52.475,0.182024,0.9455,0.14518,-1.05,-1.295,3.745,-0.732,-2.7375,-1.5945,0
03/21/2025 10:29:52.495,0.207156,0.974536,0.166896,3.57,-3.57,3.57,-0.7275,-2.7165,-1.6005,0
03/21/2025 10:29:52.515,0.216916,0.99308,0.170312,5.495,-3.71,2.905,-0.714,-2.7015,-1.5855,0
03/21/2025 10:29:52.535,0.229116,1.005524,0.201788,2.975,-2.065,1.085,-0.7275,-2.7225,-1.596,0
03/21/2025 10:29:52.555,0.21106,1.014064,0.172996,-0.035,0.77,-1.015,-0.738,-2.7075,-1.5645,0
03/21/2025 10:29:52.575,0.205448,0.976976,0.161772,-2.59,1.015,-0.7,-0.7185,-2.706,-1.611,0
03/21/2025 10:29:52.595,0.184952,0.965996,0.172752,0.035,-0.28,1.75,-0.7335,-2.7165,-1.59,0
03/21/2025 10:29:52.615,0.216916,0.994544,0.192028,6.125,-1.925,1.925,-0.7275,-2.7225,-1.59,0
03/21/2025 10:29:52.635,0.227408,1.012112,0.194468,6.72,-0.49,-0.14,-0.7365,-2.742,-1.5945,0
03/21/2025 10:29:52.655,0.210572,0.9577,0.167872,1.82,3.01,-1.925,-0.747,-2.7165,-1.6005,0
03/21/2025 10:29:52.675,0.191052,0.963068,0.164456,-0.875,4.83,-1.05,-0.7335,-2.6955,-1.6065,0
03/21/2025 10:29:52.695,0.199592,0.950136,0.149084,-1.47,3.045,-0.35,-0.747,-2.721,-1.596,0
03/21/2025 10:29:52.715,0.197152,0.931836,0.126392,2.485,2.555,-0.525,-0.7275,-2.7015,-1.581,0
03/21/2025 10:29:52.735,0.21106,1.005036,0.146888,8.61,1.68,0.455,-0.7275,-2.7015,-1.581,0
03/21/2025 10:29:52.755,0.206912,1.013332,0.134932,-0.945,2.765,0.595,-0.7275,-2.7015,-1.581,0
03/21/2025 10:29:52.775,0.1708,0.915488,0.13298,-8.505,4.76,0.07,-0.732,-2.7465,-1.6155,0
03/21/2025 10:29:52.795,0.18178,0.897676,0.13176,-4.41,3.5,0.91,-0.7125,-2.691,-1.6065,0
03/21/2025 10:29:52.815,0.186172,0.919392,0.120292,4.13,1.82,2.17,-0.7425,-2.7165,-1.59,0
03/21/2025 10:29:52.835,0.22082,1.004304,0.121756,11.2,-0.735,2.135,-0.7275,-2.721,-1.6155,0
03/21/2025 10:29:52.855,0.203984,0.989664,0.132004,7.035,-0.56,1.47,-0.7575,-2.712,-1.575,0
03/21/2025 10:29:52.875,0.208376,0.981124,0.122,1.365,0.175,1.925,-0.762,-2.721,-1.6005,0
03/21/2025 10:29:52.895,0.207644,0.956968,0.131272,-3.5,0.84,2.345,-0.7575,-2.7015,-1.554,0
03/21/2025 10:29:52.915,0.199592,0.931592,0.137372,-4.13,0.595,4.2,-0.747,-2.706,-1.6005,0
03/21/2025 10:29:52.935,0.198616,0.898896,0.150304,-2.17,-0.14,5.11,-0.7275,-2.706,-1.596,0
03/21/2025 10:29:52.955,0.201788,0.88694,0.150304,3.15,-0.315,5.285,-0.753,-2.7015,-1.5645,0
03/21/2025 10:29:52.975,0.213256,0.915244,0.141764,6.195,-0.525,6.895,-0.7575,-2.7165,-1.5795,0
03/21/2025 10:29:52.995,0.220576,0.94184,0.146888,2.625,-0.875,9.555,-0.7425,-2.7225,-1.575,0
03/21/2025 10:29:53.015,0.225944,0.944524,0.15738,-1.82,-0.175,10.115,-0.747,-2.7165,-1.5855,0
03/21/2025 10:29:53.035,0.23058,0.966728,0.13298,-1.68,0.805,9.065,-0.753,-2.712,-1.575,0
03/21/2025 10:29:53.055,0.219112,0.976488,0.137372,3.605,0.7,7.315,-0.753,-2.712,-1.575,0
03/21/2025 10:29:53.075,0.230824,0.995032,0.134688,4.585,-0.77,8.54,-0.753,-2.712,-1.575,0
03/21/2025 10:29:53.095,0.2257,0.976976,0.142496,0.665,-1.225,10.01,-0.7875,-2.706,-1.59,0
03/21/2025 10:29:53.115,0.244976,0.9577,0.138592,-0.49,0.035,9.625,-0.783,-2.67,-1.575,0
03/21/2025 10:29:53.135,0.252784,0.974536,0.125416,-0.07,1.05,8.54,-0.753,-2.697,-1.5645,0
03/21/2025 10:29:53.155,0.239364,0.965508,0.126392,-1.225,0.84,9.695,-0.783,-2.7015,-1.5645,0
03/21/2025 10:29:53.175,0.23546,1.004304,0.127124,0.91,-0.805,9.8,-0.7725,-2.691,-1.575,0
03/21/2025 10:29:53.195,0.264252,0.99186,0.144936,-1.26,-0.84,6.93,-0.792,-2.6745,-1.6065,0
03/21/2025 10:29:53.215,0.278404,0.964044,0.121024,-0.735,0.385,6.65,-0.783,-2.676,-1.5555,0
03/21/2025 10:29:53.235,0.250832,0.97722,0.116144,-0.14,0.525,7.98,-0.798,-2.691,-1.575,0
03/21/2025 10:29:53.255,0.253028,0.985028,0.124196,-0.525,-1.365,8.295,-0.804,-2.6655,-1.5555,0
03/21/2025 10:29:53.275,0.258884,0.95648,0.130052,-1.19,-2.31,7.385,-0.8085,-2.6805,-1.5705,0
03/21/2025 10:29:53.295,0.273524,0.968436,0.138836,2.31,-2.905,7.28,-0.789,-2.6655,-1.566,0
03/21/2025 10:29:53.315,0.265228,0.982588,0.146156,3.85,-1.12,5.075,-0.8175,-2.6805,-1.5345,0
03/21/2025 10:29:53.335,0.266692,0.982344,0.139324,2.415,0.455,3.99,-0.7635,-2.655,-1.587,0
03/21/2025 10:29:53.355,0.275964,0.94184,0.1342,-3.045,0.28,4.97,-0.7785,-2.6715,-1.53,0
03/21/2025 10:29:53.375,0.266692,0.962824,0.141764,-1.82,-1.89,8.47,-0.7785,-2.6715,-1.53,0
03/21/2025 10:29:53.395,0.250832,0.945256,0.136396,-0.595,-1.61,7.735,-0.8235,-2.6505,-1.53,0
03/21/2025 10:29:53.415,0.28792,0.976244,0.14884,0.77,-1.61,6.86,-0.8085,-2.655,-1.5555,0
03/21/2025 10:29:53.435,0.278404,0.942816,0.139324,-1.47,0.91,5.39,-0.804,-2.634,-1.566,0
03/21/2025 10:29:53.455,0.253272,0.915488,0.126148,-0.49,1.645,5.355,-0.8085,-2.634,-1.5405,0
03/21/2025 10:29:53.475,0.272792,0.952576,0.110532,1.75,-0.63,8.295,-0.819,-2.619,-1.551,0
03/21/2025 10:29:53.495,0.302316,0.983808,0.123708,-0.455,-2.555,8.715,-0.813,-2.634,-1.5555,0
03/21/2025 10:29:53.515,0.310612,0.994788,0.109312,-1.96,-2.24,7.56,-0.858,-2.628,-1.56,0
03/21/2025 10:29:53.535,0.286212,0.967948,0.116876,-2.695,-0.35,5.53,-0.8325,-2.643,-1.566,0
03/21/2025 10:29:53.555,0.30622,0.966728,0.133224,-3.745,-0.84,4.795,-0.8385,-2.6235,-1.5555,0
03/21/2025 10:29:53.575,0.295972,0.941352,0.13176,-3.605,-0.14,4.655,-0.834,-2.6175,-1.5615,0
03/21/2025 10:29:53.595,0.283772,0.95038,0.135908,-0.98,-1.085,5.11,-0.8385,-2.643,-1.5765,0
03/21/2025 10:29:53.615,0.311588,0.949892,0.154208,0.28,-2.94,4.9,-0.8385,-2.598,-1.551,0
03/21/2025 10:29:53.635,0.316956,0.939888,0.157624,0.77,-2.345,3.955,-0.858,-2.6175,-1.5555,0
03/21/2025 10:29:53.655,0.30622,0.934764,0.157136,2.38,-1.75,4.34,-0.819,-2.6235,-1.53,0
03/21/2025 10:29:53.675,0.303292,0.917928,0.176656,1.05,-1.715,5.635,-0.849,-2.619,-1.53,0
03/21/2025 10:29:53.695,0.30866,0.921344,0.182756,2.31,-1.015,7.28,-0.849,-2.619,-1.53,0
03/21/2025 10:29:53.715,0.302316,0.920124,0.163968,4.305,0.665,5.215,-0.849,-2.619,-1.53,0
03/21/2025 10:29:53.735,0.317444,0.949404,0.156404,7.35,1.575,5.425,-0.834,-2.607,-1.5555,0
03/21/2025 10:29:53.755,0.31964,0.9516,0.138592,2.24,3.045,6.545,-0.849,-2.6295,-1.5195,0
03/21/2025 10:29:53.775,0.311832,0.949404,0.132492,-2.87,3.605,7.735,-0.864,-2.577,-1.536,0
03/21/2025 10:29:53.795,0.31964,0.964044,0.150548,-3.57,3.08,8.295,-0.87,-2.577,-1.536,0
03/21/2025 10:29:53.815,0.306952,0.925492,0.141276,-8.925,4.655,6.37,-0.8445,-2.592,-1.536,0
03/21/2025 10:29:53.835,0.297436,0.880352,0.131516,-8.12,5.705,7.455,-0.864,-2.6175,-1.5405,0
03/21/2025 10:29:53.855,0.303536,0.870592,0.134932,-7.07,4.935,9.975,-0.8745,-2.571,-1.542,0
03/21/2025 10:29:53.875,0.302316,0.864736,0.125904,-12.495,4.62,14.21,-0.8745,-2.592,-1.5405,0
03/21/2025 10:29:53.895,0.33916,0.84424,0.105164,-26.6,5.425,20.195,-0.888,-2.5905,-1.572,0
03/21/2025 10:29:53.915,0.294752,0.807396,0.071004,-38.85,6.86,29.54,-0.8745,-2.55,-1.572,0
03/21/2025 10:29:53.935,0.315736,0.721508,0.056852,-39.305,3.43,38.185,-0.8835,-2.5695,-1.5765,0
03/21/2025 10:29:53.955,0.321104,0.670024,0.0671,-25.13,-1.33,44.485,-0.9,-2.508,-1.584,0
03/21/2025 10:29:53.975,0.353068,0.741516,0.150548,-9.8,-7.63,48.93,-0.9105,-2.481,-1.599,0
03/21/2025 10:29:53.995,0.39406,0.713456,0.109312,-8.47,-8.435,49.595,-0.915,-2.4555,-1.6005,0
03/21/2025 10:29:54.015,0.44652,0.827404,0.105164,-6.055,-12.95,47.985,-0.915,-2.4555,-1.6005,0
03/21/2025 10:29:54.035,0.434808,0.7503,0.1098,-11.585,-11.55,49.42,-0.915,-2.4555,-1.6005,0
03/21/2025 10:29:54.055,0.460672,0.815204,0.1464,-9.625,-14.315,52.15,-0.951,-2.409,-1.581,0
03/21/2025 10:29:54.075,0.46604,0.863516,0.156404,-11.095,-16.17,58.345,-0.9465,-2.3625,-1.602,0
03/21/2025 10:29:54.095,0.488976,0.859368,0.177876,-17.99,-17.78,62.265,-0.9615,-2.331,-1.5825,0
03/21/2025 10:29:54.115,0.54534,0.7686,0.224236,-24.955,-14.35,60.515,-1.002,-2.31,-1.6035,0
03/21/2025 10:29:54.135,0.595604,0.776652,0.23302,-26.985,-10.045,59.465,-0.993,-2.259,-1.578,0
03/21/2025 10:29:54.155,0.547292,0.823256,0.225212,-32.48,-8.4,62.965,-0.993,-2.2635,-1.599,0
03/21/2025 10:29:54.175,0.531188,0.724436,0.180804,-37.135,-11.27,67.515,-0.99,-2.1765,-1.575,0
03/21/2025 10:29:54.195,0.617076,0.593896,0.214476,-29.26,-16.1,67.025,-1.014,-2.1495,-1.5915,0
03/21/2025 10:29:54.215,0.721752,0.694912,0.249856,-7.14,-21,66.57,-1.0245,-2.145,-1.5705,0
03/21/2025 10:29:54.235,0.69662,0.798612,0.248148,0.315,-19.355,72.66,-1.0245,-2.0985,-1.593,0
03/21/2025 10:29:54.255,0.631716,0.736636,0.23912,-20.265,-14.385,77.385,-1.0065,-2.046,-1.62,0
03/21/2025 10:29:54.275,0.714188,0.595848,0.25132,-38.36,-10.99,77.385,-1.026,-2.031,-1.5885,0
03/21/2025 10:29:54.295,0.766892,0.580964,0.243024,-37.94,-9.905,82.355,-1.032,-1.995,-1.6005,0
03/21/2025 10:29:54.315,0.671976,0.595604,0.25742,-41.825,-10.01,93.8,-1.0425,-1.9395,-1.5765,0
03/21/2025 10:29:54.335,0.865956,0.425048,0.286456,-43.33,-11.34,91.91,-1.0425,-1.9395,-1.5765,0
03/21/2025 10:29:54.355,0.984296,0.645624,0.278404,-32.83,-14.665,88.34,-1.029,-1.845,-1.6305,0
03/21/2025 10:29:54.375,0.910852,0.71004,0.282552,-44.415,-7.945,94.115,-1.0155,-1.8045,-1.6005,0
03/21/2025 10:29:54.395,0.82228,0.51728,0.266204,-66.71,-5.215,100.8,-1.02,-1.7625,-1.632,0
03/21/2025 10:29:54.415,0.818132,0.366,0.299632,-70.98,-5.075,100.8,-1.002,-1.728,-1.6125,0
03/21/2025 10:29:54.435,0.851804,0.2623,0.31232,-54.215,-7.35,98.63,-0.987,-1.6815,-1.614,0
03/21/2025 10:29:54.455,1.012356,0.35014,0.315492,-38.22,-17.22,103.04,-1.0035,-1.608,-1.626,0
03/21/2025 10:29:54.475,0.950136,0.392108,0.25864,-41.615,-15.54,108.885,-0.999,-1.5525,-1.6125,0
03/21/2025 10:29:54.495,0.93086,0.242048,0.2562,-57.015,-15.19,111.265,-0.996,-1.512,-1.6035,0
03/21/2025 10:29:54.515,1.065304,0.118096,0.346968,-55.51,-20.44,108.185,-0.9615,-1.4445,-1.62,0
03/21/2025 10:29:54.535,1.0309,0.118828,0.369172,-36.96,-19.355,109.06,-0.948,-1.4295,-1.6005,0
03/21/2025 10:29:54.555,0.996008,0.080276,0.365756,-25.9,-20.265,112.14,-0.9435,-1.3575,-1.587,0
03/21/2025 10:29:54.575,1.015284,0.031964,0.361852,-25.235,-20.965,115.01,-0.924,-1.311,-1.6035,0
03/21/2025 10:29:54.595,1.159732,0.049288,0.37088,-27.23,-25.795,118.58,-0.9165,-1.2615,-1.569,0
03/21/2025 10:29:54.615,1.118984,0.09028,0.388448,-33.46,-21.665,124.565,-0.9015,-1.245,-1.575,0
03/21/2025 10:29:54.635,1.012356,0.04758,0.3355,-46.83,-13.755,125.02,-0.867,-1.1835,-1.5915,0
03/21/2025 10:29:54.655,0.985516,-0.050996,0.343064,-51.17,-10.36,117.915,-0.867,-1.1835,-1.5915,0
03/21/2025 10:29:54.675,1.166076,-0.12322,0.37332,-41.545,-13.37,111.895,-0.8205,-1.119,-1.5375,0
03/21/2025 10:29:54.695,1.180716,-0.069052,0.354776,-29.085,-14.245,111.23,-0.816,-1.0515,-1.5555,0
03/21/2025 10:29:54.715,1.1285,-0.067588,0.325984,-32.76,-12.46,114.03,-0.7965,-1.0275,-1.536,0
03/21/2025 10:29:54.735,1.072136,-0.154452,0.296948,-42.455,-12.74,115.605,-0.753,-0.9855,-1.557,0
03/21/2025 10:29:54.755,1.057984,-0.19398,0.314516,-37.94,-14.805,116.9,-0.738,-0.9555,-1.533,0
03/21/2025 10:29:54.775,1.034072,-0.162992,0.292312,-18.41,-13.16,111.545,-0.7095,-0.9105,-1.5195,0
03/21/2025 10:29:54.795,1.130208,-0.06466,0.316224,-8.89,-10.71,100.625,-0.705,-0.8895,-1.515,0
03/21/2025 10:29:54.815,1.143872,-0.08174,0.355752,-14.875,-4.865,86.555,-0.642,-0.8385,-1.5315,0
03/21/2025 10:29:54.835,1.06994,-0.144204,0.321836,-23.835,1.33,77.7,-0.612,-0.8295,-1.5375,0
03/21/2025 10:29:54.855,0.986736,-0.181048,0.26962,-29.295,4.375,71.12,-0.6225,-0.7995,-1.5075,0
03/21/2025 10:29:54.875,0.914268,-0.243756,0.260348,-29.26,4.34,65.73,-0.573,-0.816,-1.4715,0
03/21/2025 10:29:54.895,0.976976,-0.2989,0.316468,-17.15,1.505,60.62,-0.5445,-0.7695,-1.494,0
03/21/2025 10:29:54.915,1.074576,-0.270352,0.33916,2.59,-2.31,55.51,-0.555,-0.765,-1.473,0
03/21/2025 10:29:54.935,1.030412,-0.161772,0.314272,10.36,1.61,50.05,-0.534,-0.78,-1.479,0
03/21/2025 10:29:54.955,0.968436,-0.18788,0.29402,-15.155,4.445,41.93,-0.495,-0.756,-1.4745,0
03/21/2025 10:29:54.975,0.92232,-0.28548,0.274256,-26.67,6.475,37.45,-0.495,-0.756,-1.4745,0
03/21/2025 10:29:54.995,0.894504,-0.315736,0.275476,-20.16,6.965,34.02,-0.495,-0.735,-1.5,0
03/21/2025 10:29:55.015,0.874496,-0.294752,0.267668,-10.465,7.525,28.42,-0.4815,-0.72,-1.47,0
03/21/2025 10:29:55.035,0.85644,-0.314272,0.261812,-9.03,8.61,21.595,-0.4455,-0.7095,-1.491,0
03/21/2025 10:29:55.055,0.889136,-0.376248,0.273524,-10.185,9.52,13.195,-0.447,-0.699,-1.497,0
03/21/2025 10:29:55.075,0.965264,-0.382592,0.298412,-5.46,8.155,7.07,-0.456,-0.7155,-1.4805,0
03/21/2025 10:29:55.095,0.937692,-0.378444,0.258884,0.35,10.955,4.305,-0.456,-0.705,-1.455,0
03/21/2025 10:29:55.115,0.926956,-0.375516,0.261324,-1.75,10.57,2.38,-0.4215,-0.7155,-1.4565,0
03/21/2025 10:29:55.135,0.91012,-0.394304,0.276452,-10.045,11.2,2.31,-0.4275,-0.69,-1.4865,0
03/21/2025 10:29:55.155,0.885232,-0.438224,0.273768,-14.77,11.445,4.935,-0.4275,-0.711,-1.446,0
03/21/2025 10:29:55.175,0.888892,-0.453108,0.266448,-13.825,9.73,6.72,-0.432,-0.69,-1.461,0
03/21/2025 10:29:55.195,0.863272,-0.45994,0.258396,-9.66,8.54,6.79,-0.4125,-0.6705,-1.4625,0
03/21/2025 10:29:55.215,0.845704,-0.467992,0.227896,-6.23,7.105,5.46,-0.4215,-0.7155,-1.4655,0
03/21/2025 10:29:55.235,0.838872,-0.472384,0.222284,-3.99,5.355,3.15,-0.432,-0.69,-1.4775,0
03/21/2025 10:29:55.255,0.859124,-0.471408,0.226676,-0.665,4.235,1.085,-0.411,-0.7215,-1.4655,0
03/21/2025 10:29:55.275,0.88084,-0.486292,0.233508,-0.35,4.76,0.35,-0.411,-0.7215,-1.4655,0
03/21/2025 10:29:55.295,0.859856,-0.470432,0.21594,-2.835,5.88,1.295,-0.411,-0.7215,-1.4655,0
03/21/2025 10:29:55.315,0.846924,-0.480192,0.22326,-9.03,5.635,2.17,-0.432,-0.684,-1.4715,0
03/21/2025 10:29:55.335,0.835212,-0.488488,0.21716,-12.985,5.705,3.045,-0.408,-0.6855,-1.446,0
03/21/2025 10:29:55.355,0.840824,-0.504592,0.21594,-12.6,5.39,2.73,-0.4275,-0.7065,-1.4505,0
03/21/2025 10:29:55.375,0.844484,-0.489464,0.222284,-10.045,5.145,1.785,-0.3975,-0.654,-1.4685,0
03/21/2025 10:29:55.395,0.829112,-0.492392,0.213988,-9.59,4.725,1.365,-0.3885,-0.6765,-1.437,0
03/21/2025 10:29:55.415,0.826672,-0.49654,0.213744,-10.71,4.13,0.98,-0.4425,-0.6645,-1.4205,0
03/21/2025 10:29:55.435,0.820572,-0.499468,0.206668,-10.08,3.535,-0.455,-0.3975,-0.7185,-1.41,0
03/21/2025 10:29:55.455,0.8357,-0.508252,0.227164,-6.3,1.89,-2.1,-0.408,-0.6915,-1.4355,0
03/21/2025 10:29:55.475,0.832772,-0.516304,0.223016,-2.625,0.665,-3.22,-0.408,-0.666,-1.437,0
03/21/2025 10:29:55.495,0.836432,-0.503128,0.221064,0.175,-0.49,-3.885,-0.3975,-0.681,-1.4115,0
03/21/2025 10:29:55.515,0.834968,-0.488732,0.233996,-0.49,-1.68,-3.885,-0.408,-0.6765,-1.4115,0
03/21/2025 10:29:55.535,0.829356,-0.51972,0.22692,-4.445,-2.415,-2.905,-0.3885,-0.687,-1.4115,0
03/21/2025 10:29:55.555,0.8235,-0.544608,0.224236,-3.22,-3.29,-1.855,-0.417,-0.6915,-1.41,0
03/21/2025 10:29:55.575,0.836432,-0.533628,0.231312,1.505,-4.515,-1.155,-0.408,-0.6765,-1.401,0
03/21/2025 10:29:55.595,0.858636,-0.52948,0.237168,3.92,-5.88,-0.91,-0.414,-0.6555,-1.401,0
03/21/2025 10:29:55.615,0.841312,-0.525576,0.238632,5.145,-6.09,-0.175,-0.414,-0.6555,-1.401,0
03/21/2025 10:29:55.635,0.832284,-0.506056,0.24278,3.815,-6.3,1.365,-0.423,-0.669,-1.4565,0
03/21/2025 10:29:55.655,0.82838,-0.502396,0.248636,-0.035,-5.46,2.94,-0.408,-0.6555,-1.4415,0
03/21/2025 10:29:55.675,0.825696,-0.50874,0.247172,-2.765,-4.27,3.43,-0.393,-0.6705,-1.431,0
03/21/2025 10:29:55.695,0.833748,-0.51728,0.245708,-2.765,-3.605,2.94,-0.423,-0.6645,-1.4415,0
03/21/2025 10:29:55.715,0.829356,-0.524356,0.24034,-0.875,-3.57,2.24,-0.438,-0.66,-1.431,0
03/21/2025 10:29:55.735,0.829112,-0.516792,0.242536,1.785,-3.885,1.12,-0.4425,-0.654,-1.4265,0
03/21/2025 10:29:55.755,0.831064,-0.496296,0.240828,2.38,-3.675,-0.175,-0.438,-0.6555,-1.422,0
03/21/2025 10:29:55.775,0.825452,-0.510692,0.231312,2.52,-3.885,-0.21,-0.4335,-0.645,-1.422,0
03/21/2025 10:29:55.795,0.840824,-0.521428,0.238144,3.78,-4.095,-0.105,-0.423,-0.6555,-1.416,0
03/21/2025 10:29:55.815,0.837164,-0.49532,0.229604,5.495,-3.745,-0.21,-0.423,-0.639,-1.4265,0
03/21/2025 10:29:55.835,0.8479,-0.492636,0.233264,4.41,-4.06,0.14,-0.438,-0.6435,-1.4415,0
03/21/2025 10:29:55.855,0.848388,-0.514596,0.235704,3.36,-3.29,0.14,-0.423,-0.6645,-1.431,0
03/21/2025 10:29:55.875,0.852536,-0.51606,0.230092,5.635,-3.43,-0.035,-0.462,-0.654,-1.431,0
03/21/2025 10:29:55.895,0.847656,-0.510936,0.218624,7.455,-3.57,-0.455,-0.423,-0.6795,-1.4565,0
03/21/2025 10:29:55.915,0.85766,-0.477996,0.213988,7.735,-4.55,-0.175,-0.423,-0.6795,-1.4565,0
03/21/2025 10:29:55.935,0.858392,-0.490684,0.220576,4.69,-4.97,1.19,-0.423,-0.6795,-1.4565,0
03/21/2025 10:29:55.955,0.85888,-0.49776,0.215452,1.89,-4.375,1.96,-0.4035,-0.6705,-1.4265,0
03/21/2025 10:29:55.975,0.85644,-0.47824,0.207156,1.365,-4.06,1.89,-0.4185,-0.654,-1.452,0
03/21/2025 10:29:55.995,0.8479,-0.490684,0.201544,0.875,-3.885,1.47,-0.438,-0.66,-1.4115,0
03/21/2025 10:29:56.015,0.858148,-0.4819,0.19642,0.525,-3.675,0.315,-0.423,-0.6705,-1.431,0
03/21/2025 10:29:56.035,0.86376,-0.458964,0.194712,-0.525,-4.515,0.14,-0.447,-0.6645,-1.437,0
03/21/2025 10:29:56.055,0.860832,-0.505812,0.183244,-4.62,-5.005,1.225,-0.438,-0.639,-1.437,0
03/21/2025 10:29:56.075,0.863516,-0.51484,0.197152,-5.845,-6.265,1.33,-0.438,-0.6495,-1.452,0
03/21/2025 10:29:56.095,0.86254,-0.520452,0.191296,-4.06,-7,1.715,-0.4575,-0.633,-1.4475,0
03/21/2025 10:29:56.115,0.852536,-0.506788,0.175924,-1.365,-7.98,2.415,-0.444,-0.6285,-1.4325,0
03/21/2025 10:29:56.135,0.843264,-0.479948,0.191296,1.12,-9.03,2.835,-0.4275,-0.7065,-1.41,0
03/21/2025 10:29:56.155,0.864492,-0.51484,0.196176,-1.4,-9.73,3.08,-0.468,-0.6645,-1.431,0
03/21/2025 10:29:56.175,0.867664,-0.540216,0.185196,-4.305,-9.415,2.275,-0.453,-0.666,-1.4055,0
03/21/2025 10:29:56.195,0.8479,-0.573156,0.203496,-4.305,-10.15,2.695,-0.462,-0.654,-1.446,0
03/21/2025 10:29:56.215,0.827648,-0.62464,0.198372,-1.12,-10.85,6.545,-0.4425,-0.6495,-1.4265,0
03/21/2025 10:29:56.235,0.803248,-0.59414,0.197884,-1.12,-11.375,12.215,-0.4425,-0.6495,-1.4265,0
03/21/2025 10:29:56.255,0.804224,-0.6283,0.193736,-1.925,-12.32,15.12,-0.4425,-0.6495,-1.4265,0
03/21/2025 10:29:56.275,0.80642,-0.620248,0.192028,3.57,-12.075,16.695,-0.4425,-0.639,-1.4625,0
03/21/2025 10:29:56.295,0.819596,-0.529236,0.200812,5.495,-13.405,17.605,-0.429,-0.639,-1.422,0
03/21/2025 10:29:56.315,0.821304,-0.590236,0.178608,-6.37,-11.06,19.985,-0.4125,-0.6705,-1.431,0
03/21/2025 10:29:56.335,0.822036,-0.641232,0.17934,-16.625,-7.98,20.965,-0.423,-0.6345,-1.4535,0
03/21/2025 10:29:56.355,0.8113,-0.61976,0.173728,-15.89,-5.74,22.68,-0.4335,-0.624,-1.428,0
03/21/2025 10:29:56.375,0.816912,-0.61244,0.15982,-16.1,-5.6,25.305,-0.438,-0.6495,-1.422,0
03/21/2025 10:29:56.395,0.824232,-0.618296,0.149816,-19.53,-6.65,26.495,-0.4185,-0.609,-1.413,0
03/21/2025 10:29:56.415,0.828136,-0.629276,0.151036,-23.625,-7.21,28.245,-0.4185,-0.615,-1.3965,0
03/21/2025 10:29:56.435,0.815448,-0.647332,0.139812,-27.335,-5.845,29.085,-0.399,-0.594,-1.4235,0
03/21/2025 10:29:56.455,0.793976,-0.643916,0.133468,-29.19,-3.675,29.575,-0.4155,-0.573,-1.3875,0
03/21/2025 10:29:56.475,0.803004,-0.67344,0.122488,-34.335,-3.535,30.695,-0.4155,-0.579,-1.398,0
03/21/2025 10:29:56.495,0.796904,-0.699548,0.112484,-43.575,-4.445,32.34,-0.381,-0.5805,-1.3785,0
03/21/2025 10:29:56.515,0.785436,-0.762256,0.130052,-48.195,-8.05,35.42,-0.3465,-0.5505,-1.359,0
03/21/2025 10:29:56.535,0.775432,-0.830088,0.129076,-46.655,-11.305,40.25,-0.357,-0.567,-1.3065,0
03/21/2025 10:29:56.555,0.7869,-0.862296,0.089548,-35.14,-14.21,48.09,-0.357,-0.567,-1.3065,0
03/21/2025 10:29:56.575,0.780068,-0.846924,0.075396,-29.715,-15.785,52.85,-0.357,-0.567,-1.3065,0
03/21/2025 10:29:56.595,0.778848,-0.835456,0.072224,-23.52,-18.165,57.785,-0.2985,-0.5115,-1.257,0
03/21/2025 10:29:56.615,0.78202,-0.854976,0.111752,-15.225,-20.615,63.385,-0.2985,-0.501,-1.278,0
03/21/2025 10:29:56.635,0.758596,-0.894016,0.093452,-11.305,-19.355,69.965,-0.2595,-0.4935,-1.2285,0
03/21/2025 10:29:56.655,0.731512,-0.862052,0.078324,-9.135,-18.55,73.955,-0.2295,-0.4875,-1.2585,0
03/21/2025 10:29:56.675,0.704916,-0.825452,0.070272,-9.345,-17.745,75.845,-0.2055,-0.4785,-1.224,0
03/21/2025 10:29:56.695,0.676856,-0.898408,0.069052,-8.645,-17.815,78.085,-0.1815,-0.468,-1.245,0
03/21/2025 10:29:56.715,0.687348,-1.014552,0.076372,0.525,-18.375,80.85,-0.156,-0.459,-1.215,0
03/21/2025 10:29:56.735,0.677344,-1.005524,0.077104,16.695,-15.505,83.615,-0.1125,-0.444,-1.2105,0
03/21/2025 10:29:56.755,0.653432,-1.03456,0.039284,31.71,-13.615,85.925,-0.0825,-0.465,-1.2315,0
03/21/2025 10:29:56.775,0.69906,-1.081164,0.0427,41.44,-15.89,89.705,-0.063,-0.4395,-1.2165,0
03/21/2025 10:29:56.795,0.695644,-1.04554,0.142252,72.59,-17.115,92.75,-0.0075,-0.477,-1.2105,0
03/21/2025 10:29:56.815,0.593652,-1.311744,0.0915,120.995,-11.48,100.835,0.015,-0.4665,-1.263,0
03/21/2025 10:29:56.835,0.610976,-1.396168,0.101504,202.825,-12.495,109.095,0.0255,-0.45,-1.314,0
03/21/2025 10:29:56.855,0.612928,-1.080676,0.137616,282.52,-6.475,108.675,0.0975,-0.489,-1.4115,0
03/21/2025 10:29:56.875,0.543876,-0.584624,0.300608,296.17,3.85,105,0.0975,-0.489,-1.4115,0
03/21/2025 10:29:56.895,0.482144,-0.264008,0.486048,205.905,10.36,99.68,0.0975,-0.489,-1.4115,0
03/21/2025 10:29:56.915,0.442616,-0.40016,0.534116,65.24,20.405,94.955,0.2115,-0.6645,-1.716,0
03/21/2025 10:29:56.935,0.428952,-0.680272,0.447252,-39.515,30.1,91.315,0.249,-0.726,-1.761,0
03/21/2025 10:29:56.955,0.382104,-0.864736,0.344772,-74.935,36.05,85.26,0.2835,-0.732,-1.7505,0
03/21/2025 10:29:56.975,0.32452,-0.894016,0.28548,-64.47,36.89,80.22,0.2925,-0.717,-1.7205,0
03/21/2025 10:29:56.995,0.265228,-0.835944,0.299876,-40.985,34.685,73.185,0.351,-0.6825,-1.671,0
03/21/2025 10:29:57.015,0.253516,-0.830576,0.277428,-30.415,30.03,68.11,0.396,-0.699,-1.671,0
03/21/2025 10:29:57.035,0.243024,-0.81496,0.244244,-30.87,24.605,64.89,0.435,-0.7005,-1.6755,0
03/21/2025 10:29:57.055,0.228872,-0.79788,0.211792,-31.255,20.755,60.62,0.4485,-0.675,-1.6365,0
03/21/2025 10:29:57.075,0.237656,-0.775432,0.212768,-32.515,16.24,55.055,0.4695,-0.6915,-1.62,0
03/21/2025 10:29:57.095,0.220576,-0.816912,0.223748,-32.795,13.405,49.455,0.528,-0.6825,-1.6215,0
03/21/2025 10:29:57.115,0.183244,-0.936716,0.229116,-23.065,10.885,45.745,0.528,-0.6825,-1.5855,0
03/21/2025 10:29:57.135,0.20252,-1.043832,0.246684,17.675,5.005,43.54,0.534,-0.6915,-1.647,0
03/21/2025 10:29:57.155,0.148352,-1.095316,0.222528,82.88,5.075,42.42,0.5535,-0.7185,-1.6215,0
03/21/2025 10:29:57.175,0.149328,-1.096536,0.27084,148.89,1.225,43.33,0.588,-0.735,-1.626,0
03/21/2025 10:29:57.195,0.134444,-0.892552,0.421632,246.645,-1.96,39.2,0.588,-0.735,-1.626,0
03/21/2025 10:29:57.215,0.077836,-0.793,0.45262,291.62,2.45,37.03,0.588,-0.735,-1.626,0
03/21/2025 10:29:57.235,0.103944,-0.86986,0.517524,336.77,-0.315,38.99,0.618,-0.921,-1.821,0
03/21/2025 10:29:57.255,0.020252,-0.682224,0.482876,368.76,0.56,42.84,0.606,-1.0215,-1.9365,0
03/21/2025 10:29:57.275,0.056364,-0.414312,0.645868,369.145,-8.995,46.655,0.639,-1.1475,-2.0145,0
03/21/2025 10:29:57.295,0.062708,-0.266448,0.708332,328.405,-11.375,42.28,0.627,-1.296,-2.067,0
03/21/2025 10:29:57.315,0.04392,-0.06344,0.75884,286.72,-8.575,36.505,0.6555,-1.4385,-2.136,0
03/21/2025 10:29:57.335,0.02928,0.100772,0.832284,225.855,-7.315,30.835,0.669,-1.599,-2.1525,0
03/21/2025 10:29:57.355,0.0183,-0.030988,0.881572,141.05,-6.615,25.48,0.6405,-1.716,-2.175,0
03/21/2025 10:29:57.375,0.003172,-0.205692,0.8967,90.86,-3.43,21.28,0.657,-1.794,-2.1735,0
03/21/2025 10:29:57.395,0.015372,-0.256688,0.874252,100.24,-2.415,16.59,0.663,-1.86,-2.1915,0
03/21/2025 10:29:57.415,0.003904,-0.00488,0.86132,124.705,-4.27,12.81,0.6435,-1.902,-2.1855,0
03/21/2025 10:29:57.435,0.011468,0.127856,0.945744,101.22,-6.72,9.8,0.6555,-1.9695,-2.1525,0
03/21/2025 10:29:57.455,0.003416,-0.112728,0.978684,50.995,-5.075,7.735,0.6165,-1.9995,-2.178,0
03/21/2025 10:29:57.475,0.001708,-0.192028,0.961604,42.105,-4.9,9.17,0.6405,-2.0355,-2.157,0
03/21/2025 10:29:57.495,0.017812,-0.09638,0.98576,50.89,-5.565,10.01,0.6165,-2.052,-2.145,0
03/21/2025 10:29:57.515,0.030744,0.025132,1.013088,48.3,-0.35,4.76,0.6165,-2.0925,-2.139,0
03/21/2025 10:29:57.535,0.026108,0.017812,0.972096,35.35,3.71,4.445,0.6075,-2.118,-2.139,0
03/21/2025 10:29:57.555,0.026352,0.005368,0.9699,21.35,6.44,2.66,0.6375,-2.1555,-2.118,0
03/21/2025 10:29:57.575,0.040748,-0.023912,0.985272,9.8,9.345,0.735,0.6225,-2.1345,-2.1375,0
03/21/2025 10:29:57.595,0.030988,-0.053436,0.942816,4.34,10.22,1.505,0.6135,-2.1555,-2.112,0
03/21/2025 10:29:57.615,-0.00854,-0.01464,0.959408,6.475,9.205,3.675,0.672,-2.1255,-2.109,0
03/21/2025 10:29:57.635,-0.020984,0.02684,0.955016,3.78,6.79,5.04,0.627,-2.1345,-2.1285,0
03/21/2025 10:29:57.655,0.009028,-0.01342,0.9699,-4.9,4.795,4.83,0.627,-2.145,-2.1075,0
03/21/2025 10:29:57.675,-0.003172,-0.028304,0.980148,-7,4.97,3.955,0.618,-2.1345,-2.118,0
03/21/2025 10:29:57.695,-0.025864,-0.007808,0.958432,-1.155,5.04,4.235,0.633,-2.16,-2.1165,0
03/21/2025 10:29:57.715,-0.014884,0.030012,0.948428,1.68,2.8,4.2,0.633,-2.1555,-2.133,0
03/21/2025 10:29:57.735,-0.003904,-0.003172,0.972828,-2.765,2.73,2.905,0.6435,-2.1555,-2.133,0
03/21/2025 10:29:57.755,-0.006344,-0.0061,0.991616,-0.7,3.185,1.715,0.627,-2.145,-2.112,0
03/21/2025 10:29:57.775,-0.028304,0.027572,0.981124,0.63,2.275,1.715,0.642,-2.1555,-2.1015,0
03/21/2025 10:29:57.795,-0.030744,0.040504,0.960384,-2.345,0.665,0.595,0.633,-2.16,-2.112,0
03/21/2025 10:29:57.815,-0.012688,0.034404,0.987468,-13.405,-0.49,-1.54,0.6375,-2.1405,-2.118,0
03/21/2025 10:29:57.835,-0.014884,-0.061732,1.01016,-16.87,0.14,-2.52,0.6375,-2.1405,-2.118,0
03/21/2025 10:29:57.855,-0.019276,-0.061,1.025044,-6.16,0.875,-2.66,0.648,-2.145,-2.1285,0
03/21/2025 10:29:57.875,-0.02806,0.027572,1.009672,2.275,1.19,-2.275,0.642,-2.1405,-2.1075,0
03/21/2025 10:29:57.895,-0.016104,0.011712,1.017236,-5.6,1.575,-1.96,0.642,-2.1345,-2.118,0
03/21/2025 10:29:57.915,-0.026596,-0.067832,1.022604,-12.18,2.24,-0.7,0.6525,-2.13,-2.118,0
03/21/2025 10:29:57.935,-0.03538,-0.024888,0.999912,-3.535,1.82,0.42,0.6525,-2.151,-2.0865,0
03/21/2025 10:29:57.955,-0.02928,0.012688,1.009916,0.91,0.98,0.14,0.6315,-2.1195,-2.1075,0
03/21/2025 10:29:57.975,-0.014884,-0.006588,1.011136,-4.375,1.68,-0.805,0.6465,-2.1045,-2.109,0
03/21/2025 10:29:57.995,-0.019764,-0.0244,1.008452,-7.84,2.625,-1.61,0.657,-2.151,-2.118,0
03/21/2025 10:29:58.015,-0.019764,-0.0549,1.003328,-7.07,3.325,-1.61,0.6375,-2.1345,-2.1225,0
03/21/2025 10:29:58.035,-0.036844,-0.033672,1.000888,-0.49,2.8,-0.665,0.6225,-2.124,-2.1135,0
03/21/2025 10:29:58.055,-0.043676,-0.016104,0.985516,0.525,2.03,0.525,0.657,-2.1255,-2.1135,0
03/21/2025 10:29:58.075,-0.022692,-0.025132,0.990884,-3.745,1.26,0.455,0.6525,-2.1135,-2.1285,0
03/21/2025 10:29:58.095,-0.027572,-0.0305,0.98942,-4.83,1.75,0.14,0.6615,-2.109,-2.1345,0
03/21/2025 10:29:58.115,-0.040748,-0.029524,0.990152,-1.89,1.26,-0.245,0.6675,-2.115,-2.1135,0
03/21/2025 10:29:58.135,-0.042212,-0.008784,0.990396,-1.085,0.385,-1.19,0.6465,-2.115,-2.124,0
03/21/2025 10:29:58.155,-0.02196,-0.03172,1.000888,-4.515,1.47,-2.415,0.6465,-2.115,-2.124,0
03/21/2025 10:29:58.175,-0.029524,0.00854,1.009428,-3.71,2.905,-3.71,0.6465,-2.115,-2.124,0
03/21/2025 10:29:58.195,-0.045872,-0.003904,0.985272,-10.78,3.745,-4.76,0.657,-2.1045,-2.1135,0
03/21/2025 10:29:58.215,-0.064904,-0.052948,0.996496,-18.095,3.43,-5.32,0.6165,-2.115,-2.088,0
03/21/2025 10:29:58.235,-0.048312,-0.090036,1.011136,-11.865,2.275,-4.97,0.6465,-2.109,-2.124,0
03/21/2025 10:29:58.255,-0.044408,-0.03904,0.987468,-0.595,1.365,-3.92,0.642,-2.0835,-2.13,0
03/21/2025 10:29:58.275,-0.02806,-0.019032,0.993812,-1.995,1.015,-4.06,0.657,-2.0985,-2.124,0
03/21/2025 10:29:58.295,-0.02684,-0.052216,0.990396,-8.085,1.54,-4.83,0.6375,-2.109,-2.118,0
03/21/2025 10:29:58.315,-0.04026,-0.043432,0.992592,-6.685,1.995,-5.845,0.6315,-2.0835,-2.13,0
03/21/2025 10:29:58.335,-0.053436,-0.05978,0.9882,-2.205,1.61,-4.935,0.651,-2.094,-2.1135,0
03/21/2025 10:29:58.355,-0.04392,-0.022448,1.000156,1.61,0.035,-4.55,0.6555,-2.0835,-2.0985,0
03/21/2025 10:29:58.375,-0.021472,0.009028,0.998448,-1.925,-0.035,-5.74,0.666,-2.079,-2.0985,0
03/21/2025 10:29:58.395,-0.017568,-0.04514,0.98454,-9.03,0.77,-6.72,0.651,-2.073,-2.115,0
03/21/2025 10:29:58.415,-0.028548,-0.061,0.99064,-10.255,1.61,-6.755,0.672,-2.0685,-2.1405,0
03/21/2025 10:29:58.435,-0.03172,-0.064904,0.987224,-8.715,1.715,-7.14,0.627,-2.0835,-2.13,0
03/21/2025 10:29:58.455,-0.052216,-0.068564,0.984052,-7.175,1.995,-6.195,0.657,-2.0835,-2.124,0
03/21/2025 10:29:58.475,-0.0366,-0.062464,0.981368,-7.07,1.365,-6.37,0.657,-2.0835,-2.124,0
03/21/2025 10:29:58.495,-0.07076,-0.060024,0.987468,-8.505,1.155,-6.125,0.66,-2.0265,-2.136,0
03/21/2025 10:29:58.515,-0.172508,-0.058316,1.05286,-7.28,-0.35,-5.04,0.66,-2.0265,-2.136,0
03/21/2025 10:29:58.535,-0.328912,-0.021228,1.114104,-3.115,-4.2,-2.1,0.675,-2.022,-2.136,0
03/21/2025 10:29:58.555,-0.427732,0.010248,1.142408,1.26,-10.185,-2.835,0.681,-2.0475,-2.121,0
03/21/2025 10:29:58.575,-0.368196,0.029524,1.175348,5.145,-16.38,-11.095,0.69,-2.0535,-2.121,0
03/21/2025 10:29:58.595,-0.241072,0.04636,1.154364,12.11,-19.67,-21.735,0.666,-2.073,-2.1405,0
03/21/2025 10:29:58.615,-0.174948,0.003904,1.142652,12.81,-18.865,-29.54,0.651,-2.0625,-2.136,0
03/21/2025 10:29:58.635,-0.104188,-0.095404,1.122888,3.15,-16.975,-34.335,0.6465,-2.058,-2.1195,0
03/21/2025 10:29:58.655,-0.059048,-0.149328,0.993568,1.925,-16.555,-33.67,0.6555,-2.0205,-2.151,0
03/21/2025 10:29:58.675,-0.038796,-0.10614,0.96014,12.495,-20.58,-31.64,0.666,-2.0055,-2.1675,0
03/21/2025 10:29:58.695,0.01586,-0.0854,0.963312,14.35,-24.395,-31.15,0.642,-2.0505,-2.166,0
03/21/2025 10:29:58.715,0.095648,-0.197152,1.033584,12.985,-23.94,-28.455,0.642,-2.0355,-2.1615,0
03/21/2025 10:29:58.735,0.099308,-0.078568,1.03212,24.71,-21.77,-24.64,0.636,-2.01,-2.1615,0
03/21/2025 10:29:58.755,0.069052,0.024644,0.989908,15.33,-16.625,-24.22,0.6315,-2.04,-2.1765,0
03/21/2025 10:29:58.775,0.010736,-0.204228,1.004548,-6.125,-10.815,-22.54,0.636,-2.0355,-2.1555,0
03/21/2025 10:29:58.795,0.025864,-0.189588,1.048712,18.375,-13.895,-19.18,0.5925,-2.04,-2.1705,0
03/21/2025 10:29:58.815,0.06588,0.002928,1.069452,32.375,-15.505,-20.23,0.6075,-2.04,-2.1915,0
03/21/2025 10:29:58.835,0.143716,0.014152,1.031876,20.72,-13.615,-24.15,0.612,-2.04,-2.1555,0
03/21/2025 10:29:58.855,0.135664,-0.002928,0.983808,6.37,-9.135,-26.67,0.612,-2.04,-2.1555,0
03/21/2025 10:29:58.875,0.137372,0.00488,0.95648,2.8,-6.93,-28.84,0.5925,-2.04,-2.1915,0
03/21/2025 10:29:58.895,0.192028,0.012444,1.017724,6.405,-6.86,-30.975,0.621,-2.025,-2.1825,0
03/21/2025 10:29:58.915,0.21838,-0.116388,1.062376,-0.91,-1.19,-29.26,0.5715,-2.0025,-2.1825,0
03/21/2025 10:29:58.935,0.18056,-0.04636,0.94916,2.485,3.71,-22.19,0.5775,-2.076,-2.1645,0
03/21/2025 10:29:58.955,0.185684,-0.02196,0.915976,2.03,3.99,-11.76,0.6015,-2.046,-2.16,0
03/21/2025 10:29:58.975,0.144204,0.009272,0.932324,-6.615,5.635,-7.315,0.5865,-2.0295,-2.166,0
03/21/2025 10:29:58.995,0.11956,-0.052948,1.000156,-7,8.785,-6.16,0.597,-2.0295,-2.166,0
03/21/2025 10:29:59.015,0.126636,-0.008052,0.970388,8.365,9.8,-3.57,0.6165,-2.0295,-2.166,0
03/21/2025 10:29:59.035,0.135176,0.020496,0.955016,6.09,11.305,2.275,0.5865,-1.989,-2.172,0
03/21/2025 10:29:59.055,0.077836,0.008052,0.98454,-3.78,14.35,4.445,0.597,-2.013,-2.1915,0
03/21/2025 10:29:59.075,0.057096,-0.063928,0.980392,1.015,14.21,7.28,0.6105,-2.0145,-2.1615,0
03/21/2025 10:29:59.095,0.120536,-0.013908,1.005524,29.54,9.03,12.53,0.6225,-2.04,-2.181,0
03/21/2025 10:29:59.115,0.074908,0.09467199,1.006988,27.825,11.34,12.705,0.6225,-2.04,-2.181,0
03/21/2025 10:29:59.135,0.06222,0.034648,1.009916,13.615,15.19,11.655,0.6315,-2.0625,-2.145,0
03/21/2025 10:29:59.155,0.060512,0.04636,0.986004,13.475,15.295,11.515,0.636,-2.0625,-2.1345,0
03/21/2025 10:29:59.175,0.052948,0.110044,0.94062,15.015,14.56,8.82,0.618,-2.1075,-2.139,0
03/21/2025 10:29:59.195,-0.0122,0.139568,0.963312,2.59,14.735,4.865,0.618,-2.1075,-2.139,0
03/21/2025 10:29:59.215,0.001708,-0.009272,0.968924,-7.28,13.16,3.885,0.633,-2.118,-2.1435,0
03/21/2025 10:29:59.235,0.020984,0.007564,0.987712,11.375,8.33,0.98,0.6765,-2.0775,-2.1615,0
03/21/2025 10:29:59.255,0.039284,0.147864,0.945012,26.635,4.655,-1.575,0.687,-2.0895,-2.1405,0
03/21/2025 10:29:59.275,0.062952,0.11712,0.94428,13.37,5.53,-2.065,0.6615,-2.082,-2.1765,0
03/21/2025 10:29:59.295,0.05612,0.100284,0.94428,-4.34,9.17,-3.57,0.642,-2.103,-2.1855,0
03/21/2025 10:29:59.315,0.048556,0.009272,0.92964,-15.785,10.885,-5.635,0.678,-2.13,-2.1495,0
03/21/2025 10:29:59.335,0.02562,-0.025376,0.935984,-11.095,8.645,-6.125,0.6615,-2.0985,-2.1345,0
03/21/2025 10:29:59.355,0.014396,-0.021716,0.95282,5.845,4.795,-1.33,0.687,-2.1195,-2.145,0
03/21/2025 10:29:59.375,0.02806,0.115656,0.913292,15.54,4.515,4.585,0.6615,-2.0835,-2.124,0
03/21/2025 10:29:59.395,0.020252,0.151036,0.925492,2.975,6.825,3.29,0.6525,-2.1195,-2.1345,0
03/21/2025 10:29:59.415,-0.010492,-0.009272,0.94306,-15.085,7.315,-1.82,0.672,-2.094,-2.1405,0
03/21/2025 10:29:59.435,0.006344,-0.03416,0.964288,6.02,2.87,-0.245,0.657,-2.073,-2.151,0
03/21/2025 10:29:59.455,0.01586,0.135908,0.926468,25.095,0.175,3.36,0.6765,-2.1135,-2.145,0
03/21/2025 10:29:59.475,0.018788,0.18178,0.933056,8.365,1.61,1.47,0.6675,-2.109,-2.1285,0
03/21/2025 10:29:59.495,-0.032696,0.095892,0.941108,-13.72,4.305,-3.115,0.672,-2.115,-2.1285,0
03/21/2025 10:29:59.515,-0.016836,0.02928,0.940132,-12.845,2.87,-3.99,0.6975,-2.1195,-2.1555,0
03/21/2025 10:29:59.535,-0.004148,0.029524,0.968924,-4.165,0.245,-1.96,0.6975,-2.1195,-2.1555,0
03/21/2025 10:29:59.555,-0.022204,0.092964,0.933788,1.75,0.42,-0.105,0.6915,-2.0895,-2.1345,0
03/21/2025 10:29:59.575,-0.026108,0.087108,0.941596,1.225,-1.05,0.315,0.6915,-2.1,-2.124,0
03/21/2025 10:29:59.595,-0.026352,0.106628,0.981124,-3.08,-3.745,-1.225,0.6915,-2.115,-2.124,0
03/21/2025 10:29:59.615,-0.016836,0.061,0.986004,-5.425,-2.975,-4.445,0.711,-2.1255,-2.1285,0
03/21/2025 10:29:59.635,-0.020252,0.052948,0.976,-0.805,-2.065,-6.37,0.687,-2.088,-2.1555,0
03/21/2025 10:29:59.655,-0.014396,0.061732,0.968192,4.13,-3.535,-5.635,0.681,-2.0835,-2.1555,0
03/21/2025 10:29:59.675,-0.027328,0.07905599,0.987956,5.81,-5.495,-4.2,0.6675,-2.103,-2.1555,0
03/21/2025 10:29:59.695,-0.013908,0.087108,1.002352,0.315,-4.97,-5.18,0.6675,-2.0985,-2.1345,0
03/21/2025 10:29:59.715,-0.020252,0.05734,1.00528,-8.26,-2.52,-6.755,0.696,-2.079,-2.151,0
03/21/2025 10:29:59.735,-0.011712,-0.015128,1.024556,-1.96,-1.925,-5.845,0.6765,-2.109,-2.124,0
03/21/2025 10:29:59.755,0.008052,0.022692,1.009672,8.155,-2.345,-2.975,0.6855,-2.0535,-2.121,0
03/21/2025 10:29:59.775,0.003172,0.046116,1.007964,3.85,-0.665,-0.21,0.6765,-2.079,-2.1255,0
03/21/2025 10:29:59.795,-0.012688,0.074664,0.97478,-5.425,2.03,1.155,0.681,-2.094,-2.13,0
03/21/2025 10:29:59.815,-0.028304,0.040748,0.992104,-15.085,1.925,0.77,0.687,-2.115,-2.1345,0
03/21/2025 10:29:59.835,-0.046116,0.01342,0.992104,-15.995,1.225,-1.085,0.681,-2.0835,-2.145,0
03/21/2025 10:29:59.855,-0.03416,-0.028548,1.00406,-7,0.28,-1.47,0.6915,-2.058,-2.13,0
03/21/2025 10:29:59.875,-0.02074,0.01586,0.999668,3.815,-1.225,0.385,0.6915,-2.058,-2.13,0
03/21/2025 10:29:59.895,-0.007076,0.031964,0.984296,5.495,-1.89,2.835,0.6705,-2.058,-2.136,0
03/21/2025 10:29:59.915,0.005368,0.039284,0.993568,2.065,-1.47,3.395,0.681,-2.0625,-2.1555,0
03/21/2025 10:29:59.935,-0.030988,0.019764,0.983076,-5.04,0.21,2.87,0.6855,-2.0835,-2.1255,0
03/21/2025 10:29:59.955,-0.032452,0.009516,1.019432,-3.045,-0.42,2.625,0.687,-2.0775,-2.1615,0
03/21/2025 10:29:59.975,-0.020496,0.018056,0.988688,5.915,-1.925,3.29,0.666,-2.073,-2.1615,0
03/21/2025 10:29:59.995,-0.018056,0.078568,0.986492,9.17,-3.395,3.605,0.696,-2.0475,-2.157,0
03/21/2025 10:30:00.015,-0.011224,0.081496,1.010404,3.325,-2.835,2.94,0.7155,-2.073,-2.151,0
03/21/2025 10:30:00.035,-0.014884,0.05368,1.006012,-3.29,-1.295,2.555,0.651,-2.0835,-2.1345,0
03/21/2025 10:30:00.055,-0.012444,0.045628,1.026508,-1.015,-1.47,2.1,0.6675,-2.082,-2.16,0
03/21/2025 10:30:00.075,-0.008296,0.07076,1.014552,1.33,-1.12,1.26,0.6765,-2.088,-2.16,0
03/21/2025 10:30:00.095,-0.0122,0.037576,1.010648,-1.68,-0.315,0.14,0.6915,-2.073,-2.1405,0
03/21/2025 10:30:00.115,-0.004636,0.052704,1.009916,0.21,0.105,0.315,0.687,-2.0985,-2.145,0
03/21/2025 10:30:00.135,0.004392,0.036844,0.994788,1.225,-0.14,0.945,0.687,-2.0775,-2.202,0
03/21/2025 10:30:00.155,-0.007808,0.058072,0.992348,1.155,-0.35,1.4,0.6525,-2.0715,-2.166,0
03/21/2025 10:30:00.175,-0.01586,0.04758,0.992104,0.77,-0.105,1.54,0.6855,-2.0475,-2.136,0
03/21/2025 10:30:00.195,-0.009028,0.050508,0.991128,2.66,-0.28,1.575,0.6855,-2.079,-2.1195,0
03/21/2025 10:30:00.215,-0.005368,0.063196,0.995032,3.01,-0.98,-0.175,0.6855,-2.079,-2.1195,0
03/21/2025 10:30:00.235,-0.013908,0.059048,0.99064,-1.26,-1.19,-2.555,0.6765,-2.0775,-2.1765,0
03/21/2025 10:30:00.255,-0.030744,0.041236,0.992348,-4.27,-1.155,-2.975,0.6825,-2.0925,-2.1705,0
03/21/2025 10:30:00.275,-0.007564,0.024888,0.986248,-2.87,-1.75,-1.82,0.6615,-2.073,-2.1345,0
03/21/2025 10:30:00.295,0.000732,0.027328,0.99186,-1.505,-2.17,-0.525,0.687,-2.0625,-2.172,0
03/21/2025 10:30:00.315,-0.009028,0.027816,0.995764,0.28,-1.715,-0.7,0.672,-2.073,-2.1345,0
03/21/2025 10:30:00.335,-0.023424,0.049532,0.987712,1.225,-1.505,-0.735,0.657,-2.079,-2.1195,0
03/21/2025 10:30:00.355,-0.007564,0.02684,0.999912,-0.7,-2.24,-0.42,0.6915,-2.0835,-2.1405,0
03/21/2025 10:30:00.375,-0.004636,0.036844,0.994788,0.945,-2.66,0.245,0.696,-2.0685,-2.1615,0
03/21/2025 10:30:00.395,-0.00488,0.0427,1.001376,1.12,-2.555,0,0.6615,-2.067,-2.1405,0
03/21/2025 10:30:00.415,-0.00244,0.040016,1.001132,-1.96,-2.17,-0.455,0.672,-2.094,-2.1555,0
03/21/2025 10:30:00.435,0.003172,0.02196,1.003816,-3.325,-1.54,-0.245,0.687,-2.079,-2.1405,0
03/21/2025 10:30:00.455,0.019276,0.003904,1.012844,-1.925,-1.4,0.56,0.687,-2.094,-2.16,0
03/21/2025 10:30:00.475,-0.005856,0.020252,1.000156,-1.54,-0.63,2.135,0.6615,-2.067,-2.145,0
03/21/2025 10:30:00.495,-0.00122,0.002684,0.999424,-0.07,-0.35,2.835,0.6615,-2.0775,-2.151,0
03/21/2025 10:30:00.515,0.05002,0.006344,1.00284,0.28,0.56,3.535,0.672,-2.0775,-2.145,0
03/21/2025 10:30:00.535,0.099064,0.039284,1.017236,-6.895,2.975,5.6,0.6915,-2.0625,-2.1615,0
03/21/2025 10:30:00.555,0.09272,-0.033672,1.03944,-16.66,6.965,11.515,0.6915,-2.0625,-2.1615,0
03/21/2025 10:30:00.575,0.109556,-0.050996,1.038952,-7.84,10.92,17.395,0.681,-2.037,-2.1615,0
03/21/2025 10:30:00.595,0.18056,0.055632,0.978684,1.89,15.925,19.6,0.6615,-2.082,-2.16,0
03/21/2025 10:30:00.615,0.29646,0.035624,1.088972,-18.795,20.895,18.69,0.687,-2.1,-2.1195,0
03/21/2025 10:30:00.635,0.4575,-0.051728,1.24318,-42.455,32.445,19.775,0.6915,-2.079,-2.13,0
03/21/2025 10:30:00.655,0.340868,0.051484,1.07848,-70.35,57.295,28.035,0.702,-2.0895,-2.145,0
03/21/2025 10:30:00.675,0.03294,-0.04758,0.722972,-91.35,74.445,44.975,0.72,-2.0535,-2.157,0
03/21/2025 10:30:00.695,-0.355508,-0.29158,0.842532,-59.99,55.335,62.86,0.7305,-2.028,-2.1375,0
03/21/2025 10:30:00.715,-0.22204,-0.210084,1.004792,2.45,34.545,60.55,0.7845,-2.0295,-2.112,0
03/21/2025 10:30:00.735,-0.049532,0.107116,1.084824,45.815,24.22,44.24,0.765,-2.0175,-2.1375,0
03/21/2025 10:30:00.755,-0.320372,0.354532,0.896212,47.32,31.01,33.705,0.7995,-2.0505,-2.1165,0
03/21/2025 10:30:00.775,-0.49532,0.340868,0.839604,2.625,29.785,24.675,0.804,-2.082,-2.0745,0
03/21/2025 10:30:00.795,-0.413824,-0.021716,0.900848,-54.355,27.09,17.01,0.789,-2.0925,-2.07,0
03/21/2025 10:30:00.815,-0.256932,-0.20252,1.065304,-40.32,16.065,6.685,0.828,-2.0625,-2.0655,0
03/21/2025 10:30:00.835,-0.30988,-0.121756,0.983564,0.595,5.635,2.38,0.8145,-2.061,-2.091,0
03/21/2025 10:30:00.855,-0.371124,0.028792,0.903776,16.205,-2.03,2.765,0.819,-2.0775,-2.055,0
03/21/2025 10:30:00.875,-0.313784,-0.000488,0.943548,5.67,-6.125,-0.945,0.819,-2.0775,-2.055,0
03/21/2025 10:30:00.895,-0.283772,-0.061,0.965996,-0.945,-6.475,-4.935,0.804,-2.046,-2.0655,0
03/21/2025 10:30:00.915,-0.219844,0.005612,0.972584,7.665,-7.98,-10.465,0.804,-2.0715,-2.07,0
03/21/2025 10:30:00.935,-0.100528,-0.036356,0.981368,-5.18,-4.48,-17.955,0.8295,-2.0835,-2.0655,0
03/21/2025 10:30:00.955,-0.099308,-0.118828,0.965752,-22.505,1.365,-21.21,0.7995,-2.061,-2.0865,0
03/21/2025 10:30:00.975,-0.155672,-0.172264,0.923296,-27.615,1.505,-16.345,0.804,-2.061,-2.076,0
03/21/2025 10:30:00.995,-0.146888,-0.209108,0.903044,-24.115,-3.01,-7.875,0.7995,-2.046,-2.0805,0
03/21/2025 10:30:01.015,-0.122976,-0.155184,0.93696,-1.225,-10.745,1.19,0.7995,-2.046,-2.0805,0
03/21/2025 10:30:01.035,-0.11834,-0.030744,0.93452,10.78,-13.51,4.41,0.819,-2.025,-2.0925,0
03/21/2025 10:30:01.055,-0.09857599,-0.011224,0.949892,3.955,-12.915,4.305,0.804,-2.025,-2.1015,0
03/21/2025 10:30:01.075,-0.131272,-0.053436,0.963312,-7.035,-10.15,1.995,0.7845,-2.0505,-2.0805,0
03/21/2025 10:30:01.095,-0.15128,-0.077592,0.976488,-5.145,-9.59,0.07,0.8235,-2.052,-2.0865,0
03/21/2025 10:30:01.115,-0.13542,-0.053436,0.979172,1.33,-10.815,-1.085,0.804,-2.025,-2.1075,0
03/21/2025 10:30:01.135,-0.121512,-0.01708,0.98088,2.45,-12.495,-1.995,0.804,-2.0145,-2.1075,0
03/21/2025 10:30:01.155,-0.103212,-0.02806,1.017724,-5.705,-12.915,-3.325,0.789,-2.0235,-2.1375,0
03/21/2025 10:30:01.175,-0.099796,-0.071492,1.030412,-12.145,-11.76,-4.865,0.804,-2.034,-2.1375,0
03/21/2025 10:30:01.195,-0.0854,-0.100284,1.015772,-8.925,-11.41,-6.02,0.8085,-2.0145,-2.133,0
03/21/2025 10:30:01.215,-0.083204,-0.081984,1.044564,-2.03,-11.025,-5.985,0.8085,-2.0145,-2.133,0
03/21/2025 10:30:01.235,-0.081252,-0.069052,1.034804,-1.365,-10.325,-5.005,0.774,-1.992,-2.133,0
03/21/2025 10:30:01.255,-0.071492,-0.065148,1.024556,-4.235,-9.24,-5.285,0.7695,-2.0235,-2.1165,0
03/21/2025 10:30:01.275,-0.069784,-0.076128,1.042368,-5.285,-8.155,-6.23,0.759,-2.007,-2.154,0
03/21/2025 10:30:01.295,-0.074908,-0.129808,1.044076,-4.97,-6.58,-5.425,0.7785,-2.013,-2.1375,0
03/21/2025 10:30:01.315,-0.07515199,-0.082716,1.035292,5.39,-6.475,-3.43,0.759,-2.0085,-2.127,0
03/21/2025 10:30:01.335,-0.064416,-0.072468,1.036024,5.46,-5.95,-2.73,0.759,-2.0085,-2.127,0
03/21/2025 10:30:01.355,-0.056364,-0.04758,1.056764,3.745,-3.325,-4.025,0.744,-1.986,-2.148,0
03/21/2025 10:30:01.375,-0.080032,-0.0915,1.021384,-1.61,-0.175,-3.5,0.7635,-2.0025,-2.112,0
03/21/2025 10:30:01.395,-0.07442,-0.120536,1.001132,-0.21,-0.21,-2.03,0.7335,-1.998,-2.118,0
03/21/2025 10:30:01.415,-0.067832,-0.120292,1.00284,3.815,-0.945,-1.645,0.759,-2.007,-2.169,0
03/21/2025 10:30:01.435,-0.077348,-0.070516,1.005036,6.195,-1.365,-2.485,0.744,-2.007,-2.133,0
03/21/2025 10:30:01.455,-0.088328,-0.091012,0.975512,3.115,-0.875,-2.415,0.7545,-2.0025,-2.1435,0
03/21/2025 10:30:01.475,-0.08052,-0.094916,0.997228,2.625,-1.82,-1.54,0.7845,-2.0025,-2.154,0
03/21/2025 10:30:01.495,-0.077348,-0.098088,0.999912,1.96,-1.4,-1.155,0.78,-2.013,-2.148,0
03/21/2025 10:30:01.515,-0.081008,-0.09516,0.99308,2.45,-0.525,-1.12,0.7395,-2.007,-2.1435,0
03/21/2025 10:30:01.535,-0.083692,-0.118584,0.98942,3.57,-0.035,-1.295,0.744,-2.0025,-2.133,0
03/21/2025 10:30:01.555,-0.087352,-0.083692,0.982344,5.985,-0.98,-0.91,0.744,-2.0025,-2.133,0
03/21/2025 10:30:01.575,-0.084424,-0.07515199,0.977464,4.2,-1.54,-1.05,0.765,-2.0025,-2.169,0
03/21/2025 10:30:01.595,-0.072712,-0.091256,0.988688,3.43,-1.12,-1.68,0.75,-2.0115,-2.169,0
03/21/2025 10:30:01.615,-0.08052,-0.085156,0.988688,3.43,-0.07,-1.68,0.759,-1.992,-2.1585,0
03/21/2025 10:30:01.635,-0.072956,-0.086376,0.969656,-0.77,0.315,-0.14,0.7695,-1.998,-2.133,0
03/21/2025 10:30:01.655,-0.07808,-0.101016,0.965264,-2.03,-0.035,0.77,0.7695,-1.998,-2.133,0
03/21/2025 10:30:01.675,-0.087108,-0.107116,0.968192,0.735,-1.295,1.085,0.7695,-2.013,-2.127,0
03/21/2025 10:30:01.695,-0.095648,-0.080032,0.988932,7.35,-2.415,0.7,0.75,-2.0025,-2.1435,0
03/21/2025 10:30:01.715,-0.0793,-0.053436,0.993324,8.26,-3.045,0.7,0.75,-2.0025,-2.1375,0
03/21/2025 10:30:01.735,-0.090524,-0.032208,0.987224,3.15,-2.695,0.315,0.774,-2.019,-2.133,0
03/21/2025 10:30:01.755,-0.09467199,-0.05856,1.005768,-1.82,-1.575,-0.14,0.735,-2.0115,-2.148,0
03/21/2025 10:30:01.775,-0.089792,-0.059048,0.984784,-1.82,-0.665,-1.05,0.78,-2.0295,-2.1225,0
03/21/2025 10:30:01.795,-0.073444,-0.055876,0.996496,-2.205,-0.875,-1.645,0.7845,-2.013,-2.148,0
03/21/2025 10:30:01.815,-0.074908,-0.096624,0.994544,-4.095,-0.315,-0.735,0.7635,-2.013,-2.1225,0
03/21/2025 10:30:01.835,-0.091256,-0.0976,0.993568,-0.7,-1.225,0.175,0.765,-2.007,-2.1435,0
03/21/2025 10:30:01.855,-0.085644,-0.069784,0.996008,3.395,-1.645,-0.42,0.765,-2.0175,-2.148,0
03/21/2025 10:30:01.875,-0.081252,-0.054168,0.979904,2.625,-1.295,-1.365,0.774,-1.992,-2.148,0
03/21/2025 10:30:01.895,-0.07808,-0.075884,0.998692,-1.05,-1.015,-1.295,0.774,-1.992,-2.148,0
03/21/2025 10:30:01.915,-0.07686,-0.094428,0.998936,-1.4,-1.015,-0.14,0.759,-2.022,-2.1525,0
03/21/2025 10:30:01.935,-0.075884,-0.07076,0.993812,0.105,-1.54,0.875,0.774,-2.034,-2.148,0
03/21/2025 10:30:01.955,-0.076616,-0.073444,0.987468,-3.885,0.245,0.875,0.765,-2.0175,-2.163,0
03/21/2025 10:30:01.975,-0.089792,-0.082716,0.989664,-4.165,0.385,0.875,0.765,-2.0175,-2.163,0
03/21/2025 10:30:01.995,-0.08784,-0.100528,0.983564,-2.765,-0.42,1.365,0.7395,-1.9965,-2.133,0
03/21/2025 10:30:02.015,-0.074908,-0.076616,0.996496,0.07,-1.4,1.715,0.7845,-2.0385,-2.133,0
03/21/2025 10:30:02.035,-0.073932,-0.080276,0.995764,0.28,-0.525,1.365,0.759,-2.028,-2.127,0
03/21/2025 10:30:02.055,-0.07808,-0.061976,0.992104,1.085,0.28,1.435,0.7695,-2.0085,-2.1375,0
03/21/2025 10:30:02.075,-0.084424,-0.06466,0.995276,-1.785,0.35,1.54,0.774,-2.0175,-2.148,0
03/21/2025 10:30:02.095,-0.082472,-0.081008,0.981612,-4.655,0.035,2.1,0.765,-2.0385,-2.1375,0
03/21/2025 10:30:02.115,-0.069296,-0.073932,0.983564,-3.815,-0.42,1.715,0.7695,-2.0175,-2.1585,0
03/21/2025 10:30:02.135,-0.076128,-0.077104,0.98576,-5.285,0.455,1.785,0.765,-2.0235,-2.1525,0
03/21/2025 10:30:02.155,-0.080032,-0.100284,0.99186,-5.18,0.14,1.75,0.7305,-2.001,-2.163,0
03/21/2025 10:30:02.175,-0.083936,-0.08906,0.986248,-1.68,-0.56,1.61,0.759,-1.9965,-2.148,0
03/21/2025 10:30:02.195,-0.083204,-0.076616,0.988688,-0.245,-0.91,1.75,0.774,-2.0235,-2.1225,0
03/21/2025 10:30:02.215,-0.077104,-0.07076,0.994544,-1.96,-0.91,1.68,0.7845,-2.0235,-2.1585,0
03/21/2025 10:30:02.235,-0.077348,-0.091256,0.995276,-1.54,-0.595,1.89,0.7845,-2.0235,-2.1585,0
03/21/2025 10:30:02.255,-0.080764,-0.068564,1.001864,1.715,-1.085,2.31,0.78,-2.007,-2.1585,0
03/21/2025 10:30:02.275,-0.07686,-0.077104,0.991128,0.21,-1.015,1.715,0.765,-2.0385,-2.163,0
03/21/2025 10:30:02.295,-0.071736,-0.07124799,0.987956,-1.365,-0.945,1.155,0.765,-2.0385,-2.163,0
03/21/2025 10:30:02.315,-0.074664,-0.062708,0.986492,-3.115,-1.155,0.805,0.7545,-2.007,-2.163,0
03/21/2025 10:30:02.335,-0.071004,-0.081984,0.984784,-3.78,-1.54,0.84,0.7755,-2.0385,-2.163,0
03/21/2025 10:30:02.355,-0.062952,-0.08295999,1.0004,-3.395,-1.4,0.63,0.759,-2.007,-2.1735,0
03/21/2025 10:30:02.375,-0.07442,-0.083936,1.000156,-2.415,-1.26,0.665,0.765,-2.0235,-2.142,0
03/21/2025 10:30:02.395,-0.073444,-0.07515199,0.987956,-0.84,-1.365,0.49,0.7695,-2.007,-2.1795,0
03/21/2025 10:30:02.415,-0.068564,-0.067832,0.98576,-0.07,-1.47,-0.105,0.765,-2.0445,-2.127,0
03/21/2025 10:30:02.435,-0.068808,-0.09028,0.997228,-1.435,-1.26,-0.385,0.759,-1.9965,-2.148,0
03/21/2025 10:30:02.455,-0.069052,-0.105652,0.992104,0.875,-1.715,-0.245,0.7695,-1.998,-2.1285,0
03/21/2025 10:30:02.475,-0.070028,-0.064172,1.007964,3.85,-2.975,-0.28,0.7695,-1.992,-2.154,0
03/21/2025 10:30:02.495,-0.059536,-0.060512,1.0126,0.77,-2.73,-0.56,0.7545,-2.0025,-2.1375,0
03/21/2025 10:30:02.515,-0.058072,-0.080764,1.009672,-3.43,-1.575,-0.77,0.735,-2.0265,-2.1675,0
03/21/2025 10:30:02.535,-0.053192,-0.090036,1.008696,-3.78,-0.805,-0.7,0.7455,-2.0475,-2.163,0
03/21/2025 10:30:02.555,-0.062708,-0.106872,0.998448,-3.01,-0.28,-0.385,0.765,-2.0385,-2.157,0
03/21/2025 10:30:02.575,-0.070516,-0.092964,0.991372,0.175,-0.035,0.49,0.765,-2.0385,-2.157,0
03/21/2025 10:30:02.595,-0.06344,-0.0793,0.992104,1.68,-0.42,1.54,0.7695,-2.022,-2.178,0
03/21/2025 10:30:02.615,-0.06466,-0.066368,0.998204,-0.63,-0.105,1.26,0.7695,-2.022,-2.178,0
03/21/2025 10:30:02.635,-0.072712,-0.08052,0.99796,-3.325,0.7,0.14,0.75,-2.0115,-2.163,0
03/21/2025 10:30:02.655,-0.063196,-0.096136,0.984784,-1.12,0.56,-0.21,0.7695,-2.0175,-2.1795,0
03/21/2025 10:30:02.675,-0.056364,-0.08174,0.998448,3.115,-0.63,0.105,0.7545,-2.007,-2.1435,0
03/21/2025 10:30:02.695,-0.053436,-0.0793,0.989908,0.455,-0.385,0.525,0.765,-2.043,-2.142,0
03/21/2025 10:30:02.715,-0.051484,-0.067588,0.992592,-0.735,-0.07,-0.595,0.7545,-2.0235,-2.148,0
03/21/2025 10:30:02.735,-0.05734,-0.073688,0.977952,-3.5,0.49,-0.98,0.7695,-2.0175,-2.1795,0
03/21/2025 10:30:02.755,-0.055144,-0.093208,0.983076,-7.945,0.35,-0.49,0.765,-2.0115,-2.163,0
03/21/2025 10:30:02.775,-0.05978,-0.120048,0.984296,-8.575,0.49,0.385,0.7695,-2.007,-2.163,0
03/21/2025 10:30:02.795,-0.053924,-0.10492,0.985272,-2.52,-0.245,0.56,0.78,-2.0175,-2.1795,0
03/21/2025 10:30:02.815,-0.050752,-0.086376,0.969412,1.61,-0.525,0.49,0.7845,-1.9755,-2.1855,0
03/21/2025 10:30:02.835,-0.06344,-0.06832,0.978684,1.12,-0.49,-0.07,0.789,-1.9965,-2.1795,0
03/21/2025 10:30:02.855,-0.057584,-0.085644,0.983564,-1.82,-0.63,-0.35,0.7695,-2.028,-2.169,0
03/21/2025 10:30:02.875,-0.069052,-0.10004,0.99186,-2.345,-1.19,-0.14,0.774,-2.007,-2.154,0
03/21/2025 10:30:02.895,-0.060756,-0.0976,0.976732,0.42,-1.75,-0.525,0.771,-2.037,-2.193,0
03/21/2025 10:30:02.915,-0.060512,-0.066124,0.970144,1.575,-2.415,-1.05,0.771,-2.037,-2.193,0
03/21/2025 10:30:02.935,-0.055632,-0.102236,0.986492,-2.345,-2.835,-1.575,0.7695,-1.992,-2.154,0
03/21/2025 10:30:02.955,-0.066612,-0.112484,0.99796,0.35,-2.94,-1.19,0.7545,-2.028,-2.1735,0
03/21/2025 10:30:02.975,-0.065148,-0.08906,1.00284,5.6,-3.185,-1.33,0.7545,-2.001,-2.1735,0
03/21/2025 10:30:02.995,-0.057828,-0.076372,1.002352,5.46,-3.255,-1.295,0.7605,-2.022,-2.169,0
03/21/2025 10:30:03.015,-0.059048,-0.07076,0.994056,1.925,-2.52,-0.91,0.7845,-2.007,-2.1735,0
03/21/2025 10:30:03.035,-0.068564,-0.077836,1.005036,-2.52,-1.925,-1.155,0.7545,-2.022,-2.1525,0
03/21/2025 10:30:03.055,-0.05734,-0.111508,1.007964,-2.66,-1.61,-1.89,0.75,-2.0175,-2.169,0
03/21/2025 10:30:03.075,-0.074176,-0.08295999,0.993812,3.78,-1.82,-1.855,0.7545,-2.007,-2.133,0
03/21/2025 10:30:03.095,-0.059536,-0.1037,1.007964,5.285,-3.045,-1.435,0.75,-2.022,-2.1675,0
03/21/2025 10:30:03.115,-0.061976,-0.100772,1.011624,6.65,-3.43,-0.595,0.765,-2.028,-2.1675,0
03/21/2025 10:30:03.135,-0.057584,-0.065148,1.014308,7.455,-3.535,-0.385,0.765,-2.0325,-2.178,0
03/21/2025 10:30:03.155,-0.051728,-0.079544,1.01748,3.045,-1.995,-0.805,0.7305,-2.043,-2.1675,0
03/21/2025 10:30:03.175,-0.047336,-0.07442,1.016016,2.975,-0.455,-0.595,0.765,-2.043,-2.163,0
03/21/2025 10:30:03.195,-0.043432,-0.060512,1.011868,-1.365,0.315,-0.455,0.75,-2.022,-2.1735,0
03/21/2025 10:30:03.215,-0.058804,-0.076128,1.004792,-8.19,1.505,-0.595,0.7845,-2.043,-2.1885,0
03/21/2025 10:30:03.235,-0.061,-0.14274,0.995032,-4.69,1.925,0.49,0.765,-2.043,-2.163,0
03/21/2025 10:30:03.255,-0.068808,-0.081008,0.993568,6.23,1.12,0.98,0.75,-2.0325,-2.193,0
03/21/2025 10:30:03.275,-0.058804,-0.086132,0.993324,6.195,0.56,1.505,0.7545,-2.001,-2.1795,0
03/21/2025 10:30:03.295,-0.064416,-0.109556,0.984296,5.6,0.35,2.52,0.7755,-2.0325,-2.184,0
03/21/2025 10:30:03.315,-0.060268,-0.059536,1.003328,8.085,-0.21,3.255,0.7845,-1.9965,-2.169,0
03/21/2025 10:30:03.335,-0.038064,-0.022448,1.01504,2.135,2.03,3.15,0.7455,-2.043,-2.172,0
03/21/2025 10:30:03.355,-0.021228,-0.0671,1.007964,-8.645,8.505,0.735,0.7545,-2.016,-2.1945,0
03/21/2025 10:30:03.375,-0.077104,0.07515199,0.965752,-15.47,12.355,-2.415,0.7755,-2.037,-2.193,0
03/21/2025 10:30:03.395,-0.042456,0.089548,0.924272,-69.3,12.39,-6.58,0.7605,-2.028,-2.1525,0
03/21/2025 10:30:03.415,-0.040748,0.063684,0.91622,-150.955,18.83,-8.155,0.783,-1.9815,-2.1495,0
03/21/2025 10:30:03.435,-0.082472,0.169824,0.932324,-257.145,17.395,-8.89,0.7725,-1.9305,-2.1705,0
03/21/2025 10:30:03.455,-0.004636,0.172996,0.82838,-428.75,21.63,-10.92,0.7965,-1.833,-2.169,0
03/21/2025 10:30:03.475,0.049044,0.009028,0.427,-641.34,39.13,-10.22,0.798,-1.6305,-2.178,0
03/21/2025 10:30:03.495,-0.082228,-0.357948,-0.026108,-800.73,68.845,2.065,0.801,-1.3455,-2.058,0
03/21/2025 10:30:03.515,-0.169336,-0.992592,-0.405772,-858.97,77.84,14.49,0.8385,-1.047,-1.8765,0
03/21/2025 10:30:03.535,-0.297924,-1.794864,-0.456524,-741.685,67.025,27.965,0.8715,-0.8025,-1.5915,0
03/21/2025 10:30:03.555,-0.313296,-1.916376,-0.144448,-352.205,42.21,31.325,0.8865,-0.696,-1.3545,0
03/21/2025 10:30:03.575,-0.293776,-1.428132,-0.105896,-124.39,24.605,28.77,0.8865,-0.696,-1.3545,0
03/21/2025 10:30:03.595,-0.1891,-0.913292,-0.105164,-5.425,2.52,12.285,0.8685,-0.6645,-1.1145,0
03/21/2025 10:30:03.615,-0.087108,-0.873764,-0.16348,17.955,-12.25,-2.59,0.933,-0.6555,-1.125,0
03/21/2025 10:30:03.635,-0.078812,-0.999424,-0.091988,10.29,-15.33,-3.815,0.918,-0.639,-1.146,0
03/21/2025 10:30:03.655,-0.10736,-1.088728,-0.020008,8.295,-10.85,1.54,0.8835,-0.618,-1.1505,0
03/21/2025 10:30:03.675,-0.15982,-1.049932,-0.061976,14.805,-4.725,8.82,0.894,-0.66,-1.161,0
03/21/2025 10:30:03.695,-0.181292,-0.85888,-0.079544,23.24,-5.355,9.94,0.8985,-0.639,-1.1565,0
03/21/2025 10:30:03.715,-0.1647,-0.845948,-0.05368,10.185,-7.49,5.985,0.924,-0.6645,-1.1805,0
03/21/2025 10:30:03.735,-0.158356,-0.971364,-0.078324,-5.075,-6.93,1.365,0.909,-0.6495,-1.1715,0
03/21/2025 10:30:03.755,-0.16592,-1.023824,-0.070028,3.43,-5.67,-1.435,0.9225,-0.639,-1.161,0
03/21/2025 10:30:03.775,-0.1769,-0.997472,-0.056364,24.115,-5.355,-3.22,0.9285,-0.633,-1.182,0
03/21/2025 10:30:03.795,-0.18788,-0.923296,-0.05612,31.5,-5.845,-4.235,0.924,-0.633,-1.1925,0
03/21/2025 10:30:03.815,-0.161772,-0.897432,-0.011224,20.23,-5.74,-5.775,0.9135,-0.675,-1.176,0
03/21/2025 10:30:03.835,-0.157136,-0.988444,-0.025132,4.41,-2.625,-6.09,0.894,-0.663,-1.2225,0
03/21/2025 10:30:03.855,-0.143228,-1.036512,-0.027084,1.925,-0.56,-6.195,0.8895,-0.642,-1.2075,0
03/21/2025 10:30:03.875,-0.152012,-1.017724,-0.0549,19.985,-1.155,-7.28,0.8895,-0.642,-1.2075,0
03/21/2025 10:30:03.895,-0.121756,-0.992836,-0.045628,22.75,-3.71,-7.7,0.8895,-0.642,-1.2075,0
03/21/2025 10:30:03.915,-0.12444,-1.037488,-0.005368,12.95,-4.515,-7.14,0.8895,-0.6525,-1.242,0
03/21/2025 10:30:03.935,-0.139324,-1.031388,0.002684,11.55,-3.675,-4.095,0.8955,-0.6675,-1.257,0
03/21/2025 10:30:03.955,-0.165676,-1.056032,0.010004,14.84,-3.255,-1.015,0.8745,-0.657,-1.2375,0
03/21/2025 10:30:03.975,-0.152256,-1.00406,0.009272,18.41,-3.115,0.035,0.879,-0.6195,-1.269,0
03/21/2025 10:30:03.995,-0.136884,-0.954284,0.012688,11.235,-3.22,-0.91,0.8895,-0.6675,-1.2525,0
03/21/2025 10:30:04.015,-0.14518,-1.0126,0.003172,-1.47,-2.38,-2.03,0.9,-0.642,-1.263,0
03/21/2025 10:30:04.035,-0.141276,-1.02602,0.005612,-0.035,-1.575,-2.17,0.9195,-0.6465,-1.263,0
03/21/2025 10:30:04.055,-0.14274,-1.04554,0.006832,8.015,-0.77,-1.68,0.885,-0.6825,-1.2675,0
03/21/2025 10:30:04.075,-0.144448,-1.010892,0.034404,13.58,-1.12,-1.785,0.8805,-0.6615,-1.263,0
03/21/2025 10:30:04.095,-0.153232,-1.005524,0.026108,14.595,-0.35,-0.98,0.885,-0.672,-1.263,0
03/21/2025 10:30:04.115,-0.157624,-1.002352,0.024156,10.08,0,-0.315,0.8655,-0.6705,-1.2885,0
03/21/2025 10:30:04.135,-0.148596,-0.973072,0.028548,6.02,-0.035,-0.42,0.885,-0.6405,-1.3095,0
03/21/2025 10:30:04.155,-0.132248,-1.011624,0.014884,3.675,0.42,-0.175,0.8745,-0.651,-1.284,0
03/21/2025 10:30:04.175,-0.13298,-1.002352,0.014884,3.255,0.63,0.035,0.8895,-0.6615,-1.2885,0
03/21/2025 10:30:04.195,-0.136152,-1.021384,0.027084,2.975,1.33,-1.12,0.8895,-0.6615,-1.2885,0
03/21/2025 10:30:04.215,-0.149328,-1.028948,0.025864,4.795,1.785,-1.19,0.8895,-0.6615,-1.2885,0
03/21/2025 10:30:04.235,-0.157624,-1.026996,0.02806,9.695,1.505,-0.7,0.8805,-0.6615,-1.257,0
03/21/2025 10:30:04.255,-0.154696,-0.981612,0.034892,14.875,0.42,0.595,0.8955,-0.6555,-1.299,0
03/21/2025 10:30:04.275,-0.158356,-0.96868,0.035624,14.525,-0.805,1.61,0.885,-0.6405,-1.299,0
03/21/2025 10:30:04.295,-0.152744,-0.975268,0.060756,5.915,-0.7,1.435,0.876,-0.681,-1.314,0
03/21/2025 10:30:04.315,-0.159332,-1.006012,0.048312,0.315,1.26,1.015,0.891,-0.654,-1.3455,0
03/21/2025 10:30:04.335,-0.154696,-0.988932,0.0366,2.275,2.625,0.84,0.861,-0.687,-1.293,0
03/21/2025 10:30:04.355,-0.154208,-0.987712,0.036356,3.15,3.5,-0.21,0.885,-0.666,-1.293,0
03/21/2025 10:30:04.375,-0.155184,-0.978928,0.03782,1.75,3.955,-2.24,0.876,-0.666,-1.308,0
03/21/2025 10:30:04.395,-0.13664,-1.004792,0.049776,-0.245,3.955,-3.675,0.8715,-0.687,-1.2825,0
03/21/2025 10:30:04.415,-0.141276,-1.021872,0.030012,-1.54,4.55,-3.045,0.8655,-0.6555,-1.293,0
03/21/2025 10:30:04.435,-0.139568,-1.027972,0.026108,-0.28,4.48,-2.135,0.8805,-0.6765,-1.2825,0
03/21/2025 10:30:04.455,-0.145668,-1.007476,0.018788,1.47,4.095,-1.505,0.8715,-0.6855,-1.323,0
03/21/2025 10:30:04.475,-0.150792,-0.999912,0.041724,2.1,3.395,-1.785,0.885,-0.645,-1.32,0
03/21/2025 10:30:04.495,-0.152256,-1.025776,0.048312,1.68,3.465,-1.68,0.8505,-0.666,-1.293,0
03/21/2025 10:30:04.515,-0.167384,-0.993812,0.04026,2.94,2.695,-0.665,0.8505,-0.666,-1.293,0
03/21/2025 10:30:04.535,-0.167872,-1.018456,0.050752,3.745,2.17,-0.455,0.8505,-0.666,-1.293,0
03/21/2025 10:30:04.555,-0.163236,-1.014796,0.052948,8.82,2.52,-0.525,0.87,-0.645,-1.278,0
03/21/2025 10:30:04.575,-0.1586,-0.975268,0.051484,14.245,2.485,-1.365,0.876,-0.6765,-1.2885,0
03/21/2025 10:30:04.595,-0.164456,-0.981612,0.061976,12.705,2.8,-2.485,0.876,-0.6705,-1.2975,0
03/21/2025 10:30:04.615,-0.151036,-0.99064,0.061976,9.87,3.08,-3.325,0.876,-0.666,-1.3185,0
03/21/2025 10:30:04.635,-0.152012,-0.992348,0.058072,8.225,3.255,-3.185,0.8805,-0.6915,-1.2975,0
03/21/2025 10:30:04.655,-0.145424,-1.009428,0.063196,8.26,3.64,-3.64,0.8655,-0.675,-1.308,0
03/21/2025 10:30:04.675,-0.139324,-0.999668,0.05856,8.365,3.325,-3.92,0.8715,-0.6645,-1.344,0
03/21/2025 10:30:04.695,-0.138836,-1.021628,0.057096,5.95,3.43,-4.375,0.876,-0.675,-1.323,0
03/21/2025 10:30:04.715,-0.130052,-1.026508,0.067588,2.205,3.325,-3.885,0.906,-0.66,-1.3245,0
03/21/2025 10:30:04.735,-0.145668,-1.023336,0.055388,3.08,3.185,-3.675,0.8715,-0.6705,-1.323,0
03/21/2025 10:30:04.755,-0.14274,-1.0187,0.053436,5.18,2.555,-3.115,0.876,-0.7005,-1.3275,0
03/21/2025 10:30:04.775,-0.137616,-1.02602,0.053924,3.85,1.89,-2.66,0.9,-0.687,-1.308,0
03/21/2025 10:30:04.795,-0.141276,-1.026752,0.05856,4.69,1.365,-2.1,0.876,-0.6705,-1.3395,0
03/21/2025 10:30:04.815,-0.142984,-1.013332,0.06734399,5.53,-0.35,-0.84,0.8655,-0.66,-1.329,0
03/21/2025 10:30:04.835,-0.143716,-1.014064,0.065148,4.795,-0.805,-0.735,0.8655,-0.66,-1.329,0
03/21/2025 10:30:04.855,-0.1525,-1.015772,0.060024,8.89,-0.84,-0.28,0.876,-0.7005,-1.3335,0
03/21/2025 10:30:04.875,-0.144448,-0.993324,0.07686,13.265,-1.4,-0.42,0.8565,-0.675,-1.308,0
03/21/2025 10:30:04.895,-0.144204,-0.985272,0.079788,11.375,-1.61,-0.595,0.876,-0.675,-1.329,0
03/21/2025 10:30:04.915,-0.137372,-0.970632,0.080764,5.88,-1.75,-0.735,0.8805,-0.66,-1.3395,0
03/21/2025 10:30:04.935,-0.130052,-0.980392,0.078812,-0.105,-1.19,-1.225,0.8655,-0.6705,-1.3335,0
03/21/2025 10:30:04.955,-0.135908,-1.006012,0.073688,-0.98,-0.7,-1.365,0.8805,-0.681,-1.329,0
03/21/2025 10:30:04.975,-0.139568,-0.99308,0.081252,2.38,-1.015,-1.61,0.8655,-0.6705,-1.3185,0
03/21/2025 10:30:04.995,-0.131028,-0.990396,0.086132,1.47,-1.61,-1.89,0.8865,-0.7005,-1.3485,0
03/21/2025 10:30:05.015,-0.11834,-0.995764,0.07442,-1.295,-1.575,-2.065,0.876,-0.6855,-1.3395,0
03/21/2025 10:30:05.035,-0.124684,-1.003816,0.070272,0.56,-1.925,-2.31,0.8565,-0.669,-1.3485,0
03/21/2025 10:30:05.055,-0.126148,-1.007476,0.066124,1.785,-2.345,-2.695,0.852,-0.6735,-1.3695,0
03/21/2025 10:30:05.075,-0.122488,-1.013576,0.091256,3.115,-3.08,-3.08,0.8415,-0.705,-1.3485,0
03/21/2025 10:30:05.095,-0.1159,-1.011868,0.089792,6.02,-3.15,-2.66,0.8415,-0.6585,-1.3395,0
03/21/2025 10:30:05.115,-0.1159,-0.980148,0.097844,5.565,-3.78,-1.925,0.867,-0.7005,-1.353,0
03/21/2025 10:30:05.135,-0.11834,-1.023336,0.092964,-1.54,-3.99,-1.435,0.876,-0.684,-1.374,0
03/21/2025 10:30:05.155,-0.13176,-0.999668,0.091012,1.295,-4.445,-0.84,0.876,-0.684,-1.374,0
03/21/2025 10:30:05.175,-0.119072,-1.008208,0.11834,3.395,-4.76,-1.05,0.882,-0.675,-1.3695,0
03/21/2025 10:30:05.195,-0.118828,-1.00162,0.114436,3.78,-3.43,-1.015,0.8625,-0.699,-1.374,0
03/21/2025 10:30:05.215,-0.126148,-0.994544,0.11468,2.695,-2.73,-0.91,0.8565,-0.7005,-1.359,0
03/21/2025 10:30:05.235,-0.120292,-1.006012,0.112972,-0.105,-2.485,-1.365,0.8565,-0.6735,-1.359,0
03/21/2025 10:30:05.255,-0.107604,-1.022604,0.106872,0,-2.065,-1.89,0.867,-0.6885,-1.3845,0
03/21/2025 10:30:05.275,-0.109556,-1.037976,0.108824,2.905,-1.435,-1.505,0.8475,-0.684,-1.395,0
03/21/2025 10:30:05.295,-0.109556,-0.998936,0.123952,3.78,-1.61,-1.05,0.867,-0.6585,-1.365,0
03/21/2025 10:30:05.315,-0.106628,-1.029192,0.114192,-0.91,-1.19,-0.875,0.8415,-0.6735,-1.3845,0
03/21/2025 10:30:05.335,-0.102724,-1.028948,0.107604,-1.89,-0.595,0.035,0.8265,-0.6675,-1.38,0
03/21/2025 10:30:05.355,-0.10858,-1.020408,0.110288,0.105,-0.56,1.19,0.8715,-0.7005,-1.3695,0
03/21/2025 10:30:05.375,-0.114924,-1.00162,0.120536,0.35,-0.595,1.47,0.8565,-0.6645,-1.3395,0
03/21/2025 10:30:05.395,-0.11956,-1.011624,0.117852,-0.42,-0.665,1.925,0.8565,-0.6735,-1.395,0
03/21/2025 10:30:05.415,-0.124928,-0.997716,0.116388,1.12,-0.665,2.1,0.867,-0.6945,-1.3695,0
03/21/2025 10:30:05.435,-0.11956,-1.007232,0.113216,1.89,-0.7,2.45,0.861,-0.6735,-1.365,0
03/21/2025 10:30:05.455,-0.121512,-0.987712,0.12322,5.775,-0.7,2.205,0.8565,-0.6585,-1.395,0
03/21/2025 10:30:05.475,-0.121024,-0.9882,0.127368,6.3,-0.35,1.82,0.8565,-0.6585,-1.395,0
03/21/2025 10:30:05.495,-0.12078,-0.995276,0.124684,5.46,0.455,1.365,0.8865,-0.69,-1.3845,0
03/21/2025 10:30:05.515,-0.11956,-0.9821,0.129808,4.62,1.26,0.77,0.852,-0.6945,-1.3785,0
03/21/2025 10:30:05.535,-0.121756,-0.985272,0.121756,2.24,1.855,0.175,0.8775,-0.678,-1.401,0
03/21/2025 10:30:05.555,-0.122244,-0.98942,0.118584,0.91,2.31,-0.35,0.8625,-0.705,-1.374,0
03/21/2025 10:30:05.575,-0.11956,-0.996984,0.115168,1.785,2.625,-0.56,0.852,-0.6795,-1.3695,0
03/21/2025 10:30:05.595,-0.11468,-0.995276,0.118096,1.54,2.555,-0.735,0.867,-0.699,-1.4055,0
03/21/2025 10:30:05.615,-0.123464,-0.996984,0.115656,0.28,2.485,-0.735,0.876,-0.6795,-1.3845,0
03/21/2025 10:30:05.635,-0.11712,-1.006744,0.119316,0.91,2.135,-0.49,0.8715,-0.684,-1.3845,0
03/21/2025 10:30:05.655,-0.119072,-1.0065,0.117364,2.905,1.75,-0.245,0.8715,-0.684,-1.3995,0
03/21/2025 10:30:05.675,-0.116632,-0.991616,0.11956,4.445,1.26,0,0.8865,-0.663,-1.395,0
03/21/2025 10:30:05.695,-0.128832,-0.987712,0.119316,3.36,1.155,-0.385,0.843,-0.672,-1.4205,0
03/21/2025 10:30:05.715,-0.125172,-0.98942,0.124684,1.05,1.155,-0.91,0.8775,-0.6885,-1.3995,0
03/21/2025 10:30:05.735,-0.12444,-0.993812,0.124196,-0.84,1.435,-1.295,0.8775,-0.6945,-1.389,0
03/21/2025 10:30:05.755,-0.129564,-1.018456,0.129808,-0.385,1.68,-1.225,0.8625,-0.6735,-1.3905,0
03/21/2025 10:30:05.775,-0.129076,-1.002352,0.113704,3.955,1.19,-1.365,0.843,-0.693,-1.4205,0
03/21/2025 10:30:05.795,-0.121024,-1.0004,0.126392,4.41,0.7,-1.295,0.843,-0.693,-1.4205,0
03/21/2025 10:30:05.815,-0.118096,-0.998936,0.128832,3.85,1.05,-0.98,0.8625,-0.684,-1.395,0
03/21/2025 10:30:05.835,-0.116632,-0.99918,0.13298,2.415,1.085,-0.49,0.867,-0.7095,-1.374,0
03/21/2025 10:30:05.855,-0.13176,-1.004792,0.130296,2.66,1.295,-0.175,0.849,-0.735,-1.4145,0
03/21/2025 10:30:05.875,-0.126148,-0.998448,0.128588,4.41,0.98,-0.35,0.8715,-0.684,-1.41,0
03/21/2025 10:30:05.895,-0.126392,-0.988932,0.134444,3.92,0.945,-0.84,0.852,-0.6735,-1.395,0
03/21/2025 10:30:05.915,-0.127612,-0.991128,0.13786,2.24,1.225,-1.26,0.8625,-0.6945,-1.3995,0
03/21/2025 10:30:05.935,-0.132492,-1.01016,0.125904,1.19,1.26,-1.365,0.8865,-0.69,-1.38,0
03/21/2025 10:30:05.955,-0.126392,-0.99796,0.127612,0.84,0.49,-1.54,0.8865,-0.684,-1.401,0
03/21/2025 10:30:05.975,-0.122732,-1.016992,0.125172,-0.735,0.28,-1.05,0.852,-0.684,-1.389,0
03/21/2025 10:30:05.995,-0.121268,-0.989908,0.132004,0.7,0.28,-0.07,0.858,-0.6825,-1.41,0
03/21/2025 10:30:06.015,-0.116388,-1.005768,0.135176,0.035,0.42,0.14,0.852,-0.684,-1.389,0
03/21/2025 10:30:06.035,-0.126148,-0.99308,0.126392,-0.21,0.7,-0.315,0.873,-0.6945,-1.41,0
03/21/2025 10:30:06.055,-0.121512,-0.994056,0.12322,0.945,0,-0.455,0.8565,-0.6735,-1.395,0
03/21/2025 10:30:06.075,-0.11956,-0.995276,0.132248,1.855,-0.805,-0.175,0.8475,-0.6795,-1.374,0
03/21/2025 10:30:06.095,-0.121024,-0.993812,0.132492,0.665,-1.12,-0.245,0.8865,-0.6885,-1.4205,0
03/21/2025 10:30:06.115,-0.118584,-0.983808,0.140788,0.455,-1.05,-0.315,0.8865,-0.6885,-1.4205,0
03/21/2025 10:30:06.135,-0.124928,-0.995764,0.13542,-0.77,-0.455,-0.35,0.867,-0.6735,-1.3905,0
03/21/2025 10:30:06.155,-0.124684,-0.997716,0.129564,-1.4,-0.525,-0.42,0.8775,-0.699,-1.4145,0
03/21/2025 10:30:06.175,-0.119316,-0.99064,0.132004,-0.595,-0.735,-0.735,0.867,-0.693,-1.4145,0
03/21/2025 10:30:06.195,-0.111996,-0.9821,0.141276,-0.245,-1.05,-0.77,0.8565,-0.684,-1.395,0
03/21/2025 10:30:06.215,-0.118096,-0.994544,0.133224,-2.17,-1.225,-0.84,0.8565,-0.6525,-1.395,0
03/21/2025 10:30:06.235,-0.127124,-1.00284,0.131272,-1.575,-1.12,-1.19,0.8625,-0.6675,-1.41,0
03/21/2025 10:30:06.255,-0.122732,-0.985028,0.137616,1.26,-1.54,-1.47,0.852,-0.6525,-1.401,0
03/21/2025 10:30:06.275,-0.112972,-0.994056,0.140788,0.35,-1.505,-1.68,0.858,-0.693,-1.4055,0
03/21/2025 10:30:06.295,-0.116632,-0.998692,0.140788,-1.575,-1.05,-1.645,0.843,-0.672,-1.4205,0
03/21/2025 10:30:06.315,-0.11712,-0.991616,0.138592,-1.54,-0.735,-1.19,0.8325,-0.6675,-1.41,0
03/21/2025 10:30:06.335,-0.12078,-0.995032,0.139568,-1.4,-0.49,-1.19,0.852,-0.657,-1.4205,0
03/21/2025 10:30:06.355,-0.117364,-1.006744,0.134932,-1.925,-0.315,-1.4,0.8625,-0.684,-1.395,0
03/21/2025 10:30:06.375,-0.112972,-1.017968,0.136396,-1.96,-0.455,-1.68,0.8625,-0.663,-1.416,0
03/21/2025 10:30:06.395,-0.106384,-1.020408,0.13176,-0.385,-0.735,-1.75,0.8115,-0.615,-1.4265,0
03/21/2025 10:30:06.415,-0.115656,-1.011136,0.139324,0.665,-0.91,-1.155,0.8115,-0.615,-1.4265,0
03/21/2025 10:30:06.435,-0.111264,-1.0248,0.140544,-0.7,-0.7,-0.455,0.8115,-0.615,-1.4265,0
03/21/2025 10:30:06.455,-0.105652,-1.024556,0.150548,-0.56,-0.665,-0.105,0.822,-0.666,-1.4415,0
03/21/2025 10:30:06.475,-0.116388,-1.021384,0.13664,-0.245,-0.245,0.7,0.8415,-0.663,-1.401,0
03/21/2025 10:30:06.495,-0.122976,-1.009428,0.146888,0.315,0.035,1.155,0.8265,-0.663,-1.3905,0
03/21/2025 10:30:06.515,-0.133224,-1.008452,0.125416,0.21,0.245,1.295,0.8325,-0.663,-1.4055,0
03/21/2025 10:30:06.535,-0.116632,-1.016748,0.138348,0,-0.07,1.4,0.852,-0.6525,-1.38,0
03/21/2025 10:30:06.555,-0.106872,-0.998204,0.138104,0.84,0.315,1.75,0.8415,-0.6675,-1.395,0
03/21/2025 10:30:06.575,-0.115656,-0.988444,0.129564,-0.525,0.63,1.995,0.8565,-0.663,-1.401,0
03/21/2025 10:30:06.595,-0.112728,-1.006988,0.14152,-1.47,0.875,2.17,0.8415,-0.636,-1.4115,0
03/21/2025 10:30:06.615,-0.110288,-0.990884,0.129808,-1.4,0.945,2.03,0.837,-0.678,-1.3695,0
03/21/2025 10:30:06.635,-0.108336,-0.985516,0.12688,-1.645,0.91,1.435,0.8265,-0.6735,-1.38,0
03/21/2025 10:30:06.655,-0.110288,-0.986248,0.133956,-0.455,0.63,1.26,0.807,-0.6555,-1.425,0
03/21/2025 10:30:06.675,-0.113216,-0.993324,0.13298,0.875,0.35,1.155,0.828,-0.678,-1.4055,0
03/21/2025 10:30:06.695,-0.107848,-0.975756,0.132248,0.63,0.21,0.56,0.843,-0.693,-1.404,0
03/21/2025 10:30:06.715,-0.106628,-0.983808,0.133956,-0.7,0.28,0.28,0.843,-0.699,-1.395,0
03/21/2025 10:30:06.735,-0.11224,-0.976,0.142496,1.4,0.455,-0.315,0.843,-0.699,-1.395,0
03/21/2025 10:30:06.755,-0.1098,-0.976732,0.141276,0.175,0.7,-0.735,0.843,-0.699,-1.395,0
03/21/2025 10:30:06.775,-0.110776,-0.993812,0.132004,-2.03,1.155,-0.91,0.8265,-0.657,-1.3905,0
03/21/2025 10:30:06.795,-0.114192,-0.994544,0.130784,-0.91,1.05,-0.98,0.8325,-0.657,-1.401,0
03/21/2025 10:30:06.815,-0.121268,-0.9882,0.132004,0.805,0.805,-0.91,0.8235,-0.6825,-1.4205,0
03/21/2025 10:30:06.835,-0.108824,-0.992592,0.1342,-0.07,0.49,-1.12,0.822,-0.6885,-1.404,0
03/21/2025 10:30:06.855,-0.118584,-0.997716,0.14152,-0.315,0.77,-1.505,0.822,-0.6675,-1.3905,0
03/21/2025 10:30:06.875,-0.11468,-0.98942,0.134444,-0.63,1.015,-1.96,0.8265,-0.663,-1.3995,0
03/21/2025 10:30:06.895,-0.110532,-0.999424,0.135176,-2.555,1.365,-2.065,0.822,-0.6465,-1.437,0
03/21/2025 10:30:06.915,-0.116144,-1.013576,0.13054,-2.24,1.575,-1.4,0.8325,-0.6675,-1.4205,0
03/21/2025 10:30:06.935,-0.11468,-1.00284,0.132248,-0.735,1.365,-1.085,0.8175,-0.678,-1.389,0
03/21/2025 10:30:06.955,-0.110288,-1.010404,0.136884,-1.435,1.155,-1.4,0.807,-0.6465,-1.416,0
03/21/2025 10:30:06.975,-0.111996,-1.017236,0.128588,-2.205,1.015,-1.085,0.8325,-0.6525,-1.3905,0
03/21/2025 10:30:06.995,-0.115168,-1.010648,0.127124,-1.19,0.945,-0.14,0.846,-0.642,-1.401,0
03/21/2025 10:30:07.015,-0.122244,-1.002352,0.136396,-0.735,0.91,-0.07,0.852,-0.6675,-1.4265,0
03/21/2025 10:30:07.035,-0.1159,-1.0065,0.134932,-1.05,0.84,-0.735,0.8325,-0.6615,-1.41,0
03/21/2025 10:30:07.055,-0.11956,-0.99918,0.133468,0.56,0.455,-0.77,0.8325,-0.6615,-1.41,0
03/21/2025 10:30:07.075,-0.113216,-1.003816,0.134444,-0.98,0.42,-0.525,0.822,-0.657,-1.3905,0
03/21/2025 10:30:07.095,-0.111996,-1.023092,0.129808,-3.57,0.98,-0.175,0.8115,-0.663,-1.3695,0
03/21/2025 10:30:07.115,-0.116144,-1.02114,0.124684,-1.54,1.54,0.7,0.792,-0.6825,-1.374,0
03/21/2025 10:30:07.135,-0.111996,-1.003572,0.126636,-0.07,1.19,1.365,0.8325,-0.678,-1.395,0
03/21/2025 10:30:07.155,-0.11102,-1.009184,0.122488,-2.1,0.98,1.505,0.8115,-0.657,-1.3905,0
03/21/2025 10:30:07.175,-0.11956,-1.007476,0.114436,-1.505,0.595,1.96,0.8115,-0.6525,-1.3905,0
03/21/2025 10:30:07.195,-0.119316,-0.990396,0.12322,0.735,-0.105,1.96,0.807,-0.672,-1.395,0
03/21/2025 10:30:07.215,-0.119316,-0.980392,0.125172,-0.84,0,1.75,0.837,-0.6465,-1.395,0
03/21/2025 10:30:07.235,-0.118828,-0.99064,0.124928,-3.675,0.35,1.47,0.837,-0.657,-1.401,0
03/21/2025 10:30:07.255,-0.122732,-0.9882,0.12688,-3.64,0.7,1.085,0.837,-0.6675,-1.3905,0
03/21/2025 10:30:07.275,-0.117852,-0.99674,0.121756,-3.01,0.77,0.805,0.852,-0.663,-1.3845,0
03/21/2025 10:30:07.295,-0.119316,-0.99308,0.11712,-1.225,0.525,0.735,0.8175,-0.672,-1.395,0
03/21/2025 10:30:07.315,-0.114436,-0.981612,0.128832,0.525,-0.35,0.14,0.828,-0.672,-1.4205,0
03/21/2025 10:30:07.335,-0.124196,-0.98454,0.13054,0.035,-0.35,-0.35,0.831,-0.636,-1.401,0
03/21/2025 10:30:07.355,-0.113216,-0.989176,0.122244,-1.085,-0.035,-0.84,0.8475,-0.6525,-1.401,0
03/21/2025 10:30:07.375,-0.11712,-0.99674,0.125904,-1.365,0.21,-1.015,0.8475,-0.6525,-1.401,0
03/21/2025 10:30:07.395,-0.122976,-0.98942,0.129076,-0.455,0,-0.91,0.8475,-0.6525,-1.401,0
03/21/2025 10:30:07.415,-0.11956,-0.994788,0.126636,-1.295,0,-1.26,0.807,-0.6675,-1.4055,0
03/21/2025 10:30:07.435,-0.117852,-0.999668,0.117852,-1.225,0.385,-1.33,0.837,-0.663,-1.3905,0
03/21/2025 10:30:07.455,-0.116632,-1.004304,0.124684,-0.21,0.035,-1.19,0.813,-0.6675,-1.3995,0
03/21/2025 10:30:07.475,-0.118828,-1.003328,0.128832,-0.525,-0.175,-1.26,0.822,-0.657,-1.395,0
03/21/2025 10:30:07.495,-0.110288,-1.004792,0.127856,-0.98,0.07,-1.05,0.837,-0.672,-1.4055,0
03/21/2025 10:30:07.515,-0.114436,-1.003328,0.122976,-0.21,0,-0.77,0.813,-0.6615,-1.3995,0
03/21/2025 10:30:07.535,-0.119072,-0.98698,0.128588,-0.91,0.21,-0.805,0.8715,-0.648,-1.4115,0
03/21/2025 10:30:07.555,-0.112728,-1.015528,0.12566,-1.365,0.175,-0.315,0.822,-0.6675,-1.4205,0
03/21/2025 10:30:07.575,-0.096868,-0.996252,0.123952,1.365,-0.07,-0.105,0.837,-0.6675,-1.3995,0
03/21/2025 10:30:07.595,-0.107604,-0.983808,0.132004,2.45,0.28,-0.42,0.8265,-0.6465,-1.401,0
03/21/2025 10:30:07.615,-0.116632,-0.960384,0.131272,0.77,1.645,-0.875,0.837,-0.6465,-1.401,0
03/21/2025 10:30:07.635,-0.102968,-0.9577,0.13054,-0.525,2.24,-1.68,0.8415,-0.642,-1.416,0
03/21/2025 10:30:07.655,-0.09394,-0.975024,0.119804,-1.89,2.065,-1.785,0.8415,-0.6525,-1.4055,0
03/21/2025 10:30:07.675,-0.089304,-0.963068,0.150548,-4.025,2.135,-1.925,0.8625,-0.663,-1.4055,0
03/21/2025 10:30:07.695,-0.101748,-0.969656,0.116876,-1.47,3.78,-3.08,0.8625,-0.663,-1.4055,0
03/21/2025 10:30:07.715,-0.096624,-0.957456,0.12566,1.015,2.765,-4.515,0.8625,-0.663,-1.4055,0
03/21/2025 10:30:07.735,-0.088572,-1.00406,0.130052,-3.08,2.555,-6.755,0.8475,-0.678,-1.38,0
03/21/2025 10:30:07.755,-0.09857599,-0.99308,0.110044,-0.035,2.59,-7.805,0.822,-0.6675,-1.3905,0
03/21/2025 10:30:07.775,-0.088328,-0.989664,0.12078,0.56,1.925,-8.61,0.8415,-0.6525,-1.386,0
03/21/2025 10:30:07.795,-0.08686399,-1.015528,0.117852,-1.12,1.995,-8.05,0.8025,-0.672,-1.41,0
03/21/2025 10:30:07.815,-0.088084,-1.004548,0.117852,1.925,1.96,-7.14,0.822,-0.657,-1.3845,0
03/21/2025 10:30:07.835,-0.089792,-0.977708,0.1159,5.04,2.205,-7.56,0.8265,-0.6615,-1.41,0
03/21/2025 10:30:07.855,-0.076128,-0.929396,0.141276,8.75,2.205,-9.59,0.8415,-0.6255,-1.4115,0
03/21/2025 10:30:07.875,-0.05856,-0.887428,0.16104,11.165,2.52,-12.005,0.8025,-0.672,-1.4145,0
03/21/2025 10:30:07.895,-0.025132,-0.909876,0.158112,8.855,3.115,-12.775,0.8025,-0.672,-1.3785,0
03/21/2025 10:30:07.915,-0.00976,-0.850828,0.161528,4.83,4.235,-14.14,0.8115,-0.651,-1.41,0
03/21/2025 10:30:07.935,-0.030012,-0.84058,0.1464,-2.835,6.265,-16.695,0.7875,-0.657,-1.389,0
03/21/2025 10:30:07.955,-0.024644,-0.86986,0.14518,-6.125,7.035,-21.175,0.792,-0.6525,-1.38,0
03/21/2025 10:30:07.975,-0.014884,-0.8723,0.119316,-3.045,8.26,-26.005,0.8175,-0.6255,-1.416,0
03/21/2025 10:30:07.995,0.00732,-0.89182,0.1159,4.935,7.805,-31.78,0.7875,-0.651,-1.3905,0
03/21/2025 10:30:08.015,0.054656,-0.77958,0.173728,19.635,4.935,-39.48,0.762,-0.63,-1.4055,0
03/21/2025 10:30:08.035,0.094916,-0.815936,0.132004,19.565,4.725,-42.07,0.762,-0.63,-1.4055,0
03/21/2025 10:30:08.055,0.108824,-0.832284,0.131028,18.55,2.8,-44.24,0.747,-0.615,-1.401,0
03/21/2025 10:30:08.075,0.100284,-0.837408,0.159576,17.955,2.415,-47.04,0.7515,-0.594,-1.38,0
03/21/2025 10:30:08.095,0.114192,-0.83814,0.134932,15.33,3.92,-52.22,0.693,-0.5865,-1.4265,0
03/21/2025 10:30:08.115,0.156404,-0.835212,0.134932,20.545,3.22,-59.255,0.6975,-0.6015,-1.4565,0
03/21/2025 10:30:08.135,0.185684,-0.756644,0.230824,26.11,0.035,-65.45,0.6975,-0.5985,-1.395,0
03/21/2025 10:30:08.155,0.156404,-0.796416,0.22814,19.39,0.42,-70.77,0.648,-0.5805,-1.446,0
03/21/2025 10:30:08.175,0.16104,-0.904264,0.197152,3.08,3.22,-72.345,0.618,-0.5655,-1.4415,0
03/21/2025 10:30:08.195,0.2074,-0.975024,0.187148,-4.585,5.11,-77.21,0.603,-0.576,-1.425,0
03/21/2025 10:30:08.215,0.248392,-0.984052,0.192272,-2.45,6.615,-81.375,0.5685,-0.585,-1.4445,0
03/21/2025 10:30:08.235,0.27084,-1.022116,0.212524,-0.035,8.225,-83.825,0.528,-0.5325,-1.416,0
03/21/2025 10:30:08.255,0.23668,-1.155096,0.246196,7.245,10.115,-85.19,0.5325,-0.5325,-1.41,0
03/21/2025 10:30:08.275,0.218136,-1.211948,0.217648,17.78,9.625,-81.62,0.468,-0.5175,-1.3995,0
03/21/2025 10:30:08.295,0.273524,-1.196088,0.20252,12.88,6.23,-75.74,0.4695,-0.522,-1.425,0
03/21/2025 10:30:08.315,0.316956,-1.238544,0.174216,2.52,3.955,-62.755,0.414,-0.495,-1.431,0
03/21/2025 10:30:08.335,0.37088,-1.147776,0.171288,7.385,1.82,-52.43,0.3795,-0.504,-1.419,0
03/21/2025 10:30:08.355,0.400892,-1.02602,0.153232,12.81,0.105,-46.83,0.3795,-0.4935,-1.4505,0
03/21/2025 10:30:08.375,0.404064,-0.961604,0.10614,15.26,-3.255,-44.065,0.345,-0.4725,-1.446,0
03/21/2025 10:30:08.395,0.40992,-0.955748,0.180072,21.595,-10.36,-42.35,0.3255,-0.4935,-1.434,0
03/21/2025 10:30:08.415,0.407236,-0.904996,0.184464,30.065,-15.505,-38.01,0.3255,-0.5025,-1.44,0
03/21/2025 10:30:08.435,0.454084,-0.83814,0.195688,44.415,-21.385,-34.23,0.27,-0.492,-1.455,0
03/21/2025 10:30:08.455,0.499712,-0.709308,0.205448,55.195,-24.5,-33.74,0.291,-0.501,-1.4805,0
03/21/2025 10:30:08.475,0.491416,-0.633668,0.176412,42.875,-22.785,-39.62,0.237,-0.5055,-1.5,0
03/21/2025 10:30:08.495,0.512156,-0.657336,0.147376,21.42,-22.89,-51.205,0.2175,-0.51,-1.5045,0
03/21/2025 10:30:08.515,0.526552,-0.7503,0.205204,11.095,-26.25,-64.75,0.2025,-0.5235,-1.539,0
03/21/2025 10:30:08.535,0.507764,-0.848632,0.26108,17.535,-30.345,-69.79,0.1785,-0.5235,-1.5345,0
03/21/2025 10:30:08.555,0.525332,-0.85156,0.226188,34.685,-32.41,-65.765,0.159,-0.5175,-1.5495,0
03/21/2025 10:30:08.575,0.576084,-0.766648,0.210572,64.61,-38.5,-62.79,0.1185,-0.516,-1.569,0
03/21/2025 10:30:08.595,0.604144,-0.731024,0.175924,86.415,-42.42,-62.055,0.09,-0.552,-1.5735,0
03/21/2025 10:30:08.615,0.64782,-0.747616,0.173728,98.525,-47.46,-65.905,0.0315,-0.5805,-1.6485,0
03/21/2025 10:30:08.635,0.687592,-0.766404,0.302072,122.605,-56.21,-72.975,0.033,-0.6105,-1.653,0
03/21/2025 10:30:08.655,0.663436,-0.742248,0.318908,134.75,-60.06,-72.625,0.033,-0.6105,-1.653,0
03/21/2025 10:30:08.675,0.717848,-0.775188,0.3782,167.16,-67.13,-67.655,0.033,-0.6105,-1.653,0
03/21/2025 10:30:08.695,0.729316,-0.701988,0.3782,200.13,-65.31,-58.275,-0.096,-0.7065,-1.8435,0
03/21/2025 10:30:08.715,0.768844,-0.525576,0.42944,231.42,-66.99,-48.755,-0.129,-0.7725,-1.8975,0
03/21/2025 10:30:08.735,0.828136,-0.352092,0.500444,258.72,-67.41,-46.69,-0.201,-0.8565,-1.962,0
03/21/2025 10:30:08.755,0.865224,-0.025132,0.6344,242.445,-69.475,-48.755,-0.213,-0.9165,-2.0475,0
03/21/2025 10:30:08.775,0.859612,0.061976,0.715164,162.19,-67.025,-55.93,-0.2415,-1.0335,-2.085,0
03/21/2025 10:30:08.795,0.88328,0.039772,0.690764,43.645,-60.655,-62.265,-0.2835,-1.1235,-2.1435,0
03/21/2025 10:30:08.815,0.919392,-0.078568,0.598288,-64.995,-52.535,-76.44,-0.321,-1.188,-2.1975,0
03/21/2025 10:30:08.835,0.957456,-0.222528,0.525332,-132.755,-42.49,-90.615,-0.342,-1.2,-2.1405,0
03/21/2025 10:30:08.855,0.990396,-0.360388,0.471408,-150.255,-34.23,-100.03,-0.381,-1.1685,-2.1405,0
03/21/2025 10:30:08.875,0.996984,-0.492636,0.43798,-134.54,-28.49,-104.545,-0.408,-1.122,-2.091,0
03/21/2025 10:30:08.895,0.969412,-0.554124,0.429196,-94.22,-25.725,-104.895,-0.4335,-1.056,-2.0565,0
03/21/2025 10:30:08.915,0.947208,-0.488244,0.423584,-45.85,-27.265,-105.525,-0.489,-1.056,-2.0355,0
03/21/2025 10:30:08.935,1.001132,-0.394304,0.396988,-15.085,-31.675,-105.14,-0.504,-1.0605,-2.0295,0
03/21/2025 10:30:08.955,1.057252,-0.350384,0.39162,4.445,-36.75,-104.3,-0.5535,-1.0455,-2.004,0
03/21/2025 10:30:08.975,1.03822,-0.366732,0.3843,5.88,-36.855,-100.485,-0.5535,-1.0455,-2.004,0
03/21/2025 10:30:08.995,1.047492,-0.41236,0.345748,11.025,-39.445,-93.695,-0.6315,-1.116,-1.9965,0
03/21/2025 10:30:09.015,1.044076,-0.484584,0.300364,24.675,-40.425,-85.19,-0.6315,-1.116,-1.9965,0
03/21/2025 10:30:09.035,1.019432,-0.456768,0.263032,58.87,-42.98,-74.34,-0.6705,-1.1355,-1.9845,0
03/21/2025 10:30:09.055,1.01016,-0.52948,0.224968,97.895,-44.905,-61.18,-0.6945,-1.1565,-1.9935,0
03/21/2025 10:30:09.075,1.048712,-0.390644,0.260836,160.405,-51.835,-50.855,-0.7185,-1.1955,-2.028,0
03/21/2025 10:30:09.095,1.070428,-0.157624,0.344284,185.36,-54.985,-40.74,-0.783,-1.227,-2.001,0
03/21/2025 10:30:09.115,1.014308,0.138836,0.339404,155.085,-51.135,-33.915,-0.795,-1.344,-2.0445,0
03/21/2025 10:30:09.135,0.987956,0.14152,0.288164,83.51,-43.715,-33.705,-0.834,-1.4055,-2.0475,0
03/21/2025 10:30:09.155,0.976976,-0.02684,0.32696,23.065,-36.19,-34.72,-0.843,-1.4715,-2.046,0
03/21/2025 10:30:09.175,0.976,-0.293532,0.299876,11.83,-26.775,-34.405,-0.867,-1.4925,-2.04,0
03/21/2025 10:30:09.195,0.896944,-0.198616,0.335744,39.445,-24.01,-30.31,-0.882,-1.5075,-2.034,0
03/21/2025 10:30:09.215,0.87962,-0.164944,0.380396,54.705,-26.775,-24.85,-0.8715,-1.5225,-2.034,0
03/21/2025 10:30:09.235,0.919636,-0.123952,0.395524,63.735,-30.765,-18.27,-0.906,-1.5585,-2.0115,0
03/21/2025 10:30:09.255,0.974048,-0.134688,0.363316,72.135,-30.59,-12.39,-0.885,-1.5945,-2.022,0
03/21/2025 10:30:09.275,0.981856,-0.067832,0.402112,78.435,-25.865,-4.025,-0.9195,-1.6005,-2.0115,0
03/21/2025 10:30:09.295,0.964288,-0.074908,0.371612,80.36,-19.145,0.805,-0.9195,-1.6005,-2.0115,0
03/21/2025 10:30:09.315,0.98576,0.002196,0.378932,82.6,-14.805,5.46,-0.9735,-1.671,-2.013,0
03/21/2025 10:30:09.335,0.995276,0.005612,0.367708,73.745,-7.735,10.29,-0.963,-1.728,-2.0175,0
03/21/2025 10:30:09.355,0.988688,0.019764,0.368196,70.875,-0.035,13.23,-0.963,-1.728,-2.0175,0
03/21/2025 10:30:09.375,0.968436,0.075884,0.34038,63.385,8.155,14.42,-0.9765,-1.77,-1.9905,0
03/21/2025 10:30:09.395,0.989908,0.096868,0.354776,48.405,14.42,13.475,-0.9615,-1.764,-2.007,0
03/21/2025 10:30:09.415,1.0004,0.077836,0.31354,33.285,21.84,12.04,-0.981,-1.806,-1.9995,0
03/21/2025 10:30:09.435,0.992592,0.077104,0.288652,24.01,27.825,11.235,-0.951,-1.791,-1.995,0
03/21/2025 10:30:09.455,0.992836,0.020252,0.255224,20.79,31.045,12.04,-0.9615,-1.77,-1.9965,0
03/21/2025 10:30:09.475,0.984784,0.03904,0.210816,31.605,32.48,13.37,-0.9315,-1.806,-1.995,0
03/21/2025 10:30:09.495,0.9882,0.077104,0.19886,40.005,31.185,14.595,-0.9315,-1.8,-2.037,0
03/21/2025 10:30:09.515,1.009916,0.104188,0.21106,38.045,29.26,14.35,-0.9015,-1.842,-2.0355,0
03/21/2025 10:30:09.535,1.011136,0.15616,0.191784,26.18,29.89,12.6,-0.9315,-1.8105,-2.031,0
03/21/2025 10:30:09.555,0.976732,0.112972,0.162992,9.8,30.065,10.395,-0.915,-1.845,-2.082,0
03/21/2025 10:30:09.575,0.984784,0.051972,0.181292,3.815,27.055,8.75,-0.8955,-1.8315,-2.061,0
03/21/2025 10:30:09.595,1.003084,0.049776,0.16226,9.87,23.45,8.75,-0.861,-1.842,-2.0715,0
03/21/2025 10:30:09.615,0.993568,0.087596,0.152012,14.035,20.02,7.98,-0.861,-1.842,-2.0715,0
03/21/2025 10:30:09.635,0.99186,0.089548,0.162992,11.515,17.465,7.175,-0.8355,-1.8525,-2.0925,0
03/21/2025 10:30:09.655,0.988688,0.116876,0.17446,4.13,15.365,6.16,-0.855,-1.842,-2.088,0
03/21/2025 10:30:09.675,0.985272,0.05124,0.17202,-4.025,14.07,5.215,-0.846,-1.851,-2.097,0
03/21/2025 10:30:09.695,0.98332,-0.01342,0.171288,2.03,11.34,4.97,-0.846,-1.851,-2.097,0
03/21/2025 10:30:09.715,0.990884,0.01342,0.205692,17.01,7.28,5.915,-0.8265,-1.8525,-2.097,0
03/21/2025 10:30:09.735,0.996252,0.094916,0.19032,23.625,4.795,6.615,-0.8205,-1.8465,-2.103,0
03/21/2025 10:30:09.755,0.986248,0.111508,0.1952,20.125,2.765,4.97,-0.801,-1.863,-2.0925,0
03/21/2025 10:30:09.775,0.9699,0.082472,0.207156,13.125,0.77,2.345,-0.8265,-1.8465,-2.088,0
03/21/2025 10:30:09.795,0.973804,0.059292,0.226188,11.935,-0.945,-0.315,-0.8115,-1.89,-2.0505,0
03/21/2025 10:30:09.815,0.981612,0.088816,0.228384,10.185,-2.765,-1.26,-0.8205,-1.863,-2.0775,0
03/21/2025 10:30:09.835,0.978196,0.116388,0.227164,3.675,-3.745,-2.065,-0.8445,-1.914,-2.091,0
03/21/2025 10:30:09.855,0.9821,0.081496,0.252296,-7.49,-4.655,-2.835,-0.81,-1.8885,-2.076,0
03/21/2025 10:30:09.875,0.997472,-0.008052,0.274256,-11.83,-4.13,-3.255,-0.831,-1.878,-2.082,0
03/21/2025 10:30:09.895,0.989664,-0.013908,0.24888,2.59,-2.765,-2.17,-0.861,-1.8615,-2.082,0
03/21/2025 10:30:09.915,0.976488,0.056852,0.259616,21.805,-4.13,-0.385,-0.855,-1.8975,-2.0865,0
03/21/2025 10:30:09.935,0.981612,0.089304,0.274256,21.245,-4.375,-0.84,-0.8595,-1.8975,-2.0805,0
03/21/2025 10:30:09.955,0.985516,0.090036,0.284748,12.32,-3.185,-1.96,-0.84,-1.8885,-2.076,0
03/21/2025 10:30:09.975,0.984784,0.09467199,0.26474,2.45,-1.82,-2.695,-0.825,-1.9245,-2.0655,0
