time,ax,ay,az,gx,gy,gz,mx,my,mz,Label
05/22/2025 13:40:50.413,0.393572,-0.457744,0.846436,-14.56,5.18,-4.9,-1.0365,-1.449,-1.6125,0
05/22/2025 13:40:50.433,0.397232,-0.464576,0.79788,-21.84,0.665,-5.39,-1.047,-1.4595,-1.5975,0
05/22/2025 13:40:50.453,0.39406,-0.481168,0.750056,-18.375,-2.345,-4.935,-1.0515,-1.452,-1.6125,0
05/22/2025 13:40:50.473,0.369904,-0.410896,0.705648,-9.52,-6.685,-5.81,-1.029,-1.437,-1.6005,0
05/22/2025 13:40:50.493,0.393816,-0.493124,0.715896,-9.905,-11.2,-7.245,-1.029,-1.4445,-1.605,0
05/22/2025 13:40:50.513,0.41236,-0.422852,0.751032,-4.025,-12.25,-7.175,-1.056,-1.44,-1.617,0
05/22/2025 13:40:50.533,0.412604,-0.499468,0.792268,-3.185,-11.375,-4.9,-1.0515,-1.4295,-1.5975,0
05/22/2025 13:40:50.553,0.403576,-0.506788,0.8052,-1.19,-8.47,-3.885,-1.071,-1.4445,-1.6095,0
05/22/2025 13:40:50.573,0.411384,-0.499468,0.81984,-1.54,-6.055,-1.715,-1.0515,-1.4565,-1.605,0
05/22/2025 13:40:50.593,0.423584,-0.523136,0.843752,-2.17,-2.835,-0.665,-1.0635,-1.4325,-1.5975,0
05/22/2025 13:40:50.613,0.413824,-0.49288,0.812032,-1.96,-1.295,0.14,-1.0635,-1.4325,-1.5975,0
05/22/2025 13:40:50.633,0.407968,-0.483852,0.785192,-2.905,-1.47,0.735,-1.014,-1.449,-1.593,0
05/22/2025 13:40:50.653,0.410896,-0.481412,0.779092,-2.03,-1.505,1.645,-1.014,-1.4685,-1.5765,0
05/22/2025 13:40:50.673,0.416996,-0.493368,0.773724,-1.12,-2.345,3.08,-1.029,-1.4565,-1.596,0
05/22/2025 13:40:50.693,0.409188,-0.475068,0.766404,1.96,-2.45,4.13,-1.0065,-1.5135,-1.599,0
05/22/2025 13:40:50.713,0.404552,-0.47946,0.778116,1.575,-2.94,5.005,-1.0035,-1.4865,-1.6035,0
05/22/2025 13:40:50.733,0.39162,-0.406504,0.798856,1.925,-3.15,3.955,-0.999,-1.491,-1.6035,0
05/22/2025 13:40:50.753,0.413092,-0.44652,0.7991,-2.765,-3.36,2.345,-0.984,-1.4985,-1.6215,0
05/22/2025 13:40:50.773,0.415288,-0.469212,0.796904,-1.295,-2.975,0.63,-0.9855,-1.491,-1.629,0
05/22/2025 13:40:50.793,0.421632,-0.49288,0.831064,-0.455,-2.1,0.595,-0.9855,-1.491,-1.626,0
05/22/2025 13:40:50.813,0.429196,-0.51362,0.81374,-0.21,-1.435,1.085,-0.9705,-1.4835,-1.6215,0
05/22/2025 13:40:50.833,0.414312,-0.534604,0.793,3.15,-1.155,1.785,-0.9975,-1.4835,-1.653,0
05/22/2025 13:40:50.853,0.417484,-0.514596,0.773724,5.88,-2.31,3.325,-1.008,-1.491,-1.653,0
05/22/2025 13:40:50.873,0.409676,-0.531432,0.778116,6.755,-3.465,5.53,-0.9735,-1.494,-1.644,0
05/22/2025 13:40:50.893,0.393084,-0.528992,0.754936,8.75,-4.9,6.37,-1.0005,-1.506,-1.6755,0
05/22/2025 13:40:50.913,0.38918,-0.528748,0.724192,9.835,-7.455,7.63,-0.9855,-1.4715,-1.656,0
05/22/2025 13:40:50.933,0.394792,-0.504348,0.722484,9.275,-9.695,9.205,-0.9975,-1.4985,-1.6635,0
05/22/2025 13:40:50.953,0.39406,-0.483852,0.735904,7.14,-9.59,9.905,-1.0095,-1.449,-1.6605,0
05/22/2025 13:40:50.973,0.399184,-0.466284,0.747372,7.14,-7.735,9.555,-1.008,-1.467,-1.6635,0
05/22/2025 13:40:50.993,0.393572,-0.423096,0.729072,6.23,-6.475,7.91,-1.023,-1.464,-1.6725,0
05/22/2025 13:40:51.013,0.405772,-0.313052,0.817156,3.15,1.505,3.885,-1.0005,-1.464,-1.656,0
05/22/2025 13:40:51.033,0.395768,-0.371368,0.813496,-8.19,3.92,-3.605,-1.0305,-1.4565,-1.6695,0
05/22/2025 13:40:51.053,0.4209,-0.391864,0.830332,-11.97,2.555,-8.96,-1.0125,-1.4595,-1.6725,0
05/22/2025 13:40:51.073,0.439688,-0.45872,0.855952,-16.73,2.87,-12.145,-0.9825,-1.446,-1.653,0
05/22/2025 13:40:51.093,0.4514,-0.50752,0.865468,-14.63,1.47,-12.74,-0.9855,-1.4415,-1.6455,0
05/22/2025 13:40:51.113,0.448472,-0.524112,0.823012,-5.495,-0.56,-9.94,-1.0125,-1.4415,-1.6605,0
05/22/2025 13:40:51.133,0.436028,-0.520696,0.778848,6.125,-5.005,-4.48,-0.9945,-1.4595,-1.6755,0
05/22/2025 13:40:51.153,0.452132,-0.506788,0.735172,12.11,-7.56,-1.575,-0.9945,-1.4595,-1.6755,0
05/22/2025 13:40:51.173,0.439932,-0.451644,0.708088,17.01,-7.665,1.015,-1.0125,-1.464,-1.668,0
05/22/2025 13:40:51.193,0.43188,-0.383812,0.684176,19.25,-8.26,1.855,-0.978,-1.476,-1.641,0
05/22/2025 13:40:51.213,0.449204,-0.399428,0.709552,18.27,-7.805,0.595,-0.99,-1.464,-1.653,0
05/22/2025 13:40:51.233,0.448228,-0.412848,0.769332,13.09,-7.07,-2.1,-1.005,-1.4415,-1.653,0
05/22/2025 13:40:51.253,0.45994,-0.436028,0.79178,6.895,-6.055,-3.36,-0.9705,-1.4865,-1.644,0
05/22/2025 13:40:51.273,0.463112,-0.468968,0.788364,4.515,-4.83,-4.305,-1.0455,-1.4595,-1.635,0
05/22/2025 13:40:51.293,0.47336,-0.457744,0.792024,3.045,-4.69,-4.305,-1.0305,-1.4865,-1.65,0
05/22/2025 13:40:51.313,0.465796,-0.444568,0.779824,2.31,-5.075,-2.66,-1.056,-1.485,-1.65,0
05/22/2025 13:40:51.333,0.462868,-0.44042,0.758352,2.94,-5.775,-0.875,-1.041,-1.4895,-1.6605,0
05/22/2025 13:40:51.353,0.476044,-0.433344,0.774212,5.53,-5.565,0.49,-1.056,-1.4745,-1.635,0
05/22/2025 13:40:51.373,0.476288,-0.41236,0.76494,4.76,-5.39,1.33,-1.068,-1.4475,-1.6665,0
05/22/2025 13:40:51.393,0.471896,-0.411872,0.759572,3.85,-4.655,0.875,-1.0815,-1.4445,-1.629,0
05/22/2025 13:40:51.413,0.452376,-0.427976,0.776652,3.99,-4.795,-0.035,-1.0815,-1.4445,-1.629,0
05/22/2025 13:40:51.433,0.474092,-0.454328,0.783484,4.515,-5.46,-0.385,-1.0815,-1.4445,-1.629,0
05/22/2025 13:40:51.453,0.45384,-0.419192,0.784704,3.22,-4.025,1.015,-1.086,-1.437,-1.6215,0
05/22/2025 13:40:51.473,0.458232,-0.431636,0.80032,2.94,-3.01,0.14,-1.107,-1.4475,-1.611,0
05/22/2025 13:40:51.493,0.462136,-0.441152,0.804956,-0.735,-2.205,0.56,-1.089,-1.437,-1.602,0
05/22/2025 13:40:51.513,0.460672,-0.447252,0.797392,-1.435,-1.995,-0.175,-1.0815,-1.452,-1.605,0
05/22/2025 13:40:51.533,0.452376,-0.439444,0.799832,-1.645,-2.415,-0.28,-1.0965,-1.44,-1.599,0
05/22/2025 13:40:51.553,0.449692,-0.41602,0.79178,-3.36,-2.24,0.105,-1.0695,-1.449,-1.572,0
05/22/2025 13:40:51.573,0.470676,-0.388204,0.808616,-3.78,-1.645,-0.175,-1.0995,-1.428,-1.5945,0
05/22/2025 13:40:51.593,0.524112,-0.399428,0.803248,-7.63,-0.315,-0.105,-1.0755,-1.464,-1.5645,0
05/22/2025 13:40:51.613,0.593896,-0.397476,0.820084,-10.815,4.725,0.105,-1.08,-1.479,-1.563,0
05/22/2025 13:40:51.633,0.681492,-0.499712,0.805688,-13.685,10.22,2.31,-1.0725,-1.467,-1.563,0
05/22/2025 13:40:51.653,0.720532,-0.475556,0.799588,-14.49,17.325,9.8,-1.044,-1.4565,-1.5825,0
05/22/2025 13:40:51.673,0.708332,-0.539728,0.871812,-25.025,41.545,29.68,-1.083,-1.4595,-1.557,0
05/22/2025 13:40:51.693,0.74664,-0.505568,0.819352,-16.38,56.98,42.175,-1.059,-1.4025,-1.5945,0
05/22/2025 13:40:51.713,0.687104,-0.537044,0.734684,-5.81,69.055,52.185,-1.0455,-1.407,-1.605,0
05/22/2025 13:40:51.733,0.606096,-0.492148,0.77104,8.435,68.285,57.75,-1.02,-1.374,-1.6125,0
05/22/2025 13:40:51.753,0.524112,-0.397476,0.73322,16.625,61.285,57.82,-0.9765,-1.386,-1.638,0
05/22/2025 13:40:51.773,0.421876,-0.403088,0.703208,13.055,53.165,55.23,-0.966,-1.332,-1.6455,0
05/22/2025 13:40:51.793,0.399916,-0.43676,0.757864,3.115,46.76,51.345,-0.933,-1.3185,-1.6365,0
05/22/2025 13:40:51.813,0.345016,-0.426268,0.781776,-7.7,38.185,45.22,-0.9255,-1.2765,-1.614,0
05/22/2025 13:40:51.833,0.320372,-0.43432,0.757132,-18.165,27.79,37.835,-0.948,-1.2765,-1.656,0
05/22/2025 13:40:51.853,0.298656,-0.458964,0.732,-23.59,18.34,29.855,-0.948,-1.2765,-1.656,0
05/22/2025 13:40:51.873,0.286456,-0.4758,0.683444,-20.51,8.4,21.805,-0.9255,-1.2885,-1.644,0
05/22/2025 13:40:51.893,0.2806,-0.442372,0.701256,-13.3,-1.75,14.175,-0.93,-1.2765,-1.644,0
05/22/2025 13:40:51.913,0.277916,-0.491172,0.694668,-16.1,-12.075,7.63,-0.9405,-1.2495,-1.6335,0
05/22/2025 13:40:51.933,0.283528,-0.494588,0.631716,-19.845,-26.39,2.03,-0.9345,-1.224,-1.623,0
05/22/2025 13:40:51.953,0.263764,-0.556564,0.569496,-20.895,-42.035,-6.16,-0.933,-1.254,-1.6065,0
05/22/2025 13:40:51.973,0.25254,-0.56242,0.542168,-17.465,-51.485,-10.885,-0.978,-1.227,-1.59,0
05/22/2025 13:40:51.993,0.210084,-0.532652,0.56242,-10.815,-60.97,-16.695,-0.9915,-1.224,-1.5705,0
05/22/2025 13:40:52.013,0.183244,-0.557052,0.57828,-11.585,-67.025,-22.68,-1.0215,-1.26,-1.59,0
05/22/2025 13:40:52.033,0.205204,-0.598044,0.578524,-14.525,-74.165,-26.46,-1.05,-1.257,-1.5525,0
05/22/2025 13:40:52.053,0.24766,-0.583892,0.638548,-15.05,-77.91,-27.055,-1.0545,-1.2555,-1.569,0
05/22/2025 13:40:52.073,0.289384,-0.586332,0.677832,-17.15,-75.355,-25.48,-1.104,-1.2855,-1.539,0
05/22/2025 13:40:52.093,0.312564,-0.606584,0.702476,-18.165,-65.66,-22.26,-1.116,-1.2735,-1.5405,0
05/22/2025 13:40:52.113,0.335744,-0.646356,0.743468,-18.445,-52.99,-16.8,-1.152,-1.2735,-1.5105,0
05/22/2025 13:40:52.133,0.346968,-0.6954,0.817644,-11.095,-39.41,-11.235,-1.188,-1.3035,-1.4955,0
05/22/2025 13:40:52.153,0.338672,-0.724436,0.848144,-2.8,-28.805,-4.445,-1.203,-1.296,-1.497,0
05/22/2025 13:40:52.173,0.332328,-0.842044,0.633912,11.97,-19.6,-1.575,-1.2375,-1.287,-1.5165,0
05/22/2025 13:40:52.193,0.341844,-0.658556,0.876936,42.035,-6.37,-2.345,-1.266,-1.2945,-1.4865,0
05/22/2025 13:40:52.213,0.267912,-0.592432,0.909632,68.39,15.575,-3.36,-1.2735,-1.3095,-1.4985,0
05/22/2025 13:40:52.233,0.225944,-0.502884,0.898652,75.915,23.1,-1.925,-1.2735,-1.3095,-1.4985,0
05/22/2025 13:40:52.253,0.20496,-0.399916,0.902556,67.76,26.635,2.205,-1.281,-1.3425,-1.4985,0
05/22/2025 13:40:52.273,0.189588,-0.516304,0.773968,49.42,21.595,6.93,-1.263,-1.347,-1.5285,0
05/22/2025 13:40:52.293,0.246196,-0.524356,0.819108,53.76,14,11.235,-1.2735,-1.362,-1.536,0
05/22/2025 13:40:52.313,0.256444,-0.399916,0.858392,69.195,16.24,14.595,-1.263,-1.3665,-1.5465,0
05/22/2025 13:40:52.333,0.252296,-0.379664,0.948916,67.62,15.26,15.05,-1.2885,-1.392,-1.548,0
05/22/2025 13:40:52.353,0.270108,-0.377956,1.009672,55.3,10.395,15.89,-1.2735,-1.3965,-1.539,0
05/22/2025 13:40:52.373,0.287676,-0.348432,0.958188,39.375,5.53,13.615,-1.269,-1.4115,-1.536,0
05/22/2025 13:40:52.393,0.308172,-0.395524,0.915732,25.69,6.09,12.705,-1.263,-1.404,-1.566,0
05/22/2025 13:40:52.413,0.344772,-0.422608,0.920612,23.1,9.485,13.3,-1.2735,-1.4265,-1.566,0
05/22/2025 13:40:52.433,0.34038,-0.413092,0.908656,23.73,13.3,14.105,-1.263,-1.4025,-1.581,0
05/22/2025 13:40:52.453,0.34038,-0.393816,0.874984,20.125,14.665,15.435,-1.269,-1.422,-1.551,0
05/22/2025 13:40:52.473,0.332572,-0.386496,0.812032,15.995,12.95,15.085,-1.2885,-1.4445,-1.578,0
05/22/2025 13:40:52.493,0.339648,-0.360388,0.742004,19.95,4.27,13.93,-1.2885,-1.4445,-1.578,0
05/22/2025 13:40:52.513,0.346724,-0.32574,0.734928,30.065,-5.705,11.515,-1.281,-1.407,-1.578,0
05/22/2025 13:40:52.533,0.368928,-0.262544,0.735904,37.975,-15.435,7.07,-1.2525,-1.4295,-1.596,0
05/22/2025 13:40:52.553,0.457256,-0.21594,0.838872,33.635,-23.1,3.115,-1.2555,-1.4265,-1.584,0
05/22/2025 13:40:52.573,0.54656,-0.329156,0.924028,-2.065,-19.775,0.91,-1.284,-1.422,-1.563,0
05/22/2025 13:40:52.593,0.488244,-0.436028,0.95404,-12.39,-7.77,1.96,-1.266,-1.422,-1.5765,0
05/22/2025 13:40:52.613,0.48922,-0.412848,0.941596,-1.19,-2.555,-2.1,-1.311,-1.4025,-1.5825,0
05/22/2025 13:40:52.633,0.436272,-0.381128,0.89304,11.13,1.855,-2.905,-1.3185,-1.4025,-1.578,0
05/22/2025 13:40:52.653,0.420412,-0.345748,0.812764,9.87,0.945,-3.36,-1.3305,-1.4205,-1.5945,0
05/22/2025 13:40:52.673,0.419192,-0.332816,0.800808,3.955,2.45,-3.605,-1.3185,-1.4025,-1.5945,0
05/22/2025 13:40:52.693,0.433344,-0.400892,0.77348,-4.725,5.04,-4.095,-1.323,-1.3875,-1.5825,0
05/22/2025 13:40:52.713,0.400892,-0.363072,0.834236,4.48,7.175,-2.765,-1.3395,-1.395,-1.545,0
05/22/2025 13:40:52.733,0.410408,-0.348188,0.884988,6.755,9.415,-4.41,-1.311,-1.368,-1.5555,0
05/22/2025 13:40:52.753,0.403088,-0.336964,0.879132,6.265,13.09,-3.71,-1.3335,-1.383,-1.56,0
05/22/2025 13:40:52.773,0.398452,-0.36478,0.889868,7.875,16.66,-3.745,-1.3335,-1.368,-1.5495,0
05/22/2025 13:40:52.793,0.3782,-0.339892,0.922808,7.035,18.9,-3.045,-1.341,-1.353,-1.5345,0
05/22/2025 13:40:52.813,0.35868,-0.31842,0.918416,3.57,18.235,-3.57,-1.341,-1.353,-1.5345,0
05/22/2025 13:40:52.833,0.362096,-0.307196,0.909388,1.925,17.15,-5.11,-1.314,-1.3725,-1.533,0
05/22/2025 13:40:52.853,0.370636,-0.316468,0.900848,4.69,14.91,-7.595,-1.3185,-1.368,-1.53,0
05/22/2025 13:40:52.873,0.358192,-0.299876,0.889868,8.05,13.93,-7.63,-1.3005,-1.362,-1.545,0
05/22/2025 13:40:52.893,0.349896,-0.302316,0.904264,8.89,13.965,-8.085,-1.299,-1.365,-1.5255,0
05/22/2025 13:40:52.913,0.34526,-0.332816,0.919392,7.175,12.88,-7.84,-1.3215,-1.3905,-1.548,0
05/22/2025 13:40:52.933,0.339404,-0.345992,0.910364,8.19,13.02,-6.02,-1.3065,-1.4025,-1.521,0
05/22/2025 13:40:52.953,0.317688,-0.363316,0.913048,13.895,14.525,-3.22,-1.2945,-1.434,-1.5165,0
05/22/2025 13:40:52.973,0.29158,-0.36112,0.924516,17.71,15.4,-0.315,-1.272,-1.419,-1.536,0
05/22/2025 13:40:52.993,0.266936,-0.351604,0.89914,17.78,12.495,2.415,-1.266,-1.4265,-1.5465,0
05/22/2025 13:40:53.013,0.256688,-0.313784,0.82106,16.59,9.45,5.075,-1.266,-1.3995,-1.536,0
05/22/2025 13:40:53.033,0.263032,-0.309636,0.857172,10.43,15.47,6.475,-1.266,-1.3995,-1.536,0
05/22/2025 13:40:53.053,0.25864,-0.311588,0.892552,9.835,20.72,8.015,-1.2435,-1.446,-1.5495,0
05/22/2025 13:40:53.073,0.253028,-0.242048,0.9394,12.705,25.9,4.41,-1.2585,-1.4595,-1.569,0
05/22/2025 13:40:53.093,0.26962,-0.252784,0.976976,5.145,29.715,0.98,-1.2165,-1.476,-1.548,0
05/22/2025 13:40:53.113,0.281332,-0.286456,1.006744,0.245,32.725,-2.415,-1.2435,-1.437,-1.5765,0
05/22/2025 13:40:53.133,0.296948,-0.296216,1.006256,-3.185,36.54,-5.705,-1.215,-1.4385,-1.587,0
05/22/2025 13:40:53.153,0.287188,-0.319884,1.009184,-6.965,42.875,-5.145,-1.1895,-1.4265,-1.62,0
05/22/2025 13:40:53.173,0.27694,-0.315492,0.989176,-7.28,48.825,-3.08,-1.1745,-1.431,-1.635,0
05/22/2025 13:40:53.193,0.262544,-0.282796,1.009428,-5.18,51.555,-1.68,-1.194,-1.431,-1.632,0
05/22/2025 13:40:53.213,0.24888,-0.237656,1.017724,-10.36,53.655,-3.745,-1.161,-1.431,-1.6425,0
05/22/2025 13:40:53.233,0.246196,-0.248392,0.991372,-20.93,53.69,-8.4,-1.134,-1.4385,-1.641,0
05/22/2025 13:40:53.253,0.2562,-0.234728,0.964288,-28.595,54.145,-14.21,-1.1055,-1.4325,-1.671,0
05/22/2025 13:40:53.273,0.250588,-0.258396,1.003816,-37.03,56.49,-18.69,-1.0725,-1.44,-1.674,0
05/22/2025 13:40:53.293,0.232776,-0.28426,1.063596,-54.53,59.465,-23.695,-1.0725,-1.44,-1.674,0
05/22/2025 13:40:53.313,0.220332,-0.33916,1.04066,-64.995,56.035,-23.625,-1.014,-1.3995,-1.6995,0
05/22/2025 13:40:53.333,0.19642,-0.414312,1.083848,-68.11,52.78,-20.86,-0.9885,-1.395,-1.7205,0
05/22/2025 13:40:53.353,0.196176,-0.472384,1.048224,-68.145,44.87,-17.15,-0.975,-1.4145,-1.7355,0
05/22/2025 13:40:53.373,0.190808,-0.506788,0.995032,-59.36,39.445,-9.415,-0.9525,-1.3995,-1.731,0
05/22/2025 13:40:53.393,0.161772,-0.474336,1.002352,-50.96,38.01,0,-0.897,-1.3905,-1.7265,0
05/22/2025 13:40:53.413,0.133712,-0.449692,0.993812,-62.16,36.54,5.565,-0.8865,-1.356,-1.737,0
05/22/2025 13:40:53.433,0.112972,-0.53436,0.923784,-88.655,33.74,9.765,-0.8205,-1.3425,-1.743,0
05/22/2025 13:40:53.453,0.0854,-0.645136,0.891332,-92.75,31.045,16.1,-0.807,-1.293,-1.743,0
05/22/2025 13:40:53.473,0.085156,-0.68686,0.863516,-69.3,29.715,23.415,-0.822,-1.266,-1.7475,0
05/22/2025 13:40:53.493,0.048556,-0.693936,0.849364,-39.305,34.23,31.675,-0.7665,-1.215,-1.7355,0
05/22/2025 13:40:53.513,-0.000244,-0.625372,0.846924,-27.58,38.395,37.695,-0.7485,-1.2,-1.743,0
05/22/2025 13:40:53.533,-0.04636,-0.602436,0.803492,-39.725,38.675,41.09,-0.7605,-1.1775,-1.746,0
05/22/2025 13:40:53.553,-0.085888,-0.645136,0.76616,-57.47,39.97,46.2,-0.7335,-1.1745,-1.731,0
05/22/2025 13:40:53.573,-0.104676,-0.708576,0.738588,-58.94,40.495,51.52,-0.7335,-1.1745,-1.731,0
05/22/2025 13:40:53.593,-0.1098,-0.794708,0.730048,-44.345,42.07,57.785,-0.669,-1.077,-1.7415,0
05/22/2025 13:40:53.613,-0.142008,-0.744932,0.731512,-23.275,44.555,63.245,-0.6465,-1.0515,-1.7175,0
05/22/2025 13:40:53.633,-0.174948,-0.690276,0.743468,-11.515,45.71,67.725,-0.6405,-0.99,-1.7415,0
05/22/2025 13:40:53.653,-0.197396,-0.688568,0.735416,-3.675,46.2,72.275,-0.618,-1.017,-1.7055,0
05/22/2025 13:40:53.673,-0.203252,-0.685152,0.721996,7.77,45.045,76.265,-0.582,-0.969,-1.716,0
05/22/2025 13:40:53.693,-0.218136,-0.597068,0.706136,13.475,45.115,79.415,-0.5595,-0.9765,-1.7235,0
05/22/2025 13:40:53.713,-0.249368,-0.60756,0.686616,6.86,45.92,83.545,-0.5445,-0.966,-1.734,0
05/22/2025 13:40:53.733,-0.276208,-0.603412,0.707844,5.075,46.165,85.19,-0.504,-0.9735,-1.7295,0
05/22/2025 13:40:53.753,-0.290604,-0.566812,0.703208,6.93,43.785,84.7,-0.4635,-0.945,-1.7325,0
05/22/2025 13:40:53.773,-0.320616,-0.487024,0.67832,12.495,43.435,83.895,-0.4455,-0.9345,-1.728,0
05/22/2025 13:40:53.793,-0.3355,-0.411872,0.655628,20.475,42.105,81.515,-0.4005,-0.9315,-1.716,0
05/22/2025 13:40:53.813,-0.354532,-0.38064,0.678808,22.4,40.635,76.58,-0.3645,-0.9315,-1.7295,0
05/22/2025 13:40:53.833,-0.364048,-0.387716,0.682468,9.59,34.65,67.69,-0.3345,-0.9465,-1.737,0
05/22/2025 13:40:53.853,-0.408944,-0.360876,0.673684,-5.215,32.97,63.84,-0.3345,-0.9465,-1.737,0
05/22/2025 13:40:53.873,-0.418216,-0.409432,0.654652,-15.225,28.945,60.06,-0.285,-0.945,-1.7115,0
05/22/2025 13:40:53.893,-0.43554,-0.43188,0.6527,-16.345,25.97,56.665,-0.2565,-0.96,-1.734,0
05/22/2025 13:40:53.913,-0.448228,-0.451156,0.665632,-12.74,25.515,53.445,-0.252,-0.963,-1.746,0
05/22/2025 13:40:53.933,-0.4758,-0.446032,0.655872,-8.785,25.27,49.91,-0.234,-0.9345,-1.7295,0
05/22/2025 13:40:53.953,-0.493856,-0.441884,0.647332,-1.995,23.415,46.095,-0.2235,-0.93,-1.722,0
05/22/2025 13:40:53.973,-0.507032,-0.393328,0.63196,5.25,20.86,43.26,-0.201,-0.9045,-1.71,0
05/22/2025 13:40:53.993,-0.538996,-0.363316,0.626836,7.735,20.055,40.74,-0.189,-0.912,-1.698,0
05/22/2025 13:40:54.013,-0.541924,-0.322812,0.61854,4.97,17.08,36.225,-0.1965,-0.927,-1.698,0
05/22/2025 13:40:54.033,-0.54778,-0.30012,0.596336,-0.175,15.085,30.73,-0.1755,-0.8865,-1.713,0
05/22/2025 13:40:54.053,-0.55144,-0.34038,0.59536,-5.425,12.775,26.145,-0.1575,-0.897,-1.743,0
05/22/2025 13:40:54.073,-0.562664,-0.33062,0.587796,-2.1,11.27,21.35,-0.153,-0.882,-1.713,0
05/22/2025 13:40:54.093,-0.570228,-0.284748,0.599264,12.67,6.755,11.305,-0.153,-0.882,-1.7085,0
05/22/2025 13:40:54.113,-0.566324,-0.257176,0.598532,16.73,2.625,4.305,-0.153,-0.882,-1.7085,0
05/22/2025 13:40:54.133,-0.573644,-0.29768,0.601948,12.495,-0.735,-2.1,-0.1455,-0.882,-1.7085,0
05/22/2025 13:40:54.153,-0.562664,-0.328912,0.616832,1.505,-5.145,-5.6,-0.153,-0.921,-1.713,0
05/22/2025 13:40:54.173,-0.56486,-0.386984,0.646844,-6.685,-6.825,-6.58,-0.156,-0.9165,-1.6905,0
05/22/2025 13:40:54.193,-0.555344,-0.455792,0.671,-15.015,-8.225,-6.125,-0.1305,-0.8985,-1.686,0
05/22/2025 13:40:54.213,-0.560956,-0.495564,0.697596,-22.855,-6.755,-4.305,-0.156,-0.8835,-1.6755,0
05/22/2025 13:40:54.233,-0.571448,-0.544608,0.696132,-28.28,-3.675,-0.455,-0.156,-0.8835,-1.6755,0
05/22/2025 13:40:54.253,-0.586088,-0.545828,0.703696,-26.95,-1.61,3.465,-0.1485,-0.876,-1.6755,0
05/22/2025 13:40:54.273,-0.580232,-0.529236,0.711748,-17.465,0.35,6.86,-0.1365,-0.8685,-1.659,0
05/22/2025 13:40:54.293,-0.582916,-0.48434,0.707844,-3.01,1.785,8.89,-0.1335,-0.8715,-1.656,0
05/22/2025 13:40:54.313,-0.579256,-0.387716,0.69174,9.205,1.575,8.505,-0.1365,-0.879,-1.659,0
05/22/2025 13:40:54.333,-0.577792,-0.332572,0.674172,10.15,0.63,6.895,-0.114,-0.891,-1.6665,0
05/22/2025 13:40:54.353,-0.573888,-0.293288,0.679784,9.065,0.07,2.73,-0.141,-0.879,-1.656,0
05/22/2025 13:40:54.373,-0.56608,-0.338672,0.6832,2.17,-1.855,-4.41,-0.138,-0.876,-1.674,0
05/22/2025 13:40:54.393,-0.570716,-0.426512,0.67344,-3.43,-2.485,-7.385,-0.144,-0.8835,-1.659,0
05/22/2025 13:40:54.413,-0.567056,-0.482144,0.66734,-3.5,-3.36,-7.49,-0.1365,-0.8715,-1.659,0
05/22/2025 13:40:54.433,-0.57584,-0.52216,0.673928,1.435,-4.025,-5.74,-0.141,-0.891,-1.6665,0
05/22/2025 13:40:54.453,-0.567788,-0.516548,0.684176,5.53,-4.76,-3.01,-0.129,-0.894,-1.6545,0
05/22/2025 13:40:54.473,-0.582672,-0.532896,0.669536,10.255,-4.34,0.315,-0.144,-0.9015,-1.674,0
05/22/2025 13:40:54.493,-0.579988,-0.50996,0.686128,19.74,-4.69,3.5,-0.1515,-0.909,-1.6785,0
05/22/2025 13:40:54.513,-0.588528,-0.49654,0.687592,27.3,-4.585,6.44,-0.141,-0.8865,-1.674,0
05/22/2025 13:40:54.533,-0.580232,-0.455304,0.705892,28.665,-5.425,9.065,-0.1515,-0.894,-1.671,0
05/22/2025 13:40:54.553,-0.591944,-0.402112,0.724192,27.37,-3.675,11.655,-0.171,-0.909,-1.698,0
05/22/2025 13:40:54.573,-0.583648,-0.37576,0.749812,20.335,-3.185,13.755,-0.1755,-0.8865,-1.71,0
05/22/2025 13:40:54.593,-0.57462,-0.357704,0.748836,9.975,-2.31,14.385,-0.144,-0.924,-1.689,0
05/22/2025 13:40:54.613,-0.581208,-0.354776,0.733464,-0.245,-0.735,14.21,-0.144,-0.966,-1.6815,0
05/22/2025 13:40:54.633,-0.5795,-0.36844,0.726876,0.56,1.015,12.145,-0.144,-0.9465,-1.6935,0
05/22/2025 13:40:54.653,-0.580232,-0.33794,0.726632,5.985,2.03,10.64,-0.144,-0.9465,-1.6935,0
05/22/2025 13:40:54.673,-0.579256,-0.323788,0.713944,7.63,1.645,8.995,-0.126,-0.951,-1.6965,0
05/22/2025 13:40:54.693,-0.574132,-0.30378,0.713944,7.98,0.98,6.615,-0.126,-0.9555,-1.692,0
05/22/2025 13:40:54.713,-0.567056,-0.310856,0.708332,7.315,0.21,3.815,-0.0915,-0.9705,-1.695,0
05/22/2025 13:40:54.733,-0.567788,-0.32818,0.709552,4.585,-0.805,1.295,-0.129,-0.9705,-1.6845,0
05/22/2025 13:40:54.753,-0.56242,-0.369904,0.700036,2.8,-2.1,-0.525,-0.117,-0.993,-1.704,0
05/22/2025 13:40:54.773,-0.565836,-0.414068,0.711992,3.185,-2.345,-0.07,-0.0915,-1.0155,-1.7025,0
05/22/2025 13:40:54.793,-0.577548,-0.410408,0.711992,4.9,-2.555,1.155,-0.114,-1.0035,-1.7025,0
05/22/2025 13:40:54.813,-0.567544,-0.41846,0.719556,3.535,-3.255,3.29,-0.081,-1.008,-1.71,0
05/22/2025 13:40:54.833,-0.57828,-0.414312,0.726388,3.185,-2.52,6.265,-0.1065,-0.9735,-1.7145,0
05/22/2025 13:40:54.853,-0.58316,-0.378444,0.732488,4.725,-2.205,8.61,-0.0855,-1.02,-1.74,0
05/22/2025 13:40:54.873,-0.576084,-0.356728,0.729804,4.97,-1.61,9.975,-0.114,-0.996,-1.719,0
05/22/2025 13:40:54.893,-0.575596,-0.326228,0.72834,4.655,-0.175,9.415,-0.1065,-1.008,-1.737,0
05/22/2025 13:40:54.913,-0.57828,-0.29524,0.716628,3.85,1.19,8.295,-0.1065,-1.008,-1.737,0
05/22/2025 13:40:54.933,-0.573888,-0.280356,0.706868,2.975,0.77,5.53,-0.108,-1.011,-1.749,0
05/22/2025 13:40:54.953,-0.573888,-0.309392,0.707844,1.68,0.805,3.01,-0.114,-1.026,-1.752,0
05/22/2025 13:40:54.973,-0.571692,-0.328912,0.720532,1.085,0.77,1.47,-0.1065,-1.038,-1.7295,0
05/22/2025 13:40:54.993,-0.573644,-0.351116,0.72102,0.56,0.805,0.595,-0.0825,-0.9885,-1.752,0
05/22/2025 13:40:55.013,-0.573644,-0.377712,0.720532,-0.875,0.84,0.42,-0.0855,-0.981,-1.7595,0
05/22/2025 13:40:55.033,-0.571448,-0.385032,0.709308,-0.28,1.015,1.435,-0.105,-1.0035,-1.7715,0
05/22/2025 13:40:55.053,-0.569496,-0.387716,0.706624,1.54,0.735,2.59,-0.108,-1.0035,-1.749,0
05/22/2025 13:40:55.073,-0.568276,-0.387716,0.71736,2.415,0.105,3.99,-0.1155,-1.0185,-1.7565,0
05/22/2025 13:40:55.093,-0.575352,-0.351848,0.716872,2.765,-0.07,5.04,-0.0825,-0.996,-1.767,0
05/22/2025 13:40:55.113,-0.583648,-0.343308,0.714676,0.91,-0.49,5.495,-0.09,-0.996,-1.752,0
05/22/2025 13:40:55.133,-0.583404,-0.314028,0.713456,0.07,-0.7,5.32,-0.093,-1.011,-1.767,0
05/22/2025 13:40:55.153,-0.589992,-0.310124,0.72468,0.665,-0.63,3.815,-0.096,-0.981,-1.7325,0
05/22/2025 13:40:55.173,-0.583648,-0.308172,0.739076,2.31,-0.945,1.435,-0.093,-1.011,-1.74,0
05/22/2025 13:40:55.193,-0.575596,-0.326472,0.741028,2.31,-0.385,0.7,-0.093,-1.011,-1.74,0
05/22/2025 13:40:55.213,-0.587308,-0.351848,0.740296,2.73,0.7,0.385,-0.0855,-1.0155,-1.737,0
05/22/2025 13:40:55.233,-0.586576,-0.349164,0.732732,3.675,1.4,0.56,-0.0885,-1.023,-1.7325,0
05/22/2025 13:40:55.253,-0.584624,-0.341112,0.719068,3.395,1.47,0.98,-0.084,-1.0305,-1.7355,0
05/22/2025 13:40:55.273,-0.587796,-0.3355,0.708576,2.415,1.89,1.19,-0.06,-1.0005,-1.7655,0
05/22/2025 13:40:55.293,-0.593896,-0.318664,0.711992,1.54,1.4,1.085,-0.075,-1.0125,-1.7595,0
05/22/2025 13:40:55.313,-0.584136,-0.320128,0.721996,2.03,0.945,0.525,-0.09,-1.0005,-1.7595,0
05/22/2025 13:40:55.333,-0.588528,-0.305976,0.711992,1.75,0.525,-0.56,-0.093,-0.993,-1.764,0
05/22/2025 13:40:55.353,-0.579256,-0.308416,0.716628,-0.525,0.595,-1.785,-0.0975,-0.996,-1.779,0
05/22/2025 13:40:55.373,-0.588284,-0.31476,0.728584,-3.15,0.595,-3.115,-0.063,-1.005,-1.758,0
05/22/2025 13:40:55.393,-0.589992,-0.338672,0.70638,-2.66,0.07,-3.99,-0.1005,-1.008,-1.752,0
05/22/2025 13:40:55.413,-0.59536,-0.337696,0.696132,0.945,-0.77,-4.41,-0.105,-0.978,-1.7565,0
05/22/2025 13:40:55.433,-0.590968,-0.337452,0.695644,1.435,-2.17,-5.18,-0.1155,-0.9615,-1.749,0
05/22/2025 13:40:55.453,-0.583892,-0.346724,0.696132,-0.56,-3.01,-4.9,-0.1155,-0.9615,-1.749,0
05/22/2025 13:40:55.473,-0.5734,-0.343796,0.69052,-1.155,-4.2,-4.585,-0.09,-0.933,-1.7595,0
05/22/2025 13:40:55.493,-0.567056,-0.343308,0.680028,-1.085,-5.18,-4.76,-0.1155,-0.9435,-1.722,0
05/22/2025 13:40:55.513,-0.562908,-0.330864,0.658312,-1.575,-6.72,-5.845,-0.1275,-0.9585,-1.746,0
05/22/2025 13:40:55.533,-0.556564,-0.332816,0.617808,-1.82,-8.995,-7.735,-0.111,-0.9435,-1.722,0
05/22/2025 13:40:55.553,-0.545828,-0.339892,0.560224,3.64,-12.67,-10.535,-0.153,-0.9585,-1.746,0
05/22/2025 13:40:55.573,-0.537776,-0.297924,0.511912,9.87,-18.795,-14.42,-0.123,-0.9435,-1.734,0
05/22/2025 13:40:55.593,-0.525576,-0.294264,0.481168,13.965,-26.53,-19.04,-0.141,-0.966,-1.7385,0
05/22/2025 13:40:55.613,-0.501176,-0.262544,0.460428,15.995,-36.435,-23.94,-0.168,-0.969,-1.743,0
05/22/2025 13:40:55.633,-0.4758,-0.256688,0.485072,14.56,-46.655,-28.525,-0.174,-0.9765,-1.7385,0
05/22/2025 13:40:55.653,-0.435296,-0.2562,0.501664,12.915,-56.245,-32.725,-0.174,-0.9765,-1.7385,0
05/22/2025 13:40:55.673,-0.420656,-0.275232,0.558028,14.245,-63.105,-37.555,-0.1935,-0.987,-1.7355,0
05/22/2025 13:40:55.693,-0.3843,-0.262544,0.584136,27.475,-67.725,-43.75,-0.2145,-0.99,-1.737,0
05/22/2025 13:40:55.713,-0.368196,-0.178608,0.64538,46.55,-68.32,-53.165,-0.2775,-0.9855,-1.719,0
05/22/2025 13:40:55.733,-0.326472,-0.204228,0.715896,49.035,-69.93,-61.285,-0.315,-1.041,-1.758,0
05/22/2025 13:40:55.753,-0.292068,-0.178364,0.782752,53.235,-68.495,-68.46,-0.3585,-1.059,-1.767,0
05/22/2025 13:40:55.773,-0.2867,-0.142008,0.853756,45.85,-65.065,-72.8,-0.4215,-1.0845,-1.761,0
05/22/2025 13:40:55.793,-0.256688,-0.199348,0.901336,23.38,-65.03,-77.035,-0.459,-1.0995,-1.773,0
05/22/2025 13:40:55.813,-0.236192,-0.294508,0.93574,10.71,-63.665,-80.675,-0.48,-1.1445,-1.7655,0
05/22/2025 13:40:55.833,-0.194956,-0.387716,0.99064,21.035,-61.95,-81.445,-0.498,-1.1445,-1.7625,0
05/22/2025 13:40:55.853,-0.18666,-0.380884,1.079944,42.105,-60.165,-79.905,-0.561,-1.1685,-1.752,0
05/22/2025 13:40:55.873,-0.188124,-0.349652,1.079212,41.475,-60.025,-78.05,-0.591,-1.161,-1.7565,0
05/22/2025 13:40:55.893,-0.155672,-0.368196,1.0309,35,-58.695,-75.075,-0.6045,-1.1955,-1.7655,0
05/22/2025 13:40:55.913,-0.141032,-0.35624,1.037,35.28,-54.145,-69.16,-0.639,-1.2015,-1.773,0
05/22/2025 13:40:55.933,-0.11346,-0.330376,1.05164,30.345,-50.995,-63.28,-0.693,-1.242,-1.7745,0
05/22/2025 13:40:55.953,-0.100528,-0.345016,1.052372,24.955,-48.16,-59.01,-0.7215,-1.2945,-1.7565,0
05/22/2025 13:40:55.973,-0.093696,-0.325252,1.049688,16.695,-43.12,-53.13,-0.7395,-1.302,-1.734,0
05/22/2025 13:40:55.993,-0.074664,-0.370392,1.023336,4.69,-39.55,-49,-0.7395,-1.302,-1.734,0
05/22/2025 13:40:56.013,-0.050996,-0.42212,1.043344,0.56,-35.42,-43.505,-0.753,-1.362,-1.7415,0
05/22/2025 13:40:56.033,-0.05734,-0.436028,1.020408,3.5,-31.605,-37.555,-0.7935,-1.377,-1.7535,0
05/22/2025 13:40:56.053,-0.041968,-0.388692,1.0248,10.22,-29.26,-32.76,-0.7905,-1.3725,-1.7505,0
05/22/2025 13:40:56.073,-0.030988,-0.356728,1.003816,19.775,-27.37,-27.965,-0.801,-1.3875,-1.746,0
05/22/2025 13:40:56.093,-0.023912,-0.303048,1.020164,22.61,-25.97,-24.185,-0.807,-1.41,-1.7355,0
05/22/2025 13:40:56.113,0.0061,-0.316712,1.016504,14.84,-26.32,-22.155,-0.8145,-1.4445,-1.719,0
05/22/2025 13:40:56.133,0.024644,-0.338916,1.022116,10.36,-25.97,-20.545,-0.825,-1.47,-1.7535,0
05/22/2025 13:40:56.153,0.051728,-0.323056,1.05408,9.66,-22.96,-17.22,-0.837,-1.497,-1.7535,0
05/22/2025 13:40:56.173,0.044896,-0.360144,1.055544,7.245,-17.745,-14.21,-0.8505,-1.518,-1.7625,0
05/22/2025 13:40:56.193,0.031476,-0.289628,1.067988,6.3,-11.34,-12.285,-0.819,-1.4925,-1.7685,0
05/22/2025 13:40:56.213,0.029768,-0.290116,1.057496,-1.54,-7.595,-11.06,-0.825,-1.5375,-1.764,0
05/22/2025 13:40:56.233,0.041724,-0.28426,1.038708,-6.475,-5.67,-9.73,-0.852,-1.5105,-1.773,0
05/22/2025 13:40:56.253,0.024888,-0.287188,1.00772,-8.925,-1.295,-7.91,-0.852,-1.5105,-1.773,0
05/22/2025 13:40:56.273,0,-0.256932,0.993812,-10.71,-1.225,-7.315,-0.8475,-1.5105,-1.7805,0
05/22/2025 13:40:56.293,0.006832,-0.260104,0.946232,-10.675,-4.865,-7.42,-0.8565,-1.5225,-1.8075,0
05/22/2025 13:40:56.313,0.02562,-0.226432,0.895236,-8.995,-8.715,-7.105,-0.867,-1.5225,-1.8045,0
05/22/2025 13:40:56.333,0.04514,-0.216428,0.908656,-9.59,-11.865,-7.595,-0.87,-1.506,-1.7925,0
05/22/2025 13:40:56.353,0.068808,-0.229116,0.899872,-11.69,-17.045,-8.085,-0.879,-1.4805,-1.8195,0
05/22/2025 13:40:56.373,0.092476,-0.23912,0.917684,-8.155,-22.295,-7.63,-0.8715,-1.488,-1.827,0
05/22/2025 13:40:56.393,0.131272,-0.255956,0.9638,-4.445,-27.44,-7,-0.9015,-1.4685,-1.8285,0
05/22/2025 13:40:56.413,0.177144,-0.273524,1.003084,-3.5,-31.815,-6.37,-0.939,-1.4865,-1.8135,0
05/22/2025 13:40:56.433,0.199592,-0.31964,1.027728,-3.15,-32.935,-4.655,-0.9225,-1.491,-1.791,0
05/22/2025 13:40:56.453,0.193248,-0.339404,1.039928,1.505,-31.605,-1.82,-0.96,-1.497,-1.8105,0
05/22/2025 13:40:56.473,0.193248,-0.296704,1.036756,7.595,-30.485,0.42,-0.96,-1.4895,-1.8105,0
05/22/2025 13:40:56.493,0.179584,-0.252296,1.0126,8.61,-27.335,0.7,-0.957,-1.5045,-1.806,0
05/22/2025 13:40:56.513,0.158844,-0.22082,0.969168,5.18,-22.33,-2.135,-0.9795,-1.482,-1.803,0
05/22/2025 13:40:56.533,0.149572,-0.195932,0.945012,5.04,-20.545,-5.32,-1.02,-1.5075,-1.8165,0
05/22/2025 13:40:56.553,0.14762,-0.203984,0.959652,1.715,-20.23,-8.645,-1.026,-1.5225,-1.797,0
05/22/2025 13:40:56.573,0.161772,-0.253028,0.955748,1.61,-19.88,-11.13,-1.044,-1.5195,-1.7715,0
05/22/2025 13:40:56.593,0.185196,-0.288652,0.942328,3.78,-18.27,-12.075,-1.044,-1.5195,-1.7715,0
05/22/2025 13:40:56.613,0.154452,-0.29402,0.997716,4.06,-17.15,-11.27,-1.0485,-1.5105,-1.809,0
05/22/2025 13:40:56.633,0.16226,-0.320372,0.976488,5.53,-16.345,-8.295,-1.0215,-1.5345,-1.782,0
05/22/2025 13:40:56.653,0.169092,-0.349896,0.966972,7.91,-17.675,-5.74,-1.0305,-1.53,-1.809,0
05/22/2025 13:40:56.673,0.173972,-0.351604,0.959408,11.235,-19.39,-2.31,-1.0635,-1.5375,-1.806,0
05/22/2025 13:40:56.693,0.192272,-0.333548,0.95038,14.595,-24.325,-0.07,-1.077,-1.545,-1.7985,0
05/22/2025 13:40:56.713,0.237412,-0.256688,0.91622,17.955,-29.645,1.365,-1.086,-1.533,-1.8135,0
05/22/2025 13:40:56.733,0.278892,-0.222528,0.914024,15.33,-31.36,2.87,-1.11,-1.5555,-1.773,0
05/22/2025 13:40:56.753,0.317444,-0.210328,0.960872,8.19,-28.525,4.935,-1.1475,-1.5315,-1.785,0
05/22/2025 13:40:56.773,0.338672,-0.220576,0.966728,2.275,-24.115,6.615,-1.146,-1.566,-1.7655,0
05/22/2025 13:40:56.793,0.347456,-0.22326,0.95526,-2.275,-19.005,6.51,-1.152,-1.509,-1.782,0
05/22/2025 13:40:56.813,0.314028,-0.206424,0.942572,-4.445,-15.96,3.78,-1.191,-1.4865,-1.734,0
05/22/2025 13:40:56.833,0.292312,-0.224236,0.928176,-4.76,-14.49,0.63,-1.2105,-1.5045,-1.746,0
05/22/2025 13:40:56.853,0.266936,-0.176656,0.929396,-2.485,-15.295,-1.575,-1.206,-1.5045,-1.719,0
05/22/2025 13:40:56.873,0.269376,-0.185684,0.91622,-7.105,-17.045,-4.13,-1.2045,-1.479,-1.6815,0
05/22/2025 13:40:56.893,0.260592,-0.200324,0.928664,-13.16,-17.045,-5.215,-1.224,-1.479,-1.689,0
05/22/2025 13:40:56.913,0.254736,-0.223992,0.948916,-17.745,-16.905,-5.775,-1.242,-1.4745,-1.6815,0
05/22/2025 13:40:56.933,0.24644,-0.260592,0.951356,-19.985,-18.515,-5.355,-1.2315,-1.464,-1.6785,0
05/22/2025 13:40:56.953,0.241316,-0.308904,0.931836,-17.675,-20.405,-3.535,-1.245,-1.4865,-1.659,0
05/22/2025 13:40:56.973,0.244976,-0.314516,0.937448,-15.015,-20.545,-0.49,-1.257,-1.452,-1.6605,0
05/22/2025 13:40:56.993,0.295484,-0.3416,1.010404,-13.965,-16.94,3.815,-1.245,-1.467,-1.6365,0
05/22/2025 13:40:57.013,0.269132,-0.399916,0.976244,-24.535,-7.49,4.06,-1.278,-1.4925,-1.638,0
05/22/2025 13:40:57.033,0.27206,-0.327936,0.957944,-21.7,-4.235,3.64,-1.2705,-1.4745,-1.638,0
05/22/2025 13:40:57.053,0.27572,-0.30134,0.947696,-16.485,2.03,2.135,-1.278,-1.467,-1.638,0
05/22/2025 13:40:57.073,0.293044,-0.303292,0.911096,-19.075,2.835,0.735,-1.278,-1.452,-1.623,0
05/22/2025 13:40:57.093,0.298168,-0.299632,0.913536,-24.43,3.85,-0.105,-1.2705,-1.482,-1.638,0
05/22/2025 13:40:57.113,0.312808,-0.303536,0.889868,-30.765,2.415,-1.12,-1.263,-1.4625,-1.626,0
05/22/2025 13:40:57.133,0.323788,-0.327936,0.854,-31.045,0.105,-1.4,-1.2705,-1.4445,-1.6155,0
05/22/2025 13:40:57.153,0.328912,-0.295728,0.87596,-24.29,-3.325,-0.665,-1.278,-1.425,-1.6185,0
05/22/2025 13:40:57.173,0.343308,-0.279868,0.885476,-22.05,-8.75,-0.945,-1.2705,-1.437,-1.6035,0
05/22/2025 13:40:57.193,0.351604,-0.322812,0.857172,-22.995,-14.98,-1.575,-1.2825,-1.44,-1.65,0
05/22/2025 13:40:57.213,0.376004,-0.421388,0.75762,-21.84,-21.035,-2.03,-1.278,-1.4325,-1.611,0
05/22/2025 13:40:57.233,0.38186,-0.351848,0.781776,-15.505,-24.115,-0.56,-1.281,-1.4295,-1.6005,0
05/22/2025 13:40:57.253,0.404796,-0.340624,0.813984,-20.58,-22.75,-1.68,-1.2705,-1.407,-1.6035,0
05/22/2025 13:40:57.273,0.376248,-0.357948,0.841068,-28.56,-18.165,-1.925,-1.3005,-1.383,-1.5975,0
05/22/2025 13:40:57.293,0.373076,-0.34526,0.849364,-34.755,-14.42,-4.13,-1.2855,-1.3845,-1.5585,0
05/22/2025 13:40:57.313,0.355264,-0.393328,0.858392,-45.01,-7.91,-5.6,-1.3185,-1.3605,-1.5645,0
05/22/2025 13:40:57.333,0.332572,-0.398452,0.864248,-45.185,-0.805,-9.345,-1.3185,-1.3605,-1.5645,0
05/22/2025 13:40:57.353,0.323544,-0.432124,0.857904,-52.85,0.315,-13.02,-1.329,-1.3875,-1.56,0
05/22/2025 13:40:57.373,0.321836,-0.450912,0.851316,-61.81,3.465,-15.61,-1.293,-1.3725,-1.5585,0
05/22/2025 13:40:57.393,0.337208,-0.465308,0.838628,-65.24,8.155,-16.275,-1.296,-1.38,-1.56,0
05/22/2025 13:40:57.413,0.310856,-0.463356,0.855464,-63,11.095,-17.465,-1.296,-1.35,-1.533,0
05/22/2025 13:40:57.433,0.305488,-0.514596,0.836432,-67.55,11.97,-17.815,-1.278,-1.3545,-1.5555,0
05/22/2025 13:40:57.453,0.292556,-0.575108,0.817156,-63.875,9.73,-17.85,-1.3125,-1.3275,-1.56,0
05/22/2025 13:40:57.473,0.285968,-0.58072,0.825452,-45.15,5.705,-16.38,-1.275,-1.347,-1.5555,0
05/22/2025 13:40:57.493,0.302072,-0.59536,0.80276,-26.005,0.035,-13.09,-1.2705,-1.335,-1.551,0
05/22/2025 13:40:57.513,0.30988,-0.622444,0.782264,-11.025,-4.2,-8.33,-1.2705,-1.3425,-1.5405,0
05/22/2025 13:40:57.533,0.30622,-0.599508,0.764208,-3.115,-5.845,-2.94,-1.2495,-1.317,-1.551,0
05/22/2025 13:40:57.553,0.30378,-0.598288,0.770308,-4.34,-8.715,1.19,-1.2345,-1.347,-1.5735,0
05/22/2025 13:40:57.573,0.306952,-0.598776,0.773236,-10.535,-12.88,4.375,-1.2345,-1.3365,-1.581,0
05/22/2025 13:40:57.593,0.3172,-0.620492,0.770064,-20.23,-16.03,7.875,-1.2345,-1.3365,-1.581,0
05/22/2025 13:40:57.613,0.328424,-0.626104,0.7808,-22.015,-16.345,10.045,-1.2345,-1.3365,-1.581,0
05/22/2025 13:40:57.633,0.310368,-0.59048,0.769332,-26.04,-16.87,12.075,-1.242,-1.3125,-1.5765,0
05/22/2025 13:40:57.653,0.327692,-0.574376,0.752984,-25.27,-19.25,11.06,-1.269,-1.2825,-1.5825,0
05/22/2025 13:40:57.673,0.338916,-0.551928,0.740296,-22.75,-18.305,10.255,-1.2435,-1.29,-1.593,0
05/22/2025 13:40:57.693,0.352092,-0.589748,0.69296,-25.235,-16.205,10.185,-1.2915,-1.2975,-1.578,0
05/22/2025 13:40:57.713,0.348188,-0.603168,0.66734,-18.13,-12.53,10.115,-1.251,-1.2645,-1.5855,0
05/22/2025 13:40:57.733,0.350872,-0.572912,0.665876,-7.385,-8.855,10.22,-1.2735,-1.233,-1.59,0
05/22/2025 13:40:57.753,0.349164,-0.596336,0.672952,-3.64,-7.07,11.305,-1.2705,-1.2375,-1.5945,0
05/22/2025 13:40:57.773,0.355264,-0.596336,0.697352,-1.33,-7.63,11.27,-1.2765,-1.245,-1.59,0
05/22/2025 13:40:57.793,0.370392,-0.61488,0.71736,-2.205,-8.925,10.99,-1.296,-1.206,-1.5915,0
05/22/2025 13:40:57.813,0.378688,-0.619028,0.692472,-3.185,-9.59,11.83,-1.2585,-1.2075,-1.5855,0
05/22/2025 13:40:57.833,0.373808,-0.626348,0.699548,3.045,-10.325,12.25,-1.308,-1.1865,-1.5945,0
05/22/2025 13:40:57.853,0.380884,-0.597068,0.716628,5.705,-8.75,14.63,-1.2915,-1.191,-1.56,0
05/22/2025 13:40:57.873,0.385764,-0.590724,0.693936,4.34,-9.94,15.855,-1.2915,-1.191,-1.56,0
05/22/2025 13:40:57.893,0.389668,-0.605364,0.7076,7,-7.735,17.325,-1.2855,-1.1985,-1.5825,0
05/22/2025 13:40:57.913,0.385276,-0.551928,0.720044,8.54,-4.62,16.38,-1.296,-1.206,-1.5675,0
05/22/2025 13:40:57.933,0.381616,-0.541436,0.710284,6.16,-5.25,13.685,-1.296,-1.1805,-1.557,0
05/22/2025 13:40:57.953,0.383568,-0.547048,0.709064,4.06,-5.005,11.62,-1.2975,-1.191,-1.602,0
05/22/2025 13:40:57.973,0.372588,-0.577304,0.731512,2.765,-4.585,9.765,-1.2825,-1.1835,-1.5825,0
05/22/2025 13:40:57.993,0.395768,-0.578768,0.748836,2.31,-5.635,8.085,-1.2675,-1.1655,-1.575,0
05/22/2025 13:40:58.013,0.388692,-0.601216,0.751276,0.315,-4.9,7.42,-1.2675,-1.1655,-1.575,0
05/22/2025 13:40:58.033,0.397476,-0.52704,0.785192,2.52,-5.075,7.98,-1.2735,-1.1835,-1.5795,0
05/22/2025 13:40:58.053,0.401624,-0.400404,0.858636,-2.625,-3.29,10.36,-1.2675,-1.1805,-1.5975,0
05/22/2025 13:40:58.073,0.378932,-0.56974,0.85278,-13.86,0.63,12.775,-1.296,-1.161,-1.5615,0
05/22/2025 13:40:58.093,0.365756,-0.616344,0.806664,-14.525,4.025,13.3,-1.3035,-1.1685,-1.572,0
05/22/2025 13:40:58.113,0.343796,-0.579744,0.780068,-18.515,11.9,11.06,-1.311,-1.143,-1.5495,0
05/22/2025 13:40:58.133,0.273768,-0.496784,0.85156,-46.515,25.165,8.82,-1.275,-1.1535,-1.587,0
05/22/2025 13:40:58.153,0.20496,-0.593896,0.854244,-75.355,36.75,7.7,-1.2615,-1.101,-1.5825,0
05/22/2025 13:40:58.173,0.143228,-0.731512,0.828868,-85.785,42.56,6.335,-1.2645,-1.068,-1.5765,0
05/22/2025 13:40:58.193,0.053924,-0.8479,0.813496,-67.48,47.95,4.34,-1.2165,-1.035,-1.563,0
05/22/2025 13:40:58.213,0.047336,-1.010892,0.750788,-2.8,45.92,2.31,-1.206,-1.0125,-1.5675,0
05/22/2025 13:40:58.233,-0.005856,-0.924516,0.807396,82.565,42.245,6.335,-1.203,-1.0275,-1.575,0
05/22/2025 13:40:58.253,-0.004148,-0.792268,0.815448,124.81,30.065,9.555,-1.1535,-1.047,-1.566,0
05/22/2025 13:40:58.273,0.021472,-0.768356,0.72712,127.295,18.13,11.69,-1.1535,-1.107,-1.6035,0
05/22/2025 13:40:58.293,0.057096,-0.765428,0.737368,115.465,10.43,18.165,-1.119,-1.1265,-1.5825,0
05/22/2025 13:40:58.313,0.08906,-0.76372,0.765428,103.705,8.155,26.11,-1.1055,-1.1385,-1.59,0
05/22/2025 13:40:58.333,0.109068,-0.743956,0.75152,103.39,4.865,29.33,-1.0605,-1.158,-1.584,0
05/22/2025 13:40:58.353,0.11224,-0.650992,0.752984,106.855,3.43,29.785,-1.059,-1.2225,-1.6035,0
05/22/2025 13:40:58.373,0.117852,-0.574376,0.72102,94.64,5.145,28.875,-1.0515,-1.245,-1.5795,0
05/22/2025 13:40:58.393,0.156648,-0.521672,0.735416,70.805,6.3,24.22,-1.0365,-1.272,-1.602,0
05/22/2025 13:40:58.413,0.20252,-0.489464,0.7625,52.36,5.6,20.3,-1.0365,-1.272,-1.602,0
05/22/2025 13:40:58.433,0.223748,-0.510448,0.755668,28.98,3.325,16.94,-1.0095,-1.332,-1.605,0
05/22/2025 13:40:58.453,0.234484,-0.542412,0.726632,11.2,-2.87,14.105,-0.984,-1.3095,-1.611,0
05/22/2025 13:40:58.473,0.24766,-0.505324,0.687836,11.41,-11.27,10.57,-0.9765,-1.314,-1.6005,0
05/22/2025 13:40:58.493,0.24034,-0.4575,0.642208,16.03,-18.865,6.755,-0.9735,-1.299,-1.611,0
05/22/2025 13:40:58.513,0.2623,-0.424316,0.662704,22.19,-27.965,3.395,-0.984,-1.299,-1.6155,0
05/22/2025 13:40:58.533,0.355508,-0.42944,0.712724,24.64,-38.255,1.225,-0.981,-1.3095,-1.6155,0
05/22/2025 13:40:58.553,0.404796,-0.44286,0.70516,26.18,-44.765,2.695,-0.984,-1.314,-1.593,0
05/22/2025 13:40:58.573,0.393328,-0.467748,0.697596,31.92,-46.41,4.585,-0.9795,-1.3395,-1.6155,0
05/22/2025 13:40:58.593,0.388692,-0.397232,0.73078,43.12,-48.51,6.475,-1.0125,-1.329,-1.59,0
05/22/2025 13:40:58.613,0.393084,-0.336964,0.759816,48.055,-52.08,4.76,-0.9945,-1.3245,-1.596,0
05/22/2025 13:40:58.633,0.40138,-0.324032,0.799832,52.78,-56.91,2.765,-1.035,-1.3095,-1.605,0
05/22/2025 13:40:58.653,0.45994,-0.268888,0.79178,56.42,-58.625,0.98,-1.041,-1.365,-1.5825,0
05/22/2025 13:40:58.673,0.48312,-0.21106,0.842532,60.62,-50.995,1.68,-1.041,-1.365,-1.5825,0
05/22/2025 13:40:58.693,0.504104,-0.199592,0.890356,56.315,-43.435,1.715,-1.0845,-1.3875,-1.569,0
05/22/2025 13:40:58.713,0.529724,-0.189832,0.93696,47.425,-36.4,-0.035,-1.089,-1.4445,-1.587,0
05/22/2025 13:40:58.733,0.530212,-0.180804,0.959652,36.225,-28.7,-1.435,-1.1145,-1.44,-1.584,0
05/22/2025 13:40:58.753,0.49776,-0.169824,0.960384,21.665,-22.4,-4.06,-1.1025,-1.4625,-1.572,0
05/22/2025 13:40:58.773,0.460184,-0.190564,0.93208,8.505,-20.755,-7.805,-1.1175,-1.47,-1.5645,0
05/22/2025 13:40:58.793,0.460916,-0.183488,0.923784,2.52,-22.715,-10.185,-1.119,-1.485,-1.542,0
05/22/2025 13:40:58.813,0.484828,-0.191296,0.877912,-2.205,-22.96,-11.515,-1.1205,-1.482,-1.5645,0
05/22/2025 13:40:58.833,0.487024,-0.236436,0.885476,0.28,-21.105,-11.48,-1.149,-1.5105,-1.551,0
05/22/2025 13:40:58.853,0.484584,-0.227896,0.889868,2.625,-19.775,-10.92,-1.1235,-1.512,-1.542,0
05/22/2025 13:40:58.873,0.470432,-0.262056,0.8479,1.155,-18.83,-11.06,-1.0995,-1.554,-1.548,0
05/22/2025 13:40:58.893,0.4331,-0.224968,0.821548,1.995,-18.515,-11.13,-1.0965,-1.5615,-1.5405,0
05/22/2025 13:40:58.913,0.430904,-0.2501,0.843996,-0.035,-21.28,-9.905,-1.0935,-1.5495,-1.563,0
05/22/2025 13:40:58.933,0.486536,-0.268644,0.881816,5.775,-28.42,-8.435,-1.1235,-1.545,-1.557,0
05/22/2025 13:40:58.953,0.51606,-0.290848,0.838872,9.38,-28.56,-4.375,-1.137,-1.575,-1.5375,0
05/22/2025 13:40:58.973,0.496784,-0.30378,0.819108,13.51,-26.04,0.98,-1.137,-1.575,-1.5375,0
05/22/2025 13:40:58.993,0.4941,-0.33672,0.801052,13.615,-27.615,4.305,-1.155,-1.5825,-1.539,0
05/22/2025 13:40:59.013,0.513376,-0.317932,0.851072,22.365,-28.595,5.845,-1.155,-1.5825,-1.554,0
05/22/2025 13:40:59.033,0.535336,-0.24034,0.88938,29.715,-23.135,7.7,-1.1625,-1.5675,-1.5465,0
05/22/2025 13:40:59.053,0.563396,-0.265472,0.923784,22.435,-15.855,7.84,-1.1625,-1.5675,-1.5345,0
05/22/2025 13:40:59.073,0.520452,-0.272548,0.876936,24.885,-3.08,5.46,-1.1475,-1.557,-1.5345,0
05/22/2025 13:40:59.093,0.490684,-0.216916,0.83448,39.095,1.925,2.555,-1.1595,-1.545,-1.527,0
05/22/2025 13:40:59.113,0.494832,-0.15006,0.828624,43.085,2.345,-1.19,-1.1805,-1.5945,-1.5195,0
05/22/2025 13:40:59.133,0.501908,-0.176656,0.80642,33.495,2.66,0.14,-1.1805,-1.59,-1.5285,0
05/22/2025 13:40:59.153,0.53314,-0.15006,0.789828,32.235,0.455,-1.61,-1.161,-1.62,-1.5195,0
05/22/2025 13:40:59.173,0.514352,-0.112484,0.787388,28.175,0.735,-2.59,-1.1835,-1.6125,-1.539,0
05/22/2025 13:40:59.193,0.550952,-0.167628,0.752496,23.415,-4.585,-3.01,-1.158,-1.6125,-1.5345,0
05/22/2025 13:40:59.213,0.58194,-0.081008,0.822036,13.37,-6.72,-0.175,-1.158,-1.6125,-1.5345,0
05/22/2025 13:40:59.233,0.5795,-0.118828,0.801296,0.805,-5.67,-0.21,-1.176,-1.617,-1.539,0
05/22/2025 13:40:59.253,0.543144,-0.159576,0.832772,2.275,-1.295,0.105,-1.1355,-1.629,-1.5375,0
05/22/2025 13:40:59.273,0.558272,-0.121512,0.81618,0.14,-3.22,-0.21,-1.188,-1.632,-1.539,0
05/22/2025 13:40:59.293,0.513132,-0.1403,0.796904,-5.46,-2.52,-2.695,-1.1685,-1.6875,-1.542,0
05/22/2025 13:40:59.313,0.503616,-0.15494,0.81984,-3.5,-3.115,-1.33,-1.149,-1.659,-1.5195,0
05/22/2025 13:40:59.333,0.508008,-0.132492,0.807396,6.125,-1.365,-1.47,-1.1715,-1.635,-1.5195,0
05/22/2025 13:40:59.353,0.462624,-0.101016,0.784704,7.315,2.1,-2.45,-1.1385,-1.647,-1.518,0
05/22/2025 13:40:59.373,0.47214,-0.108336,0.78568,4.305,0.665,-3.99,-1.1655,-1.632,-1.539,0
05/22/2025 13:40:59.393,0.517524,-0.064172,0.82594,1.365,-2.87,-5.46,-1.1505,-1.6125,-1.53,0
05/22/2025 13:40:59.413,0.560468,-0.076372,0.857416,-9.45,-2.94,-6.44,-1.173,-1.6545,-1.557,0
05/22/2025 13:40:59.433,0.564128,-0.098088,0.83814,-28.455,-1.4,-6.545,-1.1775,-1.62,-1.5585,0
05/22/2025 13:40:59.453,0.537044,-0.159088,0.795196,-41.44,1.015,-7.175,-1.1775,-1.605,-1.5435,0
05/22/2025 13:40:59.473,0.53192,-0.270596,0.76738,-29.68,1.54,-7.735,-1.1775,-1.605,-1.5435,0
05/22/2025 13:40:59.493,0.524844,-0.257664,0.785192,-12.775,2.45,-5.985,-1.1595,-1.56,-1.5315,0
05/22/2025 13:40:59.513,0.532652,-0.221552,0.889868,-2.625,2.8,-3.64,-1.1925,-1.5705,-1.551,0
05/22/2025 13:40:59.533,0.548024,-0.185684,0.931836,-5.88,5.215,-1.015,-1.1955,-1.56,-1.533,0
05/22/2025 13:40:59.553,0.54168,-0.154452,0.952088,-14.35,4.55,0.7,-1.2105,-1.563,-1.548,0
05/22/2025 13:40:59.573,0.506544,-0.15006,0.927444,-24.64,3.64,0.805,-1.1805,-1.578,-1.5285,0
05/22/2025 13:40:59.593,0.522648,-0.1464,0.952088,-29.925,3.115,0.665,-1.2075,-1.551,-1.548,0
05/22/2025 13:40:59.613,0.510204,-0.213012,0.964776,-36.4,8.19,-0.63,-1.203,-1.5405,-1.5255,0
05/22/2025 13:40:59.633,0.48922,-0.173728,0.9211,-38.71,11.62,-0.805,-1.185,-1.518,-1.5285,0
05/22/2025 13:40:59.653,0.499956,-0.239852,0.893528,-48.685,12.32,0,-1.17,-1.5525,-1.5315,0
05/22/2025 13:40:59.673,0.476044,-0.247416,0.765672,-42,12.81,-1.015,-1.1895,-1.5,-1.5285,0
05/22/2025 13:40:59.693,0.387228,-0.298412,0.7076,-30.135,17.57,-3.43,-1.1715,-1.503,-1.5315,0
05/22/2025 13:40:59.713,0.460672,-0.286944,0.800564,-5.74,13.195,-6.37,-1.194,-1.473,-1.548,0
05/22/2025 13:40:59.733,0.482876,-0.204472,0.809836,-19.215,4.025,-5.565,-1.1745,-1.515,-1.524,0
05/22/2025 13:40:59.753,0.458232,-0.16714,0.7198,-34.09,4.76,-9.73,-1.1745,-1.515,-1.524,0
05/22/2025 13:40:59.773,0.504836,-0.15006,0.770796,-36.61,5.18,-14.805,-1.1715,-1.503,-1.5285,0
05/22/2025 13:40:59.793,0.492636,-0.189832,0.800564,-60.935,9.135,-14.315,-1.1865,-1.4985,-1.548,0
05/22/2025 13:40:59.813,0.561444,-0.29768,0.870348,-96.39,4.935,-13.055,-1.161,-1.4775,-1.554,0
05/22/2025 13:40:59.833,0.5246,-0.241316,0.814472,-117.11,5.915,-10.465,-1.1835,-1.446,-1.536,0
05/22/2025 13:40:59.853,0.553636,-0.26718,0.817156,-137.34,8.785,-7.735,-1.1775,-1.431,-1.5675,0
05/22/2025 13:40:59.873,0.595116,-0.361364,0.84546,-171.36,14.28,-1.54,-1.1685,-1.413,-1.518,0
05/22/2025 13:40:59.893,0.586332,-0.470432,0.774456,-205.59,21.56,5.075,-1.134,-1.353,-1.5585,0
05/22/2025 13:40:59.913,0.564128,-0.561444,0.72956,-237.37,33.25,11.025,-1.131,-1.296,-1.563,0
05/22/2025 13:40:59.933,0.547536,-0.70638,0.58316,-265.02,41.965,16.835,-1.1235,-1.221,-1.521,0
05/22/2025 13:40:59.953,0.484096,-0.8174,0.497272,-268.695,50.12,21.105,-1.128,-1.1415,-1.503,0
05/22/2025 13:40:59.973,0.409676,-0.937692,0.436028,-252.7,54.355,26.355,-1.1145,-1.0665,-1.503,0
05/22/2025 13:40:59.993,0.362828,-1.021872,0.381128,-217.07,54.6,30.17,-1.086,-0.969,-1.4775,0
05/22/2025 13:41:00.013,0.329888,-1.07482,0.386008,-129.43,43.785,33.705,-1.086,-0.969,-1.4775,0
05/22/2025 13:41:00.033,0.295484,-0.94672,0.382836,-77.805,33.075,37.135,-1.086,-0.969,-1.4775,0
05/22/2025 13:41:00.053,0.28304,-0.894504,0.355752,-53.9,19.075,41.23,-1.0305,-0.8205,-1.389,0
05/22/2025 13:41:00.073,0.303048,-0.913292,0.373564,-45.01,7.84,45.64,-0.9915,-0.798,-1.407,0
05/22/2025 13:41:00.093,0.316468,-0.923784,0.372832,-36.015,1.925,48.195,-0.975,-0.7875,-1.377,0
05/22/2025 13:41:00.113,0.31354,-0.903532,0.35746,-17.71,0.735,48.335,-0.951,-0.7425,-1.38,0
05/22/2025 13:41:00.133,0.271816,-0.825696,0.385764,-2.38,5.775,49.665,-0.9465,-0.7425,-1.38,0
05/22/2025 13:41:00.153,0.24278,-0.796416,0.425292,3.465,7.07,48.86,-0.9285,-0.735,-1.3725,0
05/22/2025 13:41:00.173,0.222528,-0.921588,0.388448,9.275,4.83,48.23,-0.921,-0.705,-1.383,0
05/22/2025 13:41:00.193,0.17446,-0.887428,0.413336,34.86,5.32,45.885,-0.906,-0.6975,-1.3785,0
05/22/2025 13:41:00.213,0.155916,-0.799344,0.455548,54.95,4.27,41.615,-0.87,-0.6915,-1.3635,0
05/22/2025 13:41:00.233,0.15494,-0.751764,0.507276,54.53,0.42,37.695,-0.855,-0.7095,-1.404,0
05/22/2025 13:41:00.253,0.15494,-0.78934,0.553392,42.595,-3.85,34.685,-0.8595,-0.6945,-1.434,0
05/22/2025 13:41:00.273,0.168848,-0.828624,0.50142,28.035,-11.725,33.46,-0.8535,-0.7095,-1.4535,0
05/22/2025 13:41:00.293,0.181536,-0.868396,0.48068,24.5,-13.685,31.85,-0.8535,-0.7095,-1.4535,0
05/22/2025 13:41:00.313,0.196176,-0.914756,0.498492,30.135,-13.3,31.885,-0.825,-0.6915,-1.4865,0
05/22/2025 13:41:00.333,0.189344,-0.875228,0.553148,44.065,-10.22,32.06,-0.828,-0.7065,-1.479,0
05/22/2025 13:41:00.353,0.17446,-0.745176,0.595848,54.74,-10.36,31.99,-0.8175,-0.7065,-1.5135,0
05/22/2025 13:41:00.373,0.178364,-0.780312,0.568032,42.315,-13.02,32.69,-0.84,-0.7215,-1.5015,0
05/22/2025 13:41:00.393,0.19154,-0.879864,0.541192,32.97,-12.985,33.74,-0.8115,-0.6915,-1.524,0
05/22/2025 13:41:00.413,0.155184,-0.774456,0.554124,45.955,-9.345,29.155,-0.804,-0.6915,-1.5285,0
05/22/2025 13:41:00.433,0.13054,-0.765916,0.57218,40.04,-11.76,26.495,-0.804,-0.6915,-1.5285,0
05/22/2025 13:41:00.453,0.126392,-0.716384,0.568276,40.81,-16.345,23.625,-0.8295,-0.7095,-1.5285,0
05/22/2025 13:41:00.473,0.114192,-0.68564,0.576328,37.695,-14.14,20.125,-0.825,-0.7365,-1.524,0
05/22/2025 13:41:00.493,0.121024,-0.7198,0.599752,30.87,-13.335,17.045,-0.7875,-0.7365,-1.5345,0
05/22/2025 13:41:00.513,0.099796,-0.651236,0.6527,19.215,-11.165,13.475,-0.819,-0.729,-1.551,0
05/22/2025 13:41:00.533,0.088816,-0.773236,0.598288,-2.205,-11.62,9.905,-0.8145,-0.702,-1.5285,0
05/22/2025 13:41:00.553,0.07198,-0.795196,0.60146,10.395,-10.64,8.47,-0.8145,-0.702,-1.5285,0
05/22/2025 13:41:00.573,0.051972,-0.678808,0.6649,11.62,-6.44,1.33,-0.8175,-0.7395,-1.539,0
05/22/2025 13:41:00.593,0.055632,-0.732,0.664412,2.905,-5.215,-4.235,-0.8205,-0.7515,-1.524,0
05/22/2025 13:41:00.613,0.052216,-0.713944,0.66734,3.885,-0.875,-7.315,-0.8235,-0.7665,-1.521,0
05/22/2025 13:41:00.633,0.065636,-0.801784,0.71614,3.85,-0.455,-9.695,-0.8205,-0.759,-1.5165,0
05/22/2025 13:41:00.653,0.115656,-0.857416,0.69296,11.2,-4.095,-10.395,-0.825,-0.7515,-1.551,0
05/22/2025 13:41:00.673,0.127368,-0.836432,0.692716,9.415,-8.715,-6.615,-0.8025,-0.756,-1.512,0
05/22/2025 13:41:00.693,0.110288,-0.93696,0.642696,0.21,-9.45,-1.575,-0.8475,-0.759,-1.5285,0
05/22/2025 13:41:00.713,0.10248,-0.935252,0.661972,10.57,-13.51,3.885,-0.8205,-0.7545,-1.524,0
05/22/2025 13:41:00.733,0.114924,-0.841312,0.699792,23.8,-16.03,6.895,-0.825,-0.759,-1.524,0
05/22/2025 13:41:00.753,0.096624,-0.908656,0.610244,22.155,-19.39,8.89,-0.8325,-0.747,-1.5285,0
05/22/2025 13:41:00.773,0.138348,-0.826916,0.66856,35.525,-22.89,7.665,-0.8355,-0.759,-1.509,0
05/22/2025 13:41:00.793,0.084912,-0.67222,0.691252,41.65,-17.78,4.585,-0.8505,-0.7695,-1.509,0
05/22/2025 13:41:00.813,0.112728,-0.679052,0.735416,24.22,-25.865,1.085,-0.858,-0.7575,-1.521,0
05/22/2025 13:41:00.833,0.227652,-0.795684,0.709552,5.845,-26.32,-1.505,-0.858,-0.7575,-1.521,0
05/22/2025 13:41:00.853,0.123952,-0.690276,0.726876,-6.37,-14.735,3.745,-0.8895,-0.7545,-1.4805,0
05/22/2025 13:41:00.873,0.178364,-0.828868,0.6161,-16.345,-21.385,5.32,-0.867,-0.7665,-1.4835,0
05/22/2025 13:41:00.893,0.15494,-0.897432,0.55144,0.455,-15.855,7,-0.87,-0.762,-1.4565,0
05/22/2025 13:41:00.913,0.179828,-0.937692,0.54656,25.69,-15.715,8.645,-0.855,-0.762,-1.449,0
05/22/2025 13:41:00.933,0.183,-0.892796,0.565592,51.765,-15.12,11.62,-0.8715,-0.7425,-1.473,0
05/22/2025 13:41:00.953,0.192272,-0.897432,0.649284,71.575,-15.715,13.65,-0.834,-0.759,-1.4415,0
05/22/2025 13:41:00.973,0.166652,-0.879132,0.64416,87.045,-19.215,17.64,-0.8325,-0.789,-1.44,0
05/22/2025 13:41:00.993,0.168604,-0.810324,0.633912,102.83,-25.34,21.42,-0.8115,-0.7965,-1.4625,0
05/22/2025 13:41:01.013,0.16226,-0.654164,0.6466,110.425,-26.46,23.24,-0.852,-0.816,-1.464,0
05/22/2025 13:41:01.033,0.183,-0.59414,0.611708,101.92,-27.93,24.01,-0.8505,-0.8565,-1.482,0
05/22/2025 13:41:01.053,0.179584,-0.49166,0.630496,98.385,-21,24.64,-0.8535,-0.906,-1.4865,0
05/22/2025 13:41:01.073,0.179828,-0.423096,0.677832,84.91,-12.25,21.945,-0.858,-0.894,-1.494,0
05/22/2025 13:41:01.093,0.231312,-0.440664,0.71248,49.42,-6.685,10.71,-0.858,-0.894,-1.494,0
05/22/2025 13:41:01.113,0.23302,-0.618052,0.69418,42.455,0.35,2.17,-0.828,-0.921,-1.512,0
05/22/2025 13:41:01.133,0.212036,-0.525332,0.703208,66.045,8.12,-4.06,-0.828,-0.933,-1.5195,0
05/22/2025 13:41:01.153,0.21716,-0.311344,0.770552,72.765,9.905,-2.205,-0.84,-0.954,-1.5375,0
05/22/2025 13:41:01.173,0.241316,-0.324276,0.760304,25.76,8.155,4.235,-0.8505,-0.969,-1.554,0
05/22/2025 13:41:01.193,0.21106,-0.374052,0.757864,-25.095,9.03,12.845,-0.8625,-1.0035,-1.569,0
05/22/2025 13:41:01.213,0.183244,-0.486048,0.757132,-62.825,9.52,19.04,-0.8355,-1.0035,-1.5525,0
05/22/2025 13:41:01.233,0.15616,-0.531676,0.813984,-77.875,12.635,21.175,-0.84,-0.996,-1.56,0
05/22/2025 13:41:01.253,0.117852,-0.61244,0.784704,-74.095,16.975,19.11,-0.819,-0.9285,-1.545,0
05/22/2025 13:41:01.273,0.069296,-0.670024,0.796172,-42.245,22.015,12.39,-0.819,-0.891,-1.527,0
05/22/2025 13:41:01.293,0.0427,-0.5673,0.790804,-11.55,21.49,7.665,-0.831,-0.849,-1.5345,0
05/22/2025 13:41:01.313,0.07124799,-0.478728,0.804956,-0.385,11.41,2.135,-0.8145,-0.891,-1.5345,0
05/22/2025 13:41:01.333,0.078812,-0.46116,0.901092,2.59,8.995,-0.91,-0.7935,-0.888,-1.533,0
05/22/2025 13:41:01.353,0.133468,-0.427244,1.03212,-11.97,0.84,-1.995,-0.7965,-0.8955,-1.5105,0
05/22/2025 13:41:01.373,0.152256,-0.45506,1.028704,-41.09,0.035,-0.175,-0.7965,-0.888,-1.5255,0
05/22/2025 13:41:01.393,0.112972,-0.732244,0.898164,-65.765,-4.27,-2.73,-0.7965,-0.888,-1.5255,0
05/22/2025 13:41:01.413,0.09467199,-0.70638,0.805444,-41.79,-6.405,-4.41,-0.792,-0.8685,-1.503,0
05/22/2025 13:41:01.433,0.116876,-0.899872,0.761768,-24.185,-9.31,-3.85,-0.789,-0.846,-1.4805,0
05/22/2025 13:41:01.453,0.125416,-0.823744,0.754204,6.685,-11.83,-1.47,-0.8175,-0.858,-1.4775,0
05/22/2025 13:41:01.473,0.120292,-0.71858,0.744932,24.675,-13.23,0.07,-0.777,-0.8655,-1.4835,0
05/22/2025 13:41:01.493,0.099064,-0.660508,0.743468,31.815,-14.35,2.275,-0.7875,-0.876,-1.4925,0
05/22/2025 13:41:01.513,0.127612,-0.692228,0.757132,37.17,-17.395,2.66,-0.792,-0.8955,-1.503,0
05/22/2025 13:41:01.533,0.135664,-0.687836,0.743224,48.93,-17.605,3.29,-0.7545,-0.9255,-1.509,0
05/22/2025 13:41:01.553,0.14274,-0.62098,0.735416,56.91,-16.555,6.055,-0.777,-0.903,-1.5105,0
05/22/2025 13:41:01.573,0.159576,-0.665388,0.736148,57.365,-15.19,8.085,-0.7695,-0.9375,-1.518,0
05/22/2025 13:41:01.593,0.14518,-0.598532,0.760548,62.825,-10.78,7.56,-0.7965,-0.9435,-1.548,0
05/22/2025 13:41:01.613,0.131028,-0.622444,0.75274,65.695,-10.64,5.775,-0.792,-0.96,-1.533,0
05/22/2025 13:41:01.633,0.147132,-0.554612,0.760792,77.525,-9.625,6.16,-0.792,-0.96,-1.533,0
05/22/2025 13:41:01.653,0.170556,-0.436028,0.859856,82.915,-8.05,7.77,-0.795,-1.0275,-1.5705,0
05/22/2025 13:41:01.673,0.163968,-0.398452,0.877424,68.95,-7.805,9.24,-0.777,-1.065,-1.596,0
05/22/2025 13:41:01.693,0.196176,-0.40382,0.916708,58.24,-11.55,11.48,-0.8115,-1.038,-1.632,0
05/22/2025 13:41:01.713,0.170312,-0.458476,0.881084,54.11,-14.665,11.095,-0.804,-1.068,-1.647,0
05/22/2025 13:41:01.733,0.189832,-0.441884,0.894748,64.225,-16.66,9.03,-0.819,-1.068,-1.635,0
05/22/2025 13:41:01.753,0.180316,-0.356728,0.925004,74.725,-13.825,7.035,-0.822,-1.113,-1.6395,0
05/22/2025 13:41:01.773,0.176412,-0.26596,0.927688,69.86,-13.685,6.895,-0.8145,-1.116,-1.6425,0
05/22/2025 13:41:01.793,0.183488,-0.21838,0.898164,56.42,-13.895,9.66,-0.8235,-1.1385,-1.62,0
05/22/2025 13:41:01.813,0.198616,-0.245708,0.892796,40.425,-12.53,13.02,-0.825,-1.161,-1.6455,0
05/22/2025 13:41:01.833,0.236192,-0.287676,0.938424,27.58,-11.235,15.4,-0.8235,-1.1655,-1.6155,0
05/22/2025 13:41:01.853,0.20374,-0.348676,0.896944,20.405,-8.61,15.925,-0.8235,-1.1655,-1.6275,0
05/22/2025 13:41:01.873,0.21838,-0.383324,0.862296,26.075,-8.4,14.665,-0.813,-1.1655,-1.62,0
05/22/2025 13:41:01.893,0.211304,-0.397232,0.880352,50.995,-3.29,18.41,-0.813,-1.1655,-1.62,0
05/22/2025 13:41:01.913,0.1891,-0.304268,0.90768,60.62,-2.975,18.865,-0.813,-1.203,-1.65,0
05/22/2025 13:41:01.933,0.191052,-0.232288,0.922808,57.96,-8.225,20.44,-0.8385,-1.248,-1.653,0
05/22/2025 13:41:01.953,0.24644,-0.176656,0.986492,49.63,-11.515,22.505,-0.8565,-1.251,-1.662,0
05/22/2025 13:41:01.973,0.183732,-0.072224,1.005768,48.195,-10.01,22.68,-0.8415,-1.248,-1.665,0
05/22/2025 13:41:01.993,0.24034,-0.103212,0.944768,21.385,-13.755,21.245,-0.834,-1.26,-1.6455,0
05/22/2025 13:41:02.013,0.194224,-0.200324,0.911096,16.695,-8.995,25.34,-0.8415,-1.2555,-1.65,0
05/22/2025 13:41:02.033,0.178852,-0.14518,0.976244,21.77,-7,21.35,-0.834,-1.2555,-1.6455,0
05/22/2025 13:41:02.053,0.227652,-0.14396,1.012112,12.775,-10.255,17.465,-0.8595,-1.2555,-1.632,0
05/22/2025 13:41:02.073,0.22936,-0.404796,0.925248,10.115,-8.61,19.81,-0.846,-1.2285,-1.638,0
05/22/2025 13:41:02.093,0.199836,-0.413336,0.92232,38.15,-4.095,22.4,-0.867,-1.2255,-1.6425,0
05/22/2025 13:41:02.113,0.164456,-0.253028,0.945012,56.63,-3.185,21.49,-0.8385,-1.245,-1.6455,0
05/22/2025 13:41:02.133,0.1647,-0.17324,0.981124,56.91,-7.42,22.54,-0.8565,-1.191,-1.617,0
05/22/2025 13:41:02.153,0.18178,-0.073688,0.946964,43.785,-15.085,28.385,-0.8535,-1.2135,-1.65,0
05/22/2025 13:41:02.173,0.209108,-0.017324,0.927932,25.655,-20.44,31.745,-0.8535,-1.2135,-1.65,0
05/22/2025 13:41:02.193,0.268644,-0.241316,0.884744,-1.855,-22.015,33.46,-0.879,-1.2255,-1.629,0
05/22/2025 13:41:02.213,0.182024,-0.067832,0.890112,19.425,-14.595,26.81,-0.8625,-1.2285,-1.617,0
05/22/2025 13:41:02.233,0.247904,-0.022936,0.880596,23.8,-22.19,23.03,-0.882,-1.2135,-1.6095,0
05/22/2025 13:41:02.253,0.289628,-0.12444,0.919636,11.2,-21.315,25.55,-0.903,-1.224,-1.5945,0
05/22/2025 13:41:02.273,0.230336,-0.141764,0.948428,9.065,-17.675,24.71,-0.9045,-1.1865,-1.5945,0
05/22/2025 13:41:02.293,0.261568,-0.140544,0.906948,6.825,-22.61,20.86,-0.9075,-1.221,-1.6095,0
05/22/2025 13:41:02.313,0.213744,-0.115168,0.850828,6.02,-23.205,19.985,-0.9135,-1.206,-1.569,0
05/22/2025 13:41:02.333,0.270108,-0.089792,0.880108,8.225,-28.28,17.36,-0.918,-1.224,-1.5765,0
05/22/2025 13:41:02.353,0.270596,0.073688,0.904996,13.02,-25.375,12.705,-0.9135,-1.2165,-1.569,0
05/22/2025 13:41:02.373,0.294752,0.158356,0.938424,-8.925,-23.835,6.265,-0.939,-1.224,-1.566,0
05/22/2025 13:41:02.393,0.318664,0.06734399,0.972584,-55.265,-19.53,-0.595,-0.969,-1.2345,-1.5705,0
05/22/2025 13:41:02.413,0.318908,-0.02806,0.95282,-82.6,-10.57,-14.385,-0.939,-1.2165,-1.5465,0
05/22/2025 13:41:02.433,0.361364,0.04026,0.996252,-82.075,4.655,-34.615,-0.939,-1.2165,-1.5465,0
05/22/2025 13:41:02.453,0.291824,-0.367708,0.908412,-101.115,17.15,-33.075,-0.939,-1.2165,-1.5465,0
05/22/2025 13:41:02.473,0.218624,-0.518744,0.781044,-103.67,21.035,-37.24,-0.9555,-1.137,-1.521,0
05/22/2025 13:41:02.493,0.144936,-0.279624,0.659532,-72.625,18.34,-49.07,-0.963,-1.107,-1.521,0
05/22/2025 13:41:02.513,0.299876,-0.221064,0.71004,-85.015,-1.785,-23.205,-0.933,-1.107,-1.539,0
05/22/2025 13:41:02.533,0.355996,-0.836188,0.879132,-123.55,2.695,-9.45,-0.9705,-1.1295,-1.5255,0
05/22/2025 13:41:02.553,0.294996,-0.595116,1.00894,-49.84,22.75,-14.42,-0.975,-1.062,-1.5075,0
05/22/2025 13:41:02.573,0.2684,-0.285724,1.038464,-13.195,20.825,-13.335,-0.9525,-1.029,-1.4805,0
05/22/2025 13:41:02.593,0.194956,-0.388936,0.965264,-50.82,27.51,-10.43,-0.9525,-1.0215,-1.4805,0
05/22/2025 13:41:02.613,0.172264,-0.5124,0.921344,-61.215,31.745,-4.2,-0.9555,-1.032,-1.4655,0
05/22/2025 13:41:02.633,0.18178,-0.498004,0.823744,-33.425,29.75,-3.64,-0.9495,-0.9795,-1.488,0
05/22/2025 13:41:02.653,0.136884,-0.36478,0.717604,-14.175,26.985,-5.88,-0.945,-0.987,-1.4805,0
05/22/2025 13:41:02.673,0.134688,-0.241316,0.742492,-21.875,19.285,-9.8,-0.9195,-1.014,-1.491,0
05/22/2025 13:41:02.693,0.257664,-0.329888,0.93208,-41.09,19.635,-10.745,-0.918,-1.011,-1.476,0
05/22/2025 13:41:02.713,0.243756,-0.338428,0.808372,-47.74,24.045,-15.19,-0.918,-1.011,-1.476,0
05/22/2025 13:41:02.733,0.191784,-0.456524,0.764696,-66.01,29.295,-17.92,-0.93,-0.984,-1.4805,0
05/22/2025 13:41:02.753,0.205204,-0.669536,0.735416,-63.63,27.51,-17.815,-0.9045,-0.9645,-1.4835,0
05/22/2025 13:41:02.773,0.224724,-0.607072,0.640744,-34.965,33.705,-16.66,-0.9315,-0.972,-1.4985,0
05/22/2025 13:41:02.793,0.219844,-0.325252,1.351028,0.7,53.83,-25.655,-0.897,-1.0065,-1.482,0
05/22/2025 13:41:02.813,0.444568,-0.272304,1.56648,42.49,66.675,-19.775,-0.8985,-1.002,-1.521,0
05/22/2025 13:41:02.833,0.400892,-0.229848,1.171444,-34.09,57.89,-19.88,-0.8985,-1.002,-1.521,0
05/22/2025 13:41:02.853,0.232776,-0.721996,0.881816,-95.795,65.03,-22.47,-0.8835,-1.026,-1.5315,0
05/22/2025 13:41:02.873,0.27328,-0.59902,0.686616,-77.21,76.86,-19.11,-0.876,-0.999,-1.5315,0
05/22/2025 13:41:02.893,0.182268,-0.65514,0.6283,-82.915,78.68,-12.355,-0.8505,-0.981,-1.554,0
05/22/2025 13:41:02.913,0.178364,-0.730292,0.690764,-82.425,72.66,-8.855,-0.8175,-0.9555,-1.545,0
05/22/2025 13:41:02.933,0.142984,-0.58316,0.639524,-56.28,68.635,-9.695,-0.7965,-0.906,-1.5375,0
05/22/2025 13:41:02.953,0.119804,-0.501176,0.576572,-46.69,66.115,-11.445,-0.789,-0.9285,-1.5525,0
05/22/2025 13:41:02.973,0.092232,-0.476288,0.56242,-51.03,68.565,-17.57,-0.7755,-0.903,-1.563,0
05/22/2025 13:41:02.993,0.07442,-0.509472,0.55876,-57.54,68.425,-24.43,-0.7605,-0.873,-1.56,0
05/22/2025 13:41:03.013,0.074908,-0.531188,0.595116,-66.955,63.035,-31.29,-0.7455,-0.8505,-1.5285,0
05/22/2025 13:41:03.033,0.087108,-0.598288,0.574132,-78.05,52.955,-38.29,-0.717,-0.8205,-1.566,0
05/22/2025 13:41:03.053,0.074664,-0.624884,0.550708,-83.895,40.25,-42.875,-0.72,-0.8055,-1.548,0
05/22/2025 13:41:03.073,0.05002,-0.647332,0.586088,-86.94,28.385,-45.745,-0.717,-0.813,-1.5435,0
05/22/2025 13:41:03.093,0.052948,-0.715164,0.60878,-87.115,14.175,-49.56,-0.768,-0.7785,-1.5105,0
05/22/2025 13:41:03.113,0.066124,-0.770064,0.600972,-88.62,1.785,-51.765,-0.768,-0.7785,-1.5105,0
05/22/2025 13:41:03.133,0.0671,-0.8357,0.561688,-88.69,-5.46,-53.06,-0.7605,-0.7635,-1.4775,0
05/22/2025 13:41:03.153,0.080764,-0.856684,0.54046,-86.065,-7.735,-52.57,-0.7905,-0.7365,-1.467,0
05/22/2025 13:41:03.173,0.075884,-0.873032,0.530212,-85.925,-5.215,-50.505,-0.8235,-0.7065,-1.4445,0
05/22/2025 13:41:03.193,0.068564,-0.91866,0.522892,-84.28,-0.875,-47.53,-0.816,-0.714,-1.464,0
05/22/2025 13:41:03.213,0.0671,-0.939888,0.539972,-76.51,2.275,-45.115,-0.8685,-0.6945,-1.4535,0
05/22/2025 13:41:03.233,0.063684,-0.946476,0.535336,-67.025,4.585,-41.895,-0.8685,-0.6945,-1.4535,0
05/22/2025 13:41:03.253,0.07686,-0.94062,0.539728,-65.1,5.775,-40.425,-0.8685,-0.6945,-1.4535,0
05/22/2025 13:41:03.273,0.08418,-0.938668,0.536556,-64.4,6.685,-39.235,-0.8805,-0.7065,-1.3815,0
05/22/2025 13:41:03.293,0.098088,-0.938424,0.504104,-60.725,7.42,-38.255,-0.9135,-0.6825,-1.368,0
05/22/2025 13:41:03.313,0.108092,-0.943304,0.49532,-55.685,8.785,-36.785,-0.9075,-0.645,-1.353,0
05/22/2025 13:41:03.333,0.115656,-0.955992,0.49044,-51.765,10.29,-35.245,-0.933,-0.6555,-1.3725,0
05/22/2025 13:41:03.353,0.138592,-0.97356,0.46848,-47.215,12.285,-33.705,-0.948,-0.6675,-1.3575,0
05/22/2025 13:41:03.373,0.146888,-0.967216,0.445056,-41.93,15.54,-31.99,-0.9765,-0.678,-1.3665,0
05/22/2025 13:41:03.393,0.15738,-0.95404,0.431148,-38.675,19.355,-30.135,-0.981,-0.6525,-1.3365,0
05/22/2025 13:41:03.413,0.161528,-0.951844,0.419192,-38.43,22.995,-28.455,-1.029,-0.6615,-1.3485,0
05/22/2025 13:41:03.433,0.167384,-0.948428,0.4148,-39.515,25.34,-26.95,-1.029,-0.6615,-1.3785,0
05/22/2025 13:41:03.453,0.172752,-0.945012,0.399428,-42.105,28.14,-25.97,-1.0515,-0.651,-1.338,0
05/22/2025 13:41:03.473,0.176412,-0.960872,0.36478,-45.36,30.1,-25.41,-1.0245,-0.666,-1.3485,0
05/22/2025 13:41:03.493,0.190564,-0.963312,0.349896,-47.775,31.15,-25.13,-1.0575,-0.666,-1.326,0
05/22/2025 13:41:03.513,0.194956,-0.974048,0.343796,-54.845,31.185,-23.94,-1.0575,-0.666,-1.326,0
05/22/2025 13:41:03.533,0.20008,-0.998936,0.324032,-54.25,30.31,-23.1,-1.0905,-0.6615,-1.317,0
05/22/2025 13:41:03.553,0.201788,-1.00406,0.307684,-47.88,29.365,-22.015,-1.0605,-0.6765,-1.2855,0
05/22/2025 13:41:03.573,0.199104,-0.971608,0.30012,-40.11,28.77,-20.93,-1.0965,-0.6765,-1.2525,0
05/22/2025 13:41:03.593,0.192272,-0.955992,0.290116,-35.28,27.755,-20.3,-1.086,-0.669,-1.251,0
05/22/2025 13:41:03.613,0.191784,-0.941596,0.275964,-33.46,26.11,-20.3,-1.0485,-0.678,-1.2435,0
05/22/2025 13:41:03.633,0.189344,-0.935496,0.26718,-33.25,25.095,-21.175,-1.062,-0.6435,-1.224,0
05/22/2025 13:41:03.653,0.1891,-0.940864,0.252052,-33.25,23.66,-22.61,-1.092,-0.681,-1.2135,0
05/22/2025 13:41:03.673,0.192516,-0.948672,0.24034,-33.775,22.645,-23.8,-1.0875,-0.669,-1.218,0
05/22/2025 13:41:03.693,0.192028,-0.958188,0.226188,-34.825,21.14,-24.255,-1.095,-0.681,-1.1985,0
05/22/2025 13:41:03.713,0.189832,-0.968436,0.215696,-35.455,19.915,-23.87,-1.101,-0.696,-1.179,0
05/22/2025 13:41:03.733,0.187148,-0.98698,0.199592,-34.405,18.305,-22.995,-1.0725,-0.7035,-1.194,0
05/22/2025 13:41:03.753,0.196908,-0.985516,0.1952,-32.445,16.8,-22.05,-1.0875,-0.7035,-1.194,0
05/22/2025 13:41:03.773,0.200324,-0.987712,0.177632,-30.415,15.12,-19.985,-1.083,-0.7185,-1.191,0
05/22/2025 13:41:03.793,0.209108,-0.99186,0.163724,-29.12,13.86,-18.235,-1.0845,-0.7275,-1.1445,0
05/22/2025 13:41:03.813,0.214476,-0.988932,0.149084,-28.42,13.265,-16.38,-1.0845,-0.7275,-1.1445,0
05/22/2025 13:41:03.833,0.218868,-0.990152,0.133224,-27.58,12.04,-14.665,-1.0935,-0.7305,-1.1835,0
05/22/2025 13:41:03.853,0.223748,-0.98942,0.115168,-26.845,10.745,-13.44,-1.101,-0.723,-1.194,0
05/22/2025 13:41:03.873,0.224236,-0.992592,0.09857599,-26.425,9.555,-12.04,-1.1295,-0.7335,-1.176,0
05/22/2025 13:41:03.893,0.232532,-0.994544,0.100284,-24.885,7.455,-11.445,-1.089,-0.741,-1.1595,0
05/22/2025 13:41:03.913,0.239852,-0.987224,0.104432,-22.82,5.215,-10.92,-1.074,-0.7305,-1.167,0
05/22/2025 13:41:03.933,0.246684,-0.988444,0.097356,-21.91,2.625,-10.115,-1.083,-0.7305,-1.1865,0
05/22/2025 13:41:03.953,0.25864,-0.995276,0.10004,-19.81,0.665,-8.96,-1.116,-0.7305,-1.1805,0
05/22/2025 13:41:03.973,0.255712,-0.988932,0.090036,-18.62,-0.595,-7.21,-1.1145,-0.738,-1.164,0
05/22/2025 13:41:03.993,0.262056,-0.986248,0.091012,-17.745,-2.24,-5.88,-1.1175,-0.738,-1.146,0
05/22/2025 13:41:04.013,0.269132,-0.980392,0.080764,-17.675,-3.5,-5.32,-1.134,-0.696,-1.1535,0
05/22/2025 13:41:04.033,0.277672,-0.989908,0.065392,-19.95,-5.355,-4.935,-1.1145,-0.711,-1.149,0
05/22/2025 13:41:04.053,0.294264,-1.008696,0.05368,-17.01,-6.125,-4.83,-1.1145,-0.711,-1.149,0
05/22/2025 13:41:04.073,0.29768,-1.010648,0.06344,-11.48,-6.335,-4.235,-1.119,-0.696,-1.1505,0
05/22/2025 13:41:04.093,0.305976,-0.993812,0.07564,-6.825,-6.755,-3.325,-1.1145,-0.6705,-1.1235,0
05/22/2025 13:41:04.113,0.309148,-0.984052,0.07905599,-4.655,-7.7,-2.485,-1.1445,-0.669,-1.125,0
05/22/2025 13:41:04.133,0.312076,-0.973316,0.07515199,-3.605,-8.085,-1.54,-1.1085,-0.6885,-1.1415,0
05/22/2025 13:41:04.153,0.310856,-0.981612,0.077104,-2.38,-7.945,-0.63,-1.0815,-0.6585,-1.1265,0
05/22/2025 13:41:04.173,0.308416,-0.962824,0.07564,-1.19,-7.42,-0.105,-1.101,-0.666,-1.1565,0
05/22/2025 13:41:04.193,0.315248,-0.955016,0.072468,-0.77,-6.44,0.28,-1.101,-0.6435,-1.1505,0
05/22/2025 13:41:04.213,0.31476,-0.955016,0.072712,-0.665,-5.18,0.735,-1.0965,-0.6705,-1.131,0
05/22/2025 13:41:04.233,0.314028,-0.956724,0.078812,-0.91,-3.815,1.435,-1.083,-0.666,-1.1685,0
05/22/2025 13:41:04.253,0.313784,-0.946232,0.078324,-1.015,-2.52,2.205,-1.0935,-0.6555,-1.164,0
05/22/2025 13:41:04.273,0.311832,-0.955992,0.067588,0.21,-1.015,2.73,-1.095,-0.6585,-1.1685,0
05/22/2025 13:41:04.293,0.31598,-0.945012,0.07198,1.12,0.91,2.765,-1.095,-0.6585,-1.1685,0
05/22/2025 13:41:04.313,0.31354,-0.972828,0.058072,1.89,2.835,2.205,-1.0905,-0.678,-1.179,0
05/22/2025 13:41:04.333,0.319396,-0.958676,0.056852,5.285,3.71,1.505,-1.0875,-0.6585,-1.191,0
05/22/2025 13:41:04.353,0.31476,-0.953308,0.073932,7.42,4.655,0.91,-1.0815,-0.6465,-1.218,0
05/22/2025 13:41:04.373,0.319152,-0.954284,0.087596,9.905,4.97,1.19,-1.0995,-0.669,-1.233,0
05/22/2025 13:41:04.393,0.324764,-0.952088,0.076372,14.805,5.32,0.14,-1.11,-0.6465,-1.218,0
05/22/2025 13:41:04.413,0.316956,-0.954284,0.081252,25.62,6.895,-1.05,-1.107,-0.6435,-1.218,0
05/22/2025 13:41:04.433,0.329888,-0.946476,0.108092,41.44,9.695,-3.01,-1.1175,-0.6615,-1.215,0
05/22/2025 13:41:04.453,0.341356,-0.927444,0.111752,60.935,7.595,-5.67,-1.1115,-0.654,-1.233,0
05/22/2025 13:41:04.473,0.324276,-0.882548,0.10004,79.38,8.225,-6.475,-1.0845,-0.684,-1.2585,0
05/22/2025 13:41:04.493,0.3355,-0.9089,0.152256,96.95,12.39,-6.72,-1.101,-0.699,-1.2855,0
05/22/2025 13:41:04.513,0.332328,-0.895724,0.215696,116.34,18.095,-8.05,-1.083,-0.6885,-1.2975,0
05/22/2025 13:41:04.533,0.333792,-0.856928,0.24522,130.27,20.51,-10.465,-1.1235,-0.7515,-1.3275,0
05/22/2025 13:41:04.553,0.344772,-0.79544,0.263032,128.415,21.98,-11.515,-1.0935,-0.774,-1.365,0
05/22/2025 13:41:04.573,0.331352,-0.774456,0.363316,98.91,23.24,-12.95,-1.095,-0.807,-1.398,0
05/22/2025 13:41:04.593,0.328668,-0.820328,0.387716,61.04,20.475,-13.3,-1.095,-0.807,-1.398,0
05/22/2025 13:41:04.613,0.34404,-0.874008,0.379908,34.965,16.415,-15.365,-1.098,-0.8715,-1.44,0
05/22/2025 13:41:04.633,0.34404,-0.914756,0.347212,22.54,12.04,-16.03,-1.0875,-0.879,-1.4655,0
05/22/2025 13:41:04.653,0.327692,-0.900848,0.340136,16.695,8.26,-16.38,-1.11,-0.909,-1.4775,0
05/22/2025 13:41:04.673,0.31842,-0.874496,0.332328,8.12,2.975,-15.89,-1.1175,-0.912,-1.497,0
05/22/2025 13:41:04.693,0.316712,-0.925004,0.297436,0,-2.065,-14.245,-1.1175,-0.9165,-1.482,0
05/22/2025 13:41:04.713,0.315736,-0.973316,0.295728,4.305,-6.16,-11.69,-1.1175,-0.924,-1.4895,0
05/22/2025 13:41:04.733,0.334036,-0.974292,0.322324,20.16,-10.605,-8.435,-1.131,-0.9345,-1.4865,0
05/22/2025 13:41:04.753,0.343064,-0.9394,0.361852,33.565,-14.21,-4.27,-1.116,-0.939,-1.4895,0
05/22/2025 13:41:04.773,0.351848,-0.900604,0.3904,41.93,-18.865,-0.245,-1.158,-0.9495,-1.494,0
05/22/2025 13:41:04.793,0.345016,-0.847412,0.42944,49.77,-19.075,2.625,-1.143,-0.9615,-1.494,0
05/22/2025 13:41:04.813,0.318664,-0.811788,0.441884,52.57,-15.645,4.515,-1.1685,-0.975,-1.4865,0
05/22/2025 13:41:04.833,0.305976,-0.776896,0.505812,55.405,-13.405,3.955,-1.2015,-0.978,-1.491,0
05/22/2025 13:41:04.853,0.31232,-0.715164,0.53924,52.815,-10.01,-1.015,-1.2015,-0.978,-1.491,0
05/22/2025 13:41:04.873,0.325984,-0.66734,0.563396,44.87,-7.875,-4.515,-1.2015,-0.978,-1.491,0
05/22/2025 13:41:04.893,0.35624,-0.744932,0.581208,30.24,-2.8,-6.72,-1.236,-1.008,-1.446,0
05/22/2025 13:41:04.913,0.397232,-0.891576,0.627568,31.08,6.23,-6.195,-1.2105,-1.017,-1.461,0
05/22/2025 13:41:04.933,0.372344,-0.792268,0.67466,48.86,13.86,-5.285,-1.2315,-1.032,-1.4235,0
05/22/2025 13:41:04.953,0.348188,-0.74176,0.649528,42.525,15.225,-5.25,-1.239,-1.0305,-1.4385,0
05/22/2025 13:41:04.973,0.354532,-0.731756,0.580476,24.57,13.58,-5.705,-1.233,-1.047,-1.4505,0
05/22/2025 13:41:04.993,0.360144,-0.77226,0.549,17.815,12.915,-5.075,-1.2345,-1.062,-1.431,0
05/22/2025 13:41:05.013,0.364048,-0.790072,0.57462,28.595,13.3,-3.325,-1.221,-1.0695,-1.461,0
05/22/2025 13:41:05.033,0.35868,-0.75884,0.58804,41.51,12.915,-0.805,-1.239,-1.092,-1.443,0
05/22/2025 13:41:05.053,0.355996,-0.685884,0.571692,45.535,8.4,0.245,-1.221,-1.092,-1.449,0
05/22/2025 13:41:05.073,0.362584,-0.657092,0.542168,40.18,2.275,0.35,-1.209,-1.095,-1.4565,0
05/22/2025 13:41:05.093,0.368196,-0.628056,0.525088,33.355,-3.955,-0.945,-1.194,-1.122,-1.4595,0
05/22/2025 13:41:05.113,0.395524,-0.643916,0.553636,36.225,-12.74,-5.285,-1.2465,-1.1325,-1.491,0
05/22/2025 13:41:05.133,0.421388,-0.659532,0.589504,37.835,-18.13,-7.315,-1.239,-1.1595,-1.479,0
05/22/2025 13:41:05.153,0.456768,-0.685884,0.613172,38.815,-21.385,-7.805,-1.2495,-1.1745,-1.491,0
05/22/2025 13:41:05.173,0.483852,-0.756644,0.678564,43.4,-17.99,-5.565,-1.239,-1.17,-1.4955,0
05/22/2025 13:41:05.193,0.449204,-0.704916,0.740052,52.325,-8.435,-0.175,-1.2495,-1.197,-1.488,0
05/22/2025 13:41:05.213,0.419924,-0.595116,0.74542,46.305,-5.74,1.925,-1.2615,-1.2075,-1.518,0
05/22/2025 13:41:05.233,0.394548,-0.57218,0.708088,21.735,-4.83,2.52,-1.2495,-1.1925,-1.491,0
05/22/2025 13:41:05.253,0.35868,-0.561444,0.682224,1.61,-3.92,3.08,-1.2495,-1.1925,-1.491,0
05/22/2025 13:41:05.273,0.340868,-0.58194,0.678808,-10.29,-3.465,3.78,-1.2645,-1.2,-1.4955,0
05/22/2025 13:41:05.293,0.315004,-0.604388,0.701988,-9.135,-3.045,3.815,-1.275,-1.2075,-1.491,0
05/22/2025 13:41:05.313,0.304512,-0.625128,0.702232,-1.645,-5.25,4.62,-1.281,-1.2225,-1.4685,0
05/22/2025 13:41:05.333,0.31354,-0.655628,0.705648,3.78,-9.03,5.88,-1.26,-1.2,-1.491,0
05/22/2025 13:41:05.353,0.322568,-0.690764,0.69906,9.03,-12.285,7.735,-1.2705,-1.2345,-1.461,0
05/22/2025 13:41:05.373,0.336476,-0.657824,0.724192,15.75,-15.715,8.435,-1.26,-1.2,-1.473,0
05/22/2025 13:41:05.393,0.370392,-0.667828,0.710528,7.945,-20.055,10.395,-1.26,-1.2,-1.473,0
05/22/2025 13:41:05.413,0.405528,-0.675392,0.686616,6.44,-22.26,11.375,-1.2735,-1.2075,-1.4385,0
05/22/2025 13:41:05.433,0.421632,-0.664168,0.646112,8.05,-24.955,12.635,-1.2885,-1.2075,-1.4505,0
05/22/2025 13:41:05.453,0.437736,-0.646112,0.604144,13.02,-27.58,14,-1.3005,-1.2075,-1.4505,0
05/22/2025 13:41:05.473,0.46116,-0.607316,0.568764,18.445,-28.14,16.31,-1.2525,-1.2075,-1.476,0
05/22/2025 13:41:05.493,0.479948,-0.621712,0.55022,20.615,-26.88,18.9,-1.245,-1.2,-1.4685,0
05/22/2025 13:41:05.513,0.4697,-0.631716,0.577548,21.315,-24.71,20.615,-1.2675,-1.2,-1.4685,0
05/22/2025 13:41:05.533,0.473116,-0.618052,0.582672,17.92,-24.92,21.105,-1.2705,-1.2195,-1.4805,0
05/22/2025 13:41:05.553,0.451156,-0.652456,0.593164,14.98,-24.85,22.54,-1.293,-1.2075,-1.473,0
05/22/2025 13:41:05.573,0.436516,-0.644648,0.616588,17.85,-23.87,22.295,-1.296,-1.215,-1.473,0
05/22/2025 13:41:05.593,0.417728,-0.685884,0.648552,19.495,-22.82,22.155,-1.2825,-1.1925,-1.503,0
05/22/2025 13:41:05.613,0.403332,-0.677588,0.678564,24.045,-21.525,22.925,-1.287,-1.188,-1.5,0
05/22/2025 13:41:05.633,0.397232,-0.648064,0.682224,24.885,-21.525,23.275,-1.308,-1.2225,-1.4895,0
05/22/2025 13:41:05.653,0.386008,-0.633668,0.679296,22.75,-20.86,24.5,-1.308,-1.2225,-1.4895,0
05/22/2025 13:41:05.673,0.386008,-0.603412,0.682712,20.51,-19.25,24.22,-1.308,-1.2225,-1.4895,0
05/22/2025 13:41:05.693,0.386008,-0.581208,0.692228,14.77,-16.87,23.94,-1.317,-1.173,-1.497,0
05/22/2025 13:41:05.713,0.38674,-0.61488,0.700524,8.75,-15.155,23.485,-1.317,-1.173,-1.5045,0
05/22/2025 13:41:05.733,0.39284,-0.647576,0.714676,5.075,-12.95,23.52,-1.3275,-1.1835,-1.4865,0
05/22/2025 13:41:05.753,0.404064,-0.644404,0.73688,3.29,-12.285,22.085,-1.338,-1.1835,-1.4715,0
05/22/2025 13:41:05.773,0.405284,-0.616344,0.711016,-1.54,-12.215,22.365,-1.3245,-1.146,-1.4865,0
05/22/2025 13:41:05.793,0.409676,-0.61122,0.683444,-9.135,-13.055,22.365,-1.338,-1.161,-1.479,0
05/22/2025 13:41:05.813,0.407236,-0.621468,0.640256,-13.3,-13.265,22.82,-1.332,-1.131,-1.467,0
05/22/2025 13:41:05.833,0.38674,-0.607804,0.62098,-11.725,-12.985,23.24,-1.338,-1.131,-1.4445,0
05/22/2025 13:41:05.853,0.377712,-0.638304,0.601948,-12.25,-13.265,24.85,-1.3305,-1.1205,-1.452,0
05/22/2025 13:41:05.873,0.3599,-0.6588,0.581452,-9.415,-13.16,27.23,-1.3125,-1.0785,-1.4445,0
05/22/2025 13:41:05.893,0.356484,-0.669536,0.551196,-4.2,-11.69,30.31,-1.3425,-1.071,-1.434,0
05/22/2025 13:41:05.913,0.346236,-0.714432,0.625128,11.165,-7.035,30.87,-1.3305,-1.1055,-1.4145,0
05/22/2025 13:41:05.933,0.351604,-0.746884,0.668316,19.18,-7.98,27.86,-1.3305,-1.1055,-1.4145,0
05/22/2025 13:41:05.953,0.358192,-0.748104,0.688568,25.69,-10.57,24.115,-1.3305,-1.086,-1.4295,0
05/22/2025 13:41:05.973,0.378688,-0.754692,0.6832,32.13,-14.175,17.045,-1.326,-1.1055,-1.4025,0
05/22/2025 13:41:05.993,0.390156,-0.693204,0.662704,33.46,-15.96,7.315,-1.305,-1.0785,-1.425,0
05/22/2025 13:41:06.013,0.401136,-0.688568,0.637084,24.22,-15.645,-2.625,-1.323,-1.071,-1.41,0
05/22/2025 13:41:06.033,0.388692,-0.660508,0.624152,11.515,-12.32,-10.325,-1.3335,-1.0905,-1.404,0
05/22/2025 13:41:06.053,0.390888,-0.671,0.59902,-5.81,-7,-15.085,-1.323,-1.0785,-1.422,0
05/22/2025 13:41:06.073,0.382592,-0.681736,0.5917,-15.155,-1.295,-18.48,-1.3455,-1.0935,-1.407,0
05/22/2025 13:41:06.093,0.388204,-0.686372,0.596092,-16.135,4.48,-20.86,-1.3635,-1.104,-1.4115,0
05/22/2025 13:41:06.113,0.404064,-0.696864,0.599752,-12.705,8.715,-22.435,-1.353,-1.086,-1.407,0
05/22/2025 13:41:06.133,0.405772,-0.696376,0.590968,-7.49,13.195,-23.205,-1.353,-1.098,-1.404,0
05/22/2025 13:41:06.153,0.415776,-0.706136,0.586332,-0.07,16.94,-24.22,-1.356,-1.101,-1.407,0
05/22/2025 13:41:06.173,0.424072,-0.690032,0.606096,5.32,20.755,-25.27,-1.3605,-1.086,-1.401,0
05/22/2025 13:41:06.193,0.41236,-0.68564,0.632448,7.77,25.095,-28.665,-1.3935,-1.0785,-1.401,0
05/22/2025 13:41:06.213,0.406504,-0.689544,0.641476,6.09,26.145,-31.36,-1.371,-1.116,-1.4085,0
05/22/2025 13:41:06.233,0.397476,-0.668072,0.64294,5.285,26.81,-34.58,-1.341,-1.1205,-1.395,0
05/22/2025 13:41:06.253,0.38918,-0.632936,0.671,3.325,28.98,-38.71,-1.344,-1.1355,-1.4115,0
05/22/2025 13:41:06.273,0.384788,-0.632936,0.674416,-1.54,30.73,-42.21,-1.359,-1.161,-1.404,0
05/22/2025 13:41:06.293,0.393572,-0.594872,0.693448,-4.655,32.34,-45.78,-1.3485,-1.1535,-1.407,0
05/22/2025 13:41:06.313,0.40138,-0.625128,0.682224,-10.185,34.405,-49.455,-1.374,-1.191,-1.4265,0
05/22/2025 13:41:06.333,0.388204,-0.6039,0.678564,-12.74,36.54,-51.555,-1.3515,-1.1685,-1.395,0
05/22/2025 13:41:06.353,0.357948,-0.56974,0.671488,-14.105,38.815,-51.66,-1.347,-1.1925,-1.407,0
05/22/2025 13:41:06.373,0.3477,-0.568032,0.671976,-16.94,40.005,-48.895,-1.335,-1.2255,-1.4175,0
05/22/2025 13:41:06.393,0.356972,-0.587552,0.691252,-13.405,40.075,-45.78,-1.3275,-1.242,-1.3905,0
05/22/2025 13:41:06.413,0.38186,-0.591944,0.720044,-3.5,39.165,-42.525,-1.32,-1.275,-1.4235,0
05/22/2025 13:41:06.433,0.410652,-0.58682,0.754204,4.165,36.085,-39.935,-1.317,-1.275,-1.4505,0
05/22/2025 13:41:06.453,0.433832,-0.574132,0.779092,4.69,27.09,-38.29,-1.2945,-1.29,-1.458,0
05/22/2025 13:41:06.473,0.416508,-0.560224,0.774944,1.19,20.58,-36.89,-1.32,-1.3275,-1.4775,0
05/22/2025 13:41:06.493,0.422364,-0.55876,0.776652,-0.35,13.09,-35.525,-1.3065,-1.317,-1.5,0
05/22/2025 13:41:06.513,0.41358,-0.535092,0.781532,1.75,6.475,-34.02,-1.299,-1.347,-1.503,0
05/22/2025 13:41:06.533,0.419924,-0.542168,0.787144,2.415,0.14,-32.76,-1.2945,-1.3725,-1.5105,0
05/22/2025 13:41:06.553,0.426024,-0.5246,0.79788,2.765,-5.18,-31.64,-1.3095,-1.3725,-1.4955,0
05/22/2025 13:41:06.573,0.42212,-0.487756,0.80276,0.49,-9.73,-31.43,-1.2945,-1.362,-1.4985,0
05/22/2025 13:41:06.593,0.429684,-0.493124,0.782996,-5.145,-13.475,-31.99,-1.299,-1.3695,-1.503,0
05/22/2025 13:41:06.613,0.441152,-0.510204,0.759328,-9.345,-15.295,-32.095,-1.332,-1.3725,-1.518,0
05/22/2025 13:41:06.633,0.44042,-0.504104,0.72956,-10.78,-16.415,-30.485,-1.3575,-1.383,-1.485,0
05/22/2025 13:41:06.653,0.44652,-0.49044,0.684664,-10.115,-16.31,-28.7,-1.3395,-1.3725,-1.488,0
05/22/2025 13:41:06.673,0.4697,-0.487756,0.65758,-4.2,-13.685,-27.195,-1.3395,-1.3725,-1.488,0
05/22/2025 13:41:06.693,0.48678,-0.49532,0.643184,1.75,-10.955,-24.255,-1.3425,-1.3875,-1.485,0
05/22/2025 13:41:06.713,0.507764,-0.499956,0.635864,6.685,-8.05,-21.07,-1.353,-1.413,-1.4925,0
05/22/2025 13:41:06.733,0.524112,-0.4819,0.61976,8.575,-3.5,-15.645,-1.3515,-1.4145,-1.4625,0
05/22/2025 13:41:06.753,0.541192,-0.469456,0.627324,5.39,0.84,-12.6,-1.326,-1.4175,-1.476,0
05/22/2025 13:41:06.773,0.547048,-0.489464,0.639524,-0.77,4.06,-9.52,-1.326,-1.437,-1.473,0
05/22/2025 13:41:06.793,0.526064,-0.486536,0.645624,-3.675,6.615,-5.565,-1.3125,-1.425,-1.491,0
05/22/2025 13:41:06.813,0.511912,-0.469944,0.656604,-5.74,9.87,-1.855,-1.3305,-1.452,-1.488,0
05/22/2025 13:41:06.833,0.51118,-0.509472,0.673928,-8.155,13.405,1.995,-1.3005,-1.452,-1.4865,0
05/22/2025 13:41:06.853,0.495564,-0.50508,0.69784,-3.605,16.66,4.13,-1.29,-1.464,-1.5165,0
05/22/2025 13:41:06.873,0.493612,-0.531676,0.735172,1.855,18.13,6.09,-1.287,-1.452,-1.5285,0
05/22/2025 13:41:06.893,0.473116,-0.498004,0.74542,6.37,19.845,6.965,-1.29,-1.4445,-1.521,0
05/22/2025 13:41:06.913,0.473848,-0.508984,0.72468,1.225,20.09,7.945,-1.2795,-1.467,-1.5435,0
05/22/2025 13:41:06.933,0.484828,-0.509228,0.718092,-3.745,21.35,8.365,-1.2615,-1.4595,-1.5765,0
05/22/2025 13:41:06.953,0.485804,-0.512888,0.715408,-5.775,22.19,8.54,-1.2585,-1.4565,-1.596,0
05/22/2025 13:41:06.973,0.46848,-0.500444,0.72102,-3.64,21.945,8.785,-1.248,-1.4595,-1.611,0
05/22/2025 13:41:06.993,0.45506,-0.53802,0.74176,2.205,21.175,9.345,-1.2555,-1.464,-1.6185,0
05/22/2025 13:41:07.013,0.441396,-0.526796,0.764452,9.975,20.16,9.45,-1.2555,-1.464,-1.6185,0
05/22/2025 13:41:07.033,0.437004,-0.515816,0.772748,14.175,18.305,10.22,-1.2165,-1.449,-1.659,0
05/22/2025 13:41:07.053,0.43432,-0.49532,0.786656,16.59,14.945,10.745,-1.236,-1.4295,-1.6755,0
05/22/2025 13:41:07.073,0.407724,-0.475556,0.802272,15.12,12.39,12.18,-1.224,-1.4295,-1.671,0
05/22/2025 13:41:07.093,0.406016,-0.484096,0.815692,10.185,8.47,13.02,-1.239,-1.4325,-1.6755,0
05/22/2025 13:41:07.113,0.395768,-0.489708,0.816912,8.505,4.585,14.385,-1.221,-1.437,-1.6965,0
05/22/2025 13:41:07.133,0.393816,-0.483364,0.804224,7.56,0.945,15.4,-1.239,-1.4295,-1.6755,0
05/22/2025 13:41:07.153,0.400404,-0.482144,0.781044,6.405,-1.155,16.835,-1.2255,-1.4325,-1.6935,0
05/22/2025 13:41:07.173,0.40992,-0.457256,0.76006,6.02,-1.855,17.36,-1.206,-1.419,-1.674,0
05/22/2025 13:41:07.193,0.404064,-0.475068,0.757864,0.77,-2.275,17.78,-1.215,-1.3995,-1.6965,0
05/22/2025 13:41:07.213,0.4026,-0.526064,0.751276,-3.255,-3.465,17.78,-1.2315,-1.425,-1.674,0
05/22/2025 13:41:07.233,0.390644,-0.527284,0.76372,0.14,-3.29,18.165,-1.2255,-1.407,-1.698,0
05/22/2025 13:41:07.253,0.38064,-0.54046,0.769088,2.275,-4.69,18.55,-1.218,-1.377,-1.674,0
05/22/2025 13:41:07.273,0.381372,-0.538752,0.757376,4.095,-7.21,18.55,-1.218,-1.377,-1.674,0
05/22/2025 13:41:07.293,0.391376,-0.536312,0.753716,3.43,-8.015,18.27,-1.218,-1.377,-1.674,0
05/22/2025 13:41:07.313,0.401624,-0.540948,0.757864,4.305,-7.42,17.675,-1.2165,-1.419,-1.671,0
05/22/2025 13:41:07.333,0.395768,-0.529724,0.761036,3.92,-7.385,16.87,-1.2165,-1.389,-1.656,0
05/22/2025 13:41:07.353,0.396744,-0.539484,0.753716,1.54,-7.21,16.135,-1.2105,-1.389,-1.671,0
05/22/2025 13:41:07.373,0.392596,-0.534116,0.741516,-0.91,-6.51,16.135,-1.2435,-1.38,-1.6635,0
05/22/2025 13:41:07.393,0.393328,-0.533628,0.734684,-2.275,-5.635,16.52,-1.218,-1.3695,-1.674,0
05/22/2025 13:41:07.413,0.393328,-0.5368,0.73566,-1.82,-3.64,16.555,-1.2705,-1.3575,-1.668,0
05/22/2025 13:41:07.433,0.3965,-0.547536,0.735904,-1.575,-1.715,16.485,-1.2615,-1.368,-1.665,0
05/22/2025 13:41:07.453,0.382836,-0.55022,0.731268,0.245,0.525,16.765,-1.2585,-1.3575,-1.6725,0
05/22/2025 13:41:07.473,0.366488,-0.547292,0.727608,0.875,1.68,16.66,-1.2555,-1.353,-1.668,0
05/22/2025 13:41:07.493,0.35014,-0.568032,0.727852,1.33,3.045,17.395,-1.2735,-1.3455,-1.6695,0
05/22/2025 13:41:07.513,0.342088,-0.55632,0.732244,4.69,4.585,18.515,-1.2405,-1.35,-1.656,0
05/22/2025 13:41:07.533,0.339648,-0.553392,0.730048,8.96,6.09,20.125,-1.2585,-1.3155,-1.6455,0
05/22/2025 13:41:07.553,0.343308,-0.551684,0.727852,14.49,6.825,20.44,-1.281,-1.32,-1.6275,0
05/22/2025 13:41:07.573,0.349408,-0.540704,0.74298,21.14,7.805,19.915,-1.284,-1.2855,-1.617,0
05/22/2025 13:41:07.593,0.352092,-0.528748,0.76494,25.725,7.945,18.41,-1.2885,-1.3005,-1.6125,0
05/22/2025 13:41:07.613,0.341356,-0.517036,0.772992,22.89,7.455,16.205,-1.2885,-1.2975,-1.6245,0
05/22/2025 13:41:07.633,0.328424,-0.528748,0.778116,15.96,7.665,12.6,-1.2885,-1.2975,-1.6245,0
05/22/2025 13:41:07.653,0.316956,-0.546316,0.813496,10.885,7.77,8.68,-1.266,-1.263,-1.6125,0
05/22/2025 13:41:07.673,0.312076,-0.585356,0.854244,7.245,6.23,3.5,-1.2945,-1.3005,-1.5975,0
05/22/2025 13:41:07.693,0.313784,-0.587552,0.866932,6.44,2.17,-1.575,-1.2435,-1.2825,-1.6035,0
05/22/2025 13:41:07.713,0.318664,-0.559248,0.824476,3.99,-2.73,-7.175,-1.254,-1.3125,-1.593,0
05/22/2025 13:41:07.733,0.335744,-0.5368,0.796172,-0.455,-5.565,-11.585,-1.2825,-1.308,-1.5675,0
05/22/2025 13:41:07.753,0.344284,-0.51972,0.778604,-3.15,-5.705,-14.035,-1.275,-1.3095,-1.5585,0
05/22/2025 13:41:07.773,0.348188,-0.517036,0.775676,-3.815,-5.635,-15.085,-1.2975,-1.32,-1.5795,0
05/22/2025 13:41:07.793,0.345992,-0.502884,0.759816,-0.385,-4.13,-14.805,-1.275,-1.32,-1.578,0
05/22/2025 13:41:07.813,0.354776,-0.500932,0.75762,3.605,0.35,-13.825,-1.2825,-1.3455,-1.5855,0
05/22/2025 13:41:07.833,0.380884,-0.519476,0.761524,2.905,1.82,-14.21,-1.2525,-1.3515,-1.5585,0
05/22/2025 13:41:07.853,0.402112,-0.54412,0.77104,3.815,1.61,-15.61,-1.2675,-1.3425,-1.566,0
05/22/2025 13:41:07.873,0.40138,-0.541436,0.798368,6.335,0.945,-17.78,-1.278,-1.3575,-1.563,0
05/22/2025 13:41:07.893,0.388692,-0.51606,0.809104,5.81,-0.42,-21.385,-1.293,-1.38,-1.5555,0
05/22/2025 13:41:07.913,0.372588,-0.5063,0.786412,-2.8,-0.49,-25.305,-1.3065,-1.4025,-1.5675,0
05/22/2025 13:41:07.933,0.369416,-0.530456,0.766892,-14.735,1.47,-28.665,-1.269,-1.3995,-1.551,0
05/22/2025 13:41:07.953,0.345992,-0.521916,0.74542,-20.23,5.6,-30.485,-1.263,-1.38,-1.5615,0
05/22/2025 13:41:07.973,0.337452,-0.519476,0.745908,-20.545,8.96,-30.975,-1.2705,-1.3845,-1.5855,0
05/22/2025 13:41:07.993,0.327692,-0.508008,0.745664,-17.15,12.915,-30.625,-1.281,-1.3875,-1.578,0
05/22/2025 13:41:08.013,0.336232,-0.520208,0.754448,-14.21,14.63,-29.68,-1.2885,-1.392,-1.578,0
05/22/2025 13:41:08.033,0.359656,-0.514352,0.770796,-9.835,14.945,-28.56,-1.314,-1.4205,-1.5855,0
05/22/2025 13:41:08.053,0.371856,-0.505568,0.787144,-7.14,14.665,-27.545,-1.2885,-1.437,-1.596,0
05/22/2025 13:41:08.073,0.3904,-0.502152,0.807396,-5.775,13.125,-26.495,-1.308,-1.413,-1.6005,0
05/22/2025 13:41:08.093,0.404796,-0.503372,0.811544,-5.6,10.99,-26.705,-1.2525,-1.4295,-1.6215,0
05/22/2025 13:41:08.113,0.403576,-0.490196,0.815204,-5.6,8.365,-27.09,-1.248,-1.4295,-1.5885,0
05/22/2025 13:41:08.133,0.399672,-0.50264,0.82228,-5.425,5.005,-27.16,-1.227,-1.4265,-1.629,0
05/22/2025 13:41:08.153,0.386008,-0.491904,0.8235,-6.055,1.155,-26.74,-1.2495,-1.4415,-1.629,0
05/22/2025 13:41:08.173,0.38552,-0.474336,0.818132,-7.525,-2.345,-25.69,-1.233,-1.449,-1.617,0
05/22/2025 13:41:08.193,0.39772,-0.46238,0.816668,-8.855,-4.725,-24.36,-1.233,-1.4565,-1.617,0
05/22/2025 13:41:08.213,0.402844,-0.460916,0.8174,-10.64,-6.755,-23.03,-1.2075,-1.4685,-1.617,0
05/22/2025 13:41:08.233,0.421388,-0.452132,0.812764,-15.19,-8.33,-21.49,-1.2075,-1.476,-1.644,0
05/22/2025 13:41:08.253,0.430904,-0.449936,0.806664,-21.175,-10.185,-20.125,-1.2,-1.4715,-1.6275,0
05/22/2025 13:41:08.273,0.43676,-0.467992,0.787632,-25.13,-11.375,-18.725,-1.2045,-1.479,-1.65,0
05/22/2025 13:41:08.293,0.43798,-0.465308,0.76128,-24.115,-12.425,-17.85,-1.2165,-1.479,-1.662,0
05/22/2025 13:41:08.313,0.447008,-0.475556,0.746396,-22.75,-12.53,-17.29,-1.2045,-1.4535,-1.6545,0
05/22/2025 13:41:08.333,0.445056,-0.487268,0.699548,-21.665,-10.64,-16.66,-1.197,-1.464,-1.6695,0
05/22/2025 13:41:08.353,0.453596,-0.504592,0.683932,-21.98,-8.505,-15.82,-1.197,-1.464,-1.6695,0
05/22/2025 13:41:08.373,0.460672,-0.53436,0.688568,-19.775,-5.67,-14.98,-1.1985,-1.4565,-1.704,0
05/22/2025 13:41:08.393,0.460672,-0.518012,0.686372,-17.64,-3.395,-14.315,-1.206,-1.4715,-1.707,0
05/22/2025 13:41:08.413,0.460184,-0.532652,0.6893,-16.38,-1.995,-13.86,-1.206,-1.464,-1.7115,0
05/22/2025 13:41:08.433,0.459452,-0.528016,0.699548,-15.085,-0.245,-12.95,-1.215,-1.422,-1.7085,0
05/22/2025 13:41:08.453,0.469456,-0.523136,0.713212,-16.59,0.7,-12.845,-1.2075,-1.4265,-1.7085,0
05/22/2025 13:41:08.473,0.459696,-0.533628,0.715896,-19.075,1.295,-12.32,-1.2255,-1.4325,-1.713,0
05/22/2025 13:41:08.493,0.459696,-0.529724,0.711748,-19.495,1.575,-11.655,-1.236,-1.4595,-1.701,0
05/22/2025 13:41:08.513,0.46604,-0.540216,0.70638,-18.655,1.575,-10.815,-1.2225,-1.4445,-1.7235,0
05/22/2025 13:41:08.533,0.460916,-0.522648,0.716384,-14.875,2.03,-9.66,-1.23,-1.44,-1.7355,0
05/22/2025 13:41:08.553,0.469212,-0.508008,0.7198,-14.07,1.96,-8.68,-1.218,-1.4295,-1.716,0
05/22/2025 13:41:08.573,0.46604,-0.5185,0.709552,-14.77,2.345,-7.98,-1.203,-1.434,-1.7085,0
05/22/2025 13:41:08.593,0.474824,-0.515328,0.708088,-14.245,2.59,-7.84,-1.2,-1.419,-1.7085,0
05/22/2025 13:41:08.613,0.472628,-0.529968,0.713456,-13.195,2.485,-7.665,-1.2,-1.419,-1.7085,0
05/22/2025 13:41:08.633,0.471164,-0.54046,0.704184,-12.495,1.89,-7.455,-1.2,-1.419,-1.7085,0
05/22/2025 13:41:08.653,0.47214,-0.547536,0.691496,-12.915,1.19,-6.72,-1.212,-1.3845,-1.716,0
05/22/2025 13:41:08.673,0.472872,-0.540216,0.680028,-12.845,0.63,-6.055,-1.2105,-1.3995,-1.701,0
05/22/2025 13:41:08.693,0.470188,-0.552172,0.664412,-11.235,0.63,-5.46,-1.2105,-1.4115,-1.6965,0
05/22/2025 13:41:08.713,0.478728,-0.56974,0.671244,-6.685,1.12,-5.355,-1.188,-1.4115,-1.707,0
05/22/2025 13:41:08.733,0.480924,-0.566812,0.674904,-0.56,1.365,-5.25,-1.2105,-1.4175,-1.7235,0
05/22/2025 13:41:08.753,0.483364,-0.550708,0.684176,2.625,1.435,-4.62,-1.2045,-1.395,-1.7115,0
05/22/2025 13:41:08.773,0.478484,-0.542168,0.67954,0.84,1.785,-4.095,-1.182,-1.3845,-1.7265,0
05/22/2025 13:41:08.793,0.477508,-0.532896,0.678076,-1.225,2.45,-4.9,-1.2105,-1.4295,-1.6935,0
05/22/2025 13:41:08.813,0.482632,-0.538264,0.68564,-2.905,3.71,-5.215,-1.23,-1.4175,-1.7235,0
05/22/2025 13:41:08.833,0.484096,-0.554612,0.690764,-3.465,4.06,-4.97,-1.2225,-1.4295,-1.7235,0
05/22/2025 13:41:08.853,0.479704,-0.543144,0.684176,-1.54,4.375,-4.83,-1.23,-1.425,-1.7235,0
05/22/2025 13:41:08.873,0.472628,-0.540704,0.690276,-1.96,4.095,-4.2,-1.218,-1.4475,-1.7265,0
05/22/2025 13:41:08.893,0.477508,-0.537532,0.691008,-1.785,3.99,-3.78,-1.218,-1.4475,-1.7265,0
05/22/2025 13:41:08.913,0.47824,-0.546316,0.69174,0.175,3.745,-3.43,-1.2075,-1.419,-1.7115,0
05/22/2025 13:41:08.933,0.477508,-0.53192,0.695644,1.4,3.29,-3.395,-1.2555,-1.4025,-1.695,0
05/22/2025 13:41:08.953,0.4758,-0.552416,0.697352,0.98,2.485,-3.01,-1.254,-1.4145,-1.6785,0
05/22/2025 13:41:08.973,0.478972,-0.546316,0.698816,2.59,2.415,-2.415,-1.284,-1.41,-1.692,0
05/22/2025 13:41:08.993,0.471652,-0.544608,0.69784,3.43,2.45,-2.065,-1.269,-1.425,-1.653,0
05/22/2025 13:41:09.013,0.47092,-0.537532,0.696864,3.57,2.59,-1.855,-1.257,-1.425,-1.6485,0
05/22/2025 13:41:09.033,0.476532,-0.53802,0.691496,4.095,2.205,-1.47,-1.257,-1.425,-1.6485,0
05/22/2025 13:41:09.053,0.480436,-0.5368,0.688812,3.78,2.17,-1.015,-1.254,-1.4325,-1.656,0
05/22/2025 13:41:09.073,0.486292,-0.54656,0.686616,4.41,2.38,-0.49,-1.2825,-1.4475,-1.6575,0
05/22/2025 13:41:09.093,0.484828,-0.542412,0.692472,5.985,2.835,-0.035,-1.2495,-1.449,-1.6335,0
05/22/2025 13:41:09.113,0.48068,-0.536312,0.692472,6.3,2.625,0.42,-1.2645,-1.422,-1.638,0
05/22/2025 13:41:09.133,0.479704,-0.54046,0.695644,7.035,2.52,0.84,-1.26,-1.449,-1.611,0
05/22/2025 13:41:09.153,0.474092,-0.527284,0.701988,9.135,2.555,1.68,-1.278,-1.44,-1.6305,0
05/22/2025 13:41:09.173,0.470188,-0.513864,0.713212,10.08,2.24,2.065,-1.2375,-1.4715,-1.6245,0
05/22/2025 13:41:09.193,0.468724,-0.532408,0.719068,9.205,2.415,2.03,-1.2555,-1.464,-1.626,0
05/22/2025 13:41:09.213,0.469456,-0.523624,0.719068,10.395,2.625,2.695,-1.2555,-1.449,-1.626,0
05/22/2025 13:41:09.233,0.462868,-0.523624,0.719312,10.99,2.1,2.87,-1.2585,-1.464,-1.614,0
05/22/2025 13:41:09.253,0.454816,-0.5246,0.721996,11.34,1.75,3.535,-1.2705,-1.4595,-1.638,0
05/22/2025 13:41:09.273,0.45872,-0.514352,0.725168,11.865,1.295,4.165,-1.2525,-1.482,-1.6335,0
05/22/2025 13:41:09.293,0.45994,-0.505568,0.728828,11.235,1.12,4.83,-1.2375,-1.4895,-1.632,0
05/22/2025 13:41:09.313,0.460916,-0.499468,0.728096,10.99,1.47,5.11,-1.2255,-1.467,-1.629,0
05/22/2025 13:41:09.333,0.463844,-0.498492,0.740052,10.815,1.785,5.18,-1.248,-1.494,-1.629,0
05/22/2025 13:41:09.353,0.467016,-0.498492,0.743224,9.24,1.33,5.145,-1.2405,-1.4895,-1.644,0
05/22/2025 13:41:09.373,0.466284,-0.50508,0.747372,7.245,0.7,5.25,-1.263,-1.4595,-1.638,0
05/22/2025 13:41:09.393,0.465064,-0.508984,0.735416,6.055,-0.175,5.775,-1.275,-1.4625,-1.638,0
05/22/2025 13:41:09.413,0.471896,-0.501176,0.73322,5.635,0.245,7.245,-1.245,-1.4865,-1.6485,0
05/22/2025 13:41:09.433,0.4697,-0.504836,0.727608,5.11,-0.105,7.98,-1.245,-1.4865,-1.6485,0
05/22/2025 13:41:09.453,0.461404,-0.492636,0.722972,5.81,-0.245,8.68,-1.2525,-1.4715,-1.6515,0
05/22/2025 13:41:09.473,0.455792,-0.503372,0.720532,7.21,-0.49,9.345,-1.245,-1.4565,-1.6215,0
05/22/2025 13:41:09.493,0.455792,-0.51484,0.740296,10.115,-0.49,10.15,-1.23,-1.467,-1.6365,0
05/22/2025 13:41:09.513,0.44408,-0.504348,0.749324,12.74,-0.105,10.5,-1.2375,-1.4565,-1.6365,0
05/22/2025 13:41:09.533,0.442372,-0.497028,0.752984,13.3,0.07,10.675,-1.245,-1.4715,-1.641,0
05/22/2025 13:41:09.553,0.432368,-0.497272,0.752496,12.32,0.21,10.675,-1.23,-1.467,-1.6485,0
05/22/2025 13:41:09.573,0.43066,-0.477996,0.750788,12.145,0.665,10.64,-1.2225,-1.4745,-1.6365,0
05/22/2025 13:41:09.593,0.426024,-0.478728,0.749812,9.485,0.945,10.01,-1.23,-1.4745,-1.6515,0
05/22/2025 13:41:09.613,0.42822,-0.485072,0.757132,7.175,0.945,9.625,-1.194,-1.479,-1.6575,0
05/22/2025 13:41:09.633,0.433344,-0.482144,0.754936,4.725,0.875,9.1,-1.179,-1.479,-1.6995,0
05/22/2025 13:41:09.653,0.438468,-0.494832,0.746396,1.085,0.525,8.925,-1.1715,-1.4715,-1.692,0
05/22/2025 13:41:09.673,0.443348,-0.51118,0.751276,1.54,0.28,9.45,-1.1715,-1.491,-1.6995,0
05/22/2025 13:41:09.693,0.437736,-0.504836,0.746396,4.41,0.07,10.43,-1.1715,-1.491,-1.6995,0
05/22/2025 13:41:09.713,0.434564,-0.498248,0.749324,5.425,0.14,10.955,-1.191,-1.4745,-1.7145,0
05/22/2025 13:41:09.733,0.438224,-0.49532,0.748836,4.97,0.07,11.445,-1.1805,-1.4595,-1.7415,0
05/22/2025 13:41:09.753,0.433588,-0.488732,0.752008,4.235,-0.35,11.935,-1.173,-1.4685,-1.707,0
05/22/2025 13:41:09.773,0.438468,-0.492636,0.754692,3.395,-0.455,12.355,-1.173,-1.491,-1.7325,0
05/22/2025 13:41:09.793,0.431148,-0.491904,0.758596,2.17,-0.525,12.67,-1.1745,-1.4745,-1.7595,0
05/22/2025 13:41:09.813,0.427488,-0.5063,0.74786,2.03,-0.805,12.985,-1.164,-1.452,-1.7565,0
05/22/2025 13:41:09.833,0.419924,-0.507764,0.745908,3.535,-0.84,13.335,-1.1925,-1.4715,-1.749,0
05/22/2025 13:41:09.853,0.415776,-0.50752,0.755912,5.53,-0.875,13.86,-1.185,-1.4595,-1.761,0
05/22/2025 13:41:09.873,0.412604,-0.504836,0.76128,6.86,-0.945,14.28,-1.2015,-1.4325,-1.7685,0
05/22/2025 13:41:09.893,0.406504,-0.509716,0.7625,7.175,-1.015,14.805,-1.2105,-1.4715,-1.719,0
05/22/2025 13:41:09.913,0.406504,-0.500932,0.75762,7.63,-1.015,15.05,-1.203,-1.449,-1.731,0
05/22/2025 13:41:09.933,0.404552,-0.501176,0.757864,6.195,-1.085,14.98,-1.215,-1.44,-1.7385,0
05/22/2025 13:41:09.953,0.4026,-0.522404,0.772748,5.495,-1.365,14.77,-1.182,-1.434,-1.7535,0
05/22/2025 13:41:09.973,0.396256,-0.510692,0.770796,6.545,-2.52,14.595,-1.203,-1.422,-1.7265,0
05/22/2025 13:41:09.993,0.399184,-0.505812,0.77104,5.705,-3.745,14.455,-1.1955,-1.422,-1.719,0
05/22/2025 13:41:10.013,0.397964,-0.49654,0.765184,5.11,-3.535,14.595,-1.2195,-1.407,-1.731,0
05/22/2025 13:41:10.033,0.401868,-0.489952,0.757864,3.605,-2.31,14.42,-1.215,-1.4175,-1.7355,0
05/22/2025 13:41:10.053,0.399672,-0.491904,0.766648,1.575,-1.365,14.35,-1.2405,-1.4295,-1.74,0
05/22/2025 13:41:10.073,0.398208,-0.511424,0.76006,-0.245,-1.61,14.525,-1.2,-1.4145,-1.7235,0
05/22/2025 13:41:10.093,0.396012,-0.508008,0.770552,-0.63,-1.645,14.945,-1.17,-1.431,-1.707,0
05/22/2025 13:41:10.113,0.38552,-0.533628,0.764452,-1.715,-1.995,15.47,-1.185,-1.419,-1.7415,0
05/22/2025 13:41:10.133,0.384788,-0.529968,0.768356,1.295,-2.905,16.52,-1.1925,-1.389,-1.716,0
05/22/2025 13:41:10.153,0.382836,-0.526308,0.763232,3.36,-3.92,17.325,-1.2105,-1.425,-1.7235,0
05/22/2025 13:41:10.173,0.382104,-0.534116,0.769088,4.2,-5.145,17.57,-1.215,-1.4025,-1.713,0
05/22/2025 13:41:10.193,0.37576,-0.535092,0.764452,4.69,-6.51,17.815,-1.2255,-1.395,-1.701,0
05/22/2025 13:41:10.213,0.367708,-0.539972,0.772748,8.19,-8.05,18.585,-1.2405,-1.4175,-1.7205,0
05/22/2025 13:41:10.233,0.36478,-0.514596,0.770552,7.595,-7.77,18.69,-1.2405,-1.4175,-1.7205,0
05/22/2025 13:41:10.253,0.368684,-0.515328,0.754692,5.565,-6.755,18.865,-1.2405,-1.392,-1.686,0
05/22/2025 13:41:10.273,0.372832,-0.519232,0.756888,6.51,-5.67,19.39,-1.2735,-1.383,-1.68,0
05/22/2025 13:41:10.293,0.376004,-0.52582,0.753716,7.385,-4.165,19.425,-1.2705,-1.3455,-1.68,0
05/22/2025 13:41:10.313,0.3782,-0.528748,0.760792,7.595,-3.465,19.565,-1.299,-1.353,-1.6695,0
05/22/2025 13:41:10.333,0.377712,-0.53802,0.761768,9.135,-3.185,19.425,-1.3065,-1.353,-1.635,0
05/22/2025 13:41:10.353,0.37088,-0.534848,0.7625,9.975,-3.325,19.145,-1.281,-1.353,-1.6425,0
05/22/2025 13:41:10.373,0.36356,-0.530212,0.767868,9.38,-3.43,18.48,-1.266,-1.3305,-1.635,0
05/22/2025 13:41:10.393,0.359412,-0.546804,0.7747,6.51,-3.99,17.43,-1.2675,-1.3575,-1.6005,0
05/22/2025 13:41:10.413,0.35624,-0.545828,0.776896,5.6,-4.585,15.785,-1.2765,-1.335,-1.6125,0
05/22/2025 13:41:10.433,0.350628,-0.542168,0.773236,5.18,-4.62,14.07,-1.2765,-1.335,-1.6125,0
05/22/2025 13:41:10.453,0.340868,-0.55022,0.77226,3.605,-4.62,12.04,-1.2945,-1.305,-1.6095,0
05/22/2025 13:41:10.473,0.342332,-0.557052,0.768112,3.395,-4.725,10.045,-1.2765,-1.3275,-1.605,0
05/22/2025 13:41:10.493,0.33672,-0.554612,0.769332,4.76,-3.99,7,-1.287,-1.32,-1.5975,0
05/22/2025 13:41:10.513,0.344528,-0.549976,0.752252,4.34,-2.66,5.075,-1.3155,-1.3275,-1.575,0
05/22/2025 13:41:10.533,0.356728,-0.54168,0.75274,4.655,-0.7,2.975,-1.272,-1.3395,-1.5705,0
05/22/2025 13:41:10.553,0.37088,-0.542656,0.764696,2.66,1.855,0.455,-1.2705,-1.3395,-1.566,0
05/22/2025 13:41:10.573,0.379176,-0.550952,0.781044,0.07,3.08,-2.835,-1.2975,-1.3425,-1.5825,0
05/22/2025 13:41:10.593,0.38308,-0.545584,0.780556,-3.85,3.08,-6.65,-1.2675,-1.3245,-1.5735,0
05/22/2025 13:41:10.613,0.375272,-0.543632,0.773968,-8.645,3.045,-9.87,-1.3005,-1.32,-1.5675,0
05/22/2025 13:41:10.633,0.361364,-0.534116,0.765184,-14.105,3.15,-12.74,-1.2855,-1.3395,-1.563,0
05/22/2025 13:41:10.653,0.35624,-0.544608,0.761036,-17.22,3.675,-14.315,-1.308,-1.3755,-1.5675,0
05/22/2025 13:41:10.673,0.346724,-0.546072,0.756644,-17.64,3.885,-14.91,-1.2945,-1.368,-1.605,0
05/22/2025 13:41:10.693,0.346724,-0.552416,0.75396,-14.665,3.29,-14.35,-1.272,-1.335,-1.5705,0
05/22/2025 13:41:10.713,0.342088,-0.541192,0.7564,-10.325,2.135,-13.265,-1.26,-1.3275,-1.5705,0
05/22/2025 13:41:10.733,0.33916,-0.533384,0.757132,-4.55,1.785,-11.725,-1.2675,-1.35,-1.5885,0
05/22/2025 13:41:10.753,0.35746,-0.519964,0.777872,1.19,0.875,-9.73,-1.2825,-1.35,-1.59,0
05/22/2025 13:41:10.773,0.37454,-0.509228,0.784704,3.815,0.175,-9.135,-1.2825,-1.35,-1.59,0
05/22/2025 13:41:10.793,0.3843,-0.519476,0.781288,3.185,-0.84,-8.54,-1.287,-1.3605,-1.5975,0
05/22/2025 13:41:10.813,0.391132,-0.526796,0.776652,2.45,-2.205,-8.05,-1.2975,-1.3575,-1.5975,0
05/22/2025 13:41:10.833,0.387472,-0.532896,0.769576,2.765,-3.465,-7.07,-1.275,-1.35,-1.566,0
05/22/2025 13:41:10.853,0.386984,-0.532652,0.759572,2.38,-3.85,-6.545,-1.2975,-1.365,-1.593,0
05/22/2025 13:41:10.873,0.383324,-0.521916,0.762988,2.975,-3.43,-5.985,-1.2705,-1.35,-1.5735,0
05/22/2025 13:41:10.893,0.3843,-0.517036,0.743712,0.42,-2.135,-5.915,-1.245,-1.359,-1.5735,0
05/22/2025 13:41:10.913,0.382348,-0.524844,0.744444,-1.33,-0.77,-5.67,-1.26,-1.3695,-1.5855,0
05/22/2025 13:41:10.933,0.386008,-0.527772,0.745664,-2.625,0.455,-6.16,-1.2675,-1.3695,-1.593,0
05/22/2025 13:41:10.953,0.38552,-0.548268,0.753472,-2.975,0.945,-6.65,-1.245,-1.3695,-1.569,0
05/22/2025 13:41:10.973,0.380396,-0.552172,0.753472,-1.75,1.05,-6.895,-1.2555,-1.377,-1.581,0
05/22/2025 13:41:10.993,0.37576,-0.536556,0.748592,-0.84,1.295,-7.105,-1.224,-1.389,-1.614,0
05/22/2025 13:41:11.013,0.374052,-0.526064,0.7503,-3.115,1.96,-7.63,-1.2375,-1.392,-1.6065,0
05/22/2025 13:41:11.033,0.378444,-0.527772,0.758108,-6.86,3.745,-7.98,-1.2375,-1.392,-1.6065,0
05/22/2025 13:41:11.053,0.381372,-0.519476,0.75396,-8.96,5.285,-8.085,-1.2375,-1.392,-1.6065,0
05/22/2025 13:41:11.073,0.383812,-0.515572,0.746152,-9.59,6.755,-8.085,-1.221,-1.3965,-1.644,0
05/22/2025 13:41:11.093,0.390156,-0.517524,0.757864,-8.61,7.49,-8.015,-1.2105,-1.389,-1.6665,0
05/22/2025 13:41:11.113,0.396256,-0.521916,0.767868,-7.91,7.7,-8.015,-1.188,-1.422,-1.689,0
05/22/2025 13:41:11.133,0.399184,-0.528016,0.756156,-7.84,9.03,-7.525,-1.1925,-1.404,-1.7115,0
05/22/2025 13:41:11.153,0.399916,-0.525576,0.75762,-7.245,10.01,-7.28,-1.2075,-1.3845,-1.7085,0
05/22/2025 13:41:11.173,0.389912,-0.51728,0.755424,-7.56,10.15,-6.72,-1.2,-1.404,-1.719,0
05/22/2025 13:41:11.193,0.384056,-0.516792,0.772992,-9.485,8.995,-5.88,-1.1925,-1.3845,-1.719,0
05/22/2025 13:41:11.213,0.382348,-0.54046,0.748592,-10.115,9.1,-5.39,-1.2015,-1.3575,-1.7235,0
05/22/2025 13:41:11.233,0.38186,-0.514108,0.761036,-7.35,9.065,-4.585,-1.2015,-1.3725,-1.746,0
05/22/2025 13:41:11.253,0.382592,-0.542412,0.765184,-9.66,7.805,-4.76,-1.206,-1.38,-1.761,0
05/22/2025 13:41:11.273,0.373808,-0.535336,0.763964,-9.345,7.21,-4.305,-1.197,-1.3845,-1.7505,0
05/22/2025 13:41:11.293,0.367952,-0.556564,0.760548,-9.205,4.76,-4.62,-1.194,-1.3725,-1.743,0
05/22/2025 13:41:11.313,0.37332,-0.548268,0.761524,-8.505,3.885,-4.445,-1.194,-1.3725,-1.743,0
05/22/2025 13:41:11.333,0.365268,-0.540704,0.7503,-9.275,4.795,-4.34,-1.1655,-1.3695,-1.761,0
05/22/2025 13:41:11.353,0.369416,-0.536556,0.755668,-11.69,5.215,-4.83,-1.1685,-1.347,-1.7385,0
05/22/2025 13:41:11.373,0.35624,-0.559248,0.757132,-13.895,4.9,-5.46,-1.1685,-1.347,-1.7385,0
05/22/2025 13:41:11.393,0.355752,-0.565104,0.761036,-13.16,3.99,-5.81,-1.1865,-1.3575,-1.7385,0
05/22/2025 13:41:11.413,0.353312,-0.569496,0.752008,-13.23,2.73,-5.775,-1.176,-1.332,-1.746,0
05/22/2025 13:41:11.433,0.3599,-0.571692,0.736148,-13.825,1.645,-5.6,-1.191,-1.3275,-1.7505,0
05/22/2025 13:41:11.453,0.368684,-0.57096,0.728096,-13.475,1.05,-5.6,-1.1715,-1.359,-1.749,0
05/22/2025 13:41:11.473,0.371612,-0.5856,0.725656,-12.39,-0.175,-5.32,-1.1535,-1.359,-1.7295,0
05/22/2025 13:41:11.493,0.368684,-0.579744,0.732732,-10.29,-1.155,-5.39,-1.1565,-1.347,-1.7145,0
05/22/2025 13:41:11.513,0.371612,-0.586088,0.73078,-8.33,-2.73,-4.69,-1.1835,-1.35,-1.746,0
05/22/2025 13:41:11.533,0.374052,-0.599508,0.722728,-6.335,-4.305,-4.165,-1.194,-1.347,-1.7385,0
05/22/2025 13:41:11.553,0.380396,-0.577792,0.69906,-2.52,-5.705,-3.71,-1.1715,-1.359,-1.731,0
05/22/2025 13:41:11.573,0.396256,-0.549,0.68442,1.785,-5.145,-2.59,-1.1685,-1.3395,-1.761,0
05/22/2025 13:41:11.593,0.399428,-0.535092,0.7015,1.19,-2.625,-3.045,-1.2285,-1.353,-1.7625,0
05/22/2025 13:41:11.613,0.391132,-0.560956,0.734196,-2.24,0.7,-3.01,-1.2045,-1.3425,-1.7205,0
05/22/2025 13:41:11.633,0.377956,-0.577548,0.74542,-4.375,1.61,-3.85,-1.194,-1.3545,-1.731,0
05/22/2025 13:41:11.653,0.375272,-0.58926,0.740784,-5.53,1.33,-4.235,-1.2165,-1.3545,-1.728,0
05/22/2025 13:41:11.673,0.375516,-0.589992,0.72834,-5.985,0.175,-4.305,-1.245,-1.3275,-1.71,0
05/22/2025 13:41:11.693,0.378688,-0.58072,0.724192,-4.725,-0.7,-3.815,-1.245,-1.335,-1.698,0
05/22/2025 13:41:11.713,0.389424,-0.57706,0.718092,-3.08,-1.05,-3.71,-1.2495,-1.3425,-1.7025,0
05/22/2025 13:41:11.733,0.388204,-0.576084,0.711748,-1.225,-1.015,-3.57,-1.26,-1.335,-1.6995,0
05/22/2025 13:41:11.753,0.391132,-0.579744,0.7198,-0.91,-1.05,-3.255,-1.251,-1.3455,-1.668,0
05/22/2025 13:41:11.773,0.391376,-0.572424,0.724924,0.035,-0.84,-3.045,-1.263,-1.335,-1.6725,0
05/22/2025 13:41:11.793,0.397964,-0.563884,0.712236,-0.175,-0.525,-2.695,-1.266,-1.3425,-1.6455,0
05/22/2025 13:41:11.813,0.39894,-0.554856,0.72224,-0.875,0.805,-2.275,-1.266,-1.323,-1.662,0
05/22/2025 13:41:11.833,0.39528,-0.56364,0.730292,-3.57,1.715,-2.345,-1.266,-1.323,-1.662,0
05/22/2025 13:41:11.853,0.394548,-0.57706,0.715408,-4.27,1.225,-2.31,-1.2735,-1.3275,-1.6575,0
05/22/2025 13:41:11.873,0.400404,-0.586576,0.71004,-3.78,0.805,-2.065,-1.2765,-1.3305,-1.6125,0
05/22/2025 13:41:11.893,0.399428,-0.592432,0.714188,-1.645,0.315,-2.31,-1.254,-1.3575,-1.623,0
05/22/2025 13:41:11.913,0.391132,-0.602436,0.721508,0.21,-0.665,-2.17,-1.266,-1.3275,-1.623,0
05/22/2025 13:41:11.933,0.382104,-0.57706,0.72834,2.135,-1.855,-2.38,-1.2285,-1.3425,-1.614,0
05/22/2025 13:41:11.953,0.386008,-0.585112,0.730292,1.785,-2.905,-2.555,-1.2525,-1.365,-1.584,0
05/22/2025 13:41:11.973,0.383568,-0.569984,0.721508,1.995,-3.36,-3.08,-1.239,-1.3425,-1.6305,0
05/22/2025 13:41:11.993,0.388936,-0.574132,0.723948,2.065,-3.535,-3.325,-1.2465,-1.3575,-1.611,0
05/22/2025 13:41:12.013,0.398208,-0.563152,0.719068,2.8,-3.325,-3.5,-1.2495,-1.362,-1.6185,0
05/22/2025 13:41:12.033,0.406504,-0.563884,0.715896,2.94,-2.765,-3.64,-1.2375,-1.3665,-1.599,0
05/22/2025 13:41:12.053,0.406992,-0.570472,0.724924,2.03,-2.24,-3.815,-1.2525,-1.38,-1.611,0
05/22/2025 13:41:12.073,0.410652,-0.558516,0.725656,1.015,-2.275,-3.99,-1.2615,-1.3545,-1.6185,0
05/22/2025 13:41:12.093,0.413824,-0.568032,0.717604,0.77,-2.73,-4.27,-1.2345,-1.365,-1.614,0
05/22/2025 13:41:12.113,0.418948,-0.56852,0.718336,0.84,-3.29,-4.445,-1.2345,-1.365,-1.614,0
05/22/2025 13:41:12.133,0.416508,-0.57462,0.720532,0.77,-3.22,-4.375,-1.272,-1.362,-1.596,0
05/22/2025 13:41:12.153,0.422364,-0.57096,0.72712,0.245,-3.22,-4.445,-1.257,-1.377,-1.623,0
05/22/2025 13:41:12.173,0.42456,-0.560956,0.732976,-1.89,-2.8,-4.2,-1.2645,-1.3695,-1.6185,0
05/22/2025 13:41:12.193,0.457256,-0.539484,0.742492,-7.245,-1.26,-2.66,-1.254,-1.362,-1.611,0
05/22/2025 13:41:12.213,0.464332,-0.490196,0.754448,-17.36,2.485,-1.575,-1.242,-1.3695,-1.614,0
05/22/2025 13:41:12.233,0.510204,-0.520208,0.754936,-34.755,7.595,-0.525,-1.245,-1.362,-1.584,0
05/22/2025 13:41:12.253,0.525576,-0.546804,0.728828,-50.855,14.105,0.35,-1.239,-1.3275,-1.6035,0
05/22/2025 13:41:12.273,0.55266,-0.558516,0.68564,-69.755,17.99,0.56,-1.224,-1.332,-1.614,0
05/22/2025 13:41:12.293,0.550952,-0.629032,0.623664,-83.965,20.58,1.26,-1.203,-1.299,-1.6215,0
05/22/2025 13:41:12.313,0.554856,-0.63196,0.586332,-84.385,24.36,3.92,-1.2,-1.272,-1.6065,0
05/22/2025 13:41:12.333,0.55144,-0.555344,0.505568,-84.245,26.355,6.755,-1.1895,-1.2645,-1.626,0
05/22/2025 13:41:12.353,0.533628,-0.5856,0.445056,-95.27,22.365,7,-1.1745,-1.227,-1.614,0
05/22/2025 13:41:12.373,0.504592,-0.682224,0.421632,-85.68,18.445,7.945,-1.1745,-1.227,-1.614,0
05/22/2025 13:41:12.393,0.477752,-0.64294,0.446764,-63.595,16.765,4.13,-1.1745,-1.227,-1.614,0
05/22/2025 13:41:12.413,0.45018,-0.654896,0.472872,-51.975,11.305,-1.435,-1.095,-1.1385,-1.6155,0
05/22/2025 13:41:12.433,0.436028,-0.630252,0.49288,-44.485,5.915,-7.98,-1.059,-1.104,-1.6425,0
05/22/2025 13:41:12.453,0.433832,-0.632204,0.485316,-43.855,1.785,-14.525,-1.0815,-1.074,-1.6395,0
05/22/2025 13:41:12.473,0.410896,-0.641964,0.483852,-47.6,-1.26,-21.07,-1.0665,-1.0935,-1.6425,0
05/22/2025 13:41:12.493,0.406748,-0.654896,0.482144,-52.115,-4.69,-28.455,-1.074,-1.086,-1.6425,0
05/22/2025 13:41:12.513,0.396256,-0.64294,0.479704,-54.25,-8.75,-36.295,-1.044,-1.071,-1.6335,0
05/22/2025 13:41:12.533,0.399916,-0.6771,0.458232,-56.735,-13.79,-44.415,-1.056,-1.0815,-1.65,0
05/22/2025 13:41:12.553,0.408944,-0.675636,0.429928,-56.595,-19.145,-52.71,-1.0815,-1.0485,-1.605,0
05/22/2025 13:41:12.573,0.431148,-0.684908,0.398452,-54.355,-24.22,-61.215,-1.077,-1.074,-1.6275,0
05/22/2025 13:41:12.593,0.44652,-0.691496,0.382836,-49.595,-27.055,-67.375,-1.095,-1.0515,-1.587,0
05/22/2025 13:41:12.613,0.486536,-0.688812,0.374052,-44.03,-28.105,-72.275,-1.0875,-1.089,-1.59,0
05/22/2025 13:41:12.633,0.540704,-0.736392,0.350628,-36.925,-27.79,-77.595,-1.143,-1.0995,-1.602,0
05/22/2025 13:41:12.653,0.576816,-0.734196,0.35746,-33.11,-27.405,-81.9,-1.143,-1.0995,-1.602,0
05/22/2025 13:41:12.673,0.622688,-0.724924,0.342576,-31.08,-28.385,-86.03,-1.164,-1.1145,-1.5465,0
05/22/2025 13:41:12.693,0.642696,-0.710528,0.354288,-28.14,-26.53,-88.34,-1.1625,-1.152,-1.53,0
05/22/2025 13:41:12.713,0.673684,-0.702232,0.349164,-30.87,-24.605,-89.705,-1.206,-1.167,-1.509,0
05/22/2025 13:41:12.733,0.698328,-0.70638,0.336964,-35.63,-21.175,-91.35,-1.1835,-1.1895,-1.497,0
05/22/2025 13:41:12.753,0.711992,-0.692716,0.340868,-40.495,-16.205,-92.575,-1.2075,-1.212,-1.467,0
05/22/2025 13:41:12.773,0.734196,-0.691252,0.326472,-46.76,-9.38,-93.03,-1.2075,-1.212,-1.467,0
05/22/2025 13:41:12.793,0.748836,-0.687348,0.31354,-50.12,-2.065,-92.54,-1.2375,-1.2165,-1.464,0
05/22/2025 13:41:12.813,0.768356,-0.676368,0.287432,-54.74,6.44,-90.545,-1.2435,-1.2195,-1.449,0
05/22/2025 13:41:12.833,0.791048,-0.70028,0.283284,-61.495,16.905,-86.73,-1.2405,-1.239,-1.4595,0
05/22/2025 13:41:12.853,0.797148,-0.701744,0.28914,-68.635,27.02,-82.215,-1.2615,-1.272,-1.4415,0
05/22/2025 13:41:12.873,0.793732,-0.682712,0.295728,-75.46,32.69,-77.7,-1.1985,-1.2915,-1.4505,0
05/22/2025 13:41:12.893,0.798856,-0.665144,0.281332,-84.63,33.145,-71.435,-1.203,-1.3035,-1.4655,0
05/22/2025 13:41:12.913,0.782264,-0.710284,0.239608,-99.015,33.25,-63.84,-1.1955,-1.326,-1.488,0
05/22/2025 13:41:12.933,0.772748,-0.722728,0.24278,-102.025,34.09,-59.36,-1.1655,-1.341,-1.488,0
05/22/2025 13:41:12.953,0.761524,-0.717604,0.226676,-98.7,35.035,-55.58,-1.1655,-1.323,-1.4985,0
05/22/2025 13:41:12.973,0.749568,-0.728828,0.231068,-89.95,34.265,-50.505,-1.1625,-1.3305,-1.4955,0
05/22/2025 13:41:12.993,0.745176,-0.7442,0.224968,-78.33,32.97,-46.34,-1.1355,-1.35,-1.494,0
05/22/2025 13:41:13.013,0.7564,-0.738344,0.199836,-63.35,31.22,-42.805,-1.125,-1.3725,-1.5015,0
05/22/2025 13:41:13.033,0.776652,-0.697596,0.221308,-48.825,31.745,-37.765,-1.128,-1.395,-1.497,0
05/22/2025 13:41:13.053,0.787144,-0.681736,0.230092,-43.855,32.375,-31.255,-1.1025,-1.38,-1.5,0
05/22/2025 13:41:13.073,0.809104,-0.660264,0.233996,-46.165,31.815,-23.695,-1.1055,-1.3845,-1.485,0
05/22/2025 13:41:13.093,0.822036,-0.646844,0.227408,-51.415,31.255,-15.575,-1.101,-1.407,-1.4745,0
05/22/2025 13:41:13.113,0.810568,-0.6405,0.230336,-56.35,32.2,-6.51,-1.098,-1.362,-1.4745,0
05/22/2025 13:41:13.133,0.796172,-0.623664,0.223016,-59.78,31.92,2.38,-1.0575,-1.377,-1.4835,0
05/22/2025 13:41:13.153,0.784948,-0.5917,0.21472,-60.935,30.065,9.275,-1.08,-1.347,-1.47,0
05/22/2025 13:41:13.173,0.769332,-0.562176,0.1952,-59.045,25.69,13.125,-1.032,-1.344,-1.503,0
05/22/2025 13:41:13.193,0.75762,-0.5551,0.187636,-54.6,21.21,11.305,-1.032,-1.344,-1.503,0
05/22/2025 13:41:13.213,0.73566,-0.548512,0.18178,-47.74,16.485,7.665,-1.014,-1.281,-1.449,0
05/22/2025 13:41:13.233,0.724192,-0.54168,0.182024,-40.915,12.11,3.535,-1.0395,-1.257,-1.428,0
05/22/2025 13:41:13.253,0.721508,-0.545828,0.169824,-33.845,8.33,-0.63,-1.0365,-1.227,-1.431,0
05/22/2025 13:41:13.273,0.738344,-0.554368,0.186416,-26.425,5.67,-4.445,-1.0245,-1.227,-1.431,0
05/22/2025 13:41:13.293,0.74054,-0.559736,0.203984,-22.4,3.15,-7.84,-0.9915,-1.236,-1.434,0
05/22/2025 13:41:13.313,0.765672,-0.581696,0.207156,-20.265,0.91,-10.115,-1.0065,-1.221,-1.434,0
05/22/2025 13:41:13.333,0.789584,-0.584136,0.212036,-19.46,0.385,-11.06,-0.999,-1.2435,-1.4265,0
05/22/2025 13:41:13.353,0.81984,-0.604388,0.225212,-22.05,1.715,-11.165,-1.0065,-1.2285,-1.431,0
05/22/2025 13:41:13.373,0.838628,-0.614148,0.225456,-26.04,3.43,-10.465,-0.996,-1.221,-1.434,0
05/22/2025 13:41:13.393,0.85278,-0.627812,0.232288,-29.015,3.85,-10.01,-1.0095,-1.212,-1.428,0
05/22/2025 13:41:13.413,0.858392,-0.650748,0.236436,-29.015,3.185,-9.66,-0.996,-1.209,-1.4265,0
05/22/2025 13:41:13.433,0.845948,-0.646844,0.248636,-24.85,1.89,-8.75,-0.984,-1.2135,-1.422,0
05/22/2025 13:41:13.453,0.838872,-0.629032,0.251808,-18.2,-0.98,-6.055,-0.984,-1.2135,-1.422,0
05/22/2025 13:41:13.473,0.829112,-0.622932,0.268888,-14.42,-1.785,-3.395,-0.984,-1.2135,-1.422,0
05/22/2025 13:41:13.493,0.820328,-0.607316,0.2623,-9.905,-2.625,-1.225,-0.981,-1.2135,-1.434,0
05/22/2025 13:41:13.513,0.811544,-0.591944,0.28304,-4.27,-1.575,0.245,-0.972,-1.2405,-1.422,0
05/22/2025 13:41:13.533,0.806908,-0.583404,0.278648,-1.855,-0.77,-0.035,-0.984,-1.2135,-1.419,0
05/22/2025 13:41:13.553,0.80886,-0.561932,0.280356,0.42,-0.315,-1.54,-0.984,-1.1985,-1.4235,0
05/22/2025 13:41:13.573,0.809104,-0.569496,0.268888,0.56,0.805,-3.255,-1.0005,-1.1715,-1.431,0
05/22/2025 13:41:13.593,0.807152,-0.568276,0.256688,1.295,1.505,-5.18,-1.0035,-1.137,-1.416,0
05/22/2025 13:41:13.613,0.805444,-0.566812,0.240828,2.555,3.325,-6.685,-0.996,-1.1445,-1.4205,0
05/22/2025 13:41:13.633,0.799344,-0.575108,0.23058,3.36,5.355,-7.805,-1.011,-1.119,-1.4205,0
05/22/2025 13:41:13.653,0.79788,-0.58194,0.216184,3.605,7.175,-8.085,-1.0455,-1.11,-1.437,0
05/22/2025 13:41:13.673,0.788608,-0.5795,0.20496,3.71,9.24,-7.28,-0.9975,-1.092,-1.431,0
05/22/2025 13:41:13.693,0.780068,-0.565592,0.170556,1.89,10.535,-5.6,-1.0125,-1.0845,-1.4205,0
05/22/2025 13:41:13.713,0.78568,-0.572668,0.169824,-1.785,15.26,-2.17,-1.0095,-1.047,-1.4355,0
05/22/2025 13:41:13.733,0.810324,-0.583648,0.160796,-6.86,15.645,-0.665,-1.0095,-1.047,-1.4355,0
05/22/2025 13:41:13.753,0.823012,-0.57584,0.134688,-7.77,14.315,-0.315,-1.0095,-1.047,-1.455,0
05/22/2025 13:41:13.773,0.828136,-0.57218,0.114436,-8.925,12.775,0.07,-1.0005,-1.0125,-1.467,0
05/22/2025 13:41:13.793,0.82472,-0.565104,0.101504,-11.13,11.375,0.525,-1.0065,-1.02,-1.455,0
05/22/2025 13:41:13.813,0.811056,-0.575596,0.10736,-13.72,9.66,1.47,-1.008,-1.0125,-1.497,0
05/22/2025 13:41:13.833,0.802028,-0.581208,0.112484,-14.42,6.37,2.345,-1.0035,-1.02,-1.482,0
05/22/2025 13:41:13.853,0.797392,-0.588528,0.106384,-11.62,2.52,2.905,-0.9975,-0.9975,-1.5165,0
05/22/2025 13:41:13.873,0.802028,-0.576084,0.099308,-6.44,-1.68,3.01,-1.005,-0.978,-1.497,0
05/22/2025 13:41:13.893,0.804712,-0.567788,0.10126,-0.63,-5.25,2.975,-0.987,-0.96,-1.512,0
05/22/2025 13:41:13.913,0.806908,-0.55998,0.102236,2.905,-8.33,2.835,-1.0005,-0.9975,-1.4925,0
05/22/2025 13:41:13.933,0.814228,-0.548268,0.115168,4.48,-10.465,2.73,-0.9945,-1.008,-1.5225,0
05/22/2025 13:41:13.953,0.805444,-0.543632,0.11468,4.585,-11.97,2.415,-1.0005,-1.0425,-1.515,0
05/22/2025 13:41:13.973,0.803492,-0.526796,0.10736,4.62,-13.09,1.54,-0.978,-1.035,-1.515,0
05/22/2025 13:41:13.993,0.80276,-0.546316,0.116876,3.675,-13.16,0.28,-1.0095,-1.0425,-1.539,0
05/22/2025 13:41:14.013,0.823988,-0.540704,0.125172,4.165,-13.37,-1.015,-1.0155,-1.0275,-1.524,0
05/22/2025 13:41:14.033,0.834724,-0.549488,0.13298,5.32,-13.265,-1.995,-1.0155,-1.0275,-1.494,0
05/22/2025 13:41:14.053,0.845948,-0.541924,0.130784,5.495,-13.405,-2.38,-1.0245,-1.0185,-1.536,0
05/22/2025 13:41:14.073,0.853268,-0.553636,0.134444,4.48,-13.265,-1.645,-1.026,-1.0605,-1.5165,0
05/22/2025 13:41:14.093,0.854244,-0.545828,0.13176,3.605,-12.985,-0.35,-1.008,-1.05,-1.5075,0
05/22/2025 13:41:14.113,0.852536,-0.535336,0.12932,2.975,-12.6,0.945,-1.0335,-1.0455,-1.494,0
05/22/2025 13:41:14.133,0.863516,-0.540704,0.131028,1.645,-11.48,1.26,-1.0485,-1.0575,-1.506,0
05/22/2025 13:41:14.153,0.864492,-0.53436,0.127612,2.17,-11.2,0.35,-1.0665,-1.0305,-1.491,0
05/22/2025 13:41:14.173,0.866688,-0.527284,0.120048,2.87,-10.85,-1.085,-1.0155,-1.023,-1.5015,0
05/22/2025 13:41:14.193,0.868884,-0.537044,0.122,2.73,-10.5,-2.485,-1.0155,-1.023,-1.5015,0
05/22/2025 13:41:14.213,0.866932,-0.538752,0.121756,2.8,-10.465,-3.465,-1.074,-1.0035,-1.4805,0
05/22/2025 13:41:14.233,0.850828,-0.54168,0.124684,3.43,-10.745,-3.85,-1.059,-1.023,-1.4835,0
05/22/2025 13:41:14.253,0.848144,-0.541192,0.117364,5.95,-11.69,-4.48,-1.044,-1.068,-1.4865,0
05/22/2025 13:41:14.273,0.844484,-0.540948,0.118828,9.1,-12.005,-5.565,-1.062,-1.113,-1.4895,0
05/22/2025 13:41:14.293,0.846192,-0.536312,0.12322,11.935,-12.11,-6.93,-1.0245,-1.1145,-1.4775,0
05/22/2025 13:41:14.313,0.845216,-0.548268,0.128344,13.825,-11.445,-8.12,-1.065,-1.1175,-1.4985,0
05/22/2025 13:41:14.333,0.85522,-0.557052,0.124196,15.785,-10.325,-8.645,-1.0425,-1.1595,-1.467,0
05/22/2025 13:41:14.353,0.85766,-0.548024,0.12322,18.48,-8.435,-8.89,-1.0305,-1.1475,-1.47,0
05/22/2025 13:41:14.373,0.866444,-0.548268,0.114924,20.545,-5.46,-8.855,-1.0665,-1.2,-1.455,0
05/22/2025 13:41:14.393,0.898896,-0.545096,0.112484,20.86,-1.68,-9.1,-1.011,-1.242,-1.4685,0
05/22/2025 13:41:14.413,0.934764,-0.559248,0.11224,19.145,2.17,-10.185,-1.0365,-1.2615,-1.4535,0
05/22/2025 13:41:14.433,0.953796,-0.542412,0.102236,18.025,5.075,-11.55,-1.044,-1.254,-1.4475,0
05/22/2025 13:41:14.453,0.928908,-0.536556,0.0915,13.825,9.135,-12.53,-1.044,-1.269,-1.458,0
05/22/2025 13:41:14.473,0.910364,-0.53924,0.092232,7.805,11.2,-11.97,-1.0455,-1.2795,-1.431,0
05/22/2025 13:41:14.493,0.897188,-0.545828,0.09076799,2.835,12.285,-9.59,-1.0395,-1.2645,-1.443,0
05/22/2025 13:41:14.513,0.904996,-0.532652,0.0793,-0.84,14.42,-5.145,-1.0155,-1.2915,-1.4235,0
05/22/2025 13:41:14.533,0.935496,-0.511668,0.059292,-3.325,15.225,-3.01,-1.0155,-1.2915,-1.4235,0
05/22/2025 13:41:14.553,0.961848,-0.498492,0.060268,-7.14,16.975,-2.31,-1.0305,-1.3065,-1.419,0
05/22/2025 13:41:14.573,0.9577,-0.466528,0.058072,-11.585,18.06,-2.94,-1.023,-1.3065,-1.431,0
05/22/2025 13:41:14.593,0.940132,-0.445788,0.050508,-18.095,17.185,-3.115,-1.011,-1.296,-1.3995,0
05/22/2025 13:41:14.613,0.904752,-0.439688,0.049044,-25.165,16.485,-2.345,-1.008,-1.3035,-1.4115,0
05/22/2025 13:41:14.633,0.865956,-0.434076,0.049532,-29.33,15.33,-0.84,-0.993,-1.263,-1.3995,0
05/22/2025 13:41:14.653,0.834724,-0.428708,0.051728,-28.105,14.035,0.245,-0.9945,-1.266,-1.407,0
05/22/2025 13:41:14.673,0.831796,-0.422852,0.061244,-22.925,12.635,0.14,-0.984,-1.2315,-1.4145,0
05/22/2025 13:41:14.693,0.846924,-0.409188,0.061244,-16.66,12.005,-1.82,-0.972,-1.2285,-1.3995,0
05/22/2025 13:41:14.713,0.874008,-0.404308,0.066856,-10.675,11.06,-5.74,-0.9615,-1.2435,-1.4025,0
05/22/2025 13:41:14.733,0.895724,-0.381128,0.068808,-6.93,12.285,-9.765,-0.987,-1.2435,-1.4145,0
05/22/2025 13:41:14.753,0.928908,-0.36722,0.107848,-8.12,14.315,-12.985,-0.969,-1.236,-1.4025,0
05/22/2025 13:41:14.773,0.929396,-0.393816,0.115412,-20.335,17.71,-14.07,-0.9765,-1.206,-1.4385,0
05/22/2025 13:41:14.793,0.928664,-0.379176,0.10736,-32.9,20.72,-15.855,-0.9765,-1.206,-1.4385,0
05/22/2025 13:41:14.813,0.934764,-0.389912,0.10492,-38.78,22.295,-15.925,-0.9615,-1.203,-1.422,0
05/22/2025 13:41:14.833,0.927688,-0.384544,0.110776,-42.175,23.73,-16.345,-0.972,-1.2255,-1.4115,0
05/22/2025 13:41:14.853,0.916952,-0.402844,0.11224,-45.78,24.78,-16.94,-0.939,-1.2675,-1.4325,0
05/22/2025 13:41:14.873,0.897432,-0.400648,0.138592,-45.885,24.99,-17.395,-0.9435,-1.233,-1.4145,0
05/22/2025 13:41:14.893,0.883524,-0.417728,0.172508,-46.865,24.01,-18.165,-0.933,-1.1955,-1.437,0
05/22/2025 13:41:14.913,0.892064,-0.434564,0.178608,-46.27,21.035,-19.215,-0.9405,-1.191,-1.4565,0
05/22/2025 13:41:14.933,0.899384,-0.439444,0.20496,-42.175,19.565,-21.525,-0.9195,-1.158,-1.4475,0
05/22/2025 13:41:14.953,0.922076,-0.447008,0.241072,-40.355,17.465,-22.925,-0.9495,-1.146,-1.452,0
05/22/2025 13:41:14.973,0.905728,-0.450424,0.259128,-39.515,16.52,-22.33,-0.9315,-1.116,-1.4595,0
05/22/2025 13:41:14.993,0.886208,-0.483608,0.263276,-40.285,17.57,-21.805,-0.927,-1.113,-1.434,0
05/22/2025 13:41:15.013,0.873276,-0.504836,0.265472,-42.14,20.51,-20.37,-0.924,-1.071,-1.452,0
05/22/2025 13:41:15.033,0.855708,-0.48312,0.276696,-44.975,24.99,-17.92,-0.9465,-1.071,-1.4565,0
05/22/2025 13:41:15.053,0.82594,-0.51118,0.284504,-52.675,30.45,-13.37,-0.9285,-1.0335,-1.4415,0
05/22/2025 13:41:15.073,0.825696,-0.520208,0.265472,-52.99,32.165,-11.725,-0.9285,-1.0335,-1.4415,0
05/22/2025 13:41:15.093,0.804468,-0.507764,0.247416,-50.19,34.02,-10.78,-0.9795,-0.93,-1.4595,0
05/22/2025 13:41:15.113,0.792024,-0.491904,0.256444,-47.81,35.245,-11.55,-0.9465,-0.897,-1.4805,0
05/22/2025 13:41:15.133,0.781776,-0.536556,0.231068,-46.83,33.88,-13.475,-0.936,-0.9075,-1.4805,0
05/22/2025 13:41:15.153,0.778848,-0.518256,0.233752,-40.285,31.325,-16.625,-0.936,-0.9075,-1.4805,0
05/22/2025 13:41:15.173,0.769088,-0.530456,0.24278,-36.12,28.455,-21.14,-0.9465,-0.8775,-1.47,0
05/22/2025 13:41:15.193,0.781044,-0.552904,0.221308,-33.285,22.365,-24.71,-0.9405,-0.852,-1.4895,0
05/22/2025 13:41:15.213,0.786412,-0.492636,0.207644,-26.425,19.18,-26.285,-0.921,-0.855,-1.4805,0
05/22/2025 13:41:15.233,0.811056,-0.499224,0.197396,-23.835,17.745,-25.76,-0.9375,-0.843,-1.497,0
05/22/2025 13:41:15.253,0.83692,-0.515084,0.208132,-22.995,17.5,-23.1,-0.9255,-0.8625,-1.485,0
05/22/2025 13:41:15.273,0.846924,-0.528016,0.197396,-26.005,17.15,-19.25,-0.945,-0.858,-1.5,0
05/22/2025 13:41:15.293,0.855952,-0.521672,0.196176,-29.75,17.36,-14.035,-0.963,-0.8625,-1.497,0
05/22/2025 13:41:15.313,0.851804,-0.53436,0.201056,-34.405,17.99,-8.435,-0.9375,-0.882,-1.515,0
05/22/2025 13:41:15.333,0.85278,-0.52826,0.21106,-38.465,14.49,-0.21,-0.9225,-0.855,-1.5105,0
05/22/2025 13:41:15.353,0.8479,-0.52338,0.196664,-39.2,10.815,4.48,-0.933,-0.8475,-1.5075,0
05/22/2025 13:41:15.373,0.841556,-0.516792,0.18422,-37.205,7.665,7.805,-0.915,-0.8295,-1.4955,0
05/22/2025 13:41:15.393,0.833748,-0.497272,0.190808,-32.935,5.915,10.43,-0.945,-0.825,-1.4895,0
05/22/2025 13:41:15.413,0.836188,-0.485316,0.194712,-30.45,4.69,12.18,-0.9345,-0.8055,-1.497,0
05/22/2025 13:41:15.433,0.83204,-0.48434,0.206668,-25.865,3.99,12.845,-0.9345,-0.81,-1.5045,0
05/22/2025 13:41:15.453,0.839116,-0.45872,0.212768,-23.835,2.45,12.11,-0.93,-0.81,-1.497,0
05/22/2025 13:41:15.473,0.842288,-0.452864,0.214476,-25.34,-0.21,9.835,-0.915,-0.792,-1.4805,0
05/22/2025 13:41:15.493,0.837652,-0.474336,0.21716,-26.425,-3.08,6.93,-0.897,-0.7575,-1.4655,0
05/22/2025 13:41:15.513,0.856928,-0.465064,0.23302,-23.94,-6.475,2.765,-0.912,-0.72,-1.47,0
05/22/2025 13:41:15.533,0.866444,-0.476532,0.238144,-21.525,-9.66,-2.31,-0.9165,-0.72,-1.455,0
05/22/2025 13:41:15.553,0.889868,-0.488976,0.256688,-18.235,-12.25,-6.86,-0.9,-0.75,-1.4625,0
05/22/2025 13:41:15.573,0.903776,-0.501664,0.264984,-15.015,-13.79,-10.01,-0.9045,-0.747,-1.458,0
05/22/2025 13:41:15.593,0.893772,-0.514596,0.250588,-9.94,-13.44,-10.22,-0.9225,-0.7845,-1.4505,0
