BLE Address: 842B55B99BD400
time	ax	ay	az	gx	gy	gz	mx	my	mz

06/19/2025 13:44:34.157	0.886452	0.265716	-0.00244	5.565	-13.79	21.315	-0.7185	-1.257	0.0375
06/19/2025 13:44:34.177	0.914512	0.284748	0.001708	1.96	-18.235	26.495	-0.714	-1.254	0.0525
06/19/2025 13:44:34.197	0.933788	0.300364	0.002196	-3.885	-21.175	31.36	-0.7185	-1.254	0.0525
06/19/2025 13:44:34.217	0.955992	0.294996	0.003172	-10.08	-23.835	35.56	-0.7215	-1.2375	0.0645
06/19/2025 13:44:34.237	0.949648	0.276208	-0.007564	-14.28	-24.535	37.555	-0.717	-1.221	0.0675
06/19/2025 13:44:34.257	0.932324	0.259616	-0.019276	-14.245	-24.185	37.24	-0.7215	-1.2075	0.072
06/19/2025 13:44:34.277	0.926956	0.238876	-0.028304	-10.15	-23.905	35.105	-0.7035	-1.1955	0.057
06/19/2025 13:44:34.297	0.928176	0.240584	-0.02318	-3.885	-23.555	32.76	-0.687	-1.173	0.066
06/19/2025 13:44:34.317	0.925248	0.258152	-0.017324	1.19	-22.26	30.905	-0.681	-1.1685	0.096
06/19/2025 13:44:34.337	0.951356	0.272792	-0.011224	1.82	-22.365	30.765	-0.6675	-1.1595	0.0855
06/19/2025 13:44:34.357	0.96746	0.281576	-0.010736	-1.015	-21.805	31.605	-0.642	-1.155	0.0795
06/19/2025 13:44:34.377	0.977708	0.268644	-0.015372	-4.13	-20.65	32.375	-0.6405	-1.11	0.093
06/19/2025 13:44:34.397	0.965508	0.244	-0.033916	-4.305	-19.005	31.43	-0.627	-1.089	0.1005
06/19/2025 13:44:34.417	0.927932	0.198616	-0.055876	3.745	-16.45	26.425	-0.627	-1.089	0.1005
06/19/2025 13:44:34.437	0.898164	0.212768	-0.056364	10.36	-16.275	22.925	-0.6045	-1.0635	0.096
06/19/2025 13:44:34.457	0.93574	0.234728	-0.048312	13.265	-18.62	21.07	-0.5745	-1.0485	0.0915
06/19/2025 13:44:34.477	0.952088	0.247172	-0.027816	13.685	-18.27	20.86	-0.57	-1.0485	0.108
06/19/2025 13:44:34.497	0.971364	0.256688	-0.032208	6.86	-20.44	22.4	-0.555	-1.0455	0.093
06/19/2025 13:44:34.517	0.952088	0.242292	-0.042944	-0.77	-20.265	23.555	-0.555	-1.0455	0.1125
06/19/2025 13:44:34.537	0.925492	0.207644	-0.059292	-6.195	-19.775	23.03	-0.549	-1.0455	0.1035
06/19/2025 13:44:34.557	0.900848	0.192516	-0.07564	-6.58	-19.285	20.37	-0.528	-1.026	0.1155
06/19/2025 13:44:34.577	0.897188	0.171288	-0.07905599	-4.375	-19.775	16.8	-0.543	-1.0155	0.093
06/19/2025 13:44:34.597	0.89304	0.159576	-0.07442	1.225	-18.41	12.915	-0.54	-1.02	0.111
06/19/2025 13:44:34.617	0.953796	0.188856	-0.05856	4.375	-21.35	11.06	-0.5235	-1.0065	0.093
06/19/2025 13:44:34.637	0.969412	0.20008	-0.063196	2.45	-19.46	10.255	-0.5055	-1.0185	0.1185
06/19/2025 13:44:34.657	0.972584	0.178364	-0.0854	-0.875	-15.96	9.415	-0.51	-1.032	0.099
06/19/2025 13:44:34.677	0.978684	0.156648	-0.115656	-3.255	-12.915	8.575	-0.4995	-1.0425	0.111
06/19/2025 13:44:34.697	0.982832	0.122732	-0.12932	0.49	-7.91	6.615	-0.4995	-1.0425	0.111
06/19/2025 13:44:34.717	0.96136	0.103212	-0.138592	8.365	-4.76	4.06	-0.507	-1.038	0.099
06/19/2025 13:44:34.737	0.984052	0.10614	-0.141276	16.765	-5.74	2.31	-0.51	-1.0215	0.096
06/19/2025 13:44:34.757	0.998936	0.112728	-0.145668	23.065	-5.67	0.56	-0.498	-1.0185	0.0915
06/19/2025 13:44:34.777	1.01138	0.108092	-0.147864	26.425	-5.67	-0.805	-0.5055	-1.017	0.1065
06/19/2025 13:44:34.797	1.015772	0.112972	-0.159088	27.02	-5.81	-1.575	-0.4815	-1.017	0.102
06/19/2025 13:44:34.817	1.017724	0.1037	-0.160796	25.62	-6.16	-1.61	-0.4845	-1.017	0.108
06/19/2025 13:44:34.837	1.020896	0.103456	-0.163236	22.435	-6.86	-1.05	-0.5025	-1.014	0.12
06/19/2025 13:44:34.857	1.027972	0.094916	-0.157136	18.62	-7.91	0.14	-0.5025	-1.017	0.111
06/19/2025 13:44:34.877	1.01138	0.08418	-0.161772	15.47	-7.35	1.365	-0.4965	-1.005	0.123
06/19/2025 13:44:34.897	0.99186	0.07905599	-0.164456	12.845	-7	2.52	-0.498	-0.993	0.108
06/19/2025 13:44:34.917	1.01016	0.074664	-0.160552	9.765	-7.84	4.62	-0.492	-0.9975	0.1065
06/19/2025 13:44:34.937	1.012844	0.074908	-0.155428	7.245	-7.945	6.65	-0.48	-0.996	0.1065
06/19/2025 13:44:34.957	0.989908	0.081496	-0.155672	5.04	-6.265	8.82	-0.48	-0.996	0.1065
06/19/2025 13:44:34.977	0.971608	0.049532	-0.162504	3.465	-5.53	9.8	-0.48	-0.996	0.1065
06/19/2025 13:44:34.997	0.954284	0.051972	-0.166896	4.235	-5.81	10.43	-0.519	-1.0185	0.1275
06/19/2025 13:44:35.017	0.956968	0.056608	-0.152256	4.865	-5.775	11.305	-0.531	-1.026	0.1155
06/19/2025 13:44:35.037	0.96258	0.062952	-0.156892	4.935	-6.125	12.04	-0.54	-1.0305	0.1245
06/19/2025 13:44:35.057	0.951356	0.055876	-0.163968	6.02	-4.06	11.97	-0.5445	-1.0275	0.1155
06/19/2025 13:44:35.077	0.950136	0.02684	-0.173484	7.07	-3.5	12.46	-0.5595	-1.0335	0.1245
06/19/2025 13:44:35.097	0.960872	0.037332	-0.183488	9.8	-3.325	12.915	-0.5625	-1.053	0.1365
06/19/2025 13:44:35.117	0.966728	0.039528	-0.183244	12.565	-2.835	13.3	-0.591	-1.0665	0.144
06/19/2025 13:44:35.137	0.968436	0.038308	-0.187392	15.47	-2.52	13.825	-0.6015	-1.0665	0.141
06/19/2025 13:44:35.157	0.974292	0.040748	-0.183	17.08	-2.695	14.56	-0.6165	-1.071	0.147
06/19/2025 13:44:35.177	0.980148	0.043432	-0.18544	17.01	-2.52	14.945	-0.6375	-1.0665	0.144
06/19/2025 13:44:35.197	0.988444	0.032696	-0.194712	16.275	-1.82	15.015	-0.651	-1.0605	0.156
06/19/2025 13:44:35.217	0.988932	0.030988	-0.192272	15.61	-1.12	14.735	-0.645	-1.035	0.168
06/19/2025 13:44:35.237	0.980636	0.02684	-0.20008	15.89	-0.595	14.42	-0.645	-1.035	0.168
06/19/2025 13:44:35.257	0.970388	0.016348	-0.200812	16.24	-0.7	14.035	-0.657	-1.0425	0.18
06/19/2025 13:44:35.277	0.953064	0.015128	-0.19276	16.52	-0.77	13.65	-0.6705	-1.0275	0.1935
06/19/2025 13:44:35.297	0.959652	0.010492	-0.193248	15.75	-2.17	13.475	-0.6705	-1.0275	0.1935
06/19/2025 13:44:35.317	0.969168	0.020008	-0.189344	14.385	-2.8	13.335	-0.675	-1.035	0.1785
06/19/2025 13:44:35.337	0.971608	0.018544	-0.19154	12.005	-2.94	13.79	-0.6705	-1.026	0.204
06/19/2025 13:44:35.357	0.961116	0.011468	-0.18788	9.485	-2.87	14.245	-0.6705	-1.0095	0.21
06/19/2025 13:44:35.377	0.935008	0.000244	-0.188124	7.35	-2.835	14.35	-0.657	-1.0005	0.2175
06/19/2025 13:44:35.397	0.934032	-0.008052	-0.195444	5.88	-3.57	14.42	-0.6705	-0.9885	0.225
06/19/2025 13:44:35.417	0.928908	-0.008296	-0.1952	5.915	-3.815	14.035	-0.6525	-0.996	0.2325
06/19/2025 13:44:35.437	0.934764	-0.0061	-0.193736	6.16	-3.745	13.265	-0.669	-0.972	0.2175
06/19/2025 13:44:35.457	0.95526	-0.011956	-0.204228	6.37	-3.43	12.74	-0.6645	-0.975	0.2385
06/19/2025 13:44:35.477	0.975756	0.004392	-0.201788	6.615	-3.15	12.6	-0.651	-0.975	0.2295
06/19/2025 13:44:35.497	0.96624	-0.01342	-0.211548	5.355	-1.575	11.69	-0.666	-0.981	0.234
06/19/2025 13:44:35.517	0.9577	-0.02806	-0.226676	6.86	-0.56	9.695	-0.6525	-0.948	0.225
06/19/2025 13:44:35.537	0.96136	-0.044164	-0.23058	9.205	-0.105	6.825	-0.6345	-0.9555	0.24
06/19/2025 13:44:35.557	0.938912	-0.079788	-0.209596	13.825	0.175	3.325	-0.636	-0.9555	0.24
06/19/2025 13:44:35.577	1.019432	-0.098088	-0.197884	23.975	0.105	-1.575	-0.645	-0.9705	0.237
06/19/2025 13:44:35.597	0.988688	-0.080764	-0.180804	31.675	1.435	-2.065	-0.6555	-0.9465	0.2295
06/19/2025 13:44:35.617	1.008696	-0.099064	-0.139568	39.025	0.735	-3.185	-0.66	-0.9525	0.222
06/19/2025 13:44:35.637	0.998204	-0.124684	-0.165676	49.84	3.08	-4.41	-0.6495	-0.93	0.2265
06/19/2025 13:44:35.657	0.987468	-0.147376	-0.1952	55.09	4.97	-2.205	-0.6255	-0.918	0.2295
06/19/2025 13:44:35.677	1.01138	-0.18422	-0.190076	56.455	5.285	0.21	-0.6165	-0.9015	0.225
06/19/2025 13:44:35.697	1.005524	-0.206912	-0.173484	55.3	7.385	2.205	-0.621	-0.8955	0.2415
06/19/2025 13:44:35.717	1.003084	-0.188368	-0.162992	51.695	9.835	2.87	-0.597	-0.8715	0.2145
06/19/2025 13:44:35.737	0.9821	-0.15982	-0.15982	38.78	11.305	5.6	-0.597	-0.8535	0.2145
06/19/2025 13:44:35.757	1.0065	-0.197396	-0.183244	5.985	10.71	12.81	-0.597	-0.8535	0.2145
06/19/2025 13:44:35.777	1.03212	-0.214476	-0.176656	-8.995	10.185	20.51	-0.597	-0.8535	0.2145
06/19/2025 13:44:35.797	1.023336	-0.146156	-0.128832	-18.725	8.785	26.145	-0.543	-0.825	0.186
06/19/2025 13:44:35.817	1.024312	-0.148108	-0.098088	-22.715	5.67	29.75	-0.543	-0.8235	0.183
06/19/2025 13:44:35.837	0.94184	-0.16592	-0.165188	-7.315	7	31.535	-0.5355	-0.8085	0.1695
06/19/2025 13:44:35.857	0.93818	-0.218136	-0.193248	4.305	5.075	38.255	-0.4965	-0.819	0.1695
06/19/2025 13:44:35.877	1.003328	-0.208864	-0.16958	20.405	3.64	36.68	-0.492	-0.8175	0.168
06/19/2025 13:44:35.897	0.97478	-0.194224	-0.24644	25.235	8.12	33.635	-0.4785	-0.807	0.162
06/19/2025 13:44:35.917	1.018944	-0.221796	-0.2684	21.98	10.71	34.825	-0.4605	-0.792	0.15
06/19/2025 13:44:35.937	0.988444	-0.180072	-0.247904	7.49	12.705	32.585	-0.4695	-0.7785	0.1365
06/19/2025 13:44:35.957	1.030168	-0.204228	-0.272792	-23.66	10.5	39.83	-0.4815	-0.7905	0.126
06/19/2025 13:44:35.977	0.93574	-0.271328	-0.27816	-53.2	8.4	42.63	-0.474	-0.789	0.1185
06/19/2025 13:44:35.997	0.962092	-0.214232	-0.275964	-63.91	1.715	49.14	-0.4485	-0.789	0.1185
06/19/2025 13:44:36.017	0.926468	-0.258884	-0.247904	-62.79	-5.845	52.535	-0.4395	-0.8055	0.1005
06/19/2025 13:44:36.037	0.928664	-0.219356	-0.18056	-36.96	-21.805	52.745	-0.4395	-0.8055	0.1005
06/19/2025 13:44:36.057	0.927932	-0.1403	-0.240584	-26.88	-30.73	53.795	-0.4395	-0.8055	0.1005
06/19/2025 13:44:36.077	0.897676	-0.177876	-0.299388	-28.245	-36.19	54.915	-0.441	-0.8295	0.117
06/19/2025 13:44:36.097	0.917928	-0.214476	-0.316956	-36.295	-38.78	52.815	-0.4245	-0.8325	0.1245
06/19/2025 13:44:36.117	0.903532	-0.24522	-0.297192	-51.275	-38.885	48.335	-0.432	-0.8085	0.12
06/19/2025 13:44:36.137	0.890356	-0.184464	-0.254248	-58.485	-36.645	43.855	-0.411	-0.822	0.12
06/19/2025 13:44:36.157	0.86864	-0.17934	-0.27694	-70.595	-36.05	42.28	-0.4185	-0.8175	0.144
06/19/2025 13:44:36.177	0.856684	-0.257176	-0.248148	-78.19	-35.525	38.64	-0.393	-0.828	0.132
06/19/2025 13:44:36.197	0.836676	-0.261324	-0.255712	-66.535	-33.845	33.985	-0.3855	-0.8415	0.135
06/19/2025 13:44:36.217	0.825208	-0.27938	-0.280356	-58.625	-31.57	28.525	-0.372	-0.861	0.1395
06/19/2025 13:44:36.237	0.837408	-0.316712	-0.264984	-50.365	-30.345	24.605	-0.387	-0.873	0.15
06/19/2025 13:44:36.257	0.827404	-0.264984	-0.211548	-38.465	-29.365	19.46	-0.399	-0.8685	0.15
06/19/2025 13:44:36.277	0.845704	-0.25376	-0.203008	-30.45	-24.815	17.115	-0.3705	-0.861	0.1575
06/19/2025 13:44:36.297	0.838628	-0.2806	-0.231556	-28.105	-17.815	8.19	-0.366	-0.8685	0.165
06/19/2025 13:44:36.317	0.874252	-0.345504	-0.271816	-22.47	-11.13	5.88	-0.366	-0.8685	0.165
06/19/2025 13:44:36.337	0.876204	-0.401868	-0.308416	-8.61	-3.605	-0.735	-0.3705	-0.8925	0.1695
06/19/2025 13:44:36.357	0.879376	-0.411872	-0.332816	6.055	3.22	-2.415	-0.369	-0.8925	0.1575
06/19/2025 13:44:36.377	0.887184	-0.425536	-0.361852	20.335	10.15	-1.26	-0.378	-0.906	0.159
06/19/2025 13:44:36.397	0.875228	-0.465308	-0.355264	36.19	15.575	-3.15	-0.3915	-0.8985	0.159
06/19/2025 13:44:36.417	0.882792	-0.496052	-0.362584	56.14	20.335	-4.795	-0.414	-0.8775	0.18
06/19/2025 13:44:36.437	0.875472	-0.483608	-0.361364	72.66	23.485	-4.235	-0.429	-0.8775	0.1605
06/19/2025 13:44:36.457	0.859856	-0.476044	-0.34404	88.41	25.305	-1.855	-0.4335	-0.849	0.156
06/19/2025 13:44:36.477	0.857904	-0.49532	-0.310368	103.46	24.92	-0.7	-0.4485	-0.846	0.153
06/19/2025 13:44:36.497	0.881816	-0.440664	-0.265472	109.515	22.19	2.73	-0.462	-0.8295	0.153
06/19/2025 13:44:36.517	0.880352	-0.417728	-0.225944	106.715	20.51	8.295	-0.4875	-0.8145	0.153
06/19/2025 13:44:36.537	0.864736	-0.403332	-0.214476	96.6	18.305	15.12	-0.504	-0.7995	0.1545
06/19/2025 13:44:36.557	0.853512	-0.415044	-0.188856	78.015	15.26	21	-0.5235	-0.7815	0.1575
06/19/2025 13:44:36.577	0.827892	-0.405284	-0.150792	50.61	10.99	25.06	-0.528	-0.741	0.15
06/19/2025 13:44:36.597	0.833016	-0.4026	-0.155428	35.63	8.645	25.83	-0.531	-0.735	0.1395
06/19/2025 13:44:36.617	0.819108	-0.404552	-0.177388	22.4	7.245	27.475	-0.552	-0.7125	0.1515
06/19/2025 13:44:36.637	0.833748	-0.41358	-0.199104	16.345	6.44	28.385	-0.543	-0.696	0.1515
06/19/2025 13:44:36.657	0.820572	-0.449448	-0.2196	17.465	7.63	26.6	-0.543	-0.696	0.153
06/19/2025 13:44:36.677	0.79422	-0.447984	-0.2196	22.575	8.75	25.445	-0.543	-0.696	0.153
06/19/2025 13:44:36.697	0.792756	-0.424804	-0.214232	29.96	9.345	25.69	-0.5505	-0.693	0.1485
06/19/2025 13:44:36.717	0.805932	-0.442372	-0.219844	34.685	10.36	24.885	-0.555	-0.6675	0.1635
06/19/2025 13:44:36.737	0.784948	-0.421632	-0.223016	37.135	10.71	22.015	-0.534	-0.6645	0.1485
06/19/2025 13:44:36.757	0.77836	-0.392108	-0.20252	37.275	9.17	21.035	-0.5415	-0.66	0.141
06/19/2025 13:44:36.777	0.794708	-0.406016	-0.197152	34.125	6.65	21.875	-0.528	-0.651	0.156
06/19/2025 13:44:36.797	0.803248	-0.393816	-0.183488	29.085	3.815	19.425	-0.5505	-0.6315	0.1485
06/19/2025 13:44:36.817	0.792268	-0.392108	-0.185684	20.125	0.84	17.115	-0.5445	-0.624	0.141
06/19/2025 13:44:36.837	0.776408	-0.416264	-0.19886	10.605	-3.5	11.935	-0.5265	-0.627	0.1455
06/19/2025 13:44:36.857	0.7808	-0.442372	-0.173484	7.91	-6.58	8.015	-0.5265	-0.627	0.1455
06/19/2025 13:44:36.877	0.772748	-0.449204	-0.147132	7.91	-9.065	4.025	-0.5265	-0.627	0.1365
06/19/2025 13:44:36.897	0.776408	-0.447008	-0.14274	7.49	-10.85	2.065	-0.522	-0.618	0.1395
06/19/2025 13:44:36.917	0.788852	-0.471896	-0.152744	6.615	-11.83	0.28	-0.522	-0.621	0.1365
06/19/2025 13:44:36.937	0.798612	-0.480924	-0.123708	3.745	-12.6	-1.61	-0.501	-0.609	0.132
06/19/2025 13:44:36.957	0.789096	-0.469212	-0.104676	2.38	-12.425	-0.665	-0.51	-0.6135	0.1335
06/19/2025 13:44:36.977	0.788608	-0.485072	-0.125416	0.945	-11.445	0.7	-0.5025	-0.6165	0.132
06/19/2025 13:44:36.997	0.782264	-0.509472	-0.10614	1.715	-10.29	-0.7	-0.513	-0.6225	0.1335
06/19/2025 13:44:37.017	0.780556	-0.526308	-0.088328	2.485	-9.625	-0.945	-0.501	-0.6225	0.1095
06/19/2025 13:44:37.037	0.7991	-0.522648	-0.087596	0.56	-9.17	-0.035	-0.507	-0.627	0.1365
06/19/2025 13:44:37.057	0.801296	-0.509228	-0.092964	-1.015	-8.47	0.875	-0.498	-0.6345	0.1395
06/19/2025 13:44:37.077	0.807152	-0.525576	-0.1159	-3.64	-7.455	2.52	-0.465	-0.645	0.147
06/19/2025 13:44:37.097	0.801296	-0.55754	-0.12322	-5.495	-6.615	2.905	-0.4515	-0.6405	0.147
06/19/2025 13:44:37.117	0.810812	-0.543144	-0.118096	-3.57	-4.62	3.885	-0.4515	-0.6405	0.147
06/19/2025 13:44:37.137	0.799588	-0.55998	-0.137616	-3.08	-3.045	5.145	-0.4335	-0.6555	0.123
06/19/2025 13:44:37.157	0.818376	-0.582672	-0.144448	-3.325	-2.31	4.445	-0.444	-0.6495	0.147
06/19/2025 13:44:37.177	0.815936	-0.582672	-0.151768	-2.8	-0.98	4.445	-0.423	-0.672	0.138
06/19/2025 13:44:37.197	0.81008	-0.58804	-0.1586	-1.89	-0.455	4.27	-0.408	-0.6555	0.123
06/19/2025 13:44:37.217	0.805688	-0.595848	-0.161772	-0.56	-0.315	5.11	-0.408	-0.6795	0.129
06/19/2025 13:44:37.237	0.798124	-0.59658	-0.161284	-0.42	-0.63	5.81	-0.3885	-0.6675	0.1305
06/19/2025 13:44:37.257	0.791048	-0.584136	-0.145668	-1.015	-1.085	6.965	-0.378	-0.675	0.102
06/19/2025 13:44:37.277	0.796416	-0.583404	-0.128832	-0.875	-2.1	7.595	-0.3705	-0.6675	0.0975
06/19/2025 13:44:37.297	0.777872	-0.560224	-0.132492	-2.135	-2.345	8.995	-0.3585	-0.6705	0.102
06/19/2025 13:44:37.317	0.771772	-0.557296	-0.146888	-2.66	-1.96	11.445	-0.363	-0.678	0.0945
06/19/2025 13:44:37.337	0.770064	-0.572668	-0.144936	-3.605	-1.33	12.705	-0.369	-0.675	0.09
06/19/2025 13:44:37.357	0.763232	-0.558272	-0.138104	-2.1	-0.07	11.585	-0.354	-0.6675	0.0975
06/19/2025 13:44:37.377	0.755668	-0.548024	-0.133468	1.61	2.45	10.465	-0.354	-0.6675	0.0975
06/19/2025 13:44:37.397	0.746884	-0.542412	-0.139324	3.78	3.675	10.15	-0.354	-0.6675	0.0975
06/19/2025 13:44:37.417	0.744932	-0.540948	-0.159088	4.305	4.55	9.52	-0.3615	-0.675	0.0765
06/19/2025 13:44:37.437	0.727852	-0.549976	-0.149572	3.675	5.845	7.315	-0.3555	-0.675	0.069
06/19/2025 13:44:37.457	0.722484	-0.537044	-0.146644	4.235	6.055	5.425	-0.3495	-0.678	0.0615
06/19/2025 13:44:37.477	0.730536	-0.540948	-0.147376	2.485	5.775	4.935	-0.369	-0.6795	0.054
06/19/2025 13:44:37.497	0.731024	-0.5368	-0.162992	1.645	5.32	3.99	-0.366	-0.681	0.0585
06/19/2025 13:44:37.517	0.719068	-0.559248	-0.171044	0.245	5.25	3.64	-0.3735	-0.672	0.054
06/19/2025 13:44:37.537	0.739808	-0.552416	-0.175192	-0.56	4.305	1.96	-0.3645	-0.6765	0.0495
06/19/2025 13:44:37.557	0.73932	-0.554856	-0.168604	-0.175	3.815	-0.385	-0.3765	-0.675	0.0495
06/19/2025 13:44:37.577	0.738588	-0.55388	-0.160552	2.1	2.87	-2.275	-0.3735	-0.654	0.0615
06/19/2025 13:44:37.597	0.7503	-0.563884	-0.16104	1.75	1.995	-2.625	-0.3855	-0.684	0.051
06/19/2025 13:44:37.617	0.755668	-0.556808	-0.153232	1.015	1.505	-3.78	-0.381	-0.6735	0.039
06/19/2025 13:44:37.637	0.758352	-0.55388	-0.144204	0.21	0.91	-4.76	-0.375	-0.675	0.0585
06/19/2025 13:44:37.657	0.761768	-0.568276	-0.145912	-0.175	0.665	-4.83	-0.375	-0.675	0.0585
06/19/2025 13:44:37.677	0.755424	-0.576572	-0.145668	-0.315	0.525	-5.46	-0.378	-0.681	0.057
06/19/2025 13:44:37.697	0.762744	-0.579256	-0.145668	-0.105	0.84	-4.83	-0.3735	-0.663	0.0435
06/19/2025 13:44:37.717	0.759816	-0.578524	-0.131272	0.42	1.19	-4.41	-0.372	-0.654	0.066
06/19/2025 13:44:37.737	0.768356	-0.571936	-0.13176	0.77	0.84	-3.605	-0.3825	-0.651	0.0615
06/19/2025 13:44:37.757	0.783972	-0.579256	-0.1281	0	0.315	-2.695	-0.3945	-0.6615	0.0555
06/19/2025 13:44:37.777	0.783728	-0.58438	-0.12932	-0.42	0.28	-3.15	-0.4035	-0.6555	0.06
06/19/2025 13:44:37.797	0.7808	-0.574864	-0.136884	-0.35	0.84	-3.08	-0.42	-0.645	0.048
06/19/2025 13:44:37.817	0.7747	-0.569496	-0.136152	0.56	1.295	-3.255	-0.423	-0.6435	0.0555
06/19/2025 13:44:37.837	0.759572	-0.56242	-0.132004	2.205	1.645	-3.885	-0.429	-0.6405	0.063
06/19/2025 13:44:37.857	0.765428	-0.56608	-0.133956	2.485	1.715	-4.27	-0.435	-0.636	0.0555
06/19/2025 13:44:37.877	0.771284	-0.556808	-0.134688	1.89	2.1	-4.235	-0.45	-0.63	0.0555
06/19/2025 13:44:37.897	0.785924	-0.556076	-0.140788	1.19	2.275	-3.92	-0.459	-0.6195	0.0885
06/19/2025 13:44:37.917	0.765428	-0.557052	-0.146644	2.17	2.695	-3.36	-0.4695	-0.621	0.0765
06/19/2025 13:44:37.937	0.773236	-0.56608	-0.14152	2.66	2.24	-2.835	-0.4905	-0.6165	0.0795
06/19/2025 13:44:37.957	0.773968	-0.560956	-0.136396	2.94	2.03	-3.675	-0.504	-0.6255	0.096
06/19/2025 13:44:37.977	0.768844	-0.55876	-0.144204	2.485	1.505	-4.13	-0.513	-0.618	0.09
06/19/2025 13:44:37.997	0.770796	-0.555344	-0.138348	1.085	0.595	-4.27	-0.504	-0.618	0.1125
06/19/2025 13:44:38.017	0.769332	-0.566568	-0.131516	-0.21	-0.07	-4.2	-0.504	-0.6135	0.105
06/19/2025 13:44:38.037	0.78324	-0.573644	-0.133224	0.35	-0.245	-3.675	-0.504	-0.6135	0.105
06/19/2025 13:44:38.057	0.78812	-0.570716	-0.136396	1.54	0.07	-3.01	-0.4965	-0.6045	0.1155
06/19/2025 13:44:38.077	0.780556	-0.567544	-0.136396	1.715	0.56	-2.52	-0.4965	-0.6045	0.1275
06/19/2025 13:44:38.097	0.776652	-0.566324	-0.135176	1.575	0.56	-2.1	-0.5175	-0.609	0.1335
06/19/2025 13:44:38.117	0.794952	-0.561932	-0.121756	1.855	0.385	-1.575	-0.519	-0.6105	0.12
06/19/2025 13:44:38.137	0.796172	-0.564128	-0.112972	1.75	0.385	-2.59	-0.51	-0.5925	0.1335
06/19/2025 13:44:38.157	0.78324	-0.558028	-0.121512	1.47	0.21	-2.835	-0.504	-0.6015	0.132
06/19/2025 13:44:38.177	0.79056	-0.55876	-0.125904	0.105	-0.42	-2.03	-0.504	-0.6	0.1455
06/19/2025 13:44:38.197	0.785924	-0.563396	-0.121512	-1.19	-0.455	-1.61	-0.51	-0.606	0.1455
06/19/2025 13:44:38.217	0.812764	-0.565592	-0.118096	-1.4	-0.35	-1.33	-0.492	-0.603	0.1515
06/19/2025 13:44:38.237	0.794952	-0.558272	-0.118096	0.105	0.56	-1.925	-0.5025	-0.6135	0.1395
06/19/2025 13:44:38.257	0.776652	-0.566812	-0.129564	1.085	1.085	-1.505	-0.501	-0.609	0.132
06/19/2025 13:44:38.277	0.789584	-0.563396	-0.126148	1.365	1.12	-0.875	-0.4935	-0.597	0.144
06/19/2025 13:44:38.297	0.786656	-0.56486	-0.119316	0.735	1.26	-0.805	-0.4995	-0.6015	0.1365
06/19/2025 13:44:38.317	0.789096	-0.560468	-0.116632	0.105	1.085	-0.595	-0.501	-0.612	0.141
06/19/2025 13:44:38.337	0.783484	-0.563396	-0.122	0.175	1.085	-0.945	-0.4875	-0.6	0.1335
06/19/2025 13:44:38.357	0.786412	-0.562176	-0.133468	0.35	0.91	-0.735	-0.5085	-0.618	0.12
06/19/2025 13:44:38.377	0.776164	-0.55876	-0.116876	0.945	0.945	-0.84	-0.5175	-0.6255	0.1335
06/19/2025 13:44:38.397	0.780312	-0.557784	-0.125172	1.19	1.33	-0.385	-0.5175	-0.6135	0.1335
06/19/2025 13:44:38.417	0.779092	-0.549976	-0.125172	0.805	1.575	-0.77	-0.5025	-0.63	0.1365
06/19/2025 13:44:38.437	0.783484	-0.544852	-0.118828	1.19	1.575	-0.245	-0.5055	-0.6225	0.12
06/19/2025 13:44:38.457	0.774456	-0.545828	-0.12932	0.805	1.89	0.56	-0.5055	-0.6225	0.12
06/19/2025 13:44:38.477	0.759816	-0.542656	-0.136152	1.26	1.96	-0.525	-0.5055	-0.6225	0.12
06/19/2025 13:44:38.497	0.767136	-0.537288	-0.127612	1.26	1.47	-1.435	-0.4395	-0.657	0.123
06/19/2025 13:44:38.517	0.763476	-0.536312	-0.124196	0.385	1.05	-2.38	-0.456	-0.6525	0.1275
06/19/2025 13:44:38.537	0.782264	-0.533384	-0.131272	-0.525	0.63	-2.73	-0.435	-0.6555	0.1275
06/19/2025 13:44:38.557	0.79056	-0.52948	-0.137372	-0.7	0.595	-2.73	-0.4395	-0.6555	0.12
06/19/2025 13:44:38.577	0.783972	-0.532652	-0.140544	-0.35	0.315	-2.8	-0.4215	-0.66	0.1065
06/19/2025 13:44:38.597	0.774944	-0.528016	-0.129076	0.455	0.035	-3.57	-0.4125	-0.6525	0.1185
06/19/2025 13:44:38.617	0.772748	-0.53924	-0.126148	0.07	-0.175	-5.285	-0.3915	-0.6675	0.102
06/19/2025 13:44:38.637	0.773236	-0.524844	-0.127612	-0.525	-0.42	-6.755	-0.3915	-0.669	0.0975
06/19/2025 13:44:38.657	0.77714	-0.537532	-0.128832	-1.085	-0.98	-6.825	-0.387	-0.6675	0.0855
06/19/2025 13:44:38.677	0.801052	-0.531676	-0.124684	-0.805	-1.365	-6.51	-0.3855	-0.669	0.069
06/19/2025 13:44:38.697	0.801296	-0.530944	-0.123464	-1.295	-1.085	-6.65	-0.39	-0.6645	0.0735
06/19/2025 13:44:38.717	0.795196	-0.526552	-0.122732	1.295	-0.7	-7.49	-0.3915	-0.6765	0.0855
06/19/2025 13:44:38.737	0.808616	-0.536556	-0.121756	1.365	-0.595	-8.155	-0.3915	-0.6765	0.0855
06/19/2025 13:44:38.757	0.801296	-0.529968	-0.114192	1.575	-0.175	-8.96	-0.387	-0.684	0.063
06/19/2025 13:44:38.777	0.81618	-0.53558	-0.122244	1.33	-0.385	-8.505	-0.3645	-0.6675	0.0495
06/19/2025 13:44:38.797	0.808616	-0.550464	-0.121756	1.26	-0.315	-8.365	-0.3825	-0.6795	0.066
06/19/2025 13:44:38.817	0.81008	-0.55022	-0.115656	1.54	-0.42	-8.26	-0.387	-0.6735	0.0435
06/19/2025 13:44:38.837	0.810324	-0.536556	-0.11956	2.205	-0.42	-7.42	-0.3915	-0.69	0.0495
06/19/2025 13:44:38.857	0.81984	-0.533628	-0.122976	1.295	-0.77	-5.845	-0.405	-0.6975	0.0375
06/19/2025 13:44:38.877	0.811788	-0.532408	-0.122244	1.365	-0.665	-5.215	-0.399	-0.7065	0.0375
06/19/2025 13:44:38.897	0.810324	-0.530944	-0.128344	1.61	-0.49	-5.145	-0.4005	-0.693	0.0495
06/19/2025 13:44:38.917	0.813984	-0.526308	-0.122976	1.645	-0.63	-4.935	-0.3855	-0.69	0.045
06/19/2025 13:44:38.937	0.815692	-0.514108	-0.10736	1.015	-1.19	-4.27	-0.402	-0.6855	0.027
06/19/2025 13:44:38.957	0.813984	-0.516304	-0.111752	-0.595	-1.505	-3.675	-0.3915	-0.684	0.051
06/19/2025 13:44:38.977	0.810812	-0.521672	-0.125904	-1.435	-1.47	-3.36	-0.39	-0.6885	0.042
06/19/2025 13:44:38.997	0.813496	-0.522648	-0.121024	-0.63	-1.33	-3.325	-0.39	-0.6885	0.042
06/19/2025 13:44:39.017	0.818132	-0.518744	-0.114924	0.14	-1.155	-3.325	-0.39	-0.6885	0.042
06/19/2025 13:44:39.037	0.81618	-0.51728	-0.114436	-0.28	-0.63	-3.36	-0.396	-0.678	0.0495
06/19/2025 13:44:39.057	0.815448	-0.51728	-0.115412	-0.315	-0.21	-2.73	-0.396	-0.678	0.051
06/19/2025 13:44:39.077	0.81862	-0.516304	-0.112728	-0.385	-0.28	-2.45	-0.3945	-0.681	0.0585
06/19/2025 13:44:39.097	0.806664	-0.504836	-0.116876	-0.035	0.035	-2.555	-0.408	-0.681	0.0495
06/19/2025 13:44:39.117	0.80032	-0.500444	-0.117852	0.455	0.245	-2.415	-0.4155	-0.669	0.0555
06/19/2025 13:44:39.137	0.808372	-0.497516	-0.113216	0.245	0.21	-2.695	-0.417	-0.666	0.051
06/19/2025 13:44:39.157	0.813252	-0.496296	-0.123464	-0.35	0.56	-3.045	-0.441	-0.6615	0.0525
06/19/2025 13:44:39.177	0.8052	-0.4941	-0.11956	-0.665	0.875	-3.465	-0.4425	-0.6615	0.06
06/19/2025 13:44:39.197	0.816424	-0.485316	-0.120292	0.07	0.7	-3.5	-0.462	-0.6465	0.06
06/19/2025 13:44:39.217	0.80886	-0.490684	-0.127124	0.385	0.98	-3.675	-0.453	-0.6525	0.0705
06/19/2025 13:44:39.237	0.813008	-0.474336	-0.130784	0.49	0.7	-4.41	-0.48	-0.666	0.057
06/19/2025 13:44:39.257	0.810812	-0.476776	-0.129076	1.085	1.12	-6.895	-0.483	-0.633	0.069
06/19/2025 13:44:39.277	0.832528	-0.470676	-0.125172	0.735	0.28	-8.225	-0.483	-0.633	0.069
06/19/2025 13:44:39.297	0.820084	-0.467748	-0.12566	-0.35	0.455	-9.1	-0.5175	-0.648	0.066
06/19/2025 13:44:39.317	0.816424	-0.476044	-0.117364	-1.505	0.21	-9.485	-0.5175	-0.6465	0.081
06/19/2025 13:44:39.337	0.826428	-0.485804	-0.126392	-2.205	0.105	-9.625	-0.546	-0.657	0.093
06/19/2025 13:44:39.357	0.833504	-0.49044	-0.127368	-1.225	0.245	-9.66	-0.5325	-0.6555	0.105
06/19/2025 13:44:39.377	0.84424	-0.484828	-0.13054	0.07	0.63	-10.01	-0.5355	-0.651	0.108
06/19/2025 13:44:39.397	0.845216	-0.478484	-0.123708	1.225	0.98	-9.905	-0.5355	-0.6405	0.1125
06/19/2025 13:44:39.417	0.840092	-0.4758	-0.121024	1.715	1.19	-9.275	-0.5355	-0.6405	0.1125
06/19/2025 13:44:39.437	0.842776	-0.482144	-0.113948	1.82	1.225	-9.03	-0.5355	-0.6465	0.117
06/19/2025 13:44:39.457	0.841556	-0.478972	-0.117852	1.4	1.155	-9.03	-0.546	-0.657	0.117
06/19/2025 13:44:39.477	0.848632	-0.495564	-0.13664	2.765	1.47	-9.94	-0.552	-0.636	0.132
06/19/2025 13:44:39.497	0.851072	-0.45384	-0.099552	6.615	0.945	-8.82	-0.54	-0.6345	0.12
06/19/2025 13:44:39.517	0.84424	-0.457988	-0.091988	5.215	0.63	-7.77	-0.546	-0.648	0.1335
06/19/2025 13:44:39.537	0.84546	-0.456524	-0.117852	1.085	0.42	-7.56	-0.537	-0.6345	0.1365
06/19/2025 13:44:39.557	0.860344	-0.45018	-0.1098	-2.275	0.315	-6.93	-0.5415	-0.648	0.132
06/19/2025 13:44:39.577	0.843508	-0.444812	-0.10126	-2.205	0.42	-6.335	-0.54	-0.636	0.1335
06/19/2025 13:44:39.597	0.846436	-0.432368	-0.0915	1.12	0.21	-6.44	-0.555	-0.6435	0.1485
06/19/2025 13:44:39.617	0.841556	-0.416508	-0.102236	2.415	0.665	-7.735	-0.549	-0.6465	0.138
06/19/2025 13:44:39.637	0.834724	-0.41236	-0.104432	1.295	1.12	-8.89	-0.5535	-0.651	0.1455
06/19/2025 13:44:39.657	0.837652	-0.403332	-0.092476	-0.28	1.61	-10.36	-0.537	-0.642	0.1395
06/19/2025 13:44:39.677	0.834236	-0.396012	-0.082472	-1.295	2.205	-11.235	-0.54	-0.642	0.1455
06/19/2025 13:44:39.697	0.836676	-0.396988	-0.087596	-1.995	2.625	-11.865	-0.54	-0.651	0.132
06/19/2025 13:44:39.717	0.843508	-0.380884	-0.09516	-2.555	2.905	-12.915	-0.546	-0.6555	0.1215
06/19/2025 13:44:39.737	0.847412	-0.371612	-0.101504	-3.36	3.29	-13.895	-0.5535	-0.6645	0.1395
06/19/2025 13:44:39.757	0.843752	-0.374296	-0.103944	-4.025	4.13	-15.61	-0.546	-0.669	0.141
06/19/2025 13:44:39.777	0.843508	-0.36722	-0.102724	-4.165	4.725	-17.815	-0.5385	-0.669	0.132
06/19/2025 13:44:39.797	0.873276	-0.3538	-0.098332	-4.83	4.97	-20.755	-0.5385	-0.681	0.132
06/19/2025 13:44:39.817	0.877912	-0.351116	-0.108092	-4.375	5.355	-22.54	-0.5385	-0.681	0.132
06/19/2025 13:44:39.837	0.858392	-0.346968	-0.107848	-3.185	5.67	-23.94	-0.5085	-0.693	0.135
06/19/2025 13:44:39.857	0.87108	-0.324032	-0.109312	-2.345	5.075	-25.445	-0.5205	-0.6765	0.12
06/19/2025 13:44:39.877	0.90646	-0.328912	-0.111752	-4.48	4.69	-27.195	-0.522	-0.7005	0.12
06/19/2025 13:44:39.897	0.899628	-0.323788	-0.102968	-6.23	5.32	-29.54	-0.5115	-0.696	0.123
06/19/2025 13:44:39.917	0.89304	-0.312076	-0.110776	-6.37	5.46	-31.185	-0.4995	-0.7035	0.1125
06/19/2025 13:44:39.937	0.896944	-0.311344	-0.118096	-7.315	4.9	-31.955	-0.492	-0.7155	0.1275
06/19/2025 13:44:39.957	0.910852	-0.299144	-0.108336	-9.065	5.075	-32.83	-0.4875	-0.7215	0.1065
06/19/2025 13:44:39.977	0.937448	-0.302804	-0.098088	-10.955	5.32	-33.88	-0.471	-0.711	0.1185
06/19/2025 13:44:39.997	0.934764	-0.31476	-0.11956	-10.675	6.685	-34.58	-0.453	-0.7305	0.1095
06/19/2025 13:44:40.017	0.943792	-0.310368	-0.12322	-10.185	7.105	-34.72	-0.4575	-0.735	0.099
06/19/2025 13:44:40.037	0.942572	-0.30256	-0.114192	-7.84	7.77	-35.07	-0.4485	-0.735	0.102
06/19/2025 13:44:40.057	0.95526	-0.29158	-0.101504	-5.425	7.91	-35.21	-0.4545	-0.744	0.0855
06/19/2025 13:44:40.077	0.965264	-0.258396	-0.08686399	-4.935	6.93	-35.35	-0.4545	-0.744	0.0855
06/19/2025 13:44:40.097	0.953064	-0.26474	-0.080764	-8.12	6.265	-35.21	-0.4665	-0.7455	0.078
06/19/2025 13:44:40.117	0.960872	-0.240096	-0.06832	-11.83	5.25	-35.14	-0.453	-0.768	0.078
06/19/2025 13:44:40.137	0.974048	-0.206668	-0.06588	-16.59	4.515	-34.615	-0.4575	-0.756	0.0615
06/19/2025 13:44:40.157	0.986736	-0.164456	-0.067832	-21.245	4.235	-33.39	-0.4485	-0.7725	0.054
06/19/2025 13:44:40.177	0.972096	-0.132492	-0.072224	-27.02	4.06	-32.27	-0.462	-0.798	0.051
06/19/2025 13:44:40.197	0.956968	-0.144692	-0.073932	-34.755	4.13	-31.71	-0.468	-0.783	0.0465
06/19/2025 13:44:40.217	0.967216	-0.134932	-0.069784	-41.09	4.655	-32.9	-0.4845	-0.804	0.0615
06/19/2025 13:44:40.237	0.989664	-0.150548	-0.053436	-49.7	4.585	-34.125	-0.489	-0.828	0.0495
06/19/2025 13:44:40.257	0.989176	-0.142252	-0.068808	-56.56	5.74	-35.525	-0.4815	-0.8205	0.057
06/19/2025 13:44:40.277	0.99918	-0.096136	-0.10492	-62.3	6.195	-34.44	-0.486	-0.825	0.045
06/19/2025 13:44:40.297	0.977464	-0.133224	-0.116388	-72.135	7.175	-32.165	-0.486	-0.84	0.0585
06/19/2025 13:44:40.317	1.074088	-0.089304	-0.083936	-64.54	7.21	-35.28	-0.4875	-0.861	0.057
06/19/2025 13:44:40.337	1.101416	-0.019276	-0.077836	-35.805	8.68	-37.94	-0.4875	-0.861	0.057
06/19/2025 13:44:40.357	0.947696	-0.188856	-0.120536	-38.71	15.855	-36.47	-0.4875	-0.861	0.057
06/19/2025 13:44:40.377	0.989664	-0.133468	-0.123464	-35.28	13.895	-36.015	-0.5235	-0.8985	0.0615
06/19/2025 13:44:40.397	0.975756	-0.12078	-0.099796	-22.12	15.855	-35.42	-0.5145	-0.891	0.054
06/19/2025 13:44:40.417	1.0614	-0.068808	-0.05856	0.385	16.87	-39.41	-0.528	-0.9	0.0585
06/19/2025 13:44:40.437	0.984052	0.00854	-0.099064	9.1	20.615	-36.575	-0.531	-0.912	0.0645
06/19/2025 13:44:40.457	0.9699	-0.070028	-0.071492	-3.325	18.41	-36.4	-0.54	-0.9165	0.0615
06/19/2025 13:44:40.477	0.984296	-0.022936	-0.064904	3.675	18.095	-35.595	-0.54	-0.933	0.066
06/19/2025 13:44:40.497	1.005524	0.044652	-0.081252	0.98	18.025	-34.125	-0.555	-0.939	0.051
06/19/2025 13:44:40.517	0.976976	-0.00732	-0.066612	-7.735	17.78	-34.965	-0.588	-0.942	0.066
06/19/2025 13:44:40.537	0.9821	0.026596	-0.055632	-4.795	16.66	-35.945	-0.5925	-0.96	0.051
06/19/2025 13:44:40.557	0.992104	0.024888	-0.05978	-7.35	15.365	-35.805	-0.618	-0.9495	0.054
06/19/2025 13:44:40.577	1.009916	0.041724	-0.057096	-10.01	14.105	-35	-0.636	-0.9705	0.051
06/19/2025 13:44:40.597	0.988444	0.060268	-0.055632	-11.795	12.88	-33.67	-0.6465	-0.9915	0.051
06/19/2025 13:44:40.617	0.987712	0.070272	-0.04392	-19.285	9.485	-32.375	-0.66	-1.0065	0.054
06/19/2025 13:44:40.637	1.006988	0.066368	-0.034404	-23.765	9.415	-31.395	-0.6915	-1.062	0.0585
06/19/2025 13:44:40.657	0.990152	0.076372	-0.027328	-26.67	9.24	-30.66	-0.7155	-1.068	0.063
06/19/2025 13:44:40.677	0.998692	0.084668	-0.03416	-32.48	7.91	-28.07	-0.72	-1.0635	0.042
06/19/2025 13:44:40.697	0.998448	0.063928	-0.047336	-33.565	7.665	-27.65	-0.729	-1.083	0.0675
06/19/2025 13:44:40.717	0.966728	0.056852	-0.038308	-25.76	8.225	-27.335	-0.726	-1.0935	0.066
06/19/2025 13:44:40.737	0.995764	0.096868	-0.044896	-13.65	7.91	-27.755	-0.735	-1.104	0.063
06/19/2025 13:44:40.757	0.957944	0.082228	-0.037088	-8.12	9.38	-28.49	-0.732	-1.11	0.0615
06/19/2025 13:44:40.777	0.959408	0.132004	-0.01098	0.56	8.855	-30.275	-0.732	-1.11	0.0615
06/19/2025 13:44:40.797	0.946476	0.151524	-0.005368	4.515	7.63	-30.52	-0.7515	-1.122	0.051
06/19/2025 13:44:40.817	0.929884	0.172996	-0.000488	9.695	7.315	-30.555	-0.741	-1.1265	0.0675
06/19/2025 13:44:40.837	0.946232	0.21228	0.008784	14.875	5.565	-29.575	-0.75	-1.14	0.054
06/19/2025 13:44:40.857	0.939156	0.241316	0.012688	16.485	6.125	-28.28	-0.7605	-1.131	0.0705
06/19/2025 13:44:40.877	0.93696	0.244488	0.004392	11.025	5.39	-27.965	-0.7605	-1.119	0.0675
06/19/2025 13:44:40.897	0.9455	0.256444	0.002684	8.19	4.9	-28.84	-0.7605	-1.119	0.0675
06/19/2025 13:44:40.917	0.945988	0.269376	0.000976	6.265	5.04	-29.54	-0.741	-1.134	0.0675
06/19/2025 13:44:40.937	0.950868	0.284016	0.000976	5.04	4.935	-30.625	-0.744	-1.1475	0.063
06/19/2025 13:44:40.957	0.965264	0.300608	0.003416	1.96	3.885	-31.15	-0.753	-1.155	0.069
06/19/2025 13:44:40.977	0.980392	0.306708	0.005368	-3.99	2.835	-32.41	-0.7275	-1.1505	0.078
06/19/2025 13:44:40.997	0.975024	0.284016	0.011224	-8.365	3.255	-34.16	-0.7245	-1.1655	0.069
06/19/2025 13:44:41.017	0.978684	0.283528	0.013664	-10.92	2.695	-35.28	-0.7185	-1.1625	0.066
06/19/2025 13:44:41.037	0.966484	0.273036	0.011956	-14.175	2.975	-35.945	-0.7365	-1.1805	0.0705
06/19/2025 13:44:41.057	0.967704	0.26596	0.016348	-17.85	2.1	-36.575	-0.72	-1.1865	0.066
06/19/2025 13:44:41.077	0.953308	0.27328	0.01586	-19.705	1.995	-36.995	-0.7305	-1.197	0.0585
06/19/2025 13:44:41.097	0.949404	0.264496	0.023424	-21.14	2.03	-36.12	-0.717	-1.215	0.045
06/19/2025 13:44:41.117	0.957944	0.274744	0.036356	-21.63	1.365	-34.055	-0.7245	-1.2075	0.0495
06/19/2025 13:44:41.137	0.967704	0.291336	0.039528	-23.66	0.315	-31.36	-0.714	-1.2105	0.057
06/19/2025 13:44:41.157	0.962824	0.284992	0.039284	-26.74	1.19	-27.615	-0.714	-1.2105	0.057
06/19/2025 13:44:41.177	0.94672	0.280356	0.03782	-27.825	1.96	-25.165	-0.7035	-1.2	0.0495
06/19/2025 13:44:41.197	0.939888	0.28426	0.039772	-28.84	1.995	-22.61	-0.675	-1.1985	0.045
06/19/2025 13:44:41.217	0.933544	0.29768	0.04636	-28.875	1.925	-19.74	-0.6705	-1.2015	0.033
06/19/2025 13:44:41.237	0.933056	0.29524	0.055876	-28.525	1.82	-16.835	-0.6555	-1.206	0.027
06/19/2025 13:44:41.257	0.934032	0.314028	0.058804	-28.14	1.645	-13.895	-0.6525	-1.206	0.027
06/19/2025 13:44:41.277	0.94672	0.320372	0.060268	-28.105	1.47	-11.305	-0.639	-1.1805	0.024
06/19/2025 13:44:41.297	0.94916	0.324764	0.061	-28.175	1.96	-8.82	-0.6555	-1.182	0.012
06/19/2025 13:44:41.317	0.942816	0.316712	0.056852	-28.035	2.94	-7	-0.621	-1.173	0.021
06/19/2025 13:44:41.337	0.920612	0.315004	0.05002	-25.865	3.955	-5.635	-0.621	-1.161	0.0075
06/19/2025 13:44:41.357	0.91134	0.309148	0.047824	-22.05	4.48	-4.83	-0.609	-1.1925	0.012
06/19/2025 13:44:41.377	0.903776	0.315248	0.050996	-17.85	4.515	-4.13	-0.6045	-1.188	0.0225
06/19/2025 13:44:41.397	0.90768	0.328668	0.054412	-13.265	4.025	-3.465	-0.6	-1.167	0.009
06/19/2025 13:44:41.417	0.907924	0.332084	0.060512	-6.965	4.165	-2.52	-0.6	-1.167	0.009
06/19/2025 13:44:41.437	0.901824	0.337208	0.056608	-5.075	3.99	-1.505	-0.6	-1.167	0.009
06/19/2025 13:44:41.457	0.905484	0.343308	0.061	-3.745	3.71	-0.42	-0.603	-1.164	-0.0015
06/19/2025 13:44:41.477	0.905484	0.349164	0.05856	-3.08	3.01	0.875	-0.5865	-1.1595	0.0045
06/19/2025 13:44:41.497	0.906948	0.36234	0.060024	-2.73	2.135	2.24	-0.5985	-1.1685	0
06/19/2025 13:44:41.517	0.901336	0.361364	0.05856	-2.695	1.505	3.43	-0.591	-1.1745	0
06/19/2025 13:44:41.537	0.89548	0.365756	0.063196	-3.255	0	4.375	-0.6	-1.179	-0.006
06/19/2025 13:44:41.557	0.893284	0.365512	0.06466	-3.745	-1.015	4.97	-0.6	-1.1955	0.003
06/19/2025 13:44:41.577	0.888892	0.368196	0.06734399	-4.725	-2.45	5.285	-0.591	-1.2015	-0.006
06/19/2025 13:44:41.597	0.880596	0.3721	0.067832	-5.74	-3.22	5.215	-0.6	-1.1955	-0.003
06/19/2025 13:44:41.617	0.876936	0.37454	0.074664	-6.72	-4.725	4.935	-0.6045	-1.1925	-0.0075
06/19/2025 13:44:41.637	0.892552	0.379176	0.076372	-8.645	-6.51	5.075	-0.6075	-1.1835	0.0045
06/19/2025 13:44:41.657	0.88694	0.377956	0.08052	-9.205	-6.055	4.76	-0.588	-1.185	-0.006
06/19/2025 13:44:41.677	0.898164	0.367952	0.077348	-10.36	-7.07	4.9	-0.5925	-1.188	-0.003
06/19/2025 13:44:41.697	0.917684	0.365268	0.071492	-9.835	-6.93	5.11	-0.5925	-1.188	-0.003
06/19/2025 13:44:41.717	0.92476	0.372344	0.07124799	-9.135	-6.93	5.39	-0.597	-1.197	-0.0075
06/19/2025 13:44:41.737	0.915976	0.375028	0.076616	-6.825	-5.775	5.18	-0.5925	-1.2015	-0.0075
06/19/2025 13:44:41.757	0.919148	0.370392	0.074664	-4.41	-5.565	5.04	-0.6075	-1.1925	-0.0105
06/19/2025 13:44:41.777	0.908656	0.375516	0.073444	-1.435	-5.18	4.375	-0.597	-1.2	-0.012
06/19/2025 13:44:41.797	0.900604	0.367952	0.078812	0.945	-5.18	3.675	-0.6045	-1.1895	-0.006
06/19/2025 13:44:41.817	0.895236	0.380884	0.082228	2.345	-5.6	3.045	-0.6075	-1.2045	-0.006
06/19/2025 13:44:41.837	0.8967	0.3843	0.0854	1.96	-6.16	2.38	-0.6045	-1.218	0.003
06/19/2025 13:44:41.857	0.902312	0.388692	0.08686399	0.35	-6.895	1.96	-0.609	-1.2345	0
06/19/2025 13:44:41.877	0.90768	0.397964	0.08906	-2.065	-7.385	1.89	-0.6195	-1.239	-0.003
06/19/2025 13:44:41.897	0.908656	0.393572	0.084912	-4.235	-7.56	1.75	-0.6225	-1.2435	-0.0105
06/19/2025 13:44:41.917	0.91134	0.394304	0.088816	-6.51	-8.12	1.75	-0.6315	-1.23	0.003
06/19/2025 13:44:41.937	0.909144	0.389668	0.09516	-8.855	-8.435	1.505	-0.639	-1.248	-0.0105
06/19/2025 13:44:41.957	0.911584	0.385276	0.094916	-10.92	-8.295	0.42	-0.6375	-1.2645	0
06/19/2025 13:44:41.977	0.915732	0.383568	0.096136	-11.55	-7.49	-0.385	-0.672	-1.323	0.003
06/19/2025 13:44:41.997	0.920856	0.380152	0.098088	-12.39	-7.35	-0.945	-0.6615	-1.326	0
06/19/2025 13:44:42.017	0.925736	0.376736	0.10614	-12.075	-6.335	-1.575	-0.657	-1.3305	-0.0045
06/19/2025 13:44:42.037	0.925004	0.371124	0.099796	-11.48	-5.25	-2.205	-0.681	-1.338	0.0105
06/19/2025 13:44:42.057	0.920856	0.365756	0.097356	-10.185	-3.36	-3.29	-0.6945	-1.341	0.003
06/19/2025 13:44:42.077	0.907436	0.352336	0.090524	-7.105	-1.61	-4.34	-0.699	-1.3365	0
06/19/2025 13:44:42.097	0.90402	0.34648	0.087108	-3.01	0.105	-5.145	-0.687	-1.3485	-0.0105
06/19/2025 13:44:42.117	0.914756	0.340868	0.082228	1.33	1.365	-5.705	-0.6915	-1.3605	-0.0075
06/19/2025 13:44:42.137	0.918416	0.348432	0.085888	6.3	2.345	-5.6	-0.6915	-1.3605	-0.0075
06/19/2025 13:44:42.157	0.911828	0.3599	0.092476	8.96	2.73	-4.62	-0.6915	-1.344	0.003
06/19/2025 13:44:42.177	0.917928	0.36966	0.094428	9.345	2.555	-3.045	-0.693	-1.38	0.0015
06/19/2025 13:44:42.197	0.915244	0.379176	0.098088	7.91	2.275	-1.19	-0.7035	-1.3605	0
06/19/2025 13:44:42.217	0.900116	0.374296	0.096868	3.045	0.805	1.12	-0.6915	-1.3485	0.003
06/19/2025 13:44:42.237	0.898652	0.375272	0.10126	0.07	-0.56	1.96	-0.6915	-1.3485	0.003
06/19/2025 13:44:42.257	0.89426	0.372832	0.096136	-2.135	-1.61	2.065	-0.696	-1.3395	0.018
06/19/2025 13:44:42.277	0.896456	0.378932	0.093452	-3.465	-2.31	1.96	-0.708	-1.3395	0.012
06/19/2025 13:44:42.297	0.901092	0.377712	0.091988	-4.76	-2.66	1.855	-0.696	-1.344	0
06/19/2025 13:44:42.317	0.913048	0.380884	0.095404	-6.335	-2.555	2.24	-0.6945	-1.323	0.0105
06/19/2025 13:44:42.337	0.92598	0.382104	0.097844	-7.14	-1.82	2.52	-0.69	-1.3365	0.0105
06/19/2025 13:44:42.357	0.925736	0.369172	0.096624	-6.685	-0.385	2.38	-0.6945	-1.3365	0.0045
06/19/2025 13:44:42.377	0.920368	0.37332	0.086132	-4.41	0.98	1.645	-0.6945	-1.3275	0.0075
06/19/2025 13:44:42.397	0.914268	0.381128	0.084424	-1.435	2.205	0.805	-0.696	-1.3365	0.0045
06/19/2025 13:44:42.417	0.919392	0.373808	0.080276	0.945	2.87	-0.035	-0.6915	-1.3245	0.0075
06/19/2025 13:44:42.437	0.907436	0.385032	0.07905599	2.38	3.675	-1.225	-0.696	-1.3365	0.0225
06/19/2025 13:44:42.457	0.901824	0.377956	0.076128	2.345	3.92	-2.17	-0.69	-1.335	0.006
06/19/2025 13:44:42.477	0.900604	0.38064	0.072468	1.365	3.78	-2.66	-0.699	-1.332	0.015
06/19/2025 13:44:42.497	0.910852	0.377224	0.072712	-0.455	2.905	-2.31	-0.7035	-1.311	0
06/19/2025 13:44:42.517	0.911584	0.378932	0.071004	-1.54	2.135	-1.54	-0.7035	-1.311	0
06/19/2025 13:44:42.537	0.920124	0.379664	0.073688	-2.485	1.155	-0.7	-0.672	-1.2975	0.012
06/19/2025 13:44:42.557	0.916952	0.377956	0.06832	-3.36	0.595	-0.07	-0.675	-1.2825	0
06/19/2025 13:44:42.577	0.915244	0.369904	0.06466	-4.41	0.14	0.105	-0.6675	-1.2735	0.012
06/19/2025 13:44:42.597	0.91378	0.376004	0.061488	-4.795	-0.14	-0.175	-0.6585	-1.2855	0.015
06/19/2025 13:44:42.617	0.91012	0.375272	0.064416	-4.9	-0.595	-0.595	-0.645	-1.263	0.015
06/19/2025 13:44:42.637	0.916952	0.374296	0.075396	-4.69	-0.91	-1.225	-0.6405	-1.251	0.0075
06/19/2025 13:44:42.657	0.921344	0.371612	0.073444	-4.165	-0.805	-1.855	-0.627	-1.218	0.0075
06/19/2025 13:44:42.677	0.914756	0.355752	0.072224	-3.36	-0.49	-2.485	-0.627	-1.2135	-0.0015
06/19/2025 13:44:42.697	0.906216	0.357704	0.070516	-2.275	0.175	-3.045	-0.6315	-1.2015	0.015
06/19/2025 13:44:42.717	0.912072	0.354532	0.071004	-0.735	0.385	-3.675	-0.5955	-1.188	0.0165
06/19/2025 13:44:42.737	0.912316	0.360144	0.076616	1.015	0.7	-3.92	-0.606	-1.2015	0.012
06/19/2025 13:44:42.757	0.903776	0.35258	0.077836	2.065	1.155	-3.85	-0.5955	-1.203	0.012
06/19/2025 13:44:42.777	0.906216	0.352824	0.072956	2.66	1.33	-3.64	-0.5955	-1.203	0.012
06/19/2025 13:44:42.797	0.905728	0.3538	0.070516	2.975	1.155	-2.905	-0.588	-1.2045	0.003
06/19/2025 13:44:42.817	0.907192	0.355996	0.070516	3.395	1.015	-1.96	-0.5745	-1.2075	-0.0075
06/19/2025 13:44:42.837	0.90158	0.354044	0.07442	3.64	0.42	-0.875	-0.5715	-1.191	0.0105
06/19/2025 13:44:42.857	0.909632	0.358436	0.0793	3.57	-0.245	-0.035	-0.5715	-1.194	0.015
06/19/2025 13:44:42.877	0.906216	0.361852	0.076372	2.765	-0.84	0.735	-0.573	-1.188	0.003
06/19/2025 13:44:42.897	0.90646	0.364536	0.074908	2.03	-1.225	1.4	-0.576	-1.2045	0.0105
06/19/2025 13:44:42.917	0.910852	0.3599	0.074908	1.785	-1.365	1.785	-0.576	-1.215	0.0105
06/19/2025 13:44:42.937	0.913048	0.358924	0.0793	1.925	-1.26	2.1	-0.579	-1.221	0.006
06/19/2025 13:44:42.957	0.912804	0.369172	0.078568	2.87	-1.19	2.135	-0.567	-1.209	0
06/19/2025 13:44:42.977	0.911584	0.373076	0.078812	3.71	-1.05	2.24	-0.5865	-1.209	-0.012
06/19/2025 13:44:42.997	0.905484	0.377712	0.080032	3.745	-1.295	2.555	-0.576	-1.2	0.006
06/19/2025 13:44:43.017	0.914268	0.384544	0.08174	3.115	-1.61	2.87	-0.567	-1.203	0
06/19/2025 13:44:43.037	0.913048	0.38064	0.082472	1.33	-1.715	3.15	-0.576	-1.203	0.0105
06/19/2025 13:44:43.057	0.91134	0.379664	0.080276	0.805	-1.785	2.975	-0.5535	-1.212	0.0015
06/19/2025 13:44:43.077	0.915	0.37576	0.083448	0.945	-1.505	2.485	-0.5745	-1.2	0
06/19/2025 13:44:43.097	0.912316	0.378688	0.0854	1.435	-1.26	1.995	-0.5715	-1.203	0.006
06/19/2025 13:44:43.117	0.9089	0.377224	0.082716	2.59	-0.42	1.47	-0.579	-1.209	-0.0075
06/19/2025 13:44:43.137	0.912804	0.379176	0.084424	3.325	0.245	1.155	-0.579	-1.191	-0.006
06/19/2025 13:44:43.157	0.91134	0.378444	0.083936	3.885	0.91	0.945	-0.5685	-1.188	-0.003
06/19/2025 13:44:43.177	0.908656	0.379664	0.08174	4.375	1.54	0.77	-0.57	-1.2045	0
06/19/2025 13:44:43.197	0.9089	0.38308	0.078812	4.445	1.855	0.595	-0.561	-1.212	0.0015
06/19/2025 13:44:43.217	0.902556	0.381128	0.07808	4.375	2.03	0.35	-0.567	-1.224	0.0015
06/19/2025 13:44:43.237	0.901092	0.379908	0.081984	4.27	1.925	0.035	-0.585	-1.233	0
06/19/2025 13:44:43.257	0.901092	0.377956	0.07515199	4.025	1.575	0.035	-0.597	-1.254	0.0015
06/19/2025 13:44:43.277	0.899872	0.383568	0.075884	3.29	1.05	0.07	-0.612	-1.2465	0.015
06/19/2025 13:44:43.297	0.90768	0.381128	0.079788	1.75	0.245	0.28	-0.624	-1.251	0
06/19/2025 13:44:43.317	0.911096	0.381616	0.071736	1.225	0.14	0.385	-0.624	-1.251	0
06/19/2025 13:44:43.337	0.915	0.378688	0.071492	1.155	0.21	0.525	-0.639	-1.302	0.003
06/19/2025 13:44:43.357	0.91622	0.381616	0.07076	1.89	0.35	0.455	-0.6435	-1.326	0
06/19/2025 13:44:43.377	0.914512	0.389668	0.07442	2.415	0.28	0.42	-0.657	-1.323	0
06/19/2025 13:44:43.397	0.912316	0.38918	0.07905599	2.345	0.14	0.175	-0.672	-1.326	0.003
06/19/2025 13:44:43.417	0.909632	0.386008	0.0732	1.645	-0.21	-0.28	-0.687	-1.3275	0.018
06/19/2025 13:44:43.437	0.9089	0.385276	0.076128	0.665	-0.875	-0.665	-0.669	-1.3395	0.0105
06/19/2025 13:44:43.457	0.912072	0.387228	0.076372	-0.245	-1.12	-0.98	-0.6855	-1.332	0.006
06/19/2025 13:44:43.477	0.908412	0.375028	0.077104	-0.455	-0.805	-1.295	-0.6855	-1.3395	0.006
06/19/2025 13:44:43.497	0.90524	0.373076	0.077104	0.07	-0.525	-1.575	-0.69	-1.332	0.0105
06/19/2025 13:44:43.517	0.905728	0.371368	0.07686	0.735	-0.245	-1.61	-0.69	-1.332	0.0105
06/19/2025 13:44:43.537	0.905484	0.373076	0.0793	0.98	-0.175	-1.435	-0.6915	-1.341	0.003
06/19/2025 13:44:43.557	0.9089	0.377956	0.079788	0.77	-0.035	-1.05	-0.699	-1.3515	0.0075
06/19/2025 13:44:43.577	0.917196	0.37088	0.0793	-0.245	-0.315	-0.525	-0.705	-1.341	0.015
06/19/2025 13:44:43.597	0.907192	0.379176	0.072956	-0.805	-0.175	-0.49	-0.6915	-1.3275	0.027
06/19/2025 13:44:43.617	0.908656	0.376492	0.069052	-1.015	-0.35	-0.595	-0.7065	-1.3365	0.0045
06/19/2025 13:44:43.637	0.914024	0.373564	0.07198	-0.84	-0.7	-0.84	-0.699	-1.3275	0.012
06/19/2025 13:44:43.657	0.915244	0.37576	0.074664	-0.77	-0.7	-1.015	-0.7155	-1.332	0.0195
06/19/2025 13:44:43.677	0.919636	0.377468	0.076372	-1.05	-0.735	-1.085	-0.7005	-1.3395	0.012
06/19/2025 13:44:43.697	0.918416	0.377224	0.076616	-1.26	-0.315	-1.19	-0.7125	-1.3365	0.012
06/19/2025 13:44:43.717	0.915244	0.372344	0.069784	-1.12	0.49	-1.33	-0.7035	-1.332	0.0165
06/19/2025 13:44:43.737	0.915732	0.361364	0.067588	0.455	1.47	-1.68	-0.7155	-1.329	0.0165
06/19/2025 13:44:43.757	0.914024	0.354776	0.066368	2.835	2.275	-1.89	-0.7065	-1.3185	0.0165
06/19/2025 13:44:43.777	0.91012	0.360388	0.066856	4.97	2.695	-1.855	-0.708	-1.3185	0.027
06/19/2025 13:44:43.797	0.90524	0.371612	0.072468	5.46	2.695	-1.33	-0.699	-1.341	0.0195
06/19/2025 13:44:43.817	0.904264	0.371856	0.066612	4.235	2.1	-0.49	-0.7125	-1.344	0.027
06/19/2025 13:44:43.837	0.8967	0.375272	0.069052	0.665	0.525	0.735	-0.6945	-1.3275	0.0165
06/19/2025 13:44:43.857	0.905728	0.37332	0.06588	-1.47	-0.595	1.225	-0.6945	-1.3275	0.0165
06/19/2025 13:44:43.877	0.911828	0.367708	0.0671	-2.31	-1.505	1.33	-0.6945	-1.3155	0.015
06/19/2025 13:44:43.897	0.916464	0.368928	0.065148	-2.31	-1.89	1.155	-0.6885	-1.3065	0.0165
06/19/2025 13:44:43.917	0.91744	0.372832	0.066368	-1.855	-1.855	0.875	-0.6765	-1.29	0.012
06/19/2025 13:44:43.937	0.918416	0.371368	0.069784	-1.19	-1.155	0.665	-0.6645	-1.2855	0.024
06/19/2025 13:44:43.957	0.916464	0.366976	0.067588	-0.245	-0.175	0.455	-0.6705	-1.278	0.027
06/19/2025 13:44:43.977	0.912804	0.373808	0.066856	1.19	0.665	0.35	-0.6495	-1.272	0.018
06/19/2025 13:44:43.997	0.915488	0.374784	0.068076	2.94	1.47	0.28	-0.654	-1.2675	0.024
06/19/2025 13:44:44.017	0.909388	0.374784	0.069296	4.34	2.17	0.035	-0.6405	-1.2315	0.0165
06/19/2025 13:44:44.037	0.905484	0.379176	0.068808	4.83	2.275	-0.28	-0.606	-1.218	0.0225
06/19/2025 13:44:44.057	0.909388	0.383812	0.061976	4.235	1.715	-0.49	-0.6255	-1.2105	0.015
06/19/2025 13:44:44.077	0.908412	0.37454	0.06954	3.01	1.225	-0.49	-0.5925	-1.203	0.0105
06/19/2025 13:44:44.097	0.910364	0.379176	0.070272	1.855	0.84	-0.525	-0.6045	-1.1925	0.0075
06/19/2025 13:44:44.117	0.916952	0.374784	0.065148	1.435	0.77	-0.14	-0.6045	-1.1925	0.0075
06/19/2025 13:44:44.137	0.911096	0.369904	0.063196	2.1	1.295	-0.07	-0.6045	-1.1925	0.0075
06/19/2025 13:44:44.157	0.91866	0.368196	0.066612	3.08	1.715	0	-0.582	-1.188	0.0195
06/19/2025 13:44:44.177	0.919636	0.365268	0.066856	4.305	2.275	-0.105	-0.5985	-1.1745	0.0105
06/19/2025 13:44:44.197	0.914756	0.370392	0.06832	5.215	2.765	-0.105	-0.588	-1.179	0.015
06/19/2025 13:44:44.217	0.907924	0.366488	0.06734399	6.055	2.835	-0.07	-0.594	-1.1745	0.015
06/19/2025 13:44:44.237	0.910852	0.373076	0.066124	6.545	2.625	0.175	-0.57	-1.17	0.0105
06/19/2025 13:44:44.257	0.910364	0.377224	0.06832	6.37	2.38	0.56	-0.5625	-1.182	0.015
06/19/2025 13:44:44.277	0.909632	0.372344	0.069296	5.74	1.925	1.05	-0.5685	-1.179	0
06/19/2025 13:44:44.297	0.901824	0.368684	0.064904	5.04	1.4	1.54	-0.5535	-1.191	0.0195
06/19/2025 13:44:44.317	0.898164	0.37332	0.072224	4.305	0.63	2.17	-0.5625	-1.188	0.012
06/19/2025 13:44:44.337	0.895236	0.372588	0.073444	3.64	-0.105	2.695	-0.5715	-1.1985	0.012
06/19/2025 13:44:44.357	0.890356	0.37698	0.078324	2.695	-0.875	3.29	-0.5775	-1.188	0
06/19/2025 13:44:44.377	0.901824	0.38308	0.072468	1.435	-1.715	4.305	-0.5745	-1.191	-0.0075
06/19/2025 13:44:44.397	0.9028	0.386252	0.07442	0.525	-2.1	4.9	-0.5745	-1.191	-0.0075
06/19/2025 13:44:44.417	0.905484	0.3843	0.078324	0.35	-2.24	5.075	-0.5745	-1.191	-0.0075
06/19/2025 13:44:44.437	0.912072	0.389668	0.078812	0.175	-2.275	4.865	-0.573	-1.1835	0
06/19/2025 13:44:44.457	0.907192	0.393816	0.081496	0.21	-2.52	4.305	-0.5625	-1.191	0
06/19/2025 13:44:44.477	0.912316	0.40138	0.080764	0.245	-2.59	3.29	-0.579	-1.1835	0.015
06/19/2025 13:44:44.497	0.903044	0.396988	0.084424	-0.595	-2.695	2.415	-0.5745	-1.1925	-0.0045
06/19/2025 13:44:44.517	0.912316	0.390644	0.07905599	-1.785	-2.59	1.435	-0.582	-1.1835	-0.0105
06/19/2025 13:44:44.537	0.9089	0.39528	0.081252	-2.17	-1.995	0.56	-0.579	-1.1925	0.012
06/19/2025 13:44:44.557	0.90402	0.38674	0.080276	-1.82	-1.19	-0.105	-0.579	-1.1925	0
06/19/2025 13:44:44.577	0.911096	0.38918	0.08174	-0.595	-0.385	-0.665	-0.5745	-1.2165	0.006
06/19/2025 13:44:44.597	0.906948	0.386496	0.08418	0.665	0.245	-0.875	-0.5805	-1.2285	0.003
06/19/2025 13:44:44.617	0.915976	0.392352	0.085156	0.98	0.595	-0.84	-0.597	-1.2285	0
06/19/2025 13:44:44.637	0.911584	0.398208	0.084424	0.07	0.665	-0.945	-0.594	-1.2465	0.015
06/19/2025 13:44:44.657	0.904264	0.388204	0.081008	-2.205	0.77	-1.68	-0.6105	-1.2465	0.003
06/19/2025 13:44:44.677	0.90768	0.387228	0.073444	-2.73	0.91	-2.625	-0.633	-1.26	0.003
06/19/2025 13:44:44.697	0.912316	0.378444	0.072224	-2.765	1.155	-3.43	-0.621	-1.266	0.015
06/19/2025 13:44:44.717	0.913048	0.377468	0.072224	-2.485	1.33	-4.095	-0.6345	-1.308	-0.003
06/19/2025 13:44:44.737	0.913536	0.384056	0.073932	-2.065	1.715	-4.34	-0.651	-1.317	0.003
06/19/2025 13:44:44.757	0.915	0.382348	0.074176	-2.345	2.345	-4.375	-0.66	-1.323	-0.0075
06/19/2025 13:44:44.777	0.909388	0.366488	0.066368	-2.695	2.8	-4.48	-0.6735	-1.3155	0.003
06/19/2025 13:44:44.797	0.902068	0.373076	0.065636	-2.135	2.765	-4.795	-0.6855	-1.3155	0
06/19/2025 13:44:44.817	0.90158	0.37454	0.066124	-1.75	2.485	-4.935	-0.6945	-1.3155	0
06/19/2025 13:44:44.837	0.907924	0.375272	0.073688	-2.275	1.925	-4.935	-0.6825	-1.3305	0.0075
06/19/2025 13:44:44.857	0.901824	0.377712	0.06954	-2.765	1.47	-4.935	-0.702	-1.323	0
06/19/2025 13:44:44.877	0.91012	0.3782	0.06588	-4.025	1.155	-4.69	-0.702	-1.323	0
06/19/2025 13:44:44.897	0.909144	0.377468	0.066124	-5.04	0.875	-4.55	-0.699	-1.347	0.006
06/19/2025 13:44:44.917	0.904508	0.37942	0.064416	-4.48	0.56	-4.97	-0.708	-1.332	0
06/19/2025 13:44:44.937	0.9089	0.3843	0.074176	-4.27	0	-5.355	-0.699	-1.3605	-0.003
06/19/2025 13:44:44.957	0.91866	0.38674	0.073932	-3.99	-0.175	-5.81	-0.708	-1.3395	0.0075
06/19/2025 13:44:44.977	0.916464	0.397476	0.075884	-4.375	-0.455	-6.09	-0.6945	-1.332	0.0075
06/19/2025 13:44:44.997	0.923784	0.391864	0.079788	-4.69	-0.385	-6.23	-0.6915	-1.332	0.0075
06/19/2025 13:44:45.017	0.917684	0.39284	0.073932	-4.48	-0.105	-6.3	-0.6945	-1.335	0.0225
06/19/2025 13:44:45.037	0.903532	0.408456	0.080764	-4.55	-0.77	-5.6	-0.687	-1.344	-0.003
06/19/2025 13:44:45.057	0.896456	0.406992	0.096136	-6.335	-1.925	-4.585	-0.6855	-1.3485	0.003
06/19/2025 13:44:45.077	0.88328	0.42456	0.109556	-9.45	-3.885	-3.36	-0.699	-1.347	0.015
06/19/2025 13:44:45.097	0.888892	0.439932	0.127368	-13.545	-5.705	-2.695	-0.7125	-1.3485	0.003
06/19/2025 13:44:45.117	0.912316	0.454572	0.134688	-17.815	-6.475	-2.1	-0.6945	-1.344	0.006
06/19/2025 13:44:45.137	0.92476	0.438468	0.132492	-22.4	-5.39	-2.345	-0.69	-1.3485	0.0075
06/19/2025 13:44:45.157	0.92232	0.429684	0.121756	-22.12	-2.135	-3.85	-0.6915	-1.3485	0.015
06/19/2025 13:44:45.177	0.914024	0.422852	0.119316	-18.725	1.575	-5.985	-0.6825	-1.3515	0
06/19/2025 13:44:45.197	0.924028	0.43188	0.140056	-9.625	6.755	-10.185	-0.6825	-1.3515	0
06/19/2025 13:44:45.217	0.924028	0.45262	0.15372	-2.205	10.255	-13.615	-0.6855	-1.3485	0
06/19/2025 13:44:45.237	0.914512	0.464576	0.161528	5.985	13.09	-17.15	-0.6915	-1.3605	0
06/19/2025 13:44:45.257	0.9089	0.477752	0.15982	11.62	15.225	-20.405	-0.687	-1.3485	0
06/19/2025 13:44:45.277	0.901092	0.477508	0.163236	14.77	16.8	-23.415	-0.681	-1.3275	-0.0225
06/19/2025 13:44:45.297	0.905972	0.510936	0.155672	17.255	18.2	-26.6	-0.6615	-1.332	-0.0075
06/19/2025 13:44:45.317	0.915732	0.528016	0.157868	19.04	19.11	-30.45	-0.651	-1.317	-0.012
06/19/2025 13:44:45.337	0.920368	0.524356	0.158356	24.64	21.14	-35.21	-0.6435	-1.3185	-0.024
06/19/2025 13:44:45.357	0.914268	0.526552	0.14396	35.175	23.555	-42	-0.6375	-1.3185	-0.012
06/19/2025 13:44:45.377	0.911828	0.541192	0.118828	50.26	25.69	-50.785	-0.6405	-1.293	-0.0045
06/19/2025 13:44:45.397	0.895724	0.573644	0.114924	68.04	28.21	-60.305	-0.6195	-1.2885	-0.0075
06/19/2025 13:44:45.417	0.883524	0.623908	0.132248	83.44	28.84	-69.51	-0.615	-1.263	0
06/19/2025 13:44:45.437	0.855464	0.70272	0.151036	88.655	28.84	-76.685	-0.612	-1.26	0
06/19/2025 13:44:45.457	0.811544	0.779336	0.138104	82.04	28.14	-85.54	-0.612	-1.26	0
06/19/2025 13:44:45.477	0.785436	0.846436	0.136884	69.125	25.9	-89.285	-0.612	-1.26	0
06/19/2025 13:44:45.497	0.773968	0.871568	0.15494	45.815	22.19	-91.385	-0.5805	-1.2615	0.006
06/19/2025 13:44:45.517	0.768844	0.901336	0.174216	24.815	20.195	-94.36	-0.5775	-1.269	0.021
06/19/2025 13:44:45.537	0.75396	0.923052	0.156404	3.885	19.04	-96.985	-0.57	-1.2705	0.015
06/19/2025 13:44:45.557	0.733464	0.915488	0.139812	-20.685	17.955	-98.665	-0.5535	-1.293	0.0015
06/19/2025 13:44:45.577	0.715896	0.867664	0.132248	-35.525	18.865	-101.08	-0.555	-1.29	-0.0015
06/19/2025 13:44:45.597	0.691252	0.854732	0.128832	-39.27	19.88	-103.005	-0.549	-1.311	-0.006
06/19/2025 13:44:45.617	0.65514	0.86254	0.14762	-42.245	21.14	-104.055	-0.5265	-1.3305	-0.015
06/19/2025 13:44:45.637	0.636108	0.86376	0.131272	-55.055	20.825	-102.62	-0.537	-1.356	-0.018
06/19/2025 13:44:45.657	0.597068	0.836188	0.128344	-69.685	21.665	-100.24	-0.528	-1.3845	-0.027
06/19/2025 13:44:45.677	0.57706	0.878644	0.152988	-75.635	21.77	-96.53	-0.5085	-1.4325	-0.0465
06/19/2025 13:44:45.697	0.566324	0.852048	0.141032	-89.39	21.035	-91.525	-0.4905	-1.446	-0.0765
06/19/2025 13:44:45.717	0.528992	0.8174	0.189588	-92.12	19.075	-86.205	-0.4725	-1.4745	-0.0795
06/19/2025 13:44:45.737	0.5124	0.842776	0.228872	-83.475	16.415	-84.56	-0.4725	-1.4745	-0.0795
06/19/2025 13:44:45.757	0.485072	0.84912	0.231312	-81.655	13.755	-82.775	-0.4545	-1.548	-0.141
06/19/2025 13:44:45.777	0.464332	0.85644	0.264008	-79.66	12.11	-80.85	-0.4545	-1.548	-0.141
06/19/2025 13:44:45.797	0.453352	0.870836	0.2745	-79.24	10.5	-78.715	-0.429	-1.536	-0.1725
06/19/2025 13:44:45.817	0.423584	0.856196	0.291336	-83.125	10.045	-76.195	-0.426	-1.5615	-0.177
06/19/2025 13:44:45.837	0.410896	0.827648	0.304268	-91.49	9.695	-72.485	-0.417	-1.593	-0.201
06/19/2025 13:44:45.857	0.372832	0.787632	0.33428	-94.64	10.675	-68.845	-0.396	-1.605	-0.2175
06/19/2025 13:44:45.877	0.35502	0.766892	0.350872	-95.9	10.57	-64.19	-0.378	-1.605	-0.2235
06/19/2025 13:44:45.897	0.331352	0.723216	0.3721	-91.875	11.235	-61.18	-0.357	-1.6215	-0.2595
06/19/2025 13:44:45.917	0.297924	0.689056	0.39162	-79.59	12.495	-58.065	-0.3405	-1.641	-0.276
06/19/2025 13:44:45.937	0.27206	0.667828	0.4026	-66.57	13.23	-53.935	-0.333	-1.638	-0.306
06/19/2025 13:44:45.957	0.2562	0.683444	0.405528	-58.695	12.04	-48.79	-0.3495	-1.6545	-0.327
06/19/2025 13:44:45.977	0.236436	0.668804	0.414556	-56.98	11.55	-43.05	-0.3315	-1.662	-0.342
06/19/2025 13:44:45.997	0.21472	0.687104	0.456036	-57.75	8.54	-32.725	-0.312	-1.683	-0.3585
06/19/2025 13:44:46.017	0.193492	0.696376	0.486292	-60.27	6.685	-27.37	-0.285	-1.686	-0.3915
06/19/2025 13:44:46.037	0.192028	0.705892	0.515572	-55.58	3.815	-24.22	-0.2685	-1.6875	-0.396
06/19/2025 13:44:46.057	0.177632	0.720288	0.529236	-52.465	0.77	-22.19	-0.2535	-1.707	-0.423
06/19/2025 13:44:46.077	0.195444	0.728584	0.551684	-48.825	-2.555	-21.14	-0.2595	-1.7205	-0.4395
06/19/2025 13:44:46.097	0.18544	0.72956	0.586576	-44.24	-3.325	-20.51	-0.2505	-1.7145	-0.4635
06/19/2025 13:44:46.117	0.175192	0.762012	0.605364	-42.175	-4.34	-20.545	-0.246	-1.719	-0.4725
06/19/2025 13:44:46.137	0.172264	0.721264	0.601216	-48.615	-5.915	-20.51	-0.2385	-1.7205	-0.48
06/19/2025 13:44:46.157	0.163968	0.726632	0.6283	-45.29	-5.285	-21.035	-0.2085	-1.7235	-0.489
06/19/2025 13:44:46.177	0.164944	0.731756	0.653188	-39.9	-4.62	-21.77	-0.2055	-1.716	-0.5055
06/19/2025 13:44:46.197	0.168116	0.735904	0.685152	-35.315	-3.395	-22.47	-0.1815	-1.707	-0.528
06/19/2025 13:44:46.217	0.145912	0.704916	0.69662	-33.18	-1.82	-23.275	-0.1815	-1.7175	-0.5325
06/19/2025 13:44:46.237	0.129076	0.708576	0.726388	-32.9	-1.575	-23.555	-0.1815	-1.7175	-0.5325
06/19/2025 13:44:46.257	0.121756	0.661728	0.740296	-33.425	-1.47	-25.235	-0.1725	-1.728	-0.564
06/19/2025 13:44:46.277	0.107848	0.671488	0.749812	-26.705	0.455	-25.935	-0.1725	-1.728	-0.564
06/19/2025 13:44:46.297	0.10248	0.655628	0.78202	-25.375	1.33	-25.97	-0.1755	-1.7055	-0.579
06/19/2025 13:44:46.317	0.09882	0.63562	0.78934	-23.975	3.045	-25.9	-0.165	-1.707	-0.5925
06/19/2025 13:44:46.337	0.083204	0.63928	0.812276	-18.445	6.3	-26.04	-0.15	-1.707	-0.5955
06/19/2025 13:44:46.357	0.08052	0.63928	0.836676	-14.665	8.68	-26.005	-0.123	-1.701	-0.597
06/19/2025 13:44:46.377	0.07808	0.627812	0.851072	-10.885	10.885	-25.865	-0.15	-1.7145	-0.6015
06/19/2025 13:44:46.397	0.05246	0.635864	0.84058	-5.425	15.015	-25.865	-0.1395	-1.7085	-0.609
06/19/2025 13:44:46.417	0.040992	0.649772	0.845216	-1.12	18.48	-25.935	-0.1455	-1.698	-0.6
06/19/2025 13:44:46.437	0.027084	0.650504	0.856928	-0.77	21.175	-25.725	-0.135	-1.7025	-0.6075
06/19/2025 13:44:46.457	0.012444	0.644892	0.855464	-0.735	24.01	-25.41	-0.1215	-1.692	-0.612
06/19/2025 13:44:46.477	-0.006832	0.617076	0.820572	0.84	26.495	-25.69	-0.1215	-1.704	-0.612
06/19/2025 13:44:46.497	-0.018544	0.660264	0.821304	10.29	28.875	-26.74	-0.1095	-1.7085	-0.6045
06/19/2025 13:44:46.517	-0.029524	0.687592	0.815448	11.34	30.695	-26.355	-0.09	-1.6995	-0.6045
06/19/2025 13:44:46.537	-0.051728	0.671732	0.801296	-4.725	31.36	-24.85	-0.09	-1.6995	-0.6045
06/19/2025 13:44:46.557	-0.068076	0.648552	0.767868	-10.955	31.92	-22.96	-0.09	-1.6995	-0.6045
06/19/2025 13:44:46.577	-0.084912	0.610732	0.74054	-11.13	32.515	-21.49	-0.072	-1.707	-0.6045
06/19/2025 13:44:46.597	-0.101016	0.633668	0.7259	-5.495	33.32	-20.37	-0.066	-1.6995	-0.6045
06/19/2025 13:44:46.617	-0.092232	0.621224	0.721508	-4.48	31.99	-18.27	-0.057	-1.6905	-0.609
06/19/2025 13:44:46.637	-0.096136	0.643184	0.705892	-7.42	31.185	-15.33	-0.042	-1.7025	-0.621
06/19/2025 13:44:46.657	-0.104432	0.61244	0.690764	-17.885	30.065	-11.445	-0.0495	-1.683	-0.6135
06/19/2025 13:44:46.677	-0.110776	0.589992	0.682224	-29.995	27.895	-6.895	-0.0405	-1.6815	-0.615
06/19/2025 13:44:46.697	-0.123464	0.571204	0.674416	-40.81	24.29	-1.505	-0.0405	-1.689	-0.63
06/19/2025 13:44:46.717	-0.086132	0.580232	0.67588	-47.145	18.27	4.2	-0.024	-1.662	-0.63
06/19/2025 13:44:46.737	-0.092232	0.570228	0.660996	-47.74	14.385	8.225	-0.0555	-1.6545	-0.6525
06/19/2025 13:44:46.757	-0.073444	0.565348	0.663436	-40.075	10.465	10.29	-0.0345	-1.6455	-0.6735
06/19/2025 13:44:46.777	-0.080032	0.568764	0.682712	-28.28	6.3	10.045	-0.069	-1.647	-0.66
06/19/2025 13:44:46.797	-0.082228	0.608048	0.719556	-15.19	-0.7	8.4	-0.0765	-1.6425	-0.6765
06/19/2025 13:44:46.817	-0.076616	0.619516	0.73688	-17.78	-5.215	7.98	-0.0765	-1.6425	-0.6765
06/19/2025 13:44:46.837	-0.0793	0.611464	0.767624	-21.595	-9.275	7.21	-0.0765	-1.626	-0.66
06/19/2025 13:44:46.857	-0.083692	0.587552	0.770308	-27.86	-13.44	5.88	-0.0945	-1.626	-0.672
06/19/2025 13:44:46.877	-0.097112	0.581696	0.775676	-29.68	-17.045	4.305	-0.105	-1.626	-0.66
06/19/2025 13:44:46.897	-0.092964	0.550952	0.805688	-29.19	-20.405	2.59	-0.114	-1.623	-0.6795
06/19/2025 13:44:46.917	-0.097844	0.503372	0.82716	-33.565	-23.485	1.715	-0.1155	-1.6155	-0.684
06/19/2025 13:44:46.937	-0.092476	0.508984	0.86376	-33.88	-26.005	1.085	-0.123	-1.6155	-0.678
06/19/2025 13:44:46.957	-0.084424	0.508008	0.89914	-31.15	-25.305	0.35	-0.1095	-1.6065	-0.6915
06/19/2025 13:44:46.977	-0.102236	0.501908	0.923052	-25.515	-21.84	-0.84	-0.126	-1.611	-0.6945
06/19/2025 13:44:46.997	-0.1037	0.488488	0.94184	-22.54	-18.795	-1.365	-0.1305	-1.6035	-0.699
06/19/2025 13:44:47.017	-0.088084	0.506056	0.976	-14.735	-14.875	-1.96	-0.147	-1.608	-0.6855
06/19/2025 13:44:47.037	-0.080276	0.488976	0.971608	-8.855	-9.695	-3.115	-0.144	-1.6005	-0.7065
06/19/2025 13:44:47.057	-0.091256	0.488488	0.978928	2.485	-3.115	-4.83	-0.1395	-1.599	-0.699
06/19/2025 13:44:47.077	-0.10126	0.52948	0.975024	16.73	4.06	-7.875	-0.129	-1.5945	-0.702
06/19/2025 13:44:47.097	-0.0976	0.530944	0.965996	17.01	7.735	-9.275	-0.114	-1.5945	-0.699
06/19/2025 13:44:47.117	-0.09882	0.543388	0.962824	20.51	11.83	-11.025	-0.0975	-1.602	-0.696
06/19/2025 13:44:47.137	-0.105164	0.553148	0.948428	23.03	14.21	-12.635	-0.0975	-1.602	-0.696
06/19/2025 13:44:47.157	-0.110044	0.565104	0.940864	24.955	16.73	-14.91	-0.0915	-1.5975	-0.6915
06/19/2025 13:44:47.177	-0.1159	0.576816	0.92598	25.095	18.795	-16.59	-0.105	-1.611	-0.6915
06/19/2025 13:44:47.197	-0.126636	0.575108	0.911828	24.36	20.86	-19.04	-0.1065	-1.6035	-0.6825
06/19/2025 13:44:47.217	-0.121756	0.59536	0.904996	25.445	22.54	-21.035	-0.1005	-1.6185	-0.6675
06/19/2025 13:44:47.237	-0.12932	0.597068	0.872544	20.265	23.835	-21.14	-0.0795	-1.617	-0.6645
06/19/2025 13:44:47.257	-0.12932	0.588528	0.854488	12.005	24.115	-20.055	-0.084	-1.6125	-0.66
06/19/2025 13:44:47.277	-0.14274	0.56364	0.831552	-0.245	23.87	-18.69	-0.063	-1.614	-0.648
06/19/2025 13:44:47.297	-0.14396	0.520696	0.809104	-7.175	22.75	-17.99	-0.06	-1.6245	-0.6525
06/19/2025 13:44:47.317	-0.15494	0.532408	0.814228	-1.75	22.225	-17.5	-0.06	-1.638	-0.6495
06/19/2025 13:44:47.337	-0.159332	0.538996	0.793244	-5.635	19.95	-15.155	-0.051	-1.632	-0.6405
06/19/2025 13:44:47.357	-0.168848	0.51362	0.788364	-11.025	18.83	-12.88	-0.051	-1.632	-0.6405
06/19/2025 13:44:47.377	-0.169336	0.503128	0.778848	-12.18	17.115	-10.325	-0.0285	-1.632	-0.657
06/19/2025 13:44:47.397	-0.182756	0.501664	0.780068	-10.08	15.295	-8.295	-0.009	-1.623	-0.6765
06/19/2025 13:44:47.417	-0.185684	0.510204	0.766892	-4.83	12.11	-6.86	-0.003	-1.635	-0.669
06/19/2025 13:44:47.437	-0.204228	0.47702	0.752008	-5.18	8.435	-4.165	0.003	-1.635	-0.678
06/19/2025 13:44:47.457	-0.20008	0.478972	0.753716	-5.845	3.395	-1.645	0.012	-1.644	-0.681
06/19/2025 13:44:47.477	-0.195444	0.504348	0.764452	-5.915	-1.225	0.245	0.0105	-1.6365	-0.6645
06/19/2025 13:44:47.497	-0.183732	0.498492	0.779092	-9.205	-5.11	1.75	0.0075	-1.6365	-0.6765
06/19/2025 13:44:47.517	-0.174948	0.51484	0.7991	-6.93	-6.265	2.765	0.0285	-1.6305	-0.69
06/19/2025 13:44:47.537	-0.1708	0.51728	0.803736	-5.285	-5.67	4.06	0.042	-1.6425	-0.6975
06/19/2025 13:44:47.557	-0.182512	0.498004	0.824476	-6.195	-4.34	4.41	0.042	-1.6215	-0.693
06/19/2025 13:44:47.577	-0.18178	0.512644	0.832772	-3.465	-4.48	4.725	0.0375	-1.635	-0.6975
06/19/2025 13:44:47.597	-0.193248	0.540216	0.829844	1.05	-3.22	4.655	0.0375	-1.635	-0.6975
06/19/2025 13:44:47.617	-0.192516	0.504836	0.842044	2.66	-4.445	4.9	0.039	-1.6395	-0.7065
06/19/2025 13:44:47.637	-0.19276	0.561688	0.862296	10.535	-3.57	4.41	0.027	-1.623	-0.714
06/19/2025 13:44:47.657	-0.191296	0.570472	0.8601	7.805	-3.255	3.675	0.039	-1.6275	-0.717
06/19/2025 13:44:47.677	-0.205692	0.577792	0.862052	4.2	-2.03	2.345	0.039	-1.6395	-0.6975
06/19/2025 13:44:47.697	-0.199592	0.565348	0.871568	1.96	-1.645	1.295	0.03	-1.6365	-0.7125
06/19/2025 13:44:47.717	-0.198616	0.555344	0.874496	1.225	-1.19	0.35	0.033	-1.6425	-0.6945
06/19/2025 13:44:47.737	-0.199104	0.552416	0.869128	0.175	-0.245	-0.525	0.03	-1.644	-0.6945
06/19/2025 13:44:47.757	-0.19886	0.571936	0.868152	-0.21	0.945	-1.015	0.018	-1.6365	-0.717
06/19/2025 13:44:47.777	-0.213744	0.56242	0.865224	-2.835	2.31	-2.345	0.009	-1.644	-0.702
06/19/2025 13:44:47.797	-0.207156	0.525332	0.86254	-6.195	2.66	-2.695	0.0075	-1.6485	-0.7125
06/19/2025 13:44:47.817	-0.206424	0.54534	0.872788	-3.185	4.025	-3.22	0.012	-1.6515	-0.7065
06/19/2025 13:44:47.837	-0.205448	0.53802	0.865712	-0.49	5.53	-3.71	0.021	-1.6485	-0.7185
06/19/2025 13:44:47.857	-0.214232	0.533872	0.84546	2.905	7.21	-4.165	0.0195	-1.6275	-0.6885
06/19/2025 13:44:47.877	-0.2196	0.567056	0.844728	4.9	8.155	-4.62	0.033	-1.6395	-0.717
06/19/2025 13:44:47.897	-0.232044	0.53314	0.83326	-0.735	7.455	-4.41	0.033	-1.6395	-0.717
06/19/2025 13:44:47.917	-0.213988	0.52948	0.830088	-0.91	6.09	-4.9	0.015	-1.6485	-0.702
06/19/2025 13:44:47.937	-0.216672	0.519476	0.816424	0.14	5.145	-4.865	0.009	-1.6365	-0.714
06/19/2025 13:44:47.957	-0.210084	0.541924	0.81008	2.87	4.41	-4.27	0.0225	-1.635	-0.717
06/19/2025 13:44:47.977	-0.217892	0.540704	0.8113	1.47	3.71	-3.71	0.03	-1.632	-0.705
06/19/2025 13:44:47.997	-0.215208	0.524356	0.8113	-1.925	3.15	-2.59	0.048	-1.6275	-0.7095
06/19/2025 13:44:48.017	-0.211548	0.506544	0.816424	-3.675	2.275	-1.47	0.0375	-1.638	-0.7125
06/19/2025 13:44:48.037	-0.211304	0.506788	0.818864	-1.89	2.415	-0.07	0.0555	-1.6395	-0.723
06/19/2025 13:44:48.057	-0.216428	0.505568	0.816668	0.805	2.835	1.295	0.03	-1.632	-0.714
06/19/2025 13:44:48.077	-0.21716	0.511912	0.811788	3.885	2.765	2.555	0.0225	-1.62	-0.717
06/19/2025 13:44:48.097	-0.218136	0.51362	0.811544	6.965	2.66	3.885	0.0165	-1.614	-0.702
06/19/2025 13:44:48.117	-0.215696	0.521428	0.808128	8.47	1.89	5.32	0.021	-1.6155	-0.702
06/19/2025 13:44:48.137	-0.213012	0.515816	0.813984	6.685	0.595	6.335	0.018	-1.614	-0.708
06/19/2025 13:44:48.157	-0.20862	0.528016	0.81008	9.975	-1.54	7.07	0.018	-1.614	-0.708
06/19/2025 13:44:48.177	-0.204228	0.552172	0.8113	9.52	-3.01	7.945	-0.0105	-1.6065	-0.7035
06/19/2025 13:44:48.197	-0.200568	0.572668	0.824232	7.21	-4.34	9.135	-0.012	-1.62	-0.7035
06/19/2025 13:44:48.217	-0.194468	0.567788	0.822036	2.38	-4.55	9.345	-0.0255	-1.62	-0.6735
06/19/2025 13:44:48.237	-0.205936	0.564372	0.820816	0.14	-4.69	9.31	-0.0435	-1.626	-0.669
06/19/2025 13:44:48.257	-0.20252	0.546316	0.816912	-1.19	-5.18	9.275	-0.054	-1.617	-0.6795
06/19/2025 13:44:48.277	-0.205936	0.530456	0.81496	0.805	-5.11	9.555	-0.06	-1.6215	-0.672
06/19/2025 13:44:48.297	-0.195444	0.54412	0.816424	4.515	-5.32	9.485	-0.0495	-1.608	-0.669
06/19/2025 13:44:48.317	-0.188612	0.549488	0.82838	6.685	-5.005	8.82	-0.054	-1.617	-0.669
06/19/2025 13:44:48.337	-0.190564	0.57096	0.833016	8.715	-4.27	8.61	-0.0585	-1.62	-0.669
06/19/2025 13:44:48.357	-0.191784	0.578036	0.833992	7.49	-3.43	8.505	-0.0585	-1.6095	-0.657
06/19/2025 13:44:48.377	-0.1891	0.578768	0.836432	6.055	-2.8	8.4	-0.06	-1.6215	-0.663
06/19/2025 13:44:48.397	-0.183488	0.58194	0.830088	5.355	-2.1	8.26	-0.0705	-1.6125	-0.657
06/19/2025 13:44:48.417	-0.176412	0.5856	0.84668	8.89	-0.315	6.79	-0.084	-1.617	-0.6555
06/19/2025 13:44:48.437	-0.181048	0.59658	0.838628	9.87	0.84	6.055	-0.06	-1.6335	-0.6525
06/19/2025 13:44:48.457	-0.183488	0.609756	0.832284	9.415	1.645	5.04	-0.0435	-1.6155	-0.648
06/19/2025 13:44:48.477	-0.184464	0.610976	0.830576	6.65	2.345	4.69	-0.0585	-1.6215	-0.6435
06/19/2025 13:44:48.497	-0.192516	0.600972	0.8235	4.76	3.115	4.34	-0.0585	-1.6215	-0.6435
06/19/2025 13:44:48.517	-0.19764	0.602436	0.81374	2.94	3.115	3.955	-0.063	-1.62	-0.636
06/19/2025 13:44:48.537	-0.193004	0.590968	0.800564	-1.855	2.87	2.45	-0.0555	-1.6335	-0.648
06/19/2025 13:44:48.557	-0.190564	0.570716	0.793976	-2.45	2.065	1.995	-0.051	-1.6245	-0.648
06/19/2025 13:44:48.577	-0.18788	0.573888	0.805688	0.175	1.26	1.995	-0.069	-1.626	-0.657
06/19/2025 13:44:48.597	-0.184952	0.586576	0.81008	3.185	0.455	2.135	-0.0765	-1.617	-0.6405
06/19/2025 13:44:48.617	-0.183488	0.599508	0.809592	4.06	0.035	2.17	-0.0585	-1.6215	-0.6405
06/19/2025 13:44:48.637	-0.186172	0.584136	0.803248	1.89	0.14	2.835	-0.051	-1.6125	-0.648
06/19/2025 13:44:48.657	-0.1891	0.581696	0.806176	0.21	0.07	3.675	-0.0525	-1.62	-0.633
06/19/2025 13:44:48.677	-0.183976	0.568276	0.804224	-0.665	0.315	4.025	-0.0675	-1.6305	-0.645
06/19/2025 13:44:48.697	-0.171776	0.583404	0.819596	2.625	0.805	2.905	-0.0675	-1.6305	-0.645
06/19/2025 13:44:48.717	-0.173484	0.606584	0.821304	5.04	1.54	2.17	-0.0645	-1.6425	-0.6405
06/19/2025 13:44:48.737	-0.171288	0.612928	0.818864	4.2	2.17	2.03	-0.0645	-1.6455	-0.6405
06/19/2025 13:44:48.757	-0.17324	0.61244	0.811056	2.94	2.625	1.435	-0.06	-1.6485	-0.63
06/19/2025 13:44:48.777	-0.171044	0.61244	0.821792	2.975	2.625	1.085	-0.027	-1.6485	-0.6525
06/19/2025 13:44:48.797	-0.1769	0.614148	0.813984	3.22	2.905	0.49	-0.045	-1.6575	-0.645
06/19/2025 13:44:48.817	-0.189344	0.609512	0.811788	1.68	3.01	-0.385	-0.0225	-1.656	-0.6375
06/19/2025 13:44:48.837	-0.186416	0.610732	0.81618	0.945	2.905	-1.365	-0.0315	-1.6575	-0.6495
06/19/2025 13:44:48.857	-0.193004	0.599508	0.798124	-0.175	1.995	-2.135	-0.0315	-1.6575	-0.645
06/19/2025 13:44:48.877	-0.194224	0.589992	0.807396	0.28	1.155	-2.555	0.003	-1.6605	-0.657
06/19/2025 13:44:48.897	-0.192028	0.594872	0.803004	0.21	0.315	-2.59	0.006	-1.659	-0.6585
06/19/2025 13:44:48.917	-0.190808	0.600972	0.809348	-0.07	0.315	-2.695	0.003	-1.6605	-0.642
06/19/2025 13:44:48.937	-0.19764	0.58926	0.805444	-1.19	0.35	-1.855	-0.0015	-1.668	-0.663
06/19/2025 13:44:48.957	-0.18666	0.582672	0.811056	-2.8	0.28	-0.7	0.003	-1.6635	-0.6585
06/19/2025 13:44:48.977	-0.186172	0.580232	0.807884	-2.485	1.26	-0.665	0.015	-1.6725	-0.6615
06/19/2025 13:44:48.997	-0.192028	0.569252	0.798856	-0.21	2.03	-0.63	0.015	-1.6635	-0.6495
06/19/2025 13:44:49.017	-0.1952	0.58072	0.794708	1.925	1.995	-0.105	-0.0015	-1.665	-0.654
06/19/2025 13:44:49.037	-0.18666	0.589992	0.792024	3.01	1.295	0.455	-0.0045	-1.68	-0.666
06/19/2025 13:44:49.057	-0.186416	0.598044	0.789828	2.94	0.525	0.735	0.003	-1.6695	-0.669
06/19/2025 13:44:49.077	-0.183488	0.604876	0.79178	1.365	-0.525	0.63	0.0075	-1.659	-0.651
06/19/2025 13:44:49.097	-0.184952	0.603412	0.790804	0.28	-1.68	0.49	-0.0015	-1.665	-0.6705
06/19/2025 13:44:49.117	-0.17812	0.60024	0.791292	0.14	-2.73	0.385	0.0135	-1.68	-0.6855
06/19/2025 13:44:49.137	-0.172996	0.592432	0.785924	0	-3.43	0.385	-0.0165	-1.662	-0.6615
06/19/2025 13:44:49.157	-0.17446	0.588284	0.79178	0.665	-3.43	0.56	-0.0105	-1.674	-0.6705
06/19/2025 13:44:49.177	-0.180804	0.57462	0.795196	1.75	-3.465	0.63	-0.0045	-1.6575	-0.6855
06/19/2025 13:44:49.197	-0.174948	0.576816	0.79422	3.15	-3.675	0.98	-0.0165	-1.6575	-0.6645
06/19/2025 13:44:49.217	-0.174216	0.595116	0.795928	5.565	-3.045	1.4	-0.027	-1.662	-0.6585
06/19/2025 13:44:49.237	-0.17568	0.603656	0.800564	3.605	-2.66	2.205	-0.027	-1.662	-0.6585
06/19/2025 13:44:49.257	-0.181536	0.589504	0.807152	0.595	-2.415	3.045	-0.0165	-1.6485	-0.654
06/19/2025 13:44:49.277	-0.172508	0.574864	0.804224	-2.695	-4.025	3.745	0.0015	-1.674	-0.6705
06/19/2025 13:44:49.297	-0.177144	0.587552	0.811788	0.84	-3.01	3.745	-0.021	-1.6605	-0.6645
06/19/2025 13:44:49.317	-0.168604	0.592188	0.801052	2.59	-3.92	3.71	-0.03	-1.6575	-0.669
06/19/2025 13:44:49.337	-0.16714	0.605852	0.792024	4.585	-3.64	3.43	-0.021	-1.6665	-0.681
06/19/2025 13:44:49.357	-0.163968	0.613904	0.800808	4.62	-3.85	3.36	-0.009	-1.656	-0.6735
06/19/2025 13:44:49.377	-0.162992	0.601948	0.796416	3.815	-4.095	2.94	-0.0075	-1.6515	-0.6705
06/19/2025 13:44:49.397	-0.159576	0.601704	0.80642	4.83	-3.71	2.45	-0.0225	-1.6695	-0.6645
06/19/2025 13:44:49.417	-0.158112	0.61366	0.809104	5.32	-3.01	2.275	-0.0105	-1.6695	-0.666
06/19/2025 13:44:49.437	-0.15372	0.608536	0.80886	4.655	-2.38	2.625	-0.03	-1.6665	-0.657
06/19/2025 13:44:49.457	-0.159576	0.60268	0.79544	4.41	-1.575	3.15	-0.027	-1.6485	-0.666
06/19/2025 13:44:49.477	-0.158844	0.605364	0.792268	3.78	-1.505	3.605	-0.0315	-1.6485	-0.6495
06/19/2025 13:44:49.497	-0.158112	0.60634	0.792512	2.275	-1.505	4.06	-0.0315	-1.6485	-0.6495
06/19/2025 13:44:49.517	-0.155428	0.603412	0.788852	0.595	-1.855	4.48	-0.0315	-1.6485	-0.6495
06/19/2025 13:44:49.537	-0.1586	0.592676	0.788852	0	-2.485	5.005	-0.0465	-1.6335	-0.6555
06/19/2025 13:44:49.557	-0.15006	0.593164	0.801052	3.43	-2.24	5.46	-0.0675	-1.647	-0.6495
06/19/2025 13:44:49.577	-0.142008	0.59292	0.806664	5.285	-1.96	5.775	-0.0735	-1.6335	-0.648
06/19/2025 13:44:49.597	-0.144936	0.605852	0.804224	7.98	-1.47	6.09	-0.09	-1.6395	-0.636
06/19/2025 13:44:49.617	-0.133956	0.621956	0.803736	9.45	-0.98	6.405	-0.0915	-1.6395	-0.639
06/19/2025 13:44:49.637	-0.139324	0.634644	0.800808	9.03	0.385	6.545	-0.087	-1.641	-0.6255
06/19/2025 13:44:49.657	-0.146888	0.625616	0.794708	7.035	1.12	6.72	-0.0915	-1.6455	-0.6165
06/19/2025 13:44:49.677	-0.143716	0.63318	0.797148	6.09	1.26	6.3	-0.108	-1.65	-0.615
06/19/2025 13:44:49.697	-0.133224	0.644892	0.800076	4.865	0.945	5.845	-0.09	-1.6215	-0.6195
06/19/2025 13:44:49.717	-0.133468	0.643916	0.801052	4.095	1.12	5.46	-0.0915	-1.6395	-0.627
06/19/2025 13:44:49.737	-0.139324	0.64538	0.796904	4.165	1.435	4.9	-0.108	-1.626	-0.6
06/19/2025 13:44:49.757	-0.145668	0.6405	0.793	3.325	1.54	4.165	-0.117	-1.638	-0.603
06/19/2025 13:44:49.777	-0.138348	0.638548	0.790804	3.08	1.33	3.64	-0.117	-1.638	-0.603
06/19/2025 13:44:49.797	-0.144936	0.642208	0.790072	3.85	1.365	3.325	-0.108	-1.6335	-0.597
06/19/2025 13:44:49.817	-0.144448	0.643916	0.79056	4.27	1.4	3.22	-0.1005	-1.6455	-0.5925
06/19/2025 13:44:49.837	-0.145912	0.64782	0.779336	3.885	1.435	3.325	-0.0915	-1.65	-0.5955
06/19/2025 13:44:49.857	-0.144692	0.634156	0.773236	2.73	1.715	3.36	-0.1005	-1.6395	-0.6015
06/19/2025 13:44:49.877	-0.144936	0.621712	0.768356	3.64	2.17	3.745	-0.1005	-1.6395	-0.6015
06/19/2025 13:44:49.897	-0.14518	0.614148	0.76372	6.16	2.765	4.06	-0.111	-1.6395	-0.609
06/19/2025 13:44:49.917	-0.144692	0.607804	0.761524	10.99	3.675	4.095	-0.087	-1.6425	-0.5895
06/19/2025 13:44:49.937	-0.14396	0.5917	0.744932	17.43	4.375	3.92	-0.099	-1.647	-0.5955
06/19/2025 13:44:49.957	-0.151524	0.568032	0.734684	30.695	6.02	3.22	-0.096	-1.6455	-0.5955
06/19/2025 13:44:49.977	-0.140056	0.555588	0.735416	52.535	7.455	1.68	-0.087	-1.6545	-0.5925
06/19/2025 13:44:49.997	-0.132248	0.560224	0.716384	78.575	9.415	-0.455	-0.0885	-1.65	-0.588
06/19/2025 13:44:50.017	-0.111264	0.580232	0.680516	108.5	12.355	-2.695	-0.084	-1.659	-0.561
06/19/2025 13:44:50.037	-0.123952	0.699792	0.622688	148.68	17.045	-5.81	-0.0915	-1.659	-0.5415
06/19/2025 13:44:50.057	-0.143716	0.73566	0.588528	162.365	20.02	-6.37	-0.1035	-1.6785	-0.4815
06/19/2025 13:44:50.077	-0.150792	0.798612	0.553392	171.465	21.63	-6.23	-0.087	-1.686	-0.435
06/19/2025 13:44:50.097	-0.1647	0.868396	0.505568	170.765	22.96	-5.005	-0.0885	-1.7145	-0.3915
06/19/2025 13:44:50.117	-0.178364	0.910852	0.466528	163.975	24.08	-3.64	-0.081	-1.7115	-0.3555
06/19/2025 13:44:50.137	-0.19398	0.965752	0.402356	151.83	24.675	-1.26	-0.069	-1.6995	-0.324
06/19/2025 13:44:50.157	-0.205936	0.959164	0.354532	139.16	25.585	-0.875	-0.0705	-1.7115	-0.273
06/19/2025 13:44:50.177	-0.217892	0.97112	0.293044	132.965	27.195	-1.575	-0.048	-1.7145	-0.2535
06/19/2025 13:44:50.197	-0.224724	0.959408	0.231556	131.145	27.3	-3.36	-0.063	-1.7025	-0.21
06/19/2025 13:44:50.217	-0.22448	0.971852	0.170312	139.65	27.58	-6.685	-0.057	-1.692	-0.174
06/19/2025 13:44:50.237	-0.245464	1.009428	0.099308	150.22	27.195	-10.29	-0.03	-1.6995	-0.1425
06/19/2025 13:44:50.257	-0.249368	1.03456	0.026108	155.89	24.465	-12.95	-0.021	-1.6815	-0.114
06/19/2025 13:44:50.277	-0.249612	1.072624	-0.02196	153.265	20.685	-14.35	-0.015	-1.662	-0.075
06/19/2025 13:44:50.297	-0.251076	1.091412	-0.060512	132.825	14	-13.65	-0.012	-1.659	-0.0345
06/19/2025 13:44:50.317	-0.241072	1.126304	-0.045628	113.19	10.115	-13.44	-0.012	-1.659	-0.0345
06/19/2025 13:44:50.337	-0.225456	1.127768	-0.045872	87.64	7.805	-12.565	-0.0045	-1.6335	0.03
06/19/2025 13:44:50.357	-0.226432	1.079212	-0.059536	65.135	7.14	-12.075	0	-1.614	0.042
06/19/2025 13:44:50.377	-0.233996	1.02602	-0.064172	52.955	6.93	-12.53	0.006	-1.6035	0.0555
06/19/2025 13:44:50.397	-0.237656	1.006012	-0.097844	48.195	5.53	-13.475	0.0015	-1.6005	0.078
06/19/2025 13:44:50.417	-0.238388	0.976	-0.114192	52.64	4.935	-14.21	0.024	-1.596	0.0705
06/19/2025 13:44:50.437	-0.242292	0.992348	-0.138104	62.615	5.145	-14.35	0.0195	-1.5795	0.102
06/19/2025 13:44:50.457	-0.25498	0.99308	-0.170312	67.76	5.39	-14.455	0.021	-1.563	0.114
06/19/2025 13:44:50.477	-0.25742	0.996008	-0.180072	69.3	5.32	-13.265	0.0165	-1.5705	0.117
06/19/2025 13:44:50.497	-0.266204	0.99918	-0.199348	65.31	4.935	-11.305	0.012	-1.542	0.1425
06/19/2025 13:44:50.517	-0.270108	0.965752	-0.193248	56.21	3.5	-9.24	0.0195	-1.536	0.1425
06/19/2025 13:44:50.537	-0.258396	0.976488	-0.203496	50.05	2.1	-8.12	0.012	-1.5195	0.15
06/19/2025 13:44:50.557	-0.253516	0.992592	-0.224724	46.585	1.96	-7.105	0	-1.5135	0.171
06/19/2025 13:44:50.577	-0.263764	0.985516	-0.249612	38.22	2.03	-5.18	0	-1.5135	0.171
06/19/2025 13:44:50.597	-0.259372	0.993324	-0.26474	33.005	1.785	-4.165	0	-1.5135	0.171
06/19/2025 13:44:50.617	-0.274012	0.981612	-0.259372	26.565	1.295	-3.465	0.0225	-1.4895	0.1905
06/19/2025 13:44:50.637	-0.257908	0.97844	-0.260836	17.885	0.7	-3.01	0.021	-1.494	0.186
06/19/2025 13:44:50.657	-0.271572	0.979172	-0.274012	8.295	0.42	-2.94	0.018	-1.488	0.1905
06/19/2025 13:44:50.677	-0.268156	0.945744	-0.288408	-0.875	0.21	-2.485	0.0165	-1.473	0.1995
06/19/2025 13:44:50.697	-0.270352	0.930128	-0.2867	-6.86	-0.07	-1.225	0.0255	-1.4775	0.2025
06/19/2025 13:44:50.717	-0.264984	0.918416	-0.303292	-10.36	-0.945	-0.14	0.036	-1.461	0.195
06/19/2025 13:44:50.737	-0.265472	0.915	-0.304024	-10.745	-1.54	1.12	0.0255	-1.47	0.198
06/19/2025 13:44:50.757	-0.26474	0.920368	-0.286212	-10.5	-2.52	3.045	0.0135	-1.47	0.1905
06/19/2025 13:44:50.777	-0.261812	0.929396	-0.275476	-13.09	-3.71	4.865	0.021	-1.473	0.1905
06/19/2025 13:44:50.797	-0.256688	0.94428	-0.26718	-15.365	-4.305	6.475	0.0045	-1.4745	0.1905
06/19/2025 13:44:50.817	-0.255224	0.929152	-0.263032	-17.535	-4.76	7.7	0.009	-1.47	0.195
06/19/2025 13:44:50.837	-0.261324	0.936472	-0.26718	-21.035	-6.195	8.96	-0.0135	-1.4505	0.183
06/19/2025 13:44:50.857	-0.25864	0.956236	-0.254248	-19.145	-6.685	9.1	-0.0135	-1.4505	0.183
06/19/2025 13:44:50.877	-0.253028	0.950624	-0.238388	-18.235	-6.615	9.275	-0.015	-1.467	0.171
06/19/2025 13:44:50.897	-0.249368	0.968436	-0.234484	-16.485	-5.985	9.205	-0.018	-1.464	0.1755
06/19/2025 13:44:50.917	-0.245708	0.972584	-0.224968	-15.05	-5.39	8.715	-0.0315	-1.467	0.171
06/19/2025 13:44:50.937	-0.246684	0.983564	-0.207644	-12.355	-4.935	8.26	-0.0555	-1.4655	0.153
06/19/2025 13:44:50.957	-0.246196	0.984296	-0.203496	-12.425	-4.13	7.7	-0.0645	-1.458	0.1485
06/19/2025 13:44:50.977	-0.248636	0.9821	-0.205204	-14.175	-3.535	7	-0.057	-1.4775	0.144
06/19/2025 13:44:50.997	-0.252052	0.966972	-0.191052	-15.89	-2.835	6.895	-0.069	-1.47	0.15
06/19/2025 13:44:51.017	-0.243024	0.954772	-0.172996	-16.03	-2.415	6.65	-0.0645	-1.479	0.1395
06/19/2025 13:44:51.037	-0.243512	0.960628	-0.174704	-13.86	-1.225	6.685	-0.069	-1.473	0.1455
06/19/2025 13:44:51.057	-0.246196	0.945988	-0.177876	-11.76	-0.385	6.3	-0.0615	-1.479	0.129
06/19/2025 13:44:51.077	-0.251564	0.942572	-0.191784	-6.475	0.665	5.915	-0.0615	-1.4745	0.144
06/19/2025 13:44:51.097	-0.245952	0.951356	-0.198616	1.295	2.03	5.67	-0.066	-1.4775	0.126
06/19/2025 13:44:51.117	-0.23668	0.973804	-0.203008	9.17	3.605	5.74	-0.078	-1.488	0.129
06/19/2025 13:44:51.137	-0.237168	0.991616	-0.200812	9.835	4.9	5.25	-0.0765	-1.4655	0.1125
06/19/2025 13:44:51.157	-0.23058	0.99552	-0.208864	7.63	5.74	4.445	-0.066	-1.467	0.12
06/19/2025 13:44:51.177	-0.232776	0.995276	-0.20984	6.055	6.02	3.64	-0.069	-1.4865	0.129
06/19/2025 13:44:51.197	-0.233752	0.98942	-0.210572	5.285	5.74	2.94	-0.066	-1.4775	0.1245
06/19/2025 13:44:51.217	-0.233996	0.993812	-0.215452	5.705	5.215	2.555	-0.0645	-1.4625	0.117
06/19/2025 13:44:51.237	-0.232044	0.994788	-0.22204	6.79	4.655	2.415	-0.066	-1.467	0.1245
06/19/2025 13:44:51.257	-0.238388	0.98454	-0.224236	8.155	4.27	2.415	-0.066	-1.467	0.1245
06/19/2025 13:44:51.277	-0.235216	0.985272	-0.231068	9.275	3.64	2.345	-0.072	-1.47	0.1245
06/19/2025 13:44:51.297	-0.229604	0.98942	-0.23668	9.905	3.29	2.205	-0.0705	-1.47	0.141
06/19/2025 13:44:51.317	-0.233752	0.97966	-0.22814	8.575	3.045	2.485	-0.0855	-1.4655	0.1365
06/19/2025 13:44:51.337	-0.2318	0.986004	-0.231556	6.825	2.975	2.555	-0.069	-1.461	0.1485
06/19/2025 13:44:51.357	-0.22936	0.976488	-0.242048	4.97	3.185	2.52	-0.072	-1.461	0.132
06/19/2025 13:44:51.377	-0.216428	0.97844	-0.247172	4.165	2.975	2.135	-0.0735	-1.4775	0.144
06/19/2025 13:44:51.397	-0.22082	0.966972	-0.247416	4.725	2.695	1.54	-0.0735	-1.4775	0.144
06/19/2025 13:44:51.417	-0.219356	0.986736	-0.250588	7.385	2.31	0.525	-0.0795	-1.4835	0.1365
06/19/2025 13:44:51.437	-0.216428	0.9882	-0.256688	7.63	1.715	0.105	-0.0795	-1.47	0.1485
06/19/2025 13:44:51.457	-0.216428	0.987224	-0.244976	8.505	1.33	-0.49	-0.0765	-1.4625	0.144
06/19/2025 13:44:51.477	-0.21838	0.99186	-0.25132	8.645	1.295	-0.945	-0.066	-1.4745	0.153
06/19/2025 13:44:51.497	-0.228628	0.994056	-0.258396	6.16	0.91	-1.015	-0.0585	-1.494	0.144
06/19/2025 13:44:51.517	-0.222284	0.985516	-0.254492	3.29	0.385	-0.42	-0.0315	-1.473	0.153
06/19/2025 13:44:51.537	-0.22204	0.978928	-0.254004	0.42	-0.105	0.28	-0.042	-1.494	0.165
06/19/2025 13:44:51.557	-0.22326	0.966484	-0.25132	-0.945	-0.945	0.7	-0.048	-1.4895	0.153
06/19/2025 13:44:51.577	-0.210328	0.96624	-0.237656	-0.28	-1.785	0.7	-0.027	-1.506	0.1515
06/19/2025 13:44:51.597	-0.212768	0.986248	-0.247904	0.21	-2.415	0.525	-0.012	-1.5015	0.1515
06/19/2025 13:44:51.617	-0.210572	0.984052	-0.249124	0.28	-2.415	0.385	-0.0075	-1.5045	0.159
06/19/2025 13:44:51.637	-0.21228	0.976976	-0.243512	0.665	-2.17	0.595	-0.006	-1.4955	0.162
06/19/2025 13:44:51.657	-0.209352	0.975756	-0.24766	-0.14	-1.295	0.56	-0.006	-1.4955	0.162
06/19/2025 13:44:51.677	-0.213012	0.975268	-0.244488	-0.595	-0.665	0.455	-0.0105	-1.5045	0.174
06/19/2025 13:44:51.697	-0.20618	0.965752	-0.236192	0	-0.14	-0.14	0.018	-1.512	0.174
06/19/2025 13:44:51.717	-0.205448	0.975024	-0.247172	-0.175	0.28	-0.945	0	-1.509	0.168
06/19/2025 13:44:51.737	-0.203984	0.966972	-0.246684	-0.42	1.015	-1.435	-0.0105	-1.512	0.18
06/19/2025 13:44:51.757	-0.20252	0.969412	-0.25376	-0.56	1.645	-1.4	0.009	-1.512	0.1665
06/19/2025 13:44:51.777	-0.204472	0.967948	-0.247172	-0.735	2.17	-1.015	0.0075	-1.509	0.174
06/19/2025 13:44:51.797	-0.20252	0.968192	-0.248148	-0.035	2.52	-1.05	0.0135	-1.4925	0.1755
06/19/2025 13:44:51.817	-0.203252	0.966728	-0.247416	0.91	2.8	-1.015	0.012	-1.524	0.1785
06/19/2025 13:44:51.837	-0.209596	0.962336	-0.249124	1.295	3.045	-0.84	-0.012	-1.5015	0.183
06/19/2025 13:44:51.857	-0.21472	0.95892	-0.247904	1.155	3.325	-0.525	-0.015	-1.5	0.192
06/19/2025 13:44:51.877	-0.213988	0.948672	-0.2501	1.085	3.535	0.105	-0.0165	-1.521	0.1935
06/19/2025 13:44:51.897	-0.217404	0.953552	-0.256932	1.645	3.885	0.98	-0.015	-1.5045	0.183
06/19/2025 13:44:51.917	-0.213256	0.95648	-0.254248	2.03	3.745	2.625	-0.015	-1.5045	0.183
06/19/2025 13:44:51.937	-0.220088	0.971852	-0.257908	1.155	3.71	3.43	-0.015	-1.5045	0.183
06/19/2025 13:44:51.957	-0.213988	0.975024	-0.256688	0.875	3.465	3.57	-0.0105	-1.5015	0.183
06/19/2025 13:44:51.977	-0.209352	0.967948	-0.25498	0.98	3.15	3.36	-0.0105	-1.5045	0.1875
06/19/2025 13:44:51.997	-0.212768	0.975268	-0.250588	2.73	2.835	2.66	-0.021	-1.5	0.18
06/19/2025 13:44:52.017	-0.216428	0.9882	-0.25498	2.765	2.275	1.89	-0.0255	-1.5225	0.1905
06/19/2025 13:44:52.037	-0.21228	0.983076	-0.258152	3.15	2.45	1.085	-0.03	-1.5045	0.1875
06/19/2025 13:44:52.057	-0.211548	0.978196	-0.26108	2.52	2.45	0.63	-0.036	-1.506	0.1785
06/19/2025 13:44:52.077	-0.214964	0.977708	-0.258884	2.1	2.905	-0.105	-0.024	-1.512	0.183
06/19/2025 13:44:52.097	-0.21472	0.975756	-0.260836	1.435	2.975	-0.875	-0.024	-1.506	0.183
06/19/2025 13:44:52.117	-0.224968	0.977464	-0.257664	1.47	3.255	-1.785	-0.0285	-1.485	0.1875
06/19/2025 13:44:52.137	-0.223748	0.970632	-0.261324	0.385	3.43	-2.17	-0.0195	-1.497	0.18
06/19/2025 13:44:52.157	-0.225212	0.969656	-0.25986	-0.56	3.675	-2.38	-0.0195	-1.485	0.1905
06/19/2025 13:44:52.177	-0.230336	0.955748	-0.274256	-1.19	3.745	-2.905	-0.0285	-1.497	0.1845
06/19/2025 13:44:52.197	-0.229848	0.957456	-0.270596	-0.175	3.5	-3.185	-0.0285	-1.497	0.1845
06/19/2025 13:44:52.217	-0.228384	0.969412	-0.271816	0.56	3.01	-3.57	-0.042	-1.4775	0.1845
06/19/2025 13:44:52.237	-0.224724	0.9577	-0.282064	0.35	2.275	-3.71	-0.054	-1.4685	0.1875
06/19/2025 13:44:52.257	-0.221796	0.954772	-0.2806	0.42	1.925	-3.745	-0.054	-1.4595	0.18
06/19/2025 13:44:52.277	-0.224968	0.949892	-0.284748	1.4	1.33	-3.885	-0.048	-1.4655	0.183
06/19/2025 13:44:52.297	-0.228872	0.945256	-0.282552	1.12	0.98	-3.71	-0.066	-1.452	0.174
06/19/2025 13:44:52.317	-0.227652	0.955748	-0.284016	0.945	0.455	-3.605	-0.0705	-1.461	0.1755
06/19/2025 13:44:52.337	-0.227896	0.94916	-0.28304	1.96	0.28	-3.15	-0.0795	-1.4625	0.1815
06/19/2025 13:44:52.357	-0.225456	0.956968	-0.276452	3.64	0.21	-3.08	-0.0945	-1.461	0.1725
06/19/2025 13:44:52.377	-0.222528	0.941596	-0.27328	2.94	-0.7	-3.045	-0.1035	-1.4385	0.177
06/19/2025 13:44:52.397	-0.225456	0.955016	-0.275476	3.08	-1.645	-3.465	-0.09	-1.4535	0.18
06/19/2025 13:44:52.417	-0.223748	0.968436	-0.278404	2.835	-2.205	-3.57	-0.0825	-1.4505	0.165
06/19/2025 13:44:52.437	-0.225944	0.9638	-0.270596	2.065	-2.38	-3.115	-0.081	-1.4415	0.174
06/19/2025 13:44:52.457	-0.231556	0.963312	-0.274988	0.98	-3.15	-1.925	-0.1065	-1.4325	0.1575
06/19/2025 13:44:52.477	-0.221796	0.975268	-0.274744	0	-3.64	-1.225	-0.1155	-1.434	0.165
06/19/2025 13:44:52.497	-0.221796	0.97234	-0.27328	-0.28	-3.99	-0.35	-0.108	-1.443	0.162
06/19/2025 13:44:52.517	-0.212768	0.973072	-0.266936	-0.315	-4.55	0.035	-0.0945	-1.434	0.1605
06/19/2025 13:44:52.537	-0.218868	0.977464	-0.26352	-1.085	-4.76	-0.14	-0.093	-1.437	0.1485
06/19/2025 13:44:52.557	-0.214476	0.980636	-0.255956	-3.36	-4.76	-0.63	-0.0885	-1.4325	0.1425
06/19/2025 13:44:52.577	-0.217404	0.96502	-0.269132	-4.69	-4.305	-0.56	-0.0735	-1.4445	0.156
06/19/2025 13:44:52.597	-0.216428	0.950868	-0.2562	-2.87	-3.64	-0.56	-0.0735	-1.4535	0.1605
06/19/2025 13:44:52.617	-0.220332	0.955504	-0.25742	-0.7	-3.22	-1.015	-0.0735	-1.4535	0.1605
06/19/2025 13:44:52.637	-0.217648	0.96136	-0.259128	0.56	-2.975	-1.54	-0.072	-1.4415	0.15
06/19/2025 13:44:52.657	-0.217648	0.968436	-0.257176	1.61	-1.96	-1.61	-0.0765	-1.4445	0.1455
06/19/2025 13:44:52.677	-0.217404	0.960872	-0.2562	2.38	-0.84	-1.47	-0.078	-1.4535	0.1575
06/19/2025 13:44:52.697	-0.216184	0.952332	-0.260836	2.765	0.315	-0.945	-0.0825	-1.4505	0.153
06/19/2025 13:44:52.717	-0.22326	0.943304	-0.26474	2.45	1.505	-0.14	-0.0735	-1.4565	0.15
06/19/2025 13:44:52.737	-0.217892	0.945012	-0.257908	2.275	2.065	0.07	-0.0735	-1.4565	0.15
06/19/2025 13:44:52.757	-0.230824	0.957456	-0.249124	2.31	2.66	0.49	-0.0645	-1.449	0.153
06/19/2025 13:44:52.777	-0.223016	0.955748	-0.258152	2.065	2.905	0.49	-0.081	-1.446	0.162
06/19/2025 13:44:52.797	-0.230336	0.960384	-0.26596	2.45	3.08	0.805	-0.0795	-1.461	0.165
06/19/2025 13:44:52.817	-0.231312	0.960872	-0.274256	2.485	3.15	1.47	-0.0945	-1.4655	0.168
06/19/2025 13:44:52.837	-0.229116	0.952088	-0.279624	2.1	3.15	2.17	-0.0735	-1.458	0.1725
06/19/2025 13:44:52.857	-0.22692	0.969168	-0.28426	1.225	3.045	3.045	-0.0825	-1.482	0.1605
06/19/2025 13:44:52.877	-0.229116	0.968924	-0.2806	0.56	2.8	3.675	-0.0705	-1.47	0.153
06/19/2025 13:44:52.897	-0.231556	0.9638	-0.286944	1.015	2.555	4.165	-0.048	-1.473	0.1725
06/19/2025 13:44:52.917	-0.225944	0.963312	-0.282796	2.275	1.82	3.78	-0.033	-1.488	0.168
06/19/2025 13:44:52.937	-0.231312	0.969412	-0.285236	2.905	1.015	3.15	-0.054	-1.4805	0.1725
06/19/2025 13:44:52.957	-0.223992	0.979172	-0.288408	2.38	0.385	1.995	-0.0435	-1.4775	0.165
06/19/2025 13:44:52.977	-0.223992	0.96868	-0.290604	1.68	-0.14	1.61	-0.0525	-1.482	0.1605
06/19/2025 13:44:52.997	-0.221308	0.971364	-0.291336	0.7	-0.805	1.085	-0.0525	-1.482	0.1605
06/19/2025 13:44:53.017	-0.225944	0.957944	-0.29158	0.245	-0.805	0.945	-0.0525	-1.482	0.1605
06/19/2025 13:44:53.037	-0.22692	0.96502	-0.279624	0.875	-0.63	1.085	-0.012	-1.491	0.168
06/19/2025 13:44:53.057	-0.227164	0.962336	-0.271816	1.33	-0.28	1.33	-0.006	-1.497	0.18
06/19/2025 13:44:53.077	-0.228872	0.952332	-0.274256	1.155	0.14	1.505	-0.0015	-1.4835	0.183
06/19/2025 13:44:53.097	-0.221796	0.952332	-0.266936	1.645	0	1.575	0	-1.4805	0.18
06/19/2025 13:44:53.117	-0.227408	0.963312	-0.270596	2.275	-0.245	1.54	0	-1.4835	0.183
06/19/2025 13:44:53.137	-0.217404	0.964288	-0.278648	2.59	-0.07	1.505	-0.015	-1.497	0.192
06/19/2025 13:44:53.157	-0.221796	0.965264	-0.279136	2.73	0.175	1.925	-0.0195	-1.485	0.1995
06/19/2025 13:44:53.177	-0.218868	0.945012	-0.278404	1.82	0.595	2.1	-0.003	-1.4805	0.183
06/19/2025 13:44:53.197	-0.216672	0.957212	-0.28426	2.17	0.525	2.135	0.003	-1.488	0.198
06/19/2025 13:44:53.217	-0.223992	0.952576	-0.280356	2.45	0.665	2.38	0	-1.4865	0.198
06/19/2025 13:44:53.237	-0.218624	0.953796	-0.28304	2.52	0.7	2.835	-0.0015	-1.467	0.192
06/19/2025 13:44:53.257	-0.214476	0.949648	-0.28792	2.31	0.665	3.71	-0.015	-1.5	0.21
06/19/2025 13:44:53.277	-0.21106	0.94794	-0.287188	2.24	0.455	4.55	-0.015	-1.5	0.21
06/19/2025 13:44:53.297	-0.207156	0.951356	-0.284992	1.82	0.175	5.39	-0.033	-1.488	0.216
06/19/2025 13:44:53.317	-0.205692	0.959408	-0.286212	0.84	-0.21	6.16	-0.0285	-1.491	0.207
06/19/2025 13:44:53.337	-0.205204	0.955992	-0.288164	0.455	-0.385	6.93	-0.0255	-1.485	0.2145
06/19/2025 13:44:53.357	-0.207156	0.942572	-0.28548	0.77	-0.665	7.455	-0.015	-1.4865	0.2025
06/19/2025 13:44:53.377	-0.198616	0.958676	-0.288164	2.765	-0.98	7.245	-0.021	-1.5	0.192
06/19/2025 13:44:53.397	-0.196664	0.97112	-0.29524	3.08	-1.26	6.65	-0.012	-1.4865	0.2115
06/19/2025 13:44:53.417	-0.197884	0.976976	-0.29524	2.345	-0.875	6.265	-0.0405	-1.488	0.2115
06/19/2025 13:44:53.437	-0.197396	0.976488	-0.293044	1.085	-0.245	6.09	-0.036	-1.4835	0.2085
06/19/2025 13:44:53.457	-0.19642	0.966728	-0.293288	0.56	0.385	5.775	-0.0285	-1.485	0.2115
06/19/2025 13:44:53.477	-0.20008	0.975268	-0.294752	1.085	0.7	5.11	-0.048	-1.473	0.1965
06/19/2025 13:44:53.497	-0.191052	0.958676	-0.29158	1.61	0.84	4.27	-0.0405	-1.4715	0.192
06/19/2025 13:44:53.517	-0.19032	0.979172	-0.29036	2.835	0.665	3.01	-0.027	-1.479	0.1965
06/19/2025 13:44:53.537	-0.195688	0.988688	-0.299388	2.03	0.035	1.61	-0.027	-1.479	0.1965
06/19/2025 13:44:53.557	-0.186172	0.98454	-0.29646	0.455	-0.21	1.225	-0.027	-1.479	0.1965
06/19/2025 13:44:53.577	-0.193492	0.97966	-0.299632	-0.14	-0.14	1.05	-0.036	-1.443	0.192
06/19/2025 13:44:53.597	-0.189344	0.983564	-0.294996	-0.385	-0.315	0.98	-0.054	-1.452	0.1935
06/19/2025 13:44:53.617	-0.190076	0.980392	-0.292068	-0.07	-0.49	0.595	-0.0525	-1.4475	0.201
06/19/2025 13:44:53.637	-0.188368	0.983564	-0.288408	-0.175	-0.735	0.07	-0.0645	-1.44	0.2175
06/19/2025 13:44:53.657	-0.183732	0.980148	-0.286944	-0.385	-0.77	-0.595	-0.069	-1.4355	0.213
06/19/2025 13:44:53.677	-0.189344	0.974048	-0.287432	-1.4	-0.77	-1.12	-0.069	-1.428	0.192
06/19/2025 13:44:53.697	-0.188368	0.973072	-0.287432	-1.575	-0.84	-1.715	-0.078	-1.425	0.201
06/19/2025 13:44:53.717	-0.183244	0.975512	-0.288896	-1.085	-0.665	-2.38	-0.087	-1.4295	0.204
06/19/2025 13:44:53.737	-0.182024	0.96868	-0.296704	-0.7	-0.42	-2.695	-0.102	-1.437	0.186
06/19/2025 13:44:53.757	-0.18422	0.957944	-0.29036	-0.56	-0.07	-2.66	-0.12	-1.437	0.186
06/19/2025 13:44:53.777	-0.18666	0.961848	-0.2928	-0.735	0.105	-2.38	-0.1035	-1.425	0.1965
06/19/2025 13:44:53.797	-0.1891	0.946476	-0.284504	-1.645	0.105	-1.61	-0.0945	-1.437	0.1815
06/19/2025 13:44:53.817	-0.187392	0.954528	-0.284748	-1.295	0.105	-1.225	-0.0945	-1.437	0.1815
06/19/2025 13:44:53.837	-0.187148	0.95282	-0.291824	-1.05	0.035	-0.805	-0.1155	-1.4205	0.174
06/19/2025 13:44:53.857	-0.184708	0.95892	-0.2928	-0.49	0.105	-0.35	-0.114	-1.4265	0.159
06/19/2025 13:44:53.877	-0.189344	0.958676	-0.297192	-0.63	0.455	0.28	-0.1155	-1.431	0.162
06/19/2025 13:44:53.897	-0.186172	0.959164	-0.30012	-0.84	0.42	0.735	-0.114	-1.422	0.162
06/19/2025 13:44:53.917	-0.186172	0.952088	-0.296704	-0.525	0.35	0.665	-0.12	-1.4265	0.1695
06/19/2025 13:44:53.937	-0.19032	0.95648	-0.293776	0.385	0.07	0.385	-0.1065	-1.4175	0.159
06/19/2025 13:44:53.957	-0.184952	0.959652	-0.296704	0.665	-0.07	0.455	-0.1065	-1.4265	0.165
06/19/2025 13:44:53.977	-0.188368	0.96746	-0.293288	0.315	-0.035	0.7	-0.1065	-1.4265	0.165
06/19/2025 13:44:53.997	-0.186904	0.962092	-0.292556	-0.105	0.14	1.05	-0.093	-1.4175	0.159
06/19/2025 13:44:54.017	-0.182268	0.962336	-0.29036	0.14	0.28	0.91	-0.09	-1.428	0.153
06/19/2025 13:44:54.037	-0.192516	0.958676	-0.286212	0.035	0.49	0.7	-0.1035	-1.425	0.162
06/19/2025 13:44:54.057	-0.190808	0.965996	-0.29158	0.49	0.56	0.175	-0.111	-1.425	0.1695
06/19/2025 13:44:54.077	-0.195932	0.951112	-0.285968	0.7	1.47	0.21	-0.1185	-1.4265	0.159
06/19/2025 13:44:54.097	-0.198372	0.954528	-0.284016	0.875	1.96	0.385	-0.1065	-1.416	0.162
06/19/2025 13:44:54.117	-0.198616	0.953796	-0.287188	1.12	2.275	0.42	-0.093	-1.4175	0.1725
06/19/2025 13:44:54.137	-0.193248	0.958188	-0.290604	1.82	2.66	0.21	-0.099	-1.416	0.1665
06/19/2025 13:44:54.157	-0.18178	0.961848	-0.299388	2.24	2.905	-0.07	-0.0855	-1.437	0.1695
06/19/2025 13:44:54.177	-0.174704	0.967704	-0.296948	2.87	3.08	-0.035	-0.1035	-1.4385	0.1725
06/19/2025 13:44:54.197	-0.171288	0.960384	-0.293532	3.045	3.08	-0.315	-0.111	-1.4265	0.165
06/19/2025 13:44:54.217	-0.176168	0.9638	-0.299388	2.485	2.695	-0.595	-0.096	-1.449	0.174
06/19/2025 13:44:54.237	-0.175192	0.950624	-0.29036	1.26	2.1	-0.595	-0.087	-1.4505	0.1545
06/19/2025 13:44:54.257	-0.166164	0.955992	-0.298656	0.385	1.435	-0.035	-0.0945	-1.461	0.177
06/19/2025 13:44:54.277	-0.171532	0.945744	-0.299388	0.455	1.26	1.015	-0.081	-1.446	0.1605
06/19/2025 13:44:54.297	-0.170312	0.945988	-0.30256	1.75	1.26	2.31	-0.0915	-1.4505	0.177
06/19/2025 13:44:54.317	-0.186416	0.94062	-0.297436	1.715	1.365	3.535	-0.075	-1.4565	0.174
06/19/2025 13:44:54.337	-0.18178	0.950136	-0.297436	2.31	1.33	4.69	-0.0795	-1.4655	0.1725
06/19/2025 13:44:54.357	-0.182756	0.936472	-0.2928	2.73	1.54	5.32	-0.0795	-1.4655	0.1725
06/19/2025 13:44:54.377	-0.183	0.940864	-0.29524	3.745	1.715	5.53	-0.0615	-1.4865	0.18
06/19/2025 13:44:54.397	-0.180316	0.94306	-0.306708	5.18	2.17	5.53	-0.057	-1.485	0.183
06/19/2025 13:44:54.417	-0.18178	0.94916	-0.312564	6.195	2.625	5.6	-0.0315	-1.4715	0.1845
06/19/2025 13:44:54.437	-0.173484	0.9577	-0.318664	6.37	3.115	5.915	-0.018	-1.4685	0.1905
06/19/2025 13:44:54.457	-0.168604	0.963312	-0.31476	5.53	3.045	6.09	-0.036	-1.4805	0.1845
06/19/2025 13:44:54.477	-0.155672	0.957456	-0.310368	4.935	2.485	6.02	-0.033	-1.473	0.1995
06/19/2025 13:44:54.497	-0.15738	0.956968	-0.317688	4.725	2.1	6.195	-0.039	-1.4625	0.1995
06/19/2025 13:44:54.517	-0.1525	0.960872	-0.32208	5.215	1.715	6.44	-0.0285	-1.467	0.1905
06/19/2025 13:44:54.537	-0.143472	0.965264	-0.327448	5.145	1.715	6.93	-0.036	-1.473	0.2025
06/19/2025 13:44:54.557	-0.138836	0.961848	-0.331596	4.34	1.96	7.595	-0.0405	-1.4595	0.2205
06/19/2025 13:44:54.577	-0.139324	0.947452	-0.317932	3.5	2.17	8.12	-0.03	-1.4805	0.2205
06/19/2025 13:44:54.597	-0.13908	0.94306	-0.320616	2.975	2.205	8.19	-0.045	-1.476	0.219
06/19/2025 13:44:54.617	-0.13664	0.939644	-0.324032	3.675	2.1	8.645	-0.045	-1.476	0.219
06/19/2025 13:44:54.637	-0.13786	0.934032	-0.325008	4.76	2.065	9.52	-0.045	-1.476	0.219
06/19/2025 13:44:54.657	-0.133468	0.941352	-0.328668	5.04	2.24	10.465	-0.0525	-1.4685	0.219
06/19/2025 13:44:54.677	-0.127856	0.94184	-0.332084	4.55	2.52	11.235	-0.0705	-1.4715	0.228
06/19/2025 13:44:54.697	-0.125904	0.9455	-0.338672	4.445	2.73	11.97	-0.078	-1.461	0.2235
06/19/2025 13:44:54.717	-0.124928	0.958676	-0.337452	4.41	2.52	12.53	-0.0675	-1.4655	0.228
06/19/2025 13:44:54.737	-0.120292	0.954284	-0.335744	3.92	2.485	12.985	-0.0795	-1.4535	0.2295
06/19/2025 13:44:54.757	-0.114192	0.957456	-0.329644	3.885	1.96	12.845	-0.084	-1.4655	0.2325
06/19/2025 13:44:54.777	-0.118828	0.955992	-0.333548	3.57	1.68	12.67	-0.0825	-1.464	0.228
06/19/2025 13:44:54.797	-0.116144	0.964044	-0.3294	3.22	1.575	12.635	-0.084	-1.461	0.228
06/19/2025 13:44:54.817	-0.110288	0.959896	-0.325008	1.155	1.785	13.3	-0.093	-1.4685	0.228
06/19/2025 13:44:54.837	-0.107116	0.959164	-0.325252	-0.63	1.96	13.72	-0.087	-1.4655	0.228
06/19/2025 13:44:54.857	-0.10492	0.95892	-0.329644	-2.31	2.17	13.965	-0.108	-1.446	0.222
06/19/2025 13:44:54.877	-0.093696	0.9638	-0.323544	-0.77	2.1	13.825	-0.0915	-1.449	0.222
06/19/2025 13:44:54.897	-0.086132	0.966728	-0.333548	0.735	1.995	13.65	-0.0915	-1.449	0.222
06/19/2025 13:44:54.917	-0.0793	0.967704	-0.328912	0.84	1.82	13.685	-0.087	-1.4475	0.237
06/19/2025 13:44:54.937	-0.07198	0.965996	-0.327936	-2.555	1.645	14.14	-0.1005	-1.4445	0.2325
06/19/2025 13:44:54.957	-0.068564	0.964532	-0.326228	-6.86	1.61	14.665	-0.129	-1.437	0.225
06/19/2025 13:44:54.977	-0.061488	0.939644	-0.323544	-10.57	1.575	15.19	-0.126	-1.4175	0.237
06/19/2025 13:44:54.997	-0.05734	0.926712	-0.326716	-8.75	1.68	15.155	-0.129	-1.428	0.2265
06/19/2025 13:44:55.017	-0.049044	0.934764	-0.32086	-4.55	2.03	15.33	-0.1425	-1.4145	0.207
06/19/2025 13:44:55.037	-0.042212	0.933056	-0.32452	-1.54	2.485	15.68	-0.1425	-1.413	0.2265
06/19/2025 13:44:55.057	-0.023668	0.957212	-0.314028	1.365	3.115	16.1	-0.1455	-1.4055	0.2145
06/19/2025 13:44:55.077	-0.015128	0.955504	-0.311588	-0.98	3.605	16.73	-0.1665	-1.398	0.2145
06/19/2025 13:44:55.097	-0.00488	0.952088	-0.306464	-3.5	4.41	17.15	-0.1875	-1.395	0.207
06/19/2025 13:44:55.117	-0.000488	0.940376	-0.308172	-4.83	5.425	18.2	-0.1995	-1.386	0.2205
06/19/2025 13:44:55.137	-0.000488	0.937936	-0.30622	-4.165	6.545	19.355	-0.2055	-1.398	0.204
06/19/2025 13:44:55.157	0.009516	0.939644	-0.300364	-3.885	8.365	21.35	-0.2145	-1.392	0.1995
06/19/2025 13:44:55.177	0.020496	0.947208	-0.29402	-4.06	9.45	22.33	-0.225	-1.3755	0.1845
06/19/2025 13:44:55.197	0.028792	0.947208	-0.298168	-4.9	10.465	23.415	-0.2265	-1.38	0.18
06/19/2025 13:44:55.217	0.033428	0.95526	-0.314272	-3.08	11.445	24.43	-0.225	-1.3875	0.165
06/19/2025 13:44:55.237	0.035868	0.9455	-0.31598	-1.505	12.32	26.04	-0.234	-1.3995	0.1725
06/19/2025 13:44:55.257	0.045872	0.951356	-0.319152	2.52	12.53	27.265	-0.243	-1.38	0.1845
06/19/2025 13:44:55.277	0.048556	0.956236	-0.3172	4.34	12.285	28.245	-0.246	-1.3875	0.1815
06/19/2025 13:44:55.297	0.047092	0.962336	-0.31354	4.235	11.48	29.26	-0.243	-1.38	0.1725
06/19/2025 13:44:55.317	0.047824	0.964044	-0.32208	3.115	10.5	30.24	-0.243	-1.38	0.1725
06/19/2025 13:44:55.337	0.05612	0.960384	-0.31964	2.73	9.415	30.73	-0.258	-1.3635	0.162
06/19/2025 13:44:55.357	0.05856	0.963556	-0.31964	2.38	8.54	30.625	-0.2415	-1.3725	0.18
06/19/2025 13:44:55.377	0.072468	0.964776	-0.330376	2.52	8.19	30.17	-0.249	-1.368	0.165
06/19/2025 13:44:55.397	0.077592	0.960384	-0.332572	3.395	8.295	29.645	-0.258	-1.3605	0.162
06/19/2025 13:44:55.417	0.101992	0.9638	-0.33062	5.635	8.925	28.77	-0.2715	-1.3695	0.1665
06/19/2025 13:44:55.437	0.111996	0.96868	-0.320372	6.615	9.275	27.79	-0.264	-1.365	0.1575
06/19/2025 13:44:55.457	0.119072	0.959652	-0.329888	7.805	9.555	26.215	-0.264	-1.3635	0.162
06/19/2025 13:44:55.477	0.125904	0.96014	-0.326472	8.96	9.52	24.71	-0.288	-1.3485	0.177
06/19/2025 13:44:55.497	0.131516	0.968436	-0.321592	7.98	9.24	24.36	-0.2925	-1.3455	0.1635
06/19/2025 13:44:55.517	0.146156	0.959652	-0.32208	6.44	9.625	24.465	-0.288	-1.353	0.1515
06/19/2025 13:44:55.537	0.159576	0.949404	-0.332084	4.585	10.22	25.27	-0.3105	-1.3545	0.159
06/19/2025 13:44:55.557	0.169336	0.93086	-0.336476	4.69	10.71	25.9	-0.306	-1.3575	0.159
06/19/2025 13:44:55.577	0.17934	0.929884	-0.334524	8.05	10.99	26.46	-0.3285	-1.3785	0.174
06/19/2025 13:44:55.597	0.186172	0.9211	-0.334524	9.905	10.675	26.985	-0.309	-1.362	0.174
06/19/2025 13:44:55.617	0.19398	0.912804	-0.326228	11.725	9.94	26.95	-0.3135	-1.3695	0.171
06/19/2025 13:44:55.637	0.20252	0.930128	-0.3294	10.92	8.68	27.37	-0.309	-1.3575	0.1635
06/19/2025 13:44:55.657	0.212524	0.920368	-0.335988	6.685	7.91	27.965	-0.3015	-1.3605	0.174
06/19/2025 13:44:55.677	0.230092	0.9272	-0.343552	3.92	7.665	29.68	-0.327	-1.386	0.174
06/19/2025 13:44:55.697	0.264984	0.91988	-0.323788	1.82	7.875	32.62	-0.327	-1.386	0.174
06/19/2025 13:44:55.717	0.282796	0.909144	-0.300852	-0.84	8.75	33.845	-0.3225	-1.3815	0.186
06/19/2025 13:44:55.737	0.285724	0.920612	-0.303048	-8.4	8.785	35.035	-0.3165	-1.3905	0.183
06/19/2025 13:44:55.757	0.29768	0.890112	-0.311832	-16.695	9.52	36.05	-0.3315	-1.3965	0.1815
06/19/2025 13:44:55.777	0.30866	0.87718	-0.30866	-19.39	10.045	36.96	-0.303	-1.4115	0.2025
06/19/2025 13:44:55.797	0.31598	0.849852	-0.304512	-16.345	10.15	38.115	-0.3285	-1.3905	0.1905
06/19/2025 13:44:55.817	0.316468	0.821548	-0.297436	-6.685	10.29	37.905	-0.3315	-1.392	0.195
06/19/2025 13:44:55.837	0.32696	0.82594	-0.289872	6.825	9.905	37.905	-0.3285	-1.4085	0.1905
06/19/2025 13:44:55.857	0.360876	0.81862	-0.321104	15.96	10.08	38.85	-0.354	-1.407	0.207
06/19/2025 13:44:55.877	0.38308	0.826428	-0.32086	25.69	12.005	39.795	-0.3555	-1.3995	0.2145
06/19/2025 13:44:55.897	0.423828	0.828136	-0.329156	26.95	12.845	41.755	-0.354	-1.383	0.2295
06/19/2025 13:44:55.917	0.464088	0.857416	-0.34526	19.88	13.615	43.575	-0.372	-1.3875	0.2265
06/19/2025 13:44:55.937	0.49166	0.854732	-0.345748	14.875	15.96	43.925	-0.3675	-1.3665	0.228
06/19/2025 13:44:55.957	0.538508	0.806908	-0.343796	10.36	17.815	42.735	-0.3675	-1.3665	0.228
06/19/2025 13:44:55.977	0.551684	0.749324	-0.315492	12.705	19.88	40.145	-0.3675	-1.3665	0.228
06/19/2025 13:44:55.997	0.55022	0.716628	-0.319152	17.815	22.435	36.995	-0.3975	-1.344	0.24
06/19/2025 13:44:56.017	0.560468	0.68198	-0.32818	25.06	24.99	35.035	-0.4245	-1.3245	0.237
06/19/2025 13:44:56.037	0.555344	0.655384	-0.348188	35.385	29.505	35.14	-0.4155	-1.326	0.237
06/19/2025 13:44:56.057	0.558028	0.66734	-0.336232	47.67	32.2	37.45	-0.4305	-1.311	0.2475
06/19/2025 13:44:56.077	0.565836	0.68686	-0.323788	52.43	35.175	41.475	-0.4515	-1.299	0.2445
06/19/2025 13:44:56.097	0.610244	0.711748	-0.32208	51.38	37.31	46.2	-0.4575	-1.2705	0.249
06/19/2025 13:44:56.117	0.611952	0.729804	-0.3172	44.38	40.635	50.82	-0.471	-1.2675	0.249
06/19/2025 13:44:56.137	0.638304	0.719312	-0.322324	32.375	42.735	55.685	-0.4785	-1.239	0.2415
06/19/2025 13:44:56.157	0.648552	0.715652	-0.321836	22.26	44.625	59.255	-0.4875	-1.2375	0.2415
06/19/2025 13:44:56.177	0.661972	0.712724	-0.327448	13.86	44.45	62.405	-0.507	-1.2135	0.24
06/19/2025 13:44:56.197	0.68686	0.71736	-0.33184	11.41	44.17	64.995	-0.5325	-1.1955	0.2445
06/19/2025 13:44:56.217	0.706868	0.727608	-0.347456	7.595	42.21	68.565	-0.5445	-1.191	0.228
06/19/2025 13:44:56.237	0.723704	0.731024	-0.350628	1.4	39.9	70.245	-0.534	-1.167	0.225
06/19/2025 13:44:56.257	0.73444	0.744932	-0.342332	-7.735	37.835	70.49	-0.543	-1.146	0.213
06/19/2025 13:44:56.277	0.743956	0.730292	-0.328424	-19.6	35.175	69.895	-0.555	-1.125	0.222
06/19/2025 13:44:56.297	0.745664	0.725412	-0.30866	-31.78	31.57	69.44	-0.5565	-1.101	0.198
06/19/2025 13:44:56.317	0.762256	0.731024	-0.31232	-40.425	28.875	67.76	-0.576	-1.101	0.207
06/19/2025 13:44:56.337	0.755912	0.719556	-0.307684	-45.71	25.585	65.31	-0.582	-1.089	0.198
06/19/2025 13:44:56.357	0.747372	0.701988	-0.284748	-47.705	22.925	61.985	-0.5745	-1.074	0.1665
06/19/2025 13:44:56.377	0.744688	0.701256	-0.26962	-46.55	20.405	57.4	-0.5895	-1.05	0.165
06/19/2025 13:44:56.397	0.755668	0.694424	-0.253272	-44.38	17.815	52.43	-0.5805	-1.038	0.1515
06/19/2025 13:44:56.417	0.754692	0.696864	-0.240828	-41.545	15.96	47.39	-0.5925	-1.0125	0.1485
06/19/2025 13:44:56.437	0.763232	0.701744	-0.23668	-38.85	14.105	42.595	-0.5805	-1.0215	0.1275
06/19/2025 13:44:56.457	0.755668	0.680516	-0.218868	-34.895	12.81	37.905	-0.5865	-1.0125	0.1335
06/19/2025 13:44:56.477	0.765428	0.670024	-0.19032	-31.115	11.025	33.215	-0.57	-1.008	0.1125
06/19/2025 13:44:56.497	0.772504	0.646844	-0.168848	-26.25	9.31	26.145	-0.579	-1.02	0.105
06/19/2025 13:44:56.517	0.77836	0.649284	-0.182024	-25.655	8.33	21.735	-0.5805	-0.9915	0.081
06/19/2025 13:44:56.537	0.78568	0.615612	-0.1708	-25.585	6.895	17.885	-0.57	-0.996	0.0645
06/19/2025 13:44:56.557	0.79666	0.595116	-0.15616	-25.48	5.775	15.085	-0.561	-0.996	0.069
06/19/2025 13:44:56.577	0.804468	0.583648	-0.150548	-25.06	4.13	12.6	-0.576	-0.993	0.057
06/19/2025 13:44:56.597	0.813984	0.584868	-0.144204	-24.395	2.17	10.15	-0.5655	-1.0245	0.057
06/19/2025 13:44:56.617	0.817156	0.553392	-0.138104	-25.34	0.49	8.54	-0.582	-1.0125	0.045
06/19/2025 13:44:56.637	0.823256	0.55266	-0.139324	-26.005	-1.015	7.525	-0.5685	-1.038	0.048
06/19/2025 13:44:56.657	0.830576	0.54168	-0.13786	-27.475	-2.52	6.825	-0.5565	-1.0365	0.0405
06/19/2025 13:44:56.677	0.832528	0.53436	-0.133956	-29.33	-3.325	5.985	-0.5745	-1.0425	0.036
06/19/2025 13:44:56.697	0.836676	0.509472	-0.140544	-29.995	-4.34	4.935	-0.5745	-1.0425	0.036
06/19/2025 13:44:56.717	0.830332	0.504592	-0.133956	-29.365	-5.39	4.06	-0.57	-1.035	0.0255
06/19/2025 13:44:56.737	0.843996	0.511912	-0.131272	-29.68	-7.14	3.745	-0.567	-1.0455	0.048
06/19/2025 13:44:56.757	0.83448	0.488488	-0.131272	-29.61	-8.575	3.78	-0.564	-1.026	0.042
06/19/2025 13:44:56.777	0.8479	0.488488	-0.131272	-29.365	-9.975	4.55	-0.564	-1.026	0.042
06/19/2025 13:44:56.797	0.851804	0.477996	-0.122244	-29.645	-11.165	5.46	-0.561	-1.0575	0.0435
06/19/2025 13:44:56.817	0.856928	0.482388	-0.115656	-31.675	-12.425	6.335	-0.5625	-1.0665	0.045
06/19/2025 13:44:56.837	0.86498	0.496052	-0.109556	-34.23	-13.405	6.615	-0.567	-1.071	0.0525
06/19/2025 13:44:56.857	0.876936	0.49898	-0.10492	-37.135	-14.35	7	-0.588	-1.059	0.0495
06/19/2025 13:44:56.877	0.876204	0.48922	-0.107604	-39.97	-14.525	6.79	-0.555	-1.0665	0.0405
06/19/2025 13:44:56.897	0.882304	0.482388	-0.10858	-41.405	-14.77	6.37	-0.555	-1.0815	0.057
06/19/2025 13:44:56.917	0.883036	0.47702	-0.107848	-41.58	-14.735	5.775	-0.5625	-1.1025	0.0405
06/19/2025 13:44:56.937	0.88694	0.471652	-0.100284	-40.775	-14.42	5.32	-0.5715	-1.113	0.0555
06/19/2025 13:44:56.957	0.892308	0.469944	-0.095404	-39.55	-14.805	4.935	-0.5745	-1.137	0.0555
06/19/2025 13:44:56.977	0.883524	0.470432	-0.087596	-37.52	-14.805	4.165	-0.5775	-1.149	0.0525
06/19/2025 13:44:56.997	0.893528	0.453352	-0.08662	-35.56	-14.98	3.045	-0.5865	-1.1505	0.0645
06/19/2025 13:44:57.017	0.885232	0.45506	-0.084668	-33.04	-14.56	2.03	-0.5955	-1.1625	0.06
06/19/2025 13:44:57.037	0.882304	0.448472	-0.062952	-29.61	-14.525	1.4	-0.5955	-1.1625	0.06
06/19/2025 13:44:57.057	0.881328	0.451156	-0.060268	-28.07	-14.21	2.17	-0.5955	-1.1625	0.06
06/19/2025 13:44:57.077	0.877668	0.4636	-0.057828	-27.545	-13.86	3.5	-0.6105	-1.233	0.0705
06/19/2025 13:44:57.097	0.87474	0.453596	-0.048068	-27.685	-13.23	5.075	-0.6165	-1.2495	0.0735
06/19/2025 13:44:57.117	0.893772	0.466772	-0.050752	-28.07	-12.495	6.44	-0.633	-1.2585	0.0945
06/19/2025 13:44:57.137	0.891576	0.475556	-0.045384	-29.155	-11.445	7.385	-0.621	-1.2585	0.0825
06/19/2025 13:44:57.157	0.88328	0.477508	-0.042456	-31.08	-10.15	7.875	-0.621	-1.254	0.09
06/19/2025 13:44:57.177	0.876448	0.462868	-0.044896	-32.34	-8.68	7.805	-0.606	-1.2765	0.1005
06/19/2025 13:44:57.197	0.861808	0.450912	-0.042456	-30.975	-6.755	7.42	-0.6315	-1.284	0.09
06/19/2025 13:44:57.217	0.854976	0.4453	-0.03416	-28.105	-5.88	7.07	-0.6195	-1.287	0.1125
06/19/2025 13:44:57.237	0.8479	0.44774	-0.039284	-23.87	-4.515	6.37	-0.627	-1.3035	0.1125
06/19/2025 13:44:57.257	0.857172	0.465796	-0.048068	-18.445	-3.43	6.09	-0.648	-1.2945	0.099
06/19/2025 13:44:57.277	0.871812	0.465308	-0.045384	-14.56	-3.045	6.23	-0.627	-1.296	0.114
06/19/2025 13:44:57.297	0.888404	0.478972	-0.039284	-10.115	-1.925	6.335	-0.639	-1.278	0.1095
06/19/2025 13:44:57.317	0.891088	0.499712	-0.032452	-9.765	-1.61	6.335	-0.639	-1.278	0.1095
06/19/2025 13:44:57.337	0.890844	0.493124	-0.035624	-13.02	-1.575	6.125	-0.6315	-1.275	0.099
06/19/2025 13:44:57.357	0.87352	0.477996	-0.042456	-14.665	-0.315	4.935	-0.6405	-1.284	0.111
06/19/2025 13:44:57.377	0.875472	0.47702	-0.049776	-14.42	-0.21	3.78	-0.648	-1.2615	0.111
06/19/2025 13:44:57.397	0.873276	0.469456	-0.043188	-13.65	0.455	2.765	-0.6315	-1.2795	0.1095
06/19/2025 13:44:57.417	0.873032	0.46238	-0.042212	-11.235	0.735	1.575	-0.636	-1.275	0.1065
06/19/2025 13:44:57.437	0.870836	0.460916	-0.038796	-7.595	1.33	0.77	-0.648	-1.2675	0.1335
06/19/2025 13:44:57.457	0.866932	0.466528	-0.03904	-4.69	1.96	0.14	-0.642	-1.2735	0.111
06/19/2025 13:44:57.477	0.86864	0.467016	-0.037332	-2.38	2.45	-0.14	-0.6345	-1.2795	0.1095
06/19/2025 13:44:57.497	0.854732	0.47092	-0.049044	-0.63	3.325	-0.49	-0.651	-1.2555	0.1035
06/19/2025 13:44:57.517	0.861564	0.474092	-0.049776	0.385	3.325	-0.77	-0.6315	-1.284	0.102
06/19/2025 13:44:57.537	0.864736	0.474336	-0.049288	0.35	3.255	-0.875	-0.6345	-1.278	0.0975
06/19/2025 13:44:57.557	0.860832	0.481656	-0.03538	-1.085	2.8	-0.945	-0.6255	-1.2855	0.105
06/19/2025 13:44:57.577	0.857416	0.473848	-0.027816	-3.535	1.995	-1.225	-0.6375	-1.263	0.117
06/19/2025 13:44:57.597	0.859856	0.482876	-0.035136	-4.83	1.75	-1.47	-0.612	-1.2315	0.117
06/19/2025 13:44:57.617	0.8723	0.475312	-0.042456	-7.56	1.12	-1.61	-0.606	-1.2315	0.0915
06/19/2025 13:44:57.637	0.870592	0.483608	-0.045872	-8.61	1.155	-2.205	-0.606	-1.2315	0.0915
06/19/2025 13:44:57.657	0.871568	0.474092	-0.03904	-9.1	1.33	-2.94	-0.6075	-1.236	0.099
06/19/2025 13:44:57.677	0.873032	0.465796	-0.036356	-8.19	1.155	-3.465	-0.603	-1.212	0.0915
06/19/2025 13:44:57.697	0.884744	0.468236	-0.032696	-7.14	0.56	-3.745	-0.5775	-1.2015	0.0975
06/19/2025 13:44:57.717	0.875228	0.467992	-0.026108	-5.74	0.945	-3.78	-0.582	-1.2015	0.105
06/19/2025 13:44:57.737	0.878644	0.47824	-0.02074	-5.74	0.7	-3.395	-0.579	-1.179	0.09
06/19/2025 13:44:57.757	0.881572	0.476532	-0.022692	-6.65	1.015	-3.22	-0.5805	-1.17	0.0945
06/19/2025 13:44:57.777	0.886452	0.472384	-0.01464	-9.625	0.98	-3.22	-0.567	-1.1535	0.075
06/19/2025 13:44:57.797	0.886696	0.46482	-0.015128	-12.39	1.855	-3.5	-0.5445	-1.149	0.075
06/19/2025 13:44:57.817	0.887428	0.463356	-0.013908	-13.055	2.625	-3.745	-0.558	-1.1415	0.075
06/19/2025 13:44:57.837	0.879376	0.452376	-0.009028	-12.32	3.5	-3.605	-0.5535	-1.161	0.0555
06/19/2025 13:44:57.857	0.873276	0.435296	-0.006832	-10.5	4.235	-3.43	-0.5535	-1.161	0.0555
06/19/2025 13:44:57.877	0.863516	0.429196	-0.013176	-6.79	4.795	-3.36	-0.543	-1.137	0.063
06/19/2025 13:44:57.897	0.855708	0.417484	-0.015128	-2.555	5.775	-3.29	-0.5535	-1.158	0.0465
06/19/2025 13:44:57.917	0.85644	0.413092	-0.012932	2.415	5.67	-2.695	-0.5445	-1.1535	0.051
06/19/2025 13:44:57.937	0.86864	0.44042	-0.004392	6.265	5.005	-1.225	-0.54	-1.1595	0.0465
06/19/2025 13:44:57.957	0.87474	0.451644	-0.00122	8.05	4.41	0.735	-0.5355	-1.185	0.0375
06/19/2025 13:44:57.977	0.884256	0.463356	0.007564	7.385	3.745	2.73	-0.5535	-1.1895	0.0435
06/19/2025 13:44:57.997	0.888648	0.46848	0.008784	3.955	2.415	4.55	-0.5415	-1.185	0.039
06/19/2025 13:44:58.017	0.8784	0.4819	0.01098	0.77	3.15	5.355	-0.5535	-1.185	0.0465
06/19/2025 13:44:58.037	0.88938	0.473604	0.014396	-5.04	2.275	6.265	-0.549	-1.17	0.027
06/19/2025 13:44:58.057	0.87962	0.474824	0.022204	-8.05	2.415	6.3	-0.5355	-1.1745	0.0225
06/19/2025 13:44:58.077	0.87596	0.466772	0.025864	-10.08	2.765	5.95	-0.54	-1.173	0.0345
06/19/2025 13:44:58.097	0.881084	0.457988	0.01952	-10.325	3.255	5.18	-0.546	-1.191	0.03
06/19/2025 13:44:58.117	0.87474	0.452132	0.011468	-5.6	4.83	3.815	-0.546	-1.191	0.03
06/19/2025 13:44:58.137	0.872544	0.449204	0.011224	-0.7	5.67	3.325	-0.5565	-1.1955	0.018
06/19/2025 13:44:58.157	0.868884	0.44164	0.016348	4.27	5.6	3.185	-0.567	-1.1775	0.027
06/19/2025 13:44:58.177	0.858636	0.464088	0.01464	9.24	6.125	2.87	-0.549	-1.1775	0.0375
06/19/2025 13:44:58.197	0.856196	0.474824	0.016836	10.5	5.46	2.87	-0.549	-1.194	0.0375
06/19/2025 13:44:58.217	0.865224	0.485804	0.021716	9.59	4.83	3.08	-0.549	-1.1865	0.0255
06/19/2025 13:44:58.237	0.863028	0.486536	0.021472	7.525	4.445	3.395	-0.555	-1.2105	0.042
06/19/2025 13:44:58.257	0.868152	0.476044	0.020252	5.81	4.34	3.185	-0.5805	-1.2165	0.0345
06/19/2025 13:44:58.277	0.86986	0.476044	0.014884	5.635	4.095	2.555	-0.579	-1.212	0.0255
06/19/2025 13:44:58.297	0.874252	0.468236	0.013664	5.74	3.85	2.03	-0.5925	-1.2255	0.0195
06/19/2025 13:44:58.317	0.874984	0.473848	0.01464	6.335	3.745	1.505	-0.585	-1.2255	0.0375
06/19/2025 13:44:58.337	0.8723	0.48556	0.018788	7.21	2.8	1.365	-0.603	-1.245	0.03
06/19/2025 13:44:58.357	0.858148	0.487268	0.025864	6.965	1.645	1.645	-0.615	-1.2675	0.0225
06/19/2025 13:44:58.377	0.848144	0.49288	0.032696	3.57	-0.28	2.31	-0.633	-1.2795	0.0225
06/19/2025 13:44:58.397	0.857904	0.500688	0.030988	-0.385	-1.4	2.45	-0.633	-1.2795	0.0225
06/19/2025 13:44:58.417	0.857904	0.502152	0.032696	-3.92	-2.03	2.38	-0.6555	-1.305	0.042
06/19/2025 13:44:58.437	0.859856	0.493124	0.041724	-6.685	-3.01	2.345	-0.6375	-1.299	0.042
06/19/2025 13:44:58.457	0.86864	0.501176	0.04758	-9.415	-3.71	2.205	-0.6435	-1.305	0.042
06/19/2025 13:44:58.477	0.86254	0.50752	0.043188	-11.655	-3.325	1.435	-0.651	-1.296	0.0495
06/19/2025 13:44:58.497	0.863516	0.514108	0.042456	-13.86	-2.835	0.385	-0.669	-1.302	0.042
06/19/2025 13:44:58.517	0.859856	0.495564	0.035868	-15.96	-2.03	-0.77	-0.678	-1.3185	0.036
06/19/2025 13:44:58.537	0.874008	0.482144	0.033916	-15.89	-1.785	-2.205	-0.6705	-1.3425	0.0375
06/19/2025 13:44:58.557	0.874252	0.47824	0.034892	-14.14	-1.33	-3.675	-0.66	-1.329	0.054
06/19/2025 13:44:58.577	0.872544	0.472628	0.037576	-9.695	-0.315	-5.46	-0.6705	-1.317	0.0495
06/19/2025 13:44:58.597	0.869616	0.48068	0.03172	-5.95	-0.35	-6.755	-0.6705	-1.326	0.0435
06/19/2025 13:44:58.617	0.86742	0.477752	0.02806	-4.2	-0.28	-7.595	-0.6645	-1.3245	0.054
06/19/2025 13:44:58.637	0.865468	0.477752	0.030256	-3.43	-0.385	-8.155	-0.669	-1.317	0.0465
06/19/2025 13:44:58.657	0.865468	0.469456	0.02928	-5.355	-0.63	-8.75	-0.669	-1.317	0.0465
06/19/2025 13:44:58.677	0.872544	0.46726	0.026352	-6.93	-1.155	-8.715	-0.66	-1.3125	0.0465
06/19/2025 13:44:58.697	0.863516	0.45628	0.026108	-7.595	-1.75	-8.435	-0.6735	-1.3215	0.042
06/19/2025 13:44:58.717	0.86132	0.458964	0.030012	-7.245	-2.415	-7.98	-0.6645	-1.329	0.054
06/19/2025 13:44:58.737	0.86376	0.464088	0.028548	-7.175	-3.08	-7.385	-0.666	-1.329	0.0555
06/19/2025 13:44:58.757	0.876936	0.45994	0.027816	-7.7	-3.43	-6.755	-0.654	-1.3335	0.057
06/19/2025 13:44:58.777	0.877424	0.459452	0.024644	-8.365	-3.395	-5.985	-0.666	-1.3215	0.0615
06/19/2025 13:44:58.797	0.876204	0.452864	0.022448	-8.575	-3.01	-5.88	-0.6495	-1.3425	0.0585
06/19/2025 13:44:58.817	0.874252	0.443592	0.0183	-7.91	-2.45	-5.845	-0.666	-1.3305	0.0465
06/19/2025 13:44:58.837	0.87962	0.445544	0.024644	-6.16	-2.03	-5.845	-0.663	-1.3305	0.0705
06/19/2025 13:44:58.857	0.883524	0.449204	0.02562	-4.13	-1.505	-5.775	-0.6735	-1.338	0.0585
06/19/2025 13:44:58.877	0.8784	0.445056	0.02562	-2.345	-0.98	-5.53	-0.648	-1.341	0.0465
06/19/2025 13:44:58.897	0.87596	0.444324	0.020008	-1.085	-1.015	-5.04	-0.648	-1.3215	0.0585
06/19/2025 13:44:58.917	0.872056	0.45384	0.026108	-1.61	-1.435	-3.71	-0.6405	-1.32	0.0615
06/19/2025 13:44:58.937	0.866932	0.450912	0.021472	-2.205	-1.505	-2.555	-0.636	-1.299	0.0555
06/19/2025 13:44:58.957	0.863516	0.45384	0.0183	-2.485	-2.03	-1.26	-0.6165	-1.284	0.0585
06/19/2025 13:44:58.977	0.864492	0.454328	0.024156	-2.415	-2.87	0.175	-0.621	-1.284	0.039
06/19/2025 13:44:58.997	0.862784	0.462136	0.027328	-3.325	-3.36	1.365	-0.603	-1.2705	0.0465
06/19/2025 13:44:59.017	0.869372	0.462136	0.026352	-3.64	-3.64	2.24	-0.5985	-1.2495	0.0495
06/19/2025 13:44:59.037	0.864736	0.465796	0.02928	-3.43	-3.64	2.73	-0.5985	-1.2495	0.0495
06/19/2025 13:44:59.057	0.86986	0.469212	0.024888	-2.835	-3.57	2.94	-0.591	-1.2405	0.057
06/19/2025 13:44:59.077	0.8662	0.479704	0.027328	-1.89	-3.465	2.87	-0.5895	-1.2105	0.0615
06/19/2025 13:44:59.097	0.867908	0.486292	0.03538	-1.155	-3.535	2.94	-0.5745	-1.194	0.051
06/19/2025 13:44:59.117	0.864492	0.487512	0.037088	-1.12	-3.395	2.8	-0.5685	-1.2105	0.0465
06/19/2025 13:44:59.137	0.863516	0.489708	0.03172	-1.26	-3.08	2.73	-0.5625	-1.203	0.051
06/19/2025 13:44:59.157	0.865224	0.48922	0.036844	-1.33	-2.905	2.24	-0.5505	-1.1895	0.054
06/19/2025 13:44:59.177	0.862296	0.49776	0.039528	-1.12	-2.415	1.855	-0.5535	-1.203	0.0465
06/19/2025 13:44:59.197	0.85766	0.494344	0.03416	0.35	-1.155	0.805	-0.5535	-1.203	0.0465
06/19/2025 13:44:59.217	0.856196	0.493612	0.034404	1.715	-0.245	-0.035	-0.5475	-1.1685	0.039
06/19/2025 13:44:59.237	0.853756	0.497516	0.03294	3.15	0.63	-0.595	-0.54	-1.185	0.051
06/19/2025 13:44:59.257	0.856196	0.500444	0.036844	4.165	1.295	-1.05	-0.528	-1.1775	0.045
06/19/2025 13:44:59.277	0.85034	0.499468	0.038552	4.55	1.715	-1.19	-0.537	-1.209	0.0375
06/19/2025 13:44:59.297	0.84912	0.505812	0.039284	4.2	1.96	-1.225	-0.537	-1.194	0.042
06/19/2025 13:44:59.317	0.852292	0.511668	0.037088	3.605	1.925	-1.47	-0.534	-1.23	0.033
06/19/2025 13:44:59.337	0.850584	0.504592	0.030744	2.905	2.065	-1.96	-0.5325	-1.218	0.045
06/19/2025 13:44:59.357	0.851804	0.513132	0.031476	2.765	2.205	-2.59	-0.5415	-1.2105	0.0345
06/19/2025 13:44:59.377	0.853756	0.512156	0.02806	3.22	2.415	-3.325	-0.534	-1.215	0.0345
06/19/2025 13:44:59.397	0.85888	0.507764	0.02928	3.605	2.765	-3.815	-0.546	-1.1985	0.033
06/19/2025 13:44:59.417	0.849608	0.507764	0.027816	4.095	2.765	-4.165	-0.528	-1.206	0.0255
06/19/2025 13:44:59.437	0.852292	0.509472	0.02562	3.92	2.59	-4.585	-0.54	-1.203	0.03
06/19/2025 13:44:59.457	0.850584	0.517036	0.026596	2.8	1.575	-4.725	-0.54	-1.203	0.03
06/19/2025 13:44:59.477	0.8479	0.516304	0.026352	1.12	0.735	-4.725	-0.54	-1.203	0.03
06/19/2025 13:44:59.497	0.846436	0.51972	0.03294	-0.84	-0.175	-4.62	-0.549	-1.2105	0.018
06/19/2025 13:44:59.517	0.853024	0.515328	0.035624	-3.57	-0.91	-4.62	-0.546	-1.2195	0.03
06/19/2025 13:44:59.537	0.851072	0.51484	0.035136	-5.775	-0.98	-4.76	-0.5475	-1.2315	0.021
06/19/2025 13:44:59.557	0.863516	0.505568	0.032696	-7.14	-0.42	-5.145	-0.5475	-1.227	0.0375
06/19/2025 13:44:59.577	0.878644	0.513864	0.03904	-7.28	0.665	-5.355	-0.5595	-1.233	0.0255
06/19/2025 13:44:59.597	0.884988	0.518012	0.046848	-6.825	2.485	-5.355	-0.5565	-1.266	0.0165
06/19/2025 13:44:59.617	0.892064	0.510204	0.048556	-5.985	5.18	-5.425	-0.5895	-1.278	0.015
06/19/2025 13:44:59.637	0.89914	0.5124	0.039772	-7	7.175	-5.355	-0.5745	-1.2705	0.03
06/19/2025 13:44:59.657	0.8845	0.497516	0.025132	-5.95	11.725	-6.3	-0.5925	-1.299	0.033
06/19/2025 13:44:59.677	0.871812	0.473848	0.02562	-2.03	14.805	-7.35	-0.5775	-1.308	0.0165
06/19/2025 13:44:59.697	0.861564	0.477264	0.027572	4.41	16.24	-8.295	-0.588	-1.323	0.006
06/19/2025 13:44:59.717	0.848876	0.477752	0.032452	13.195	16.1	-8.61	-0.6015	-1.3365	0.0375
06/19/2025 13:44:59.737	0.837896	0.484828	0.03294	15.47	15.61	-7.805	-0.6015	-1.3365	0.0375
06/19/2025 13:44:59.757	0.833016	0.487024	0.025376	14.84	14.77	-6.475	-0.627	-1.3575	0.0225
06/19/2025 13:44:59.777	0.828868	0.476532	0.019276	11.76	13.755	-4.06	-0.642	-1.3755	0.0225
06/19/2025 13:44:59.797	0.826428	0.475556	0.02318	9.45	12.46	-1.435	-0.642	-1.38	0.0135
06/19/2025 13:44:59.817	0.819596	0.482876	0.026352	9.485	10.71	1.12	-0.6525	-1.3635	0.0135
06/19/2025 13:44:59.837	0.824964	0.486536	0.030256	10.115	8.715	3.605	-0.663	-1.3605	0.0225
06/19/2025 13:44:59.857	0.827892	0.494588	0.032696	9.975	6.755	5.845	-0.663	-1.377	0.018
06/19/2025 13:44:59.877	0.824232	0.511668	0.0244	9.205	5.18	7.455	-0.6825	-1.3845	0.0135
06/19/2025 13:44:59.897	0.833504	0.51118	0.023424	7.595	3.78	8.435	-0.6615	-1.383	0.0105
06/19/2025 13:44:59.917	0.833748	0.513132	0.015616	6.195	3.08	8.61	-0.6675	-1.371	0.021
06/19/2025 13:44:59.937	0.83326	0.5063	0.021228	6.475	2.625	8.19	-0.681	-1.389	0.0105
06/19/2025 13:44:59.957	0.83204	0.5063	0.027328	8.47	2.1	7.28	-0.6795	-1.359	0.0225
06/19/2025 13:44:59.977	0.822768	0.513132	0.028304	10.85	1.54	6.44	-0.6915	-1.3365	0.0195
06/19/2025 13:44:59.997	0.82716	0.528504	0.031964	12.985	0.21	6.125	-0.6915	-1.3365	0.0195
06/19/2025 13:45:00.017	0.824476	0.537776	0.035624	12.74	-0.91	6.755	-0.6915	-1.3365	0.0195
06/19/2025 13:45:00.037	0.8174	0.538264	0.031964	11.2	-2.03	7.455	-0.6915	-1.335	0.0225
06/19/2025 13:45:00.057	0.82716	0.544608	0.035624	9.17	-3.71	8.155	-0.6885	-1.3485	0.0315
06/19/2025 13:45:00.077	0.824476	0.55388	0.04026	7.42	-5.67	8.47	-0.684	-1.347	0.0375
06/19/2025 13:45:00.097	0.832284	0.550464	0.050996	6.195	-7.945	8.61	-0.6945	-1.3185	0.039
06/19/2025 13:45:00.117	0.837408	0.56608	0.060756	4.27	-11.06	8.715	-0.693	-1.344	0.0585
06/19/2025 13:45:00.137	0.851316	0.578036	0.062952	1.61	-13.93	8.68	-0.696	-1.314	0.048
06/19/2025 13:45:00.157	0.836676	0.60146	0.065392	-1.82	-16.275	8.085	-0.6855	-1.302	0.051
06/19/2025 13:45:00.177	0.823988	0.596824	0.06466	-6.72	-18.41	6.93	-0.699	-1.323	0.0555
06/19/2025 13:45:00.197	0.818376	0.59658	0.065636	-11.725	-20.195	5.215	-0.678	-1.3095	0.042
06/19/2025 13:45:00.217	0.82472	0.590236	0.072224	-16.765	-21.63	3.36	-0.6855	-1.3095	0.0705
06/19/2025 13:45:00.237	0.826916	0.598776	0.084912	-20.965	-22.12	1.47	-0.678	-1.311	0.0555
06/19/2025 13:45:00.257	0.850096	0.615368	0.094916	-25.935	-21.035	-0.665	-0.678	-1.284	0.0555
06/19/2025 13:45:00.277	0.866688	0.618052	0.095404	-28.07	-18.9	-1.575	-0.678	-1.284	0.0555
06/19/2025 13:45:00.297	0.876204	0.602436	0.086132	-28.385	-15.505	-2.975	-0.6255	-1.278	0.054
06/19/2025 13:45:00.317	0.8845	0.593652	0.073688	-25.025	-11.2	-5.635	-0.6255	-1.2675	0.0615
06/19/2025 13:45:00.337	0.876936	0.57584	0.062708	-18.795	-6.37	-9.52	-0.612	-1.275	0.054
06/19/2025 13:45:00.357	0.86376	0.570472	0.050508	-8.68	-2.135	-14.21	-0.6	-1.2495	0.0705
06/19/2025 13:45:00.377	0.85766	0.581696	0.061732	3.78	0.63	-18.69	-0.5895	-1.233	0.063
06/19/2025 13:45:00.397	0.8357	0.5978	0.073932	14.7	2.59	-22.4	-0.5805	-1.2195	0.063
06/19/2025 13:45:00.417	0.819596	0.598288	0.07198	23.1	3.99	-25.865	-0.5805	-1.2195	0.063
06/19/2025 13:45:00.437	0.817156	0.602436	0.074176	27.265	3.815	-28.595	-0.5595	-1.206	0.051
06/19/2025 13:45:00.457	0.811544	0.62952	0.063928	26.67	3.92	-30.52	-0.543	-1.203	0.0615
