BLE Address: 842B55B99BD400
time	ax	ay	az	gx	gy	gz	mx	my	mz	

05/22/2025 13:39:50.313	0.897676	-0.459208	0.051728	0.665	0.035	-1.995	-1.1085	-1.461	-1.2495
05/22/2025 13:39:50.333	0.892308	-0.452864	0.053436	1.645	-0.14	-2.275	-1.086	-1.458	-1.2195
05/22/2025 13:39:50.353	0.897676	-0.450424	0.054412	2.73	-0.91	-2.31	-1.074	-1.4805	-1.203
05/22/2025 13:39:50.373	0.897432	-0.445544	0.058072	3.605	-1.645	-2.345	-1.0965	-1.485	-1.2345
05/22/2025 13:39:50.393	0.899384	-0.466284	0.052948	3.815	-2.205	-2.38	-1.089	-1.485	-1.2345	
05/22/2025 13:39:50.413	0.896212	-0.460672	0.046604	5.425	-2.835	-2.975	-1.1085	-1.461	-1.2315
05/22/2025 13:39:50.433	0.899628	-0.465064	0.050508	7.175	-3.15	-3.465	-1.089	-1.4625	-1.2345
05/22/2025 13:39:50.453	0.89792	-0.476044	0.050996	8.68	-3.605	-4.62	-1.074	-1.473	-1.218
05/22/2025 13:39:50.473	0.89792	-0.46726	0.048068	10.57	-4.095	-5.74	-1.0785	-1.458	-1.23
05/22/2025 13:39:50.493	0.89182	-0.479704	0.037088	14.385	-4.13	-7.14	-1.086	-1.473	-1.26
05/22/2025 13:39:50.513	0.899628	-0.482388	0.041236	20.58	-3.78	-7.875	-1.035	-1.485	-1.2705
05/22/2025 13:39:50.533	0.900848	-0.4819	0.055876	27.195	-2.94	-8.75	-1.071	-1.5105	-1.275
05/22/2025 13:39:50.553	0.904264	-0.464332	0.049044	35.63	-2.415	-9.8	-1.065	-1.5105	-1.2975
05/22/2025 13:39:50.573	0.917928	-0.453596	0.069784	44.065	-1.82	-10.395	-1.0785	-1.533	-1.263
05/22/2025 13:39:50.593	0.92598	-0.403332	0.083692	49.14	-2.73	-11.025	-1.089	-1.533	-1.272
05/22/2025 13:39:50.613	0.915244	-0.377468	0.101016	48.09	-3.5	-8.855	-1.0485	-1.557	-1.278
05/22/2025 13:39:50.633	0.918904	-0.381616	0.100528	41.545	-4.585	-7.07	-1.056	-1.56	-1.3005
05/22/2025 13:39:50.653	0.9333	-0.382592	0.108824	30.73	-6.3	-5.565	-1.062	-1.5945	-1.2855
05/22/2025 13:39:50.673	0.916952	-0.388936	0.101504	15.33	-8.155	-3.15	-1.092	-1.608	-1.2855
05/22/2025 13:39:50.693	0.930372	-0.398696	0.08662	6.79	-10.01	-3.045	-1.0845	-1.605	-1.2825
05/22/2025 13:39:50.713	0.90158	-0.417484	0.072712	3.43	-9.065	-2.765	-1.0995	-1.623	-1.2975
05/22/2025 13:39:50.733	0.911828	-0.404064	0.06466	4.445	-8.855	-3.22	-1.107	-1.6125	-1.2795
05/22/2025 13:39:50.753	0.91744	-0.4148	0.05978	6.405	-7.385	-3.01	-1.1205	-1.605	-1.257
05/22/2025 13:39:50.773	0.925492	-0.420168	0.07442	10.71	-5.46	-2.555	-1.1025	-1.605	-1.2645
05/22/2025 13:39:50.793	0.930128	-0.37942	0.082716	12.425	-4.095	-2.415	-1.0875	-1.6095	-1.2675
05/22/2025 13:39:50.813	0.92232	-0.39894	0.084912	8.295	-2.17	-1.365	-1.086	-1.635	-1.2255
05/22/2025 13:39:50.833	0.906216	-0.41846	0.064416	6.58	2.1	-1.82	-1.11	-1.59	-1.233
05/22/2025 13:39:50.853	0.900848	-0.4209	0.055632	12.39	4.165	-6.93	-1.098	-1.6125	-1.248
05/22/2025 13:39:50.873	0.913048	-0.428952	0.0366	23.765	2.66	-11.375	-1.1235	-1.6275	-1.242
05/22/2025 13:39:50.893	0.918416	-0.414556	0.038308	39.935	2.205	-13.23	-1.1025	-1.62	-1.248
05/22/2025 13:39:50.913	0.925492	-0.397232	0.061976	57.47	2.59	-14.63	-1.101	-1.665	-1.2675
05/22/2025 13:39:50.933	0.933544	-0.400404	0.06954	72.24	3.01	-15.47	-1.0785	-1.674	-1.2405
05/22/2025 13:39:50.953	0.942084	-0.328424	0.11224	86.17	4.585	-15.47	-1.0785	-1.674	-1.2405
05/22/2025 13:39:50.973	0.938424	-0.317932	0.119316	90.93	4.235	-13.37	-1.086	-1.674	-1.2255
05/22/2025 13:39:50.993	0.94916	-0.352824	0.152744	91.21	6.37	-11.41	-1.074	-1.704	-1.224
05/22/2025 13:39:51.013	0.95282	-0.312076	0.210816	92.33	11.13	-11.515	-1.0845	-1.7115	-1.2015
05/22/2025 13:39:51.033	0.947452	-0.296948	0.228628	83.51	11.165	-7.98	-1.0725	-1.7265	-1.2015
05/22/2025 13:39:51.053	0.926712	-0.295484	0.246684	66.85	7.56	-4.76	-1.068	-1.7565	-1.1895
05/22/2025 13:39:51.073	0.9333	-0.311344	0.232044	48.405	2.835	-4.445	-1.0905	-1.7565	-1.179
05/22/2025 13:39:51.093	0.928908	-0.363316	0.213256	42.91	2.8	-4.9	-1.071	-1.746	-1.179
05/22/2025 13:39:51.113	0.938912	-0.332572	0.216428	50.4	3.325	-6.65	-1.0755	-1.746	-1.2015
05/22/2025 13:39:51.133	0.935008	-0.302072	0.21228	52.605	3.185	-5.285	-1.068	-1.761	-1.1775
05/22/2025 13:39:51.153	0.931104	-0.278892	0.225944	43.47	1.155	-3.885	-1.0965	-1.776	-1.1445
05/22/2025 13:39:51.173	0.924516	-0.323544	0.220088	30.765	-0.35	-3.045	-1.0815	-1.7715	-1.152
05/22/2025 13:39:51.193	0.936472	-0.327936	0.229604	29.785	-0.175	-3.29	-1.0665	-1.776	-1.1325
05/22/2025 13:39:51.213	0.937204	-0.266692	0.254736	27.405	1.89	-3.78	-1.0665	-1.776	-1.1325
05/22/2025 13:39:51.233	0.915732	-0.263764	0.25498	17.255	0.63	-3.43	-1.0665	-1.776	-1.1325
05/22/2025 13:39:51.253	0.919392	-0.27206	0.247904	2.275	-1.82	-3.08	-1.083	-1.7805	-1.0905
05/22/2025 13:39:51.273	0.92964	-0.29036	0.237412	-9.52	-4.34	-3.325	-1.0605	-1.7925	-1.0785
05/22/2025 13:39:51.293	0.939156	-0.2806	0.241072	-16.73	-4.97	-2.765	-1.056	-1.7955	-1.0635
05/22/2025 13:39:51.313	0.939156	-0.2745	0.236192	-27.685	-6.055	-1.33	-1.0965	-1.788	-1.0575
05/22/2025 13:39:51.333	0.939156	-0.244488	0.227896	-40.215	-6.755	0.7	-1.0815	-1.788	-1.0425
05/22/2025 13:39:51.353	0.931836	-0.244976	0.228628	-58.17	-6.09	3.29	-1.092	-1.7685	-1.0995
05/22/2025 13:39:51.373	0.942816	-0.255712	0.228628	-81.69	-6.405	7.245	-1.0695	-1.761	-1.098
05/22/2025 13:39:51.393	0.9333	-0.292312	0.191052	-104.895	-5.95	11.06	-1.074	-1.7505	-1.11
05/22/2025 13:39:51.413	0.936472	-0.30378	0.1708	-114.38	-4.76	11.62	-1.0635	-1.746	-1.1325
05/22/2025 13:39:51.433	0.938668	-0.328424	0.152256	-118.825	-3.78	11.97	-1.089	-1.731	-1.134
05/22/2025 13:39:51.453	0.930616	-0.349652	0.1525	-119.945	-0.98	12.04	-1.0605	-1.719	-1.137
05/22/2025 13:39:51.473	0.927444	-0.389668	0.125904	-112.7	2.45	10.885	-1.0725	-1.662	-1.1595
05/22/2025 13:39:51.493	0.930616	-0.390888	0.086132	-102.48	4.2	10.185	-1.0725	-1.662	-1.1595
05/22/2025 13:39:51.513	0.928664	-0.39528	0.09857599	-91.595	5.985	9.66	-1.0605	-1.6065	-1.194
05/22/2025 13:39:51.533	0.942328	-0.388936	0.10858	-87.57	6.685	9.52	-1.0785	-1.587	-1.206
05/22/2025 13:39:51.553	0.926956	-0.411384	0.088816	-84.21	6.685	9.31	-1.0605	-1.587	-1.2135
05/22/2025 13:39:51.573	0.930372	-0.44286	0.082716	-74.27	6.23	8.26	-1.095	-1.56	-1.2105
05/22/2025 13:39:51.593	0.923052	-0.45384	0.068564	-60.76	5.985	7.56	-1.08	-1.5495	-1.2105
05/22/2025 13:39:51.613	0.923052	-0.43676	0.0732	-48.405	5.565	6.825	-1.11	-1.548	-1.2345
05/22/2025 13:39:51.633	0.915244	-0.446764	0.072956	-38.36	4.585	5.565	-1.0875	-1.5225	-1.215
05/22/2025 13:39:51.653	0.912316	-0.448716	0.051728	-27.16	3.5	3.78	-1.0875	-1.5225	-1.215
05/22/2025 13:39:51.673	0.911584	-0.470676	0.03782	-11.06	2.17	1.855	-1.0815	-1.5105	-1.2255
05/22/2025 13:39:51.693	0.91378	-0.445788	0.034892	8.12	1.68	-0.21	-1.0815	-1.53	-1.2375
05/22/2025 13:39:51.713	0.909144	-0.502884	0.019032	28.805	0.455	-1.89	-1.0695	-1.5195	-1.2225
05/22/2025 13:39:51.733	0.90646	-0.526064	0.007076	60.48	-1.085	-4.83	-1.077	-1.515	-1.2105
05/22/2025 13:39:51.753	0.910608	-0.453596	0.019276	112	-3.5	-8.54	-1.065	-1.5345	-1.2255
05/22/2025 13:39:51.773	0.919636	-0.378688	0.058316	127.855	-5.355	-9.275	-1.065	-1.5645	-1.233
05/22/2025 13:39:51.793	0.929396	-0.31476	0.09272	127.785	-7.07	-8.995	-1.053	-1.614	-1.2315
05/22/2025 13:39:51.813	0.928908	-0.268156	0.133956	113.75	-8.68	-7.315	-1.068	-1.6545	-1.2285
05/22/2025 13:39:51.833	0.931836	-0.251076	0.157624	87.045	-9.415	-5.005	-1.053	-1.6395	-1.224
05/22/2025 13:39:51.853	0.925004	-0.255712	0.163724	55.265	-8.68	-2.24	-1.074	-1.689	-1.236
05/22/2025 13:39:51.873	0.9272	-0.264496	0.157624	26.565	-7.42	0.63	-1.092	-1.7025	-1.236
05/22/2025 13:39:51.893	0.935252	-0.287188	0.148108	1.925	-6.685	2.03	-1.0845	-1.7265	-1.236
05/22/2025 13:39:51.913	0.9455	-0.36356	0.13786	-11.9	-5.88	1.715	-1.0815	-1.692	-1.239
05/22/2025 13:39:51.933	0.94794	-0.379908	0.134444	-11.76	-4.865	0.77	-1.089	-1.6995	-1.248
05/22/2025 13:39:51.953	0.941596	-0.376736	0.151768	-6.055	-6.195	1.26	-1.0965	-1.695	-1.2585
05/22/2025 13:39:51.973	0.933056	-0.357216	0.156892	-1.26	-5.81	1.61	-1.107	-1.7145	-1.236
05/22/2025 13:39:51.993	0.928908	-0.368684	0.157624	0.28	-6.545	2.8	-1.1205	-1.6875	-1.2705
05/22/2025 13:39:52.013	0.943792	-0.352824	0.164944	0.315	-10.605	4.865	-1.107	-1.7145	-1.233
05/22/2025 13:39:52.033	0.931104	-0.400648	0.157868	-0.84	-9.555	5.355	-1.107	-1.7145	-1.233
05/22/2025 13:39:52.053	0.928176	-0.409432	0.144692	-0.21	-8.47	5.11	-1.107	-1.71	-1.236
05/22/2025 13:39:52.073	0.914512	-0.366244	0.147376	3.22	-5.6	4.69	-1.107	-1.6995	-1.2255
05/22/2025 13:39:52.093	0.9272	-0.361608	0.178852	4.515	-3.535	4.585	-1.107	-1.7145	-1.2255
05/22/2025 13:39:52.113	0.937692	-0.36478	0.164944	1.645	-1.295	4.41	-1.11	-1.6875	-1.206
05/22/2025 13:39:52.133	0.922808	-0.40016	0.14152	-1.785	0.455	2.8	-1.0845	-1.692	-1.1835
05/22/2025 13:39:52.153	0.924272	-0.401624	0.152256	0.245	0.805	2.485	-1.122	-1.665	-1.203
05/22/2025 13:39:52.173	0.926468	-0.386252	0.138348	2.135	-0.595	1.225	-1.122	-1.68	-1.203
05/22/2025 13:39:52.193	0.923784	-0.395524	0.126636	2.03	-2.205	1.61	-1.1145	-1.6995	-1.2105
05/22/2025 13:39:52.213	0.92598	-0.38796	0.116632	2.24	-2.275	2.695	-1.107	-1.7115	-1.203
05/22/2025 13:39:52.233	0.924272	-0.377956	0.116144	2.415	-1.225	3.64	-1.1025	-1.665	-1.191
05/22/2025 13:39:52.253	0.919392	-0.385764	0.1098	1.68	-0.385	4.62	-1.1115	-1.6545	-1.1985
05/22/2025 13:39:52.273	0.92232	-0.393084	0.106628	1.75	0.35	4.9	-1.0995	-1.68	-1.2135
05/22/2025 13:39:52.293	0.929396	-0.400892	0.109068	1.75	0.98	3.43	-1.0995	-1.68	-1.2135
05/22/2025 13:39:52.313	0.926712	-0.388936	0.110044	2.38	0.875	1.47	-1.0995	-1.68	-1.2135
05/22/2025 13:39:52.333	0.927932	-0.382836	0.111996	2.94	0.665	-0.07	-1.1115	-1.6695	-1.203
05/22/2025 13:39:52.353	0.914024	-0.380396	0.105164	2.695	0.875	-0.77	-1.104	-1.647	-1.206
05/22/2025 13:39:52.373	0.913536	-0.374784	0.103212	2.555	1.19	-1.05	-1.089	-1.647	-1.1985
05/22/2025 13:39:52.393	0.920856	-0.360144	0.100284	2.135	1.575	-1.155	-1.101	-1.647	-1.2135
05/22/2025 13:39:52.413	0.925736	-0.354532	0.112972	1.47	1.47	-1.225	-1.1115	-1.635	-1.203
05/22/2025 13:39:52.433	0.926468	-0.356972	0.114436	-0.665	1.925	-1.75	-1.1175	-1.6425	-1.1805
05/22/2025 13:39:52.453	0.926712	-0.362584	0.12444	-1.785	2.17	-2.24	-1.1505	-1.647	-1.1505
05/22/2025 13:39:52.473	0.92598	-0.374296	0.115656	-2.135	1.82	-2.94	-1.122	-1.632	-1.158
05/22/2025 13:39:52.493	0.916464	-0.3538	0.113948	-1.225	1.645	-3.885	-1.131	-1.6395	-1.128
05/22/2025 13:39:52.513	0.927688	-0.35868	0.125172	-1.155	0.91	-4.48	-1.1055	-1.647	-1.134
05/22/2025 13:39:52.533	0.940376	-0.367464	0.132736	-0.245	-0.035	-5.215	-1.128	-1.6275	-1.1385
05/22/2025 13:39:52.553	0.94184	-0.380152	0.133224	1.785	-1.225	-6.44	-1.1055	-1.647	-1.1235
05/22/2025 13:39:52.573	0.933788	-0.374052	0.128588	3.01	-1.925	-6.615	-1.1055	-1.647	-1.1235
05/22/2025 13:39:52.593	0.932812	-0.370392	0.132736	3.395	-2.765	-5.985	-1.1235	-1.644	-1.101
05/22/2025 13:39:52.613	0.933788	-0.363316	0.137128	3.255	-3.15	-5.075	-1.1235	-1.644	-1.101
05/22/2025 13:39:52.633	0.938668	-0.37698	0.142984	2.625	-3.675	-3.92	-1.1025	-1.644	-1.131
05/22/2025 13:39:52.653	0.939644	-0.374784	0.138104	2.275	-3.99	-2.905	-1.116	-1.617	-1.113
05/22/2025 13:39:52.673	0.942328	-0.37332	0.130784	1.995	-4.865	-1.89	-1.071	-1.6665	-1.107
05/22/2025 13:39:52.693	0.93574	-0.352336	0.144936	2.275	-5.39	0.14	-1.1055	-1.644	-1.1085
05/22/2025 13:39:52.713	0.930372	-0.373808	0.133224	0.455	-5.04	2.03	-1.1085	-1.632	-1.116
05/22/2025 13:39:52.733	0.92964	-0.390156	0.116144	0.175	-4.935	3.465	-1.1025	-1.629	-1.119
05/22/2025 13:39:52.753	0.938912	-0.392352	0.119316	0.245	-3.815	4.375	-1.1025	-1.647	-1.134
05/22/2025 13:39:52.773	0.938424	-0.374296	0.127124	-0.665	-3.115	5.075	-1.1175	-1.6395	-1.161
05/22/2025 13:39:52.793	0.92354	-0.397232	0.121024	-0.63	-1.19	5.04	-1.116	-1.647	-1.128
05/22/2025 13:39:52.813	0.918416	-0.393328	0.117608	0	-2.275	4.69	-1.1055	-1.6545	-1.119
05/22/2025 13:39:52.833	0.91866	-0.3721	0.11712	-1.05	-2.905	5.845	-1.128	-1.65	-1.1385
05/22/2025 13:39:52.853	0.927688	-0.362584	0.107604	-1.61	-2.695	6.09	-1.128	-1.6425	-1.1235
05/22/2025 13:39:52.873	0.918416	-0.365512	0.112728	-2.17	-1.505	7.385	-1.143	-1.65	-1.1355
05/22/2025 13:39:52.893	0.9272	-0.398208	0.101016	-4.235	-1.225	6.615	-1.146	-1.6425	-1.128
05/22/2025 13:39:52.913	0.92964	-0.398208	0.093696	-2.135	-0.91	5.6	-1.146	-1.6695	-1.128
05/22/2025 13:39:52.933	0.925736	-0.40016	0.094916	-0.28	-0.595	4.095	-1.131	-1.6395	-1.1355
05/22/2025 13:39:52.953	0.918416	-0.39772	0.102236	-0.14	0.175	2.1	-1.1385	-1.665	-1.1235
05/22/2025 13:39:52.973	0.919148	-0.38064	0.092232	-0.455	0.77	0.21	-1.1205	-1.65	-1.1385
05/22/2025 13:39:52.993	0.917196	-0.36844	0.09882	-1.785	2.73	-1.785	-1.1355	-1.6695	-1.146
05/22/2025 13:39:53.013	0.925004	-0.379908	0.109068	-3.535	4.41	-4.375	-1.1355	-1.6725	-1.143
05/22/2025 13:39:53.033	0.924028	-0.363316	0.089792	-2.17	5.635	-5.845	-1.128	-1.677	-1.1535
05/22/2025 13:39:53.053	0.934764	-0.321592	0.102236	2.17	5.25	-7.385	-1.1235	-1.665	-1.1505
05/22/2025 13:39:53.073	0.952088	-0.301096	0.18178	1.19	3.255	-5.355	-1.1025	-1.6665	-1.1565
05/22/2025 13:39:53.093	0.954772	-0.404064	0.15982	-21.63	1.435	-0.98	-1.1025	-1.6665	-1.1565
05/22/2025 13:39:53.113	0.926468	-0.42578	0.114192	-22.015	0.7	0.91	-1.095	-1.659	-1.1835
05/22/2025 13:39:53.133	0.914512	-0.436516	0.107848	-11.235	-0.56	2.1	-1.1265	-1.665	-1.218
05/22/2025 13:39:53.153	0.927444	-0.41724	0.11834	-0.455	-2.415	2.45	-1.086	-1.6575	-1.221
05/22/2025 13:39:53.173	0.928176	-0.378444	0.11712	4.235	-3.045	1.82	-1.1115	-1.677	-1.218
05/22/2025 13:39:53.193	0.92964	-0.37576	0.109068	2.135	-3.15	1.54	-1.0965	-1.6875	-1.236
05/22/2025 13:39:53.213	0.924028	-0.400892	0.108824	-0.035	-1.54	1.19	-1.119	-1.665	-1.215
05/22/2025 13:39:53.233	0.926468	-0.387716	0.107116	-1.645	-0.805	0.595	-1.1115	-1.6875	-1.2285
05/22/2025 13:39:53.253	0.925736	-0.399184	0.09272	-2.975	-0.14	-0.245	-1.122	-1.68	-1.23
05/22/2025 13:39:53.273	0.943304	-0.397964	0.113704	-0.945	0.245	-0.385	-1.116	-1.677	-1.245
05/22/2025 13:39:53.293	0.93452	-0.393084	0.106628	1.155	0.35	-0.21	-1.131	-1.6725	-1.257
05/22/2025 13:39:53.313	0.930128	-0.38796	0.095892	1.89	-0.56	-0.315	-1.125	-1.695	-1.218
05/22/2025 13:39:53.333	0.92476	-0.383812	0.103212	1.54	-0.91	-0.56	-1.1295	-1.68	-1.2255
05/22/2025 13:39:53.353	0.926224	-0.386252	0.11102	1.4	-0.77	-1.085	-1.1175	-1.695	-1.206
05/22/2025 13:39:53.373	0.92232	-0.37088	0.10004	1.26	-0.49	-1.12	-1.1175	-1.695	-1.206
05/22/2025 13:39:53.393	0.92476	-0.376736	0.101016	1.12	0.315	-1.61	-1.1295	-1.692	-1.203
05/22/2025 13:39:53.413	0.92964	-0.38064	0.118096	0.49	1.19	-1.785	-1.122	-1.692	-1.1985
05/22/2025 13:39:53.433	0.9211	-0.395768	0.117852	-0.56	1.925	-1.47	-1.1355	-1.6875	-1.1805
05/22/2025 13:39:53.453	0.921588	-0.391132	0.111752	0.56	1.82	-1.33	-1.152	-1.68	-1.212
05/22/2025 13:39:53.473	0.92842	-0.381128	0.118096	1.015	1.435	-0.945	-1.104	-1.665	-1.203
05/22/2025 13:39:53.493	0.932324	-0.401136	0.127368	-0.77	1.68	-0.805	-1.1295	-1.6875	-1.2075
05/22/2025 13:39:53.513	0.926468	-0.37942	0.115168	-1.155	1.68	-0.805	-1.125	-1.677	-1.2105
05/22/2025 13:39:53.533	0.925492	-0.396988	0.113948	-1.575	2.31	-0.875	-1.0995	-1.6845	-1.203
05/22/2025 13:39:53.553	0.929396	-0.378932	0.123464	-0.175	2.975	-0.245	-1.122	-1.6725	-1.2225
05/22/2025 13:39:53.573	0.924028	-0.374052	0.114192	0.35	3.08	0.665	-1.1265	-1.65	-1.2345
05/22/2025 13:39:53.593	0.928176	-0.3843	0.120292	-0.595	3.185	1.365	-1.092	-1.6815	-1.1985
05/22/2025 13:39:53.613	0.925736	-0.405284	0.123952	-1.995	3.78	1.12	-1.107	-1.6425	-1.206
05/22/2025 13:39:53.633	0.920124	-0.393328	0.128588	-0.07	2.8	1.365	-1.107	-1.6425	-1.206
05/22/2025 13:39:53.653	0.921832	-0.387716	0.11834	0	1.085	1.785	-1.107	-1.6425	-1.206
05/22/2025 13:39:53.673	0.926468	-0.380396	0.122732	-0.665	-0.105	2.835	-1.122	-1.6425	-1.185
05/22/2025 13:39:53.693	0.91988	-0.397964	0.108824	-1.925	-0.49	4.165	-1.1145	-1.635	-1.2075
05/22/2025 13:39:53.713	0.939644	-0.408944	0.126636	-1.4	-1.575	3.64	-1.122	-1.665	-1.1835
05/22/2025 13:39:53.733	0.902312	-0.388448	0.106872	-0.42	-1.785	3.675	-1.1445	-1.6275	-1.173
05/22/2025 13:39:53.753	0.911584	-0.386496	0.107116	-1.085	-3.22	3.5	-1.1055	-1.659	-1.1655
05/22/2025 13:39:53.773	0.91012	-0.38674	0.100284	-1.295	-3.185	3.36	-1.1205	-1.6545	-1.1505
05/22/2025 13:39:53.793	0.929152	-0.348676	0.12566	-2.59	-4.06	3.36	-1.1175	-1.605	-1.1535
05/22/2025 13:39:53.813	0.929152	-0.4026	0.102724	-7.525	-4.41	2.94	-1.1025	-1.6245	-1.1265
05/22/2025 13:39:53.833	0.920856	-0.40382	0.082472	-7.56	-5.18	2.065	-1.116	-1.635	-1.128
05/22/2025 13:39:53.853	0.922076	-0.394304	0.09272	-6.685	-5.145	1.54	-1.1205	-1.6245	-1.1205
05/22/2025 13:39:53.873	0.928908	-0.393572	0.09516	-6.055	-4.69	1.4	-1.1055	-1.6095	-1.116
05/22/2025 13:39:53.893	0.921344	-0.395524	0.105164	-4.13	-3.22	1.33	-1.1235	-1.5945	-1.1055
05/22/2025 13:39:53.913	0.926468	-0.38674	0.098332	-2.345	-2.695	1.435	-1.1205	-1.5945	-1.116
05/22/2025 13:39:53.933	0.91866	-0.393084	0.106384	-0.105	-1.89	2.205	-1.125	-1.5975	-1.131
05/22/2025 13:39:53.953	0.918172	-0.37332	0.115412	0.735	-1.33	2.345	-1.083	-1.614	-1.0995
05/22/2025 13:39:53.973	0.926224	-0.38186	0.121756	-0.175	-0.875	2.73	-1.11	-1.629	-1.1235
05/22/2025 13:39:53.993	0.93452	-0.401868	0.128588	-2.625	-0.14	2.38	-1.125	-1.605	-1.131
05/22/2025 13:39:54.013	0.93452	-0.40382	0.110776	-1.68	0.7	2.065	-1.11	-1.6095	-1.128
05/22/2025 13:39:54.033	0.93818	-0.399916	0.12444	-0.49	2.03	1.26	-1.14	-1.6245	-1.143
05/22/2025 13:39:54.053	0.921588	-0.396256	0.125172	0.945	2.73	1.05	-1.092	-1.6215	-1.1415
05/22/2025 13:39:54.073	0.928664	-0.396256	0.124928	2.205	2.135	1.47	-1.092	-1.6215	-1.1415
05/22/2025 13:39:54.093	0.9272	-0.404064	0.12444	2.695	2.135	2.31	-1.0965	-1.605	-1.1655
05/22/2025 13:39:54.113	0.92964	-0.416752	0.138348	3.115	1.225	2.38	-1.1295	-1.6095	-1.1505
05/22/2025 13:39:54.133	0.915244	-0.410164	0.1281	3.71	0.84	2.38	-1.122	-1.62	-1.1535
05/22/2025 13:39:54.153	0.912316	-0.429684	0.11712	3.78	0.455	2.275	-1.1145	-1.6275	-1.1655
05/22/2025 13:39:54.173	0.91622	-0.421144	0.13664	6.02	2.205	2.73	-1.158	-1.6305	-1.1625
05/22/2025 13:39:54.193	0.916708	-0.423584	0.141276	5.6	3.43	3.185	-1.1055	-1.629	-1.1265
05/22/2025 13:39:54.213	0.920124	-0.431636	0.136396	3.955	4.13	3.5	-1.113	-1.6245	-1.1355
05/22/2025 13:39:54.233	0.91988	-0.440908	0.123708	3.115	5.285	3.29	-1.1205	-1.6275	-1.143
05/22/2025 13:39:54.253	0.913536	-0.437248	0.125416	2.17	6.125	3.255	-1.1205	-1.6245	-1.1505
05/22/2025 13:39:54.273	0.914512	-0.442128	0.121756	0.91	6.825	3.78	-1.1445	-1.62	-1.1625
05/22/2025 13:39:54.293	0.913536	-0.422608	0.118584	0.035	7	5.32	-1.11	-1.6395	-1.1535
05/22/2025 13:39:54.313	0.904508	-0.415288	0.105652	-0.63	7.21	7	-1.122	-1.6275	-1.173
05/22/2025 13:39:54.333	0.907924	-0.433344	0.095892	-1.12	7.245	7.7	-1.1175	-1.6545	-1.176
05/22/2025 13:39:54.353	0.909632	-0.435296	0.105652	-0.7	7.07	8.26	-1.128	-1.6575	-1.173
05/22/2025 13:39:54.373	0.899384	-0.42334	0.101748	-0.735	6.09	8.26	-1.1115	-1.632	-1.191
05/22/2025 13:39:54.393	0.892552	-0.42822	0.10858	-1.4	4.83	7.63	-1.0965	-1.632	-1.1985
05/22/2025 13:39:54.413	0.897188	-0.43188	0.106628	-0.7	3.22	6.16	-1.122	-1.635	-1.203
05/22/2025 13:39:54.433	0.892064	-0.435784	0.121024	1.505	1.575	4.165	-1.1235	-1.638	-1.23
05/22/2025 13:39:54.453	0.900848	-0.450668	0.122244	2.8	0.805	3.08	-1.1235	-1.638	-1.23
05/22/2025 13:39:54.473	0.89792	-0.449448	0.13054	4.095	0.665	2.975	-1.1205	-1.635	-1.2495
05/22/2025 13:39:54.493	0.900604	-0.432856	0.13908	5.11	0.805	3.395	-1.101	-1.635	-1.2525
05/22/2025 13:39:54.513	0.915244	-0.438712	0.148596	4.27	1.715	3.71	-1.1085	-1.632	-1.233
05/22/2025 13:39:54.533	0.904996	-0.442616	0.145424	2.975	2.31	4.375	-1.116	-1.638	-1.233
05/22/2025 13:39:54.553	0.898896	-0.44652	0.141276	2.52	1.925	4.55	-1.0935	-1.632	-1.2375
05/22/2025 13:39:54.573	0.885476	-0.435784	0.1342	3.22	1.19	4.62	-1.113	-1.6275	-1.26
05/22/2025 13:39:54.593	0.894504	-0.431148	0.138104	4.515	0.945	4.69	-1.143	-1.6275	-1.2465
05/22/2025 13:39:54.613	0.894016	-0.437004	0.136396	4.865	0.63	4.48	-1.146	-1.6305	-1.2225
05/22/2025 13:39:54.633	0.892064	-0.4209	0.13176	5.88	0.245	3.57	-1.1385	-1.638	-1.227
05/22/2025 13:39:54.653	0.893528	-0.424072	0.124196	5.18	-0.105	2.87	-1.149	-1.62	-1.215
05/22/2025 13:39:54.673	0.89304	-0.421144	0.124684	4.585	-0.665	2.31	-1.1265	-1.6305	-1.2225
05/22/2025 13:39:54.693	0.891576	-0.411872	0.122488	3.92	-1.05	2.17	-1.134	-1.635	-1.2375
05/22/2025 13:39:54.713	0.893528	-0.401868	0.113704	4.13	-1.75	2.275	-1.134	-1.635	-1.2375
05/22/2025 13:39:54.733	0.89548	-0.39772	0.113704	3.955	-2.415	1.82	-1.134	-1.635	-1.2375
05/22/2025 13:39:54.753	0.901336	-0.394548	0.104188	3.325	-3.325	0.595	-1.134	-1.635	-1.203
05/22/2025 13:39:54.773	0.900116	-0.390156	0.105652	3.78	-4.095	-0.945	-1.107	-1.6245	-1.191
05/22/2025 13:39:54.793	0.904508	-0.376004	0.100772	4.585	-4.795	-2.765	-1.122	-1.62	-1.1775
05/22/2025 13:39:54.813	0.906948	-0.382104	0.106384	5.355	-4.55	-4.585	-1.0995	-1.6275	-1.191
05/22/2025 13:39:54.833	0.903288	-0.375028	0.113704	6.09	-4.69	-5.81	-1.1265	-1.623	-1.2
05/22/2025 13:39:54.853	0.89914	-0.359168	0.10858	5.495	-5.95	-7	-1.1415	-1.6125	-1.215
05/22/2025 13:39:54.873	0.910364	-0.358192	0.108824	5.075	-7.56	-8.365	-1.1265	-1.6305	-1.2105
05/22/2025 13:39:54.893	0.915244	-0.355996	0.097112	4.445	-9.1	-10.325	-1.146	-1.6455	-1.2345
05/22/2025 13:39:54.913	0.91866	-0.35136	0.096136	4.865	-10.605	-12.425	-1.1145	-1.62	-1.185
05/22/2025 13:39:54.933	0.930128	-0.344284	0.08784	4.9	-11.27	-14.385	-1.122	-1.632	-1.1955
05/22/2025 13:39:54.953	0.930372	-0.342088	0.09272	3.99	-11.235	-16.31	-1.11	-1.632	-1.173
05/22/2025 13:39:54.973	0.937448	-0.333304	0.095404	1.505	-11.795	-18.62	-1.14	-1.623	-1.173
05/22/2025 13:39:54.993	0.927688	-0.32696	0.097356	0.175	-12.285	-20.195	-1.14	-1.623	-1.173
05/22/2025 13:39:55.013	0.937692	-0.321836	0.092964	-1.645	-13.195	-21.91	-1.1475	-1.632	-1.1475
05/22/2025 13:39:55.033	0.955016	-0.323544	0.090036	-3.605	-13.72	-23.695	-1.1475	-1.632	-1.1475
05/22/2025 13:39:55.053	0.96746	-0.32696	0.085888	-4.585	-13.44	-25.655	-1.149	-1.65	-1.1205
05/22/2025 13:39:55.073	0.975512	-0.31964	0.091744	-4.34	-13.16	-27.51	-1.131	-1.6575	-1.116
05/22/2025 13:39:55.093	0.97966	-0.312808	0.097112	-4.305	-13.23	-28.63	-1.107	-1.6545	-1.0815
05/22/2025 13:39:55.113	0.99064	-0.2806	0.09076799	-4.62	-13.615	-29.26	-1.134	-1.6545	-1.074
05/22/2025 13:39:55.133	0.987224	-0.2684	0.09076799	-7.77	-13.055	-29.785	-1.122	-1.674	-1.071
05/22/2025 13:39:55.153	0.986492	-0.258152	0.084912	-11.69	-12.775	-30.52	-1.1475	-1.6815	-1.0755
05/22/2025 13:39:55.173	0.982588	-0.256444	0.07905599	-14.385	-13.09	-31.71	-1.143	-1.692	-1.0665
05/22/2025 13:39:55.193	0.976976	-0.256932	0.069784	-13.965	-12.81	-33.74	-1.1145	-1.689	-1.077
05/22/2025 13:39:55.213	0.981856	-0.252296	0.059048	-12.215	-12.845	-35.525	-1.095	-1.701	-1.062
05/22/2025 13:39:55.233	0.992104	-0.24644	0.054412	-9.73	-12.95	-37.415	-1.095	-1.7115	-1.065
05/22/2025 13:39:55.253	1.012356	-0.2196	0.053924	-6.86	-12.39	-40.67	-1.095	-1.7115	-1.065
05/22/2025 13:39:55.273	1.025288	-0.207156	0.041968	-8.82	-11.69	-42.21	-1.1025	-1.716	-1.077
05/22/2025 13:39:55.293	1.029436	-0.2074	0.050996	-13.615	-11.025	-42.91	-1.089	-1.7415	-1.107
05/22/2025 13:39:55.313	1.016992	-0.210816	0.033672	-18.095	-11.095	-43.54	-1.095	-1.7385	-1.0845
05/22/2025 13:39:55.333	1.015772	-0.21106	0.015616	-20.23	-11.76	-43.33	-1.0695	-1.761	-1.113
05/22/2025 13:39:55.353	1.016992	-0.194468	0.000488	-20.055	-12.74	-42.91	-1.08	-1.788	-1.0905
05/22/2025 13:39:55.373	1.025044	-0.191296	-0.011224	-18.445	-13.51	-42.595	-1.053	-1.77	-1.068
05/22/2025 13:39:55.393	1.015772	-0.168848	-0.015616	-16.975	-14.35	-42.49	-1.0575	-1.788	-1.0935
05/22/2025 13:39:55.413	1.022116	-0.150548	-0.032208	-15.82	-15.645	-41.895	-1.0905	-1.806	-1.1145
05/22/2025 13:39:55.433	1.025532	-0.151036	-0.043432	-14.875	-17.43	-42.14	-1.0575	-1.8225	-1.0905
05/22/2025 13:39:55.453	1.037244	-0.138592	-0.058804	-12.915	-18.9	-41.86	-1.08	-1.8255	-1.128
05/22/2025 13:39:55.473	1.036756	-0.119072	-0.06466	-10.955	-20.825	-42.77	-1.0635	-1.848	-1.086
05/22/2025 13:39:55.493	1.052128	-0.112972	-0.081496	-10.325	-23.765	-43.54	-1.0635	-1.8405	-1.0935
05/22/2025 13:39:55.513	1.038952	-0.077592	-0.083936	-8.05	-26.53	-44.415	-1.0635	-1.8405	-1.0935
05/22/2025 13:39:55.533	1.042856	-0.073444	-0.0854	-8.68	-27.335	-44.94	-1.041	-1.875	-1.0815
05/22/2025 13:39:55.553	1.03456	-0.053924	-0.068808	-9.8	-26.845	-45.08	-1.0305	-1.8825	-1.1085
05/22/2025 13:39:55.573	1.022848	-0.045872	-0.070028	-12.425	-24.99	-45.325	-1.0215	-1.902	-1.0815
05/22/2025 13:39:55.593	1.018212	-0.03782	-0.06832	-15.82	-23.415	-44.87	-1.0365	-1.932	-1.0845
05/22/2025 13:39:55.613	1.0065	-0.016348	-0.065148	-17.955	-21.665	-44.31	-1.0365	-1.9245	-1.0815
05/22/2025 13:39:55.633	1.011624	-0.005368	-0.064416	-20.72	-20.615	-44.45	-1.0065	-1.947	-1.08
05/22/2025 13:39:55.653	1.010404	0.000732	-0.066124	-23.52	-20.51	-45.71	-0.999	-1.962	-1.122
05/22/2025 13:39:55.673	1.02602	-0.009272	-0.076372	-24.815	-19.775	-47.39	-1.0065	-1.9545	-1.122
05/22/2025 13:39:55.693	1.025776	-0.007076	-0.082716	-23.38	-18.62	-48.685	-0.9855	-1.959	-1.137
05/22/2025 13:39:55.713	1.020164	0.013176	-0.093696	-19.95	-18.235	-49.175	-0.996	-1.977	-1.137
05/22/2025 13:39:55.733	1.030656	0.025132	-0.1098	-16.765	-18.935	-48.195	-0.975	-1.9815	-1.158
05/22/2025 13:39:55.753	1.024068	0.059048	-0.115168	-13.93	-20.405	-47.075	-0.9705	-1.9965	-1.143
05/22/2025 13:39:55.773	1.008696	0.092232	-0.132492	-8.75	-24.325	-45.325	-0.954	-2.016	-1.1385
05/22/2025 13:39:55.793	0.998448	0.134932	-0.140544	-6.965	-26.075	-44.975	-0.954	-2.016	-1.1385
05/22/2025 13:39:55.813	0.973804	0.149328	-0.142252	-6.405	-27.335	-45.64	-0.966	-2.031	-1.17
05/22/2025 13:39:55.833	0.978196	0.155184	-0.149572	-6.58	-28.945	-46.69	-0.948	-2.0415	-1.173
05/22/2025 13:39:55.853	0.987956	0.183	-0.15616	-5.145	-29.47	-48.3	-0.9405	-2.0355	-1.149
05/22/2025 13:39:55.873	0.99674	0.19886	-0.172752	-4.9	-28.56	-49.7	-0.951	-2.046	-1.1655
05/22/2025 13:39:55.893	1.009916	0.22814	-0.168604	-6.72	-26.81	-50.645	-0.9195	-2.07	-1.1295
05/22/2025 13:39:55.913	1.015528	0.233508	-0.190564	-9.66	-25.235	-50.89	-0.93	-2.088	-1.122
05/22/2025 13:39:55.933	1.005768	0.237412	-0.174704	-13.16	-23.31	-50.015	-0.927	-2.0805	-1.1265
05/22/2025 13:39:55.953	1.002596	0.265472	-0.18422	-16.24	-22.015	-48.755	-0.8895	-2.0775	-1.1175
05/22/2025 13:39:55.973	0.98942	0.29646	-0.178608	-20.16	-21.245	-47.425	-0.8865	-2.085	-1.113
05/22/2025 13:39:55.993	0.977952	0.31476	-0.188368	-24.115	-21	-46.48	-0.867	-2.1075	-1.1235
05/22/2025 13:39:56.013	0.982344	0.316956	-0.182024	-28.525	-21.84	-46.34	-0.8865	-2.0745	-1.113
05/22/2025 13:39:56.033	0.961116	0.325496	-0.198616	-29.575	-21.56	-46.9	-0.9075	-2.0655	-1.0845
05/22/2025 13:39:56.053	0.966484	0.387228	-0.248148	-27.86	-22.19	-48.51	-0.867	-2.109	-1.1055
05/22/2025 13:39:56.073	0.958432	0.387228	-0.252052	-26.04	-23.765	-51.135	-0.867	-2.109	-1.1055
05/22/2025 13:39:56.093	0.97356	0.401868	-0.273524	-22.365	-26.74	-53.55	-0.864	-2.124	-1.1235
05/22/2025 13:39:56.113	0.958188	0.458964	-0.275964	-16.52	-28.665	-55.37	-0.834	-2.127	-1.1235
05/22/2025 13:39:56.133	0.932812	0.467748	-0.273524	-15.225	-29.085	-55.86	-0.852	-2.1015	-1.1085
05/22/2025 13:39:56.153	0.913292	0.489464	-0.282552	-16.695	-28.35	-56.385	-0.849	-2.109	-1.116
05/22/2025 13:39:56.173	0.905484	0.482876	-0.309148	-22.68	-27.615	-56.385	-0.8415	-2.0865	-1.1205
05/22/2025 13:39:56.193	0.893772	0.471652	-0.312564	-24.71	-27.58	-56.35	-0.807	-2.1465	-1.092
05/22/2025 13:39:56.213	0.865468	0.503372	-0.322568	-22.05	-28.84	-56.385	-0.816	-2.1135	-1.119
05/22/2025 13:39:56.233	0.83326	0.524356	-0.324764	-15.855	-31.01	-57.085	-0.792	-2.151	-1.122
05/22/2025 13:39:56.253	0.849364	0.506056	-0.305732	-10.15	-34.23	-58.765	-0.7665	-2.1705	-1.1055
05/22/2025 13:39:56.273	0.821304	0.513132	-0.315492	-7	-33.985	-60.165	-0.777	-2.193	-1.098
05/22/2025 13:39:56.293	0.813008	0.514352	-0.323056	-4.795	-33.425	-59.78	-0.798	-2.1735	-1.053
05/22/2025 13:39:56.313	0.803004	0.582428	-0.289872	2.17	-34.055	-57.575	-0.7755	-2.1555	-1.0485
05/22/2025 13:39:56.333	0.799588	0.580964	-0.293532	3.64	-34.965	-56.595	-0.7485	-2.187	-1.044
05/22/2025 13:39:56.353	0.770064	0.600484	-0.262788	4.69	-36.155	-56.385	-0.7395	-2.2095	-1.0065
05/22/2025 13:39:56.373	0.741028	0.602436	-0.286456	6.055	-36.295	-57.75	-0.7515	-2.217	-1.0065
05/22/2025 13:39:56.393	0.75762	0.61	-0.29524	9.17	-36.435	-58.94	-0.735	-2.2245	-0.987
05/22/2025 13:39:56.413	0.75152	0.63196	-0.274256	11.27	-35.805	-59.045	-0.735	-2.2365	-0.9495
05/22/2025 13:39:56.433	0.732732	0.642208	-0.241316	14.63	-32.83	-57.05	-0.705	-2.241	-0.963
05/22/2025 13:39:56.453	0.703452	0.664168	-0.24156	13.44	-28.805	-54.425	-0.7125	-2.2215	-0.93
05/22/2025 13:39:56.473	0.686616	0.663192	-0.256932	7.315	-25.795	-53.06	-0.7155	-2.256	-0.933
05/22/2025 13:39:56.493	0.648552	0.637084	-0.263764	5.145	-20.825	-52.045	-0.7155	-2.256	-0.933
05/22/2025 13:39:56.513	0.622444	0.621224	-0.290116	9.065	-16.275	-50.89	-0.6915	-2.2635	-0.9135
05/22/2025 13:39:56.533	0.646356	0.644404	-0.27572	13.545	-13.895	-48.895	-0.7065	-2.271	-0.9255
05/22/2025 13:39:56.553	0.587308	0.675636	-0.306464	13.475	-9.31	-46.48	-0.684	-2.286	-0.924
05/22/2025 13:39:56.573	0.567544	0.652212	-0.312076	10.78	-8.575	-44.52	-0.645	-2.253	-0.9195
05/22/2025 13:39:56.593	0.52216	0.674172	-0.369172	11.55	-6.545	-41.93	-0.636	-2.298	-0.927
05/22/2025 13:39:56.613	0.521428	0.69174	-0.37942	10.535	-5.67	-40.215	-0.636	-2.3055	-0.927
05/22/2025 13:39:56.633	0.483364	0.673684	-0.398208	9.24	-3.99	-38.92	-0.6315	-2.337	-0.9075
05/22/2025 13:39:56.653	0.488488	0.68808	-0.407236	12.53	-3.36	-37.66	-0.6105	-2.292	-0.9105
05/22/2025 13:39:56.673	0.471652	0.71004	-0.439688	12.705	-3.955	-36.505	-0.594	-2.337	-0.9135
05/22/2025 13:39:56.693	0.487024	0.759084	-0.44286	8.54	-5.215	-33.635	-0.564	-2.334	-0.8895
05/22/2025 13:39:56.713	0.486048	0.779092	-0.44408	-1.155	-4.13	-28.84	-0.552	-2.3565	-0.8865
05/22/2025 13:39:56.733	0.448472	0.780068	-0.457744	-13.72	-1.47	-23.45	-0.549	-2.3565	-0.897
05/22/2025 13:39:56.753	0.4392	0.765428	-0.485804	-23.45	-0.49	-18.48	-0.5235	-2.3355	-0.9075
05/22/2025 13:39:56.773	0.451156	0.721752	-0.5063	-23.03	-2.345	-15.085	-0.531	-2.3685	-0.897
05/22/2025 13:39:56.793	0.421144	0.764696	-0.504836	-12.04	-2.695	-13.72	-0.543	-2.3565	-0.9195
05/22/2025 13:39:56.813	0.431148	0.828136	-0.505568	-3.5	-6.125	-14.595	-0.5535	-2.394	-0.9345
05/22/2025 13:39:56.833	0.4575	0.854244	-0.49166	-4.165	-9.415	-15.645	-0.516	-2.388	-0.903
05/22/2025 13:39:56.853	0.430172	0.827648	-0.454084	-7.525	-10.22	-16.17	-0.5265	-2.3805	-0.915
05/22/2025 13:39:56.873	0.442372	0.842532	-0.439444	-8.75	-12.18	-15.4	-0.5265	-2.3805	-0.915
05/22/2025 13:39:56.893	0.431392	0.797392	-0.42456	-12.04	-11.83	-14.385	-0.546	-2.4015	-0.9345
05/22/2025 13:39:56.913	0.436272	0.805932	-0.416264	-14.42	-13.44	-13.58	-0.51	-2.388	-0.9525
05/22/2025 13:39:56.933	0.445544	0.777872	-0.399672	-16.695	-13.895	-12.67	-0.5265	-2.4105	-0.927
05/22/2025 13:39:56.953	0.4331	0.757132	-0.382104	-15.435	-12.95	-11.795	-0.5205	-2.3835	-0.96
05/22/2025 13:39:56.973	0.396988	0.782264	-0.369172	-13.72	-11.655	-10.115	-0.555	-2.4015	-0.9765
05/22/2025 13:39:56.993	0.39528	0.804956	-0.335012	-12.705	-11.935	-8.68	-0.5205	-2.4015	-0.9795
05/22/2025 13:39:57.013	0.404552	0.787876	-0.340624	-15.68	-12.25	-8.33	-0.5145	-2.418	-0.9975
05/22/2025 13:39:57.033	0.395036	0.776652	-0.370392	-16.695	-12.11	-7.805	-0.5145	-2.4015	-1.017
05/22/2025 13:39:57.053	0.415044	0.730048	-0.351116	-11.865	-12.215	-7.945	-0.5295	-2.394	-1.0095
05/22/2025 13:39:57.073	0.418704	0.755668	-0.344528	-3.85	-11.025	-7.84	-0.5115	-2.379	-1.029
05/22/2025 13:39:57.093	0.413092	0.796172	-0.309636	-0.245	-8.96	-6.755	-0.4935	-2.4015	-1.0395
05/22/2025 13:39:57.113	0.403088	0.809348	-0.313784	-1.155	-7.525	-6.3	-0.486	-2.391	-1.0395
05/22/2025 13:39:57.133	0.399916	0.797636	-0.349896	-0.035	-7.665	-7.385	-0.486	-2.391	-1.0395
05/22/2025 13:39:57.153	0.388204	0.798856	-0.383568	2.38	-7.7	-8.33	-0.486	-2.4105	-1.0395
05/22/2025 13:39:57.173	0.379908	0.824964	-0.366732	7.665	-7.21	-9.975	-0.483	-2.3865	-1.05
05/22/2025 13:39:57.193	0.398208	0.83936	-0.390644	10.325	-8.33	-10.99	-0.471	-2.3985	-1.038
05/22/2025 13:39:57.213	0.384544	0.81374	-0.414312	12.74	-6.755	-11.27	-0.4815	-2.4105	-1.0155
05/22/2025 13:39:57.233	0.387228	0.852048	-0.431392	17.745	-6.405	-11.305	-0.4845	-2.4105	-0.993
05/22/2025 13:39:57.253	0.386984	0.86986	-0.429684	18.655	-5.495	-11.095	-0.504	-2.418	-1.017
05/22/2025 13:39:57.273	0.372344	0.93696	-0.430416	13.545	-6.545	-10.36	-0.4815	-2.4135	-1.008
05/22/2025 13:39:57.293	0.386984	0.912316	-0.447984	3.045	-8.68	-9.59	-0.4695	-2.4075	-0.9885
05/22/2025 13:39:57.313	0.381372	0.872788	-0.460672	-3.815	-9.695	-8.89	-0.462	-2.4255	-0.981
05/22/2025 13:39:57.333	0.383324	0.869372	-0.491172	-3.045	-10.43	-8.19	-0.4695	-2.43	-0.9855
05/22/2025 13:39:57.353	0.361364	0.897676	-0.48434	0.63	-11.935	-8.89	-0.495	-2.403	-0.96
05/22/2025 13:39:57.373	0.34648	0.887672	-0.457256	2.485	-12.425	-11.025	-0.48	-2.391	-0.9705
05/22/2025 13:39:57.393	0.378444	0.89548	-0.4331	2.87	-11.2	-12.845	-0.489	-2.388	-0.993
05/22/2025 13:39:57.413	0.321836	0.874984	-0.400892	0.77	-4.655	-13.3	-0.462	-2.385	-0.9735
05/22/2025 13:39:57.433	0.33062	0.868396	-0.400404	-4.48	-2.695	-13.23	-0.45	-2.415	-0.9885
05/22/2025 13:39:57.453	0.321592	0.85522	-0.383812	-13.335	0.28	-11.165	-0.45	-2.415	-0.9885
05/22/2025 13:39:57.473	0.323788	0.76616	-0.402112	-18.025	-1.26	-9.695	-0.4395	-2.4075	-0.9885
05/22/2025 13:39:57.493	0.349896	0.797636	-0.400404	-11.795	-3.29	-9.625	-0.4395	-2.3955	-0.969
05/22/2025 13:39:57.513	0.297192	0.782752	-0.39894	-8.89	-3.15	-9.555	-0.432	-2.388	-0.9885
05/22/2025 13:39:57.533	0.29646	0.800564	-0.399672	-8.05	-4.62	-8.47	-0.4395	-2.3925	-0.984
05/22/2025 13:39:57.553	0.321104	0.81252	-0.416996	-9.555	-3.255	-5.215	-0.429	-2.373	-0.996
05/22/2025 13:39:57.573	0.29036	0.814716	-0.4209	-12.775	-0.21	-1.54	-0.387	-2.394	-0.945
05/22/2025 13:39:57.593	0.288896	0.754692	-0.412848	-10.43	0.14	2.45	-0.417	-2.397	-0.954
05/22/2025 13:39:57.613	0.267912	0.794464	-0.38308	0.595	0.245	3.85	-0.4125	-2.37	-0.939
05/22/2025 13:39:57.633	0.270352	0.806664	-0.376004	6.405	-2.625	2.415	-0.4425	-2.3895	-0.9465
05/22/2025 13:39:57.653	0.291824	0.828868	-0.394792	7.665	-4.515	0.595	-0.405	-2.382	-0.942
05/22/2025 13:39:57.673	0.312808	0.827404	-0.402844	3.815	-2.52	0.385	-0.405	-2.382	-0.942
05/22/2025 13:39:57.693	0.318176	0.779824	-0.397476	3.605	-1.715	0.98	-0.423	-2.3925	-0.9345
05/22/2025 13:39:57.713	0.332084	0.814472	-0.410408	10.15	-2.555	2.1	-0.4455	-2.3745	-0.906
05/22/2025 13:39:57.733	0.339404	0.823744	-0.391132	14.21	-4.305	4.165	-0.4335	-2.3775	-0.8895
05/22/2025 13:39:57.753	0.360876	0.881572	-0.366976	14.49	-4.83	5.74	-0.4635	-2.3925	-0.894
05/22/2025 13:39:57.773	0.330376	0.884012	-0.378932	8.96	-1.82	5.635	-0.4785	-2.388	-0.903
05/22/2025 13:39:57.793	0.327448	0.888404	-0.390644	4.27	-2.17	4.41	-0.468	-2.388	-0.909
05/22/2025 13:39:57.813	0.299876	0.863272	-0.419924	3.5	-0.77	2.66	-0.4665	-2.373	-0.8865
05/22/2025 13:39:57.833	0.320616	0.859368	-0.423096	6.685	-0.77	0.56	-0.471	-2.388	-0.9015
05/22/2025 13:39:57.853	0.32086	0.85034	-0.41114	6.685	1.26	-1.05	-0.441	-2.397	-0.894
05/22/2025 13:39:57.873	0.342332	0.838628	-0.424804	8.19	2.205	-1.26	-0.4755	-2.3655	-0.8955
05/22/2025 13:39:57.893	0.34282	0.890356	-0.425048	10.08	3.36	-1.575	-0.456	-2.382	-0.894
05/22/2025 13:39:57.913	0.30622	0.884988	-0.444568	5.915	3.675	-0.7	-0.4815	-2.3805	-0.891
05/22/2025 13:39:57.933	0.32696	0.856928	-0.463356	-1.645	2.59	1.4	-0.4815	-2.3805	-0.891
05/22/2025 13:39:57.953	0.315248	0.907924	-0.44774	-5.32	2.275	2.555	-0.4665	-2.3745	-0.8715
05/22/2025 13:39:57.973	0.28792	0.867664	-0.45262	-9.205	4.095	2.415	-0.4455	-2.3775	-0.9015
05/22/2025 13:39:57.993	0.302804	0.860344	-0.438956	-9.38	3.71	0.7	-0.438	-2.4045	-0.897
05/22/2025 13:39:58.013	0.30134	0.823988	-0.436272	-8.995	5.11	0.525	-0.4185	-2.394	-0.8775
05/22/2025 13:39:58.033	0.333548	0.844484	-0.425048	-5.425	3.78	0.385	-0.435	-2.3895	-0.912
05/22/2025 13:39:58.053	0.302804	0.804712	-0.410652	-2.205	4.725	0.21	-0.4455	-2.397	-0.9135
05/22/2025 13:39:58.073	0.380884	0.82472	-0.415288	-0.805	2.135	0.21	-0.4575	-2.385	-0.9315
05/22/2025 13:39:58.093	0.34526	0.813252	-0.395036	-4.165	6.65	1.995	-0.453	-2.4045	-0.909
05/22/2025 13:39:58.113	0.33916	0.778116	-0.348676	-5.775	6.405	2.66	-0.459	-2.4	-0.8985
05/22/2025 13:39:58.133	0.335012	0.781532	-0.382348	-5.53	4.48	3.535	-0.456	-2.4225	-0.9165
05/22/2025 13:39:58.153	0.338916	0.804224	-0.393816	-4.34	2.975	5.705	-0.4635	-2.4105	-0.921
05/22/2025 13:39:58.173	0.326228	0.87718	-0.399184	-4.725	2.205	6.265	-0.4665	-2.4195	-0.906
05/22/2025 13:39:58.193	0.3538	0.870836	-0.440908	-14.7	1.26	7.14	-0.456	-2.4345	-0.9435
05/22/2025 13:39:58.213	0.282796	0.837652	-0.445056	-11.34	3.675	6.615	-0.456	-2.4345	-0.9435
05/22/2025 13:39:58.233	0.308172	0.859368	-0.455548	-1.05	0.35	3.15	-0.4755	-2.4075	-0.966
05/22/2025 13:39:58.253	0.324032	0.879132	-0.449448	9.31	-0.84	-2.24	-0.48	-2.4105	-0.99
05/22/2025 13:39:58.273	0.31476	0.923296	-0.447252	16.065	-1.295	-6.3	-0.5025	-2.436	-0.978
05/22/2025 13:39:58.293	0.342088	0.906704	-0.465308	14.49	-1.995	-9.03	-0.4695	-2.4255	-0.978
05/22/2025 13:39:58.313	0.346724	0.935984	-0.453596	12.215	-1.925	-9.415	-0.4425	-2.403	-0.9735
05/22/2025 13:39:58.333	0.355508	0.910364	-0.457744	6.16	-2.8	-9.065	-0.45	-2.43	-0.9735
05/22/2025 13:39:58.353	0.34526	0.888648	-0.4392	1.155	-4.095	-8.12	-0.4725	-2.445	-0.978
05/22/2025 13:39:58.373	0.336232	0.878644	-0.45872	-2.66	-5.635	-7.665	-0.4725	-2.4375	-0.996
05/22/2025 13:39:58.393	0.334768	0.870836	-0.439688	-3.29	-6.58	-7.77	-0.462	-2.415	-1.0035
05/22/2025 13:39:58.413	0.32086	0.853756	-0.42456	-5.005	-6.825	-7.665	-0.417	-2.4375	-0.9795
05/22/2025 13:39:58.433	0.287432	0.872788	-0.417484	-5.145	-5.95	-7.665	-0.417	-2.442	-0.9945
05/22/2025 13:39:58.453	0.310368	0.893284	-0.405528	-6.09	-6.615	-8.015	-0.411	-2.4375	-1.014
05/22/2025 13:39:58.473	0.281088	0.820328	-0.409676	-7.315	-4.235	-10.745	-0.411	-2.4375	-1.014
05/22/2025 13:39:58.493	0.276452	0.792268	-0.410408	-0.84	-4.725	-12.495	-0.411	-2.4375	-1.014
05/22/2025 13:39:58.513	0.307196	0.776408	-0.383568	6.475	-5.95	-12.985	-0.4065	-2.427	-0.9795
05/22/2025 13:39:58.533	0.310368	0.829112	-0.39284	9.345	-4.795	-10.64	-0.414	-2.43	-1.002
05/22/2025 13:39:58.553	0.297192	0.831064	-0.397964	4.795	-3.57	-7.875	-0.4095	-2.4225	-0.987
05/22/2025 13:39:58.573	0.2989	0.838872	-0.403576	-0.805	-2.555	-4.305	-0.4095	-2.4225	-0.9795
05/22/2025 13:39:58.593	0.294752	0.83082	-0.437736	-5.6	0.42	-0.35	-0.399	-2.4465	-0.9945
05/22/2025 13:39:58.613	0.28182	0.848388	-0.45994	-6.72	2.555	3.08	-0.396	-2.4225	-0.999
05/22/2025 13:39:58.633	0.267912	0.883036	-0.45262	-6.405	2.03	4.165	-0.4065	-2.415	-0.9795
05/22/2025 13:39:58.653	0.251076	0.870104	-0.43188	-6.055	0.595	2.73	-0.4125	-2.4345	-0.9765
05/22/2025 13:39:58.673	0.274256	0.881084	-0.43188	-3.01	-2.975	-1.855	-0.4095	-2.4225	-0.9765
05/22/2025 13:39:58.693	0.280844	0.926712	-0.443836	0.91	-3.675	-6.475	-0.42	-2.4225	-0.9795
05/22/2025 13:39:58.713	0.284992	0.892064	-0.446764	3.15	-4.445	-9.03	-0.3945	-2.4075	-0.975
05/22/2025 13:39:58.733	0.305244	0.90524	-0.427976	8.47	-4.445	-10.92	-0.4215	-2.4045	-0.9765
05/22/2025 13:39:58.753	0.303048	0.887916	-0.415044	7.49	-2.66	-10.64	-0.4215	-2.4045	-0.9765
05/22/2025 13:39:58.773	0.299388	0.86498	-0.395524	6.055	-3.29	-9.73	-0.4065	-2.3925	-0.9645
05/22/2025 13:39:58.793	0.294752	0.869616	-0.4026	7.245	-2.52	-9.17	-0.402	-2.397	-0.969
05/22/2025 13:39:58.813	0.28548	0.862052	-0.402112	7.385	-0.91	-7.945	-0.372	-2.394	-0.9405
05/22/2025 13:39:58.833	0.297192	0.864736	-0.408944	4.97	0.455	-6.825	-0.3615	-2.394	-0.9405
05/22/2025 13:39:58.853	0.245464	0.865712	-0.422608	3.465	4.305	-6.755	-0.3645	-2.3895	-0.945
05/22/2025 13:39:58.873	0.258396	0.853756	-0.424316	1.12	4.235	-6.3	-0.345	-2.4015	-0.9255
05/22/2025 13:39:58.893	0.23546	0.825696	-0.422608	0.525	3.64	-5.915	-0.345	-2.4015	-0.9255
05/22/2025 13:39:58.913	0.210328	0.827648	-0.41358	3.57	1.61	-5.915	-0.3495	-2.4165	-0.9405
05/22/2025 13:39:58.933	0.23546	0.834236	-0.407236	6.37	-0.595	-5.285	-0.372	-2.394	-0.915
05/22/2025 13:39:58.953	0.236436	0.832772	-0.429928	3.57	0.35	-4.41	-0.3675	-2.4015	-0.906
05/22/2025 13:39:58.973	0.21472	0.80398	-0.42578	0.315	2.975	-2.1	-0.378	-2.394	-0.8805
05/22/2025 13:39:58.993	0.219112	0.796904	-0.433832	2.87	3.185	0.595	-0.3555	-2.4285	-0.876
05/22/2025 13:39:59.013	0.221064	0.838628	-0.413824	9.17	2.135	3.22	-0.366	-2.4015	-0.876
05/22/2025 13:39:59.033	0.236192	0.846192	-0.42822	7.735	2.38	3.43	-0.366	-2.421	-0.876
05/22/2025 13:39:59.053	0.254248	0.826916	-0.431392	4.515	2.765	3.535	-0.3735	-2.394	-0.8535
05/22/2025 13:39:59.073	0.244732	0.828136	-0.436516	5.11	3.78	3.325	-0.381	-2.4135	-0.858
05/22/2025 13:39:59.093	0.252052	0.88816	-0.440908	8.33	2.17	4.655	-0.3735	-2.391	-0.843
05/22/2025 13:39:59.113	0.221064	0.931836	-0.446276	7.945	2.485	5.495	-0.4005	-2.3895	-0.873
05/22/2025 13:39:59.133	0.255712	0.927444	-0.457012	1.96	0.665	5.075	-0.414	-2.394	-0.8745
05/22/2025 13:39:59.153	0.264252	0.908412	-0.457744	-4.83	2.1	4.445	-0.3885	-2.3895	-0.885
05/22/2025 13:39:59.173	0.247416	0.889624	-0.46116	-6.58	4.235	3.36	-0.393	-2.382	-0.873
05/22/2025 13:39:59.193	0.24522	0.874008	-0.463112	-3.43	4.305	1.855	-0.378	-2.394	-0.873
05/22/2025 13:39:59.213	0.230336	0.88084	-0.48556	0.735	4.62	1.61	-0.4005	-2.364	-0.8895
05/22/2025 13:39:59.233	0.269376	0.8845	-0.488976	2.59	3.185	0.945	-0.396	-2.3895	-0.87
05/22/2025 13:39:59.253	0.264984	0.880596	-0.480924	1.26	3.115	0.21	-0.4035	-2.3865	-0.855
05/22/2025 13:39:59.273	0.263276	0.871324	-0.46726	1.19	1.015	-0.42	-0.399	-2.409	-0.8775
05/22/2025 13:39:59.293	0.255468	0.85644	-0.455304	-0.98	0.315	1.015	-0.399	-2.409	-0.8775
05/22/2025 13:39:59.313	0.26108	0.87352	-0.415044	-6.755	-1.015	2.905	-0.3615	-2.421	-0.8565
05/22/2025 13:39:59.333	0.253028	0.878644	-0.41236	-17.15	-0.875	5.425	-0.396	-2.412	-0.8805
05/22/2025 13:39:59.353	0.276208	0.844972	-0.421388	-30.065	-1.05	8.505	-0.3885	-2.409	-0.8655
05/22/2025 13:39:59.373	0.290848	0.78324	-0.42578	-36.785	0.875	11.34	-0.3885	-2.4015	-0.888
05/22/2025 13:39:59.393	0.299388	0.749324	-0.414312	-35.455	2.065	14.63	-0.414	-2.4345	-0.9045
05/22/2025 13:39:59.413	0.293288	0.780068	-0.380396	-29.505	2.835	18.865	-0.4035	-2.4465	-0.915
05/22/2025 13:39:59.433	0.298656	0.743468	-0.381616	-25.725	1.365	22.12	-0.423	-2.4345	-0.957
05/22/2025 13:39:59.453	0.313296	0.752252	-0.366976	-18.095	-0.35	23.45	-0.423	-2.4345	-0.9495
05/22/2025 13:39:59.473	0.295728	0.7564	-0.330376	-9.17	0.14	24.115	-0.4455	-2.412	-0.939
05/22/2025 13:39:59.493	0.322324	0.744444	-0.297924	-1.19	-0.7	23.695	-0.4425	-2.415	-0.966
05/22/2025 13:39:59.513	0.345016	0.751764	-0.291092	4.165	1.4	24.15	-0.48	-2.4105	-0.966
05/22/2025 13:39:59.533	0.351848	0.817888	-0.291824	7.42	5.845	25.62	-0.4725	-2.415	-0.99
05/22/2025 13:39:59.553	0.376492	0.811056	-0.273768	4.13	12.285	28.28	-0.4725	-2.415	-0.99
05/22/2025 13:39:59.573	0.415776	0.79422	-0.288652	5.355	14.735	29.435	-0.4665	-2.418	-1.008
05/22/2025 13:39:59.593	0.41602	0.763476	-0.291092	11.9	18.83	29.855	-0.4995	-2.403	-1.002
05/22/2025 13:39:59.613	0.459208	0.793488	-0.292312	19.495	21.28	29.4	-0.489	-2.4135	-1.0245
05/22/2025 13:39:59.633	0.4453	0.805444	-0.29524	24.045	26.39	29.015	-0.501	-2.3715	-1.02
05/22/2025 13:39:59.653	0.449204	0.828624	-0.309148	24.57	28.315	28.875	-0.5085	-2.361	-1.0245
05/22/2025 13:39:59.673	0.450424	0.804468	-0.31354	21.84	30.485	28.63	-0.486	-2.406	-1.0275
05/22/2025 13:39:59.693	0.473116	0.757132	-0.316712	16.59	31.395	30.66	-0.474	-2.3985	-1.0155
05/22/2025 13:39:59.713	0.485804	0.709552	-0.291336	11.935	35.105	34.23	-0.4965	-2.3835	-1.0095
05/22/2025 13:39:59.733	0.489708	0.657824	-0.305244	5.775	39.83	39.41	-0.4995	-2.406	-1.0125
05/22/2025 13:39:59.753	0.476532	0.61122	-0.322812	1.54	44.765	45.71	-0.477	-2.3955	-1.008
05/22/2025 13:39:59.773	0.526796	0.609512	-0.376492	-0.49	46.76	53.13	-0.5115	-2.3835	-1.0245
05/22/2025 13:39:59.793	0.576328	0.600484	-0.39894	-1.96	49.175	62.125	-0.5085	-2.364	-1.047
05/22/2025 13:39:59.813	0.62708	0.562908	-0.353556	-1.61	53.445	75.67	-0.561	-2.3745	-1.041
05/22/2025 13:39:59.833	0.651236	0.572424	-0.300608	2.625	53.27	80.885	-0.579	-2.352	-1.035
05/22/2025 13:39:59.853	0.662948	0.59902	-0.315004	1.68	51.17	82.915	-0.5685	-2.352	-1.05
05/22/2025 13:39:59.873	0.678564	0.620736	-0.307928	2.905	45.57	83.125	-0.609	-2.328	-1.02
05/22/2025 13:39:59.893	0.702476	0.66612	-0.404308	4.375	41.65	83.16	-0.609	-2.328	-1.02
05/22/2025 13:39:59.913	0.761768	0.648308	-0.438224	0.665	35.595	82.915	-0.612	-2.325	-1.0245
05/22/2025 13:39:59.933	0.817888	0.560956	-0.37576	1.925	32.095	84.315	-0.624	-2.3055	-1.044
05/22/2025 13:39:59.953	0.805932	0.531676	-0.310856	10.29	34.79	84.91	-0.6585	-2.2935	-1.053
05/22/2025 13:39:59.973	0.822036	0.571448	-0.34892	15.715	36.54	85.435	-0.675	-2.2635	-1.0875
05/22/2025 13:39:59.993	0.841068	0.5551	-0.351116	12.25	37.73	86.975	-0.6825	-2.259	-1.0725
05/22/2025 13:40:00.013	0.909632	0.557296	-0.358924	7.945	34.615	89.495	-0.6855	-2.229	-1.0695
05/22/2025 13:40:00.033	0.940864	0.550464	-0.403088	5.705	35.525	93.24	-0.7125	-2.232	-1.0815
05/22/2025 13:40:00.053	0.94184	0.532408	-0.394548	7.91	34.475	95.2	-0.726	-2.2275	-1.0665
05/22/2025 13:40:00.073	0.97112	0.521672	-0.361364	16.065	25.865	93.03	-0.7425	-2.217	-1.0785
05/22/2025 13:40:00.093	0.953796	0.512156	-0.33184	23.73	21.035	87.815	-0.7425	-2.217	-1.0785
05/22/2025 13:40:00.113	0.969168	0.5246	-0.303292	28.525	13.86	80.185	-0.783	-2.133	-1.053
05/22/2025 13:40:00.133	0.9577	0.502884	-0.28914	30.275	11.06	72.87	-0.8115	-2.163	-1.008
05/22/2025 13:40:00.153	0.979416	0.45628	-0.299876	28.735	8.75	68.075	-0.849	-2.1315	-1.014
05/22/2025 13:40:00.173	0.979904	0.404552	-0.299388	26.005	11.83	64.995	-0.8565	-2.0985	-0.999
05/22/2025 13:40:00.193	0.995032	0.369172	-0.300608	25.27	15.82	63.945	-0.864	-2.109	-0.9795
05/22/2025 13:40:00.213	1.028216	0.326472	-0.269376	25.69	18.62	62.86	-0.882	-2.097	-0.969
05/22/2025 13:40:00.233	1.047492	0.294996	-0.264252	27.37	21.035	62.125	-0.9225	-2.0925	-0.966
05/22/2025 13:40:00.253	1.048956	0.271816	-0.26108	28.49	22.855	61.11	-0.912	-2.064	-0.9555
05/22/2025 13:40:00.273	1.061888	0.2257	-0.239364	29.855	21.42	59.535	-0.9195	-2.082	-0.9555
05/22/2025 13:40:00.293	1.059204	0.241072	-0.199836	33.88	19.145	57.4	-0.942	-2.0325	-0.948
05/22/2025 13:40:00.313	1.040172	0.284992	-0.186416	35.875	16.415	54.635	-0.9495	-2.0475	-0.945
05/22/2025 13:40:00.333	1.038464	0.28304	-0.203984	31.64	14.77	52.22	-0.9495	-2.04	-0.945
05/22/2025 13:40:00.353	1.02358	0.274988	-0.220576	24.185	15.645	49.735	-0.9495	-2.04	-0.945
05/22/2025 13:40:00.373	1.0126	0.260104	-0.209596	18.69	17.955	47.425	-0.9495	-2.04	-0.945
05/22/2025 13:40:00.393	0.990884	0.227896	-0.229848	15.295	20.755	44.87	-0.948	-2.0145	-0.9225
05/22/2025 13:40:00.413	0.992592	0.191784	-0.232776	16.065	21.63	40.845	-0.9825	-2.0175	-0.9465
05/22/2025 13:40:00.433	1.001376	0.140056	-0.241804	19.67	22.12	36.19	-0.9795	-1.9785	-0.954
05/22/2025 13:40:00.453	0.998204	0.112484	-0.270352	25.095	22.505	31.605	-0.99	-1.998	-0.951
05/22/2025 13:40:00.473	1.030656	0.090036	-0.265228	30.31	19.67	28	-1.0125	-1.9905	-0.9585
05/22/2025 13:40:00.493	1.028948	0.079788	-0.24766	33.67	17.115	26.18	-1.0095	-1.9905	-0.963
05/22/2025 13:40:00.513	1.008452	0.08686399	-0.243268	35.91	12.985	26.53	-1.0035	-1.9665	-0.9735
05/22/2025 13:40:00.533	1.004304	0.102236	-0.22814	32.55	8.645	28.735	-0.984	-1.9785	-0.969
05/22/2025 13:40:00.553	1.001864	0.091012	-0.22692	23.835	5.145	31.92	-1.0215	-1.9815	-0.9705
05/22/2025 13:40:00.573	1.011868	0.073444	-0.221064	14.105	2.66	35.035	-1.017	-1.9755	-0.9435
05/22/2025 13:40:00.593	1.001864	0.049776	-0.191296	6.125	3.115	37.1	-1.032	-1.9665	-0.9555
05/22/2025 13:40:00.613	0.988932	0.01952	-0.17446	-3.22	6.86	38.5	-1.0275	-1.986	-0.9405
05/22/2025 13:40:00.633	0.979416	0.006344	-0.197152	-7.595	11.095	38.255	-1.0275	-1.986	-0.9405
05/22/2025 13:40:00.653	0.97478	-0.015128	-0.194224	-10.64	14.875	36.995	-1.0515	-1.947	-0.96
05/22/2025 13:40:00.673	0.977708	-0.055632	-0.161528	-11.235	15.925	35.42	-1.047	-1.9365	-0.9525
05/22/2025 13:40:00.693	0.993568	-0.095404	-0.174948	-7	14.49	34.16	-1.059	-1.947	-0.96
05/22/2025 13:40:00.713	1.0065	-0.114436	-0.13786	3.15	12.355	32.935	-1.059	-1.9065	-0.96
05/22/2025 13:40:00.733	1.010648	-0.11224	-0.115412	14.14	8.61	31.675	-1.0815	-1.92	-0.972
05/22/2025 13:40:00.753	1.010404	-0.136152	-0.093452	22.155	6.93	31.745	-1.0515	-1.9215	-0.9795
05/22/2025 13:40:00.773	1.00284	-0.149816	-0.06734399	27.72	7.98	32.55	-1.0605	-1.902	-0.9945
05/22/2025 13:40:00.793	0.998448	-0.162504	-0.071004	28.98	11.725	34.055	-1.0905	-1.9125	-1.014
05/22/2025 13:40:00.813	1.000888	-0.156648	-0.049776	27.475	17.045	35.175	-1.086	-1.905	-1.014
05/22/2025 13:40:00.833	1.012112	-0.171288	-0.024156	22.12	21.245	35.945	-1.098	-1.905	-1.026
05/22/2025 13:40:00.853	1.009672	-0.206424	-0.027328	16.59	25.795	37.1	-1.113	-1.905	-1.053
05/22/2025 13:40:00.873	1.031632	-0.238144	-0.026108	13.615	27.825	37.8	-1.1025	-1.8975	-1.0485
05/22/2025 13:40:00.893	1.059692	-0.27206	-0.05612	14	31.36	39.2	-1.092	-1.8705	-1.038
05/22/2025 13:40:00.913	1.066768	-0.284504	-0.055632	17.92	31.92	39.97	-1.092	-1.8705	-1.038
05/22/2025 13:40:00.933	1.06262	-0.284016	-0.042944	21.385	30.8	41.265	-1.107	-1.8855	-1.095
05/22/2025 13:40:00.953	1.053104	-0.267424	-0.010004	24.08	29.225	43.19	-1.0965	-1.851	-1.083
05/22/2025 13:40:00.973	1.03212	-0.265472	0.018544	23.415	28.105	45.78	-1.119	-1.866	-1.068
05/22/2025 13:40:00.993	1.013332	-0.248148	0.027572	20.93	27.86	48.125	-1.1265	-1.824	-1.062
05/22/2025 13:40:01.013	1.005768	-0.228872	0.024644	14.525	29.225	48.965	-1.119	-1.818	-1.065
05/22/2025 13:40:01.033	0.990152	-0.218624	0.035868	4.165	33.11	48.58	-1.1415	-1.8135	-1.0665
05/22/2025 13:40:01.053	0.966728	-0.216672	0.042212	-8.295	36.4	47.355	-1.164	-1.7895	-1.071
05/22/2025 13:40:01.073	0.945012	-0.20862	0.047336	-18.305	38.955	44.555	-1.149	-1.8165	-1.0815
05/22/2025 13:40:01.093	0.932324	-0.226188	0.0549	-29.96	39.445	41.65	-1.146	-1.752	-1.059
05/22/2025 13:40:01.113	0.938912	-0.263276	0.040016	-38.01	39.165	37.52	-1.1475	-1.7565	-1.101
05/22/2025 13:40:01.133	0.919636	-0.277672	0.022448	-38.955	39.165	32.9	-1.155	-1.7265	-1.0935
05/22/2025 13:40:01.153	0.874252	-0.293044	0.017812	-33.845	36.47	24.885	-1.152	-1.692	-1.1205
05/22/2025 13:40:01.173	0.858148	-0.305732	0.03416	-27.335	32.34	18.375	-1.152	-1.692	-1.1205
05/22/2025 13:40:01.193	0.832284	-0.34282	0.021228	-21.245	26.915	12.075	-1.1025	-1.6515	-1.1685
05/22/2025 13:40:01.213	0.812032	-0.352824	0	-12.845	21.805	4.865	-1.1295	-1.65	-1.1775
05/22/2025 13:40:01.233	0.83204	-0.39284	-0.003904	-4.725	16.38	-1.82	-1.0995	-1.6395	-1.1655
05/22/2025 13:40:01.253	0.85766	-0.415776	-0.001708	4.935	11.34	-8.12	-1.1355	-1.6725	-1.173
05/22/2025 13:40:01.273	0.89914	-0.431636	0.012444	14.63	6.615	-12.075	-1.107	-1.6395	-1.203
05/22/2025 13:40:01.293	0.945744	-0.484828	0.022448	22.925	3.08	-14.07	-1.1325	-1.6425	-1.185
05/22/2025 13:40:01.313	0.973804	-0.480192	0.029524	31.57	2.38	-12.53	-1.107	-1.6695	-1.1955
05/22/2025 13:40:01.333	1.018212	-0.465552	0.045628	36.19	2.415	-7.49	-1.1085	-1.674	-1.149
05/22/2025 13:40:01.353	1.018944	-0.43554	0.05978	34.37	4.69	0.245	-1.143	-1.65	-1.158
05/22/2025 13:40:01.373	1.008452	-0.407236	0.071736	26.95	5.53	9.625	-1.143	-1.65	-1.158
05/22/2025 13:40:01.393	0.988444	-0.388936	0.098088	15.925	6.37	19.25	-1.1235	-1.662	-1.146
05/22/2025 13:40:01.413	0.959408	-0.369904	0.102724	3.605	4.97	27.335	-1.146	-1.662	-1.128
05/22/2025 13:40:01.433	0.921832	-0.388448	0.095892	-7.945	2.59	34.195	-1.131	-1.6845	-1.1205
05/22/2025 13:40:01.453	0.960628	-0.389912	0.087596	-7.805	-0.525	35.98	-1.161	-1.647	-1.113
05/22/2025 13:40:01.473	0.931104	-0.38674	0.090524	-4.305	1.26	35.7	-1.146	-1.6125	-1.1055
05/22/2025 13:40:01.493	0.924516	-0.36356	0.09516	-0.07	1.015	34.09	-1.149	-1.605	-1.098
05/22/2025 13:40:01.513	0.912316	-0.358924	0.101992	3.675	0.35	30.24	-1.1085	-1.6065	-1.0965
05/22/2025 13:40:01.533	0.89182	-0.352092	0.120048	7.56	0.35	25.55	-1.1505	-1.5945	-1.098
05/22/2025 13:40:01.553	0.874984	-0.349652	0.116144	8.75	-0.875	20.3	-1.173	-1.5705	-1.095
05/22/2025 13:40:01.573	0.861808	-0.360144	0.121512	9.73	-2.52	14.7	-1.158	-1.5675	-1.095
05/22/2025 13:40:01.593	0.86864	-0.375028	0.12566	11.795	-4.025	8.855	-1.143	-1.5675	-1.1025
05/22/2025 13:40:01.613	0.878156	-0.370148	0.1342	14.84	-5.215	3.36	-1.1325	-1.542	-1.0785
05/22/2025 13:40:01.633	0.86986	-0.368196	0.138104	16.205	-5.25	-1.19	-1.1535	-1.572	-1.0725
05/22/2025 13:40:01.653	0.87718	-0.393084	0.133468	16.625	-4.48	-6.02	-1.128	-1.5675	-1.0905
05/22/2025 13:40:01.673	0.891576	-0.39772	0.137616	16.8	-3.92	-9.205	-1.14	-1.5555	-1.113
05/22/2025 13:40:01.693	0.904264	-0.400404	0.138348	14.385	-2.415	-12.25	-1.14	-1.5555	-1.113
05/22/2025 13:40:01.713	0.902556	-0.400892	0.133956	12.11	0.105	-12.95	-1.14	-1.5555	-1.113
05/22/2025 13:40:01.733	0.923052	-0.412116	0.133956	7.315	1.015	-12.88	-1.143	-1.6095	-1.1025
05/22/2025 13:40:01.753	0.934276	-0.421388	0.133712	2.205	1.295	-11.9	-1.146	-1.6095	-1.1175
05/22/2025 13:40:01.773	0.94184	-0.443836	0.1281	-0.07	1.085	-10.78	-1.1205	-1.5825	-1.098
05/22/2025 13:40:01.793	0.936472	-0.443348	0.118096	0.63	1.015	-8.645	-1.1355	-1.6125	-1.125
05/22/2025 13:40:01.813	0.929884	-0.448472	0.112728	2.45	0.945	-7	-1.149	-1.6275	-1.083
05/22/2025 13:40:01.833	0.934276	-0.42334	0.113704	4.025	0.175	-5.145	-1.149	-1.617	-1.0905
05/22/2025 13:40:01.853	0.93696	-0.41846	0.11712	4.165	-1.12	-2.38	-1.1685	-1.6155	-1.095
05/22/2025 13:40:01.873	0.910608	-0.468968	0.130052	2.94	0.21	-0.35	-1.161	-1.6395	-1.113
05/22/2025 13:40:01.893	0.907192	-0.437492	0.122488	3.675	2.24	-0.21	-1.1775	-1.665	-1.095
05/22/2025 13:40:01.913	0.890844	-0.417728	0.106384	2.59	0	1.12	-1.1385	-1.632	-1.0905
05/22/2025 13:40:01.933	0.887184	-0.407968	0.122	-0.49	0.105	0.84	-1.149	-1.6425	-1.0905
05/22/2025 13:40:01.953	0.888404	-0.4392	0.110288	-4.375	1.225	3.185	-1.1565	-1.6575	-1.098
05/22/2025 13:40:01.973	0.891332	-0.368684	0.129808	-7.84	2.31	2.59	-1.1565	-1.6575	-1.098
05/22/2025 13:40:01.993	0.900848	-0.391132	0.11834	-21.07	1.015	2.135	-1.1715	-1.6695	-1.11
05/22/2025 13:40:02.013	0.887428	-0.391376	0.114924	-31.64	1.33	1.995	-1.1535	-1.65	-1.11
05/22/2025 13:40:02.033	0.890844	-0.40016	0.09638	-39.41	0.84	1.575	-1.128	-1.6425	-1.1205
05/22/2025 13:40:02.053	0.906948	-0.416996	0.08418	-47.53	0.105	1.05	-1.1385	-1.6395	-1.128
05/22/2025 13:40:02.073	0.912316	-0.448228	0.079788	-55.545	0.665	1.82	-1.11	-1.6545	-1.1505
05/22/2025 13:40:02.093	0.912072	-0.424072	0.082472	-59.675	-0.63	2.03	-1.1475	-1.623	-1.167
05/22/2025 13:40:02.113	0.90402	-0.45994	0.065392	-65.31	-1.54	2.87	-1.1475	-1.608	-1.17
05/22/2025 13:40:02.133	0.902068	-0.502884	0.059536	-64.435	-1.89	4.655	-1.182	-1.611	-1.182
05/22/2025 13:40:02.153	0.8906	-0.517768	0.061244	-56.28	-1.715	6.3	-1.1715	-1.5885	-1.2045
05/22/2025 13:40:02.173	0.88816	-0.538508	0.057096	-45.395	-2.8	7.525	-1.1415	-1.5825	-1.2
05/22/2025 13:40:02.193	0.888892	-0.561444	0.046116	-28.56	-3.395	7.735	-1.1385	-1.59	-1.2045
05/22/2025 13:40:02.213	0.888648	-0.583892	0.055632	-8.33	-3.255	7.7	-1.1385	-1.5825	-1.2075
05/22/2025 13:40:02.233	0.896212	-0.5368	0.08174	9.52	-3.22	8.47	-1.1505	-1.5555	-1.2165
05/22/2025 13:40:02.253	0.904752	-0.576816	0.07905599	16.66	-3.5	8.785	-1.161	-1.581	-1.227
05/22/2025 13:40:02.273	0.915	-0.633424	0.07905599	32.41	-3.64	10.08	-1.1565	-1.5705	-1.2045
05/22/2025 13:40:02.293	0.906704	-0.59536	0.092232	53.34	-2.94	11.795	-1.191	-1.5735	-1.209
05/22/2025 13:40:02.313	0.90402	-0.529968	0.111996	62.3	-2.485	14.875	-1.164	-1.596	-1.1895
05/22/2025 13:40:02.333	0.892796	-0.512888	0.148596	60.97	-1.19	18.69	-1.1685	-1.563	-1.1865
05/22/2025 13:40:02.353	0.882548	-0.51362	0.151036	53.62	0.105	22.19	-1.1685	-1.563	-1.1865
05/22/2025 13:40:02.373	0.879864	-0.568764	0.138104	48.93	1.75	24.57	-1.179	-1.563	-1.164
05/22/2025 13:40:02.393	0.889868	-0.617564	0.122732	49.56	1.295	26.495	-1.182	-1.578	-1.1595
05/22/2025 13:40:02.413	0.882792	-0.631472	0.122976	57.33	2.38	28.07	-1.1775	-1.5735	-1.164
05/22/2025 13:40:02.433	0.874984	-0.65514	0.130052	67.865	3.605	29.96	-1.1955	-1.581	-1.1445
05/22/2025 13:40:02.453	0.875472	-0.702232	0.1403	83.405	4.095	32.095	-1.1775	-1.5435	-1.1295
05/22/2025 13:40:02.473	0.905728	-0.715896	0.146156	103.845	3.85	34.72	-1.167	-1.578	-1.1445
05/22/2025 13:40:02.493	0.892796	-0.611708	0.19886	121.24	6.615	41.825	-1.152	-1.5675	-1.14
05/22/2025 13:40:02.513	0.87596	-0.562664	0.251808	113.05	7.735	47.74	-1.152	-1.5675	-1.14
05/22/2025 13:40:02.533	0.83204	-0.519964	0.272304	94.465	10.535	54.32	-1.173	-1.5675	-1.1295
05/22/2025 13:40:02.553	0.807152	-0.495076	0.276452	69.475	10.15	58.24	-1.155	-1.5705	-1.1445
05/22/2025 13:40:02.573	0.787388	-0.547536	0.266448	44.31	10.15	60.655	-1.1925	-1.5555	-1.137
05/22/2025 13:40:02.593	0.789828	-0.614636	0.249124	31.955	10.465	60.9	-1.1715	-1.5285	-1.149
05/22/2025 13:40:02.613	0.80032	-0.692472	0.227652	38.745	10.57	59.325	-1.179	-1.5105	-1.137
05/22/2025 13:40:02.633	0.797148	-0.695156	0.240828	56.735	12.25	58.03	-1.1835	-1.4715	-1.1385
05/22/2025 13:40:02.653	0.793488	-0.630008	0.275232	69.825	14.77	57.54	-1.1985	-1.4265	-1.131
05/22/2025 13:40:02.673	0.770552	-0.612684	0.288652	72.94	16.66	58.03	-1.194	-1.431	-1.1385
05/22/2025 13:40:02.693	0.759572	-0.646356	0.305488	79.135	16.415	56.455	-1.194	-1.446	-1.131
05/22/2025 13:40:02.713	0.75884	-0.71004	0.32574	91.35	14.455	55.335	-1.197	-1.4265	-1.1085
05/22/2025 13:40:02.733	0.741516	-0.686128	0.355508	114.73	14.385	52.36	-1.212	-1.434	-1.116
05/22/2025 13:40:02.753	0.708332	-0.561688	0.418216	127.4	15.785	51.52	-1.1535	-1.413	-1.119
05/22/2025 13:40:02.773	0.65758	-0.464332	0.46482	118.335	15.33	50.085	-1.1535	-1.413	-1.119
05/22/2025 13:40:02.793	0.643184	-0.5612	0.458476	111.755	11.515	46.935	-1.1535	-1.413	-1.119
05/22/2025 13:40:02.813	0.644648	-0.559492	0.47458	121.17	10.255	42.14	-1.1835	-1.419	-1.1085
05/22/2025 13:40:02.833	0.621956	-0.48556	0.503372	128.73	12.25	38.185	-1.188	-1.4265	-1.143
05/22/2025 13:40:02.853	0.61854	-0.418948	0.537532	125.825	13.405	34.895	-1.1715	-1.446	-1.1385
05/22/2025 13:40:02.873	0.594628	-0.3904	0.566324	112.7	14.665	32.515	-1.1715	-1.443	-1.1115
05/22/2025 13:40:02.893	0.617808	-0.402112	0.58438	98.875	14.49	28.455	-1.179	-1.479	-1.149
05/22/2025 13:40:02.913	0.601948	-0.454328	0.568764	91.035	16.38	25.025	-1.176	-1.4655	-1.134
05/22/2025 13:40:02.933	0.60024	-0.468236	0.574864	99.19	16.87	19.04	-1.1805	-1.4535	-1.1565
05/22/2025 13:40:02.953	0.596336	-0.470676	0.588772	115.745	17.64	13.58	-1.1835	-1.449	-1.134
05/22/2025 13:40:02.973	0.592676	-0.4148	0.605852	132.3	17.745	9.59	-1.179	-1.4985	-1.161
05/22/2025 13:40:02.993	0.586088	-0.291092	0.660508	134.365	17.955	8.47	-1.1685	-1.521	-1.1595
05/22/2025 13:40:03.013	0.589504	-0.207156	0.697596	109.55	16.835	9.45	-1.182	-1.548	-1.1715
05/22/2025 13:40:03.033	0.612196	-0.319884	0.713944	76.825	14.35	8.225	-1.161	-1.548	-1.1865
05/22/2025 13:40:03.053	0.587552	-0.341112	0.712724	71.225	15.995	8.575	-1.161	-1.548	-1.1865
05/22/2025 13:40:03.073	0.576084	-0.34648	0.726876	72.17	15.295	8.47	-1.164	-1.548	-1.1745
05/22/2025 13:40:03.093	0.559492	-0.300852	0.737612	75.915	15.47	8.96	-1.1895	-1.566	-1.1865
05/22/2025 13:40:03.113	0.543388	-0.250344	0.763476	74.025	15.505	10.15	-1.1835	-1.563	-1.194
05/22/2025 13:40:03.133	0.538752	-0.201788	0.784948	66.185	14.7	11.725	-1.167	-1.6035	-1.2015
05/22/2025 13:40:03.153	0.532408	-0.18178	0.80398	53.62	13.055	13.72	-1.164	-1.6005	-1.2165
05/22/2025 13:40:03.173	0.524844	-0.172752	0.806908	39.83	12.215	15.47	-1.137	-1.6005	-1.185
05/22/2025 13:40:03.193	0.521184	-0.203252	0.812764	28.77	11.34	15.54	-1.152	-1.635	-1.1895
05/22/2025 13:40:03.213	0.527528	-0.234728	0.809104	27.545	10.955	13.895	-1.1745	-1.623	-1.2045
05/22/2025 13:40:03.233	0.522648	-0.210084	0.829844	32.305	12.215	10.745	-1.164	-1.6425	-1.209
05/22/2025 13:40:03.253	0.531432	-0.173972	0.862296	30.03	13.125	9.345	-1.179	-1.6485	-1.224
05/22/2025 13:40:03.273	0.523868	-0.148352	0.8662	20.37	15.19	8.085	-1.17	-1.6725	-1.2195
05/22/2025 13:40:03.293	0.518012	-0.157136	0.854488	7.42	16.38	7.385	-1.173	-1.695	-1.2165
05/22/2025 13:40:03.313	0.5063	-0.217404	0.819596	-6.685	17.22	7.28	-1.1955	-1.683	-1.2045
05/22/2025 13:40:03.333	0.503616	-0.216672	0.803736	-5.46	18.62	6.72	-1.1955	-1.683	-1.2045
05/22/2025 13:40:03.353	0.50874	-0.164212	0.814472	-4.655	20.685	6.195	-1.176	-1.656	-1.251
05/22/2025 13:40:03.373	0.499468	-0.162992	0.803736	-14.07	22.715	5.88	-1.1565	-1.6755	-1.2495
05/22/2025 13:40:03.393	0.49898	-0.255712	0.788364	-19.635	23.975	4.935	-1.179	-1.6605	-1.2615
05/22/2025 13:40:03.413	0.487024	-0.2623	0.808128	-13.3	26.39	3.64	-1.149	-1.6755	-1.257
05/22/2025 13:40:03.433	0.469944	-0.24278	0.811056	-7.665	26.95	1.68	-1.1385	-1.665	-1.272
05/22/2025 13:40:03.453	0.443836	-0.203252	0.813496	-6.265	25.27	-0.14	-1.1475	-1.668	-1.302
05/22/2025 13:40:03.473	0.416996	-0.208864	0.813496	-8.54	20.51	-0.875	-1.1205	-1.6425	-1.2945
05/22/2025 13:40:03.493	0.41602	-0.2318	0.84546	-6.86	13.195	0.35	-1.1475	-1.596	-1.3035
05/22/2025 13:40:03.513	0.419436	-0.251808	0.839116	-0.42	6.895	1.225	-1.1445	-1.626	-1.302
05/22/2025 13:40:03.533	0.421144	-0.250588	0.854732	3.99	3.675	3.045	-1.122	-1.611	-1.317
05/22/2025 13:40:03.553	0.432856	-0.29158	0.831796	5.88	0.455	3.955	-1.1415	-1.6005	-1.314
05/22/2025 13:40:03.573	0.418948	-0.22814	0.874984	26.495	-1.47	4.76	-1.1625	-1.6155	-1.2885
05/22/2025 13:40:03.593	0.433832	-0.201544	0.960872	30.835	-5.81	7.91	-1.1595	-1.6335	-1.311
05/22/2025 13:40:03.613	0.45506	-0.214476	0.959408	26.11	-9.065	9.275	-1.155	-1.6455	-1.296
05/22/2025 13:40:03.633	0.446032	-0.221796	0.909144	20.055	-6.44	8.61	-1.1475	-1.623	-1.2915
05/22/2025 13:40:03.653	0.475068	-0.215208	0.880352	17.255	-5.285	6.37	-1.1625	-1.626	-1.2915
05/22/2025 13:40:03.673	0.511912	-0.203984	0.88938	15.47	-1.365	5.005	-1.1355	-1.6185	-1.287
05/22/2025 13:40:03.693	0.51972	-0.193248	0.885232	16.1	6.125	2.1	-1.17	-1.629	-1.2915
05/22/2025 13:40:03.713	0.542656	-0.167384	0.894992	15.435	14.105	-0.945	-1.143	-1.653	-1.287
05/22/2025 13:40:03.733	0.519232	-0.201788	0.814472	4.83	22.505	-1.61	-1.1295	-1.641	-1.314
05/22/2025 13:40:03.753	0.490196	-0.182756	0.83082	-1.54	29.33	-1.05	-1.1325	-1.641	-1.302
05/22/2025 13:40:03.773	0.478484	-0.170556	0.865712	-5.215	30.87	-1.015	-1.1295	-1.6485	-1.314
05/22/2025 13:40:03.793	0.462868	-0.140788	0.925492	-3.815	28.77	1.12	-1.134	-1.623	-1.3245
05/22/2025 13:40:03.813	0.435296	-0.229604	0.890356	-4.9	22.995	-0.105	-1.119	-1.6155	-1.317
05/22/2025 13:40:03.833	0.419436	-0.258396	0.841556	-1.225	16.625	-0.385	-1.119	-1.6155	-1.317
05/22/2025 13:40:03.853	0.410408	-0.264496	0.857416	2.065	9.52	1.995	-1.1085	-1.6185	-1.3395
05/22/2025 13:40:03.873	0.42456	-0.248636	0.890112	8.82	7.28	5.075	-1.0875	-1.593	-1.3665
05/22/2025 13:40:03.893	0.425048	-0.228384	0.894748	13.685	7	7.42	-1.116	-1.581	-1.356
05/22/2025 13:40:03.913	0.421876	-0.19642	0.890112	14.14	7.07	9.765	-1.1025	-1.5555	-1.347
05/22/2025 13:40:03.933	0.413092	-0.189832	0.890112	11.48	8.26	12.005	-1.101	-1.5705	-1.3395
05/22/2025 13:40:03.953	0.39894	-0.195444	0.890844	10.5	10.64	12.6	-1.0725	-1.56	-1.3575
05/22/2025 13:40:03.973	0.36966	-0.1769	0.904508	12.705	12.88	12.845	-1.095	-1.5435	-1.3665
05/22/2025 13:40:03.993	0.355264	-0.145912	0.913292	14.735	13.09	11.83	-1.1055	-1.5555	-1.3515
05/22/2025 13:40:04.013	0.349408	-0.122244	0.909388	11.795	11.795	10.465	-1.095	-1.566	-1.347
05/22/2025 13:40:04.033	0.34038	-0.134688	0.898896	5.88	10.64	8.855	-1.068	-1.593	-1.3545
05/22/2025 13:40:04.053	0.339648	-0.147132	0.915	3.955	9.415	7.455	-1.0875	-1.548	-1.3515
05/22/2025 13:40:04.073	0.346236	-0.15616	0.914268	2.03	8.855	5.285	-1.0725	-1.5525	-1.3545
05/22/2025 13:40:04.093	0.350872	-0.179584	0.900848	2.905	8.505	3.36	-1.083	-1.5705	-1.3425
05/22/2025 13:40:04.113	0.336232	-0.165432	0.9211	5.915	6.685	2.345	-1.083	-1.5705	-1.3425
05/22/2025 13:40:04.133	0.344284	-0.172508	0.934276	5.005	4.76	2.765	-1.083	-1.5705	-1.3425
05/22/2025 13:40:04.153	0.33794	-0.181292	0.913292	5.285	3.535	3.57	-1.068	-1.59	-1.3545
05/22/2025 13:40:04.173	0.342088	-0.186172	0.908168	8.4	2.59	4.095	-1.065	-1.5975	-1.362
05/22/2025 13:40:04.193	0.3538	-0.198128	0.9211	11.06	2.45	3.92	-1.053	-1.6005	-1.3725
05/22/2025 13:40:04.213	0.356484	-0.1708	0.952088	14	3.71	2.94	-1.053	-1.5975	-1.3725
05/22/2025 13:40:04.233	0.358192	-0.1403	0.941596	13.265	5.985	1.82	-1.068	-1.575	-1.362
05/22/2025 13:40:04.253	0.349164	-0.144692	0.920368	9.52	8.155	1.4	-1.08	-1.6185	-1.4115
05/22/2025 13:40:04.273	0.340868	-0.128344	0.932568	7.98	10.29	1.47	-1.0605	-1.59	-1.3695
05/22/2025 13:40:04.293	0.335256	-0.128344	0.948184	5.355	11.9	1.155	-1.05	-1.59	-1.3845
05/22/2025 13:40:04.313	0.32818	-0.132004	0.944768	0.735	12.215	0.665	-1.047	-1.6275	-1.3905
05/22/2025 13:40:04.333	0.311832	-0.116632	0.926468	-2.73	12.95	-0.455	-1.0395	-1.5825	-1.398
05/22/2025 13:40:04.353	0.301096	-0.096136	0.917928	-11.41	12.705	-1.295	-1.035	-1.5975	-1.3755
05/22/2025 13:40:04.373	0.301096	-0.118828	0.883524	-34.755	11.83	-1.715	-1.0335	-1.563	-1.41
05/22/2025 13:40:04.393	0.30134	-0.193248	0.887184	-32.445	12.46	-3.57	-1.0335	-1.563	-1.41
05/22/2025 13:40:04.413	0.302072	-0.206424	0.86376	-21.07	12.04	-6.51	-1.044	-1.575	-1.407
05/22/2025 13:40:04.433	0.292068	-0.13176	0.844484	-13.51	12.845	-7.595	-1.0395	-1.593	-1.3875
05/22/2025 13:40:04.453	0.304512	-0.122244	0.842532	-28.07	13.3	-5.565	-1.059	-1.578	-1.4295
05/22/2025 13:40:04.473	0.28792	-0.195932	0.877424	-54.565	13.79	-2.415	-1.041	-1.5825	-1.425
05/22/2025 13:40:04.493	0.285236	-0.298656	0.910852	-65.94	10.815	-1.435	-1.059	-1.5885	-1.437
05/22/2025 13:40:04.513	0.267912	-0.360388	0.924516	-49.315	6.335	-3.08	-1.02	-1.56	-1.4475
05/22/2025 13:40:04.533	0.268644	-0.31964	0.930372	-15.33	1.54	-5.145	-1.035	-1.5585	-1.452
05/22/2025 13:40:04.553	0.248148	-0.2989	0.920612	5.565	-1.96	-5.425	-1.0335	-1.563	-1.44
05/22/2025 13:40:04.573	0.262788	-0.286944	0.931592	16.45	-8.365	-3.395	-1.038	-1.5825	-1.4595
05/22/2025 13:40:04.593	0.261324	-0.291092	0.926712	22.575	-12.985	-0.21	-1.0365	-1.5855	-1.4295
05/22/2025 13:40:04.613	0.276696	-0.263276	0.946964	32.48	-16.555	2.345	-1.0335	-1.59	-1.4595
05/22/2025 13:40:04.633	0.280112	-0.220576	0.970876	40.46	-17.115	3.92	-1.0665	-1.611	-1.452
05/22/2025 13:40:04.653	0.285236	-0.18178	0.998692	42.35	-15.61	3.535	-1.029	-1.6395	-1.4205
05/22/2025 13:40:04.673	0.30134	-0.160796	0.995032	38.78	-14.805	1.925	-1.0725	-1.6455	-1.422
05/22/2025 13:40:04.693	0.311588	-0.123464	0.991128	36.645	-11.76	-0.105	-1.0755	-1.683	-1.422
05/22/2025 13:40:04.713	0.317688	-0.09076799	0.975756	30.45	-7.805	-3.08	-1.0875	-1.6455	-1.4115
05/22/2025 13:40:04.733	0.326716	-0.08906	0.983076	22.295	-4.305	-4.62	-1.0605	-1.6605	-1.41
05/22/2025 13:40:04.753	0.339404	-0.120536	0.97844	12.46	-1.12	-4.235	-1.053	-1.6605	-1.398
05/22/2025 13:40:04.773	0.335256	-0.160796	0.954528	7.175	1.225	-3.745	-1.0695	-1.635	-1.422
05/22/2025 13:40:04.793	0.33916	-0.178608	0.94062	4.935	2.135	-2.135	-1.065	-1.6305	-1.422
05/22/2025 13:40:04.813	0.336476	-0.18178	0.94794	5.285	3.045	-0.91	-1.065	-1.6305	-1.422
05/22/2025 13:40:04.833	0.349408	-0.195444	0.943304	6.16	2.905	0.56	-1.098	-1.638	-1.3995
05/22/2025 13:40:04.853	0.3294	-0.170556	0.939888	8.365	3.36	3.08	-1.0725	-1.665	-1.425
05/22/2025 13:40:04.873	0.329156	-0.1586	0.931348	8.225	3.08	5.25	-1.08	-1.653	-1.3995
05/22/2025 13:40:04.893	0.31354	-0.1525	0.935008	9.975	4.69	6.44	-1.065	-1.653	-1.422
05/22/2025 13:40:04.913	0.315004	-0.119804	0.965996	12.32	5.775	6.895	-1.068	-1.668	-1.41
05/22/2025 13:40:04.933	0.322812	-0.093208	0.96258	13.65	6.37	6.335	-1.068	-1.668	-1.41
05/22/2025 13:40:04.953	0.32208	-0.087352	0.9821	12.88	7.14	6.44	-1.0755	-1.668	-1.3995
05/22/2025 13:40:04.973	0.317688	-0.115412	0.97356	11.235	8.26	5.355	-1.0905	-1.6875	-1.4025
05/22/2025 13:40:04.993	0.310124	-0.102968	0.97478	12.005	9.73	3.675	-1.05	-1.692	-1.413
05/22/2025 13:40:05.013	0.31964	-0.08295999	0.966484	10.64	10.15	1.995	-1.065	-1.68	-1.41
05/22/2025 13:40:05.033	0.314516	-0.108336	0.96014	6.055	10.71	-0.07	-1.0725	-1.695	-1.4295
05/22/2025 13:40:05.053	0.30378	-0.09272	0.947696	5.005	10.955	-1.89	-1.0425	-1.65	-1.425
05/22/2025 13:40:05.073	0.309148	-0.10248	0.922808	3.78	11.375	-3.29	-1.0395	-1.653	-1.428
05/22/2025 13:40:05.093	0.29524	-0.113216	0.91012	4.165	11.27	-4.025	-1.029	-1.6425	-1.425
05/22/2025 13:40:05.113	0.290604	-0.122244	0.883036	4.655	9.695	-4.41	-1.044	-1.6605	-1.44
05/22/2025 13:40:05.133	0.294508	-0.128588	0.883524	5.67	6.93	-4.515	-1.035	-1.6545	-1.425
05/22/2025 13:40:05.153	0.314028	-0.135908	0.904264	5.215	3.885	-3.745	-1.032	-1.6425	-1.428
05/22/2025 13:40:05.173	0.310124	-0.125904	0.920612	3.675	1.82	-3.325	-1.0215	-1.6305	-1.443
05/22/2025 13:40:05.193	0.30744	-0.125904	0.914756	0.91	0.21	-1.68	-1.0215	-1.6305	-1.443
05/22/2025 13:40:05.213	0.301828	-0.122732	0.915976	0.105	0.105	-0.525	-1.0335	-1.605	-1.428
05/22/2025 13:40:05.233	0.300852	-0.110776	0.91866	1.225	-0.98	0.7	-1.0395	-1.623	-1.4325
05/22/2025 13:40:05.253	0.30134	-0.121268	0.915244	2.555	-1.89	1.645	-1.0335	-1.608	-1.428
05/22/2025 13:40:05.273	0.283528	-0.086376	0.903532	5.285	-1.225	2.17	-1.029	-1.635	-1.4325
05/22/2025 13:40:05.293	0.2928	-0.091988	0.91988	5.005	-1.295	2.765	-1.029	-1.593	-1.4175
05/22/2025 13:40:05.313	0.299876	-0.081984	0.941596	4.725	-0.49	3.01	-1.0545	-1.5975	-1.425
05/22/2025 13:40:05.333	0.291092	-0.101504	0.955504	3.675	-0.175	2.52	-1.0515	-1.6305	-1.422
05/22/2025 13:40:05.353	0.291824	-0.074664	0.975268	4.41	0.245	2.135	-1.0245	-1.635	-1.4175
05/22/2025 13:40:05.373	0.2928	-0.074908	0.979172	1.435	0.945	1.925	-1.032	-1.632	-1.4055
05/22/2025 13:40:05.393	0.28792	-0.07686	0.9699	-0.28	1.995	1.26	-1.0215	-1.65	-1.428
05/22/2025 13:40:05.413	0.28914	-0.096868	0.96746	-0.455	3.395	0.91	-1.032	-1.647	-1.425
05/22/2025 13:40:05.433	0.291092	-0.08686399	0.987956	2.03	4.865	-0.21	-1.0185	-1.6425	-1.443
05/22/2025 13:40:05.453	0.286212	-0.117364	0.97234	1.435	6.685	-2.45	-1.032	-1.6575	-1.428
05/22/2025 13:40:05.473	0.276208	-0.072224	0.94916	3.675	7.525	-2.8	-1.032	-1.6575	-1.428
05/22/2025 13:40:05.493	0.285724	-0.038308	0.97478	3.15	7	-2.135	-1.0065	-1.6545	-1.4235
05/22/2025 13:40:05.513	0.281576	-0.082716	0.965508	-3.885	7.525	-0.84	-1.0065	-1.6695	-1.4385
05/22/2025 13:40:05.533	0.28182	-0.109312	0.968192	-6.685	7.91	0.525	-1.002	-1.6695	-1.416
05/22/2025 13:40:05.553	0.275476	-0.110776	0.960872	-7.385	8.015	2.03	-0.9915	-1.6395	-1.4355
05/22/2025 13:40:05.573	0.262788	-0.10858	0.942572	-6.405	7.735	3.115	-1.0065	-1.6575	-1.4235
05/22/2025 13:40:05.593	0.262056	-0.099552	0.935496	-5.635	6.965	4.725	-0.966	-1.659	-1.4295
05/22/2025 13:40:05.613	0.260592	-0.11102	0.941352	-6.615	5.635	6.44	-0.981	-1.6515	-1.449
05/22/2025 13:40:05.633	0.25376	-0.126636	0.921344	-6.79	4.83	7.35	-0.9735	-1.6215	-1.431
05/22/2025 13:40:05.653	0.242048	-0.12322	0.92354	-4.48	3.605	7.77	-0.9735	-1.6215	-1.446
05/22/2025 13:40:05.673	0.243268	-0.112484	0.939156	-1.89	2.135	8.015	-1.0005	-1.617	-1.446
05/22/2025 13:40:05.693	0.239852	-0.110776	0.948916	-0.77	1.295	7.805	-0.9585	-1.6215	-1.446
05/22/2025 13:40:05.713	0.23912	-0.102724	0.945744	-0.525	1.085	7.595	-0.996	-1.605	-1.4505
05/22/2025 13:40:05.733	0.238632	-0.08906	0.950868	1.015	1.4	6.58	-1.0065	-1.632	-1.4505
05/22/2025 13:40:05.753	0.242536	-0.092476	0.966972	1.12	1.61	5.565	-0.999	-1.65	-1.4385
05/22/2025 13:40:05.773	0.247172	-0.087596	0.992104	1.54	2.065	4.515	-0.9915	-1.6275	-1.431
05/22/2025 13:40:05.793	0.25498	-0.081008	1.003084	1.82	2.135	3.43	-0.999	-1.68	-1.443
05/22/2025 13:40:05.813	0.254492	-0.091256	0.994544	1.26	1.995	2.625	-0.999	-1.68	-1.443
05/22/2025 13:40:05.833	0.248636	-0.091012	0.996252	1.715	2.275	2.31	-1.0065	-1.6695	-1.4535
05/22/2025 13:40:05.853	0.258884	-0.08052	0.987956	1.89	2.415	2.31	-1.0065	-1.677	-1.4505
05/22/2025 13:40:05.873	0.251808	-0.0976	0.978928	2.695	2.975	2.135	-0.999	-1.722	-1.4685
05/22/2025 13:40:05.893	0.252784	-0.080764	0.975512	5.39	3.15	1.54	-0.981	-1.6965	-1.476
05/22/2025 13:40:05.913	0.247904	-0.075396	0.981368	6.545	3.605	0.7	-1.002	-1.6845	-1.4535
05/22/2025 13:40:05.933	0.237412	-0.065392	0.970632	5.74	3.675	0.07	-1.011	-1.707	-1.476
05/22/2025 13:40:05.953	0.232288	-0.069052	0.960384	3.605	3.15	-0.7	-0.9915	-1.707	-1.4685
05/22/2025 13:40:05.973	0.233752	-0.084424	0.94184	1.05	2.24	-1.855	-1.0035	-1.692	-1.473
05/22/2025 13:40:05.993	0.22326	-0.09272	0.945256	0.875	1.155	-3.22	-1.0095	-1.7145	-1.4505
05/22/2025 13:40:06.013	0.226676	-0.090036	0.939644	0.875	0.07	-3.675	-1.011	-1.6875	-1.4685
05/22/2025 13:40:06.033	0.23058	-0.088572	0.947696	-0.175	-0.98	-3.675	-0.999	-1.6995	-1.4805
05/22/2025 13:40:06.053	0.237168	-0.105408	0.950136	-1.365	-1.54	-3.43	-1.0005	-1.665	-1.473
05/22/2025 13:40:06.073	0.235948	-0.120536	0.949404	-1.26	-1.68	-3.29	-1.029	-1.68	-1.4805
05/22/2025 13:40:06.093	0.24888	-0.11956	0.95038	-0.105	-2.17	-2.835	-1.0035	-1.662	-1.4925
05/22/2025 13:40:06.113	0.246928	-0.112728	0.95404	0.945	-0.735	-2.065	-1.0035	-1.68	-1.461
05/22/2025 13:40:06.133	0.244976	-0.119316	0.981368	0.91	-0.14	-0.805	-1.0035	-1.6875	-1.4685
05/22/2025 13:40:06.153	0.239364	-0.112972	0.97844	0.84	1.225	-0.105	-1.014	-1.6725	-1.4775
05/22/2025 13:40:06.173	0.240096	-0.10736	0.984784	0.84	1.4	0.665	-1.0035	-1.662	-1.4535
05/22/2025 13:40:06.193	0.240096	-0.091012	0.983076	0.665	2.135	1.68	-1.0335	-1.6605	-1.4745
05/22/2025 13:40:06.213	0.232776	-0.112484	0.984296	-0.28	2.905	2.485	-1.0185	-1.6425	-1.485
05/22/2025 13:40:06.233	0.228384	-0.099796	0.98576	1.47	3.15	2.975	-1.0065	-1.6875	-1.488
05/22/2025 13:40:06.253	0.23424	-0.088572	0.981612	1.855	3.465	2.94	-0.9915	-1.6725	-1.473
05/22/2025 13:40:06.273	0.230092	-0.098088	0.965264	0.49	3.78	2.625	-0.9915	-1.6725	-1.473
05/22/2025 13:40:06.293	0.2318	-0.09857599	0.953552	0.455	3.85	2.205	-1.017	-1.7175	-1.4535
05/22/2025 13:40:06.313	0.230092	-0.08906	0.947452	1.365	3.395	1.82	-1.0215	-1.695	-1.4805
05/22/2025 13:40:06.333	0.225456	-0.089548	0.936472	1.995	3.115	1.54	-1.0155	-1.665	-1.503
05/22/2025 13:40:06.353	0.216184	-0.08418	0.937204	2.835	2.24	1.61	-1.0215	-1.6755	-1.4775
05/22/2025 13:40:06.373	0.219844	-0.080276	0.943548	3.675	0.49	1.435	-1.0155	-1.6845	-1.4925
05/22/2025 13:40:06.393	0.227164	-0.081496	0.938912	3.535	-1.085	0.63	-1.0005	-1.65	-1.4805
05/22/2025 13:40:06.413	0.23302	-0.073444	0.948916	2.94	-1.855	0.07	-0.996	-1.65	-1.4805
05/22/2025 13:40:06.433	0.24034	-0.089792	0.955016	0.91	-2.765	-0.42	-0.996	-1.677	-1.4805
05/22/2025 13:40:06.453	0.243756	-0.095648	0.962092	-0.49	-3.5	-0.14	-0.9885	-1.6545	-1.4835
05/22/2025 13:40:06.473	0.24766	-0.10004	0.974048	-0.245	-4.13	0.14	-0.9855	-1.617	-1.458
05/22/2025 13:40:06.493	0.25498	-0.094184	0.97966	1.085	-4.27	0.21	-0.993	-1.617	-1.485
05/22/2025 13:40:06.513	0.250832	-0.102724	0.972828	2.66	-3.57	0.21	-1.0095	-1.575	-1.4745
05/22/2025 13:40:06.533	0.247172	-0.083692	0.984052	4.025	-2.205	0.875	-1.0095	-1.575	-1.4745
05/22/2025 13:40:06.553	0.24156	-0.079544	0.98698	4.165	-1.505	0.805	-1.0095	-1.575	-1.4745
05/22/2025 13:40:06.573	0.237656	-0.079788	0.978196	5.355	-1.155	0.35	-0.9855	-1.6095	-1.458
05/22/2025 13:40:06.593	0.239608	-0.070272	0.970632	7.455	-0.595	-0.42	-0.9885	-1.617	-1.4535
05/22/2025 13:40:06.613	0.239608	-0.076128	0.968192	8.365	-0.385	-0.665	-1.0035	-1.65	-1.461
05/22/2025 13:40:06.633	0.224968	-0.064904	0.963068	7.805	-0.175	-0.805	-0.9855	-1.6125	-1.458
05/22/2025 13:40:06.653	0.233508	-0.070272	0.954528	5.705	-0.595	-1.155	-1.008	-1.632	-1.4655
05/22/2025 13:40:06.673	0.243512	-0.069784	0.964776	4.41	-0.7	-1.575	-1.0005	-1.6245	-1.458
05/22/2025 13:40:06.693	0.244	-0.055144	0.953796	2.905	-0.455	-1.89	-0.981	-1.635	-1.446
05/22/2025 13:40:06.713	0.245464	-0.06466	0.964288	0.805	-0.665	-2.03	-0.999	-1.647	-1.4535
05/22/2025 13:40:06.733	0.255224	-0.04758	0.955504	-2.17	-1.435	-1.505	-0.987	-1.6815	-1.4415
05/22/2025 13:40:06.753	0.25132	-0.071492	0.934764	-5.355	-0.945	-0.91	-0.9855	-1.6725	-1.473
05/22/2025 13:40:06.773	0.262056	-0.075884	0.930128	-6.195	-1.295	0.035	-0.9735	-1.6515	-1.464
05/22/2025 13:40:06.793	0.25376	-0.055632	0.93452	-7.735	-2.38	1.4	-1.011	-1.6695	-1.488
05/22/2025 13:40:06.813	0.257664	-0.038552	0.946232	-11.62	-2.485	2.1	-1.011	-1.6695	-1.488
05/22/2025 13:40:06.833	0.253272	-0.051972	0.965752	-19.845	-1.155	2.59	-0.996	-1.665	-1.461
05/22/2025 13:40:06.853	0.249124	-0.076616	0.970876	-29.225	0.315	2.975	-0.963	-1.6395	-1.449
05/22/2025 13:40:06.873	0.2379	-0.072712	0.98332	-37.1	1.785	2.45	-1.0035	-1.635	-1.458
05/22/2025 13:40:06.893	0.249124	-0.081252	0.99186	-47.425	1.89	1.61	-0.978	-1.62	-1.4805
05/22/2025 13:40:06.913	0.253516	-0.039772	0.986736	-60.655	2.31	2.415	-0.9825	-1.5945	-1.473
05/22/2025 13:40:06.933	0.2562	-0.039284	1.011624	-83.895	5.075	5.145	-0.975	-1.575	-1.461
05/22/2025 13:40:06.953	0.258884	-0.116144	0.986492	-116.62	8.47	8.47	-1.002	-1.53	-1.4625
05/22/2025 13:40:06.973	0.240584	-0.233508	0.931348	-145.355	12.635	12.215	-0.9945	-1.5375	-1.47
05/22/2025 13:40:06.993	0.225944	-0.288652	0.894504	-157.99	17.36	15.295	-0.996	-1.5	-1.485
05/22/2025 13:40:07.013	0.20374	-0.348188	0.909876	-170.345	22.015	19.215	-0.966	-1.4805	-1.488
05/22/2025 13:40:07.033	0.2074	-0.485804	0.88572	-182.42	25.515	21.49	-0.9855	-1.4205	-1.4895
05/22/2025 13:40:07.053	0.185928	-0.567544	0.833992	-177.485	27.23	19.845	-0.975	-1.3635	-1.4775
05/22/2025 13:40:07.073	0.161528	-0.575596	0.790316	-161.98	28.595	16.45	-0.966	-1.3035	-1.482
05/22/2025 13:40:07.093	0.149816	-0.573888	0.743956	-158.725	27.79	15.295	-0.9705	-1.2435	-1.4745
05/22/2025 13:40:07.113	0.140544	-0.549488	0.691008	-160.965	27.72	15.225	-0.9375	-1.179	-1.482
05/22/2025 13:40:07.133	0.146156	-0.552904	0.640988	-186.2	27.86	18.2	-0.942	-1.1415	-1.452
05/22/2025 13:40:07.153	0.117364	-0.650016	0.581696	-217.56	28.455	19.74	-0.927	-1.086	-1.4445
05/22/2025 13:40:07.173	0.105408	-0.776408	0.504348	-234.605	25.76	20.545	-0.891	-1.0155	-1.425
05/22/2025 13:40:07.193	0.089792	-0.87352	0.45018	-221.025	24.71	17.185	-0.873	-0.9555	-1.4145
05/22/2025 13:40:07.213	0.081008	-0.903288	0.435784	-191.135	24.85	12.985	-0.87	-0.9105	-1.3725
05/22/2025 13:40:07.233	0.0671	-0.928908	0.379664	-160.86	23.8	7.945	-0.903	-0.8685	-1.347
05/22/2025 13:40:07.253	0.068808	-0.880108	0.361608	-145.565	23.625	7.245	-0.858	-0.8355	-1.3125
05/22/2025 13:40:07.273	0.068808	-0.921344	0.366244	-145.04	22.12	8.89	-0.8595	-0.7755	-1.305
05/22/2025 13:40:07.293	0.063928	-0.932324	0.340136	-145.635	19.005	9.205	-0.873	-0.7485	-1.2675
05/22/2025 13:40:07.313	0.035624	-1.05408	0.230092	-140.7	18.13	8.435	-0.873	-0.7485	-1.2675
05/22/2025 13:40:07.333	0.030256	-1.05286	0.165676	-113.785	15.12	7.315	-0.843	-0.726	-1.2435
05/22/2025 13:40:07.353	0.021472	-1.056276	0.153964	-99.505	14.245	7.7	-0.843	-0.726	-1.2435
05/22/2025 13:40:07.373	0.023424	-1.05286	0.155428	-84.49	13.86	9.03	-0.858	-0.6285	-1.173
05/22/2025 13:40:07.393	0.028792	-1.05896	0.124928	-76.265	12.915	10.36	-0.828	-0.618	-1.1385
05/22/2025 13:40:07.413	0.013908	-1.071648	0.082472	-64.4	12.18	10.78	-0.8385	-0.603	-1.116
05/22/2025 13:40:07.433	0.015616	-1.032608	0.06344	-53.13	11.445	11.13	-0.8265	-0.6075	-1.0965
05/22/2025 13:40:07.453	0.017812	-1.01992	0.081984	-50.96	11.69	12.6	-0.801	-0.5595	-1.0815
05/22/2025 13:40:07.473	0.029524	-1.037244	0.065148	-54.285	11.27	13.65	-0.8115	-0.573	-1.0815
05/22/2025 13:40:07.493	0.022936	-1.038952	0.020984	-54.075	12.215	14.77	-0.816	-0.5475	-1.0635
05/22/2025 13:40:07.513	0.015372	-0.996252	-0.025132	-50.33	13.09	15.435	-0.8115	-0.54	-1.0545
05/22/2025 13:40:07.533	0.003172	-0.993324	-0.039772	-49.28	14.035	14.805	-0.789	-0.5295	-1.02
05/22/2025 13:40:07.553	-0.001464	-1.01992	-0.029768	-47.075	15.26	13.09	-0.7845	-0.5595	-1.005
05/22/2025 13:40:07.573	-0.001464	-1.007476	-0.059536	-38.325	15.435	12.075	-0.765	-0.5115	-0.9825
05/22/2025 13:40:07.593	-0.017324	-1.013088	-0.106872	-33.53	14.42	11.83	-0.7845	-0.507	-1.0125
05/22/2025 13:40:07.613	-0.033428	-1.0614	-0.1098	-25.865	10.99	10.92	-0.7845	-0.507	-1.0125
05/22/2025 13:40:07.633	-0.050508	-1.092144	-0.130296	-11.445	8.89	10.08	-0.7845	-0.507	-1.0125
05/22/2025 13:40:07.653	-0.041968	-1.035292	-0.106872	5.39	5.11	9.24	-0.7575	-0.522	-0.9855
05/22/2025 13:40:07.673	-0.04148	-1.022848	-0.101992	14.7	1.925	8.855	-0.759	-0.504	-1.005
05/22/2025 13:40:07.693	-0.04148	-1.00894	-0.1159	17.78	-0.945	9.905	-0.7395	-0.531	-0.993
05/22/2025 13:40:07.713	-0.03416	-1.033828	-0.074176	17.92	-2.765	11.445	-0.762	-0.5265	-0.993
05/22/2025 13:40:07.733	-0.030256	-1.026264	-0.045628	20.965	-3.22	13.125	-0.7365	-0.5265	-0.996
05/22/2025 13:40:07.753	-0.054412	-1.033584	-0.061732	23.31	-1.925	15.61	-0.7185	-0.5115	-0.996
05/22/2025 13:40:07.773	-0.055144	-1.025776	-0.01586	26.565	-0.665	17.325	-0.729	-0.516	-1.008
05/22/2025 13:40:07.793	-0.058072	-0.99674	0.020252	27.895	-0.14	17.36	-0.726	-0.5115	-1.0155
05/22/2025 13:40:07.813	-0.06222	-0.976488	0.02806	26.88	-0.175	16.275	-0.7185	-0.531	-1.0335
05/22/2025 13:40:07.833	-0.079788	-0.989664	-0.016836	24.185	-0.035	15.435	-0.699	-0.5115	-1.0035
05/22/2025 13:40:07.853	-0.081252	-1.0126	-0.015372	24.5	-0.91	13.965	-0.7185	-0.519	-1.0065
05/22/2025 13:40:07.873	-0.06832	-1.007964	0.010736	37.275	-1.505	11.41	-0.714	-0.5265	-0.999
05/22/2025 13:40:07.893	-0.064416	-0.971364	0.044652	45.15	-1.365	9.205	-0.714	-0.5265	-0.999
05/22/2025 13:40:07.913	-0.072956	-0.949648	0.065636	45.185	-1.19	7.735	-0.696	-0.5085	-1.0215
05/22/2025 13:40:07.933	-0.08052	-0.903288	0.09028	36.225	-1.33	7.665	-0.6885	-0.516	-1.029
05/22/2025 13:40:07.953	-0.078812	-0.93818	0.095648	18.655	-1.365	7.07	-0.684	-0.5355	-1.017
05/22/2025 13:40:07.973	-0.075396	-0.93452	0.125416	6.02	-1.295	5.915	-0.6885	-0.516	-1.0335
05/22/2025 13:40:07.993	-0.083204	-0.960384	0.125172	-1.365	-1.995	4.235	-0.6525	-0.543	-1.0545
05/22/2025 13:40:08.013	-0.084668	-0.974048	0.082716	-4.375	-3.29	2.205	-0.6705	-0.528	-1.0515
05/22/2025 13:40:08.033	-0.07905599	-0.968436	0.097356	-5.46	-4.06	0.175	-0.648	-0.5625	-1.023
05/22/2025 13:40:08.053	-0.079544	-1.00406	0.07905599	-5.425	-4.725	-1.645	-0.6705	-0.5235	-1.0245
05/22/2025 13:40:08.073	-0.074908	-1.001864	0.080032	-2.485	-5.355	-2.555	-0.663	-0.531	-1.0245
05/22/2025 13:40:08.093	-0.07515199	-0.999912	0.085644	0	-5.32	-2.345	-0.681	-0.528	-1.029
05/22/2025 13:40:08.113	-0.072712	-1.00284	0.076128	0.455	-5.32	-2.065	-0.6705	-0.5355	-1.032
05/22/2025 13:40:08.133	-0.07564	-1.012112	0.083204	0.875	-5.04	-1.925	-0.6705	-0.516	-1.017
05/22/2025 13:40:08.153	-0.086132	-0.988444	0.10126	1.12	-4.025	-1.715	-0.6705	-0.516	-1.017
05/22/2025 13:40:08.173	-0.093696	-1.003572	0.089548	0.91	-3.325	-1.19	-0.675	-0.5205	-1.0515
05/22/2025 13:40:08.193	-0.091744	-1.006988	0.081008	1.82	-2.835	-0.91	-0.675	-0.528	-1.047
05/22/2025 13:40:08.213	-0.080032	-1.017968	0.073444	2.345	-3.15	-1.33	-0.6855	-0.5265	-1.0485
05/22/2025 13:40:08.233	-0.08295999	-0.976	0.07564	3.465	-2.695	-1.05	-0.6975	-0.5265	-1.071
05/22/2025 13:40:08.253	-0.09028	-0.9882	0.082472	2.1	-2.1	-0.42	-0.6825	-0.5265	-1.056
05/22/2025 13:40:08.273	-0.09272	-0.994056	0.055632	3.29	-1.47	-0.455	-0.69	-0.5235	-1.0485
05/22/2025 13:40:08.293	-0.08784	-0.989176	0.068808	5.6	-1.12	-1.085	-0.69	-0.5235	-1.0485
05/22/2025 13:40:08.313	-0.07808	-0.986004	0.091256	6.79	-0.595	-1.925	-0.693	-0.5415	-1.0485
05/22/2025 13:40:08.333	-0.080032	-0.999668	0.090036	6.37	-0.175	-1.715	-0.693	-0.516	-1.026
05/22/2025 13:40:08.353	-0.067832	-1.010892	0.089792	4.97	-1.505	-1.155	-0.6885	-0.531	-1.041
05/22/2025 13:40:08.373	-0.072712	-1.028704	0.074664	5.46	-2.59	-0.28	-0.7155	-0.516	-1.053
05/22/2025 13:40:08.393	-0.07808	-1.036268	0.07198	9.135	-3.78	-0.07	-0.693	-0.531	-1.0665
05/22/2025 13:40:08.413	-0.077104	-0.99674	0.093696	17.29	-5.355	-0.595	-0.6705	-0.546	-1.062
05/22/2025 13:40:08.433	-0.07564	-0.998936	0.101504	17.255	-6.055	-0.245	-0.6975	-0.549	-1.071
05/22/2025 13:40:08.453	-0.08174	-0.97844	0.10858	15.96	-6.23	0.77	-0.7095	-0.5385	-1.086
05/22/2025 13:40:08.473	-0.077592	-0.986004	0.113704	14.035	-5.705	1.295	-0.687	-0.546	-1.0935
05/22/2025 13:40:08.493	-0.080764	-0.98576	0.11712	12.67	-5.11	1.435	-0.702	-0.537	-1.116
05/22/2025 13:40:08.513	-0.082716	-0.97478	0.127856	8.575	-4.55	1.75	-0.714	-0.5445	-1.143
05/22/2025 13:40:08.533	-0.091256	-0.999424	0.12444	2.94	-3.745	2.205	-0.717	-0.5445	-1.125
05/22/2025 13:40:08.553	-0.090524	-0.996008	0.132004	1.295	-3.43	2.24	-0.7275	-0.564	-1.1325
05/22/2025 13:40:08.573	-0.088328	-1.000888	0.122732	1.645	-3.29	2.17	-0.699	-0.552	-1.1355
05/22/2025 13:40:08.593	-0.083936	-1.002108	0.129076	1.225	-3.43	2.415	-0.7035	-0.549	-1.155
05/22/2025 13:40:08.613	-0.09028	-0.995764	0.120048	0.49	-3.5	3.045	-0.711	-0.5295	-1.155
05/22/2025 13:40:08.633	-0.082472	-0.995032	0.119316	0.21	-3.57	3.5	-0.714	-0.537	-1.1655
05/22/2025 13:40:08.653	-0.09467199	-1.001132	0.130052	0.21	-3.325	3.85	-0.7215	-0.522	-1.1445
05/22/2025 13:40:08.673	-0.087352	-0.990884	0.139324	0.63	-2.94	4.235	-0.7215	-0.537	-1.155
05/22/2025 13:40:08.693	-0.091012	-0.981368	0.12566	-0.7	-2.73	4.41	-0.7215	-0.537	-1.155
05/22/2025 13:40:08.713	-0.097356	-0.993324	0.121512	-1.435	-2.31	4.165	-0.7005	-0.5265	-1.1625
05/22/2025 13:40:08.733	-0.090036	-0.98454	0.133712	-1.015	-1.925	3.99	-0.7065	-0.5145	-1.1475
05/22/2025 13:40:08.753	-0.090524	-0.975512	0.144204	-2.065	-1.33	3.85	-0.7095	-0.5295	-1.128
05/22/2025 13:40:08.773	-0.088572	-1.008208	0.131272	-3.465	-0.945	3.99	-0.7065	-0.5445	-1.155
05/22/2025 13:40:08.793	-0.095648	-0.99796	0.120048	-1.925	-1.33	4.06	-0.711	-0.519	-1.143
05/22/2025 13:40:08.813	-0.095648	-0.98454	0.127368	-0.245	-1.365	3.955	-0.7245	-0.5445	-1.143
05/22/2025 13:40:08.833	-0.09467199	-0.985516	0.123952	0.315	-1.645	3.99	-0.7065	-0.537	-1.1325
05/22/2025 13:40:08.853	-0.096868	-0.987956	0.124684	0.595	-1.54	4.375	-0.72	-0.534	-1.113
05/22/2025 13:40:08.873	-0.09882	-0.982344	0.131272	1.47	-1.05	4.34	-0.6915	-0.519	-1.1205
05/22/2025 13:40:08.893	-0.101504	-0.98454	0.138348	0.98	-0.35	4.34	-0.699	-0.5445	-1.1355
05/22/2025 13:40:08.913	-0.113216	-0.990396	0.130296	-0.525	-0.385	4.165	-0.684	-0.534	-1.1085
05/22/2025 13:40:08.933	-0.108824	-0.982344	0.12566	-1.225	-0.77	3.5	-0.6945	-0.531	-1.1085
05/22/2025 13:40:08.953	-0.106872	-0.990152	0.129076	-2.065	-1.365	3.115	-0.6945	-0.531	-1.1085
05/22/2025 13:40:08.973	-0.103212	-0.996008	0.121512	-2.765	-1.435	3.22	-0.6945	-0.531	-1.1085
05/22/2025 13:40:08.993	-0.095648	-0.980148	0.132004	-3.08	-1.54	3.5	-0.6795	-0.534	-1.116
05/22/2025 13:40:09.013	-0.100284	-0.987468	0.12078	-3.85	-1.575	3.22	-0.6915	-0.534	-1.131
05/22/2025 13:40:09.033	-0.1037	-0.983076	0.106872	-2.205	-1.89	3.01	-0.6735	-0.531	-1.1265
05/22/2025 13:40:09.053	-0.095892	-0.984296	0.121756	0.455	-2.345	2.275	-0.636	-0.5355	-1.1115
05/22/2025 13:40:09.073	-0.098088	-0.975024	0.117852	2.065	-2.45	1.82	-0.6765	-0.5565	-1.1235
05/22/2025 13:40:09.093	-0.105164	-0.9699	0.12444	1.225	-2.24	1.715	-0.6645	-0.543	-1.0815
05/22/2025 13:40:09.113	-0.099796	-0.977952	0.117608	-0.035	-1.68	1.155	-0.6975	-0.546	-1.086
05/22/2025 13:40:09.133	-0.099308	-0.974292	0.100528	-0.245	-1.365	0.525	-0.66	-0.528	-1.0695
05/22/2025 13:40:09.153	-0.0976	-0.984052	0.108336	0.49	-0.805	-0.245	-0.69	-0.5265	-1.0665
05/22/2025 13:40:09.173	-0.104676	-0.98698	0.1159	0.63	-1.225	-0.665	-0.6675	-0.528	-1.0515
05/22/2025 13:40:09.193	-0.102236	-0.989908	0.121756	-0.56	-2.17	-0.455	-0.6855	-0.531	-1.071
05/22/2025 13:40:09.213	-0.11346	-0.998936	0.115168	-0.805	-2.94	-0.07	-0.66	-0.543	-1.0665
05/22/2025 13:40:09.233	-0.116876	-0.986736	0.12566	0.805	-2.695	-0.245	-0.66	-0.5385	-1.0515
05/22/2025 13:40:09.253	-0.123464	-0.981368	0.137372	2.1	-1.505	-0.77	-0.66	-0.558	-1.0545
05/22/2025 13:40:09.273	-0.12078	-0.97966	0.152012	1.575	-0.35	-1.19	-0.66	-0.5355	-1.0695
05/22/2025 13:40:09.293	-0.11834	-0.98576	0.144936	0.84	0.035	-1.61	-0.663	-0.5355	-1.062
05/22/2025 13:40:09.313	-0.115656	-0.99918	0.129564	0.49	0.21	-1.575	-0.663	-0.5355	-1.062
05/22/2025 13:40:09.333	-0.114192	-1.0065	0.132736	1.715	0.315	-1.785	-0.663	-0.5505	-1.047
05/22/2025 13:40:09.353	-0.110288	-1.001132	0.13298	2.03	0.28	-1.75	-0.63	-0.5475	-1.0695
05/22/2025 13:40:09.373	-0.114924	-0.998692	0.131516	1.82	-0.035	-1.61	-0.6675	-0.5385	-1.0815
05/22/2025 13:40:09.393	-0.110044	-0.999424	0.120048	1.82	0.42	-1.19	-0.663	-0.5505	-1.0545
05/22/2025 13:40:09.413	-0.110288	-1.011624	0.122976	2.59	0.315	-0.35	-0.6855	-0.5685	-1.0515
05/22/2025 13:40:09.433	-0.115656	-1.021628	0.130296	3.955	-0.63	0	-0.6525	-0.5535	-1.065
05/22/2025 13:40:09.453	-0.113704	-0.995276	0.126636	6.335	-1.47	0.07	-0.6855	-0.5385	-1.074
05/22/2025 13:40:09.473	-0.119316	-0.991128	0.122732	5.74	-1.785	0.105	-0.6525	-0.5385	-1.074
05/22/2025 13:40:09.493	-0.119316	-0.96868	0.132004	5.425	-1.855	-0.84	-0.672	-0.516	-1.086
05/22/2025 13:40:09.513	-0.111996	-0.96624	0.135908	4.06	-1.645	-1.715	-0.6615	-0.5235	-1.0965
05/22/2025 13:40:09.533	-0.095648	-0.973316	0.127612	1.68	-0.7	-2.765	-0.663	-0.558	-1.0695
05/22/2025 13:40:09.553	-0.094916	-0.98454	0.131028	0.28	-0.35	-3.325	-0.6825	-0.5535	-1.074
05/22/2025 13:40:09.573	-0.088816	-0.97356	0.130296	-0.175	-0.56	-2.1	-0.669	-0.5235	-1.089
05/22/2025 13:40:09.593	-0.09394	-0.99552	0.13542	-2.1	-0.735	-0.385	-0.6675	-0.5385	-1.0845
05/22/2025 13:40:09.613	-0.107116	-1.021872	0.119316	-1.925	-0.7	1.155	-0.672	-0.531	-1.0785
05/22/2025 13:40:09.633	-0.118584	-1.008452	0.122244	-0.35	-1.575	2.205	-0.684	-0.5235	-1.0935
05/22/2025 13:40:09.653	-0.119804	-0.996252	0.125172	0.315	-2.38	2.555	-0.69	-0.5535	-1.086
05/22/2025 13:40:09.673	-0.119804	-1.001376	0.137616	-0.35	-2.66	2.765	-0.69	-0.546	-1.0935
05/22/2025 13:40:09.693	-0.121268	-0.989908	0.136884	-0.07	-2.205	3.395	-0.675	-0.5385	-1.089
05/22/2025 13:40:09.713	-0.124196	-0.986004	0.13542	0.525	-1.68	3.85	-0.69	-0.5265	-1.0935
05/22/2025 13:40:09.733	-0.123952	-0.99674	0.145668	0.525	-1.19	4.025	-0.672	-0.5415	-1.119
05/22/2025 13:40:09.753	-0.12444	-0.986004	0.134444	-0.07	-1.365	4.165	-0.6765	-0.5565	-1.1235
05/22/2025 13:40:09.773	-0.125416	-0.9638	0.135176	-0.49	-1.855	4.13	-0.6765	-0.5565	-1.1235
05/22/2025 13:40:09.793	-0.124196	-0.982344	0.144936	-1.26	-1.96	3.78	-0.6795	-0.5385	-1.119
05/22/2025 13:40:09.813	-0.121024	-0.983808	0.138836	0.245	-2.38	3.15	-0.6705	-0.516	-1.134
05/22/2025 13:40:09.833	-0.114192	-0.97112	0.136396	1.365	-2.345	2.415	-0.666	-0.549	-1.146
05/22/2025 13:40:09.853	-0.107848	-0.972828	0.136396	0.105	-1.715	2.17	-0.684	-0.537	-1.1535
05/22/2025 13:40:09.873	-0.114436	-1.0004	0.132736	-1.19	-1.05	2.415	-0.6705	-0.5235	-1.143
05/22/2025 13:40:09.893	-0.111752	-0.992836	0.136884	-0.245	-1.19	2.73	-0.6825	-0.507	-1.185
05/22/2025 13:40:09.913	-0.113704	-0.985516	0.133468	-0.175	-1.645	3.255	-0.6915	-0.522	-1.146
05/22/2025 13:40:09.933	-0.116632	-1.001132	0.133468	-0.7	-2.135	3.92	-0.6915	-0.5415	-1.1535
05/22/2025 13:40:09.953	-0.127368	-0.991616	0.135908	0.595	-2.555	4.165	-0.6885	-0.5295	-1.143
05/22/2025 13:40:09.973	-0.121268	-0.99674	0.13542	1.855	-3.01	4.095	-0.684	-0.5385	-1.143
05/22/2025 13:40:09.993	-0.12078	-0.979416	0.140056	3.5	-2.87	3.78	-0.6735	-0.516	-1.131
05/22/2025 13:40:10.013	-0.120048	-0.979416	0.1403	3.955	-2.485	3.675	-0.684	-0.5235	-1.116
05/22/2025 13:40:10.033	-0.121024	-0.972828	0.147864	4.655	-1.435	3.535	-0.684	-0.5235	-1.116
05/22/2025 13:40:10.053	-0.12078	-0.970632	0.149816	4.27	-1.26	3.045	-0.6915	-0.522	-1.1385
05/22/2025 13:40:10.073	-0.121512	-0.958676	0.153476	2.835	-1.295	2.485	-0.7035	-0.519	-1.143
05/22/2025 13:40:10.093	-0.123464	-0.970144	0.1464	0.945	-1.225	1.995	-0.6795	-0.5565	-1.119
05/22/2025 13:40:10.113	-0.125416	-0.971608	0.144204	0.245	-0.735	1.645	-0.687	-0.5415	-1.128
05/22/2025 13:40:10.133	-0.1159	-0.967948	0.144936	0	0.07	0.91	-0.654	-0.5385	-1.1385
05/22/2025 13:40:10.153	-0.116632	-0.9821	0.144448	-1.33	0.77	0.7	-0.6585	-0.534	-1.146
05/22/2025 13:40:10.173	-0.122976	-0.99552	0.137128	-1.855	1.19	0.56	-0.6735	-0.5115	-1.128
05/22/2025 13:40:10.193	-0.120292	-0.989664	0.135664	-2.205	0.63	0.77	-0.6585	-0.531	-1.146
05/22/2025 13:40:10.213	-0.125172	-0.99186	0.14152	-2.555	0.315	1.54	-0.6585	-0.5385	-1.1415
05/22/2025 13:40:10.233	-0.125172	-1.0004	0.14274	-3.43	0.105	2.31	-0.666	-0.5085	-1.1505
05/22/2025 13:40:10.253	-0.128588	-0.997472	0.1464	-2.66	0.035	2.765	-0.6585	-0.5385	-1.131
05/22/2025 13:40:10.273	-0.133224	-0.9943	0.145912	-1.575	0.14	2.73	-0.636	-0.531	-1.137
05/22/2025 13:40:10.293	-0.134688	-0.992836	0.152988	-1.05	0.245	2.695	-0.648	-0.531	-1.1385
05/22/2025 13:40:10.313	-0.141764	-0.988444	0.1525	-1.75	0.35	2.975	-0.648	-0.531	-1.1385
05/22/2025 13:40:10.333	-0.141276	-0.9943	0.146156	-1.75	0.28	3.15	-0.654	-0.516	-1.107
05/22/2025 13:40:10.353	-0.1403	-0.992104	0.139568	-1.085	0.49	3.22	-0.651	-0.516	-1.119
05/22/2025 13:40:10.373	-0.141764	-0.996252	0.133956	-1.19	0.315	3.185	-0.6645	-0.5265	-1.0935
05/22/2025 13:40:10.393	-0.15128	-0.98088	0.144204	-1.12	0.245	3.325	-0.651	-0.516	-1.107
05/22/2025 13:40:10.413	-0.1525	-1.000156	0.142252	-2.17	0.21	3.78	-0.645	-0.513	-1.0665
05/22/2025 13:40:10.433	-0.155916	-0.995032	0.13786	-1.575	-0.07	4.27	-0.669	-0.501	-1.0785
05/22/2025 13:40:10.453	-0.1464	-0.988688	0.132492	-1.925	-0.105	4.655	-0.6465	-0.5085	-1.0815
05/22/2025 13:40:10.473	-0.151036	-0.988932	0.135664	-2.94	0.28	5.145	-0.639	-0.5085	-1.065
05/22/2025 13:40:10.493	-0.1525	-0.986248	0.128832	-2.66	0.49	5.39	-0.627	-0.4935	-1.0575
05/22/2025 13:40:10.513	-0.149328	-0.979904	0.130052	-2.485	0.7	5.46	-0.63	-0.5175	-1.05
05/22/2025 13:40:10.533	-0.157624	-0.96624	0.124928	-3.08	1.015	5.425	-0.6375	-0.513	-1.0545
05/22/2025 13:40:10.553	-0.156404	-0.954772	0.129564	-5.495	1.225	5.215	-0.6165	-0.525	-1.068
05/22/2025 13:40:10.573	-0.163236	-0.961116	0.122732	-6.825	1.54	4.445	-0.6165	-0.525	-1.068
05/22/2025 13:40:10.593	-0.15616	-0.964288	0.111508	-8.54	1.995	3.85	-0.6195	-0.528	-1.065
05/22/2025 13:40:10.613	-0.151036	-0.965264	0.10492	-10.115	2.31	3.5	-0.615	-0.525	-1.053
05/22/2025 13:40:10.633	-0.1525	-0.96624	0.10858	-12.495	2.695	3.395	-0.6165	-0.513	-1.0725
05/22/2025 13:40:10.653	-0.157136	-0.97478	0.113216	-13.23	3.29	3.115	-0.6	-0.51	-1.0425
05/22/2025 13:40:10.673	-0.155184	-0.974048	0.102236	-13.755	3.01	2.905	-0.6195	-0.5025	-1.0695
05/22/2025 13:40:10.693	-0.162016	-0.967704	0.091988	-14.07	2.415	2.905	-0.63	-0.5175	-1.05
05/22/2025 13:40:10.713	-0.166164	-0.96624	0.088816	-15.75	2.275	2.73	-0.6195	-0.5175	-1.038
05/22/2025 13:40:10.733	-0.162748	-0.965508	0.091988	-18.305	2.31	2.66	-0.6045	-0.5025	-1.053
05/22/2025 13:40:10.753	-0.165676	-0.969656	0.0854	-21.175	2.695	2.275	-0.612	-0.4755	-1.038
05/22/2025 13:40:10.773	-0.169824	-0.962092	0.081008	-23.45	3.535	1.295	-0.597	-0.5145	-1.041
05/22/2025 13:40:10.793	-0.171288	-0.99918	0.068808	-23.905	3.955	0.21	-0.597	-0.483	-1.0305
05/22/2025 13:40:10.813	-0.168604	-1.00772	0.060756	-18.165	3.57	-0.84	-0.597	-0.483	-1.0305
05/22/2025 13:40:10.833	-0.167384	-1.022116	0.052948	-6.37	2.45	-2.135	-0.618	-0.4875	-1.008
05/22/2025 13:40:10.853	-0.15372	-1.010404	0.058072	-0.56	1.435	-2.38	-0.627	-0.4875	-1.02
05/22/2025 13:40:10.873	-0.164212	-1.007964	0.056852	2.87	0.56	-2.66	-0.6045	-0.4725	-1.0125
05/22/2025 13:40:10.893	-0.1708	-1.019188	0.039772	8.26	-0.525	-2.8	-0.6075	-0.5025	-1.011
05/22/2025 13:40:10.913	-0.1647	-1.002352	0.052216	20.615	-1.12	-3.5	-0.615	-0.48	-1.0155
05/22/2025 13:40:10.933	-0.163724	-0.993812	0.064172	34.125	-1.365	-4.375	-0.642	-0.483	-1.035
05/22/2025 13:40:10.953	-0.15372	-0.966728	0.07442	50.47	-1.89	-4.935	-0.624	-0.513	-1.062
05/22/2025 13:40:10.973	-0.156648	-1.01016	0.068076	68.53	-3.045	-5.565	-0.597	-0.4875	-1.053
05/22/2025 13:40:10.993	-0.154208	-0.986248	0.103944	94.57	-5.25	-8.12	-0.6315	-0.5085	-1.1115
05/22/2025 13:40:11.013	-0.137616	-0.938668	0.1464	110.565	-8.33	-11.445	-0.6285	-0.531	-1.1295
05/22/2025 13:40:11.033	-0.145424	-0.986004	0.167872	110.88	-10.64	-13.475	-0.648	-0.531	-1.164
05/22/2025 13:40:11.053	-0.129808	-1.013576	0.208864	112	-14.7	-12.81	-0.648	-0.5535	-1.1985
05/22/2025 13:40:11.073	-0.128588	-0.981368	0.240828	120.505	-19.32	-14.07	-0.6675	-0.609	-1.2585
05/22/2025 13:40:11.093	-0.137128	-0.945744	0.30012	129.64	-24.465	-14.35	-0.6795	-0.6015	-1.2825
05/22/2025 13:40:11.113	-0.137616	-0.970144	0.327692	140.14	-26.74	-13.65	-0.6795	-0.6015	-1.2825
05/22/2025 13:40:11.133	-0.122976	-0.900604	0.398452	165.375	-30.1	-16.24	-0.711	-0.6825	-1.3665
05/22/2025 13:40:11.153	-0.110288	-0.78202	0.495808	178.255	-29.015	-18.375	-0.7185	-0.6825	-1.4115
05/22/2025 13:40:11.173	-0.089792	-0.742248	0.599264	171.43	-28.035	-19.25	-0.7305	-0.738	-1.446
05/22/2025 13:40:11.193	-0.071736	-0.723704	0.6344	160.825	-26.775	-19.005	-0.744	-0.81	-1.4805
05/22/2025 13:40:11.213	-0.061	-0.705648	0.654164	154.49	-25.165	-18.935	-0.7665	-0.8625	-1.5135
05/22/2025 13:40:11.233	-0.0427	-0.699548	0.681248	149.03	-26.005	-21.175	-0.792	-0.921	-1.518
05/22/2025 13:40:11.253	-0.020984	-0.635864	0.735172	144.2	-25.76	-18.34	-0.774	-0.963	-1.548
05/22/2025 13:40:11.273	-0.009272	-0.644404	0.734684	140.455	-25.69	-17.15	-0.78	-0.99	-1.521
05/22/2025 13:40:11.293	0.008296	-0.621956	0.769088	143.99	-24.675	-17.115	-0.813	-1.0305	-1.575
05/22/2025 13:40:11.313	0.01708	-0.563884	0.81496	148.61	-24.045	-15.715	-0.8175	-1.083	-1.59
05/22/2025 13:40:11.333	0.017568	-0.505324	0.846192	142.275	-23.205	-13.825	-0.8115	-1.14	-1.5855
05/22/2025 13:40:11.353	0.010492	-0.504836	0.863516	132.16	-22.68	-13.86	-0.822	-1.203	-1.5855
05/22/2025 13:40:11.373	0.02318	-0.402844	0.881816	130.235	-23.975	-14.77	-0.822	-1.203	-1.5855
05/22/2025 13:40:11.393	0.040748	-0.32696	0.935008	121.485	-24.92	-14.385	-0.822	-1.203	-1.5855
05/22/2025 13:40:11.413	0.056364	-0.341356	0.948184	103.95	-26.985	-13.37	-0.858	-1.3305	-1.6005
05/22/2025 13:40:11.433	0.061	-0.343308	0.928664	93.135	-26.355	-12.39	-0.8595	-1.377	-1.6005
05/22/2025 13:40:11.453	0.076128	-0.333304	0.92842	93.415	-25.865	-12.67	-0.8715	-1.3905	-1.6155
05/22/2025 13:40:11.473	0.088328	-0.25986	0.945988	97.825	-23.52	-12.425	-0.8715	-1.4175	-1.6335
05/22/2025 13:40:11.493	0.101992	-0.202764	0.993812	95.76	-22.505	-11.865	-0.888	-1.4625	-1.6035
05/22/2025 13:40:11.513	0.102724	-0.156648	1.02114	81.9	-22.33	-10.99	-0.8955	-1.482	-1.5855
05/22/2025 13:40:11.533	0.101016	-0.138104	0.9699	67.515	-24.15	-9.66	-0.9135	-1.485	-1.5855
05/22/2025 13:40:11.553	0.101748	-0.076372	0.958432	58.45	-22.995	-9.31	-0.8865	-1.5225	-1.5765
05/22/2025 13:40:11.573	0.13542	-0.134688	0.994056	43.365	-24.08	-8.085	-0.924	-1.53	-1.578
05/22/2025 13:40:11.593	0.17202	-0.13176	1.014796	40.285	-22.995	-8.435	-0.897	-1.5195	-1.551
05/22/2025 13:40:11.613	0.166164	-0.112484	1.010404	38.465	-19.215	-9.31	-0.918	-1.53	-1.536
05/22/2025 13:40:11.633	0.16104	-0.069296	0.987468	31.78	-16.45	-9.345	-0.9045	-1.5495	-1.554
05/22/2025 13:40:11.653	0.173728	-0.08662	1.001132	23.24	-15.155	-7.665	-0.9045	-1.5495	-1.554
05/22/2025 13:40:11.673	0.169824	-0.102724	0.986004	18.76	-13.86	-6.545	-0.9375	-1.5675	-1.5435
05/22/2025 13:40:11.693	0.17446	-0.087352	0.970632	19.53	-12.635	-5.985	-0.909	-1.6095	-1.524
05/22/2025 13:40:11.713	0.16958	-0.080276	0.975024	18.305	-11.76	-5.32	-0.9375	-1.614	-1.491
05/22/2025 13:40:11.733	0.181048	-0.071492	0.965264	15.435	-11.865	-6.09	-0.96	-1.6095	-1.4955
05/22/2025 13:40:11.753	0.181536	-0.067588	0.958432	10.22	-11.375	-5.32	-0.9375	-1.632	-1.494
05/22/2025 13:40:11.773	0.204472	-0.105896	0.983076	5.565	-11.69	-5.915	-0.93	-1.6545	-1.5015
05/22/2025 13:40:11.793	0.2135	-0.097356	0.970632	4.06	-9.94	-6.79	-0.9345	-1.6395	-1.5015
05/22/2025 13:40:11.813	0.209596	-0.121268	0.96624	1.505	-8.05	-7.49	-0.9345	-1.6395	-1.5015
05/22/2025 13:40:11.833	0.206912	-0.123708	0.978196	0.14	-5.565	-7	-0.93	-1.644	-1.4895
05/22/2025 13:40:11.853	0.211304	-0.134444	0.986004	-1.365	-3.08	-5.845	-0.927	-1.6395	-1.4865
05/22/2025 13:40:11.873	0.205936	-0.143472	0.972828	-2.17	-1.365	-3.535	-0.948	-1.6695	-1.4745
05/22/2025 13:40:11.893	0.195932	-0.116632	0.999424	-1.925	1.015	-0.455	-0.9285	-1.671	-1.4715
05/22/2025 13:40:11.913	0.1708	-0.126636	0.979172	-4.62	3.045	2.135	-0.966	-1.6515	-1.4715
05/22/2025 13:40:11.933	0.174216	-0.111264	0.987224	-3.36	2.485	3.01	-0.9525	-1.647	-1.494
05/22/2025 13:40:11.953	0.159332	-0.08906	0.979172	-4.235	2.03	3.605	-0.918	-1.6935	-1.4775
05/22/2025 13:40:11.973	0.163236	-0.103944	0.983076	-5.005	0.875	3.78	-0.93	-1.6365	-1.4745
05/22/2025 13:40:11.993	0.172996	-0.078568	0.99918	-2.905	1.015	3.71	-0.9225	-1.6215	-1.479
05/22/2025 13:40:12.013	0.17812	-0.076372	0.996496	-1.68	1.68	3.185	-0.939	-1.6065	-1.494
05/22/2025 13:40:12.033	0.185928	-0.071004	1.003328	-0.665	1.925	2.415	-0.9525	-1.632	-1.476
05/22/2025 13:40:12.053	0.188124	-0.065148	1.004304	-2.03	3.255	2.205	-0.945	-1.629	-1.494
05/22/2025 13:40:12.073	0.193736	-0.057828	1.003572	-3.745	3.57	2.205	-0.933	-1.6515	-1.4865
05/22/2025 13:40:12.093	0.192028	-0.068808	0.991372	-5.145	3.85	1.26	-0.9525	-1.6515	-1.4985
05/22/2025 13:40:12.113	0.18666	-0.06588	0.994788	-4.095	3.465	0.455	-0.96	-1.6275	-1.4985
05/22/2025 13:40:12.133	0.181048	-0.07686	0.975512	-5.04	2.555	0.49	-0.96	-1.6365	-1.464
05/22/2025 13:40:12.153	0.17812	-0.076128	0.955016	-6.965	1.575	1.05	-0.945	-1.644	-1.4865
05/22/2025 13:40:12.173	0.191052	-0.090036	0.95526	-7.385	0.245	1.05	-0.945	-1.644	-1.4865
05/22/2025 13:40:12.193	0.179828	-0.109312	0.957944	-6.055	0.63	0.315	-0.945	-1.644	-1.4865
05/22/2025 13:40:12.213	0.181048	-0.110532	0.955016	-5.145	-0.595	0.07	-0.9555	-1.692	-1.5015
05/22/2025 13:40:12.233	0.185928	-0.107116	0.9577	-5.74	-1.085	-0.35	-0.951	-1.704	-1.494
05/22/2025 13:40:12.253	0.183488	-0.116632	0.965752	-7.175	-1.015	-0.7	-0.9405	-1.689	-1.4895
05/22/2025 13:40:12.273	0.179096	-0.113216	0.961116	-6.93	-0.49	-0.175	-0.936	-1.7085	-1.4895
05/22/2025 13:40:12.293	0.172752	-0.1098	0.978196	-6.965	-0.455	0.28	-0.9375	-1.704	-1.5045
05/22/2025 13:40:12.313	0.182756	-0.133224	0.982588	-8.925	-1.33	1.12	-0.9525	-1.6815	-1.5285
05/22/2025 13:40:12.333	0.176412	-0.144936	0.959408	-6.23	-1.645	1.155	-0.96	-1.662	-1.509
05/22/2025 13:40:12.353	0.176656	-0.126636	0.985516	-1.505	-1.155	1.26	-0.9525	-1.662	-1.5285
05/22/2025 13:40:12.373	0.18788	-0.120536	0.999912	-1.295	-1.05	1.61	-0.963	-1.6965	-1.506
05/22/2025 13:40:12.393	0.184952	-0.13298	1.000644	-2.66	0.7	2.52	-0.96	-1.665	-1.521
05/22/2025 13:40:12.413	0.183488	-0.1403	0.992348	-2.975	0.805	2.975	-0.957	-1.6395	-1.5405
05/22/2025 13:40:12.433	0.176656	-0.124928	0.989908	-0.07	1.89	2.625	-0.9555	-1.674	-1.4835
05/22/2025 13:40:12.453	0.178852	-0.10004	0.9882	0.315	2.625	2.17	-0.9555	-1.674	-1.4835
05/22/2025 13:40:12.473	0.18056	-0.126636	0.983564	-2.59	2.625	2.31	-0.9495	-1.659	-1.5165
05/22/2025 13:40:12.493	0.175192	-0.117364	0.981124	-1.575	3.01	1.855	-0.975	-1.6575	-1.518
05/22/2025 13:40:12.513	0.177388	-0.118584	0.974292	0.7	3.185	1.19	-0.987	-1.635	-1.5105
05/22/2025 13:40:12.533	0.171532	-0.10736	0.976976	1.295	3.01	0.91	-0.987	-1.6425	-1.533
05/22/2025 13:40:12.553	0.171044	-0.11468	0.959164	-0.595	2.625	0.525	-0.972	-1.6395	-1.5405
05/22/2025 13:40:12.573	0.172996	-0.113704	0.951112	0.07	2.87	0.14	-1.005	-1.6305	-1.515
05/22/2025 13:40:12.593	0.169824	-0.11224	0.955992	0.63	2.695	-0.49	-0.972	-1.6395	-1.506
05/22/2025 13:40:12.613	0.177388	-0.105652	0.966972	-1.12	1.54	-0.875	-0.972	-1.632	-1.5135
05/22/2025 13:40:12.633	0.170556	-0.126148	0.967948	-3.99	0.665	-1.61	-0.9375	-1.6515	-1.5165
05/22/2025 13:40:12.653	0.18178	-0.117852	0.97112	-5.25	-0.665	-1.54	-0.957	-1.662	-1.524
05/22/2025 13:40:12.673	0.181048	-0.138348	0.97234	-6.93	-0.805	-1.155	-0.972	-1.662	-1.5405
05/22/2025 13:40:12.693	0.183244	-0.145912	0.97234	-5.775	-0.98	-1.085	-0.972	-1.665	-1.518
05/22/2025 13:40:12.713	0.171288	-0.12566	0.971852	-2.975	0.245	-0.945	-0.9645	-1.6395	-1.5255
05/22/2025 13:40:12.733	0.179096	-0.126636	0.98088	-2.975	0.385	-1.085	-0.939	-1.6395	-1.539
05/22/2025 13:40:12.753	0.166896	-0.121756	0.981856	-3.71	1.505	-0.945	-0.942	-1.6365	-1.521
05/22/2025 13:40:12.773	0.168116	-0.11956	0.980148	-4.795	1.19	-0.945	-0.9435	-1.617	-1.5435
05/22/2025 13:40:12.793	0.160796	-0.131028	0.975024	-4.55	1.47	-1.47	-0.954	-1.617	-1.533
05/22/2025 13:40:12.813	0.161528	-0.1403	0.968924	-2.065	1.47	-2.765	-0.954	-1.617	-1.533
05/22/2025 13:40:12.833	0.159088	-0.133224	0.981612	0.35	1.89	-2.94	-0.9645	-1.6245	-1.5135
05/22/2025 13:40:12.853	0.161284	-0.130052	0.99308	-0.105	1.61	-3.08	-0.9405	-1.575	-1.5285
05/22/2025 13:40:12.873	0.170312	-0.132248	0.998204	-1.435	1.785	-2.87	-0.969	-1.5825	-1.5255
05/22/2025 13:40:12.893	0.164944	-0.158112	0.984784	-1.785	2.205	-2.87	-0.9405	-1.572	-1.5285
05/22/2025 13:40:12.913	0.162992	-0.144204	0.976732	0.77	2.625	-2.205	-0.936	-1.5825	-1.524
05/22/2025 13:40:12.933	0.167872	-0.14274	0.984052	1.785	3.395	-1.365	-0.954	-1.602	-1.5135
05/22/2025 13:40:12.953	0.153964	-0.159576	0.959408	0.14	3.22	-0.665	-0.9435	-1.575	-1.536
05/22/2025 13:40:12.973	0.15616	-0.122488	0.971364	0.665	3.64	-1.33	-0.9285	-1.587	-1.5165
05/22/2025 13:40:12.993	0.157624	-0.139568	0.964532	-1.435	3.71	-1.54	-0.9285	-1.587	-1.5165
05/22/2025 13:40:13.013	0.16104	-0.14152	0.974048	-0.805	3.535	-1.75	-0.9135	-1.5915	-1.5165
05/22/2025 13:40:13.033	0.166164	-0.156648	0.974292	-0.63	3.745	-0.63	-0.939	-1.5825	-1.5255
05/22/2025 13:40:13.053	0.161284	-0.147376	0.95648	-0.245	2.66	0.07	-0.918	-1.5795	-1.524
05/22/2025 13:40:13.073	0.165188	-0.135664	0.965996	0.455	1.89	1.505	-0.924	-1.614	-1.509
05/22/2025 13:40:13.093	0.167872	-0.134444	0.977952	0	1.015	2.1	-0.906	-1.6065	-1.509
05/22/2025 13:40:13.113	0.163968	-0.13542	0.96746	-0.56	-0.105	2.625	-0.9105	-1.6095	-1.539
05/22/2025 13:40:13.133	0.162504	-0.144936	0.958188	0.07	-0.945	3.22	-0.9135	-1.617	-1.5165
05/22/2025 13:40:13.153	0.167872	-0.133712	0.964776	0.35	-1.19	4.095	-0.9285	-1.602	-1.524
05/22/2025 13:40:13.173	0.160308	-0.130052	0.97112	0.385	-0.455	3.99	-0.936	-1.5915	-1.506
05/22/2025 13:40:13.193	0.149816	-0.131516	0.964288	-0.7	-0.665	3.325	-0.9165	-1.584	-1.5045
05/22/2025 13:40:13.213	0.157624	-0.130296	0.9638	-1.12	-1.575	2.415	-0.921	-1.602	-1.524
05/22/2025 13:40:13.233	0.160552	-0.141764	0.974536	-1.75	-2.135	1.645	-0.921	-1.602	-1.521
05/22/2025 13:40:13.253	0.16104	-0.143228	0.989176	-1.96	-2.555	1.61	-0.921	-1.602	-1.521
05/22/2025 13:40:13.273	0.171288	-0.146888	0.992836	-2.205	-2.625	2.24	-0.921	-1.602	-1.521
05/22/2025 13:40:13.293	0.165432	-0.143716	0.989176	-1.96	-2.205	3.255	-0.8985	-1.572	-1.512
05/22/2025 13:40:13.313	0.165188	-0.14518	0.988932	-2.38	-1.61	3.78	-0.9315	-1.5795	-1.5015
05/22/2025 13:40:13.333	0.156648	-0.152256	0.982588	-2.8	-0.91	4.06	-0.888	-1.5765	-1.5075
05/22/2025 13:40:13.353	0.157136	-0.15372	0.972584	-2.345	-1.05	3.885	-0.9285	-1.5615	-1.494
05/22/2025 13:40:13.373	0.161528	-0.144936	0.974536	-0.735	-0.735	3.815	-0.9285	-1.56	-1.533
05/22/2025 13:40:13.393	0.159576	-0.136152	0.981856	0.175	-0.385	3.57	-0.939	-1.59	-1.5135
05/22/2025 13:40:13.413	0.16348	-0.153964	0.977708	0.42	0.07	3.08	-0.9345	-1.599	-1.4985
05/22/2025 13:40:13.433	0.16348	-0.146888	0.981612	1.19	0.665	2.765	-0.924	-1.5795	-1.509
05/22/2025 13:40:13.453	0.167872	-0.146644	0.979904	1.505	0.595	2.17	-0.939	-1.575	-1.509
05/22/2025 13:40:13.473	0.162016	-0.141276	0.971852	1.4	0.84	2.17	-0.9165	-1.6065	-1.524
05/22/2025 13:40:13.493	0.156892	-0.136152	0.961848	0.98	1.05	2.59	-0.9465	-1.62	-1.524
05/22/2025 13:40:13.513	0.1586	-0.139568	0.973804	2.03	0.49	2.905	-0.972	-1.647	-1.5255
05/22/2025 13:40:13.533	0.154208	-0.13298	0.970388	4.305	0.175	3.465	-0.972	-1.647	-1.5255
05/22/2025 13:40:13.553	0.163968	-0.111508	0.979172	5.145	-0.245	3.5	-0.945	-1.659	-1.521
05/22/2025 13:40:13.573	0.162504	-0.1403	0.974536	4.445	0.315	3.43	-0.9285	-1.644	-1.5435
05/22/2025 13:40:13.593	0.159332	-0.132004	0.974048	5.53	0.21	3.57	-0.942	-1.6395	-1.5315
05/22/2025 13:40:13.613	0.15738	-0.12444	0.996984	6.615	0.595	2.835	-0.9495	-1.6125	-1.518
05/22/2025 13:40:13.633	0.166896	-0.118828	1.000156	5.39	0.665	1.82	-0.9465	-1.6425	-1.5435
05/22/2025 13:40:13.653	0.16104	-0.122732	0.987712	3.43	0.84	0.875	-0.945	-1.662	-1.509
05/22/2025 13:40:13.673	0.166896	-0.135176	0.967704	2.415	1.47	0.245	-0.957	-1.6425	-1.533
05/22/2025 13:40:13.693	0.162504	-0.136396	0.979172	2.31	3.045	0.35	-0.972	-1.632	-1.5285
05/22/2025 13:40:13.713	0.16348	-0.129808	0.9882	2.31	4.13	0.7	-0.954	-1.635	-1.5255
05/22/2025 13:40:13.733	0.160064	-0.126636	0.98454	1.61	4.375	0.665	-0.9435	-1.62	-1.536
05/22/2025 13:40:13.753	0.148596	-0.140544	0.980392	0.735	4.165	1.12	-0.9615	-1.62	-1.536
05/22/2025 13:40:13.773	0.15372	-0.142984	0.96868	1.12	3.185	1.12	-0.9615	-1.6125	-1.5255
05/22/2025 13:40:13.793	0.150792	-0.132492	0.956724	2.1	2.59	1.26	-0.957	-1.617	-1.5255
05/22/2025 13:40:13.813	0.149328	-0.135176	0.954528	1.855	1.995	0.875	-0.9315	-1.6245	-1.5315
05/22/2025 13:40:13.833	0.13908	-0.129564	0.957212	2.135	1.19	0.42	-0.951	-1.6275	-1.5405
05/22/2025 13:40:13.853	0.154208	-0.142496	0.968436	1.085	0.385	0.175	-0.9495	-1.635	-1.5285
05/22/2025 13:40:13.873	0.153476	-0.135664	0.97844	0.56	-0.385	0.63	-0.954	-1.6095	-1.5255
05/22/2025 13:40:13.893	0.150792	-0.135664	0.973316	-0.175	-0.455	0.735	-0.966	-1.6095	-1.548
05/22/2025 13:40:13.913	0.151768	-0.135176	0.97112	0.63	-0.945	1.085	-0.9405	-1.617	-1.551
05/22/2025 13:40:13.933	0.1525	-0.117608	0.983076	2.59	-0.805	1.225	-0.954	-1.635	-1.548
05/22/2025 13:40:13.953	0.15738	-0.121024	0.988932	3.15	-0.42	0.945	-0.9285	-1.6545	-1.551
05/22/2025 13:40:13.973	0.159332	-0.112972	0.991616	2.065	-0.035	0.595	-0.954	-1.6425	-1.5585
05/22/2025 13:40:13.993	0.146644	-0.119804	0.973316	1.12	0.49	0	-0.969	-1.647	-1.56
05/22/2025 13:40:14.013	0.139812	-0.11834	0.982588	1.89	0.63	-0.315	-0.933	-1.6245	-1.554
05/22/2025 13:40:14.033	0.150792	-0.123708	0.982832	2.45	0.245	-0.56	-0.951	-1.635	-1.5435
05/22/2025 13:40:14.053	0.148352	-0.10614	0.981368	3.01	0.56	-0.56	-0.921	-1.614	-1.554
05/22/2025 13:40:14.073	0.151768	-0.123464	0.996008	2.03	1.225	0.21	-0.921	-1.614	-1.554
05/22/2025 13:40:14.093	0.14518	-0.134444	0.997716	1.47	2.205	1.05	-0.9465	-1.62	-1.551
05/22/2025 13:40:14.113	0.141032	-0.132248	0.996496	1.47	2.31	1.26	-0.948	-1.602	-1.5585
05/22/2025 13:40:14.133	0.139568	-0.127368	0.994056	1.82	2.065	1.295	-0.9255	-1.587	-1.551
05/22/2025 13:40:14.153	0.133468	-0.125416	0.982832	1.68	1.89	1.225	-0.9435	-1.572	-1.5405
05/22/2025 13:40:14.173	0.130784	-0.125416	0.975512	2.485	1.645	0.98	-0.9075	-1.569	-1.5435
05/22/2025 13:40:14.193	0.141276	-0.130052	0.970388	2.87	1.68	1.015	-0.9255	-1.5675	-1.539
05/22/2025 13:40:14.213	0.151036	-0.133956	0.969168	3.395	1.4	1.33	-0.9435	-1.575	-1.5405
05/22/2025 13:40:14.233	0.149572	-0.119316	0.971852	4.165	1.89	1.295	-0.9435	-1.59	-1.5405
05/22/2025 13:40:14.253	0.148352	-0.112728	0.972828	3.115	1.785	1.54	-0.948	-1.575	-1.5405
05/22/2025 13:40:14.273	0.148108	-0.121268	0.972828	1.61	1.05	1.82	-0.933	-1.572	-1.5435
05/22/2025 13:40:14.293	0.161528	-0.115656	0.973316	0.63	0.385	1.75	-0.933	-1.572	-1.5435
05/22/2025 13:40:14.313	0.156404	-0.115656	0.96502	0	0.875	1.575	-0.9285	-1.5795	-1.5435
05/22/2025 13:40:14.333	0.1525	-0.110776	0.970144	-0.21	0.56	1.47	-0.9285	-1.5795	-1.5435
05/22/2025 13:40:14.353	0.149084	-0.104188	0.966728	-0.98	0.035	1.54	-0.921	-1.572	-1.5315
05/22/2025 13:40:14.373	0.142496	-0.10248	0.96502	-1.33	-0.735	1.4	-0.939	-1.605	-1.5315
05/22/2025 13:40:14.393	0.144692	-0.112484	0.972584	-0.595	-1.225	1.05	-0.9255	-1.5945	-1.536
05/22/2025 13:40:14.413	0.140788	-0.10492	0.987468	0.665	-1.54	0.945	-0.9405	-1.5975	-1.5405
05/22/2025 13:40:14.433	0.149816	-0.102724	0.989908	0.56	-1.54	0.385	-0.8985	-1.6065	-1.5165
05/22/2025 13:40:14.453	0.14518	-0.107604	0.989176	-0.21	-1.33	-0.315	-0.8925	-1.584	-1.5345
05/22/2025 13:40:14.473	0.148108	-0.117852	1.004548	0.21	-0.63	-0.875	-0.8985	-1.5795	-1.5345
05/22/2025 13:40:14.493	0.148596	-0.11956	1.003816	0.455	0.175	-0.455	-0.918	-1.5915	-1.5285
05/22/2025 13:40:14.513	0.147132	-0.108092	1.013576	1.05	0.945	0	-0.9105	-1.602	-1.5435
05/22/2025 13:40:14.533	0.146888	-0.107604	1.003816	1.435	1.715	0.28	-0.9165	-1.6095	-1.5285
05/22/2025 13:40:14.553	0.144448	-0.116632	1.0065	1.19	2.73	0.945	-0.906	-1.5945	-1.5345
05/22/2025 13:40:14.573	0.143228	-0.108092	1.0004	0.77	3.115	0.945	-0.921	-1.6095	-1.554
05/22/2025 13:40:14.593	0.136396	-0.107848	0.987224	0.385	3.045	0.07	-0.921	-1.6095	-1.554
05/22/2025 13:40:14.613	0.13786	-0.108824	0.976488	1.225	2.695	-0.805	-0.921	-1.6095	-1.554
05/22/2025 13:40:14.633	0.134688	-0.108092	0.9577	1.645	2.485	-1.33	-0.9135	-1.5915	-1.5315
05/22/2025 13:40:14.653	0.139324	-0.106628	0.959896	1.225	1.82	-1.715	-0.9225	-1.5975	-1.5585
05/22/2025 13:40:14.673	0.152256	-0.117364	0.957944	-0.805	1.155	-2.065	-0.9105	-1.584	-1.536
05/22/2025 13:40:14.693	0.152012	-0.116876	0.955504	-2.59	0.98	-1.96	-0.8955	-1.6065	-1.542
05/22/2025 13:40:14.713	0.153964	-0.126392	0.949648	-4.305	0.875	-1.575	-0.9105	-1.602	-1.5465
05/22/2025 13:40:14.733	0.145912	-0.12566	0.951356	-4.76	0.945	-0.77	-0.9135	-1.602	-1.539
05/22/2025 13:40:14.753	0.14518	-0.119804	0.955504	-5.285	0.735	-0.21	-0.921	-1.614	-1.539
05/22/2025 13:40:14.773	0.144692	-0.098332	0.947696	-7.84	0.805	0.42	-0.936	-1.602	-1.5135
05/22/2025 13:40:14.793	0.127124	-0.075884	0.928908	-14.49	0.98	1.155	-0.936	-1.632	-1.554
05/22/2025 13:40:14.813	0.130784	-0.094428	0.940376	-24.78	0.595	2.765	-0.9285	-1.6365	-1.5435
05/22/2025 13:40:14.833	0.125416	-0.153964	0.955016	-32.48	0.49	3.57	-0.9165	-1.6365	-1.5345
05/22/2025 13:40:14.853	0.1403	-0.171044	0.986736	-33.53	-1.015	2.94	-0.9105	-1.6515	-1.5645
05/22/2025 13:40:14.873	0.128344	-0.180072	0.96502	-35.175	-1.085	2.275	-0.9105	-1.6515	-1.5645
05/22/2025 13:40:14.893	0.119804	-0.171044	0.943548	-30.73	-2.415	0.665	-0.921	-1.602	-1.551
05/22/2025 13:40:14.913	0.13054	-0.177876	0.958188	-25.9	-3.885	-0.21	-0.936	-1.5975	-1.5405
05/22/2025 13:40:14.933	0.140544	-0.165432	0.978928	-25.795	-4.795	-0.14	-0.936	-1.5945	-1.548
05/22/2025 13:40:14.953	0.15372	-0.194468	0.990396	-29.715	-4.655	0.455	-0.918	-1.6095	-1.5765
05/22/2025 13:40:14.973	0.153964	-0.205448	0.972828	-34.335	-3.36	1.82	-0.9525	-1.5675	-1.56
05/22/2025 13:40:14.993	0.144448	-0.252052	0.960628	-36.4	-2.345	2.415	-0.966	-1.545	-1.5405
05/22/2025 13:40:15.013	0.135908	-0.249124	0.961116	-35.28	-1.365	3.465	-0.945	-1.542	-1.5405
05/22/2025 13:40:15.033	0.131272	-0.2257	0.955992	-36.575	0	3.5	-0.9315	-1.503	-1.5675
05/22/2025 13:40:15.053	0.130784	-0.257176	0.953064	-47.915	1.54	4.83	-0.96	-1.5	-1.557
05/22/2025 13:40:15.073	0.133224	-0.275232	0.935008	-59.115	2.625	5.005	-0.9315	-1.47	-1.56
05/22/2025 13:40:15.093	0.147376	-0.283772	0.939156	-71.33	0.14	2.485	-0.9465	-1.488	-1.5825
05/22/2025 13:40:15.113	0.143472	-0.340136	0.923296	-80.22	1.225	0.805	-0.936	-1.44	-1.5555
05/22/2025 13:40:15.133	0.137128	-0.389668	0.898164	-75.32	1.995	-0.98	-0.942	-1.443	-1.5405
05/22/2025 13:40:15.153	0.144936	-0.380152	0.876692	-68.18	1.75	-2.24	-0.948	-1.386	-1.557
05/22/2025 13:40:15.173	0.121268	-0.402844	0.868152	-66.185	3.22	-2.17	-0.9375	-1.3335	-1.569
05/22/2025 13:40:15.193	0.140056	-0.36356	0.883524	-70.735	0.35	-2.73	-0.9675	-1.341	-1.5585
05/22/2025 13:40:15.213	0.125904	-0.415532	0.831796	-84.875	-0.56	-3.255	-0.942	-1.308	-1.542
05/22/2025 13:40:15.233	0.114192	-0.460672	0.790316	-92.645	-1.505	-2.695	-0.9375	-1.293	-1.5465
05/22/2025 13:40:15.253	0.122488	-0.522648	0.775188	-86.835	-2.555	-3.745	-0.942	-1.3005	-1.539
05/22/2025 13:40:15.273	0.144936	-0.551928	0.81252	-76.02	-2.135	-4.76	-0.942	-1.3005	-1.539
05/22/2025 13:40:15.293	0.162016	-0.506056	0.802272	-73.92	-1.435	-8.085	-0.927	-1.251	-1.5075
05/22/2025 13:40:15.313	0.14518	-0.512888	0.781288	-90.23	1.12	-8.4	-0.9525	-1.2435	-1.509
05/22/2025 13:40:15.333	0.159576	-0.561688	0.758596	-109.235	1.05	-8.155	-0.939	-1.206	-1.5045
05/22/2025 13:40:15.353	0.138348	-0.616344	0.731512	-122.325	2.765	-7.245	-0.9615	-1.1835	-1.506
05/22/2025 13:40:15.373	0.136884	-0.6832	0.713212	-125.44	1.89	-8.155	-0.9645	-1.1415	-1.491
05/22/2025 13:40:15.393	0.1342	-0.715408	0.68076	-123.69	2.485	-9.1	-0.948	-1.074	-1.4985
05/22/2025 13:40:15.413	0.133956	-0.76616	0.65148	-123.515	2.625	-9.66	-0.948	-1.074	-1.4985
05/22/2025 13:40:15.433	0.134444	-0.77226	0.620248	-123.55	4.41	-9.485	-0.9375	-0.9945	-1.449
05/22/2025 13:40:15.453	0.138348	-0.805688	0.578036	-129.22	5.53	-8.645	-0.9075	-0.954	-1.422
05/22/2025 13:40:15.473	0.148108	-0.834724	0.53314	-135.73	6.79	-8.19	-0.915	-0.924	-1.4115
05/22/2025 13:40:15.493	0.166408	-0.855464	0.497028	-141.575	8.96	-8.4	-0.9315	-0.8865	-1.3485
05/22/2025 13:40:15.513	0.157136	-0.881084	0.431636	-153.02	13.3	-6.79	-0.918	-0.8715	-1.3395
05/22/2025 13:40:15.533	0.148108	-0.946476	0.356728	-154.21	15.12	-5.775	-0.9135	-0.8235	-1.299
05/22/2025 13:40:15.553	0.126392	-0.946964	0.337696	-143.43	17.29	-7.21	-0.924	-0.8085	-1.287
05/22/2025 13:40:15.573	0.133956	-0.931592	0.305244	-133.21	16.905	-8.155	-0.897	-0.7785	-1.2345
05/22/2025 13:40:15.593	0.133224	-0.914756	0.272792	-127.05	14.595	-9.835	-0.897	-0.756	-1.185
05/22/2025 13:40:15.613	0.147864	-0.904752	0.219844	-126.945	12.425	-10.43	-0.8895	-0.7335	-1.1655
05/22/2025 13:40:15.633	0.144204	-0.93208	0.167872	-126.98	9.38	-11.62	-0.9	-0.738	-1.143
05/22/2025 13:40:15.653	0.143228	-0.94672	0.136884	-123.9	7.35	-12.845	-0.87	-0.708	-1.113
05/22/2025 13:40:15.673	0.156648	-0.970388	0.102236	-113.505	5.425	-15.855	-0.87	-0.708	-1.113
05/22/2025 13:40:15.693	0.17324	-0.984784	0.047824	-107.485	3.255	-17.185	-0.87	-0.708	-1.113
05/22/2025 13:40:15.713	0.169336	-1.002596	0.005856	-97.755	3.045	-18.06	-0.909	-0.675	-1.023
05/22/2025 13:40:15.733	0.184952	-1.039928	0.00732	-86.31	2.625	-19.145	-0.885	-0.6675	-0.984
05/22/2025 13:40:15.753	0.196664	-1.016992	-0.01708	-75.46	3.43	-18.865	-0.8925	-0.672	-0.969
05/22/2025 13:40:15.773	0.209108	-1.011868	-0.023668	-64.54	4.34	-18.2	-0.906	-0.648	-0.9315
05/22/2025 13:40:15.793	0.217648	-1.002352	-0.036844	-56.63	6.16	-17.15	-0.9105	-0.6525	-0.936
05/22/2025 13:40:15.813	0.214964	-0.96868	-0.063684	-50.015	8.575	-16.695	-0.906	-0.672	-0.9165
05/22/2025 13:40:15.833	0.229604	-0.948672	-0.092476	-47.565	9.345	-18.165	-0.9165	-0.675	-0.939
05/22/2025 13:40:15.853	0.233752	-0.938912	-0.11956	-45.57	9.59	-20.23	-0.9165	-0.6645	-0.909
05/22/2025 13:40:15.873	0.234728	-0.9455	-0.133712	-37.765	8.295	-22.54	-0.942	-0.6825	-0.9255
05/22/2025 13:40:15.893	0.247416	-0.956236	-0.14396	-24.22	5.6	-25.97	-0.939	-0.6705	-0.921
05/22/2025 13:40:15.913	0.2623	-0.935984	-0.154208	-7.7	2.66	-29.75	-0.954	-0.6975	-0.921
05/22/2025 13:40:15.933	0.282308	-0.908168	-0.162504	4.725	-2.03	-34.93	-0.9465	-0.678	-0.921
05/22/2025 13:40:15.953	0.305488	-0.902068	-0.163968	8.68	-4.62	-38.395	-0.9465	-0.678	-0.921
05/22/2025 13:40:15.973	0.302072	-0.917684	-0.118584	15.75	-5.81	-41.3	-0.972	-0.7125	-0.9135
05/22/2025 13:40:15.993	0.331108	-0.93818	-0.09272	26.67	-7.28	-43.4	-1.0005	-0.693	-0.8955
05/22/2025 13:40:16.013	0.342576	-0.915976	-0.091988	38.5	-5.25	-44.975	-1.0035	-0.7455	-0.9075
05/22/2025 13:40:16.033	0.35868	-0.916708	-0.066124	47.18	-2.975	-46.375	-1.008	-0.738	-0.9195
05/22/2025 13:40:16.053	0.362096	-0.922076	-0.044164	52.675	0.42	-47.88	-1.0275	-0.741	-0.9345
05/22/2025 13:40:16.073	0.37698	-0.902068	0.010004	56.665	2.8	-49.49	-1.0305	-0.759	-0.927
05/22/2025 13:40:16.093	0.381616	-0.875472	0.060512	54.88	4.69	-50.4	-1.044	-0.801	-0.942
05/22/2025 13:40:16.113	0.385032	-0.86132	0.079544	48.335	3.92	-49.91	-1.0335	-0.8265	-0.972
05/22/2025 13:40:16.133	0.400404	-0.87718	0.088084	37.135	3.71	-49.805	-1.056	-0.8385	-0.9615
05/22/2025 13:40:16.153	0.408456	-0.882792	0.083936	26.32	4.795	-51.03	-1.089	-0.8745	-0.9915
05/22/2025 13:40:16.173	0.431148	-0.870592	0.070516	19.845	5.845	-52.185	-1.083	-0.897	-1.0215
05/22/2025 13:40:16.193	0.462868	-0.866688	0.06832	15.645	5.81	-51.59	-1.086	-0.909	-1.0185
05/22/2025 13:40:16.213	0.488244	-0.866688	0.059536	0.56	9.065	-49.105	-1.104	-0.9195	-1.0185
