yyyy-MM-dd	HH:mm:ss.fff	gyrX	gyrY	gyrZ	accX	accY	accZ	magX	magY	magZ	Marker	Energy	Angle	Classification
2026-02-11	15:57:48.010	1.295	-0.525	0.28	0.054656	0.022692	1.012844	-0.0555	-0.2715	0.0915	0	8	1035	1
2026-02-11	15:57:48.030	1.225	-0.595	0.28	0.051728	0.022448	1.014552	-0.048	-0.267	0.093	0	8	1035	1
2026-02-11	15:57:48.050	1.295	-0.56	0.28	0.055632	0.020252	1.009184	-0.054	-0.2655	0.0915	0	8	1035	1
2026-02-11	15:57:48.070	1.26	-0.56	0.245	0.058804	0.021228	1.014064	-0.0555	-0.267	0.09	0	8	1035	1
2026-02-11	15:57:48.090	1.225	-0.56	0.245	0.05612	0.02196	1.01138	-0.048	-0.261	0.0945	0	8	1035	1
2026-02-11	15:57:48.110	1.225	-0.525	0.245	0.056852	0.022448	1.012844	-0.0555	-0.276	0.0885	0	8	1035	1
2026-02-11	15:57:48.130	1.26	-0.56	0.28	0.055632	0.022692	1.013088	-0.0555	-0.27	0.093	0	8	1035	1
2026-02-11	15:57:48.150	1.225	-0.56	0.28	0.054656	0.02196	1.010892	-0.0585	-0.27	0.0945	0	8	1035	1
2026-02-11	15:57:48.170	1.26	-0.56	0.245	0.060268	0.019764	1.012112	-0.0585	-0.27	0.0945	0	8	1035	1
2026-02-11	15:57:48.190	1.26	-0.56	0.245	0.059048	0.021472	1.013088	-0.0585	-0.27	0.0945	0	8	1035	1
2026-02-11	15:57:48.210	1.26	-0.56	0.28	0.059536	0.021716	1.011868	-0.0585	-0.27	0.0945	0	7	1035	1
2026-02-11	15:57:48.230	1.295	-0.56	0.245	0.05612	0.026108	1.012112	-0.0525	-0.267	0.096	0	7	1035	1
2026-02-11	15:57:48.250	1.26	-0.56	0.28	0.056608	0.022448	1.014552	-0.0585	-0.2685	0.0915	0	7	1035	1
2026-02-11	15:57:48.270	1.295	-0.595	0.28	0.058316	0.01952	1.009672	-0.054	-0.2715	0.099	0	7	1035	1
2026-02-11	15:57:48.290	1.295	-0.56	0.28	0.05612	0.021472	1.012844	-0.051	-0.267	0.0855	0	7	1035	1
2026-02-11	15:57:48.310	1.295	-0.56	0.245	0.056852	0.024156	1.013088	-0.051	-0.273	0.084	0	7	1035	1
2026-02-11	15:57:48.330	1.26	-0.525	0.28	0.054412	0.019276	1.012844	-0.0525	-0.261	0.093	0	7	1035	1
2026-02-11	15:57:48.350	1.295	-0.56	0.21	0.059048	0.02318	1.013576	-0.0525	-0.267	0.0975	0	7	1035	1
2026-02-11	15:57:48.370	1.26	-0.56	0.245	0.055388	0.02074	1.01382	-0.057	-0.258	0.0915	0	7	1035	1
2026-02-11	15:57:48.390	1.26	-0.56	0.245	0.053924	0.021472	1.010892	-0.057	-0.2565	0.0945	0	7	1035	1
2026-02-11	15:57:52.410	1.225	-0.56	0.28	0.05856	0.018788	1.011868	-0.0405	-0.2685	0.093	0	44	91	2
2026-02-11	15:57:52.430	1.26	-0.56	0.28	0.055388	0.020008	1.010892	-0.054	-0.2655	0.09	0	44	91	2
2026-02-11	15:57:52.450	1.26	-0.56	0.245	0.055876	0.020252	1.014064	-0.0585	-0.258	0.0885	0	44	91	2
2026-02-11	15:57:52.470	1.26	-0.56	0.28	0.059536	0.019276	1.01382	-0.0615	-0.2625	0.0885	0	44	91	2
2026-02-11	15:57:52.490	10.57	-9.24	4.76	0.058072	0.0183	1.008452	-0.054	-0.261	0.09	0	44	91	2
2026-02-11	15:57:52.510	2.205	-1.435	0.84	0.057828	0.021228	1.0126	-0.063	-0.2715	0.0855	0	44	91	2
2026-02-11	15:57:52.530	1.26	-0.56	0.28	0.053192	0.02562	1.010892	-0.0495	-0.261	0.084	0	44	91	2
2026-02-11	15:57:52.550	1.225	-0.56	0.28	0.054656	0.022936	1.01016	-0.063	-0.267	0.09	0	44	91	2
2026-02-11	15:57:52.570	1.26	-0.525	0.28	0.058804	0.019764	1.012356	-0.057	-0.267	0.0885	0	44	91	2
2026-02-11	15:57:52.590	1.26	-0.595	0.315	0.058804	0.022692	1.005036	-0.0615	-0.27	0.093	0	44	91	2
2026-02-11	15:57:52.610	1.26	-0.49	0.245	0.051728	0.02196	1.01138	-0.0585	-0.27	0.084	0	150	292	2
2026-02-11	15:57:52.630	1.26	-0.56	0.245	0.053436	0.02074	1.011136	-0.0585	-0.2745	0.093	0	150	292	2
2026-02-11	15:57:52.650	1.26	-0.595	0.28	0.05856	0.024156	1.007476	-0.0495	-0.276	0.093	0	150	292	2
2026-02-11	15:57:52.670	1.26	-0.56	0.21	0.058804	0.020984	1.013088	-0.042	-0.27	0.0945	0	150	292	2
2026-02-11	15:57:52.690	1.225	-0.595	0.28	0.055388	0.01952	1.011868	-0.051	-0.2715	0.0945	0	150	292	2
2026-02-11	15:57:52.710	1.295	-0.56	0.21	0.057096	0.02318	1.00772	-0.0555	-0.27	0.09	0	150	292	2
2026-02-11	15:57:52.730	1.225	-0.525	0.28	0.05612	0.022204	1.014308	-0.051	-0.27	0.09	0	150	292	2
2026-02-11	15:57:52.750	1.19	-0.56	0.245	0.054168	0.026108	1.011624	-0.057	-0.276	0.087	0	150	292	2
2026-02-11	15:57:52.770	1.225	-0.56	0.28	0.059048	0.023668	1.009428	-0.054	-0.2775	0.0915	0	150	292	2
2026-02-11	15:57:52.790	1.19	-0.525	0.245	0.058316	0.018788	1.01138	-0.0615	-0.2685	0.0975	0	150	292	2
2026-02-11	15:57:52.810	1.26	-0.56	0.245	0.057584	0.02196	1.00894	-0.0555	-0.2685	0.084	0	261	492	3
2026-02-11	15:57:52.830	1.225	-0.525	0.245	0.055144	0.017568	1.009428	-0.0525	-0.267	0.0855	0	261	492	3
2026-02-11	15:57:52.850	1.26	-0.525	0.28	0.054168	0.0244	1.01138	-0.048	-0.2745	0.0885	0	261	492	3
2026-02-11	15:57:52.870	1.26	-0.56	0.245	0.056852	0.021716	1.008452	-0.048	-0.2745	0.0885	0	261	492	3
2026-02-11	15:57:52.890	1.295	-0.525	0.245	0.057584	0.02562	1.010404	-0.0495	-0.2685	0.0885	0	261	492	3
2026-02-11	15:57:52.910	1.26	-0.56	0.245	0.061976	0.024156	1.012844	-0.0525	-0.2625	0.09	0	261	492	3
2026-02-11	15:57:52.930	1.26	-0.56	0.28	0.056364	0.019764	1.01138	-0.051	-0.2655	0.0915	0	261	492	3
2026-02-11	15:57:52.950	1.26	-0.525	0.28	0.057096	0.020008	1.013088	-0.0495	-0.2715	0.09	0	261	492	3
2026-02-11	15:57:52.970	1.26	-0.56	0.28	0.058072	0.023424	1.012112	-0.048	-0.273	0.09	0	261	492	3
2026-02-11	15:57:52.990	1.26	-0.56	0.245	0.05368	0.02196	1.010404	-0.0465	-0.27	0.093	0	261	492	3
2026-02-11	15:57:53.010	1.295	-0.56	0.28	0.060024	0.021716	1.011624	-0.0525	-0.2655	0.0915	0	339	638	1
2026-02-11	15:57:53.030	1.26	-0.56	0.315	0.056852	0.022204	1.010648	-0.057	-0.2625	0.084	0	339	638	1
2026-02-11	15:57:53.050	1.26	-0.56	0.28	0.054412	0.020252	1.011624	-0.0525	-0.2685	0.0825	0	339	638	1
2026-02-11	15:57:53.070	1.26	-0.56	0.28	0.060512	0.022692	1.011624	-0.0525	-0.2745	0.0855	0	339	638	1
2026-02-11	15:57:53.090	1.295	-0.56	0.28	0.057096	0.0244	1.01138	-0.0495	-0.2715	0.09	0	339	638	1
2026-02-11	15:57:53.110	1.225	-0.595	0.28	0.05978	0.022448	1.009672	-0.051	-0.2655	0.0915	0	339	638	1
2026-02-11	15:57:53.130	1.225	-0.56	0.28	0.057584	0.018788	1.012112	-0.057	-0.267	0.0915	0	339	638	1
2026-02-11	15:57:53.150	1.26	-0.525	0.28	0.058316	0.021472	1.011136	-0.054	-0.27	0.0975	0	339	638	1
2026-02-11	15:57:53.170	1.26	-0.595	0.28	0.053436	0.020984	1.007232	-0.051	-0.2685	0.0975	0	339	638	1
2026-02-11	15:57:53.190	1.225	-0.525	0.28	0.056364	0.021228	1.013576	-0.051	-0.2685	0.093	0	339	638	1
2026-02-11	15:57:53.210	1.19	-0.56	0.245	0.05856	0.01952	1.010892	-0.0525	-0.2655	0.087	0	381	745	1
2026-02-11	15:57:53.230	1.295	-0.525	0.28	0.054168	0.021716	1.010648	-0.054	-0.2655	0.0855	0	381	745	1
2026-02-11	15:57:53.250	1.26	-0.49	0.245	0.057828	0.02074	1.014308	-0.0525	-0.267	0.093	0	381	745	1
2026-02-11	15:57:53.270	1.225	-0.56	0.245	0.055876	0.022692	1.010404	-0.054	-0.2685	0.096	0	381	745	1
2026-02-11	15:57:53.290	1.26	-0.525	0.28	0.055876	0.023912	1.012844	-0.054	-0.2715	0.0945	0	381	745	1
2026-02-11	15:57:53.310	1.26	-0.595	0.245	0.05734	0.019764	1.010648	-0.0525	-0.2685	0.0915	0	381	745	1
2026-02-11	15:57:53.330	1.225	-0.525	0.245	0.055632	0.02074	1.008696	-0.054	-0.2655	0.0885	0	381	745	1
2026-02-11	15:57:53.350	1.225	-0.525	0.245	0.056608	0.0244	1.013332	-0.054	-0.267	0.0885	0	381	745	1
2026-02-11	15:57:53.370	1.26	-0.595	0.28	0.055144	0.018788	1.011136	-0.0555	-0.2685	0.0915	0	381	745	1
2026-02-11	15:57:53.390	1.225	-0.56	0.245	0.05612	0.020496	1.010892	-0.0555	-0.27	0.09	0	381	745	1
2026-02-11	15:57:53.410	1.225	-0.525	0.245	0.053192	0.022448	1.012356	-0.0555	-0.2715	0.09	0	392	823	1
2026-02-11	15:57:53.430	1.225	-0.56	0.28	0.056364	0.022448	1.013088	-0.051	-0.2715	0.09	0	392	823	1
2026-02-11	15:57:53.450	1.26	-0.56	0.245	0.054412	0.021228	1.014308	-0.048	-0.273	0.0885	0	392	823	1
2026-02-11	15:57:53.470	1.225	-0.595	0.245	0.055388	0.021228	1.011136	-0.0495	-0.2715	0.0945	0	392	823	1
2026-02-11	15:57:53.490	1.26	-0.56	0.245	0.055144	0.022204	1.009428	-0.0495	-0.27	0.0975	0	392	823	1
2026-02-11	15:57:53.510	1.295	-0.56	0.245	0.059292	0.018788	1.012112	-0.057	-0.27	0.099	0	392	823	1
2026-02-11	15:57:53.530	1.26	-0.56	0.28	0.056608	0.021716	1.011868	-0.0615	-0.273	0.0975	0	392	823	1
2026-02-11	15:57:53.550	1.295	-0.525	0.28	0.056608	0.02196	1.013088	-0.0555	-0.2715	0.0915	0	392	823	1
2026-02-11	15:57:53.570	1.225	-0.595	0.245	0.055388	0.01952	1.00894	-0.054	-0.267	0.09	0	392	823	1
2026-02-11	15:57:53.590	1.26	-0.595	0.245	0.058804	0.022448	1.0065	-0.057	-0.264	0.09	0	392	823	1
2026-02-11	15:57:53.610	1.295	-0.49	0.245	0.057096	0.021228	1.014308	-0.0585	-0.261	0.09	0	378	880	1
2026-02-11	15:57:53.630	1.225	-0.56	0.245	0.056608	0.021716	1.012112	-0.0585	-0.261	0.09	0	378	880	1
2026-02-11	15:57:53.650	1.225	-0.56	0.245	0.054656	0.021228	1.010404	-0.0585	-0.261	0.09	0	378	880	1
2026-02-11	15:57:53.670	1.295	-0.595	0.28	0.060024	0.02074	1.011624	-0.0555	-0.276	0.0915	0	378	880	1
2026-02-11	15:57:53.690	1.26	-0.56	0.245	0.058316	0.02196	1.009184	-0.054	-0.264	0.0915	0	378	880	1
2026-02-11	15:57:53.710	1.26	-0.525	0.21	0.057584	0.0183	1.014552	-0.0525	-0.2685	0.102	0	378	880	1
2026-02-11	15:57:53.730	1.26	-0.595	0.245	0.060512	0.020252	1.011624	-0.066	-0.2685	0.0885	0	378	880	1
2026-02-11	15:57:53.750	1.26	-0.595	0.28	0.053436	0.022936	1.003816	-0.0585	-0.2685	0.0855	0	378	880	1
2026-02-11	15:57:53.770	1.295	-0.385	0.245	0.05002	0.017812	1.0187	-0.048	-0.267	0.09	0	378	880	1
2026-02-11	15:57:53.790	1.225	-0.56	0.245	0.052704	0.018788	1.024556	-0.057	-0.2685	0.0975	0	378	880	1
2026-02-11	15:57:53.810	1.19	-0.84	0.28	0.062952	0.01952	0.9943	-0.054	-0.2655	0.0855	0	348	921	1
2026-02-11	15:57:53.830	1.33	-0.525	0.245	0.065392	0.018788	1.003084	-0.0525	-0.264	0.0825	0	348	921	1
2026-02-11	15:57:53.850	1.33	-0.28	0.28	0.055144	0.023668	1.02968	-0.0465	-0.2745	0.0915	0	348	921	1
2026-02-11	15:57:53.870	1.19	-0.63	0.245	0.047824	0.021472	1.013332	-0.048	-0.276	0.093	0	348	921	1
2026-02-11	15:57:53.890	1.26	-0.7	0.245	0.054412	0.022692	1.003816	-0.06	-0.2685	0.0885	0	348	921	1
2026-02-11	15:57:53.910	1.26	-0.56	0.21	0.064172	0.022448	1.013088	-0.0555	-0.2625	0.09	0	348	921	1
2026-02-11	15:57:53.930	1.225	-0.56	0.28	0.058072	0.019764	1.003084	-0.057	-0.2745	0.0885	0	348	921	1
2026-02-11	15:57:53.950	1.295	-0.385	0.245	0.052216	0.021716	1.01626	-0.057	-0.2745	0.0885	0	348	921	1
2026-02-11	15:57:53.970	1.295	-0.525	0.28	0.049532	0.018544	1.024312	-0.0525	-0.2745	0.087	0	348	921	1
2026-02-11	15:57:53.990	1.225	-0.7	0.28	0.05368	0.017568	1.014308	-0.048	-0.2745	0.087	0	348	921	1
2026-02-11	15:57:54.010	1.26	-0.595	0.28	0.058804	0.017568	1.00284	-0.048	-0.2745	0.087	0	310	952	1
2026-02-11	15:57:54.030	1.26	-0.42	0.28	0.060024	0.024644	1.018212	-0.051	-0.27	0.0885	0	310	952	1
2026-02-11	15:57:54.050	1.19	-0.49	0.245	0.056364	0.020252	1.012356	-0.0555	-0.267	0.09	0	310	952	1
2026-02-11	15:57:54.070	1.225	-0.56	0.21	0.060268	0.022448	1.008208	-0.0555	-0.2655	0.093	0	310	952	1
2026-02-11	15:57:54.090	1.26	-0.525	0.245	0.055144	0.02318	1.0126	-0.0555	-0.2655	0.0915	0	310	952	1
2026-02-11	15:57:54.110	1.225	-0.525	0.245	0.051972	0.021228	1.014308	-0.0555	-0.267	0.087	0	310	952	1
2026-02-11	15:57:54.130	1.225	-0.595	0.245	0.055876	0.019276	1.010892	-0.0525	-0.2625	0.09	0	310	952	1
2026-02-11	15:57:54.150	1.225	-0.595	0.245	0.05978	0.020008	1.009672	-0.051	-0.264	0.0885	0	310	952	1
2026-02-11	15:57:54.170	1.225	-0.56	0.245	0.059536	0.022448	1.011868	-0.0555	-0.264	0.0855	0	310	952	1
2026-02-11	15:57:54.190	1.26	-0.49	0.28	0.051728	0.020496	1.015528	-0.057	-0.2655	0.0855	0	310	952	1
2026-02-11	15:57:54.210	1.225	-0.595	0.245	0.057584	0.02074	1.004792	-0.051	-0.2715	0.087	0	270	973	1
2026-02-11	15:57:54.230	1.26	-0.595	0.28	0.061244	0.02196	1.009916	-0.0555	-0.2685	0.087	0	270	973	1
2026-02-11	15:57:54.250	1.19	-0.525	0.245	0.05612	0.021228	1.010404	-0.0525	-0.2655	0.087	0	270	973	1
2026-02-11	15:57:54.270	1.225	-0.56	0.245	0.050264	0.025132	1.009428	-0.0525	-0.2655	0.0885	0	270	973	1
2026-02-11	15:57:54.290	1.225	-0.56	0.28	0.055144	0.01952	1.01504	-0.0555	-0.2685	0.0885	0	270	973	1
2026-02-11	15:57:54.310	1.225	-0.665	0.28	0.059536	0.020252	1.009672	-0.0555	-0.2715	0.09	0	270	973	1
2026-02-11	15:57:54.330	1.295	-0.525	0.28	0.057096	0.02318	1.009672	-0.057	-0.27	0.09	0	270	973	1
2026-02-11	15:57:54.350	1.26	-0.49	0.245	0.053436	0.019764	1.016504	-0.0525	-0.2685	0.09	0	270	973	1
2026-02-11	15:57:54.370	1.26	-0.525	0.245	0.052704	0.022448	1.016748	-0.0495	-0.27	0.09	0	270	973	1
2026-02-11	15:57:54.390	1.225	-0.595	0.245	0.058804	0.020008	1.0126	-0.0495	-0.2715	0.09	0	270	973	1
2026-02-11	15:57:54.410	1.295	-0.595	0.245	0.060024	0.02562	1.010648	-0.0495	-0.2715	0.0885	0	231	990	1
2026-02-11	15:57:54.430	1.26	-0.49	0.28	0.056608	0.025132	1.01016	-0.0525	-0.2715	0.09	0	231	990	1
2026-02-11	15:57:54.450	1.26	-0.455	0.245	0.052704	0.018056	1.01626	-0.054	-0.2685	0.09	0	231	990	1
2026-02-11	15:57:54.470	1.295	-0.525	0.245	0.054168	0.022204	1.012356	-0.0495	-0.264	0.084	0	231	990	1
2026-02-11	15:57:54.490	1.225	-0.56	0.245	0.05368	0.023424	1.012112	-0.0525	-0.2655	0.087	0	231	990	1
2026-02-11	15:57:54.510	1.225	-0.595	0.28	0.055144	0.02074	1.011136	-0.0525	-0.2655	0.093	0	231	990	1
2026-02-11	15:57:54.530	1.26	-0.595	0.245	0.056364	0.02318	1.010892	-0.051	-0.2685	0.0915	0	231	990	1
2026-02-11	15:57:54.550	1.295	-0.525	0.28	0.05612	0.02074	1.0187	-0.051	-0.27	0.0915	0	231	990	1
2026-02-11	15:57:54.570	1.225	-0.56	0.28	0.055144	0.021716	1.009184	-0.054	-0.2685	0.0945	0	231	990	1
2026-02-11	15:57:54.590	1.225	-0.525	0.245	0.053436	0.016592	1.012112	-0.0555	-0.2715	0.0945	0	231	990	1
2026-02-11	15:57:54.610	1.26	-0.595	0.28	0.055144	0.01952	1.012844	-0.051	-0.267	0.09	0	195	1002	1
2026-02-11	15:57:54.630	1.26	-0.595	0.245	0.060512	0.021228	1.011868	-0.0525	-0.267	0.0855	0	195	1002	1
2026-02-11	15:57:54.650	1.26	-0.595	0.28	0.056852	0.022448	1.009428	-0.0555	-0.27	0.09	0	195	1002	1
2026-02-11	15:57:54.670	1.225	-0.525	0.245	0.053192	0.021716	1.013332	-0.054	-0.2655	0.0975	0	195	1002	1
2026-02-11	15:57:54.690	1.26	-0.56	0.245	0.053436	0.02074	1.016016	-0.0525	-0.267	0.093	0	195	1002	1
2026-02-11	15:57:54.710	1.225	-0.63	0.245	0.056608	0.022204	1.01016	-0.051	-0.267	0.09	0	195	1002	1
2026-02-11	15:57:54.730	1.26	-0.525	0.28	0.055388	0.02074	1.010892	-0.051	-0.2655	0.0915	0	195	1002	1
2026-02-11	15:57:54.750	1.26	-0.525	0.245	0.055632	0.024156	1.012844	-0.0555	-0.2685	0.087	0	195	1002	1
2026-02-11	15:57:54.770	1.26	-0.56	0.28	0.054168	0.019764	1.01382	-0.057	-0.2715	0.0825	0	195	1002	1
2026-02-11	15:57:54.790	1.225	-0.63	0.245	0.059536	0.022936	1.011868	-0.057	-0.2715	0.087	0	195	1002	1
2026-02-11	15:57:54.810	1.225	-0.595	0.245	0.057096	0.020496	1.008208	-0.0555	-0.27	0.087	0	163	1011	1
2026-02-11	15:57:54.830	1.26	-0.525	0.28	0.0549	0.022448	1.012112	-0.0525	-0.27	0.0855	0	163	1011	1
2026-02-11	15:57:54.850	1.26	-0.525	0.245	0.054656	0.021228	1.012356	-0.0525	-0.27	0.0855	0	163	1011	1
2026-02-11	15:57:54.870	1.26	-0.56	0.245	0.058316	0.021472	1.01138	-0.0525	-0.27	0.0855	0	163	1011	1
2026-02-11	15:57:54.890	1.26	-0.595	0.28	0.057096	0.018788	1.01138	-0.0525	-0.27	0.0855	0	163	1011	1
2026-02-11	15:57:54.910	1.295	-0.525	0.28	0.055632	0.022936	1.013576	-0.0495	-0.2715	0.087	0	163	1011	1
2026-02-11	15:57:54.930	1.26	-0.56	0.245	0.057828	0.02196	1.010892	-0.0525	-0.267	0.0855	0	163	1011	1
2026-02-11	15:57:54.950	1.26	-0.56	0.245	0.059536	0.022204	1.011624	-0.048	-0.267	0.09	0	163	1011	1
2026-02-11	15:57:54.970	1.225	-0.56	0.245	0.057828	0.020496	1.009184	-0.0555	-0.27	0.084	0	163	1011	1
2026-02-11	15:57:54.990	1.26	-0.49	0.28	0.054656	0.022204	1.009184	-0.06	-0.2685	0.0915	0	163	1011	1
2026-02-11	15:57:55.010	1.26	-0.525	0.245	0.051972	0.022692	1.01626	-0.06	-0.2685	0.0915	0	137	1017	1
2026-02-11	15:57:55.030	1.225	-0.595	0.28	0.05612	0.02074	1.011624	-0.0555	-0.2685	0.0885	0	137	1017	1
2026-02-11	15:57:55.050	1.26	-0.595	0.28	0.055388	0.020984	1.009428	-0.051	-0.2685	0.0855	0	137	1017	1
2026-02-11	15:57:55.070	1.26	-0.525	0.245	0.056852	0.023912	1.01138	-0.0525	-0.267	0.0825	0	137	1017	1
2026-02-11	15:57:55.090	1.295	-0.525	0.28	0.057096	0.02196	1.011136	-0.0555	-0.2685	0.0855	0	137	1017	1
2026-02-11	15:57:55.110	1.225	-0.525	0.245	0.054412	0.02074	1.00894	-0.06	-0.264	0.09	0	137	1017	1
2026-02-11	15:57:55.130	1.26	-0.56	0.245	0.053192	0.022936	1.011136	-0.057	-0.2625	0.0885	0	137	1017	1
2026-02-11	15:57:55.150	1.26	-0.525	0.245	0.057584	0.02074	1.01382	-0.0555	-0.2655	0.0915	0	137	1017	1
2026-02-11	15:57:55.170	1.26	-0.56	0.245	0.056608	0.021472	1.012844	-0.057	-0.267	0.09	0	137	1017	1
2026-02-11	15:57:55.190	1.26	-0.56	0.245	0.057828	0.022204	1.01138	-0.051	-0.267	0.0885	0	137	1017	1
2026-02-11	15:57:55.210	1.295	-0.595	0.28	0.057096	0.022448	1.009916	-0.0525	-0.2685	0.0915	0	115	1022	1
2026-02-11	15:57:55.230	1.26	-0.595	0.245	0.056852	0.021472	1.010892	-0.0555	-0.264	0.0915	0	115	1022	1
2026-02-11	15:57:55.250	1.225	-0.525	0.28	0.05612	0.020984	1.015772	-0.057	-0.2625	0.096	0	115	1022	1
2026-02-11	15:57:55.270	1.225	-0.525	0.28	0.057828	0.022448	1.013576	-0.0525	-0.267	0.096	0	115	1022	1
2026-02-11	15:57:55.290	1.26	-0.595	0.245	0.057584	0.021472	1.012844	-0.048	-0.2655	0.0975	0	115	1022	1
2026-02-11	15:57:55.310	1.26	-0.56	0.28	0.056364	0.02196	1.009916	-0.0525	-0.267	0.0945	0	115	1022	1
2026-02-11	15:57:55.330	1.295	-0.56	0.245	0.057096	0.02074	1.012356	-0.0555	-0.27	0.0915	0	115	1022	1
2026-02-11	15:57:55.350	1.26	-0.56	0.245	0.057584	0.022692	1.01138	-0.057	-0.27	0.0915	0	115	1022	1
2026-02-11	15:57:55.370	1.225	-0.595	0.245	0.055632	0.02074	1.008452	-0.0525	-0.264	0.093	0	115	1022	1
2026-02-11	15:57:55.390	1.26	-0.525	0.28	0.054656	0.027084	1.011624	-0.0525	-0.2625	0.0915	0	115	1022	1
2026-02-11	15:57:55.410	1.26	-0.525	0.245	0.0549	0.0244	1.016016	-0.0555	-0.2655	0.0855	0	97	1025	1
2026-02-11	15:57:55.430	1.225	-0.595	0.245	0.055388	0.022692	1.01382	-0.054	-0.267	0.087	0	97	1025	1
2026-02-11	15:57:55.450	1.26	-0.63	0.28	0.062464	0.026596	1.007232	-0.054	-0.2685	0.093	0	97	1025	1
2026-02-11	15:57:55.470	1.26	-0.49	0.245	0.05734	0.020252	1.01382	-0.0525	-0.267	0.0975	0	97	1025	1
2026-02-11	15:57:55.490	1.295	-0.525	0.28	0.055144	0.019764	1.013332	-0.051	-0.2685	0.096	0	97	1025	1
2026-02-11	15:57:55.510	1.295	-0.595	0.28	0.055144	0.022448	1.012112	-0.0525	-0.2685	0.09	0	97	1025	1
2026-02-11	15:57:55.530	1.225	-0.595	0.28	0.056364	0.01952	1.010648	-0.0555	-0.2685	0.09	0	97	1025	1
2026-02-11	15:57:55.550	1.26	-0.56	0.28	0.058804	0.023668	1.009428	-0.0555	-0.2715	0.0915	0	97	1025	1
2026-02-11	15:57:55.570	1.26	-0.49	0.245	0.056608	0.018788	1.01382	-0.054	-0.2745	0.093	0	97	1025	1
2026-02-11	15:57:55.590	1.26	-0.56	0.245	0.055632	0.022204	1.014064	-0.051	-0.2745	0.093	0	97	1025	1
2026-02-11	15:57:55.610	1.26	-0.595	0.245	0.05856	0.022448	1.008208	-0.048	-0.27	0.0915	0	82	1028	1
2026-02-11	15:57:55.630	1.26	-0.56	0.28	0.0549	0.020252	1.010648	-0.0495	-0.267	0.093	0	82	1028	1
2026-02-11	15:57:55.650	1.26	-0.525	0.245	0.055144	0.0183	1.011624	-0.0495	-0.2655	0.09	0	82	1028	1
2026-02-11	15:57:55.670	1.295	-0.525	0.21	0.057828	0.0183	1.01504	-0.0555	-0.27	0.0915	0	82	1028	1
2026-02-11	15:57:55.690	1.26	-0.56	0.28	0.057096	0.020496	1.012844	-0.0585	-0.2715	0.087	0	82	1028	1
2026-02-11	15:57:55.710	1.26	-0.56	0.245	0.057584	0.025132	1.011624	-0.054	-0.2685	0.087	0	82	1028	1
2026-02-11	15:57:55.730	1.26	-0.525	0.245	0.053924	0.022692	1.014064	-0.0495	-0.2685	0.09	0	82	1028	1
2026-02-11	15:57:55.750	1.225	-0.525	0.245	0.055632	0.022692	1.01138	-0.0495	-0.267	0.0885	0	82	1028	1
2026-02-11	15:57:55.770	1.26	-0.56	0.315	0.055876	0.021472	1.011624	-0.0525	-0.2655	0.0915	0	82	1028	1
2026-02-11	15:57:55.790	1.26	-0.56	0.28	0.056364	0.022448	1.013332	-0.054	-0.264	0.0945	0	82	1028	1
2026-02-11	15:57:55.810	1.225	-0.56	0.28	0.054656	0.021228	1.0126	-0.0555	-0.267	0.0915	0	70	1029	1
2026-02-11	15:57:55.830	1.225	-0.56	0.28	0.055632	0.025132	1.013088	-0.0555	-0.267	0.0915	0	70	1029	1
2026-02-11	15:57:55.850	1.225	-0.525	0.28	0.059292	0.021228	1.011868	-0.0525	-0.2685	0.0915	0	70	1029	1
2026-02-11	15:57:55.870	1.26	-0.525	0.28	0.055144	0.018788	1.014552	-0.051	-0.27	0.0885	0	70	1029	1
2026-02-11	15:57:55.890	1.26	-0.525	0.245	0.05856	0.020252	1.012844	-0.054	-0.264	0.0885	0	70	1029	1
2026-02-11	15:57:55.910	1.26	-0.63	0.28	0.05612	0.019764	1.010648	-0.054	-0.2655	0.0915	0	70	1029	1
2026-02-11	15:57:55.930	1.225	-0.525	0.245	0.057828	0.021716	1.009428	-0.051	-0.2685	0.093	0	70	1029	1
2026-02-11	15:57:55.950	1.26	-0.525	0.28	0.059048	0.018788	1.012844	-0.048	-0.264	0.0885	0	70	1029	1
2026-02-11	15:57:55.970	1.26	-0.56	0.28	0.055388	0.019032	1.01504	-0.0525	-0.2595	0.087	0	70	1029	1
2026-02-11	15:57:55.990	1.26	-0.595	0.245	0.055876	0.01708	1.010404	-0.0555	-0.2625	0.0915	0	70	1029	1
2026-02-11	15:57:56.010	1.26	-0.525	0.245	0.057584	0.022448	1.012844	-0.051	-0.267	0.096	0	60	1031	1
2026-02-11	15:57:56.030	1.26	-0.525	0.245	0.058316	0.022448	1.014064	-0.0495	-0.267	0.093	0	60	1031	1
2026-02-11	15:57:56.050	1.225	-0.595	0.245	0.054412	0.023668	1.011624	-0.051	-0.2685	0.09	0	60	1031	1
2026-02-11	15:57:56.070	1.225	-0.525	0.245	0.055632	0.023912	1.014552	-0.0525	-0.27	0.09	0	60	1031	1
2026-02-11	15:57:56.090	1.26	-0.56	0.245	0.057584	0.020496	1.013088	-0.0525	-0.27	0.09	0	60	1031	1
2026-02-11	15:57:56.110	1.26	-0.595	0.28	0.058316	0.022936	1.012112	-0.0525	-0.27	0.09	0	60	1031	1
2026-02-11	15:57:56.130	1.295	-0.525	0.28	0.059292	0.021228	1.009184	-0.0525	-0.27	0.09	0	60	1031	1
2026-02-11	15:57:56.150	1.26	-0.525	0.245	0.055388	0.021472	1.01504	-0.0525	-0.27	0.09	0	60	1031	1
2026-02-11	15:57:56.170	1.26	-0.56	0.245	0.051972	0.018788	1.012356	-0.0495	-0.2715	0.0885	0	60	1031	1
2026-02-11	15:57:56.190	1.26	-0.595	0.245	0.057096	0.021228	1.012844	-0.051	-0.267	0.09	0	60	1031	1
2026-02-11	15:57:56.210	1.26	-0.56	0.245	0.056364	0.021716	1.012112	-0.0585	-0.267	0.09	0	51	1032	1
2026-02-11	15:57:56.230	1.26	-0.56	0.245	0.053924	0.022204	1.013088	-0.0585	-0.2715	0.093	0	51	1032	1
2026-02-11	15:57:56.250	1.26	-0.595	0.28	0.053924	0.022448	1.011136	-0.057	-0.2685	0.093	0	51	1032	1
2026-02-11	15:57:56.270	1.295	-0.56	0.245	0.058072	0.023668	1.011624	-0.0525	-0.2685	0.09	0	51	1032	1
2026-02-11	15:57:56.290	1.26	-0.595	0.28	0.055144	0.021716	1.013576	-0.054	-0.2685	0.0915	0	51	1032	1
2026-02-11	15:57:56.310	1.26	-0.595	0.245	0.059536	0.022204	1.010892	-0.0585	-0.2715	0.0915	0	51	1032	1
2026-02-11	15:57:56.330	1.295	-0.595	0.245	0.05368	0.022448	1.01382	-0.0555	-0.2715	0.09	0	51	1032	1
2026-02-11	15:57:56.350	1.26	-0.56	0.245	0.059292	0.024888	1.014064	-0.0555	-0.27	0.0885	0	51	1032	1
2026-02-11	15:57:56.370	1.225	-0.595	0.245	0.056608	0.022204	1.010892	-0.057	-0.2715	0.0885	0	51	1032	1
2026-02-11	15:57:56.390	1.26	-0.56	0.245	0.056852	0.02074	1.012844	-0.057	-0.27	0.0885	0	51	1032	1
2026-02-11	15:57:56.410	1.225	-0.56	0.28	0.05734	0.020496	1.013332	-0.0525	-0.267	0.09	0	44	1033	1
2026-02-11	15:57:56.430	1.295	-0.595	0.245	0.053436	0.024156	1.013576	-0.054	-0.2655	0.0975	0	44	1033	1
2026-02-11	15:57:56.450	1.225	-0.525	0.315	0.058072	0.025132	1.010892	-0.0555	-0.264	0.099	0	44	1033	1
2026-02-11	15:57:56.470	1.26	-0.595	0.28	0.057096	0.02196	1.010404	-0.051	-0.2655	0.096	0	44	1033	1
2026-02-11	15:57:56.490	1.295	-0.525	0.245	0.054412	0.021716	1.011624	-0.051	-0.273	0.096	0	44	1033	1
2026-02-11	15:57:56.510	1.295	-0.49	0.28	0.0549	0.02196	1.013088	-0.0525	-0.2715	0.093	0	44	1033	1
2026-02-11	15:57:56.530	1.295	-0.595	0.28	0.05246	0.022204	1.014552	-0.0585	-0.273	0.0915	0	44	1033	1
2026-02-11	15:57:56.550	1.26	-0.56	0.28	0.058804	0.021472	1.010892	-0.057	-0.2745	0.0945	0	44	1033	1
2026-02-11	15:57:56.570	1.26	-0.56	0.28	0.055388	0.018788	1.011136	-0.051	-0.273	0.093	0	44	1033	1
2026-02-11	15:57:56.590	1.295	-0.56	0.28	0.054168	0.02196	1.010404	-0.0525	-0.27	0.093	0	44	1033	1
2026-02-11	15:57:56.610	1.26	-0.56	0.28	0.05612	0.02196	1.012356	-0.054	-0.267	0.0915	0	38	1034	1
2026-02-11	15:57:56.630	1.295	-0.56	0.28	0.05368	0.02318	1.0126	-0.051	-0.267	0.0855	0	38	1034	1
2026-02-11	15:57:56.650	1.26	-0.525	0.28	0.0549	0.02074	1.012356	-0.0495	-0.2655	0.084	0	38	1034	1
2026-02-11	15:57:56.670	1.26	-0.525	0.245	0.059292	0.021472	1.012112	-0.0555	-0.2625	0.0945	0	38	1034	1
2026-02-11	15:57:56.690	1.225	-0.56	0.245	0.056852	0.020984	1.01138	-0.057	-0.267	0.096	0	38	1034	1
2026-02-11	15:57:56.710	1.295	-0.525	0.28	0.055876	0.020496	1.011624	-0.054	-0.267	0.09	0	38	1034	1
2026-02-11	15:57:56.730	1.26	-0.525	0.245	0.05612	0.024644	1.014064	-0.0525	-0.267	0.087	0	38	1034	1
2026-02-11	15:57:56.750	1.295	-0.56	0.245	0.053436	0.021228	1.010648	-0.051	-0.27	0.09	0	38	1034	1
2026-02-11	15:57:56.770	1.26	-0.595	0.245	0.056852	0.021472	1.008696	-0.0495	-0.273	0.09	0	38	1034	1
2026-02-11	15:57:56.790	1.295	-0.56	0.28	0.056364	0.019276	1.012844	-0.0495	-0.27	0.09	0	38	1034	1
2026-02-11	15:57:56.810	1.225	-0.595	0.245	0.057096	0.02318	1.010892	-0.0465	-0.2655	0.09	0	33	1034	1
2026-02-11	15:57:56.830	1.26	-0.56	0.28	0.055876	0.025376	1.010892	-0.0495	-0.267	0.0885	0	33	1034	1
2026-02-11	15:57:56.850	1.295	-0.49	0.28	0.055144	0.020984	1.016016	-0.0525	-0.2685	0.09	0	33	1034	1
2026-02-11	15:57:56.870	1.26	-0.56	0.245	0.054412	0.022448	1.014308	-0.0525	-0.2685	0.0945	0	33	1034	1
2026-02-11	15:57:56.890	1.26	-0.56	0.28	0.05246	0.020252	1.012844	-0.0525	-0.2655	0.0915	0	33	1034	1
2026-02-11	15:57:56.910	1.26	-0.56	0.28	0.054168	0.018544	1.01382	-0.0525	-0.2655	0.0885	0	33	1034	1
2026-02-11	15:57:56.930	1.26	-0.63	0.28	0.05978	0.023424	1.010648	-0.054	-0.27	0.09	0	33	1034	1
2026-02-11	15:57:56.950	1.225	-0.56	0.245	0.055632	0.0244	1.01138	-0.0585	-0.2655	0.09	0	33	1034	1
2026-02-11	15:57:56.970	1.26	-0.525	0.245	0.054168	0.018788	1.0126	-0.057	-0.264	0.09	0	33	1034	1
2026-02-11	15:57:56.990	1.26	-0.525	0.21	0.051728	0.020008	1.014796	-0.051	-0.267	0.0885	0	33	1034	1
2026-02-11	15:57:57.010	1.295	-0.595	0.28	0.056852	0.020984	1.010892	-0.0495	-0.2655	0.0885	0	29	1034	1
2026-02-11	15:57:57.030	1.26	-0.595	0.21	0.058072	0.017812	1.009672	-0.057	-0.267	0.09	0	29	1034	1
2026-02-11	15:57:57.050	1.26	-0.56	0.245	0.058804	0.02196	1.012356	-0.06	-0.267	0.0915	0	29	1034	1
2026-02-11	15:57:57.070	1.26	-0.56	0.245	0.056852	0.022204	1.013088	-0.0585	-0.261	0.0915	0	29	1034	1
2026-02-11	15:57:57.090	1.26	-0.56	0.28	0.055876	0.023668	1.01138	-0.0555	-0.2625	0.09	0	29	1034	1
2026-02-11	15:57:57.110	1.26	-0.525	0.315	0.058072	0.023668	1.0126	-0.0495	-0.2685	0.0885	0	29	1034	1
2026-02-11	15:57:57.130	1.26	-0.525	0.245	0.055876	0.022204	1.014308	-0.0495	-0.27	0.09	0	29	1034	1
2026-02-11	15:57:57.150	1.225	-0.56	0.245	0.055876	0.021716	1.011868	-0.0495	-0.27	0.09	0	29	1034	1
2026-02-11	15:57:57.170	1.225	-0.595	0.28	0.055388	0.020252	1.012356	-0.0585	-0.2655	0.093	0	29	1034	1
2026-02-11	15:57:57.190	1.225	-0.56	0.245	0.0549	0.022204	1.012844	-0.0585	-0.2655	0.093	0	29	1034	1
2026-02-11	15:57:57.210	1.26	-0.56	0.245	0.055388	0.022448	1.012844	-0.057	-0.267	0.0945	0	25	1034	1
2026-02-11	15:57:57.230	1.26	-0.56	0.28	0.057096	0.018544	1.012112	-0.051	-0.2745	0.09	0	25	1034	1
2026-02-11	15:57:57.250	1.26	-0.525	0.245	0.055876	0.026596	1.01382	-0.054	-0.2745	0.0915	0	25	1034	1
2026-02-11	15:57:57.270	1.26	-0.56	0.245	0.05368	0.021716	1.013332	-0.06	-0.2655	0.1035	0	25	1034	1
2026-02-11	15:57:57.290	1.225	-0.595	0.28	0.057584	0.017324	1.013332	-0.0585	-0.2625	0.0885	0	25	1034	1
2026-02-11	15:57:57.310	1.225	-0.56	0.28	0.057828	0.022204	1.011868	-0.0555	-0.264	0.0945	0	25	1034	1
2026-02-11	15:57:57.330	1.225	-0.56	0.245	0.059536	0.020984	1.011624	-0.051	-0.273	0.0915	0	25	1034	1
2026-02-11	15:57:57.350	1.225	-0.56	0.28	0.0549	0.020496	1.010648	-0.054	-0.267	0.0915	0	25	1034	1
2026-02-11	15:57:57.370	1.26	-0.56	0.245	0.0549	0.020984	1.011624	-0.054	-0.267	0.0915	0	25	1034	1
2026-02-11	15:57:57.390	1.26	-0.525	0.28	0.053436	0.018788	1.016016	-0.054	-0.267	0.0915	0	25	1034	1
2026-02-11	15:57:57.410	1.26	-0.56	0.28	0.055632	0.020984	1.014308	-0.054	-0.27	0.09	0	22	1035	1
2026-02-11	15:57:57.430	1.26	-0.56	0.28	0.054412	0.02074	1.01138	-0.0525	-0.27	0.0885	0	22	1035	1
2026-02-11	15:57:57.450	1.26	-0.56	0.245	0.05612	0.02196	1.013332	-0.048	-0.267	0.093	0	22	1035	1
2026-02-11	15:57:57.470	1.26	-0.595	0.245	0.060512	0.025132	1.01382	-0.0495	-0.2655	0.09	0	22	1035	1
2026-02-11	15:57:57.490	1.26	-0.525	0.28	0.058072	0.019276	1.013332	-0.054	-0.2685	0.087	0	22	1035	1
2026-02-11	15:57:57.510	1.295	-0.56	0.28	0.05612	0.021716	1.009184	-0.0585	-0.2685	0.0915	0	22	1035	1
2026-02-11	15:57:57.530	1.26	-0.525	0.28	0.05368	0.022692	1.011624	-0.057	-0.261	0.093	0	22	1035	1
2026-02-11	15:57:57.550	1.225	-0.56	0.245	0.054168	0.019032	1.013576	-0.051	-0.264	0.0885	0	22	1035	1
2026-02-11	15:57:57.570	1.26	-0.595	0.245	0.055388	0.022692	1.011136	-0.057	-0.2685	0.0885	0	22	1035	1
2026-02-11	15:57:57.590	1.225	-0.56	0.245	0.058072	0.019276	1.01138	-0.0555	-0.267	0.0885	0	22	1035	1
2026-02-11	15:57:57.610	1.225	-0.56	0.245	0.058072	0.02196	1.009428	-0.0525	-0.2655	0.087	0	19	1035	1
2026-02-11	15:57:57.630	1.225	-0.56	0.245	0.055388	0.02196	1.012356	-0.054	-0.2655	0.087	0	19	1035	1
2026-02-11	15:57:57.650	1.26	-0.525	0.28	0.058804	0.021716	1.009916	-0.051	-0.2685	0.09	0	19	1035	1
2026-02-11	15:57:57.670	1.26	-0.525	0.245	0.055632	0.022204	1.012844	-0.0495	-0.267	0.0915	0	19	1035	1
2026-02-11	15:57:57.690	1.225	-0.56	0.245	0.0549	0.022204	1.009672	-0.0495	-0.267	0.0915	0	19	1035	1
2026-02-11	15:57:57.710	1.26	-0.595	0.245	0.057096	0.019764	1.012844	-0.051	-0.2685	0.093	0	19	1035	1
2026-02-11	15:57:57.730	1.26	-0.595	0.245	0.055388	0.01952	1.010404	-0.06	-0.2715	0.09	0	19	1035	1
2026-02-11	15:57:57.750	1.26	-0.56	0.245	0.056608	0.02318	1.009672	-0.0585	-0.2715	0.0855	0	19	1035	1
2026-02-11	15:57:57.770	1.26	-0.49	0.28	0.058072	0.021716	1.013088	-0.0495	-0.264	0.0855	0	19	1035	1
2026-02-11	15:57:57.790	1.225	-0.525	0.245	0.055876	0.02196	1.01382	-0.051	-0.264	0.09	0	19	1035	1
2026-02-11	15:57:57.810	1.19	-0.56	0.21	0.05612	0.022936	1.013088	-0.0555	-0.27	0.096	0	16	1035	1
2026-02-11	15:57:57.830	1.225	-0.595	0.245	0.057096	0.020984	1.012112	-0.054	-0.264	0.0915	0	16	1035	1
2026-02-11	15:57:57.850	1.295	-0.56	0.28	0.057828	0.018544	1.010892	-0.0525	-0.261	0.0885	0	16	1035	1
2026-02-11	15:57:57.870	1.26	-0.595	0.245	0.057584	0.01952	1.008696	-0.0525	-0.2655	0.0915	0	16	1035	1
2026-02-11	15:57:57.890	1.26	-0.56	0.28	0.054656	0.020496	1.012112	-0.0525	-0.267	0.0915	0	16	1035	1
2026-02-11	15:57:57.910	1.295	-0.56	0.28	0.053924	0.02196	1.013088	-0.0525	-0.27	0.0885	0	16	1035	1
2026-02-11	15:57:57.930	1.26	-0.56	0.21	0.0549	0.021228	1.013332	-0.0495	-0.2715	0.093	0	16	1035	1
2026-02-11	15:57:57.950	1.26	-0.56	0.245	0.05734	0.021472	1.01138	-0.048	-0.267	0.0945	0	16	1035	1
2026-02-11	15:57:57.970	1.295	-0.595	0.28	0.058072	0.02196	1.01016	-0.051	-0.2655	0.09	0	16	1035	1
2026-02-11	15:57:57.990	1.295	-0.595	0.315	0.05612	0.0244	1.014308	-0.0555	-0.264	0.0885	0	16	1035	1
2026-02-11	15:57:58.010	1.225	-0.56	0.245	0.056364	0.021472	1.007232	-0.054	-0.264	0.0915	0	14	1035	1
2026-02-11	15:57:58.030	1.26	-0.525	0.28	0.05734	0.018056	1.013088	-0.051	-0.267	0.093	0	14	1035	1
2026-02-11	15:57:58.050	1.295	-0.525	0.315	0.052704	0.023668	1.013576	-0.0495	-0.2685	0.0885	0	14	1035	1
2026-02-11	15:57:58.070	1.26	-0.525	0.28	0.055388	0.0183	1.014796	-0.051	-0.267	0.0855	0	14	1035	1
2026-02-11	15:57:58.090	1.26	-0.63	0.28	0.055632	0.022692	1.00894	-0.051	-0.2715	0.0885	0	14	1035	1
2026-02-11	15:57:58.110	1.26	-0.595	0.245	0.057828	0.018056	1.008696	-0.0495	-0.267	0.087	0	14	1035	1
2026-02-11	15:57:58.130	1.26	-0.56	0.28	0.056852	0.022448	1.011624	-0.051	-0.264	0.0855	0	14	1035	1
2026-02-11	15:57:58.150	1.26	-0.49	0.28	0.056364	0.0183	1.012356	-0.051	-0.27	0.087	0	14	1035	1
2026-02-11	15:57:58.170	1.26	-0.525	0.315	0.055876	0.021472	1.018944	-0.0525	-0.2685	0.0885	0	14	1035	1
2026-02-11	15:57:58.190	1.26	-0.63	0.28	0.057584	0.022204	1.01382	-0.051	-0.267	0.09	0	14	1035	1
2026-02-11	15:57:58.210	1.225	-0.595	0.245	0.058804	0.019032	1.007964	-0.048	-0.273	0.0885	0	13	1035	1
2026-02-11	15:57:58.230	1.26	-0.525	0.28	0.057584	0.022448	1.013576	-0.048	-0.273	0.0885	0	13	1035	1
2026-02-11	15:57:58.250	1.295	-0.525	0.28	0.051972	0.020496	1.01504	-0.0615	-0.264	0.093	0	13	1035	1
2026-02-11	15:57:58.270	1.26	-0.56	0.28	0.056852	0.021228	1.01382	-0.0615	-0.264	0.093	0	13	1035	1
2026-02-11	15:57:58.290	1.225	-0.595	0.315	0.05612	0.023424	1.012844	-0.039	-0.264	0.096	0	13	1035	1
2026-02-11	15:57:58.310	1.26	-0.56	0.245	0.054656	0.022692	1.010404	-0.051	-0.2655	0.0915	0	13	1035	1
2026-02-11	15:57:58.330	1.33	-0.56	0.28	0.058804	0.022448	1.013332	-0.06	-0.273	0.096	0	13	1035	1
2026-02-11	15:57:58.350	1.26	-0.595	0.245	0.056852	0.019764	1.014308	-0.051	-0.267	0.09	0	13	1035	1
2026-02-11	15:57:58.370	1.295	-0.56	0.245	0.054656	0.022448	1.015284	-0.0615	-0.27	0.093	0	13	1035	1
2026-02-11	15:57:58.390	1.26	-0.595	0.245	0.054168	0.023668	1.008696	-0.0525	-0.2625	0.0885	0	13	1035	1
2026-02-11	15:57:58.410	1.295	-0.56	0.28	0.053924	0.01708	1.007964	-0.0555	-0.2655	0.093	0	11	1035	1
2026-02-11	15:57:58.430	1.295	-0.525	0.28	0.057096	0.01952	1.0126	-0.048	-0.2655	0.0855	0	11	1035	1
2026-02-11	15:57:58.450	1.26	-0.525	0.28	0.05612	0.022204	1.016016	-0.06	-0.273	0.0855	0	11	1035	1
2026-02-11	15:57:58.470	1.225	-0.595	0.28	0.052216	0.022204	1.0126	-0.054	-0.27	0.0945	0	11	1035	1
2026-02-11	15:57:58.490	1.26	-0.595	0.245	0.060268	0.022936	1.011868	-0.0525	-0.2685	0.0885	0	11	1035	1
2026-02-11	15:57:58.510	1.26	-0.56	0.28	0.058316	0.0244	1.007964	-0.0525	-0.2655	0.0915	0	11	1035	1
2026-02-11	15:57:58.530	1.26	-0.525	0.245	0.055388	0.023912	1.012112	-0.0525	-0.261	0.0885	0	11	1035	1
2026-02-11	15:57:58.550	1.26	-0.525	0.28	0.052948	0.022936	1.01382	-0.054	-0.2625	0.093	0	11	1035	1
2026-02-11	15:57:58.570	1.26	-0.595	0.245	0.054656	0.021472	1.015284	-0.054	-0.2625	0.093	0	11	1035	1
2026-02-11	15:57:58.590	1.295	-0.595	0.28	0.057584	0.019276	1.012844	-0.054	-0.2625	0.093	0	11	1035	1
2026-02-11	15:57:58.610	1.26	-0.595	0.28	0.057096	0.022204	1.013088	-0.0525	-0.267	0.0915	0	10	1035	1
2026-02-11	15:57:58.630	1.295	-0.595	0.28	0.055388	0.02196	1.011624	-0.051	-0.27	0.0885	0	10	1035	1
2026-02-11	15:57:58.650	1.26	-0.56	0.245	0.057828	0.021716	1.01504	-0.0525	-0.27	0.093	0	10	1035	1
2026-02-11	15:57:58.670	1.225	-0.665	0.28	0.060512	0.023668	1.011136	-0.054	-0.2655	0.0945	0	10	1035	1
2026-02-11	15:57:58.690	1.295	-0.595	0.28	0.059048	0.020496	1.009916	-0.054	-0.2625	0.0945	0	10	1035	1
2026-02-11	15:57:58.710	1.26	-0.56	0.245	0.049532	0.020252	1.01138	-0.0525	-0.267	0.0915	0	10	1035	1
2026-02-11	15:57:58.730	1.26	-0.525	0.245	0.056364	0.022448	1.012356	-0.0525	-0.2685	0.087	0	10	1035	1
2026-02-11	15:57:58.750	1.225	-0.525	0.245	0.05734	0.02074	1.01504	-0.054	-0.2685	0.09	0	10	1035	1
2026-02-11	15:57:58.770	1.26	-0.595	0.245	0.058804	0.019764	1.01382	-0.051	-0.2655	0.0915	0	10	1035	1
2026-02-11	15:57:58.790	1.26	-0.665	0.28	0.057828	0.021716	1.006988	-0.054	-0.27	0.0915	0	10	1035	1
2026-02-11	15:57:58.810	1.225	-0.49	0.28	0.059536	0.022448	1.011624	-0.0585	-0.2715	0.09	0	9	1035	1
2026-02-11	15:57:58.830	1.26	-0.525	0.245	0.055144	0.024156	1.012844	-0.0525	-0.2685	0.087	0	9	1035	1
2026-02-11	15:57:58.850	1.295	-0.49	0.245	0.05612	0.022936	1.018944	-0.048	-0.2685	0.0885	0	9	1035	1
2026-02-11	15:57:58.870	1.225	-0.63	0.28	0.055632	0.021472	1.009916	-0.0525	-0.2685	0.09	0	9	1035	1
2026-02-11	15:57:58.890	1.225	-0.595	0.28	0.061732	0.02196	1.008452	-0.0585	-0.264	0.09	0	9	1035	1
2026-02-11	15:57:58.910	1.295	-0.56	0.28	0.060512	0.020008	1.009184	-0.0555	-0.264	0.0885	0	9	1035	1
2026-02-11	15:57:58.930	1.295	-0.455	0.28	0.056852	0.020008	1.017236	-0.0525	-0.267	0.087	0	9	1035	1
2026-02-11	15:57:58.950	1.26	-0.56	0.245	0.054412	0.021716	1.01382	-0.0525	-0.267	0.0885	0	9	1035	1
2026-02-11	15:57:58.970	1.225	-0.595	0.245	0.054168	0.022936	1.011136	-0.057	-0.267	0.09	0	9	1035	1
2026-02-11	15:57:58.990	1.26	-0.595	0.245	0.060512	0.022204	1.00894	-0.063	-0.27	0.09	0	9	1035	1
2026-02-11	15:57:59.010	1.33	-0.525	0.245	0.058072	0.023912	1.01382	-0.0585	-0.267	0.0885	0	8	1035	1
2026-02-11	15:57:59.030	1.295	-0.525	0.245	0.054168	0.024156	1.015284	-0.0525	-0.2625	0.093	0	8	1035	1
2026-02-11	15:57:59.050	1.26	-0.595	0.245	0.055388	0.025376	1.010404	-0.0525	-0.264	0.0915	0	8	1035	1
2026-02-11	15:57:59.070	1.26	-0.63	0.28	0.061244	0.021716	1.010892	-0.051	-0.267	0.0855	0	8	1035	1
2026-02-11	15:57:59.090	1.26	-0.525	0.21	0.056852	0.0183	1.009184	-0.0525	-0.267	0.087	0	8	1035	1
2026-02-11	15:57:59.110	1.26	-0.49	0.245	0.0549	0.023424	1.014308	-0.0525	-0.267	0.093	0	8	1035	1
2026-02-11	15:57:59.130	1.295	-0.56	0.28	0.049532	0.0183	1.01382	-0.0525	-0.2685	0.0915	0	8	1035	1
2026-02-11	15:57:59.150	1.26	-0.665	0.28	0.056852	0.027816	1.009672	-0.0525	-0.2685	0.0915	0	8	1035	1
2026-02-11	15:57:59.170	1.225	-0.63	0.245	0.057584	0.020496	1.013088	-0.0495	-0.267	0.0915	0	8	1035	1
2026-02-11	15:57:59.190	1.26	-0.49	0.245	0.058804	0.023912	1.011624	-0.0525	-0.2655	0.0915	0	8	1035	1
2026-02-11	15:57:59.210	1.26	-0.525	0.245	0.057584	0.021228	1.014796	-0.0555	-0.2715	0.09	0	7	1035	1
2026-02-11	15:57:59.230	1.225	-0.56	0.28	0.055388	0.018788	1.010404	-0.0525	-0.273	0.09	0	7	1035	1
2026-02-11	15:57:59.250	1.26	-0.595	0.245	0.061488	0.021472	1.013088	-0.051	-0.2685	0.0915	0	7	1035	1
2026-02-11	15:57:59.270	1.295	-0.56	0.28	0.056852	0.022204	1.009672	-0.051	-0.27	0.0885	0	7	1035	1
2026-02-11	15:57:59.290	1.26	-0.56	0.28	0.057584	0.019032	1.012356	-0.0525	-0.27	0.093	0	7	1035	1
2026-02-11	15:57:59.310	1.26	-0.595	0.28	0.054168	0.022204	1.014308	-0.0525	-0.273	0.096	0	7	1035	1
2026-02-11	15:57:59.330	1.225	-0.595	0.28	0.0549	0.022692	1.003816	-0.0525	-0.273	0.096	0	7	1035	1
2026-02-11	15:57:59.350	1.33	-0.385	0.245	0.05734	0.020984	1.029192	-0.0495	-0.2685	0.102	0	7	1035	1
2026-02-11	15:57:59.370	1.19	-0.665	0.28	0.055876	0.021472	1.004792	-0.054	-0.2715	0.0885	0	7	1035	1
2026-02-11	15:57:59.390	1.295	-0.525	0.28	0.054412	0.02318	1.015528	-0.048	-0.2685	0.0855	0	7	1035	1
2026-02-11	15:57:59.410	1.225	-0.63	0.28	0.053924	0.022448	1.010648	-0.0555	-0.2655	0.0915	0	7	1035	1
2026-02-11	15:57:59.430	1.26	-0.525	0.245	0.054412	0.02196	1.0187	-0.054	-0.267	0.093	0	7	1035	1
2026-02-11	15:57:59.450	1.26	-0.665	0.28	0.057096	0.024644	1.006744	-0.063	-0.264	0.0885	0	7	1035	1
2026-02-11	15:57:59.470	1.295	-0.595	0.28	0.060268	0.023668	1.020408	-0.051	-0.264	0.0885	0	7	1035	1
2026-02-11	15:57:59.490	1.225	-0.595	0.28	0.064904	0.014396	1.01992	-0.0585	-0.2655	0.09	0	7	1035	1
2026-02-11	15:57:59.510	1.26	-0.455	0.245	0.058316	0.016592	1.009916	-0.057	-0.273	0.0855	0	7	1035	1
2026-02-11	15:57:59.530	1.295	-0.63	0.245	0.054412	0.02684	1.018456	-0.054	-0.27	0.084	0	7	1035	1
2026-02-11	15:57:59.550	1.26	-0.63	0.28	0.057096	0.021228	1.009428	-0.054	-0.2775	0.087	0	7	1035	1
2026-02-11	15:57:59.570	1.26	-0.56	0.245	0.05612	0.021716	1.01138	-0.051	-0.2745	0.093	0	7	1035	1
2026-02-11	15:57:59.590	1.19	-0.525	0.245	0.055388	0.021716	1.009672	-0.048	-0.2685	0.0885	0	7	1035	1
2026-02-11	15:57:59.610	1.26	-0.56	0.245	0.05368	0.02196	1.013332	-0.054	-0.276	0.093	0	6	1035	1
2026-02-11	15:57:59.630	1.295	-0.49	0.245	0.054412	0.018056	1.018212	-0.054	-0.2685	0.093	0	6	1035	1
2026-02-11	15:57:59.650	1.225	-0.63	0.28	0.058804	0.023424	1.00772	-0.0555	-0.2715	0.09	0	6	1035	1
2026-02-11	15:57:59.670	1.26	-0.525	0.245	0.059292	0.021228	1.012844	-0.0555	-0.2655	0.0885	0	6	1035	1
2026-02-11	15:57:59.690	1.26	-0.525	0.245	0.05734	0.025864	1.01382	-0.057	-0.27	0.093	0	6	1035	1
2026-02-11	15:57:59.710	1.225	-0.525	0.245	0.056608	0.023912	1.0126	-0.0555	-0.267	0.0975	0	6	1035	1
2026-02-11	15:57:59.730	1.26	-0.525	0.245	0.055632	0.020252	1.014308	-0.051	-0.279	0.087	0	6	1035	1
2026-02-11	15:57:59.750	1.225	-0.595	0.245	0.056364	0.01952	1.008696	-0.051	-0.2685	0.0885	0	6	1035	1
2026-02-11	15:57:59.770	1.225	-0.56	0.28	0.056852	0.020984	1.011868	-0.0525	-0.267	0.087	0	6	1035	1
2026-02-11	15:57:59.790	1.295	-0.56	0.28	0.054168	0.020984	1.012356	-0.057	-0.276	0.0915	0	6	1035	1
2026-02-11	15:57:59.810	1.26	-0.595	0.28	0.058804	0.021228	1.009184	-0.057	-0.276	0.0915	0	6	1035	1
2026-02-11	15:57:59.830	1.295	-0.525	0.245	0.054168	0.02318	1.014308	-0.057	-0.276	0.0915	0	6	1035	1
2026-02-11	15:57:59.850	1.225	-0.56	0.21	0.054656	0.022448	1.013576	-0.0585	-0.276	0.09	0	6	1035	1
2026-02-11	15:57:59.870	1.26	-0.56	0.28	0.05612	0.0244	1.010404	-0.0585	-0.2715	0.0885	0	6	1035	1
2026-02-11	15:57:59.890	1.295	-0.525	0.28	0.059048	0.021472	1.013088	-0.057	-0.2685	0.09	0	6	1035	1
2026-02-11	15:57:59.910	1.26	-0.525	0.28	0.053924	0.019764	1.015284	-0.0555	-0.27	0.0945	0	6	1035	1
2026-02-11	15:57:59.930	1.19	-0.595	0.28	0.054656	0.021228	1.009428	-0.054	-0.2715	0.0945	0	6	1035	1
2026-02-11	15:57:59.950	1.26	-0.56	0.245	0.05734	0.024644	1.01138	-0.054	-0.2685	0.093	0	6	1035	1
2026-02-11	15:57:59.970	1.295	-0.56	0.28	0.058316	0.021472	1.010648	-0.054	-0.2655	0.087	0	6	1035	1
2026-02-11	15:57:59.990	1.26	-0.525	0.28	0.056852	0.020252	1.014796	-0.057	-0.2625	0.084	0	6	1035	1
2026-02-11	15:58:00.010	1.225	-0.525	0.245	0.054412	0.023912	1.014552	-0.057	-0.267	0.09	0	6	1035	1
2026-02-11	15:58:00.030	1.26	-0.595	0.28	0.057828	0.022448	1.013576	-0.054	-0.264	0.0915	0	6	1035	1
2026-02-11	15:58:00.050	1.26	-0.595	0.28	0.061488	0.020984	1.008452	-0.057	-0.264	0.0915	0	6	1035	1
2026-02-11	15:58:00.070	1.19	-0.525	0.28	0.054656	0.019764	1.011868	-0.0555	-0.27	0.093	0	6	1035	1
2026-02-11	15:58:00.090	1.26	-0.49	0.28	0.058804	0.020252	1.011868	-0.0525	-0.27	0.09	0	6	1035	1
2026-02-11	15:58:00.110	1.295	-0.525	0.28	0.055632	0.020496	1.015528	-0.057	-0.27	0.0915	0	6	1035	1
2026-02-11	15:58:00.130	1.26	-0.63	0.28	0.055876	0.024644	1.010892	-0.06	-0.2685	0.093	0	6	1035	1
2026-02-11	15:58:00.150	1.26	-0.56	0.245	0.059536	0.018544	1.010892	-0.06	-0.2685	0.0885	0	6	1035	1
2026-02-11	15:58:00.170	1.26	-0.49	0.28	0.054656	0.020008	1.015528	-0.057	-0.2685	0.09	0	6	1035	1
2026-02-11	15:58:00.190	1.225	-0.595	0.28	0.0549	0.02318	1.013576	-0.0555	-0.2685	0.0915	0	6	1035	1
2026-02-11	15:58:00.210	1.26	-0.56	0.28	0.055388	0.02074	1.007964	-0.054	-0.2715	0.0915	0	5	1035	1
2026-02-11	15:58:00.230	1.26	-0.56	0.315	0.05734	0.02318	1.011868	-0.0555	-0.2685	0.09	0	5	1035	1
2026-02-11	15:58:00.250	1.295	-0.56	0.28	0.055144	0.02196	1.014796	-0.0555	-0.267	0.0885	0	5	1035	1
2026-02-11	15:58:00.270	1.225	-0.56	0.28	0.056608	0.022692	1.010892	-0.054	-0.27	0.087	0	5	1035	1
2026-02-11	15:58:00.290	1.225	-0.56	0.245	0.055632	0.021472	1.011136	-0.0555	-0.27	0.0885	0	5	1035	1
2026-02-11	15:58:00.310	1.295	-0.56	0.28	0.055144	0.020252	1.013088	-0.0555	-0.2655	0.09	0	5	1035	1
2026-02-11	15:58:00.330	1.26	-0.56	0.245	0.056852	0.020008	1.015284	-0.054	-0.267	0.0945	0	5	1035	1
2026-02-11	15:58:00.350	1.26	-0.63	0.245	0.054412	0.02074	1.011136	-0.051	-0.2715	0.099	0	5	1035	1
2026-02-11	15:58:00.370	1.295	-0.595	0.245	0.06222	0.02562	1.011624	-0.0585	-0.27	0.096	0	5	1035	1
2026-02-11	15:58:00.390	1.295	-0.56	0.315	0.057828	0.018544	1.011624	-0.0525	-0.27	0.0885	0	5	1035	1
2026-02-11	15:58:00.410	1.26	-0.525	0.245	0.054656	0.025132	1.009184	-0.0525	-0.27	0.0885	0	5	1035	1
2026-02-11	15:58:00.430	1.26	-0.56	0.28	0.059536	0.020008	1.013576	-0.054	-0.276	0.096	0	5	1035	1
2026-02-11	15:58:00.450	1.225	-0.56	0.28	0.057828	0.02074	1.010404	-0.0585	-0.267	0.096	0	5	1035	1
2026-02-11	15:58:00.470	1.295	-0.49	0.245	0.050996	0.02196	1.014552	-0.051	-0.273	0.102	0	5	1035	1
2026-02-11	15:58:00.490	1.26	-0.63	0.245	0.053192	0.020252	1.011136	-0.057	-0.2685	0.0885	0	5	1035	1
2026-02-11	15:58:00.510	1.225	-0.595	0.245	0.058072	0.020984	1.01504	-0.0465	-0.27	0.0855	0	5	1035	1
2026-02-11	15:58:00.530	1.26	-0.63	0.28	0.055876	0.021228	1.00528	-0.051	-0.2625	0.09	0	5	1035	1
2026-02-11	15:58:00.550	1.295	-0.49	0.28	0.053192	0.025132	1.009916	-0.06	-0.27	0.0915	0	5	1035	1
2026-02-11	15:58:00.570	1.225	-0.49	0.28	0.05368	0.020496	1.016504	-0.051	-0.2685	0.084	0	5	1035	1
2026-02-11	15:58:00.590	1.295	-0.63	0.245	0.060024	0.022936	1.012112	-0.051	-0.2685	0.087	0	5	1035	1
2026-02-11	15:58:00.610	1.26	-0.525	0.245	0.05612	0.022936	1.011136	-0.051	-0.2685	0.087	0	5	1035	1
2026-02-11	15:58:00.630	1.26	-0.595	0.245	0.056852	0.021716	1.008696	-0.051	-0.2685	0.087	0	5	1035	1
2026-02-11	15:58:00.650	1.295	-0.595	0.245	0.055388	0.020252	1.0065	-0.0465	-0.267	0.09	0	5	1035	1
2026-02-11	15:58:00.670	1.295	-0.455	0.245	0.0549	0.020496	1.017724	-0.051	-0.2655	0.096	0	5	1035	1
2026-02-11	15:58:00.690	1.26	-0.525	0.28	0.05734	0.020496	1.014308	-0.0555	-0.2715	0.0915	0	5	1035	1
2026-02-11	15:58:00.710	1.19	-0.595	0.245	0.05246	0.024156	1.008452	-0.0465	-0.2685	0.0825	0	5	1035	1
2026-02-11	15:58:00.730	1.295	-0.595	0.28	0.056364	0.02074	1.009672	-0.048	-0.2745	0.0855	0	5	1035	1
2026-02-11	15:58:00.750	1.33	-0.56	0.28	0.059048	0.01952	1.014308	-0.054	-0.273	0.09	0	5	1035	1
2026-02-11	15:58:00.770	1.26	-0.525	0.28	0.058316	0.022448	1.013576	-0.0585	-0.27	0.099	0	5	1035	1
2026-02-11	15:58:00.790	1.225	-0.56	0.28	0.052704	0.023668	1.01016	-0.054	-0.276	0.099	0	5	1035	1
2026-02-11	15:58:00.810	1.26	-0.56	0.245	0.056852	0.02318	1.01138	-0.051	-0.2715	0.087	0	5	1035	1
2026-02-11	15:58:00.830	1.295	-0.56	0.28	0.057584	0.019032	1.012356	-0.0525	-0.273	0.0945	0	5	1035	1
2026-02-11	15:58:00.850	1.26	-0.56	0.28	0.055876	0.027084	1.012112	-0.048	-0.276	0.096	0	5	1035	1
2026-02-11	15:58:00.870	1.225	-0.56	0.245	0.057096	0.022936	1.014552	-0.054	-0.2625	0.093	0	5	1035	1
2026-02-11	15:58:00.890	1.26	-0.595	0.245	0.056852	0.020984	1.013332	-0.0495	-0.2745	0.0915	0	5	1035	1
2026-02-11	15:58:00.910	1.26	-0.56	0.28	0.061	0.021716	1.006744	-0.057	-0.273	0.084	0	5	1035	1
2026-02-11	15:58:00.930	1.26	-0.525	0.28	0.05368	0.019764	1.012356	-0.06	-0.2715	0.1005	0	5	1035	1
2026-02-11	15:58:00.950	1.295	-0.56	0.245	0.053436	0.02562	1.015528	-0.051	-0.267	0.093	0	5	1035	1
2026-02-11	15:58:00.970	1.225	-0.56	0.28	0.059292	0.019764	1.013332	-0.06	-0.264	0.0855	0	5	1035	1
2026-02-11	15:58:00.990	1.26	-0.56	0.28	0.05612	0.020252	1.010892	-0.054	-0.267	0.1005	0	5	1035	1
2026-02-11	15:58:01.010	1.295	-0.56	0.28	0.05368	0.019276	1.014796	-0.054	-0.267	0.1005	0	5	1035	1
2026-02-11	15:58:01.030	1.26	-0.525	0.28	0.054656	0.024888	1.014552	-0.051	-0.267	0.096	0	5	1035	1
2026-02-11	15:58:01.050	1.26	-0.56	0.245	0.054656	0.02318	1.01016	-0.051	-0.267	0.0915	0	5	1035	1
2026-02-11	15:58:01.070	1.225	-0.595	0.21	0.057828	0.022204	1.011624	-0.057	-0.267	0.0885	0	5	1035	1
2026-02-11	15:58:01.090	1.295	-0.595	0.245	0.059292	0.021472	1.01382	-0.0555	-0.27	0.0855	0	5	1035	1
2026-02-11	15:58:01.110	1.26	-0.56	0.245	0.05734	0.020984	1.01382	-0.0525	-0.273	0.087	0	5	1035	1
2026-02-11	15:58:01.130	1.26	-0.56	0.28	0.05734	0.022936	1.011868	-0.0525	-0.2715	0.0915	0	5	1035	1
2026-02-11	15:58:01.150	1.295	-0.56	0.245	0.054412	0.020984	1.015528	-0.054	-0.2655	0.096	0	5	1035	1
2026-02-11	15:58:01.170	1.225	-0.595	0.28	0.05856	0.021472	1.011624	-0.054	-0.267	0.0945	0	5	1035	1
2026-02-11	15:58:01.190	1.225	-0.525	0.245	0.056852	0.022936	1.011868	-0.0495	-0.2715	0.087	0	5	1035	1
2026-02-11	15:58:01.210	1.295	-0.525	0.245	0.052948	0.023668	1.012844	-0.0495	-0.267	0.0915	0	4	1035	1
2026-02-11	15:58:01.230	1.26	-0.595	0.28	0.054656	0.023668	1.010892	-0.0495	-0.267	0.093	0	4	1035	1
2026-02-11	15:58:01.250	1.26	-0.525	0.245	0.059292	0.019276	1.015528	-0.051	-0.27	0.087	0	4	1035	1
2026-02-11	15:58:01.270	1.295	-0.56	0.245	0.056852	0.024156	1.013576	-0.0525	-0.27	0.0885	0	4	1035	1
2026-02-11	15:58:01.290	1.225	-0.56	0.245	0.056852	0.0183	1.0126	-0.0525	-0.27	0.09	0	4	1035	1
2026-02-11	15:58:01.310	1.26	-0.525	0.245	0.056364	0.022448	1.0126	-0.0525	-0.2655	0.0885	0	4	1035	1
2026-02-11	15:58:01.330	1.26	-0.525	0.28	0.055632	0.020496	1.011136	-0.0495	-0.2655	0.0945	0	4	1035	1
2026-02-11	15:58:01.350	1.26	-0.525	0.28	0.056608	0.020984	1.014064	-0.0495	-0.267	0.0975	0	4	1035	1
2026-02-11	15:58:01.370	1.26	-0.56	0.28	0.060024	0.020984	1.011868	-0.0525	-0.2685	0.0915	0	4	1035	1
2026-02-11	15:58:01.390	1.225	-0.595	0.28	0.052216	0.020252	1.010648	-0.0525	-0.2685	0.096	0	4	1035	1
2026-02-11	15:58:01.410	1.26	-0.56	0.245	0.061244	0.020008	1.011136	-0.051	-0.267	0.102	0	4	1035	1
2026-02-11	15:58:01.430	1.26	-0.56	0.28	0.0549	0.020008	1.01138	-0.051	-0.267	0.102	0	4	1035	1
2026-02-11	15:58:01.450	1.295	-0.56	0.315	0.05246	0.01708	1.010404	-0.0585	-0.2625	0.0945	0	4	1035	1
2026-02-11	15:58:01.470	1.26	-0.56	0.245	0.055876	0.019276	1.014064	-0.0585	-0.2625	0.0945	0	4	1035	1
2026-02-11	15:58:01.490	1.26	-0.56	0.245	0.057584	0.023912	1.014064	-0.0495	-0.27	0.0915	0	4	1035	1
2026-02-11	15:58:01.510	1.26	-0.56	0.245	0.05856	0.024156	1.0126	-0.054	-0.264	0.0915	0	4	1035	1
2026-02-11	15:58:01.530	1.295	-0.56	0.245	0.057584	0.022692	1.01138	-0.051	-0.279	0.0945	0	4	1035	1
2026-02-11	15:58:01.550	1.225	-0.56	0.28	0.055144	0.0244	1.010404	-0.0525	-0.267	0.0945	0	4	1035	1
2026-02-11	15:58:01.570	1.26	-0.525	0.245	0.059292	0.019276	1.009916	-0.063	-0.2685	0.0915	0	4	1035	1
2026-02-11	15:58:01.590	1.26	-0.56	0.28	0.056852	0.020496	1.011136	-0.0585	-0.27	0.0885	0	4	1035	1
2026-02-11	15:58:01.610	1.26	-0.525	0.245	0.059292	0.019764	1.014796	-0.0435	-0.264	0.093	0	4	1035	1
2026-02-11	15:58:01.630	1.26	-0.56	0.245	0.059536	0.018056	1.014552	-0.054	-0.264	0.087	0	4	1035	1
2026-02-11	15:58:01.650	1.295	-0.595	0.28	0.054412	0.02196	1.009916	-0.057	-0.2655	0.0915	0	4	1035	1
2026-02-11	15:58:01.670	1.26	-0.56	0.245	0.056608	0.020496	1.014552	-0.0555	-0.2595	0.1005	0	4	1035	1
2026-02-11	15:58:01.690	1.26	-0.56	0.28	0.057096	0.023912	1.01382	-0.054	-0.2715	0.0945	0	4	1035	1
2026-02-11	15:58:01.710	1.26	-0.595	0.245	0.057584	0.02318	1.008696	-0.0525	-0.2655	0.093	0	4	1035	1
2026-02-11	15:58:01.730	1.295	-0.56	0.245	0.05612	0.019032	1.014308	-0.051	-0.267	0.093	0	4	1035	1
2026-02-11	15:58:01.750	1.295	-0.56	0.245	0.05612	0.02196	1.01138	-0.06	-0.273	0.093	0	4	1035	1
2026-02-11	15:58:01.770	1.26	-0.56	0.245	0.055632	0.024156	1.011624	-0.0465	-0.264	0.099	0	4	1035	1
2026-02-11	15:58:01.790	1.295	-0.525	0.28	0.055144	0.022936	1.012356	-0.057	-0.2595	0.09	0	4	1035	1
2026-02-11	15:58:01.810	1.26	-0.525	0.28	0.056608	0.02074	1.01504	-0.057	-0.27	0.087	0	4	1035	1
2026-02-11	15:58:01.830	1.26	-0.595	0.28	0.056364	0.02318	1.00894	-0.0495	-0.267	0.084	0	4	1035	1
2026-02-11	15:58:01.850	1.26	-0.525	0.245	0.054168	0.022204	1.010892	-0.051	-0.267	0.0945	0	4	1035	1
2026-02-11	15:58:01.870	1.295	-0.525	0.245	0.05368	0.023912	1.01382	-0.0585	-0.27	0.0855	0	4	1035	1
2026-02-11	15:58:01.890	1.295	-0.56	0.245	0.054168	0.025376	1.014064	-0.054	-0.273	0.087	0	4	1035	1
2026-02-11	15:58:01.910	1.225	-0.595	0.245	0.05856	0.018788	1.01138	-0.054	-0.273	0.09	0	4	1035	1
2026-02-11	15:58:01.930	1.26	-0.525	0.245	0.058316	0.02074	1.01382	-0.0555	-0.258	0.093	0	4	1035	1
2026-02-11	15:58:01.950	1.26	-0.56	0.245	0.055632	0.022692	1.011868	-0.0555	-0.267	0.087	0	4	1035	1
2026-02-11	15:58:01.970	1.225	-0.56	0.245	0.057096	0.021228	1.014552	-0.06	-0.2715	0.0825	0	4	1035	1
2026-02-11	15:58:01.990	1.295	-0.56	0.245	0.055876	0.024156	1.011624	-0.0585	-0.273	0.0885	0	4	1035	1
2026-02-11	15:58:02.010	1.26	-0.56	0.28	0.056852	0.020984	1.013332	-0.0555	-0.2625	0.0915	0	3	1035	1
2026-02-11	15:58:02.030	1.26	-0.56	0.245	0.054412	0.0244	1.010648	-0.048	-0.2685	0.087	0	3	1035	1
2026-02-11	15:58:02.050	1.26	-0.595	0.28	0.055632	0.022204	1.011136	-0.054	-0.273	0.099	0	3	1035	1
2026-02-11	15:58:02.070	1.225	-0.56	0.245	0.05612	0.022692	1.009916	-0.0465	-0.267	0.096	0	3	1035	1
2026-02-11	15:58:02.090	1.26	-0.595	0.245	0.057096	0.021472	1.012844	-0.0525	-0.267	0.0885	0	3	1035	1
2026-02-11	15:58:02.110	1.26	-0.56	0.28	0.056852	0.020984	1.00772	-0.0495	-0.27	0.09	0	3	1035	1
2026-02-11	15:58:02.130	1.26	-0.56	0.245	0.054168	0.024156	1.014308	-0.0555	-0.27	0.0915	0	3	1035	1
2026-02-11	15:58:02.150	1.295	-0.595	0.28	0.055388	0.020496	1.01138	-0.0555	-0.2655	0.0945	0	3	1035	1
2026-02-11	15:58:02.170	1.225	-0.595	0.245	0.058316	0.021472	1.01504	-0.066	-0.258	0.099	0	3	1035	1
2026-02-11	15:58:02.190	1.225	-0.56	0.245	0.057828	0.022692	1.009428	-0.057	-0.27	0.0855	0	3	1035	1
2026-02-11	15:58:02.210	1.26	-0.56	0.28	0.059292	0.02196	1.013088	-0.0555	-0.27	0.096	0	3	1035	1
2026-02-11	15:58:02.230	1.26	-0.525	0.28	0.056852	0.023424	1.008696	-0.051	-0.264	0.0885	0	3	1035	1
2026-02-11	15:58:02.250	1.26	-0.49	0.28	0.056364	0.02074	1.014064	-0.045	-0.2685	0.0945	0	3	1035	1
2026-02-11	15:58:02.270	1.26	-0.56	0.245	0.053192	0.021716	1.01138	-0.045	-0.2685	0.0945	0	3	1035	1
2026-02-11	15:58:02.290	1.295	-0.49	0.245	0.050264	0.020496	1.015528	-0.045	-0.2685	0.0945	0	3	1035	1
2026-02-11	15:58:02.310	1.295	-0.63	0.28	0.05612	0.022448	1.014552	-0.051	-0.2655	0.093	0	3	1035	1
2026-02-11	15:58:02.330	1.225	-0.63	0.245	0.066856	0.02318	1.013088	-0.054	-0.2685	0.09	0	3	1035	1
2026-02-11	15:58:02.350	1.225	-0.595	0.245	0.059048	0.024156	1.00772	-0.0525	-0.27	0.0915	0	3	1035	1
2026-02-11	15:58:02.370	1.225	-0.49	0.245	0.054168	0.024644	1.007476	-0.0525	-0.267	0.09	0	3	1035	1
2026-02-11	15:58:02.390	1.295	-0.42	0.245	0.052216	0.024156	1.021872	-0.0555	-0.27	0.0915	0	3	1035	1
2026-02-11	15:58:02.410	1.225	-0.63	0.28	0.05246	0.020252	1.014552	-0.057	-0.2685	0.096	0	3	1035	1
2026-02-11	15:58:02.430	1.26	-0.63	0.28	0.057828	0.024888	1.007964	-0.0495	-0.2685	0.0915	0	3	1035	1
2026-02-11	15:58:02.450	1.295	-0.595	0.28	0.05978	0.021716	1.00894	-0.048	-0.267	0.0885	0	3	1035	1
2026-02-11	15:58:02.470	1.26	-0.525	0.315	0.054412	0.0244	1.011868	-0.0525	-0.264	0.0915	0	3	1035	1
2026-02-11	15:58:02.490	1.26	-0.49	0.28	0.054412	0.023912	1.014308	-0.0525	-0.264	0.0915	0	3	1035	1
2026-02-11	15:58:02.510	1.26	-0.49	0.245	0.053436	0.020984	1.0187	-0.054	-0.2685	0.09	0	3	1035	1
2026-02-11	15:58:02.530	1.26	-0.56	0.245	0.054656	0.020984	1.017236	-0.054	-0.2685	0.09	0	3	1035	1
2026-02-11	15:58:02.550	1.19	-0.665	0.28	0.055632	0.020984	1.003816	-0.054	-0.2685	0.087	0	3	1035	1
2026-02-11	15:58:02.570	1.26	-0.56	0.28	0.060756	0.0244	1.009184	-0.051	-0.267	0.0855	0	3	1035	1
2026-02-11	15:58:02.590	1.295	-0.49	0.245	0.059536	0.021472	1.014552	-0.0585	-0.267	0.0975	0	3	1035	1
2026-02-11	15:58:02.610	1.26	-0.525	0.28	0.05368	0.0183	1.015528	-0.0585	-0.2715	0.0885	0	3	1035	1
2026-02-11	15:58:02.630	1.26	-0.595	0.28	0.055144	0.017568	1.009184	-0.0555	-0.267	0.0915	0	3	1035	1
2026-02-11	15:58:02.650	1.26	-0.56	0.245	0.059536	0.022936	1.009916	-0.045	-0.2685	0.087	0	3	1035	1
2026-02-11	15:58:02.670	1.295	-0.525	0.245	0.057096	0.02196	1.014308	-0.0495	-0.264	0.087	0	3	1035	1
2026-02-11	15:58:02.690	1.26	-0.56	0.315	0.055388	0.018544	1.014308	-0.0525	-0.27	0.09	0	3	1035	1
2026-02-11	15:58:02.710	1.26	-0.56	0.245	0.055876	0.020984	1.013088	-0.054	-0.2685	0.0945	0	3	1035	1
2026-02-11	15:58:02.730	1.26	-0.595	0.245	0.060512	0.021472	1.008208	-0.0585	-0.2655	0.09	0	3	1035	1
2026-02-11	15:58:02.750	1.26	-0.525	0.315	0.060756	0.019764	1.008208	-0.0495	-0.2745	0.09	0	3	1035	1
2026-02-11	15:58:02.770	1.26	-0.455	0.28	0.054412	0.01952	1.014064	-0.054	-0.2715	0.09	0	3	1035	1
2026-02-11	15:58:02.790	1.26	-0.525	0.28	0.055388	0.019276	1.016504	-0.054	-0.2745	0.096	0	3	1035	1
2026-02-11	15:58:02.810	1.26	-0.63	0.28	0.054656	0.022448	1.012112	-0.0525	-0.2655	0.0885	0	3	1035	1
2026-02-11	15:58:02.830	1.26	-0.595	0.28	0.061976	0.020252	1.0126	-0.0495	-0.2715	0.09	0	3	1035	1
2026-02-11	15:58:02.850	1.26	-0.595	0.21	0.060512	0.023912	1.0065	-0.06	-0.261	0.0855	0	3	1035	1
2026-02-11	15:58:02.870	1.295	-0.525	0.245	0.056608	0.026108	1.012844	-0.051	-0.27	0.093	0	3	1035	1
2026-02-11	15:58:02.890	1.26	-0.525	0.28	0.053924	0.018544	1.014552	-0.057	-0.2715	0.0825	0	3	1035	1
2026-02-11	15:58:02.910	1.225	-0.63	0.28	0.058316	0.025864	1.008208	-0.063	-0.267	0.09	0	3	1035	1
2026-02-11	15:58:02.930	1.295	-0.56	0.28	0.061732	0.024156	1.010404	-0.0555	-0.273	0.0885	0	3	1035	1
2026-02-11	15:58:02.950	1.19	-0.525	0.28	0.057096	0.01952	1.011868	-0.0555	-0.267	0.093	0	3	1035	1
2026-02-11	15:58:02.970	1.26	-0.56	0.245	0.05246	0.024888	1.00894	-0.057	-0.276	0.0945	0	3	1035	1
2026-02-11	15:58:02.990	1.295	-0.455	0.245	0.056608	0.020984	1.018212	-0.0615	-0.267	0.0915	0	3	1035	1
2026-02-11	15:58:03.010	1.225	-0.63	0.245	0.061732	0.024156	1.01138	-0.0615	-0.264	0.09	0	3	1035	1
2026-02-11	15:58:03.030	1.19	-0.56	0.28	0.057096	0.02074	1.009916	-0.0555	-0.2655	0.0885	0	3	1035	1
2026-02-11	15:58:03.050	1.26	-0.525	0.245	0.054656	0.022448	1.01504	-0.054	-0.2715	0.0915	0	3	1035	1
2026-02-11	15:58:03.070	1.26	-0.595	0.28	0.056608	0.02196	1.01138	-0.054	-0.2625	0.0945	0	3	1035	1
2026-02-11	15:58:03.090	1.26	-0.49	0.28	0.058072	0.022936	1.017724	-0.048	-0.273	0.0885	0	3	1035	1
2026-02-11	15:58:03.110	1.26	-0.595	0.245	0.055144	0.019764	1.016016	-0.054	-0.2685	0.0855	0	3	1035	1
2026-02-11	15:58:03.130	1.19	-0.63	0.28	0.057828	0.020008	1.007964	-0.0525	-0.2685	0.0885	0	3	1035	1
2026-02-11	15:58:03.150	1.26	-0.525	0.28	0.060512	0.02074	1.011868	-0.051	-0.2625	0.093	0	3	1035	1
2026-02-11	15:58:03.170	1.26	-0.525	0.245	0.05612	0.022204	1.01382	-0.06	-0.267	0.093	0	3	1035	1
2026-02-11	15:58:03.190	1.225	-0.525	0.28	0.055388	0.023424	1.013332	-0.06	-0.2685	0.09	0	3	1035	1
2026-02-11	15:58:03.210	1.26	-0.63	0.245	0.056608	0.022448	1.012844	-0.0555	-0.267	0.081	0	3	1035	1
2026-02-11	15:58:03.230	1.26	-0.63	0.28	0.058804	0.019032	1.00772	-0.051	-0.2715	0.09	0	3	1035	1
2026-02-11	15:58:03.250	1.26	-0.525	0.245	0.059536	0.021472	1.010648	-0.048	-0.27	0.09	0	3	1035	1
2026-02-11	15:58:03.270	1.295	-0.49	0.28	0.05246	0.01952	1.016016	-0.06	-0.2685	0.0975	0	3	1035	1
2026-02-11	15:58:03.290	1.26	-0.56	0.245	0.05368	0.020252	1.016748	-0.0555	-0.2775	0.1005	0	3	1035	1
2026-02-11	15:58:03.310	1.26	-0.595	0.28	0.055388	0.022936	1.013088	-0.057	-0.2685	0.0975	0	3	1035	1
2026-02-11	15:58:03.330	1.26	-0.63	0.28	0.058316	0.020984	1.008208	-0.0555	-0.267	0.093	0	3	1035	1
2026-02-11	15:58:03.350	1.295	-0.525	0.28	0.056852	0.020984	1.01138	-0.0525	-0.2655	0.0975	0	3	1035	1
2026-02-11	15:58:03.370	1.295	-0.525	0.28	0.053924	0.020496	1.015528	-0.054	-0.2625	0.0885	0	3	1035	1
2026-02-11	15:58:03.390	1.26	-0.595	0.245	0.057828	0.019764	1.011624	-0.0525	-0.27	0.093	0	3	1035	1
2026-02-11	15:58:03.410	1.26	-0.595	0.245	0.061244	0.0244	1.011868	-0.051	-0.2685	0.0855	0	3	1035	1
2026-02-11	15:58:03.430	1.295	-0.56	0.28	0.060268	0.01952	1.010648	-0.0555	-0.2745	0.0915	0	3	1035	1
2026-02-11	15:58:03.450	1.295	-0.56	0.28	0.055632	0.021228	1.010648	-0.054	-0.2655	0.09	0	3	1035	1
2026-02-11	15:58:03.470	1.26	-0.56	0.245	0.0549	0.023668	1.016504	-0.0555	-0.2595	0.087	0	3	1035	1
2026-02-11	15:58:03.490	1.26	-0.595	0.28	0.052948	0.023668	1.01138	-0.06	-0.267	0.0915	0	3	1035	1
2026-02-11	15:58:03.510	1.26	-0.56	0.28	0.059292	0.02318	1.0126	-0.06	-0.267	0.0915	0	3	1035	1
2026-02-11	15:58:03.530	1.26	-0.56	0.28	0.057584	0.024888	1.013088	-0.06	-0.267	0.0915	0	3	1035	1
2026-02-11	15:58:03.550	1.225	-0.525	0.245	0.055144	0.02074	1.01016	-0.048	-0.276	0.0915	0	3	1035	1
2026-02-11	15:58:03.570	1.26	-0.525	0.28	0.058804	0.024644	1.013576	-0.048	-0.276	0.0915	0	3	1035	1
2026-02-11	15:58:03.590	1.26	-0.56	0.28	0.054168	0.019764	1.01382	-0.0525	-0.273	0.0915	0	3	1035	1
2026-02-11	15:58:03.610	1.26	-0.595	0.28	0.052216	0.024156	1.007964	-0.0525	-0.273	0.0915	0	3	1035	1
2026-02-11	15:58:03.630	1.295	-0.595	0.28	0.055876	0.018544	1.01016	-0.0555	-0.2805	0.0915	0	3	1035	1
2026-02-11	15:58:03.650	1.26	-0.49	0.245	0.052948	0.02684	1.0126	-0.054	-0.267	0.096	0	3	1035	1
2026-02-11	15:58:03.670	1.225	-0.525	0.245	0.057584	0.023912	1.01382	-0.0555	-0.273	0.093	0	3	1035	1
2026-02-11	15:58:03.690	1.26	-0.595	0.245	0.05734	0.022936	1.012356	-0.0495	-0.264	0.0975	0	3	1035	1
2026-02-11	15:58:03.710	1.26	-0.595	0.28	0.0549	0.022936	1.008208	-0.051	-0.264	0.0915	0	3	1035	1
2026-02-11	15:58:03.730	1.26	-0.56	0.315	0.059292	0.022936	1.01138	-0.057	-0.2685	0.0945	0	3	1035	1
2026-02-11	15:58:03.750	1.26	-0.525	0.245	0.05612	0.021716	1.01382	-0.048	-0.27	0.093	0	3	1035	1
2026-02-11	15:58:03.770	1.295	-0.525	0.245	0.05246	0.021472	1.012844	-0.0525	-0.264	0.1005	0	3	1035	1
2026-02-11	15:58:03.790	1.26	-0.56	0.28	0.055632	0.022692	1.01382	-0.054	-0.2715	0.09	0	3	1035	1
2026-02-11	15:58:03.810	1.295	-0.595	0.28	0.059048	0.022204	1.011868	-0.057	-0.2625	0.09	0	3	1035	1
2026-02-11	15:58:03.830	1.26	-0.56	0.245	0.05856	0.020008	1.011136	-0.054	-0.27	0.0885	0	3	1035	1
2026-02-11	15:58:03.850	1.225	-0.49	0.245	0.057584	0.022204	1.014796	-0.054	-0.267	0.093	0	3	1035	1
2026-02-11	15:58:03.870	1.225	-0.595	0.245	0.055632	0.024156	1.008452	-0.0585	-0.2745	0.096	0	3	1035	1
2026-02-11	15:58:03.890	1.295	-0.525	0.28	0.0549	0.020496	1.016748	-0.045	-0.2715	0.096	0	3	1035	1
2026-02-11	15:58:03.910	1.26	-0.595	0.28	0.05612	0.022448	1.012844	-0.054	-0.2685	0.0945	0	3	1035	1
2026-02-11	15:58:03.930	1.225	-0.63	0.245	0.061488	0.024644	1.010404	-0.0585	-0.27	0.0915	0	3	1035	1
2026-02-11	15:58:03.950	1.26	-0.595	0.245	0.05856	0.02074	1.011868	-0.0495	-0.27	0.09	0	3	1035	1
2026-02-11	15:58:03.970	1.26	-0.56	0.315	0.05856	0.021472	1.017236	-0.0495	-0.2655	0.09	0	3	1035	1
2026-02-11	15:58:03.990	1.26	-0.63	0.28	0.05734	0.023912	1.012356	-0.0585	-0.2685	0.096	0	3	1035	1
2026-02-11	15:58:04.010	1.26	-0.56	0.28	0.056852	0.020496	1.010648	-0.054	-0.2685	0.0945	0	3	1035	1
2026-02-11	15:58:04.030	1.26	-0.56	0.28	0.059048	0.0244	1.011868	-0.0555	-0.2685	0.087	0	3	1035	1
2026-02-11	15:58:04.050	1.295	-0.56	0.245	0.055144	0.021716	1.012112	-0.0555	-0.276	0.0975	0	3	1035	1
2026-02-11	15:58:04.070	1.26	-0.56	0.28	0.059048	0.022448	1.010404	-0.057	-0.267	0.0945	0	3	1035	1
2026-02-11	15:58:04.090	1.295	-0.49	0.28	0.053924	0.019032	1.016504	-0.0525	-0.2715	0.096	0	3	1035	1
2026-02-11	15:58:04.110	1.225	-0.595	0.28	0.054656	0.02562	1.010892	-0.054	-0.2655	0.09	0	3	1035	1
2026-02-11	15:58:04.130	1.225	-0.595	0.245	0.060512	0.022204	1.009184	-0.051	-0.2655	0.093	0	3	1035	1
2026-02-11	15:58:04.150	1.26	-0.525	0.245	0.05612	0.02318	1.012356	-0.0525	-0.273	0.0885	0	3	1035	1
2026-02-11	15:58:04.170	1.26	-0.525	0.245	0.05978	0.020252	1.009916	-0.051	-0.2685	0.099	0	3	1035	1
2026-02-11	15:58:04.190	1.295	-0.56	0.245	0.053924	0.020008	1.011868	-0.06	-0.2715	0.093	0	3	1035	1
2026-02-11	15:58:04.210	1.225	-0.56	0.245	0.057828	0.024156	1.016504	-0.0585	-0.2655	0.09	0	3	1035	1
2026-02-11	15:58:04.230	1.26	-0.595	0.28	0.056852	0.02196	1.011868	-0.054	-0.2685	0.0945	0	3	1035	1
2026-02-11	15:58:04.250	1.26	-0.56	0.28	0.055388	0.02074	1.008208	-0.048	-0.27	0.09	0	3	1035	1
2026-02-11	15:58:04.270	1.26	-0.56	0.28	0.055876	0.023668	1.014796	-0.057	-0.2715	0.0945	0	3	1035	1
2026-02-11	15:58:04.290	1.26	-0.525	0.28	0.059536	0.022448	1.014308	-0.0465	-0.27	0.096	0	3	1035	1
2026-02-11	15:58:04.310	1.225	-0.56	0.245	0.056852	0.020496	1.01016	-0.0495	-0.2715	0.087	0	3	1035	1
2026-02-11	15:58:04.330	1.225	-0.56	0.245	0.055632	0.023424	1.010404	-0.051	-0.2625	0.087	0	3	1035	1
2026-02-11	15:58:04.350	1.295	-0.525	0.21	0.05612	0.021472	1.012844	-0.0555	-0.2715	0.093	0	3	1035	1
2026-02-11	15:58:04.370	1.26	-0.525	0.28	0.056608	0.02074	1.014552	-0.0615	-0.2655	0.099	0	3	1035	1
2026-02-11	15:58:04.390	1.295	-0.595	0.245	0.05612	0.02196	1.013332	-0.057	-0.264	0.0855	0	3	1035	1
2026-02-11	15:58:04.410	1.225	-0.595	0.28	0.05856	0.019032	1.01382	-0.0555	-0.267	0.0945	0	3	1035	1
2026-02-11	15:58:04.430	1.26	-0.56	0.28	0.054412	0.017568	1.00772	-0.0495	-0.27	0.09	0	3	1035	1
2026-02-11	15:58:04.450	1.225	-0.525	0.245	0.058316	0.022692	1.011868	-0.054	-0.2625	0.0915	0	3	1035	1
2026-02-11	15:58:04.470	1.26	-0.56	0.28	0.053924	0.021716	1.01382	-0.0555	-0.267	0.102	0	3	1035	1
2026-02-11	15:58:04.490	1.26	-0.56	0.28	0.052704	0.023424	1.016016	-0.054	-0.267	0.0915	0	3	1035	1
2026-02-11	15:58:04.510	1.26	-0.63	0.28	0.058316	0.02196	1.009916	-0.0495	-0.264	0.102	0	3	1035	1
2026-02-11	15:58:04.530	1.26	-0.595	0.28	0.057096	0.021472	1.007232	-0.0495	-0.2655	0.093	0	3	1035	1
2026-02-11	15:58:04.550	1.295	-0.56	0.28	0.057828	0.020252	1.014308	-0.057	-0.2625	0.096	0	3	1035	1
2026-02-11	15:58:04.570	1.26	-0.56	0.28	0.055144	0.019276	1.016016	-0.0555	-0.267	0.087	0	3	1035	1
2026-02-11	15:58:04.590	1.225	-0.56	0.245	0.055388	0.019276	1.01016	-0.0495	-0.261	0.0855	0	3	1035	1
2026-02-11	15:58:04.610	1.26	-0.56	0.245	0.057828	0.018788	1.012112	-0.063	-0.2685	0.093	0	3	1035	1
2026-02-11	15:58:04.630	1.26	-0.56	0.245	0.055388	0.0183	1.01016	-0.0555	-0.2685	0.093	0	3	1035	1
2026-02-11	15:58:04.650	1.26	-0.56	0.28	0.0549	0.02074	1.012112	-0.0555	-0.2685	0.0915	0	3	1035	1
2026-02-11	15:58:04.670	1.26	-0.56	0.28	0.054412	0.018544	1.012356	-0.0555	-0.2685	0.0915	0	3	1035	1
2026-02-11	15:58:04.690	1.26	-0.56	0.245	0.054168	0.019764	1.014796	-0.0555	-0.2715	0.093	0	3	1035	1
2026-02-11	15:58:04.710	1.26	-0.63	0.245	0.057096	0.024156	1.009916	-0.0525	-0.2715	0.093	0	3	1035	1
2026-02-11	15:58:04.730	1.26	-0.525	0.245	0.057096	0.023668	1.010404	-0.0495	-0.267	0.093	0	3	1035	1
2026-02-11	15:58:04.750	1.295	-0.525	0.245	0.056608	0.02196	1.016016	-0.0495	-0.264	0.0945	0	3	1035	1
2026-02-11	15:58:04.770	1.26	-0.595	0.245	0.056852	0.01952	1.011136	-0.0495	-0.264	0.0945	0	3	1035	1
2026-02-11	15:58:04.790	1.295	-0.56	0.245	0.052948	0.023668	1.012356	-0.0495	-0.264	0.0945	0	3	1035	1
2026-02-11	15:58:04.810	1.26	-0.595	0.28	0.058072	0.02196	1.007964	-0.0555	-0.2715	0.087	0	3	1035	1
2026-02-11	15:58:04.830	1.26	-0.525	0.245	0.055876	0.023668	1.017724	-0.0555	-0.276	0.084	0	3	1035	1
2026-02-11	15:58:04.850	1.295	-0.63	0.28	0.054656	0.022448	1.007964	-0.054	-0.273	0.0945	0	3	1035	1
2026-02-11	15:58:04.870	1.225	-0.49	0.245	0.055388	0.024156	1.014796	-0.0585	-0.2685	0.099	0	3	1035	1
2026-02-11	15:58:04.890	1.26	-0.56	0.245	0.052948	0.021228	1.012112	-0.0495	-0.27	0.09	0	3	1035	1
2026-02-11	15:58:04.910	1.19	-0.595	0.28	0.05734	0.018544	1.00772	-0.057	-0.264	0.0855	0	3	1035	1
2026-02-11	15:58:04.930	1.26	-0.525	0.245	0.061	0.022204	1.007964	-0.0555	-0.261	0.09	0	3	1035	1
2026-02-11	15:58:04.950	1.295	-0.525	0.28	0.055876	0.023424	1.020652	-0.0555	-0.261	0.096	0	3	1035	1
2026-02-11	15:58:04.970	1.19	-0.595	0.245	0.058316	0.022448	1.006012	-0.0525	-0.2655	0.0975	0	3	1035	1
2026-02-11	15:58:04.990	1.295	-0.56	0.245	0.0549	0.018788	1.013332	-0.0525	-0.2715	0.0915	0	3	1035	1
2026-02-11	15:58:05.010	1.26	-0.63	0.245	0.056364	0.021472	1.01138	-0.054	-0.2745	0.0915	0	3	1035	1
2026-02-11	15:58:05.030	1.26	-0.525	0.28	0.054168	0.022204	1.014308	-0.048	-0.2685	0.0885	0	3	1035	1
2026-02-11	15:58:05.050	1.295	-0.56	0.28	0.056364	0.024888	1.015528	-0.0525	-0.2715	0.0885	0	3	1035	1
2026-02-11	15:58:05.070	1.225	-0.595	0.28	0.055388	0.022448	1.009184	-0.048	-0.276	0.0915	0	3	1035	1
2026-02-11	15:58:05.090	1.26	-0.63	0.28	0.058072	0.021228	1.00894	-0.0495	-0.273	0.0915	0	3	1035	1
2026-02-11	15:58:05.110	1.26	-0.42	0.28	0.054168	0.020008	1.006988	-0.054	-0.267	0.0915	0	3	1035	1
2026-02-11	15:58:05.130	1.19	-0.525	0.315	0.05734	0.026108	1.022848	-0.0525	-0.267	0.0825	0	3	1035	1
2026-02-11	15:58:05.150	1.19	-0.595	0.245	0.05124	0.019032	1.004548	-0.0495	-0.2745	0.093	0	3	1035	1
2026-02-11	15:58:05.170	1.26	-0.56	0.21	0.057828	0.02318	1.012844	-0.06	-0.267	0.09	0	3	1035	1
2026-02-11	15:58:05.190	1.26	-0.525	0.28	0.057584	0.022692	1.015284	-0.0525	-0.2685	0.084	0	3	1035	1
2026-02-11	15:58:05.210	1.26	-0.56	0.28	0.055876	0.019032	1.009916	-0.0555	-0.264	0.0915	0	3	1035	1
2026-02-11	15:58:05.230	1.225	-0.56	0.28	0.052948	0.020496	1.01748	-0.054	-0.264	0.093	0	3	1035	1
2026-02-11	15:58:05.250	1.295	-0.56	0.28	0.058072	0.02318	1.014308	-0.048	-0.2685	0.09	0	3	1035	1
2026-02-11	15:58:05.270	1.225	-0.63	0.28	0.056608	0.016104	1.00162	-0.051	-0.2685	0.087	0	3	1035	1
2026-02-11	15:58:05.290	1.26	-0.49	0.245	0.057828	0.022204	1.010892	-0.054	-0.261	0.0885	0	3	1035	1
2026-02-11	15:58:05.310	1.225	-0.49	0.28	0.057096	0.021716	1.015772	-0.0555	-0.2685	0.093	0	3	1035	1
2026-02-11	15:58:05.330	1.225	-0.63	0.28	0.055144	0.021472	1.01138	-0.0555	-0.2685	0.09	0	3	1035	1
2026-02-11	15:58:05.350	1.26	-0.63	0.245	0.056608	0.020008	1.01016	-0.0555	-0.2655	0.096	0	3	1035	1
2026-02-11	15:58:05.370	1.26	-0.56	0.21	0.058072	0.023424	1.011624	-0.048	-0.2715	0.087	0	3	1035	1
2026-02-11	15:58:05.390	1.225	-0.56	0.28	0.059048	0.021228	1.013088	-0.051	-0.264	0.0885	0	3	1035	1
2026-02-11	15:58:05.410	1.295	-0.49	0.245	0.05734	0.01708	1.015284	-0.0525	-0.267	0.0825	0	3	1035	1
2026-02-11	15:58:05.430	1.33	-0.595	0.245	0.054168	0.017568	1.009184	-0.0555	-0.2685	0.093	0	3	1035	1
2026-02-11	15:58:05.450	1.26	-0.63	0.245	0.052216	0.019276	1.004792	-0.051	-0.258	0.0945	0	3	1035	1
2026-02-11	15:58:05.470	1.26	-0.49	0.245	0.060268	0.01952	1.016504	-0.057	-0.2745	0.09	0	3	1035	1
2026-02-11	15:58:05.490	1.295	-0.595	0.28	0.051728	0.021716	1.01016	-0.0435	-0.2745	0.09	0	3	1035	1
2026-02-11	15:58:05.510	1.295	-0.595	0.28	0.055388	0.022448	1.013088	-0.0495	-0.2715	0.09	0	3	1035	1
2026-02-11	15:58:05.530	1.295	-0.56	0.245	0.05856	0.024156	1.01382	-0.0615	-0.273	0.093	0	3	1035	1
2026-02-11	15:58:05.550	1.225	-0.63	0.245	0.058072	0.021472	1.011624	-0.048	-0.2685	0.0825	0	3	1035	1
2026-02-11	15:58:05.570	1.225	-0.56	0.245	0.058316	0.018788	1.009184	-0.057	-0.2655	0.087	0	3	1035	1
2026-02-11	15:58:05.590	1.26	-0.49	0.245	0.057096	0.02196	1.013088	-0.048	-0.2715	0.0915	0	3	1035	1
2026-02-11	15:58:05.610	1.225	-0.525	0.245	0.052704	0.02074	1.016016	-0.057	-0.264	0.0915	0	3	1035	1
2026-02-11	15:58:05.630	1.225	-0.56	0.245	0.055144	0.022936	1.015772	-0.054	-0.276	0.0915	0	3	1035	1
2026-02-11	15:58:05.650	1.26	-0.63	0.245	0.058316	0.020984	1.006988	-0.048	-0.2715	0.09	0	3	1035	1
2026-02-11	15:58:05.670	1.295	-0.56	0.28	0.061488	0.01952	1.008696	-0.054	-0.2655	0.0885	0	3	1035	1
2026-02-11	15:58:05.690	1.26	-0.455	0.28	0.055144	0.022204	1.017236	-0.054	-0.2655	0.0885	0	3	1035	1
2026-02-11	15:58:05.710	1.225	-0.56	0.245	0.054412	0.021228	1.011624	-0.0555	-0.2655	0.09	0	3	1035	1
2026-02-11	15:58:05.730	1.225	-0.63	0.245	0.063196	0.020252	1.008452	-0.057	-0.267	0.0915	0	3	1035	1
2026-02-11	15:58:05.750	1.26	-0.56	0.245	0.057584	0.024888	1.013332	-0.054	-0.27	0.0915	0	3	1035	1
2026-02-11	15:58:05.770	1.26	-0.595	0.28	0.056852	0.022936	1.010892	-0.057	-0.27	0.096	0	3	1035	1
2026-02-11	15:58:05.790	1.26	-0.56	0.245	0.057096	0.020496	1.008696	-0.0585	-0.267	0.1005	0	3	1035	1
2026-02-11	15:58:05.810	1.26	-0.525	0.245	0.054168	0.020252	1.014552	-0.054	-0.2685	0.096	0	3	1035	1
2026-02-11	15:58:05.830	1.225	-0.595	0.28	0.055876	0.02074	1.011624	-0.0555	-0.2685	0.0945	0	3	1035	1
2026-02-11	15:58:05.850	1.26	-0.595	0.245	0.060024	0.023668	1.010892	-0.0555	-0.2715	0.093	0	3	1035	1
2026-02-11	15:58:05.870	1.26	-0.595	0.245	0.05368	0.02196	1.008452	-0.057	-0.27	0.087	0	3	1035	1
2026-02-11	15:58:05.890	1.295	-0.525	0.245	0.054412	0.022204	1.014552	-0.0555	-0.264	0.0855	0	3	1035	1
2026-02-11	15:58:05.910	1.295	-0.525	0.245	0.053436	0.019032	1.018456	-0.0525	-0.267	0.0855	0	3	1035	1
2026-02-11	15:58:05.930	1.26	-0.63	0.28	0.057828	0.021228	1.007232	-0.054	-0.27	0.09	0	3	1035	1
2026-02-11	15:58:05.950	1.26	-0.56	0.28	0.060024	0.025132	1.012356	-0.0585	-0.2685	0.087	0	3	1035	1
2026-02-11	15:58:05.970	1.225	-0.525	0.245	0.054412	0.019764	1.013332	-0.0615	-0.2685	0.0825	0	3	1035	1
2026-02-11	15:58:05.990	1.225	-0.595	0.28	0.055388	0.022936	1.0126	-0.0615	-0.2685	0.0825	0	3	1035	1
2026-02-11	15:58:06.010	1.26	-0.595	0.28	0.057828	0.021716	1.009916	-0.0615	-0.2685	0.0825	0	4	1035	1
2026-02-11	15:58:06.030	1.295	-0.525	0.28	0.058072	0.021716	1.013576	-0.0525	-0.27	0.09	0	4	1035	1
2026-02-11	15:58:06.050	1.26	-0.595	0.245	0.057828	0.02074	1.009428	-0.0555	-0.264	0.087	0	4	1035	1
2026-02-11	15:58:06.070	1.26	-0.56	0.245	0.05368	0.023668	1.009672	-0.0585	-0.27	0.09	0	4	1035	1
2026-02-11	15:58:06.090	1.295	-0.525	0.245	0.060024	0.021228	1.012356	-0.057	-0.261	0.0975	0	4	1035	1
2026-02-11	15:58:06.110	1.26	-0.63	0.315	0.056364	0.01952	1.013332	-0.0555	-0.261	0.093	0	4	1035	1
2026-02-11	15:58:06.130	1.26	-0.56	0.28	0.058072	0.020252	1.01138	-0.0495	-0.273	0.0885	0	4	1035	1
2026-02-11	15:58:06.150	1.26	-0.56	0.245	0.055144	0.019032	1.012112	-0.0555	-0.2625	0.087	0	4	1035	1
2026-02-11	15:58:06.170	1.225	-0.525	0.245	0.05734	0.021716	1.011868	-0.0585	-0.273	0.09	0	4	1035	1
2026-02-11	15:58:06.190	1.295	-0.525	0.28	0.051484	0.023424	1.015528	-0.0525	-0.2715	0.0885	0	4	1035	1
2026-02-11	15:58:06.210	1.26	-0.56	0.28	0.071492	0.029524	1.065792	-0.0525	-0.2715	0.0885	0	4	1035	1
2026-02-11	15:58:06.230	1.26	-0.56	0.245	0.050996	0.02318	1.007476	-0.06	-0.2655	0.0915	0	4	1035	1
2026-02-11	15:58:06.250	1.26	-0.56	0.28	0.058072	0.023668	1.010404	-0.06	-0.2655	0.096	0	4	1035	1
2026-02-11	15:58:06.270	1.26	-0.525	0.28	0.061244	0.016592	1.01138	-0.0525	-0.267	0.0915	0	4	1035	1
2026-02-11	15:58:06.290	1.26	-0.49	0.245	0.057828	0.020984	1.014308	-0.057	-0.2685	0.0915	0	4	1035	1
2026-02-11	15:58:06.310	1.225	-0.595	0.245	0.054168	0.019764	1.014552	-0.054	-0.273	0.093	0	4	1035	1
2026-02-11	15:58:06.330	1.26	-0.595	0.28	0.059292	0.022692	1.01138	-0.0525	-0.2685	0.0915	0	4	1035	1
2026-02-11	15:58:06.350	1.295	-0.525	0.28	0.059292	0.021228	1.01382	-0.0525	-0.2655	0.09	0	4	1035	1
2026-02-11	15:58:06.370	1.26	-0.525	0.28	0.056364	0.022204	1.012112	-0.0495	-0.2715	0.096	0	4	1035	1
2026-02-11	15:58:06.390	1.26	-0.56	0.28	0.056608	0.021472	1.01504	-0.06	-0.2745	0.09	0	4	1035	1
2026-02-11	15:58:06.410	1.26	-0.56	0.245	0.056364	0.023668	1.01016	-0.0585	-0.2625	0.087	0	4	1035	1
2026-02-11	15:58:06.430	1.295	-0.56	0.28	0.058316	0.024644	1.009672	-0.0555	-0.2715	0.09	0	4	1035	1
2026-02-11	15:58:06.450	1.295	-0.525	0.28	0.058804	0.025132	1.0126	-0.0585	-0.2715	0.099	0	4	1035	1
2026-02-11	15:58:06.470	1.26	-0.56	0.28	0.0549	0.018788	1.01382	-0.054	-0.2685	0.0855	0	4	1035	1
2026-02-11	15:58:06.490	1.26	-0.525	0.245	0.054168	0.020984	1.012112	-0.054	-0.276	0.093	0	4	1035	1
2026-02-11	15:58:06.510	1.26	-0.525	0.28	0.060024	0.023424	1.014796	-0.048	-0.2685	0.0885	0	4	1035	1
2026-02-11	15:58:06.530	1.26	-0.56	0.245	0.05978	0.019764	1.01016	-0.054	-0.2595	0.0885	0	4	1035	1
2026-02-11	15:58:06.550	1.225	-0.525	0.245	0.056852	0.021228	1.010648	-0.0555	-0.2715	0.093	0	4	1035	1
2026-02-11	15:58:06.570	1.26	-0.525	0.245	0.055388	0.022448	1.013088	-0.0615	-0.2715	0.096	0	4	1035	1
2026-02-11	15:58:06.590	1.295	-0.56	0.28	0.053924	0.022936	1.013088	-0.0495	-0.267	0.0975	0	4	1035	1
2026-02-11	15:58:06.610	1.26	-0.56	0.28	0.057828	0.017568	1.009184	-0.0555	-0.273	0.0885	0	4	1036	1
2026-02-11	15:58:06.630	1.26	-0.56	0.28	0.053436	0.023912	1.012112	-0.054	-0.27	0.0885	0	4	1036	1
2026-02-11	15:58:06.650	1.26	-0.525	0.245	0.054656	0.0244	1.01138	-0.054	-0.2715	0.0885	0	4	1036	1
2026-02-11	15:58:06.670	1.26	-0.525	0.28	0.055388	0.02196	1.014796	-0.0525	-0.2625	0.0825	0	4	1036	1
2026-02-11	15:58:06.690	1.295	-0.56	0.245	0.053924	0.020496	1.011624	-0.051	-0.2685	0.087	0	4	1036	1
2026-02-11	15:58:06.710	1.295	-0.56	0.28	0.058804	0.019032	1.011868	-0.0585	-0.2655	0.084	0	4	1036	1
2026-02-11	15:58:06.730	1.295	-0.56	0.28	0.054656	0.02196	1.013088	-0.0525	-0.273	0.0825	0	4	1036	1
2026-02-11	15:58:06.750	1.225	-0.56	0.28	0.058804	0.021228	1.01382	-0.06	-0.273	0.087	0	4	1036	1
2026-02-11	15:58:06.770	1.295	-0.56	0.28	0.054168	0.0183	1.012356	-0.06	-0.273	0.087	0	4	1036	1
2026-02-11	15:58:06.790	1.26	-0.56	0.245	0.05612	0.023912	1.013088	-0.054	-0.2715	0.087	0	4	1036	1
2026-02-11	15:58:06.810	1.26	-0.595	0.28	0.060024	0.022936	1.0126	-0.048	-0.27	0.087	0	4	1036	1
2026-02-11	15:58:06.830	1.26	-0.56	0.245	0.061	0.023424	1.009184	-0.051	-0.273	0.09	0	4	1036	1
2026-02-11	15:58:06.850	1.295	-0.56	0.28	0.05734	0.020008	1.014308	-0.057	-0.2715	0.0915	0	4	1036	1
2026-02-11	15:58:06.870	1.26	-0.56	0.28	0.057096	0.02562	1.014796	-0.0585	-0.2685	0.0945	0	4	1036	1
2026-02-11	15:58:06.890	1.26	-0.595	0.245	0.055388	0.022936	1.017236	-0.057	-0.264	0.0975	0	4	1036	1
2026-02-11	15:58:06.910	1.26	-0.525	0.245	0.057096	0.023912	1.014308	-0.0555	-0.2625	0.0915	0	4	1036	1
2026-02-11	15:58:06.930	1.295	-0.525	0.245	0.059048	0.024156	1.012356	-0.0465	-0.2715	0.0915	0	4	1036	1
2026-02-11	15:58:06.950	1.26	-0.56	0.245	0.05856	0.018544	1.00772	-0.0495	-0.27	0.093	0	4	1036	1
2026-02-11	15:58:06.970	1.26	-0.56	0.28	0.057096	0.016592	1.009672	-0.0555	-0.2655	0.093	0	4	1036	1
2026-02-11	15:58:06.990	1.26	-0.595	0.28	0.055632	0.020008	1.013088	-0.054	-0.2685	0.093	0	4	1036	1
2026-02-11	15:58:07.010	1.26	-0.56	0.28	0.05612	0.020008	1.014552	-0.051	-0.2715	0.09	0	4	1036	1
2026-02-11	15:58:07.030	1.26	-0.56	0.28	0.054168	0.022936	1.017236	-0.0525	-0.27	0.0885	0	4	1036	1
2026-02-11	15:58:07.050	1.295	-0.595	0.35	0.057584	0.023668	1.014064	-0.054	-0.27	0.087	0	4	1036	1
2026-02-11	15:58:07.070	1.26	-0.56	0.28	0.055144	0.023912	1.011868	-0.06	-0.276	0.0915	0	4	1036	1
2026-02-11	15:58:07.090	1.26	-0.525	0.28	0.058316	0.018788	1.009184	-0.057	-0.273	0.0915	0	4	1036	1
2026-02-11	15:58:07.110	1.26	-0.56	0.245	0.05856	0.023424	1.007476	-0.0495	-0.2685	0.0885	0	4	1036	1
2026-02-11	15:58:07.130	1.26	-0.56	0.245	0.060512	0.02318	1.010404	-0.051	-0.2685	0.09	0	4	1036	1
2026-02-11	15:58:07.150	1.295	-0.56	0.28	0.05856	0.019032	1.010892	-0.0555	-0.2655	0.0885	0	4	1036	1
2026-02-11	15:58:07.170	1.26	-0.525	0.315	0.056608	0.021716	1.011868	-0.06	-0.27	0.087	0	4	1036	1
2026-02-11	15:58:07.190	1.26	-0.56	0.245	0.05856	0.017568	1.01016	-0.06	-0.27	0.087	0	4	1036	1
2026-02-11	15:58:07.210	1.26	-0.595	0.28	0.05856	0.01952	1.013088	-0.06	-0.27	0.087	0	4	1035	1
2026-02-11	15:58:07.230	1.26	-0.56	0.28	0.059048	0.022692	1.012356	-0.0525	-0.273	0.081	0	4	1035	1
2026-02-11	15:58:07.250	1.26	-0.56	0.245	0.057584	0.024888	1.009916	-0.051	-0.2625	0.087	0	4	1035	1
2026-02-11	15:58:07.270	1.295	-0.56	0.21	0.058316	0.020984	1.012356	-0.0555	-0.2715	0.0855	0	4	1035	1
2026-02-11	15:58:07.290	1.225	-0.595	0.28	0.057096	0.02196	1.011624	-0.048	-0.267	0.09	0	4	1035	1
2026-02-11	15:58:07.310	1.26	-0.525	0.28	0.058316	0.022448	1.01138	-0.0465	-0.27	0.084	0	4	1035	1
2026-02-11	15:58:07.330	1.26	-0.56	0.245	0.057096	0.022204	1.00894	-0.0555	-0.2715	0.0915	0	4	1035	1
2026-02-11	15:58:07.350	1.26	-0.56	0.28	0.05856	0.020008	1.009428	-0.048	-0.2715	0.087	0	4	1035	1
2026-02-11	15:58:07.370	1.26	-0.56	0.28	0.057096	0.020496	1.015528	-0.06	-0.273	0.09	0	4	1035	1
2026-02-11	15:58:07.390	1.295	-0.56	0.245	0.051972	0.025132	1.016992	-0.048	-0.2655	0.0885	0	4	1035	1
2026-02-11	15:58:07.410	1.26	-0.56	0.21	0.05978	0.022692	1.01626	-0.0555	-0.264	0.087	0	4	1035	1
2026-02-11	15:58:07.430	1.26	-0.56	0.245	0.056852	0.023424	1.01626	-0.0585	-0.267	0.087	0	4	1035	1
2026-02-11	15:58:07.450	1.26	-0.56	0.28	0.05856	0.022204	1.009916	-0.0495	-0.2715	0.0915	0	4	1035	1
2026-02-11	15:58:07.470	1.26	-0.525	0.28	0.05856	0.021228	1.006744	-0.054	-0.267	0.0885	0	4	1035	1
2026-02-11	15:58:07.490	1.225	-0.56	0.28	0.056852	0.022204	1.008452	-0.0495	-0.2655	0.09	0	4	1035	1
2026-02-11	15:58:07.510	1.26	-0.56	0.28	0.056852	0.020496	1.01138	-0.054	-0.2745	0.0885	0	4	1035	1
2026-02-11	15:58:07.530	1.295	-0.56	0.28	0.055876	0.018788	1.017236	-0.0555	-0.27	0.09	0	4	1035	1
2026-02-11	15:58:07.550	1.26	-0.56	0.245	0.055388	0.020496	1.018944	-0.0555	-0.273	0.0885	0	4	1035	1
2026-02-11	15:58:07.570	1.295	-0.595	0.28	0.053924	0.023668	1.014064	-0.048	-0.2685	0.0915	0	4	1035	1
2026-02-11	15:58:07.590	1.26	-0.525	0.245	0.05856	0.023912	1.008208	-0.051	-0.267	0.09	0	4	1035	1
2026-02-11	15:58:07.610	1.225	-0.56	0.245	0.05612	0.020008	1.0065	-0.051	-0.273	0.09	0	4	1035	1
2026-02-11	15:58:07.630	1.26	-0.56	0.315	0.057828	0.021228	1.01016	-0.054	-0.2625	0.0855	0	4	1035	1
2026-02-11	15:58:07.650	1.26	-0.56	0.28	0.055388	0.024156	1.013576	-0.0495	-0.2715	0.0885	0	4	1035	1
2026-02-11	15:58:07.670	1.26	-0.595	0.245	0.053924	0.021472	1.0126	-0.051	-0.267	0.087	0	4	1035	1
2026-02-11	15:58:07.690	1.295	-0.595	0.28	0.055632	0.022204	1.009672	-0.051	-0.2685	0.0885	0	4	1035	1
2026-02-11	15:58:07.710	1.225	-0.525	0.245	0.055144	0.020984	1.011624	-0.0555	-0.2775	0.0945	0	4	1035	1
2026-02-11	15:58:07.730	1.225	-0.525	0.28	0.053924	0.022448	1.011868	-0.0495	-0.267	0.0945	0	4	1035	1
2026-02-11	15:58:07.750	1.26	-0.56	0.245	0.052948	0.020984	1.011624	-0.054	-0.2715	0.0945	0	4	1035	1
2026-02-11	15:58:07.770	1.26	-0.595	0.245	0.05856	0.020008	1.012112	-0.063	-0.2655	0.09	0	4	1035	1
2026-02-11	15:58:07.790	1.26	-0.595	0.28	0.051484	0.0183	1.013332	-0.0615	-0.2625	0.093	0	4	1035	1
2026-02-11	15:58:07.810	1.295	-0.525	0.28	0.059048	0.023912	1.011136	-0.0525	-0.2625	0.096	0	4	1035	1
2026-02-11	15:58:07.830	1.225	-0.56	0.28	0.057584	0.023668	1.010404	-0.0525	-0.2625	0.096	0	4	1035	1
2026-02-11	15:58:07.850	1.295	-0.56	0.315	0.056608	0.02074	1.010892	-0.0525	-0.2655	0.093	0	4	1035	1
2026-02-11	15:58:07.870	1.26	-0.56	0.245	0.058316	0.020008	1.011624	-0.0525	-0.2685	0.0915	0	4	1035	1
2026-02-11	15:58:07.890	1.225	-0.56	0.245	0.054168	0.022692	1.011624	-0.0525	-0.267	0.0885	0	4	1035	1
2026-02-11	15:58:07.910	1.26	-0.56	0.28	0.054168	0.020984	1.013332	-0.054	-0.27	0.0885	0	4	1035	1
2026-02-11	15:58:07.930	1.295	-0.56	0.245	0.054412	0.023912	1.013088	-0.06	-0.267	0.09	0	4	1035	1
2026-02-11	15:58:07.950	1.26	-0.56	0.245	0.060024	0.021472	1.011624	-0.0555	-0.2625	0.093	0	4	1035	1
2026-02-11	15:58:07.970	1.225	-0.56	0.245	0.056364	0.022692	1.010648	-0.051	-0.2685	0.0945	0	4	1035	1
2026-02-11	15:58:07.990	1.26	-0.56	0.28	0.053924	0.023668	1.010648	-0.054	-0.2715	0.09	0	4	1035	1
2026-02-11	15:58:08.010	1.295	-0.56	0.245	0.057828	0.021716	1.01382	-0.051	-0.267	0.093	0	4	1035	1
2026-02-11	15:58:08.030	1.26	-0.56	0.245	0.057096	0.019764	1.011624	-0.0555	-0.267	0.0945	0	4	1035	1
2026-02-11	15:58:08.050	1.26	-0.56	0.245	0.055144	0.021716	1.013576	-0.054	-0.267	0.093	0	4	1035	1
2026-02-11	15:58:08.070	1.26	-0.56	0.28	0.056608	0.020984	1.013088	-0.0495	-0.2655	0.09	0	4	1035	1
2026-02-11	15:58:08.090	1.26	-0.56	0.28	0.060024	0.020984	1.011868	-0.0525	-0.27	0.0885	0	4	1035	1
2026-02-11	15:58:08.110	1.225	-0.525	0.28	0.052704	0.02196	1.0126	-0.054	-0.2715	0.0885	0	4	1035	1
2026-02-11	15:58:08.130	1.26	-0.56	0.28	0.053924	0.020496	1.012356	-0.0555	-0.267	0.087	0	4	1035	1
2026-02-11	15:58:08.150	1.225	-0.56	0.245	0.059292	0.022936	1.013576	-0.0525	-0.2625	0.0885	0	4	1035	1
2026-02-11	15:58:08.170	1.26	-0.595	0.28	0.055876	0.023668	1.01016	-0.051	-0.2685	0.0945	0	4	1035	1
2026-02-11	15:58:08.190	1.26	-0.595	0.28	0.058072	0.022692	1.010892	-0.0525	-0.2715	0.0945	0	4	1035	1
2026-02-11	15:58:08.210	1.295	-0.595	0.28	0.055632	0.02318	1.013576	-0.0495	-0.2655	0.0945	0	4	1035	1
2026-02-11	15:58:08.230	1.26	-0.56	0.28	0.054656	0.020984	1.010404	-0.0495	-0.2685	0.0975	0	4	1035	1
2026-02-11	15:58:08.250	1.295	-0.595	0.28	0.056608	0.021716	1.011136	-0.048	-0.2715	0.096	0	4	1035	1
2026-02-11	15:58:08.270	1.225	-0.56	0.28	0.055144	0.020008	1.015284	-0.0525	-0.2685	0.0915	0	4	1035	1
2026-02-11	15:58:08.290	1.26	-0.56	0.21	0.056608	0.022448	1.011868	-0.057	-0.267	0.0915	0	4	1035	1
2026-02-11	15:58:08.310	1.26	-0.525	0.28	0.05734	0.021228	1.014064	-0.051	-0.2655	0.087	0	4	1035	1
2026-02-11	15:58:08.330	1.295	-0.56	0.28	0.057096	0.024156	1.009916	-0.0495	-0.2655	0.0855	0	4	1035	1
2026-02-11	15:58:08.350	1.26	-0.595	0.28	0.05734	0.021228	1.012112	-0.051	-0.267	0.0885	0	4	1035	1
2026-02-11	15:58:08.370	1.295	-0.56	0.245	0.055388	0.022204	1.015284	-0.057	-0.267	0.093	0	4	1035	1
2026-02-11	15:58:08.390	1.26	-0.525	0.245	0.05612	0.019276	1.01138	-0.0555	-0.267	0.0945	0	4	1035	1
2026-02-11	15:58:08.410	1.225	-0.56	0.245	0.05368	0.021716	1.013088	-0.0495	-0.267	0.0915	0	3	1035	1
2026-02-11	15:58:08.430	1.225	-0.56	0.28	0.060024	0.02318	1.011868	-0.0495	-0.267	0.0915	0	3	1035	1
2026-02-11	15:58:08.450	1.26	-0.56	0.245	0.056364	0.022692	1.010404	-0.0495	-0.267	0.0915	0	3	1035	1
2026-02-11	15:58:08.470	1.26	-0.56	0.245	0.05734	0.0183	1.011868	-0.051	-0.258	0.084	0	3	1035	1
2026-02-11	15:58:08.490	1.295	-0.595	0.245	0.05612	0.020252	1.014796	-0.0555	-0.267	0.0885	0	3	1035	1
2026-02-11	15:58:08.510	1.19	-0.56	0.245	0.055876	0.021228	1.010404	-0.0585	-0.27	0.0915	0	3	1035	1
2026-02-11	15:58:08.530	1.295	-0.525	0.28	0.057828	0.020008	1.012112	-0.0525	-0.2655	0.087	0	3	1035	1
2026-02-11	15:58:08.550	1.26	-0.56	0.21	0.056364	0.019764	1.015528	-0.0585	-0.264	0.087	0	3	1035	1
2026-02-11	15:58:08.570	1.225	-0.56	0.245	0.05612	0.023912	1.013088	-0.06	-0.267	0.087	0	3	1035	1
2026-02-11	15:58:08.590	1.225	-0.56	0.245	0.054412	0.021228	1.01504	-0.057	-0.267	0.0915	0	3	1035	1
2026-02-11	15:58:08.610	1.295	-0.56	0.28	0.057096	0.020252	1.011624	-0.0585	-0.27	0.0885	0	3	1035	1
2026-02-11	15:58:08.630	1.26	-0.525	0.28	0.053924	0.02196	1.013088	-0.0525	-0.2715	0.09	0	3	1035	1
2026-02-11	15:58:08.650	1.295	-0.56	0.28	0.055388	0.022936	1.011868	-0.045	-0.2745	0.087	0	3	1035	1
2026-02-11	15:58:08.670	1.225	-0.595	0.28	0.059292	0.016348	1.013088	-0.06	-0.267	0.096	0	3	1035	1
2026-02-11	15:58:08.690	1.26	-0.595	0.28	0.05612	0.020008	1.013576	-0.054	-0.2685	0.09	0	3	1035	1
2026-02-11	15:58:08.710	1.26	-0.56	0.245	0.057584	0.022692	1.014796	-0.0525	-0.2715	0.087	0	3	1035	1
2026-02-11	15:58:08.730	1.225	-0.56	0.245	0.057096	0.02074	1.01138	-0.0465	-0.2715	0.0885	0	3	1035	1
2026-02-11	15:58:08.750	1.26	-0.56	0.245	0.053436	0.02562	1.012356	-0.0615	-0.2655	0.0945	0	3	1035	1
2026-02-11	15:58:08.770	1.295	-0.56	0.245	0.05734	0.019276	1.01016	-0.0495	-0.2625	0.096	0	3	1035	1
2026-02-11	15:58:08.790	1.26	-0.595	0.28	0.055632	0.021716	1.009184	-0.051	-0.2745	0.0885	0	3	1035	1
2026-02-11	15:58:08.810	1.33	-0.56	0.28	0.055876	0.02196	1.0126	-0.0525	-0.267	0.093	0	3	1035	1
2026-02-11	15:58:08.830	1.26	-0.56	0.28	0.055144	0.020496	1.012356	-0.051	-0.2625	0.0945	0	3	1035	1
2026-02-11	15:58:08.850	1.26	-0.56	0.28	0.055632	0.02196	1.012112	-0.0525	-0.2655	0.0945	0	3	1035	1
2026-02-11	15:58:08.870	1.26	-0.56	0.28	0.058316	0.024156	1.012356	-0.0585	-0.2625	0.0945	0	3	1035	1
2026-02-11	15:58:08.890	1.295	-0.56	0.245	0.05978	0.0183	1.01504	-0.0495	-0.27	0.0945	0	3	1035	1
2026-02-11	15:58:08.910	1.26	-0.56	0.28	0.057584	0.022936	1.011624	-0.0525	-0.27	0.0945	0	3	1035	1
2026-02-11	15:58:08.930	1.26	-0.56	0.245	0.058072	0.02196	1.008696	-0.0525	-0.27	0.0945	0	3	1035	1
2026-02-11	15:58:08.950	1.26	-0.56	0.245	0.056364	0.02196	1.01138	-0.0525	-0.2685	0.093	0	3	1035	1
2026-02-11	15:58:08.970	1.26	-0.525	0.245	0.06222	0.022448	1.013576	-0.054	-0.267	0.0945	0	3	1035	1
2026-02-11	15:58:08.990	1.225	-0.56	0.28	0.056608	0.02196	1.012356	-0.051	-0.2715	0.093	0	3	1035	1
2026-02-11	15:58:09.010	1.295	-0.595	0.28	0.060512	0.02196	1.011136	-0.0495	-0.2715	0.0915	0	3	1035	1
2026-02-11	15:58:09.030	1.295	-0.56	0.28	0.054412	0.021472	1.012356	-0.0495	-0.27	0.0915	0	3	1035	1
2026-02-11	15:58:09.050	1.26	-0.56	0.28	0.056852	0.020984	1.014064	-0.0525	-0.2715	0.0915	0	3	1035	1
2026-02-11	15:58:09.070	1.295	-0.525	0.28	0.057584	0.019032	1.01016	-0.0525	-0.2715	0.0915	0	3	1035	1
2026-02-11	15:58:09.090	1.295	-0.525	0.28	0.060024	0.024644	1.0126	-0.048	-0.27	0.087	0	3	1035	1
2026-02-11	15:58:09.110	1.26	-0.525	0.315	0.059292	0.020008	1.015284	-0.0525	-0.264	0.0855	0	3	1035	1
2026-02-11	15:58:09.130	1.26	-0.56	0.28	0.05612	0.02196	1.013088	-0.057	-0.2655	0.09	0	3	1035	1
2026-02-11	15:58:09.150	1.225	-0.56	0.245	0.057828	0.02196	1.010648	-0.054	-0.2715	0.093	0	3	1035	1
2026-02-11	15:58:09.170	1.225	-0.595	0.28	0.057584	0.024644	1.009916	-0.051	-0.2715	0.0945	0	3	1035	1
2026-02-11	15:58:09.190	1.295	-0.595	0.28	0.055388	0.01952	1.010648	-0.051	-0.27	0.096	0	3	1035	1
2026-02-11	15:58:09.210	1.26	-0.56	0.245	0.058804	0.02318	1.009916	-0.048	-0.2655	0.096	0	3	1035	1
2026-02-11	15:58:09.230	1.26	-0.525	0.245	0.053924	0.020984	1.012844	-0.045	-0.267	0.0945	0	3	1035	1
2026-02-11	15:58:09.250	1.26	-0.525	0.28	0.055144	0.02074	1.0126	-0.0495	-0.2655	0.09	0	3	1035	1
2026-02-11	15:58:09.270	1.295	-0.595	0.245	0.056852	0.022448	1.012112	-0.0525	-0.2655	0.087	0	3	1035	1
2026-02-11	15:58:09.290	1.225	-0.525	0.245	0.05734	0.022204	1.012844	-0.0525	-0.2685	0.09	0	3	1035	1
2026-02-11	15:58:09.310	1.225	-0.56	0.28	0.054412	0.02074	1.014064	-0.0555	-0.2685	0.0915	0	3	1035	1
2026-02-11	15:58:09.330	1.225	-0.595	0.28	0.057584	0.0183	1.0126	-0.0555	-0.2685	0.087	0	3	1035	1
2026-02-11	15:58:09.350	1.295	-0.56	0.28	0.058316	0.020496	1.012844	-0.054	-0.2625	0.087	0	3	1035	1
2026-02-11	15:58:09.370	1.26	-0.56	0.28	0.059536	0.024156	1.009672	-0.048	-0.2625	0.087	0	3	1035	1
2026-02-11	15:58:09.390	1.26	-0.56	0.28	0.05612	0.020984	1.009916	-0.048	-0.2655	0.0915	0	3	1035	1
2026-02-11	15:58:09.410	1.26	-0.56	0.28	0.05612	0.023912	1.011868	-0.0525	-0.267	0.093	0	3	1035	1
2026-02-11	15:58:09.430	1.26	-0.56	0.245	0.053436	0.022204	1.0126	-0.054	-0.273	0.087	0	3	1035	1
2026-02-11	15:58:09.450	1.26	-0.56	0.28	0.058804	0.021472	1.010892	-0.0525	-0.2715	0.0885	0	3	1035	1
2026-02-11	15:58:09.470	1.26	-0.56	0.28	0.056364	0.021228	1.013332	-0.051	-0.2655	0.0885	0	3	1035	1
2026-02-11	15:58:09.490	1.26	-0.595	0.245	0.057096	0.022204	1.011868	-0.0525	-0.2655	0.0855	0	3	1035	1
2026-02-11	15:58:09.510	1.26	-0.56	0.28	0.056608	0.02318	1.01382	-0.057	-0.264	0.09	0	3	1035	1
2026-02-11	15:58:09.530	1.295	-0.56	0.28	0.05612	0.020008	1.012112	-0.0585	-0.2625	0.0915	0	3	1035	1
2026-02-11	15:58:09.550	1.26	-0.56	0.21	0.059292	0.022936	1.013088	-0.0525	-0.2655	0.09	0	3	1035	1
2026-02-11	15:58:09.570	1.225	-0.525	0.28	0.059292	0.020984	1.013088	-0.048	-0.267	0.0885	0	3	1035	1
2026-02-11	15:58:09.590	1.26	-0.56	0.28	0.060756	0.019276	1.013576	-0.051	-0.27	0.0885	0	3	1035	1
2026-02-11	15:58:09.610	1.26	-0.525	0.28	0.054412	0.017324	1.011868	-0.0555	-0.2715	0.0915	0	3	1035	1
2026-02-11	15:58:09.630	1.26	-0.56	0.28	0.058804	0.023912	1.01382	-0.0555	-0.2715	0.0915	0	3	1035	1
2026-02-11	15:58:09.650	1.26	-0.56	0.245	0.055388	0.024156	1.011136	-0.0555	-0.2715	0.0915	0	3	1035	1
2026-02-11	15:58:09.670	1.26	-0.595	0.28	0.057096	0.022936	1.011624	-0.045	-0.2715	0.0945	0	3	1035	1
2026-02-11	15:58:09.690	1.26	-0.56	0.245	0.054168	0.0244	1.010892	-0.057	-0.27	0.0885	0	3	1035	1
2026-02-11	15:58:09.710	1.26	-0.56	0.245	0.055632	0.021228	1.012112	-0.0495	-0.276	0.084	0	3	1035	1
2026-02-11	15:58:09.730	1.26	-0.56	0.245	0.054168	0.021472	1.01138	-0.0585	-0.267	0.0915	0	3	1035	1
2026-02-11	15:58:09.750	1.295	-0.56	0.28	0.056608	0.022448	1.012356	-0.0525	-0.2655	0.0855	0	3	1035	1
2026-02-11	15:58:09.770	1.26	-0.56	0.245	0.060024	0.021716	1.01138	-0.0555	-0.264	0.093	0	3	1035	1
2026-02-11	15:58:09.790	1.26	-0.56	0.28	0.056608	0.023668	1.012112	-0.048	-0.2715	0.087	0	3	1035	1
2026-02-11	15:58:09.810	1.26	-0.56	0.28	0.05246	0.019276	1.013332	-0.054	-0.2685	0.0945	0	3	1035	1
2026-02-11	15:58:09.830	1.26	-0.56	0.28	0.056852	0.019276	1.013576	-0.051	-0.264	0.0915	0	3	1035	1
2026-02-11	15:58:09.850	1.26	-0.56	0.28	0.055876	0.022204	1.01382	-0.051	-0.261	0.087	0	3	1035	1
2026-02-11	15:58:09.870	1.225	-0.56	0.28	0.057584	0.023912	1.011136	-0.0525	-0.2655	0.0915	0	3	1035	1
2026-02-11	15:58:09.890	1.26	-0.56	0.315	0.057096	0.021228	1.009916	-0.0525	-0.2715	0.09	0	3	1035	1
2026-02-11	15:58:09.910	1.295	-0.56	0.245	0.057096	0.023668	1.013576	-0.06	-0.27	0.0885	0	3	1035	1
2026-02-11	15:58:09.930	1.26	-0.63	0.245	0.058316	0.022692	1.009672	-0.0555	-0.273	0.087	0	3	1035	1
2026-02-11	15:58:09.950	1.225	-0.56	0.245	0.057096	0.018056	1.011624	-0.057	-0.2655	0.0945	0	3	1035	1
2026-02-11	15:58:09.970	1.225	-0.525	0.245	0.057584	0.020252	1.01138	-0.057	-0.2655	0.0945	0	3	1035	1
2026-02-11	15:58:09.990	1.26	-0.525	0.245	0.05734	0.02074	1.012844	-0.0555	-0.2655	0.0915	0	3	1035	1
2026-02-11	15:58:10.010	1.26	-0.525	0.245	0.057096	0.019764	1.011868	-0.054	-0.2655	0.0885	0	3	1035	1
2026-02-11	15:58:10.030	1.26	-0.595	0.28	0.054412	0.02318	1.00894	-0.057	-0.27	0.0885	0	3	1035	1
2026-02-11	15:58:10.050	1.26	-0.56	0.28	0.0549	0.021716	1.012844	-0.057	-0.273	0.09	0	3	1035	1
2026-02-11	15:58:10.070	1.26	-0.56	0.28	0.05978	0.021716	1.01138	-0.0525	-0.27	0.09	0	3	1035	1
2026-02-11	15:58:10.090	1.225	-0.595	0.245	0.060024	0.02318	1.013332	-0.051	-0.2715	0.0885	0	3	1035	1
2026-02-11	15:58:10.110	1.26	-0.595	0.28	0.055388	0.021472	1.013576	-0.0525	-0.2685	0.087	0	3	1035	1
2026-02-11	15:58:10.130	1.26	-0.56	0.245	0.055144	0.022936	1.011136	-0.0555	-0.2655	0.093	0	3	1035	1
2026-02-11	15:58:10.150	1.26	-0.595	0.245	0.055876	0.023912	1.012356	-0.0525	-0.267	0.0945	0	3	1035	1
2026-02-11	15:58:10.170	1.225	-0.56	0.245	0.051728	0.023668	1.014308	-0.0525	-0.2655	0.096	0	3	1035	1
2026-02-11	15:58:10.190	1.225	-0.56	0.28	0.05612	0.021716	1.011868	-0.0555	-0.261	0.096	0	3	1035	1
2026-02-11	15:58:10.210	1.225	-0.56	0.245	0.056852	0.021716	1.010892	-0.051	-0.2655	0.087	0	3	1035	1
2026-02-11	15:58:10.230	1.26	-0.56	0.245	0.054412	0.022204	1.014552	-0.0465	-0.27	0.0855	0	3	1035	1
2026-02-11	15:58:10.250	1.26	-0.56	0.245	0.057828	0.024156	1.014064	-0.0525	-0.27	0.09	0	3	1035	1
2026-02-11	15:58:10.270	1.26	-0.595	0.28	0.05612	0.023668	1.012112	-0.0585	-0.2685	0.0915	0	3	1035	1
2026-02-11	15:58:10.290	1.26	-0.595	0.245	0.057584	0.021228	1.012844	-0.0585	-0.2685	0.0915	0	3	1035	1
2026-02-11	15:58:10.310	1.26	-0.56	0.245	0.055876	0.022692	1.012844	-0.0555	-0.267	0.0885	0	3	1035	1
2026-02-11	15:58:10.330	1.26	-0.525	0.28	0.054656	0.023912	1.013576	-0.0525	-0.2655	0.087	0	3	1035	1
2026-02-11	15:58:10.350	1.26	-0.56	0.28	0.062464	0.020252	1.012844	-0.054	-0.2655	0.093	0	3	1035	1
2026-02-11	15:58:10.370	1.26	-0.56	0.28	0.057096	0.024644	1.010648	-0.057	-0.2685	0.093	0	3	1035	1
2026-02-11	15:58:10.390	1.295	-0.595	0.28	0.0549	0.018544	1.01138	-0.0585	-0.27	0.09	0	3	1035	1
2026-02-11	15:58:10.410	1.26	-0.56	0.245	0.060756	0.020496	1.013576	-0.0555	-0.27	0.0915	0	3	1035	1
2026-02-11	15:58:10.430	1.26	-0.56	0.245	0.052704	0.022936	1.013332	-0.051	-0.273	0.093	0	3	1035	1
2026-02-11	15:58:10.450	1.26	-0.56	0.245	0.057828	0.023668	1.012356	-0.048	-0.27	0.0885	0	3	1035	1
2026-02-11	15:58:10.470	1.26	-0.56	0.315	0.055144	0.02196	1.012356	-0.0555	-0.2685	0.0855	0	3	1035	1
2026-02-11	15:58:10.490	1.225	-0.595	0.28	0.059536	0.020252	1.011136	-0.06	-0.27	0.09	0	3	1035	1
2026-02-11	15:58:10.510	1.295	-0.56	0.245	0.056852	0.023668	1.011136	-0.0525	-0.2685	0.093	0	3	1035	1
2026-02-11	15:58:10.530	1.26	-0.525	0.28	0.057828	0.020008	1.011868	-0.051	-0.264	0.09	0	3	1035	1
2026-02-11	15:58:10.550	1.225	-0.56	0.315	0.059536	0.022692	1.014064	-0.054	-0.2655	0.09	0	3	1035	1
2026-02-11	15:58:10.570	1.225	-0.56	0.28	0.055876	0.020252	1.01138	-0.048	-0.264	0.09	0	3	1035	1
2026-02-11	15:58:10.590	1.26	-0.56	0.245	0.0549	0.021472	1.012844	-0.054	-0.2625	0.09	0	3	1035	1
2026-02-11	15:58:10.610	1.225	-0.56	0.245	0.055876	0.020984	1.013332	-0.063	-0.267	0.093	0	3	1035	1
2026-02-11	15:58:10.630	1.26	-0.56	0.28	0.05368	0.02318	1.01138	-0.0585	-0.2685	0.09	0	3	1035	1
2026-02-11	15:58:10.650	1.26	-0.56	0.245	0.056364	0.019764	1.012356	-0.0555	-0.2685	0.0885	0	3	1035	1
2026-02-11	15:58:10.670	1.225	-0.56	0.28	0.056852	0.019764	1.015772	-0.054	-0.267	0.0915	0	3	1035	1
2026-02-11	15:58:10.690	1.225	-0.56	0.21	0.053192	0.0244	1.013576	-0.0495	-0.267	0.0915	0	3	1035	1
2026-02-11	15:58:10.710	1.26	-0.525	0.245	0.056852	0.025376	1.009916	-0.0495	-0.2685	0.09	0	3	1035	1
2026-02-11	15:58:10.730	1.26	-0.56	0.28	0.055388	0.02074	1.014308	-0.054	-0.273	0.09	0	3	1035	1
2026-02-11	15:58:10.750	1.26	-0.595	0.245	0.058804	0.023424	1.013576	-0.054	-0.267	0.087	0	3	1035	1
2026-02-11	15:58:10.770	1.26	-0.56	0.245	0.057584	0.018544	1.011868	-0.0555	-0.2655	0.0855	0	3	1035	1
2026-02-11	15:58:10.790	1.26	-0.525	0.245	0.056364	0.0244	1.012844	-0.06	-0.2715	0.0855	0	3	1035	1
2026-02-11	15:58:10.810	1.26	-0.595	0.28	0.05368	0.022692	1.01138	-0.057	-0.2685	0.0855	0	3	1035	1
2026-02-11	15:58:10.830	1.225	-0.595	0.28	0.05856	0.020008	1.01138	-0.0525	-0.2685	0.09	0	3	1035	1
2026-02-11	15:58:10.850	1.295	-0.525	0.28	0.059292	0.022448	1.007964	-0.0525	-0.2685	0.09	0	3	1035	1
2026-02-11	15:58:10.870	1.26	-0.49	0.28	0.055632	0.021228	1.016504	-0.051	-0.27	0.09	0	3	1035	1
2026-02-11	15:58:10.890	1.19	-0.56	0.245	0.054656	0.020496	1.013088	-0.057	-0.2655	0.081	0	3	1035	1
2026-02-11	15:58:10.910	1.225	-0.63	0.245	0.056364	0.020984	1.012844	-0.054	-0.264	0.093	0	3	1035	1
2026-02-11	15:58:10.930	1.295	-0.595	0.28	0.058072	0.022692	1.011624	-0.057	-0.273	0.0945	0	3	1035	1
2026-02-11	15:58:10.950	1.225	-0.56	0.245	0.055388	0.024156	1.0126	-0.048	-0.2715	0.0915	0	3	1035	1
2026-02-11	15:58:10.970	1.295	-0.525	0.245	0.053436	0.021472	1.014308	-0.048	-0.2685	0.0885	0	3	1035	1
2026-02-11	15:58:10.990	1.26	-0.525	0.28	0.053436	0.024156	1.014308	-0.048	-0.2655	0.0915	0	3	1035	1
2026-02-11	15:58:11.010	1.225	-0.595	0.245	0.054412	0.020252	1.01382	-0.0555	-0.2655	0.084	0	3	1035	1
2026-02-11	15:58:11.030	1.26	-0.56	0.245	0.055144	0.021716	1.010892	-0.0585	-0.267	0.096	0	3	1035	1
2026-02-11	15:58:11.050	1.26	-0.56	0.21	0.059048	0.019276	1.010648	-0.0585	-0.267	0.096	0	3	1035	1
2026-02-11	15:58:11.070	1.295	-0.56	0.245	0.054168	0.023912	1.014064	-0.0585	-0.267	0.096	0	3	1035	1
2026-02-11	15:58:11.090	1.26	-0.525	0.28	0.05856	0.024156	1.01504	-0.057	-0.2685	0.0915	0	3	1035	1
2026-02-11	15:58:11.110	1.225	-0.56	0.28	0.052216	0.02196	1.013088	-0.057	-0.267	0.09	0	3	1035	1
2026-02-11	15:58:11.130	1.26	-0.595	0.28	0.056852	0.021716	1.012112	-0.057	-0.264	0.09	0	3	1035	1
2026-02-11	15:58:11.150	1.26	-0.56	0.245	0.05612	0.02074	1.011136	-0.0555	-0.267	0.09	0	3	1035	1
2026-02-11	15:58:11.170	1.225	-0.56	0.28	0.056608	0.02196	1.01138	-0.0555	-0.267	0.093	0	3	1035	1
2026-02-11	15:58:11.190	1.26	-0.525	0.28	0.05978	0.020496	1.011624	-0.0555	-0.2655	0.0945	0	3	1035	1
2026-02-11	15:58:11.210	1.26	-0.56	0.245	0.054412	0.01952	1.014308	-0.0525	-0.2655	0.0915	0	3	1035	1
2026-02-11	15:58:11.230	1.26	-0.595	0.245	0.056364	0.020496	1.012112	-0.051	-0.273	0.09	0	3	1035	1
2026-02-11	15:58:11.250	1.26	-0.595	0.28	0.058072	0.021228	1.012112	-0.054	-0.27	0.0915	0	3	1035	1
2026-02-11	15:58:11.270	1.26	-0.525	0.28	0.056608	0.021716	1.012356	-0.054	-0.267	0.0915	0	3	1035	1
2026-02-11	15:58:11.290	1.295	-0.56	0.28	0.05612	0.019276	1.01382	-0.0525	-0.273	0.09	0	3	1035	1
2026-02-11	15:58:11.310	1.225	-0.56	0.245	0.058316	0.020496	1.011868	-0.0555	-0.2715	0.09	0	3	1035	1
2026-02-11	15:58:11.330	1.26	-0.56	0.245	0.055388	0.022204	1.013088	-0.054	-0.27	0.0885	0	3	1035	1
2026-02-11	15:58:11.350	1.26	-0.56	0.28	0.057828	0.021716	1.013576	-0.0495	-0.267	0.0885	0	3	1035	1
2026-02-11	15:58:11.370	1.26	-0.56	0.28	0.055876	0.021472	1.014552	-0.051	-0.264	0.0855	0	3	1035	1
2026-02-11	15:58:11.390	1.26	-0.595	0.245	0.056852	0.018788	1.013088	-0.051	-0.2655	0.084	0	3	1035	1
2026-02-11	15:58:11.410	1.26	-0.56	0.28	0.057584	0.02318	1.011868	-0.0525	-0.2685	0.0855	0	3	1035	1
2026-02-11	15:58:11.430	1.26	-0.56	0.28	0.054412	0.020008	1.011624	-0.057	-0.267	0.0885	0	3	1035	1
2026-02-11	15:58:11.450	1.295	-0.56	0.28	0.060024	0.022936	1.012112	-0.0555	-0.2685	0.099	0	3	1035	1
2026-02-11	15:58:11.470	1.26	-0.56	0.28	0.055144	0.019764	1.014796	-0.054	-0.2685	0.0975	0	3	1035	1
2026-02-11	15:58:11.490	1.225	-0.56	0.28	0.055632	0.022448	1.013576	-0.054	-0.267	0.0915	0	3	1035	1
2026-02-11	15:58:11.510	1.26	-0.56	0.245	0.060512	0.023668	1.013332	-0.054	-0.267	0.0915	0	3	1035	1
2026-02-11	15:58:11.530	1.26	-0.56	0.245	0.05368	0.019276	1.0126	-0.054	-0.27	0.09	0	3	1035	1
2026-02-11	15:58:11.550	1.26	-0.595	0.28	0.055632	0.02318	1.011868	-0.051	-0.2685	0.0855	0	3	1035	1
2026-02-11	15:58:11.570	1.295	-0.56	0.28	0.056608	0.023912	1.011136	-0.054	-0.2655	0.0885	0	3	1035	1
2026-02-11	15:58:11.590	1.26	-0.56	0.28	0.052704	0.023424	1.013576	-0.057	-0.273	0.093	0	3	1035	1
2026-02-11	15:58:11.610	1.26	-0.525	0.245	0.054412	0.024888	1.013576	-0.0525	-0.27	0.093	0	3	1035	1
2026-02-11	15:58:11.630	1.26	-0.56	0.28	0.05856	0.02318	1.010892	-0.0525	-0.2685	0.087	0	3	1035	1
2026-02-11	15:58:11.650	1.225	-0.56	0.28	0.060268	0.021228	1.00894	-0.054	-0.27	0.087	0	3	1035	1
2026-02-11	15:58:11.670	1.225	-0.56	0.28	0.057828	0.021716	1.011136	-0.054	-0.2685	0.0885	0	3	1035	1
2026-02-11	15:58:11.690	1.225	-0.56	0.245	0.056364	0.027084	1.01382	-0.0555	-0.2685	0.09	0	3	1035	1
2026-02-11	15:58:11.710	1.26	-0.595	0.245	0.059536	0.021228	1.011624	-0.0585	-0.273	0.09	0	3	1035	1
2026-02-11	15:58:11.730	1.225	-0.525	0.28	0.05612	0.024644	1.011624	-0.06	-0.2715	0.09	0	3	1035	1
2026-02-11	15:58:11.750	1.225	-0.525	0.245	0.059536	0.02196	1.01504	-0.057	-0.261	0.0885	0	3	1035	1
2026-02-11	15:58:11.770	1.26	-0.595	0.245	0.060512	0.022692	1.014064	-0.0555	-0.264	0.084	0	3	1035	1
2026-02-11	15:58:11.790	1.26	-0.56	0.28	0.053192	0.02196	1.013576	-0.057	-0.2715	0.087	0	3	1035	1
2026-02-11	15:58:11.810	1.225	-0.525	0.245	0.05856	0.018788	1.012356	-0.0555	-0.2685	0.093	0	3	1035	1
2026-02-11	15:58:11.830	1.225	-0.595	0.28	0.057584	0.01952	1.011868	-0.0555	-0.2655	0.0915	0	3	1035	1
2026-02-11	15:58:11.850	1.295	-0.56	0.28	0.05368	0.021716	1.01016	-0.054	-0.264	0.09	0	3	1035	1
2026-02-11	15:58:11.870	1.26	-0.525	0.28	0.05734	0.02196	1.012356	-0.048	-0.2625	0.093	0	3	1035	1
2026-02-11	15:58:11.890	1.26	-0.56	0.245	0.053436	0.023424	1.013088	-0.0525	-0.264	0.0945	0	3	1035	1
2026-02-11	15:58:11.910	1.26	-0.595	0.28	0.054412	0.021716	1.012844	-0.0585	-0.27	0.0945	0	3	1035	1
2026-02-11	15:58:11.930	1.26	-0.525	0.28	0.057828	0.025132	1.0126	-0.057	-0.2715	0.093	0	3	1035	1
2026-02-11	15:58:11.950	1.295	-0.525	0.315	0.055388	0.020008	1.011624	-0.0525	-0.2685	0.0885	0	3	1035	1
2026-02-11	15:58:11.970	1.26	-0.56	0.28	0.054168	0.022204	1.011624	-0.0525	-0.2685	0.0855	0	3	1035	1
2026-02-11	15:58:11.990	1.225	-0.56	0.245	0.053924	0.021716	1.011868	-0.054	-0.2745	0.0855	0	3	1035	1
2026-02-11	15:58:12.010	1.225	-0.56	0.245	0.061488	0.020496	1.009916	-0.054	-0.273	0.087	0	3	1035	1
2026-02-11	15:58:12.030	1.26	-0.56	0.28	0.057096	0.022448	1.012356	-0.051	-0.2655	0.0885	0	3	1035	1
2026-02-11	15:58:12.050	1.26	-0.525	0.245	0.055876	0.022936	1.013088	-0.048	-0.261	0.0885	0	3	1035	1
2026-02-11	15:58:12.070	1.225	-0.56	0.245	0.05246	0.021472	1.012112	-0.048	-0.261	0.0885	0	3	1035	1
2026-02-11	15:58:12.090	1.225	-0.56	0.245	0.0549	0.02074	1.011624	-0.048	-0.261	0.0885	0	3	1035	1
2026-02-11	15:58:12.110	1.225	-0.56	0.245	0.058072	0.02318	1.009916	-0.048	-0.261	0.0885	0	3	1035	1
2026-02-11	15:58:12.130	1.295	-0.525	0.245	0.056608	0.021472	1.015284	-0.0465	-0.264	0.09	0	3	1035	1
2026-02-11	15:58:12.150	1.26	-0.525	0.245	0.055144	0.01952	1.014308	-0.0465	-0.267	0.093	0	3	1035	1
2026-02-11	15:58:12.170	1.225	-0.525	0.245	0.056852	0.021716	1.012844	-0.051	-0.2715	0.0915	0	3	1035	1
2026-02-11	15:58:12.190	1.26	-0.595	0.28	0.056364	0.021228	1.012356	-0.0525	-0.276	0.0885	0	3	1035	1
2026-02-11	15:58:12.210	1.225	-0.56	0.28	0.053192	0.0183	1.009672	-0.0525	-0.2715	0.09	0	3	1035	1
2026-02-11	15:58:12.230	1.26	-0.56	0.28	0.057096	0.021228	1.01504	-0.0525	-0.267	0.0915	0	3	1035	1
2026-02-11	15:58:12.250	1.225	-0.525	0.28	0.056608	0.019032	1.011868	-0.051	-0.2685	0.0885	0	3	1035	1
2026-02-11	15:58:12.270	1.225	-0.56	0.28	0.0549	0.022204	1.011868	-0.0555	-0.2715	0.0885	0	3	1035	1
2026-02-11	15:58:12.290	1.26	-0.56	0.28	0.056852	0.021716	1.016016	-0.057	-0.273	0.0915	0	3	1035	1
2026-02-11	15:58:12.310	1.225	-0.56	0.28	0.055144	0.022448	1.012112	-0.054	-0.2685	0.093	0	3	1035	1
2026-02-11	15:58:12.330	1.26	-0.595	0.245	0.055632	0.020496	1.01382	-0.051	-0.267	0.09	0	3	1035	1
2026-02-11	15:58:12.350	1.26	-0.56	0.245	0.05734	0.020496	1.009184	-0.048	-0.273	0.093	0	3	1035	1
2026-02-11	15:58:12.370	1.26	-0.56	0.28	0.055144	0.021716	1.011624	-0.0435	-0.273	0.093	0	3	1035	1
2026-02-11	15:58:12.390	1.26	-0.56	0.28	0.056852	0.017812	1.012356	-0.051	-0.2685	0.0915	0	3	1035	1
2026-02-11	15:58:12.410	1.225	-0.56	0.245	0.056608	0.020496	1.0126	-0.057	-0.267	0.0915	0	3	1035	1
2026-02-11	15:58:12.430	1.26	-0.595	0.28	0.056852	0.021472	1.01382	-0.0555	-0.264	0.09	0	3	1035	1
2026-02-11	15:58:12.450	1.225	-0.56	0.245	0.055388	0.020984	1.010892	-0.057	-0.2685	0.0915	0	3	1035	1
2026-02-11	15:58:12.470	1.26	-0.525	0.28	0.057828	0.022936	1.011624	-0.0555	-0.27	0.09	0	3	1035	1
2026-02-11	15:58:12.490	1.26	-0.56	0.245	0.055388	0.018788	1.009916	-0.057	-0.2655	0.093	0	3	1035	1
2026-02-11	15:58:12.510	1.225	-0.56	0.28	0.059536	0.024644	1.014064	-0.0525	-0.273	0.0885	0	3	1035	1
2026-02-11	15:58:12.530	1.26	-0.595	0.28	0.055144	0.022936	1.013088	-0.048	-0.27	0.0825	0	3	1035	1
2026-02-11	15:58:12.550	1.26	-0.56	0.245	0.059536	0.023912	1.011624	-0.051	-0.267	0.09	0	3	1035	1
2026-02-11	15:58:12.570	1.26	-0.525	0.245	0.058316	0.020008	1.014064	-0.051	-0.2715	0.0945	0	3	1035	1
2026-02-11	15:58:12.590	1.26	-0.525	0.245	0.055388	0.021472	1.012112	-0.051	-0.2685	0.0945	0	3	1035	1
2026-02-11	15:58:12.610	1.26	-0.56	0.245	0.057096	0.02196	1.00894	-0.054	-0.2655	0.0945	0	3	1035	1
2026-02-11	15:58:12.630	1.26	-0.56	0.28	0.053924	0.022692	1.011868	-0.0555	-0.2625	0.093	0	3	1035	1
2026-02-11	15:58:12.650	1.26	-0.56	0.245	0.056852	0.025132	1.014308	-0.0555	-0.2655	0.0915	0	3	1035	1
2026-02-11	15:58:12.670	1.26	-0.56	0.245	0.054412	0.022692	1.013332	-0.0555	-0.27	0.093	0	3	1035	1
2026-02-11	15:58:12.690	1.225	-0.56	0.245	0.05612	0.020252	1.009428	-0.057	-0.2715	0.0915	0	3	1035	1
2026-02-11	15:58:12.710	1.26	-0.525	0.245	0.054656	0.021472	1.009428	-0.0525	-0.2715	0.09	0	3	1035	1
2026-02-11	15:58:12.730	1.26	-0.56	0.28	0.058316	0.021472	1.010892	-0.0525	-0.2715	0.093	0	3	1035	1
2026-02-11	15:58:12.750	1.295	-0.56	0.28	0.057584	0.020496	1.014308	-0.0555	-0.2715	0.093	0	3	1035	1
2026-02-11	15:58:12.770	1.26	-0.595	0.28	0.0549	0.021228	1.011868	-0.0555	-0.2685	0.09	0	3	1035	1
2026-02-11	15:58:12.790	1.26	-0.56	0.28	0.059292	0.022936	1.010404	-0.051	-0.27	0.0915	0	3	1035	1
2026-02-11	15:58:12.810	1.26	-0.56	0.245	0.055632	0.019764	1.01382	-0.048	-0.27	0.0915	0	3	1035	1
2026-02-11	15:58:12.830	1.26	-0.56	0.28	0.057096	0.02074	1.0126	-0.051	-0.27	0.0915	0	3	1035	1
2026-02-11	15:58:12.850	1.26	-0.56	0.245	0.0549	0.0183	1.0126	-0.0555	-0.2715	0.0915	0	3	1035	1
2026-02-11	15:58:12.870	1.295	-0.56	0.28	0.059536	0.020496	1.013088	-0.0585	-0.273	0.09	0	3	1035	1
2026-02-11	15:58:12.890	1.295	-0.595	0.28	0.056364	0.021716	1.011624	-0.054	-0.273	0.09	0	3	1035	1
2026-02-11	15:58:12.910	1.26	-0.56	0.28	0.055876	0.022692	1.01138	-0.0495	-0.27	0.0945	0	3	1035	1
2026-02-11	15:58:12.930	1.26	-0.56	0.28	0.05734	0.02196	1.013332	-0.0525	-0.273	0.093	0	3	1035	1
2026-02-11	15:58:12.950	1.26	-0.56	0.28	0.055876	0.020984	1.012356	-0.0525	-0.2715	0.09	0	3	1035	1
2026-02-11	15:58:12.970	1.295	-0.56	0.315	0.055388	0.024156	1.013332	-0.051	-0.2655	0.093	0	3	1035	1
2026-02-11	15:58:12.990	1.26	-0.56	0.21	0.0549	0.023668	1.011868	-0.0525	-0.2685	0.0945	0	3	1035	1
2026-02-11	15:58:13.010	1.225	-0.525	0.21	0.057584	0.022936	1.013576	-0.051	-0.267	0.0945	0	2	1035	1
2026-02-11	15:58:13.030	1.19	-0.525	0.245	0.055144	0.024156	1.012356	-0.054	-0.2625	0.0915	0	2	1035	1
2026-02-11	15:58:13.050	1.26	-0.56	0.245	0.05734	0.0244	1.012356	-0.054	-0.2625	0.09	0	2	1035	1
2026-02-11	15:58:13.070	1.26	-0.595	0.28	0.054656	0.023668	1.014064	-0.0495	-0.2685	0.0855	0	2	1035	1
2026-02-11	15:58:13.090	1.225	-0.56	0.28	0.057096	0.020984	1.011136	-0.0495	-0.273	0.09	0	2	1035	1
2026-02-11	15:58:13.110	1.225	-0.525	0.28	0.056852	0.02318	1.009672	-0.0465	-0.267	0.0975	0	2	1035	1
2026-02-11	15:58:13.130	1.225	-0.56	0.28	0.056608	0.02074	1.01382	-0.048	-0.2685	0.093	0	2	1035	1
2026-02-11	15:58:13.150	1.26	-0.595	0.28	0.052216	0.01952	1.012112	-0.0525	-0.2745	0.0945	0	2	1035	1
2026-02-11	15:58:13.170	1.26	-0.56	0.28	0.055632	0.020496	1.011624	-0.051	-0.2745	0.0945	0	2	1035	1
2026-02-11	15:58:13.190	1.26	-0.56	0.28	0.058316	0.021228	1.0126	-0.054	-0.2685	0.096	0	2	1035	1
2026-02-11	15:58:13.210	1.26	-0.56	0.28	0.061732	0.020984	1.012356	-0.0525	-0.273	0.0945	0	2	1035	1
2026-02-11	15:58:13.230	1.26	-0.56	0.28	0.059048	0.025132	1.0126	-0.0525	-0.273	0.0945	0	2	1035	1
2026-02-11	15:58:13.250	1.295	-0.595	0.245	0.055876	0.021716	1.011624	-0.0525	-0.273	0.0855	0	2	1035	1
2026-02-11	15:58:13.270	1.26	-0.595	0.245	0.060756	0.022448	1.009672	-0.0525	-0.273	0.0855	0	2	1035	1
2026-02-11	15:58:13.290	1.26	-0.56	0.21	0.057096	0.025132	1.011868	-0.0525	-0.273	0.0855	0	2	1035	1
2026-02-11	15:58:13.310	1.295	-0.56	0.28	0.05612	0.023668	1.013576	-0.0525	-0.2715	0.0915	0	2	1035	1
2026-02-11	15:58:13.330	1.225	-0.56	0.28	0.055876	0.022204	1.014552	-0.051	-0.2715	0.093	0	2	1035	1
2026-02-11	15:58:13.350	1.26	-0.56	0.245	0.057096	0.022692	1.011624	-0.051	-0.2715	0.087	0	2	1035	1
2026-02-11	15:58:13.370	1.225	-0.56	0.28	0.056608	0.022692	1.014552	-0.0555	-0.27	0.081	0	2	1035	1
2026-02-11	15:58:13.390	1.26	-0.56	0.28	0.05612	0.023668	1.011868	-0.0525	-0.27	0.0855	0	2	1035	1
2026-02-11	15:58:13.410	1.295	-0.595	0.245	0.056608	0.020984	1.014796	-0.051	-0.27	0.0915	0	2	1035	1
2026-02-11	15:58:13.430	1.26	-0.595	0.28	0.056852	0.023668	1.013576	-0.051	-0.2715	0.0945	0	2	1035	1
2026-02-11	15:58:13.450	1.295	-0.56	0.245	0.055388	0.022936	1.012112	-0.051	-0.2715	0.0915	0	2	1035	1
2026-02-11	15:58:13.470	1.26	-0.525	0.28	0.0549	0.019276	1.014796	-0.0525	-0.27	0.09	0	2	1035	1
2026-02-11	15:58:13.490	1.26	-0.525	0.245	0.056852	0.021716	1.012356	-0.0495	-0.2685	0.093	0	2	1035	1
2026-02-11	15:58:13.510	1.295	-0.595	0.315	0.057096	0.0183	1.012356	-0.0495	-0.27	0.093	0	2	1035	1
2026-02-11	15:58:13.530	1.225	-0.595	0.28	0.053192	0.017812	1.012844	-0.0525	-0.2715	0.0915	0	2	1035	1
2026-02-11	15:58:13.550	1.26	-0.56	0.21	0.054412	0.020496	1.012356	-0.0525	-0.267	0.09	0	2	1035	1
2026-02-11	15:58:13.570	1.26	-0.56	0.315	0.056364	0.022204	1.009428	-0.0495	-0.2685	0.09	0	2	1035	1
2026-02-11	15:58:13.590	1.225	-0.56	0.245	0.057584	0.023668	1.010648	-0.054	-0.2715	0.0885	0	2	1035	1
2026-02-11	15:58:13.610	1.295	-0.56	0.245	0.056364	0.021472	1.0126	-0.054	-0.273	0.09	0	2	1035	1
2026-02-11	15:58:13.630	1.26	-0.56	0.28	0.055876	0.02196	1.01382	-0.057	-0.27	0.0885	0	2	1035	1
2026-02-11	15:58:13.650	1.26	-0.56	0.28	0.057828	0.022204	1.010404	-0.054	-0.2715	0.09	0	2	1035	1
2026-02-11	15:58:13.670	1.225	-0.56	0.245	0.056364	0.017812	1.014064	-0.054	-0.273	0.0915	0	2	1035	1
2026-02-11	15:58:13.690	1.26	-0.56	0.245	0.057828	0.020008	1.011136	-0.054	-0.27	0.0915	0	2	1035	1
2026-02-11	15:58:13.710	1.26	-0.595	0.28	0.058804	0.01952	1.014064	-0.0555	-0.267	0.0885	0	2	1035	1
2026-02-11	15:58:13.730	1.225	-0.56	0.245	0.059292	0.020496	1.010892	-0.0555	-0.267	0.084	0	2	1035	1
2026-02-11	15:58:13.750	1.26	-0.56	0.245	0.052948	0.018788	1.011624	-0.0525	-0.2655	0.0885	0	2	1035	1
2026-02-11	15:58:13.770	1.26	-0.56	0.245	0.058316	0.017324	1.014308	-0.0525	-0.264	0.093	0	2	1035	1
2026-02-11	15:58:13.790	1.26	-0.56	0.245	0.059536	0.023668	1.014064	-0.054	-0.264	0.093	0	2	1035	1
2026-02-11	15:58:13.810	1.295	-0.56	0.28	0.054168	0.023668	1.01382	-0.0525	-0.264	0.0915	0	2	1035	1
2026-02-11	15:58:13.830	1.26	-0.595	0.28	0.05612	0.020496	1.01138	-0.0525	-0.264	0.0915	0	2	1035	1
2026-02-11	15:58:13.850	1.26	-0.56	0.28	0.055876	0.020496	1.011868	-0.0555	-0.2655	0.09	0	2	1035	1
2026-02-11	15:58:13.870	1.225	-0.525	0.245	0.05856	0.02196	1.014308	-0.06	-0.267	0.09	0	2	1035	1
2026-02-11	15:58:13.890	1.295	-0.595	0.28	0.055876	0.024644	1.012844	-0.0555	-0.273	0.0915	0	2	1035	1
2026-02-11	15:58:13.910	1.225	-0.595	0.28	0.058316	0.019032	1.013576	-0.0495	-0.273	0.09	0	2	1035	1
2026-02-11	15:58:13.930	1.225	-0.56	0.245	0.055144	0.0244	1.010648	-0.051	-0.267	0.093	0	2	1035	1
2026-02-11	15:58:13.950	1.295	-0.56	0.245	0.059048	0.022204	1.011624	-0.057	-0.2655	0.09	0	2	1035	1
2026-02-11	15:58:13.970	1.295	-0.56	0.28	0.053924	0.022692	1.01138	-0.057	-0.2655	0.084	0	2	1035	1
2026-02-11	15:58:13.990	1.26	-0.525	0.245	0.059292	0.019764	1.011624	-0.0525	-0.2655	0.087	0	2	1035	1
2026-02-11	15:58:14.010	1.225	-0.595	0.245	0.057584	0.020496	1.011868	-0.0525	-0.2655	0.0915	0	2	1035	1
2026-02-11	15:58:14.030	1.225	-0.56	0.245	0.055632	0.02074	1.01138	-0.051	-0.264	0.0825	0	2	1035	1
2026-02-11	15:58:14.050	1.225	-0.56	0.28	0.056364	0.021228	1.012356	-0.048	-0.2685	0.081	0	2	1035	1
2026-02-11	15:58:14.070	1.26	-0.56	0.28	0.056608	0.021228	1.0126	-0.048	-0.2745	0.093	0	2	1035	1
2026-02-11	15:58:14.090	1.225	-0.56	0.28	0.053924	0.02318	1.011624	-0.0495	-0.27	0.0915	0	2	1035	1
2026-02-11	15:58:14.110	1.26	-0.56	0.245	0.059048	0.021716	1.011868	-0.0525	-0.267	0.0855	0	2	1035	1
2026-02-11	15:58:14.130	1.295	-0.56	0.245	0.056608	0.022448	1.0126	-0.048	-0.2685	0.0885	0	2	1035	1
2026-02-11	15:58:14.150	1.295	-0.56	0.245	0.05734	0.021716	1.012356	-0.048	-0.267	0.0885	0	2	1035	1
2026-02-11	15:58:14.170	1.225	-0.56	0.28	0.05734	0.0183	1.010648	-0.0495	-0.27	0.087	0	2	1035	1
2026-02-11	15:58:14.190	1.225	-0.56	0.245	0.056608	0.019276	1.011624	-0.054	-0.2715	0.0915	0	2	1035	1
2026-02-11	15:58:14.210	1.295	-0.56	0.245	0.056364	0.020252	1.012844	-0.0585	-0.27	0.0945	0	2	1035	1
2026-02-11	15:58:14.230	1.26	-0.595	0.28	0.05978	0.022692	1.013576	-0.0585	-0.273	0.096	0	2	1035	1
2026-02-11	15:58:14.250	1.26	-0.56	0.245	0.053924	0.020984	1.010648	-0.0585	-0.273	0.096	0	2	1035	1
2026-02-11	15:58:14.270	1.26	-0.56	0.245	0.061976	0.022692	1.012112	-0.0555	-0.2685	0.0915	0	2	1035	1
2026-02-11	15:58:14.290	1.225	-0.56	0.21	0.055876	0.019764	1.013088	-0.0555	-0.2685	0.0915	0	2	1035	1
2026-02-11	15:58:14.310	1.225	-0.56	0.245	0.055632	0.020496	1.012112	-0.0495	-0.27	0.0975	0	2	1035	1
2026-02-11	15:58:14.330	1.225	-0.56	0.28	0.054656	0.022692	1.010892	-0.057	-0.2745	0.093	0	2	1035	1
2026-02-11	15:58:14.350	1.26	-0.56	0.28	0.058316	0.021228	1.010648	-0.054	-0.2715	0.09	0	2	1035	1
2026-02-11	15:58:14.370	1.26	-0.56	0.28	0.059536	0.021228	1.012112	-0.0555	-0.2745	0.0975	0	2	1035	1
2026-02-11	15:58:14.390	1.26	-0.56	0.28	0.060024	0.022936	1.011868	-0.048	-0.276	0.087	0	2	1035	1
2026-02-11	15:58:14.410	1.26	-0.56	0.28	0.055876	0.022204	1.012112	-0.057	-0.2685	0.0915	0	2	1035	1
2026-02-11	15:58:14.430	1.26	-0.56	0.28	0.05612	0.02074	1.012844	-0.0525	-0.264	0.096	0	2	1035	1
2026-02-11	15:58:14.450	1.225	-0.56	0.245	0.058072	0.02318	1.013088	-0.0525	-0.264	0.096	0	2	1035	1
2026-02-11	15:58:14.470	1.26	-0.56	0.28	0.060024	0.020008	1.011868	-0.0525	-0.264	0.096	0	2	1035	1
2026-02-11	15:58:14.490	1.225	-0.56	0.28	0.055876	0.022448	1.01504	-0.054	-0.2655	0.0915	0	2	1035	1
2026-02-11	15:58:14.510	1.26	-0.525	0.245	0.052704	0.01952	1.014552	-0.0525	-0.2655	0.09	0	2	1035	1
2026-02-11	15:58:14.530	1.295	-0.56	0.245	0.05734	0.0183	1.015528	-0.051	-0.264	0.093	0	2	1035	1
2026-02-11	15:58:14.550	1.26	-0.63	0.28	0.05978	0.023912	1.0065	-0.0525	-0.264	0.093	0	2	1035	1
2026-02-11	15:58:14.570	1.295	-0.455	0.28	0.058072	0.024888	1.01382	-0.051	-0.264	0.09	0	2	1035	1
2026-02-11	15:58:14.590	1.26	-0.525	0.28	0.054412	0.020984	1.017968	-0.0525	-0.2685	0.087	0	2	1035	1
2026-02-11	15:58:14.610	1.26	-0.665	0.28	0.05612	0.024156	1.008208	-0.0525	-0.2655	0.084	0	2	1035	1
2026-02-11	15:58:14.630	1.295	-0.56	0.245	0.058072	0.023912	1.009184	-0.0525	-0.267	0.0855	0	2	1035	1
2026-02-11	15:58:14.650	1.26	-0.525	0.245	0.059292	0.023424	1.014552	-0.054	-0.27	0.0915	0	2	1035	1
2026-02-11	15:58:14.670	1.225	-0.56	0.28	0.050508	0.0183	1.0126	-0.051	-0.2685	0.093	0	2	1035	1
2026-02-11	15:58:14.690	1.26	-0.56	0.245	0.054656	0.02074	1.015284	-0.0525	-0.2655	0.0915	0	2	1035	1
2026-02-11	15:58:14.710	1.225	-0.63	0.245	0.055632	0.02074	1.010648	-0.06	-0.267	0.087	0	2	1035	1
2026-02-11	15:58:14.730	1.26	-0.595	0.28	0.060024	0.023424	1.008696	-0.06	-0.2685	0.084	0	2	1035	1
2026-02-11	15:58:14.750	1.26	-0.525	0.28	0.057096	0.022936	1.012112	-0.0585	-0.264	0.0855	0	2	1035	1
2026-02-11	15:58:14.770	1.26	-0.56	0.245	0.056364	0.02196	1.0126	-0.054	-0.2655	0.0915	0	2	1035	1
2026-02-11	15:58:14.790	1.26	-0.595	0.28	0.054168	0.021472	1.013332	-0.048	-0.267	0.0975	0	2	1035	1
2026-02-11	15:58:14.810	1.26	-0.595	0.28	0.054656	0.02318	1.012112	-0.051	-0.2685	0.093	0	2	1035	1
2026-02-11	15:58:14.830	1.26	-0.56	0.245	0.0549	0.022692	1.014064	-0.0525	-0.27	0.0885	0	2	1035	1
2026-02-11	15:58:14.850	1.26	-0.56	0.245	0.058804	0.021716	1.010892	-0.051	-0.27	0.0915	0	2	1035	1
2026-02-11	15:58:14.870	1.225	-0.56	0.245	0.057096	0.026352	1.012356	-0.0585	-0.2685	0.0885	0	2	1035	1
2026-02-11	15:58:14.890	1.26	-0.56	0.245	0.054168	0.024644	1.0126	-0.063	-0.2685	0.087	0	2	1035	1
2026-02-11	15:58:14.910	1.26	-0.525	0.28	0.056852	0.023912	1.014552	-0.06	-0.2715	0.09	0	2	1035	1
2026-02-11	15:58:14.930	1.225	-0.56	0.245	0.056608	0.022936	1.0126	-0.06	-0.2715	0.09	0	2	1035	1
2026-02-11	15:58:14.950	1.225	-0.525	0.245	0.055388	0.022448	1.010892	-0.0585	-0.2655	0.09	0	2	1035	1
2026-02-11	15:58:14.970	1.26	-0.525	0.28	0.05124	0.02318	1.01504	-0.0555	-0.27	0.087	0	2	1035	1
2026-02-11	15:58:14.990	1.26	-0.56	0.28	0.055876	0.023912	1.009184	-0.054	-0.27	0.0885	0	2	1035	1
2026-02-11	15:58:15.010	1.26	-0.56	0.315	0.057584	0.025132	1.012844	-0.054	-0.267	0.0915	0	2	1035	1
2026-02-11	15:58:15.030	1.26	-0.56	0.28	0.05734	0.018056	1.013088	-0.0525	-0.2685	0.0885	0	2	1035	1
2026-02-11	15:58:15.050	1.26	-0.56	0.245	0.052948	0.02074	1.010648	-0.057	-0.27	0.09	0	2	1035	1
2026-02-11	15:58:15.070	1.26	-0.56	0.28	0.05978	0.024644	1.013576	-0.057	-0.2745	0.0945	0	2	1035	1
2026-02-11	15:58:15.090	1.26	-0.595	0.245	0.057096	0.02318	1.013088	-0.0525	-0.27	0.0915	0	2	1035	1
2026-02-11	15:58:15.110	1.225	-0.56	0.245	0.05734	0.021716	1.00894	-0.051	-0.27	0.0915	0	2	1035	1
2026-02-11	15:58:15.130	1.26	-0.56	0.28	0.058316	0.020984	1.01016	-0.0525	-0.27	0.0915	0	2	1035	1
2026-02-11	15:58:15.150	1.225	-0.49	0.28	0.052948	0.020496	1.016016	-0.0555	-0.267	0.0885	0	2	1035	1
2026-02-11	15:58:15.170	1.295	-0.56	0.28	0.055876	0.019032	1.012112	-0.0555	-0.267	0.0945	0	2	1035	1
2026-02-11	15:58:15.190	1.26	-0.63	0.28	0.05612	0.019764	1.011136	-0.057	-0.267	0.0945	0	2	1035	1
2026-02-11	15:58:15.210	1.26	-0.56	0.28	0.060268	0.020984	1.009916	-0.057	-0.267	0.09	0	2	1035	1
2026-02-11	15:58:15.230	1.26	-0.56	0.28	0.056608	0.01952	1.014064	-0.054	-0.261	0.0885	0	2	1035	1
2026-02-11	15:58:15.250	1.26	-0.56	0.315	0.05612	0.023424	1.010404	-0.0555	-0.267	0.0915	0	2	1035	1
2026-02-11	15:58:15.270	1.26	-0.595	0.28	0.058316	0.02196	1.013332	-0.054	-0.273	0.096	0	2	1035	1
2026-02-11	15:58:15.290	1.26	-0.56	0.28	0.056364	0.021716	1.014064	-0.0525	-0.27	0.099	0	2	1035	1
2026-02-11	15:58:15.310	1.225	-0.56	0.28	0.056364	0.022204	1.007964	-0.0525	-0.27	0.099	0	2	1035	1
2026-02-11	15:58:15.330	1.26	-0.525	0.28	0.058072	0.02074	1.01504	-0.048	-0.267	0.081	0	2	1035	1
2026-02-11	15:58:15.350	1.26	-0.56	0.245	0.05734	0.022204	1.014552	-0.048	-0.267	0.081	0	2	1035	1
2026-02-11	15:58:15.370	1.26	-0.56	0.28	0.05368	0.02074	1.014064	-0.0615	-0.258	0.0915	0	2	1035	1
2026-02-11	15:58:15.390	1.26	-0.56	0.28	0.055632	0.02074	1.013088	-0.0525	-0.27	0.09	0	2	1035	1
2026-02-11	15:58:15.410	1.225	-0.595	0.315	0.060756	0.01952	1.013576	-0.051	-0.2685	0.0915	0	2	1035	1
2026-02-11	15:58:15.430	1.19	-0.56	0.245	0.058316	0.021716	1.010892	-0.0495	-0.2595	0.0915	0	2	1035	1
2026-02-11	15:58:15.450	1.26	-0.56	0.245	0.051972	0.022448	1.011868	-0.051	-0.267	0.0945	0	2	1035	1
2026-02-11	15:58:15.470	1.26	-0.56	0.28	0.058072	0.01952	1.013088	-0.057	-0.264	0.0945	0	2	1035	1
2026-02-11	15:58:15.490	1.295	-0.56	0.28	0.055144	0.01952	1.01138	-0.0555	-0.2685	0.0915	0	2	1035	1
2026-02-11	15:58:15.510	1.225	-0.56	0.21	0.055144	0.020984	1.013088	-0.0495	-0.267	0.1005	0	2	1035	1
2026-02-11	15:58:15.530	1.26	-0.525	0.28	0.058804	0.021228	1.013332	-0.057	-0.273	0.0915	0	2	1035	1
2026-02-11	15:58:15.550	1.26	-0.525	0.28	0.057096	0.024156	1.010648	-0.0555	-0.27	0.0885	0	2	1035	1
2026-02-11	15:58:15.570	1.225	-0.56	0.28	0.057828	0.023912	1.012112	-0.048	-0.264	0.0855	0	2	1035	1
2026-02-11	15:58:15.590	1.26	-0.56	0.245	0.058072	0.022692	1.011868	-0.06	-0.273	0.096	0	2	1035	1
2026-02-11	15:58:15.610	1.295	-0.56	0.28	0.053192	0.021472	1.012844	-0.0525	-0.27	0.093	0	2	1035	1
2026-02-11	15:58:15.630	1.26	-0.56	0.28	0.058804	0.023668	1.014308	-0.057	-0.2745	0.087	0	2	1035	1
2026-02-11	15:58:15.650	1.295	-0.56	0.28	0.054656	0.019764	1.013088	-0.0525	-0.282	0.0885	0	2	1035	1
2026-02-11	15:58:15.670	1.26	-0.56	0.28	0.056852	0.021716	1.012356	-0.0615	-0.276	0.0885	0	2	1035	1
2026-02-11	15:58:15.690	1.225	-0.56	0.245	0.055388	0.02196	1.0126	-0.051	-0.27	0.0855	0	2	1035	1
2026-02-11	15:58:15.710	1.26	-0.56	0.28	0.05612	0.022204	1.013088	-0.051	-0.27	0.0855	0	2	1035	1
2026-02-11	15:58:15.730	1.26	-0.56	0.245	0.056852	0.018788	1.013332	-0.051	-0.27	0.0855	0	2	1035	1
2026-02-11	15:58:15.750	1.26	-0.56	0.28	0.056852	0.019764	1.012356	-0.0525	-0.27	0.0885	0	2	1035	1
2026-02-11	15:58:15.770	1.225	-0.56	0.245	0.055632	0.021228	1.010648	-0.0555	-0.267	0.09	0	2	1035	1
2026-02-11	15:58:15.790	1.295	-0.56	0.28	0.058072	0.020984	1.012844	-0.0555	-0.267	0.087	0	2	1035	1
2026-02-11	15:58:15.810	1.26	-0.525	0.28	0.055144	0.017568	1.010648	-0.054	-0.27	0.0915	0	2	1035	1
2026-02-11	15:58:15.830	1.26	-0.525	0.245	0.056364	0.020252	1.011136	-0.0525	-0.2685	0.093	0	2	1035	1
2026-02-11	15:58:15.850	1.26	-0.56	0.245	0.0549	0.021472	1.012844	-0.0555	-0.267	0.0885	0	2	1035	1
2026-02-11	15:58:15.870	1.225	-0.56	0.28	0.059292	0.022692	1.014064	-0.0525	-0.2685	0.09	0	2	1035	1
2026-02-11	15:58:15.890	1.26	-0.56	0.28	0.058316	0.020496	1.0126	-0.051	-0.267	0.093	0	2	1035	1
2026-02-11	15:58:15.910	1.26	-0.56	0.28	0.0549	0.02196	1.0126	-0.054	-0.2745	0.093	0	2	1035	1
2026-02-11	15:58:15.930	1.26	-0.56	0.245	0.056364	0.020252	1.01138	-0.0525	-0.2745	0.0945	0	2	1035	1
2026-02-11	15:58:15.950	1.26	-0.595	0.245	0.058072	0.022692	1.014552	-0.0555	-0.27	0.09	0	2	1035	1
