yyyy-MM-dd	HH:mm:ss.fff	gyrX	gyrY	gyrZ	accX	accY	accZ	magX	magY	magZ	Marker	Energy	Angle	Classification
2026-02-11	15:57:48.010	6.055	-123.83	-240.625	1.376648	-0.262544	0.429196	-0.843	0.0495	0.465	0	235	364	3
2026-02-11	15:57:48.030	30.03	-122.36	-221.445	1.33224	-0.2501	0.394548	-0.8325	0.0165	0.4785	0	235	364	3
2026-02-11	15:57:48.050	60.235	-118.72	-185.36	1.292468	-0.352824	0.442372	-0.816	-0.03	0.5025	0	235	364	3
2026-02-11	15:57:48.070	105.665	-103.18	-141.26	1.224148	-0.40138	0.568276	-0.7995	-0.0555	0.5205	0	235	364	3
2026-02-11	15:57:48.090	135.1	-81.795	-94.29	1.104344	-0.154696	0.54656	-0.7905	-0.0735	0.543	0	235	364	3
2026-02-11	15:57:48.110	111.09	-63.98	-54.04	1.031876	0.11956	0.430172	-0.783	-0.0825	0.564	0	235	364	3
2026-02-11	15:57:48.130	17.745	-51.1	-16.38	1.03578	0.246196	0.294996	-0.774	-0.0855	0.5715	0	235	364	3
2026-02-11	15:57:48.150	-53.13	-42.385	2.24	1.037488	0.193248	0.264008	-0.774	-0.0855	0.5715	0	235	364	3
2026-02-11	15:57:48.170	-110.005	-35.49	12.775	1.013576	0.177632	0.295972	-0.765	-0.09	0.5895	0	235	364	3
2026-02-11	15:57:48.190	-161.91	-27.93	18.305	0.970388	0.134688	0.334524	-0.765	-0.0945	0.594	0	235	364	3
2026-02-11	15:57:48.210	-209.475	-19.145	24.115	0.921832	0.022448	0.335988	-0.765	-0.102	0.5775	0	242	363	3
2026-02-11	15:57:48.230	-237.23	-11.095	30.94	0.888892	-0.097356	0.337208	-0.762	-0.0975	0.567	0	242	363	3
2026-02-11	15:57:48.250	-234.08	-6.72	37.905	0.894992	-0.185684	0.367952	-0.7635	-0.096	0.546	0	242	363	3
2026-02-11	15:57:48.270	-202.825	-3.99	43.715	0.93818	-0.225944	0.417972	-0.771	-0.1005	0.528	0	242	363	3
2026-02-11	15:57:48.290	-155.68	-0.14	49.105	0.957212	-0.21594	0.461892	-0.777	-0.105	0.5115	0	242	363	3
2026-02-11	15:57:48.310	-105.7	3.57	54.04	0.955748	-0.157136	0.491416	-0.7785	-0.1005	0.4995	0	242	363	3
2026-02-11	15:57:48.330	-61.005	7.49	59.115	0.962092	-0.08295999	0.508008	-0.78	-0.0945	0.489	0	242	363	3
2026-02-11	15:57:48.350	-25.305	11.725	63.035	0.970388	0.015616	0.534848	-0.7875	-0.093	0.4815	0	242	363	3
2026-02-11	15:57:48.370	-6.195	16.94	64.925	1.002108	0.102236	0.53558	-0.7965	-0.0855	0.4785	0	242	363	3
2026-02-11	15:57:48.390	0.28	22.995	65.485	1.035048	0.157868	0.523624	-0.7995	-0.075	0.474	0	242	363	3
2026-02-11	15:57:48.410	-10.85	32.655	65.03	0.995764	0.18666	0.47458	-0.7995	-0.072	0.4725	0	247	372	3
2026-02-11	15:57:48.430	-24.395	36.505	65.275	0.985272	0.169336	0.437492	-0.7995	-0.072	0.4725	0	247	372	3
2026-02-11	15:57:48.450	-26.285	40.46	61.565	0.986248	0.197152	0.455304	-0.807	-0.045	0.4605	0	247	372	3
2026-02-11	15:57:48.470	-26.74	46.095	53.655	0.998692	0.295972	0.503372	-0.8055	-0.0375	0.4605	0	247	372	3
2026-02-11	15:57:48.490	-84.84	50.015	41.93	1.023824	0.660752	0.56242	-0.819	-0.0315	0.4425	0	247	372	3
2026-02-11	15:57:48.510	-237.16	54.39	32.62	1.037976	0.69784	0.450912	-0.8175	-0.027	0.438	0	247	372	3
2026-02-11	15:57:48.530	-341.74	54.845	26.11	1.028216	0.284748	0.266936	-0.8175	-0.018	0.42	0	247	372	3
2026-02-11	15:57:48.550	-352.38	51.905	22.4	1.02236	-0.013908	0.226676	-0.8175	-0.006	0.396	0	247	372	3
2026-02-11	15:57:48.570	-330.68	49.315	22.645	0.984784	-0.055388	0.289628	-0.8145	0.0015	0.3705	0	247	372	3
2026-02-11	15:57:48.590	-314.055	47.985	23.45	0.926956	-0.178608	0.291336	-0.813	0.0135	0.3525	0	247	372	3
2026-02-11	15:57:48.610	-277.025	45.955	23.73	0.891576	-0.305244	0.279868	-0.8085	0.033	0.3315	0	252	386	3
2026-02-11	15:57:48.630	-228.445	43.155	22.085	0.868396	-0.274012	0.283772	-0.804	0.048	0.312	0	252	386	3
2026-02-11	15:57:48.650	-192.08	39.585	18.305	0.844972	-0.28914	0.260104	-0.8025	0.066	0.303	0	252	386	3
2026-02-11	15:57:48.670	-148.085	35.245	11.97	0.849608	-0.31232	0.260592	-0.8025	0.081	0.2925	0	252	386	3
2026-02-11	15:57:48.690	-96.145	31.01	1.19	0.8418	-0.305976	0.24034	-0.8055	0.084	0.288	0	252	386	3
2026-02-11	15:57:48.710	-52.85	26.565	-10.64	0.854732	-0.30622	0.216184	-0.8055	0.084	0.288	0	252	386	3
2026-02-11	15:57:48.730	-22.47	22.995	-19.81	0.868152	-0.327204	0.211548	-0.7965	0.105	0.2775	0	252	386	3
2026-02-11	15:57:48.750	12.88	20.335	-27.125	0.899872	-0.344284	0.208132	-0.795	0.099	0.2745	0	252	386	3
2026-02-11	15:57:48.770	59.29	18.55	-33.075	0.925248	-0.343796	0.199348	-0.795	0.0975	0.2625	0	252	386	3
2026-02-11	15:57:48.790	109.795	16.59	-38.08	0.936716	-0.314272	0.188124	-0.7875	0.0855	0.261	0	252	386	3
2026-02-11	15:57:48.810	152.95	12.845	-41.51	0.9333	-0.262788	0.17934	-0.7875	0.0795	0.267	0	257	380	3
2026-02-11	15:57:48.830	183.19	6.615	-43.96	0.973804	-0.20374	0.202032	-0.7845	0.063	0.273	0	257	380	3
2026-02-11	15:57:48.850	198.065	0.98	-45.64	1.017968	-0.134688	0.243268	-0.7815	0.045	0.27	0	257	380	3
2026-02-11	15:57:48.870	193.69	-3.15	-46.06	1.046028	-0.056852	0.263276	-0.783	0.0315	0.2775	0	257	380	3
2026-02-11	15:57:48.890	171.64	-7.91	-45.36	1.07482	0.005612	0.274744	-0.78	0.018	0.2895	0	257	380	3
2026-02-11	15:57:48.910	136.29	-12.46	-44.03	1.088972	0.048312	0.293532	-0.7755	0.003	0.297	0	257	380	3
2026-02-11	15:57:48.930	88.095	-17.045	-42.07	1.104832	0.079544	0.300852	-0.7725	-0.0105	0.303	0	257	380	3
2026-02-11	15:57:48.950	37.1	-22.995	-40.635	1.175348	0.066368	0.309636	-0.7695	-0.021	0.312	0	257	380	3
2026-02-11	15:57:48.970	-10.22	-29.61	-41.58	1.285392	0.021716	0.341112	-0.7695	-0.0255	0.318	0	257	380	3
2026-02-11	15:57:48.990	-38.78	-32.55	-42.805	1.282708	-0.016104	0.368928	-0.771	-0.027	0.318	0	257	380	3
2026-02-11	15:57:47.010	-129.64	-36.54	-66.15	0.762256	-0.12566	0.249124	-0.837	0.198	0.441	0	206	301	2
2026-02-11	15:57:47.030	-122.01	-48.3	-70.175	0.786656	-0.13176	0.245952	-0.8385	0.1875	0.4515	0	206	301	2
2026-02-11	15:57:47.050	-111.23	-62.825	-74.9	0.81862	-0.15372	0.275232	-0.8385	0.1755	0.4665	0	206	301	2
2026-02-11	15:57:47.070	-91.7	-78.085	-79.87	0.887184	-0.162748	0.347944	-0.843	0.168	0.477	0	206	301	2
2026-02-11	15:57:47.090	-61.845	-91.035	-84.105	0.970388	-0.182268	0.42578	-0.8475	0.1545	0.492	0	206	301	2
2026-02-11	15:57:47.110	-24.395	-101.885	-86.73	1.083116	-0.18178	0.455792	-0.8475	0.1455	0.5085	0	206	301	2
2026-02-11	15:57:47.130	17.045	-112.98	-87.36	1.283928	-0.205204	0.522892	-0.8445	0.132	0.5205	0	206	301	2
2026-02-11	15:57:47.150	72.975	-116.9	-85.54	1.41764	-0.206668	0.675392	-0.8385	0.117	0.5355	0	206	301	2
2026-02-11	15:57:47.170	119.98	-106.54	-74.025	1.287832	-0.12444	0.77592	-0.84	0.108	0.552	0	206	301	2
2026-02-11	15:57:47.190	131.635	-86.765	-51.87	1.074576	-0.039528	0.747128	-0.8355	0.1005	0.5685	0	206	301	2
2026-02-11	15:57:47.210	103.6	-67.025	-26.495	0.920612	0.102724	0.628788	-0.828	0.0975	0.5805	0	211	295	3
2026-02-11	15:57:47.230	55.265	-51.1	-5.04	0.83448	0.153476	0.545828	-0.8295	0.099	0.5955	0	211	295	3
2026-02-11	15:57:47.250	23.275	-37.03	14.105	0.93452	0.19642	0.53314	-0.8325	0.099	0.6045	0	211	295	3
2026-02-11	15:57:47.270	-15.085	-18.55	27.265	1.043344	0.30622	0.492392	-0.8295	0.1005	0.606	0	211	295	3
2026-02-11	15:57:47.290	-57.925	1.575	36.33	1.135332	0.290848	0.470188	-0.828	0.1035	0.6075	0	211	295	3
2026-02-11	15:57:47.310	-90.51	17.675	44.765	1.219024	0.212524	0.452864	-0.834	0.1035	0.609	0	211	295	3
2026-02-11	15:57:47.330	-110.215	34.3	52.22	1.281976	0.125172	0.455792	-0.831	0.1065	0.606	0	211	295	3
2026-02-11	15:57:47.350	-112.245	51.45	58.38	1.337852	0.07198	0.469456	-0.8295	0.1095	0.6	0	211	295	3
2026-02-11	15:57:47.370	-106.015	67.935	66.535	1.321504	0.023912	0.469212	-0.8325	0.111	0.591	0	211	295	3
2026-02-11	15:57:47.390	-91.595	83.335	76.16	1.258308	0.003904	0.47824	-0.8385	0.117	0.5805	0	211	295	3
2026-02-11	15:57:47.410	-71.82	97.58	84.455	1.189012	0.018544	0.500444	-0.8415	0.1245	0.5685	0	218	326	3
2026-02-11	15:57:47.430	-55.685	111.755	91.805	1.155584	0.058804	0.503616	-0.843	0.135	0.558	0	218	326	3
2026-02-11	15:57:47.450	-49.175	126.14	98.735	1.107272	0.10126	0.468968	-0.8475	0.1485	0.537	0	218	326	3
2026-02-11	15:57:47.470	-53.9	137.9	105.42	1.04676	0.13542	0.39528	-0.846	0.162	0.5145	0	218	326	3
2026-02-11	15:57:47.490	-65.695	143.99	109.62	1.002108	0.112484	0.328912	-0.8445	0.171	0.4995	0	218	326	3
2026-02-11	15:57:47.510	-70.35	144.55	109.865	1.000644	0.120048	0.305244	-0.8415	0.189	0.483	0	218	326	3
2026-02-11	15:57:47.530	-67.34	144.935	105.665	1.026508	0.12566	0.321836	-0.84	0.2085	0.4695	0	218	326	3
2026-02-11	15:57:47.550	-74.2	147.665	99.4	1.035048	0.106872	0.24766	-0.84	0.222	0.447	0	218	326	3
2026-02-11	15:57:47.570	-83.265	145.53	93.415	1.04432	0.076128	0.158356	-0.837	0.2295	0.4335	0	218	326	3
2026-02-11	15:57:47.590	-83.3	135.555	86.625	1.105076	0.072468	0.170068	-0.813	0.2655	0.402	0	218	326	3
2026-02-11	15:57:47.610	-82.53	123.165	79.8	1.0797	0.008784	0.192272	-0.8145	0.2715	0.3885	0	226	359	3
2026-02-11	15:57:47.630	-62.86	107.73	66.15	1.044076	0.04636	0.282552	-0.8025	0.2775	0.384	0	226	359	3
2026-02-11	15:57:47.650	-42.245	93.835	47.565	1.049932	0.101992	0.368196	-0.792	0.2925	0.3705	0	226	359	3
2026-02-11	15:57:47.670	-33.46	82.775	26.845	1.025776	0.121512	0.411872	-0.7875	0.3015	0.357	0	226	359	3
2026-02-11	15:57:47.690	-29.12	72.065	5.46	0.92842	0.150304	0.424072	-0.783	0.3045	0.348	0	226	359	3
2026-02-11	15:57:47.710	-31.78	59.325	-16.31	0.819108	0.157624	0.4026	-0.777	0.312	0.342	0	226	359	3
2026-02-11	15:57:47.730	-39.27	43.855	-37.275	0.7198	0.163236	0.388448	-0.771	0.3165	0.3405	0	226	359	3
2026-02-11	15:57:47.750	-51.135	27.335	-57.855	0.6466	0.2013	0.366976	-0.774	0.315	0.336	0	226	359	3
2026-02-11	15:57:47.770	-68.53	10.85	-78.225	0.604632	0.180072	0.330132	-0.774	0.3075	0.3375	0	226	359	3
2026-02-11	15:57:47.790	-88.935	-5.145	-98.28	0.586576	0.134444	0.286212	-0.7785	0.297	0.342	0	226	359	3
2026-02-11	15:57:47.810	-101.955	-21.56	-118.23	0.591456	0.070272	0.239608	-0.7875	0.2895	0.3435	0	231	369	3
2026-02-11	15:57:47.830	-105.525	-38.92	-138.635	0.631716	0.028548	0.230824	-0.795	0.288	0.3495	0	231	369	3
2026-02-11	15:57:47.850	-105.315	-65.66	-171.605	0.761524	-0.016836	0.243512	-0.798	0.288	0.357	0	231	369	3
2026-02-11	15:57:47.870	-105	-82.11	-194.985	0.870836	-0.033428	0.258884	-0.828	0.243	0.3765	0	231	369	3
2026-02-11	15:57:47.890	-107.31	-97.125	-217.42	0.989664	-0.052704	0.27694	-0.831	0.219	0.3855	0	231	369	3
2026-02-11	15:57:47.910	-111.79	-110.845	-236.53	1.126304	-0.100772	0.280112	-0.837	0.189	0.405	0	231	369	3
2026-02-11	15:57:47.930	-113.225	-122.185	-252.035	1.270508	-0.15494	0.315492	-0.8385	0.174	0.411	0	231	369	3
2026-02-11	15:57:47.950	-101.92	-129.325	-261.73	1.380064	-0.148352	0.402112	-0.8415	0.1395	0.429	0	231	369	3
2026-02-11	15:57:47.970	-83.58	-129.605	-264.39	1.462292	-0.260836	0.432612	-0.8475	0.099	0.444	0	231	369	3
2026-02-11	15:57:47.990	-40.6	-127.68	-259.875	1.459364	-0.195688	0.462624	-0.846	0.063	0.456	0	231	369	3
2026-02-11	15:57:48.010	6.055	-123.83	-240.625	1.376648	-0.262544	0.429196	-0.843	0.0495	0.465	0	235	364	3
2026-02-11	15:57:48.030	30.03	-122.36	-221.445	1.33224	-0.2501	0.394548	-0.8325	0.0165	0.4785	0	235	364	3
2026-02-11	15:57:48.050	60.235	-118.72	-185.36	1.292468	-0.352824	0.442372	-0.816	-0.03	0.5025	0	235	364	3
2026-02-11	15:57:48.070	105.665	-103.18	-141.26	1.224148	-0.40138	0.568276	-0.7995	-0.0555	0.5205	0	235	364	3
2026-02-11	15:57:48.090	135.1	-81.795	-94.29	1.104344	-0.154696	0.54656	-0.7905	-0.0735	0.543	0	235	364	3
2026-02-11	15:57:48.110	111.09	-63.98	-54.04	1.031876	0.11956	0.430172	-0.783	-0.0825	0.564	0	235	364	3
2026-02-11	15:57:48.130	17.745	-51.1	-16.38	1.03578	0.246196	0.294996	-0.774	-0.0855	0.5715	0	235	364	3
2026-02-11	15:57:48.150	-53.13	-42.385	2.24	1.037488	0.193248	0.264008	-0.774	-0.0855	0.5715	0	235	364	3
2026-02-11	15:57:48.170	-110.005	-35.49	12.775	1.013576	0.177632	0.295972	-0.765	-0.09	0.5895	0	235	364	3
2026-02-11	15:57:48.190	-161.91	-27.93	18.305	0.970388	0.134688	0.334524	-0.765	-0.0945	0.594	0	235	364	3
2026-02-11	15:57:48.210	-209.475	-19.145	24.115	0.921832	0.022448	0.335988	-0.765	-0.102	0.5775	0	242	363	3
2026-02-11	15:57:48.230	-237.23	-11.095	30.94	0.888892	-0.097356	0.337208	-0.762	-0.0975	0.567	0	242	363	3
2026-02-11	15:57:48.250	-234.08	-6.72	37.905	0.894992	-0.185684	0.367952	-0.7635	-0.096	0.546	0	242	363	3
2026-02-11	15:57:48.270	-202.825	-3.99	43.715	0.93818	-0.225944	0.417972	-0.771	-0.1005	0.528	0	242	363	3
2026-02-11	15:57:48.290	-155.68	-0.14	49.105	0.957212	-0.21594	0.461892	-0.777	-0.105	0.5115	0	242	363	3
2026-02-11	15:57:48.310	-105.7	3.57	54.04	0.955748	-0.157136	0.491416	-0.7785	-0.1005	0.4995	0	242	363	3
2026-02-11	15:57:48.330	-61.005	7.49	59.115	0.962092	-0.08295999	0.508008	-0.78	-0.0945	0.489	0	242	363	3
2026-02-11	15:57:48.350	-25.305	11.725	63.035	0.970388	0.015616	0.534848	-0.7875	-0.093	0.4815	0	242	363	3
2026-02-11	15:57:48.370	-6.195	16.94	64.925	1.002108	0.102236	0.53558	-0.7965	-0.0855	0.4785	0	242	363	3
2026-02-11	15:57:48.390	0.28	22.995	65.485	1.035048	0.157868	0.523624	-0.7995	-0.075	0.474	0	242	363	3
2026-02-11	15:57:48.410	-10.85	32.655	65.03	0.995764	0.18666	0.47458	-0.7995	-0.072	0.4725	0	247	372	3
2026-02-11	15:57:48.430	-24.395	36.505	65.275	0.985272	0.169336	0.437492	-0.7995	-0.072	0.4725	0	247	372	3
2026-02-11	15:57:48.450	-26.285	40.46	61.565	0.986248	0.197152	0.455304	-0.807	-0.045	0.4605	0	247	372	3
2026-02-11	15:57:48.470	-26.74	46.095	53.655	0.998692	0.295972	0.503372	-0.8055	-0.0375	0.4605	0	247	372	3
2026-02-11	15:57:48.490	-84.84	50.015	41.93	1.023824	0.660752	0.56242	-0.819	-0.0315	0.4425	0	247	372	3
2026-02-11	15:57:48.510	-237.16	54.39	32.62	1.037976	0.69784	0.450912	-0.8175	-0.027	0.438	0	247	372	3
2026-02-11	15:57:48.530	-341.74	54.845	26.11	1.028216	0.284748	0.266936	-0.8175	-0.018	0.42	0	247	372	3
2026-02-11	15:57:48.550	-352.38	51.905	22.4	1.02236	-0.013908	0.226676	-0.8175	-0.006	0.396	0	247	372	3
2026-02-11	15:57:48.570	-330.68	49.315	22.645	0.984784	-0.055388	0.289628	-0.8145	0.0015	0.3705	0	247	372	3
2026-02-11	15:57:48.590	-314.055	47.985	23.45	0.926956	-0.178608	0.291336	-0.813	0.0135	0.3525	0	247	372	3
2026-02-11	15:57:48.610	-277.025	45.955	23.73	0.891576	-0.305244	0.279868	-0.8085	0.033	0.3315	0	252	386	3
2026-02-11	15:57:48.630	-228.445	43.155	22.085	0.868396	-0.274012	0.283772	-0.804	0.048	0.312	0	252	386	3
2026-02-11	15:57:48.650	-192.08	39.585	18.305	0.844972	-0.28914	0.260104	-0.8025	0.066	0.303	0	252	386	3
2026-02-11	15:57:48.670	-148.085	35.245	11.97	0.849608	-0.31232	0.260592	-0.8025	0.081	0.2925	0	252	386	3
2026-02-11	15:57:48.690	-96.145	31.01	1.19	0.8418	-0.305976	0.24034	-0.8055	0.084	0.288	0	252	386	3
2026-02-11	15:57:48.710	-52.85	26.565	-10.64	0.854732	-0.30622	0.216184	-0.8055	0.084	0.288	0	252	386	3
2026-02-11	15:57:48.730	-22.47	22.995	-19.81	0.868152	-0.327204	0.211548	-0.7965	0.105	0.2775	0	252	386	3
2026-02-11	15:57:48.750	12.88	20.335	-27.125	0.899872	-0.344284	0.208132	-0.795	0.099	0.2745	0	252	386	3
2026-02-11	15:57:48.770	59.29	18.55	-33.075	0.925248	-0.343796	0.199348	-0.795	0.0975	0.2625	0	252	386	3
2026-02-11	15:57:48.790	109.795	16.59	-38.08	0.936716	-0.314272	0.188124	-0.7875	0.0855	0.261	0	252	386	3
2026-02-11	15:57:54.810	-46.2	-60.865	-41.16	0.979416	-0.084912	0.421144	-0.795	0.015	0.5985	0	345	301	3
2026-02-11	15:57:54.830	-36.645	-57.435	-35.28	0.973316	-0.08784	0.477996	-0.786	0.009	0.6045	0	345	301	3
2026-02-11	15:57:54.850	-22.96	-52.395	-29.855	0.955748	-0.0793	0.506056	-0.783	0.0015	0.6105	0	345	301	3
2026-02-11	15:57:54.870	-11.2	-48.055	-23.765	0.97844	-0.081496	0.516304	-0.786	0	0.6135	0	345	301	3
2026-02-11	15:57:54.890	1.89	-43.645	-17.255	1.022116	-0.097844	0.53924	-0.783	0	0.618	0	345	301	3
2026-02-11	15:57:54.910	18.025	-37.66	-10.045	1.076772	-0.092476	0.55754	-0.777	0	0.6255	0	345	301	3
2026-02-11	15:57:54.930	33.18	-31.29	-2.31	1.175836	-0.070028	0.56242	-0.7755	-0.0015	0.63	0	345	301	3
2026-02-11	15:57:54.950	45.99	-20.09	6.65	1.2688	-0.038308	0.586576	-0.771	0	0.639	0	345	301	3
2026-02-11	15:57:54.970	51.45	-5.985	16.345	1.310524	-0.018056	0.5978	-0.768	0.0045	0.645	0	345	301	3
2026-02-11	15:57:54.990	50.575	8.085	25.48	1.281976	-0.021228	0.600972	-0.771	0.0075	0.6495	0	345	301	3
2026-02-11	15:57:55.010	50.05	23.66	36.575	1.240252	-0.032452	0.58438	-0.7755	0.009	0.6495	0	323	336	3
2026-02-11	15:57:55.030	52.675	40.95	49.035	1.194624	-0.02928	0.546316	-0.7815	0.0165	0.648	0	323	336	3
2026-02-11	15:57:55.050	53.515	58.73	61.88	1.162172	-0.00488	0.46726	-0.78	0.0285	0.6495	0	323	336	3
2026-02-11	15:57:55.070	54.145	74.76	73.955	1.15656	-0.009272	0.376492	-0.777	0.045	0.6435	0	323	336	3
2026-02-11	15:57:55.090	52.15	88.48	85.12	1.153876	0.011956	0.321836	-0.7845	0.054	0.633	0	323	336	3
2026-02-11	15:57:55.110	47.565	99.015	94.22	1.154608	0.005856	0.282552	-0.798	0.0615	0.6225	0	323	336	3
2026-02-11	15:57:55.130	43.575	105.49	101.71	1.146068	0.003172	0.245952	-0.8055	0.078	0.6135	0	323	336	3
2026-02-11	15:57:55.150	44.59	109.48	107.905	1.141188	-0.04636	0.216428	-0.81	0.09	0.6045	0	323	336	3
2026-02-11	15:57:55.170	59.22	111.405	112.035	1.133136	-0.075396	0.219844	-0.8175	0.1065	0.5895	0	323	336	3
2026-02-11	15:57:55.190	84.84	112.175	114.52	1.106052	-0.09467199	0.234972	-0.8235	0.1275	0.57	0	323	336	3
2026-02-11	15:57:55.210	116.13	112.665	110.88	1.167784	-0.052948	0.270108	-0.8265	0.147	0.5535	0	301	369	3
2026-02-11	15:57:55.230	123.025	115.5	106.75	1.233908	0.03538	0.25498	-0.825	0.171	0.5355	0	301	369	3
2026-02-11	15:57:55.250	105.245	120.435	101.675	1.106296	0.086376	0.21594	-0.825	0.186	0.5235	0	301	369	3
2026-02-11	15:57:55.270	77.42	121.975	93.87	1.00284	0.07515199	0.2013	-0.825	0.21	0.4935	0	301	369	3
2026-02-11	15:57:55.290	41.72	118.93	89.425	0.972828	0.071736	0.189588	-0.8265	0.2205	0.48	0	301	369	3
2026-02-11	15:57:55.310	3.255	114.975	83.23	0.954528	0.034648	0.176168	-0.8205	0.2355	0.459	0	301	369	3
2026-02-11	15:57:55.330	-30.485	109.76	77.595	0.943304	0.005124	0.173484	-0.8115	0.2445	0.447	0	301	369	3
2026-02-11	15:57:55.350	-57.4	105.805	75.11	0.915488	-0.019764	0.153232	-0.8055	0.2565	0.4335	0	301	369	3
2026-02-11	15:57:55.370	-78.33	100.38	74.725	0.90768	-0.024888	0.101992	-0.798	0.267	0.4185	0	301	369	3
2026-02-11	15:57:55.390	-89.285	93.625	72.695	0.909632	-0.067832	0.066612	-0.7935	0.2775	0.4125	0	301	369	3
2026-02-11	15:57:55.410	-93.835	82.46	72.73	0.911096	-0.08662	0.056364	-0.7905	0.2895	0.408	0	282	365	3
2026-02-11	15:57:55.430	-96.46	66.465	69.93	0.90768	-0.097844	0.047824	-0.786	0.2985	0.402	0	282	365	3
2026-02-11	15:57:55.450	-92.505	44.24	60.9	0.947452	-0.110532	0.084668	-0.7785	0.3105	0.396	0	282	365	3
2026-02-11	15:57:55.470	-77.84	19.74	47.39	0.995764	-0.153232	0.150548	-0.7725	0.327	0.3915	0	282	365	3
2026-02-11	15:57:55.490	-49.21	-2.17	31.885	0.974048	-0.199348	0.213744	-0.768	0.336	0.396	0	282	365	3
2026-02-11	15:57:55.510	-8.05	-23.695	13.825	0.957456	-0.187148	0.286456	-0.765	0.3345	0.399	0	282	365	3
2026-02-11	15:57:55.530	63	-51.1	-21.035	1.011868	-0.182756	0.41358	-0.7635	0.3345	0.399	0	282	365	3
2026-02-11	15:57:55.550	114.905	-61.46	-42.735	1.035536	-0.134932	0.474092	-0.7635	0.3345	0.399	0	282	365	3
2026-02-11	15:57:55.570	155.82	-66.22	-59.885	1.048468	-0.06344	0.462868	-0.7695	0.333	0.399	0	282	365	3
2026-02-11	15:57:55.590	169.855	-72.24	-71.715	1.006988	-0.014396	0.4087	-0.783	0.324	0.399	0	282	365	3
2026-02-11	15:57:55.610	160.965	-79.38	-79.31	0.998204	0.028304	0.34648	-0.789	0.309	0.4005	0	267	335	3
2026-02-11	15:57:55.630	136.99	-85.645	-82.355	1.003328	0.06832	0.290116	-0.7935	0.291	0.3975	0	267	335	3
2026-02-11	15:57:55.650	106.26	-87.36	-80.5	0.99186	0.084912	0.239364	-0.8025	0.2775	0.396	0	267	335	3
2026-02-11	15:57:55.670	76.895	-87.01	-76.58	1.051396	0.0976	0.218624	-0.8055	0.2655	0.4005	0	267	335	3
2026-02-11	15:57:55.690	53.69	-82.81	-72.59	1.152168	0.137372	0.258152	-0.81	0.249	0.4095	0	267	335	3
2026-02-11	15:57:55.710	24.885	-71.96	-65.975	1.13948	0.194468	0.289872	-0.8175	0.237	0.42	0	267	335	3
2026-02-11	15:57:55.730	-18.13	-59.955	-57.19	1.064572	0.200812	0.289872	-0.8175	0.225	0.4305	0	267	335	3
2026-02-11	15:57:55.750	-64.75	-51.345	-47.74	0.975512	0.133224	0.276208	-0.8205	0.2205	0.438	0	267	335	3
2026-02-11	15:57:55.770	-103.285	-48.93	-40.32	0.940864	0.121268	0.272548	-0.8265	0.216	0.441	0	267	335	3
2026-02-11	15:57:55.790	-140.42	-48.335	-36.19	0.915732	0.084424	0.284016	-0.831	0.21	0.4545	0	267	335	3
2026-02-11	15:57:55.810	-180.67	-49.595	-34.895	0.875472	-0.05368	0.31354	-0.8325	0.21	0.468	0	254	313	3
2026-02-11	15:57:55.830	-181.3	-49.84	-38.01	0.82594	-0.127612	0.31598	-0.8325	0.21	0.468	0	254	313	3
2026-02-11	15:57:55.850	-163.52	-50.435	-44.415	0.787144	-0.186904	0.294264	-0.834	0.1965	0.495	0	254	313	3
2026-02-11	15:57:55.870	-133.385	-52.675	-51.695	0.776652	-0.219844	0.264984	-0.8325	0.192	0.4995	0	254	313	3
2026-02-11	15:57:55.890	-96.95	-55.93	-59.255	0.783484	-0.227896	0.23912	-0.831	0.1845	0.5055	0	254	313	3
2026-02-11	15:57:55.910	-57.925	-60.725	-66.22	0.803736	-0.197152	0.241316	-0.8325	0.1785	0.5145	0	254	313	3
2026-02-11	15:57:55.930	-27.09	-66.22	-72.45	0.858392	-0.157624	0.25986	-0.834	0.1665	0.525	0	254	313	3
2026-02-11	15:57:55.950	-8.47	-71.47	-77.315	0.911096	-0.132736	0.29036	-0.8325	0.15	0.5325	0	254	313	3
2026-02-11	15:57:55.970	2.66	-75.775	-78.96	0.949648	-0.118584	0.3294	-0.8325	0.138	0.543	0	254	313	3
2026-02-11	15:57:55.990	12.67	-78.085	-77.42	0.971364	-0.103944	0.396012	-0.8355	0.129	0.549	0	254	313	3
2026-02-11	15:57:56.010	24.36	-77.21	-72.8	0.981612	-0.117608	0.423828	-0.831	0.12	0.558	0	244	304	3
2026-02-11	15:57:56.030	33.005	-77.7	-65.345	1.012112	-0.087108	0.414068	-0.825	0.1125	0.5715	0	244	304	3
2026-02-11	15:57:56.050	35.105	-78.855	-56.35	1.059936	-0.06832	0.447496	-0.822	0.1065	0.5865	0	244	304	3
2026-02-11	15:57:56.070	41.44	-77.245	-45.15	1.11874	-0.07124799	0.521916	-0.819	0.099	0.6	0	244	304	3
2026-02-11	15:57:56.090	55.23	-66.465	-28.63	1.139236	0.0061	0.620248	-0.819	0.096	0.603	0	244	304	3
2026-02-11	15:57:56.110	52.185	-56.21	-18.935	1.169492	0.058316	0.616588	-0.819	0.096	0.603	0	244	304	3
2026-02-11	15:57:56.130	40.635	-46.025	-10.675	1.21268	0.07442	0.60756	-0.8145	0.09	0.6315	0	244	304	3
2026-02-11	15:57:56.150	27.58	-33.215	-2.87	1.197796	0.03782	0.58682	-0.816	0.09	0.636	0	244	304	3
2026-02-11	15:57:56.170	21	-20.86	5.25	1.197796	-0.000976	0.565348	-0.8115	0.093	0.636	0	244	304	3
2026-02-11	15:57:56.190	25.55	-8.75	12.145	1.230736	-0.012932	0.581208	-0.8055	0.0945	0.6405	0	244	304	3
2026-02-11	15:57:56.210	36.05	7.665	18.585	1.219268	-0.026596	0.610488	-0.807	0.096	0.642	0	237	322	3
2026-02-11	15:57:56.230	44.03	27.335	26.88	1.146556	-0.0244	0.575596	-0.8085	0.099	0.6405	0	237	322	3
2026-02-11	15:57:56.250	52.045	45.22	35.455	1.119472	-0.024644	0.499468	-0.8085	0.1065	0.6405	0	237	322	3
2026-02-11	15:57:56.270	60.41	62.02	42.56	1.131916	-0.02928	0.419436	-0.8085	0.117	0.639	0	237	322	3
2026-02-11	15:57:56.290	67.655	76.965	49.98	1.135576	-0.033916	0.367708	-0.813	0.1245	0.6285	0	237	322	3
2026-02-11	15:57:56.310	74.585	88.515	56.28	1.114592	-0.02806	0.32208	-0.8205	0.132	0.6135	0	237	322	3
2026-02-11	15:57:56.330	82.425	94.43	59.535	1.133136	-0.012932	0.307196	-0.8265	0.138	0.603	0	237	322	3
2026-02-11	15:57:56.350	88.41	99.575	59.815	1.221952	-0.008296	0.329888	-0.8325	0.147	0.591	0	237	322	3
2026-02-11	15:57:56.370	92.96	111.23	60.97	1.234152	0.009028	0.355752	-0.8325	0.1635	0.5685	0	237	322	3
2026-02-11	15:57:56.390	89.11	122.99	64.295	1.189012	0.029524	0.338428	-0.8355	0.174	0.5565	0	237	322	3
2026-02-11	15:57:56.410	79.065	130.41	67.865	1.1407	0.019032	0.301828	-0.84	0.198	0.5295	0	231	354	3
2026-02-11	15:57:56.430	71.925	132.545	70.175	1.141432	0.0183	0.270108	-0.837	0.207	0.5115	0	231	354	3
2026-02-11	15:57:56.450	64.82	134.19	72.345	1.127768	0.011468	0.234484	-0.8325	0.219	0.4785	0	231	354	3
2026-02-11	15:57:56.470	53.725	134.96	73.36	1.073844	0.02806	0.208376	-0.831	0.2265	0.4725	0	231	354	3
2026-02-11	15:57:56.490	34.3	132.86	72.485	1.031632	0.03172	0.196664	-0.8295	0.2355	0.4575	0	231	354	3
2026-02-11	15:57:56.510	13.475	129.57	70.84	0.974048	0.00976	0.18544	-0.822	0.2415	0.4395	0	231	354	3
2026-02-11	15:57:56.530	-8.085	123.06	68.74	0.949404	0.020252	0.183488	-0.816	0.2505	0.42	0	231	354	3
2026-02-11	15:57:56.550	-33.565	116.55	68.145	0.953552	-0.01708	0.184464	-0.813	0.258	0.4035	0	231	354	3
2026-02-11	15:57:56.570	-49.56	111.37	64.54	0.95648	-0.022936	0.191296	-0.8085	0.267	0.3915	0	231	354	3
2026-02-11	15:57:56.590	-58.975	105	62.265	0.95892	-0.055876	0.17324	-0.8055	0.279	0.375	0	231	354	3
2026-02-11	15:57:56.610	-61.39	97.65	57.4	0.972584	-0.075884	0.156404	-0.795	0.2925	0.363	0	225	361	3
2026-02-11	15:57:56.630	-56.98	88.27	50.89	0.989908	-0.099308	0.152744	-0.774	0.3045	0.3555	0	225	361	3
2026-02-11	15:57:56.650	-44.205	75.18	41.44	1.02846	-0.101016	0.182268	-0.768	0.3165	0.3465	0	225	361	3
2026-02-11	15:57:56.670	-31.675	62.37	31.92	1.07116	-0.09028	0.200812	-0.7725	0.3225	0.3405	0	225	361	3
2026-02-11	15:57:56.690	-27.44	52.115	24.29	1.050176	-0.061488	0.204472	-0.7605	0.3345	0.327	0	225	361	3
2026-02-11	15:57:56.710	-25.06	39.2	15.995	1.029924	-0.052704	0.227164	-0.753	0.3375	0.333	0	225	361	3
2026-02-11	15:57:56.730	-19.88	24.885	6.265	1.025044	-0.044408	0.259616	-0.7425	0.342	0.33	0	225	361	3
2026-02-11	15:57:56.750	-14.945	10.185	-5.705	1.067012	-0.027572	0.286212	-0.747	0.3435	0.3315	0	225	361	3
2026-02-11	15:57:56.770	-11.48	-2.31	-19.005	1.049688	-0.02318	0.338428	-0.7455	0.3405	0.3285	0	225	361	3
2026-02-11	15:57:56.790	-3.64	-10.955	-31.29	0.98332	0.016104	0.357704	-0.747	0.339	0.324	0	225	361	3
2026-02-11	15:57:56.810	-3.15	-21.21	-44.38	0.964288	0.048312	0.32208	-0.7515	0.342	0.327	0	218	341	3
2026-02-11	15:57:56.830	-14.175	-32.9	-57.75	0.925004	0.026352	0.2867	-0.759	0.3375	0.3345	0	218	341	3
2026-02-11	15:57:56.850	-27.825	-46.095	-68.775	0.894504	0.010004	0.242536	-0.7635	0.33	0.3375	0	218	341	3
2026-02-11	15:57:56.870	-34.93	-61.495	-80.71	0.926468	-0.019032	0.250588	-0.7635	0.3255	0.3405	0	218	341	3
2026-02-11	15:57:56.890	-32.27	-71.505	-91.385	0.9211	-0.017568	0.325252	-0.7725	0.315	0.351	0	218	341	3
2026-02-11	15:57:56.910	-26.705	-74.655	-98.77	0.88816	-0.005612	0.351116	-0.7815	0.3015	0.3645	0	218	341	3
2026-02-11	15:57:56.930	-24.185	-75.565	-103.705	0.884744	0.010736	0.341844	-0.7905	0.291	0.3735	0	218	341	3
2026-02-11	15:57:56.950	-29.575	-73.99	-107.625	0.874252	0.025864	0.319396	-0.798	0.288	0.3765	0	218	341	3
2026-02-11	15:57:56.970	-44.415	-73.465	-111.055	0.882792	0.047336	0.285724	-0.8115	0.261	0.399	0	218	341	3
2026-02-11	15:57:56.990	-68.705	-72.94	-114.66	0.893284	0.0305	0.24278	-0.8175	0.243	0.4125	0	218	341	3
2026-02-11	15:57:57.010	-92.33	-73.115	-118.65	0.911096	0.00122	0.210084	-0.825	0.2355	0.417	0	210	320	3
2026-02-11	15:57:57.030	-113.4	-73.815	-122.675	0.948916	-0.040748	0.200812	-0.8295	0.2175	0.435	0	210	320	3
2026-02-11	15:57:57.050	-129.78	-74.13	-125.93	0.978196	-0.084912	0.20252	-0.8415	0.2085	0.45	0	210	320	3
2026-02-11	15:57:57.070	-142.975	-74.62	-128.03	1.0126	-0.109068	0.20374	-0.8415	0.195	0.4515	0	210	320	3
2026-02-11	15:57:57.090	-155.575	-74.83	-128.835	1.039928	-0.127124	0.216672	-0.84	0.171	0.4665	0	210	320	3
2026-02-11	15:57:57.110	-163.835	-75.18	-128.59	1.068232	-0.153476	0.23668	-0.837	0.156	0.4755	0	210	320	3
2026-02-11	15:57:57.130	-161.525	-74.865	-129.36	1.1041	-0.172752	0.278404	-0.8415	0.1395	0.4815	0	210	320	3
2026-02-11	15:57:57.150	-153.23	-74.06	-128.695	1.124596	-0.1647	0.28792	-0.846	0.1185	0.4905	0	210	320	3
2026-02-11	15:57:57.170	-146.09	-75.565	-127.12	1.147532	-0.20984	0.257664	-0.84	0.1005	0.4995	0	210	320	3
2026-02-11	15:57:57.190	-128.485	-79.8	-123.97	1.11142	-0.25864	0.265472	-0.8355	0.0765	0.513	0	210	320	3
2026-02-11	15:57:57.210	-96.04	-85.925	-119.56	1.058228	-0.262056	0.354532	-0.834	0.054	0.519	0	201	305	3
2026-02-11	15:57:57.230	-28.315	-92.12	-111.02	1.0492	-0.258396	0.494344	-0.8295	0.048	0.5205	0	201	305	3
2026-02-11	15:57:57.250	19.425	-92.4	-101.99	1.085312	-0.275476	0.54046	-0.8145	0.012	0.5385	0	201	305	3
2026-02-11	15:57:57.270	69.16	-90.72	-89.67	1.127768	-0.281332	0.587552	-0.8085	0.0075	0.552	0	201	305	3
2026-02-11	15:57:57.290	112.28	-86.555	-74.13	1.168028	-0.263032	0.613416	-0.807	0.0015	0.5805	0	201	305	3
2026-02-11	15:57:57.310	139.755	-81.34	-55.86	1.22366	-0.187148	0.609024	-0.795	-0.0075	0.5865	0	201	305	3
2026-02-11	15:57:57.330	146.37	-74.69	-35.56	1.2993	-0.158112	0.628056	-0.7935	0	0.606	0	201	305	3
2026-02-11	15:57:57.350	136.36	-58.205	-15.155	1.269044	-0.020252	0.610976	-0.789	-0.003	0.624	0	201	305	3
2026-02-11	15:57:57.370	105.105	-40.18	3.185	1.227564	0.056364	0.571448	-0.7875	-0.003	0.6285	0	201	305	3
2026-02-11	15:57:57.390	72.66	-23.835	18.97	1.201456	0.073444	0.578768	-0.7845	0.0015	0.6435	0	201	305	3
2026-02-11	15:57:57.410	47.565	-7.07	33.145	1.17608	0.095648	0.597312	-0.7845	0.009	0.657	0	195	319	3
2026-02-11	15:57:57.430	27.685	11.34	43.75	1.146068	0.066368	0.6161	-0.7845	0.018	0.6555	0	195	319	3
2026-02-11	15:57:57.450	11.585	32.165	52.045	1.0858	0.04514	0.596336	-0.7845	0.0255	0.651	0	195	319	3
2026-02-11	15:57:57.470	-2.8	50.925	58.975	1.055056	0.0183	0.541192	-0.7905	0.0315	0.651	0	195	319	3
2026-02-11	15:57:57.490	-9.835	64.96	66.465	1.072136	0.003416	0.480192	-0.7995	0.036	0.6435	0	195	319	3
2026-02-11	15:57:57.510	-9.17	82.46	79.73	1.048956	-0.017812	0.42212	-0.8085	0.036	0.6375	0	195	319	3
2026-02-11	15:57:57.530	2.31	90.65	87.045	1.0675	-0.040016	0.40016	-0.8085	0.036	0.6375	0	195	319	3
2026-02-11	15:57:57.550	20.335	96.915	91.735	1.130208	-0.05246	0.39284	-0.816	0.072	0.612	0	195	319	3
2026-02-11	15:57:57.570	40.565	104.02	95.165	1.17852	-0.056364	0.404796	-0.816	0.0705	0.612	0	195	319	3
2026-02-11	15:57:57.590	60.865	111.405	98.56	1.213656	-0.068808	0.397232	-0.831	0.087	0.588	0	195	319	3
2026-02-11	15:57:57.610	82.635	118.405	101.395	1.24684	-0.044896	0.375272	-0.831	0.108	0.5715	0	192	357	3
2026-02-11	15:57:57.630	103.005	126.84	101.115	1.238788	-0.0305	0.320372	-0.825	0.126	0.5475	0	192	357	3
2026-02-11	15:57:57.650	128.695	132.895	97.755	1.253428	-0.005856	0.276452	-0.8415	0.1455	0.537	0	192	357	3
2026-02-11	15:57:57.670	139.195	138.18	94.465	1.227076	0.049532	0.23668	-0.846	0.1515	0.5295	0	192	357	3
2026-02-11	15:57:57.690	130.34	142.275	90.93	1.199016	0.103456	0.198128	-0.8415	0.1665	0.513	0	192	357	3
2026-02-11	15:57:57.710	100.065	144.55	83.615	1.118496	0.216184	0.212524	-0.8385	0.1785	0.492	0	192	357	3
2026-02-11	15:57:57.730	50.365	142.065	72.17	1.130696	0.184708	0.241316	-0.84	0.1935	0.4635	0	192	357	3
2026-02-11	15:57:57.750	-10.78	137.34	66.08	1.072868	0.118584	0.208132	-0.8385	0.2085	0.441	0	192	357	3
2026-02-11	15:57:57.770	-60.48	128.485	64.05	1.0309	0.048312	0.207644	-0.831	0.216	0.4275	0	192	357	3
2026-02-11	15:57:57.790	-89.355	113.715	60.935	0.9638	0.000488	0.213256	-0.8235	0.2175	0.4215	0	192	357	3
2026-02-11	15:57:57.810	-99.085	104.825	59.815	0.931104	-0.046604	0.185928	-0.8235	0.2175	0.4215	0	192	374	3
2026-02-11	15:57:57.830	-102.27	95.13	57.645	0.887672	-0.062708	0.156404	-0.8175	0.261	0.3855	0	192	374	3
2026-02-11	15:57:57.850	-98.665	82.985	53.76	0.874252	-0.116144	0.135908	-0.8145	0.27	0.378	0	192	374	3
2026-02-11	15:57:57.870	-78.96	70.245	47.53	0.875472	-0.130296	0.169336	-0.8025	0.276	0.372	0	192	374	3
2026-02-11	15:57:57.890	-55.44	59.395	41.545	0.873764	-0.143228	0.17934	-0.7965	0.2865	0.3615	0	192	374	3
2026-02-11	15:57:57.910	-33.88	47.32	37.1	0.867908	-0.122	0.155916	-0.786	0.2925	0.36	0	192	374	3
2026-02-11	15:57:57.930	-16.1	30.975	30.835	0.878644	-0.109068	0.146156	-0.783	0.3015	0.36	0	192	374	3
2026-02-11	15:57:57.950	-0.07	9.555	20.44	0.940132	-0.099308	0.169824	-0.7815	0.312	0.3585	0	192	374	3
2026-02-11	15:57:57.970	18.34	-12.915	6.58	1.012356	-0.081496	0.24766	-0.7815	0.3105	0.357	0	192	374	3
2026-02-11	15:57:57.990	38.745	-30.765	-7.525	1.050664	-0.053436	0.34526	-0.7815	0.306	0.36	0	192	374	3
2026-02-11	15:57:58.010	61.775	-45.325	-25.48	1.019188	-0.019276	0.442372	-0.7815	0.303	0.3645	0	192	358	3
2026-02-11	15:57:58.030	70.105	-50.47	-35.315	0.974048	0.00976	0.43554	-0.7875	0.2985	0.3615	0	192	358	3
2026-02-11	15:57:58.050	67.795	-56.63	-44.59	0.8845	0.05734	0.373076	-0.7935	0.297	0.363	0	192	358	3
2026-02-11	15:57:58.070	48.86	-66.045	-52.22	0.847412	0.076372	0.296948	-0.7935	0.2985	0.366	0	192	358	3
2026-02-11	15:57:58.090	34.055	-74.97	-61.53	0.91256	0.103212	0.316224	-0.7935	0.2985	0.366	0	192	358	3
2026-02-11	15:57:58.110	25.27	-75.985	-71.05	0.957212	0.11712	0.348432	-0.8115	0.2625	0.384	0	192	358	3
2026-02-11	15:57:58.130	6.125	-75.25	-77.7	0.988444	0.121512	0.354776	-0.816	0.2505	0.387	0	192	358	3
2026-02-11	15:57:58.150	-22.575	-74.9	-83.475	1.012844	0.092964	0.343552	-0.813	0.243	0.393	0	192	358	3
2026-02-11	15:57:58.170	-48.65	-74.795	-88.375	1.020164	0.053924	0.345504	-0.8175	0.228	0.4065	0	192	358	3
2026-02-11	15:57:58.190	-66.185	-75.145	-91.14	1.013332	0.0366	0.366976	-0.8325	0.2265	0.429	0	192	358	3
2026-02-11	15:57:58.210	-82.53	-74.865	-92.33	0.987712	0.02318	0.38064	-0.834	0.2145	0.4305	0	192	338	2
2026-02-11	15:57:58.230	-97.51	-74.445	-92.05	0.958432	0	0.379664	-0.84	0.204	0.45	0	192	338	2
2026-02-11	15:57:58.250	-107.905	-74.2	-90.755	0.9089	-0.0305	0.366244	-0.8445	0.1845	0.459	0	192	338	2
2026-02-11	15:57:58.270	-113.925	-74.025	-89.67	0.89182	-0.04636	0.363072	-0.843	0.1755	0.465	0	192	338	2
2026-02-11	15:57:58.290	-112.315	-72.66	-88.515	0.87962	-0.0732	0.373808	-0.837	0.1605	0.477	0	192	338	2
2026-02-11	15:57:58.310	-102.62	-69.72	-89.565	0.891088	-0.140788	0.360388	-0.837	0.153	0.486	0	192	338	2
2026-02-11	15:57:58.330	-89.145	-67.27	-88.41	0.893284	-0.163236	0.329644	-0.8445	0.1425	0.4935	0	192	338	2
2026-02-11	15:57:58.350	-72.1	-68.25	-86.975	0.933056	-0.163968	0.33916	-0.846	0.126	0.5025	0	192	338	2
2026-02-11	15:57:58.370	-51.415	-67.585	-84.7	0.946476	-0.1708	0.371612	-0.8445	0.117	0.5085	0	192	338	2
2026-02-11	15:57:58.390	-30.765	-68.215	-81.375	0.947208	-0.142008	0.388448	-0.8415	0.0885	0.525	0	192	338	2
2026-02-11	15:57:58.410	-11.865	-68.53	-77.455	0.926468	-0.1464	0.397964	-0.8355	0.072	0.5325	0	191	334	2
2026-02-11	15:57:58.430	9.345	-69.825	-72.31	0.906216	-0.153232	0.451644	-0.8355	0.066	0.5415	0	191	334	2
2026-02-11	15:57:58.450	40.6	-70.945	-65.52	0.932568	-0.175436	0.5307	-0.8265	0.063	0.5415	0	191	334	2
2026-02-11	15:57:58.470	74.935	-70.455	-57.995	0.994788	-0.131272	0.57828	-0.8205	0.0555	0.567	0	191	334	2
2026-02-11	15:57:58.490	98.84	-66.885	-49.49	1.07116	-0.09028	0.589504	-0.8265	0.045	0.582	0	191	334	2
2026-02-11	15:57:58.510	111.195	-61.425	-41.475	1.169736	-0.056852	0.587796	-0.8175	0.036	0.5895	0	191	334	2
2026-02-11	15:57:58.530	115.08	-53.62	-33.32	1.243912	-0.052704	0.592188	-0.8175	0.039	0.6045	0	191	334	2
2026-02-11	15:57:58.550	116.06	-42.84	-23.17	1.279536	-0.028304	0.585112	-0.8145	0.0345	0.6075	0	191	334	2
2026-02-11	15:57:58.570	109.165	-30.065	-11.34	1.224636	-0.014152	0.548024	-0.8115	0.036	0.6165	0	191	334	2
2026-02-11	15:57:58.590	97.02	-18.725	0.77	1.225856	0.088328	0.582916	-0.8055	0.0465	0.627	0	191	334	2
2026-02-11	15:57:58.610	68.39	-3.815	10.955	1.191696	0.139812	0.598532	-0.8055	0.051	0.6345	0	189	355	3
2026-02-11	15:57:58.630	31.535	15.505	22.47	1.187304	0.117852	0.59902	-0.8115	0.057	0.636	0	189	355	3
2026-02-11	15:57:58.650	9.555	35.945	31.71	1.170712	0.073444	0.573888	-0.8115	0.0645	0.636	0	189	355	3
2026-02-11	15:57:58.670	-4.55	51.66	39.06	1.147288	0.037332	0.497516	-0.807	0.066	0.645	0	189	355	3
2026-02-11	15:57:58.690	-14.7	66.22	45.85	1.160952	-0.005124	0.435052	-0.8115	0.075	0.6315	0	189	355	3
2026-02-11	15:57:58.710	-12.53	78.295	52.955	1.135332	-0.038064	0.394792	-0.825	0.0765	0.6195	0	189	355	3
2026-02-11	15:57:58.730	-2.73	87.325	60.83	1.114104	-0.033184	0.363316	-0.8205	0.0825	0.612	0	189	355	3
2026-02-11	15:57:58.750	9.38	92.925	67.62	1.139236	-0.028548	0.335744	-0.8205	0.0855	0.597	0	189	355	3
2026-02-11	15:57:58.770	23.485	97.405	72.485	1.175104	-0.028548	0.326716	-0.831	0.096	0.588	0	189	355	3
2026-02-11	15:57:58.790	42.21	102.06	76.02	1.207068	-0.045872	0.328912	-0.8355	0.1065	0.5775	0	189	355	3
2026-02-11	15:57:58.810	63.21	107.065	80.115	1.165344	0.038064	0.330132	-0.8385	0.1155	0.5565	0	188	387	3
2026-02-11	15:57:58.830	64.96	111.475	79.905	1.09434	0.01708	0.286456	-0.8475	0.1335	0.537	0	188	387	3
2026-02-11	15:57:58.850	62.405	110.11	79.52	1.065548	0.052216	0.252784	-0.849	0.141	0.531	0	188	387	3
2026-02-11	15:57:58.870	48.685	109.55	76.23	0.996252	0.083204	0.256688	-0.849	0.159	0.5235	0	188	387	3
2026-02-11	15:57:58.890	18.445	108.5	70.28	0.923052	0.049776	0.230824	-0.8505	0.168	0.51	0	188	387	3
2026-02-11	15:57:58.910	-16.1	103.005	70.35	0.909144	0.007808	0.199104	-0.8475	0.1725	0.4905	0	188	387	3
2026-02-11	15:57:58.930	-39.2	93.24	69.475	0.908412	-0.056608	0.182756	-0.8445	0.1785	0.483	0	188	387	3
2026-02-11	15:57:58.950	-34.02	85.505	70.07	0.9333	-0.078568	0.182512	-0.8445	0.1785	0.483	0	188	387	3
2026-02-11	15:57:58.970	-24.535	79.38	72.135	0.930128	-0.082472	0.184464	-0.8385	0.2115	0.4425	0	188	387	3
2026-02-11	15:57:58.990	-13.37	74.76	73.92	0.891576	-0.08174	0.203496	-0.84	0.2175	0.4305	0	188	387	3
2026-02-11	15:57:59.010	-1.925	70.35	73.36	0.894016	-0.0488	0.206424	-0.8265	0.234	0.4275	0	187	392	3
2026-02-11	15:57:59.030	-0.525	66.185	71.925	0.875716	-0.036112	0.191296	-0.834	0.2415	0.4125	0	187	392	3
2026-02-11	15:57:59.050	-2.415	59.92	68.565	0.863028	-0.039284	0.170312	-0.822	0.2565	0.4095	0	187	392	3
2026-02-11	15:57:59.070	-3.5	50.96	62.335	0.866932	-0.0366	0.168848	-0.8205	0.2715	0.396	0	187	392	3
2026-02-11	15:57:59.090	-3.92	39.55	54.04	0.887428	-0.031476	0.196176	-0.822	0.2685	0.3885	0	187	392	3
2026-02-11	15:57:59.110	-3.255	27.615	43.995	0.903288	-0.031232	0.21228	-0.816	0.2835	0.3765	0	187	392	3
2026-02-11	15:57:59.130	-6.755	12.775	32.305	0.919636	-0.022692	0.182268	-0.816	0.285	0.3825	0	187	392	3
2026-02-11	15:57:59.150	-12.53	-8.96	16.87	1.014064	-0.032208	0.183	-0.8145	0.285	0.381	0	187	392	3
2026-02-11	15:57:59.170	-10.535	-32.935	-2.205	1.14924	-0.061732	0.260836	-0.81	0.288	0.3825	0	187	392	3
2026-02-11	15:57:59.190	1.89	-49	-20.44	1.179008	-0.064416	0.3904	-0.8085	0.2895	0.39	0	187	392	3
2026-02-11	15:57:59.210	30.625	-57.715	-44.8	1.132648	0.003172	0.500688	-0.813	0.2895	0.3945	0	187	368	3
2026-02-11	15:57:59.230	40.635	-56.245	-55.37	1.003816	0.040504	0.467748	-0.813	0.2895	0.3945	0	187	368	3
2026-02-11	15:57:59.250	36.925	-56.07	-62.265	0.907192	0.07076	0.4026	-0.8235	0.2745	0.405	0	187	368	3
2026-02-11	15:57:59.270	23.31	-58.065	-66.605	0.866932	0.08174	0.334036	-0.834	0.261	0.408	0	187	368	3
2026-02-11	15:57:59.290	8.68	-62.3	-69.23	0.911584	0.08784	0.290848	-0.831	0.2535	0.417	0	187	368	3
2026-02-11	15:57:59.310	-3.185	-66.01	-72.555	0.965508	0.100284	0.287432	-0.831	0.246	0.429	0	187	368	3
2026-02-11	15:57:59.330	-15.75	-67.305	-74.9	0.990152	0.118584	0.301096	-0.8445	0.231	0.4305	0	187	368	3
2026-02-11	15:57:59.350	-30.415	-67.62	-76.58	1.012356	0.104676	0.318908	-0.852	0.228	0.447	0	187	368	3
2026-02-11	15:57:59.370	-44.38	-66.185	-77.945	1.037244	0.058072	0.343796	-0.843	0.21	0.4605	0	187	368	3
2026-02-11	15:57:59.390	-56.105	-63.035	-78.715	1.046028	0.04148	0.377468	-0.846	0.1965	0.4605	0	187	368	3
2026-02-11	15:57:59.410	-69.58	-58.555	-78.155	1.001132	0.018056	0.385032	-0.861	0.186	0.48	0	185	346	3
2026-02-11	15:57:59.430	-83.825	-53.69	-76.825	0.933056	0.005368	0.387228	-0.8625	0.177	0.483	0	185	346	3
2026-02-11	15:57:59.450	-94.885	-49.455	-74.69	0.876448	-0.012444	0.388204	-0.8625	0.1665	0.489	0	185	346	3
2026-02-11	15:57:59.470	-104.335	-46.095	-73.85	0.804224	-0.07442	0.379908	-0.861	0.159	0.492	0	185	346	3
2026-02-11	15:57:59.490	-112.21	-45.64	-68.775	0.801784	-0.11712	0.319396	-0.8595	0.1515	0.495	0	185	346	3
2026-02-11	15:57:59.510	-99.96	-43.085	-67.445	0.77348	-0.13176	0.29768	-0.8595	0.1515	0.495	0	185	346	3
2026-02-11	15:57:59.530	-83.545	-44.625	-67.69	0.806664	-0.148108	0.31964	-0.858	0.12	0.5235	0	185	346	3
2026-02-11	15:57:59.550	-65.38	-44.765	-66.22	0.826428	-0.1708	0.337208	-0.8505	0.108	0.5235	0	185	346	3
2026-02-11	15:57:59.570	-40.53	-45.01	-65.835	0.859856	-0.133468	0.356972	-0.861	0.096	0.5295	0	185	346	3
2026-02-11	15:57:59.590	-25.2	-44.87	-63.875	0.876448	-0.117608	0.345504	-0.8595	0.084	0.5385	0	185	346	3
2026-02-11	15:57:59.610	-16.345	-46.025	-60.025	0.895724	-0.11956	0.353312	-0.8535	0.072	0.5415	0	183	338	3
2026-02-11	15:57:59.630	-2.87	-48.545	-53.9	0.917928	-0.1159	0.3904	-0.8475	0.0675	0.5415	0	183	338	3
2026-02-11	15:57:59.650	5.95	-52.43	-47.18	0.962824	-0.072468	0.404552	-0.846	0.0585	0.549	0	183	338	3
2026-02-11	15:57:59.670	10.85	-57.4	-40.985	1.048224	-0.083204	0.428952	-0.846	0.06	0.564	0	183	338	3
2026-02-11	15:57:59.690	23.03	-61.005	-36.645	1.128256	-0.059292	0.493124	-0.8505	0.045	0.5715	0	183	338	3
2026-02-11	15:57:59.710	37.45	-59.92	-33.74	1.182912	-0.031964	0.566568	-0.8445	0.0435	0.576	0	183	338	3
2026-02-11	15:57:59.730	52.36	-54.495	-29.995	1.261968	0.011712	0.611464	-0.834	0.0345	0.582	0	183	338	3
2026-02-11	15:57:59.750	49.63	-45.955	-24.045	1.278072	0.036844	0.613904	-0.8385	0.03	0.594	0	183	338	3
2026-02-11	15:57:59.770	30.31	-32.13	-12.88	1.21146	0.043676	0.569496	-0.843	0.027	0.606	0	183	338	3
2026-02-11	15:57:59.790	13.51	-20.895	-1.05	1.191452	0.055632	0.537288	-0.843	0.027	0.606	0	183	338	3
2026-02-11	15:57:59.810	6.475	-10.85	8.295	1.190232	0.051484	0.550464	-0.828	0.0375	0.615	0	181	352	3
2026-02-11	15:57:59.830	2.485	1.575	17.29	1.176568	0.047092	0.571204	-0.819	0.033	0.6195	0	181	352	3
2026-02-11	15:57:59.850	-4.795	16.485	25.025	1.141188	0.044652	0.56364	-0.8295	0.0375	0.633	0	181	352	3
2026-02-11	15:57:59.870	-18.9	30.8	33.215	1.083848	0.030744	0.494344	-0.8325	0.039	0.612	0	181	352	3
2026-02-11	15:57:59.890	-34.51	43.925	42.56	1.046028	-0.002196	0.427	-0.8265	0.042	0.612	0	181	352	3
2026-02-11	15:57:59.910	-36.75	54.215	54.215	1.005524	-0.073932	0.373564	-0.834	0.042	0.603	0	181	352	3
2026-02-11	15:57:59.930	-18.2	60.095	65.205	0.991616	-0.102236	0.35502	-0.8385	0.048	0.597	0	181	352	3
2026-02-11	15:57:59.950	11.935	63.49	73.22	1.015528	-0.08906	0.348676	-0.849	0.0615	0.5865	0	181	352	3
2026-02-11	15:57:59.970	42.945	65.695	77.175	1.0614	-0.081008	0.350628	-0.858	0.0705	0.5775	0	181	352	3
2026-02-11	15:57:59.990	76.405	68.88	77.14	1.090436	-0.088572	0.344528	-0.8535	0.081	0.564	0	181	352	3
2026-02-11	15:58:00.010	110.95	71.82	75.215	1.096048	-0.040992	0.375516	-0.8595	0.093	0.5565	0	180	379	3
2026-02-11	15:58:00.030	127.89	77.42	69.58	1.0797	-0.000976	0.393572	-0.8685	0.1095	0.5535	0	180	379	3
2026-02-11	15:58:00.050	120.785	84.035	63.105	1.065304	0.052704	0.3477	-0.8655	0.114	0.549	0	180	379	3
2026-02-11	15:58:00.070	99.225	90.545	58.31	0.989908	0.053192	0.280112	-0.864	0.1185	0.546	0	180	379	3
2026-02-11	15:58:00.090	80.22	93.17	51.975	0.97112	0.055388	0.250832	-0.867	0.141	0.516	0	180	379	3
2026-02-11	15:58:00.110	55.16	95.13	47.32	0.935008	0.025376	0.22936	-0.8775	0.156	0.5055	0	180	379	3
2026-02-11	15:58:00.130	34.545	94.885	44.625	0.934764	0.011712	0.224236	-0.87	0.1635	0.4905	0	180	379	3
2026-02-11	15:58:00.150	18.935	95.06	44.59	0.88816	0.000732	0.210572	-0.864	0.1605	0.4815	0	180	379	3
2026-02-11	15:58:00.170	8.575	93.205	42.84	0.878156	-0.0244	0.191296	-0.873	0.171	0.4575	0	180	379	3
2026-02-11	15:58:00.190	-1.68	88.655	42.7	0.892064	-0.02928	0.175436	-0.87	0.183	0.444	0	180	379	3
2026-02-11	15:58:00.210	-13.125	82.845	41.685	0.889624	-0.014884	0.176168	-0.864	0.186	0.4335	0	178	386	3
2026-02-11	15:58:00.230	-24.99	76.58	39.97	0.881816	-0.015372	0.194712	-0.8685	0.1905	0.4245	0	178	386	3
2026-02-11	15:58:00.250	-38.15	70.385	37.52	0.870836	-0.006832	0.20008	-0.8595	0.207	0.4095	0	178	386	3
2026-02-11	15:58:00.270	-51.555	62.195	33.88	0.883036	-0.03782	0.195688	-0.8535	0.1995	0.402	0	178	386	3
2026-02-11	15:58:00.290	-59.22	50.995	28.245	0.916952	-0.057828	0.203496	-0.8595	0.2115	0.3975	0	178	386	3
2026-02-11	15:58:00.310	-57.995	39.34	21.455	0.940132	-0.080276	0.231312	-0.858	0.2115	0.3855	0	178	386	3
2026-02-11	15:58:00.330	-48.685	24.57	13.51	0.930128	-0.07905599	0.228872	-0.8505	0.225	0.3855	0	178	386	3
2026-02-11	15:58:00.350	-38.15	4.06	3.43	0.945012	-0.072712	0.222772	-0.8505	0.225	0.3855	0	178	386	3
2026-02-11	15:58:00.370	-25.41	-17.745	-9.415	1.016992	-0.081496	0.26962	-0.858	0.2265	0.3795	0	178	386	3
2026-02-11	15:58:00.390	-5.6	-36.925	-23.905	1.102392	-0.086132	0.370636	-0.8475	0.231	0.3915	0	178	386	3
2026-02-11	15:58:00.410	18.34	-49.14	-36.435	1.121668	-0.064416	0.437248	-0.852	0.2205	0.39	0	176	367	3
2026-02-11	15:58:00.430	40.74	-57.015	-45.29	1.108248	-0.031964	0.445056	-0.8535	0.216	0.399	0	176	367	3
2026-02-11	15:58:00.450	54.145	-62.195	-50.05	1.040416	-0.015128	0.411628	-0.861	0.2175	0.4005	0	176	367	3
2026-02-11	15:58:00.470	56.63	-65.94	-50.085	0.935008	0.007564	0.368196	-0.8595	0.201	0.411	0	176	367	3
2026-02-11	15:58:00.490	52.885	-70.56	-45.045	0.88572	0.020252	0.323056	-0.8685	0.1965	0.426	0	176	367	3
2026-02-11	15:58:00.510	50.995	-75.355	-38.36	0.90646	0.021716	0.30256	-0.8745	0.1815	0.4275	0	176	367	3
2026-02-11	15:58:00.530	61.775	-77.35	-31.99	0.951112	-0.0366	0.306952	-0.873	0.1815	0.4365	0	176	367	3
2026-02-11	15:58:00.550	94.92	-74.795	-25.69	0.9882	-0.059292	0.312076	-0.873	0.1665	0.4515	0	176	367	3
2026-02-11	15:58:00.570	124.53	-69.895	-18.97	0.98576	-0.002196	0.306952	-0.879	0.165	0.4635	0	176	367	3
2026-02-11	15:58:00.590	126.525	-65.975	-13.965	0.99796	0.07686	0.2989	-0.8715	0.1575	0.4725	0	176	367	3
2026-02-11	15:58:00.610	104.09	-62.895	-11.41	1.00528	0.127368	0.317688	-0.8865	0.1545	0.48	0	172	348	3
2026-02-11	15:58:00.630	50.995	-58.38	-12.635	0.992348	0.204228	0.37576	-0.8805	0.159	0.486	0	172	348	3
2026-02-11	15:58:00.650	0.84	-55.65	-13.79	0.932568	0.217404	0.382104	-0.876	0.1605	0.4965	0	172	348	3
2026-02-11	15:58:00.670	-51.24	-54.005	-15.155	0.859612	0.1586	0.36356	-0.8805	0.15	0.501	0	172	348	3
2026-02-11	15:58:00.690	-93.205	-54.425	-17.185	0.811056	0.10736	0.327936	-0.8835	0.1545	0.513	0	172	348	3
2026-02-11	15:58:00.710	-122.675	-56.07	-19.845	0.789096	0.038308	0.293044	-0.885	0.144	0.5295	0	172	348	3
2026-02-11	15:58:00.730	-136.5	-58.835	-22.785	0.784948	-0.011956	0.282552	-0.8775	0.1335	0.522	0	172	348	3
2026-02-11	15:58:00.750	-136.22	-61.88	-26.18	0.799832	-0.066856	0.277916	-0.864	0.138	0.5415	0	172	348	3
2026-02-11	15:58:00.770	-123.655	-65.52	-30.345	0.824476	-0.0976	0.298412	-0.8805	0.1305	0.543	0	172	348	3
2026-02-11	15:58:00.790	-101.43	-67.165	-34.65	0.86132	-0.100284	0.372344	-0.8745	0.123	0.546	0	172	348	3
2026-02-11	15:58:00.810	-74.725	-65.52	-38.815	0.88938	-0.07442	0.40748	-0.876	0.114	0.5655	0	169	339	3
2026-02-11	15:58:00.830	-57.365	-63.105	-40.39	0.882548	-0.060024	0.382836	-0.876	0.1035	0.5745	0	169	339	3
2026-02-11	15:58:00.850	-47.39	-63.07	-40.32	0.903532	-0.074908	0.362828	-0.861	0.096	0.5835	0	169	339	3
2026-02-11	15:58:00.870	-30.31	-64.645	-39.795	0.958676	-0.076372	0.412116	-0.8685	0.0885	0.5955	0	169	339	3
2026-02-11	15:58:00.890	-8.645	-64.61	-36.925	0.99918	-0.067588	0.474824	-0.861	0.09	0.5985	0	169	339	3
2026-02-11	15:58:00.910	24.255	-59.78	-28.385	1.067744	-0.047824	0.520696	-0.8535	0.069	0.606	0	169	339	3
2026-02-11	15:58:00.930	45.99	-53.935	-21.595	1.138748	-0.035624	0.55022	-0.8535	0.069	0.606	0	169	339	3
2026-02-11	15:58:00.950	63.98	-44.765	-14.385	1.185596	0.011224	0.564372	-0.852	0.0675	0.6345	0	169	339	3
2026-02-11	15:58:00.970	69.755	-34.3	-7.35	1.262212	0.058072	0.546072	-0.843	0.069	0.6375	0	169	339	3
2026-02-11	15:58:00.990	64.715	-22.785	-2.135	1.297836	0.10736	0.559248	-0.843	0.072	0.6495	0	169	339	3
2026-02-11	15:58:01.010	50.19	-8.715	2.555	1.238788	0.133468	0.541924	-0.843	0.0675	0.6435	0	166	348	3
2026-02-11	15:58:01.030	28.63	3.325	7.49	1.216828	0.12444	0.509228	-0.843	0.075	0.6555	0	166	348	3
2026-02-11	15:58:01.050	8.05	13.86	11.165	1.215852	0.103944	0.495564	-0.84	0.075	0.657	0	166	348	3
2026-02-11	15:58:01.070	-4.55	25.235	14.84	1.201212	0.062952	0.498736	-0.8445	0.084	0.645	0	166	348	3
2026-02-11	15:58:01.090	-11.795	37.73	19.18	1.14924	0.026108	0.49776	-0.837	0.0825	0.6465	0	166	348	3
2026-02-11	15:58:01.110	-10.08	50.96	23.905	1.085556	0.011224	0.492636	-0.8565	0.081	0.639	0	166	348	3
2026-02-11	15:58:01.130	-4.025	62.895	28.035	1.080432	0.024888	0.44774	-0.843	0.0825	0.633	0	166	348	3
2026-02-11	15:58:01.150	-2.94	74.55	31.43	1.083604	0.021472	0.387472	-0.8535	0.081	0.6255	0	166	348	3
2026-02-11	15:58:01.170	-3.5	85.085	35.035	1.063108	-0.01952	0.342576	-0.858	0.0915	0.6195	0	166	348	3
2026-02-11	15:58:01.190	6.37	94.045	40.95	1.071648	-0.029524	0.30378	-0.855	0.0855	0.6015	0	166	348	3
2026-02-11	15:58:01.210	18.76	97.405	43.47	1.091168	-0.025864	0.296216	-0.855	0.0975	0.5835	0	165	372	3
2026-02-11	15:58:01.230	29.19	99.575	44.275	1.105076	-0.026596	0.296216	-0.8565	0.1095	0.567	0	165	372	3
2026-02-11	15:58:01.250	35.595	101.045	44.625	1.095072	-0.039284	0.28426	-0.867	0.1185	0.561	0	165	372	3
2026-02-11	15:58:01.270	38.43	100.52	44.94	1.062376	-0.046848	0.26718	-0.8715	0.123	0.546	0	165	372	3
2026-02-11	15:58:01.290	38.395	98.455	46.06	1.013332	-0.016836	0.26474	-0.87	0.1335	0.5205	0	165	372	3
2026-02-11	15:58:01.310	30.45	96.005	44.87	0.9699	-0.015372	0.263276	-0.8745	0.129	0.513	0	165	372	3
2026-02-11	15:58:01.330	19.985	93.065	44.03	0.975756	-0.027084	0.260592	-0.8655	0.147	0.495	0	165	372	3
2026-02-11	15:58:01.350	12.705	91.21	45.08	0.951112	-0.00854	0.241804	-0.867	0.1545	0.4845	0	165	372	3
2026-02-11	15:58:01.370	1.75	89.355	44.345	0.89426	-0.02074	0.219356	-0.8655	0.1545	0.4755	0	165	372	3
2026-02-11	15:58:01.390	-12.635	84.315	43.54	0.88572	-0.046848	0.193004	-0.8655	0.162	0.4605	0	165	372	3
2026-02-11	15:58:01.410	-24.22	78.715	45.15	0.874496	-0.066368	0.17202	-0.861	0.1695	0.447	0	164	379	3
2026-02-11	15:58:01.430	-26.285	72.345	47.145	0.890112	-0.089792	0.167384	-0.858	0.1725	0.4335	0	164	379	3
2026-02-11	15:58:01.450	-19.075	66.605	49.175	0.8845	-0.08662	0.179584	-0.852	0.1875	0.426	0	164	379	3
2026-02-11	15:58:01.470	-5.74	59.5	48.965	0.872788	-0.072712	0.194956	-0.855	0.1935	0.414	0	164	379	3
2026-02-11	15:58:01.490	2.66	49.49	46.34	0.859368	-0.05734	0.197884	-0.8475	0.1995	0.408	0	164	379	3
2026-02-11	15:58:01.510	5.705	39.34	40.74	0.869616	-0.049776	0.207644	-0.84	0.207	0.402	0	164	379	3
2026-02-11	15:58:01.530	5.39	27.895	32.305	0.903044	-0.050752	0.214232	-0.8415	0.21	0.402	0	164	379	3
2026-02-11	15:58:01.550	3.85	16.205	23.1	0.930128	-0.046116	0.233752	-0.8385	0.219	0.384	0	164	379	3
2026-02-11	15:58:01.570	0.91	5.145	13.51	0.929884	-0.026352	0.236924	-0.831	0.2205	0.3885	0	164	379	3
2026-02-11	15:58:01.590	-4.55	-8.75	1.54	0.93696	-0.024156	0.225212	-0.8325	0.2295	0.3885	0	164	379	3
2026-02-11	15:58:01.610	-9.625	-27.055	-13.72	1.01016	-0.03172	0.226676	-0.834	0.219	0.384	0	164	359	3
2026-02-11	15:58:01.630	-9.835	-46.83	-31.535	1.126548	-0.049288	0.286944	-0.8325	0.222	0.393	0	164	359	3
2026-02-11	15:58:01.650	-3.22	-61.18	-47.915	1.185352	-0.051728	0.365756	-0.8385	0.2175	0.3945	0	164	359	3
2026-02-11	15:58:01.670	7.7	-69.475	-61.25	1.191696	-0.041236	0.404308	-0.8385	0.213	0.4065	0	164	359	3
2026-02-11	15:58:01.690	15.89	-73.08	-68.32	1.114836	-0.025132	0.400892	-0.84	0.204	0.4125	0	164	359	3
2026-02-11	15:58:01.710	17.535	-72.73	-68.32	1.004792	-0.002196	0.385764	-0.843	0.1995	0.4305	0	164	359	3
2026-02-11	15:58:01.730	14.91	-70.21	-62.3	0.91988	0.025132	0.366976	-0.8535	0.1815	0.4485	0	164	359	3
2026-02-11	15:58:01.750	12.355	-65.17	-52.955	0.89548	0.076372	0.356972	-0.849	0.171	0.4515	0	164	359	3
2026-02-11	15:58:01.770	2.1	-60.2	-43.12	0.9272	0.13298	0.324764	-0.849	0.171	0.4515	0	164	359	3
2026-02-11	15:58:01.790	-16.87	-57.75	-37.695	0.951112	0.136152	0.288408	-0.852	0.1605	0.4635	0	164	359	3
2026-02-11	15:58:01.810	-37.45	-58.135	-36.715	0.987712	0.113948	0.273036	-0.8565	0.1485	0.48	0	163	337	3
2026-02-11	15:58:01.830	-55.755	-59.255	-37.94	1.015284	0.077104	0.288164	-0.8565	0.147	0.483	0	163	337	3
2026-02-11	15:58:01.850	-73.99	-59.5	-40.495	1.016992	0.02684	0.316712	-0.855	0.1395	0.4935	0	163	337	3
2026-02-11	15:58:01.870	-89.005	-58.17	-43.54	0.968924	-0.01952	0.332572	-0.8475	0.1425	0.498	0	163	337	3
2026-02-11	15:58:01.890	-96.215	-56.35	-45.36	0.8906	-0.058072	0.328424	-0.8565	0.1305	0.5025	0	163	337	3
2026-02-11	15:58:01.910	-92.89	-55.3	-45.71	0.825208	-0.10492	0.309148	-0.8565	0.1155	0.513	0	163	337	3
2026-02-11	15:58:01.930	-78.295	-55.86	-45.78	0.786412	-0.134444	0.294752	-0.8565	0.1185	0.5205	0	163	337	3
2026-02-11	15:58:01.950	-59.465	-57.89	-45.115	0.764208	-0.135908	0.290116	-0.8505	0.102	0.525	0	163	337	3
2026-02-11	15:58:01.970	-42.525	-60.655	-44.45	0.762012	-0.134444	0.294508	-0.846	0.102	0.5265	0	163	337	3
2026-02-11	15:58:01.990	-26.915	-64.05	-43.96	0.79178	-0.099552	0.327936	-0.8475	0.0945	0.5415	0	163	337	3
2026-02-11	15:58:02.010	-18.235	-66.22	-43.925	0.860588	-0.057584	0.38308	-0.8475	0.0945	0.5415	0	161	326	3
2026-02-11	15:58:02.030	-19.355	-65.03	-43.05	0.892552	-0.067832	0.394548	-0.849	0.075	0.564	0	161	326	3
2026-02-11	15:58:02.050	-16.1	-62.79	-40.81	0.937204	-0.07076	0.394548	-0.849	0.075	0.564	0	161	326	3
2026-02-11	15:58:02.070	-11.2	-61.53	-37.1	0.965264	-0.05856	0.400648	-0.843	0.0645	0.576	0	161	326	3
2026-02-11	15:58:02.090	-4.06	-60.795	-31.78	0.975268	-0.051728	0.43432	-0.834	0.051	0.591	0	161	326	3
2026-02-11	15:58:02.110	6.265	-60.165	-25.095	0.999912	-0.034404	0.468236	-0.828	0.048	0.597	0	161	326	3
2026-02-11	15:58:02.130	16.38	-59.045	-17.43	1.030168	-0.010736	0.48068	-0.825	0.0465	0.6	0	161	326	3
2026-02-11	15:58:02.150	22.365	-58.065	-9.8	1.082628	0.007808	0.490928	-0.825	0.045	0.6105	0	161	326	3
2026-02-11	15:58:02.170	32.865	-56.98	-5.075	1.162416	0.003904	0.544608	-0.825	0.0435	0.6255	0	161	326	3
2026-02-11	15:58:02.190	48.615	-54.355	-3.78	1.258064	0.0244	0.610732	-0.813	0.0465	0.6345	0	161	326	3
2026-02-11	15:58:02.210	58.03	-45.92	-3.115	1.269044	0.044652	0.633668	-0.813	0.039	0.6345	0	160	335	3
2026-02-11	15:58:02.230	57.75	-34.265	-1.68	1.255136	0.030988	0.592432	-0.813	0.0405	0.645	0	160	335	3
2026-02-11	15:58:02.250	58.205	-24.29	-1.085	1.281244	0.020496	0.581452	-0.8085	0.051	0.651	0	160	335	3
2026-02-11	15:58:02.270	64.4	-12.635	-1.4	1.321992	0.029768	0.628544	-0.798	0.054	0.6615	0	160	335	3
2026-02-11	15:58:02.290	70.175	4.795	-0.525	1.33102	0.045628	0.664656	-0.807	0.0585	0.666	0	160	335	3
2026-02-11	15:58:02.310	69.825	28.525	3.08	1.262944	0.037576	0.631228	-0.8055	0.0615	0.675	0	160	335	3
2026-02-11	15:58:02.330	58.135	64.295	14.525	1.118252	0.006832	0.4514	-0.8055	0.0615	0.675	0	160	335	3
2026-02-11	15:58:02.350	52.36	78.26	23.065	1.092144	0.011712	0.338672	-0.8085	0.066	0.6585	0	160	335	3
2026-02-11	15:58:02.370	49.385	91.35	32.095	1.075308	-0.026108	0.267668	-0.8145	0.075	0.6345	0	160	335	3
2026-02-11	15:58:02.390	56.21	99.085	37.275	1.040172	-0.034892	0.23302	-0.819	0.084	0.6255	0	160	335	3
2026-02-11	15:58:02.410	65.345	102.69	39.55	1.092876	-0.008296	0.252784	-0.825	0.0915	0.618	0	161	366	3
2026-02-11	15:58:02.430	74.935	106.995	40.74	1.180716	-0.020008	0.299144	-0.8295	0.0945	0.612	0	161	366	3
2026-02-11	15:58:02.450	80.85	115.955	38.78	1.176568	0.05856	0.340624	-0.8385	0.1065	0.5925	0	161	366	3
2026-02-11	15:58:02.470	67.76	124.775	37.625	1.20292	0.041968	0.329644	-0.837	0.114	0.585	0	161	366	3
2026-02-11	15:58:02.490	43.015	131.005	38.185	1.120204	0.056364	0.31598	-0.846	0.117	0.561	0	161	366	3
2026-02-11	15:58:02.510	12.145	133	42.07	1.105076	0.05368	0.278404	-0.8535	0.1335	0.5445	0	161	366	3
2026-02-11	15:58:02.530	-21.735	133.98	44.555	1.04066	0.084668	0.25986	-0.8475	0.1335	0.519	0	161	366	3
2026-02-11	15:58:02.550	-65.205	129.815	50.015	1.00894	0.005124	0.204472	-0.849	0.141	0.513	0	161	366	3
2026-02-11	15:58:02.570	-86.17	123.305	54.635	0.962092	-0.062464	0.16958	-0.843	0.15	0.489	0	161	366	3
2026-02-11	15:58:02.590	-92.47	114.8	58.975	0.962092	-0.066368	0.154696	-0.84	0.15	0.4665	0	161	366	3
2026-02-11	15:58:02.610	-85.05	105.84	61.565	0.959408	-0.126392	0.150304	-0.8475	0.165	0.4545	0	163	379	3
2026-02-11	15:58:02.630	-72.835	100.66	64.505	0.932568	-0.118828	0.135908	-0.843	0.1725	0.438	0	163	379	3
2026-02-11	15:58:02.650	-57.295	94.71	65.695	0.90158	-0.147864	0.140544	-0.8355	0.186	0.417	0	163	379	3
2026-02-11	15:58:02.670	-35.42	87.955	68.705	0.864248	-0.133224	0.14396	-0.8355	0.198	0.408	0	163	379	3
2026-02-11	15:58:02.690	-14.91	78.33	69.475	0.842044	-0.083936	0.147376	-0.828	0.2085	0.396	0	163	379	3
2026-02-11	15:58:02.710	-5.11	65.94	64.645	0.827892	-0.060512	0.14274	-0.822	0.2175	0.384	0	163	379	3
2026-02-11	15:58:02.730	-1.82	49.7	55.16	0.837652	-0.057828	0.160308	-0.8265	0.222	0.3825	0	163	379	3
2026-02-11	15:58:02.750	2.975	32.34	41.93	0.858392	-0.065148	0.184464	-0.813	0.2265	0.378	0	163	379	3
2026-02-11	15:58:02.770	9.835	14.805	28.175	0.890112	-0.077104	0.214232	-0.8115	0.24	0.381	0	163	379	3
2026-02-11	15:58:02.790	15.75	-1.54	14.07	0.860344	-0.055388	0.243268	-0.804	0.237	0.3735	0	163	379	3
2026-02-11	15:58:02.810	16.52	-19.775	-1.785	0.888404	-0.023668	0.274012	-0.801	0.243	0.366	0	167	358	3
2026-02-11	15:58:02.830	11.585	-38.815	-21.105	0.975268	-0.006344	0.319884	-0.8115	0.24	0.369	0	167	358	3
2026-02-11	15:58:02.850	8.155	-54.495	-41.02	1.01504	-0.018056	0.355264	-0.813	0.234	0.3765	0	167	358	3
2026-02-11	15:58:02.870	8.4	-68.285	-59.15	1.0309	-0.034404	0.329644	-0.816	0.2325	0.3855	0	167	358	3
2026-02-11	15:58:02.890	5.845	-89.075	-82.32	1.047248	-0.038064	0.278892	-0.819	0.2295	0.39	0	167	358	3
2026-02-11	15:58:02.910	3.395	-102.795	-93.205	1.022116	-0.085644	0.264008	-0.8235	0.2115	0.402	0	167	358	3
2026-02-11	15:58:02.930	15.225	-111.545	-97.51	0.984296	-0.077104	0.369172	-0.831	0.1905	0.4185	0	167	358	3
2026-02-11	15:58:02.950	42.28	-110.81	-96.11	0.969656	-0.056852	0.416508	-0.837	0.18	0.432	0	167	358	3
2026-02-11	15:58:02.970	65.065	-106.015	-90.23	0.96014	-0.014884	0.402356	-0.843	0.165	0.4485	0	167	358	3
2026-02-11	15:58:02.990	76.405	-101.535	-83.685	0.976244	0.033672	0.390156	-0.843	0.15	0.465	0	167	358	3
2026-02-11	15:58:03.010	69.51	-96.6	-75.845	0.98576	0.105652	0.39162	-0.843	0.1395	0.477	0	170	333	3
2026-02-11	15:58:03.030	43.47	-90.475	-68.53	1.00528	0.135176	0.40016	-0.846	0.1365	0.48	0	170	333	3
2026-02-11	15:58:03.050	5.985	-83.51	-61.81	1.021628	0.139568	0.384056	-0.843	0.1185	0.498	0	170	333	3
2026-02-11	15:58:03.070	-37.52	-75.775	-56.665	1.020164	0.085644	0.338672	-0.843	0.1185	0.5115	0	170	333	3
2026-02-11	15:58:03.090	-71.505	-68.845	-52.78	1.012356	0.0244	0.298656	-0.8445	0.105	0.516	0	170	333	3
2026-02-11	15:58:03.110	-90.125	-63.945	-47.705	0.990396	-0.064172	0.30134	-0.8445	0.0945	0.5265	0	170	333	3
2026-02-11	15:58:03.130	-88.585	-59.815	-42.42	0.952332	-0.094428	0.330376	-0.8415	0.0825	0.5355	0	170	333	3
2026-02-11	15:58:03.150	-80.43	-56.07	-36.96	0.90646	-0.080764	0.343308	-0.8445	0.075	0.54	0	170	333	3
2026-02-11	15:58:03.170	-69.825	-51.485	-30.345	0.864736	-0.070516	0.349652	-0.8265	0.0645	0.543	0	170	333	3
2026-02-11	15:58:03.190	-68.285	-47.18	-24.465	0.850096	-0.06832	0.373076	-0.825	0.063	0.549	0	170	333	3
2026-02-11	15:58:03.210	-77.84	-44.87	-20.37	0.853268	-0.083204	0.405772	-0.8235	0.057	0.5565	0	170	325	3
2026-02-11	15:58:03.230	-84.175	-42.455	-18.235	0.865468	-0.072224	0.436028	-0.8265	0.0495	0.561	0	170	325	3
2026-02-11	15:58:03.250	-86.38	-39.865	-17.15	0.86986	-0.050264	0.4514	-0.831	0.0435	0.5625	0	170	325	3
2026-02-11	15:58:03.270	-85.925	-37.87	-15.82	0.887916	-0.069784	0.441396	-0.828	0.0345	0.5625	0	170	325	3
2026-02-11	15:58:03.290	-77.63	-38.43	-14.035	0.94428	-0.101992	0.461648	-0.8205	0.03	0.5685	0	170	325	3
2026-02-11	15:58:03.310	-58.065	-38.99	-12.18	0.988444	-0.096136	0.532164	-0.816	0.0315	0.5715	0	170	325	3
2026-02-11	15:58:03.330	-33.075	-36.505	-8.925	1.012112	-0.003172	0.615612	-0.8145	0.033	0.573	0	170	325	3
2026-02-11	15:58:03.350	-17.15	-28.35	-5.11	0.982588	0.041968	0.601948	-0.816	0.024	0.5715	0	170	325	3
2026-02-11	15:58:03.370	-11.935	-23.24	-1.085	1.02358	0.041968	0.578768	-0.81	0.021	0.576	0	170	325	3
2026-02-11	15:58:03.390	-4.9	-19.74	1.61	1.097756	0.01708	0.634644	-0.8085	0.0225	0.582	0	170	325	3
2026-02-11	15:58:03.410	4.375	-14.21	3.185	1.193648	0.01464	0.67954	-0.8055	0.024	0.579	0	169	343	3
2026-02-11	15:58:03.430	11.97	-5.74	4.83	1.262212	0.01952	0.687592	-0.807	0.0195	0.5895	0	169	343	3
2026-02-11	15:58:03.450	15.47	9.135	8.365	1.202676	0.025864	0.630252	-0.807	0.027	0.5865	0	169	343	3
2026-02-11	15:58:03.470	17.85	21.385	13.685	1.165832	-0.013908	0.547292	-0.807	0.027	0.5865	0	169	343	3
2026-02-11	15:58:03.490	27.755	28.035	18.41	1.163148	-0.033916	0.509472	-0.8145	0.024	0.5865	0	169	343	3
2026-02-11	15:58:03.510	41.545	34.09	23.24	1.159	-0.038308	0.504836	-0.8145	0.024	0.585	0	169	343	3
2026-02-11	15:58:03.530	59.395	42.14	27.09	1.10776	-0.06466	0.477996	-0.8085	0.03	0.582	0	169	343	3
2026-02-11	15:58:03.550	77.105	49.7	31.29	1.057984	-0.081496	0.40138	-0.81	0.0345	0.5775	0	169	343	3
2026-02-11	15:58:03.570	91.07	54.18	35.35	1.044564	-0.08906	0.331352	-0.8175	0.039	0.57	0	169	343	3
2026-02-11	15:58:03.590	100.8	57.085	37.975	1.021628	-0.072712	0.323788	-0.8205	0.048	0.5625	0	169	343	3
2026-02-11	15:58:03.610	110.46	61.355	38.815	1.028704	-0.066124	0.406016	-0.8175	0.057	0.5595	0	168	382	3
2026-02-11	15:58:03.630	118.72	70.875	38.43	1.085068	-0.040992	0.476776	-0.819	0.06	0.5625	0	168	382	3
2026-02-11	15:58:03.650	114.24	85.4	40.18	1.102636	-0.077104	0.425048	-0.816	0.0675	0.549	0	168	382	3
2026-02-11	15:58:03.670	100.065	98.665	41.685	1.093852	-0.042944	0.33916	-0.822	0.0825	0.5475	0	168	382	3
2026-02-11	15:58:03.690	78.05	110.285	41.755	1.0614	-0.010736	0.326228	-0.8295	0.09	0.5325	0	168	382	3
2026-02-11	15:58:03.710	30.8	118.685	43.575	1.014552	-0.02562	0.334524	-0.8265	0.1005	0.528	0	168	382	3
2026-02-11	15:58:03.730	-29.47	121.38	49.98	0.96868	-0.07905599	0.342576	-0.828	0.1065	0.5025	0	168	382	3
2026-02-11	15:58:03.750	-72.24	121.17	58.38	0.909632	-0.120292	0.319152	-0.828	0.1065	0.5025	0	168	382	3
2026-02-11	15:58:03.770	-92.96	117.46	64.855	0.894748	-0.131516	0.305488	-0.8265	0.117	0.477	0	168	382	3
2026-02-11	15:58:03.790	-92.96	112.315	67.76	0.905972	-0.13664	0.330864	-0.828	0.1335	0.4485	0	168	382	3
2026-02-11	15:58:03.810	-82.915	108.22	67.2	0.899628	-0.147132	0.310124	-0.8235	0.1425	0.4395	0	167	405	3
2026-02-11	15:58:03.830	-78.33	101.885	65.415	0.865956	-0.143716	0.256444	-0.8145	0.1545	0.4245	0	167	405	3
2026-02-11	15:58:03.850	-78.365	92.645	62.825	0.849852	-0.14762	0.217892	-0.8145	0.1635	0.411	0	167	405	3
2026-02-11	15:58:03.870	-76.51	81.165	60.55	0.820328	-0.130784	0.231068	-0.816	0.171	0.402	0	167	405	3
2026-02-11	15:58:03.890	-68.565	72.415	54.075	0.805444	-0.11468	0.258152	-0.81	0.1845	0.396	0	167	405	3
2026-02-11	15:58:03.910	-60.725	65.695	45.36	0.821792	-0.1037	0.236924	-0.804	0.1935	0.3885	0	167	405	3
2026-02-11	15:58:03.930	-56.455	56.455	35.875	0.805688	-0.11956	0.185928	-0.8025	0.195	0.384	0	167	405	3
2026-02-11	15:58:03.950	-49.665	42.49	27.3	0.813496	-0.12566	0.182756	-0.7965	0.2025	0.378	0	167	405	3
2026-02-11	15:58:03.970	-38.71	27.825	18.655	0.818864	-0.129808	0.228384	-0.798	0.201	0.3885	0	167	405	3
2026-02-11	15:58:03.990	-24.465	14.42	12.005	0.824476	-0.097112	0.250344	-0.7965	0.2055	0.375	0	167	405	3
2026-02-11	15:58:04.010	-14.385	-5.285	3.92	0.862296	-0.080764	0.218624	-0.7965	0.2055	0.375	0	166	397	3
2026-02-11	15:58:04.030	-1.505	-33.145	-8.575	0.973316	-0.074664	0.29646	-0.7935	0.2115	0.3735	0	166	397	3
2026-02-11	15:58:04.050	22.82	-51.38	-22.575	1.053104	-0.053192	0.439932	-0.7935	0.216	0.3765	0	166	397	3
2026-02-11	15:58:04.070	54.39	-61.565	-39.06	1.093852	-0.005368	0.502396	-0.798	0.2175	0.381	0	166	397	3
2026-02-11	15:58:04.090	70.49	-71.68	-53.55	1.123376	0.053192	0.473848	-0.804	0.2085	0.3855	0	166	397	3
2026-02-11	15:58:04.110	65.345	-81.97	-63.63	1.095072	0.05734	0.445788	-0.8055	0.1965	0.3945	0	166	397	3
2026-02-11	15:58:04.130	59.57	-90.44	-70.945	1.036756	0.062708	0.480192	-0.807	0.1875	0.4095	0	166	397	3
2026-02-11	15:58:04.150	57.925	-91.07	-75.39	0.931348	0.09516	0.476288	-0.8145	0.177	0.417	0	166	397	3
2026-02-11	15:58:04.170	48.755	-91.21	-75.635	0.865712	0.097844	0.412848	-0.813	0.1635	0.4275	0	166	397	3
2026-02-11	15:58:04.190	38.43	-94.255	-73.99	0.899384	0.096136	0.361852	-0.8115	0.153	0.441	0	166	397	3
2026-02-11	15:58:04.210	31.045	-97.37	-72.31	0.953552	0.06588	0.318176	-0.813	0.1425	0.45	0	166	381	3
2026-02-11	15:58:04.230	29.365	-101.15	-69.965	1.019676	0.046848	0.301584	-0.813	0.1365	0.4545	0	166	381	3
2026-02-11	15:58:04.250	30.59	-104.405	-67.585	1.102392	0.04148	0.351116	-0.822	0.129	0.465	0	166	381	3
2026-02-11	15:58:04.270	32.27	-101.815	-65.8	1.14436	0.022692	0.422852	-0.819	0.114	0.4845	0	166	381	3
2026-02-11	15:58:04.290	30.59	-95.305	-63.21	1.134356	0.027328	0.449692	-0.8175	0.1005	0.498	0	166	381	3
2026-02-11	15:58:04.310	8.855	-83.125	-59.85	1.05164	0.065148	0.460184	-0.819	0.0945	0.507	0	166	381	3
2026-02-11	15:58:04.330	-15.925	-74.48	-58.17	0.972096	0.076128	0.429928	-0.8145	0.087	0.5175	0	166	381	3
2026-02-11	15:58:04.350	-47.46	-67.655	-55.965	0.873032	0.049776	0.366244	-0.8115	0.075	0.534	0	166	381	3
2026-02-11	15:58:04.370	-77.42	-65.625	-54.215	0.828136	0.000976	0.314516	-0.807	0.063	0.546	0	166	381	3
2026-02-11	15:58:04.390	-96.95	-65.94	-54.145	0.812764	-0.036356	0.314516	-0.7995	0.0555	0.549	0	166	381	3
2026-02-11	15:58:04.410	-100.275	-66.01	-54.985	0.831552	-0.099552	0.329888	-0.798	0.048	0.552	0	166	375	3
2026-02-11	15:58:04.430	-91.28	-65.03	-55.44	0.863516	-0.136884	0.355508	-0.7995	0.0375	0.558	0	166	375	3
2026-02-11	15:58:04.450	-73.325	-62.755	-55.3	0.896944	-0.158356	0.373564	-0.7965	0.027	0.564	0	166	375	3
2026-02-11	15:58:04.470	-52.57	-61.005	-53.9	0.917684	-0.121756	0.397476	-0.7905	0.0195	0.5715	0	166	375	3
2026-02-11	15:58:04.490	-36.4	-59.465	-52.08	0.944768	-0.06588	0.4453	-0.789	0.0135	0.576	0	166	375	3
2026-02-11	15:58:04.510	-28.245	-56.49	-49.84	0.978196	-0.01708	0.465552	-0.786	0.012	0.576	0	166	375	3
2026-02-11	15:58:04.530	-32.795	-52.745	-44.94	0.979416	-0.008784	0.46604	-0.7755	-0.0015	0.582	0	166	375	3
2026-02-11	15:58:04.550	-34.58	-49.455	-37.73	0.985516	-0.05978	0.485316	-0.7815	-0.0045	0.591	0	166	375	3
2026-02-11	15:58:04.570	-22.435	-47.215	-29.54	1.036024	-0.074664	0.527528	-0.765	-0.012	0.591	0	166	375	3
2026-02-11	15:58:04.590	5.215	-39.97	-17.99	1.10532	-0.03538	0.576816	-0.768	-0.018	0.6	0	166	375	3
2026-02-11	15:58:04.610	18.725	-32.655	-11.69	1.17852	-0.00122	0.557784	-0.7635	-0.012	0.6015	0	166	381	3
2026-02-11	15:58:04.630	26.18	-25.9	-6.23	1.27978	-0.008052	0.540216	-0.756	-0.0105	0.603	0	166	381	3
2026-02-11	15:58:04.650	29.995	-17.43	-1.19	1.312476	-0.002684	0.55876	-0.7515	-0.018	0.6105	0	166	381	3
2026-02-11	15:58:04.670	28.07	-7.455	4.515	1.294176	0.009028	0.576328	-0.75	-0.018	0.621	0	166	381	3
2026-02-11	15:58:04.690	25.55	3.045	10.15	1.283196	0.035868	0.6222	-0.7485	-0.0135	0.621	0	166	381	3
2026-02-11	15:58:04.710	20.895	17.01	14.91	1.269044	0.100772	0.628056	-0.7485	-0.0075	0.6255	0	166	381	3
2026-02-11	15:58:04.730	-2.625	33.425	20.51	1.186572	0.09394	0.550464	-0.7545	-0.0045	0.627	0	166	381	3
2026-02-11	15:58:04.750	-29.26	47.53	27.965	1.093608	0.021716	0.455792	-0.759	-0.0075	0.618	0	166	381	3
2026-02-11	15:58:04.770	-37.625	57.575	36.68	1.057252	-0.030012	0.403576	-0.7575	-0.009	0.609	0	166	381	3
2026-02-11	15:58:04.790	-33.6	66.01	46.935	1.035292	-0.076128	0.374296	-0.7605	-0.009	0.603	0	166	381	3
2026-02-11	15:58:04.810	-19.53	73.15	57.4	1.01504	-0.119804	0.34892	-0.765	-0.006	0.597	0	166	403	3
2026-02-11	15:58:04.830	5.985	77.84	66.5	1.01626	-0.138104	0.327448	-0.765	-0.0075	0.5925	0	166	403	3
2026-02-11	15:58:04.850	42.525	81.76	72.835	1.04066	-0.140056	0.321104	-0.768	0.0015	0.5865	0	166	403	3
2026-02-11	15:58:04.870	88.69	87.85	75.67	1.080676	-0.081496	0.314516	-0.777	0.015	0.57	0	166	403	3
2026-02-11	15:58:04.890	116.97	94.71	75.705	1.1041	-0.008296	0.328912	-0.777	0.015	0.57	0	166	403	3
2026-02-11	15:58:04.910	116.585	101.395	72.31	1.103856	0.122244	0.37088	-0.783	0.03	0.5625	0	166	403	3
2026-02-11	15:58:04.930	84.91	109.13	68.005	1.086044	0.153476	0.31354	-0.792	0.0525	0.546	0	166	403	3
2026-02-11	15:58:04.950	43.225	115.01	64.505	1.009184	0.085644	0.229116	-0.801	0.063	0.534	0	166	403	3
2026-02-11	15:58:04.970	10.85	114.03	62.37	0.9882	0.054656	0.206912	-0.8085	0.0735	0.5295	0	166	403	3
2026-02-11	15:58:04.990	-18.025	110.775	62.72	0.943304	0.036112	0.203008	-0.804	0.0855	0.5175	0	166	403	3
2026-02-11	15:58:05.010	-40.915	105.805	61.32	0.922076	-0.002684	0.203496	-0.8025	0.096	0.4995	0	167	412	3
2026-02-11	15:58:05.030	-58.065	99.19	60.515	0.915976	-0.000976	0.21228	-0.8085	0.102	0.4845	0	167	412	3
2026-02-11	15:58:05.050	-76.37	92.505	61.845	0.905972	0.013176	0.211792	-0.8115	0.105	0.4725	0	167	412	3
2026-02-11	15:58:05.070	-103.495	84.525	61.53	0.916708	0.01586	0.181536	-0.807	0.1125	0.462	0	167	412	3
2026-02-11	15:58:05.090	-134.995	74.62	61.53	0.898652	0.013664	0.181536	-0.8085	0.1215	0.4545	0	167	412	3
2026-02-11	15:58:05.110	-176.26	64.015	61.25	0.86864	0.042212	0.205204	-0.8115	0.126	0.453	0	167	412	3
2026-02-11	15:58:05.130	-218.75	52.815	60.795	0.866688	0.030256	0.202764	-0.8055	0.141	0.438	0	167	412	3
2026-02-11	15:58:05.150	-255.745	38.15	56.14	0.893772	-0.081496	0.166164	-0.8115	0.1575	0.4245	0	167	412	3
2026-02-11	15:58:05.170	-242.375	24.325	50.19	0.899872	-0.272304	0.13908	-0.8115	0.1575	0.4245	0	167	412	3
2026-02-11	15:58:05.190	-182.805	12.915	44.94	0.911096	-0.362828	0.118096	-0.81	0.171	0.429	0	167	412	3
2026-02-11	15:58:05.210	-105.735	-0.42	37.17	0.9577	-0.368928	0.126636	-0.8085	0.186	0.438	0	169	390	2
2026-02-11	15:58:05.230	-31.64	-14.7	22.68	1.013088	-0.349408	0.169092	-0.8055	0.198	0.4395	0	169	390	2
2026-02-11	15:58:05.250	35.945	-28.35	2.52	1.145092	-0.350384	0.258884	-0.8025	0.207	0.438	0	169	390	2
2026-02-11	15:58:05.270	114.835	-36.015	-18.445	1.247328	-0.382592	0.354776	-0.804	0.2025	0.441	0	169	390	2
2026-02-11	15:58:05.290	204.82	-37.275	-37.345	1.220488	-0.301828	0.366976	-0.8025	0.1995	0.4455	0	169	390	2
2026-02-11	15:58:05.310	272.965	-40.425	-50.82	1.08702	-0.206668	0.312564	-0.804	0.195	0.447	0	169	390	2
2026-02-11	15:58:05.330	317.73	-48.475	-56.21	0.976244	-0.115412	0.283772	-0.8115	0.186	0.4485	0	169	390	2
2026-02-11	15:58:05.350	321.825	-57.33	-53.725	0.846924	0.043432	0.257176	-0.8175	0.177	0.45	0	169	390	2
2026-02-11	15:58:05.370	281.89	-67.655	-46.27	0.800564	0.144936	0.221552	-0.819	0.1635	0.4545	0	169	390	2
2026-02-11	15:58:05.390	219.73	-80.045	-39.445	0.861564	0.260348	0.277916	-0.819	0.1545	0.4605	0	169	390	2
2026-02-11	15:58:05.410	156.345	-82.705	-38.15	0.907924	0.33428	0.363072	-0.8205	0.153	0.4665	0	174	354	3
2026-02-11	15:58:05.430	70.315	-83.58	-38.605	0.922076	0.348676	0.348432	-0.816	0.144	0.4755	0	174	354	3
2026-02-11	15:58:05.450	-16.52	-86.555	-43.89	0.97234	0.241316	0.32818	-0.816	0.144	0.4755	0	174	354	3
2026-02-11	15:58:05.470	-71.33	-88.445	-51.555	0.960384	0.150792	0.32452	-0.8175	0.1395	0.4935	0	174	354	3
2026-02-11	15:58:05.490	-113.645	-90.44	-60.48	0.951844	0.077836	0.325252	-0.819	0.1275	0.516	0	174	354	3
2026-02-11	15:58:05.510	-141.75	-90.685	-69.37	0.904996	-0.005124	0.329156	-0.8145	0.1155	0.5205	0	174	354	3
2026-02-11	15:58:05.530	-149.17	-89.11	-76.09	0.862784	-0.099064	0.330864	-0.8115	0.105	0.531	0	174	354	3
2026-02-11	15:58:05.550	-127.295	-86.135	-82.46	0.84058	-0.167628	0.345992	-0.816	0.093	0.5445	0	174	354	3
2026-02-11	15:58:05.570	-84.595	-82.845	-88.655	0.844728	-0.18544	0.344284	-0.8115	0.0765	0.552	0	174	354	3
2026-02-11	15:58:05.590	-44.625	-80.185	-92.295	0.852536	-0.172264	0.327692	-0.8025	0.057	0.5595	0	174	354	3
2026-02-11	15:58:05.610	-16.24	-79.45	-93.765	0.870836	-0.144936	0.33306	-0.7995	0.0495	0.567	0	180	332	3
2026-02-11	15:58:05.630	4.2	-79.765	-93.73	0.916708	-0.106628	0.370636	-0.7965	0.0375	0.5775	0	180	332	3
2026-02-11	15:58:05.650	10.5	-78.785	-91.105	0.95404	-0.091744	0.399184	-0.789	0.027	0.5925	0	180	332	3
2026-02-11	15:58:05.670	8.61	-77.245	-85.855	0.998692	-0.05856	0.41968	-0.7785	0.0195	0.6	0	180	332	3
2026-02-11	15:58:05.690	0.35	-74.095	-77.35	1.009916	-0.065392	0.431636	-0.774	0.0075	0.603	0	180	332	3
2026-02-11	15:58:05.710	-8.19	-70.245	-66.045	1.012844	-0.084912	0.459208	-0.774	0.003	0.606	0	180	332	3
2026-02-11	15:58:05.730	-7.42	-61.705	-45.185	1.013088	-0.107116	0.519964	-0.7695	0	0.6225	0	180	332	3
2026-02-11	15:58:05.750	3.465	-53.27	-30.1	1.028216	-0.109556	0.573888	-0.756	-0.006	0.63	0	180	332	3
2026-02-11	15:58:05.770	19.425	-43.015	-14.455	1.06994	-0.110288	0.59658	-0.747	-0.0135	0.6345	0	180	332	3
2026-02-11	15:58:05.790	37.765	-32.515	-0.175	1.137772	-0.104188	0.591212	-0.7485	-0.015	0.642	0	180	332	3
2026-02-11	15:58:05.810	55.65	-22.365	11.585	1.272216	-0.05734	0.587064	-0.7425	-0.0105	0.6525	0	186	336	3
2026-02-11	15:58:05.830	66.885	-8.26	19.46	1.368596	0.019032	0.598288	-0.7395	-0.0105	0.6555	0	186	336	3
2026-02-11	15:58:05.850	56.805	8.715	27.16	1.299056	0.08052	0.563152	-0.741	-0.006	0.66	0	186	336	3
2026-02-11	15:58:05.870	31.955	23.66	34.65	1.223172	0.112728	0.503616	-0.747	0.003	0.6645	0	186	336	3
2026-02-11	15:58:05.890	10.675	33.635	38.885	1.199504	0.11834	0.51362	-0.7545	0.009	0.666	0	186	336	3
2026-02-11	15:58:05.910	-3.92	43.54	41.685	1.182424	0.099796	0.543876	-0.7545	0.0105	0.6615	0	186	336	3
2026-02-11	15:58:05.930	-11.445	52.675	44.205	1.178032	0.051728	0.559004	-0.7575	0.015	0.654	0	186	336	3
2026-02-11	15:58:05.950	-10.29	62.825	46.725	1.150948	0.004636	0.540216	-0.765	0.0195	0.6465	0	186	336	3
2026-02-11	15:58:05.970	-4.13	73.57	50.505	1.114836	-0.053192	0.465308	-0.771	0.027	0.642	0	186	336	3
2026-02-11	15:58:05.990	6.79	80.955	54.81	1.145092	-0.09076799	0.372344	-0.7755	0.033	0.636	0	186	336	3
2026-02-11	15:58:06.010	30.73	87.43	62.3	1.125572	-0.114924	0.271572	-0.783	0.036	0.6285	0	192	367	3
2026-02-11	15:58:06.030	51.485	89.355	65.765	1.10166	-0.080032	0.266936	-0.7935	0.045	0.618	0	192	367	3
2026-02-11	15:58:06.050	74.97	90.825	67.27	1.098244	-0.056852	0.272304	-0.798	0.051	0.6015	0	192	367	3
2026-02-11	15:58:06.070	95.69	93.17	66.22	1.138992	-0.01098	0.321592	-0.7995	0.063	0.594	0	192	367	3
2026-02-11	15:58:06.090	105.245	97.65	64.295	1.044076	-0.026352	0.277184	-0.804	0.081	0.585	0	192	367	3
2026-02-11	15:58:06.110	107.975	96.32	56.91	1.104832	0.088328	0.326472	-0.8085	0.096	0.5715	0	192	367	3
2026-02-11	15:58:06.130	72.24	99.085	56.07	1.028704	0.015616	0.293776	-0.813	0.108	0.558	0	192	367	3
2026-02-11	15:58:06.150	50.33	99.365	52.535	0.991372	0.066856	0.277916	-0.816	0.1185	0.549	0	192	367	3
2026-02-11	15:58:06.170	19.145	98.42	49.91	0.973072	0.038308	0.24522	-0.8205	0.1275	0.5385	0	192	367	3
2026-02-11	15:58:06.190	-13.405	95.2	47.705	0.97356	0.008052	0.195688	-0.8235	0.138	0.5235	0	192	367	3
2026-02-11	15:58:06.210	-48.335	90.72	47.6	0.925492	-0.011712	0.182756	-0.8205	0.141	0.5085	0	195	385	3
2026-02-11	15:58:06.230	-93.205	85.015	53.095	0.878644	-0.027328	0.188856	-0.822	0.144	0.498	0	195	385	3
2026-02-11	15:58:06.250	-130.375	79.1	61.285	0.874984	-0.068564	0.181536	-0.8235	0.1545	0.4905	0	195	385	3
2026-02-11	15:58:06.270	-143.36	72.52	68.46	0.896212	-0.106384	0.178852	-0.819	0.1635	0.477	0	195	385	3
2026-02-11	15:58:06.290	-132.895	64.19	74.83	0.9272	-0.141032	0.181292	-0.822	0.1725	0.465	0	195	385	3
2026-02-11	15:58:06.310	-121.485	59.01	79.695	0.86132	-0.172752	0.164944	-0.8205	0.1815	0.4575	0	195	385	3
2026-02-11	15:58:06.330	-104.3	50.75	82.04	0.831064	-0.198616	0.14884	-0.816	0.189	0.453	0	195	385	3
2026-02-11	15:58:06.350	-79.275	40.39	79.8	0.856928	-0.218136	0.152988	-0.813	0.201	0.4545	0	195	385	3
2026-02-11	15:58:06.370	-50.26	29.05	73.395	0.889624	-0.22326	0.184952	-0.8115	0.21	0.4485	0	195	385	3
2026-02-11	15:58:06.390	-18.48	18.2	62.825	0.926956	-0.227652	0.22448	-0.8145	0.225	0.447	0	195	385	3
2026-02-11	15:58:06.410	13.965	8.68	50.645	0.924272	-0.199836	0.247172	-0.8085	0.2385	0.444	0	197	369	3
2026-02-11	15:58:06.430	40.81	-1.925	36.47	0.916464	-0.174704	0.25254	-0.804	0.2415	0.441	0	197	369	3
2026-02-11	15:58:06.450	61.53	-15.33	18.34	0.932568	-0.135664	0.25864	-0.8055	0.243	0.441	0	197	369	3
2026-02-11	15:58:06.470	79.17	-31.395	-3.64	0.989908	-0.125904	0.299144	-0.804	0.2475	0.438	0	197	369	3
2026-02-11	15:58:06.490	99.225	-46.13	-26.355	1.003084	-0.102968	0.360144	-0.8055	0.2445	0.441	0	197	369	3
2026-02-11	15:58:06.510	117.18	-60.865	-48.125	1.06384	-0.066612	0.405772	-0.8055	0.2355	0.4455	0	197	369	3
2026-02-11	15:58:06.530	122.185	-73.08	-66.535	1.087996	-0.013908	0.43554	-0.807	0.2295	0.447	0	197	369	3
2026-02-11	15:58:06.550	117.005	-80.815	-78.61	1.041636	0.01586	0.47336	-0.813	0.219	0.4515	0	197	369	3
2026-02-11	15:58:06.570	107.03	-81.795	-85.4	0.925736	0.07564	0.480192	-0.819	0.2055	0.462	0	197	369	3
2026-02-11	15:58:06.590	82.215	-81.935	-84.98	0.893284	0.10492	0.392108	-0.822	0.1995	0.468	0	197	369	3
2026-02-11	15:58:06.610	56.385	-84.84	-82.11	0.933788	0.095404	0.32696	-0.8235	0.1905	0.477	0	197	345	3
2026-02-11	15:58:06.630	38.535	-86.135	-77.595	0.966728	0.060268	0.301584	-0.8265	0.1725	0.4905	0	197	345	3
2026-02-11	15:58:06.650	31.115	-86.765	-73.115	0.996496	0.069296	0.33062	-0.8265	0.1605	0.498	0	197	345	3
2026-02-11	15:58:06.670	29.68	-83.51	-69.755	1.025288	0.123708	0.404308	-0.8295	0.153	0.513	0	197	345	3
2026-02-11	15:58:06.690	11.69	-77.42	-67.83	1.042124	0.157624	0.412848	-0.831	0.144	0.522	0	197	345	3
2026-02-11	15:58:06.710	-22.47	-71.575	-66.92	1.034316	0.10492	0.399184	-0.828	0.1335	0.525	0	197	345	3
2026-02-11	15:58:06.730	-54.915	-66.255	-66.57	0.98942	0.060024	0.382592	-0.8265	0.126	0.5385	0	197	345	3
2026-02-11	15:58:06.750	-81.83	-62.3	-66.5	0.936716	0.022692	0.374052	-0.8205	0.1185	0.5535	0	197	345	3
2026-02-11	15:58:06.770	-100.94	-58.87	-65.38	0.878156	-0.040504	0.361608	-0.819	0.1095	0.558	0	197	345	3
2026-02-11	15:58:06.790	-108.675	-56.105	-62.825	0.8357	-0.089548	0.352336	-0.8145	0.0975	0.5595	0	197	345	3
2026-02-11	15:58:06.810	-103.565	-53.97	-59.99	0.805444	-0.127612	0.3355	-0.8145	0.084	0.5655	0	196	338	3
2026-02-11	15:58:06.830	-89.39	-53.025	-57.47	0.80154	-0.144692	0.328424	-0.8115	0.072	0.573	0	196	338	3
2026-02-11	15:58:06.850	-65.695	-52.185	-53.69	0.844728	-0.14884	0.343308	-0.81	0.0585	0.5775	0	196	338	3
2026-02-11	15:58:06.870	-44.66	-51.17	-49.63	0.884744	-0.149572	0.34282	-0.816	0.054	0.576	0	196	338	3
2026-02-11	15:58:06.890	-30.555	-50.05	-45.78	0.898652	-0.137372	0.359168	-0.804	0.0435	0.5865	0	196	338	3
2026-02-11	15:58:06.910	-14.14	-48.335	-41.37	0.888648	-0.100772	0.376248	-0.8025	0.039	0.585	0	196	338	3
2026-02-11	15:58:06.930	-6.3	-47.215	-36.855	0.891332	-0.073688	0.395036	-0.7965	0.03	0.591	0	196	338	3
2026-02-11	15:58:06.950	-8.26	-46.97	-31.99	0.890844	-0.070272	0.39894	-0.7905	0.027	0.5985	0	196	338	3
2026-02-11	15:58:06.970	-8.54	-47.845	-26.145	0.93086	-0.086132	0.427488	-0.789	0.021	0.603	0	196	338	3
2026-02-11	15:58:06.990	2.625	-47.39	-19.67	0.999424	-0.090524	0.501176	-0.783	0.0135	0.6075	0	196	338	3
2026-02-11	15:58:07.010	21.91	-42.91	-12.145	1.074088	-0.06344	0.545828	-0.783	0.0135	0.6165	0	192	345	3
2026-02-11	15:58:07.030	33.355	-35.875	-4.27	1.120936	-0.017812	0.54534	-0.7845	0.0105	0.624	0	192	345	3
2026-02-11	15:58:07.050	36.89	-29.4	2.94	1.204628	0.003416	0.523868	-0.78	0.015	0.6285	0	192	345	3
2026-02-11	15:58:07.070	38.255	-24.045	9.205	1.320528	0.024644	0.54656	-0.7785	0.015	0.6405	0	192	345	3
2026-02-11	15:58:07.090	36.645	-14.875	15.085	1.337364	0.052216	0.562908	-0.7785	0.0135	0.648	0	192	345	3
2026-02-11	15:58:07.110	29.4	-5.88	21	1.349076	0.085644	0.55022	-0.7755	0.0195	0.648	0	192	345	3
2026-02-11	15:58:07.130	17.185	5.285	25.795	1.30784	0.108336	0.580232	-0.774	0.0255	0.6465	0	192	345	3
2026-02-11	15:58:07.150	7.56	19.425	29.33	1.179008	0.087108	0.601948	-0.7785	0.03	0.6465	0	192	345	3
2026-02-11	15:58:07.170	9.45	30.625	32.165	1.096292	0.054412	0.576816	-0.786	0.042	0.642	0	192	345	3
2026-02-11	15:58:07.190	15.995	40.32	34.895	1.055056	0.018788	0.511424	-0.786	0.0345	0.642	0	192	345	3
2026-02-11	15:58:07.210	26.915	49.105	37.695	1.063596	-0.028548	0.43432	-0.789	0.0345	0.6375	0	189	370	3
2026-02-11	15:58:07.230	45.955	57.925	40.6	1.021872	-0.041724	0.39162	-0.7935	0.0435	0.6285	0	189	370	3
2026-02-11	15:58:07.250	66.115	66.395	43.365	1.001376	-0.031476	0.355508	-0.795	0.054	0.624	0	189	370	3
2026-02-11	15:58:07.270	82.46	73.15	45.115	0.985516	-0.016348	0.323056	-0.801	0.0615	0.618	0	189	370	3
2026-02-11	15:58:07.290	93.8	77.595	45.29	0.994544	0.003416	0.305976	-0.81	0.072	0.6045	0	189	370	3
2026-02-11	15:58:07.310	99.12	80.64	43.855	1.03456	0.026108	0.313052	-0.8145	0.084	0.5955	0	189	370	3
2026-02-11	15:58:07.330	95.06	84.98	42.56	1.03944	0.040992	0.324276	-0.819	0.0945	0.5895	0	189	370	3
2026-02-11	15:58:07.350	82.005	88.9	40.565	1.035048	0.04514	0.333304	-0.822	0.1035	0.5775	0	189	370	3
2026-02-11	15:58:07.370	66.5	93.135	39.655	1.023336	0.064416	0.32086	-0.828	0.1125	0.564	0	189	370	3
2026-02-11	15:58:07.390	44.52	96.915	39.27	0.99064	0.028548	0.272792	-0.8325	0.12	0.552	0	189	370	3
2026-02-11	15:58:07.410	22.12	97.895	40.565	0.947208	-0.005856	0.2318	-0.8325	0.1275	0.534	0	186	391	3
2026-02-11	15:58:07.430	-0.98	95.375	44.59	0.896212	-0.02562	0.220332	-0.834	0.1335	0.5205	0	186	391	3
2026-02-11	15:58:07.450	-8.82	93.24	46.725	0.896456	0.000244	0.235216	-0.834	0.1335	0.5205	0	186	391	3
2026-02-11	15:58:07.470	-18.55	92.05	48.3	0.902312	-0.001464	0.232044	-0.837	0.1575	0.4845	0	186	391	3
2026-02-11	15:58:07.490	-33.74	89.985	49.875	0.910364	-0.017568	0.20374	-0.831	0.1605	0.483	0	186	391	3
2026-02-11	15:58:07.510	-47.04	86.135	50.96	0.908168	-0.050508	0.181292	-0.8325	0.165	0.471	0	186	391	3
2026-02-11	15:58:07.530	-47.775	80.92	51.205	0.91256	-0.075396	0.189588	-0.831	0.177	0.4575	0	186	391	3
2026-02-11	15:58:07.550	-41.195	75.355	50.96	0.92476	-0.061244	0.208376	-0.8295	0.18	0.453	0	186	391	3
2026-02-11	15:58:07.570	-35.14	68.705	49.98	0.956724	-0.060024	0.215696	-0.8295	0.1845	0.441	0	186	391	3
2026-02-11	15:58:07.590	-29.12	59.885	47.53	1.00406	-0.03294	0.229604	-0.828	0.195	0.4245	0	186	391	3
2026-02-11	15:58:07.610	-25.725	49.84	43.05	1.019432	-0.028792	0.255712	-0.822	0.2055	0.414	0	183	383	3
2026-02-11	15:58:07.630	-22.575	39.095	36.4	1.018456	-0.03294	0.266448	-0.8175	0.2175	0.4065	0	183	383	3
2026-02-11	15:58:07.650	-19.495	26.705	29.645	1.007964	-0.020984	0.269864	-0.819	0.2205	0.4035	0	183	383	3
2026-02-11	15:58:07.670	-16.31	11.06	21.84	1.014308	0.002196	0.282064	-0.8175	0.222	0.4005	0	183	383	3
2026-02-11	15:58:07.690	-14.56	-8.26	10.605	1.059692	0.00732	0.319884	-0.8175	0.2235	0.402	0	183	383	3
2026-02-11	15:58:07.710	-6.44	-34.265	-10.43	1.09312	0.032452	0.43188	-0.816	0.225	0.4035	0	183	383	3
2026-02-11	15:58:07.730	0.455	-45.955	-25.48	1.102148	0.05856	0.459696	-0.816	0.225	0.4035	0	183	383	3
2026-02-11	15:58:07.750	-3.815	-53.06	-39.375	1.037244	0.060024	0.409432	-0.8115	0.228	0.414	0	183	383	3
2026-02-11	15:58:07.770	-13.125	-56.525	-48.44	0.942572	0.050996	0.388448	-0.8145	0.228	0.4185	0	183	383	3
2026-02-11	15:58:07.790	-11.095	-52.605	-53.34	0.878888	0.094184	0.411628	-0.822	0.21	0.4335	0	183	383	3
2026-02-11	15:58:07.810	-18.935	-44.555	-54.705	0.813496	0.125416	0.31964	-0.8265	0.2085	0.4335	0	179	362	3
2026-02-11	15:58:07.830	-43.19	-43.225	-55.51	0.838384	0.111508	0.24522	-0.831	0.2055	0.444	0	179	362	3
2026-02-11	15:58:07.850	-64.645	-44.66	-58.555	0.90524	0.081252	0.228872	-0.8295	0.201	0.45	0	179	362	3
2026-02-11	15:58:07.870	-73.535	-46.165	-61.81	0.94672	0.037576	0.259372	-0.825	0.1905	0.4545	0	179	362	3
2026-02-11	15:58:07.890	-78.435	-47.32	-65.59	0.977464	0.033672	0.285724	-0.8265	0.18	0.4635	0	179	362	3
2026-02-11	15:58:07.910	-87.675	-49.14	-71.12	1.000644	0.036356	0.303292	-0.8325	0.1785	0.4695	0	179	362	3
2026-02-11	15:58:07.930	-105.14	-52.57	-77.735	1.006988	0.006344	0.313052	-0.8325	0.1695	0.4785	0	179	362	3
2026-02-11	15:58:07.950	-123.13	-56.49	-85.19	0.981368	-0.021228	0.343308	-0.837	0.1545	0.4845	0	179	362	3
2026-02-11	15:58:07.970	-133.945	-59.43	-92.47	0.920856	-0.081496	0.390156	-0.8385	0.1425	0.4905	0	179	362	3
2026-02-11	15:58:07.990	-125.16	-61.285	-102.235	0.870348	-0.115656	0.394792	-0.837	0.138	0.495	0	179	362	3
2026-02-11	15:58:08.010	-112.63	-62.3	-108.64	0.838628	-0.173484	0.346724	-0.837	0.138	0.495	0	174	347	3
2026-02-11	15:58:08.030	-89.495	-64.89	-113.925	0.817888	-0.21106	0.297436	-0.8325	0.093	0.525	0	174	347	3
2026-02-11	15:58:08.050	-58.31	-69.125	-116.585	0.833016	-0.243756	0.269864	-0.8295	0.0705	0.5175	0	174	347	3
2026-02-11	15:58:08.070	-21.175	-73.57	-116.445	0.871812	-0.251808	0.29524	-0.822	0.0615	0.5235	0	174	347	3
2026-02-11	15:58:08.090	18.795	-77.105	-113.435	0.958676	-0.24766	0.348432	-0.8115	0.048	0.5385	0	174	347	3
2026-02-11	15:58:08.110	52.36	-77.595	-106.085	1.0187	-0.224968	0.39772	-0.8145	0.0345	0.543	0	174	347	3
2026-02-11	15:58:08.130	77.7	-75.705	-94.185	1.029192	-0.19032	0.44286	-0.8115	0.018	0.5535	0	174	347	3
2026-02-11	15:58:08.150	95.27	-71.785	-79.065	1.02114	-0.138104	0.481412	-0.801	0.009	0.5655	0	174	347	3
2026-02-11	15:58:08.170	100.555	-67.27	-62.02	1.03456	-0.093696	0.508008	-0.798	0.0015	0.5775	0	174	347	3
2026-02-11	15:58:08.190	95.62	-62.16	-44.73	1.043832	-0.013664	0.535092	-0.7935	0.003	0.591	0	174	347	3
2026-02-11	15:58:08.210	78.89	-56.665	-28.315	1.061156	0.058072	0.554856	-0.7875	0.0045	0.609	0	170	346	3
2026-02-11	15:58:08.230	55.86	-49.49	-14.385	1.080676	0.061732	0.583892	-0.783	0.006	0.624	0	170	346	3
2026-02-11	15:58:08.250	37.975	-40.705	-3.92	1.109468	0.064416	0.580232	-0.78	0.0045	0.633	0	170	346	3
2026-02-11	15:58:08.270	24.71	-29.4	6.685	1.210484	0.01464	0.573156	-0.774	0.0015	0.6375	0	170	346	3
2026-02-11	15:58:08.290	23.415	-15.47	15.96	1.302472	-0.008296	0.609024	-0.7725	0.003	0.639	0	170	346	3
2026-02-11	15:58:08.310	23.8	0.035	23.345	1.256844	0	0.586576	-0.774	0.015	0.6555	0	170	346	3
2026-02-11	15:58:08.330	23.24	13.65	31.115	1.220976	0.0183	0.531676	-0.765	0.018	0.645	0	170	346	3
2026-02-11	15:58:08.350	25.48	25.2	37.1	1.207068	0.04026	0.533872	-0.7785	0.021	0.648	0	170	346	3
2026-02-11	15:58:08.370	29.435	35.945	42.07	1.188036	0.062952	0.557296	-0.777	0.027	0.6435	0	170	346	3
2026-02-11	15:58:08.390	31.605	46.41	45.43	1.167052	0.061	0.558272	-0.78	0.033	0.6435	0	170	346	3
2026-02-11	15:58:08.410	31.465	58.03	47.88	1.13216	0.042944	0.52216	-0.7875	0.0375	0.6405	0	168	370	3
2026-02-11	15:58:08.430	28.63	70.28	50.96	1.097268	0.010004	0.444568	-0.7905	0.0465	0.633	0	168	370	3
2026-02-11	15:58:08.450	26.53	81.025	54.88	1.069452	-0.029036	0.360388	-0.795	0.0585	0.621	0	168	370	3
2026-02-11	15:58:08.470	28.245	88.795	59.85	1.02114	-0.0549	0.284504	-0.798	0.06	0.6075	0	168	370	3
2026-02-11	15:58:08.490	33.39	92.47	64.26	0.999912	-0.05734	0.236436	-0.8025	0.0735	0.594	0	168	370	3
2026-02-11	15:58:08.510	41.79	93.275	65.835	0.996496	-0.04636	0.225212	-0.8115	0.087	0.5865	0	168	370	3
2026-02-11	15:58:08.530	52.85	91.525	64.715	1.031388	-0.070028	0.229848	-0.8145	0.096	0.579	0	168	370	3
2026-02-11	15:58:08.550	79.345	90.475	61.74	1.120448	-0.085156	0.269132	-0.819	0.1035	0.5655	0	168	370	3
2026-02-11	15:58:08.570	98.665	92.82	57.505	1.110932	-0.046848	0.315736	-0.822	0.105	0.5595	0	168	370	3
2026-02-11	15:58:08.590	87.85	95.13	54.04	1.10044	-0.007076	0.315004	-0.8265	0.132	0.5385	0	168	370	3
2026-02-11	15:58:06.610	56.385	-84.84	-82.11	0.933788	0.095404	0.32696	-0.8235	0.1905	0.477	0	197	345	3
2026-02-11	15:58:06.630	38.535	-86.135	-77.595	0.966728	0.060268	0.301584	-0.8265	0.1725	0.4905	0	197	345	3
2026-02-11	15:58:06.650	31.115	-86.765	-73.115	0.996496	0.069296	0.33062	-0.8265	0.1605	0.498	0	197	345	3
2026-02-11	15:58:06.670	29.68	-83.51	-69.755	1.025288	0.123708	0.404308	-0.8295	0.153	0.513	0	197	345	3
2026-02-11	15:58:06.690	11.69	-77.42	-67.83	1.042124	0.157624	0.412848	-0.831	0.144	0.522	0	197	345	3
2026-02-11	15:58:06.710	-22.47	-71.575	-66.92	1.034316	0.10492	0.399184	-0.828	0.1335	0.525	0	197	345	3
2026-02-11	15:58:06.730	-54.915	-66.255	-66.57	0.98942	0.060024	0.382592	-0.8265	0.126	0.5385	0	197	345	3
2026-02-11	15:58:06.750	-81.83	-62.3	-66.5	0.936716	0.022692	0.374052	-0.8205	0.1185	0.5535	0	197	345	3
2026-02-11	15:58:06.770	-100.94	-58.87	-65.38	0.878156	-0.040504	0.361608	-0.819	0.1095	0.558	0	197	345	3
2026-02-11	15:58:06.790	-108.675	-56.105	-62.825	0.8357	-0.089548	0.352336	-0.8145	0.0975	0.5595	0	197	345	3
2026-02-11	15:58:06.810	-103.565	-53.97	-59.99	0.805444	-0.127612	0.3355	-0.8145	0.084	0.5655	0	196	338	3
2026-02-11	15:58:06.830	-89.39	-53.025	-57.47	0.80154	-0.144692	0.328424	-0.8115	0.072	0.573	0	196	338	3
2026-02-11	15:58:06.850	-65.695	-52.185	-53.69	0.844728	-0.14884	0.343308	-0.81	0.0585	0.5775	0	196	338	3
2026-02-11	15:58:06.870	-44.66	-51.17	-49.63	0.884744	-0.149572	0.34282	-0.816	0.054	0.576	0	196	338	3
2026-02-11	15:58:06.890	-30.555	-50.05	-45.78	0.898652	-0.137372	0.359168	-0.804	0.0435	0.5865	0	196	338	3
2026-02-11	15:58:06.910	-14.14	-48.335	-41.37	0.888648	-0.100772	0.376248	-0.8025	0.039	0.585	0	196	338	3
2026-02-11	15:58:06.930	-6.3	-47.215	-36.855	0.891332	-0.073688	0.395036	-0.7965	0.03	0.591	0	196	338	3
2026-02-11	15:58:06.950	-8.26	-46.97	-31.99	0.890844	-0.070272	0.39894	-0.7905	0.027	0.5985	0	196	338	3
2026-02-11	15:58:06.970	-8.54	-47.845	-26.145	0.93086	-0.086132	0.427488	-0.789	0.021	0.603	0	196	338	3
2026-02-11	15:58:06.990	2.625	-47.39	-19.67	0.999424	-0.090524	0.501176	-0.783	0.0135	0.6075	0	196	338	3
2026-02-11	15:58:07.010	21.91	-42.91	-12.145	1.074088	-0.06344	0.545828	-0.783	0.0135	0.6165	0	192	345	3
2026-02-11	15:58:07.030	33.355	-35.875	-4.27	1.120936	-0.017812	0.54534	-0.7845	0.0105	0.624	0	192	345	3
2026-02-11	15:58:07.050	36.89	-29.4	2.94	1.204628	0.003416	0.523868	-0.78	0.015	0.6285	0	192	345	3
2026-02-11	15:58:07.070	38.255	-24.045	9.205	1.320528	0.024644	0.54656	-0.7785	0.015	0.6405	0	192	345	3
2026-02-11	15:58:07.090	36.645	-14.875	15.085	1.337364	0.052216	0.562908	-0.7785	0.0135	0.648	0	192	345	3
2026-02-11	15:58:07.110	29.4	-5.88	21	1.349076	0.085644	0.55022	-0.7755	0.0195	0.648	0	192	345	3
2026-02-11	15:58:07.130	17.185	5.285	25.795	1.30784	0.108336	0.580232	-0.774	0.0255	0.6465	0	192	345	3
2026-02-11	15:58:07.150	7.56	19.425	29.33	1.179008	0.087108	0.601948	-0.7785	0.03	0.6465	0	192	345	3
2026-02-11	15:58:07.170	9.45	30.625	32.165	1.096292	0.054412	0.576816	-0.786	0.042	0.642	0	192	345	3
2026-02-11	15:58:07.190	15.995	40.32	34.895	1.055056	0.018788	0.511424	-0.786	0.0345	0.642	0	192	345	3
2026-02-11	15:58:07.210	26.915	49.105	37.695	1.063596	-0.028548	0.43432	-0.789	0.0345	0.6375	0	189	370	3
2026-02-11	15:58:07.230	45.955	57.925	40.6	1.021872	-0.041724	0.39162	-0.7935	0.0435	0.6285	0	189	370	3
2026-02-11	15:58:07.250	66.115	66.395	43.365	1.001376	-0.031476	0.355508	-0.795	0.054	0.624	0	189	370	3
2026-02-11	15:58:07.270	82.46	73.15	45.115	0.985516	-0.016348	0.323056	-0.801	0.0615	0.618	0	189	370	3
2026-02-11	15:58:07.290	93.8	77.595	45.29	0.994544	0.003416	0.305976	-0.81	0.072	0.6045	0	189	370	3
2026-02-11	15:58:07.310	99.12	80.64	43.855	1.03456	0.026108	0.313052	-0.8145	0.084	0.5955	0	189	370	3
2026-02-11	15:58:07.330	95.06	84.98	42.56	1.03944	0.040992	0.324276	-0.819	0.0945	0.5895	0	189	370	3
2026-02-11	15:58:07.350	82.005	88.9	40.565	1.035048	0.04514	0.333304	-0.822	0.1035	0.5775	0	189	370	3
2026-02-11	15:58:07.370	66.5	93.135	39.655	1.023336	0.064416	0.32086	-0.828	0.1125	0.564	0	189	370	3
2026-02-11	15:58:07.390	44.52	96.915	39.27	0.99064	0.028548	0.272792	-0.8325	0.12	0.552	0	189	370	3
2026-02-11	15:58:07.410	22.12	97.895	40.565	0.947208	-0.005856	0.2318	-0.8325	0.1275	0.534	0	186	391	3
2026-02-11	15:58:07.430	-0.98	95.375	44.59	0.896212	-0.02562	0.220332	-0.834	0.1335	0.5205	0	186	391	3
2026-02-11	15:58:07.450	-8.82	93.24	46.725	0.896456	0.000244	0.235216	-0.834	0.1335	0.5205	0	186	391	3
2026-02-11	15:58:07.470	-18.55	92.05	48.3	0.902312	-0.001464	0.232044	-0.837	0.1575	0.4845	0	186	391	3
2026-02-11	15:58:07.490	-33.74	89.985	49.875	0.910364	-0.017568	0.20374	-0.831	0.1605	0.483	0	186	391	3
2026-02-11	15:58:07.510	-47.04	86.135	50.96	0.908168	-0.050508	0.181292	-0.8325	0.165	0.471	0	186	391	3
2026-02-11	15:58:07.530	-47.775	80.92	51.205	0.91256	-0.075396	0.189588	-0.831	0.177	0.4575	0	186	391	3
2026-02-11	15:58:07.550	-41.195	75.355	50.96	0.92476	-0.061244	0.208376	-0.8295	0.18	0.453	0	186	391	3
2026-02-11	15:58:07.570	-35.14	68.705	49.98	0.956724	-0.060024	0.215696	-0.8295	0.1845	0.441	0	186	391	3
2026-02-11	15:58:07.590	-29.12	59.885	47.53	1.00406	-0.03294	0.229604	-0.828	0.195	0.4245	0	186	391	3
2026-02-11	15:58:07.610	-25.725	49.84	43.05	1.019432	-0.028792	0.255712	-0.822	0.2055	0.414	0	183	383	3
2026-02-11	15:58:07.630	-22.575	39.095	36.4	1.018456	-0.03294	0.266448	-0.8175	0.2175	0.4065	0	183	383	3
2026-02-11	15:58:07.650	-19.495	26.705	29.645	1.007964	-0.020984	0.269864	-0.819	0.2205	0.4035	0	183	383	3
2026-02-11	15:58:07.670	-16.31	11.06	21.84	1.014308	0.002196	0.282064	-0.8175	0.222	0.4005	0	183	383	3
2026-02-11	15:58:07.690	-14.56	-8.26	10.605	1.059692	0.00732	0.319884	-0.8175	0.2235	0.402	0	183	383	3
2026-02-11	15:58:07.710	-6.44	-34.265	-10.43	1.09312	0.032452	0.43188	-0.816	0.225	0.4035	0	183	383	3
2026-02-11	15:58:07.730	0.455	-45.955	-25.48	1.102148	0.05856	0.459696	-0.816	0.225	0.4035	0	183	383	3
2026-02-11	15:58:07.750	-3.815	-53.06	-39.375	1.037244	0.060024	0.409432	-0.8115	0.228	0.414	0	183	383	3
2026-02-11	15:58:07.770	-13.125	-56.525	-48.44	0.942572	0.050996	0.388448	-0.8145	0.228	0.4185	0	183	383	3
2026-02-11	15:58:07.790	-11.095	-52.605	-53.34	0.878888	0.094184	0.411628	-0.822	0.21	0.4335	0	183	383	3
2026-02-11	15:58:07.810	-18.935	-44.555	-54.705	0.813496	0.125416	0.31964	-0.8265	0.2085	0.4335	0	179	362	3
2026-02-11	15:58:07.830	-43.19	-43.225	-55.51	0.838384	0.111508	0.24522	-0.831	0.2055	0.444	0	179	362	3
2026-02-11	15:58:07.850	-64.645	-44.66	-58.555	0.90524	0.081252	0.228872	-0.8295	0.201	0.45	0	179	362	3
2026-02-11	15:58:07.870	-73.535	-46.165	-61.81	0.94672	0.037576	0.259372	-0.825	0.1905	0.4545	0	179	362	3
2026-02-11	15:58:07.890	-78.435	-47.32	-65.59	0.977464	0.033672	0.285724	-0.8265	0.18	0.4635	0	179	362	3
2026-02-11	15:58:07.910	-87.675	-49.14	-71.12	1.000644	0.036356	0.303292	-0.8325	0.1785	0.4695	0	179	362	3
2026-02-11	15:58:07.930	-105.14	-52.57	-77.735	1.006988	0.006344	0.313052	-0.8325	0.1695	0.4785	0	179	362	3
2026-02-11	15:58:07.950	-123.13	-56.49	-85.19	0.981368	-0.021228	0.343308	-0.837	0.1545	0.4845	0	179	362	3
2026-02-11	15:58:07.970	-133.945	-59.43	-92.47	0.920856	-0.081496	0.390156	-0.8385	0.1425	0.4905	0	179	362	3
2026-02-11	15:58:07.990	-125.16	-61.285	-102.235	0.870348	-0.115656	0.394792	-0.837	0.138	0.495	0	179	362	3
2026-02-11	15:58:10.010	8.33	54.88	27.825	0.8601	-0.049044	0.229848	-0.834	0.1965	0.432	0	181	402	1
2026-02-11	15:58:10.030	9.415	48.125	28.56	0.881328	-0.035136	0.224724	-0.834	0.1935	0.4095	0	181	402	1
2026-02-11	15:58:10.050	12.425	39.655	27.23	0.943304	-0.02806	0.246928	-0.831	0.198	0.4065	0	181	402	1
2026-02-11	15:58:10.070	17.08	31.64	24.22	1.014064	-0.002196	0.298412	-0.828	0.2025	0.4125	0	181	402	1
2026-02-11	15:58:10.090	18.515	26.81	21.28	1.019432	-0.000488	0.28914	-0.8295	0.21	0.414	0	181	402	1
2026-02-11	15:58:10.110	11.795	20.23	18.34	1.003328	0.000976	0.230092	-0.8265	0.2055	0.405	0	181	402	1
2026-02-11	15:58:10.130	4.025	7.945	13.265	1.02724	-0.00976	0.210084	-0.825	0.2115	0.402	0	181	402	1
2026-02-11	15:58:10.150	2.205	-7.665	4.34	1.105808	0.00732	0.290848	-0.8265	0.21	0.399	0	181	402	1
2026-02-11	15:58:10.170	5.53	-17.71	-6.405	1.131672	0.037088	0.4026	-0.8265	0.2115	0.3975	0	181	402	1
2026-02-11	15:58:10.190	8.295	-22.19	-16.765	1.161196	0.061244	0.438224	-0.828	0.213	0.4005	0	181	402	1
2026-02-11	15:58:08.210	78.89	-56.665	-28.315	1.061156	0.058072	0.554856	-0.7875	0.0045	0.609	0	170	346	3
2026-02-11	15:58:08.230	55.86	-49.49	-14.385	1.080676	0.061732	0.583892	-0.783	0.006	0.624	0	170	346	3
2026-02-11	15:58:08.250	37.975	-40.705	-3.92	1.109468	0.064416	0.580232	-0.78	0.0045	0.633	0	170	346	3
2026-02-11	15:58:08.270	24.71	-29.4	6.685	1.210484	0.01464	0.573156	-0.774	0.0015	0.6375	0	170	346	3
2026-02-11	15:58:08.290	23.415	-15.47	15.96	1.302472	-0.008296	0.609024	-0.7725	0.003	0.639	0	170	346	3
2026-02-11	15:58:08.310	23.8	0.035	23.345	1.256844	0	0.586576	-0.774	0.015	0.6555	0	170	346	3
2026-02-11	15:58:08.330	23.24	13.65	31.115	1.220976	0.0183	0.531676	-0.765	0.018	0.645	0	170	346	3
2026-02-11	15:58:08.350	25.48	25.2	37.1	1.207068	0.04026	0.533872	-0.7785	0.021	0.648	0	170	346	3
2026-02-11	15:58:08.370	29.435	35.945	42.07	1.188036	0.062952	0.557296	-0.777	0.027	0.6435	0	170	346	3
2026-02-11	15:58:08.390	31.605	46.41	45.43	1.167052	0.061	0.558272	-0.78	0.033	0.6435	0	170	346	3
2026-02-11	15:58:10.410	-40.6	-57.155	-25.13	0.96014	-0.040016	0.341356	-0.837	0.1665	0.459	0	179	365	3
2026-02-11	15:58:10.430	-34.125	-61.11	-27.79	0.922564	-0.050752	0.334768	-0.834	0.1665	0.48	0	179	365	3
2026-02-11	15:58:10.450	-21.385	-64.82	-30.135	0.87108	-0.050752	0.345992	-0.843	0.165	0.4815	0	179	365	3
2026-02-11	15:58:10.470	-9.52	-67.585	-32.48	0.818864	-0.051484	0.33184	-0.84	0.159	0.4875	0	179	365	3
2026-02-11	15:58:10.490	-2.205	-71.015	-34.965	0.7808	-0.047092	0.317444	-0.843	0.153	0.501	0	179	365	3
2026-02-11	15:58:10.510	0.28	-74.76	-37.31	0.758108	-0.037332	0.32086	-0.846	0.1485	0.51	0	179	365	3
2026-02-11	15:58:10.530	1.365	-78.96	-40.04	0.764208	-0.0427	0.3233	-0.8415	0.1425	0.5175	0	179	365	3
2026-02-11	15:58:10.550	1.96	-82.635	-42.525	0.807396	-0.055876	0.332816	-0.84	0.141	0.522	0	179	365	3
2026-02-11	15:58:10.570	-2.975	-85.19	-43.54	0.862296	-0.036844	0.340624	-0.8385	0.12	0.546	0	179	365	3
2026-02-11	15:58:10.590	-11.48	-86.38	-43.365	0.929396	-0.077348	0.359168	-0.837	0.1215	0.5625	0	179	365	3
2026-02-11	15:58:10.610	-7.91	-85.715	-42.105	0.973072	-0.091988	0.41724	-0.822	0.12	0.564	0	175	354	3
2026-02-11	15:58:10.630	4.83	-81.025	-38.15	0.99674	-0.054412	0.506544	-0.825	0.108	0.582	0	175	354	3
2026-02-11	15:58:10.650	17.78	-71.89	-32.585	1.020652	-0.006344	0.513376	-0.8145	0.108	0.5955	0	175	354	3
2026-02-11	15:58:10.670	18.165	-63.105	-25.375	1.068964	0.007564	0.505812	-0.819	0.093	0.606	0	175	354	3
2026-02-11	15:58:10.690	20.895	-56.28	-18.06	1.132892	0.050996	0.543388	-0.822	0.0915	0.612	0	175	354	3
2026-02-11	15:58:10.710	20.02	-48.72	-10.255	1.190476	0.122976	0.615124	-0.8085	0.0945	0.627	0	175	354	3
2026-02-11	15:58:10.730	8.015	-37.31	-1.82	1.202188	0.121024	0.62464	-0.8115	0.0885	0.6255	0	175	354	3
2026-02-11	15:58:10.750	-1.33	-26.845	5.355	1.251232	0.11102	0.582672	-0.8175	0.0915	0.624	0	175	354	3
2026-02-11	15:58:10.770	-4.025	-17.885	11.025	1.307596	0.079544	0.570716	-0.8085	0.0945	0.63	0	175	354	3
2026-02-11	15:58:10.790	-4.515	-5.32	15.82	1.259772	0.077592	0.547292	-0.8025	0.0975	0.639	0	175	354	3
2026-02-11	15:58:06.810	-103.565	-53.97	-59.99	0.805444	-0.127612	0.3355	-0.8145	0.084	0.5655	0	196	338	3
2026-02-11	15:58:06.830	-89.39	-53.025	-57.47	0.80154	-0.144692	0.328424	-0.8115	0.072	0.573	0	196	338	3
2026-02-11	15:58:06.850	-65.695	-52.185	-53.69	0.844728	-0.14884	0.343308	-0.81	0.0585	0.5775	0	196	338	3
2026-02-11	15:58:06.870	-44.66	-51.17	-49.63	0.884744	-0.149572	0.34282	-0.816	0.054	0.576	0	196	338	3
2026-02-11	15:58:06.890	-30.555	-50.05	-45.78	0.898652	-0.137372	0.359168	-0.804	0.0435	0.5865	0	196	338	3
2026-02-11	15:58:06.910	-14.14	-48.335	-41.37	0.888648	-0.100772	0.376248	-0.8025	0.039	0.585	0	196	338	3
2026-02-11	15:58:06.930	-6.3	-47.215	-36.855	0.891332	-0.073688	0.395036	-0.7965	0.03	0.591	0	196	338	3
2026-02-11	15:58:06.950	-8.26	-46.97	-31.99	0.890844	-0.070272	0.39894	-0.7905	0.027	0.5985	0	196	338	3
2026-02-11	15:58:06.970	-8.54	-47.845	-26.145	0.93086	-0.086132	0.427488	-0.789	0.021	0.603	0	196	338	3
2026-02-11	15:58:06.990	2.625	-47.39	-19.67	0.999424	-0.090524	0.501176	-0.783	0.0135	0.6075	0	196	338	3
2026-02-11	15:58:11.010	92.4	80.01	22.4	1.000156	0.091256	0.296948	-0.8295	0.15	0.573	0	169	387	3
2026-02-11	15:58:11.030	65.17	81.655	21.595	0.98088	0.042212	0.315004	-0.8295	0.1575	0.555	0	169	387	3
2026-02-11	15:58:11.050	40.39	83.125	22.96	0.956236	0.06466	0.328424	-0.831	0.159	0.549	0	169	387	3
2026-02-11	15:58:11.070	14.665	83.125	24.325	0.977464	-0.004636	0.281088	-0.831	0.1635	0.5415	0	169	387	3
2026-02-11	15:58:11.090	0.525	83.265	23.975	0.963312	-0.01464	0.243512	-0.8265	0.1665	0.531	0	169	387	3
2026-02-11	15:58:11.110	-25.445	80.185	25.515	0.953308	-0.075396	0.174704	-0.8235	0.168	0.5235	0	169	387	3
2026-02-11	15:58:11.130	-33.53	76.825	26.74	0.942572	-0.09467199	0.133224	-0.8235	0.168	0.5235	0	169	387	3
2026-02-11	15:58:11.150	-36.19	72.52	29.225	0.93696	-0.093696	0.124684	-0.8295	0.174	0.4905	0	169	387	3
2026-02-11	15:58:11.170	-33.18	68.95	31.99	0.899872	-0.105896	0.142496	-0.831	0.1875	0.4815	0	169	387	3
2026-02-11	15:58:11.190	-25.41	65.135	34.51	0.888404	-0.096136	0.17934	-0.84	0.189	0.4755	0	169	387	3
2026-02-11	15:58:09.210	-89.215	-45.395	-60.34	0.907192	0.06734399	0.362584	-0.8385	0.15	0.501	0	173	346	3
2026-02-11	15:58:09.230	-101.745	-38.325	-58.24	0.825452	0.047824	0.350872	-0.843	0.1365	0.5085	0	173	346	3
2026-02-11	15:58:09.250	-116.06	-33.215	-54.67	0.773236	0.01342	0.320372	-0.837	0.126	0.519	0	173	346	3
2026-02-11	15:58:09.270	-126.84	-30.835	-51.905	0.746396	-0.035868	0.288652	-0.8415	0.129	0.5175	0	173	346	3
2026-02-11	15:58:09.290	-126.63	-30.8	-49.56	0.761768	-0.093696	0.277916	-0.837	0.1185	0.5205	0	173	346	3
2026-02-11	15:58:09.310	-115.255	-31.57	-47.915	0.800808	-0.119804	0.301584	-0.834	0.1065	0.5265	0	173	346	3
2026-02-11	15:58:09.330	-100.065	-31.325	-46.585	0.836188	-0.123708	0.344528	-0.834	0.099	0.528	0	173	346	3
2026-02-11	15:58:09.350	-85.96	-30.065	-46.025	0.87962	-0.107848	0.360388	-0.8295	0.09	0.5325	0	173	346	3
2026-02-11	15:58:09.370	-78.995	-29.54	-45.465	0.902556	-0.113216	0.343064	-0.825	0.0855	0.5325	0	173	346	3
2026-02-11	15:58:09.390	-71.505	-30.485	-43.47	0.904508	-0.108092	0.359412	-0.825	0.078	0.5325	0	173	346	3
2026-02-11	15:58:07.410	22.12	97.895	40.565	0.947208	-0.005856	0.2318	-0.8325	0.1275	0.534	0	186	391	3
2026-02-11	15:58:07.430	-0.98	95.375	44.59	0.896212	-0.02562	0.220332	-0.834	0.1335	0.5205	0	186	391	3
2026-02-11	15:58:07.450	-8.82	93.24	46.725	0.896456	0.000244	0.235216	-0.834	0.1335	0.5205	0	186	391	3
2026-02-11	15:58:07.470	-18.55	92.05	48.3	0.902312	-0.001464	0.232044	-0.837	0.1575	0.4845	0	186	391	3
2026-02-11	15:58:07.490	-33.74	89.985	49.875	0.910364	-0.017568	0.20374	-0.831	0.1605	0.483	0	186	391	3
2026-02-11	15:58:07.510	-47.04	86.135	50.96	0.908168	-0.050508	0.181292	-0.8325	0.165	0.471	0	186	391	3
2026-02-11	15:58:07.530	-47.775	80.92	51.205	0.91256	-0.075396	0.189588	-0.831	0.177	0.4575	0	186	391	3
2026-02-11	15:58:07.550	-41.195	75.355	50.96	0.92476	-0.061244	0.208376	-0.8295	0.18	0.453	0	186	391	3
2026-02-11	15:58:07.570	-35.14	68.705	49.98	0.956724	-0.060024	0.215696	-0.8295	0.1845	0.441	0	186	391	3
2026-02-11	15:58:07.590	-29.12	59.885	47.53	1.00406	-0.03294	0.229604	-0.828	0.195	0.4245	0	186	391	3
2026-02-11	15:58:07.610	-25.725	49.84	43.05	1.019432	-0.028792	0.255712	-0.822	0.2055	0.414	0	183	383	3
2026-02-11	15:58:07.630	-22.575	39.095	36.4	1.018456	-0.03294	0.266448	-0.8175	0.2175	0.4065	0	183	383	3
2026-02-11	15:58:07.650	-19.495	26.705	29.645	1.007964	-0.020984	0.269864	-0.819	0.2205	0.4035	0	183	383	3
2026-02-11	15:58:07.670	-16.31	11.06	21.84	1.014308	0.002196	0.282064	-0.8175	0.222	0.4005	0	183	383	3
2026-02-11	15:58:07.690	-14.56	-8.26	10.605	1.059692	0.00732	0.319884	-0.8175	0.2235	0.402	0	183	383	3
2026-02-11	15:58:07.710	-6.44	-34.265	-10.43	1.09312	0.032452	0.43188	-0.816	0.225	0.4035	0	183	383	3
2026-02-11	15:58:07.730	0.455	-45.955	-25.48	1.102148	0.05856	0.459696	-0.816	0.225	0.4035	0	183	383	3
2026-02-11	15:58:07.750	-3.815	-53.06	-39.375	1.037244	0.060024	0.409432	-0.8115	0.228	0.414	0	183	383	3
2026-02-11	15:58:07.770	-13.125	-56.525	-48.44	0.942572	0.050996	0.388448	-0.8145	0.228	0.4185	0	183	383	3
2026-02-11	15:58:07.790	-11.095	-52.605	-53.34	0.878888	0.094184	0.411628	-0.822	0.21	0.4335	0	183	383	3
2026-02-11	15:58:07.810	-18.935	-44.555	-54.705	0.813496	0.125416	0.31964	-0.8265	0.2085	0.4335	0	179	362	3
2026-02-11	15:58:07.830	-43.19	-43.225	-55.51	0.838384	0.111508	0.24522	-0.831	0.2055	0.444	0	179	362	3
2026-02-11	15:58:07.850	-64.645	-44.66	-58.555	0.90524	0.081252	0.228872	-0.8295	0.201	0.45	0	179	362	3
2026-02-11	15:58:07.870	-73.535	-46.165	-61.81	0.94672	0.037576	0.259372	-0.825	0.1905	0.4545	0	179	362	3
2026-02-11	15:58:07.890	-78.435	-47.32	-65.59	0.977464	0.033672	0.285724	-0.8265	0.18	0.4635	0	179	362	3
2026-02-11	15:58:07.910	-87.675	-49.14	-71.12	1.000644	0.036356	0.303292	-0.8325	0.1785	0.4695	0	179	362	3
2026-02-11	15:58:07.930	-105.14	-52.57	-77.735	1.006988	0.006344	0.313052	-0.8325	0.1695	0.4785	0	179	362	3
2026-02-11	15:58:07.950	-123.13	-56.49	-85.19	0.981368	-0.021228	0.343308	-0.837	0.1545	0.4845	0	179	362	3
2026-02-11	15:58:07.970	-133.945	-59.43	-92.47	0.920856	-0.081496	0.390156	-0.8385	0.1425	0.4905	0	179	362	3
2026-02-11	15:58:07.990	-125.16	-61.285	-102.235	0.870348	-0.115656	0.394792	-0.837	0.138	0.495	0	179	362	3
2026-02-11	15:58:10.010	8.33	54.88	27.825	0.8601	-0.049044	0.229848	-0.834	0.1965	0.432	0	181	402	1
2026-02-11	15:58:10.030	9.415	48.125	28.56	0.881328	-0.035136	0.224724	-0.834	0.1935	0.4095	0	181	402	1
2026-02-11	15:58:10.050	12.425	39.655	27.23	0.943304	-0.02806	0.246928	-0.831	0.198	0.4065	0	181	402	1
2026-02-11	15:58:10.070	17.08	31.64	24.22	1.014064	-0.002196	0.298412	-0.828	0.2025	0.4125	0	181	402	1
2026-02-11	15:58:10.090	18.515	26.81	21.28	1.019432	-0.000488	0.28914	-0.8295	0.21	0.414	0	181	402	1
2026-02-11	15:58:10.110	11.795	20.23	18.34	1.003328	0.000976	0.230092	-0.8265	0.2055	0.405	0	181	402	1
2026-02-11	15:58:10.130	4.025	7.945	13.265	1.02724	-0.00976	0.210084	-0.825	0.2115	0.402	0	181	402	1
2026-02-11	15:58:10.150	2.205	-7.665	4.34	1.105808	0.00732	0.290848	-0.8265	0.21	0.399	0	181	402	1
2026-02-11	15:58:10.170	5.53	-17.71	-6.405	1.131672	0.037088	0.4026	-0.8265	0.2115	0.3975	0	181	402	1
2026-02-11	15:58:10.190	8.295	-22.19	-16.765	1.161196	0.061244	0.438224	-0.828	0.213	0.4005	0	181	402	1
2026-02-11	15:58:08.210	78.89	-56.665	-28.315	1.061156	0.058072	0.554856	-0.7875	0.0045	0.609	0	170	346	3
2026-02-11	15:58:08.230	55.86	-49.49	-14.385	1.080676	0.061732	0.583892	-0.783	0.006	0.624	0	170	346	3
2026-02-11	15:58:08.250	37.975	-40.705	-3.92	1.109468	0.064416	0.580232	-0.78	0.0045	0.633	0	170	346	3
2026-02-11	15:58:08.270	24.71	-29.4	6.685	1.210484	0.01464	0.573156	-0.774	0.0015	0.6375	0	170	346	3
2026-02-11	15:58:08.290	23.415	-15.47	15.96	1.302472	-0.008296	0.609024	-0.7725	0.003	0.639	0	170	346	3
2026-02-11	15:58:08.310	23.8	0.035	23.345	1.256844	0	0.586576	-0.774	0.015	0.6555	0	170	346	3
2026-02-11	15:58:08.330	23.24	13.65	31.115	1.220976	0.0183	0.531676	-0.765	0.018	0.645	0	170	346	3
2026-02-11	15:58:08.350	25.48	25.2	37.1	1.207068	0.04026	0.533872	-0.7785	0.021	0.648	0	170	346	3
2026-02-11	15:58:08.370	29.435	35.945	42.07	1.188036	0.062952	0.557296	-0.777	0.027	0.6435	0	170	346	3
2026-02-11	15:58:08.390	31.605	46.41	45.43	1.167052	0.061	0.558272	-0.78	0.033	0.6435	0	170	346	3
2026-02-11	15:58:10.410	-40.6	-57.155	-25.13	0.96014	-0.040016	0.341356	-0.837	0.1665	0.459	0	179	365	3
2026-02-11	15:58:10.430	-34.125	-61.11	-27.79	0.922564	-0.050752	0.334768	-0.834	0.1665	0.48	0	179	365	3
2026-02-11	15:58:10.450	-21.385	-64.82	-30.135	0.87108	-0.050752	0.345992	-0.843	0.165	0.4815	0	179	365	3
2026-02-11	15:58:10.470	-9.52	-67.585	-32.48	0.818864	-0.051484	0.33184	-0.84	0.159	0.4875	0	179	365	3
2026-02-11	15:58:10.490	-2.205	-71.015	-34.965	0.7808	-0.047092	0.317444	-0.843	0.153	0.501	0	179	365	3
2026-02-11	15:58:10.510	0.28	-74.76	-37.31	0.758108	-0.037332	0.32086	-0.846	0.1485	0.51	0	179	365	3
2026-02-11	15:58:10.530	1.365	-78.96	-40.04	0.764208	-0.0427	0.3233	-0.8415	0.1425	0.5175	0	179	365	3
2026-02-11	15:58:10.550	1.96	-82.635	-42.525	0.807396	-0.055876	0.332816	-0.84	0.141	0.522	0	179	365	3
2026-02-11	15:58:10.570	-2.975	-85.19	-43.54	0.862296	-0.036844	0.340624	-0.8385	0.12	0.546	0	179	365	3
2026-02-11	15:58:10.590	-11.48	-86.38	-43.365	0.929396	-0.077348	0.359168	-0.837	0.1215	0.5625	0	179	365	3
2026-02-11	15:58:10.610	-7.91	-85.715	-42.105	0.973072	-0.091988	0.41724	-0.822	0.12	0.564	0	175	354	3
2026-02-11	15:58:10.630	4.83	-81.025	-38.15	0.99674	-0.054412	0.506544	-0.825	0.108	0.582	0	175	354	3
2026-02-11	15:58:10.650	17.78	-71.89	-32.585	1.020652	-0.006344	0.513376	-0.8145	0.108	0.5955	0	175	354	3
2026-02-11	15:58:10.670	18.165	-63.105	-25.375	1.068964	0.007564	0.505812	-0.819	0.093	0.606	0	175	354	3
2026-02-11	15:58:10.690	20.895	-56.28	-18.06	1.132892	0.050996	0.543388	-0.822	0.0915	0.612	0	175	354	3
2026-02-11	15:58:10.710	20.02	-48.72	-10.255	1.190476	0.122976	0.615124	-0.8085	0.0945	0.627	0	175	354	3
2026-02-11	15:58:10.730	8.015	-37.31	-1.82	1.202188	0.121024	0.62464	-0.8115	0.0885	0.6255	0	175	354	3
2026-02-11	15:58:10.750	-1.33	-26.845	5.355	1.251232	0.11102	0.582672	-0.8175	0.0915	0.624	0	175	354	3
2026-02-11	15:58:10.770	-4.025	-17.885	11.025	1.307596	0.079544	0.570716	-0.8085	0.0945	0.63	0	175	354	3
2026-02-11	15:58:10.790	-4.515	-5.32	15.82	1.259772	0.077592	0.547292	-0.8025	0.0975	0.639	0	175	354	3
2026-02-11	15:58:06.810	-103.565	-53.97	-59.99	0.805444	-0.127612	0.3355	-0.8145	0.084	0.5655	0	196	338	3
2026-02-11	15:58:06.830	-89.39	-53.025	-57.47	0.80154	-0.144692	0.328424	-0.8115	0.072	0.573	0	196	338	3
2026-02-11	15:58:06.850	-65.695	-52.185	-53.69	0.844728	-0.14884	0.343308	-0.81	0.0585	0.5775	0	196	338	3
2026-02-11	15:58:06.870	-44.66	-51.17	-49.63	0.884744	-0.149572	0.34282	-0.816	0.054	0.576	0	196	338	3
2026-02-11	15:58:06.890	-30.555	-50.05	-45.78	0.898652	-0.137372	0.359168	-0.804	0.0435	0.5865	0	196	338	3
2026-02-11	15:58:06.910	-14.14	-48.335	-41.37	0.888648	-0.100772	0.376248	-0.8025	0.039	0.585	0	196	338	3
2026-02-11	15:58:06.930	-6.3	-47.215	-36.855	0.891332	-0.073688	0.395036	-0.7965	0.03	0.591	0	196	338	3
2026-02-11	15:58:06.950	-8.26	-46.97	-31.99	0.890844	-0.070272	0.39894	-0.7905	0.027	0.5985	0	196	338	3
2026-02-11	15:58:06.970	-8.54	-47.845	-26.145	0.93086	-0.086132	0.427488	-0.789	0.021	0.603	0	196	338	3
2026-02-11	15:58:06.990	2.625	-47.39	-19.67	0.999424	-0.090524	0.501176	-0.783	0.0135	0.6075	0	196	338	3
2026-02-11	15:58:11.010	92.4	80.01	22.4	1.000156	0.091256	0.296948	-0.8295	0.15	0.573	0	169	387	3
2026-02-11	15:58:11.030	65.17	81.655	21.595	0.98088	0.042212	0.315004	-0.8295	0.1575	0.555	0	169	387	3
2026-02-11	15:58:11.050	40.39	83.125	22.96	0.956236	0.06466	0.328424	-0.831	0.159	0.549	0	169	387	3
2026-02-11	15:58:11.070	14.665	83.125	24.325	0.977464	-0.004636	0.281088	-0.831	0.1635	0.5415	0	169	387	3
2026-02-11	15:58:11.090	0.525	83.265	23.975	0.963312	-0.01464	0.243512	-0.8265	0.1665	0.531	0	169	387	3
2026-02-11	15:58:11.110	-25.445	80.185	25.515	0.953308	-0.075396	0.174704	-0.8235	0.168	0.5235	0	169	387	3
2026-02-11	15:58:11.130	-33.53	76.825	26.74	0.942572	-0.09467199	0.133224	-0.8235	0.168	0.5235	0	169	387	3
2026-02-11	15:58:11.150	-36.19	72.52	29.225	0.93696	-0.093696	0.124684	-0.8295	0.174	0.4905	0	169	387	3
2026-02-11	15:58:11.170	-33.18	68.95	31.99	0.899872	-0.105896	0.142496	-0.831	0.1875	0.4815	0	169	387	3
2026-02-11	15:58:11.190	-25.41	65.135	34.51	0.888404	-0.096136	0.17934	-0.84	0.189	0.4755	0	169	387	3
2026-02-11	15:58:09.210	-89.215	-45.395	-60.34	0.907192	0.06734399	0.362584	-0.8385	0.15	0.501	0	173	346	3
2026-02-11	15:58:09.230	-101.745	-38.325	-58.24	0.825452	0.047824	0.350872	-0.843	0.1365	0.5085	0	173	346	3
2026-02-11	15:58:09.250	-116.06	-33.215	-54.67	0.773236	0.01342	0.320372	-0.837	0.126	0.519	0	173	346	3
2026-02-11	15:58:09.270	-126.84	-30.835	-51.905	0.746396	-0.035868	0.288652	-0.8415	0.129	0.5175	0	173	346	3
2026-02-11	15:58:09.290	-126.63	-30.8	-49.56	0.761768	-0.093696	0.277916	-0.837	0.1185	0.5205	0	173	346	3
2026-02-11	15:58:09.310	-115.255	-31.57	-47.915	0.800808	-0.119804	0.301584	-0.834	0.1065	0.5265	0	173	346	3
2026-02-11	15:58:09.330	-100.065	-31.325	-46.585	0.836188	-0.123708	0.344528	-0.834	0.099	0.528	0	173	346	3
2026-02-11	15:58:09.350	-85.96	-30.065	-46.025	0.87962	-0.107848	0.360388	-0.8295	0.09	0.5325	0	173	346	3
2026-02-11	15:58:09.370	-78.995	-29.54	-45.465	0.902556	-0.113216	0.343064	-0.825	0.0855	0.5325	0	173	346	3
2026-02-11	15:58:09.390	-71.505	-30.485	-43.47	0.904508	-0.108092	0.359412	-0.825	0.078	0.5325	0	173	346	3
2026-02-11	15:58:07.410	22.12	97.895	40.565	0.947208	-0.005856	0.2318	-0.8325	0.1275	0.534	0	186	391	3
2026-02-11	15:58:07.430	-0.98	95.375	44.59	0.896212	-0.02562	0.220332	-0.834	0.1335	0.5205	0	186	391	3
2026-02-11	15:58:07.450	-8.82	93.24	46.725	0.896456	0.000244	0.235216	-0.834	0.1335	0.5205	0	186	391	3
2026-02-11	15:58:07.470	-18.55	92.05	48.3	0.902312	-0.001464	0.232044	-0.837	0.1575	0.4845	0	186	391	3
2026-02-11	15:58:07.490	-33.74	89.985	49.875	0.910364	-0.017568	0.20374	-0.831	0.1605	0.483	0	186	391	3
2026-02-11	15:58:07.510	-47.04	86.135	50.96	0.908168	-0.050508	0.181292	-0.8325	0.165	0.471	0	186	391	3
2026-02-11	15:58:07.530	-47.775	80.92	51.205	0.91256	-0.075396	0.189588	-0.831	0.177	0.4575	0	186	391	3
2026-02-11	15:58:07.550	-41.195	75.355	50.96	0.92476	-0.061244	0.208376	-0.8295	0.18	0.453	0	186	391	3
2026-02-11	15:58:07.570	-35.14	68.705	49.98	0.956724	-0.060024	0.215696	-0.8295	0.1845	0.441	0	186	391	3
2026-02-11	15:58:07.590	-29.12	59.885	47.53	1.00406	-0.03294	0.229604	-0.828	0.195	0.4245	0	186	391	3
2026-02-11	15:58:07.610	-25.725	49.84	43.05	1.019432	-0.028792	0.255712	-0.822	0.2055	0.414	0	183	383	3
2026-02-11	15:58:07.630	-22.575	39.095	36.4	1.018456	-0.03294	0.266448	-0.8175	0.2175	0.4065	0	183	383	3
2026-02-11	15:58:07.650	-19.495	26.705	29.645	1.007964	-0.020984	0.269864	-0.819	0.2205	0.4035	0	183	383	3
2026-02-11	15:58:07.670	-16.31	11.06	21.84	1.014308	0.002196	0.282064	-0.8175	0.222	0.4005	0	183	383	3
2026-02-11	15:58:07.690	-14.56	-8.26	10.605	1.059692	0.00732	0.319884	-0.8175	0.2235	0.402	0	183	383	3
2026-02-11	15:58:07.710	-6.44	-34.265	-10.43	1.09312	0.032452	0.43188	-0.816	0.225	0.4035	0	183	383	3
2026-02-11	15:58:07.730	0.455	-45.955	-25.48	1.102148	0.05856	0.459696	-0.816	0.225	0.4035	0	183	383	3
2026-02-11	15:58:07.750	-3.815	-53.06	-39.375	1.037244	0.060024	0.409432	-0.8115	0.228	0.414	0	183	383	3
2026-02-11	15:58:07.770	-13.125	-56.525	-48.44	0.942572	0.050996	0.388448	-0.8145	0.228	0.4185	0	183	383	3
2026-02-11	15:58:07.790	-11.095	-52.605	-53.34	0.878888	0.094184	0.411628	-0.822	0.21	0.4335	0	183	383	3
2026-02-11	15:58:07.810	-18.935	-44.555	-54.705	0.813496	0.125416	0.31964	-0.8265	0.2085	0.4335	0	179	362	3
2026-02-11	15:58:07.830	-43.19	-43.225	-55.51	0.838384	0.111508	0.24522	-0.831	0.2055	0.444	0	179	362	3
2026-02-11	15:58:07.850	-64.645	-44.66	-58.555	0.90524	0.081252	0.228872	-0.8295	0.201	0.45	0	179	362	3
2026-02-11	15:58:07.870	-73.535	-46.165	-61.81	0.94672	0.037576	0.259372	-0.825	0.1905	0.4545	0	179	362	3
2026-02-11	15:58:07.890	-78.435	-47.32	-65.59	0.977464	0.033672	0.285724	-0.8265	0.18	0.4635	0	179	362	3
2026-02-11	15:58:07.910	-87.675	-49.14	-71.12	1.000644	0.036356	0.303292	-0.8325	0.1785	0.4695	0	179	362	3
2026-02-11	15:58:07.930	-105.14	-52.57	-77.735	1.006988	0.006344	0.313052	-0.8325	0.1695	0.4785	0	179	362	3
2026-02-11	15:58:07.950	-123.13	-56.49	-85.19	0.981368	-0.021228	0.343308	-0.837	0.1545	0.4845	0	179	362	3
2026-02-11	15:58:07.970	-133.945	-59.43	-92.47	0.920856	-0.081496	0.390156	-0.8385	0.1425	0.4905	0	179	362	3
2026-02-11	15:58:07.990	-125.16	-61.285	-102.235	0.870348	-0.115656	0.394792	-0.837	0.138	0.495	0	179	362	3
2026-02-11	15:58:10.010	8.33	54.88	27.825	0.8601	-0.049044	0.229848	-0.834	0.1965	0.432	0	181	402	1
2026-02-11	15:58:10.030	9.415	48.125	28.56	0.881328	-0.035136	0.224724	-0.834	0.1935	0.4095	0	181	402	1
2026-02-11	15:58:10.050	12.425	39.655	27.23	0.943304	-0.02806	0.246928	-0.831	0.198	0.4065	0	181	402	1
2026-02-11	15:58:10.070	17.08	31.64	24.22	1.014064	-0.002196	0.298412	-0.828	0.2025	0.4125	0	181	402	1
2026-02-11	15:58:10.090	18.515	26.81	21.28	1.019432	-0.000488	0.28914	-0.8295	0.21	0.414	0	181	402	1
2026-02-11	15:58:10.110	11.795	20.23	18.34	1.003328	0.000976	0.230092	-0.8265	0.2055	0.405	0	181	402	1
2026-02-11	15:58:10.130	4.025	7.945	13.265	1.02724	-0.00976	0.210084	-0.825	0.2115	0.402	0	181	402	1
2026-02-11	15:58:10.150	2.205	-7.665	4.34	1.105808	0.00732	0.290848	-0.8265	0.21	0.399	0	181	402	1
2026-02-11	15:58:10.170	5.53	-17.71	-6.405	1.131672	0.037088	0.4026	-0.8265	0.2115	0.3975	0	181	402	1
2026-02-11	15:58:10.190	8.295	-22.19	-16.765	1.161196	0.061244	0.438224	-0.828	0.213	0.4005	0	181	402	1
2026-02-11	15:58:08.210	78.89	-56.665	-28.315	1.061156	0.058072	0.554856	-0.7875	0.0045	0.609	0	170	346	3
2026-02-11	15:58:08.230	55.86	-49.49	-14.385	1.080676	0.061732	0.583892	-0.783	0.006	0.624	0	170	346	3
2026-02-11	15:58:08.250	37.975	-40.705	-3.92	1.109468	0.064416	0.580232	-0.78	0.0045	0.633	0	170	346	3
2026-02-11	15:58:08.270	24.71	-29.4	6.685	1.210484	0.01464	0.573156	-0.774	0.0015	0.6375	0	170	346	3
2026-02-11	15:58:08.290	23.415	-15.47	15.96	1.302472	-0.008296	0.609024	-0.7725	0.003	0.639	0	170	346	3
2026-02-11	15:58:08.310	23.8	0.035	23.345	1.256844	0	0.586576	-0.774	0.015	0.6555	0	170	346	3
2026-02-11	15:58:08.330	23.24	13.65	31.115	1.220976	0.0183	0.531676	-0.765	0.018	0.645	0	170	346	3
2026-02-11	15:58:08.350	25.48	25.2	37.1	1.207068	0.04026	0.533872	-0.7785	0.021	0.648	0	170	346	3
2026-02-11	15:58:08.370	29.435	35.945	42.07	1.188036	0.062952	0.557296	-0.777	0.027	0.6435	0	170	346	3
2026-02-11	15:58:08.390	31.605	46.41	45.43	1.167052	0.061	0.558272	-0.78	0.033	0.6435	0	170	346	3
2026-02-11	15:58:10.410	-40.6	-57.155	-25.13	0.96014	-0.040016	0.341356	-0.837	0.1665	0.459	0	179	365	3
2026-02-11	15:58:10.430	-34.125	-61.11	-27.79	0.922564	-0.050752	0.334768	-0.834	0.1665	0.48	0	179	365	3
2026-02-11	15:58:10.450	-21.385	-64.82	-30.135	0.87108	-0.050752	0.345992	-0.843	0.165	0.4815	0	179	365	3
2026-02-11	15:58:10.470	-9.52	-67.585	-32.48	0.818864	-0.051484	0.33184	-0.84	0.159	0.4875	0	179	365	3
2026-02-11	15:58:10.490	-2.205	-71.015	-34.965	0.7808	-0.047092	0.317444	-0.843	0.153	0.501	0	179	365	3
2026-02-11	15:58:10.510	0.28	-74.76	-37.31	0.758108	-0.037332	0.32086	-0.846	0.1485	0.51	0	179	365	3
2026-02-11	15:58:10.530	1.365	-78.96	-40.04	0.764208	-0.0427	0.3233	-0.8415	0.1425	0.5175	0	179	365	3
2026-02-11	15:58:10.550	1.96	-82.635	-42.525	0.807396	-0.055876	0.332816	-0.84	0.141	0.522	0	179	365	3
2026-02-11	15:58:10.570	-2.975	-85.19	-43.54	0.862296	-0.036844	0.340624	-0.8385	0.12	0.546	0	179	365	3
2026-02-11	15:58:10.590	-11.48	-86.38	-43.365	0.929396	-0.077348	0.359168	-0.837	0.1215	0.5625	0	179	365	3
2026-02-11	15:58:10.610	-7.91	-85.715	-42.105	0.973072	-0.091988	0.41724	-0.822	0.12	0.564	0	175	354	3
2026-02-11	15:58:10.630	4.83	-81.025	-38.15	0.99674	-0.054412	0.506544	-0.825	0.108	0.582	0	175	354	3
2026-02-11	15:58:10.650	17.78	-71.89	-32.585	1.020652	-0.006344	0.513376	-0.8145	0.108	0.5955	0	175	354	3
2026-02-11	15:58:10.670	18.165	-63.105	-25.375	1.068964	0.007564	0.505812	-0.819	0.093	0.606	0	175	354	3
2026-02-11	15:58:10.690	20.895	-56.28	-18.06	1.132892	0.050996	0.543388	-0.822	0.0915	0.612	0	175	354	3
2026-02-11	15:58:10.710	20.02	-48.72	-10.255	1.190476	0.122976	0.615124	-0.8085	0.0945	0.627	0	175	354	3
2026-02-11	15:58:10.730	8.015	-37.31	-1.82	1.202188	0.121024	0.62464	-0.8115	0.0885	0.6255	0	175	354	3
2026-02-11	15:58:10.750	-1.33	-26.845	5.355	1.251232	0.11102	0.582672	-0.8175	0.0915	0.624	0	175	354	3
2026-02-11	15:58:10.770	-4.025	-17.885	11.025	1.307596	0.079544	0.570716	-0.8085	0.0945	0.63	0	175	354	3
2026-02-11	15:58:10.790	-4.515	-5.32	15.82	1.259772	0.077592	0.547292	-0.8025	0.0975	0.639	0	175	354	3
2026-02-11	15:58:06.810	-103.565	-53.97	-59.99	0.805444	-0.127612	0.3355	-0.8145	0.084	0.5655	0	196	338	3
2026-02-11	15:58:06.830	-89.39	-53.025	-57.47	0.80154	-0.144692	0.328424	-0.8115	0.072	0.573	0	196	338	3
2026-02-11	15:58:06.850	-65.695	-52.185	-53.69	0.844728	-0.14884	0.343308	-0.81	0.0585	0.5775	0	196	338	3
2026-02-11	15:58:06.870	-44.66	-51.17	-49.63	0.884744	-0.149572	0.34282	-0.816	0.054	0.576	0	196	338	3
2026-02-11	15:58:06.890	-30.555	-50.05	-45.78	0.898652	-0.137372	0.359168	-0.804	0.0435	0.5865	0	196	338	3
2026-02-11	15:58:06.910	-14.14	-48.335	-41.37	0.888648	-0.100772	0.376248	-0.8025	0.039	0.585	0	196	338	3
2026-02-11	15:58:06.930	-6.3	-47.215	-36.855	0.891332	-0.073688	0.395036	-0.7965	0.03	0.591	0	196	338	3
2026-02-11	15:58:06.950	-8.26	-46.97	-31.99	0.890844	-0.070272	0.39894	-0.7905	0.027	0.5985	0	196	338	3
2026-02-11	15:58:06.970	-8.54	-47.845	-26.145	0.93086	-0.086132	0.427488	-0.789	0.021	0.603	0	196	338	3
2026-02-11	15:58:06.990	2.625	-47.39	-19.67	0.999424	-0.090524	0.501176	-0.783	0.0135	0.6075	0	196	338	3
