yyyy-MM-dd	HH:mm:ss.fff	gyrX	gyrY	gyrZ	accX	accY	accZ	magX	magY	magZ	Marker	Energy	Angle	Classification
2026-02-12	14:48:07.210	1.365	-0.385	0.245	-0.042456	0.059292	1.012844	0.5475	-0.255	-0.537	0	3	1034	1
2026-02-12	14:48:07.230	1.4	-0.105	0.245	-0.04636	0.062952	1.009184	0.5325	-0.258	-0.516	0	3	1034	1
2026-02-12	14:48:07.250	1.26	-1.015	0.28	-0.04514	0.061	1.009184	0.5535	-0.2535	-0.57	0	3	1034	1
2026-02-12	14:48:07.270	1.26	-0.735	0.28	-0.045872	0.058804	1.01138	0.5295	-0.261	-0.4815	0	3	1034	1
2026-02-12	14:48:07.290	1.295	-0.455	0.28	-0.042212	0.059048	1.01016	0.534	-0.2595	-0.6465	0	3	1034	1
2026-02-12	14:48:07.310	1.33	-0.77	0.315	-0.044896	0.063928	1.014308	0.531	-0.282	-0.555	0	3	1034	1
2026-02-12	14:48:07.330	1.295	-0.385	0.28	-0.049776	0.064172	1.0126	0.5085	-0.4215	-0.5925	0	3	1034	1
2026-02-12	14:48:07.350	1.295	-0.63	0.28	-0.043676	0.063196	1.011624	0.5415	-0.258	-0.531	0	3	1034	1
2026-02-12	14:48:07.370	1.295	-0.49	0.28	-0.044408	0.059536	1.010648	0.5295	-0.258	-0.51	0	3	1034	1
2026-02-12	14:48:07.390	1.26	-0.63	0.28	-0.048068	0.060268	1.011868	0.5355	-0.2565	-0.519	0	3	1034	1
2026-02-12	14:48:07.410	1.33	-0.49	0.245	-0.045628	0.055876	1.009916	0.5355	-0.252	-0.54	0	3	1034	1
2026-02-12	14:48:07.430	1.33	-0.63	0.245	-0.047336	0.06222	1.01138	0.5175	-0.252	-0.5115	0	3	1034	1
2026-02-12	14:48:07.450	1.365	-0.56	0.245	-0.043676	0.05856	1.012844	0.561	-0.267	-0.552	0	3	1034	1
2026-02-12	14:48:07.470	1.33	-0.595	0.245	-0.044164	0.064904	1.011624	0.447	-0.435	-0.5445	0	3	1034	1
2026-02-12	14:48:07.490	1.33	-0.665	0.245	-0.044408	0.065148	1.011136	0.375	-0.4905	-0.597	0	3	1034	1
2026-02-12	14:48:07.510	1.295	-0.525	0.245	-0.04758	0.064172	1.01138	0.537	-0.2505	-0.516	0	3	1034	1
2026-02-12	14:48:07.530	1.295	-0.63	0.245	-0.043432	0.060512	1.011624	0.522	-0.252	-0.4815	0	3	1034	1
2026-02-12	14:48:07.550	1.295	-0.56	0.21	-0.043188	0.060024	1.012356	0.5565	-0.285	-0.5625	0	3	1034	1
2026-02-12	14:48:07.570	1.295	-0.56	0.28	-0.043676	0.060756	1.01138	0.5475	-0.276	-0.513	0	3	1034	1
2026-02-12	14:48:07.590	1.295	-0.56	0.28	-0.04636	0.060512	1.012844	0.534	-0.249	-0.4905	0	3	1034	1
2026-02-12	14:48:07.610	1.295	-0.525	0.245	-0.046604	0.057584	1.008452	0.5235	-0.264	-0.5145	0	3	1034	1
2026-02-12	14:48:07.630	1.33	-0.56	0.28	-0.045384	0.061976	1.01016	0.5265	-0.261	-0.489	0	3	1034	1
2026-02-12	14:48:07.650	1.26	-0.595	0.245	-0.047336	0.058804	1.009672	0.537	-0.258	-0.4845	0	3	1034	1
2026-02-12	14:48:07.670	1.33	-0.595	0.245	-0.046604	0.061	1.013332	0.4545	-0.411	-0.5835	0	3	1034	1
2026-02-12	14:48:07.690	1.295	-0.595	0.28	-0.048556	0.060268	1.012112	0.534	-0.2625	-0.5415	0	3	1034	1
2026-02-12	14:48:07.710	1.295	-0.525	0.245	-0.04636	0.063928	1.011868	0.543	-0.2565	-0.564	0	3	1034	1
2026-02-12	14:48:07.730	1.295	-0.595	0.28	-0.044164	0.059048	1.009672	0.552	-0.258	-0.546	0	3	1034	1
2026-02-12	14:48:07.750	1.295	-0.56	0.245	-0.04636	0.060756	1.0126	0.5625	-0.261	-0.5715	0	3	1034	1
2026-02-12	14:48:07.770	1.295	-0.63	0.28	-0.048556	0.060756	1.009184	0.5445	-0.267	-0.534	0	3	1034	1
2026-02-12	14:48:07.790	1.33	-0.595	0.245	-0.047336	0.060024	1.012356	0.5415	-0.36	-0.6075	0	3	1034	1
2026-02-12	14:48:07.810	1.33	-0.595	0.28	-0.046116	0.060268	1.010404	0.5235	-0.2685	-0.543	0	3	1034	1
2026-02-12	14:48:07.830	1.33	-0.56	0.28	-0.043676	0.0549	1.013088	0.549	-0.2595	-0.528	0	3	1034	1
2026-02-12	14:48:07.850	1.33	-0.595	0.245	-0.047092	0.060512	1.009916	0.531	-0.2535	-0.5025	0	3	1034	1
2026-02-12	14:48:07.870	1.26	-0.63	0.245	-0.045628	0.059536	1.013088	0.5295	-0.2685	-0.4845	0	3	1034	1
2026-02-12	14:48:07.890	1.33	-0.595	0.28	-0.045384	0.060512	1.011868	0.558	-0.306	-0.576	0	3	1034	1
2026-02-12	14:48:07.910	1.33	-0.595	0.245	-0.044408	0.062464	1.012844	0.4725	-0.3405	-0.564	0	3	1034	1
2026-02-12	14:48:07.930	1.33	-0.56	0.28	-0.046116	0.062464	1.012356	0.474	-0.2925	-0.582	0	3	1034	1
2026-02-12	14:48:07.950	1.33	-0.595	0.28	-0.045384	0.062464	1.01138	0.528	-0.2535	-0.576	0	3	1034	1
2026-02-12	14:48:07.970	1.295	-0.595	0.245	-0.045872	0.060756	1.010404	0.549	-0.255	-0.558	0	3	1034	1
2026-02-12	14:48:07.990	1.33	-0.56	0.245	-0.04636	0.062464	1.009916	0.5475	-0.324	-0.603	0	3	1034	1
2026-02-12	14:48:08.010	1.33	-0.63	0.28	-0.050264	0.061244	1.010892	0.4065	-0.4425	-0.5895	0	3	1034	1
2026-02-12	14:48:08.030	1.33	-0.49	0.245	-0.044408	0.060024	1.00772	0.5265	-0.2655	-0.537	0	3	1034	1
2026-02-12	14:48:08.050	1.365	-0.56	0.28	-0.046116	0.063928	1.01138	0.5385	-0.2625	-0.4815	0	3	1034	1
2026-02-12	14:48:08.070	1.365	-0.595	0.28	-0.044652	0.061976	1.0126	0.522	-0.2565	-0.492	0	3	1034	1
2026-02-12	14:48:08.090	1.365	-0.56	0.245	-0.0427	0.08784	1.019676	0.5325	-0.2535	-0.531	0	3	1034	1
2026-02-12	14:48:08.110	1.295	-0.56	0.245	-0.044652	0.070516	1.011624	0.5325	-0.2535	-0.531	0	3	1034	1
2026-02-12	14:48:08.130	1.33	-0.595	0.245	-0.044652	0.056608	1.008452	0.528	-0.252	-0.54	0	3	1034	1
2026-02-12	14:48:08.150	1.295	-0.49	0.245	-0.045384	0.057096	1.011136	0.525	-0.252	-0.549	0	3	1034	1
2026-02-12	14:48:08.170	1.295	-0.63	0.245	-0.043188	0.057096	1.008696	0.525	-0.255	-0.5205	0	3	1034	1
2026-02-12	14:48:08.190	1.19	-0.56	0.245	-0.048556	0.052216	1.006256	0.546	-0.276	-0.543	0	3	1034	1
2026-02-12	14:48:06.210	1.295	-0.595	0.245	-0.04758	0.057828	1.014064	0.5175	-0.2835	-0.522	0	3	1034	1
2026-02-12	14:48:06.230	1.295	-0.595	0.245	-0.045628	0.061732	1.011624	0.5025	-0.363	-0.5535	0	3	1034	1
2026-02-12	14:48:06.250	1.33	-0.63	0.28	-0.045628	0.062708	1.013332	0.438	-0.432	-0.5895	0	3	1034	1
2026-02-12	14:48:06.270	1.295	-0.595	0.245	-0.047336	0.06466	1.010404	0.5205	-0.303	-0.582	0	3	1034	1
2026-02-12	14:48:06.290	1.26	-0.595	0.245	-0.041968	0.061976	1.0126	0.549	-0.2805	-0.558	0	3	1034	1
2026-02-12	14:48:06.310	1.295	-0.595	0.245	-0.043432	0.060756	1.011868	0.5415	-0.291	-0.5595	0	3	1034	1
2026-02-12	14:48:06.330	1.33	-0.595	0.28	-0.043188	0.061	1.009184	0.513	-0.303	-0.5715	0	3	1034	1
2026-02-12	14:48:06.350	1.295	-0.595	0.28	-0.044164	0.061488	1.011136	0.567	-0.276	-0.594	0	3	1034	1
2026-02-12	14:48:06.370	1.295	-0.595	0.245	-0.044164	0.06222	1.012356	0.4545	-0.399	-0.5655	0	3	1034	1
2026-02-12	14:48:06.390	1.295	-0.595	0.245	-0.043432	0.062708	1.012356	0.519	-0.276	-0.525	0	3	1034	1
2026-02-12	14:48:12.410	1.19	-0.595	0.28	-0.035624	0.063196	1.011868	0.555	-0.285	-0.567	0	54	108	2
2026-02-12	14:48:12.430	1.33	-0.63	0.245	-0.046116	0.097844	1.01992	0.4995	-0.3225	-0.558	0	54	108	2
2026-02-12	14:48:12.450	1.295	-0.665	0.28	-0.04758	0.084912	1.016992	0.483	-0.357	-0.5655	0	54	108	2
2026-02-12	14:48:12.470	15.96	-7.91	14.49	0.049044	-0.038064	1.02358	0.4665	-0.4155	-0.606	0	54	108	2
2026-02-12	14:48:12.490	14	8.12	25.41	0.170312	-0.188856	1.02114	0.4305	-0.177	-0.447	0	54	108	2
2026-02-12	14:48:12.510	11.34	11.76	27.58	0.193004	-0.212768	0.987468	0.4365	-0.162	-0.399	0	54	108	2
2026-02-12	14:48:12.530	10.325	12.845	34.755	0.233996	-0.186172	0.998204	0.399	-0.18	-0.288	0	54	108	2
2026-02-12	14:48:12.550	11.935	24.675	43.085	0.205936	-0.13664	1.000156	0.3885	-0.1605	-0.366	0	54	108	2
2026-02-12	14:48:12.570	12.565	36.89	45.465	0.128344	-0.088084	1.039196	0.3885	-0.156	-0.3225	0	54	108	2
2026-02-12	14:48:12.590	11.34	40.425	44.905	0.123708	-0.073444	0.99552	0.4155	-0.1575	-0.375	0	54	108	2
2026-02-12	14:48:12.610	8.645	33.25	47.915	0.168604	-0.094916	1.005524	0.3885	-0.1575	-0.309	0	170	323	3
2026-02-12	14:48:12.630	6.65	36.925	51.835	0.153476	-0.114924	1.008452	0.399	-0.1485	-0.312	0	170	323	3
2026-02-12	14:48:12.650	4.165	44.24	52.78	0.113948	-0.108336	0.979172	0.3885	-0.1425	-0.3105	0	170	323	3
2026-02-12	14:48:12.670	3.22	40.215	52.36	0.070272	-0.091988	0.9272	0.396	-0.1425	-0.309	0	170	323	3
2026-02-12	14:48:12.690	0.91	33.985	52.185	0.044896	-0.073932	0.928176	0.432	-0.141	-0.372	0	170	323	3
2026-02-12	14:48:12.710	-2.66	27.475	53.27	0.047824	-0.08295999	0.943792	0.408	-0.1365	-0.3015	0	170	323	3
2026-02-12	14:48:12.730	-3.85	17.465	52.36	0.071492	-0.07808	0.966972	0.4365	-0.1485	-0.399	0	170	323	3
2026-02-12	14:48:12.750	-3.43	14.21	50.645	0.058316	-0.076128	0.899872	0.45	-0.1365	-0.4005	0	170	323	3
2026-02-12	14:48:12.770	-4.55	9.415	49.84	0.016348	-0.066368	0.87596	0.462	-0.135	-0.4485	0	170	323	3
2026-02-12	14:48:12.790	-6.65	5.635	49.665	-0.006344	-0.068564	0.8479	0.462	-0.126	-0.3945	0	170	323	3
2026-02-12	14:48:12.810	-8.295	6.79	49.385	-0.000732	-0.0671	0.83692	0.4635	-0.1275	-0.4545	0	282	512	1
2026-02-12	14:48:12.830	-9.52	9.415	48.65	-0.00244	-0.060268	0.82838	0.4425	-0.1095	-0.4095	0	282	512	1
2026-02-12	14:48:12.850	-10.185	12.25	49.525	0.025132	-0.05734	0.855952	0.4395	-0.1215	-0.417	0	282	512	1
2026-02-12	14:48:12.870	-12.075	16.45	52.675	0.04148	-0.05002	0.83082	0.4365	-0.1065	-0.4275	0	282	512	1
2026-02-12	14:48:12.890	-15.75	10.115	58.87	0.008296	-0.037332	0.862784	0.393	-0.102	-0.4455	0	282	512	1
2026-02-12	14:48:12.910	-21.105	4.06	64.33	-0.006588	-0.0244	0.91012	0.426	-0.102	-0.4395	0	282	512	1
2026-02-12	14:48:12.930	-26.32	1.365	66.85	-0.011712	-0.021472	0.886696	0.4485	-0.093	-0.4305	0	282	512	1
2026-02-12	14:48:12.950	-30.31	-6.405	68.67	0.01952	-0.030256	0.925248	0.4365	-0.072	-0.408	0	282	512	1
2026-02-12	14:48:12.970	-29.47	-8.96	69.475	0.040504	-0.04148	0.93452	0.4485	-0.0735	-0.4605	0	282	512	1
2026-02-12	14:48:12.990	-25.34	-10.01	71.575	0.045628	-0.043676	0.87718	0.375	-0.0825	-0.447	0	282	512	1
2026-02-12	14:48:13.010	-21.805	-13.72	74.62	0.047336	-0.051728	0.884012	0.336	-0.159	-0.441	0	356	632	1
2026-02-12	14:48:13.030	-18.655	-20.195	77.245	0.036112	-0.074176	0.909388	0.405	-0.0735	-0.435	0	356	632	1
2026-02-12	14:48:13.050	-12.495	-31.465	79.87	0.040504	-0.087108	0.922564	0.3585	-0.072	-0.4185	0	356	632	1
2026-02-12	14:48:13.070	-3.5	-32.585	80.535	0.025864	-0.0915	0.925004	0.414	-0.027	-0.402	0	356	632	1
2026-02-12	14:48:13.090	6.405	-26.11	78.68	0.018788	-0.052704	0.897188	0.363	-0.075	-0.396	0	356	632	1
2026-02-12	14:48:13.110	15.295	-27.615	80.675	0.053436	-0.063196	0.965508	0.4035	-0.0165	-0.393	0	356	632	1
2026-02-12	14:48:13.130	25.935	-20.51	82.6	0.065636	-0.0427	0.915976	0.3885	-0.0555	-0.3975	0	356	632	1
2026-02-12	14:48:13.150	36.645	-16.45	82.425	-0.044408	0.086376	0.912316	0.3525	-0.024	-0.4155	0	356	632	1
2026-02-12	14:48:13.170	22.82	-10.43	79.345	-0.01952	-0.02684	1.35908	0.3525	-0.024	-0.4155	0	356	632	1
2026-02-12	14:48:13.190	10.605	-33.6	78.96	0.084424	-0.0854	1.037976	0.3345	-0.114	-0.42	0	356	632	1
2026-02-12	14:48:13.210	8.855	-57.75	83.58	0.132736	-0.014152	1.286368	0.3165	-0.204	-0.4245	0	392	717	1
2026-02-12	14:48:13.230	8.225	-42.77	81.095	0.110044	-0.014396	1.36884	0.3525	-0.108	-0.3795	0	392	717	1
2026-02-12	14:48:13.250	2.73	-7.56	74.62	0.007564	0.020496	1.034316	0.3795	-0.0015	-0.3195	0	392	717	1
2026-02-12	14:48:13.270	-4.62	-20.055	75.565	-0.027572	0.023668	0.961848	0.3855	0.006	-0.3195	0	392	717	1
2026-02-12	14:48:13.290	-9.59	-38.115	78.155	0.021228	-0.010248	1.017236	0.4005	0.0015	-0.3525	0	392	717	1
2026-02-12	14:48:13.310	-10.78	-26.95	75.915	0.060268	-0.087108	1.091412	0.3915	0.009	-0.36	0	392	717	1
2026-02-12	14:48:13.330	-9.275	-20.23	75.11	0.060512	-0.09516	1.068232	0.396	0.018	-0.39	0	392	717	1
2026-02-12	14:48:13.350	-6.125	-12.845	74.27	0.023912	-0.049532	1.082384	0.396	0.0195	-0.4035	0	392	717	1
2026-02-12	14:48:13.370	-6.79	-0.14	71.785	-0.022448	-0.017568	0.99674	0.393	0.03	-0.3645	0	392	717	1
2026-02-12	14:48:13.390	-8.925	-5.565	70.665	-0.011224	-0.01586	0.999424	0.4095	0.042	-0.369	0	392	717	1
2026-02-12	14:48:13.410	-5.635	-7.455	68.005	0.008784	-0.00244	1.036268	0.393	0.039	-0.3795	0	400	797	1
2026-02-12	14:48:13.430	0.28	7.56	63.175	0.009028	0.009272	1.037976	0.408	0.0285	-0.3645	0	400	797	1
2026-02-12	14:48:13.450	4.97	14.525	60.725	0.044652	0.011956	1.016504	0.435	0.036	-0.378	0	400	797	1
2026-02-12	14:48:13.470	7.105	12.04	62.125	0.051728	0.010492	1.020896	0.4425	0.0465	-0.4185	0	400	797	1
2026-02-12	14:48:13.490	6.23	13.055	63.91	0.069052	0.000488	0.988932	0.4185	-0.003	-0.405	0	400	797	1
2026-02-12	14:48:13.510	7	6.615	64.96	0.042456	-0.001464	0.976	0.3975	0.0015	-0.318	0	400	797	1
2026-02-12	14:48:13.530	8.05	2.555	64.225	0.025376	0.012444	1.011868	0.414	0.063	-0.255	0	400	797	1
2026-02-12	14:48:13.550	7.805	-1.715	62.3	0.022448	-0.0183	1.039684	0.402	0.0675	-0.2475	0	400	797	1
2026-02-12	14:48:13.570	7.42	-10.43	59.85	0.015372	-0.02318	1.0614	0.4095	0.075	-0.2835	0	400	797	1
2026-02-12	14:48:13.590	4.06	-17.395	57.19	0.015372	-0.030012	1.068232	0.426	0.081	-0.2805	0	400	797	1
2026-02-12	14:48:13.610	1.365	-29.05	54.845	0.02562	-0.062464	1.024556	0.417	0.0765	-0.2415	0	387	865	1
2026-02-12	14:48:13.630	2.555	-34.965	53.83	0.01342	-0.05612	0.995276	0.4305	0.078	-0.2805	0	387	865	1
2026-02-12	14:48:13.650	5.39	-30.135	52.36	-0.011956	-0.031232	0.982344	0.45	0.0855	-0.3225	0	387	865	1
2026-02-12	14:48:13.670	6.265	-30.765	51.66	-0.023424	-0.015128	1.012356	0.4455	0.087	-0.33	0	387	865	1
2026-02-12	14:48:13.690	5.845	-35.7	53.095	0.00488	-0.014152	1.067012	0.4365	0.0915	-0.33	0	387	865	1
2026-02-12	14:48:13.710	7.7	-30.45	53.515	0.01708	-0.032208	1.062132	0.4275	0.0945	-0.309	0	387	865	1
2026-02-12	14:48:13.730	12.425	-18.83	53.76	-0.009272	-0.011468	1.054812	0.4305	0.0945	-0.3225	0	387	865	1
2026-02-12	14:48:13.750	15.89	-8.295	53.34	-0.057584	0.014884	1.042612	0.45	0.09	-0.3885	0	387	865	1
2026-02-12	14:48:13.770	15.61	-5.6	52.99	-0.073444	0.033672	1.10654	0.462	0.0855	-0.4245	0	387	865	1
2026-02-12	14:48:13.790	12.075	-4.9	52.64	-0.032696	0.03904	1.156072	0.462	0.0855	-0.4245	0	387	865	1
2026-02-12	14:48:13.810	10.185	-1.33	50.54	0.043676	-0.022936	1.18218	0.462	0.0855	-0.4245	0	359	920	1
2026-02-12	14:48:13.830	10.43	5.005	49.28	0.11102	-0.12444	1.174128	0.45	0.108	-0.321	0	359	920	1
2026-02-12	14:48:13.850	8.925	11.165	51.1	0.092476	-0.147864	1.063352	0.447	0.105	-0.2985	0	359	920	1
2026-02-12	14:48:13.870	3.85	10.15	57.085	0.096624	-0.146156	1.009672	0.456	0.1035	-0.3255	0	359	920	1
2026-02-12	14:48:13.890	-2.1	3.29	64.365	0.159088	-0.164456	1.087752	0.456	0.1065	-0.297	0	359	920	1
2026-02-12	14:48:13.910	-4.69	-3.85	69.86	0.16958	-0.2196	1.099952	0.4365	0.105	-0.2355	0	359	920	1
2026-02-12	14:48:13.930	-2.45	0.07	71.295	0.144448	-0.204472	1.118984	0.483	0.108	-0.3345	0	359	920	1
2026-02-12	14:48:13.950	0.21	10.71	71.89	0.105164	-0.199348	1.080188	0.462	0.1095	-0.294	0	359	920	1
2026-02-12	14:48:13.970	0.665	10.29	75.635	0.101016	-0.194468	1.038952	0.471	0.1185	-0.279	0	359	920	1
2026-02-12	14:48:13.990	0.98	3.745	77.735	0.08174	-0.188368	1.005036	0.483	0.105	-0.306	0	359	920	1
2026-02-12	14:48:14.010	2.45	1.12	79.59	0.051972	-0.162748	0.994056	0.5115	0.1245	-0.3225	0	326	965	1
2026-02-12	14:48:14.030	5.215	6.79	78.47	0.053192	-0.144936	0.996984	0.48	0.135	-0.348	0	326	965	1
2026-02-12	14:48:14.050	8.26	10.92	75.635	0.02196	-0.141764	1.000644	0.474	0.129	-0.2715	0	326	965	1
2026-02-12	14:48:14.070	9.8	6.93	73.64	0.021716	-0.142252	0.963068	0.501	0.132	-0.285	0	326	965	1
2026-02-12	14:48:14.090	10.325	-3.115	70.84	0.01952	-0.116632	0.95282	0.5175	0.1305	-0.2775	0	326	965	1
2026-02-12	14:48:14.110	11.095	-14.035	68.145	-0.000244	-0.132492	0.967948	0.5445	0.117	-0.3435	0	326	965	1
2026-02-12	14:48:14.130	12.635	-23.52	66.64	-0.006832	-0.133224	0.976244	0.5415	0.117	-0.3165	0	326	965	1
2026-02-12	14:48:14.150	14.63	-25.025	65.73	-0.019764	-0.107116	0.950624	0.531	0.1245	-0.348	0	326	965	1
2026-02-12	14:48:14.170	14.525	-23.31	65.555	-0.041724	-0.072468	0.913292	0.5475	0.126	-0.3195	0	326	965	1
2026-02-12	14:48:14.190	11.48	-24.85	66.08	-0.04636	-0.057096	0.818864	0.549	0.129	-0.342	0	326	965	1
2026-02-12	14:48:14.210	5.075	-30.59	67.06	-0.023424	-0.022204	0.88694	0.543	0.1275	-0.3495	0	293	991	1
2026-02-12	14:48:14.230	-0.315	-23.345	68.18	-0.003904	-0.041724	0.907436	0.543	0.1275	-0.3495	0	293	991	1
2026-02-12	14:48:14.250	-3.045	-11.55	70.665	-0.016104	-0.045872	0.9211	0.522	0.0615	-0.3795	0	293	991	1
2026-02-12	14:48:14.270	-4.06	-4.515	71.4	-0.0427	-0.033184	0.881328	0.5025	-0.003	-0.4095	0	293	991	1
2026-02-12	14:48:14.290	-6.72	-4.06	72.1	-0.061976	-0.037332	0.856928	0.5355	0.0705	-0.408	0	293	991	1
2026-02-12	14:48:14.310	-11.795	-5.6	72.1	-0.045872	-0.050508	0.89426	0.57	0.141	-0.414	0	293	991	1
2026-02-12	14:48:14.330	-14.665	-8.225	71.295	-0.01098	-0.06222	0.945256	0.579	0.1335	-0.3915	0	293	991	1
2026-02-12	14:48:14.350	-13.615	-7.035	68.88	-0.011956	-0.082228	1.024312	0.5925	0.126	-0.393	0	293	991	1
2026-02-12	14:48:14.370	-10.92	0.945	63.98	0.006832	-0.063684	1.035048	0.612	0.108	-0.459	0	293	991	1
2026-02-12	14:48:14.390	-9.1	0.49	58.205	-0.017812	-0.039284	1.01626	0.6165	0.1185	-0.459	0	293	991	1
2026-02-12	14:48:14.410	-9.17	-6.685	51.24	-0.022692	-0.01952	1.08092	0.6195	0.144	-0.432	0	262	995	1
2026-02-12	14:48:14.430	-8.82	-9.135	42.875	0.016836	-0.05246	1.094828	0.627	0.1395	-0.4275	0	262	995	1
2026-02-12	14:48:14.450	-6.72	-12.075	34.615	0.054656	-0.066124	1.137772	0.6315	0.141	-0.45	0	262	995	1
2026-02-12	14:48:14.470	-3.29	-13.58	27.335	0.103212	-0.08295999	1.175104	0.627	0.075	-0.4605	0	262	995	1
2026-02-12	14:48:14.490	1.19	-15.68	20.72	0.10004	-0.091012	1.119716	0.6255	0.0675	-0.4545	0	262	995	1
2026-02-12	14:48:14.510	5.705	-19.32	14.175	0.10858	-0.08174	1.053348	0.63	0.066	-0.4425	0	262	995	1
2026-02-12	14:48:14.530	9.52	-23.555	8.505	0.13542	-0.09076799	1.093364	0.618	0.057	-0.411	0	262	995	1
2026-02-12	14:48:14.550	12.705	-28.245	4.025	0.149572	-0.120536	1.142896	0.573	0.0615	-0.4185	0	262	995	1
2026-02-12	14:48:14.570	13.475	-29.54	-0.315	0.16348	-0.15982	1.177056	0.504	-0.036	-0.423	0	262	995	1
2026-02-12	14:48:14.590	10.92	-28.595	-4.41	0.15738	-0.1281	1.17364	0.5325	-0.003	-0.405	0	262	995	1
2026-02-12	14:48:14.610	5.95	-30.66	-6.755	0.161284	-0.112484	1.09678	0.5715	0.111	-0.3255	0	236	1004	1
2026-02-12	14:48:14.630	1.995	-29.155	-10.08	0.176168	-0.08052	1.03456	0.558	0.1485	-0.2505	0	236	1004	1
2026-02-12	14:48:14.650	1.33	-23.45	-11.375	0.19398	-0.04392	0.98698	0.5655	0.1455	-0.282	0	236	1004	1
2026-02-12	14:48:14.670	3.5	-20.405	-10.745	0.215208	-0.034404	0.966484	0.5595	0.1425	-0.27	0	236	1004	1
2026-02-12	14:48:14.690	5.81	-12.705	-6.335	0.210816	-0.084424	1.018212	0.5385	0.15	-0.2295	0	236	1004	1
2026-02-12	14:48:14.710	2.31	13.58	6.405	0.206912	-0.093696	0.919148	0.531	0.153	-0.231	0	236	1004	1
2026-02-12	14:48:14.730	-13.895	27.58	13.58	0.207644	-0.098088	0.870104	0.54	0.1425	-0.2565	0	236	1004	1
2026-02-12	14:48:14.750	-27.79	13.335	17.255	0.24766	-0.11224	1.0614	0.552	0.141	-0.294	0	236	1004	1
2026-02-12	14:48:14.770	-25.935	13.545	17.885	0.281332	-0.115412	1.040172	0.5835	0.1365	-0.348	0	236	1004	1
2026-02-12	14:48:14.790	-14.98	22.505	14.385	0.260104	-0.073688	1.009428	0.603	0.1395	-0.3165	0	236	1004	1
2026-02-12	14:48:14.810	-6.965	23.065	8.505	0.105652	0.00244	0.861808	0.5775	0.15	-0.255	0	215	1016	1
2026-02-12	14:48:14.830	-5.425	8.05	3.78	0.077592	0.020496	0.85766	0.555	0.159	-0.264	0	215	1016	1
2026-02-12	14:48:14.850	-0.875	-6.405	-0.98	0.137372	-0.026108	0.960384	0.546	0.165	-0.2685	0	215	1016	1
2026-02-12	14:48:14.870	10.325	-0.945	-5.88	0.151524	-0.066124	0.970632	0.543	0.1605	-0.243	0	215	1016	1
2026-02-12	14:48:14.890	17.115	9.485	-8.715	0.092964	-0.037576	0.910364	0.564	0.156	-0.2595	0	215	1016	1
2026-02-12	14:48:14.910	14.665	4.62	-8.015	0.073444	-0.00732	0.913048	0.582	0.1545	-0.315	0	215	1016	1
2026-02-12	14:48:14.930	8.12	-1.82	-5.81	0.085156	-0.010736	0.981856	0.561	0.159	-0.285	0	215	1016	1
2026-02-12	14:48:14.950	3.01	0.77	-4.305	0.07686	-0.013908	1.021384	0.5415	0.1515	-0.2685	0	215	1016	1
2026-02-12	14:48:14.970	-1.05	7.07	-2.8	0.057096	-0.013664	1.016016	0.561	0.1395	-0.2775	0	215	1016	1
2026-02-12	14:48:14.990	-5.46	10.01	-0.105	0.030988	-0.013176	0.990884	0.5925	0.1455	-0.312	0	215	1016	1
2026-02-12	14:48:15.010	-9.94	11.655	3.745	0.0305	-0.02684	1.00284	0.585	0.1305	-0.324	0	199	1020	1
2026-02-12	14:48:15.030	-13.195	14.42	7.245	0.053192	-0.055876	1.02602	0.582	0.126	-0.2895	0	199	1020	1
2026-02-12	14:48:15.050	-14.525	15.05	9.59	0.08295999	-0.094916	1.062376	0.5745	0.1455	-0.2805	0	199	1020	1
2026-02-12	14:48:15.070	-14.42	14.63	10.045	0.110288	-0.138592	1.130696	0.57	0.153	-0.255	0	199	1020	1
2026-02-12	14:48:15.090	-12.985	12.985	9.345	0.122244	-0.171044	1.153388	0.588	0.1545	-0.273	0	199	1020	1
2026-02-12	14:48:15.110	-10.15	9.135	8.785	0.121024	-0.17934	1.131672	0.594	0.1575	-0.3195	0	199	1020	1
2026-02-12	14:48:15.130	-5.53	6.02	8.26	0.085888	-0.152988	1.086532	0.585	0.162	-0.3015	0	199	1020	1
2026-02-12	14:48:15.150	0.035	2.485	6.79	0.077348	-0.163724	1.040172	0.5745	0.1635	-0.282	0	199	1020	1
2026-02-12	14:48:15.170	5.705	-4.375	4.62	0.082228	-0.189588	1.03822	0.585	0.165	-0.2805	0	199	1020	1
2026-02-12	14:48:15.190	10.185	-9.835	2.8	0.137372	-0.271084	1.075796	0.6	0.1575	-0.273	0	199	1020	1
2026-02-12	14:48:15.210	11.725	-9.1	8.4	0.153476	-0.283528	1.112396	0.6075	0.1545	-0.2745	0	187	1024	1
2026-02-12	14:48:15.230	9.17	-9.905	16.485	0.126392	-0.24278	1.050176	0.5985	0.1545	-0.282	0	187	1024	1
2026-02-12	14:48:15.250	3.64	-12.145	19.145	0.109556	-0.259372	0.99796	0.588	0.1515	-0.2895	0	187	1024	1
2026-02-12	14:48:15.270	1.54	-10.675	23.38	0.077104	-0.137616	0.926224	0.588	0.1515	-0.2895	0	187	1024	1
2026-02-12	14:48:15.290	1.19	-8.12	16.485	0.10126	-0.151036	0.920368	0.588	0.1515	-0.2895	0	187	1024	1
2026-02-12	14:48:15.310	5.635	-7.805	11.165	0.115412	-0.192272	0.935252	0.5955	0.1515	-0.285	0	187	1024	1
2026-02-12	14:48:15.330	10.57	-7.525	11.41	0.113704	-0.2196	0.974292	0.6045	0.153	-0.282	0	187	1024	1
2026-02-12	14:48:15.350	14.945	-5.565	12.46	0.08686399	-0.23668	0.943792	0.603	0.1485	-0.27	0	187	1024	1
2026-02-12	14:48:15.370	17.465	-6.055	14.175	0.078324	-0.26352	0.935496	0.612	0.141	-0.2655	0	187	1024	1
2026-02-12	14:48:15.390	14.875	-9.17	18.48	0.080276	-0.269864	0.91622	0.6135	0.1425	-0.252	0	187	1024	1
2026-02-12	14:48:15.410	9.485	-13.72	23.485	0.102236	-0.290604	0.935252	0.609	0.147	-0.2775	0	177	1027	1
2026-02-12	14:48:15.430	7.035	-16.03	23.17	0.094916	-0.248392	0.932568	0.621	0.1395	-0.3345	0	177	1027	1
2026-02-12	14:48:15.450	8.645	-12.145	22.19	0.050508	-0.13298	0.900848	0.636	0.1305	-0.396	0	177	1027	1
2026-02-12	14:48:15.470	11.34	-9.87	15.925	0.016592	-0.085888	0.887428	0.576	0.06	-0.432	0	177	1027	1
2026-02-12	14:48:15.490	13.09	-8.68	14.665	0.009516	-0.082228	0.903776	0.555	0.069	-0.372	0	177	1027	1
2026-02-12	14:48:15.510	13.09	-2.1	13.615	0.00244	-0.071736	0.937692	0.6105	0.1395	-0.3465	0	177	1027	1
2026-02-12	14:48:15.530	11.41	7.875	13.055	-0.013176	-0.068564	0.958188	0.612	0.123	-0.3675	0	177	1027	1
2026-02-12	14:48:15.550	8.12	16.065	13.405	-0.008052	-0.08052	0.978684	0.5985	0.0855	-0.3615	0	177	1027	1
2026-02-12	14:48:15.570	3.64	23.94	13.685	-0.007808	-0.083692	0.976976	0.6015	0.0945	-0.354	0	177	1027	1
2026-02-12	14:48:15.590	-0.56	24.885	14.245	-0.009028	-0.100284	1.007232	0.615	0.1185	-0.363	0	177	1027	1
2026-02-12	14:48:15.610	-2.59	25.865	14.91	0.006832	-0.124684	1.054324	0.585	0.066	-0.4005	0	169	1021	1
2026-02-12	14:48:15.630	-1.96	29.365	13.72	-0.002928	-0.127368	1.049932	0.6045	0.081	-0.4095	0	169	1021	1
2026-02-12	14:48:15.650	-0.91	27.72	9.03	-0.019764	-0.096624	1.041636	0.636	0.1155	-0.3855	0	169	1021	1
2026-02-12	14:48:15.670	1.19	21.945	2.8	-0.011468	-0.075396	1.063596	0.624	0.105	-0.375	0	169	1021	1
2026-02-12	14:48:15.690	5.145	16.38	-2.835	0.019276	-0.087352	1.092632	0.645	0.123	-0.369	0	169	1021	1
2026-02-12	14:48:15.710	11.13	12.39	-8.015	0.058316	-0.099796	1.087264	0.666	0.1305	-0.3705	0	169	1021	1
2026-02-12	14:48:15.730	17.325	9.555	-12.145	0.061976	-0.096136	1.056276	0.663	0.135	-0.378	0	169	1021	1
2026-02-12	14:48:15.750	20.755	5.53	-16.1	0.047336	-0.072956	1.031388	0.6495	0.1335	-0.3735	0	169	1021	1
2026-02-12	14:48:15.770	21.455	0.805	-20.825	0.03782	-0.0488	1.06872	0.6375	0.132	-0.3465	0	169	1021	1
2026-02-12	14:48:15.790	20.79	-1.05	-26.355	0.044164	-0.05124	1.13338	0.636	0.1395	-0.345	0	169	1021	1
2026-02-12	14:48:15.810	17.885	-0.035	-32.095	0.049532	-0.057096	1.146312	0.636	0.1305	-0.36	0	162	1020	1
2026-02-12	14:48:15.830	12.705	0.525	-36.785	0.044164	-0.032696	1.1285	0.6315	0.1245	-0.354	0	162	1020	1
2026-02-12	14:48:15.850	6.09	1.085	-39.06	0.052216	-0.0244	1.097756	0.6345	0.09	-0.3555	0	162	1020	1
2026-02-12	14:48:15.870	-0.63	2.345	-39.585	0.045872	0.00366	1.054812	0.573	0.012	-0.378	0	162	1020	1
2026-02-12	14:48:15.890	-4.97	5.46	-39.445	0.023912	0.049288	0.999668	0.558	0.0225	-0.402	0	162	1020	1
2026-02-12	14:48:15.910	-5.88	10.255	-39.375	0.026108	0.084424	0.980148	0.5655	0.042	-0.4035	0	162	1020	1
2026-02-12	14:48:15.930	-4.235	16.94	-38.36	0.040748	0.077104	0.979172	0.5325	-0.018	-0.4065	0	162	1020	1
2026-02-12	14:48:15.950	-2.835	21.7	-36.05	0.059048	0.048068	0.975024	0.531	-0.048	-0.3885	0	162	1020	1
2026-02-12	14:48:15.970	-4.06	25.165	-31.885	0.0732	0.016592	0.963556	0.525	-0.042	-0.381	0	162	1020	1
2026-02-12	14:48:15.990	-7.77	28.175	-26.845	0.07515199	-0.013908	0.97234	0.528	-0.0135	-0.3795	0	162	1020	1
2026-02-12	14:48:16.010	-11.865	29.96	-21.77	0.0549	-0.011224	0.954284	0.5445	0.0075	-0.3675	0	156	1027	1
2026-02-12	14:48:16.030	-14.735	31.605	-17.64	0.02074	-0.005856	0.937692	0.537	-0.03	-0.429	0	156	1027	1
2026-02-12	14:48:16.050	-16.135	34.055	-15.575	-0.022448	-0.067832	0.893528	0.525	-0.051	-0.4425	0	156	1027	1
2026-02-12	14:48:16.070	-16.275	33.39	-15.505	-0.028792	-0.059536	0.909388	0.531	-0.024	-0.393	0	156	1027	1
2026-02-12	14:48:16.090	-13.335	34.615	-17.185	-0.053192	-0.04392	0.919636	0.5775	0.054	-0.3495	0	156	1027	1
2026-02-12	14:48:16.110	-7.455	36.33	-20.16	-0.067588	-0.020252	0.92842	0.624	0.114	-0.315	0	156	1027	1
2026-02-12	14:48:16.130	-0.805	38.64	-23.555	-0.08906	-0.009028	0.914512	0.6195	0.111	-0.327	0	156	1027	1
2026-02-12	14:48:16.150	4.585	34.93	-26.215	-0.078568	-0.021472	0.92232	0.642	0.129	-0.3345	0	156	1027	1
2026-02-12	14:48:16.170	9.59	28.245	-29.33	-0.081984	-0.036356	0.945988	0.654	0.15	-0.312	0	156	1027	1
2026-02-12	14:48:16.190	14.665	22.12	-31.57	-0.083936	-0.065636	0.98088	0.6525	0.153	-0.3195	0	156	1027	1
2026-02-12	14:48:16.210	19.005	19.95	-31.955	-0.08295999	-0.088084	0.980636	0.6465	0.147	-0.3255	0	150	1026	1
2026-02-12	14:48:16.230	20.615	15.365	-31.185	-0.073688	-0.089304	0.93452	0.5895	0.072	-0.348	0	150	1026	1
2026-02-12	14:48:16.250	18.655	3.255	-26.81	-0.102724	-0.067588	0.976488	0.606	0.0645	-0.384	0	150	1026	1
2026-02-12	14:48:16.270	13.37	0.84	-22.365	-0.110532	-0.093696	0.980636	0.6615	0.138	-0.357	0	150	1026	1
2026-02-12	14:48:16.290	8.82	-7.175	-17.115	-0.1098	-0.094184	1.03822	0.6525	0.1275	-0.339	0	150	1026	1
2026-02-12	14:48:16.310	6.37	-13.79	-10.955	-0.155184	-0.10736	1.047248	0.624	0.126	-0.2865	0	150	1026	1
2026-02-12	14:48:16.330	2.835	-12.845	-4.34	-0.171288	-0.1098	1.027728	0.618	0.147	-0.255	0	150	1026	1
2026-02-12	14:48:16.350	-2.17	-12.215	2.905	-0.122732	-0.123708	1.013576	0.6375	0.15	-0.273	0	150	1026	1
2026-02-12	14:48:16.370	-6.545	-16.52	7.805	-0.063928	-0.141764	1.041392	0.6375	0.15	-0.273	0	150	1026	1
2026-02-12	14:48:16.390	-8.295	-20.93	9.1	0.017324	-0.20496	1.052372	0.6315	0.1455	-0.2475	0	150	1026	1
2026-02-12	14:48:16.410	-9.485	-26.88	10.045	-0.0183	-0.211304	1.129232	0.6315	0.1455	-0.2475	0	145	1021	1
2026-02-12	14:48:16.430	-13.755	-30.695	12.6	-0.017568	-0.243268	1.182424	0.6495	0.1425	-0.327	0	145	1021	1
2026-02-12	14:48:16.450	-16.065	-36.61	13.405	0.03172	-0.293532	1.13094	0.6555	0.147	-0.303	0	145	1021	1
2026-02-12	14:48:16.470	-15.785	-44.94	12.81	0.055144	-0.320128	1.157536	0.636	0.138	-0.291	0	145	1021	1
2026-02-12	14:48:16.490	-13.3	-41.615	23.66	-0.02318	-0.22936	0.947208	0.636	0.141	-0.288	0	145	1021	1
2026-02-12	14:48:16.510	-10.78	-25.97	23.555	-0.05124	-0.185684	0.920368	0.645	0.144	-0.339	0	145	1021	1
2026-02-12	14:48:16.530	-6.58	-13.615	23.52	-0.040504	-0.163968	1.054812	0.666	0.138	-0.3975	0	145	1021	1
2026-02-12	14:48:16.550	2.275	-5.145	21.14	-0.023668	-0.132248	1.12972	0.6345	0.1395	-0.315	0	145	1021	1
2026-02-12	14:48:16.570	13.055	7.595	17.08	-0.000976	-0.093208	1.12362	0.6	0.1575	-0.2475	0	145	1021	1
2026-02-12	14:48:16.590	23.59	9.24	12.67	0.02196	-0.111508	1.025044	0.6195	0.1485	-0.267	0	145	1021	1
2026-02-12	14:48:16.610	30.695	4.13	8.89	-0.007808	-0.07905599	0.981612	0.633	0.1395	-0.276	0	142	1025	1
2026-02-12	14:48:16.630	33.915	1.085	6.965	-0.010736	-0.036112	0.958676	0.6225	0.138	-0.2535	0	142	1025	1
2026-02-12	14:48:16.650	34.195	0.14	6.335	-0.022936	0.019032	0.954772	0.6465	0.126	-0.3255	0	142	1025	1
2026-02-12	14:48:16.670	31.92	-1.365	5.425	-0.040992	0.024888	0.8845	0.645	0.1275	-0.2895	0	142	1025	1
2026-02-12	14:48:16.690	23.59	-7.805	5.355	-0.056364	-0.010248	0.867664	0.66	0.1245	-0.2985	0	142	1025	1
2026-02-12	14:48:16.710	11.725	-9.345	6.825	-0.051728	0.03904	0.92232	0.636	0.126	-0.312	0	142	1025	1
2026-02-12	14:48:16.730	4.48	-6.405	8.855	-0.060512	0.10126	0.916952	0.63	0.129	-0.33	0	142	1025	1
2026-02-12	14:48:16.750	2.065	-4.165	9.275	-0.072224	0.119316	0.941596	0.63	0.129	-0.33	0	142	1025	1
2026-02-12	14:48:16.770	0.175	-0.455	5.95	-0.117608	0.071492	0.886452	0.63	0.129	-0.33	0	142	1025	1
2026-02-12	14:48:16.790	-3.78	-3.885	1.61	-0.082228	0.050264	0.944036	0.63	0.129	-0.33	0	142	1025	1
2026-02-12	14:48:16.810	-6.16	-2.625	-4.41	-0.07515199	-0.011956	1.027728	0.6405	0.12	-0.3165	0	140	1028	1
2026-02-12	14:48:16.830	-6.37	-1.365	-8.155	-0.045628	-0.07905599	1.126548	0.648	0.1155	-0.3165	0	140	1028	1
2026-02-12	14:48:16.850	-4.725	5.915	-11.095	-0.027572	-0.09857599	1.179252	0.648	0.12	-0.3195	0	140	1028	1
2026-02-12	14:48:16.870	-2.485	11.48	-12.985	-0.07124799	-0.132248	1.135088	0.636	0.126	-0.2985	0	140	1028	1
2026-02-12	14:48:16.890	-2.52	10.255	-15.085	-0.011956	-0.09882	1.059936	0.645	0.12	-0.3075	0	140	1028	1
2026-02-12	14:48:16.910	-1.26	7.455	-19.425	0.031476	-0.113704	1.067012	0.6705	0.1005	-0.3105	0	140	1028	1
2026-02-12	14:48:16.930	4.865	6.44	-23.24	0.041968	-0.093452	1.137284	0.666	0.102	-0.2775	0	140	1028	1
2026-02-12	14:48:16.950	13.23	10.92	-25.235	0.043676	-0.0732	1.120204	0.657	0.123	-0.288	0	140	1028	1
2026-02-12	14:48:16.970	18.34	11.2	-26.95	0.007808	-0.101992	1.086532	0.657	0.1275	-0.318	0	140	1028	1
2026-02-12	14:48:16.990	18.095	5.18	-29.12	0.060024	-0.09028	1.059936	0.6645	0.1185	-0.3465	0	140	1028	1
2026-02-12	14:48:17.010	16.94	-1.54	-32.06	0.085644	-0.085156	1.098976	0.6615	0.117	-0.3945	0	139	1031	1
2026-02-12	14:48:17.030	17.99	-4.585	-35.63	0.105896	-0.018788	1.143872	0.663	0.1065	-0.36	0	139	1031	1
2026-02-12	14:48:17.050	22.575	-6.86	-40.075	0.122976	0.01464	1.087508	0.6585	0.108	-0.315	0	139	1031	1
2026-02-12	14:48:17.070	28.28	-5.075	-43.155	0.088816	0.059536	0.934764	0.645	0.1125	-0.324	0	139	1031	1
2026-02-12	14:48:17.090	30.065	2.345	-43.645	0.038308	0.108824	0.813984	0.636	0.1125	-0.3435	0	139	1031	1
2026-02-12	14:48:17.110	27.615	10.43	-43.68	0.029524	0.154696	0.780556	0.63	0.111	-0.3345	0	139	1031	1
2026-02-12	14:48:17.130	21.105	13.825	-46.41	0.057828	0.192272	0.870836	0.624	0.1005	-0.2925	0	139	1031	1
2026-02-12	14:48:17.150	18.76	16.765	-45.43	0.041724	0.129564	0.945988	0.618	0.1005	-0.267	0	139	1031	1
2026-02-12	14:48:17.170	12.53	13.09	-43.54	0.0427	-0.00122	0.978928	0.6285	0.102	-0.2835	0	139	1031	1
2026-02-12	14:48:17.190	1.4	15.575	-40.6	0.039772	0.023424	0.912804	0.6525	0.096	-0.369	0	139	1031	1
2026-02-12	14:48:17.210	-12.11	15.295	-35.63	0.01952	0.056364	0.846436	0.639	0.093	-0.378	0	139	1033	1
2026-02-12	14:48:17.230	-26.915	5.46	-31.57	0.005368	0.096624	0.840824	0.6225	0.096	-0.3345	0	139	1033	1
2026-02-12	14:48:17.250	-39.9	-4.725	-30.31	-0.03294	0.184464	0.90402	0.636	0.087	-0.345	0	139	1033	1
2026-02-12	14:48:17.270	-45.465	-9.065	-31.535	-0.134444	0.146156	0.911584	0.642	0.0795	-0.3735	0	139	1033	1
2026-02-12	14:48:17.290	-43.925	-10.675	-34.58	-0.09028	0.09272	0.920368	0.6465	0.0975	-0.366	0	139	1033	1
2026-02-12	14:48:17.310	-35.945	-6.44	-39.76	-0.116632	0.073688	0.883036	0.6225	0.1155	-0.3345	0	139	1033	1
2026-02-12	14:48:17.330	-26.32	-5.705	-41.615	-0.144204	0.040992	0.874496	0.612	0.1155	-0.3105	0	139	1033	1
2026-02-12	14:48:17.350	-19.425	-7.07	-40.88	-0.113704	-0.00244	0.912804	0.612	0.1245	-0.264	0	139	1033	1
2026-02-12	14:48:17.370	-13.51	-8.715	-38.99	-0.078568	-0.086132	0.991128	0.5985	0.1275	-0.234	0	139	1033	1
2026-02-12	14:48:17.390	-5.635	-11.69	-34.685	-0.061732	-0.134444	1.108492	0.6015	0.129	-0.2625	0	139	1033	1
2026-02-12	14:48:17.410	3.78	-7.28	-28.7	-0.052948	-0.166652	1.118252	0.6105	0.1305	-0.294	0	140	1023	1
2026-02-12	14:48:17.430	12.67	-4.025	-21.385	-0.041724	-0.1769	1.085068	0.6105	0.1305	-0.294	0	140	1023	1
2026-02-12	14:48:17.450	17.955	-6.825	-15.47	-0.044408	-0.17324	1.104588	0.603	0.1275	-0.249	0	140	1023	1
2026-02-12	14:48:17.470	23.205	-10.85	-8.225	-0.0244	-0.190076	1.117276	0.603	0.1275	-0.249	0	140	1023	1
2026-02-12	14:48:17.490	26.74	-13.195	-2.975	0.008052	-0.212768	1.136308	0.615	0.1215	-0.3	0	140	1023	1
2026-02-12	14:48:17.510	32.27	-15.05	3.815	0.038796	-0.193248	1.159244	0.639	0.1065	-0.3585	0	140	1023	1
2026-02-12	14:48:17.530	38.535	-13.16	8.19	0.010004	-0.153964	1.144604	0.6195	0.1035	-0.3135	0	140	1023	1
2026-02-12	14:48:17.550	43.715	-10.78	12.25	-0.050996	-0.106628	1.111908	0.6225	0.0975	-0.312	0	140	1023	1
2026-02-12	14:48:17.570	42.21	-11.795	17.115	-0.103212	-0.083448	1.117032	0.6165	0.096	-0.3285	0	140	1023	1
2026-02-12	14:48:17.590	33.425	-18.83	24.395	-0.07515199	-0.106872	1.198528	0.6075	0.0735	-0.267	0	140	1023	1
2026-02-12	14:48:17.610	23.695	-24.255	32.41	0.015616	-0.157624	1.324432	0.5985	0.0915	-0.2985	0	143	1024	1
2026-02-12	14:48:17.630	18.235	-19.775	36.645	0.033672	-0.129564	1.258064	0.5955	0.09	-0.3855	0	143	1024	1
2026-02-12	14:48:17.650	15.855	-10.955	37.17	-0.027084	-0.034648	1.051396	0.57	0.0945	-0.3855	0	143	1024	1
2026-02-12	14:48:17.670	13.3	-3.815	33.67	-0.06222	0.042456	0.8296	0.6105	0.0945	-0.3105	0	143	1024	1
2026-02-12	14:48:17.690	9.59	-10.85	28.49	-0.0183	0.033428	0.811544	0.6165	0.0795	-0.3525	0	143	1024	1
2026-02-12	14:48:17.710	8.61	-14.35	23.52	0.073444	-0.031476	0.932568	0.6225	0.0705	-0.348	0	143	1024	1
2026-02-12	14:48:17.730	13.16	-4.865	20.265	0.136884	-0.095892	1.048224	0.6345	0.0675	-0.369	0	143	1024	1
2026-02-12	14:48:17.750	17.5	9.24	20.825	0.13786	-0.097112	1.040416	0.6465	0.0405	-0.429	0	143	1024	1
2026-02-12	14:48:17.770	13.335	13.37	24.85	0.096624	-0.044896	0.936716	0.615	0.0765	-0.36	0	143	1024	1
2026-02-12	14:48:17.790	0.945	7.735	29.295	0.060512	0.002928	0.875228	0.615	0.069	-0.357	0	143	1024	1
2026-02-12	14:48:17.810	-9.275	-1.225	32.48	0.066368	0.00244	0.952576	0.63	0.075	-0.369	0	146	1034	1
2026-02-12	14:48:17.830	-8.225	1.75	32.06	0.061244	0.029524	0.96258	0.624	0.0675	-0.3735	0	146	1034	1
2026-02-12	14:48:17.850	-0.42	10.64	28.77	0.021716	0.08418	0.898164	0.6345	0.066	-0.3915	0	146	1034	1
2026-02-12	14:48:17.870	4.9	11.725	24.045	-0.037088	0.129564	0.8357	0.633	0.0675	-0.3675	0	146	1034	1
2026-02-12	14:48:17.890	4.375	3.08	19.285	-0.035136	0.151036	0.856928	0.621	0.078	-0.303	0	146	1034	1
2026-02-12	14:48:17.910	3.325	-2.625	12.915	-0.022692	0.157136	0.934032	0.6075	0.081	-0.3135	0	146	1034	1
2026-02-12	14:48:17.930	4.445	-4.41	6.16	-0.017568	0.15738	0.990396	0.651	0.0555	-0.363	0	146	1034	1
2026-02-12	14:48:17.950	4.62	-3.29	-1.19	-0.027084	0.147376	1.01748	0.6285	0.0675	-0.327	0	146	1034	1
2026-02-12	14:48:17.970	1.61	-5.355	-7.805	-0.031964	0.13176	1.0492	0.6195	0.069	-0.3345	0	146	1034	1
2026-02-12	14:48:17.990	-1.855	-6.825	-13.055	-0.0366	0.111996	1.059448	0.6285	0.0705	-0.336	0	146	1034	1
2026-02-12	14:48:18.010	-3.885	-6.58	-16.52	-0.045872	0.09857599	1.053104	0.624	0.0705	-0.339	0	150	1034	1
2026-02-12	14:48:18.030	-4.375	-6.265	-17.36	-0.058316	0.115656	1.0675	0.645	0.0615	-0.3825	0	150	1034	1
2026-02-12	14:48:18.050	-2.625	-3.745	-16.94	-0.066856	0.118584	1.084824	0.636	0.069	-0.3555	0	150	1034	1
2026-02-12	14:48:18.070	1.295	2.415	-17.57	-0.054412	0.092232	1.08336	0.627	0.078	-0.357	0	150	1034	1
2026-02-12	14:48:18.090	5.46	4.9	-19.635	-0.036112	0.08906	1.097756	0.6375	0.057	-0.3585	0	150	1034	1
2026-02-12	14:48:18.110	6.055	4.97	-20.895	0.011468	0.05856	1.175348	0.615	0.0675	-0.3585	0	150	1034	1
2026-02-12	14:48:18.130	1.295	2.555	-19.635	0.06344	0.024156	1.240252	0.594	0.075	-0.312	0	150	1034	1
2026-02-12	14:48:18.150	-5.81	-3.745	-16.52	0.0854	0.020252	1.258308	0.597	0.063	-0.3015	0	150	1034	1
2026-02-12	14:48:18.170	-12.46	-8.89	-14.21	0.084912	0.034648	1.196332	0.6075	0.0675	-0.324	0	150	1034	1
2026-02-12	14:48:18.190	-16.1	-11.06	-14.07	0.073932	0.043188	1.08458	0.6075	0.0675	-0.324	0	150	1034	1
2026-02-12	14:48:18.210	-15.225	-11.655	-15.12	0.040992	0.07564	0.956236	0.6075	0.0675	-0.324	0	153	1038	1
2026-02-12	14:48:18.230	-13.615	-12.635	-16.94	0.038796	0.104188	0.862296	0.6075	0.0675	-0.324	0	153	1038	1
2026-02-12	14:48:18.250	-12.25	-13.545	-19.04	0.102724	0.064416	0.917196	0.6105	0.0705	-0.354	0	153	1038	1
2026-02-12	14:48:18.270	-8.12	-10.92	-19.915	0.16592	0.003172	0.978196	0.6105	0.078	-0.3675	0	153	1038	1
2026-02-12	14:48:18.290	-2.87	-7	-20.09	0.163236	-0.014396	1.018456	0.6075	0.0825	-0.339	0	153	1038	1
2026-02-12	14:48:18.310	-0.49	1.435	-20.72	0.118828	-0.012444	0.95404	0.5985	0.0825	-0.3285	0	153	1038	1
2026-02-12	14:48:18.330	-4.06	1.12	-20.825	0.087108	0.00976	0.903532	0.594	0.078	-0.327	0	153	1038	1
2026-02-12	14:48:18.350	-9.905	-4.27	-20.895	0.073444	0.018056	0.903776	0.5805	0.087	-0.2985	0	153	1038	1
2026-02-12	14:48:18.370	-12.18	-6.58	-22.26	0.076128	0.000732	0.948916	0.5775	0.0915	-0.2955	0	153	1038	1
2026-02-12	14:48:18.390	-9.065	-2.8	-24.395	0.076372	-0.00976	0.969412	0.594	0.081	-0.3435	0	153	1038	1
2026-02-12	14:48:18.410	-3.22	3.71	-26.04	0.053924	0.010736	0.929396	0.594	0.0825	-0.318	0	154	1041	1
2026-02-12	14:48:18.430	1.26	5.285	-26.285	0.033916	0.02806	0.896456	0.588	0.0885	-0.285	0	154	1041	1
2026-02-12	14:48:18.450	3.08	3.22	-24.815	0.0427	0.018056	0.916464	0.582	0.09	-0.2925	0	154	1041	1
2026-02-12	14:48:18.470	4.9	1.505	-22.225	0.07198	-0.00854	0.989176	0.579	0.087	-0.288	0	154	1041	1
2026-02-12	14:48:18.490	9.205	5.53	-18.655	0.092476	-0.031232	1.025044	0.579	0.087	-0.288	0	154	1041	1
2026-02-12	14:48:18.510	12.95	9.065	-15.435	0.099064	-0.031964	1.044564	0.594	0.0915	-0.3705	0	154	1041	1
2026-02-12	14:48:18.530	14.91	11.83	-11.83	0.08784	-0.03782	1.030412	0.594	0.0915	-0.3705	0	154	1041	1
2026-02-12	14:48:18.550	13.65	9.765	-6.79	0.091012	-0.045384	1.020896	0.5985	0.081	-0.3555	0	154	1041	1
2026-02-12	14:48:18.570	10.29	5.145	-2.205	0.104432	-0.048312	1.037732	0.5775	0.0885	-0.3405	0	154	1041	1
2026-02-12	14:48:18.590	9.065	3.71	1.33	0.122	-0.058804	1.072624	0.57	0.0915	-0.2655	0	154	1041	1
2026-02-12	14:48:18.610	11.725	6.09	3.71	0.113948	-0.079788	1.064328	0.57	0.0915	-0.2655	0	154	1036	1
2026-02-12	14:48:18.630	13.16	6.405	4.025	0.104432	-0.07198	1.02114	0.6195	0.0645	-0.3945	0	154	1036	1
2026-02-12	14:48:18.650	13.02	4.34	3.29	0.091988	-0.05612	0.979416	0.597	0.0465	-0.3495	0	154	1036	1
2026-02-12	14:48:18.670	11.9	-1.68	1.54	0.093208	-0.050752	0.99186	0.5925	0.0765	-0.2925	0	154	1036	1
2026-02-12	14:48:18.690	12.11	-4.69	-0.735	0.096136	-0.060024	1.042612	0.567	0.075	-0.3195	0	154	1036	1
2026-02-12	14:48:18.710	12.81	-3.71	-2.94	0.083692	-0.047336	1.043588	0.5985	0.072	-0.345	0	154	1036	1
2026-02-12	14:48:18.730	10.71	-3.64	-4.515	0.064172	-0.054168	1.036756	0.5835	0.0735	-0.3435	0	154	1036	1
2026-02-12	14:48:18.750	3.43	-5.46	-4.83	0.046604	-0.076372	1.026752	0.6045	0.072	-0.3645	0	154	1036	1
2026-02-12	14:48:18.770	-7.91	-10.115	-3.465	0.032696	-0.096624	1.026996	0.5685	0.069	-0.282	0	154	1036	1
2026-02-12	14:48:18.790	-18.165	-11.27	-1.015	0.015372	-0.087108	1.022116	0.5955	0.024	-0.3945	0	154	1036	1
2026-02-12	14:48:18.810	-21.245	-6.475	1.295	-0.018544	-0.05856	0.989908	0.609	0.0705	-0.4485	0	150	1034	1
2026-02-12	14:48:18.830	-20.72	0.14	3.325	-0.06466	-0.029768	0.909144	0.6045	0.0675	-0.4485	0	150	1034	1
2026-02-12	14:48:18.850	-23.555	-3.5	6.965	-0.066856	-0.034404	0.900116	0.597	0.078	-0.3885	0	150	1034	1
2026-02-12	14:48:18.870	-28.49	-13.02	13.3	0.00122	-0.090036	0.996496	0.6	0.09	-0.411	0	150	1034	1
2026-02-12	14:48:18.890	-29.89	-15.33	20.055	0.052948	-0.103944	1.05042	0.6135	0.0615	-0.3975	0	150	1034	1
2026-02-12	14:48:18.910	-27.475	-12.11	25.48	0.052216	-0.083204	1.053592	0.621	0.0825	-0.42	0	150	1034	1
2026-02-12	14:48:18.930	-24.85	-13.405	28.945	0.020252	-0.035624	0.976	0.618	0.0765	-0.4095	0	150	1034	1
2026-02-12	14:48:18.950	-24.185	-19.635	29.365	-0.013176	0.002196	0.915488	0.6195	0.084	-0.4425	0	150	1034	1
2026-02-12	14:48:18.970	-22.54	-26.67	26.775	-0.010248	0.014884	0.932568	0.6105	0.0915	-0.39	0	150	1034	1
2026-02-12	14:48:18.990	-16.03	-26.88	21.735	0.016592	0.010736	0.977464	0.6165	0.09	-0.4065	0	150	1034	1
2026-02-12	14:48:19.010	-4.76	-21.49	14.7	0.015372	0.030012	1.003328	0.5985	0.0945	-0.4035	0	145	1031	1
2026-02-12	14:48:19.030	7.665	-14.84	6.44	0.000488	0.041236	0.985516	0.5895	0.096	-0.315	0	145	1031	1
2026-02-12	14:48:19.050	16.485	-13.09	-1.61	-0.010492	0.04636	0.992348	0.588	0.099	-0.3375	0	145	1031	1
2026-02-12	14:48:19.070	20.545	-14.35	-8.4	0.003416	0.027084	1.044076	0.5535	0.1095	-0.2505	0	145	1031	1
2026-02-12	14:48:19.090	22.225	-15.12	-13.51	0.032452	-0.011712	1.098732	0.5445	0.108	-0.2715	0	145	1031	1
2026-02-12	14:48:19.110	22.82	-12.705	-16.975	0.060756	-0.050264	1.136064	0.588	0.0915	-0.315	0	145	1031	1
2026-02-12	14:48:19.130	22.365	-8.61	-19.145	0.055144	-0.027572	1.13826	0.5745	0.0915	-0.324	0	145	1031	1
2026-02-12	14:48:19.150	21.14	-5.81	-20.58	0.040992	0.011712	1.109224	0.5685	0.0915	-0.3135	0	145	1031	1
2026-02-12	14:48:19.170	19.775	-6.685	-21.28	0.052216	0.01708	1.082628	0.6045	0.084	-0.414	0	145	1031	1
2026-02-12	14:48:19.190	18.62	-8.75	-21.735	0.093208	-0.0122	1.089216	0.564	0.09	-0.315	0	145	1031	1
2026-02-12	14:48:19.210	18.34	-5.74	-22.61	0.131272	-0.045628	1.086776	0.612	0.063	-0.4605	0	138	1032	1
2026-02-12	14:48:19.230	17.955	-2.1	-22.995	0.150548	-0.072956	1.073112	0.528	0.0975	-0.2865	0	138	1032	1
2026-02-12	14:48:19.250	14.175	1.68	-22.75	0.16348	-0.084912	1.083604	0.5595	0.09	-0.327	0	138	1032	1
2026-02-12	14:48:19.270	5.075	3.395	-21.42	0.181048	-0.094428	1.077748	0.561	0.0735	-0.3795	0	138	1032	1
2026-02-12	14:48:19.290	-6.265	-1.645	-18.97	0.180804	-0.073932	1.071648	0.531	0.0915	-0.3015	0	138	1032	1
2026-02-12	14:48:19.310	-15.365	-0.665	-17.5	0.182024	-0.052948	1.047492	0.5625	0.0735	-0.288	0	138	1032	1
2026-02-12	14:48:19.330	-19.6	2.275	-17.745	0.168604	-0.01708	0.98576	0.5235	0.0885	-0.261	0	138	1032	1
2026-02-12	14:48:19.350	-19.915	4.935	-19.425	0.14518	0.028304	0.921832	0.522	0.096	-0.2595	0	138	1032	1
2026-02-12	14:48:19.370	-18.48	8.085	-22.68	0.134932	0.062464	0.891576	0.555	0.0855	-0.321	0	138	1032	1
2026-02-12	14:48:19.390	-16.485	9.52	-25.935	0.148352	0.047336	0.909144	0.5505	0.093	-0.3285	0	138	1032	1
2026-02-12	14:48:19.410	-14.49	11.095	-27.825	0.177876	0.014152	0.945256	0.57	0.081	-0.303	0	132	1038	1
2026-02-12	14:48:19.430	-13.86	13.16	-27.58	0.180316	-0.012444	0.960872	0.543	0.0975	-0.279	0	132	1038	1
2026-02-12	14:48:19.450	-15.155	13.475	-25.515	0.165676	-0.007076	0.95282	0.5625	0.09	-0.324	0	132	1038	1
2026-02-12	14:48:19.470	-17.43	12.145	-22.295	0.144936	-0.00366	0.942572	0.5295	0.0975	-0.264	0	132	1038	1
2026-02-12	14:48:19.490	-18.795	9.59	-18.62	0.132736	-0.005124	0.94794	0.558	0.0915	-0.336	0	132	1038	1
2026-02-12	14:48:19.510	-17.99	7.385	-14.945	0.118096	-0.007076	0.934764	0.546	0.102	-0.3075	0	132	1038	1
2026-02-12	14:48:19.530	-15.89	6.09	-11.935	0.09882	-0.004148	0.92842	0.546	0.102	-0.3075	0	132	1038	1
2026-02-12	14:48:19.550	-12.88	5.39	-9.59	0.092964	-0.00488	0.927932	0.5475	0.105	-0.3105	0	132	1038	1
2026-02-12	14:48:19.570	-10.22	4.795	-8.435	0.072956	-0.005368	0.923052	0.549	0.1095	-0.3135	0	132	1038	1
2026-02-12	14:48:19.590	-5.635	3.85	-8.05	0.055876	0.00732	0.928176	0.549	0.1065	-0.342	0	132	1038	1
2026-02-12	14:48:19.610	-3.255	3.71	-8.61	0.056608	-0.003416	0.954772	0.5505	0.105	-0.372	0	126	1034	1
2026-02-12	14:48:19.630	-1.015	3.185	-9.485	0.056852	-0.007564	0.970144	0.5505	0.105	-0.372	0	126	1034	1
2026-02-12	14:48:19.650	1.68	2.94	-10.605	0.063928	-0.006832	0.993324	0.5505	0.105	-0.372	0	126	1034	1
2026-02-12	14:48:19.670	3.815	3.395	-11.62	0.06588	-0.014396	0.997228	0.5505	0.105	-0.372	0	126	1034	1
2026-02-12	14:48:19.690	4.655	1.82	-11.795	0.079544	-0.0305	1.01016	0.558	0.117	-0.381	0	126	1034	1
2026-02-12	14:48:19.710	4.48	0.595	-11.27	0.098088	-0.062464	1.037488	0.573	0.1065	-0.3555	0	126	1034	1
2026-02-12	14:48:19.730	3.325	0.455	-10.01	0.127368	-0.106384	1.08946	0.5505	0.117	-0.345	0	126	1034	1
2026-02-12	14:48:19.750	1.015	-0.42	-7.945	0.148352	-0.132492	1.101416	0.5505	0.1125	-0.327	0	126	1034	1
2026-02-12	14:48:19.770	-1.365	-2.555	-5.25	0.16104	-0.14274	1.092876	0.5385	0.1215	-0.285	0	126	1034	1
2026-02-12	14:48:19.790	-2.415	-4.095	-2.485	0.172752	-0.136152	1.075064	0.5205	0.1275	-0.345	0	126	1034	1
2026-02-12	14:48:19.810	-1.785	-7	0.56	0.17324	-0.138836	1.0614	0.546	0.0975	-0.321	0	121	1028	1
2026-02-12	14:48:19.830	-0.91	-11.235	3.71	0.182756	-0.141032	1.077992	0.552	0.111	-0.339	0	121	1028	1
2026-02-12	14:48:19.850	-1.26	-13.335	6.755	0.197396	-0.198616	1.103368	0.543	0.108	-0.312	0	121	1028	1
2026-02-12	14:48:19.870	-4.13	-16.415	10.22	0.198128	-0.231556	1.116544	0.5565	0.1155	-0.267	0	121	1028	1
2026-02-12	14:48:19.890	-7.56	-17.29	12.11	0.157868	-0.17934	1.070916	0.528	0.126	-0.3405	0	121	1028	1
2026-02-12	14:48:19.910	-7.63	-16.03	11.55	0.104432	-0.109312	0.989664	0.5145	0.123	-0.312	0	121	1028	1
2026-02-12	14:48:19.930	-3.15	-14.875	8.89	0.077836	-0.05368	0.931348	0.5355	0.132	-0.321	0	121	1028	1
2026-02-12	14:48:19.950	4.76	-13.16	5.18	0.087596	-0.056364	0.91622	0.528	0.1245	-0.3195	0	121	1028	1
2026-02-12	14:48:19.970	13.65	-10.465	2.45	0.119804	-0.097356	0.951844	0.498	0.12	-0.2565	0	121	1028	1
2026-02-12	14:48:19.990	20.475	-6.965	1.82	0.130296	-0.122732	0.972584	0.5385	0.126	-0.3075	0	121	1028	1
2026-02-12	14:48:20.010	22.225	-6.02	3.535	0.1403	-0.139324	1.003572	0.5325	0.117	-0.312	0	117	1029	1
2026-02-12	14:48:20.030	17.955	-6.79	7.245	0.15128	-0.14396	1.00284	0.54	0.1155	-0.3315	0	117	1029	1
2026-02-12	14:48:20.050	10.01	-11.76	12.005	0.144448	-0.130296	1.010404	0.4935	0.1245	-0.2475	0	117	1029	1
2026-02-12	14:48:20.070	3.22	-12.705	15.75	0.122488	-0.092232	1.00406	0.5055	0.1245	-0.243	0	117	1029	1
2026-02-12	14:48:20.090	0.105	-10.605	17.465	0.093208	-0.061244	0.970632	0.5295	0.114	-0.3	0	117	1029	1
2026-02-12	14:48:20.110	-0.49	-8.435	17.08	0.058072	-0.019032	0.931592	0.534	0.114	-0.273	0	117	1029	1
2026-02-12	14:48:20.130	-0.665	-7	15.015	0.042944	-0.008296	0.932568	0.522	0.114	-0.2985	0	117	1029	1
2026-02-12	14:48:20.150	-0.42	-5.565	12.18	0.040016	-0.001708	0.934764	0.5385	0.114	-0.303	0	117	1029	1
2026-02-12	14:48:20.170	0.7	-3.43	9.205	0.0549	-0.012444	0.966728	0.5355	0.1215	-0.306	0	117	1029	1
2026-02-12	14:48:20.190	2.31	1.295	6.545	0.057828	-0.01342	0.97478	0.54	0.114	-0.339	0	117	1029	1
2026-02-12	14:48:20.210	2.66	4.13	4.41	0.056852	-0.009516	0.984052	0.5355	0.1095	-0.333	0	114	1028	1
2026-02-12	14:48:20.230	1.05	5.285	2.905	0.065392	-0.022692	1.0065	0.531	0.0975	-0.3225	0	114	1028	1
2026-02-12	14:48:20.250	-1.33	4.655	2.1	0.08418	-0.036112	1.037488	0.5565	0.1035	-0.369	0	114	1028	1
2026-02-12	14:48:20.270	-3.045	6.615	1.085	0.098088	-0.043432	1.057252	0.57	0.108	-0.3975	0	114	1028	1
2026-02-12	14:48:20.290	-3.185	9.45	-0.525	0.09638	-0.017812	1.074332	0.5415	0.1095	-0.339	0	114	1028	1
2026-02-12	14:48:20.310	-1.4	10.745	-2.765	0.097112	-0.004392	1.066768	0.5085	0.126	-0.261	0	114	1028	1
2026-02-12	14:48:20.330	1.54	10.92	-5.6	0.123708	-0.018056	1.067256	0.51	0.1245	-0.2835	0	114	1028	1
2026-02-12	14:48:20.350	5.285	9.695	-8.645	0.16104	-0.054656	1.065792	0.591	0.126	-0.36	0	114	1028	1
2026-02-12	14:48:20.370	9.17	9.345	-11.62	0.188368	-0.083936	1.05408	0.5385	0.123	-0.3255	0	114	1028	1
2026-02-12	14:48:20.390	11.725	9.66	-14.315	0.19764	-0.12322	1.046272	0.534	0.12	-0.306	0	114	1028	1
2026-02-12	14:48:20.410	10.465	8.89	-15.995	0.212768	-0.152256	1.065304	0.5355	0.1185	-0.294	0	110	1028	1
2026-02-12	14:48:20.430	4.83	5.845	-15.855	0.227408	-0.172508	1.075796	0.528	0.1215	-0.303	0	110	1028	1
2026-02-12	14:48:20.450	-3.36	1.54	-14.28	0.232044	-0.170068	1.06628	0.5085	0.123	-0.2775	0	110	1028	1
2026-02-12	14:48:20.470	-10.115	-1.26	-12.565	0.199836	-0.110044	1.024068	0.567	0.1065	-0.3885	0	110	1028	1
2026-02-12	14:48:20.490	-12.46	-1.75	-12.46	0.1525	-0.037088	0.94794	0.558	0.1005	-0.36	0	110	1028	1
2026-02-12	14:48:20.510	-10.465	-1.68	-14.56	0.117608	0.023424	0.889868	0.558	0.1155	-0.3405	0	110	1028	1
2026-02-12	14:48:20.530	-6.265	-2.345	-17.92	0.119804	0.028792	0.90524	0.531	0.117	-0.276	0	110	1028	1
2026-02-12	14:48:20.550	-2.975	-1.05	-21.07	0.134932	-0.009028	0.925492	0.507	0.132	-0.276	0	110	1028	1
2026-02-12	14:48:20.570	-3.5	-1.4	-22.89	0.144448	-0.045872	0.943548	0.5415	0.1185	-0.3615	0	110	1028	1
2026-02-12	14:48:20.590	-7.91	-1.47	-23.38	0.141276	-0.064172	0.940132	0.534	0.1335	-0.2985	0	110	1028	1
2026-02-12	14:48:20.610	-14.21	-2.345	-22.435	0.14152	-0.07808	0.950624	0.5205	0.1245	-0.279	0	108	1029	1
2026-02-12	14:48:20.630	-18.69	-2.905	-20.965	0.132736	-0.07686	0.945012	0.507	0.117	-0.2595	0	108	1029	1
2026-02-12	14:48:20.650	-23.205	-3.045	-18.095	0.122244	-0.079544	0.926712	0.507	0.117	-0.2595	0	108	1029	1
2026-02-12	14:48:20.670	-25.305	-2.66	-15.435	0.104676	-0.06954	0.908656	0.4965	0.126	-0.279	0	108	1029	1
2026-02-12	14:48:20.690	-26.355	-2.765	-11.375	0.101748	-0.057096	0.895968	0.5085	0.132	-0.3165	0	108	1029	1
2026-02-12	14:48:20.710	-24.535	-2.905	-7.315	0.09467199	-0.040748	0.893528	0.531	0.126	-0.3435	0	108	1029	1
2026-02-12	14:48:20.730	-20.02	-1.61	-4.025	0.09028	-0.037332	0.906948	0.5265	0.1305	-0.3045	0	108	1029	1
2026-02-12	14:48:20.750	-13.86	2.065	-1.505	0.092232	-0.042212	0.9333	0.519	0.1395	-0.273	0	108	1029	1
2026-02-12	14:48:20.770	-8.05	5.425	0.455	0.089548	-0.0427	0.949404	0.5055	0.147	-0.2775	0	108	1029	1
2026-02-12	14:48:20.790	-4.13	7.42	2.1	0.093208	-0.057096	0.970388	0.5175	0.147	-0.3135	0	108	1029	1
2026-02-12	14:48:20.810	-2.1	8.96	3.71	0.106384	-0.072712	1.002108	0.5295	0.1425	-0.3375	0	105	1021	1
2026-02-12	14:48:20.830	-0.91	9.45	5.565	0.12932	-0.09467199	1.042612	0.5055	0.1515	-0.2775	0	105	1021	1
2026-02-12	14:48:20.850	0.455	10.955	7.35	0.1403	-0.107604	1.058472	0.507	0.1515	-0.2505	0	105	1021	1
2026-02-12	14:48:20.870	1.925	11.655	8.645	0.139324	-0.115656	1.065792	0.504	0.144	-0.2715	0	105	1021	1
2026-02-12	14:48:20.890	3.01	10.99	9.275	0.143716	-0.146644	1.075552	0.504	0.138	-0.2865	0	105	1021	1
2026-02-12	14:48:20.910	3.675	9.555	9.38	0.148596	-0.177876	1.074576	0.5205	0.1455	-0.2895	0	105	1021	1
2026-02-12	14:48:20.930	4.865	7.63	9.065	0.16348	-0.18788	1.087996	0.519	0.15	-0.2805	0	105	1021	1
2026-02-12	14:48:20.950	8.05	7.455	8.575	0.156404	-0.16714	1.08458	0.513	0.147	-0.258	0	105	1021	1
2026-02-12	14:48:20.970	12.425	5.46	8.19	0.14274	-0.15372	1.078968	0.513	0.1515	-0.2865	0	105	1021	1
2026-02-12	14:48:20.990	14.875	1.995	8.015	0.113948	-0.148352	1.066768	0.5265	0.1455	-0.318	0	105	1021	1
2026-02-12	14:48:21.010	12.425	-6.16	8.82	0.132736	-0.195932	1.142164	0.5355	0.1395	-0.309	0	103	1018	1
2026-02-12	14:48:21.030	7.98	-14.035	11.9	0.179096	-0.278404	1.215608	0.5355	0.1395	-0.309	0	103	1018	1
2026-02-12	14:48:21.050	5.775	-16.17	21.77	0.173972	-0.252784	1.137528	0.5355	0.1395	-0.309	0	103	1018	1
2026-02-12	14:48:21.070	9.8	-20.44	18.55	0.128832	-0.190808	1.064816	0.5385	0.1275	-0.285	0	103	1018	1
2026-02-12	14:48:21.090	14.77	-19.145	14.735	0.049288	-0.11468	0.858148	0.5205	0.1425	-0.2445	0	103	1018	1
2026-02-12	14:48:21.110	17.08	-23.485	12.95	0.049044	-0.119316	0.838628	0.5265	0.141	-0.3195	0	103	1018	1
2026-02-12	14:48:21.130	20.265	-29.575	9.345	0.122	-0.192272	0.976	0.543	0.138	-0.342	0	103	1018	1
2026-02-12	14:48:21.150	27.615	-20.93	9.73	0.179584	-0.25254	1.064816	0.531	0.132	-0.261	0	103	1018	1
2026-02-12	14:48:21.170	34.16	-6.44	13.72	0.138836	-0.232044	1.026508	0.498	0.138	-0.2865	0	103	1018	1
2026-02-12	14:48:21.190	31.36	-4.27	15.4	0.10492	-0.182756	0.932324	0.501	0.1215	-0.2385	0	103	1018	1
2026-02-12	14:48:21.210	19.6	-15.575	11.795	0.101504	-0.127368	0.90036	0.5085	0.1185	-0.306	0	103	1024	1
2026-02-12	14:48:21.230	8.225	-19.635	9.1	0.114436	-0.124196	0.974292	0.5355	0.111	-0.3075	0	103	1024	1
2026-02-12	14:48:21.250	5.46	-14.385	12.32	0.1098	-0.099552	0.998936	0.5445	0.1155	-0.4035	0	103	1024	1
2026-02-12	14:48:21.270	8.26	-6.58	14.7	0.080276	-0.062708	0.966484	0.537	0.1095	-0.39	0	103	1024	1
2026-02-12	14:48:21.290	9.415	0.7	15.4	0.026596	-0.021716	0.8906	0.537	0.111	-0.393	0	103	1024	1
2026-02-12	14:48:21.310	5.04	-0.14	15.54	0.006832	-0.00488	0.86498	0.5535	0.111	-0.414	0	103	1024	1
2026-02-12	14:48:21.330	-0.91	-4.06	14.84	0.021472	-0.020008	0.917196	0.5475	0.105	-0.441	0	103	1024	1
2026-02-12	14:48:21.350	-3.185	-0.245	12.985	0.04514	-0.042212	0.979172	0.534	0.1065	-0.3405	0	103	1024	1
2026-02-12	14:48:21.370	-1.925	7.875	10.955	0.0488	-0.051728	0.99918	0.5505	0.105	-0.3465	0	103	1024	1
2026-02-12	14:48:21.390	-1.26	14.7	8.995	0.030988	-0.041724	0.982832	0.5265	0.12	-0.261	0	103	1024	1
2026-02-12	14:48:21.410	-3.99	16.205	7.105	0.022936	-0.03782	0.982832	0.5355	0.1125	-0.2565	0	103	1024	1
2026-02-12	14:48:21.430	-8.19	11.725	5.67	0.038064	-0.044652	1.012844	0.5175	0.123	-0.249	0	103	1024	1
2026-02-12	14:48:21.450	-9.345	10.22	3.255	0.068076	-0.038552	1.075796	0.5235	0.1215	-0.309	0	103	1024	1
2026-02-12	14:48:21.470	-5.32	14.42	-0.14	0.087352	-0.046848	1.088484	0.555	0.12	-0.381	0	103	1024	1
2026-02-12	14:48:21.490	0.91	15.61	-3.395	0.09882	-0.065392	1.070672	0.558	0.114	-0.372	0	103	1024	1
2026-02-12	14:48:21.510	5.075	13.93	-6.09	0.114192	-0.096868	1.027972	0.54	0.123	-0.3375	0	103	1024	1
2026-02-12	14:48:21.530	6.44	7.525	-7.595	0.14396	-0.128832	1.016992	0.546	0.111	-0.2805	0	103	1024	1
2026-02-12	14:48:21.550	6.895	1.33	-8.05	0.182024	-0.1708	1.064572	0.5475	0.093	-0.3345	0	103	1024	1
2026-02-12	14:48:21.570	6.72	0.595	-8.015	0.208864	-0.208132	1.091412	0.546	0.108	-0.2985	0	103	1024	1
2026-02-12	14:48:21.590	4.27	-2.66	-6.65	0.194712	-0.193004	1.08214	0.567	0.1095	-0.354	0	103	1024	1
2026-02-12	14:48:21.610	-0.98	-9.135	-5.18	0.179828	-0.160552	1.067012	0.5265	0.1095	-0.3225	0	103	1024	1
2026-02-12	14:48:21.630	-5.775	-13.055	-5.215	0.147132	-0.109068	1.009428	0.5685	0.1065	-0.3135	0	103	1024	1
2026-02-12	14:48:21.650	-6.51	-16.415	-7.175	0.122244	-0.047824	0.976732	0.5145	0.1215	-0.285	0	103	1024	1
2026-02-12	14:48:21.670	-2.275	-15.12	-11.06	0.107848	-0.01098	0.956968	0.5175	0.123	-0.3	0	103	1024	1
2026-02-12	14:48:21.690	2.485	-12.67	-14.49	0.107848	-0.016592	0.952576	0.522	0.1245	-0.3165	0	103	1024	1
2026-02-12	14:48:21.710	6.965	-9.835	-18.2	0.120536	-0.035868	0.962092	0.51	0.126	-0.282	0	103	1024	1
2026-02-12	14:48:21.730	6.685	-9.17	-19.285	0.134688	-0.071492	0.9699	0.5085	0.129	-0.2775	0	103	1024	1
2026-02-12	14:48:21.750	2.38	-9.66	-18.41	0.15494	-0.101748	0.99308	0.5175	0.1275	-0.3195	0	103	1024	1
2026-02-12	14:48:21.770	-3.85	-8.4	-15.47	0.16958	-0.100284	1.001376	0.519	0.1185	-0.3375	0	103	1024	1
2026-02-12	14:48:21.790	-9.17	-7.42	-11.2	0.150792	-0.073688	0.984052	0.4995	0.1185	-0.294	0	103	1024	1
2026-02-12	14:48:21.810	-12.285	-5.74	-6.93	0.129076	-0.04758	0.944768	0.4785	0.1155	-0.2775	0	104	1025	1
2026-02-12	14:48:21.830	-13.44	-4.76	-3.325	0.110776	-0.01952	0.91378	0.51	0.0975	-0.327	0	104	1025	1
2026-02-12	14:48:21.850	-12.145	-4.725	-0.665	0.105408	-0.006588	0.91622	0.534	0.105	-0.348	0	104	1025	1
2026-02-12	14:48:21.870	-7.98	-1.785	0.91	0.108824	0.000244	0.920368	0.531	0.117	-0.369	0	104	1025	1
2026-02-12	14:48:21.890	-2.065	2.1	1.785	0.104676	-0.000244	0.924028	0.5325	0.12	-0.399	0	104	1025	1
2026-02-12	14:48:21.910	2.66	6.405	2.1	0.097844	-0.000244	0.932568	0.5295	0.096	-0.4005	0	104	1025	1
2026-02-12	14:48:21.930	4.2	8.4	2.73	0.10492	-0.019276	0.95282	0.5235	0.0975	-0.366	0	104	1025	1
2026-02-12	14:48:21.950	3.605	8.33	3.99	0.118828	-0.039772	0.988444	0.519	0.1335	-0.348	0	104	1025	1
2026-02-12	14:48:21.970	2.835	11.2	5.355	0.12932	-0.049044	1.00528	0.516	0.141	-0.339	0	104	1025	1
2026-02-12	14:48:21.990	2.065	13.125	6.615	0.12566	-0.049288	1.00406	0.435	0.0255	-0.4035	0	104	1025	1
2026-02-12	14:48:22.010	1.12	13.125	7.455	0.122488	-0.045628	0.997228	0.42	0.024	-0.363	0	103	1020	1
2026-02-12	14:48:22.030	0.63	12.46	7.56	0.133712	-0.055876	1.002352	0.5085	0.129	-0.2835	0	103	1020	1
2026-02-12	14:48:22.050	1.05	10.815	7.07	0.1525	-0.09076799	1.055788	0.5145	0.1245	-0.2985	0	103	1020	1
2026-02-12	14:48:22.070	1.96	11.13	6.3	0.171044	-0.149084	1.064572	0.507	0.126	-0.27	0	103	1020	1
2026-02-12	14:48:22.090	1.82	9.275	5.53	0.172508	-0.148596	1.06384	0.522	0.1305	-0.2895	0	103	1020	1
2026-02-12	14:48:22.110	1.12	6.685	4.83	0.175924	-0.13908	1.053104	0.531	0.1365	-0.3135	0	103	1020	1
2026-02-12	14:48:22.130	0.805	2.065	4.41	0.189344	-0.148108	1.061644	0.5385	0.135	-0.3045	0	103	1020	1
2026-02-12	14:48:22.150	2.1	-2.45	4.27	0.193004	-0.144692	1.077504	0.531	0.138	-0.3165	0	103	1020	1
2026-02-12	14:48:22.170	4.725	-4.375	4.025	0.183732	-0.133712	1.07604	0.519	0.138	-0.3015	0	103	1020	1
2026-02-12	14:48:22.190	6.755	-7.14	3.885	0.162504	-0.140788	1.068964	0.516	0.1335	-0.273	0	103	1020	1
2026-02-12	14:48:22.210	5.11	-11.655	4.165	0.134444	-0.159332	1.057008	0.537	0.1245	-0.3255	0	101	1020	1
2026-02-12	14:48:22.230	-0.07	-17.5	5.005	0.139324	-0.179584	1.079456	0.546	0.114	-0.3465	0	101	1020	1
2026-02-12	14:48:22.250	-0.14	-18.62	5.67	0.123708	-0.158356	1.059204	0.5415	0.1125	-0.3495	0	101	1020	1
2026-02-12	14:48:22.270	5.705	-13.335	5.145	0.079788	-0.114924	0.95648	0.534	0.126	-0.3285	0	101	1020	1
2026-02-12	14:48:22.290	10.745	-11.305	3.395	0.051972	-0.084912	0.885964	0.498	0.1425	-0.291	0	101	1020	1
2026-02-12	14:48:22.310	13.055	-16.1	1.96	0.0671	-0.102724	0.90036	0.477	0.1485	-0.285	0	101	1020	1
2026-02-12	14:48:22.330	14.84	-18.06	1.47	0.10858	-0.15738	0.973804	0.51	0.135	-0.312	0	101	1020	1
2026-02-12	14:48:22.350	16.45	-14.525	2.345	0.127124	-0.18544	1.024068	0.5355	0.1215	-0.3615	0	101	1020	1
2026-02-12	14:48:22.370	15.68	-9.905	5.04	0.113704	-0.169824	1.004548	0.5325	0.1185	-0.3645	0	101	1020	1
2026-02-12	14:48:22.390	10.08	-9.135	8.96	0.085156	-0.13054	0.947696	0.519	0.123	-0.348	0	101	1020	1
2026-02-12	14:48:22.410	1.12	-13.475	13.195	0.069052	-0.102236	0.942816	0.5025	0.132	-0.3315	0	99	1022	1
2026-02-12	14:48:22.430	-4.97	-15.645	16.275	0.067832	-0.07808	0.96258	0.5025	0.132	-0.3315	0	99	1022	1
2026-02-12	14:48:22.450	-4.13	-11.795	17.5	0.055632	-0.05002	0.96746	0.5025	0.132	-0.3315	0	99	1022	1
2026-02-12	14:48:22.470	0.7	-4.9	17.15	0.037576	-0.038308	0.939644	0.5025	0.132	-0.3315	0	99	1022	1
2026-02-12	14:48:22.490	4.06	-2.065	16.31	0.025376	-0.032452	0.926468	0.5025	0.132	-0.3255	0	99	1022	1
2026-02-12	14:48:22.510	5.18	-1.82	15.05	0.02684	-0.035868	0.939888	0.513	0.1215	-0.2565	0	99	1022	1
2026-02-12	14:48:22.530	5.95	-0.805	13.125	0.0427	-0.048068	0.993568	0.498	0.132	-0.3135	0	99	1022	1
2026-02-12	14:48:22.550	7	3.22	10.955	0.061732	-0.077348	1.03944	0.4995	0.1395	-0.3555	0	99	1022	1
2026-02-12	14:48:22.570	6.965	7.49	8.925	0.069052	-0.097356	1.063352	0.4755	0.138	-0.2505	0	99	1022	1
2026-02-12	14:48:22.590	4.9	11.13	7.105	0.076616	-0.092476	1.056764	0.4965	0.1365	-0.33	0	99	1022	1
2026-02-12	14:48:22.610	2.31	11.34	5.04	0.068564	-0.055144	1.045052	0.51	0.129	-0.339	0	97	1022	1
2026-02-12	14:48:22.630	2.065	10.64	2.1	0.07198	-0.025864	1.054568	0.51	0.126	-0.3135	0	97	1022	1
2026-02-12	14:48:22.650	5.81	12.705	-1.855	0.092476	-0.03416	1.064816	0.51	0.129	-0.345	0	97	1022	1
2026-02-12	14:48:22.670	11.795	14.7	-5.985	0.116388	-0.068564	1.046272	0.4875	0.147	-0.3165	0	97	1022	1
2026-02-12	14:48:22.690	16.205	15.89	-9.345	0.141764	-0.092476	1.017724	0.4875	0.138	-0.306	0	97	1022	1
2026-02-12	14:48:22.710	16.24	14.525	-11.445	0.171776	-0.141032	1.025044	0.483	0.132	-0.2505	0	97	1022	1
2026-02-12	14:48:22.730	11.305	11.83	-12.04	0.205448	-0.175192	1.082628	0.5025	0.1275	-0.315	0	97	1022	1
2026-02-12	14:48:22.750	5.32	11.445	-11.795	0.20008	-0.181292	1.078236	0.522	0.1245	-0.381	0	97	1022	1
2026-02-12	14:48:22.770	-1.61	8.89	-10.71	0.193248	-0.148108	1.098	0.5295	0.1155	-0.387	0	97	1022	1
2026-02-12	14:48:22.790	-12.18	5.705	-9.135	0.176168	-0.092232	1.079944	0.537	0.108	-0.3945	0	97	1022	1
2026-02-12	14:48:22.810	-17.08	3.99	-8.75	0.164212	-0.072468	1.051396	0.522	0.111	-0.3345	0	96	1025	1
2026-02-12	14:48:22.830	-21.875	0.84	-9.135	0.150792	-0.036844	0.998448	0.5025	0.1185	-0.282	0	96	1025	1
2026-02-12	14:48:22.850	-22.54	-1.82	-10.815	0.138348	0.004392	0.956968	0.5175	0.126	-0.318	0	96	1025	1
2026-02-12	14:48:22.870	-18.55	-1.05	-13.65	0.128588	0.035624	0.926956	0.5205	0.132	-0.336	0	96	1025	1
2026-02-12	14:48:22.890	-12.355	0.875	-17.08	0.134444	0.026596	0.924272	0.4965	0.132	-0.351	0	96	1025	1
2026-02-12	14:48:22.910	-7	2.065	-19.705	0.153964	-0.012932	0.933056	0.498	0.1365	-0.378	0	96	1025	1
2026-02-12	14:48:22.930	-5.285	1.54	-20.475	0.170312	-0.04636	0.951356	0.5145	0.135	-0.3675	0	96	1025	1
2026-02-12	14:48:22.950	-6.685	1.19	-19.53	0.177876	-0.069296	0.969656	0.516	0.129	-0.3225	0	96	1025	1
2026-02-12	14:48:22.970	-8.855	0.945	-17.185	0.17324	-0.074664	0.986736	0.5025	0.129	-0.3	0	96	1025	1
2026-02-12	14:48:22.990	-10.745	1.68	-13.72	0.164212	-0.0732	0.973072	0.4995	0.135	-0.3135	0	96	1025	1
2026-02-12	14:48:23.010	-12.18	1.26	-10.045	0.142252	-0.049288	0.954284	0.507	0.1365	-0.3795	0	94	1027	1
2026-02-12	14:48:23.030	-12.25	1.12	-6.825	0.121756	-0.031476	0.936716	0.4725	0.081	-0.3705	0	94	1027	1
2026-02-12	14:48:23.050	-10.36	1.085	-4.48	0.1037	-0.017812	0.92964	0.462	0.087	-0.2715	0	94	1027	1
2026-02-12	14:48:23.070	-6.58	2.555	-3.325	0.087108	-0.009028	0.932324	0.498	0.1425	-0.2805	0	94	1027	1
2026-02-12	14:48:23.090	-2.45	5.67	-2.94	0.08052	-0.018544	0.945012	0.492	0.1425	-0.309	0	94	1027	1
2026-02-12	14:48:23.110	0.735	8.785	-2.73	0.07442	-0.023424	0.952576	0.5085	0.144	-0.3735	0	94	1027	1
2026-02-12	14:48:23.130	2.555	10.78	-2.415	0.072224	-0.022692	0.963556	0.4575	-0.0015	-0.489	0	94	1027	1
2026-02-12	14:48:23.150	3.115	12.32	-1.715	0.075884	-0.03294	0.977464	0.375	-0.129	-0.5175	0	94	1027	1
2026-02-12	14:48:23.170	3.045	12.215	-0.315	0.0793	-0.037576	0.999424	0.348	-0.132	-0.5415	0	94	1027	1
2026-02-12	14:48:23.190	3.5	12.67	1.12	0.081496	-0.037088	1.010404	0.3285	-0.159	-0.591	0	94	1027	1
2026-02-12	14:48:23.210	4.585	13.58	2.275	0.089792	-0.047336	1.023092	0.336	-0.1545	-0.603	0	93	1022	1
2026-02-12	14:48:23.230	5.53	13.055	3.22	0.093208	-0.058804	1.03822	0.3435	-0.15	-0.6135	0	93	1022	1
2026-02-12	14:48:23.250	5.915	11.34	3.71	0.104432	-0.083204	1.065792	0.3405	-0.156	-0.6045	0	93	1022	1
2026-02-12	14:48:23.270	5.39	10.395	4.06	0.124196	-0.12078	1.083848	0.378	-0.093	-0.549	0	93	1022	1
2026-02-12	14:48:23.290	4.375	7.63	4.76	0.13908	-0.133224	1.097756	0.429	-0.006	-0.4575	0	93	1022	1
2026-02-12	14:48:23.310	4.27	4.9	5.88	0.15616	-0.121756	1.085556	0.441	0.0105	-0.3975	0	93	1022	1
2026-02-12	14:48:23.330	6.02	1.26	7.105	0.146156	-0.11468	1.074576	0.4755	0.048	-0.3765	0	93	1022	1
2026-02-12	14:48:23.350	8.68	-3.22	8.155	0.145912	-0.123708	1.078236	0.5235	0.1065	-0.372	0	93	1022	1
2026-02-12	14:48:23.370	10.92	-5.88	8.68	0.147376	-0.152256	1.081408	0.537	0.126	-0.375	0	93	1022	1
2026-02-12	14:48:23.390	9.905	-10.115	9.1	0.129808	-0.170312	1.0675	0.525	0.1305	-0.3585	0	93	1022	1
2026-02-12	14:48:23.410	4.235	-17.01	9.45	0.12932	-0.183244	1.089948	0.525	0.132	-0.384	0	91	1023	1
2026-02-12	14:48:23.430	2.8	-20.475	9.31	0.122	-0.160796	1.081408	0.525	0.132	-0.4005	0	91	1023	1
2026-02-12	14:48:23.450	8.96	-14.84	7.945	0.08686399	-0.105652	0.991616	0.522	0.114	-0.402	0	91	1023	1
2026-02-12	14:48:23.470	15.26	-10.29	5.46	0.05612	-0.06832	0.884256	0.5175	0.117	-0.3885	0	91	1023	1
2026-02-12	14:48:23.490	17.43	-15.225	2.975	0.073688	-0.089548	0.87962	0.5205	0.1335	-0.384	0	91	1023	1
2026-02-12	14:48:23.510	17.43	-19.39	1.54	0.120048	-0.144692	0.955748	0.519	0.1365	-0.39	0	91	1023	1
2026-02-12	14:48:23.530	17.71	-16.555	1.505	0.147864	-0.173972	1.026508	0.51	0.135	-0.3795	0	91	1023	1
2026-02-12	14:48:23.550	16.835	-10.57	3.01	0.133956	-0.16592	1.026752	0.5115	0.1245	-0.372	0	91	1023	1
2026-02-12	14:48:23.570	12.425	-8.61	5.915	0.103212	-0.124196	0.965996	0.501	0.126	-0.351	0	91	1023	1
2026-02-12	14:48:23.590	4.025	-11.27	9.415	0.083936	-0.084912	0.93208	0.495	0.129	-0.3465	0	91	1023	1
2026-02-12	14:48:23.610	-3.15	-15.19	12.67	0.0793	-0.056852	0.942084	0.498	0.132	-0.3405	0	90	1026	1
2026-02-12	14:48:23.630	-4.48	-15.225	14.875	0.081008	-0.035136	0.964288	0.501	0.1305	-0.3705	0	90	1026	1
2026-02-12	14:48:23.650	-1.295	-9.59	15.54	0.060268	-0.014396	0.94672	0.492	0.1245	-0.33	0	90	1026	1
2026-02-12	14:48:23.670	2.1	-5.6	15.225	0.042944	-0.005124	0.924272	0.48	0.1275	-0.2685	0	90	1026	1
2026-02-12	14:48:23.690	2.765	-4.655	14.35	0.032696	-0.006344	0.909144	0.4725	0.129	-0.27	0	90	1026	1
2026-02-12	14:48:23.710	1.155	-5.18	12.95	0.04026	-0.016836	0.939156	0.48	0.123	-0.261	0	90	1026	1
2026-02-12	14:48:23.730	-0.385	-2.73	10.99	0.048312	-0.033428	0.979416	0.4995	0.12	-0.3045	0	90	1026	1
2026-02-12	14:48:23.750	-1.225	1.47	8.82	0.050752	-0.039284	1.014796	0.5055	0.117	-0.3405	0	90	1026	1
2026-02-12	14:48:23.770	-2.135	6.65	6.09	0.035624	-0.029036	1.024068	0.507	0.1155	-0.33	0	90	1026	1
2026-02-12	14:48:23.790	-4.55	9.765	3.08	0.024644	-0.011712	1.021872	0.507	0.1155	-0.33	0	90	1026	1
2026-02-12	14:48:23.810	-7.14	9.59	1.225	0.040504	-0.021716	1.0492	0.48	0.105	-0.243	0	90	1024	1
2026-02-12	14:48:23.830	-8.75	9.17	-0.07	0.069784	-0.031476	1.062132	0.48	0.105	-0.243	0	90	1024	1
2026-02-12	14:48:23.850	-7.98	10.43	-1.68	0.078324	-0.022692	1.106784	0.48	0.105	-0.243	0	90	1024	1
2026-02-12	14:48:23.870	-4.025	13.16	-3.36	0.085888	-0.017324	1.102392	0.4905	0.1185	-0.2805	0	90	1024	1
2026-02-12	14:48:23.890	0.525	13.65	-4.865	0.087596	-0.037332	1.073356	0.4905	0.1395	-0.2895	0	90	1024	1
2026-02-12	14:48:23.910	3.885	10.885	-6.405	0.096136	-0.06588	1.067256	0.486	0.138	-0.2655	0	90	1024	1
2026-02-12	14:48:23.930	6.125	8.68	-8.225	0.133224	-0.086132	1.0675	0.492	0.1335	-0.276	0	90	1024	1
2026-02-12	14:48:23.950	8.4	7.35	-10.115	0.155916	-0.115656	1.067256	0.4965	0.132	-0.303	0	90	1024	1
2026-02-12	14:48:23.970	9.73	6.615	-11.48	0.180316	-0.135908	1.078236	0.51	0.129	-0.33	0	90	1024	1
2026-02-12	14:48:23.990	8.505	4.515	-12.53	0.169824	-0.128588	1.072868	0.5325	0.126	-0.381	0	90	1024	1
2026-02-12	14:48:24.010	5.11	0.35	-13.125	0.16714	-0.120048	1.06018	0.525	0.1245	-0.378	0	89	1026	1
2026-02-12	14:48:24.030	1.995	-3.255	-13.825	0.161528	-0.09516	1.026752	0.5175	0.1095	-0.324	0	89	1026	1
2026-02-12	14:48:24.050	1.645	-4.935	-15.19	0.142008	-0.04514	0.990396	0.513	0.1035	-0.291	0	89	1026	1
2026-02-12	14:48:24.070	4.515	-5.32	-17.115	0.132248	-0.022692	0.965752	0.5175	0.1185	-0.3015	0	89	1026	1
2026-02-12	14:48:24.090	8.015	-6.125	-18.83	0.145424	-0.033184	0.975756	0.516	0.126	-0.3195	0	89	1026	1
2026-02-12	14:48:24.110	9.135	-6.58	-19.67	0.153476	-0.06954	0.981124	0.48	0.132	-0.3105	0	89	1026	1
2026-02-12	14:48:24.130	6.23	-8.26	-19.005	0.155184	-0.091988	0.982832	0.4815	0.1275	-0.318	0	89	1026	1
2026-02-12	14:48:24.150	0.63	-8.61	-17.36	0.144692	-0.088572	0.978684	0.477	0.123	-0.2835	0	89	1026	1
2026-02-12	14:48:24.170	-4.69	-7.595	-15.26	0.128588	-0.06344	0.954284	0.4695	0.12	-0.282	0	89	1026	1
2026-02-12	14:48:24.190	-8.05	-6.02	-13.265	0.111508	-0.030988	0.926468	0.483	0.1125	-0.3225	0	89	1026	1
2026-02-12	14:48:24.210	-8.995	-3.71	-11.935	0.09028	-0.003416	0.90158	0.507	0.1065	-0.36	0	89	1030	1
2026-02-12	14:48:24.230	-7.77	-1.4	-11.095	0.081496	0.00976	0.895968	0.45	-0.0165	-0.447	0	89	1030	1
2026-02-12	14:48:24.250	-4.62	2.24	-10.605	0.07442	0.030256	0.88572	0.4395	-0.024	-0.426	0	89	1030	1
2026-02-12	14:48:24.270	-0.805	5.04	-9.835	0.072224	0.034648	0.89792	0.5025	0.102	-0.342	0	89	1030	1
2026-02-12	14:48:24.290	2.38	9.31	-8.365	0.07905599	0.022204	0.921588	0.51	0.117	-0.3975	0	89	1030	1
2026-02-12	14:48:24.310	3.815	11.795	-6.195	0.077836	0.010004	0.942816	0.5055	0.1125	-0.4095	0	89	1030	1
2026-02-12	14:48:24.330	3.255	14	-3.22	0.084912	-0.003416	0.975268	0.4995	0.093	-0.3735	0	89	1030	1
2026-02-12	14:48:24.350	1.61	16.17	0.56	0.090036	-0.00488	1.002108	0.498	0.0975	-0.3555	0	89	1030	1
2026-02-12	14:48:24.370	-0.14	16.065	4.9	0.09638	-0.019764	1.018212	0.4845	0.1185	-0.3255	0	89	1030	1
2026-02-12	14:48:24.390	-1.085	15.085	8.82	0.094184	-0.019276	1.012112	0.498	0.1185	-0.348	0	89	1030	1
2026-02-12	14:48:24.410	-0.525	13.755	10.955	0.09076799	-0.00854	1.01504	0.5265	0.1005	-0.3705	0	88	1025	1
2026-02-12	14:48:24.430	1.435	13.02	11.095	0.086376	-0.028304	1.023336	0.5265	0.084	-0.375	0	88	1025	1
2026-02-12	14:48:24.450	3.64	11.235	9.905	0.096868	-0.082716	1.057496	0.504	0.1035	-0.402	0	88	1025	1
2026-02-12	14:48:24.470	4.725	10.185	8.33	0.109556	-0.125904	1.065792	0.5025	0.1245	-0.411	0	88	1025	1
2026-02-12	14:48:24.490	5.04	8.54	6.335	0.11468	-0.109556	1.068476	0.516	0.12	-0.4095	0	88	1025	1
2026-02-12	14:48:24.510	6.195	6.895	4.375	0.1098	-0.081496	1.055544	0.4875	0.0705	-0.429	0	88	1025	1
2026-02-12	14:48:24.530	8.26	3.185	2.625	0.108336	-0.075884	1.065792	0.483	0.06	-0.438	0	88	1025	1
2026-02-12	14:48:24.550	10.15	-1.12	1.68	0.12444	-0.094428	1.087752	0.537	0.099	-0.4275	0	88	1025	1
2026-02-12	14:48:24.570	10.01	-4.06	1.645	0.135908	-0.141276	1.115568	0.555	0.1005	-0.4275	0	88	1025	1
2026-02-12	14:48:24.590	5.39	-6.93	3.01	0.140544	-0.193492	1.1407	0.546	0.1095	-0.426	0	88	1025	1
2026-02-12	14:48:24.610	-3.36	-11.97	5.32	0.121512	-0.184708	1.098244	0.4995	0.0435	-0.4485	0	88	1024	1
2026-02-12	14:48:24.630	-9.73	-17.745	7.35	0.091012	-0.132248	1.056764	0.4185	-0.078	-0.492	0	88	1024	1
2026-02-12	14:48:24.650	-7.735	-16.135	6.895	0.059536	-0.071004	0.94306	0.387	-0.093	-0.492	0	88	1024	1
2026-02-12	14:48:24.670	-1.365	-16.45	4.515	0.048068	-0.05368	0.892308	0.3795	-0.1245	-0.498	0	88	1024	1
2026-02-12	14:48:24.690	6.3	-18.48	2.135	0.07515199	-0.086376	0.915488	0.435	-0.0945	-0.4605	0	88	1024	1
2026-02-12	14:48:24.710	12.88	-17.01	0.77	0.083936	-0.136884	0.951356	0.5235	0.042	-0.42	0	88	1024	1
2026-02-12	14:48:24.730	15.645	-15.89	1.365	0.091744	-0.173728	1.011136	0.4575	-0.0015	-0.441	0	88	1024	1
2026-02-12	14:48:24.750	13.65	-14.63	3.675	0.091744	-0.162992	1.018212	0.375	-0.081	-0.4185	0	88	1024	1
2026-02-12	14:48:24.770	7.77	-15.33	6.755	0.083936	-0.137128	1.004548	0.3795	-0.06	-0.414	0	88	1024	1
2026-02-12	14:48:24.790	1.855	-16.66	9.485	0.07124799	-0.09272	0.989664	0.4485	0.0315	-0.417	0	88	1024	1
2026-02-12	14:48:24.810	-0.945	-16.065	10.85	0.056852	-0.058804	0.983808	0.5115	0.1035	-0.4185	0	88	1026	1
2026-02-12	14:48:24.830	0.035	-13.195	10.535	0.038064	-0.020496	0.960384	0.513	0.099	-0.4395	0	88	1026	1
2026-02-12	14:48:24.850	2.485	-10.185	8.89	0.01708	0.001952	0.94794	0.513	0.099	-0.4395	0	88	1026	1
2026-02-12	14:48:24.870	4.095	-7.84	7.28	0.01586	0.004392	0.945256	0.5175	0.042	-0.417	0	88	1026	1
2026-02-12	14:48:24.890	5.915	-5.74	5.565	0.011956	0	0.948428	0.5175	0.042	-0.417	0	88	1026	1
2026-02-12	14:48:24.910	6.79	-2.17	3.57	0.02318	-0.005856	0.971364	0.4905	0.0885	-0.3195	0	88	1026	1
2026-02-12	14:48:24.930	7.105	2.24	1.995	0.023424	-0.014152	0.984296	0.4815	0.06	-0.3705	0	88	1026	1
2026-02-12	14:48:24.950	5.67	5.075	0.98	0.029524	-0.025864	1.011136	0.495	0.1005	-0.399	0	88	1026	1
2026-02-12	14:48:24.970	2.38	7.875	0.385	0.0366	-0.038796	1.034072	0.4905	0.105	-0.4035	0	88	1026	1
2026-02-12	14:48:24.990	-1.54	9.975	-0.28	0.034648	-0.0305	1.04188	0.477	0.117	-0.3885	0	88	1026	1
2026-02-12	14:48:25.010	-4.06	12.88	-1.785	0.038552	-0.00122	1.04432	0.5055	0.1155	-0.399	0	88	1026	1
2026-02-12	14:48:25.030	-3.185	15.19	-4.13	0.034892	0.037576	1.044564	0.4785	0.108	-0.3975	0	88	1026	1
2026-02-12	14:48:25.050	0.63	16.66	-7.21	0.047336	0.03172	1.052128	0.5145	0.096	-0.3795	0	88	1026	1
2026-02-12	14:48:25.070	5.18	16.975	-10.535	0.083204	-0.020496	1.054324	0.5085	0.111	-0.4275	0	88	1026	1
2026-02-12	14:48:25.090	7.91	15.26	-12.95	0.115168	-0.081984	1.045784	0.534	0.102	-0.4335	0	88	1026	1
2026-02-12	14:48:25.110	7.315	14.14	-14.84	0.13542	-0.132736	1.06994	0.537	0.099	-0.423	0	88	1026	1
2026-02-12	14:48:25.130	2.835	14.945	-16.17	0.140788	-0.1464	1.076772	0.5235	0.099	-0.45	0	88	1026	1
2026-02-12	14:48:25.150	-2.94	9.975	-16.485	0.12932	-0.10858	1.087508	0.5145	0.102	-0.4095	0	88	1026	1
2026-02-12	14:48:25.170	-6.895	6.755	-17.185	0.127612	-0.066856	1.081408	0.5235	0.093	-0.4665	0	88	1026	1
2026-02-12	14:48:25.190	-8.645	5.075	-18.9	0.116388	-0.072468	1.064328	0.4065	-0.045	-0.3495	0	88	1026	1
2026-02-12	14:48:25.210	-9.835	1.085	-20.965	0.1159	-0.05368	1.037244	0.492	0.1035	-0.3675	0	88	1029	1
2026-02-12	14:48:25.230	-9.555	-0.28	-23.87	0.100772	-0.020008	0.998204	0.492	0.1035	-0.3675	0	88	1029	1
2026-02-12	14:48:25.250	-6.44	-0.245	-26.95	0.091988	0.0122	0.967216	0.492	0.1035	-0.3675	0	88	1029	1
2026-02-12	14:48:25.270	-1.575	-1.015	-29.435	0.101748	0.011956	0.965508	0.4875	0.1065	-0.3405	0	88	1029	1
2026-02-12	14:48:25.290	2.415	-2.03	-30.345	0.122488	-0.030744	0.97112	0.462	0.108	-0.282	0	88	1029	1
2026-02-12	14:48:25.310	3.64	-3.92	-28.84	0.12688	-0.05734	0.981124	0.4695	0.096	-0.2835	0	88	1029	1
2026-02-12	14:48:25.330	2.31	-5.355	-25.2	0.124928	-0.074176	0.984784	0.483	0.093	-0.3015	0	88	1029	1
2026-02-12	14:48:25.350	-0.35	-6.055	-20.23	0.1159	-0.07076	0.980636	0.4485	0.1035	-0.2655	0	88	1029	1
2026-02-12	14:48:25.370	-3.29	-6.23	-14.77	0.09882	-0.062708	0.9638	0.4425	0.102	-0.2715	0	88	1029	1
2026-02-12	14:48:25.390	-6.125	-6.93	-9.66	0.0732	-0.041724	0.946232	0.4515	0.1005	-0.294	0	88	1029	1
2026-02-12	14:48:25.410	-7.63	-7.21	-5.6	0.055388	-0.018544	0.931592	0.4635	0.1005	-0.306	0	87	1031	1
2026-02-12	14:48:25.430	-6.405	-5.495	-3.045	0.033916	0.008296	0.929884	0.4605	0.1035	-0.297	0	87	1031	1
2026-02-12	14:48:25.450	-2.66	-2.1	-1.575	0.022936	0.024156	0.916952	0.4545	0.1035	-0.3015	0	87	1031	1
2026-02-12	14:48:25.470	1.435	0.945	-0.735	0.019032	0.020252	0.926712	0.456	0.1035	-0.312	0	87	1031	1
2026-02-12	14:48:25.490	4.27	3.955	0.21	0.021716	0.007564	0.933056	0.456	0.102	-0.321	0	87	1031	1
2026-02-12	14:48:25.510	5.355	5.215	1.715	0.027816	0.000976	0.95892	0.4695	0.105	-0.3195	0	87	1031	1
2026-02-12	14:48:25.530	5.425	7.665	3.605	0.046116	-0.020496	0.986736	0.462	0.108	-0.279	0	87	1031	1
2026-02-12	14:48:25.550	5.005	9.695	5.95	0.050996	-0.0183	0.998448	0.4575	0.105	-0.285	0	87	1031	1
2026-02-12	14:48:25.570	4.41	10.255	8.4	0.04758	-0.00976	0.99552	0.462	0.105	-0.3045	0	87	1031	1
2026-02-12	14:48:25.590	3.815	10.185	10.115	0.058316	-0.01464	1.016992	0.4665	0.0975	-0.309	0	87	1031	1
2026-02-12	14:48:25.610	3.78	9.835	11.34	0.073688	-0.042456	1.04554	0.483	0.0945	-0.333	0	86	1027	1
2026-02-12	14:48:25.630	4.06	9.905	12.25	0.09028	-0.083936	1.06384	0.474	0.0975	-0.306	0	86	1027	1
2026-02-12	14:48:25.650	3.64	10.08	13.125	0.104188	-0.114436	1.075308	0.4605	0.102	-0.255	0	86	1027	1
2026-02-12	14:48:25.670	2.695	7.595	14.14	0.10614	-0.105164	1.067256	0.4725	0.102	-0.279	0	86	1027	1
2026-02-12	14:48:25.690	2.38	4.515	15.4	0.114192	-0.101016	1.065548	0.483	0.0945	-0.3225	0	86	1027	1
2026-02-12	14:48:25.710	3.745	0.175	16.905	0.126392	-0.10004	1.066768	0.4845	0.096	-0.366	0	86	1027	1
2026-02-12	14:48:25.730	6.3	-3.325	18.445	0.130052	-0.102968	1.081652	0.483	0.105	-0.366	0	86	1027	1
2026-02-12	14:48:25.750	7.56	-5.845	19.985	0.128344	-0.13786	1.093852	0.4815	0.1095	-0.3285	0	86	1027	1
2026-02-12	14:48:25.770	4.9	-9.415	21.735	0.129076	-0.188124	1.103368	0.4725	0.108	-0.2805	0	86	1027	1
2026-02-12	14:48:25.790	-1.785	-13.86	23.345	0.113948	-0.188124	1.076528	0.474	0.1095	-0.282	0	86	1027	1
2026-02-12	14:48:25.810	-7.49	-18.445	24.08	0.091012	-0.136152	1.041392	0.477	0.1065	-0.3	0	85	1027	1
2026-02-12	14:48:25.830	-5.075	-17.5	22.82	0.06734399	-0.075396	0.964288	0.486	0.0975	-0.3255	0	85	1027	1
2026-02-12	14:48:25.850	2.275	-16.555	20.02	0.048312	-0.050264	0.909876	0.471	0.102	-0.3	0	85	1027	1
2026-02-12	14:48:25.870	10.185	-17.605	17.15	0.05246	-0.07564	0.907436	0.441	0.1095	-0.228	0	85	1027	1
2026-02-12	14:48:25.890	15.26	-18.095	15.47	0.077592	-0.131028	0.953552	0.4395	0.1095	-0.225	0	85	1027	1
2026-02-12	14:48:25.910	15.505	-18.34	15.855	0.099064	-0.188612	1.014308	0.4395	0.1095	-0.225	0	85	1027	1
2026-02-12	14:48:25.930	12.53	-17.92	17.43	0.100528	-0.207644	1.041392	0.4845	0.108	-0.309	0	85	1027	1
2026-02-12	14:48:25.950	6.93	-16.975	20.055	0.092964	-0.196664	1.028948	0.4845	0.108	-0.309	0	85	1027	1
2026-02-12	14:48:25.970	-1.68	-17.605	24.255	0.083936	-0.156648	1.001376	0.4905	0.1005	-0.351	0	85	1027	1
2026-02-12	14:48:25.990	-8.26	-17.955	28.14	0.06344	-0.090036	0.955504	0.498	0.111	-0.3195	0	85	1027	1
2026-02-12	14:48:26.010	-10.36	-19.075	31.185	0.035624	-0.037088	0.920124	0.498	0.111	-0.3195	0	85	1028	1
2026-02-12	14:48:26.030	-8.365	-18.585	31.605	0.018788	-0.013664	0.91012	0.498	0.111	-0.3195	0	85	1028	1
2026-02-12	14:48:26.050	-3.815	-15.925	30.94	0.021228	-0.016592	0.947696	0.492	0.1185	-0.354	0	85	1028	1
2026-02-12	14:48:26.070	1.61	-11.165	29.575	0.013176	-0.014884	0.939156	0.4845	0.123	-0.3405	0	85	1028	1
2026-02-12	14:48:26.090	5.145	-7.28	27.685	0.004392	-0.010004	0.947452	0.48	0.126	-0.3075	0	85	1028	1
2026-02-12	14:48:26.110	5.46	-3.745	25.55	0.01342	-0.020496	0.969656	0.474	0.123	-0.354	0	85	1028	1
2026-02-12	14:48:26.130	3.395	-2.765	23.905	0.032208	-0.04148	1.02114	0.48	0.1215	-0.309	0	85	1028	1
2026-02-12	14:48:26.150	0.735	0.7	21.84	0.047824	-0.059292	1.057496	0.4695	0.1215	-0.291	0	85	1028	1
2026-02-12	14:48:26.170	-1.715	4.865	19.425	0.060512	-0.06588	1.071892	0.504	0.129	-0.315	0	85	1028	1
2026-02-12	14:48:26.190	-3.43	8.26	16.52	0.063196	-0.037332	1.064084	0.4515	0.126	-0.2115	0	85	1028	1
2026-02-12	14:48:26.210	-3.255	9.94	12.74	0.054412	-0.00366	1.061644	0.504	0.1185	-0.303	0	85	1027	1
2026-02-12	14:48:26.230	-0.735	9.975	8.33	0.062708	-0.004636	1.071648	0.4545	0.1335	-0.2175	0	85	1027	1
2026-02-12	14:48:26.250	3.99	10.115	3.465	0.096624	-0.040504	1.087996	0.522	0.123	-0.3825	0	85	1027	1
2026-02-12	14:48:26.270	9.59	12.18	-1.26	0.128588	-0.08295999	1.075064	0.3945	-0.1035	-0.519	0	85	1027	1
2026-02-12	14:48:26.290	12.915	12.81	-4.83	0.151524	-0.120048	1.068964	0.342	-0.1905	-0.579	0	85	1027	1
2026-02-12	14:48:26.310	10.99	12.355	-6.93	0.1769	-0.158844	1.08214	0.4305	-0.0405	-0.429	0	85	1027	1
2026-02-12	14:48:26.330	4.305	9.275	-7.42	0.183732	-0.153964	1.102148	0.414	-0.0435	-0.3225	0	85	1027	1
2026-02-12	14:48:26.350	-3.815	4.41	-7	0.182512	-0.116632	1.111908	0.5205	0.063	-0.3885	0	85	1027	1
2026-02-12	14:48:26.370	-9.975	1.435	-6.965	0.16836	-0.089304	1.103856	0.5295	0.0825	-0.366	0	85	1027	1
2026-02-12	14:48:26.390	-13.93	-1.05	-7.63	0.158356	-0.062464	1.056032	0.5175	0.114	-0.333	0	85	1027	1
2026-02-12	14:48:26.410	-15.155	-3.15	-9.345	0.139568	-0.030256	0.993812	0.54	0.1155	-0.372	0	85	1031	1
2026-02-12	14:48:26.430	-13.16	-4.095	-11.935	0.12444	0.012932	0.93696	0.504	0.1215	-0.297	0	85	1031	1
2026-02-12	14:48:26.450	-8.68	-4.865	-15.015	0.118828	0.02684	0.911828	0.453	0.015	-0.3375	0	85	1031	1
2026-02-12	14:48:26.470	-2.975	-5.04	-17.92	0.14152	-0.003416	0.936228	0.516	0.1215	-0.36	0	85	1031	1
2026-02-12	14:48:26.490	1.82	-3.43	-19.565	0.162992	-0.042456	0.947452	0.51	0.135	-0.3375	0	85	1031	1
2026-02-12	14:48:26.510	3.465	-2.45	-19.425	0.169824	-0.06832	0.959408	0.507	0.129	-0.36	0	85	1031	1
2026-02-12	14:48:26.530	1.435	-1.435	-17.675	0.166896	-0.088084	0.958676	0.495	0.1425	-0.327	0	85	1031	1
2026-02-12	14:48:26.550	-2.415	-2.625	-14.28	0.150548	-0.072712	0.958676	0.4965	0.1215	-0.285	0	85	1031	1
2026-02-12	14:48:26.570	-5.74	-1.61	-10.395	0.141276	-0.060024	0.950624	0.471	0.135	-0.2205	0	85	1031	1
2026-02-12	14:48:26.590	-6.895	-0.315	-6.51	0.126148	-0.04514	0.948184	0.501	0.1305	-0.291	0	85	1031	1
2026-02-12	14:48:26.610	-5.81	2.24	-3.36	0.095648	-0.016592	0.93086	0.4905	0.135	-0.294	0	86	1033	1
2026-02-12	14:48:26.630	-3.36	5.355	-1.4	0.077592	-0.000976	0.9272	0.4755	0.1485	-0.2055	0	86	1033	1
2026-02-12	14:48:26.650	-0.735	7.315	0.105	0.06954	0.005612	0.929884	0.4845	0.1365	-0.288	0	86	1033	1
2026-02-12	14:48:26.670	1.365	8.89	1.225	0.067832	0.001708	0.950624	0.4845	0.1365	-0.288	0	86	1033	1
2026-02-12	14:48:26.690	3.325	12.285	1.995	0.069296	-0.011712	0.975512	0.4845	0.1365	-0.288	0	86	1033	1
2026-02-12	14:48:26.710	4.795	15.575	2.87	0.06344	-0.018056	0.977952	0.4845	0.1365	-0.288	0	86	1033	1
2026-02-12	14:48:26.730	5.11	17.115	3.885	0.06344	-0.011956	0.978684	0.468	0.138	-0.2475	0	86	1033	1
2026-02-12	14:48:26.750	4.83	17.43	4.76	0.05856	-0.013664	0.990884	0.48	0.135	-0.237	0	86	1033	1
2026-02-12	14:48:26.770	4.935	16.8	5.075	0.068564	-0.021228	1.002108	0.501	0.1335	-0.3075	0	86	1033	1
2026-02-12	14:48:26.790	5.915	16.8	4.655	0.08052	-0.026108	1.025776	0.498	0.1305	-0.33	0	86	1033	1
2026-02-12	14:48:26.810	7.385	17.71	3.675	0.08686399	-0.044896	1.03578	0.489	0.126	-0.2685	0	88	1027	1
2026-02-12	14:48:26.830	7.98	16.975	2.555	0.1037	-0.071736	1.06872	0.471	0.1305	-0.2145	0	88	1027	1
2026-02-12	14:48:26.850	7.105	15.015	1.68	0.10614	-0.09076799	1.054324	0.4845	0.132	-0.216	0	88	1027	1
2026-02-12	14:48:26.870	5.81	11.62	0.98	0.120292	-0.091988	1.068476	0.4845	0.1365	-0.225	0	88	1027	1
2026-02-12	14:48:26.890	6.125	9.555	0.525	0.132492	-0.072712	1.071892	0.4875	0.1335	-0.246	0	88	1027	1
2026-02-12	14:48:26.910	8.225	5.565	0.525	0.134444	-0.062464	1.067256	0.5085	0.1275	-0.279	0	88	1027	1
2026-02-12	14:48:26.930	9.59	1.75	0.7	0.136152	-0.080276	1.08458	0.504	0.135	-0.2745	0	88	1027	1
2026-02-12	14:48:26.950	7.385	-2.415	1.295	0.12932	-0.12444	1.109956	0.4995	0.138	-0.264	0	88	1027	1
2026-02-12	14:48:26.970	-1.19	-9.415	2.45	0.125172	-0.177876	1.12606	0.4995	0.138	-0.264	0	88	1027	1
2026-02-12	14:48:26.990	-12.425	-18.515	3.255	0.120048	-0.176168	1.136796	0.504	0.126	-0.2985	0	88	1027	1
2026-02-12	14:48:27.010	-13.93	-20.58	3.045	0.110532	-0.151524	1.120204	0.504	0.126	-0.2985	0	88	1027	1
2026-02-12	14:48:27.030	-7.735	-14.595	1.155	0.05368	-0.075884	1.006256	0.5115	0.1215	-0.2925	0	88	1027	1
2026-02-12	14:48:27.050	-0.21	-8.05	-2.415	0	-0.016104	0.83936	0.5475	0.108	-0.3255	0	88	1027	1
2026-02-12	14:48:27.070	2.765	-18.095	-5.425	0.039284	-0.039528	0.864736	0.492	0.1275	-0.2205	0	88	1027	1
2026-02-12	14:48:27.090	5.95	-19.915	-7.84	0.112972	-0.13298	0.979904	0.549	0.1305	-0.2925	0	88	1027	1
2026-02-12	14:48:27.110	12.11	-15.015	-7.315	0.159576	-0.19032	1.086044	0.4965	0.1335	-0.2115	0	88	1027	1
2026-02-12	14:48:27.130	16.485	-7.175	-4.55	0.12688	-0.15982	1.046272	0.4965	0.132	-0.2505	0	88	1027	1
2026-02-12	14:48:27.150	14.56	-5.705	-0.49	0.083204	-0.106628	0.955504	0.4965	0.1305	-0.2505	0	88	1027	1
2026-02-12	14:48:27.170	6.965	-13.23	4.06	0.064172	-0.075396	0.933788	0.4605	0.132	-0.204	0	88	1027	1
2026-02-12	14:48:27.190	0.91	-18.83	7.665	0.07686	-0.05978	0.970632	0.507	0.114	-0.3465	0	88	1027	1
2026-02-12	14:48:27.210	1.925	-15.96	9.66	0.081984	-0.0427	0.998204	0.498	0.1095	-0.327	0	88	1031	1
2026-02-12	14:48:27.230	7.455	-8.295	10.185	0.049044	-0.021228	0.965264	0.477	0.1035	-0.3075	0	88	1031	1
2026-02-12	14:48:27.250	10.92	-3.36	9.52	0.000488	0.00854	0.9211	0.483	0.069	-0.327	0	88	1031	1
2026-02-12	14:48:27.270	9.24	-3.22	8.155	-0.014152	0.014396	0.905972	0.486	0.0555	-0.4305	0	88	1031	1
2026-02-12	14:48:27.290	5.075	-5.005	5.985	0.005856	-0.003172	0.960872	0.543	0.12	-0.447	0	88	1031	1
2026-02-12	14:48:27.310	2.73	-0.665	3.395	0.025864	-0.02806	1.021872	0.414	-0.06	-0.3675	0	88	1031	1
2026-02-12	14:48:27.330	2.73	6.195	0.63	0.018788	-0.028304	1.032608	0.3825	-0.081	-0.468	0	88	1031	1
2026-02-12	14:48:27.350	1.68	12.67	-2.275	0.005368	-0.022448	1.008452	0.39	-0.0495	-0.456	0	88	1031	1
2026-02-12	14:48:27.370	-2.24	13.93	-4.83	0.002928	-0.021228	1.001864	0.5055	0.051	-0.3015	0	88	1031	1
2026-02-12	14:48:27.390	-6.405	10.535	-6.79	0.023912	-0.012444	1.049688	0.5085	0.1095	-0.3585	0	88	1031	1
2026-02-12	14:48:27.410	-6.055	12.67	-9.135	0.04392	-0.007564	1.078724	0.5175	0.069	-0.303	0	89	1030	1
2026-02-12	14:48:27.430	-0.35	16.835	-11.62	0.061488	-0.016592	1.08336	0.507	0.1095	-0.3	0	89	1030	1
2026-02-12	14:48:27.450	6.37	19.215	-13.58	0.073688	-0.030256	1.056032	0.513	0.0675	-0.291	0	89	1030	1
2026-02-12	14:48:27.470	9.975	16.8	-14.805	0.089792	-0.060268	1.016016	0.5385	0.108	-0.375	0	89	1030	1
2026-02-12	14:48:27.490	10.185	11.305	-15.225	0.115168	-0.093696	1.032608	0.492	0.1005	-0.3285	0	89	1030	1
2026-02-12	14:48:27.510	8.295	8.54	-15.54	0.143228	-0.136884	1.108736	0.498	0.063	-0.33	0	89	1030	1
2026-02-12	14:48:27.530	5.18	8.855	-15.68	0.152256	-0.138104	1.121912	0.492	0.084	-0.321	0	89	1030	1
2026-02-12	14:48:27.550	1.26	7	-15.47	0.145668	-0.106384	1.113128	0.507	0.0705	-0.3165	0	89	1030	1
2026-02-12	14:48:27.570	-4.2	4.55	-15.365	0.127856	-0.084424	1.071404	0.519	0.081	-0.3615	0	89	1030	1
2026-02-12	14:48:27.590	-10.605	-1.12	-15.645	0.130296	-0.055388	1.02846	0.5175	0.0975	-0.3465	0	89	1030	1
2026-02-12	14:48:27.610	-13.51	-6.44	-16.975	0.11834	-0.000976	0.987956	0.495	0.093	-0.318	0	90	1032	1
2026-02-12	14:48:27.630	-10.08	-5.495	-20.125	0.10736	0.052948	0.945012	0.492	0.0525	-0.3255	0	90	1032	1
2026-02-12	14:48:27.650	-2.87	-3.92	-24.01	0.108336	0.050996	0.934764	0.405	-0.0525	-0.3765	0	90	1032	1
2026-02-12	14:48:27.670	2.45	-3.92	-27.195	0.123708	0.005612	0.93818	0.498	0.081	-0.318	0	90	1032	1
2026-02-12	14:48:27.690	2.59	-5.985	-28.7	0.132248	-0.035136	0.94794	0.4185	0.024	-0.366	0	90	1032	1
2026-02-12	14:48:27.710	-1.015	-8.225	-28.35	0.15006	-0.061	0.979172	0.5085	0.066	-0.342	0	90	1032	1
2026-02-12	14:48:27.730	-5.04	-7.455	-26.67	0.145424	-0.070516	0.97844	0.465	0.081	-0.3045	0	90	1032	1
2026-02-12	14:48:27.750	-8.82	-7.14	-23.87	0.134932	-0.053192	0.969412	0.5175	0.0915	-0.3345	0	90	1032	1
2026-02-12	14:48:27.770	-12.32	-6.3	-20.86	0.111508	-0.034892	0.933056	0.486	0.0825	-0.333	0	90	1032	1
2026-02-12	14:48:27.790	-14.455	-8.085	-17.815	0.095892	-0.013664	0.91256	0.486	0.087	-0.3405	0	90	1032	1
2026-02-12	14:48:27.810	-13.51	-8.05	-15.61	0.085156	0.01098	0.921832	0.387	-0.042	-0.4485	0	90	1032	1
2026-02-12	14:48:27.830	-9.24	-5.04	-14.315	0.068564	0.020008	0.931348	0.5295	0.1035	-0.4275	0	90	1032	1
2026-02-12	14:48:27.850	-3.64	-1.75	-13.23	0.066856	0.016592	0.94672	0.498	0.108	-0.387	0	90	1032	1
2026-02-12	14:48:27.870	0.7	2.065	-12.145	0.049532	0.013908	0.947696	0.474	0.1095	-0.336	0	90	1032	1
2026-02-12	14:48:27.890	2.38	3.43	-10.5	0.052216	0.008784	0.964776	0.4605	0.0705	-0.381	0	90	1032	1
2026-02-12	14:48:27.910	2.94	4.095	-8.26	0.064172	0.005612	0.998448	0.4365	0.0165	-0.369	0	90	1032	1
2026-02-12	14:48:27.930	4.06	6.16	-5.88	0.07198	0.008296	1.015772	0.465	-0.0255	-0.354	0	90	1032	1
2026-02-12	14:48:27.950	5.355	8.54	-3.745	0.075396	-0.000244	1.032608	0.4845	0.105	-0.348	0	90	1032	1
2026-02-12	14:48:27.970	5.88	10.255	-2.17	0.066856	0.007808	1.023824	0.48	0.06	-0.369	0	90	1032	1
2026-02-12	14:48:27.990	5.495	9.87	-1.225	0.075396	-0.002196	1.038952	0.456	0.042	-0.3705	0	90	1032	1
2026-02-12	14:48:28.010	4.83	9.66	-0.7	0.093452	-0.038308	1.076772	0.456	0.042	-0.3705	0	90	1027	1
2026-02-12	14:48:28.030	4.025	10.325	-0.175	0.109312	-0.079544	1.07848	0.456	0.042	-0.3705	0	90	1027	1
2026-02-12	14:48:28.050	2.765	10.605	0.665	0.123708	-0.093208	1.076284	0.4695	0.0615	-0.3585	0	90	1027	1
2026-02-12	14:48:28.070	1.995	10.675	1.26	0.125416	-0.091988	1.069452	0.4845	0.0825	-0.348	0	90	1027	1
2026-02-12	14:48:28.090	0.875	8.33	2.975	0.133468	-0.078324	1.060912	0.4845	0.0825	-0.348	0	90	1027	1
2026-02-12	14:48:28.110	0.91	4.62	4.935	0.133224	-0.082228	1.066036	0.4845	0.0825	-0.348	0	90	1027	1
2026-02-12	14:48:28.130	2.275	1.89	6.615	0.13542	-0.082228	1.070428	0.4845	0.0825	-0.348	0	90	1027	1
2026-02-12	14:48:28.150	4.2	-0.35	7.7	0.128832	-0.09028	1.072868	0.4845	0.0825	-0.348	0	90	1027	1
2026-02-12	14:48:28.170	4.48	-2.24	8.435	0.095404	-0.093452	1.05408	0.5025	0.0765	-0.36	0	90	1027	1
2026-02-12	14:48:28.190	-0.56	-9.03	9.03	0.08686399	-0.114924	1.058716	0.5085	0.09	-0.381	0	90	1027	1
2026-02-12	14:48:28.210	-4.83	-17.045	9.24	0.103944	-0.142008	1.09556	0.519	0.1185	-0.372	0	89	1028	1
2026-02-12	14:48:28.230	-0.035	-14.245	8.26	0.091988	-0.116388	1.052616	0.5295	0.1155	-0.4005	0	89	1028	1
2026-02-12	14:48:28.250	7.14	-5.32	5.53	0.039772	-0.06734399	0.911584	0.537	0.1035	-0.3945	0	89	1028	1
2026-02-12	14:48:28.270	8.33	-10.15	2.905	0.029524	-0.06222	0.872056	0.5145	0.114	-0.3705	0	89	1028	1
2026-02-12	14:48:28.290	5.915	-19.32	1.26	0.083692	-0.122244	0.95892	0.393	-0.0135	-0.384	0	89	1028	1
2026-02-12	14:48:28.310	6.475	-17.43	0.21	0.126148	-0.171776	1.052616	0.4155	-0.03	-0.3915	0	89	1028	1
2026-02-12	14:48:28.330	9.24	-8.155	0.63	0.12688	-0.167384	1.061156	0.408	-0.042	-0.366	0	89	1028	1
2026-02-12	14:48:28.350	8.505	-3.745	3.08	0.0854	-0.126148	0.974536	0.3915	-0.006	-0.354	0	89	1028	1
2026-02-12	14:48:28.370	1.435	-7.21	6.51	0.05124	-0.08052	0.920368	0.4485	0.096	-0.33	0	89	1028	1
2026-02-12	14:48:28.390	-6.02	-14.98	10.115	0.060024	-0.06734399	0.948916	0.4785	0.114	-0.291	0	89	1028	1
2026-02-12	14:48:28.410	-6.37	-15.19	12.46	0.064416	-0.056364	0.982832	0.4815	0.1035	-0.288	0	88	1031	1
2026-02-12	14:48:28.430	-0.315	-7.84	13.3	0.049044	-0.033916	0.97356	0.5025	0.1095	-0.327	0	88	1031	1
2026-02-12	14:48:28.450	5.635	-1.33	12.705	0.009272	-0.007808	0.91988	0.498	0.108	-0.354	0	88	1031	1
2026-02-12	14:48:28.470	6.58	-1.925	11.69	-0.011224	0.00488	0.899384	0.4845	0.105	-0.321	0	88	1031	1
2026-02-12	14:48:28.490	3.885	-5.215	10.01	-0.003172	-0.005612	0.936716	0.465	0.111	-0.285	0	88	1031	1
2026-02-12	14:48:28.510	2.31	-4.55	7.805	0.02806	-0.026596	1.006744	0.486	0.123	-0.354	0	88	1031	1
2026-02-12	14:48:28.530	3.57	1.19	5.285	0.029768	-0.038552	1.03578	0.48	0.108	-0.309	0	88	1031	1
2026-02-12	14:48:28.550	4.48	7.07	2.555	0.009516	-0.023424	1.02602	0.4845	0.1095	-0.3045	0	88	1031	1
2026-02-12	14:48:28.570	2.135	9.625	-0.455	-0.006832	-0.009028	1.004792	0.498	0.1155	-0.3465	0	88	1031	1
2026-02-12	14:48:28.590	-2.135	5.425	-2.975	0.00732	-0.005856	1.028704	0.4965	0.102	-0.3225	0	88	1031	1
2026-02-12	14:48:28.610	-3.5	4.48	-5.6	0.04392	-0.00488	1.063108	0.4815	0.114	-0.2985	0	88	1029	1
2026-02-12	14:48:28.630	0.735	8.575	-8.54	0.049044	0.00366	1.095072	0.462	0.117	-0.2475	0	88	1029	1
2026-02-12	14:48:28.650	7.49	11.76	-11.445	0.060024	0.00122	1.078724	0.471	0.0405	-0.264	0	88	1029	1
2026-02-12	14:48:28.670	11.585	11.41	-14	0.057828	-0.029524	1.042612	0.462	0.087	-0.3015	0	88	1029	1
2026-02-12	14:48:28.690	11.655	7.21	-15.61	0.084668	-0.076128	1.053592	0.459	0.111	-0.276	0	88	1029	1
2026-02-12	14:48:28.710	9.415	4.97	-16.52	0.125172	-0.136152	1.098488	0.4695	0.123	-0.213	0	88	1029	1
2026-02-12	14:48:28.730	5.775	6.545	-16.835	0.155428	-0.159332	1.128256	0.411	0.117	-0.2805	0	88	1029	1
2026-02-12	14:48:28.750	1.225	6.16	-16.31	0.132736	-0.118584	1.104344	0.447	0.105	-0.2775	0	88	1029	1
2026-02-12	14:48:28.770	-3.675	3.395	-15.925	0.122244	-0.070028	1.081408	0.477	0.093	-0.3495	0	88	1029	1
2026-02-12	14:48:28.790	-8.54	-0.035	-16.1	0.124928	-0.067588	1.059204	0.453	0.102	-0.2625	0	88	1029	1
2026-02-12	14:48:28.810	-11.585	-5.705	-16.695	0.134688	-0.047824	1.043344	0.417	0.1065	-0.198	0	88	1032	1
2026-02-12	14:48:28.830	-10.01	-4.9	-18.76	0.122244	-0.016592	0.991616	0.4275	0.1095	-0.207	0	88	1032	1
2026-02-12	14:48:28.850	-4.9	-2.73	-21.84	0.097112	0.028792	0.932812	0.4065	0.111	-0.189	0	88	1032	1
2026-02-12	14:48:28.870	0.91	-3.115	-25.095	0.096868	0.037088	0.924028	0.408	0.111	-0.2445	0	88	1032	1
2026-02-12	14:48:28.890	4.69	-3.395	-27.405	0.114924	-0.012688	0.93818	0.444	0.1035	-0.249	0	88	1032	1
2026-02-12	14:48:28.910	5.145	-5.32	-27.51	0.138348	-0.055876	0.962336	0.4365	0.09	-0.2685	0	88	1032	1
2026-02-12	14:48:28.930	3.08	-4.655	-25.935	0.143472	-0.07564	0.979904	0.405	0.105	-0.1965	0	88	1032	1
2026-02-12	14:48:28.950	-0.175	-2.975	-22.925	0.12444	-0.063684	0.971852	0.399	0.105	-0.192	0	88	1032	1
2026-02-12	14:48:28.970	-4.445	-3.57	-19.005	0.100772	-0.052216	0.942572	0.4245	0.093	-0.2295	0	88	1032	1
2026-02-12	14:48:28.990	-8.33	-3.955	-15.33	0.078812	-0.026352	0.927688	0.4305	0.0885	-0.258	0	88	1032	1
2026-02-12	14:48:29.010	-9.905	-3.78	-12.285	0.063684	-0.008784	0.926956	0.4155	0.0945	-0.267	0	88	1034	1
2026-02-12	14:48:29.030	-8.26	-1.68	-10.01	0.0488	0.00854	0.922808	0.4215	0.087	-0.288	0	88	1034	1
2026-02-12	14:48:29.050	-4.9	1.855	-8.365	0.038308	0.012688	0.914756	0.417	0.0945	-0.27	0	88	1034	1
2026-02-12	14:48:29.070	-1.89	5.32	-6.825	0.022448	0.009516	0.915	0.396	0.099	-0.2355	0	88	1034	1
2026-02-12	14:48:29.090	-0.455	7.945	-4.935	0.027816	0.003172	0.935008	0.396	0.099	-0.2355	0	88	1034	1
2026-02-12	14:48:29.110	-0.28	9.66	-2.275	0.036844	-0.002684	0.966972	0.4005	0.0915	-0.246	0	88	1034	1
2026-02-12	14:48:29.130	-0.35	10.71	-0.665	0.040016	-0.002196	0.987712	0.4065	0.0855	-0.2565	0	88	1034	1
2026-02-12	14:48:29.150	-0.315	13.615	2.66	0.040016	-0.004636	1.017968	0.3945	0.09	-0.2295	0	88	1034	1
2026-02-12	14:48:29.170	-0.63	15.435	6.09	0.042212	-0.016836	1.029924	0.393	0.096	-0.225	0	88	1034	1
2026-02-12	14:48:29.190	-1.26	15.96	8.925	0.044652	-0.027328	1.0431	0.396	0.093	-0.2265	0	88	1034	1
2026-02-12	14:48:29.210	-1.47	16.205	11.025	0.058316	-0.049776	1.06506	0.39	0.0885	-0.207	0	88	1028	1
2026-02-12	14:48:29.230	-0.945	16.555	11.515	0.070272	-0.082716	1.083116	0.4185	0.084	-0.258	0	88	1028	1
2026-02-12	14:48:29.250	-0.07	16.31	11.69	0.089548	-0.121268	1.083604	0.432	0.0855	-0.255	0	88	1028	1
2026-02-12	14:48:29.270	0.875	14.63	11.935	0.098088	-0.127124	1.079456	0.435	0.09	-0.27	0	88	1028	1
2026-02-12	14:48:29.290	2.625	12.775	12.11	0.101504	-0.114924	1.0736	0.45	0.087	-0.315	0	88	1028	1
2026-02-12	14:48:29.310	4.725	8.715	12.495	0.106384	-0.122732	1.081896	0.423	0.087	-0.2775	0	88	1028	1
2026-02-12	14:48:29.330	6.3	3.92	13.02	0.11956	-0.1342	1.086044	0.42	0.0915	-0.2715	0	88	1028	1
2026-02-12	14:48:29.350	6.475	1.12	13.405	0.115656	-0.144692	1.092876	0.444	0.084	-0.2865	0	88	1028	1
2026-02-12	14:48:29.370	3.78	-2.345	13.51	0.097356	-0.145424	1.079944	0.4515	0.084	-0.2685	0	88	1028	1
2026-02-12	14:48:29.390	-2.905	-9.905	13.65	0.081984	-0.159088	1.076528	0.432	0.087	-0.228	0	88	1028	1
2026-02-12	14:48:29.410	-6.72	-15.47	13.195	0.076616	-0.144936	1.072868	0.408	0.0885	-0.207	0	88	1028	1
2026-02-12	14:48:29.430	-1.645	-11.62	11.2	0.040748	-0.093696	0.992592	0.4245	0.0885	-0.2265	0	88	1028	1
2026-02-12	14:48:29.450	4.55	-8.19	8.295	0.005368	-0.074908	0.891576	0.4455	0.0825	-0.27	0	88	1028	1
2026-02-12	14:48:29.470	6.58	-15.12	6.3	0.01708	-0.107848	0.888892	0.45	0.0825	-0.2865	0	88	1028	1
2026-02-12	14:48:29.490	6.265	-21.21	5.81	0.056608	-0.162748	0.979416	0.45	0.0825	-0.2865	0	88	1028	1
2026-02-12	14:48:29.510	6.51	-20.09	7.035	0.083448	-0.194224	1.049932	0.45	0.0825	-0.2865	0	88	1028	1
2026-02-12	14:48:29.530	7.105	-17.15	10.395	0.073932	-0.178608	1.038708	0.45	0.0825	-0.2865	0	88	1028	1
2026-02-12	14:48:29.550	6.125	-16.065	14.875	0.03904	-0.12688	0.968192	0.447	0.081	-0.312	0	88	1028	1
2026-02-12	14:48:29.570	2.66	-18.41	18.97	0.005612	-0.074908	0.9028	0.4665	0.0825	-0.264	0	88	1028	1
2026-02-12	14:48:29.590	-0.42	-24.255	22.015	0.001464	-0.045384	0.908412	0.4365	0.09	-0.264	0	88	1028	1
2026-02-12	14:48:29.610	0.77	-24.57	22.995	0.006344	-0.03416	0.950624	0.4005	0.087	-0.2835	0	88	1030	1
2026-02-12	14:48:29.630	6.685	-17.955	22.26	-0.00488	-0.0183	0.96746	0.4155	0.0945	-0.234	0	88	1030	1
2026-02-12	14:48:29.650	12.74	-10.22	20.405	-0.027816	-0.00122	0.947208	0.438	0.0885	-0.264	0	88	1030	1
2026-02-12	14:48:29.670	13.825	-6.195	18.235	-0.04392	0.006832	0.93818	0.444	0.0795	-0.2625	0	88	1030	1
2026-02-12	14:48:29.690	9.87	-6.125	16.135	-0.03416	-0.004392	0.9638	0.414	0.0945	-0.2205	0	88	1030	1
2026-02-12	14:48:29.710	4.935	-4.55	14.245	-0.010004	-0.027328	1.026996	0.4395	0.0975	-0.3285	0	88	1030	1
2026-02-12	14:48:29.730	1.785	1.505	12.39	0.006344	-0.045384	1.07238	0.423	0.0915	-0.2925	0	88	1030	1
2026-02-12	14:48:29.750	-0.35	7.77	10.85	0.010492	-0.047092	1.052128	0.4215	0.096	-0.306	0	88	1030	1
2026-02-12	14:48:29.770	-3.22	11.76	9.275	0.0061	-0.032696	1.033096	0.474	0.093	-0.3255	0	88	1030	1
2026-02-12	14:48:29.790	-5.845	10.71	7.77	0.012932	-0.002928	1.033828	0.477	0.0765	-0.312	0	88	1030	1
2026-02-12	14:48:29.810	-5.075	9.625	5.53	0.032208	-0.003172	1.05896	0.483	0.0705	-0.318	0	89	1029	1
2026-02-12	14:48:29.830	0.21	11.41	2.485	0.060024	-0.035868	1.074088	0.4515	0.0915	-0.2445	0	89	1029	1
2026-02-12	14:48:29.850	7.42	14.49	-0.91	0.075396	-0.070272	1.052128	0.441	0.102	-0.2655	0	89	1029	1
2026-02-12	14:48:29.870	11.76	14.735	-3.885	0.088328	-0.112728	1.027972	0.462	0.0825	-0.2805	0	89	1029	1
2026-02-12	14:48:29.890	9.695	11.62	-5.845	0.126148	-0.178852	1.062864	0.462	0.0825	-0.2925	0	89	1029	1
2026-02-12	14:48:29.910	2.485	8.68	-6.65	0.148596	-0.191784	1.112396	0.468	0.075	-0.306	0	89	1029	1
2026-02-12	14:48:29.930	-5.32	4.445	-6.37	0.149816	-0.15738	1.145824	0.486	0.09	-0.2565	0	89	1029	1
2026-02-12	14:48:29.950	-11.13	2.45	-6.615	0.126392	-0.116876	1.115568	0.4605	0.0855	-0.273	0	89	1029	1
2026-02-12	14:48:29.970	-15.855	-0.525	-7.875	0.100528	-0.075884	1.058716	0.477	0.0735	-0.2925	0	89	1029	1
2026-02-12	14:48:29.990	-17.955	-5.04	-10.08	0.088816	-0.039528	1.011868	0.474	0.0945	-0.2895	0	89	1029	1
2026-02-12	14:48:30.010	-15.225	-5.985	-13.16	0.08052	-0.002684	0.96014	0.441	0.033	-0.3135	0	90	1032	1
2026-02-12	14:48:30.030	-9.87	-5.215	-16.38	0.08662	0.015128	0.934276	0.4875	0.09	-0.3195	0	90	1032	1
2026-02-12	14:48:30.050	-3.99	-5.565	-18.55	0.11224	-0.013908	0.938668	0.4635	0.099	-0.279	0	90	1032	1
2026-02-12	14:48:30.070	-0.245	-6.65	-18.725	0.128344	-0.053924	0.960384	0.4725	0.0945	-0.231	0	90	1032	1
2026-02-12	14:48:30.090	-0.07	-7.525	-17.045	0.137128	-0.088572	0.97356	0.468	0.093	-0.3105	0	90	1032	1
2026-02-12	14:48:30.110	-2.17	-8.68	-13.825	0.131028	-0.09394	0.971608	0.4725	0.093	-0.303	0	90	1032	1
2026-02-12	14:48:30.130	-4.655	-9.1	-10.15	0.107848	-0.0732	0.962092	0.4665	0.0855	-0.327	0	90	1032	1
2026-02-12	14:48:30.150	-6.23	-8.365	-7.035	0.087352	-0.061732	0.942572	0.4665	0.0855	-0.327	0	90	1032	1
2026-02-12	14:48:30.170	-6.3	-8.61	-4.725	0.067588	-0.028792	0.930616	0.4695	0.0945	-0.315	0	90	1032	1
2026-02-12	14:48:30.190	-5.495	-8.015	-4.06	0.061488	-0.017324	0.9272	0.474	0.105	-0.3045	0	90	1032	1
2026-02-12	14:48:30.210	-2.31	-5.075	-3.5	0.05124	0.000976	0.923296	0.4755	0.0825	-0.3195	0	91	1033	1
2026-02-12	14:48:30.230	2.065	-1.855	-3.465	0.045384	0.006588	0.931104	0.465	0.081	-0.3	0	91	1033	1
2026-02-12	14:48:30.250	6.02	2.38	-3.57	0.036356	0.003416	0.943304	0.4665	0.102	-0.291	0	91	1033	1
2026-02-12	14:48:30.270	8.12	6.3	-3.36	0.036356	-0.000244	0.958676	0.474	0.102	-0.3045	0	91	1033	1
2026-02-12	14:48:30.290	8.505	8.75	-2.24	0.039772	-0.003904	0.98698	0.4605	0.0975	-0.255	0	91	1033	1
2026-02-12	14:48:30.310	7.945	11.06	-0.21	0.051484	-0.023424	1.009428	0.4725	0.0945	-0.2835	0	91	1033	1
2026-02-12	14:48:30.330	6.685	12.88	2.38	0.055632	-0.03416	1.02114	0.483	0.0885	-0.324	0	91	1033	1
2026-02-12	14:48:30.350	5.635	14.385	4.795	0.061488	-0.03782	1.02968	0.4785	0.087	-0.3165	0	91	1033	1
2026-02-12	14:48:30.370	5.39	15.365	6.44	0.06588	-0.044896	1.034316	0.477	0.0945	-0.288	0	91	1033	1
2026-02-12	14:48:30.390	5.635	15.225	7.35	0.080032	-0.070516	1.056764	0.4575	0.0945	-0.2295	0	91	1033	1
2026-02-12	14:48:30.410	5.74	15.155	7.7	0.090524	-0.116388	1.075308	0.4635	0.093	-0.2565	0	91	1028	1
2026-02-12	14:48:30.430	5.775	13.79	8.015	0.10614	-0.142984	1.07482	0.4905	0.093	-0.306	0	91	1028	1
2026-02-12	14:48:30.450	5.88	12.565	8.505	0.110776	-0.127368	1.07238	0.513	0.084	-0.3585	0	91	1028	1
2026-02-12	14:48:30.470	6.825	9.835	9.415	0.11346	-0.11346	1.067988	0.5145	0.0885	-0.3405	0	91	1028	1
2026-02-12	14:48:30.490	8.75	5.18	10.605	0.117608	-0.120536	1.080676	0.492	0.1005	-0.2835	0	91	1028	1
2026-02-12	14:48:30.510	10.64	2.345	11.69	0.116144	-0.126636	1.097512	0.486	0.1005	-0.291	0	91	1028	1
2026-02-12	14:48:30.530	10.745	-0.105	12.6	0.112972	-0.14152	1.10166	0.4995	0.1005	-0.318	0	91	1028	1
2026-02-12	14:48:30.550	7.105	-3.99	13.545	0.10492	-0.170312	1.101904	0.5055	0.0945	-0.333	0	91	1028	1
2026-02-12	14:48:30.570	-0.035	-10.465	14.49	0.094428	-0.180072	1.087752	0.492	0.0945	-0.2805	0	91	1028	1
2026-02-12	14:48:30.590	-2.31	-14.525	14.245	0.075884	-0.138592	1.043588	0.4845	0.093	-0.2445	0	91	1028	1
2026-02-12	14:48:30.610	1.435	-9.94	11.935	0.039772	-0.10126	0.944036	0.4785	0.096	-0.243	0	91	1030	1
2026-02-12	14:48:30.630	5.46	-10.57	9.17	0.02562	-0.096868	0.90036	0.4905	0.0945	-0.2775	0	91	1030	1
2026-02-12	14:48:30.650	7.63	-15.05	7.14	0.042212	-0.126636	0.927932	0.519	0.0885	-0.3315	0	91	1030	1
2026-02-12	14:48:30.670	7.77	-16.625	6.685	0.066612	-0.172508	0.985028	0.5055	0.1005	-0.312	0	91	1030	1
2026-02-12	14:48:30.690	6.58	-16.38	8.575	0.083692	-0.180072	1.018944	0.477	0.0975	-0.279	0	91	1030	1
2026-02-12	14:48:30.710	4.375	-14.56	12.495	0.075884	-0.152744	0.99552	0.483	0.09	-0.2835	0	91	1030	1
2026-02-12	14:48:30.730	1.12	-14.07	17.255	0.040748	-0.092232	0.937448	0.504	0.0945	-0.3105	0	91	1030	1
2026-02-12	14:48:30.750	-2.45	-17.08	21.35	0.02074	-0.041968	0.901336	0.5085	0.096	-0.321	0	91	1030	1
2026-02-12	14:48:30.770	-3.64	-20.895	24.115	0.011468	-0.011224	0.913048	0.5055	0.1005	-0.3015	0	91	1030	1
2026-02-12	14:48:30.790	-0.28	-19.74	24.71	0.006344	-0.002684	0.937204	0.498	0.099	-0.2925	0	91	1030	1
2026-02-12	14:48:30.810	5.915	-13.79	23.135	-0.010492	0.011224	0.945988	0.4905	0.0945	-0.309	0	91	1031	1
2026-02-12	14:48:30.830	10.78	-8.085	19.845	-0.036356	0.027572	0.921344	0.498	0.0975	-0.324	0	91	1031	1
2026-02-12	14:48:30.850	11.13	-5.88	15.61	-0.042212	0.025376	0.93086	0.507	0.0945	-0.324	0	91	1031	1
2026-02-12	14:48:30.870	8.4	-5.39	11.305	-0.013664	-0.001952	0.978196	0.5085	0.09	-0.3375	0	91	1031	1
2026-02-12	14:48:30.890	5.705	-2.205	7.455	0.015372	-0.025864	1.026752	0.5085	0.09	-0.3525	0	91	1031	1
2026-02-12	14:48:30.910	3.885	3.15	4.13	0.016104	-0.03172	1.053592	0.5085	0.09	-0.3525	0	91	1031	1
2026-02-12	14:48:30.930	1.715	8.155	1.4	0.021716	-0.03294	1.053104	0.5085	0.09	-0.3525	0	91	1031	1
2026-02-12	14:48:30.950	-0.385	9.45	-0.805	0.014396	0.002684	1.0492	0.5115	0.0975	-0.312	0	91	1031	1
2026-02-12	14:48:30.970	-0.245	8.47	-2.94	0.019032	0.027572	1.055544	0.4905	0.09	-0.2985	0	91	1031	1
2026-02-12	14:48:30.990	3.395	8.855	-5.355	0.052216	-0.002928	1.086044	0.474	0.0945	-0.2355	0	91	1031	1
2026-02-12	14:48:31.010	9.415	10.15	-7.455	0.0854	-0.049288	1.097512	0.507	0.1005	-0.318	0	91	1028	1
2026-02-12	14:48:31.030	14.525	11.2	-8.82	0.09394	-0.083936	1.084824	0.504	0.087	-0.2835	0	91	1028	1
2026-02-12	14:48:31.050	14.945	10.64	-9.415	0.11102	-0.14152	1.098	0.501	0.081	-0.252	0	91	1028	1
2026-02-12	14:48:31.070	9.415	8.61	-9.17	0.142252	-0.157624	1.134112	0.5055	0.0885	-0.3285	0	91	1028	1
2026-02-12	14:48:31.090	1.225	4.83	-8.015	0.15372	-0.136884	1.147288	0.498	0.0825	-0.3045	0	91	1028	1
2026-02-12	14:48:31.110	-5.39	2.24	-7.14	0.15372	-0.105164	1.146312	0.5055	0.0735	-0.3075	0	91	1028	1
2026-02-12	14:48:31.130	-9.87	1.12	-7.49	0.143716	-0.083936	1.10166	0.5505	0.0795	-0.324	0	91	1028	1
2026-02-12	14:48:31.150	-13.44	-2.1	-8.995	0.134932	-0.048556	1.040416	0.5145	0.069	-0.33	0	91	1028	1
2026-02-12	14:48:31.170	-14.63	-4.935	-11.935	0.129076	0.00244	0.959164	0.5295	0.0795	-0.33	0	91	1028	1
2026-02-12	14:48:31.190	-11.41	-6.545	-16.52	0.111752	0.04758	0.922808	0.504	0.093	-0.318	0	91	1028	1
2026-02-12	14:48:31.210	-3.675	-5.67	-21.91	0.113216	0.068564	0.913536	0.504	0.093	-0.318	0	92	1033	1
2026-02-12	14:48:31.230	4.9	-3.745	-26.565	0.129808	0.036844	0.922808	0.4905	0.093	-0.2985	0	92	1033	1
2026-02-12	14:48:31.250	7.875	-3.36	-27.965	0.13908	0.016348	0.930128	0.477	0.093	-0.2805	0	92	1033	1
2026-02-12	14:48:31.270	9.835	-4.13	-28.525	0.145668	-0.013908	0.934032	0.4905	0.084	-0.2925	0	92	1033	1
2026-02-12	14:48:31.290	7.245	-6.3	-26.425	0.14396	-0.033184	0.94306	0.507	0.078	-0.366	0	92	1033	1
2026-02-12	14:48:31.310	2.765	-7.175	-22.855	0.141276	-0.033916	0.959164	0.4875	0.084	-0.333	0	92	1033	1
2026-02-12	14:48:31.330	-1.645	-7.315	-18.375	0.11956	-0.011712	0.957212	0.4785	0.0885	-0.2685	0	92	1033	1
2026-02-12	14:48:31.350	-4.865	-6.3	-13.895	0.097844	0.009516	0.938668	0.4755	0.084	-0.27	0	92	1033	1
2026-02-12	14:48:31.370	-6.37	-5.495	-10.15	0.069296	0.035136	0.919636	0.4605	0.084	-0.2505	0	92	1033	1
2026-02-12	14:48:31.390	-6.44	-4.41	-7.49	0.053924	0.050264	0.914512	0.483	0.075	-0.294	0	92	1033	1
2026-02-12	14:48:31.410	-5.355	-1.995	-5.985	0.047824	0.052948	0.916952	0.525	0.0405	-0.3615	0	94	1032	1
2026-02-12	14:48:31.430	-4.025	1.225	-5.005	0.051484	0.029036	0.948428	0.525	0.0405	-0.351	0	94	1032	1
2026-02-12	14:48:31.450	-2.905	5.74	-4.025	0.05246	0.020984	0.96868	0.4995	0.0705	-0.309	0	94	1032	1
2026-02-12	14:48:31.470	-2.17	8.925	-2.695	0.051484	0.016104	0.98576	0.495	0.081	-0.3195	0	94	1032	1
2026-02-12	14:48:31.490	-2.24	11.655	-1.365	0.05246	0.010736	0.999668	0.492	0.0825	-0.3195	0	94	1032	1
2026-02-12	14:48:31.510	-2.695	12.6	0.105	0.065392	0.00122	1.016748	0.5025	0.0705	-0.357	0	94	1032	1
2026-02-12	14:48:31.530	-2.38	13.055	1.68	0.085644	-0.021228	1.036756	0.4935	0.078	-0.3555	0	94	1032	1
2026-02-12	14:48:31.550	-0.56	14.35	3.01	0.10004	-0.036844	1.049932	0.4845	0.0975	-0.2805	0	94	1032	1
2026-02-12	14:48:31.570	2.065	15.61	3.99	0.118096	-0.05978	1.068964	0.495	0.093	-0.258	0	94	1032	1
2026-02-12	14:48:31.590	3.745	15.015	4.76	0.124684	-0.088084	1.0675	0.483	0.09	-0.2475	0	94	1032	1
2026-02-12	14:48:31.610	4.06	11.235	5.705	0.1403	-0.09272	1.057252	0.4905	0.0975	-0.2715	0	95	1026	1
2026-02-12	14:48:31.630	4.795	7.665	6.615	0.14518	-0.086132	1.054324	0.5085	0.093	-0.315	0	95	1026	1
2026-02-12	14:48:31.650	7	4.305	7.21	0.14152	-0.085888	1.038708	0.522	0.084	-0.3285	0	95	1026	1
2026-02-12	14:48:31.670	9.8	2.065	7.35	0.137616	-0.07686	1.038708	0.5265	0.081	-0.3165	0	95	1026	1
2026-02-12	14:48:31.690	10.745	0.7	7.07	0.129564	-0.09394	1.048956	0.5205	0.078	-0.282	0	95	1026	1
2026-02-12	14:48:31.710	7.245	-2.17	7.315	0.13054	-0.130784	1.07482	0.5055	0.0885	-0.255	0	95	1026	1
2026-02-12	14:48:31.730	-3.36	-7.665	8.925	0.13176	-0.178608	1.080432	0.504	0.093	-0.282	0	95	1026	1
2026-02-12	14:48:31.750	-14.35	-16.1	10.78	0.11956	-0.149328	1.08702	0.525	0.0855	-0.318	0	95	1026	1
2026-02-12	14:48:31.770	-13.86	-13.895	10.36	0.082228	-0.089792	1.027484	0.5235	0.09	-0.3165	0	95	1026	1
2026-02-12	14:48:31.790	-7.28	-5.74	7.385	0.013176	-0.038308	0.891088	0.5055	0.0885	-0.285	0	95	1026	1
2026-02-12	14:48:31.810	-4.865	-12.005	4.305	0.010736	-0.065392	0.875228	0.486	0.087	-0.246	0	96	1027	1
2026-02-12	14:48:31.830	-5.915	-17.29	1.82	0.057584	-0.143716	0.972828	0.501	0.1005	-0.276	0	96	1027	1
2026-02-12	14:48:31.850	-5.46	-17.745	1.505	0.10004	-0.192272	1.058716	0.519	0.1035	-0.333	0	96	1027	1
2026-02-12	14:48:31.870	-3.08	-11.9	3.15	0.093452	-0.184464	1.04676	0.513	0.1005	-0.3165	0	96	1027	1
2026-02-12	14:48:31.890	-1.96	-7.7	6.545	0.060268	-0.136396	0.99918	0.507	0.099	-0.288	0	96	1027	1
2026-02-12	14:48:31.910	-4.62	-9.275	10.57	0.028792	-0.09076799	0.930616	0.498	0.1005	-0.2745	0	96	1027	1
2026-02-12	14:48:31.930	-7.28	-15.89	14.49	0.026596	-0.077836	0.933056	0.5055	0.1005	-0.297	0	96	1027	1
2026-02-12	14:48:31.950	-4.83	-16.695	16.415	0.031476	-0.063196	0.975512	0.522	0.0915	-0.351	0	96	1027	1
2026-02-12	14:48:31.970	3.22	-9.52	16.205	0.024888	-0.044408	0.985028	0.498	0.1005	-0.2955	0	96	1027	1
2026-02-12	14:48:31.990	11.725	-2.905	14.84	-0.00488	-0.01464	0.96014	0.471	0.1125	-0.2355	0	96	1027	1
2026-02-12	14:48:32.010	14.945	0.315	12.88	-0.019276	-0.003904	0.952088	0.495	0.1065	-0.291	0	96	1027	1
2026-02-12	14:48:32.030	13.125	-0.875	10.885	-0.009028	-0.014396	0.984296	0.519	0.0945	-0.3285	0	96	1027	1
2026-02-12	14:48:32.050	10.22	-0.28	8.61	0.01586	-0.033672	1.053348	0.5295	0.0855	-0.3435	0	96	1027	1
2026-02-12	14:48:32.070	8.82	6.825	5.81	0.028304	-0.0549	1.083604	0.5295	0.0885	-0.3435	0	96	1027	1
2026-02-12	14:48:32.090	7.21	11.13	3.15	0.02196	-0.0427	1.052128	0.513	0.0975	-0.276	0	96	1027	1
2026-02-12	14:48:32.110	4.235	13.44	0.315	0.013908	-0.0183	1.01382	0.4995	0.102	-0.258	0	96	1027	1
2026-02-12	14:48:32.130	1.89	11.235	-2.73	0.021472	0.008784	1.027728	0.5085	0.0975	-0.2715	0	96	1027	1
2026-02-12	14:48:32.150	3.675	10.99	-6.65	0.040748	0.005368	1.067988	0.513	0.096	-0.2805	0	96	1027	1
2026-02-12	14:48:32.170	9.485	14	-10.815	0.0732	-0.02684	1.05652	0.507	0.1005	-0.2955	0	96	1027	1
2026-02-12	14:48:32.190	15.015	15.47	-13.895	0.094428	-0.05978	1.042856	0.5175	0.093	-0.312	0	96	1027	1
2026-02-12	14:48:32.210	15.82	13.93	-15.26	0.108092	-0.115656	1.049688	0.534	0.0825	-0.339	0	96	1029	1
2026-02-12	14:48:32.230	10.29	9.975	-14.63	0.1525	-0.167872	1.08702	0.5445	0.0795	-0.3615	0	96	1029	1
2026-02-12	14:48:32.250	1.015	5.53	-12.635	0.159088	-0.164212	1.120692	0.5445	0.075	-0.3735	0	96	1029	1
2026-02-12	14:48:32.270	-7.455	1.365	-10.15	0.157136	-0.122488	1.120936	0.5445	0.075	-0.3735	0	96	1029	1
2026-02-12	14:48:32.290	-12.32	-1.225	-8.68	0.138836	-0.088816	1.084092	0.5505	0.09	-0.414	0	96	1029	1
2026-02-12	14:48:32.310	-13.79	-2.065	-8.645	0.128832	-0.06954	1.05286	0.5505	0.09	-0.414	0	96	1029	1
2026-02-12	14:48:32.330	-15.225	-4.55	-9.975	0.108336	-0.023912	0.979172	0.5505	0.09	-0.414	0	96	1029	1
2026-02-12	14:48:32.350	-13.825	-8.54	-13.125	0.108336	0.018788	0.94916	0.5505	0.09	-0.414	0	96	1029	1
2026-02-12	14:48:32.370	-8.19	-8.89	-17.675	0.11224	0.033428	0.940376	0.537	0.093	-0.3765	0	96	1029	1
2026-02-12	14:48:32.390	-0.14	-7.21	-22.68	0.127124	0.012444	0.947208	0.5295	0.096	-0.3825	0	96	1029	1
2026-02-12	14:48:32.410	5.6	-4.935	-26.495	0.136396	-0.018056	0.952576	0.534	0.0885	-0.4125	0	96	1034	1
2026-02-12	14:48:32.430	6.16	-5.425	-28	0.139324	-0.039772	0.950624	0.525	0.087	-0.414	0	96	1034	1
2026-02-12	14:48:32.450	2.695	-7.42	-27.265	0.15006	-0.061	0.965752	0.5145	0.09	-0.3915	0	96	1034	1
2026-02-12	14:48:32.470	-2.03	-8.295	-24.465	0.152744	-0.071736	0.975268	0.5235	0.0885	-0.393	0	96	1034	1
2026-02-12	14:48:32.490	-5.495	-8.05	-20.72	0.129564	-0.055632	0.957944	0.51	0.0555	-0.429	0	96	1034	1
2026-02-12	14:48:32.510	-6.685	-6.195	-17.115	0.093696	-0.011468	0.916708	0.4425	-0.0405	-0.4335	0	96	1034	1
2026-02-12	14:48:32.530	-5.6	-5.705	-14.63	0.060268	0.030256	0.886208	0.3975	-0.093	-0.414	0	96	1034	1
2026-02-12	14:48:32.550	-3.08	-5.46	-13.615	0.045384	0.044164	0.898896	0.4155	-0.06	-0.408	0	96	1034	1
2026-02-12	14:48:32.570	0.7	-1.925	-13.16	0.047336	0.036356	0.92598	0.4545	-0.018	-0.414	0	96	1034	1
2026-02-12	14:48:32.590	4.795	2.87	-13.02	0.054656	0.01464	0.953796	0.4395	-0.021	-0.42	0	96	1034	1
2026-02-12	14:48:32.610	7	7.805	-11.97	0.05246	0.01098	0.95526	0.4515	0.0225	-0.4005	0	96	1031	1
2026-02-12	14:48:32.630	5.985	10.185	-9.8	0.054412	0.004148	0.9699	0.5085	0.0825	-0.36	0	96	1031	1
2026-02-12	14:48:32.650	3.08	10.605	-6.405	0.072956	-0.011224	1.006744	0.504	0.09	-0.3525	0	96	1031	1
2026-02-12	14:48:32.670	0.91	10.85	-2.59	0.086132	-0.013664	1.028216	0.492	0.096	-0.3525	0	96	1031	1
2026-02-12	14:48:32.690	0.525	12.915	0.77	0.097844	-0.022936	1.042856	0.498	0.09	-0.357	0	96	1031	1
2026-02-12	14:48:32.710	1.365	14.21	3.675	0.101748	-0.027572	1.0431	0.504	0.093	-0.384	0	96	1031	1
2026-02-12	14:48:32.730	1.96	13.79	5.565	0.108092	-0.055144	1.06628	0.474	0.0255	-0.3945	0	96	1031	1
2026-02-12	14:48:32.750	1.715	12.74	6.93	0.117608	-0.086132	1.068232	0.4815	0.0225	-0.414	0	96	1031	1
2026-02-12	14:48:32.770	1.47	9.24	8.12	0.128344	-0.089548	1.086776	0.5175	0.09	-0.4185	0	96	1031	1
2026-02-12	14:48:32.790	2.1	8.575	8.96	0.138592	-0.10248	1.097268	0.5025	0.0915	-0.3765	0	96	1031	1
2026-02-12	14:48:32.810	3.71	5.95	9.94	0.136884	-0.101016	1.08702	0.5145	0.087	-0.3915	0	95	1026	1
2026-02-12	14:48:32.830	5.775	2.485	10.5	0.115412	-0.081008	1.074576	0.5385	0.063	-0.42	0	95	1026	1
2026-02-12	14:48:32.850	6.825	1.015	10.43	0.11102	-0.0793	1.073844	0.5355	0.0495	-0.3855	0	95	1026	1
2026-02-12	14:48:32.870	5.04	-4.235	10.395	0.091012	-0.095404	1.081652	0.516	0.072	-0.345	0	95	1026	1
2026-02-12	14:48:32.890	-1.89	-11.235	10.885	0.099064	-0.13542	1.112884	0.5115	0.0855	-0.342	0	95	1026	1
2026-02-12	14:48:32.910	-7.525	-16.905	11.62	0.110532	-0.156404	1.130208	0.519	0.0855	-0.39	0	95	1026	1
2026-02-12	14:48:32.930	-3.5	-13.545	11.13	0.080032	-0.120292	1.055056	0.5115	0.0825	-0.4095	0	95	1026	1
2026-02-12	14:48:32.950	2.485	-4.585	8.435	0.01098	-0.053436	0.8784	0.5055	0.087	-0.3705	0	95	1026	1
2026-02-12	14:48:32.970	2.975	-12.145	5.95	0.01586	-0.06588	0.848144	0.507	0.1005	-0.36	0	95	1026	1
2026-02-12	14:48:32.990	2.415	-21.455	4.69	0.079788	-0.142252	0.94672	0.5025	0.1005	-0.3735	0	95	1026	1
2026-02-12	14:48:33.010	6.09	-18.76	4.515	0.13176	-0.203008	1.05896	0.507	0.0945	-0.405	0	95	1030	1
2026-02-12	14:48:33.030	10.57	-8.96	6.16	0.124928	-0.208376	1.040172	0.5145	0.087	-0.432	0	95	1030	1
2026-02-12	14:48:33.050	9.52	-5.74	9.94	0.081984	-0.153964	0.971608	0.5055	0.087	-0.405	0	95	1030	1
2026-02-12	14:48:33.070	1.61	-10.605	14.21	0.049288	-0.097844	0.91744	0.489	0.0735	-0.3645	0	95	1030	1
2026-02-12	14:48:33.090	-6.335	-17.85	17.64	0.053436	-0.073444	0.938424	0.4905	0.0825	-0.3435	0	95	1030	1
2026-02-12	14:48:33.110	-6.895	-18.48	18.935	0.061488	-0.05246	0.975512	0.498	0.1005	-0.336	0	95	1030	1
2026-02-12	14:48:33.130	-0.84	-10.5	18.025	0.040504	-0.02074	0.96136	0.501	0.096	-0.3555	0	95	1030	1
2026-02-12	14:48:33.150	5.145	-3.255	15.505	-0.005124	0.011712	0.913292	0.4965	0.1035	-0.3405	0	95	1030	1
2026-02-12	14:48:33.170	6.09	-3.08	12.705	-0.028792	0.026352	0.896456	0.4725	0.1095	-0.2775	0	95	1030	1
2026-02-12	14:48:33.190	3.815	-3.815	9.065	-0.019032	0.013664	0.945988	0.4635	0.1125	-0.2535	0	95	1030	1
2026-02-12	14:48:33.210	2.66	-1.855	5.18	0.003172	-0.011468	1.007476	0.4785	0.111	-0.276	0	95	1029	1
2026-02-12	14:48:33.230	3.395	4.69	1.225	0.012932	-0.036356	1.032608	0.4815	0.1035	-0.27	0	95	1029	1
2026-02-12	14:48:33.250	3.15	10.57	-1.96	0.00732	-0.039772	1.03334	0.483	0.1005	-0.2835	0	95	1029	1
2026-02-12	14:48:33.270	0.49	12.565	-4.2	-0.00366	-0.0366	1.005524	0.4875	0.1035	-0.315	0	95	1029	1
2026-02-12	14:48:33.290	-2.38	8.96	-5.565	0.012444	-0.020496	1.03212	0.48	0.1065	-0.2985	0	95	1029	1
2026-02-12	14:48:33.310	-1.19	9.695	-7.385	0.036356	-0.011224	1.061888	0.477	0.1095	-0.285	0	95	1029	1
2026-02-12	14:48:33.330	4.69	12.985	-9.345	0.051972	-0.03294	1.070916	0.477	0.1095	-0.285	0	95	1029	1
2026-02-12	14:48:33.350	11.375	14.175	-10.78	0.064904	-0.064416	1.0675	0.459	0.1155	-0.276	0	95	1029	1
2026-02-12	14:48:33.370	13.51	14.21	-11.2	0.068564	-0.081984	1.060912	0.459	0.1155	-0.276	0	95	1029	1
2026-02-12	14:48:33.390	14.35	11.515	-11.515	0.0793	-0.121268	1.060912	0.4875	0.1005	-0.2775	0	95	1029	1
2026-02-12	14:48:33.410	10.85	7.77	-10.99	0.116388	-0.179828	1.110444	0.486	0.108	-0.252	0	95	1029	1
2026-02-12	14:48:33.430	5.32	7	-10.22	0.129564	-0.176168	1.141188	0.4935	0.0855	-0.264	0	95	1029	1
2026-02-12	14:48:33.450	-0.105	4.83	-9.03	0.12078	-0.127856	1.133624	0.498	0.087	-0.2835	0	95	1029	1
2026-02-12	14:48:33.470	-4.55	1.47	-8.645	0.110776	-0.092232	1.110688	0.519	0.087	-0.3	0	95	1029	1
2026-02-12	14:48:33.490	-8.015	-1.505	-9.765	0.115168	-0.08418	1.067988	0.5235	0.081	-0.315	0	95	1029	1
2026-02-12	14:48:33.510	-9.275	-6.09	-12.25	0.107604	-0.059292	1.023092	0.4995	0.0975	-0.333	0	95	1029	1
2026-02-12	14:48:33.530	-6.965	-5.95	-16.485	0.098088	-0.021228	0.955016	0.4455	0.0255	-0.363	0	95	1029	1
2026-02-12	14:48:33.550	-1.82	-5.32	-21.7	0.097112	0.00732	0.913048	0.492	0.0885	-0.3435	0	95	1029	1
2026-02-12	14:48:33.570	4.62	-5.635	-26.11	0.119804	-0.00976	0.91012	0.447	0.102	-0.2715	0	95	1029	1
2026-02-12	14:48:33.590	9.065	-5.425	-28.49	0.144692	-0.054656	0.932568	0.477	0.0975	-0.3285	0	95	1029	1
2026-02-12	14:48:33.610	9.52	-6.405	-28.035	0.160552	-0.083692	0.938912	0.486	0.099	-0.351	0	95	1033	1
2026-02-12	14:48:33.630	6.16	-8.435	-24.71	0.168604	-0.09516	0.943548	0.4725	0.0615	-0.288	0	95	1033	1
2026-02-12	14:48:33.650	0.245	-10.185	-19.74	0.149084	-0.093208	0.938424	0.456	0.0945	-0.2565	0	95	1033	1
2026-02-12	14:48:33.670	-6.02	-11.935	-14.07	0.121512	-0.061732	0.919636	0.438	0.1035	-0.2445	0	95	1033	1
2026-02-12	14:48:33.690	-10.185	-12.355	-9.31	0.091012	-0.02196	0.896212	0.438	0.105	-0.285	0	95	1033	1
2026-02-12	14:48:33.710	-10.92	-11.865	-6.265	0.060024	0.02074	0.884256	0.438	0.105	-0.285	0	95	1033	1
2026-02-12	14:48:33.730	-8.715	-9.625	-4.9	0.036112	0.053436	0.892552	0.438	0.105	-0.285	0	95	1033	1
2026-02-12	14:48:33.750	-5.11	-5.005	-4.655	0.022448	0.05246	0.9028	0.438	0.105	-0.285	0	95	1033	1
2026-02-12	14:48:33.770	-2.275	-1.19	-4.62	0.023424	0.046116	0.926712	0.45	0.1005	-0.285	0	95	1033	1
2026-02-12	14:48:33.790	-1.855	2.135	-4.165	0.020252	0.027084	0.961116	0.4515	0.0945	-0.276	0	95	1033	1
2026-02-12	14:48:33.810	-2.8	5.74	-3.01	0.029524	0.02074	0.995764	0.4575	0.0945	-0.3045	0	96	1028	1
2026-02-12	14:48:33.830	-4.305	9.87	-0.77	0.042212	0.005612	1.022848	0.453	0.0975	-0.324	0	96	1028	1
2026-02-12	14:48:33.850	-5.81	12.04	2.345	0.044896	0.00488	1.038464	0.441	0.0915	-0.276	0	96	1028	1
2026-02-12	14:48:33.870	-6.86	13.3	5.6	0.046116	-0.00732	1.052616	0.4515	0.0915	-0.246	0	96	1028	1
2026-02-12	14:48:33.890	-6.44	15.365	7.875	0.052948	-0.017812	1.065548	0.4605	0.1005	-0.258	0	96	1028	1
2026-02-12	14:48:33.910	-4.48	16.555	9.065	0.049288	-0.033672	1.065792	0.4695	0.0975	-0.273	0	96	1028	1
2026-02-12	14:48:33.930	-2.45	18.585	9.275	0.062708	-0.076616	1.089948	0.4725	0.102	-0.2745	0	96	1028	1
2026-02-12	14:48:33.950	-0.98	19.25	9.38	0.085888	-0.126392	1.099952	0.471	0.108	-0.2805	0	96	1028	1
2026-02-12	14:48:33.970	0.77	17.185	9.31	0.097112	-0.123464	1.100684	0.474	0.102	-0.249	0	96	1028	1
2026-02-12	14:48:33.990	3.535	16.345	9.1	0.099796	-0.09394	1.09312	0.4785	0.096	-0.2445	0	96	1028	1
2026-02-12	14:48:34.010	7.385	13.79	9.065	0.104188	-0.070516	1.096292	0.4845	0.0975	-0.2835	0	97	1025	1
2026-02-12	14:48:34.030	11.27	9.66	9.45	0.112484	-0.088328	1.120692	0.498	0.096	-0.2955	0	97	1025	1
2026-02-12	14:48:34.050	11.935	5.18	10.325	0.12322	-0.143716	1.151192	0.501	0.096	-0.336	0	97	1025	1
2026-02-12	14:48:34.070	5.32	-0.98	12.005	0.124196	-0.206912	1.176812	0.492	0.099	-0.351	0	97	1025	1
2026-02-12	14:48:34.090	-5.95	-11.025	13.615	0.121512	-0.201056	1.180472	0.4815	0.1095	-0.3075	0	97	1025	1
2026-02-12	14:48:34.110	-7.315	-15.68	13.44	0.093696	-0.141032	1.09922	0.471	0.1095	-0.276	0	97	1025	1
2026-02-12	14:48:34.130	0.525	-8.33	10.115	0.034404	-0.070028	0.934764	0.474	0.105	-0.2805	0	97	1025	1
2026-02-12	14:48:34.150	7.175	-10.675	5.74	0.033916	-0.05002	0.838384	0.486	0.108	-0.288	0	97	1025	1
2026-02-12	14:48:34.170	12.355	-21.28	2.66	0.072468	-0.120048	0.909876	0.48	0.1065	-0.279	0	97	1025	1
2026-02-12	14:48:34.190	19.53	-17.675	-0.21	0.122244	-0.201788	1.003816	0.465	0.1095	-0.3075	0	97	1025	1
2026-02-12	14:48:34.210	26.635	-13.93	0.525	0.125416	-0.225212	1.051152	0.468	0.1065	-0.312	0	98	1032	1
2026-02-12	14:48:34.230	27.475	-8.96	3.08	0.079788	-0.185196	0.988932	0.477	0.099	-0.2835	0	98	1032	1
2026-02-12	14:48:34.250	19.88	-11.97	6.72	0.04758	-0.137128	0.937692	0.405	-0.015	-0.366	0	98	1032	1
2026-02-12	14:48:34.270	10.115	-19.11	11.025	0.056364	-0.11956	0.95648	0.4065	-0.0165	-0.3735	0	98	1032	1
2026-02-12	14:48:34.290	6.125	-20.09	14.525	0.06344	-0.104188	0.985028	0.4785	0.099	-0.306	0	98	1032	1
2026-02-12	14:48:34.310	8.295	-12.705	16.485	0.038552	-0.05978	0.957456	0.4725	0.102	-0.2805	0	98	1032	1
2026-02-12	14:48:34.330	11.095	-6.51	16.835	0	-0.016836	0.909632	0.4755	0.1035	-0.2445	0	98	1032	1
2026-02-12	14:48:34.350	10.325	-6.405	17.15	-0.03416	0.009028	0.873764	0.4725	0.0975	-0.258	0	98	1032	1
2026-02-12	14:48:34.370	7.21	-8.925	16.555	-0.022204	0.005856	0.920368	0.4635	0.09	-0.273	0	98	1032	1
2026-02-12	14:48:34.390	5.355	-4.76	15.26	-0.006832	-0.015616	0.977464	0.4635	0.09	-0.273	0	98	1032	1
2026-02-12	14:48:34.410	5.565	1.155	14	-0.006832	-0.017324	0.995764	0.48	0.093	-0.2895	0	100	1034	1
2026-02-12	14:48:34.430	5.635	3.78	13.335	-0.015616	-0.01464	0.9943	0.48	0.093	-0.2895	0	100	1034	1
2026-02-12	14:48:34.450	3.85	9.52	11.55	-0.029036	-0.0122	0.977708	0.477	0.0855	-0.243	0	100	1034	1
2026-02-12	14:48:34.470	-0.63	9.625	9.835	-0.03416	-0.003416	0.988932	0.5025	0.09	-0.2985	0	100	1034	1
2026-02-12	14:48:34.490	-4.69	7.735	8.12	-0.01098	-0.007564	1.029192	0.5025	0.093	-0.324	0	100	1034	1
2026-02-12	14:48:34.510	-4.69	11.06	5.88	0.0061	0.007564	1.056764	0.495	0.1005	-0.312	0	100	1034	1
