yyyy-MM-dd	HH:mm:ss.fff	gyrX	gyrY	gyrZ	accX	accY	accZ	magX	magY	magZ	Marker	Energy	Angle	Classification
2026-02-12	15:58:00.810	-4.69	2.205	-27.055	0.949404	-0.365268	0.22936	0.102	0.7545	-0.2145	0	420	205	2
2026-02-12	15:58:00.830	-1.925	1.785	-25.97	0.945744	-0.371124	0.211304	0.096	0.7425	-0.219	0	420	205	2
2026-02-12	15:58:00.850	0.84	2.03	-24.64	0.942328	-0.364292	0.200568	0.099	0.741	-0.213	0	420	205	2
2026-02-12	15:58:00.870	2.625	1.785	-22.96	0.93696	-0.350628	0.196176	0.0945	0.7395	-0.2235	0	420	205	2
2026-02-12	15:58:00.890	3.605	2.03	-21.875	0.936472	-0.340868	0.191784	0.099	0.7425	-0.2205	0	420	205	2
2026-02-12	15:58:00.910	4.235	1.54	-20.51	0.938668	-0.329644	0.18178	0.0945	0.7335	-0.2175	0	420	205	2
2026-02-12	15:58:00.930	4.865	1.05	-19.425	0.934764	-0.31842	0.168604	0.09	0.726	-0.213	0	420	205	2
2026-02-12	15:58:00.950	4.69	0.035	-18.55	0.94062	-0.317688	0.16592	0.0915	0.726	-0.2145	0	420	205	2
2026-02-12	15:58:00.970	4.935	-0.875	-16.905	0.948916	-0.311588	0.159088	0.093	0.7245	-0.2175	0	420	205	2
2026-02-12	15:58:00.990	4.515	-0.98	-14.665	0.952576	-0.306952	0.156892	0.093	0.7245	-0.2175	0	420	205	2
2026-02-12	15:58:01.010	3.43	-1.4	-12.355	0.953552	-0.30744	0.155428	0.0915	0.717	-0.2175	0	388	205	2
2026-02-12	15:58:01.030	2.905	-1.785	-9.8	0.954772	-0.305732	0.15982	0.087	0.726	-0.2145	0	388	205	2
2026-02-12	15:58:01.050	2.52	-2.205	-6.79	0.958676	-0.310856	0.167872	0.0855	0.714	-0.219	0	388	205	2
2026-02-12	15:58:01.070	2.52	-2.555	-3.92	0.95892	-0.311588	0.176168	0.0885	0.72	-0.213	0	388	205	2
2026-02-12	15:58:01.090	3.465	-2.8	-1.12	0.963312	-0.319884	0.183732	0.0885	0.7155	-0.219	0	388	205	2
2026-02-12	15:58:01.110	6.23	-2.905	1.26	0.96014	-0.302072	0.188368	0.096	0.708	-0.2145	0	388	205	2
2026-02-12	15:58:01.130	8.54	-2.8	3.185	0.961848	-0.292312	0.197152	0.0885	0.711	-0.2145	0	388	205	2
2026-02-12	15:58:01.150	10.325	-2.905	4.69	0.96502	-0.279136	0.199592	0.081	0.714	-0.2175	0	388	205	2
2026-02-12	15:58:01.170	12.565	-2.625	5.705	0.962336	-0.259616	0.2013	0.0855	0.714	-0.219	0	388	205	2
2026-02-12	15:58:01.190	14.035	-2.17	6.16	0.961116	-0.244732	0.210572	0.0915	0.7155	-0.219	0	388	205	2
2026-02-12	15:58:01.210	14.49	-1.575	5.845	0.961848	-0.239608	0.212524	0.0825	0.7155	-0.228	0	351	203	2
2026-02-12	15:58:01.230	13.755	-0.945	5.285	0.95526	-0.224236	0.21228	0.072	0.711	-0.222	0	351	203	2
2026-02-12	15:58:01.250	11.83	-0.525	4.165	0.959896	-0.216672	0.212768	0.0885	0.711	-0.2235	0	351	203	2
2026-02-12	15:58:01.270	8.855	-0.175	3.045	0.96014	-0.214964	0.208864	0.081	0.711	-0.2205	0	351	203	2
2026-02-12	15:58:01.290	5.46	0.07	1.75	0.958188	-0.209108	0.205692	0.093	0.7125	-0.216	0	351	203	2
2026-02-12	15:58:01.310	2.135	0.315	0.385	0.960872	-0.216184	0.204472	0.0915	0.723	-0.222	0	351	203	2
2026-02-12	15:58:01.330	-0.7	0.805	-0.875	0.964776	-0.216428	0.204228	0.093	0.7155	-0.228	0	351	203	2
2026-02-12	15:58:01.350	-2.975	1.155	-1.995	0.961604	-0.224968	0.198128	0.0885	0.7155	-0.228	0	351	203	2
2026-02-12	15:58:01.370	-4.55	1.365	-2.8	0.959408	-0.23058	0.197396	0.081	0.7155	-0.2265	0	351	203	2
2026-02-12	15:58:01.390	-6.09	1.435	-3.43	0.959408	-0.24034	0.192272	0.084	0.714	-0.228	0	351	203	2
2026-02-12	15:58:01.410	-7.175	1.4	-3.815	0.957944	-0.252296	0.192028	0.0885	0.72	-0.2265	0	312	202	2
2026-02-12	15:58:01.430	-7.105	1.47	-3.815	0.959896	-0.257664	0.189588	0.0855	0.7155	-0.225	0	312	202	2
2026-02-12	15:58:01.450	-6.965	1.365	-3.78	0.961116	-0.264496	0.195688	0.087	0.7155	-0.222	0	312	202	2
2026-02-12	15:58:01.470	-6.545	1.33	-3.5	0.960872	-0.273768	0.1952	0.087	0.714	-0.228	0	312	202	2
2026-02-12	15:58:01.490	-6.65	1.4	-3.08	0.953308	-0.273768	0.197152	0.0915	0.7125	-0.2265	0	312	202	2
2026-02-12	15:58:01.510	-6.335	1.4	-2.73	0.956968	-0.280356	0.194224	0.0885	0.7125	-0.2265	0	312	202	2
2026-02-12	15:58:01.530	-5.565	1.365	-2.38	0.95648	-0.279624	0.19764	0.087	0.7125	-0.225	0	312	202	2
2026-02-12	15:58:01.550	-4.83	1.19	-1.785	0.949648	-0.281576	0.199104	0.087	0.711	-0.219	0	312	202	2
2026-02-12	15:58:01.570	-3.57	1.085	-1.26	0.950136	-0.282064	0.201544	0.0855	0.708	-0.216	0	312	202	2
2026-02-12	15:58:01.590	-2.695	0.98	-0.63	0.95404	-0.278648	0.204472	0.0885	0.7095	-0.2205	0	312	202	2
2026-02-12	15:58:01.610	-1.715	0.98	-0.49	0.959164	-0.272304	0.20008	0.093	0.711	-0.225	0	273	202	2
2026-02-12	15:58:01.630	-1.575	1.05	-0.84	0.9516	-0.268156	0.206424	0.093	0.711	-0.225	0	273	202	2
2026-02-12	15:58:01.650	-1.855	0.91	-1.015	0.947696	-0.26718	0.208376	0.0885	0.7185	-0.2235	0	273	202	2
2026-02-12	15:58:01.670	-1.785	0.665	-0.91	0.949404	-0.266936	0.207644	0.084	0.7125	-0.219	0	273	202	2
2026-02-12	15:58:01.690	-1.19	0.525	-0.63	0.94916	-0.264984	0.208864	0.0885	0.717	-0.2205	0	273	202	2
2026-02-12	15:58:01.710	-0.21	0.385	-0.525	0.950136	-0.261568	0.204472	0.0855	0.717	-0.216	0	273	202	2
2026-02-12	15:58:01.730	0.63	0.21	-0.665	0.948916	-0.260104	0.20252	0.0885	0.7155	-0.2175	0	273	202	2
2026-02-12	15:58:01.750	0.84	0.035	-1.015	0.949648	-0.259128	0.201788	0.0885	0.711	-0.219	0	273	202	2
2026-02-12	15:58:01.770	0.455	-0.175	-1.33	0.953552	-0.263276	0.20252	0.0885	0.7125	-0.219	0	273	202	2
2026-02-12	15:58:01.790	-0.105	-0.14	-1.505	0.95038	-0.264984	0.203252	0.087	0.7095	-0.222	0	273	202	2
2026-02-12	15:57:59.810	-11.165	-53.235	-201.32	1.325408	-0.218624	0.187148	0.192	0.801	-0.2865	0	351	190	3
2026-02-12	15:57:59.830	-22.785	-48.615	-195.545	1.241228	-0.162504	0.208376	0.1695	0.78	-0.2775	0	351	190	3
2026-02-12	15:57:59.850	-33.075	-48.37	-199.15	1.192672	-0.172508	0.152744	0.1485	0.762	-0.276	0	351	190	3
2026-02-12	15:57:59.870	-43.645	-51.135	-200.13	1.31638	-0.163968	0.18422	0.1395	0.735	-0.2565	0	351	190	3
2026-02-12	15:57:59.890	-68.95	-49.56	-197.54	1.42862	-0.272548	0.186904	0.1245	0.7305	-0.2535	0	351	190	3
2026-02-12	15:57:59.910	-78.925	-30.485	-182.21	1.27002	-0.458476	0.27328	0.111	0.726	-0.252	0	351	190	3
2026-02-12	15:57:59.930	-78.33	-25.445	-166.67	1.333948	-0.42334	0.282064	0.0825	0.6855	-0.2265	0	351	190	3
2026-02-12	15:57:59.950	-76.055	-16.065	-145.46	1.250988	-0.48312	0.244	0.081	0.675	-0.222	0	351	190	3
2026-02-12	15:57:59.970	-56.805	-12.88	-123.48	1.165588	-0.47336	0.221796	0.0675	0.6615	-0.216	0	351	190	3
2026-02-12	15:57:59.990	-29.715	-12.635	-99.19	1.087996	-0.436516	0.229848	0.0615	0.648	-0.2175	0	351	190	3
2026-02-12	15:58:00.010	1.645	-15.015	-68.67	1.052128	-0.385276	0.27206	0.051	0.6345	-0.2115	0	403	190	3
2026-02-12	15:58:00.030	13.965	-15.505	-50.785	1.048712	-0.357948	0.265228	0.051	0.6345	-0.2115	0	403	190	3
2026-02-12	15:58:00.050	21.84	-14.98	-29.015	1.026752	-0.33306	0.252052	0.051	0.618	-0.207	0	403	190	3
2026-02-12	15:58:00.070	22.47	-14.525	-9.205	1.019432	-0.344284	0.24034	0.0495	0.6195	-0.204	0	403	190	3
2026-02-12	15:58:00.090	26.18	-13.405	7.28	1.012356	-0.34282	0.241316	0.0495	0.6165	-0.204	0	403	190	3
2026-02-12	15:58:00.110	27.195	-11.62	25.2	0.99796	-0.296704	0.249612	0.0465	0.6135	-0.2025	0	403	190	3
2026-02-12	15:58:00.130	21.805	-8.4	40.11	0.998936	-0.307196	0.266204	0.042	0.6135	-0.201	0	403	190	3
2026-02-12	15:58:00.150	16.73	-4.445	49.7	0.987712	-0.29402	0.267912	0.0495	0.618	-0.198	0	403	190	3
2026-02-12	15:58:00.170	11.83	-0.875	58.45	0.98942	-0.295484	0.260836	0.039	0.615	-0.1935	0	403	190	3
2026-02-12	15:58:00.190	8.54	2.555	66.115	0.99308	-0.283528	0.247172	0.048	0.63	-0.2025	0	403	190	3
2026-02-12	15:58:00.210	5.285	5.81	72.59	0.99064	-0.270352	0.230336	0.0555	0.6465	-0.198	0	438	199	3
2026-02-12	15:58:00.230	1.89	7.49	78.715	1.01016	-0.271328	0.221308	0.054	0.6495	-0.198	0	438	199	3
2026-02-12	15:58:00.250	0.175	10.255	82.95	1.024068	-0.248148	0.212036	0.0585	0.657	-0.207	0	438	199	3
2026-02-12	15:58:00.270	-1.47	10.955	87.71	1.038464	-0.260348	0.1952	0.0555	0.669	-0.213	0	438	199	3
2026-02-12	15:58:00.290	-1.19	12.355	90.3	1.0431	-0.25864	0.183976	0.06	0.672	-0.2085	0	438	199	3
2026-02-12	15:58:00.310	20.405	12.18	94.605	1.081896	-0.5612	0.132248	0.0675	0.684	-0.2055	0	438	199	3
2026-02-12	15:58:00.330	75.25	22.12	83.09	1.053592	-0.049532	0.224968	0.072	0.693	-0.2055	0	438	199	3
2026-02-12	15:58:00.350	72.17	22.54	74.795	1.009428	-0.004148	0.2013	0.072	0.693	-0.2055	0	438	199	3
2026-02-12	15:58:00.370	80.85	22.505	71.89	1.009184	-0.08052	0.19154	0.0855	0.7125	-0.225	0	438	199	3
2026-02-12	15:58:00.390	56.735	21.42	67.62	0.9516	0.105652	0.213012	0.096	0.7065	-0.2385	0	438	199	3
2026-02-12	15:58:00.410	5.88	16.31	60.725	0.94428	0.095404	0.192028	0.096	0.7095	-0.2415	0	450	207	2
2026-02-12	15:58:00.430	-37.03	10.885	55.685	0.946964	-0.10004	0.168116	0.105	0.7185	-0.2385	0	450	207	2
2026-02-12	15:58:00.450	-57.785	5.845	53.935	0.957456	-0.21106	0.163724	0.1155	0.732	-0.246	0	450	207	2
2026-02-12	15:58:00.470	-68.67	3.78	51.065	0.949648	-0.286456	0.15128	0.111	0.7425	-0.243	0	450	207	2
2026-02-12	15:58:00.490	-69.965	2.345	45.36	0.938668	-0.30622	0.13908	0.117	0.753	-0.2445	0	450	207	2
2026-02-12	15:58:00.510	-59.395	1.715	36.855	0.904508	-0.352824	0.1159	0.12	0.756	-0.237	0	450	207	2
2026-02-12	15:58:00.530	-31.535	0.07	28.455	0.896212	-0.36356	0.095404	0.12	0.7635	-0.2265	0	450	207	2
2026-02-12	15:58:00.550	7.175	-1.75	14.665	0.85034	-0.251564	0.108092	0.1155	0.7695	-0.225	0	450	207	2
2026-02-12	15:58:00.570	20.16	-5.25	3.885	0.84546	-0.216916	0.141032	0.129	0.783	-0.231	0	450	207	2
2026-02-12	15:58:00.590	21.455	-8.61	-6.23	0.86376	-0.22936	0.165432	0.1245	0.7875	-0.225	0	450	207	2
2026-02-12	15:58:00.610	19.005	-10.605	-14.84	0.878644	-0.236436	0.177144	0.126	0.7755	-0.228	0	443	207	2
2026-02-12	15:58:00.630	15.225	-12.845	-22.365	0.90036	-0.214964	0.182756	0.1215	0.78	-0.231	0	443	207	2
2026-02-12	15:58:00.650	3.115	-12.075	-28.56	0.914756	-0.230092	0.21472	0.1245	0.78	-0.2325	0	443	207	2
2026-02-12	15:58:00.670	-11.76	-11.06	-32.445	0.94672	-0.35502	0.24278	0.117	0.7665	-0.2295	0	443	207	2
2026-02-12	15:58:00.690	-11.375	-8.19	-33.355	0.960628	-0.325496	0.293776	0.1065	0.7695	-0.225	0	443	207	2
2026-02-12	15:58:00.710	-10.115	-3.71	-32.41	0.95282	-0.406016	0.295728	0.105	0.7605	-0.225	0	443	207	2
2026-02-12	15:58:00.730	-11.69	-1.435	-31.64	0.9821	-0.39406	0.29036	0.1035	0.753	-0.225	0	443	207	2
2026-02-12	15:58:00.750	-13.93	1.33	-29.645	0.938912	-0.390156	0.283284	0.102	0.756	-0.225	0	443	207	2
2026-02-12	15:58:00.770	-10.535	2.59	-29.015	0.9394	-0.38064	0.269376	0.102	0.7575	-0.2265	0	443	207	2
2026-02-12	15:58:00.790	-7.315	2.52	-28.245	0.942572	-0.363804	0.256932	0.105	0.759	-0.219	0	443	207	2
2026-02-12	15:58:00.810	-4.69	2.205	-27.055	0.949404	-0.365268	0.22936	0.102	0.7545	-0.2145	0	420	205	2
2026-02-12	15:58:00.830	-1.925	1.785	-25.97	0.945744	-0.371124	0.211304	0.096	0.7425	-0.219	0	420	205	2
2026-02-12	15:58:00.850	0.84	2.03	-24.64	0.942328	-0.364292	0.200568	0.099	0.741	-0.213	0	420	205	2
2026-02-12	15:58:00.870	2.625	1.785	-22.96	0.93696	-0.350628	0.196176	0.0945	0.7395	-0.2235	0	420	205	2
2026-02-12	15:58:00.890	3.605	2.03	-21.875	0.936472	-0.340868	0.191784	0.099	0.7425	-0.2205	0	420	205	2
2026-02-12	15:58:00.910	4.235	1.54	-20.51	0.938668	-0.329644	0.18178	0.0945	0.7335	-0.2175	0	420	205	2
2026-02-12	15:58:00.930	4.865	1.05	-19.425	0.934764	-0.31842	0.168604	0.09	0.726	-0.213	0	420	205	2
2026-02-12	15:58:00.950	4.69	0.035	-18.55	0.94062	-0.317688	0.16592	0.0915	0.726	-0.2145	0	420	205	2
2026-02-12	15:58:00.970	4.935	-0.875	-16.905	0.948916	-0.311588	0.159088	0.093	0.7245	-0.2175	0	420	205	2
2026-02-12	15:58:00.990	4.515	-0.98	-14.665	0.952576	-0.306952	0.156892	0.093	0.7245	-0.2175	0	420	205	2
2026-02-12	15:58:01.010	3.43	-1.4	-12.355	0.953552	-0.30744	0.155428	0.0915	0.717	-0.2175	0	388	205	2
2026-02-12	15:58:01.030	2.905	-1.785	-9.8	0.954772	-0.305732	0.15982	0.087	0.726	-0.2145	0	388	205	2
2026-02-12	15:58:01.050	2.52	-2.205	-6.79	0.958676	-0.310856	0.167872	0.0855	0.714	-0.219	0	388	205	2
2026-02-12	15:58:01.070	2.52	-2.555	-3.92	0.95892	-0.311588	0.176168	0.0885	0.72	-0.213	0	388	205	2
2026-02-12	15:58:01.090	3.465	-2.8	-1.12	0.963312	-0.319884	0.183732	0.0885	0.7155	-0.219	0	388	205	2
2026-02-12	15:58:01.110	6.23	-2.905	1.26	0.96014	-0.302072	0.188368	0.096	0.708	-0.2145	0	388	205	2
2026-02-12	15:58:01.130	8.54	-2.8	3.185	0.961848	-0.292312	0.197152	0.0885	0.711	-0.2145	0	388	205	2
2026-02-12	15:58:01.150	10.325	-2.905	4.69	0.96502	-0.279136	0.199592	0.081	0.714	-0.2175	0	388	205	2
2026-02-12	15:58:01.170	12.565	-2.625	5.705	0.962336	-0.259616	0.2013	0.0855	0.714	-0.219	0	388	205	2
2026-02-12	15:58:01.190	14.035	-2.17	6.16	0.961116	-0.244732	0.210572	0.0915	0.7155	-0.219	0	388	205	2
2026-02-12	15:58:01.210	14.49	-1.575	5.845	0.961848	-0.239608	0.212524	0.0825	0.7155	-0.228	0	351	203	2
2026-02-12	15:58:01.230	13.755	-0.945	5.285	0.95526	-0.224236	0.21228	0.072	0.711	-0.222	0	351	203	2
2026-02-12	15:58:01.250	11.83	-0.525	4.165	0.959896	-0.216672	0.212768	0.0885	0.711	-0.2235	0	351	203	2
2026-02-12	15:58:01.270	8.855	-0.175	3.045	0.96014	-0.214964	0.208864	0.081	0.711	-0.2205	0	351	203	2
2026-02-12	15:58:01.290	5.46	0.07	1.75	0.958188	-0.209108	0.205692	0.093	0.7125	-0.216	0	351	203	2
2026-02-12	15:58:01.310	2.135	0.315	0.385	0.960872	-0.216184	0.204472	0.0915	0.723	-0.222	0	351	203	2
2026-02-12	15:58:01.330	-0.7	0.805	-0.875	0.964776	-0.216428	0.204228	0.093	0.7155	-0.228	0	351	203	2
2026-02-12	15:58:01.350	-2.975	1.155	-1.995	0.961604	-0.224968	0.198128	0.0885	0.7155	-0.228	0	351	203	2
2026-02-12	15:58:01.370	-4.55	1.365	-2.8	0.959408	-0.23058	0.197396	0.081	0.7155	-0.2265	0	351	203	2
2026-02-12	15:58:01.390	-6.09	1.435	-3.43	0.959408	-0.24034	0.192272	0.084	0.714	-0.228	0	351	203	2
2026-02-12	15:58:01.410	-7.175	1.4	-3.815	0.957944	-0.252296	0.192028	0.0885	0.72	-0.2265	0	312	202	2
2026-02-12	15:58:01.430	-7.105	1.47	-3.815	0.959896	-0.257664	0.189588	0.0855	0.7155	-0.225	0	312	202	2
2026-02-12	15:58:01.450	-6.965	1.365	-3.78	0.961116	-0.264496	0.195688	0.087	0.7155	-0.222	0	312	202	2
2026-02-12	15:58:01.470	-6.545	1.33	-3.5	0.960872	-0.273768	0.1952	0.087	0.714	-0.228	0	312	202	2
2026-02-12	15:58:01.490	-6.65	1.4	-3.08	0.953308	-0.273768	0.197152	0.0915	0.7125	-0.2265	0	312	202	2
2026-02-12	15:58:01.510	-6.335	1.4	-2.73	0.956968	-0.280356	0.194224	0.0885	0.7125	-0.2265	0	312	202	2
2026-02-12	15:58:01.530	-5.565	1.365	-2.38	0.95648	-0.279624	0.19764	0.087	0.7125	-0.225	0	312	202	2
2026-02-12	15:58:01.550	-4.83	1.19	-1.785	0.949648	-0.281576	0.199104	0.087	0.711	-0.219	0	312	202	2
2026-02-12	15:58:01.570	-3.57	1.085	-1.26	0.950136	-0.282064	0.201544	0.0855	0.708	-0.216	0	312	202	2
2026-02-12	15:58:01.590	-2.695	0.98	-0.63	0.95404	-0.278648	0.204472	0.0885	0.7095	-0.2205	0	312	202	2
2026-02-12	15:58:01.610	-1.715	0.98	-0.49	0.959164	-0.272304	0.20008	0.093	0.711	-0.225	0	273	202	2
2026-02-12	15:58:01.630	-1.575	1.05	-0.84	0.9516	-0.268156	0.206424	0.093	0.711	-0.225	0	273	202	2
2026-02-12	15:58:01.650	-1.855	0.91	-1.015	0.947696	-0.26718	0.208376	0.0885	0.7185	-0.2235	0	273	202	2
2026-02-12	15:58:01.670	-1.785	0.665	-0.91	0.949404	-0.266936	0.207644	0.084	0.7125	-0.219	0	273	202	2
2026-02-12	15:58:01.690	-1.19	0.525	-0.63	0.94916	-0.264984	0.208864	0.0885	0.717	-0.2205	0	273	202	2
2026-02-12	15:58:01.710	-0.21	0.385	-0.525	0.950136	-0.261568	0.204472	0.0855	0.717	-0.216	0	273	202	2
2026-02-12	15:58:01.730	0.63	0.21	-0.665	0.948916	-0.260104	0.20252	0.0885	0.7155	-0.2175	0	273	202	2
2026-02-12	15:58:01.750	0.84	0.035	-1.015	0.949648	-0.259128	0.201788	0.0885	0.711	-0.219	0	273	202	2
2026-02-12	15:58:01.770	0.455	-0.175	-1.33	0.953552	-0.263276	0.20252	0.0885	0.7125	-0.219	0	273	202	2
2026-02-12	15:58:01.790	-0.105	-0.14	-1.505	0.95038	-0.264984	0.203252	0.087	0.7095	-0.222	0	273	202	2
2026-02-12	15:58:11.810	19.425	-2.94	-2.415	0.974048	-0.231556	0.397964	0.009	0.7035	0.0855	0	338	73	2
2026-02-12	15:58:11.830	22.225	-3.465	-7.805	1.014552	-0.228628	0.40016	0.009	0.7095	0.084	0	338	73	2
2026-02-12	15:58:11.850	20.79	-6.685	-16.66	1.043832	-0.259616	0.391376	0.0105	0.708	0.084	0	338	73	2
2026-02-12	15:58:11.870	21.385	-1.54	-21.525	0.952576	-0.261812	0.378688	0.009	0.7065	0.09	0	338	73	2
2026-02-12	15:58:11.890	21.665	-4.97	-27.825	0.969656	-0.25986	0.357216	0.0075	0.708	0.093	0	338	73	2
2026-02-12	15:58:11.910	16.975	-5.18	-34.23	1.051152	-0.240828	0.33672	0.009	0.7065	0.0885	0	338	73	2
2026-02-12	15:58:11.930	7.245	-3.99	-40.705	1.215852	-0.249124	0.28426	0.0105	0.6945	0.087	0	338	73	2
2026-02-12	15:58:11.950	-6.265	-5.775	-47.11	1.424472	-0.232044	0.22936	0.009	0.687	0.0855	0	338	73	2
2026-02-12	15:58:11.970	-21.14	-9.24	-52.885	1.581364	-0.258396	0.228628	0.0015	0.6795	0.093	0	338	73	2
2026-02-12	15:58:11.990	-30.695	-11.235	-57.365	1.606252	-0.327204	0.278648	0	0.678	0.0885	0	338	73	2
2026-02-12	15:58:12.010	-31.535	-11.515	-55.93	1.474492	-0.378444	0.345992	0	0.657	0.0885	0	351	128	3
2026-02-12	15:58:12.030	-28.14	-9.555	-46.795	1.273192	-0.4026	0.360388	-0.0015	0.6585	0.0945	0	351	128	3
2026-02-12	15:58:12.050	-17.36	-7.21	-30.94	1.082872	-0.397964	0.327204	-0.006	0.6495	0.0915	0	351	128	3
2026-02-12	15:58:12.070	4.095	-6.16	-9.205	0.995276	-0.387472	0.2928	-0.0045	0.639	0.0945	0	351	128	3
2026-02-12	15:58:12.090	32.48	-2.94	14.91	0.952332	-0.339648	0.257176	0	0.639	0.1005	0	351	128	3
2026-02-12	15:58:12.110	57.26	2.17	38.815	0.93574	-0.267668	0.215208	-0.006	0.6435	0.0975	0	351	128	3
2026-02-12	15:58:12.130	71.47	8.575	60.025	0.946476	-0.238144	0.151036	-0.006	0.651	0.1005	0	351	128	3
2026-02-12	15:58:12.150	74.375	17.605	80.045	0.976	-0.192028	0.07808	-0.003	0.6555	0.1065	0	351	128	3
2026-02-12	15:58:12.170	65.66	25.48	93.555	1.001132	-0.140788	0.03782	-0.003	0.6555	0.1065	0	351	128	3
2026-02-12	15:58:12.190	49.98	29.925	98.665	0.964776	-0.123708	0.02684	0	0.696	0.0795	0	351	128	3
2026-02-12	15:58:12.210	34.685	31.29	99.4	0.905484	-0.121512	0.030988	0.009	0.7155	0.072	0	353	171	3
2026-02-12	15:58:12.230	20.545	31.36	96.915	0.815936	-0.119072	0.048556	0.009	0.729	0.066	0	353	171	3
2026-02-12	15:58:12.250	6.055	30.45	89.32	0.791048	-0.151036	0.07076	0.018	0.747	0.0615	0	353	171	3
2026-02-12	15:58:12.270	-8.26	25.655	85.26	0.74786	-0.197396	0.087352	0.021	0.753	0.06	0	353	171	3
2026-02-12	15:58:12.290	-22.47	21.14	77	0.701988	-0.260592	0.067832	0.0255	0.7635	0.0555	0	353	171	3
2026-02-12	15:58:12.310	-26.32	16.17	69.195	0.676612	-0.297924	0.043676	0.033	0.777	0.054	0	353	171	3
2026-02-12	15:58:12.330	-18.2	10.955	59.29	0.677832	-0.27572	0.027572	0.0435	0.7935	0.054	0	353	171	3
2026-02-12	15:58:12.350	-4.76	5.705	49.77	0.694912	-0.293044	-0.003172	0.045	0.798	0.0585	0	353	171	3
2026-02-12	15:58:12.370	22.855	-2.66	35.385	0.762744	-0.29768	-0.044408	0.042	0.7965	0.0615	0	353	171	3
2026-02-12	15:58:12.390	41.86	-6.37	26.88	0.794708	-0.260104	-0.032452	0.0555	0.8205	0.0495	0	353	171	3
2026-02-12	15:58:12.410	52.745	-10.57	19.985	0.853756	-0.252052	-0.02074	0.0585	0.8175	0.054	0	346	175	3
2026-02-12	15:58:12.430	58.38	-14.595	15.575	0.9089	-0.245952	0.00366	0.0645	0.8205	0.045	0	346	175	3
2026-02-12	15:58:12.450	60.9	-18.865	13.16	0.947696	-0.267424	0.013664	0.072	0.831	0.042	0	346	175	3
2026-02-12	15:58:12.470	61.355	-24.01	12.005	0.989664	-0.263764	0.04148	0.0705	0.831	0.042	0	346	175	3
2026-02-12	15:58:12.490	63.49	-29.68	11.13	1.022848	-0.253272	0.088328	0.069	0.8325	0.039	0	346	175	3
2026-02-12	15:58:12.510	68.495	-34.895	10.15	1.070184	-0.250832	0.10858	0.0705	0.834	0.042	0	346	175	3
2026-02-12	15:58:12.530	74.865	-38.675	6.65	1.119228	-0.276696	0.127856	0.075	0.8355	0.0435	0	346	175	3
2026-02-12	15:58:12.550	81.865	-40.635	-2.87	1.183644	-0.280844	0.15738	0.0765	0.837	0.0345	0	346	175	3
2026-02-12	15:58:12.570	81.13	-39.2	-19.355	1.232932	-0.292312	0.197396	0.075	0.8385	0.0315	0	346	175	3
2026-02-12	15:58:12.590	68.6	-35.175	-37.8	1.240008	-0.288652	0.232776	0.0735	0.84	0.033	0	346	175	3
2026-02-12	15:58:12.610	48.825	-30.835	-51.065	1.196332	-0.27694	0.22082	0.0675	0.8385	0.0255	0	334	155	3
2026-02-12	15:58:12.630	24.92	-26.355	-63.91	1.12972	-0.259128	0.162016	0.0615	0.822	0.03	0	334	155	3
2026-02-12	15:58:12.650	1.995	-24.745	-73.675	1.056764	-0.22936	0.098332	0.063	0.816	0.0225	0	334	155	3
2026-02-12	15:58:12.670	-12.81	-28.735	-79.73	0.971364	-0.22936	0.102236	0.06	0.81	0.024	0	334	155	3
2026-02-12	15:58:12.690	-13.545	-35.945	-82.775	0.957212	-0.266204	0.192272	0.048	0.7995	0.033	0	334	155	3
2026-02-12	15:58:12.710	-1.575	-41.02	-80.92	1.026752	-0.319396	0.294508	0.039	0.789	0.0375	0	334	155	3
2026-02-12	15:58:12.730	18.69	-40.565	-70.07	1.070428	-0.351604	0.341844	0.033	0.777	0.0405	0	334	155	3
2026-02-12	15:58:12.750	42.14	-34.685	-49.105	1.079212	-0.299632	0.323544	0.0255	0.7695	0.0495	0	334	155	3
2026-02-12	15:58:12.770	56.42	-25.41	-26.53	1.047736	-0.278404	0.266936	0.0285	0.765	0.0495	0	334	155	3
2026-02-12	15:58:12.790	67.27	-14.455	-1.085	0.941596	-0.132492	0.156648	0.0315	0.7635	0.0465	0	334	155	3
2026-02-12	15:58:12.810	61.6	-7.77	16.1	0.92354	-0.052948	0.07905599	0.0315	0.7635	0.0465	0	318	144	3
2026-02-12	15:58:12.830	49.455	-4.725	23.03	0.880596	-0.046848	0.074176	0.024	0.762	0.039	0	318	144	3
2026-02-12	15:58:12.850	38.955	-3.5	24.465	0.835456	-0.087596	0.100772	0.03	0.7635	0.0465	0	318	144	3
2026-02-12	15:58:12.870	30.765	-4.585	22.61	0.806908	-0.136884	0.129076	0.0225	0.762	0.0315	0	318	144	3
2026-02-12	15:58:12.890	28.525	-5.67	19.81	0.794464	-0.179096	0.16714	0.027	0.765	0.033	0	318	144	3
2026-02-12	15:58:12.910	29.645	-5.705	16.8	0.790316	-0.226432	0.198616	0.036	0.768	0.0345	0	318	144	3
2026-02-12	15:58:12.930	37.415	-5.215	14.595	0.778604	-0.241072	0.217648	0.033	0.7695	0.0285	0	318	144	3
2026-02-12	15:58:12.950	47.285	-4.935	12.53	0.781532	-0.228872	0.221552	0.0285	0.7725	0.024	0	318	144	3
2026-02-12	15:58:12.970	55.58	-4.55	10.395	0.809592	-0.210816	0.212768	0.0345	0.7725	0.0255	0	318	144	3
2026-02-12	15:58:12.990	59.675	-4.165	9.135	0.861564	-0.16958	0.2135	0.0375	0.7785	0.0225	0	318	144	3
2026-02-12	15:58:13.010	58.1	-0.14	9.73	0.900116	-0.148596	0.193248	0.039	0.786	0.0195	0	300	147	3
2026-02-12	15:58:13.030	53.515	3.5	11.13	0.935496	-0.103212	0.180804	0.03	0.7845	0.015	0	300	147	3
2026-02-12	15:58:13.050	45.815	6.125	13.475	0.96258	-0.088084	0.1403	0.048	0.789	0.006	0	300	147	3
2026-02-12	15:58:13.070	40.425	8.05	14.77	0.97234	-0.060512	0.120048	0.048	0.7905	0.0045	0	300	147	3
2026-02-12	15:58:13.090	35.07	8.015	15.47	0.97234	-0.06222	0.12932	0.0495	0.792	0	0	300	147	3
2026-02-12	15:58:13.110	34.125	6.895	14.14	0.948916	-0.073444	0.150548	0.051	0.7965	-0.006	0	300	147	3
2026-02-12	15:58:13.130	36.785	4.095	9.695	0.930616	-0.074176	0.173484	0.048	0.7995	-0.009	0	300	147	3
2026-02-12	15:58:13.150	41.265	1.61	4.165	0.915244	-0.108336	0.187392	0.048	0.801	-0.0075	0	300	147	3
2026-02-12	15:58:13.170	45.08	0.175	-0.7	0.879376	-0.138348	0.202276	0.0555	0.8055	-0.0135	0	300	147	3
2026-02-12	15:58:13.190	46.725	-0.98	-5.005	0.856196	-0.157136	0.19886	0.0555	0.8085	-0.021	0	300	147	3
2026-02-12	15:58:13.210	45.43	-1.715	-7.875	0.83936	-0.161528	0.182512	0.0555	0.8025	-0.0225	0	282	154	3
2026-02-12	15:58:13.230	40.88	-3.71	-7.805	0.823012	-0.191784	0.16226	0.06	0.7995	-0.0225	0	282	154	3
2026-02-12	15:58:13.250	38.64	-5.53	-4.795	0.838872	-0.223992	0.151524	0.0525	0.7995	-0.0285	0	282	154	3
2026-02-12	15:58:13.270	37.905	-7.035	-1.155	0.876448	-0.234484	0.145668	0.057	0.7965	-0.021	0	282	154	3
2026-02-12	15:58:13.290	36.575	-9.135	2.345	0.936472	-0.230824	0.144448	0.0555	0.7965	-0.024	0	282	154	3
2026-02-12	15:58:13.310	35.175	-10.955	4.34	0.996496	-0.23424	0.13908	0.0525	0.798	-0.0345	0	282	154	3
2026-02-12	15:58:13.330	34.93	-13.265	3.5	1.097512	-0.238632	0.147864	0.0555	0.7995	-0.042	0	282	154	3
2026-02-12	15:58:13.350	31.535	-15.26	0	1.228052	-0.280112	0.176412	0.057	0.7995	-0.0405	0	282	154	3
2026-02-12	15:58:13.370	27.3	-15.085	-3.815	1.26758	-0.348676	0.232044	0.054	0.795	-0.042	0	282	154	3
2026-02-12	15:58:13.390	28.455	-9.31	-4.305	1.151924	-0.36844	0.25742	0.057	0.795	-0.048	0	282	154	3
2026-02-12	15:58:13.410	31.255	-5.67	0.315	1.108248	-0.374296	0.212036	0.0585	0.795	-0.045	0	263	160	3
2026-02-12	15:58:13.430	44.45	-1.96	7.595	1.173396	-0.362828	0.137128	0.0585	0.7905	-0.0375	0	263	160	3
2026-02-12	15:58:13.450	62.125	3.36	15.785	1.213168	-0.332572	0.083204	0.0585	0.7905	-0.0375	0	263	160	3
2026-02-12	15:58:13.470	72.73	9.38	20.825	1.204384	-0.286456	0.06344	0.0585	0.7965	-0.051	0	263	160	3
2026-02-12	15:58:13.490	73.85	12.95	26.53	1.164368	-0.250832	0.055876	0.0585	0.7995	-0.0585	0	263	160	3
2026-02-12	15:58:13.510	66.5	15.61	31.08	1.114104	-0.215452	0.05002	0.063	0.7995	-0.069	0	263	160	3
2026-02-12	15:58:13.530	51.765	13.51	38.29	1.060424	-0.206424	0.05612	0.066	0.801	-0.0795	0	263	160	3
2026-02-12	15:58:13.550	40.145	9.555	44.03	0.99064	-0.228384	0.05978	0.066	0.8085	-0.0855	0	263	160	3
2026-02-12	15:58:13.570	36.435	3.535	49.035	0.897432	-0.258396	0.063684	0.072	0.813	-0.0915	0	263	160	3
2026-02-12	15:58:13.590	41.65	-3.78	51.94	0.834236	-0.284992	0.072468	0.078	0.813	-0.096	0	263	160	3
2026-02-12	15:58:13.610	54.635	-10.43	52.045	0.837164	-0.326716	0.079544	0.084	0.819	-0.1005	0	246	158	3
2026-02-12	15:58:13.630	78.085	-14.98	50.015	0.85888	-0.370636	0.056608	0.09	0.822	-0.1035	0	246	158	3
2026-02-12	15:58:13.650	118.58	-17.255	41.09	0.940376	-0.31842	0.043676	0.096	0.8175	-0.1035	0	246	158	3
2026-02-12	15:58:13.670	133.945	-16.1	34.195	0.95892	-0.310368	0.030256	0.096	0.8175	-0.1035	0	246	158	3
2026-02-12	15:58:13.690	136.15	-14.21	26.32	0.974048	-0.300364	0.0427	0.099	0.822	-0.1305	0	246	158	3
2026-02-12	15:58:13.710	133.035	-10.325	18.375	0.987712	-0.291092	0.053924	0.0975	0.822	-0.1305	0	246	158	3
2026-02-12	15:58:13.730	125.86	-4.935	14.105	0.941352	-0.267424	0.061244	0.0975	0.819	-0.1455	0	246	158	3
2026-02-12	15:58:13.750	115.045	-0.56	13.16	0.88694	-0.256688	0.056852	0.1005	0.8115	-0.1665	0	246	158	3
2026-02-12	15:58:13.770	102.34	4.025	13.93	0.859124	-0.23546	0.044652	0.105	0.804	-0.174	0	246	158	3
2026-02-12	15:58:13.790	89.495	7.42	16.135	0.856928	-0.243268	0.023668	0.1065	0.792	-0.18	0	246	158	3
2026-02-12	15:58:13.810	81.34	9.24	18.69	0.865712	-0.2501	0.015372	0.105	0.792	-0.189	0	232	142	3
2026-02-12	15:58:13.830	76.825	10.465	21.245	0.884744	-0.257176	0.025864	0.1125	0.795	-0.1965	0	232	142	3
2026-02-12	15:58:13.850	71.995	11.41	23.1	0.934032	-0.264008	0.049776	0.1155	0.7905	-0.201	0	232	142	3
2026-02-12	15:58:13.870	59.01	13.475	25.025	1.027484	-0.255712	0.060024	0.1125	0.789	-0.2025	0	232	142	3
2026-02-12	15:58:13.890	44.415	14.63	26.355	1.062132	-0.233996	0.041236	0.1215	0.7845	-0.213	0	232	142	3
2026-02-12	15:58:13.910	28.525	13.72	26.67	1.104588	-0.199592	0.021716	0.117	0.7845	-0.216	0	232	142	3
2026-02-12	15:58:13.930	12.39	8.785	25.34	1.167052	-0.205204	0.00976	0.12	0.7815	-0.222	0	232	142	3
2026-02-12	15:58:13.950	1.82	1.54	21.91	1.20902	-0.244244	0.017812	0.129	0.78	-0.2235	0	232	142	3
2026-02-12	15:58:13.970	0.35	-5.915	16.485	1.203896	-0.254492	0.043188	0.1275	0.7815	-0.222	0	232	142	3
2026-02-12	15:58:13.990	-0.595	-14.77	10.01	1.225124	-0.242048	0.101748	0.126	0.783	-0.2265	0	232	142	3
2026-02-12	15:58:14.010	1.89	-20.825	-0.595	1.256112	-0.252784	0.138104	0.1245	0.7815	-0.2295	0	219	120	3
2026-02-12	15:58:14.030	8.47	-23.73	-12.985	1.290272	-0.215696	0.13664	0.123	0.786	-0.2235	0	219	120	3
2026-02-12	15:58:14.050	11.795	-26.915	-25.655	1.378844	-0.162016	0.09467199	0.12	0.783	-0.222	0	219	120	3
2026-02-12	15:58:14.070	15.61	-31.85	-39.165	1.39934	-0.106384	0.112728	0.1185	0.774	-0.2235	0	219	120	3
2026-02-12	15:58:14.090	19.845	-34.65	-46.165	1.276852	-0.005368	0.225944	0.1185	0.774	-0.2235	0	219	120	3
2026-02-12	15:58:14.110	12.67	-33.18	-45.885	1.178276	-0.0183	0.228628	0.111	0.768	-0.216	0	219	120	3
2026-02-12	15:58:14.130	7.875	-27.09	-40.635	1.043344	0.055388	0.220332	0.096	0.762	-0.213	0	219	120	3
2026-02-12	15:58:14.150	-2.66	-19.95	-32.13	0.96746	0.152256	0.221308	0.087	0.756	-0.213	0	219	120	3
2026-02-12	15:58:14.170	-21.42	-16.135	-21.35	0.96014	0.225212	0.201788	0.084	0.7455	-0.2055	0	219	120	3
2026-02-12	15:58:14.190	-44.38	-14.315	-12.635	0.984784	0.194956	0.168116	0.0795	0.741	-0.201	0	219	120	3
2026-02-12	15:58:14.210	-51.555	-14.105	-6.37	0.97234	0.137616	0.16104	0.072	0.744	-0.1965	0	210	111	3
2026-02-12	15:58:14.230	-47.04	-15.995	-1.68	0.955504	0.076616	0.175192	0.0705	0.75	-0.192	0	210	111	3
2026-02-12	15:58:14.250	-35.315	-18.865	-0.525	0.926956	0.008784	0.227652	0.072	0.7575	-0.192	0	210	111	3
2026-02-12	15:58:14.270	-19.32	-22.89	-1.015	0.904264	-0.024644	0.310368	0.0675	0.762	-0.186	0	210	111	3
2026-02-12	15:58:14.290	3.57	-25.27	-2.625	0.894748	-0.09028	0.406992	0.0675	0.765	-0.1815	0	210	111	3
2026-02-12	15:58:14.310	17.08	-23.66	-2.905	0.869128	-0.116388	0.419924	0.0675	0.7635	-0.177	0	210	111	3
2026-02-12	15:58:14.330	27.93	-20.58	-3.465	0.857416	-0.109312	0.408212	0.0645	0.7605	-0.1725	0	210	111	3
2026-02-12	15:58:14.350	31.85	-15.26	-1.925	0.832284	-0.08295999	0.36966	0.0585	0.7575	-0.171	0	210	111	3
2026-02-12	15:58:14.370	27.965	-10.36	1.05	0.819108	-0.0671	0.339892	0.06	0.7515	-0.1695	0	210	111	3
2026-02-12	15:58:14.390	21.175	-5.81	4.13	0.784216	-0.040992	0.32696	0.06	0.747	-0.168	0	210	111	3
2026-02-12	15:58:14.410	9.765	-2.03	7.49	0.775676	-0.030744	0.30988	0.057	0.75	-0.1665	0	207	128	3
2026-02-12	15:58:14.430	-2.24	1.715	9.73	0.788852	-0.039528	0.285236	0.0555	0.75	-0.1665	0	207	128	3
2026-02-12	15:58:14.450	-10.605	4.935	12.25	0.81496	-0.097844	0.265472	0.0585	0.7485	-0.168	0	207	128	3
2026-02-12	15:58:14.470	-11.83	7.805	14.665	0.835944	-0.115168	0.264008	0.0615	0.753	-0.1695	0	207	128	3
2026-02-12	15:58:14.490	-14.98	9.695	17.185	0.859612	-0.141764	0.252784	0.0645	0.759	-0.1695	0	207	128	3
2026-02-12	15:58:14.510	-15.75	10.675	18.2	0.919392	-0.19032	0.24522	0.066	0.7635	-0.1665	0	207	128	3
2026-02-12	15:58:14.530	-13.965	11.13	17.99	0.921832	-0.209108	0.233752	0.066	0.762	-0.171	0	207	128	3
2026-02-12	15:58:14.550	-12.67	10.22	17.43	0.912072	-0.22204	0.2257	0.072	0.768	-0.174	0	207	128	3
2026-02-12	15:58:14.570	-11.235	7.77	16.485	0.909632	-0.221308	0.22204	0.075	0.7725	-0.168	0	207	128	3
2026-02-12	15:58:14.590	-10.01	4.41	15.05	0.915	-0.226432	0.226432	0.075	0.774	-0.165	0	207	128	3
2026-02-12	15:58:14.610	-10.605	1.225	14.42	0.925492	-0.227896	0.224968	0.0735	0.7785	-0.1665	0	207	163	3
2026-02-12	15:58:14.630	-13.545	-2.87	13.86	1.02846	-0.223504	0.216916	0.0735	0.78	-0.1635	0	207	163	3
2026-02-12	15:58:14.650	-14.49	-8.015	11.865	1.218292	-0.249612	0.224724	0.075	0.786	-0.162	0	207	163	3
2026-02-12	15:58:14.670	-6.825	-13.055	6.79	1.392752	-0.331596	0.224236	0.075	0.792	-0.1635	0	207	163	3
2026-02-12	15:58:14.690	12.32	-13.965	-0.385	1.3237	-0.368196	0.185684	0.0735	0.789	-0.165	0	207	163	3
2026-02-12	15:58:14.710	38.08	-19.005	-15.715	1.26758	-0.379908	0.187636	0.075	0.7845	-0.162	0	207	163	3
2026-02-12	15:58:14.730	55.65	-22.225	-30.8	1.272704	-0.411872	0.231312	0.0765	0.7815	-0.1605	0	207	163	3
2026-02-12	15:58:14.750	63.805	-17.185	-34.65	1.248304	-0.370148	0.251564	0.066	0.7755	-0.162	0	207	163	3
2026-02-12	15:58:14.770	52.36	-6.79	-29.015	1.186084	-0.293776	0.25498	0.063	0.768	-0.1665	0	207	163	3
2026-02-12	15:58:14.790	28.42	2.625	-18.55	1.121424	-0.295728	0.1586	0.06	0.7605	-0.171	0	207	163	3
2026-02-12	15:58:14.810	16.415	11.97	-4.795	1.039928	-0.21838	0.087596	0.051	0.7515	-0.1695	0	208	188	3
2026-02-12	15:58:14.830	9.485	15.715	8.365	0.996984	-0.165432	0.022936	0.054	0.747	-0.1725	0	208	188	3
2026-02-12	15:58:14.850	6.86	17.255	20.02	0.950868	-0.151524	0.000732	0.057	0.7515	-0.1815	0	208	188	3
2026-02-12	15:58:14.870	4.13	16.905	31.43	0.92598	-0.159088	0.016836	0.06	0.7605	-0.183	0	208	188	3
2026-02-12	15:58:14.890	-2.31	14.7	40.25	0.895236	-0.18422	0.026108	0.069	0.768	-0.183	0	208	188	3
2026-02-12	15:58:14.910	-8.4	12.495	46.375	0.859612	-0.208376	0.052216	0.0735	0.7725	-0.1875	0	208	188	3
2026-02-12	15:58:14.930	-12.95	8.26	51.17	0.804712	-0.267668	0.060512	0.072	0.777	-0.1875	0	208	188	3
2026-02-12	15:58:14.950	-8.75	5.215	50.54	0.763232	-0.232532	0.08418	0.075	0.786	-0.186	0	208	188	3
2026-02-12	15:58:14.970	-0.98	3.71	45.325	0.73566	-0.274012	0.069784	0.0825	0.792	-0.1875	0	208	188	3
2026-02-12	15:58:14.990	7.91	-0.035	39.9	0.710772	-0.226432	0.053192	0.0855	0.8025	-0.189	0	208	188	3
2026-02-12	15:58:15.010	15.015	-2.52	31.43	0.715652	-0.23912	0.03904	0.093	0.807	-0.1815	0	210	187	3
2026-02-12	15:58:15.030	21.385	-4.655	22.225	0.730048	-0.192516	0.03904	0.0945	0.8055	-0.18	0	210	187	3
2026-02-12	15:58:15.050	22.82	-6.615	14.28	0.745176	-0.20008	0.02074	0.0915	0.8085	-0.186	0	210	187	3
2026-02-12	15:58:15.070	28.175	-8.26	6.895	0.808128	-0.151768	0.030744	0.0975	0.8115	-0.1935	0	210	187	3
2026-02-12	15:58:15.090	30.94	-9.59	-0.175	0.865468	-0.120292	0.01586	0.0975	0.8115	-0.1965	0	210	187	3
2026-02-12	15:58:15.110	30.135	-10.255	-6.93	0.953552	-0.094428	0.0366	0.096	0.8115	-0.195	0	210	187	3
2026-02-12	15:58:15.130	25.48	-10.43	-13.195	1.00162	-0.088084	0.050752	0.0975	0.8085	-0.192	0	210	187	3
2026-02-12	15:58:15.150	15.225	-10.22	-21.455	1.049932	-0.098088	0.064904	0.099	0.8055	-0.1905	0	210	187	3
2026-02-12	15:58:15.170	11.585	-10.85	-25.9	1.118984	-0.114192	0.0732	0.096	0.7995	-0.1935	0	210	187	3
2026-02-12	15:58:15.190	10.115	-10.395	-30.625	1.18828	-0.116388	0.084912	0.087	0.7935	-0.1935	0	210	187	3
2026-02-12	15:58:15.210	11.62	-10.08	-36.785	1.281	-0.122	0.09272	0.0825	0.7875	-0.1935	0	213	164	3
2026-02-12	15:58:15.230	12.495	-8.505	-44.94	1.358348	-0.134688	0.111752	0.081	0.7845	-0.1905	0	213	164	3
2026-02-12	15:58:15.250	12.705	-6.79	-54.495	1.36884	-0.166164	0.144692	0.078	0.7815	-0.192	0	213	164	3
2026-02-12	15:58:15.270	11.165	-3.885	-63.245	1.342	-0.153232	0.146888	0.072	0.7725	-0.1935	0	213	164	3
2026-02-12	15:58:15.290	3.85	-1.645	-70.035	1.31516	-0.160552	0.102724	0.066	0.7665	-0.1935	0	213	164	3
2026-02-12	15:58:15.310	-5.25	-1.33	-73.01	1.206336	-0.168848	0.100284	0.0615	0.756	-0.198	0	213	164	3
2026-02-12	15:58:15.330	-5.775	-4.41	-70	1.09434	-0.233752	0.12566	0.0585	0.741	-0.1965	0	213	164	3
2026-02-12	15:58:15.350	4.935	-8.26	-56.98	1.01016	-0.19886	0.222528	0.051	0.7335	-0.192	0	213	164	3
2026-02-12	15:58:15.370	14.14	-8.96	-34.65	0.951844	-0.168116	0.298168	0.045	0.7275	-0.192	0	213	164	3
2026-02-12	15:58:15.390	23.31	-6.09	-15.435	0.950136	0.022204	0.300608	0.0405	0.7245	-0.1905	0	213	164	3
2026-02-12	15:58:15.410	11.445	-0.63	2.835	0.957456	0.049044	0.24644	0.039	0.7215	-0.1905	0	215	144	3
2026-02-12	15:58:15.430	-5.11	6.895	16.52	0.946476	0.127856	0.192028	0.0405	0.7185	-0.189	0	215	144	3
2026-02-12	15:58:15.450	-29.575	12.565	26.075	0.909144	0.165432	0.170312	0.0375	0.7155	-0.189	0	215	144	3
2026-02-12	15:58:15.470	-56.21	15.4	31.22	0.890356	0.135176	0.169336	0.0405	0.7185	-0.1905	0	215	144	3
2026-02-12	15:58:15.490	-75.635	15.715	31.5	0.875716	0.08418	0.210328	0.0495	0.729	-0.1875	0	215	144	3
2026-02-12	15:58:15.510	-86.8	15.26	30.975	0.853024	0.021472	0.246928	0.0525	0.7395	-0.183	0	215	144	3
2026-02-12	15:58:15.530	-87.395	15.19	28.84	0.830088	-0.005368	0.273768	0.054	0.75	-0.174	0	215	144	3
2026-02-12	15:58:15.550	-78.75	14.77	24.745	0.797636	-0.023668	0.2867	0.06	0.7575	-0.1725	0	215	144	3
2026-02-12	15:58:15.570	-63.77	13.055	17.01	0.7564	-0.032452	0.309392	0.0675	0.765	-0.174	0	215	144	3
2026-02-12	15:58:15.590	-58.625	12.145	12.32	0.729072	-0.067832	0.302072	0.0675	0.7725	-0.168	0	215	144	3
2026-02-12	15:58:15.610	-48.615	11.235	5.845	0.72102	-0.018544	0.284504	0.0675	0.777	-0.162	0	218	146	3
2026-02-12	15:58:15.630	-45.535	10.08	0.77	0.716384	-0.041236	0.263764	0.0705	0.7845	-0.1575	0	218	146	3
2026-02-12	15:58:15.650	-40.775	8.645	-3.78	0.732976	-0.064904	0.250832	0.069	0.7935	-0.159	0	218	146	3
2026-02-12	15:58:15.670	-34.195	5.915	-9.38	0.752252	-0.09638	0.23668	0.0705	0.798	-0.159	0	218	146	3
2026-02-12	15:58:15.690	-24.885	2.1	-15.925	0.772016	-0.126636	0.267912	0.0735	0.801	-0.1515	0	218	146	3
2026-02-12	15:58:15.710	-16.31	-2.52	-22.785	0.839604	-0.196176	0.315736	0.0705	0.792	-0.1515	0	218	146	3
2026-02-12	15:58:15.730	-7.42	-5.565	-29.12	0.921588	-0.272548	0.33794	0.066	0.783	-0.1485	0	218	146	3
2026-02-12	15:58:15.750	7.595	-6.86	-34.23	0.981124	-0.25254	0.359656	0.0585	0.786	-0.147	0	218	146	3
2026-02-12	15:58:15.770	14.525	-7.56	-38.15	1.012844	-0.321104	0.342576	0.06	0.786	-0.15	0	218	146	3
2026-02-12	15:58:15.790	33.25	-9.135	-41.195	1.010648	-0.281088	0.354532	0.0585	0.7815	-0.147	0	218	146	3
2026-02-12	15:58:15.810	35.595	-10.675	-40.145	1.0553	-0.332084	0.35014	0.051	0.771	-0.144	0	221	170	3
2026-02-12	15:58:15.830	44.135	-11.725	-39.165	1.076772	-0.294508	0.331596	0.0465	0.7605	-0.1515	0	221	170	3
2026-02-12	15:58:15.850	45.115	-13.195	-37.415	1.155096	-0.25254	0.310612	0.0405	0.7575	-0.156	0	221	170	3
2026-02-12	15:58:15.870	38.255	-14.91	-35.56	1.275632	-0.246684	0.286456	0.039	0.7485	-0.1545	0	221	170	3
2026-02-12	15:58:15.890	28.56	-15.33	-34.895	1.450824	-0.25254	0.283772	0.039	0.738	-0.1575	0	221	170	3
2026-02-12	15:58:15.910	18.165	-13.755	-33.25	1.544764	-0.278892	0.277184	0.039	0.7335	-0.1575	0	221	170	3
2026-02-12	15:58:15.930	10.675	-10.22	-27.685	1.467416	-0.300364	0.29524	0.0345	0.723	-0.1575	0	221	170	3
2026-02-12	15:58:15.950	3.08	-4.41	-19.145	1.309304	-0.294752	0.290848	0.033	0.7155	-0.1545	0	221	170	3
2026-02-12	15:58:15.970	-6.65	-3.78	-3.22	1.148508	-0.305976	0.243756	0.0285	0.7185	-0.15	0	221	170	3
2026-02-12	15:58:15.990	-2.135	-4.585	22.33	0.999668	-0.280356	0.197152	0.0225	0.7185	-0.1515	0	221	170	3
2026-02-12	15:58:16.010	14.91	-6.685	47.775	0.945012	-0.23546	0.17202	0.0255	0.723	-0.1515	0	224	201	3
2026-02-12	15:58:16.030	31.885	-7.7	65.03	0.957456	-0.209108	0.151768	0.033	0.729	-0.153	0	224	201	3
2026-02-12	15:58:16.050	42.91	-5.985	76.65	0.957212	-0.18178	0.144692	0.036	0.7335	-0.153	0	224	201	3
2026-02-12	15:58:16.070	43.855	-1.575	81.97	0.956968	-0.136884	0.146156	0.0405	0.744	-0.15	0	224	201	3
2026-02-12	15:58:16.090	34.825	4.025	83.86	0.88694	-0.146156	0.116144	0.048	0.7575	-0.153	0	224	201	3
2026-02-12	15:58:16.110	22.47	7.525	84.07	0.836432	-0.122244	0.091744	0.0495	0.7635	-0.1575	0	224	201	3
2026-02-12	15:58:16.130	7.035	9.8	81.83	0.785924	-0.144204	0.080764	0.054	0.7695	-0.165	0	224	201	3
2026-02-12	15:58:16.150	-3.045	12.005	77.56	0.746396	-0.125904	0.081984	0.069	0.78	-0.168	0	224	201	3
2026-02-12	15:58:16.170	-12.985	11.235	74.13	0.725412	-0.189344	0.083936	0.075	0.786	-0.165	0	224	201	3
2026-02-12	15:58:16.190	-14.77	10.43	69.93	0.725168	-0.18544	0.088328	0.0795	0.801	-0.165	0	224	201	3
2026-02-12	15:58:16.210	-10.57	9.205	62.79	0.741028	-0.210084	0.066368	0.087	0.813	-0.1665	0	227	212	3
2026-02-12	15:58:16.230	0.525	8.33	57.19	0.777872	-0.186416	0.051972	0.099	0.819	-0.1665	0	227	212	3
2026-02-12	15:58:16.250	7.35	6.195	51.625	0.797392	-0.19032	0.034648	0.1065	0.8295	-0.1665	0	227	212	3
2026-02-12	15:58:16.270	13.79	4.235	44.94	0.835944	-0.191784	0.03538	0.1095	0.843	-0.1635	0	227	212	3
2026-02-12	15:58:16.290	18.97	2.275	37.485	0.892308	-0.184952	0.03294	0.12	0.849	-0.1635	0	227	212	3
2026-02-12	15:58:16.310	20.545	0.63	28.945	0.959896	-0.180804	0.02806	0.126	0.849	-0.165	0	227	212	3
2026-02-12	15:58:16.330	20.125	-1.015	18.935	0.986492	-0.176656	0.023912	0.1275	0.8505	-0.165	0	227	212	3
2026-02-12	15:58:16.350	18.655	-3.535	8.365	1.033828	-0.177144	0.026352	0.1305	0.849	-0.1665	0	227	212	3
2026-02-12	15:58:16.370	17.325	-7.455	-3.045	1.06018	-0.194224	0.04026	0.126	0.849	-0.168	0	227	212	3
2026-02-12	15:58:16.390	18.515	-11.69	-15.47	1.111908	-0.224968	0.078568	0.1245	0.8535	-0.1695	0	227	212	3
2026-02-12	15:58:16.410	21.63	-15.085	-27.65	1.163148	-0.249368	0.118096	0.129	0.852	-0.168	0	230	196	3
2026-02-12	15:58:16.430	32.9	-18.2	-45.815	1.254404	-0.272792	0.178852	0.1305	0.8505	-0.1695	0	230	196	3
2026-02-12	15:58:16.450	45.115	-17.115	-54.81	1.342976	-0.311588	0.210328	0.123	0.8445	-0.168	0	230	196	3
2026-02-12	15:58:16.470	56.875	-9.975	-60.2	1.358348	-0.257908	0.230824	0.111	0.8325	-0.1695	0	230	196	3
2026-02-12	15:58:16.490	57.89	0.315	-61.005	1.320528	-0.186904	0.192028	0.1065	0.8175	-0.177	0	230	196	3
2026-02-12	15:58:16.510	45.43	10.22	-60.095	1.24684	-0.044896	0.127856	0.105	0.8025	-0.1815	0	230	196	3
2026-02-12	15:58:16.530	13.685	15.505	-57.715	1.219024	0.001708	0.088816	0.0945	0.792	-0.1875	0	230	196	3
2026-02-12	15:58:16.550	-15.715	17.675	-55.23	1.160464	-0.0122	0.089548	0.0825	0.78	-0.1935	0	230	196	3
2026-02-12	15:58:16.570	-34.195	19.075	-50.155	1.084336	-0.005124	0.16104	0.0795	0.777	-0.192	0	230	196	3
2026-02-12	15:58:16.590	-53.025	17.045	-37.695	1.032608	-0.077104	0.21472	0.0825	0.7755	-0.1935	0	230	196	3
2026-02-12	15:58:16.610	-55.545	16.94	-27.16	1.067988	-0.04636	0.258884	0.0885	0.771	-0.1965	0	231	174	3
2026-02-12	15:58:16.630	-58.24	18.27	-9.975	1.052128	-0.085156	0.207644	0.0855	0.771	-0.1905	0	231	174	3
2026-02-12	15:58:16.650	-50.54	19.11	3.85	0.972096	-0.041724	0.168848	0.0825	0.7725	-0.186	0	231	174	3
2026-02-12	15:58:16.670	-46.725	17.395	10.22	0.897432	-0.027084	0.185196	0.081	0.78	-0.186	0	231	174	3
2026-02-12	15:58:16.690	-45.605	14.84	12.145	0.822768	-0.049776	0.20496	0.0825	0.786	-0.186	0	231	174	3
2026-02-12	15:58:16.710	-44.73	11.97	11.865	0.779336	-0.087352	0.213256	0.087	0.783	-0.183	0	231	174	3
2026-02-12	15:58:16.730	-41.86	9.17	10.22	0.73688	-0.116876	0.211304	0.0945	0.7845	-0.1785	0	231	174	3
2026-02-12	15:58:16.750	-36.995	6.195	7.455	0.7015	-0.148352	0.211792	0.099	0.7935	-0.18	0	231	174	3
2026-02-12	15:58:16.770	-30.17	3.36	4.025	0.670024	-0.164944	0.21838	0.1005	0.801	-0.183	0	231	174	3
2026-02-12	15:58:16.790	-23.45	0.875	0.14	0.64782	-0.176656	0.22936	0.0945	0.7995	-0.18	0	231	174	3
2026-02-12	15:58:16.810	-19.145	-1.435	-2.73	0.646112	-0.17568	0.242292	0.0915	0.801	-0.1725	0	231	166	3
2026-02-12	15:58:16.830	-18.725	-3.255	-4.515	0.663924	-0.176412	0.25132	0.0975	0.8055	-0.1665	0	231	166	3
2026-02-12	15:58:16.850	-22.05	-4.48	-6.65	0.681248	-0.198372	0.2501	0.099	0.8055	-0.1665	0	231	166	3
2026-02-12	15:58:16.870	-25.06	-5.95	-9.45	0.709552	-0.202276	0.285236	0.1005	0.804	-0.162	0	231	166	3
2026-02-12	15:58:16.890	-24.185	-7.385	-12.355	0.747372	-0.231068	0.30866	0.099	0.8055	-0.153	0	231	166	3
2026-02-12	15:58:16.910	-22.435	-10.22	-15.785	0.783972	-0.284992	0.341356	0.0975	0.8055	-0.1515	0	231	166	3
2026-02-12	15:58:16.930	-15.435	-15.995	-20.93	0.848144	-0.34648	0.396012	0.0945	0.8055	-0.153	0	231	166	3
2026-02-12	15:58:16.950	1.96	-20.86	-28.49	0.861808	-0.451644	0.458232	0.0885	0.804	-0.15	0	231	166	3
2026-02-12	15:58:16.970	31.745	-23.555	-36.155	0.900604	-0.496052	0.515328	0.0885	0.7965	-0.1455	0	231	166	3
2026-02-12	15:58:16.990	62.37	-20.895	-40.11	0.924272	-0.401624	0.515572	0.0855	0.7935	-0.147	0	231	166	3
2026-02-12	15:58:17.010	71.505	-17.5	-42.175	0.968436	-0.413824	0.438956	0.075	0.789	-0.1485	0	232	182	3
2026-02-12	15:58:17.030	78.82	-14.77	-45.57	1.066036	-0.323056	0.400892	0.0675	0.7725	-0.15	0	232	182	3
2026-02-12	15:58:17.050	73.43	-11.305	-48.125	1.174616	-0.321592	0.36844	0.066	0.7665	-0.1575	0	232	182	3
2026-02-12	15:58:17.070	59.955	-5.32	-50.435	1.304668	-0.229604	0.33794	0.0705	0.768	-0.159	0	232	182	3
2026-02-12	15:58:17.090	36.47	-2.065	-48.685	1.375916	-0.22326	0.305	0.0615	0.7545	-0.159	0	232	182	3
2026-02-12	15:58:17.110	12.355	-0.84	-45.815	1.453508	-0.274256	0.24888	0.054	0.735	-0.1635	0	232	182	3
2026-02-12	15:58:17.130	-6.265	1.12	-41.755	1.495964	-0.304512	0.23546	0.0555	0.7275	-0.1665	0	232	182	3
2026-02-12	15:58:17.150	-16.975	0.98	-31.99	1.469368	-0.329888	0.28914	0.051	0.72	-0.1635	0	232	182	3
2026-02-12	15:58:17.170	-19.53	3.78	-16.87	1.360056	-0.35624	0.345016	0.0465	0.714	-0.1635	0	232	182	3
2026-02-12	15:58:17.190	-16.625	10.85	3.045	1.218048	-0.288896	0.32818	0.0435	0.711	-0.1635	0	232	182	3
2026-02-12	15:58:17.210	-18.48	16.59	26.11	1.090192	-0.218624	0.216672	0.045	0.7155	-0.165	0	235	216	3
2026-02-12	15:58:17.230	-17.325	17.465	48.16	1.025288	-0.16592	0.137616	0.0525	0.72	-0.1725	0	235	216	3
2026-02-12	15:58:17.250	-13.79	17.395	64.995	0.95404	-0.102724	0.10858	0.054	0.726	-0.1695	0	235	216	3
2026-02-12	15:58:17.270	-15.575	18.375	77	0.868396	-0.066368	0.093696	0.0585	0.7425	-0.168	0	235	216	3
2026-02-12	15:58:17.290	-19.11	20.685	81.095	0.780556	-0.041236	0.064416	0.0675	0.7545	-0.174	0	235	216	3
2026-02-12	15:58:17.310	-26.88	21.945	80.64	0.750056	-0.064416	0.041236	0.072	0.759	-0.1785	0	235	216	3
2026-02-12	15:58:17.330	-40.075	22.05	79.94	0.736148	-0.149572	0.011224	0.0825	0.7695	-0.174	0	235	216	3
2026-02-12	15:58:17.350	-46.795	22.68	77.595	0.739808	-0.125904	0.038552	0.096	0.783	-0.1665	0	235	216	3
2026-02-12	15:58:17.370	-48.3	20.79	74.27	0.74054	-0.168848	0.045628	0.105	0.7935	-0.168	0	235	216	3
2026-02-12	15:58:17.390	-43.75	20.475	69.44	0.724192	-0.168604	0.060024	0.108	0.807	-0.1695	0	235	216	3
2026-02-12	15:58:17.410	-35.665	17.395	64.89	0.718092	-0.160308	0.051728	0.117	0.8235	-0.171	0	240	228	3
2026-02-12	15:58:17.430	-31.36	14.665	59.605	0.735416	-0.17446	0.050996	0.126	0.8325	-0.171	0	240	228	3
2026-02-12	15:58:17.450	-28.735	10.395	53.97	0.750056	-0.238144	0.034648	0.135	0.837	-0.171	0	240	228	3
2026-02-12	15:58:17.470	-19.95	5.6	47.74	0.788852	-0.195932	0.038308	0.144	0.843	-0.168	0	240	228	3
2026-02-12	15:58:17.490	-11.34	-1.68	39.13	0.832528	-0.225944	0.029524	0.1485	0.8475	-0.1635	0	240	228	3
2026-02-12	15:58:17.510	0.735	-8.575	27.825	0.867664	-0.233264	0.060756	0.15	0.8535	-0.1575	0	240	228	3
2026-02-12	15:58:17.530	8.995	-13.195	17.92	0.909144	-0.274012	0.07442	0.159	0.8565	-0.1545	0	240	228	3
2026-02-12	15:58:17.550	16.87	-17.185	7.175	0.959164	-0.282308	0.080032	0.1665	0.864	-0.156	0	240	228	3
2026-02-12	15:58:17.570	24.85	-21.315	-3.255	0.976488	-0.266692	0.084668	0.1635	0.8685	-0.153	0	240	228	3
2026-02-12	15:58:17.590	28.63	-26.635	-14.28	0.997472	-0.268644	0.105896	0.156	0.861	-0.1515	0	240	228	3
2026-02-12	15:58:17.610	32.655	-31.78	-25.235	1.025776	-0.286944	0.14152	0.156	0.861	-0.1545	0	246	209	3
2026-02-12	15:58:17.630	37.415	-35.595	-35.21	1.066036	-0.29768	0.175436	0.15	0.855	-0.156	0	246	209	3
2026-02-12	15:58:17.650	43.225	-38.465	-44.1	1.12972	-0.30744	0.205692	0.1395	0.846	-0.1545	0	246	209	3
2026-02-12	15:58:17.670	50.68	-39.025	-52.15	1.199748	-0.310124	0.230824	0.135	0.8415	-0.153	0	246	209	3
2026-02-12	15:58:17.690	58.87	-36.995	-59.36	1.271728	-0.298656	0.249368	0.129	0.837	-0.153	0	246	209	3
2026-02-12	15:58:17.710	63.385	-29.4	-66.36	1.327848	-0.268644	0.255224	0.123	0.834	-0.1545	0	246	209	3
2026-02-12	15:58:17.730	60.795	-22.54	-69.545	1.39202	-0.219112	0.230824	0.117	0.816	-0.159	0	246	209	3
2026-02-12	15:58:17.750	45.395	-14.91	-70.945	1.419348	-0.16226	0.207888	0.105	0.7965	-0.1635	0	246	209	3
2026-02-12	15:58:17.770	22.505	-8.365	-68.11	1.317112	-0.211792	0.166896	0.096	0.786	-0.1635	0	246	209	3
2026-02-12	15:58:17.790	10.99	-3.08	-61.46	1.211948	-0.159088	0.18666	0.093	0.768	-0.165	0	246	209	3
2026-02-12	15:58:17.810	1.155	0.14	-48.475	1.09068	-0.179096	0.245952	0.087	0.7605	-0.168	0	248	188	3
2026-02-12	15:58:17.830	-8.54	2.555	-27.265	1.01626	-0.223992	0.271572	0.0855	0.762	-0.165	0	248	188	3
2026-02-12	15:58:17.850	-11.445	6.335	-4.41	0.986492	-0.124928	0.260104	0.0855	0.753	-0.1635	0	248	188	3
2026-02-12	15:58:17.870	-17.22	9.135	17.92	0.953796	-0.104432	0.205204	0.084	0.7515	-0.165	0	248	188	3
2026-02-12	15:58:17.890	-20.825	11.935	34.09	0.935984	-0.058316	0.162748	0.084	0.7545	-0.165	0	248	188	3
2026-02-12	15:58:17.910	-30.66	11.585	45.57	0.872544	-0.05856	0.172996	0.0855	0.753	-0.1665	0	248	188	3
2026-02-12	15:58:17.930	-40.11	10.36	50.26	0.820572	-0.08906	0.224724	0.0855	0.753	-0.1665	0	248	188	3
2026-02-12	15:58:17.950	-47.46	12.565	48.335	0.775676	-0.10614	0.254248	0.0945	0.768	-0.162	0	248	188	3
2026-02-12	15:58:17.970	-53.935	15.19	43.925	0.739564	-0.097844	0.2806	0.102	0.786	-0.153	0	248	188	3
2026-02-12	15:58:17.990	-59.885	19.67	36.505	0.694424	-0.05612	0.307684	0.108	0.7935	-0.1515	0	248	188	3
2026-02-12	15:58:18.010	-65.975	25.725	24.71	0.636352	-0.014152	0.289628	0.1155	0.8025	-0.1485	0	250	184	3
2026-02-12	15:58:18.030	-75.635	29.505	11.83	0.603168	-0.004392	0.253028	0.1185	0.81	-0.1425	0	250	184	3
2026-02-12	15:58:18.050	-88.06	29.365	-0.595	0.605364	-0.074908	0.238632	0.1215	0.8145	-0.144	0	250	184	3
2026-02-12	15:58:18.070	-92.12	26.985	-10.85	0.64172	-0.153476	0.243268	0.1275	0.8205	-0.1395	0	250	184	3
2026-02-12	15:58:18.090	-86.555	22.61	-18.27	0.690276	-0.229116	0.245952	0.126	0.825	-0.1305	0	250	184	3
2026-02-12	15:58:18.110	-71.61	17.29	-20.545	0.728584	-0.304268	0.239852	0.1245	0.828	-0.1275	0	250	184	3
2026-02-12	15:58:18.130	-41.405	8.26	-18.515	0.77104	-0.326472	0.217404	0.1275	0.8265	-0.1305	0	250	184	3
2026-02-12	15:58:18.150	-6.615	-1.33	-17.605	0.845704	-0.31598	0.20862	0.1245	0.828	-0.1275	0	250	184	3
2026-02-12	15:58:18.170	17.43	-10.01	-19.04	0.940376	-0.318176	0.225944	0.1215	0.8235	-0.123	0	250	184	3
2026-02-12	15:58:18.190	36.96	-15.855	-24.08	0.98576	-0.345504	0.243512	0.1215	0.8235	-0.123	0	250	184	3
2026-02-12	15:58:18.210	45.5	-19.46	-30.52	0.98576	-0.38186	0.252296	0.117	0.825	-0.126	0	250	194	3
2026-02-12	15:58:18.230	49.77	-22.505	-38.15	0.941108	-0.385764	0.248392	0.111	0.819	-0.123	0	250	194	3
2026-02-12	15:58:18.250	49.98	-25.27	-45.675	0.937448	-0.370636	0.27328	0.1065	0.81	-0.123	0	250	194	3
2026-02-12	15:58:18.270	47.145	-26.915	-52.08	0.991372	-0.397232	0.314272	0.1035	0.804	-0.123	0	250	194	3
2026-02-12	15:58:18.290	40.32	-25.025	-59.01	1.087752	-0.472384	0.336964	0.0975	0.798	-0.126	0	250	194	3
2026-02-12	15:58:18.310	37.8	-21.14	-61.425	1.123132	-0.4087	0.335744	0.0885	0.786	-0.129	0	250	194	3
2026-02-12	15:58:18.330	26.32	-17.43	-61.285	1.16754	-0.389912	0.289872	0.087	0.78	-0.126	0	250	194	3
2026-02-12	15:58:18.350	8.68	-15.855	-56.945	1.323456	-0.385764	0.229848	0.087	0.78	-0.126	0	250	194	3
2026-02-12	15:58:18.370	7.105	-15.33	-51.765	1.42008	-0.407968	0.228384	0.078	0.762	-0.126	0	250	194	3
2026-02-12	15:58:18.390	13.79	-13.09	-43.68	1.482544	-0.395036	0.268156	0.0645	0.7485	-0.1245	0	250	194	3
2026-02-12	15:58:18.410	18.9	-9.52	-28.49	1.406172	-0.355996	0.273036	0.0585	0.744	-0.123	0	250	210	3
2026-02-12	15:58:18.430	14.63	-4.2	-11.76	1.306864	-0.319152	0.259616	0.057	0.738	-0.123	0	250	210	3
2026-02-12	15:58:18.450	9.66	-0.84	11.655	1.055544	-0.31354	0.209596	0.0615	0.7365	-0.1215	0	250	210	3
2026-02-12	15:58:18.470	17.255	-1.33	33.11	0.925736	-0.232044	0.203008	0.069	0.735	-0.12	0	250	210	3
2026-02-12	15:58:18.490	25.305	-3.29	52.045	0.897432	-0.19398	0.2013	0.066	0.7305	-0.1215	0	250	210	3
2026-02-12	15:58:18.510	30.45	-2.52	65.66	0.911096	-0.189588	0.197152	0.066	0.738	-0.1305	0	250	210	3
2026-02-12	15:58:18.530	35.875	1.26	74.725	0.93452	-0.148596	0.174216	0.0765	0.7485	-0.1335	0	250	210	3
2026-02-12	15:58:18.550	34.79	9.695	76.755	0.904508	-0.080276	0.115412	0.0825	0.7515	-0.1305	0	250	210	3
2026-02-12	15:58:18.570	21.42	17.115	72.73	0.894992	-0.058804	0.056608	0.0825	0.7515	-0.1305	0	250	210	3
2026-02-12	15:58:18.590	5.355	20.79	66.29	0.864736	-0.050752	0.020984	0.087	0.765	-0.1395	0	250	210	3
2026-02-12	15:58:18.610	-9.555	22.855	56.665	0.837652	-0.049288	0.018788	0.0945	0.7785	-0.1455	0	250	218	3
2026-02-12	15:58:18.630	-24.57	22.225	46.795	0.813984	-0.090036	0.030012	0.108	0.7845	-0.141	0	250	218	3
2026-02-12	15:58:18.650	-36.085	20.23	38.465	0.770064	-0.160552	0.036112	0.1155	0.7935	-0.1455	0	250	218	3
2026-02-12	15:58:18.670	-37.03	17.395	31.57	0.76494	-0.196908	0.045384	0.117	0.804	-0.1485	0	250	218	3
2026-02-12	15:58:18.690	-30.38	12.845	27.265	0.769088	-0.24644	0.045384	0.1245	0.8115	-0.1455	0	250	218	3
2026-02-12	15:58:18.710	-14	7.665	24.43	0.80276	-0.270352	0.044896	0.1275	0.8115	-0.1455	0	250	218	3
2026-02-12	15:58:18.730	7.14	2.065	22.26	0.826672	-0.233264	0.041968	0.129	0.813	-0.15	0	250	218	3
2026-02-12	15:58:18.750	26.67	-3.57	20.16	0.82228	-0.23546	0.034404	0.1305	0.816	-0.153	0	250	218	3
2026-02-12	15:58:18.770	46.585	-10.745	16.555	0.841556	-0.2257	0.030256	0.135	0.81	-0.1395	0	250	218	3
2026-02-12	15:58:18.790	59.36	-17.36	12.25	0.885964	-0.225944	0.028792	0.1365	0.813	-0.1485	0	250	218	3
2026-02-12	15:58:18.810	64.435	-21.07	7.455	0.92842	-0.205204	0.05124	0.1365	0.8145	-0.1575	0	249	202	3
2026-02-12	15:58:18.830	65.03	-23.8	1.645	0.975268	-0.210816	0.070516	0.132	0.8115	-0.1575	0	249	202	3
2026-02-12	15:58:18.850	63.84	-24.815	-6.23	1.053836	-0.190564	0.097844	0.1365	0.8085	-0.162	0	249	202	3
2026-02-12	15:58:18.870	58.345	-23.73	-14.42	1.143628	-0.189832	0.115168	0.135	0.804	-0.1635	0	249	202	3
2026-02-12	15:58:18.890	48.755	-20.37	-23.73	1.229516	-0.159576	0.118828	0.129	0.7995	-0.168	0	249	202	3
2026-02-12	15:58:18.910	36.155	-16.45	-34.265	1.298324	-0.144692	0.107848	0.129	0.801	-0.1695	0	249	202	3
2026-02-12	15:58:18.930	24.15	-13.09	-45.115	1.334924	-0.165676	0.1037	0.126	0.795	-0.1665	0	249	202	3
2026-02-12	15:58:18.950	16.625	-10.255	-54.25	1.348832	-0.172752	0.134444	0.12	0.7815	-0.165	0	249	202	3
2026-02-12	15:58:18.970	8.505	-6.93	-60.2	1.395436	-0.165676	0.157868	0.1125	0.777	-0.165	0	249	202	3
2026-02-12	15:58:18.990	-4.865	-0.665	-61.53	1.360788	-0.140544	0.11712	0.117	0.7695	-0.1695	0	249	202	3
2026-02-12	15:58:19.010	-8.925	1.89	-56.735	1.282952	-0.133224	0.1037	0.108	0.762	-0.168	0	248	175	3
2026-02-12	15:58:19.030	-9.275	-0.455	-47.495	1.179496	-0.081008	0.140056	0.1005	0.75	-0.1665	0	248	175	3
2026-02-12	15:58:19.050	-8.155	-2.765	-32.095	1.06384	-0.12932	0.184464	0.099	0.7455	-0.1695	0	248	175	3
2026-02-12	15:58:19.070	4.27	-3.71	-14.91	0.981368	-0.051484	0.239364	0.099	0.7425	-0.1665	0	248	175	3
2026-02-12	15:58:19.090	7.28	-2.03	3.045	0.953796	0.01952	0.216428	0.096	0.735	-0.165	0	248	175	3
2026-02-12	15:58:19.110	-0.63	3.745	17.955	0.916952	0.084912	0.168848	0.0915	0.7335	-0.1725	0	248	175	3
2026-02-12	15:58:19.130	-14.525	9.625	27.23	0.860588	0.12566	0.120536	0.093	0.738	-0.171	0	248	175	3
2026-02-12	15:58:19.150	-34.65	13.72	31.395	0.799588	0.100284	0.10248	0.0915	0.7425	-0.1665	0	248	175	3
2026-02-12	15:58:19.170	-55.475	15.89	31.465	0.7625	0.11224	0.186904	0.0945	0.7425	-0.1665	0	248	175	3
2026-02-12	15:58:19.190	-78.365	23.345	22.715	0.709064	0.19276	0.305	0.1005	0.741	-0.1665	0	248	175	3
2026-02-12	15:58:19.210	-103.495	35.805	4.095	0.660264	0.21716	0.292312	0.105	0.753	-0.162	0	247	158	3
2026-02-12	15:58:19.230	-131.425	42.385	-14.35	0.639524	0.12078	0.220576	0.114	0.7635	-0.156	0	247	158	3
2026-02-12	15:58:19.250	-155.33	43.575	-31.29	0.645624	-0.03904	0.141764	0.114	0.7695	-0.153	0	247	158	3
2026-02-12	15:58:19.270	-167.65	42	-44.485	0.661972	-0.130052	0.162992	0.111	0.777	-0.1455	0	247	158	3
2026-02-12	15:58:19.290	-161.455	35.84	-52.36	0.710284	-0.30378	0.18788	0.111	0.7815	-0.1365	0	247	158	3
2026-02-12	15:58:19.310	-131.985	29.05	-53.235	0.751032	-0.426024	0.239852	0.108	0.786	-0.1305	0	247	158	3
2026-02-12	15:58:19.330	-88.095	22.015	-46.725	0.741516	-0.439932	0.215696	0.1095	0.7845	-0.12	0	247	158	3
2026-02-12	15:58:19.350	-41.51	14.455	-40.285	0.703452	-0.40626	0.152988	0.1095	0.783	-0.111	0	247	158	3
2026-02-12	15:58:19.370	5.145	-0.735	-36.925	0.929152	-0.333792	0.153232	0.1065	0.783	-0.117	0	247	158	3
2026-02-12	15:58:19.390	44.03	-10.15	-39.865	1.02724	-0.321592	0.202764	0.1035	0.78	-0.1245	0	247	158	3
2026-02-12	15:58:19.410	74.655	-20.58	-42.175	1.066036	-0.334768	0.29646	0.102	0.7755	-0.1125	0	248	159	3
2026-02-12	15:58:19.430	79.45	-24.29	-43.085	1.027728	-0.4087	0.330376	0.0915	0.765	-0.1155	0	248	159	3
2026-02-12	15:58:19.450	71.365	-22.82	-43.33	1.001864	-0.390156	0.302072	0.087	0.7515	-0.1185	0	248	159	3
2026-02-12	15:58:19.470	62.755	-19.53	-43.89	1.071892	-0.402356	0.284992	0.0885	0.747	-0.1215	0	248	159	3
2026-02-12	15:58:19.490	58.485	-15.75	-43.225	1.123376	-0.37942	0.286944	0.081	0.7365	-0.1245	0	248	159	3
2026-02-12	15:58:19.510	48.125	-13.475	-38.185	1.178032	-0.356728	0.273036	0.0795	0.7215	-0.1275	0	248	159	3
2026-02-12	15:58:19.530	35.385	-11.27	-30.17	1.23708	-0.33184	0.265472	0.0765	0.7185	-0.1305	0	248	159	3
2026-02-12	15:58:19.550	21.28	-10.36	-20.16	1.328824	-0.329644	0.274744	0.069	0.7155	-0.129	0	248	159	3
2026-02-12	15:58:19.570	10.64	-9.345	-5.075	1.417884	-0.336232	0.271816	0.069	0.7095	-0.1305	0	248	159	3
2026-02-12	15:58:19.590	12.6	-9.135	12.635	1.44448	-0.297436	0.274012	0.072	0.7065	-0.1305	0	248	159	3
2026-02-12	15:58:19.610	21.98	-9.94	30.555	1.433012	-0.259372	0.26474	0.0735	0.7065	-0.1305	0	251	175	3
2026-02-12	15:58:19.630	36.995	-11.305	48.615	1.308816	-0.200812	0.24156	0.057	0.702	-0.132	0	251	175	3
2026-02-12	15:58:19.650	44.275	-9.52	55.86	1.167296	-0.136152	0.2196	0.06	0.708	-0.129	0	251	175	3
2026-02-12	15:58:19.670	45.78	-5.705	60.375	1.040904	-0.084912	0.191296	0.069	0.714	-0.1275	0	251	175	3
2026-02-12	15:58:19.690	40.845	-1.225	62.195	0.9638	-0.061488	0.18178	0.0795	0.723	-0.1335	0	251	175	3
2026-02-12	15:58:19.710	29.75	4.025	62.545	0.91866	-0.042212	0.159332	0.087	0.7275	-0.135	0	251	175	3
2026-02-12	15:58:19.730	14.525	9.45	62.09	0.906948	-0.031964	0.134932	0.0915	0.729	-0.135	0	251	175	3
2026-02-12	15:58:19.750	-1.54	14.07	61.32	0.893528	-0.035624	0.090036	0.0885	0.738	-0.141	0	251	175	3
2026-02-12	15:58:19.770	-15.295	16.975	59.92	0.88084	-0.040504	0.04148	0.093	0.7455	-0.1425	0	251	175	3
2026-02-12	15:58:19.790	-21.315	18.025	56.28	0.885964	-0.037332	0.004636	0.1035	0.7575	-0.144	0	251	175	3
2026-02-12	15:58:19.810	-21.455	18.095	52.36	0.864736	-0.048068	-0.012444	0.1065	0.765	-0.1455	0	256	188	3
2026-02-12	15:58:19.830	-17.605	15.855	48.09	0.810812	-0.09076799	-0.006588	0.111	0.765	-0.1395	0	256	188	3
2026-02-12	15:58:19.850	-14.315	11.865	44.345	0.783728	-0.111996	0.01586	0.111	0.765	-0.1395	0	256	188	3
2026-02-12	15:58:19.870	-11.69	9.38	40.775	0.761524	-0.161284	0.016592	0.1155	0.771	-0.1425	0	256	188	3
2026-02-12	15:58:19.890	-3.955	6.545	37.17	0.7503	-0.1464	0.03782	0.1215	0.7845	-0.1425	0	256	188	3
2026-02-12	15:58:19.910	1.47	2.975	34.16	0.739808	-0.164456	0.028304	0.129	0.7935	-0.1425	0	256	188	3
2026-02-12	15:58:19.930	6.23	-0.35	30.87	0.738588	-0.166408	0.027816	0.1365	0.7965	-0.1455	0	256	188	3
2026-02-12	15:58:19.950	9.73	-3.78	26.95	0.755668	-0.214476	0.023912	0.1335	0.7965	-0.141	0	256	188	3
2026-02-12	15:58:19.970	17.605	-6.72	22.89	0.778604	-0.195444	0.032696	0.1335	0.801	-0.138	0	256	188	3
2026-02-12	15:58:19.990	20.895	-10.465	18.06	0.833504	-0.20252	0.04026	0.141	0.8025	-0.1425	0	256	188	3
2026-02-12	15:58:20.010	25.725	-14.035	9.205	0.930372	-0.216428	0.050508	0.1485	0.801	-0.1455	0	260	176	3
2026-02-12	15:58:20.030	29.505	-15.12	2.45	0.983076	-0.198616	0.062708	0.144	0.8085	-0.135	0	260	176	3
2026-02-12	15:58:20.050	30.275	-16.59	-10.08	1.047492	-0.202764	0.085644	0.1395	0.8025	-0.1395	0	260	176	3
2026-02-12	15:58:20.070	29.26	-17.815	-22.925	1.092632	-0.205448	0.111508	0.1395	0.7965	-0.144	0	260	176	3
2026-02-12	15:58:20.090	23.8	-17.955	-31.08	1.147532	-0.21106	0.127612	0.138	0.7905	-0.1455	0	260	176	3
2026-02-12	15:58:20.110	20.195	-17.36	-39.62	1.204872	-0.219112	0.136396	0.1305	0.7875	-0.1425	0	260	176	3
2026-02-12	15:58:20.130	19.18	-15.785	-47.74	1.27978	-0.231068	0.148352	0.129	0.786	-0.144	0	260	176	3
2026-02-12	15:58:20.150	19.32	-13.23	-53.725	1.323944	-0.2379	0.186416	0.1275	0.7785	-0.1395	0	260	176	3
2026-02-12	15:58:20.170	20.475	-8.61	-56.21	1.327116	-0.288408	0.221064	0.1185	0.7665	-0.1395	0	260	176	3
2026-02-12	15:58:20.190	22.05	-0.56	-53.2	1.32248	-0.299388	0.270352	0.12	0.759	-0.144	0	260	176	3
2026-02-12	15:58:20.210	15.295	8.61	-45.465	1.373232	-0.260836	0.264008	0.1155	0.753	-0.147	0	261	156	3
2026-02-12	15:58:20.230	-1.505	18.34	-35.665	1.311256	-0.261324	0.20618	0.108	0.7485	-0.1485	0	261	156	3
2026-02-12	15:58:20.250	-16.485	24.815	-25.235	1.21146	-0.22936	0.18178	0.1095	0.738	-0.1485	0	261	156	3
2026-02-12	15:58:20.270	-30.87	25.865	-7.175	1.009916	-0.243512	0.262056	0.1005	0.735	-0.1545	0	261	156	3
2026-02-12	15:58:20.290	-31.605	25.935	8.89	0.927688	-0.212524	0.31354	0.099	0.7395	-0.1515	0	261	156	3
2026-02-12	15:58:20.310	-38.465	27.37	27.51	0.895968	-0.155428	0.306952	0.108	0.7455	-0.1545	0	261	156	3
2026-02-12	15:58:20.330	-49.7	28.455	44.17	0.907924	-0.119316	0.255712	0.114	0.7485	-0.159	0	261	156	3
2026-02-12	15:58:20.350	-56.28	29.33	54.425	0.893284	-0.106628	0.227896	0.1185	0.759	-0.156	0	261	156	3
2026-02-12	15:58:20.370	-56.735	29.225	58.485	0.862296	-0.091256	0.231068	0.1275	0.7665	-0.1545	0	261	156	3
2026-02-12	15:58:20.390	-56.84	28.245	58.135	0.813496	-0.091988	0.239364	0.1275	0.7695	-0.153	0	261	156	3
2026-02-12	15:58:20.410	-59.185	26.39	55.685	0.770064	-0.133468	0.244732	0.135	0.7815	-0.1515	0	261	155	3
2026-02-12	15:58:20.430	-59.955	23.695	52.675	0.746396	-0.19154	0.253028	0.1425	0.7965	-0.15	0	261	155	3
2026-02-12	15:58:20.450	-55.055	21.21	49.035	0.726388	-0.22692	0.256932	0.1425	0.801	-0.147	0	261	155	3
2026-02-12	15:58:20.470	-36.4	18.76	42.98	0.70638	-0.234728	0.264496	0.147	0.7995	-0.141	0	261	155	3
2026-02-12	15:58:20.490	-17.92	16.03	36.225	0.691496	-0.188368	0.26474	0.147	0.7995	-0.141	0	261	155	3
2026-02-12	15:58:20.510	-7.595	11.48	29.19	0.685884	-0.182268	0.274744	0.156	0.81	-0.1365	0	261	155	3
2026-02-12	15:58:20.530	2.8	6.16	20.58	0.66002	-0.201788	0.301096	0.1695	0.8235	-0.135	0	261	155	3
2026-02-12	15:58:20.550	11.795	1.05	12.005	0.636596	-0.210572	0.317932	0.171	0.8265	-0.1425	0	261	155	3
2026-02-12	15:58:20.570	15.995	-3.325	3.955	0.633424	-0.231068	0.327448	0.168	0.8265	-0.1455	0	261	155	3
2026-02-12	15:58:20.590	17.71	-6.265	-3.115	0.652212	-0.25498	0.330132	0.1695	0.8235	-0.144	0	261	155	3
2026-02-12	15:58:20.610	17.92	-7.7	-9.17	0.68076	-0.247172	0.317444	0.1755	0.8235	-0.144	0	259	173	3
2026-02-12	15:58:20.630	15.54	-8.68	-15.19	0.72834	-0.269864	0.284748	0.174	0.8235	-0.1455	0	259	173	3
2026-02-12	15:58:20.650	14.28	-10.395	-22.19	0.794708	-0.288652	0.259616	0.1695	0.822	-0.15	0	259	173	3
2026-02-12	15:58:20.670	13.16	-13.37	-30.24	0.864004	-0.315736	0.243268	0.171	0.822	-0.1515	0	259	173	3
2026-02-12	15:58:20.690	16.555	-18.55	-42.98	0.913048	-0.371368	0.2501	0.165	0.8205	-0.144	0	259	173	3
2026-02-12	15:58:20.710	23.975	-24.22	-56.735	0.930616	-0.4209	0.27816	0.159	0.8175	-0.1365	0	259	173	3
2026-02-12	15:58:20.730	29.54	-28.665	-67.025	0.956236	-0.457256	0.303536	0.153	0.8055	-0.132	0	259	173	3
2026-02-12	15:58:20.750	32.62	-30.555	-74.76	1.026752	-0.471164	0.326472	0.147	0.792	-0.141	0	259	173	3
2026-02-12	15:58:20.770	29.785	-31.08	-78.82	1.149484	-0.453596	0.31842	0.138	0.783	-0.1455	0	259	173	3
2026-02-12	15:58:20.790	23.73	-28.84	-79.765	1.266116	-0.426756	0.306708	0.126	0.771	-0.141	0	259	173	3
2026-02-12	15:58:20.810	11.095	-25.235	-77.455	1.317844	-0.365268	0.295972	0.1155	0.762	-0.1395	0	257	200	3
2026-02-12	15:58:20.830	-7.77	-22.365	-72.975	1.396656	-0.360144	0.282064	0.108	0.7545	-0.141	0	257	200	3
2026-02-12	15:58:20.850	-22.4	-19.215	-68.565	1.450092	-0.376248	0.257908	0.102	0.7425	-0.1395	0	257	200	3
2026-02-12	15:58:20.870	-30.66	-14.455	-61.215	1.430816	-0.368684	0.238632	0.102	0.7365	-0.138	0	257	200	3
2026-02-12	15:58:20.890	-41.23	-10.15	-48.79	1.310768	-0.372832	0.209352	0.096	0.729	-0.1275	0	257	200	3
2026-02-12	15:58:20.910	-48.02	-8.015	-24.535	1.06506	-0.370392	0.198372	0.0915	0.732	-0.126	0	257	200	3
2026-02-12	15:58:20.930	-40.215	-9.415	-7.14	0.960872	-0.384544	0.214232	0.087	0.729	-0.114	0	257	200	3
2026-02-12	15:58:20.950	-23.485	-10.045	10.78	0.898652	-0.372344	0.218868	0.0825	0.7245	-0.105	0	257	200	3
2026-02-12	15:58:20.970	-4.095	-9.03	27.545	0.889868	-0.366	0.177632	0.081	0.7305	-0.1095	0	257	200	3
2026-02-12	15:58:20.990	15.82	-5.95	41.44	0.881572	-0.332572	0.123708	0.084	0.735	-0.1065	0	257	200	3
2026-02-12	15:58:21.010	30.17	-1.715	51.66	0.86742	-0.282064	0.087596	0.0885	0.7335	-0.105	0	255	220	3
2026-02-12	15:58:21.030	34.125	2.205	58.31	0.875472	-0.22326	0.075884	0.0945	0.735	-0.1065	0	255	220	3
2026-02-12	15:58:21.050	28.56	5.845	61.915	0.850584	-0.2196	0.060268	0.0975	0.7425	-0.1125	0	255	220	3
2026-02-12	15:58:21.070	19.88	8.015	61.635	0.854488	-0.166896	0.065148	0.099	0.7485	-0.1215	0	255	220	3
2026-02-12	15:58:21.090	7.175	8.68	58.73	0.798612	-0.198372	0.054412	0.099	0.75	-0.1245	0	255	220	3
2026-02-12	15:58:21.110	-5.53	7.385	52.535	0.765184	-0.205204	0.054656	0.0975	0.753	-0.12	0	255	220	3
2026-02-12	15:58:21.130	-15.785	5.53	45.64	0.73444	-0.239852	0.056364	0.0975	0.753	-0.12	0	255	220	3
2026-02-12	15:58:21.150	-16.065	3.535	39.62	0.734928	-0.278648	0.06832	0.1065	0.7635	-0.123	0	255	220	3
2026-02-12	15:58:21.170	-8.785	1.155	33.495	0.752252	-0.27328	0.072956	0.114	0.7815	-0.1215	0	255	220	3
2026-02-12	15:58:21.190	-1.68	-1.68	26.915	0.769576	-0.316468	0.066368	0.1125	0.7935	-0.12	0	255	220	3
2026-02-12	15:58:21.210	12.635	-4.795	19.775	0.796904	-0.313784	0.06734399	0.117	0.795	-0.123	0	254	214	3
2026-02-12	15:58:21.230	27.405	-8.82	12.635	0.841068	-0.292312	0.068564	0.12	0.7905	-0.1185	0	254	214	3
2026-02-12	15:58:21.250	39.41	-13.3	5.74	0.878644	-0.288896	0.069296	0.12	0.7965	-0.12	0	254	214	3
2026-02-12	15:58:21.270	49.035	-17.465	-0.385	0.909388	-0.287432	0.07564	0.1245	0.801	-0.1215	0	254	214	3
2026-02-12	15:58:21.290	55.93	-21.28	-5.705	0.942816	-0.28182	0.085888	0.129	0.7995	-0.12	0	254	214	3
2026-02-12	15:58:21.310	61.145	-23.835	-10.675	1.002352	-0.279868	0.105896	0.117	0.789	-0.1275	0	254	214	3
2026-02-12	15:58:21.330	65.555	-24.64	-14.98	1.07848	-0.282308	0.12566	0.1185	0.783	-0.1215	0	254	214	3
2026-02-12	15:58:21.350	66.78	-22.75	-17.885	1.155584	-0.26108	0.136884	0.1125	0.78	-0.1275	0	254	214	3
2026-02-12	15:58:21.370	65.45	-20.475	-20.125	1.246596	-0.256932	0.138104	0.1035	0.7725	-0.1335	0	254	214	3
2026-02-12	15:58:21.390	62.09	-17.045	-22.785	1.344196	-0.247416	0.145668	0.1005	0.768	-0.1335	0	254	214	3
2026-02-12	15:58:21.410	58.52	-11.655	-25.725	1.375916	-0.222284	0.154208	0.099	0.7635	-0.1305	0	251	190	3
2026-02-12	15:58:21.430	52.885	-4.27	-26.81	1.337364	-0.181292	0.144204	0.0975	0.756	-0.1335	0	251	190	3
2026-02-12	15:58:21.450	40.32	2.555	-27.055	1.392752	-0.13176	0.111508	0.0975	0.75	-0.1365	0	251	190	3
2026-02-12	15:58:21.470	22.225	9.17	-28.245	1.375428	-0.112484	0.077348	0.099	0.747	-0.135	0	251	190	3
2026-02-12	15:58:21.490	6.475	12.845	-28.385	1.304424	-0.108092	0.086376	0.096	0.741	-0.141	0	251	190	3
2026-02-12	15:58:21.510	-4.445	13.405	-25.935	1.192916	-0.124928	0.168116	0.0915	0.738	-0.1455	0	251	190	3
2026-02-12	15:58:21.530	-12.775	15.715	-16.975	1.075796	-0.131516	0.246928	0.084	0.732	-0.156	0	251	190	3
2026-02-12	15:58:21.550	-28.42	21.77	6.475	0.948916	-0.066368	0.237412	0.0915	0.7275	-0.1485	0	251	190	3
2026-02-12	15:58:21.570	-34.93	23.065	21.91	0.9211	-0.019032	0.190808	0.0915	0.732	-0.1545	0	251	190	3
2026-02-12	15:58:21.590	-40.425	24.465	31.64	0.90402	0.025376	0.182268	0.09	0.7395	-0.1575	0	251	190	3
2026-02-12	15:58:21.610	-49.21	25.795	35.77	0.878888	0.00732	0.19642	0.093	0.7455	-0.153	0	249	170	3
2026-02-12	15:58:21.630	-57.19	28.245	35.735	0.845704	-0.013908	0.199836	0.1005	0.753	-0.156	0	249	170	3
2026-02-12	15:58:21.650	-65.065	30.31	32.515	0.797636	-0.008296	0.199348	0.102	0.759	-0.1605	0	249	170	3
2026-02-12	15:58:21.670	-72.03	30.94	26.18	0.752496	-0.06344	0.192272	0.102	0.771	-0.1545	0	249	170	3
2026-02-12	15:58:21.690	-75.25	30.345	19.25	0.73566	-0.09857599	0.21106	0.108	0.783	-0.1515	0	249	170	3
2026-02-12	15:58:21.710	-69.09	28.42	12.215	0.695888	-0.107604	0.217648	0.1125	0.7845	-0.156	0	249	170	3
2026-02-12	15:58:21.730	-54.355	24.5	4.83	0.662216	-0.126636	0.221308	0.111	0.786	-0.1485	0	249	170	3
2026-02-12	15:58:21.750	-36.785	18.48	-2.45	0.643672	-0.162992	0.23302	0.1155	0.7965	-0.1485	0	249	170	3
2026-02-12	15:58:21.770	-10.535	8.855	-13.37	0.663436	-0.20496	0.25498	0.1155	0.7965	-0.1485	0	249	170	3
2026-02-12	15:58:21.790	4.55	4.095	-19.705	0.707356	-0.219112	0.26596	0.1125	0.7935	-0.1455	0	249	170	3
2026-02-12	15:58:21.810	15.225	0.98	-24.675	0.76494	-0.24644	0.266204	0.111	0.7875	-0.1425	0	247	167	3
2026-02-12	15:58:21.830	22.715	-0.35	-28.805	0.804468	-0.23912	0.261812	0.1065	0.789	-0.141	0	247	167	3
2026-02-12	15:58:21.850	24.15	-1.19	-32.235	0.85278	-0.234972	0.260592	0.1065	0.789	-0.144	0	247	167	3
2026-02-12	15:58:21.870	19.635	-1.05	-35.035	0.891088	-0.226188	0.262056	0.108	0.78	-0.1455	0	247	167	3
2026-02-12	15:58:21.890	9.275	-1.33	-37.38	0.908168	-0.229116	0.270596	0.102	0.7725	-0.147	0	247	167	3
2026-02-12	15:58:21.910	-4.375	-1.96	-38.675	0.898652	-0.249612	0.2745	0.096	0.771	-0.1455	0	247	167	3
2026-02-12	15:58:21.930	-14.175	-3.85	-39.655	0.89426	-0.278892	0.285236	0.0945	0.7725	-0.141	0	247	167	3
2026-02-12	15:58:21.950	-17.64	-5.67	-38.99	0.870104	-0.310612	0.283772	0.1035	0.7605	-0.1425	0	247	167	3
2026-02-12	15:58:21.970	-11.41	-10.22	-37.765	0.872056	-0.332328	0.285968	0.0975	0.762	-0.147	0	247	167	3
2026-02-12	15:58:21.990	0.49	-14.98	-36.4	0.878888	-0.349408	0.297436	0.0915	0.753	-0.144	0	247	167	3
2026-02-12	15:58:22.010	12.04	-18.41	-35.525	0.897188	-0.350384	0.302804	0.0825	0.744	-0.1395	0	245	181	3
2026-02-12	15:58:22.030	21.42	-20.685	-34.335	0.915	-0.323788	0.315736	0.078	0.7425	-0.135	0	245	181	3
2026-02-12	15:58:22.050	24.675	-22.365	-32.83	0.939156	-0.307928	0.325252	0.078	0.738	-0.1335	0	245	181	3
2026-02-12	15:58:22.070	23.31	-22.925	-31.78	0.966972	-0.296948	0.31842	0.0735	0.7305	-0.1335	0	245	181	3
2026-02-12	15:58:22.090	18.655	-23.135	-31.15	1.01016	-0.278404	0.303536	0.063	0.7275	-0.1275	0	245	181	3
2026-02-12	15:58:22.110	9.765	-23.03	-30.45	1.062376	-0.276452	0.289384	0.0615	0.7245	-0.1245	0	245	181	3
2026-02-12	15:58:22.130	0.105	-23.24	-29.19	1.13582	-0.27206	0.263032	0.066	0.7215	-0.123	0	245	181	3
2026-02-12	15:58:22.150	-7.665	-25.375	-27.265	1.24318	-0.284504	0.247416	0.057	0.7095	-0.1275	0	245	181	3
2026-02-12	15:58:22.170	-10.605	-27.72	-23.38	1.330044	-0.331108	0.24034	0.057	0.708	-0.1305	0	245	181	3
2026-02-12	15:58:22.190	1.82	-29.26	-13.65	1.441552	-0.304512	0.258884	0.0495	0.7005	-0.1275	0	245	181	3
2026-02-12	15:58:22.210	14.175	-27.195	-3.045	1.372012	-0.267668	0.273768	0.0465	0.7035	-0.1185	0	242	205	3
2026-02-12	15:58:22.230	26.145	-23.835	8.785	1.248792	-0.227896	0.266204	0.0435	0.7035	-0.1065	0	242	205	3
2026-02-12	15:58:22.250	34.405	-20.44	20.79	1.160952	-0.12444	0.212768	0.039	0.705	-0.108	0	242	205	3
2026-02-12	15:58:22.270	29.785	-16.065	32.795	1.09556	-0.085888	0.172264	0.0375	0.7065	-0.105	0	242	205	3
2026-02-12	15:58:22.290	22.575	-11.13	43.4	1.040416	-0.065636	0.156892	0.0405	0.7095	-0.102	0	242	205	3
2026-02-12	15:58:22.310	15.645	-6.23	54.04	0.963556	-0.040748	0.152988	0.0375	0.7155	-0.108	0	242	205	3
2026-02-12	15:58:22.330	5.985	-1.085	62.3	0.900116	-0.042212	0.135664	0.0345	0.7215	-0.108	0	242	205	3
2026-02-12	15:58:22.350	-3.605	3.36	68.845	0.880108	-0.032452	0.11224	0.033	0.7275	-0.1035	0	242	205	3
2026-02-12	15:58:22.370	-12.11	7.84	71.33	0.88206	-0.049532	0.079788	0.054	0.732	-0.102	0	242	205	3
2026-02-12	15:58:22.390	-18.445	12.04	70.455	0.876692	-0.060024	0.049532	0.0585	0.7455	-0.114	0	242	205	3
2026-02-12	15:58:22.410	-23.38	15.96	62.265	0.875228	-0.127612	0.020496	0.0585	0.7635	-0.12	0	238	216	3
2026-02-12	15:58:22.430	-23.485	17.5	55.02	0.865468	-0.175436	0.004148	0.0615	0.7695	-0.1215	0	238	216	3
2026-02-12	15:58:22.450	-24.15	17.465	47.39	0.843996	-0.200812	0.004636	0.0645	0.783	-0.1185	0	238	216	3
2026-02-12	15:58:22.470	-20.51	15.82	40.04	0.822524	-0.24766	0.007808	0.069	0.7935	-0.108	0	238	216	3
2026-02-12	15:58:22.490	-13.405	13.3	33.215	0.801052	-0.260836	0.010736	0.0735	0.7995	-0.1125	0	238	216	3
2026-02-12	15:58:22.510	-7.7	8.89	27.965	0.80276	-0.298168	0.007564	0.0825	0.7995	-0.117	0	238	216	3
2026-02-12	15:58:22.530	-0.21	4.06	23.73	0.803736	-0.31842	0.003416	0.087	0.8085	-0.1125	0	238	216	3
2026-02-12	15:58:22.550	6.93	-1.225	20.755	0.801784	-0.326472	-0.018056	0.084	0.819	-0.1125	0	238	216	3
2026-02-12	15:58:22.570	15.26	-7.63	18.9	0.802028	-0.347212	-0.030256	0.0825	0.8175	-0.1215	0	238	216	3
2026-02-12	15:58:22.590	26.25	-14.49	17.43	0.796172	-0.370392	-0.024156	0.087	0.8205	-0.117	0	238	216	3
2026-02-12	15:58:22.610	42.175	-22.19	15.505	0.794464	-0.398696	-0.01586	0.0855	0.822	-0.123	0	235	198	3
2026-02-12	15:58:22.630	58.31	-28.175	13.195	0.795196	-0.43066	-0.002684	0.084	0.822	-0.126	0	235	198	3
2026-02-12	15:58:22.650	69.335	-31.15	10.92	0.79056	-0.439444	0.017812	0.0825	0.825	-0.132	0	235	198	3
2026-02-12	15:58:22.670	75.845	-32.375	8.575	0.795684	-0.445056	0.039528	0.084	0.8235	-0.1335	0	235	198	3
2026-02-12	15:58:22.690	79.695	-32.2	6.23	0.799832	-0.441396	0.056608	0.0855	0.8175	-0.132	0	235	198	3
2026-02-12	15:58:22.710	80.92	-30.87	4.165	0.801296	-0.441396	0.078812	0.084	0.816	-0.1365	0	235	198	3
2026-02-12	15:58:22.730	79.94	-28	2.87	0.8113	-0.433832	0.096868	0.0795	0.813	-0.1455	0	235	198	3
2026-02-12	15:58:22.750	77.49	-24.045	2.17	0.828868	-0.42212	0.091256	0.0795	0.8085	-0.144	0	235	198	3
2026-02-12	15:58:22.770	73.92	-20.475	0.91	0.869128	-0.407724	0.089548	0.0825	0.8055	-0.141	0	235	198	3
2026-02-12	15:58:22.790	70.28	-16.66	-1.015	0.924272	-0.396744	0.091012	0.0855	0.807	-0.15	0	235	198	3
2026-02-12	15:58:22.810	65.835	-12.39	-3.325	0.98454	-0.379908	0.106872	0.0825	0.801	-0.1425	0	233	162	3
2026-02-12	15:58:22.830	56.84	-4.69	-8.05	1.091168	-0.339892	0.155672	0.093	0.7995	-0.1575	0	233	162	3
2026-02-12	15:58:22.850	49.315	3.045	-12.18	1.119716	-0.300852	0.171044	0.084	0.786	-0.162	0	233	162	3
2026-02-12	15:58:22.870	33.88	10.395	-14.7	1.124596	-0.256444	0.156404	0.0735	0.777	-0.171	0	233	162	3
2026-02-12	15:58:22.890	14.77	15.68	-16.065	1.128744	-0.228384	0.148108	0.0735	0.7755	-0.174	0	233	162	3
2026-02-12	15:58:22.910	-1.82	18.165	-18.48	1.140456	-0.264984	0.141032	0.075	0.7695	-0.177	0	233	162	3
2026-02-12	15:58:22.930	-3.395	18.725	-21.945	1.12728	-0.288164	0.155184	0.0765	0.7695	-0.18	0	233	162	3
2026-02-12	15:58:22.950	-1.12	16.975	-26.775	1.1895	-0.336964	0.170556	0.0795	0.7635	-0.186	0	233	162	3
2026-02-12	15:58:22.970	2.835	17.465	-30.8	1.187548	-0.334036	0.205448	0.072	0.7605	-0.186	0	233	162	3
2026-02-12	15:58:22.990	0.98	18.655	-30.52	1.1895	-0.368928	0.180804	0.0645	0.7635	-0.183	0	233	162	3
2026-02-12	15:58:23.010	2.555	20.51	-27.37	1.063352	-0.277428	0.162504	0.069	0.7575	-0.198	0	230	139	3
2026-02-12	15:58:23.030	-3.08	17.955	-18.27	0.886696	-0.319884	0.128344	0.0675	0.7485	-0.195	0	230	139	3
2026-02-12	15:58:23.050	13.3	6.895	-5.04	0.85278	-0.259372	0.16226	0.0675	0.7485	-0.195	0	230	139	3
2026-02-12	15:58:23.070	25.69	-1.225	2.905	0.90768	-0.32208	0.188124	0.0675	0.747	-0.1965	0	230	139	3
2026-02-12	15:58:23.090	42.42	-5.11	10.29	0.967216	-0.335256	0.194712	0.069	0.7425	-0.2025	0	230	139	3
2026-02-12	15:58:23.110	56.805	-5.46	16.695	0.971608	-0.3111	0.1647	0.063	0.7395	-0.207	0	230	139	3
2026-02-12	15:58:23.130	63.385	-4.585	20.51	0.951356	-0.298168	0.132492	0.063	0.7365	-0.2085	0	230	139	3
2026-02-12	15:58:23.150	66.22	-3.85	22.225	0.92354	-0.257908	0.13176	0.069	0.7335	-0.2115	0	230	139	3
2026-02-12	15:58:23.170	63.455	-3.605	23.17	0.896212	-0.24644	0.151524	0.0705	0.729	-0.213	0	230	139	3
2026-02-12	15:58:23.190	58.24	-3.605	23.415	0.8601	-0.24644	0.157868	0.0735	0.729	-0.2145	0	230	139	3
2026-02-12	15:58:23.210	53.305	-3.78	22.505	0.84058	-0.243268	0.144936	0.0735	0.7245	-0.213	0	226	134	3
2026-02-12	15:58:23.230	48.545	-4.515	20.23	0.855952	-0.262544	0.121024	0.072	0.726	-0.2175	0	226	134	3
2026-02-12	15:58:23.250	48.265	-6.545	15.225	0.902556	-0.280844	0.11834	0.075	0.72	-0.222	0	226	134	3
2026-02-12	15:58:23.270	52.15	-8.995	8.33	0.933544	-0.30256	0.112972	0.0735	0.72	-0.222	0	226	134	3
2026-02-12	15:58:23.290	55.79	-12.145	1.785	0.949404	-0.305	0.121024	0.072	0.7245	-0.2265	0	226	134	3
2026-02-12	15:58:23.310	60.515	-16.835	-5.18	0.96502	-0.35136	0.133956	0.0735	0.7185	-0.228	0	226	134	3
2026-02-12	15:58:23.330	71.155	-21.385	-11.55	0.96136	-0.370148	0.153964	0.075	0.705	-0.2295	0	226	134	3
2026-02-12	15:58:23.350	85.365	-25.515	-15.575	0.963556	-0.36966	0.172508	0.072	0.7005	-0.2295	0	226	134	3
2026-02-12	15:58:23.370	100.205	-28.14	-16.59	0.9516	-0.364292	0.186172	0.069	0.693	-0.231	0	226	134	3
2026-02-12	15:58:23.390	112.35	-29.82	-14.035	0.940132	-0.34404	0.203496	0.066	0.678	-0.2325	0	226	134	3
2026-02-12	15:58:23.410	121.135	-30.345	-8.82	0.951844	-0.32818	0.201788	0.063	0.669	-0.2325	0	217	137	3
2026-02-12	15:58:23.430	128.345	-27.615	-3.045	0.964288	-0.282064	0.209596	0.069	0.666	-0.2355	0	217	137	3
2026-02-12	15:58:23.450	129.64	-22.82	2.73	0.946476	-0.23912	0.189588	0.0585	0.6585	-0.2265	0	217	137	3
2026-02-12	15:58:23.470	118.51	-17.605	8.68	0.917928	-0.213012	0.170312	0.0555	0.639	-0.2385	0	217	137	3
2026-02-12	15:58:23.490	99.75	-13.475	12.74	0.901824	-0.19764	0.172264	0.0615	0.63	-0.2355	0	217	137	3
2026-02-12	15:58:23.510	81.235	-9.975	14.945	0.874008	-0.188124	0.185684	0.057	0.6195	-0.2325	0	217	137	3
2026-02-12	15:58:23.530	61.67	-7.28	17.08	0.817888	-0.195932	0.165676	0.051	0.6135	-0.231	0	217	137	3
2026-02-12	15:58:23.550	46.62	-8.19	18.83	0.783972	-0.229848	0.12566	0.054	0.6075	-0.2295	0	217	137	3
2026-02-12	15:58:23.570	37.17	-11.9	19.425	0.792268	-0.249368	0.109556	0.0525	0.6075	-0.2325	0	217	137	3
2026-02-12	15:58:23.590	32.2	-17.465	18.76	0.838384	-0.278648	0.103456	0.051	0.612	-0.2325	0	217	137	3
2026-02-12	15:58:23.610	33.46	-24.395	17.115	0.925736	-0.307196	0.116144	0.051	0.615	-0.231	0	207	143	3
2026-02-12	15:58:23.630	39.165	-30.45	13.3	1.042856	-0.327204	0.127124	0.0465	0.6015	-0.2325	0	207	143	3
2026-02-12	15:58:23.650	47.985	-35.945	7.525	1.159976	-0.37454	0.117364	0.045	0.609	-0.2205	0	207	143	3
2026-02-12	15:58:23.670	58.8	-41.545	0.35	1.316868	-0.387472	0.102236	0.0435	0.609	-0.216	0	207	143	3
2026-02-12	15:58:23.690	70.91	-43.155	-9.17	1.601128	-0.393328	0.066368	0.0435	0.609	-0.216	0	207	143	3
2026-02-12	15:58:23.710	77.7	-40.11	-11.48	1.685064	-0.363072	0.0488	0.039	0.597	-0.21	0	207	143	3
2026-02-12	15:58:23.730	77.945	-36.75	-5.845	1.618696	-0.318908	0.031964	0.0315	0.585	-0.201	0	207	143	3
2026-02-12	15:58:23.750	70.42	-33.705	6.755	1.423496	-0.28182	0.010004	0.024	0.576	-0.1935	0	207	143	3
2026-02-12	15:58:23.770	65.905	-30.31	22.575	1.220244	-0.221308	-0.005612	0.021	0.567	-0.1905	0	207	143	3
2026-02-12	15:58:23.790	65.24	-27.685	40.11	1.052372	-0.14884	-0.03172	0.027	0.5715	-0.189	0	207	143	3
2026-02-12	15:58:23.810	66.85	-25.9	55.405	0.99918	-0.043432	-0.050264	0.027	0.57	-0.1845	0	198	140	3
2026-02-12	15:58:23.830	62.055	-23.835	65.73	0.960384	-0.032452	-0.053192	0.024	0.567	-0.183	0	198	140	3
2026-02-12	15:58:23.850	59.255	-20.93	67.165	0.927688	-0.043188	-0.047092	0.0255	0.573	-0.1845	0	198	140	3
2026-02-12	15:58:23.870	54.845	-17.605	62.895	0.906704	-0.081252	-0.048312	0.0225	0.5775	-0.18	0	198	140	3
2026-02-12	15:58:23.890	41.3	-12.81	52.605	0.882304	-0.14152	-0.057828	0.018	0.585	-0.1725	0	198	140	3
2026-02-12	15:58:23.910	26.6	-9.485	39.585	0.851804	-0.20252	-0.067832	0.018	0.585	-0.1725	0	198	140	3
2026-02-12	15:58:23.930	25.2	-9.03	27.3	0.8113	-0.172752	-0.056852	0.0195	0.5925	-0.171	0	198	140	3
2026-02-12	15:58:23.950	28.07	-10.815	15.435	0.766892	-0.192272	-0.050264	0.0195	0.603	-0.171	0	198	140	3
2026-02-12	15:58:23.970	36.925	-14.35	5.705	0.747372	-0.175192	-0.026352	0.021	0.603	-0.168	0	198	140	3
2026-02-12	15:58:23.990	46.48	-18.795	-3.15	0.75274	-0.179096	-0.0183	0.021	0.5985	-0.1665	0	198	140	3
2026-02-12	15:58:24.010	58.24	-22.4	-11.9	0.785924	-0.199104	-0.031964	0.0195	0.5955	-0.1665	0	195	116	3
2026-02-12	15:58:24.030	67.235	-23.555	-16.065	0.80032	-0.187148	-0.032696	0.0195	0.5985	-0.1695	0	195	116	3
2026-02-12	15:58:24.050	76.44	-23.975	-20.895	0.845704	-0.15982	-0.030256	0.021	0.6015	-0.1725	0	195	116	3
2026-02-12	15:58:24.070	78.61	-22.785	-24.78	0.90158	-0.130784	-0.016836	0.0075	0.5805	-0.1635	0	195	116	3
2026-02-12	15:58:24.090	75.005	-20.3	-27.72	0.955504	-0.11468	-0.016104	0.018	0.5685	-0.159	0	195	116	3
2026-02-12	15:58:24.110	64.26	-15.435	-30.17	1.016504	-0.065636	-0.022936	0.0195	0.5625	-0.1665	0	195	116	3
2026-02-12	15:58:24.130	47.46	-10.92	-32.69	1.097024	-0.053192	-0.05734	0.0165	0.5565	-0.1575	0	195	116	3
2026-02-12	15:58:24.150	34.825	-7.595	-34.545	1.171932	-0.025132	-0.061732	0.0165	0.546	-0.1485	0	195	116	3
2026-02-12	15:58:24.170	19.495	-4.515	-35.21	1.233908	-0.011224	-0.071736	0.015	0.5415	-0.153	0	195	116	3
2026-02-12	15:58:24.190	7.035	-3.255	-36.015	1.291492	-0.009028	-0.05856	0.0135	0.537	-0.156	0	195	116	3
2026-02-12	15:58:24.210	-2.345	-3.255	-37.45	1.334436	-0.024888	-0.037576	0.012	0.5265	-0.153	0	196	81	3
2026-02-12	15:58:24.230	-6.055	-4.165	-39.76	1.394704	-0.05368	-0.008052	0.0135	0.519	-0.15	0	196	81	3
2026-02-12	15:58:24.250	-5.075	-2.485	-41.405	1.372744	-0.081252	0.026108	0.0165	0.5175	-0.1515	0	196	81	3
2026-02-12	15:58:24.270	-2.905	-0.035	-42.14	1.305888	-0.063684	0.045872	0.0135	0.5235	-0.1455	0	196	81	3
2026-02-12	15:58:24.290	-3.465	1.12	-43.75	1.304424	-0.074176	0.004636	0.012	0.5055	-0.153	0	196	81	3
2026-02-12	15:58:24.310	-1.435	2.52	-45.22	1.175592	-0.079788	0.02318	0.0105	0.4995	-0.1485	0	196	81	3
2026-02-12	15:58:24.330	10.15	-0.7	-43.295	1.05286	-0.04636	0.128344	0.0195	0.495	-0.1485	0	196	81	3
2026-02-12	15:58:24.350	10.01	-3.99	-33.985	0.995032	-0.150792	0.213744	0.0165	0.486	-0.1485	0	196	81	3
2026-02-12	15:58:24.370	26.95	-2.625	-22.225	0.970876	-0.094428	0.276208	0.018	0.477	-0.15	0	196	81	3
2026-02-12	15:58:24.390	28.315	1.505	-4.41	0.955748	0.001464	0.273524	0.021	0.474	-0.1515	0	196	81	3
2026-02-12	15:58:24.410	18.655	8.12	12.32	0.937936	0.030744	0.2196	0.018	0.4695	-0.1545	0	200	58	3
2026-02-12	15:58:24.430	9.065	11.48	24.71	0.925248	0.141276	0.187392	0.0135	0.4665	-0.1515	0	200	58	3
2026-02-12	15:58:24.450	-11.9	11.795	33.285	0.909388	0.121756	0.172508	0.0195	0.471	-0.15	0	200	58	3
2026-02-12	15:58:24.470	-25.235	12.285	36.995	0.881328	0.059292	0.19276	0.0255	0.4785	-0.1545	0	200	58	3
2026-02-12	15:58:24.490	-31.08	12.25	37.625	0.850096	0.001464	0.222772	0.0165	0.4815	-0.147	0	200	58	3
2026-02-12	15:58:24.510	-30.87	11.97	36.225	0.808128	-0.053436	0.248392	0.021	0.495	-0.159	0	200	58	3
2026-02-12	15:58:24.530	-24.43	12.705	33.775	0.767136	-0.093696	0.27084	0.018	0.495	-0.1545	0	200	58	3
2026-02-12	15:58:24.550	-17.955	15.12	31.115	0.740052	-0.10492	0.288896	0.018	0.495	-0.1545	0	200	58	3
2026-02-12	15:58:24.570	-16.065	17.78	29.995	0.73566	-0.097112	0.282552	0.0195	0.507	-0.1575	0	200	58	3
2026-02-12	15:58:24.590	-17.36	20.37	30.17	0.736636	-0.102968	0.260104	0.024	0.5205	-0.1635	0	200	58	3
2026-02-12	15:58:24.610	-21.42	22.26	33.145	0.76128	-0.117608	0.24644	0.03	0.525	-0.168	0	205	68	3
2026-02-12	15:58:24.630	-24.815	23.695	38.36	0.789584	-0.13176	0.254736	0.0315	0.531	-0.171	0	205	68	3
2026-02-12	15:58:24.650	-27.055	25.795	44.205	0.824964	-0.118096	0.250832	0.0255	0.5355	-0.177	0	205	68	3
2026-02-12	15:58:24.670	-29.05	26.285	49.63	0.844728	-0.139324	0.214232	0.024	0.5385	-0.18	0	205	68	3
2026-02-12	15:58:24.690	-32.375	25.165	53.06	0.860588	-0.15982	0.179828	0.024	0.5445	-0.1815	0	205	68	3
2026-02-12	15:58:24.710	-26.74	20.37	53.935	0.878888	-0.143472	0.183976	0.039	0.5625	-0.18	0	205	68	3
2026-02-12	15:58:24.730	-28.14	12.32	52.955	0.91256	-0.15128	0.205204	0.0435	0.567	-0.1845	0	205	68	3
2026-02-12	15:58:24.750	-32.585	2.975	43.995	1.01504	-0.23058	0.20374	0.0375	0.576	-0.198	0	205	68	3
2026-02-12	15:58:24.770	-25.025	-7.28	26.39	1.124596	-0.278892	0.208864	0.042	0.585	-0.192	0	205	68	3
2026-02-12	15:58:24.790	-15.4	-13.51	5.425	1.076284	-0.30134	0.192028	0.0435	0.5985	-0.183	0	205	68	3
2026-02-12	15:58:24.810	-15.05	-23.275	-15.925	1.100928	-0.35502	0.218136	0.0435	0.6015	-0.18	0	211	101	3
2026-02-12	15:58:24.830	-13.335	-29.47	-35.7	1.181692	-0.413824	0.250588	0.0435	0.6	-0.183	0	211	101	3
2026-02-12	15:58:24.850	-3.955	-31.22	-53.2	1.273436	-0.423584	0.280112	0.039	0.5985	-0.1785	0	211	101	3
2026-02-12	15:58:24.870	0.21	-27.965	-62.72	1.318576	-0.394792	0.267424	0.0345	0.5895	-0.171	0	211	101	3
2026-02-12	15:58:24.890	-2.975	-20.895	-62.51	1.310524	-0.365024	0.2257	0.0285	0.5805	-0.1695	0	211	101	3
2026-02-12	15:58:24.910	-9.065	-13.58	-56.21	1.241472	-0.327936	0.152256	0.027	0.5685	-0.1695	0	211	101	3
2026-02-12	15:58:24.930	-14.175	-9.38	-45.36	1.20536	-0.301828	0.060268	0.021	0.57	-0.165	0	211	101	3
2026-02-12	15:58:24.950	-12.46	-6.09	-30.905	1.126548	-0.286212	0.008784	0.024	0.5595	-0.162	0	211	101	3
2026-02-12	15:58:24.970	-2.765	-8.925	-7.735	0.997228	-0.227652	0.045384	0.0285	0.5445	-0.1635	0	211	101	3
2026-02-12	15:58:24.990	1.82	-11.725	8.295	0.919148	-0.308416	0.06734399	0.027	0.549	-0.162	0	211	101	3
2026-02-12	15:58:25.010	15.75	-13.72	20.51	0.864492	-0.279624	0.107848	0.021	0.555	-0.162	0	215	130	3
2026-02-12	15:58:25.030	21.175	-12.845	32.55	0.813008	-0.250832	0.120048	0.018	0.5565	-0.1635	0	215	130	3
2026-02-12	15:58:25.050	23.17	-10.57	40.705	0.754936	-0.242292	0.09882	0.021	0.555	-0.1635	0	215	130	3
2026-02-12	15:58:25.070	24.955	-7.385	44.59	0.704916	-0.197884	0.081008	0.024	0.5595	-0.162	0	215	130	3
2026-02-12	15:58:25.090	22.82	-5.18	44.275	0.671	-0.159088	0.06466	0.0195	0.5715	-0.1605	0	215	130	3
2026-02-12	15:58:25.110	17.15	-3.22	40.53	0.654652	-0.150304	0.060024	0.0165	0.5745	-0.159	0	215	130	3
2026-02-12	15:58:25.130	10.605	-1.61	34.58	0.659776	-0.156648	0.062464	0.0165	0.5775	-0.159	0	215	130	3
2026-02-12	15:58:25.150	2.73	0.84	26.88	0.661972	-0.160308	0.05856	0.021	0.5805	-0.1605	0	215	130	3
2026-02-12	15:58:25.170	-5.145	1.925	15.365	0.728096	-0.18788	0.065148	0.027	0.5835	-0.153	0	215	130	3
2026-02-12	15:58:25.190	-9.31	4.515	2.1	0.799344	-0.194712	0.0671	0.027	0.5835	-0.153	0	215	130	3
2026-02-12	15:58:25.210	-9.24	4.865	-9.625	0.890356	-0.208132	0.045628	0.0255	0.588	-0.1545	0	220	138	3
2026-02-12	15:58:25.230	-7.07	4.62	-21.595	0.982832	-0.228628	0.039528	0.024	0.591	-0.159	0	220	138	3
2026-02-12	15:58:25.250	-2.73	2.03	-32.55	1.086776	-0.237168	0.035868	0.027	0.591	-0.1605	0	220	138	3
2026-02-12	15:58:25.270	6.93	-0.945	-42.56	1.161928	-0.2501	0.055388	0.0255	0.591	-0.1605	0	220	138	3
2026-02-12	15:58:25.290	15.435	-3.78	-48.475	1.222196	-0.250344	0.074908	0.024	0.579	-0.162	0	220	138	3
2026-02-12	15:58:25.310	25.165	-6.58	-52.255	1.255624	-0.236436	0.093208	0.0255	0.57	-0.1665	0	220	138	3
2026-02-12	15:58:25.330	34.755	-9.03	-54.32	1.311744	-0.2074	0.107604	0.024	0.5715	-0.159	0	220	138	3
2026-02-12	15:58:25.350	40.355	-9.73	-55.545	1.362496	-0.198616	0.1342	0.0285	0.555	-0.156	0	220	138	3
2026-02-12	15:58:25.370	43.365	-6.02	-54.6	1.373232	-0.215452	0.157136	0.021	0.5475	-0.1605	0	220	138	3
2026-02-12	15:58:25.390	41.405	3.885	-49.42	1.315404	-0.116388	0.147132	0.0225	0.534	-0.15	0	220	138	3
2026-02-12	15:58:25.410	24.29	13.3	-45.57	1.314184	-0.000732	0.064416	0.0195	0.525	-0.147	0	224	129	3
2026-02-12	15:58:25.430	1.015	18.2	-41.65	1.248304	-0.066368	0.0122	0.0225	0.51	-0.15	0	224	129	3
2026-02-12	15:58:25.450	-7.315	21.735	-37.24	1.159	-0.0366	0.057584	0.027	0.501	-0.159	0	224	129	3
2026-02-12	15:58:25.470	-17.395	20.58	-28.035	1.028704	-0.004148	0.125904	0.0285	0.4935	-0.1635	0	224	129	3
2026-02-12	15:58:25.490	-29.365	18.13	-16.625	0.94306	-0.05124	0.165432	0.033	0.4935	-0.165	0	224	129	3
2026-02-12	15:58:25.510	-28.105	15.75	-4.27	0.903044	-0.029768	0.179584	0.03	0.4965	-0.1695	0	224	129	3
2026-02-12	15:58:25.530	-25.305	14.07	7.7	0.888892	0.004392	0.166164	0.027	0.4935	-0.171	0	224	129	3
2026-02-12	15:58:25.550	-23.66	13.685	14.315	0.879864	0.029036	0.156892	0.033	0.501	-0.1725	0	224	129	3
2026-02-12	15:58:25.570	-25.865	14.49	17.605	0.851316	0.020496	0.163236	0.033	0.504	-0.165	0	224	129	3
2026-02-12	15:58:25.590	-33.53	15.295	19.285	0.817156	0.008296	0.157624	0.039	0.507	-0.1785	0	224	129	3
2026-02-12	15:58:25.610	-42.735	15.365	19.355	0.758352	-0.023912	0.153232	0.042	0.5055	-0.1785	0	228	121	3
2026-02-12	15:58:25.630	-43.715	13.86	17.675	0.731268	-0.04758	0.16958	0.0405	0.5115	-0.183	0	228	121	3
2026-02-12	15:58:25.650	-40.95	11.76	15.05	0.733952	-0.072468	0.190564	0.0465	0.5235	-0.186	0	228	121	3
2026-02-12	15:58:25.670	-37.73	10.325	12.32	0.730292	-0.089792	0.200812	0.045	0.531	-0.1845	0	228	121	3
2026-02-12	15:58:25.690	-35.875	9.205	10.255	0.732976	-0.122976	0.207156	0.0405	0.534	-0.1845	0	228	121	3
2026-02-12	15:58:25.710	-33.915	8.365	9.275	0.750544	-0.120292	0.20984	0.048	0.5355	-0.186	0	228	121	3
2026-02-12	15:58:25.730	-34.055	6.79	10.08	0.763964	-0.138592	0.211304	0.0525	0.5355	-0.1905	0	228	121	3
2026-02-12	15:58:25.750	-34.265	4.795	12.39	0.768112	-0.157624	0.201788	0.042	0.543	-0.1875	0	228	121	3
2026-02-12	15:58:25.770	-30.485	1.435	14.56	0.773968	-0.164212	0.19276	0.042	0.5475	-0.1995	0	228	121	3
2026-02-12	15:58:25.790	-24.745	-2.555	14.63	0.785192	-0.138836	0.196664	0.0495	0.5505	-0.192	0	228	121	3
2026-02-12	15:58:25.810	-21.14	-10.36	14.63	0.804468	-0.187392	0.227896	0.048	0.5535	-0.192	0	231	126	3
2026-02-12	15:58:25.830	-14.91	-18.97	12.215	0.873276	-0.225212	0.286456	0.048	0.5535	-0.192	0	231	126	3
2026-02-12	15:58:25.850	-8.295	-23.66	8.085	0.952576	-0.2684	0.333548	0.0465	0.5595	-0.186	0	231	126	3
2026-02-12	15:58:25.870	1.54	-25.585	-0.56	1.007964	-0.260104	0.366	0.0435	0.5685	-0.183	0	231	126	3
2026-02-12	15:58:25.890	5.355	-24.01	-10.92	1.030656	-0.321104	0.351116	0.0435	0.57	-0.177	0	231	126	3
2026-02-12	15:58:25.910	20.755	-23.03	-18.34	1.046028	-0.391132	0.31354	0.0405	0.5625	-0.171	0	231	126	3
2026-02-12	15:58:25.930	49	-24.01	-25.69	1.05652	-0.274012	0.244	0.0375	0.558	-0.168	0	231	126	3
2026-02-12	15:58:25.950	46.935	-23.59	-31.325	1.125816	-0.232044	0.204716	0.039	0.5595	-0.1635	0	231	126	3
2026-02-12	15:58:25.970	37.03	-23.1	-40.495	1.284172	-0.290116	0.172508	0.039	0.546	-0.159	0	231	126	3
2026-02-12	15:58:25.990	34.51	-22.925	-47.95	1.433012	-0.259616	0.193248	0.039	0.537	-0.153	0	231	126	3
2026-02-12	15:58:26.010	25.48	-21.595	-54.705	1.498648	-0.287432	0.215208	0.0405	0.5325	-0.1545	0	232	146	3
2026-02-12	15:58:26.030	16.24	-15.82	-56	1.450092	-0.30744	0.221064	0.042	0.5235	-0.1545	0	232	146	3
2026-02-12	15:58:26.050	0.315	-7.105	-45.535	1.322968	-0.314272	0.18422	0.0375	0.516	-0.15	0	232	146	3
2026-02-12	15:58:26.070	-11.795	-0.77	-25.69	1.20414	-0.310368	0.09882	0.036	0.51	-0.1455	0	232	146	3
2026-02-12	15:58:26.090	-11.445	1.225	-1.89	1.120936	-0.225944	0.018544	0.036	0.5025	-0.1485	0	232	146	3
2026-02-12	15:58:26.110	-2.66	-0.35	22.855	1.058228	-0.137616	-0.004392	0.0315	0.495	-0.1455	0	232	146	3
2026-02-12	15:58:26.130	5.32	-3.01	44.52	1.022604	-0.139568	0.021228	0.0315	0.4995	-0.141	0	232	146	3
2026-02-12	15:58:26.150	10.5	-5.74	60.795	0.975024	-0.185196	0.027572	0.036	0.5055	-0.144	0	232	146	3
2026-02-12	15:58:26.170	15.225	-7.665	71.715	0.936472	-0.22814	0.030988	0.0225	0.5085	-0.147	0	232	146	3
2026-02-12	15:58:26.190	19.81	-6.405	74.725	0.884256	-0.176412	0.031232	0.033	0.5175	-0.1485	0	232	146	3
2026-02-12	15:58:26.210	19.88	-4.585	70.945	0.798368	-0.135176	0.020252	0.0375	0.525	-0.1425	0	234	158	3
2026-02-12	15:58:26.230	15.715	-2.975	62.965	0.742248	-0.152744	0.009272	0.021	0.5325	-0.144	0	234	158	3
2026-02-12	15:58:26.250	5.845	-1.33	46.27	0.687836	-0.191296	0.00366	0.033	0.5535	-0.144	0	234	158	3
2026-02-12	15:58:26.270	-1.085	-0.84	35.105	0.680516	-0.2196	0.002928	0.027	0.555	-0.144	0	234	158	3
2026-02-12	15:58:26.290	-3.43	-0.665	25.305	0.686372	-0.23424	-0.002684	0.0255	0.5595	-0.141	0	234	158	3
2026-02-12	15:58:26.310	3.29	-0.875	16.275	0.68808	-0.201056	-0.005856	0.03	0.561	-0.138	0	234	158	3
2026-02-12	15:58:26.330	14.14	-2.205	8.54	0.7076	-0.187636	-0.006588	0.0315	0.5625	-0.1425	0	234	158	3
2026-02-12	15:58:26.350	23.975	-3.745	2.415	0.743224	-0.182268	-0.000976	0.03	0.561	-0.144	0	234	158	3
2026-02-12	15:58:26.370	28.875	-4.865	-1.82	0.792756	-0.172508	0.010492	0.027	0.558	-0.1395	0	234	158	3
2026-02-12	15:58:26.390	29.05	-5.6	-5.215	0.848388	-0.168116	0.014396	0.03	0.561	-0.1455	0	234	158	3
2026-02-12	15:58:26.410	27.545	-6.055	-8.435	0.922564	-0.173728	0.008296	0.03	0.5595	-0.1335	0	237	144	3
2026-02-12	15:58:26.430	27.58	-6.3	-11.795	0.99918	-0.179096	0.00488	0.03	0.555	-0.1335	0	237	144	3
2026-02-12	15:58:26.450	30.135	-6.79	-15.96	1.073844	-0.184464	0.013176	0.03	0.561	-0.1455	0	237	144	3
2026-02-12	15:58:26.470	31.85	-6.37	-19.32	1.144604	-0.190564	0.031476	0.03	0.561	-0.1455	0	237	144	3
2026-02-12	15:58:26.490	32.41	-5.39	-21.63	1.208044	-0.17568	0.036112	0.0285	0.5505	-0.141	0	237	144	3
2026-02-12	15:58:26.510	32.445	-3.99	-24.85	1.303692	-0.161284	0.040016	0.027	0.54	-0.135	0	237	144	3
2026-02-12	15:58:26.530	30.135	-1.05	-28.7	1.386652	-0.147132	0.052216	0.027	0.5385	-0.1335	0	237	144	3
2026-02-12	15:58:26.550	25.795	3.395	-32.34	1.41154	-0.140788	0.063684	0.0285	0.531	-0.135	0	237	144	3
2026-02-12	15:58:26.570	19.46	8.54	-35.35	1.398364	-0.10614	0.071736	0.027	0.5175	-0.135	0	237	144	3
2026-02-12	15:58:26.590	7.595	12.355	-38.535	1.45668	-0.102236	0.0427	0.0255	0.5115	-0.1335	0	237	144	3
2026-02-12	15:58:26.610	-2.905	16.31	-41.16	1.377868	-0.117852	0.03782	0.036	0.513	-0.1335	0	238	118	3
2026-02-12	15:58:26.630	-9.38	17.08	-40.005	1.286368	-0.077836	0.079544	0.027	0.504	-0.135	0	238	118	3
2026-02-12	15:58:26.650	-13.405	15.68	-34.545	1.167784	-0.1098	0.12566	0.03	0.501	-0.132	0	238	118	3
2026-02-12	15:58:26.670	-6.195	12.425	-21.28	1.037	-0.058072	0.1891	0.0435	0.501	-0.138	0	238	118	3
2026-02-12	15:58:26.690	-3.745	10.115	-2.625	0.9577	-0.051972	0.22326	0.0465	0.495	-0.1395	0	238	118	3
2026-02-12	15:58:26.710	2.205	13.055	9.1	0.93818	0.014884	0.221552	0.048	0.4935	-0.1425	0	238	118	3
2026-02-12	15:58:26.730	0.35	18.55	17.115	0.895724	0.077348	0.205204	0.0435	0.498	-0.1455	0	238	118	3
2026-02-12	15:58:26.750	-11.725	22.435	21.63	0.832528	0.105896	0.174704	0.0435	0.495	-0.15	0	238	118	3
2026-02-12	15:58:26.770	-28.77	25.34	22.12	0.773968	0.083204	0.16714	0.045	0.495	-0.156	0	238	118	3
2026-02-12	15:58:26.790	-45.78	27.02	20.37	0.729072	0.023424	0.169092	0.048	0.4995	-0.1575	0	238	118	3
2026-02-12	15:58:26.810	-54.705	27.475	17.815	0.697352	-0.023912	0.183488	0.0495	0.5025	-0.156	0	241	104	3
2026-02-12	15:58:26.830	-57.925	26.95	16.1	0.690764	-0.064416	0.19154	0.054	0.51	-0.153	0	241	104	3
2026-02-12	15:58:26.850	-55.79	25.9	14.14	0.699792	-0.086132	0.196908	0.054	0.522	-0.1605	0	241	104	3
2026-02-12	15:58:26.870	-50.54	24.045	11.935	0.71736	-0.09638	0.195688	0.057	0.516	-0.168	0	241	104	3
2026-02-12	15:58:26.890	-46.2	19.845	8.925	0.728584	-0.117852	0.189344	0.0525	0.5235	-0.168	0	241	104	3
2026-02-12	15:58:26.910	-42.175	15.365	6.58	0.740052	-0.133224	0.188368	0.057	0.5295	-0.1695	0	241	104	3
2026-02-12	15:58:26.930	-37.94	10.885	4.2	0.747128	-0.138836	0.195444	0.0645	0.537	-0.1725	0	241	104	3
2026-02-12	15:58:26.950	-33.81	5.95	1.715	0.756644	-0.156648	0.193736	0.066	0.54	-0.174	0	241	104	3
2026-02-12	15:58:26.970	-27.755	0.98	-1.645	0.770796	-0.164212	0.194956	0.0675	0.5415	-0.1785	0	241	104	3
2026-02-12	15:58:26.990	-21.14	-4.865	-5.425	0.811788	-0.177632	0.200324	0.0705	0.543	-0.1785	0	241	104	3
2026-02-12	15:58:27.010	-14.665	-10.57	-9.555	0.87474	-0.201788	0.232532	0.0735	0.543	-0.1755	0	243	112	3
2026-02-12	15:58:27.030	-6.44	-14.98	-15.925	0.953064	-0.237168	0.254736	0.0675	0.555	-0.1815	0	243	112	3
2026-02-12	15:58:27.050	3.57	-17.115	-23.345	0.960384	-0.253028	0.266936	0.069	0.546	-0.1725	0	243	112	3
2026-02-12	15:58:27.070	11.515	-19.32	-29.435	0.937448	-0.252296	0.274744	0.0615	0.546	-0.1725	0	243	112	3
2026-02-12	15:58:27.090	18.41	-21.105	-34.195	0.92598	-0.233508	0.283772	0.0645	0.54	-0.174	0	243	112	3
2026-02-12	15:58:27.110	21.035	-23.87	-37.94	0.97722	-0.235704	0.283528	0.0645	0.54	-0.174	0	243	112	3
2026-02-12	15:58:27.130	19.635	-24.815	-38.57	1.04676	-0.216184	0.27328	0.0615	0.528	-0.1665	0	243	112	3
2026-02-12	15:58:27.150	14.245	-24.85	-38.99	1.127036	-0.18178	0.270108	0.0585	0.5145	-0.1605	0	243	112	3
2026-02-12	15:58:27.170	4.83	-24.745	-38.885	1.222684	-0.16958	0.255956	0.0585	0.507	-0.153	0	243	112	3
2026-02-12	15:58:27.190	-9.73	-24.045	-38.605	1.306132	-0.16958	0.229116	0.0615	0.4995	-0.144	0	243	112	3
2026-02-12	15:58:27.210	-25.62	-25.305	-39.865	1.40666	-0.218624	0.222772	0.0645	0.4995	-0.147	0	245	136	3
2026-02-12	15:58:27.230	-31.465	-26.67	-41.58	1.488644	-0.257176	0.244244	0.0585	0.492	-0.153	0	245	136	3
2026-02-12	15:58:27.250	-28.035	-27.335	-41.58	1.464244	-0.287676	0.271084	0.0585	0.4935	-0.1455	0	245	136	3
2026-02-12	15:58:27.270	-19.075	-23.695	-38.64	1.377624	-0.31598	0.310124	0.0555	0.4845	-0.1485	0	245	136	3
2026-02-12	15:58:27.290	-6.475	-16.765	-29.05	1.280268	-0.301096	0.313052	0.0585	0.4785	-0.1335	0	245	136	3
2026-02-12	15:58:27.310	6.405	-5.845	-8.96	1.150704	-0.188368	0.238388	0.057	0.4785	-0.129	0	245	136	3
2026-02-12	15:58:27.330	4.27	2.065	14.84	1.009672	-0.083936	0.155184	0.06	0.474	-0.1335	0	245	136	3
2026-02-12	15:58:27.350	-2.59	4.095	30.52	0.930128	-0.016592	0.132004	0.0585	0.474	-0.138	0	245	136	3
2026-02-12	15:58:27.370	-9.135	4.2	42.77	0.903044	-0.028548	0.160552	0.0525	0.477	-0.138	0	245	136	3
2026-02-12	15:58:27.390	-12.18	5.32	52.71	0.902312	-0.0427	0.187392	0.054	0.486	-0.138	0	245	136	3
2026-02-12	15:58:27.410	-13.86	8.995	58.485	0.885964	-0.046116	0.183976	0.0525	0.492	-0.138	0	246	163	3
2026-02-12	15:58:27.430	-20.335	13.895	61.425	0.891576	-0.091988	0.14518	0.048	0.489	-0.1395	0	246	163	3
2026-02-12	15:58:27.450	-29.12	19.075	63.315	0.897676	-0.159088	0.094184	0.054	0.5025	-0.153	0	246	163	3
2026-02-12	15:58:27.470	-31.115	22.085	63.7	0.88206	-0.188856	0.066368	0.057	0.5115	-0.153	0	246	163	3
2026-02-12	15:58:27.490	-27.615	24.185	62.055	0.84302	-0.188612	0.055632	0.057	0.5145	-0.1575	0	246	163	3
2026-02-12	15:58:27.510	-21.595	25.41	58.8	0.786656	-0.184708	0.068076	0.054	0.525	-0.162	0	246	163	3
2026-02-12	15:58:27.530	-12.565	23.17	52.605	0.732976	-0.195932	0.09076799	0.0525	0.5415	-0.162	0	246	163	3
2026-02-12	15:58:27.550	-7.63	20.965	47.04	0.730292	-0.18422	0.1098	0.054	0.546	-0.1665	0	246	163	3
2026-02-12	15:58:27.570	-6.405	19.075	40.915	0.759572	-0.217892	0.103456	0.057	0.555	-0.1725	0	246	163	3
2026-02-12	15:58:27.590	-7.035	17.745	34.79	0.792512	-0.225944	0.092476	0.063	0.561	-0.1755	0	246	163	3
2026-02-12	15:58:27.610	-7.315	16.555	28.98	0.81618	-0.225944	0.087596	0.0645	0.5655	-0.1785	0	245	173	3
2026-02-12	15:58:27.630	-7.385	15.645	24.36	0.83204	-0.229604	0.085156	0.063	0.5715	-0.18	0	245	173	3
2026-02-12	15:58:27.650	-7.315	14.735	21.21	0.829844	-0.23058	0.081252	0.066	0.576	-0.18	0	245	173	3
2026-02-12	15:58:27.670	-6.335	13.125	18.865	0.852292	-0.221308	0.08052	0.0735	0.579	-0.1875	0	245	173	3
2026-02-12	15:58:27.690	-5.95	11.375	16.87	0.874252	-0.205692	0.081252	0.0795	0.576	-0.18	0	245	173	3
2026-02-12	15:58:27.710	-7.35	9.1	14.665	0.930372	-0.19642	0.07808	0.0765	0.579	-0.189	0	245	173	3
2026-02-12	15:58:27.730	-9.87	6.685	11.865	0.951844	-0.196908	0.076616	0.075	0.5895	-0.1875	0	245	173	3
2026-02-12	15:58:27.750	-11.445	1.365	5.11	0.986736	-0.214476	0.077836	0.075	0.5895	-0.1875	0	245	173	3
2026-02-12	15:58:27.770	-10.92	-3.29	-1.12	1.032364	-0.218136	0.077348	0.0735	0.5925	-0.1875	0	245	173	3
2026-02-12	15:58:27.790	-6.755	-8.785	-9.45	1.097756	-0.242048	0.101748	0.072	0.591	-0.189	0	245	173	3
2026-02-12	15:58:27.810	2.87	-13.79	-19.845	1.189744	-0.241072	0.102724	0.075	0.5865	-0.189	0	243	163	3
2026-02-12	15:58:27.830	10.185	-17.22	-30.065	1.277584	-0.237168	0.122732	0.0735	0.585	-0.186	0	243	163	3
2026-02-12	15:58:27.850	15.05	-19.32	-40.18	1.330288	-0.231312	0.142984	0.0705	0.5835	-0.183	0	243	163	3
2026-02-12	15:58:27.870	18.445	-19.425	-49.42	1.336144	-0.189344	0.150548	0.075	0.5775	-0.1815	0	243	163	3
2026-02-12	15:58:27.890	17.395	-18.27	-59.57	1.340292	-0.150548	0.128832	0.0645	0.5685	-0.18	0	243	163	3
2026-02-12	15:58:27.910	11.2	-15.855	-69.65	1.359812	-0.10126	0.092476	0.0615	0.555	-0.186	0	243	163	3
2026-02-12	15:58:27.930	2.065	-14.56	-80.115	1.35542	-0.092476	0.081252	0.06	0.5475	-0.171	0	243	163	3
2026-02-12	15:58:27.950	-7.805	-14	-88.445	1.30662	-0.135176	0.15006	0.0735	0.552	-0.174	0	243	163	3
2026-02-12	15:58:27.970	-8.995	-13.335	-89.425	1.247816	-0.175192	0.210572	0.0735	0.537	-0.1785	0	243	163	3
2026-02-12	15:58:27.990	-4.165	-10.885	-80.255	1.166564	-0.115656	0.263276	0.0675	0.513	-0.177	0	243	163	3
2026-02-12	15:58:28.010	-4.095	-6.02	-60.2	1.042856	-0.172752	0.269132	0.066	0.501	-0.171	0	240	150	3
2026-02-12	15:58:28.030	4.27	5.11	-38.675	0.909632	-0.015616	0.244976	0.072	0.4935	-0.174	0	240	150	3
2026-02-12	15:58:28.050	-1.925	13.125	-18.55	0.842776	0.144936	0.175192	0.072	0.4815	-0.177	0	240	150	3
2026-02-12	15:58:28.070	-28.56	22.505	-4.27	0.803492	0.192516	0.1098	0.0705	0.477	-0.174	0	240	150	3
2026-02-12	15:58:28.090	-61.53	29.855	2.625	0.784216	0.187636	0.07515199	0.0705	0.4875	-0.183	0	240	150	3
2026-02-12	15:58:28.110	-91.21	36.75	3.535	0.76128	0.172508	0.05856	0.072	0.468	-0.183	0	240	150	3
2026-02-12	15:58:28.130	-123.83	41.51	2.24	0.727364	0.075396	0.049044	0.0765	0.4875	-0.1905	0	240	150	3
2026-02-12	15:58:28.150	-147.7	42.84	1.12	0.689788	-0.048556	0.041236	0.0795	0.5055	-0.192	0	240	150	3
2026-02-12	15:58:28.170	-150.465	41.265	0.49	0.625616	-0.137372	0.071004	0.087	0.504	-0.2055	0	240	150	3
2026-02-12	15:58:28.190	-138.075	37.835	0.875	0.600728	-0.166896	0.118096	0.0885	0.519	-0.2145	0	240	150	3
2026-02-12	15:58:28.210	-115.71	33.285	1.015	0.5917	-0.187148	0.159576	0.0915	0.5385	-0.2265	0	239	143	3
2026-02-12	15:58:28.230	-92.155	29.015	1.12	0.602924	-0.1769	0.189344	0.0945	0.543	-0.2265	0	239	143	3
2026-02-12	15:58:28.250	-76.58	24.29	1.435	0.639036	-0.172752	0.18666	0.0975	0.549	-0.2295	0	239	143	3
2026-02-12	15:58:28.270	-65.415	18.655	0.7	0.692472	-0.17568	0.174216	0.0975	0.5535	-0.237	0	239	143	3
2026-02-12	15:58:28.290	-57.47	13.545	-0.455	0.775676	-0.174704	0.175192	0.1065	0.552	-0.231	0	239	143	3
2026-02-12	15:58:28.310	-55.265	10.15	-0.98	0.83204	-0.20618	0.177876	0.111	0.567	-0.2355	0	239	143	3
2026-02-12	15:58:28.330	-51.24	7.7	-3.045	0.88816	-0.189344	0.173972	0.102	0.573	-0.234	0	239	143	3
2026-02-12	15:58:28.350	-49.665	4.69	-4.165	0.93086	-0.17324	0.167628	0.1065	0.582	-0.2355	0	239	143	3
2026-02-12	15:58:28.370	-52.255	0.84	-4.725	0.940864	-0.179584	0.187148	0.1095	0.579	-0.231	0	239	143	3
2026-02-12	15:58:28.390	-60.515	-4.025	-2.66	0.91378	-0.208132	0.22936	0.1095	0.5745	-0.2415	0	239	143	3
2026-02-12	15:58:28.410	-62.16	-7.49	-0.28	0.878888	-0.210328	0.267424	0.1125	0.5835	-0.2355	0	239	143	3
2026-02-12	15:58:28.430	-62.825	-10.99	1.47	0.85888	-0.226188	0.289384	0.111	0.5955	-0.2325	0	239	143	3
2026-02-12	15:58:28.450	-59.045	-15.33	2.345	0.842532	-0.240828	0.30622	0.108	0.603	-0.234	0	239	143	3
2026-02-12	15:58:28.470	-53.06	-18.76	2.345	0.850096	-0.269132	0.321348	0.1095	0.609	-0.2295	0	239	143	3
2026-02-12	15:58:28.490	-45.115	-20.58	1.365	0.86986	-0.25254	0.340136	0.1095	0.6105	-0.225	0	239	143	3
2026-02-12	15:58:28.510	-40.53	-21.49	-0.14	0.900116	-0.25498	0.34404	0.105	0.6165	-0.2235	0	239	143	3
2026-02-12	15:58:28.530	-37.205	-21.945	-1.925	0.96624	-0.250832	0.346724	0.102	0.618	-0.2175	0	239	143	3
2026-02-12	15:58:28.550	-39.095	-20.615	-5.285	1.057008	-0.22936	0.347212	0.1065	0.624	-0.2145	0	239	143	3
2026-02-12	15:58:28.570	-43.96	-20.335	-10.99	1.19682	-0.223992	0.333304	0.096	0.6195	-0.2145	0	239	143	3
2026-02-12	15:58:28.590	-54.81	-19.95	-24.22	1.518412	-0.229116	0.315004	0.099	0.6225	-0.207	0	239	143	3
2026-02-12	15:58:28.610	-65.38	-14.665	-39.55	1.633092	-0.375272	0.32086	0.096	0.6255	-0.207	0	239	162	3
2026-02-12	15:58:28.630	-60.69	-4.13	-47.53	1.36884	-0.3477	0.354532	0.093	0.6315	-0.2055	0	239	162	3
2026-02-12	15:58:28.650	-63.315	2.45	-44.345	1.106052	-0.316468	0.323056	0.0885	0.6315	-0.201	0	239	162	3
2026-02-12	15:58:28.670	-66.08	7.84	-33.425	0.862296	-0.369904	0.267668	0.0855	0.627	-0.198	0	239	162	3
2026-02-12	15:58:28.690	-50.89	6.72	-17.675	0.764452	-0.33794	0.231312	0.087	0.627	-0.195	0	239	162	3
2026-02-12	15:58:28.710	-24.115	1.855	-0.595	0.778848	-0.190808	0.232532	0.0885	0.63	-0.1935	0	239	162	3
2026-02-12	15:58:28.730	-5.775	-3.15	16.66	0.835944	-0.222528	0.219844	0.0915	0.627	-0.201	0	239	162	3
2026-02-12	15:58:28.750	15.26	-5.285	29.295	0.940864	-0.254492	0.222772	0.0855	0.633	-0.1995	0	239	162	3
2026-02-12	15:58:28.770	30.065	-1.82	38.22	1.02114	-0.25254	0.22082	0.0885	0.6315	-0.2055	0	239	162	3
2026-02-12	15:58:28.790	33.18	4.2	42.245	1.108004	-0.224968	0.201056	0.093	0.6435	-0.1965	0	239	162	3
2026-02-12	15:58:28.810	23.73	15.505	44.31	1.157536	-0.207156	0.165188	0.0945	0.639	-0.213	0	239	189	3
2026-02-12	15:58:28.830	11.2	23.415	42	1.102636	-0.185928	0.159576	0.096	0.642	-0.2145	0	239	189	3
2026-02-12	15:58:28.850	-3.815	28.49	39.305	1.019188	-0.163236	0.151524	0.1005	0.645	-0.2175	0	239	189	3
2026-02-12	15:58:28.870	-21.175	30.975	36.925	0.957212	-0.194224	0.13542	0.105	0.6435	-0.225	0	239	189	3
2026-02-12	15:58:28.890	-34.055	31.885	35.42	0.904508	-0.199348	0.13176	0.111	0.6525	-0.2295	0	239	189	3
2026-02-12	15:58:28.910	-40.88	31.22	34.825	0.874008	-0.224724	0.125416	0.114	0.6615	-0.2295	0	239	189	3
2026-02-12	15:58:28.930	-41.72	29.82	34.02	0.84912	-0.217404	0.121756	0.1185	0.6645	-0.2355	0	239	189	3
2026-02-12	15:58:28.950	-40.11	27.93	32.935	0.839604	-0.263764	0.106384	0.1215	0.6675	-0.2415	0	239	189	3
2026-02-12	15:58:28.970	-33.285	25.585	31.29	0.811056	-0.242536	0.089304	0.1305	0.6825	-0.2445	0	239	189	3
2026-02-12	15:58:28.990	-24.15	22.365	28.77	0.790316	-0.27206	0.076616	0.1335	0.675	-0.2535	0	239	189	3
2026-02-12	15:58:29.010	-10.675	18.9	24.955	0.784216	-0.220088	0.085156	0.141	0.684	-0.2565	0	238	201	3
2026-02-12	15:58:29.030	-5.11	13.65	17.115	0.80764	-0.269132	0.099796	0.141	0.684	-0.2565	0	238	201	3
2026-02-12	15:58:29.050	1.68	11.76	10.99	0.825208	-0.236436	0.12078	0.1455	0.6885	-0.2595	0	238	201	3
2026-02-12	15:58:29.070	2.45	10.465	4.9	0.86132	-0.219112	0.125904	0.1545	0.696	-0.2625	0	238	201	3
2026-02-12	15:58:29.090	-0.28	9.905	-1.085	0.896944	-0.212768	0.131272	0.1605	0.696	-0.2655	0	238	201	3
2026-02-12	15:58:29.110	-4.585	10.22	-5.88	0.933544	-0.207156	0.143472	0.1545	0.6885	-0.2685	0	238	201	3
2026-02-12	15:58:29.130	-10.08	11.165	-8.47	0.989664	-0.210328	0.152012	0.1485	0.684	-0.27	0	238	201	3
2026-02-12	15:58:29.150	-15.085	11.935	-10.43	1.090192	-0.209596	0.160064	0.156	0.684	-0.2685	0	238	201	3
2026-02-12	15:58:29.170	-19.81	14.63	-13.3	1.19316	-0.19398	0.166896	0.1545	0.6855	-0.2775	0	238	201	3
2026-02-12	15:58:29.190	-27.125	18.025	-16.59	1.29686	-0.15128	0.146644	0.1635	0.6855	-0.27	0	238	201	3
2026-02-12	15:58:29.210	-37.87	21.56	-22.085	1.342732	-0.097112	0.10126	0.159	0.681	-0.279	0	234	193	3
2026-02-12	15:58:29.230	-51.52	20.58	-37.52	1.381528	-0.110288	0.031476	0.1635	0.678	-0.282	0	234	193	3
2026-02-12	15:58:29.250	-59.815	13.265	-57.19	1.269532	-0.182024	0.048556	0.1635	0.6825	-0.279	0	234	193	3
2026-02-12	15:58:29.270	-56.035	2.94	-67.165	1.10776	-0.239364	0.154696	0.1605	0.684	-0.2745	0	234	193	3
2026-02-12	15:58:29.290	-49.91	-6.79	-68.18	0.999424	-0.297192	0.24278	0.1605	0.675	-0.2715	0	234	193	3
2026-02-12	15:58:29.310	-28.28	-8.96	-59.255	0.770064	-0.270108	0.305	0.1575	0.666	-0.267	0	234	193	3
2026-02-12	15:58:29.330	-2.45	-9.59	-39.83	0.68564	-0.178364	0.308904	0.153	0.6645	-0.264	0	234	193	3
2026-02-12	15:58:29.350	11.235	-7.035	-18.935	0.728096	0.010004	0.264008	0.15	0.663	-0.2715	0	234	193	3
2026-02-12	15:58:29.370	8.925	0	-4.83	0.82228	0.065636	0.161528	0.1425	0.657	-0.2655	0	234	193	3
2026-02-12	15:58:29.390	-7.035	7.035	-0.245	0.9272	0.107116	0.047824	0.153	0.6555	-0.2685	0	234	193	3
2026-02-12	15:58:29.410	-40.705	12.705	-3.08	0.994544	0.033428	-0.020496	0.1545	0.6585	-0.264	0	230	180	3
2026-02-12	15:58:29.430	-70.42	15.925	-8.575	1.013576	-0.055876	0.009516	0.1485	0.6525	-0.2655	0	230	180	3
2026-02-12	15:58:29.450	-103.775	19.6	-15.995	1.011136	-0.164212	0.07198	0.1455	0.666	-0.2685	0	230	180	3
2026-02-12	15:58:29.470	-112.21	18.62	-18.445	1.03212	-0.255956	0.124928	0.15	0.669	-0.2655	0	230	180	3
2026-02-12	15:58:29.490	-111.265	17.185	-18.235	0.994544	-0.30012	0.186172	0.153	0.678	-0.2625	0	230	180	3
2026-02-12	15:58:29.510	-101.22	14.175	-16.73	0.912804	-0.301584	0.238632	0.156	0.687	-0.2595	0	230	180	3
2026-02-12	15:58:29.530	-90.44	10.22	-14.315	0.839604	-0.276208	0.270596	0.159	0.696	-0.2535	0	230	180	3
2026-02-12	15:58:29.550	-83.44	5.495	-11.41	0.78324	-0.260836	0.259616	0.159	0.7035	-0.2505	0	230	180	3
2026-02-12	15:58:29.570	-76.615	-0.315	-8.645	0.763232	-0.240584	0.237412	0.1605	0.702	-0.2475	0	230	180	3
2026-02-12	15:58:29.590	-69.405	-4.235	-7.35	0.75152	-0.2684	0.231312	0.15	0.708	-0.234	0	230	180	3
2026-02-12	15:58:29.610	-60.375	-7.14	-8.645	0.752984	-0.278892	0.229604	0.1545	0.708	-0.234	0	226	172	3
2026-02-12	15:58:29.630	-50.89	-9.275	-11.2	0.777384	-0.282552	0.230336	0.1485	0.7065	-0.2295	0	226	172	3
2026-02-12	15:58:29.650	-43.33	-10.15	-14.49	0.793488	-0.282796	0.236436	0.15	0.723	-0.2205	0	226	172	3
2026-02-12	15:58:29.670	-37.205	-10.745	-19.635	0.828136	-0.287188	0.252052	0.15	0.723	-0.2205	0	226	172	3
2026-02-12	15:58:29.690	-34.965	-11.025	-22.715	0.84668	-0.27816	0.271572	0.144	0.72	-0.222	0	226	172	3
2026-02-12	15:58:29.710	-34.51	-11.55	-25.235	0.87352	-0.283772	0.30744	0.1365	0.7155	-0.2175	0	226	172	3
2026-02-12	15:58:29.730	-33.565	-12.11	-26.39	0.912072	-0.277672	0.329888	0.135	0.7125	-0.2085	0	226	172	3
2026-02-12	15:58:29.750	-34.79	-13.405	-25.76	0.970632	-0.27084	0.350872	0.1335	0.708	-0.207	0	226	172	3
2026-02-12	15:58:29.770	-33.635	-14.91	-23.765	1.041392	-0.30622	0.363072	0.1335	0.705	-0.2115	0	226	172	3
2026-02-12	15:58:29.790	-27.965	-15.47	-21.035	1.10654	-0.299144	0.372832	0.1335	0.7065	-0.201	0	226	172	3
2026-02-12	15:58:29.810	-22.68	-15.26	-18.795	1.231224	-0.311344	0.352336	0.1365	0.714	-0.21	0	223	181	3
2026-02-12	15:58:29.830	-17.115	-14.07	-19.495	1.488156	-0.30866	0.350872	0.126	0.702	-0.2115	0	223	181	3
2026-02-12	15:58:29.850	-10.255	-8.19	-21.595	1.633824	-0.344772	0.35624	0.114	0.7065	-0.2055	0	223	181	3
2026-02-12	15:58:29.870	-7.35	5.775	-19.6	1.448628	-0.30012	0.34892	0.123	0.7005	-0.21	0	223	181	3
2026-02-12	15:58:29.890	-13.37	18.76	-11.27	1.142164	-0.257664	0.296704	0.123	0.7005	-0.21	0	223	181	3
2026-02-12	15:58:29.910	-24.745	25.305	2.8	0.90646	-0.210328	0.24522	0.1275	0.69	-0.207	0	223	181	3
2026-02-12	15:58:29.930	-38.15	26.74	20.755	0.78446	-0.19032	0.222528	0.1275	0.6825	-0.2055	0	223	181	3
2026-02-12	15:58:29.950	-42.77	25.375	38.815	0.793732	-0.162016	0.217648	0.126	0.6855	-0.207	0	223	181	3
2026-02-12	15:58:29.970	-41.895	24.255	54.425	0.841068	-0.1708	0.2013	0.129	0.6855	-0.2055	0	223	181	3
2026-02-12	15:58:29.990	-37.135	22.505	66.36	0.928176	-0.245952	0.178852	0.141	0.696	-0.21	0	223	181	3
2026-02-12	15:58:30.010	-19.11	22.015	73.92	1.098	-0.244	0.170556	0.141	0.696	-0.21	0	222	204	3
2026-02-12	15:58:30.030	-10.78	24.78	74.97	1.155828	-0.226676	0.16836	0.153	0.696	-0.201	0	222	204	3
2026-02-12	15:58:30.050	-6.335	30.38	73.92	1.190476	-0.24278	0.167872	0.1515	0.711	-0.2115	0	222	204	3
2026-02-12	15:58:30.070	-6.51	35.595	72.415	1.164856	-0.229848	0.158356	0.1635	0.7065	-0.2025	0	222	204	3
2026-02-12	15:58:30.090	-18.13	43.47	66.01	1.07482	-0.191052	0.152012	0.174	0.7185	-0.1995	0	222	204	3
2026-02-12	15:58:30.110	-31.395	45.885	61.95	0.989908	-0.190808	0.133224	0.1755	0.7185	-0.207	0	222	204	3
2026-02-12	15:58:30.130	-41.615	46.025	58.45	0.916708	-0.176168	0.130296	0.1845	0.726	-0.2085	0	222	204	3
2026-02-12	15:58:30.150	-48.3	43.295	55.3	0.861076	-0.189588	0.120536	0.192	0.7365	-0.201	0	222	204	3
2026-02-12	15:58:30.170	-50.05	39.27	51.555	0.825696	-0.203008	0.109556	0.1995	0.7455	-0.2025	0	222	204	3
2026-02-12	15:58:30.190	-46.935	34.685	47.705	0.796416	-0.238388	0.09076799	0.2055	0.7485	-0.2055	0	222	204	3
2026-02-12	15:58:30.210	-38.78	29.96	43.05	0.774456	-0.257176	0.083448	0.207	0.756	-0.198	0	221	213	3
2026-02-12	15:58:30.230	-26.635	25.34	36.68	0.77226	-0.254248	0.080032	0.2145	0.756	-0.195	0	221	213	3
2026-02-12	15:58:30.250	-14.35	21.385	27.895	0.781532	-0.25742	0.070028	0.2175	0.7695	-0.1965	0	221	213	3
2026-02-12	15:58:30.270	-4.55	18.34	19.04	0.78568	-0.223992	0.101016	0.2235	0.7755	-0.198	0	221	213	3
2026-02-12	15:58:30.290	-3.185	15.61	8.085	0.803492	-0.23302	0.109556	0.2175	0.7755	-0.1875	0	221	213	3
2026-02-12	15:58:30.310	-5.39	13.125	-9.87	0.813008	-0.221064	0.129564	0.2175	0.7755	-0.1875	0	221	213	3
2026-02-12	15:58:30.330	-10.465	12.145	-21.035	0.825208	-0.22692	0.137372	0.219	0.777	-0.1875	0	221	213	3
2026-02-12	15:58:30.350	-16.1	12.355	-31.08	0.845216	-0.232288	0.1342	0.222	0.7785	-0.189	0	221	213	3
2026-02-12	15:58:30.370	-22.435	13.195	-39.025	0.853756	-0.231312	0.12932	0.222	0.7785	-0.186	0	221	213	3
2026-02-12	15:58:30.390	-27.3	13.16	-45.36	0.912804	-0.23912	0.141032	0.2175	0.7725	-0.183	0	221	213	3
2026-02-12	15:58:30.410	-29.89	13.37	-52.08	1.02602	-0.244976	0.146888	0.2145	0.768	-0.1845	0	219	202	3
2026-02-12	15:58:30.430	-33.11	14.42	-60.34	1.162416	-0.252296	0.143472	0.2145	0.7695	-0.1875	0	219	202	3
2026-02-12	15:58:30.450	-38.71	16.24	-69.51	1.255868	-0.231312	0.129076	0.207	0.7545	-0.1785	0	219	202	3
2026-02-12	15:58:30.470	-45.36	16.03	-80.64	1.3664	-0.235704	0.122244	0.2055	0.759	-0.18	0	219	202	3
2026-02-12	15:58:30.490	-52.745	14.385	-93.625	1.436428	-0.271572	0.125416	0.198	0.75	-0.177	0	219	202	3
2026-02-12	15:58:30.510	-54.67	9.485	-109.655	1.433744	-0.343796	0.160308	0.1815	0.741	-0.1815	0	219	202	3
2026-02-12	15:58:30.530	-46.305	4.585	-118.755	1.280024	-0.325008	0.22814	0.1815	0.741	-0.1815	0	219	202	3
2026-02-12	15:58:30.550	-43.12	-1.505	-114.59	1.09678	-0.300852	0.249612	0.1695	0.7335	-0.168	0	219	202	3
2026-02-12	15:58:30.570	-33.285	-3.64	-99.785	0.81008	-0.301828	0.253272	0.159	0.7185	-0.1605	0	219	202	3
2026-02-12	15:58:30.590	-13.265	-6.58	-76.965	0.6405	-0.221308	0.263032	0.153	0.7065	-0.1605	0	219	202	3
2026-02-12	15:58:30.610	1.785	-7.945	-54.04	0.627568	-0.03538	0.256932	0.147	0.7035	-0.156	0	218	188	3
2026-02-12	15:58:30.630	-1.715	-5.39	-35.735	0.710772	-0.0183	0.189588	0.141	0.699	-0.1605	0	218	188	3
2026-02-12	15:58:30.650	-15.925	0.14	-26.25	0.893528	0.006588	0.116632	0.1335	0.69	-0.153	0	218	188	3
2026-02-12	15:58:30.670	-40.6	8.47	-24.605	1.063108	-0.04636	0.062464	0.1365	0.696	-0.15	0	218	188	3
2026-02-12	15:58:30.690	-69.44	16.8	-25.76	1.110688	-0.121756	0.058804	0.1335	0.69	-0.153	0	218	188	3
2026-02-12	15:58:30.710	-98.07	23.66	-26.635	1.064328	-0.175192	0.101748	0.1395	0.696	-0.1485	0	218	188	3
2026-02-12	15:58:30.730	-125.545	27.545	-23.17	0.994544	-0.203252	0.1403	0.141	0.696	-0.15	0	218	188	3
2026-02-12	15:58:30.750	-143.255	26.215	-15.47	0.96258	-0.252784	0.213256	0.1365	0.7005	-0.1455	0	218	188	3
2026-02-12	15:58:30.770	-142.835	22.75	-6.475	0.940376	-0.256932	0.273768	0.135	0.708	-0.135	0	218	188	3
2026-02-12	15:58:30.790	-133.21	18.76	1.575	0.887672	-0.247904	0.294264	0.138	0.717	-0.1305	0	218	188	3
2026-02-12	15:58:30.810	-119.63	15.96	5.985	0.852536	-0.244732	0.25986	0.1365	0.7275	-0.1215	0	218	180	3
2026-02-12	15:58:30.830	-107.905	12.53	8.995	0.823988	-0.227652	0.230336	0.1335	0.7305	-0.114	0	218	180	3
2026-02-12	15:58:30.850	-101.5	10.85	10.43	0.806664	-0.221064	0.229848	0.141	0.7335	-0.108	0	218	180	3
2026-02-12	15:58:30.870	-97.86	10.535	9.625	0.792268	-0.19642	0.235948	0.144	0.7395	-0.1065	0	218	180	3
2026-02-12	15:58:30.890	-97.825	10.465	6.265	0.778604	-0.2135	0.241316	0.1515	0.75	-0.096	0	218	180	3
2026-02-12	15:58:30.910	-99.715	10.465	0.595	0.769088	-0.21106	0.249856	0.1425	0.756	-0.0945	0	218	180	3
2026-02-12	15:58:30.930	-100.695	10.815	-7.735	0.765184	-0.260104	0.248392	0.15	0.756	-0.093	0	218	180	3
2026-02-12	15:58:30.950	-99.75	9.765	-20.755	0.794464	-0.307196	0.265716	0.141	0.759	-0.0825	0	218	180	3
2026-02-12	15:58:30.970	-94.325	8.33	-28.98	0.830088	-0.333304	0.27206	0.1395	0.762	-0.0735	0	218	180	3
2026-02-12	15:58:30.990	-86.1	5.705	-36.505	0.865224	-0.328912	0.28548	0.141	0.7635	-0.0645	0	218	180	3
2026-02-12	15:58:31.010	-80.08	2.695	-42.245	0.890844	-0.342576	0.317444	0.138	0.759	-0.06	0	217	185	2
2026-02-12	15:58:31.030	-72.59	-0.21	-44.73	0.913048	-0.348432	0.3294	0.1335	0.759	-0.0585	0	217	185	2
2026-02-12	15:58:31.050	-66.185	-2.345	-44.905	0.985272	-0.327936	0.317932	0.1305	0.753	-0.051	0	217	185	2
2026-02-12	15:58:31.070	-63.105	-3.22	-43.96	1.095316	-0.293532	0.29524	0.1305	0.75	-0.054	0	217	185	2
2026-02-12	15:58:31.090	-62.51	-3.465	-42.35	1.249768	-0.269132	0.266692	0.1245	0.747	-0.054	0	217	185	2
2026-02-12	15:58:31.110	-67.13	-2.52	-40.11	1.353956	-0.235216	0.244	0.1155	0.741	-0.0435	0	217	185	2
2026-02-12	15:58:31.130	-76.545	-4.27	-36.33	1.42984	-0.225944	0.229848	0.1155	0.735	-0.0315	0	217	185	2
2026-02-12	15:58:31.150	-88.34	-9.66	-34.16	1.598444	-0.278404	0.238632	0.1155	0.738	-0.033	0	217	185	2
2026-02-12	15:58:31.170	-90.51	-12.565	-34.72	1.698484	-0.32696	0.2806	0.1155	0.738	-0.033	0	217	185	2
2026-02-12	15:58:31.190	-88.83	-10.605	-32.305	1.55794	-0.360388	0.302804	0.1095	0.7275	-0.0195	0	217	185	2
2026-02-12	15:58:31.210	-82.285	-9.765	-26.18	1.337608	-0.33306	0.297924	0.1035	0.72	-0.0105	0	216	202	3
2026-02-12	15:58:31.230	-70.945	-10.64	-14.98	1.107516	-0.294508	0.277916	0.0975	0.7215	-0.0075	0	216	202	3
2026-02-12	15:58:31.250	-53.025	-13.475	0.49	0.971364	-0.259372	0.271572	0.09	0.723	0	0	216	202	3
2026-02-12	15:58:31.270	-32.55	-15.295	17.57	0.915	-0.153476	0.270108	0.102	0.7185	0.006	0	216	202	3
2026-02-12	15:58:31.290	-19.005	-15.68	32.27	0.928664	-0.110532	0.25376	0.087	0.723	0.0075	0	216	202	3
2026-02-12	15:58:31.310	-7.805	-13.405	42.56	0.955504	-0.098332	0.228872	0.0945	0.72	0.0135	0	216	202	3
2026-02-12	15:58:31.330	3.255	-8.54	46.235	0.986004	-0.06954	0.210328	0.102	0.7245	0.018	0	216	202	3
2026-02-12	15:58:31.350	3.5	-1.155	46.095	0.992836	-0.074664	0.199348	0.108	0.723	0.027	0	216	202	3
2026-02-12	15:58:31.370	-8.05	8.82	44.835	0.964532	-0.08174	0.172752	0.1065	0.7395	0.009	0	216	202	3
2026-02-12	15:58:31.390	-25.235	16.87	41.895	0.90646	-0.130784	0.146644	0.111	0.7425	0.0105	0	216	202	3
2026-02-12	15:58:31.410	-32.55	20.475	40.67	0.878888	-0.160552	0.13908	0.1125	0.7485	0.0165	0	218	218	3
2026-02-12	15:58:31.430	-30.45	22.26	40.18	0.835456	-0.17202	0.122244	0.114	0.7515	0.018	0	218	218	3
2026-02-12	15:58:31.450	-25.27	21.875	39.655	0.787388	-0.159088	0.094184	0.117	0.756	0.018	0	218	218	3
2026-02-12	15:58:31.470	-17.325	19.18	38.22	0.757376	-0.156648	0.067588	0.117	0.759	0.018	0	218	218	3
2026-02-12	15:58:31.490	-10.745	15.225	36.995	0.762744	-0.156648	0.024156	0.1185	0.7635	0.0135	0	218	218	3
2026-02-12	15:58:31.510	-9.03	10.5	36.225	0.802028	-0.171776	-0.005612	0.1215	0.7635	0.0165	0	218	218	3
2026-02-12	15:58:31.530	-8.015	6.37	35.035	0.835944	-0.176412	-0.012444	0.1275	0.7695	0.0105	0	218	218	3
2026-02-12	15:58:31.550	-7.28	3.5	34.405	0.841312	-0.170556	-0.009028	0.1305	0.7725	0.015	0	218	218	3
2026-02-12	15:58:31.570	-8.4	1.68	33.88	0.854244	-0.167872	-0.011468	0.132	0.771	0.024	0	218	218	3
2026-02-12	15:58:31.590	-10.99	0.875	30.835	0.836188	-0.177876	-0.02806	0.126	0.777	0.024	0	218	218	3
2026-02-12	15:58:31.610	-12.46	0.56	26.635	0.792268	-0.208864	-0.018544	0.135	0.777	0.0195	0	220	210	3
2026-02-12	15:58:31.630	-9.87	-0.595	20.44	0.791292	-0.234728	0.008052	0.144	0.78	0.0165	0	220	210	3
2026-02-12	15:58:31.650	-9.625	-1.26	13.755	0.792756	-0.25254	0.047336	0.1395	0.7875	0.024	0	220	210	3
2026-02-12	15:58:31.670	-7.49	-1.33	6.685	0.833504	-0.335012	0.079544	0.1365	0.792	0.0285	0	220	210	3
2026-02-12	15:58:31.690	0.35	0.455	-0.385	0.878156	-0.338672	0.105896	0.15	0.786	0.0255	0	220	210	3
2026-02-12	15:58:31.710	3.885	2.345	-7.14	0.927932	-0.365512	0.116144	0.1485	0.789	0.0195	0	220	210	3
2026-02-12	15:58:31.730	4.83	3.85	-13.23	0.98698	-0.392352	0.122488	0.1455	0.786	0.0165	0	220	210	3
2026-02-12	15:58:31.750	5.565	5.11	-18.41	1.029924	-0.410652	0.142496	0.1455	0.7845	0.0165	0	220	210	3
2026-02-12	15:58:31.770	4.62	6.755	-20.3	1.0431	-0.413336	0.155428	0.135	0.795	0.021	0	220	210	3
2026-02-12	15:58:31.790	-4.305	6.615	-20.335	1.090436	-0.393816	0.138104	0.1425	0.783	0.0075	0	220	210	3
2026-02-12	15:58:31.810	-15.575	2.03	-24.5	1.194136	-0.396744	0.08662	0.1425	0.783	0.0075	0	222	183	3
2026-02-12	15:58:31.830	-16.87	-7.77	-34.475	1.27246	-0.455548	0.07442	0.1365	0.7785	0.015	0	222	183	3
2026-02-12	15:58:31.850	-2.835	-20.615	-49.63	1.257332	-0.55144	0.175192	0.1275	0.768	0.0195	0	222	183	3
2026-02-12	15:58:31.870	28.77	-29.365	-62.335	1.189256	-0.609512	0.345504	0.1185	0.762	0.0225	0	222	183	3
2026-02-12	15:58:31.890	61.32	-28.35	-64.015	1.15168	-0.566812	0.41846	0.114	0.762	0.0285	0	222	183	3
2026-02-12	15:58:31.910	84.875	-17.815	-53.865	1.159732	-0.49044	0.38308	0.1155	0.7575	0.0225	0	222	183	3
2026-02-12	15:58:31.930	96.25	-0.07	-37.87	1.114104	-0.305976	0.238144	0.1125	0.7485	0.021	0	222	183	3
2026-02-12	15:58:31.950	78.75	13.09	-21.84	1.057496	-0.17446	0.049044	0.1125	0.7395	0.0195	0	222	183	3
