yyyy-MM-dd	HH:mm:ss.fff	gyrX	gyrY	gyrZ	accX	accY	accZ	magX	magY	magZ	Marker	Energy	Angle	Classification
2026-02-12	15:58:00.810	1.645	-4.69	21.98	0.975024	0.303536	0.115168	-0.294	-0.2325	0.3135	0	403	136	2
2026-02-12	15:58:00.830	0.945	-5.67	19.705	0.973804	0.307196	0.123708	-0.303	-0.228	0.3165	0	403	136	2
2026-02-12	15:58:00.850	-0.56	-6.65	15.89	0.966728	0.304024	0.13176	-0.3075	-0.2265	0.3165	0	403	136	2
2026-02-12	15:58:00.870	-1.33	-7	13.37	0.97112	0.305976	0.133956	-0.2985	-0.2265	0.318	0	403	136	2
2026-02-12	15:58:00.890	-1.505	-6.58	10.675	0.96868	0.303048	0.134688	-0.297	-0.222	0.321	0	403	136	2
2026-02-12	15:58:00.910	-1.19	-6.16	8.05	0.974292	0.297436	0.14152	-0.3	-0.2235	0.318	0	403	136	2
2026-02-12	15:58:00.930	0.105	-5.32	5.39	0.979416	0.294752	0.141764	-0.306	-0.2235	0.3195	0	403	136	2
2026-02-12	15:58:00.950	2.17	-4.375	2.66	0.97966	0.290848	0.144692	-0.3015	-0.2235	0.324	0	403	136	2
2026-02-12	15:58:00.970	4.06	-3.64	-0.035	0.98332	0.289384	0.146888	-0.3	-0.222	0.321	0	403	136	2
2026-02-12	15:58:00.990	4.935	-2.975	-2.555	0.97722	0.293532	0.150304	-0.303	-0.2175	0.324	0	403	136	2
2026-02-12	15:58:01.010	4.62	-2.485	-5.04	0.98088	0.292556	0.147864	-0.303	-0.216	0.327	0	364	130	2
2026-02-12	15:58:01.030	3.64	-2.065	-7.315	0.983076	0.28792	0.148596	-0.3015	-0.2205	0.3255	0	364	130	2
2026-02-12	15:58:01.050	2.45	-1.505	-9.555	0.980636	0.2806	0.147864	-0.3015	-0.222	0.327	0	364	130	2
2026-02-12	15:58:01.070	1.4	-1.085	-11.69	0.978684	0.2745	0.149084	-0.3015	-0.2175	0.3285	0	364	130	2
2026-02-12	15:58:01.090	0.805	-0.735	-13.615	0.979416	0.266692	0.145912	-0.2985	-0.2205	0.327	0	364	130	2
2026-02-12	15:58:01.110	0.455	-0.385	-15.47	0.977708	0.2623	0.146156	-0.303	-0.2265	0.327	0	364	130	2
2026-02-12	15:58:01.130	0	0	-16.66	0.982588	0.25986	0.141276	-0.303	-0.2265	0.327	0	364	130	2
2026-02-12	15:58:01.150	-0.42	0.35	-17.045	0.97966	0.258396	0.13908	-0.2955	-0.225	0.3285	0	364	130	2
2026-02-12	15:58:01.170	-0.91	0.805	-17.115	0.975512	0.255468	0.136884	-0.303	-0.225	0.3255	0	364	130	2
2026-02-12	15:58:01.190	-1.015	1.155	-16.905	0.972828	0.254004	0.130784	-0.2955	-0.2205	0.3285	0	364	130	2
2026-02-12	15:58:01.210	-0.91	1.54	-16.485	0.965508	0.247172	0.12932	-0.291	-0.231	0.321	0	321	129	2
2026-02-12	15:58:01.230	-1.015	1.75	-15.82	0.970632	0.252296	0.129076	-0.288	-0.2385	0.33	0	321	129	2
2026-02-12	15:58:01.250	-1.155	2.03	-14.875	0.964776	0.250344	0.126392	-0.291	-0.231	0.336	0	321	129	2
2026-02-12	15:58:01.270	-1.47	2.17	-13.86	0.9699	0.245708	0.119804	-0.282	-0.2325	0.3285	0	321	129	2
2026-02-12	15:58:01.290	-1.47	2.415	-12.6	0.965752	0.245952	0.118584	-0.282	-0.2445	0.33	0	321	129	2
2026-02-12	15:58:01.310	-1.61	2.45	-11.305	0.96014	0.243024	0.113704	-0.288	-0.249	0.3285	0	321	129	2
2026-02-12	15:58:01.330	-1.75	2.345	-9.8	0.964044	0.245708	0.116144	-0.276	-0.246	0.324	0	321	129	2
2026-02-12	15:58:01.350	-2.03	2.24	-8.19	0.961116	0.249124	0.113948	-0.288	-0.249	0.3225	0	321	129	2
2026-02-12	15:58:01.370	-2.66	1.855	-6.51	0.965752	0.246928	0.11102	-0.282	-0.246	0.327	0	321	129	2
2026-02-12	15:58:01.390	-3.465	1.47	-4.06	0.962092	0.248148	0.106628	-0.282	-0.246	0.327	0	321	129	2
2026-02-12	15:58:01.410	-4.06	1.015	-2.415	0.963068	0.249124	0.109068	-0.2835	-0.2445	0.324	0	279	129	2
2026-02-12	15:58:01.430	-4.2	0.63	-1.12	0.96624	0.249124	0.110776	-0.2865	-0.2505	0.3195	0	279	129	2
2026-02-12	15:58:01.450	-4.235	0.28	-0.035	0.9638	0.2501	0.109556	-0.285	-0.255	0.321	0	279	129	2
2026-02-12	15:58:01.470	-4.375	-0.14	0.84	0.962092	0.251076	0.110044	-0.2805	-0.2475	0.321	0	279	129	2
2026-02-12	15:58:01.490	-4.655	-0.455	1.715	0.965996	0.256688	0.110288	-0.276	-0.246	0.3225	0	279	129	2
2026-02-12	15:58:01.510	-4.97	-0.805	2.52	0.965264	0.2562	0.111264	-0.276	-0.249	0.3255	0	279	129	2
2026-02-12	15:58:01.530	-4.83	-1.05	3.22	0.970388	0.2562	0.110532	-0.276	-0.249	0.3255	0	279	129	2
2026-02-12	15:58:01.550	-4.27	-1.19	3.92	0.968192	0.257908	0.111996	-0.282	-0.243	0.3195	0	279	129	2
2026-02-12	15:58:01.570	-3.71	-1.295	4.585	0.96868	0.261324	0.108336	-0.276	-0.2445	0.318	0	279	129	2
2026-02-12	15:58:01.590	-3.535	-1.715	5.215	0.970144	0.266692	0.116144	-0.279	-0.2415	0.3195	0	279	129	2
2026-02-12	15:58:01.610	-3.71	-1.89	5.46	0.966728	0.268644	0.120536	-0.2895	-0.2475	0.3225	0	239	128	2
2026-02-12	15:58:01.630	-3.29	-1.925	5.18	0.969656	0.267424	0.119072	-0.2835	-0.2445	0.315	0	239	128	2
2026-02-12	15:58:01.650	-2.45	-1.925	4.41	0.969168	0.268644	0.120292	-0.2835	-0.2415	0.3195	0	239	128	2
2026-02-12	15:58:01.670	-1.855	-1.75	3.57	0.967948	0.27084	0.12078	-0.2835	-0.2415	0.3195	0	239	128	2
2026-02-12	15:58:01.690	-1.715	-1.47	2.835	0.9699	0.271084	0.121024	-0.2835	-0.2385	0.321	0	239	128	2
2026-02-12	15:58:01.710	-1.295	-1.12	2.555	0.970632	0.27084	0.123464	-0.2835	-0.2385	0.321	0	239	128	2
2026-02-12	15:58:01.730	-0.35	-0.77	2.24	0.975268	0.266448	0.119316	-0.2835	-0.246	0.318	0	239	128	2
2026-02-12	15:58:01.750	0.805	-0.49	1.82	0.970632	0.2684	0.121024	-0.2865	-0.2445	0.3195	0	239	128	2
2026-02-12	15:58:01.770	1.575	-0.49	1.295	0.975512	0.268156	0.121756	-0.2865	-0.2415	0.3195	0	239	128	2
2026-02-12	15:58:01.790	2.17	-0.35	0.63	0.97356	0.2745	0.121268	-0.2835	-0.2445	0.3165	0	239	128	2
2026-02-12	15:57:59.810	-53.83	-0.21	63.875	1.0797	0.212036	0.1647	-0.3495	-0.1245	0.297	0	366	128	3
2026-02-12	15:57:59.830	-43.575	-7.98	26.285	1.014308	0.205204	0.07076	-0.357	-0.1065	0.2925	0	366	128	3
2026-02-12	15:57:59.850	-39.06	-20.51	-3.535	0.980392	0.26962	0.044164	-0.3615	-0.099	0.288	0	366	128	3
2026-02-12	15:57:59.870	-27.755	-26.81	-24.675	1.028704	0.268888	0.07808	-0.3615	-0.1035	0.285	0	366	128	3
2026-02-12	15:57:59.890	-6.615	-27.265	-44.625	1.06994	0.329644	0.105896	-0.3555	-0.102	0.2895	0	366	128	3
2026-02-12	15:57:59.910	8.75	-24.71	-57.365	1.0492	0.361364	0.118096	-0.3555	-0.108	0.297	0	366	128	3
2026-02-12	15:57:59.930	20.23	-21.875	-62.965	1.032364	0.328424	0.110776	-0.3525	-0.1185	0.3015	0	366	128	3
2026-02-12	15:57:59.950	32.515	-18.305	-64.575	0.99552	0.349408	0.105652	-0.3495	-0.126	0.303	0	366	128	3
2026-02-12	15:57:59.970	38.36	-15.75	-63.21	0.956968	0.359656	0.10248	-0.3465	-0.135	0.3045	0	366	128	3
2026-02-12	15:57:59.990	39.025	-13.755	-60.62	0.936472	0.364292	0.115168	-0.3465	-0.147	0.309	0	366	128	3
2026-02-12	15:58:00.010	35	-12.53	-57.89	0.927932	0.349164	0.129564	-0.3525	-0.156	0.315	0	415	127	2
2026-02-12	15:58:00.030	28.945	-12.74	-56.525	0.929396	0.3233	0.129564	-0.3525	-0.156	0.315	0	415	127	2
2026-02-12	15:58:00.050	18.795	-14.14	-55.545	0.949648	0.318664	0.125416	-0.3525	-0.156	0.315	0	415	127	2
2026-02-12	15:58:00.070	7.735	-14.49	-55.335	0.966484	0.326228	0.13542	-0.3195	-0.18	0.3315	0	415	127	2
2026-02-12	15:58:00.090	-4.9	-14.735	-55.02	0.988444	0.297924	0.172508	-0.318	-0.1905	0.3285	0	415	127	2
2026-02-12	15:58:00.110	-16.205	-14.805	-56.28	1.01626	0.275476	0.203008	-0.318	-0.1965	0.333	0	415	127	2
2026-02-12	15:58:00.130	-25.585	-14.595	-58.415	1.034316	0.25742	0.219844	-0.312	-0.2055	0.3285	0	415	127	2
2026-02-12	15:58:00.150	-30.415	-14.595	-60.445	1.063596	0.23302	0.230824	-0.306	-0.213	0.3255	0	415	127	2
2026-02-12	15:58:00.170	-29.155	-13.79	-62.72	1.058716	0.216184	0.230092	-0.303	-0.216	0.336	0	415	127	2
2026-02-12	15:58:00.190	-23.765	-13.16	-64.12	1.048224	0.193492	0.228384	-0.2985	-0.222	0.321	0	415	127	2
2026-02-12	15:58:00.210	-13.825	-12.705	-65.38	1.047248	0.191784	0.224724	-0.2835	-0.237	0.33	0	443	128	2
2026-02-12	15:58:00.230	-4.025	-12.285	-66.395	1.031388	0.201788	0.21838	-0.288	-0.2445	0.327	0	443	128	2
2026-02-12	15:58:00.250	-0.035	-11.585	-65.8	1.02114	0.223992	0.200324	-0.282	-0.258	0.336	0	443	128	2
2026-02-12	15:58:00.270	-2.1	-10.885	-63.91	1.009428	0.226676	0.188612	-0.2715	-0.2595	0.3345	0	443	128	2
2026-02-12	15:58:00.290	-7.665	-9.52	-60.515	0.990152	0.234728	0.174216	-0.2595	-0.2625	0.33	0	443	128	2
2026-02-12	15:58:00.310	-17.255	-6.615	-52.675	0.960384	0.224236	0.16958	-0.2595	-0.2625	0.33	0	443	128	2
2026-02-12	15:58:00.330	-21	-4.725	-45.64	0.945744	0.210572	0.168604	-0.2475	-0.2805	0.324	0	443	128	2
2026-02-12	15:58:00.350	-20.545	-2.415	-37.555	0.922564	0.204472	0.158356	-0.2505	-0.288	0.3255	0	443	128	2
2026-02-12	15:58:00.370	-17.815	-0.56	-28.385	0.917196	0.196664	0.15006	-0.237	-0.2955	0.324	0	443	128	2
2026-02-12	15:58:00.390	-12.775	1.89	-18.795	0.906704	0.218136	0.137616	-0.231	-0.2865	0.318	0	443	128	2
2026-02-12	15:58:00.410	-8.855	4.305	-9.905	0.900604	0.229604	0.127124	-0.2385	-0.297	0.312	0	448	137	2
2026-02-12	15:58:00.430	-5.985	6.23	-1.505	0.908412	0.237412	0.12444	-0.231	-0.2985	0.3225	0	448	137	2
2026-02-12	15:58:00.450	-3.745	8.19	6.125	0.92232	0.24034	0.118584	-0.234	-0.306	0.312	0	448	137	2
2026-02-12	15:58:00.470	-1.505	10.15	12.775	0.932324	0.245708	0.10736	-0.234	-0.306	0.315	0	448	137	2
2026-02-12	15:58:00.490	0.595	11.515	18.655	0.930616	0.257908	0.098088	-0.2355	-0.3015	0.318	0	448	137	2
2026-02-12	15:58:00.510	2.695	12.18	23.975	0.937692	0.259372	0.095892	-0.2295	-0.288	0.3075	0	448	137	2
2026-02-12	15:58:00.530	5.04	12.11	28.595	0.9455	0.269132	0.091012	-0.243	-0.2835	0.309	0	448	137	2
2026-02-12	15:58:00.550	7.49	12.005	32.585	0.952576	0.27084	0.089548	-0.2385	-0.2805	0.3165	0	448	137	2
2026-02-12	15:58:00.570	10.675	11.235	36.47	0.955748	0.27816	0.083204	-0.243	-0.285	0.306	0	448	137	2
2026-02-12	15:58:00.590	12.705	9.835	39.55	0.964288	0.28914	0.0793	-0.2505	-0.2775	0.3105	0	448	137	2
2026-02-12	15:58:00.610	12.565	8.4	40.985	0.979416	0.296216	0.085644	-0.2565	-0.27	0.3105	0	433	141	2
2026-02-12	15:58:00.630	11.795	7.175	41.23	0.98942	0.296704	0.08662	-0.2625	-0.2655	0.3075	0	433	141	2
2026-02-12	15:58:00.650	10.71	6.09	40.425	0.986736	0.29646	0.084668	-0.267	-0.264	0.309	0	433	141	2
2026-02-12	15:58:00.670	8.47	4.55	39.025	0.989664	0.30378	0.08174	-0.267	-0.2625	0.312	0	433	141	2
2026-02-12	15:58:00.690	6.09	2.975	37.03	0.986736	0.30744	0.087352	-0.273	-0.258	0.3105	0	433	141	2
2026-02-12	15:58:00.710	3.255	1.365	34.545	0.985516	0.304268	0.094184	-0.282	-0.255	0.3105	0	433	141	2
2026-02-12	15:58:00.730	1.33	0	31.815	0.981368	0.301584	0.097844	-0.282	-0.252	0.315	0	433	141	2
2026-02-12	15:58:00.750	0.455	-1.505	29.19	0.992104	0.29524	0.096624	-0.2865	-0.2445	0.315	0	433	141	2
2026-02-12	15:58:00.770	1.015	-2.45	26.53	0.982344	0.29524	0.099308	-0.2865	-0.237	0.3165	0	433	141	2
2026-02-12	15:58:00.790	1.575	-3.71	24.115	0.985028	0.300608	0.101504	-0.2865	-0.2355	0.315	0	433	141	2
2026-02-12	15:58:00.810	1.645	-4.69	21.98	0.975024	0.303536	0.115168	-0.294	-0.2325	0.3135	0	403	136	2
2026-02-12	15:58:00.830	0.945	-5.67	19.705	0.973804	0.307196	0.123708	-0.303	-0.228	0.3165	0	403	136	2
2026-02-12	15:58:00.850	-0.56	-6.65	15.89	0.966728	0.304024	0.13176	-0.3075	-0.2265	0.3165	0	403	136	2
2026-02-12	15:58:00.870	-1.33	-7	13.37	0.97112	0.305976	0.133956	-0.2985	-0.2265	0.318	0	403	136	2
2026-02-12	15:58:00.890	-1.505	-6.58	10.675	0.96868	0.303048	0.134688	-0.297	-0.222	0.321	0	403	136	2
2026-02-12	15:58:00.910	-1.19	-6.16	8.05	0.974292	0.297436	0.14152	-0.3	-0.2235	0.318	0	403	136	2
2026-02-12	15:58:00.930	0.105	-5.32	5.39	0.979416	0.294752	0.141764	-0.306	-0.2235	0.3195	0	403	136	2
2026-02-12	15:58:00.950	2.17	-4.375	2.66	0.97966	0.290848	0.144692	-0.3015	-0.2235	0.324	0	403	136	2
2026-02-12	15:58:00.970	4.06	-3.64	-0.035	0.98332	0.289384	0.146888	-0.3	-0.222	0.321	0	403	136	2
2026-02-12	15:58:00.990	4.935	-2.975	-2.555	0.97722	0.293532	0.150304	-0.303	-0.2175	0.324	0	403	136	2
2026-02-12	15:58:01.010	4.62	-2.485	-5.04	0.98088	0.292556	0.147864	-0.303	-0.216	0.327	0	364	130	2
2026-02-12	15:58:01.030	3.64	-2.065	-7.315	0.983076	0.28792	0.148596	-0.3015	-0.2205	0.3255	0	364	130	2
2026-02-12	15:58:01.050	2.45	-1.505	-9.555	0.980636	0.2806	0.147864	-0.3015	-0.222	0.327	0	364	130	2
2026-02-12	15:58:01.070	1.4	-1.085	-11.69	0.978684	0.2745	0.149084	-0.3015	-0.2175	0.3285	0	364	130	2
2026-02-12	15:58:01.090	0.805	-0.735	-13.615	0.979416	0.266692	0.145912	-0.2985	-0.2205	0.327	0	364	130	2
2026-02-12	15:58:01.110	0.455	-0.385	-15.47	0.977708	0.2623	0.146156	-0.303	-0.2265	0.327	0	364	130	2
2026-02-12	15:58:01.130	0	0	-16.66	0.982588	0.25986	0.141276	-0.303	-0.2265	0.327	0	364	130	2
2026-02-12	15:58:01.150	-0.42	0.35	-17.045	0.97966	0.258396	0.13908	-0.2955	-0.225	0.3285	0	364	130	2
2026-02-12	15:58:01.170	-0.91	0.805	-17.115	0.975512	0.255468	0.136884	-0.303	-0.225	0.3255	0	364	130	2
2026-02-12	15:58:01.190	-1.015	1.155	-16.905	0.972828	0.254004	0.130784	-0.2955	-0.2205	0.3285	0	364	130	2
2026-02-12	15:58:01.210	-0.91	1.54	-16.485	0.965508	0.247172	0.12932	-0.291	-0.231	0.321	0	321	129	2
2026-02-12	15:58:01.230	-1.015	1.75	-15.82	0.970632	0.252296	0.129076	-0.288	-0.2385	0.33	0	321	129	2
2026-02-12	15:58:01.250	-1.155	2.03	-14.875	0.964776	0.250344	0.126392	-0.291	-0.231	0.336	0	321	129	2
2026-02-12	15:58:01.270	-1.47	2.17	-13.86	0.9699	0.245708	0.119804	-0.282	-0.2325	0.3285	0	321	129	2
2026-02-12	15:58:01.290	-1.47	2.415	-12.6	0.965752	0.245952	0.118584	-0.282	-0.2445	0.33	0	321	129	2
2026-02-12	15:58:01.310	-1.61	2.45	-11.305	0.96014	0.243024	0.113704	-0.288	-0.249	0.3285	0	321	129	2
2026-02-12	15:58:01.330	-1.75	2.345	-9.8	0.964044	0.245708	0.116144	-0.276	-0.246	0.324	0	321	129	2
2026-02-12	15:58:01.350	-2.03	2.24	-8.19	0.961116	0.249124	0.113948	-0.288	-0.249	0.3225	0	321	129	2
2026-02-12	15:58:01.370	-2.66	1.855	-6.51	0.965752	0.246928	0.11102	-0.282	-0.246	0.327	0	321	129	2
2026-02-12	15:58:01.390	-3.465	1.47	-4.06	0.962092	0.248148	0.106628	-0.282	-0.246	0.327	0	321	129	2
2026-02-12	15:58:01.410	-4.06	1.015	-2.415	0.963068	0.249124	0.109068	-0.2835	-0.2445	0.324	0	279	129	2
2026-02-12	15:58:01.430	-4.2	0.63	-1.12	0.96624	0.249124	0.110776	-0.2865	-0.2505	0.3195	0	279	129	2
2026-02-12	15:58:01.450	-4.235	0.28	-0.035	0.9638	0.2501	0.109556	-0.285	-0.255	0.321	0	279	129	2
2026-02-12	15:58:01.470	-4.375	-0.14	0.84	0.962092	0.251076	0.110044	-0.2805	-0.2475	0.321	0	279	129	2
2026-02-12	15:58:01.490	-4.655	-0.455	1.715	0.965996	0.256688	0.110288	-0.276	-0.246	0.3225	0	279	129	2
2026-02-12	15:58:01.510	-4.97	-0.805	2.52	0.965264	0.2562	0.111264	-0.276	-0.249	0.3255	0	279	129	2
2026-02-12	15:58:01.530	-4.83	-1.05	3.22	0.970388	0.2562	0.110532	-0.276	-0.249	0.3255	0	279	129	2
2026-02-12	15:58:01.550	-4.27	-1.19	3.92	0.968192	0.257908	0.111996	-0.282	-0.243	0.3195	0	279	129	2
2026-02-12	15:58:01.570	-3.71	-1.295	4.585	0.96868	0.261324	0.108336	-0.276	-0.2445	0.318	0	279	129	2
2026-02-12	15:58:01.590	-3.535	-1.715	5.215	0.970144	0.266692	0.116144	-0.279	-0.2415	0.3195	0	279	129	2
2026-02-12	15:58:01.610	-3.71	-1.89	5.46	0.966728	0.268644	0.120536	-0.2895	-0.2475	0.3225	0	239	128	2
2026-02-12	15:58:01.630	-3.29	-1.925	5.18	0.969656	0.267424	0.119072	-0.2835	-0.2445	0.315	0	239	128	2
2026-02-12	15:58:01.650	-2.45	-1.925	4.41	0.969168	0.268644	0.120292	-0.2835	-0.2415	0.3195	0	239	128	2
2026-02-12	15:58:01.670	-1.855	-1.75	3.57	0.967948	0.27084	0.12078	-0.2835	-0.2415	0.3195	0	239	128	2
2026-02-12	15:58:01.690	-1.715	-1.47	2.835	0.9699	0.271084	0.121024	-0.2835	-0.2385	0.321	0	239	128	2
2026-02-12	15:58:01.710	-1.295	-1.12	2.555	0.970632	0.27084	0.123464	-0.2835	-0.2385	0.321	0	239	128	2
2026-02-12	15:58:01.730	-0.35	-0.77	2.24	0.975268	0.266448	0.119316	-0.2835	-0.246	0.318	0	239	128	2
2026-02-12	15:58:01.750	0.805	-0.49	1.82	0.970632	0.2684	0.121024	-0.2865	-0.2445	0.3195	0	239	128	2
2026-02-12	15:58:01.770	1.575	-0.49	1.295	0.975512	0.268156	0.121756	-0.2865	-0.2415	0.3195	0	239	128	2
2026-02-12	15:58:01.790	2.17	-0.35	0.63	0.97356	0.2745	0.121268	-0.2835	-0.2445	0.3165	0	239	128	2
2026-02-12	15:57:59.810	-53.83	-0.21	63.875	1.0797	0.212036	0.1647	-0.3495	-0.1245	0.297	0	366	128	3
2026-02-12	15:57:59.830	-43.575	-7.98	26.285	1.014308	0.205204	0.07076	-0.357	-0.1065	0.2925	0	366	128	3
2026-02-12	15:57:59.850	-39.06	-20.51	-3.535	0.980392	0.26962	0.044164	-0.3615	-0.099	0.288	0	366	128	3
2026-02-12	15:57:59.870	-27.755	-26.81	-24.675	1.028704	0.268888	0.07808	-0.3615	-0.1035	0.285	0	366	128	3
2026-02-12	15:57:59.890	-6.615	-27.265	-44.625	1.06994	0.329644	0.105896	-0.3555	-0.102	0.2895	0	366	128	3
2026-02-12	15:57:59.910	8.75	-24.71	-57.365	1.0492	0.361364	0.118096	-0.3555	-0.108	0.297	0	366	128	3
2026-02-12	15:57:59.930	20.23	-21.875	-62.965	1.032364	0.328424	0.110776	-0.3525	-0.1185	0.3015	0	366	128	3
2026-02-12	15:57:59.950	32.515	-18.305	-64.575	0.99552	0.349408	0.105652	-0.3495	-0.126	0.303	0	366	128	3
2026-02-12	15:57:59.970	38.36	-15.75	-63.21	0.956968	0.359656	0.10248	-0.3465	-0.135	0.3045	0	366	128	3
2026-02-12	15:57:59.990	39.025	-13.755	-60.62	0.936472	0.364292	0.115168	-0.3465	-0.147	0.309	0	366	128	3
2026-02-12	15:58:00.010	35	-12.53	-57.89	0.927932	0.349164	0.129564	-0.3525	-0.156	0.315	0	415	127	2
2026-02-12	15:58:00.030	28.945	-12.74	-56.525	0.929396	0.3233	0.129564	-0.3525	-0.156	0.315	0	415	127	2
2026-02-12	15:58:00.050	18.795	-14.14	-55.545	0.949648	0.318664	0.125416	-0.3525	-0.156	0.315	0	415	127	2
2026-02-12	15:58:00.070	7.735	-14.49	-55.335	0.966484	0.326228	0.13542	-0.3195	-0.18	0.3315	0	415	127	2
2026-02-12	15:58:00.090	-4.9	-14.735	-55.02	0.988444	0.297924	0.172508	-0.318	-0.1905	0.3285	0	415	127	2
2026-02-12	15:58:00.110	-16.205	-14.805	-56.28	1.01626	0.275476	0.203008	-0.318	-0.1965	0.333	0	415	127	2
2026-02-12	15:58:00.130	-25.585	-14.595	-58.415	1.034316	0.25742	0.219844	-0.312	-0.2055	0.3285	0	415	127	2
2026-02-12	15:58:00.150	-30.415	-14.595	-60.445	1.063596	0.23302	0.230824	-0.306	-0.213	0.3255	0	415	127	2
2026-02-12	15:58:00.170	-29.155	-13.79	-62.72	1.058716	0.216184	0.230092	-0.303	-0.216	0.336	0	415	127	2
2026-02-12	15:58:00.190	-23.765	-13.16	-64.12	1.048224	0.193492	0.228384	-0.2985	-0.222	0.321	0	415	127	2
2026-02-12	15:58:00.210	-13.825	-12.705	-65.38	1.047248	0.191784	0.224724	-0.2835	-0.237	0.33	0	443	128	2
2026-02-12	15:58:00.230	-4.025	-12.285	-66.395	1.031388	0.201788	0.21838	-0.288	-0.2445	0.327	0	443	128	2
2026-02-12	15:58:00.250	-0.035	-11.585	-65.8	1.02114	0.223992	0.200324	-0.282	-0.258	0.336	0	443	128	2
2026-02-12	15:58:00.270	-2.1	-10.885	-63.91	1.009428	0.226676	0.188612	-0.2715	-0.2595	0.3345	0	443	128	2
2026-02-12	15:58:00.290	-7.665	-9.52	-60.515	0.990152	0.234728	0.174216	-0.2595	-0.2625	0.33	0	443	128	2
2026-02-12	15:58:00.310	-17.255	-6.615	-52.675	0.960384	0.224236	0.16958	-0.2595	-0.2625	0.33	0	443	128	2
2026-02-12	15:58:00.330	-21	-4.725	-45.64	0.945744	0.210572	0.168604	-0.2475	-0.2805	0.324	0	443	128	2
2026-02-12	15:58:00.350	-20.545	-2.415	-37.555	0.922564	0.204472	0.158356	-0.2505	-0.288	0.3255	0	443	128	2
2026-02-12	15:58:00.370	-17.815	-0.56	-28.385	0.917196	0.196664	0.15006	-0.237	-0.2955	0.324	0	443	128	2
2026-02-12	15:58:00.390	-12.775	1.89	-18.795	0.906704	0.218136	0.137616	-0.231	-0.2865	0.318	0	443	128	2
2026-02-12	15:58:00.410	-8.855	4.305	-9.905	0.900604	0.229604	0.127124	-0.2385	-0.297	0.312	0	448	137	2
2026-02-12	15:58:00.430	-5.985	6.23	-1.505	0.908412	0.237412	0.12444	-0.231	-0.2985	0.3225	0	448	137	2
2026-02-12	15:58:00.450	-3.745	8.19	6.125	0.92232	0.24034	0.118584	-0.234	-0.306	0.312	0	448	137	2
2026-02-12	15:58:00.470	-1.505	10.15	12.775	0.932324	0.245708	0.10736	-0.234	-0.306	0.315	0	448	137	2
2026-02-12	15:58:00.490	0.595	11.515	18.655	0.930616	0.257908	0.098088	-0.2355	-0.3015	0.318	0	448	137	2
2026-02-12	15:58:00.510	2.695	12.18	23.975	0.937692	0.259372	0.095892	-0.2295	-0.288	0.3075	0	448	137	2
2026-02-12	15:58:00.530	5.04	12.11	28.595	0.9455	0.269132	0.091012	-0.243	-0.2835	0.309	0	448	137	2
2026-02-12	15:58:00.550	7.49	12.005	32.585	0.952576	0.27084	0.089548	-0.2385	-0.2805	0.3165	0	448	137	2
2026-02-12	15:58:00.570	10.675	11.235	36.47	0.955748	0.27816	0.083204	-0.243	-0.285	0.306	0	448	137	2
2026-02-12	15:58:00.590	12.705	9.835	39.55	0.964288	0.28914	0.0793	-0.2505	-0.2775	0.3105	0	448	137	2
2026-02-12	15:58:00.610	12.565	8.4	40.985	0.979416	0.296216	0.085644	-0.2565	-0.27	0.3105	0	433	141	2
2026-02-12	15:58:00.630	11.795	7.175	41.23	0.98942	0.296704	0.08662	-0.2625	-0.2655	0.3075	0	433	141	2
2026-02-12	15:58:00.650	10.71	6.09	40.425	0.986736	0.29646	0.084668	-0.267	-0.264	0.309	0	433	141	2
2026-02-12	15:58:00.670	8.47	4.55	39.025	0.989664	0.30378	0.08174	-0.267	-0.2625	0.312	0	433	141	2
2026-02-12	15:58:00.690	6.09	2.975	37.03	0.986736	0.30744	0.087352	-0.273	-0.258	0.3105	0	433	141	2
2026-02-12	15:58:00.710	3.255	1.365	34.545	0.985516	0.304268	0.094184	-0.282	-0.255	0.3105	0	433	141	2
2026-02-12	15:58:00.730	1.33	0	31.815	0.981368	0.301584	0.097844	-0.282	-0.252	0.315	0	433	141	2
2026-02-12	15:58:00.750	0.455	-1.505	29.19	0.992104	0.29524	0.096624	-0.2865	-0.2445	0.315	0	433	141	2
2026-02-12	15:58:00.770	1.015	-2.45	26.53	0.982344	0.29524	0.099308	-0.2865	-0.237	0.3165	0	433	141	2
2026-02-12	15:58:00.790	1.575	-3.71	24.115	0.985028	0.300608	0.101504	-0.2865	-0.2355	0.315	0	433	141	2
2026-02-12	15:58:12.810	44.94	8.61	-98.07	0.884988	0.636352	0.362584	-0.2565	0.0135	0.0345	0	538	485	3
2026-02-12	15:58:12.830	2.205	9.065	-157.29	1.049444	0.734684	0.516548	-0.261	-0.009	0.036	0	538	485	3
2026-02-12	15:58:12.850	35.665	24.29	-213.395	0.986736	0.742736	0.450912	-0.258	-0.024	0.039	0	538	485	3
2026-02-12	15:58:12.870	69.93	40.915	-237.965	0.664656	0.758108	0.43676	-0.2505	-0.048	0.0255	0	538	485	3
2026-02-12	15:58:12.890	79.695	49.315	-241.745	0.525576	0.44652	0.517036	-0.234	-0.0855	0.0405	0	538	485	3
2026-02-12	15:58:12.910	96.145	59.36	-221.13	0.387716	0.2379	0.534604	-0.213	-0.1155	0.0375	0	538	485	3
2026-02-12	15:58:12.930	97.44	72.485	-205.135	0.391376	0.3172	0.633424	-0.186	-0.1425	0.051	0	538	485	3
2026-02-12	15:58:12.950	82.74	85.855	-196.175	0.436028	0.22448	0.737124	-0.162	-0.174	0.072	0	538	485	3
2026-02-12	15:58:12.970	88.62	109.55	-173.88	0.492392	0.238876	0.82106	-0.1515	-0.1845	0.084	0	538	485	3
2026-02-12	15:58:12.990	91.14	133.805	-149.03	0.552172	0.301584	0.939644	-0.141	-0.1965	0.096	0	538	485	3
2026-02-12	15:58:13.010	75.845	156.17	-135.135	0.470432	0.22448	1.053104	-0.0435	-0.291	0.159	0	506	512	3
2026-02-12	15:58:13.030	65.94	179.97	-118.685	0.47214	0.33184	1.133136	0.0135	-0.3345	0.1365	0	506	512	3
2026-02-12	15:58:13.050	59.15	200.585	-105.805	0.385032	0.25864	1.153144	0.075	-0.363	0.1035	0	506	512	3
2026-02-12	15:58:13.070	51.065	214.795	-88.445	0.306708	0.32086	1.1773	0.102	-0.375	0.0645	0	506	512	3
2026-02-12	15:58:13.090	59.115	218.26	-67.095	0.178364	0.214476	1.159244	0.1455	-0.372	0.0375	0	506	512	3
2026-02-12	15:58:13.110	105.105	219.31	-41.65	0.215452	0.400404	1.046272	0.174	-0.3615	0.0285	0	506	512	3
2026-02-12	15:58:13.130	151.655	212.31	-29.575	0.191784	0.546804	1.02846	0.1845	-0.369	0.0405	0	506	512	3
2026-02-12	15:58:13.150	158.795	198.765	-16.135	0.217648	0.788364	1.023336	0.213	-0.372	0.048	0	506	512	3
2026-02-12	15:58:13.170	116.585	180.53	-3.22	0.368196	0.839604	0.934764	0.2205	-0.378	0.069	0	506	512	3
2026-02-12	15:58:13.190	70.455	162.505	4.62	0.4941	0.807152	0.836432	0.2415	-0.3915	0.0825	0	506	512	3
2026-02-12	15:58:13.210	26.355	144.445	17.395	0.521916	0.688812	0.67588	0.2385	-0.39	0.1005	0	482	580	1
2026-02-12	15:58:13.230	-15.505	129.22	34.58	0.703452	0.618296	0.603412	0.2475	-0.3915	0.1035	0	482	580	1
2026-02-12	15:58:13.250	-70.455	116.095	68.6	0.76128	0.569496	0.528016	0.2445	-0.393	0.1035	0	482	580	1
2026-02-12	15:58:13.270	-98.7	106.995	94.955	0.808128	0.5734	0.47336	0.2415	-0.393	0.099	0	482	580	1
2026-02-12	15:58:13.290	-120.365	98.77	121.555	0.875716	0.496296	0.480436	0.234	-0.393	0.084	0	482	580	1
2026-02-12	15:58:13.310	-123.97	93.135	145.495	0.91622	0.481412	0.468236	0.2205	-0.396	0.069	0	482	580	1
2026-02-12	15:58:13.330	-110.145	92.785	160.79	0.967704	0.497028	0.397232	0.2055	-0.396	0.051	0	482	580	1
2026-02-12	15:58:13.350	-94.255	89.495	172.375	0.989908	0.437248	0.326228	0.1905	-0.387	0.033	0	482	580	1
2026-02-12	15:58:13.370	-66.85	81.655	180.39	0.946964	0.33916	0.221308	0.1695	-0.378	0.021	0	482	580	1
2026-02-12	15:58:13.390	-35.385	70.84	184.275	0.8418	0.227408	0.166896	0.153	-0.378	0.0135	0	482	580	1
2026-02-12	15:58:13.410	-8.47	59.78	177.24	0.849364	0.350872	0.14396	0.1335	-0.381	0.009	0	466	627	1
2026-02-12	15:58:13.430	7.42	47.215	174.44	0.758108	0.348188	0.166408	0.111	-0.381	0.012	0	466	627	1
2026-02-12	15:58:13.450	30.275	28.595	168.035	0.715896	0.314516	0.215208	0.0885	-0.3825	0.0195	0	466	627	1
2026-02-12	15:58:13.470	71.505	18.48	156.485	0.662948	0.418948	0.381616	0.0645	-0.3855	0.0255	0	466	627	1
2026-02-12	15:58:13.490	116.305	17.745	145.39	0.667096	0.482632	0.503128	0.045	-0.393	0.033	0	466	627	1
2026-02-12	15:58:13.510	176.785	17.605	135.94	0.66246	0.247172	0.375272	0.018	-0.396	0.051	0	466	627	1
2026-02-12	15:58:13.530	214.445	26.425	125.125	0.815204	0.68076	0.132736	-0.003	-0.405	0.0795	0	466	627	1
2026-02-12	15:58:13.550	133.14	35.105	102.2	0.712968	0.993812	0.19154	-0.0285	-0.4125	0.1125	0	466	627	1
2026-02-12	15:58:13.570	11.2	38.22	81.62	0.640744	1.159244	0.186416	-0.0465	-0.4125	0.1365	0	466	627	1
2026-02-12	15:58:13.590	-77.455	34.72	55.79	0.538996	0.859124	0.328424	-0.054	-0.4155	0.141	0	466	627	1
2026-02-12	15:58:13.610	-114.52	16.24	35.525	0.559248	0.64294	0.521916	-0.063	-0.411	0.129	0	455	608	1
2026-02-12	15:58:13.630	-97.195	7.77	17.535	0.608536	0.529236	0.719312	-0.0645	-0.4005	0.1155	0	455	608	1
2026-02-12	15:58:13.650	-49.49	1.4	9.765	0.63318	0.357216	0.812032	-0.063	-0.3975	0.102	0	455	608	1
2026-02-12	15:58:13.670	47.6	1.61	3.15	0.57462	0.351604	0.778116	-0.066	-0.3915	0.093	0	455	608	1
2026-02-12	15:58:13.690	126.91	11.585	6.37	0.533872	0.510936	0.849852	-0.069	-0.3855	0.0975	0	455	608	1
2026-02-12	15:58:13.710	161.805	14.42	15.365	0.485072	0.493124	0.466284	-0.0765	-0.393	0.1155	0	455	608	1
2026-02-12	15:58:13.730	146.755	16.31	27.72	0.535824	0.738832	0.290604	-0.0825	-0.405	0.141	0	455	608	1
2026-02-12	15:58:13.750	88.62	21.56	40.565	0.602924	0.948184	0.454328	-0.081	-0.411	0.1635	0	455	608	1
2026-02-12	15:58:13.770	46.48	29.82	36.715	0.572912	0.800808	0.400404	-0.0855	-0.4095	0.1755	0	455	608	1
2026-02-12	15:58:13.790	4.55	30.45	23.975	0.703208	1.143384	0.505324	-0.0915	-0.4065	0.18	0	455	608	1
2026-02-12	15:58:13.810	-51.1	21.665	-0.84	0.736148	1.305888	0.235216	-0.0915	-0.4065	0.18	0	448	571	3
2026-02-12	15:58:13.830	-100.485	-1.505	-22.365	1.0187	0.892552	0.83204	-0.096	-0.402	0.1755	0	448	571	3
2026-02-12	15:58:13.850	-114.415	3.395	-42.035	1.287344	0.11956	1.128012	-0.105	-0.4065	0.159	0	448	571	3
2026-02-12	15:58:13.870	-87.78	29.4	-44.87	1.020408	-0.020252	0.576328	-0.0945	-0.405	0.1455	0	448	571	3
2026-02-12	15:58:13.890	-76.125	40.705	-42.175	0.608292	0.871324	0.470188	-0.0825	-0.4035	0.1335	0	448	571	3
2026-02-12	15:58:13.910	-84.875	31.99	-40.635	0.278648	0.652212	0.490684	-0.057	-0.399	0.111	0	448	571	3
2026-02-12	15:58:13.930	-50.89	20.86	-21.035	0.310124	0.451888	0.571448	-0.051	-0.3885	0.0975	0	448	571	3
2026-02-12	15:58:13.950	-14.56	21.035	-6.44	0.527284	0.695156	0.602192	-0.048	-0.3915	0.087	0	448	571	3
2026-02-12	15:58:13.970	2.205	19.81	10.85	0.618784	0.549488	0.676368	-0.0555	-0.3915	0.0885	0	448	571	3
2026-02-12	15:58:13.990	19.215	19.18	25.2	0.643672	0.62586	0.759328	-0.0525	-0.3855	0.0825	0	448	571	3
2026-02-12	15:58:14.010	29.015	20.79	36.4	0.53314	0.778116	0.866688	-0.0405	-0.3915	0.0855	0	443	558	1
2026-02-12	15:58:14.030	33.635	21.805	45.955	0.516548	0.872788	0.83814	-0.0585	-0.3915	0.0945	0	443	558	1
2026-02-12	15:58:14.050	17.08	12.32	56.315	0.487512	0.884012	0.87718	-0.063	-0.3945	0.0885	0	443	558	1
2026-02-12	15:58:14.070	-13.055	-6.405	68.285	0.498736	0.974048	0.891088	-0.063	-0.3945	0.0885	0	443	558	1
2026-02-12	15:58:14.090	-34.37	-19.46	73.325	0.62098	1.189012	0.81862	-0.078	-0.3855	0.0885	0	443	558	1
2026-02-12	15:58:14.110	-57.715	-32.2	71.435	0.734196	1.234152	0.730292	-0.093	-0.3765	0.09	0	443	558	1
2026-02-12	15:58:14.130	-67.34	-39.375	57.82	0.849852	0.9577	0.49166	-0.099	-0.378	0.0855	0	443	558	1
2026-02-12	15:58:14.150	-70.945	-35.665	33.355	1.004304	1.12484	0.437492	-0.117	-0.372	0.078	0	443	558	1
2026-02-12	15:58:14.170	-67.515	-27.965	-18.795	0.709552	1.091168	0.711748	-0.129	-0.363	0.0675	0	443	558	1
2026-02-12	15:58:14.190	-42.175	-9.275	-69.79	0.26596	1.528904	0.916464	-0.1215	-0.3525	0.063	0	443	558	1
2026-02-12	15:58:14.210	-62.615	10.535	-118.37	-0.141276	1.375916	1.104344	-0.1185	-0.363	0.057	0	442	583	1
2026-02-12	15:58:14.230	-63.98	20.405	-141.05	-0.330864	0.921832	1.15046	-0.105	-0.354	0.0405	0	442	583	1
2026-02-12	15:58:14.250	-22.855	37.45	-151.025	-0.376736	0.819352	1.083604	-0.081	-0.363	0.033	0	442	583	1
2026-02-12	15:58:14.270	0.595	48.895	-153.615	-0.271084	0.811788	1.017968	-0.057	-0.366	0.021	0	442	583	1
2026-02-12	15:58:14.290	0.14	54.74	-156.765	-0.148352	0.844972	0.875716	-0.0285	-0.3705	0.0135	0	442	583	1
2026-02-12	15:58:14.310	-17.885	52.115	-156.625	-0.077348	0.696376	0.721264	0	-0.381	0.0135	0	442	583	1
2026-02-12	15:58:14.330	-39.69	41.685	-140.63	0.134932	0.599996	0.70028	0.027	-0.3855	0.0075	0	442	583	1
2026-02-12	15:58:14.350	-48.51	35.175	-124.565	0.310368	0.60024	0.745176	0.057	-0.3825	0.0015	0	442	583	1
2026-02-12	15:58:14.370	-54.74	33.18	-106.54	0.44896	0.550708	0.753716	0.0975	-0.3765	-0.0135	0	442	583	1
2026-02-12	15:58:14.390	-51.975	32.41	-87.22	0.534116	0.401868	0.709552	0.1215	-0.3705	-0.024	0	442	583	1
2026-02-12	15:58:14.410	-44.59	36.295	-68.845	0.59902	0.307928	0.668316	0.1425	-0.363	-0.03	0	446	634	1
2026-02-12	15:58:14.430	-46.025	36.295	-46.725	0.651968	0.2257	0.627812	0.156	-0.351	-0.0345	0	446	634	1
2026-02-12	15:58:14.450	-43.26	34.58	-29.47	0.714676	0.180316	0.508252	0.171	-0.342	-0.039	0	446	634	1
2026-02-12	15:58:14.470	-21.56	28.42	-7.28	0.718824	-0.149816	0.44408	0.183	-0.3375	-0.048	0	446	634	1
2026-02-12	15:58:14.490	53.445	20.51	15.4	0.660508	-0.452376	0.292312	0.1875	-0.3315	-0.042	0	446	634	1
2026-02-12	15:58:14.510	160.825	9.59	38.01	0.769576	-0.310856	0.1464	0.186	-0.336	-0.0315	0	446	634	1
2026-02-12	15:58:14.530	195.755	10.885	85.785	1.316624	-0.178852	0.7442	0.18	-0.3525	-0.0165	0	446	634	1
2026-02-12	15:58:14.550	242.34	28.245	95.48	1.304912	-0.13298	0.595116	0.174	-0.3735	0.0075	0	446	634	1
2026-02-12	15:58:14.570	251.125	31.01	91.98	2.106696	1.001864	0.318908	0.162	-0.396	0.0435	0	446	634	1
2026-02-12	15:58:14.590	46.305	36.015	68.005	2.360212	-0.024644	0.189588	0.15	-0.411	0.0795	0	446	634	1
2026-02-12	15:58:14.610	-26.915	56.735	-18.41	0.463112	-0.120536	0.97478	0.147	-0.417	0.093	0	461	659	1
2026-02-12	15:58:14.630	13.755	46.41	11.27	-0.6039	1.512068	0.640744	0.1395	-0.4155	0.081	0	461	659	1
2026-02-12	15:58:14.650	24.745	30.135	23.17	-0.4209	1.5128	0.236192	0.1335	-0.4215	0.09	0	461	659	1
2026-02-12	15:58:14.670	-32.34	-2.17	55.195	-0.016104	0.832772	0.027572	0.129	-0.4215	0.087	0	461	659	1
2026-02-12	15:58:14.690	-55.755	-0.14	87.535	0.310612	0.628056	0.64416	0.126	-0.423	0.0825	0	461	659	1
2026-02-12	15:58:14.710	-31.255	10.71	110.425	0.425536	0.452864	0.695888	0.1155	-0.4155	0.078	0	461	659	1
2026-02-12	15:58:14.730	-9.8	7.245	118.72	0.377224	0.718824	0.793976	0.099	-0.4095	0.0705	0	461	659	1
2026-02-12	15:58:14.750	-3.08	-11.445	115.92	0.207644	0.59658	0.78934	0.0855	-0.411	0.0675	0	461	659	1
2026-02-12	15:58:14.770	-9.765	-28.245	114.66	0.343796	0.73444	0.947696	0.0705	-0.4095	0.069	0	461	659	1
2026-02-12	15:58:14.790	-0.805	-36.12	110.6	0.330132	0.660508	0.8357	0.048	-0.408	0.0705	0	461	659	1
2026-02-12	15:58:14.810	7.77	-41.44	108.185	0.418704	0.64904	0.572912	0.0195	-0.4065	0.0675	0	489	652	1
2026-02-12	15:58:14.830	5.985	-46.935	106.505	0.62464	0.699304	0.56486	-0.003	-0.402	0.0675	0	489	652	1
2026-02-12	15:58:14.850	6.23	-41.685	99.33	0.648064	0.683932	0.63928	-0.018	-0.4005	0.075	0	489	652	1
2026-02-12	15:58:14.870	-15.575	-28.315	76.405	0.518744	0.589992	0.591944	-0.024	-0.399	0.078	0	489	652	1
2026-02-12	15:58:14.890	-22.61	-26.985	65.52	0.519476	0.406992	0.589748	-0.024	-0.399	0.078	0	489	652	1
2026-02-12	15:58:14.910	-25.305	-21.665	57.47	0.502152	0.383568	0.603656	-0.0705	-0.3795	0.0795	0	489	652	1
2026-02-12	15:58:14.930	-30.24	-20.895	54.005	0.615124	0.366488	0.59902	-0.0825	-0.3855	0.0735	0	489	652	1
2026-02-12	15:58:14.950	-21.98	-15.365	46.305	0.584136	0.300608	0.564372	-0.0915	-0.3735	0.0765	0	489	652	1
2026-02-12	15:58:14.970	-7.49	-13.615	39.41	0.60878	0.314516	0.489708	-0.0975	-0.369	0.069	0	489	652	1
2026-02-12	15:58:14.990	-3.36	-12.53	33.6	0.637816	0.368928	0.4697	-0.1065	-0.3675	0.072	0	489	652	1
2026-02-12	15:58:15.010	-9.275	-11.515	26.95	0.693204	0.404308	0.46482	-0.117	-0.3675	0.072	0	513	641	1
2026-02-12	15:58:15.030	-8.61	-7.735	18.235	0.720288	0.371368	0.564616	-0.114	-0.3585	0.075	0	513	641	1
2026-02-12	15:58:15.050	-1.19	0.945	8.54	0.705892	0.470676	0.638792	-0.117	-0.357	0.078	0	513	641	1
2026-02-12	15:58:15.070	-3.955	4.06	-0.84	0.73444	0.474824	0.671732	-0.1185	-0.3555	0.072	0	513	641	1
2026-02-12	15:58:15.090	-8.05	4.515	-7.595	0.695644	0.512888	0.684664	-0.1185	-0.3525	0.072	0	513	641	1
2026-02-12	15:58:15.110	-7.49	-0.525	-13.09	0.709064	0.4819	0.710772	-0.1185	-0.3525	0.072	0	513	641	1
2026-02-12	15:58:15.130	-2.905	-1.4	-16.905	0.722728	0.6161	0.769088	-0.12	-0.354	0.078	0	513	641	1
2026-02-12	15:58:15.150	4.06	-3.465	-19.495	0.667096	0.503128	0.683932	-0.123	-0.354	0.075	0	513	641	1
2026-02-12	15:58:15.170	14.805	-3.465	-30.31	0.628788	0.776164	0.531676	-0.1185	-0.357	0.075	0	513	641	1
2026-02-12	15:58:15.190	-49.98	-0.665	-31.535	0.436028	1.095804	0.566568	-0.1035	-0.3615	0.0765	0	513	641	1
2026-02-12	15:58:15.210	-132.265	0.21	-52.395	0.209108	1.57014	0.868884	-0.102	-0.3585	0.0675	0	524	637	1
2026-02-12	15:58:15.230	-153.475	4.165	-90.125	0.055144	1.792912	1.072624	-0.096	-0.354	0.045	0	524	637	1
2026-02-12	15:58:15.250	-126.805	0.63	-118.825	0.034892	1.461072	1.296372	-0.081	-0.3465	0.021	0	524	637	1
2026-02-12	15:58:15.270	-64.295	28.525	-144.34	-0.032696	1.607228	1.387872	-0.066	-0.342	0.009	0	524	637	1
2026-02-12	15:58:15.290	-30.24	45.815	-168.91	-0.033184	1.49816	1.327848	-0.054	-0.342	0.0075	0	524	637	1
2026-02-12	15:58:15.310	-30.415	52.745	-184.135	0.037088	1.291492	1.181448	-0.024	-0.3465	0.0045	0	524	637	1
2026-02-12	15:58:15.330	-24.92	54.46	-197.575	0.09272	1.061644	1.102636	0.0135	-0.348	-0.006	0	524	637	1
2026-02-12	15:58:15.350	-9.345	51.975	-201.285	0.195444	0.920124	0.9699	0.0375	-0.354	-0.009	0	524	637	1
2026-02-12	15:58:15.370	2.905	45.465	-201.355	0.304756	0.796416	0.884744	0.0825	-0.3495	-0.0165	0	524	637	1
2026-02-12	15:58:15.390	11.655	35.595	-189.595	0.387716	0.4697	0.82716	0.111	-0.3435	-0.021	0	524	637	1
2026-02-12	15:58:15.410	21.63	32.41	-161.84	0.304024	0.676856	0.711992	0.1455	-0.345	-0.021	0	529	674	1
2026-02-12	15:58:15.430	-21.175	20.16	-142.8	0.437492	0.670756	0.565104	0.171	-0.342	-0.0195	0	529	674	1
2026-02-12	15:58:15.450	-44.415	6.825	-124.985	0.47336	0.4514	0.520696	0.2025	-0.3375	-0.0225	0	529	674	1
2026-02-12	15:58:15.470	-30.1	-2.17	-105.84	0.452864	0.25498	0.475068	0.2175	-0.3285	-0.027	0	529	674	1
2026-02-12	15:58:15.490	21.245	-13.51	-85.19	0.423584	0.100284	0.393328	0.234	-0.315	-0.0285	0	529	674	1
2026-02-12	15:58:15.510	80.78	-19.985	-61.18	0.517524	0.33184	0.447984	0.243	-0.3135	-0.024	0	529	674	1
2026-02-12	15:58:15.530	94.185	-16.695	-31.64	0.660508	0.368928	0.702476	0.249	-0.3225	-0.015	0	529	674	1
2026-02-12	15:58:15.550	102.34	-6.195	-7.595	0.740296	0.470676	0.60512	0.249	-0.327	-0.0045	0	529	674	1
2026-02-12	15:58:15.570	118.65	2.03	-1.925	0.723704	0.396988	0.335256	0.2505	-0.3315	0.009	0	529	674	1
2026-02-12	15:58:15.590	160.51	-2.45	-1.05	0.673928	0.106872	0.09882	0.2505	-0.3435	0.024	0	529	674	1
2026-02-12	15:58:15.610	214.76	-7.63	8.225	0.838872	-0.096624	0.118828	0.2445	-0.3585	0.042	0	530	701	1
2026-02-12	15:58:15.630	269.605	6.405	25.235	0.81374	-0.030744	0.402844	0.2445	-0.3765	0.072	0	530	701	1
2026-02-12	15:58:15.650	272.825	16.485	23.38	0.717604	0.219844	0.466772	0.243	-0.393	0.111	0	530	701	1
2026-02-12	15:58:15.670	199.885	24.465	19.495	0.980148	0.718092	0.417728	0.24	-0.399	0.1335	0	530	701	1
2026-02-12	15:58:15.690	85.785	29.785	7.735	1.342976	0.889868	0.195688	0.24	-0.399	0.1335	0	530	701	1
2026-02-12	15:58:15.710	81.27	28.385	-29.12	1.165344	0.73566	-0.13298	0.2235	-0.435	0.213	0	530	701	1
2026-02-12	15:58:15.730	29.925	20.825	-33.145	0.344772	0.5124	-0.283772	0.2295	-0.429	0.2265	0	530	701	1
2026-02-12	15:58:15.750	-26.775	4.41	-29.33	0.189588	1.313208	0.089792	0.2325	-0.429	0.2415	0	530	701	1
2026-02-12	15:58:15.770	-65.065	4.06	-19.53	-0.183488	1.427644	0.507764	0.2295	-0.423	0.2265	0	530	701	1
2026-02-12	15:58:15.790	-59.01	0.525	-12.46	-0.460428	0.942084	0.555588	0.243	-0.4215	0.2175	0	530	701	1
2026-02-12	15:58:15.810	6.37	-2.765	6.615	-0.116388	0.915488	0.280356	0.243	-0.4245	0.2175	0	534	661	1
2026-02-12	15:58:15.830	12.845	-5.32	26.285	0.216428	1.117032	0.301828	0.24	-0.4185	0.2115	0	534	661	1
2026-02-12	15:58:15.850	-6.51	-8.715	41.09	0.305244	0.970388	0.328912	0.237	-0.423	0.216	0	534	661	1
2026-02-12	15:58:15.870	-14.175	-2.695	52.08	0.343796	0.945256	0.310612	0.234	-0.426	0.2025	0	534	661	1
2026-02-12	15:58:15.890	-12.81	8.995	63.455	0.185928	1.047004	0.240828	0.2265	-0.4275	0.204	0	534	661	1
2026-02-12	15:58:15.910	14.735	21.735	75.845	0.019764	1.157536	0.12932	0.213	-0.429	0.207	0	534	661	1
2026-02-12	15:58:15.930	15.47	21.385	96.04	0.13908	1.101172	0.356484	0.2025	-0.4335	0.21	0	534	661	1
2026-02-12	15:58:15.950	-22.19	7.455	114.73	0.247416	0.847656	0.491172	0.1965	-0.4365	0.2115	0	534	661	1
2026-02-12	15:58:15.970	-24.5	1.82	121.275	0.26718	0.848632	0.452376	0.162	-0.4305	0.213	0	534	661	1
2026-02-12	15:58:15.990	-29.085	-7.07	121.905	0.255956	0.99308	0.460672	0.138	-0.4365	0.1995	0	534	661	1
2026-02-12	15:58:16.010	-53.165	-18.13	119.385	0.235948	1.028948	0.4209	0.1185	-0.438	0.2025	0	540	584	1
2026-02-12	15:58:16.030	-73.43	-31.57	114.905	0.338428	0.93452	0.453108	0.096	-0.447	0.189	0	540	584	1
2026-02-12	15:58:16.050	-80.85	-36.995	110.6	0.489952	0.924516	0.44408	0.078	-0.432	0.189	0	540	584	1
2026-02-12	15:58:16.070	-83.79	-28	108.5	0.539484	0.921344	0.399916	0.0585	-0.4395	0.168	0	540	584	1
2026-02-12	15:58:16.090	-78.82	-25.97	98.105	0.693936	0.92964	0.336232	0.042	-0.426	0.156	0	540	584	1
2026-02-12	15:58:16.110	-70.175	-18.69	85.155	0.667096	0.863028	0.467504	0.0285	-0.423	0.138	0	540	584	1
2026-02-12	15:58:16.130	-78.435	-10.955	64.855	0.694424	0.829844	0.466528	0.003	-0.4185	0.132	0	540	584	1
2026-02-12	15:58:16.150	-75.67	-3.955	48.02	0.672952	0.742004	0.402112	-0.0045	-0.4125	0.1245	0	540	584	1
2026-02-12	15:58:16.170	-81.41	-0.49	32.865	0.803736	0.80154	0.356972	-0.009	-0.4095	0.1125	0	540	584	1
2026-02-12	15:58:16.190	-115.255	5.88	19.95	0.70394	0.696864	0.26718	-0.0225	-0.4065	0.102	0	540	584	1
2026-02-12	15:58:16.210	-139.72	8.085	1.645	0.62098	0.457744	0.248148	-0.0195	-0.39	0.081	0	539	520	1
2026-02-12	15:58:16.230	-158.935	6.615	-10.395	0.525332	0.218868	0.213256	-0.015	-0.381	0.0645	0	539	520	1
2026-02-12	15:58:16.250	-132.37	12.915	-12.775	0.519232	0.464088	0.512644	-0.012	-0.363	0.033	0	539	520	1
2026-02-12	15:58:16.270	-85.855	26.425	-26.915	0.3111	0.855952	0.747616	-0.0105	-0.3495	0.0135	0	539	520	1
2026-02-12	15:58:16.290	-68.495	30.765	-33.67	0.179096	0.74786	1.022604	-0.0045	-0.342	0.0015	0	539	520	1
2026-02-12	15:58:16.310	-47.355	39.97	-33.6	-0.070028	0.721752	1.138504	0.003	-0.336	-0.009	0	539	520	1
2026-02-12	15:58:16.330	-14.875	45.08	-41.09	-0.19764	0.79422	1.207068	0.0165	-0.3315	-0.0135	0	539	520	1
2026-02-12	15:58:16.350	3.115	45.71	-50.19	-0.334524	0.751032	1.219512	0.03	-0.333	-0.018	0	539	520	1
2026-02-12	15:58:16.370	-3.43	44.555	-62.3	-0.438956	0.815936	1.172176	0.0405	-0.333	-0.021	0	539	520	1
2026-02-12	15:58:16.390	-28.98	38.115	-71.435	-0.324032	0.92354	1.191208	0.0525	-0.3315	-0.024	0	539	520	1
2026-02-12	15:58:16.410	-43.435	31.08	-89.25	-0.276696	1.058716	1.099464	0.066	-0.3285	-0.03	0	535	515	3
2026-02-12	15:58:16.430	-50.015	21.91	-106.085	-0.162016	1.162904	0.979416	0.0825	-0.327	-0.033	0	535	515	3
2026-02-12	15:58:16.450	-52.78	16.415	-122.92	0.01708	1.202676	0.974292	0.0915	-0.3255	-0.0345	0	535	515	3
2026-02-12	15:58:16.470	-48.335	15.785	-141.155	0.064172	1.11142	0.937692	0.108	-0.318	-0.0435	0	535	515	3
2026-02-12	15:58:16.490	-48.23	18.095	-159.46	0.168848	0.9455	0.872056	0.108	-0.318	-0.0435	0	535	515	3
2026-02-12	15:58:16.510	-44.485	21.945	-159.355	0.174216	0.830332	0.842288	0.138	-0.306	-0.0555	0	535	515	3
2026-02-12	15:58:16.530	-29.96	23.345	-148.435	0.152744	0.768112	0.719312	0.1815	-0.2865	-0.0645	0	535	515	3
2026-02-12	15:58:16.550	-21.735	19.81	-130.06	0.137616	0.690764	0.729316	0.2025	-0.2745	-0.057	0	535	515	3
2026-02-12	15:58:16.570	-14.98	17.01	-107.59	0.208132	0.68808	0.837408	0.219	-0.267	-0.057	0	535	515	3
2026-02-12	15:58:16.590	-10.885	18.06	-87.57	0.258884	0.670268	0.907436	0.2325	-0.264	-0.0585	0	535	515	3
2026-02-12	15:58:16.610	7.77	18.795	-70.42	0.334036	0.58926	0.843996	0.2445	-0.2565	-0.057	0	530	580	1
2026-02-12	15:58:16.630	44.03	17.08	-51.38	0.358924	0.378932	0.732976	0.2565	-0.2505	-0.057	0	530	580	1
2026-02-12	15:58:16.650	82.04	19.075	-28.595	0.432856	0.406992	0.67222	0.2625	-0.2535	-0.0525	0	530	580	1
2026-02-12	15:58:16.670	93.1	24.99	-1.96	0.536556	0.476288	0.627324	0.27	-0.2535	-0.048	0	530	580	1
2026-02-12	15:58:16.690	115.29	24.605	20.965	0.565104	0.407724	0.574864	0.273	-0.2535	-0.0345	0	530	580	1
2026-02-12	15:58:16.710	156.17	22.505	40.215	0.691252	0.276208	0.500688	0.2685	-0.267	-0.0195	0	530	580	1
2026-02-12	15:58:16.730	238.245	21.7	50.715	0.617808	0.185196	0.270596	0.2655	-0.2865	-0.003	0	530	580	1
2026-02-12	15:58:16.750	284.795	28.385	65.24	0.813008	0.471408	0.18666	0.261	-0.2985	0.0075	0	530	580	1
2026-02-12	15:58:16.770	253.575	35.84	77.98	0.901336	0.544852	0.398452	0.261	-0.2985	0.0075	0	530	580	1
2026-02-12	15:58:16.790	207.62	38.115	75.705	0.925248	0.648308	0.278892	0.237	-0.3675	0.1155	0	530	580	1
2026-02-12	15:58:16.810	159.845	34.265	56.42	1.152656	0.71858	0.215696	0.2265	-0.375	0.1455	0	524	632	1
2026-02-12	15:58:16.830	114.8	32.9	32.62	1.376648	0.549976	0.543876	0.222	-0.39	0.1725	0	524	632	1
2026-02-12	15:58:16.850	43.96	32.025	5.075	1.055788	-0.078568	0.164456	0.21	-0.396	0.1905	0	524	632	1
2026-02-12	15:58:16.870	33.985	36.12	-3.01	0.35746	0.172752	-0.103944	0.213	-0.4005	0.1935	0	524	632	1
2026-02-12	15:58:16.890	-0.49	20.16	-11.2	0.00976	0.947696	0.093696	0.2145	-0.393	0.2055	0	524	632	1
2026-02-12	15:58:16.910	-58.8	2.24	-17.045	-0.0915	1.530612	0.585844	0.219	-0.3975	0.198	0	524	632	1
2026-02-12	15:58:16.930	-5.67	-1.645	-15.645	-0.386008	1.152656	0.62708	0.213	-0.3945	0.1995	0	524	632	1
2026-02-12	15:58:16.950	43.785	-7.77	-19.04	0.087108	0.923296	0.190564	0.2265	-0.387	0.195	0	524	632	1
2026-02-12	15:58:16.970	25.095	-7.91	0	0.347944	0.906948	0.101504	0.234	-0.3885	0.198	0	524	632	1
2026-02-12	15:58:16.990	-9.8	-2.975	10.815	0.38796	0.868396	0.212036	0.219	-0.3915	0.2085	0	524	632	1
2026-02-12	15:58:17.010	-11.025	8.47	9.975	0.274256	0.919392	0.211792	0.219	-0.3945	0.201	0	523	613	1
2026-02-12	15:58:17.030	-0.665	21.595	11.97	0.053924	1.10166	0.336964	0.222	-0.3975	0.2025	0	523	613	1
2026-02-12	15:58:17.050	3.5	29.785	23.45	0.02684	1.098	0.2745	0.2205	-0.4035	0.195	0	523	613	1
2026-02-12	15:58:17.070	3.99	32.69	36.715	0.21472	0.9455	0.28304	0.2175	-0.4005	0.213	0	523	613	1
2026-02-12	15:58:17.090	0.77	32.515	50.47	0.281576	0.927688	0.282796	0.222	-0.405	0.207	0	523	613	1
2026-02-12	15:58:17.110	6.755	27.65	62.44	0.182512	1.082628	0.366244	0.2115	-0.4005	0.204	0	523	613	1
2026-02-12	15:58:17.130	12.355	15.33	75.635	0.113216	1.075552	0.401136	0.1935	-0.402	0.207	0	523	613	1
2026-02-12	15:58:17.150	4.13	0.945	92.68	0.16592	1.109712	0.506788	0.189	-0.4005	0.204	0	523	613	1
2026-02-12	15:58:17.170	-18.9	-9.8	107.17	0.24034	0.99674	0.471896	0.177	-0.4065	0.2055	0	523	613	1
2026-02-12	15:58:17.190	-35.21	-15.435	116.935	0.31842	0.982588	0.341844	0.156	-0.4095	0.21	0	523	613	1
2026-02-12	15:58:17.210	-25.515	-15.05	113.82	0.358192	0.969412	0.29158	0.132	-0.417	0.1995	0	524	552	1
2026-02-12	15:58:17.230	-20.44	-10.57	113.26	0.34526	0.9821	0.255712	0.1155	-0.4095	0.198	0	524	552	1
2026-02-12	15:58:17.250	-19.705	-6.685	109.48	0.358924	0.819108	0.1891	0.1005	-0.4185	0.189	0	524	552	1
2026-02-12	15:58:17.270	-21.245	-7.91	109.13	0.467992	0.673196	0.25864	0.087	-0.405	0.195	0	524	552	1
2026-02-12	15:58:17.290	-20.65	-9.695	102.865	0.533872	0.649284	0.351116	0.0675	-0.408	0.186	0	524	552	1
2026-02-12	15:58:17.310	-21.77	-8.12	98.77	0.574132	0.882304	0.340136	0.051	-0.402	0.186	0	524	552	1
2026-02-12	15:58:17.330	-21.91	-1.12	77.7	0.52582	0.793976	0.343308	0.027	-0.399	0.1875	0	524	552	1
2026-02-12	15:58:17.350	-21.98	4.62	62.545	0.4941	0.748348	0.321348	0.0135	-0.3975	0.1875	0	524	552	1
2026-02-12	15:58:17.370	-16.135	0.945	51.52	0.618296	0.693448	0.33306	0	-0.3915	0.1845	0	524	552	1
2026-02-12	15:58:17.390	-13.3	7.63	40.67	0.58194	0.674172	0.300364	-0.012	-0.393	0.18	0	524	552	1
2026-02-12	15:58:17.410	-21.525	7.84	29.715	0.633424	0.687348	0.251564	-0.0195	-0.393	0.1725	0	519	487	1
2026-02-12	15:58:17.430	-19.005	7.42	22.33	0.58438	0.626104	0.203984	-0.0225	-0.3915	0.168	0	519	487	1
2026-02-12	15:58:17.450	-2.17	8.54	13.37	0.620492	0.714432	0.209352	-0.0195	-0.387	0.165	0	519	487	1
2026-02-12	15:58:17.470	3.325	9.625	0.77	0.684176	0.853268	0.227896	-0.018	-0.3885	0.1635	0	519	487	1
2026-02-12	15:58:17.490	-10.535	10.29	-9.415	0.619028	0.814472	0.355508	-0.0225	-0.3855	0.165	0	519	487	1
2026-02-12	15:58:17.510	2.52	5.845	-14.35	0.454816	0.507032	0.396012	-0.024	-0.384	0.168	0	519	487	1
2026-02-12	15:58:17.530	40.845	0.385	-15.75	0.436516	0.607316	0.343064	-0.018	-0.3855	0.168	0	519	487	1
2026-02-12	15:58:17.550	75.495	-7.595	-23.1	0.26474	0.86132	0.217404	-0.018	-0.384	0.1725	0	519	487	1
2026-02-12	15:58:17.570	93.905	-25.935	-46.97	0.19398	1.507432	0.412116	-0.0195	-0.3885	0.1785	0	519	487	1
2026-02-12	15:58:17.590	55.58	-26.635	-46.76	0.25376	1.619916	0.593896	-0.009	-0.393	0.195	0	519	487	1
2026-02-12	15:58:17.610	8.085	-24.045	-55.16	0.233752	1.619672	0.567544	-0.0045	-0.399	0.213	0	507	437	3
2026-02-12	15:58:17.630	-12.705	-16.065	-76.475	0.202764	1.485228	0.534848	0.003	-0.3945	0.216	0	507	437	3
2026-02-12	15:58:17.650	-34.23	-8.785	-93.8	0.186904	1.541104	0.466528	0.018	-0.3945	0.2145	0	507	437	3
2026-02-12	15:58:17.670	-60.305	-7.665	-110.005	0.099308	1.525	0.386496	0.027	-0.3975	0.2085	0	507	437	3
2026-02-12	15:58:17.690	-78.295	-8.75	-124.075	0.104676	1.575996	0.345748	0.042	-0.396	0.204	0	507	437	3
2026-02-12	15:58:17.710	-93.065	-10.29	-134.995	0.088572	1.423008	0.361852	0.0645	-0.396	0.1995	0	507	437	3
2026-02-12	15:58:17.730	-93.485	-12.635	-141.96	0.058316	1.2139	0.36234	0.0855	-0.396	0.18	0	507	437	3
2026-02-12	15:58:17.750	-92.19	-13.16	-142.03	0.07442	1.187792	0.347944	0.1095	-0.393	0.165	0	507	437	3
2026-02-12	15:58:17.770	-95.445	-13.895	-135.555	0.09516	1.10166	0.342088	0.1305	-0.39	0.153	0	507	437	3
2026-02-12	15:58:17.790	-89.215	-17.57	-125.3	0.074908	0.990396	0.416508	0.153	-0.3795	0.138	0	507	437	3
2026-02-12	15:58:17.810	-81.235	-17.99	-109.795	0.104432	0.892064	0.49654	0.174	-0.3675	0.1335	0	493	414	3
2026-02-12	15:58:17.830	-57.855	-14.91	-89.495	0.116876	0.781776	0.470676	0.1815	-0.366	0.1335	0	493	414	3
2026-02-12	15:58:17.850	-10.36	-12.39	-60.445	0.171776	0.26718	0.455548	0.1815	-0.366	0.1335	0	493	414	3
2026-02-12	15:58:17.870	48.825	-4.515	-27.58	0.256444	0.357948	0.405284	0.2115	-0.345	0.108	0	493	414	3
2026-02-12	15:58:17.890	67.9	7.91	-2.66	0.376004	0.648796	0.339648	0.2145	-0.3525	0.114	0	493	414	3
2026-02-12	15:58:17.910	72.94	11.655	18.445	0.525332	0.720532	0.349408	0.2145	-0.345	0.126	0	493	414	3
2026-02-12	15:58:17.930	92.435	14.28	35.665	0.695888	0.776164	0.361852	0.213	-0.3555	0.1395	0	493	414	3
2026-02-12	15:58:17.950	121.31	22.96	42.77	0.909632	0.74054	0.475556	0.1995	-0.366	0.1485	0	493	414	3
2026-02-12	15:58:17.970	124.18	34.79	44.59	0.904264	0.647332	0.397964	0.2055	-0.3645	0.174	0	493	414	3
2026-02-12	15:58:17.990	109.305	39.9	34.825	0.866688	0.599996	0.21106	0.204	-0.3645	0.1905	0	493	414	3
2026-02-12	15:58:18.010	80.29	40.11	24.64	0.893772	0.508008	0.076616	0.204	-0.3645	0.1905	0	482	406	3
2026-02-12	15:58:18.030	70.735	34.93	24.99	0.845216	0.429928	0.179096	0.1995	-0.3705	0.2205	0	482	406	3
2026-02-12	15:58:18.050	60.06	29.225	26.04	0.872788	0.327448	0.27816	0.1875	-0.378	0.2235	0	482	406	3
2026-02-12	15:58:18.070	65.17	25.025	27.825	1.013576	-0.15738	0.361852	0.18	-0.378	0.237	0	482	406	3
2026-02-12	15:58:18.090	108.535	28.77	49.455	1.309548	-0.358924	0.404308	0.18	-0.3885	0.2445	0	482	406	3
2026-02-12	15:58:18.110	41.09	4.725	-32.41	0.873764	0.793976	-0.284504	0.18	-0.3885	0.2445	0	482	406	3
2026-02-12	15:58:18.130	-53.9	-9.94	-29.785	0.206424	0.987956	0.01464	0.18	-0.3885	0.2445	0	482	406	3
2026-02-12	15:58:18.150	-63.245	-14.21	-31.815	-0.06344	1.504504	0.625372	0.186	-0.3885	0.267	0	482	406	3
2026-02-12	15:58:18.170	11.935	7.315	-40.355	-0.471652	1.1468	0.229116	0.1755	-0.3885	0.2595	0	482	406	3
2026-02-12	15:58:18.190	42.98	8.295	-24.01	-0.008052	0.902068	-0.183732	0.183	-0.3825	0.261	0	482	406	3
2026-02-12	15:58:18.210	6.685	8.435	-7.315	0.471896	1.157536	0.33062	0.201	-0.3795	0.2625	0	479	386	3
2026-02-12	15:58:18.230	-6.825	16.485	1.4	0.340624	0.826916	0.212036	0.198	-0.39	0.264	0	479	386	3
2026-02-12	15:58:18.250	10.43	21.98	1.68	0.296704	0.900116	0.083692	0.1965	-0.3825	0.27	0	479	386	3
2026-02-12	15:58:18.270	19.285	22.855	4.41	0.221796	1.007232	0.211792	0.1965	-0.381	0.27	0	479	386	3
2026-02-12	15:58:18.290	19.215	22.925	10.675	0.136884	1.068964	0.221308	0.1875	-0.3885	0.2805	0	479	386	3
2026-02-12	15:58:18.310	13.545	23.24	17.535	0.091744	0.989908	0.156892	0.1815	-0.3855	0.2775	0	479	386	3
2026-02-12	15:58:18.330	4.13	19.985	27.685	0.209108	0.984052	0.220332	0.1965	-0.384	0.279	0	479	386	3
2026-02-12	15:58:18.350	-2.94	14.105	41.125	0.27206	1.03334	0.222528	0.183	-0.39	0.2775	0	479	386	3
2026-02-12	15:58:18.370	-5.145	9.555	64.155	0.211304	1.096536	0.223748	0.18	-0.387	0.282	0	479	386	3
2026-02-12	15:58:18.390	-21.035	5.11	95.375	0.2562	1.030168	0.263764	0.1695	-0.39	0.279	0	479	386	3
2026-02-12	15:58:18.410	-41.825	-2.17	116.095	0.271328	0.98698	0.301828	0.1515	-0.39	0.276	0	481	349	2
2026-02-12	15:58:18.430	-49.035	-9.975	126.945	0.293044	0.815204	0.184464	0.1335	-0.39	0.273	0	481	349	2
2026-02-12	15:58:18.450	-43.4	-17.465	133.595	0.481656	0.81252	0.244488	0.108	-0.3915	0.267	0	481	349	2
2026-02-12	15:58:18.470	-34.3	-12.32	130.865	0.472628	0.833504	0.25376	0.0855	-0.3885	0.258	0	481	349	2
2026-02-12	15:58:18.490	-30.065	-8.33	123.34	0.469456	0.77104	0.141276	0.0735	-0.3885	0.2535	0	481	349	2
2026-02-12	15:58:18.510	-20.44	-6.37	116.305	0.497272	0.952332	0.077592	0.0555	-0.3885	0.252	0	481	349	2
2026-02-12	15:58:18.530	-14	-7.105	104.265	0.668804	0.880596	0.192028	0.0315	-0.381	0.2475	0	481	349	2
2026-02-12	15:58:18.550	-9.1	-1.995	99.085	0.691252	0.815936	0.300608	0.015	-0.3735	0.246	0	481	349	2
2026-02-12	15:58:18.570	-21.28	-2.24	89.53	0.700768	0.8906	0.222528	0.0045	-0.375	0.246	0	481	349	2
2026-02-12	15:58:18.590	-47.705	-3.5	82.11	0.680272	0.887428	0.032208	-0.006	-0.3765	0.243	0	481	349	2
2026-02-12	15:58:18.610	-101.36	-19.53	81.06	0.892552	0.992348	0.095892	-0.0105	-0.369	0.2325	0	479	312	3
2026-02-12	15:58:18.630	-112.805	-7.525	64.365	0.73688	0.767624	-0.045872	-0.0225	-0.369	0.2145	0	479	312	3
2026-02-12	15:58:18.650	-90.79	-15.785	39.27	0.804468	0.655628	0.26596	-0.0345	-0.372	0.2055	0	479	312	3
2026-02-12	15:58:18.670	-104.58	-14.175	21.525	0.865712	0.739076	0.191784	-0.0495	-0.3555	0.1875	0	479	312	3
2026-02-12	15:58:18.690	-136.36	-4.585	1.82	0.684908	0.6161	0.311832	-0.048	-0.3525	0.18	0	479	312	3
2026-02-12	15:58:18.710	-139.195	3.745	-19.04	0.610732	0.632204	0.52704	-0.048	-0.348	0.1635	0	479	312	3
2026-02-12	15:58:18.730	-134.19	28.455	-27.51	0.469944	0.94062	0.695644	-0.0465	-0.3435	0.144	0	479	312	3
2026-02-12	15:58:18.750	-126.245	42.525	-42.035	0.3111	0.915488	0.788608	-0.0465	-0.339	0.1275	0	479	312	3
2026-02-12	15:58:18.770	-83.58	52.08	-48.615	0.062952	0.772748	0.817644	-0.039	-0.33	0.111	0	479	312	3
2026-02-12	15:58:18.790	-41.51	60.375	-55.265	0.035624	1.027728	0.92964	-0.027	-0.3285	0.0945	0	479	312	3
2026-02-12	15:58:18.810	-14.805	66.85	-74.9	-0.020252	1.138504	0.979416	-0.0165	-0.3285	0.09	0	474	301	3
2026-02-12	15:58:18.830	-20.895	67.83	-92.015	-0.119804	1.127036	0.956724	-0.006	-0.327	0.087	0	474	301	3
2026-02-12	15:58:18.850	-31.115	64.155	-105.735	-0.079788	1.0004	0.945988	0.012	-0.324	0.0765	0	474	301	3
2026-02-12	15:58:18.870	-23.94	62.72	-117.285	-0.067832	1.001864	0.945012	0.0375	-0.3255	0.069	0	474	301	3
2026-02-12	15:58:18.890	-20.3	59.255	-126.455	-0.012688	1.0065	0.8906	0.0525	-0.33	0.069	0	474	301	3
2026-02-12	15:58:18.910	-27.23	52.08	-131.18	-0.009028	0.970876	0.809104	0.057	-0.33	0.069	0	474	301	3
2026-02-12	15:58:18.930	-39.725	43.015	-129.71	0.038308	0.969168	0.772016	0.057	-0.33	0.069	0	474	301	3
2026-02-12	15:58:18.950	-43.68	36.47	-126.42	0.081496	0.878888	0.701256	0.135	-0.3165	0.0525	0	474	301	3
2026-02-12	15:58:18.970	-41.825	27.475	-119.63	0.083204	0.761524	0.628788	0.15	-0.315	0.0405	0	474	301	3
2026-02-12	15:58:18.990	-39.025	14.315	-107.03	0.137616	0.74542	0.646844	0.1695	-0.312	0.0435	0	474	301	3
2026-02-12	15:58:19.010	-38.78	1.89	-90.16	0.207644	0.762256	0.703208	0.192	-0.303	0.036	0	470	363	3
2026-02-12	15:58:19.030	-37.45	-7.385	-74.235	0.30012	0.838872	0.784948	0.1935	-0.291	0.0375	0	470	363	3
2026-02-12	15:58:19.050	-35.91	-12.39	-61.25	0.405284	0.849364	0.797636	0.204	-0.288	0.036	0	470	363	3
2026-02-12	15:58:19.070	-24.5	-15.155	-53.515	0.40504	0.751764	0.649284	0.2055	-0.2895	0.021	0	470	363	3
2026-02-12	15:58:19.090	-2.555	-17.15	-44.205	0.414068	0.5307	0.703696	0.2145	-0.279	0.015	0	470	363	3
2026-02-12	15:58:19.110	24.78	-14.21	-29.26	0.41358	0.511668	0.76738	0.2205	-0.276	0.0075	0	470	363	3
2026-02-12	15:58:19.130	29.505	1.47	-15.365	0.415776	0.707844	0.70516	0.2175	-0.276	0.0225	0	470	363	3
2026-02-12	15:58:19.150	10.675	8.715	-5.32	0.438468	0.702964	0.492636	0.2115	-0.276	0.021	0	470	363	3
2026-02-12	15:58:19.170	48.02	-6.685	9.1	0.42456	0.25742	0.248636	0.2145	-0.2775	0.0225	0	470	363	3
2026-02-12	15:58:19.190	151.76	-20.3	26.46	0.523624	-0.028792	0.308904	0.2145	-0.2775	0.0225	0	470	363	3
2026-02-12	15:58:19.210	261.135	-9.835	36.4	0.554124	0.165188	0.19032	0.2025	-0.2955	0.045	0	465	444	3
2026-02-12	15:58:19.230	365.435	3.29	37.555	0.694912	0.506544	0.120292	0.1905	-0.3135	0.0675	0	465	444	3
2026-02-12	15:58:19.250	384.405	24.745	45.08	0.923784	1.005768	0.248392	0.189	-0.3375	0.105	0	465	444	3
2026-02-12	15:58:19.270	313.74	49.105	67.025	1.216584	0.394792	-0.057828	0.1665	-0.354	0.156	0	465	444	3
2026-02-12	15:58:19.290	242.9	83.125	117.95	1.752408	0.02562	-0.319152	0.165	-0.372	0.2085	0	465	444	3
2026-02-12	15:58:19.310	126.56	81.34	67.445	2.140124	0.566568	-0.063196	0.15	-0.375	0.255	0	465	444	3
2026-02-12	15:58:19.330	-53.865	48.44	-4.795	0.565592	0.145912	0.550952	0.144	-0.378	0.285	0	465	444	3
2026-02-12	15:58:19.350	-133.84	21.98	-6.3	-0.044164	1.007476	1.281	0.132	-0.384	0.2745	0	465	444	3
2026-02-12	15:58:19.370	6.545	26.425	-17.08	-0.564128	1.672376	0.524112	0.1425	-0.384	0.2535	0	465	444	3
2026-02-12	15:58:19.390	82.425	19.565	-31.78	-0.271816	0.855952	0.092964	0.138	-0.378	0.249	0	465	444	3
2026-02-12	15:58:19.410	-31.01	-14.77	1.05	0.487756	0.855708	0.194712	0.1455	-0.378	0.273	0	469	469	3
2026-02-12	15:58:19.430	-63.805	-17.325	5.39	0.608048	1.084336	0.320372	0.1395	-0.381	0.2655	0	469	469	3
2026-02-12	15:58:19.450	-4.235	0.56	2.975	0.157624	0.769332	0.011712	0.144	-0.3855	0.249	0	469	469	3
2026-02-12	15:58:19.470	-5.25	7.525	8.855	0.24888	1.150948	0.135664	0.1425	-0.3795	0.2445	0	469	469	3
2026-02-12	15:58:19.490	-2.695	16.94	12.355	0.244976	0.875228	0.18544	0.1425	-0.3735	0.2445	0	469	469	3
2026-02-12	15:58:19.510	2.275	25.2	19.25	0.31598	0.968924	0.28792	0.1395	-0.375	0.249	0	469	469	3
2026-02-12	15:58:19.530	3.78	26.46	27.65	0.274012	0.970388	0.284504	0.135	-0.378	0.2505	0	469	469	3
2026-02-12	15:58:19.550	-3.185	19.985	38.5	0.31476	0.949648	0.325984	0.1335	-0.378	0.252	0	469	469	3
2026-02-12	15:58:19.570	-10.5	15.61	51.52	0.285236	1.051884	0.237656	0.1305	-0.375	0.249	0	469	469	3
2026-02-12	15:58:19.590	-12.775	12.67	64.75	0.341356	1.032852	0.199836	0.1215	-0.3765	0.2475	0	469	469	3
2026-02-12	15:58:19.610	-6.125	8.82	84.14	0.335988	0.965752	0.264496	0.1065	-0.3795	0.2475	0	479	444	3
2026-02-12	15:58:19.630	9.73	6.3	101.57	0.326228	0.932324	0.316956	0.0945	-0.381	0.249	0	479	444	3
2026-02-12	15:58:19.650	-11.375	4.025	113.575	0.349896	0.995032	0.321836	0.081	-0.3795	0.249	0	479	444	3
2026-02-12	15:58:19.670	-37.8	-1.015	120.61	0.426268	0.899872	0.310124	0.066	-0.3765	0.2475	0	479	444	3
2026-02-12	15:58:19.690	-46.06	-6.16	124.775	0.499712	0.90402	0.292556	0.051	-0.375	0.243	0	479	444	3
2026-02-12	15:58:19.710	-44.135	-11.27	118.755	0.53314	0.813496	0.302072	0.036	-0.3705	0.237	0	479	444	3
2026-02-12	15:58:19.730	-33.215	-17.57	112.665	0.581208	0.740296	0.305488	0.0285	-0.3675	0.2355	0	479	444	3
2026-02-12	15:58:19.750	-27.265	-15.925	108.465	0.665388	0.801784	0.36844	-0.0105	-0.3615	0.213	0	479	444	3
2026-02-12	15:58:19.770	-33.005	-12.285	99.225	0.67222	0.777384	0.251564	-0.033	-0.366	0.2145	0	479	444	3
2026-02-12	15:58:19.790	-26.005	-9.03	91.14	0.574132	0.828136	0.304512	-0.0375	-0.3585	0.213	0	479	444	3
2026-02-12	15:58:19.810	-35.385	-4.69	84.525	0.547292	0.742248	0.185196	-0.048	-0.348	0.2115	0	485	402	1
2026-02-12	15:58:19.830	-58.52	-13.02	82.04	0.84668	0.752252	0.217404	-0.0585	-0.342	0.2115	0	485	402	1
2026-02-12	15:58:19.850	-55.825	-3.29	69.3	0.804468	0.698572	0.279624	-0.066	-0.339	0.207	0	485	402	1
2026-02-12	15:58:19.870	-52.43	0.385	60.515	0.720288	0.577304	0.292068	-0.075	-0.333	0.201	0	485	402	1
2026-02-12	15:58:19.890	-52.5	1.435	44.52	0.740052	0.602436	0.248392	-0.084	-0.324	0.192	0	485	402	1
2026-02-12	15:58:19.910	-69.58	3.185	31.22	0.770796	0.620736	0.083448	-0.09	-0.315	0.1845	0	485	402	1
2026-02-12	15:58:19.930	-107.275	1.26	15.4	0.761036	0.512156	0.211792	-0.0975	-0.312	0.1845	0	485	402	1
2026-02-12	15:58:19.950	-135.765	6.195	-0.525	0.646356	0.458232	0.43798	-0.1005	-0.3075	0.174	0	485	402	1
2026-02-12	15:58:19.970	-125.09	4.515	-10.01	0.564616	0.35868	0.46238	-0.0975	-0.2955	0.1575	0	485	402	1
2026-02-12	15:58:19.990	-89.81	16.45	-40.32	0.536312	1.0614	0.694424	-0.096	-0.294	0.138	0	485	402	1
2026-02-12	15:58:20.010	-100.73	17.43	-57.995	0.471408	1.104344	0.800808	-0.0945	-0.297	0.129	0	483	373	3
2026-02-12	15:58:20.030	-78.75	19.915	-66.675	0.416264	1.116788	0.845704	-0.0885	-0.288	0.1095	0	483	373	3
2026-02-12	15:58:20.050	-38.36	25.725	-80.045	0.268888	1.147044	0.867664	-0.075	-0.2895	0.096	0	483	373	3
2026-02-12	15:58:20.070	-24.115	26.88	-94.885	0.277428	1.203896	0.877668	-0.063	-0.294	0.087	0	483	373	3
2026-02-12	15:58:20.090	-29.925	31.465	-112.595	0.202276	1.257576	0.935984	-0.048	-0.2985	0.0945	0	483	373	3
2026-02-12	15:58:20.110	-40.215	34.23	-128.03	0.237656	1.177544	0.951112	-0.036	-0.297	0.078	0	483	373	3
2026-02-12	15:58:20.130	-38.955	36.26	-140.665	0.217404	1.145092	0.903776	-0.0075	-0.2985	0.0765	0	483	373	3
2026-02-12	15:58:20.150	-32.655	38.57	-148.855	0.210084	1.068964	0.882304	0.009	-0.3	0.0765	0	483	373	3
2026-02-12	15:58:20.170	-30.765	40.495	-153.58	0.25132	1.072868	0.87718	0.0165	-0.306	0.057	0	483	373	3
2026-02-12	15:58:20.190	-37.52	42.315	-160.51	0.290604	0.931592	0.914512	0.039	-0.306	0.06	0	483	373	3
2026-02-12	15:58:20.210	-42.525	44.835	-163.765	0.3355	0.911096	0.858636	0.0765	-0.3045	0.0525	0	477	404	3
2026-02-12	15:58:20.230	-42.665	41.93	-159.985	0.28792	0.8174	0.739564	0.087	-0.3045	0.048	0	477	404	3
2026-02-12	15:58:20.250	-38.5	30.835	-146.58	0.251808	0.76982	0.631716	0.114	-0.291	0.0465	0	477	404	3
2026-02-12	15:58:20.270	-35.735	19.635	-126.945	0.245708	0.607316	0.64904	0.114	-0.291	0.0465	0	477	404	3
2026-02-12	15:58:20.290	-26.04	16.8	-107.065	0.251076	0.595116	0.729316	0.1425	-0.288	0.0435	0	477	404	3
2026-02-12	15:58:20.310	-16.73	18.515	-89.04	0.226676	0.588528	0.716872	0.171	-0.2865	0.0405	0	477	404	3
2026-02-12	15:58:20.330	-15.05	21.98	-73.29	0.201788	0.641964	0.669048	0.1695	-0.288	0.0405	0	477	404	3
2026-02-12	15:58:20.350	-17.22	20.055	-60.06	0.280844	0.650504	0.66856	0.1815	-0.2835	0.0435	0	477	404	3
2026-02-12	15:58:20.370	-4.795	20.475	-48.545	0.390888	0.631228	0.63074	0.1935	-0.2775	0.0315	0	477	404	3
2026-02-12	15:58:20.390	30.94	19.705	-36.47	0.434564	0.509472	0.548512	0.1965	-0.285	0.0345	0	477	404	3
2026-02-12	15:58:20.410	80.605	18.06	-24.045	0.441396	0.382836	0.445056	0.2055	-0.282	0.0435	0	470	475	3
2026-02-12	15:58:20.430	137.76	14.14	-10.08	0.484584	0.274256	0.355508	0.2115	-0.2865	0.057	0	470	475	3
2026-02-12	15:58:20.450	194.845	10.01	3.29	0.494344	0.176656	0.248148	0.2145	-0.2985	0.06	0	470	475	3
2026-02-12	15:58:20.470	237.93	7.945	28.21	0.503128	0.233508	0.162016	0.219	-0.3075	0.0885	0	470	475	3
2026-02-12	15:58:20.490	242.27	7.49	47.67	0.638792	0.494588	0.25376	0.21	-0.3345	0.117	0	470	475	3
2026-02-12	15:58:20.510	178.115	16.345	58.275	0.801052	0.756156	0.406992	0.198	-0.345	0.1545	0	470	475	3
2026-02-12	15:58:20.530	24.36	28.315	68.215	0.785192	0.578036	0.299144	0.189	-0.3555	0.1695	0	470	475	3
2026-02-12	15:58:20.550	-14.84	17.64	58.24	0.865224	0.293288	0.261812	0.177	-0.36	0.1785	0	470	475	3
2026-02-12	15:58:20.570	28.805	7.245	58.17	1.27856	0.257176	0.254004	0.165	-0.3645	0.1875	0	470	475	3
2026-02-12	15:58:20.590	112.245	16.905	38.08	1.590392	0.353312	0.462624	0.162	-0.3645	0.189	0	470	475	3
2026-02-12	15:58:20.610	35.735	18.235	-11.69	1.163392	0.553392	0.104676	0.153	-0.3735	0.195	0	463	510	3
2026-02-12	15:58:20.630	-42.105	18.305	-28.595	0.224724	0.507764	0.32818	0.159	-0.3795	0.2025	0	463	510	3
2026-02-12	15:58:20.650	-43.505	12.285	-12.005	-0.369416	1.510604	0.483364	0.1695	-0.378	0.201	0	463	510	3
2026-02-12	15:58:20.670	40.25	26.32	-23.275	-0.621468	1.526464	0.178852	0.1635	-0.3735	0.198	0	463	510	3
2026-02-12	15:58:20.690	25.935	24.255	-18.935	0.036112	0.745908	0.183	0.162	-0.3705	0.1995	0	463	510	3
2026-02-12	15:58:20.710	-34.755	7.105	16.345	0.5368	0.870592	0.448716	0.168	-0.3765	0.204	0	463	510	3
2026-02-12	15:58:20.730	-10.29	21.77	22.89	0.37698	0.900116	0.429684	0.1665	-0.3735	0.2055	0	463	510	3
2026-02-12	15:58:20.750	25.445	30.31	17.85	0.173484	0.871812	0.388936	0.1635	-0.3675	0.2025	0	463	510	3
2026-02-12	15:58:20.770	7.525	23.73	28.49	0.145424	1.042368	0.523624	0.165	-0.3675	0.2055	0	463	510	3
2026-02-12	15:58:20.790	-2.59	17.185	41.72	0.064416	1.02968	0.4148	0.1605	-0.3675	0.2055	0	463	510	3
2026-02-12	15:58:20.810	-21.21	3.955	58.38	0.201056	0.997472	0.459208	0.156	-0.3675	0.204	0	462	497	3
2026-02-12	15:58:20.830	-37.59	-10.535	73.185	0.356972	0.918904	0.473604	0.138	-0.375	0.2085	0	462	497	3
2026-02-12	15:58:20.850	-22.68	-14.77	87.745	0.335988	0.955504	0.5124	0.132	-0.3735	0.1965	0	462	497	3
2026-02-12	15:58:20.870	-12.46	-14.665	100.45	0.26352	1.141432	0.445056	0.1215	-0.372	0.1905	0	462	497	3
2026-02-12	15:58:20.890	-18.83	-12.775	104.475	0.137128	1.057008	0.322324	0.102	-0.378	0.1935	0	462	497	3
2026-02-12	15:58:20.910	-36.12	-15.89	104.965	0.200812	0.85034	0.265716	0.081	-0.3705	0.1905	0	462	497	3
2026-02-12	15:58:20.930	-46.48	-23.8	107.59	0.409432	0.681492	0.277672	0.078	-0.3735	0.1905	0	462	497	3
2026-02-12	15:58:20.950	-34.44	-21.035	109.34	0.536312	0.61366	0.35258	0.066	-0.372	0.1875	0	462	497	3
2026-02-12	15:58:20.970	-30.485	-20.44	106.4	0.550464	0.692472	0.422608	0.0435	-0.3645	0.1785	0	462	497	3
2026-02-12	15:58:20.990	-34.23	-23.45	107.415	0.585844	0.928908	0.427732	0.0255	-0.3615	0.1725	0	462	497	3
2026-02-12	15:58:21.010	-38.535	-19.565	90.3	0.591212	0.96136	0.470676	0.0105	-0.36	0.1695	0	462	470	3
2026-02-12	15:58:21.030	-50.75	-15.925	77.49	0.509472	0.884256	0.449448	-0.0045	-0.3555	0.165	0	462	470	3
2026-02-12	15:58:21.050	-69.545	-18.445	64.785	0.588284	0.858148	0.471652	-0.0135	-0.354	0.1605	0	462	470	3
2026-02-12	15:58:21.070	-89.005	-15.085	45.955	0.834236	0.913536	0.403576	-0.018	-0.3555	0.1605	0	462	470	3
2026-02-12	15:58:21.090	-102.06	-11.69	34.475	0.579012	0.61366	0.422364	-0.018	-0.3555	0.1605	0	462	470	3
2026-02-12	15:58:21.110	-97.37	-9.17	17.99	0.646112	0.598044	0.469456	-0.045	-0.324	0.129	0	462	470	3
2026-02-12	15:58:21.130	-98.63	-5.005	3.99	0.621224	0.514596	0.369172	-0.0375	-0.3135	0.114	0	462	470	3
2026-02-12	15:58:21.150	-101.22	-0.42	-9.8	0.551928	0.58682	0.48678	-0.042	-0.321	0.108	0	462	470	3
2026-02-12	15:58:21.170	-84.77	9.66	-33.705	0.449204	0.809592	0.721752	-0.042	-0.3075	0.0885	0	462	470	3
2026-02-12	15:58:21.190	-67.515	22.855	-55.93	0.251808	0.91866	0.843264	-0.039	-0.306	0.0855	0	462	470	3
2026-02-12	15:58:21.210	-58.485	29.96	-68.495	0.124684	0.861808	0.93452	-0.0315	-0.3	0.0705	0	458	460	3
2026-02-12	15:58:21.230	-41.86	43.575	-77.735	0.052216	0.930128	1.03334	-0.024	-0.3045	0.06	0	458	460	3
2026-02-12	15:58:21.250	-28.105	58.45	-85.225	0.020984	0.921832	1.092144	-0.012	-0.309	0.0555	0	458	460	3
2026-02-12	15:58:21.270	-10.01	71.155	-95.165	-0.082716	0.870592	1.077992	0.006	-0.309	0.0495	0	458	460	3
2026-02-12	15:58:21.290	-1.155	78.295	-100.59	-0.098088	0.876448	1.036024	0.03	-0.3105	0.045	0	458	460	3
2026-02-12	15:58:21.310	0.455	79.625	-108.22	-0.162504	0.85522	0.914756	0.042	-0.3165	0.051	0	458	460	3
2026-02-12	15:58:21.330	-8.715	76.3	-110.74	-0.106628	0.709308	0.835212	0.066	-0.312	0.0345	0	458	460	3
2026-02-12	15:58:21.350	-9.625	70.56	-109.515	-0.070516	0.65026	0.8174	0.066	-0.312	0.0345	0	458	460	3
2026-02-12	15:58:21.370	-10.85	63.175	-105.42	-0.033916	0.63196	0.722972	0.096	-0.3135	0.036	0	458	460	3
2026-02-12	15:58:21.390	-6.86	49.455	-96.985	-0.01708	0.576816	0.569496	0.1365	-0.3135	0.039	0	458	460	3
2026-02-12	15:58:21.410	1.05	32.865	-85.75	0.010004	0.461892	0.508252	0.1545	-0.3135	0.0375	0	453	500	3
2026-02-12	15:58:21.430	14.245	15.505	-71.4	0.109312	0.455304	0.540704	0.1635	-0.312	0.039	0	453	500	3
2026-02-12	15:58:21.450	20.86	0.98	-52.71	0.284992	0.576572	0.577304	0.1695	-0.312	0.0435	0	453	500	3
2026-02-12	15:58:21.470	17.57	-15.365	-28.805	0.47092	0.63928	0.599752	0.18	-0.3135	0.0465	0	453	500	3
2026-02-12	15:58:21.490	17.535	-32.2	-3.675	0.591456	0.5795	0.57462	0.1845	-0.315	0.0495	0	453	500	3
2026-02-12	15:58:21.510	35.665	-50.785	21.175	0.692716	0.429196	0.457744	0.1845	-0.312	0.045	0	453	500	3
2026-02-12	15:58:21.530	90.23	-65.695	37.135	0.707356	0.373808	0.378688	0.1785	-0.324	0.0465	0	453	500	3
2026-02-12	15:58:21.550	148.61	-78.19	57.4	0.735172	0.32452	0.28914	0.168	-0.3195	0.054	0	453	500	3
2026-02-12	15:58:21.570	169.715	-86.625	83.195	0.916708	0.564616	0.587308	0.15	-0.3315	0.066	0	453	500	3
2026-02-12	15:58:21.590	120.47	-66.22	108.15	1.34566	1.124596	0.903044	0.132	-0.3465	0.093	0	453	500	3
2026-02-12	15:58:21.610	94.92	-53.97	70.42	1.236836	0.160796	0.156404	0.108	-0.363	0.1065	0	449	546	3
2026-02-12	15:58:21.630	126.42	-48.055	53.2	0.873032	0.1464	0.23424	0.0915	-0.369	0.123	0	449	546	3
2026-02-12	15:58:21.650	83.93	-53.9	58.73	0.757376	0.678076	0.526308	0.0765	-0.3735	0.1455	0	449	546	3
2026-02-12	15:58:21.670	-5.495	-57.435	71.68	0.56242	0.537288	0.608536	0.0675	-0.3735	0.1545	0	449	546	3
2026-02-12	15:58:21.690	-55.72	-51.45	71.505	0.312076	0.702232	0.510936	0.0495	-0.375	0.159	0	449	546	3
2026-02-12	15:58:21.710	-31.535	-50.085	61.915	0.185928	0.613416	0.376248	0.0345	-0.375	0.156	0	449	546	3
2026-02-12	15:58:21.730	85.365	-57.33	73.325	0.213012	0.575352	0.227652	0.0225	-0.369	0.1515	0	449	546	3
2026-02-12	15:58:21.750	137.935	-47.705	70.56	0.282552	1.180228	0.079788	0.006	-0.372	0.159	0	449	546	3
2026-02-12	15:58:21.770	78.435	-49.315	61.425	0.371856	1.233176	-0.169092	-0.0045	-0.3765	0.1815	0	449	546	3
2026-02-12	15:58:21.790	2.73	-52.325	60.165	0.578524	1.002108	-0.087108	-0.0105	-0.369	0.1995	0	449	546	3
2026-02-12	15:58:21.810	-43.61	-50.05	61.565	0.740784	0.571448	0.184952	-0.021	-0.369	0.201	0	450	548	3
2026-02-12	15:58:21.830	-29.995	-38.78	58.695	0.82838	0.403576	0.363072	-0.033	-0.3675	0.195	0	450	548	3
2026-02-12	15:58:21.850	12.145	-23.695	50.12	0.802516	0.530944	0.422364	-0.042	-0.3615	0.192	0	450	548	3
2026-02-12	15:58:21.870	31.15	-12.425	42.875	0.683932	0.74054	0.402844	-0.048	-0.357	0.1965	0	450	548	3
2026-02-12	15:58:21.890	26.46	-7.56	40.46	0.603412	0.758352	0.30256	-0.054	-0.3555	0.1995	0	450	548	3
2026-02-12	15:58:21.910	19.95	-5.88	44.87	0.675392	0.720776	0.28426	-0.072	-0.3555	0.219	0	450	548	3
2026-02-12	15:58:21.930	9.135	-4.2	49.91	0.67344	0.705892	0.267912	-0.075	-0.3525	0.2175	0	450	548	3
2026-02-12	15:58:21.950	-1.925	-2.87	56.63	0.701256	0.640744	0.265716	-0.0855	-0.351	0.2145	0	450	548	3
2026-02-12	15:58:21.970	-7.77	-4.34	63.56	0.72956	0.6466	0.27206	-0.0945	-0.3525	0.2205	0	450	548	3
2026-02-12	15:58:21.990	-13.895	-6.195	68.845	0.722728	0.716628	0.3172	-0.09	-0.3345	0.2115	0	450	548	3
2026-02-12	15:58:22.010	-22.715	-7.525	74.55	0.739564	0.619028	0.292556	-0.1065	-0.333	0.2085	0	450	504	3
2026-02-12	15:58:22.030	-31.29	-9.1	83.65	0.738588	0.57828	0.272548	-0.1125	-0.3315	0.2145	0	450	504	3
2026-02-12	15:58:22.050	-34.475	-11.655	93.835	0.843996	0.653676	0.277428	-0.1215	-0.327	0.2115	0	450	504	3
2026-02-12	15:58:22.070	-29.715	-8.855	102.76	0.902312	0.531432	0.377224	-0.138	-0.318	0.2085	0	450	504	3
2026-02-12	15:58:22.090	-14.84	-3.325	115.955	0.846924	0.5856	0.27572	-0.153	-0.3105	0.2055	0	450	504	3
2026-02-12	15:58:22.110	-12.67	-0.77	127.05	0.8296	0.51972	0.268156	-0.1635	-0.3015	0.2025	0	450	504	3
2026-02-12	15:58:22.130	-29.19	-2.59	145.18	0.868396	0.523136	0.1403	-0.1755	-0.2865	0.201	0	450	504	3
2026-02-12	15:58:22.150	-54.95	-9.38	164.955	0.928176	0.5734	0.242536	-0.186	-0.279	0.2025	0	450	504	3
2026-02-12	15:58:22.170	-41.965	-22.75	178.43	1.067988	0.573156	0.191784	-0.186	-0.279	0.2025	0	450	504	3
2026-02-12	15:58:22.190	-7.49	-33.74	194.355	1.322724	0.410896	0.137616	-0.24	-0.2325	0.1935	0	450	504	3
2026-02-12	15:58:22.210	33.355	-28.7	211.12	1.48718	0.528748	0.33428	-0.264	-0.2055	0.1965	0	446	447	3
2026-02-12	15:58:22.230	44.38	-9.38	191.38	1.283196	0.727364	0.35014	-0.276	-0.1815	0.216	0	446	447	3
2026-02-12	15:58:22.250	-1.505	4.725	160.895	1.034072	0.570228	0.273768	-0.288	-0.159	0.2115	0	446	447	3
2026-02-12	15:58:22.270	-23.38	3.745	133.91	1.020896	0.282552	0.26108	-0.309	-0.1365	0.213	0	446	447	3
2026-02-12	15:58:22.290	-5.845	7.49	102.445	0.97966	0.187148	0.412604	-0.309	-0.111	0.216	0	446	447	3
2026-02-12	15:58:22.310	20.86	16.485	78.715	0.950136	-0.056364	0.457744	-0.312	-0.102	0.2115	0	446	447	3
2026-02-12	15:58:22.330	62.335	17.15	59.78	0.873764	-0.238144	0.2196	-0.318	-0.087	0.216	0	446	447	3
2026-02-12	15:58:22.350	80.465	5.18	36.96	0.97234	-0.018788	0.193004	-0.3225	-0.084	0.216	0	446	447	3
2026-02-12	15:58:22.370	52.64	-1.575	14.665	0.857172	0.10248	0.340868	-0.324	-0.072	0.21	0	446	447	3
2026-02-12	15:58:22.390	17.29	2.94	8.96	0.858636	-0.11224	0.467504	-0.318	-0.0795	0.2175	0	446	447	3
2026-02-12	15:58:22.410	11.69	4.69	5.74	0.882548	-0.256688	0.39406	-0.321	-0.078	0.2205	0	441	400	3
2026-02-12	15:58:22.430	17.465	9.205	-4.445	0.877424	-0.030256	0.430416	-0.321	-0.078	0.2205	0	441	400	3
2026-02-12	15:58:22.450	7.42	9.345	-4.97	0.84912	-0.048068	0.334524	-0.318	-0.0735	0.2205	0	441	400	3
2026-02-12	15:58:22.470	12.11	8.82	-11.27	0.843264	0.01952	0.416752	-0.3225	-0.0705	0.216	0	441	400	3
2026-02-12	15:58:22.490	23.625	8.925	-23.975	0.789096	0.1342	0.367952	-0.3225	-0.0795	0.213	0	441	400	3
2026-02-12	15:58:22.510	46.9	3.78	-43.995	0.87718	0.263764	0.314272	-0.321	-0.0855	0.216	0	441	400	3
2026-02-12	15:58:22.530	98.42	-0.84	-71.855	0.874252	0.234484	0.235948	-0.318	-0.09	0.2175	0	441	400	3
2026-02-12	15:58:22.550	133.7	1.33	-103.95	0.885964	0.536312	0.163236	-0.3105	-0.1035	0.2205	0	441	400	3
2026-02-12	15:58:22.570	123.935	-0.945	-128.765	0.902556	0.676368	0.19886	-0.3105	-0.1215	0.225	0	441	400	3
2026-02-12	15:58:22.590	75.6	-4.305	-149.24	0.920612	0.697108	0.292068	-0.3105	-0.1335	0.2295	0	441	400	3
2026-02-12	15:58:22.610	39.095	-1.435	-167.195	0.935008	0.504836	0.350872	-0.306	-0.147	0.24	0	436	373	2
2026-02-12	15:58:22.630	33.88	3.885	-190.435	0.96014	0.618784	0.355996	-0.291	-0.1695	0.2385	0	436	373	2
2026-02-12	15:58:22.650	30.835	10.64	-203.665	0.916708	0.689056	0.34404	-0.279	-0.192	0.2445	0	436	373	2
2026-02-12	15:58:22.670	30.03	16.205	-211.68	0.909876	0.777384	0.389424	-0.2595	-0.21	0.2385	0	436	373	2
2026-02-12	15:58:22.690	9.135	29.96	-220.22	0.90402	0.72956	0.571692	-0.243	-0.2355	0.2445	0	436	373	2
2026-02-12	15:58:22.710	2.1	42.84	-223.02	0.833504	0.634156	0.611708	-0.2175	-0.2595	0.2445	0	436	373	2
2026-02-12	15:58:22.730	4.97	55.685	-226.065	0.777628	0.78202	0.633912	-0.1815	-0.297	0.24	0	436	373	2
2026-02-12	15:58:22.750	-9.1	68.81	-228.34	0.79422	0.8784	0.728096	-0.1545	-0.3195	0.2355	0	436	373	2
2026-02-12	15:58:22.770	-41.335	83.545	-225.855	0.757864	0.759572	0.85522	-0.126	-0.336	0.2295	0	436	373	2
2026-02-12	15:58:22.790	-65.415	100.66	-220.99	0.712968	0.707356	0.967704	-0.09	-0.351	0.216	0	436	373	2
2026-02-12	15:58:22.810	-82.425	119.21	-211.785	0.695156	0.626592	0.98576	-0.054	-0.3645	0.204	0	430	380	3
2026-02-12	15:58:22.830	-80.325	135.52	-204.47	0.604632	0.56364	0.923052	-0.018	-0.369	0.1905	0	430	380	3
2026-02-12	15:58:22.850	-69.825	149.345	-195.02	0.433588	0.4941	0.955748	0.024	-0.3705	0.183	0	430	380	3
2026-02-12	15:58:22.870	-62.93	159.635	-180.285	0.325008	0.371612	1.003572	0.0645	-0.363	0.18	0	430	380	3
2026-02-12	15:58:22.890	-45.36	169.05	-163.765	0.252296	0.373564	0.958188	0.1005	-0.3495	0.1815	0	430	380	3
2026-02-12	15:58:22.910	-23.66	174.58	-144.2	0.213256	0.351604	0.819352	0.1365	-0.3315	0.198	0	430	380	3
2026-02-12	15:58:22.930	-11.025	180.845	-121.73	0.105896	0.329888	0.759084	0.168	-0.3135	0.2355	0	430	380	3
2026-02-12	15:58:22.950	-13.44	182.63	-79.205	0.064416	0.40016	0.742248	0.1995	-0.309	0.291	0	430	380	3
2026-02-12	15:58:22.970	-16.24	182.07	-42.105	0.002684	0.428464	0.663436	0.2175	-0.3105	0.3225	0	430	380	3
2026-02-12	15:58:22.990	-11.165	179.865	-12.005	-0.04148	0.438224	0.687592	0.354	-0.309	0.321	0	430	380	3
2026-02-12	15:58:23.010	-12.11	175.315	20.195	0.111508	0.63684	0.793	0.3765	-0.3075	0.291	0	428	444	3
2026-02-12	15:58:23.030	1.4	177.275	38.675	0.165432	0.731268	0.833016	0.3705	-0.318	0.2655	0	428	444	3
2026-02-12	15:58:23.050	21.945	183.645	48.02	0.235216	0.787388	0.79178	0.366	-0.3375	0.249	0	428	444	3
2026-02-12	15:58:23.070	48.615	183.96	47.075	0.18788	0.707844	0.659532	0.351	-0.339	0.2445	0	428	444	3
2026-02-12	15:58:23.090	61.565	174.755	43.295	0.139568	0.616588	0.604632	0.3405	-0.342	0.2505	0	428	444	3
2026-02-12	15:58:23.110	55.02	159.775	48.475	0.03782	0.587796	0.609268	0.336	-0.354	0.2655	0	428	444	3
2026-02-12	15:58:23.130	27.685	140.91	53.095	0.072956	0.726144	0.664656	0.327	-0.36	0.27	0	428	444	3
2026-02-12	15:58:23.150	1.785	124.285	60.095	-0.022204	0.61	0.636352	0.3195	-0.372	0.285	0	428	444	3
2026-02-12	15:58:23.170	-8.435	108.465	71.435	-0.078324	0.496784	0.5795	0.312	-0.372	0.2805	0	428	444	3
2026-02-12	15:58:23.190	-8.26	96.145	78.96	-0.17446	0.470188	0.6222	0.3015	-0.3765	0.279	0	428	444	3
2026-02-12	15:58:23.210	-7.35	92.645	87.22	-0.094428	0.624884	0.7259	0.2865	-0.387	0.282	0	429	523	3
2026-02-12	15:58:23.230	-15.435	100.065	87.325	-0.14518	0.721264	0.66368	0.2775	-0.393	0.2835	0	429	523	3
2026-02-12	15:58:23.250	-22.505	103.39	89.95	-0.222528	0.67954	0.564128	0.2775	-0.393	0.2835	0	429	523	3
2026-02-12	15:58:23.270	-37.45	98.49	95.305	-0.309636	0.615368	0.492636	0.24	-0.4095	0.279	0	429	523	3
2026-02-12	15:58:23.290	-56.63	85.61	103.11	-0.349652	0.581452	0.350628	0.222	-0.414	0.273	0	429	523	3
2026-02-12	15:58:23.310	-67.025	62.58	109.795	-0.352092	0.71614	0.326472	0.198	-0.4155	0.267	0	429	523	3
2026-02-12	15:58:23.330	-89.495	36.505	116.41	-0.15006	0.827892	0.3721	0.177	-0.414	0.258	0	429	523	3
2026-02-12	15:58:23.350	-113.68	13.825	115.43	-0.026596	0.871324	0.339892	0.1635	-0.411	0.2415	0	429	523	3
2026-02-12	15:58:23.370	-126.98	-3.465	115.43	0.132492	0.856684	0.386252	0.1485	-0.417	0.228	0	429	523	3
2026-02-12	15:58:23.390	-133.56	-15.295	113.365	0.204228	0.707844	0.454816	0.129	-0.408	0.201	0	429	523	3
2026-02-12	15:58:23.410	-124.46	-22.82	112.98	0.310124	0.64538	0.306952	0.105	-0.405	0.1815	0	433	565	3
2026-02-12	15:58:23.430	-110.6	-12.705	113.575	0.540948	0.696376	0.878156	0.0795	-0.402	0.174	0	433	565	3
2026-02-12	15:58:23.450	-119.14	-11.795	121.38	0.435296	0.698084	0.824964	0.063	-0.3975	0.15	0	433	565	3
2026-02-12	15:58:23.470	-27.16	-17.255	112.63	0.522404	0.020252	0.749568	0.033	-0.3945	0.1335	0	433	565	3
2026-02-12	15:58:23.490	244.37	21.805	121.38	0.670024	0.16714	0.500444	0.018	-0.3735	0.1245	0	433	565	3
2026-02-12	15:58:23.510	305.095	65.065	148.645	0.902068	1.918328	0.196176	0.018	-0.3735	0.1245	0	433	565	3
2026-02-12	15:58:23.530	95.095	50.68	42.945	1.403	3.144428	0.274744	-0.0075	-0.384	0.177	0	433	565	3
2026-02-12	15:58:23.550	103.705	42.56	-50.12	0.734196	0.284992	0.32696	-0.033	-0.393	0.234	0	433	565	3
2026-02-12	15:58:23.570	102.235	46.9	3.955	0.36478	-0.426756	-0.16104	-0.027	-0.3975	0.2445	0	433	565	3
2026-02-12	15:58:23.590	31.43	22.89	-13.58	0.650748	1.409344	0.347212	-0.027	-0.399	0.255	0	433	565	3
2026-02-12	15:58:23.610	-75.495	-0.63	-21.49	0.223992	0.834724	0.851804	-0.03	-0.4005	0.2565	0	444	565	3
2026-02-12	15:58:23.630	-89.495	-24.745	7.175	-0.25376	1.219512	0.978684	-0.027	-0.405	0.249	0	444	565	3
2026-02-12	15:58:23.650	26.04	-14.42	21.245	-0.355996	1.32736	0.165432	-0.0285	-0.402	0.243	0	444	565	3
2026-02-12	15:58:23.670	23.275	-24.01	62.195	0.193736	1.380552	0.0488	-0.033	-0.3975	0.246	0	444	565	3
2026-02-12	15:58:23.690	-42.77	-8.05	94.675	0.480192	1.181936	0.173484	-0.045	-0.396	0.246	0	444	565	3
2026-02-12	15:58:23.710	-63.28	12.25	104.3	0.344528	0.756888	0.376736	-0.0585	-0.39	0.2355	0	444	565	3
2026-02-12	15:58:23.730	-15.68	32.41	103.32	0.097112	0.76616	0.525088	-0.0705	-0.3825	0.228	0	444	565	3
2026-02-12	15:58:23.750	-3.325	31.29	107.065	0.16958	0.860588	0.556076	-0.0795	-0.3795	0.2265	0	444	565	3
2026-02-12	15:58:23.770	-36.47	17.115	107.345	0.315736	0.677588	0.561932	-0.093	-0.3705	0.2235	0	444	565	3
2026-02-12	15:58:23.790	-34.09	6.265	104.86	0.389424	0.734928	0.545096	-0.108	-0.363	0.219	0	444	565	3
2026-02-12	15:58:23.810	-20.44	0.805	102.865	0.383324	0.827404	0.556564	-0.1275	-0.3525	0.2145	0	464	539	3
2026-02-12	15:58:23.830	-16.765	2.94	98	0.274256	0.721264	0.467748	-0.138	-0.3435	0.21	0	464	539	3
2026-02-12	15:58:23.850	-22.68	0.175	93.52	0.377712	0.670024	0.443592	-0.1575	-0.3345	0.2055	0	464	539	3
2026-02-12	15:58:23.870	-13.65	-0.35	88.865	0.500932	0.74176	0.475556	-0.171	-0.3255	0.2085	0	464	539	3
2026-02-12	15:58:23.890	1.33	6.475	77.525	0.454328	0.692228	0.458476	-0.18	-0.318	0.2085	0	464	539	3
2026-02-12	15:58:23.910	0.28	3.395	63.105	0.516304	0.580232	0.523868	-0.189	-0.312	0.207	0	464	539	3
2026-02-12	15:58:23.930	-1.085	1.085	47.11	0.462624	0.588528	0.57584	-0.1965	-0.3045	0.204	0	464	539	3
2026-02-12	15:58:23.950	6.755	-0.35	41.545	0.50874	0.679784	0.567056	-0.204	-0.2985	0.2055	0	464	539	3
2026-02-12	15:58:23.970	9.94	3.71	30.31	0.51972	0.673928	0.46726	-0.207	-0.2955	0.207	0	464	539	3
2026-02-12	15:58:23.990	6.86	6.16	25.235	0.549488	0.648552	0.459208	-0.207	-0.2925	0.2055	0	464	539	3
2026-02-12	15:58:24.010	7	4.935	25.445	0.515084	0.65514	0.5124	-0.2115	-0.285	0.21	0	479	517	3
2026-02-12	15:58:24.030	12.74	8.12	16.73	0.58316	0.7076	0.529236	-0.219	-0.2805	0.21	0	479	517	3
2026-02-12	15:58:24.050	4.445	7.56	8.96	0.621712	0.751032	0.587796	-0.222	-0.2805	0.21	0	479	517	3
2026-02-12	15:58:24.070	2.695	8.365	3.99	0.538508	0.741028	0.49288	-0.213	-0.288	0.207	0	479	517	3
2026-02-12	15:58:24.090	-2.8	6.055	-0.805	0.570472	0.706624	0.566812	-0.222	-0.291	0.2145	0	479	517	3
2026-02-12	15:58:24.110	-14.175	3.29	-1.26	0.510692	0.692472	0.563884	-0.219	-0.282	0.2145	0	479	517	3
2026-02-12	15:58:24.130	-24.15	0.28	-2.66	0.504592	0.811544	0.576084	-0.2205	-0.282	0.201	0	479	517	3
2026-02-12	15:58:24.150	-34.58	-5.39	-4.025	0.505568	0.89426	0.635864	-0.222	-0.2835	0.2055	0	479	517	3
2026-02-12	15:58:24.170	-57.89	-10.255	-4.9	0.505568	1.06872	0.667096	-0.216	-0.2805	0.201	0	479	517	3
2026-02-12	15:58:24.190	-75.18	-15.925	-10.675	0.535092	0.874252	0.766648	-0.2235	-0.282	0.1905	0	479	517	3
2026-02-12	15:58:24.210	-81.515	-19.95	-16.765	0.426756	0.687104	0.670024	-0.2145	-0.2865	0.1905	0	481	515	3
2026-02-12	15:58:24.230	-75.18	-19.88	-21.14	0.388936	1.024312	0.663436	-0.2145	-0.282	0.177	0	481	515	3
2026-02-12	15:58:24.250	-45.115	-16.205	-32.69	0.16714	1.1468	0.721508	-0.213	-0.2805	0.168	0	481	515	3
2026-02-12	15:58:24.270	-33.425	-9.59	-55.825	-0.115656	1.90442	0.81374	-0.2115	-0.282	0.1665	0	481	515	3
2026-02-12	15:58:24.290	-33.845	-10.325	-88.83	-0.305	1.670668	0.89304	-0.2085	-0.282	0.1725	0	481	515	3
2026-02-12	15:58:24.310	-9.52	-8.155	-104.545	-0.371856	1.60674	0.955992	-0.2085	-0.282	0.1725	0	481	515	3
2026-02-12	15:58:24.330	-12.635	-1.995	-118.44	-0.266204	1.550132	0.942572	-0.2085	-0.282	0.1725	0	481	515	3
2026-02-12	15:58:24.350	-16.415	4.375	-135.905	-0.148596	1.400316	0.837408	-0.1785	-0.309	0.162	0	481	515	3
2026-02-12	15:58:24.370	-12.355	10.64	-149.695	-0.080032	1.286856	0.74664	-0.1605	-0.3165	0.156	0	481	515	3
2026-02-12	15:58:24.390	-12.04	13.475	-156.59	-0.01464	1.13216	0.71126	-0.1515	-0.3255	0.156	0	481	515	3
2026-02-12	15:58:24.410	-8.155	12.74	-154.595	0.077836	1.0187	0.708576	-0.132	-0.339	0.144	0	477	547	3
2026-02-12	15:58:24.430	-6.37	15.4	-145.145	0.146644	0.920612	0.701012	-0.1065	-0.36	0.15	0	477	547	3
2026-02-12	15:58:24.450	-18.48	17.92	-128.765	0.212524	0.800808	0.652212	-0.0855	-0.3675	0.1395	0	477	547	3
2026-02-12	15:58:24.470	-28.21	19.46	-106.26	0.275476	0.677344	0.56608	-0.069	-0.369	0.1335	0	477	547	3
2026-02-12	15:58:24.490	-19.95	16.555	-81.69	0.35258	0.554612	0.443592	-0.0585	-0.378	0.126	0	477	547	3
2026-02-12	15:58:24.510	6.65	7.875	-52.535	0.441884	0.355508	0.35014	-0.0375	-0.378	0.123	0	477	547	3
2026-02-12	15:58:24.530	54.705	-1.82	-23.625	0.504592	0.19886	0.297436	-0.0255	-0.384	0.123	0	477	547	3
2026-02-12	15:58:24.550	116.97	-6.23	-3.22	0.59536	0.118828	0.233264	-0.018	-0.3825	0.1365	0	477	547	3
2026-02-12	15:58:24.570	183.26	-2.73	18.375	0.604388	0.219356	0.136884	-0.024	-0.375	0.153	0	477	547	3
2026-02-12	15:58:24.590	196.49	-0.98	41.65	0.803736	0.433588	0.083204	-0.024	-0.375	0.153	0	477	547	3
2026-02-12	15:58:24.610	172.515	-5.11	36.96	1.054812	0.599996	-0.001708	-0.03	-0.3825	0.2055	0	474	572	3
2026-02-12	15:58:24.630	120.785	1.61	37.415	1.47742	0.481656	0.471652	-0.042	-0.3915	0.27	0	474	572	3
2026-02-12	15:58:24.650	33.81	16.24	45.43	1.364204	0.377468	0.48556	-0.048	-0.3945	0.285	0	474	572	3
2026-02-12	15:58:24.670	-4.76	29.435	6.895	2.129144	-0.128344	0.658556	-0.051	-0.399	0.291	0	474	572	3
2026-02-12	15:58:24.690	-0.84	29.365	-12.775	1.978352	-1.263432	0.098332	-0.051	-0.405	0.288	0	474	572	3
2026-02-12	15:58:24.710	42.84	1.295	-62.58	0.872056	0.054412	-0.365024	-0.0435	-0.4035	0.2865	0	474	572	3
2026-02-12	15:58:24.730	-42.875	-9.17	-36.295	0.40748	1.900272	0.608292	-0.042	-0.4005	0.2925	0	474	572	3
2026-02-12	15:58:24.750	-71.96	0.28	-18.13	-1.324676	1.79828	1.021384	-0.036	-0.4035	0.2865	0	474	572	3
2026-02-12	15:58:24.770	72.065	1.33	-11.445	-0.783972	1.65676	-0.0915	-0.03	-0.402	0.285	0	474	572	3
2026-02-12	15:58:24.790	13.475	9.17	20.125	0.431392	1.067744	0.048312	-0.0315	-0.4005	0.294	0	474	572	3
2026-02-12	15:58:24.810	-12.005	27.265	61.635	0.2623	0.9394	0.368928	-0.033	-0.4005	0.294	0	487	551	3
2026-02-12	15:58:24.830	6.79	33.11	86.065	0.409676	0.694912	0.59902	-0.0435	-0.3975	0.2895	0	487	551	3
2026-02-12	15:58:24.850	46.095	19.18	88.375	0.188124	1.098244	0.360388	-0.0525	-0.3945	0.288	0	487	551	3
2026-02-12	15:58:24.870	32.48	5.95	100.275	0.132004	1.185596	0.483364	-0.0645	-0.387	0.2895	0	487	551	3
2026-02-12	15:58:24.890	-10.815	-8.68	115.045	0.18666	1.023824	0.514108	-0.084	-0.381	0.2985	0	487	551	3
2026-02-12	15:58:24.910	-51.31	-22.925	123.375	0.316712	0.85888	0.422364	-0.1005	-0.375	0.303	0	487	551	3
2026-02-12	15:58:24.930	-65.975	-33.18	124.88	0.447252	1.007964	0.35502	-0.12	-0.3675	0.294	0	487	551	3
2026-02-12	15:58:24.950	-58.31	-41.545	116.83	0.549732	1.082628	0.350628	-0.135	-0.3585	0.2835	0	487	551	3
2026-02-12	15:58:24.970	-72.555	-35.735	111.79	0.477752	1.037488	0.426268	-0.147	-0.351	0.279	0	487	551	3
2026-02-12	15:58:24.990	-77.875	-26.355	101.57	0.346724	0.8113	0.452864	-0.165	-0.342	0.2745	0	487	551	3
2026-02-12	15:58:25.010	-61.915	-23.275	93.975	0.447008	0.59048	0.395524	-0.183	-0.3255	0.2685	0	511	509	3
2026-02-12	15:58:25.030	-49.245	-17.045	82.81	0.551684	0.780556	0.20252	-0.192	-0.315	0.2625	0	511	509	3
2026-02-12	15:58:25.050	-46.585	-14.28	64.295	0.691496	0.894992	0.171532	-0.195	-0.312	0.2625	0	511	509	3
2026-02-12	15:58:25.070	-42.385	-9.59	41.23	0.763964	0.826672	0.117852	-0.2025	-0.306	0.2595	0	511	509	3
2026-02-12	15:58:25.090	-45.71	-7.91	16.73	0.79178	0.52948	0.179828	-0.2145	-0.297	0.2535	0	511	509	3
2026-02-12	15:58:25.110	-57.645	-11.235	-3.22	0.729804	0.34038	0.23668	-0.219	-0.297	0.2475	0	511	509	3
2026-02-12	15:58:25.130	-50.33	-8.96	-17.15	0.67954	0.382348	0.216428	-0.216	-0.3	0.243	0	511	509	3
2026-02-12	15:58:25.150	-46.55	-5.81	-27.965	0.60878	0.538996	0.278648	-0.2115	-0.294	0.234	0	511	509	3
2026-02-12	15:58:25.170	-87.15	4.655	-32.69	0.49166	0.807152	0.451644	-0.213	-0.2925	0.2235	0	511	509	3
2026-02-12	15:58:25.190	-123.585	9.24	-33.985	0.296704	0.752008	0.744688	-0.207	-0.2925	0.21	0	511	509	3
2026-02-12	15:58:25.210	-112.875	17.92	-30.73	0.096868	0.830088	0.96136	-0.2025	-0.3075	0.1995	0	531	471	3
2026-02-12	15:58:25.230	-86.695	25.305	-32.235	-0.066368	0.86864	1.073112	-0.192	-0.288	0.1845	0	531	471	3
2026-02-12	15:58:25.250	-48.93	29.225	-39.025	-0.223748	0.936228	1.2078	-0.189	-0.2895	0.177	0	531	471	3
2026-02-12	15:58:25.270	-25.13	34.58	-45.29	-0.25498	1.086288	1.24806	-0.1875	-0.3015	0.177	0	531	471	3
2026-02-12	15:58:25.290	-19.075	36.96	-55.23	-0.294996	0.988932	1.241228	-0.1785	-0.2955	0.171	0	531	471	3
2026-02-12	15:58:25.310	-15.96	40.32	-63.98	-0.316712	0.976244	1.1529	-0.1665	-0.3075	0.1665	0	531	471	3
2026-02-12	15:58:25.330	-20.23	43.085	-72.52	-0.25132	1.018944	1.093852	-0.147	-0.3195	0.147	0	531	471	3
2026-02-12	15:58:25.350	-28.245	44.975	-81.935	-0.189588	1.063596	1.08458	-0.1515	-0.3285	0.144	0	531	471	3
2026-02-12	15:58:25.370	-29.4	46.83	-93.065	-0.113948	1.020652	1.020652	-0.1245	-0.327	0.1305	0	531	471	3
2026-02-12	15:58:25.390	-17.01	46.935	-106.61	-0.102236	0.917196	0.807884	-0.108	-0.3255	0.1215	0	531	471	3
2026-02-12	15:58:25.410	-16.765	40.46	-109.62	-0.084668	0.902312	0.6954	-0.087	-0.3255	0.1095	0	546	501	3
2026-02-12	15:58:25.430	-29.75	30.59	-104.965	-0.025132	0.970144	0.751032	-0.057	-0.348	0.1095	0	546	501	3
2026-02-12	15:58:25.450	-30.695	21.21	-96.39	0.085156	1.035048	0.864492	-0.039	-0.345	0.0975	0	546	501	3
2026-02-12	15:58:25.470	-11.515	13.09	-88.9	0.142008	1.008452	0.835944	-0.012	-0.3375	0.0915	0	546	501	3
2026-02-12	15:58:25.490	5.215	2.24	-81.55	0.177876	0.98454	0.68686	0.0015	-0.342	0.078	0	546	501	3
2026-02-12	15:58:25.510	0.525	-1.855	-74.13	0.241316	0.923052	0.634888	0	-0.3375	0.084	0	546	501	3
2026-02-12	15:58:25.530	-11.585	-8.015	-60.865	0.283284	0.731268	0.64294	0.027	-0.3375	0.0795	0	546	501	3
2026-02-12	15:58:25.550	-8.085	-11.795	-45.185	0.415288	0.624396	0.67222	0.0315	-0.336	0.081	0	546	501	3
2026-02-12	15:58:25.570	1.54	-10.605	-22.68	0.498248	0.480192	0.707356	0.0435	-0.336	0.0765	0	546	501	3
2026-02-12	15:58:25.590	34.16	-8.505	-1.82	0.535824	0.344284	0.662948	0.0495	-0.333	0.072	0	546	501	3
2026-02-12	15:58:25.610	90.195	2.135	11.795	0.570716	0.395524	0.53802	0.0495	-0.33	0.0705	0	554	571	3
2026-02-12	15:58:25.630	133.84	8.575	22.575	0.566324	0.473604	0.48678	0.0405	-0.3255	0.0735	0	554	571	3
2026-02-12	15:58:25.650	168.035	14.21	31.535	0.633668	0.419436	0.34648	0.0375	-0.336	0.093	0	554	571	3
2026-02-12	15:58:25.670	205.625	18.935	38.08	0.70394	0.379176	0.245464	0.0375	-0.336	0.093	0	554	571	3
2026-02-12	15:58:25.690	208.32	24.745	47.775	0.887184	0.5612	0.241072	0.0195	-0.3405	0.123	0	554	571	3
2026-02-12	15:58:25.710	173.215	27.825	45.85	1.05896	0.609268	0.272548	0.0015	-0.3495	0.1635	0	554	571	3
2026-02-12	15:58:25.730	144.165	34.65	27.86	1.124352	0.5612	0.30622	-0.003	-0.351	0.18	0	554	571	3
2026-02-12	15:58:25.750	129.535	30.275	18.2	1.191696	0.040748	0.178608	-0.009	-0.351	0.1965	0	554	571	3
2026-02-12	15:58:25.770	168.105	40.6	21.28	1.341756	-0.124684	0.248636	-0.0135	-0.3555	0.216	0	554	571	3
2026-02-12	15:58:25.790	78.225	36.155	-3.57	1.183888	0.032696	-0.238876	-0.0195	-0.3585	0.234	0	554	571	3
2026-02-12	15:58:23.810	-20.44	0.805	102.865	0.383324	0.827404	0.556564	-0.1275	-0.3525	0.2145	0	464	539	3
2026-02-12	15:58:23.830	-16.765	2.94	98	0.274256	0.721264	0.467748	-0.138	-0.3435	0.21	0	464	539	3
2026-02-12	15:58:23.850	-22.68	0.175	93.52	0.377712	0.670024	0.443592	-0.1575	-0.3345	0.2055	0	464	539	3
2026-02-12	15:58:23.870	-13.65	-0.35	88.865	0.500932	0.74176	0.475556	-0.171	-0.3255	0.2085	0	464	539	3
2026-02-12	15:58:23.890	1.33	6.475	77.525	0.454328	0.692228	0.458476	-0.18	-0.318	0.2085	0	464	539	3
2026-02-12	15:58:23.910	0.28	3.395	63.105	0.516304	0.580232	0.523868	-0.189	-0.312	0.207	0	464	539	3
2026-02-12	15:58:23.930	-1.085	1.085	47.11	0.462624	0.588528	0.57584	-0.1965	-0.3045	0.204	0	464	539	3
2026-02-12	15:58:23.950	6.755	-0.35	41.545	0.50874	0.679784	0.567056	-0.204	-0.2985	0.2055	0	464	539	3
2026-02-12	15:58:23.970	9.94	3.71	30.31	0.51972	0.673928	0.46726	-0.207	-0.2955	0.207	0	464	539	3
2026-02-12	15:58:23.990	6.86	6.16	25.235	0.549488	0.648552	0.459208	-0.207	-0.2925	0.2055	0	464	539	3
2026-02-12	15:58:26.010	-12.565	29.05	82.53	0.204716	1.091656	0.414556	-0.009	-0.36	0.231	0	563	551	3
2026-02-12	15:58:26.030	-9.31	17.64	95.9	0.16592	1.026996	0.449448	-0.024	-0.3585	0.2325	0	563	551	3
2026-02-12	15:58:26.050	-11.69	0.035	103.075	0.192516	0.968436	0.471408	-0.033	-0.354	0.2265	0	563	551	3
2026-02-12	15:58:26.070	-28.245	-16.1	107.52	0.252052	0.996496	0.432856	-0.045	-0.3465	0.225	0	563	551	3
2026-02-12	15:58:26.090	-43.54	-23.695	108.535	0.305244	1.0126	0.317688	-0.0555	-0.3405	0.2265	0	563	551	3
2026-02-12	15:58:26.110	-54.705	-28.77	108.36	0.443836	1.024556	0.260836	-0.075	-0.33	0.2235	0	563	551	3
2026-02-12	15:58:26.130	-54.705	-25.76	103.985	0.468236	0.999912	0.156648	-0.0975	-0.3195	0.216	0	563	551	3
2026-02-12	15:58:26.150	-45.92	-20.58	96.285	0.47458	0.748348	0.2562	-0.1065	-0.3075	0.2115	0	563	551	3
2026-02-12	15:58:26.170	-38.115	-14.77	87.57	0.52216	0.817888	0.190076	-0.117	-0.3015	0.213	0	563	551	3
2026-02-12	15:58:26.190	-47.6	-12.565	71.96	0.670024	0.774456	0.357704	-0.1335	-0.297	0.204	0	563	551	3
2026-02-12	15:58:26.210	-32.48	-6.475	53.445	0.55876	0.680272	0.340868	-0.141	-0.2925	0.198	0	564	490	1
2026-02-12	15:58:26.230	-27.93	-8.155	41.545	0.70882	0.767136	0.294264	-0.1605	-0.2805	0.2055	0	564	490	1
2026-02-12	15:58:26.250	-28.77	-0.77	27.475	0.617564	0.769088	0.262056	-0.1575	-0.282	0.1905	0	564	490	1
2026-02-12	15:58:26.270	-29.925	-2.065	11.655	0.568764	0.75396	0.226676	-0.1725	-0.279	0.1845	0	564	490	1
2026-02-12	15:58:26.290	-41.125	-6.405	1.26	0.502884	0.68686	0.28548	-0.1635	-0.2745	0.186	0	564	490	1
2026-02-12	15:58:26.310	-53.865	-5.53	-7.21	0.465552	0.72224	0.397964	-0.1605	-0.279	0.189	0	564	490	1
2026-02-12	15:58:26.330	-70.665	0.805	-14.98	0.437492	0.835456	0.484828	-0.165	-0.2655	0.177	0	564	490	1
2026-02-12	15:58:26.350	-78.435	6.685	-26.985	0.280112	0.864736	0.624396	-0.159	-0.2595	0.18	0	564	490	1
2026-02-12	15:58:26.370	-71.575	8.295	-38.745	0.12932	0.828624	0.626348	-0.156	-0.2625	0.177	0	564	490	1
2026-02-12	15:58:26.390	-66.535	10.535	-48.44	0.016104	0.980392	0.755424	-0.1545	-0.2685	0.162	0	564	490	1
2026-02-12	15:58:26.410	-76.755	18.515	-61.705	-0.100528	1.225856	0.904264	-0.144	-0.2625	0.156	0	556	449	3
2026-02-12	15:58:26.430	-83.335	24.57	-77.875	-0.262788	1.1956	0.962092	-0.1425	-0.267	0.147	0	556	449	3
2026-02-12	15:58:26.450	-66.325	28.07	-90.825	-0.387716	1.09556	1.059204	-0.129	-0.279	0.1365	0	556	449	3
2026-02-12	15:58:26.470	-35.245	41.055	-105.42	-0.40504	1.141676	1.06262	-0.126	-0.2775	0.1155	0	556	449	3
2026-02-12	15:58:26.490	-25.095	47.46	-116.375	-0.41602	1.153632	1.007476	-0.114	-0.2835	0.1095	0	556	449	3
2026-02-12	15:58:26.510	-24.885	48.895	-127.715	-0.331596	1.215852	0.935252	-0.093	-0.276	0.108	0	556	449	3
2026-02-12	15:58:26.530	-26.81	46.445	-140.07	-0.301584	1.198528	0.878888	-0.081	-0.2805	0.099	0	556	449	3
2026-02-12	15:58:26.550	-26.915	41.195	-149.625	-0.248392	1.168272	0.857904	-0.066	-0.288	0.09	0	556	449	3
2026-02-12	15:58:26.570	-22.645	36.715	-152.53	-0.211548	1.040904	0.789584	-0.042	-0.294	0.087	0	556	449	3
2026-02-12	15:58:26.590	-17.745	32.13	-145.95	-0.166408	0.959896	0.671732	-0.018	-0.3	0.0825	0	556	449	3
2026-02-12	15:58:26.610	-21.455	23.625	-128.1	-0.083936	0.941596	0.618296	-0.018	-0.2955	0.0735	0	544	476	3
2026-02-12	15:58:26.630	-26.53	12.985	-107.03	0.009028	0.94672	0.593408	-0.006	-0.294	0.0735	0	544	476	3
2026-02-12	15:58:26.650	-37.1	3.36	-79.835	0.062952	0.887428	0.608292	0.015	-0.3105	0.0705	0	544	476	3
2026-02-12	15:58:26.670	-41.16	-9.94	-57.225	0.148352	0.786168	0.591944	0.009	-0.312	0.06	0	544	476	3
2026-02-12	15:58:26.690	-36.47	-17.815	-35.595	0.265716	0.70272	0.566324	0.018	-0.303	0.051	0	544	476	3
2026-02-12	15:58:26.710	-26.95	-22.82	-15.645	0.375028	0.619272	0.501908	0.0225	-0.3015	0.045	0	544	476	3
2026-02-12	15:58:26.730	-17.15	-30.765	4.34	0.477264	0.56486	0.441396	0.009	-0.306	0.051	0	544	476	3
2026-02-12	15:58:26.750	-8.68	-38.43	21.735	0.567544	0.453108	0.354288	0.009	-0.306	0.051	0	544	476	3
2026-02-12	15:58:26.770	13.72	-43.155	31.71	0.510692	0.4026	0.28548	0.0045	-0.3045	0.0495	0	544	476	3
2026-02-12	15:58:26.790	48.965	-51.31	41.51	0.639036	0.226676	0.26352	-0.0045	-0.3015	0.0525	0	544	476	3
2026-02-12	15:58:26.810	104.615	-54.355	49.56	0.631228	0.23912	0.201544	-0.018	-0.2985	0.0585	0	533	522	3
2026-02-12	15:58:26.830	155.785	-51.73	48.09	0.689788	0.432124	0.11712	-0.0345	-0.306	0.0675	0	533	522	3
2026-02-12	15:58:26.850	191.87	-45.675	46.935	0.903776	0.543388	0.305244	-0.048	-0.3135	0.0885	0	533	522	3
2026-02-12	15:58:26.870	141.225	-21.455	69.02	1.171688	0.751764	0.759816	-0.06	-0.3195	0.1185	0	533	522	3
2026-02-12	15:58:26.890	110.25	-3.325	60.48	1.25538	0.580476	0.592676	-0.0705	-0.33	0.138	0	533	522	3
2026-02-12	15:58:26.910	110.985	14.63	35.35	1.345172	-0.032208	0.262544	-0.0795	-0.3345	0.1455	0	533	522	3
2026-02-12	15:58:26.930	156.66	21.77	-0.21	1.124596	-0.088816	0.036356	-0.0855	-0.3375	0.165	0	533	522	3
2026-02-12	15:58:26.950	94.22	22.26	-20.16	0.863516	0.532408	0.25254	-0.0825	-0.3405	0.189	0	533	522	3
2026-02-12	15:58:26.970	-39.2	27.545	-37.38	0.17324	0.97234	0.699304	-0.0765	-0.342	0.195	0	533	522	3
2026-02-12	15:58:26.990	-52.57	16.135	-53.41	-0.2623	1.304424	0.5673	-0.0735	-0.3435	0.1875	0	533	522	3
2026-02-12	15:58:27.010	47.075	16.73	-36.33	-0.4148	1.209508	0.289872	-0.069	-0.345	0.186	0	527	529	3
2026-02-12	15:58:27.030	-2.695	1.75	-23.17	0.214232	1.026508	0.304024	-0.066	-0.3435	0.192	0	527	529	3
2026-02-12	15:58:27.050	-41.055	1.505	-0.21	0.217892	0.940864	0.449204	-0.066	-0.3435	0.1905	0	527	529	3
2026-02-12	15:58:27.070	-13.58	5.67	1.4	0.19398	0.876692	0.352092	-0.063	-0.348	0.186	0	527	529	3
2026-02-12	15:58:27.090	-1.68	11.095	4.305	0.269864	0.761768	0.354044	-0.06	-0.351	0.1845	0	527	529	3
2026-02-12	15:58:27.110	-10.815	11.83	10.64	0.254004	0.781044	0.365268	-0.0555	-0.3465	0.183	0	527	529	3
2026-02-12	15:58:27.130	-6.895	14.28	16.45	0.042456	1.064572	0.445788	-0.054	-0.3525	0.1785	0	527	529	3
2026-02-12	15:58:27.150	-9.625	12.915	28	-0.000732	1.087996	0.449936	-0.0585	-0.354	0.18	0	527	529	3
2026-02-12	15:58:27.170	-13.895	10.43	47.495	0.150548	0.940132	0.381128	-0.063	-0.345	0.1815	0	527	529	3
2026-02-12	15:58:27.190	-22.715	5.495	68.565	0.243268	0.924028	0.4697	-0.0675	-0.3435	0.177	0	527	529	3
2026-02-12	15:58:27.210	-28.525	2.205	88.06	0.186904	0.948672	0.490196	-0.078	-0.3405	0.171	0	526	508	3
2026-02-12	15:58:27.230	-25.13	2.73	110.74	0.1769	0.969412	0.46482	-0.0855	-0.333	0.168	0	526	508	3
2026-02-12	15:58:27.250	-33.845	3.01	128.765	0.162016	1.021628	0.405284	-0.1005	-0.324	0.1665	0	526	508	3
2026-02-12	15:58:27.270	-62.58	-4.62	147.14	0.327692	0.875716	0.525332	-0.123	-0.3105	0.165	0	526	508	3
2026-02-12	15:58:27.290	-80.36	-11.76	154.525	0.361364	0.640256	0.685884	-0.1335	-0.3015	0.165	0	526	508	3
2026-02-12	15:58:27.310	-72.345	-17.64	156.135	0.446764	0.731024	0.50508	-0.15	-0.273	0.15	0	526	508	3
2026-02-12	15:58:27.330	-55.3	-19.95	145.74	0.468236	0.987468	0.488	-0.174	-0.255	0.135	0	526	508	3
2026-02-12	15:58:27.350	-57.155	-22.785	139.195	0.44042	0.780068	0.316956	-0.183	-0.237	0.138	0	526	508	3
2026-02-12	15:58:27.370	-35.7	-28.035	140.42	0.727608	0.756888	0.194712	-0.2025	-0.2235	0.1425	0	526	508	3
2026-02-12	15:58:27.390	-31.36	-18.025	144.305	0.788608	0.528992	0.530212	-0.21	-0.1995	0.1305	0	526	508	3
2026-02-12	15:58:27.410	-2.17	-2.59	134.015	0.612684	0.616588	0.587552	-0.2295	-0.189	0.1395	0	521	488	3
2026-02-12	15:58:27.430	26.11	10.045	120.505	0.58072	0.616588	0.564128	-0.2415	-0.171	0.141	0	521	488	3
2026-02-12	15:58:27.450	42.805	20.58	112.35	0.474092	0.663192	0.427	-0.243	-0.1545	0.1425	0	521	488	3
2026-02-12	15:58:27.470	47.635	20.44	106.05	0.402844	0.55388	0.435784	-0.2595	-0.144	0.147	0	521	488	3
2026-02-12	15:58:27.490	54.145	19.775	106.12	0.372588	0.485072	0.518744	-0.261	-0.1335	0.1485	0	521	488	3
2026-02-12	15:58:27.510	51.485	18.165	105.49	0.351116	0.461404	0.56364	-0.2625	-0.126	0.15	0	521	488	3
2026-02-12	15:58:27.530	36.995	16.03	103.18	0.45262	0.43676	0.598288	-0.273	-0.1065	0.15	0	521	488	3
2026-02-12	15:58:27.550	4.795	11.235	108.01	0.671	0.424804	0.624396	-0.2685	-0.099	0.1485	0	521	488	3
2026-02-12	15:58:27.570	1.96	10.605	109.13	0.748836	0.365268	0.637328	-0.2685	-0.099	0.1485	0	521	488	3
2026-02-12	15:58:27.590	6.86	9.52	103.88	0.87108	0.396256	0.621468	-0.279	-0.078	0.1575	0	521	488	3
2026-02-12	15:58:27.610	6.475	10.955	100.59	0.920612	0.2989	0.60634	-0.2775	-0.0585	0.1485	0	511	483	3
2026-02-12	15:58:27.630	3.85	9.59	98.56	0.861564	0.348432	0.48434	-0.288	-0.048	0.153	0	511	483	3
2026-02-12	15:58:27.650	13.405	10.85	96.215	0.819108	0.350872	0.517768	-0.279	-0.03	0.1545	0	511	483	3
2026-02-12	15:58:27.670	24.395	11.83	92.435	0.801052	0.381372	0.483364	-0.2895	-0.015	0.1515	0	511	483	3
2026-02-12	15:58:27.690	37.66	20.965	92.085	0.716628	0.355752	0.475068	-0.2895	-0.0015	0.153	0	511	483	3
2026-02-12	15:58:27.710	54.81	28.945	91.56	0.728828	0.246196	0.487756	-0.2895	0	0.153	0	511	483	3
2026-02-12	15:58:27.730	72.38	40.075	94.85	0.756156	0.308904	0.503372	-0.2865	0.003	0.156	0	511	483	3
2026-02-12	15:58:27.750	79.975	52.325	97.37	0.81374	0.345748	0.427	-0.288	0.021	0.1515	0	511	483	3
2026-02-12	15:58:27.770	82.215	61.775	102.305	0.854732	0.435296	0.370392	-0.279	0.0315	0.141	0	511	483	3
2026-02-12	15:58:27.790	101.955	71.015	107.485	0.91378	0.351116	0.552904	-0.282	0.036	0.144	0	511	483	3
2026-02-12	15:58:27.810	123.97	79.24	112.77	0.897432	0.42578	0.551684	-0.279	0.0405	0.1245	0	497	492	3
2026-02-12	15:58:27.830	97.265	81.62	122.885	0.90646	0.45994	0.683688	-0.2715	0.0525	0.12	0	497	492	3
2026-02-12	15:58:27.850	57.82	80.78	134.4	0.93574	0.482144	0.66002	-0.264	0.069	0.108	0	497	492	3
2026-02-12	15:58:27.870	22.995	71.68	144.025	1.025776	0.519476	0.614636	-0.2595	0.0825	0.0945	0	497	492	3
2026-02-12	15:58:27.890	-4.375	60.655	150.22	1.117276	0.503616	0.78446	-0.249	0.099	0.09	0	497	492	3
2026-02-12	15:58:27.910	-44.17	55.825	151.305	1.193648	0.426756	0.572424	-0.24	0.1155	0.084	0	497	492	3
2026-02-12	15:58:27.930	-71.33	37.975	148.505	1.344928	0.527772	0.234972	-0.234	0.1365	0.0825	0	497	492	3
2026-02-12	15:58:27.950	-108.64	11.76	138.285	1.343464	0.58682	0.39894	-0.2205	0.162	0.09	0	497	492	3
2026-02-12	15:58:27.970	-153.125	-1.085	106.54	1.278316	0.671732	0.224236	-0.2085	0.186	0.0945	0	497	492	3
2026-02-12	15:58:27.990	-161.525	-2.03	69.825	1.037	0.495808	0.143716	-0.201	0.2055	0.1065	0	497	492	3
2026-02-12	15:58:28.010	-167.65	-27.405	7	0.800564	0.299388	-0.263276	-0.198	0.2145	0.1185	0	483	494	3
2026-02-12	15:58:28.030	-171.115	-54.88	-34.93	0.839848	0.31354	-0.13786	-0.198	0.2325	0.129	0	483	494	3
2026-02-12	15:58:28.050	-155.61	-94.535	-83.405	0.708332	0.318176	-0.22204	-0.2085	0.252	0.1575	0	483	494	3
2026-02-12	15:58:28.070	-229.355	-130.83	-138.81	0.779824	0.722972	-0.295972	-0.225	0.2535	0.1905	0	483	494	3
2026-02-12	15:58:28.090	-303.94	-145.635	-211.05	1.14192	0.679784	-0.308416	-0.231	0.255	0.2085	0	483	494	3
2026-02-12	15:58:28.110	-315.455	-143.29	-245.525	1.406172	0.544608	-0.240584	-0.2685	0.2175	0.279	0	483	494	3
2026-02-12	15:58:28.130	-303.415	-131.74	-269.57	1.574532	0.299388	-0.165188	-0.276	0.1905	0.318	0	483	494	3
2026-02-12	15:58:28.150	-269.64	-114.45	-285.355	1.681404	0.261812	-0.111996	-0.285	0.1665	0.333	0	483	494	3
2026-02-12	15:58:28.170	-237.055	-94.045	-291.41	1.62138	0.187148	-0.046116	-0.3015	0.1245	0.3585	0	483	494	3
2026-02-12	15:58:28.190	-194.6	-78.47	-290.465	1.608936	0.197884	-0.00854	-0.312	0.0765	0.372	0	483	494	3
2026-02-12	15:58:28.210	-146.58	-64.4	-285.285	1.515972	0.178608	0.028548	-0.3165	0.0225	0.3795	0	474	435	3
2026-02-12	15:58:28.230	-100.87	-54.005	-270.655	1.402268	0.23302	0.049532	-0.309	-0.0225	0.3825	0	474	435	3
2026-02-12	15:58:28.250	-61.74	-53.06	-259.07	1.427888	0.379664	0.054168	-0.3015	-0.066	0.384	0	474	435	3
2026-02-12	15:58:28.270	-42.77	-48.16	-248.465	1.375672	0.416264	0.055632	-0.291	-0.108	0.39	0	474	435	3
2026-02-12	15:58:28.290	-37.24	-45.255	-244.86	1.38348	0.405284	0.035868	-0.2805	-0.141	0.393	0	474	435	3
2026-02-12	15:58:28.310	-45.43	-41.86	-232.68	1.329068	0.416508	-0.015616	-0.2625	-0.1725	0.393	0	474	435	3
2026-02-12	15:58:28.330	-67.2	-39.48	-220.325	1.302716	0.398452	-0.05368	-0.2415	-0.2055	0.396	0	474	435	3
2026-02-12	15:58:28.350	-95.375	-33.6	-207.55	1.234152	0.363316	-0.08686399	-0.2355	-0.222	0.3975	0	474	435	3
2026-02-12	15:58:28.370	-117.88	-26.04	-192.885	1.205604	0.304756	-0.073444	-0.2355	-0.222	0.3975	0	474	435	3
2026-02-12	15:58:28.390	-121.59	-18.095	-182.28	1.14314	0.278404	-0.06954	-0.165	-0.2925	0.3645	0	474	435	3
2026-02-12	15:58:28.410	-115.22	-10.92	-169.925	1.059692	0.23912	-0.072956	-0.141	-0.306	0.348	0	470	333	3
2026-02-12	15:58:28.430	-99.19	-5.74	-159.74	0.977708	0.2196	-0.073932	-0.117	-0.3255	0.3375	0	470	333	3
2026-02-12	15:58:28.450	-80.605	-4.725	-143.99	0.9333	0.213744	-0.073444	-0.09	-0.339	0.3195	0	470	333	3
2026-02-12	15:58:28.470	-61.6	-4.9	-129.36	0.879376	0.194956	-0.068564	-0.0765	-0.351	0.303	0	470	333	3
2026-02-12	15:58:28.490	-41.965	-6.93	-116.655	0.850828	0.20984	-0.072712	-0.0585	-0.3585	0.303	0	470	333	3
2026-02-12	15:58:28.510	-29.645	-8.855	-100.065	0.782264	0.212036	-0.082228	-0.0435	-0.36	0.2985	0	470	333	3
2026-02-12	15:58:28.530	-25.97	-13.685	-81.235	0.7564	0.199592	-0.08784	-0.027	-0.3645	0.2955	0	470	333	3
2026-02-12	15:58:28.550	-26.11	-19.04	-59.71	0.7564	0.209596	-0.077592	-0.0165	-0.3735	0.2925	0	470	333	3
2026-02-12	15:58:28.570	-27.475	-23.52	-33.425	0.773724	0.203252	-0.06832	-0.0135	-0.369	0.2895	0	470	333	3
2026-02-12	15:58:28.590	-26.215	-29.365	-0.49	0.889624	0.194956	-0.078568	-0.006	-0.372	0.2865	0	470	333	3
2026-02-12	15:58:28.610	-18.69	-35.525	39.2	1.009916	0.191296	-0.112728	-0.0045	-0.3705	0.276	0	465	229	2
2026-02-12	15:58:28.630	11.515	-39.305	97.16	0.901824	0.273768	-0.080276	-0.015	-0.378	0.282	0	465	229	2
2026-02-12	15:58:28.650	28.21	-44.765	130.2	0.748836	0.369172	0.060268	-0.027	-0.3675	0.288	0	465	229	2
2026-02-12	15:58:28.670	22.995	-51.87	152.74	0.686372	0.432856	0.251564	-0.045	-0.357	0.2925	0	465	229	2
2026-02-12	15:58:28.690	7	-51.52	165.305	0.59658	0.433588	0.389668	-0.0525	-0.357	0.291	0	465	229	2
2026-02-12	15:58:28.710	-16.765	-52.885	171.22	0.654408	0.40748	0.426512	-0.087	-0.3525	0.2985	0	465	229	2
2026-02-12	15:58:28.730	-39.725	-52.71	179.165	0.769332	0.31232	0.388936	-0.108	-0.3435	0.3075	0	465	229	2
2026-02-12	15:58:28.750	-52.045	-56.035	180.53	0.932568	0.253028	0.337452	-0.129	-0.33	0.3045	0	465	229	2
2026-02-12	15:58:28.770	-55.965	-60.515	188.685	1.14436	0.211304	0.303536	-0.1515	-0.306	0.306	0	465	229	2
2026-02-12	15:58:28.790	-49.665	-64.575	193.795	1.319552	0.227164	0.293288	-0.174	-0.3	0.309	0	465	229	2
2026-02-12	15:58:28.810	-38.85	-62.86	197.785	1.443748	0.213744	0.332816	-0.201	-0.279	0.309	0	457	169	3
2026-02-12	15:58:28.830	-19.075	-56.84	200.34	1.476688	0.255468	0.414556	-0.2205	-0.267	0.3045	0	457	169	3
2026-02-12	15:58:28.850	5.495	-38.745	194.95	1.56404	0.30744	0.543388	-0.24	-0.2325	0.321	0	457	169	3
2026-02-12	15:58:28.870	44.87	-9.555	196.91	1.27978	0.207644	0.582184	-0.2475	-0.2235	0.3195	0	457	169	3
2026-02-12	15:58:28.890	80.64	-4.515	184.59	1.180716	0.3416	0.58438	-0.2745	-0.186	0.3315	0	457	169	3
2026-02-12	15:58:28.910	98.7	-9.03	172.55	0.811544	0.476776	0.5124	-0.285	-0.1635	0.342	0	457	169	3
2026-02-12	15:58:28.930	74.795	-54.145	148.19	1.528416	0.47336	0.489708	-0.3015	-0.1275	0.354	0	457	169	3
2026-02-12	15:58:28.950	69.51	-9.625	132.195	0.965264	0.498248	0.495808	-0.309	-0.1005	0.363	0	457	169	3
2026-02-12	15:58:28.970	44.38	-8.365	116.795	1.065304	0.427976	0.441884	-0.3135	-0.081	0.372	0	457	169	3
2026-02-12	15:58:28.990	39.69	3.605	105.175	1.037	0.484096	0.418216	-0.3165	-0.063	0.3735	0	457	169	3
2026-02-12	15:58:29.010	31.815	10.57	92.33	1.020164	0.514596	0.383324	-0.3225	-0.045	0.3765	0	448	182	3
2026-02-12	15:58:29.030	22.295	16.905	78.085	0.978928	0.489708	0.358436	-0.3285	-0.0285	0.3765	0	448	182	3
2026-02-12	15:58:29.050	17.43	20.825	64.295	0.95404	0.441152	0.33916	-0.33	-0.015	0.375	0	448	182	3
2026-02-12	15:58:29.070	19.67	23.625	52.15	0.91256	0.466284	0.329644	-0.327	-0.009	0.3735	0	448	182	3
2026-02-12	15:58:29.090	22.575	23.835	40.145	0.88938	0.449936	0.313052	-0.327	-0.003	0.3675	0	448	182	3
2026-02-12	15:58:29.110	23.31	24.85	28.665	0.854732	0.455792	0.293288	-0.3285	0	0.3645	0	448	182	3
2026-02-12	15:58:29.130	23.555	23.975	17.64	0.855952	0.463112	0.263764	-0.327	0.006	0.363	0	448	182	3
2026-02-12	15:58:29.150	20.545	22.575	8.26	0.898652	0.49288	0.226432	-0.33	0.0135	0.36	0	448	182	3
2026-02-12	15:58:29.170	9.24	20.3	-5.705	0.990396	0.52948	0.153964	-0.3345	0.012	0.36	0	448	182	3
2026-02-12	15:58:29.190	1.61	17.01	-16.765	1.06384	0.537288	0.102968	-0.3315	0.0165	0.363	0	448	182	3
2026-02-12	15:58:29.210	-8.715	9.135	-29.785	1.205604	0.516304	0.096624	-0.3315	0.0165	0.3585	0	436	224	3
2026-02-12	15:58:29.230	-28.175	0.07	-43.085	1.40422	0.518988	0.158356	-0.3315	0.0075	0.3525	0	436	224	3
2026-02-12	15:58:29.250	-48.09	-4.13	-55.72	1.511824	0.540704	0.222772	-0.3315	0.0045	0.354	0	436	224	3
2026-02-12	15:58:29.270	-64.12	-3.36	-69.265	1.401048	0.539484	0.237656	-0.3315	0	0.354	0	436	224	3
2026-02-12	15:58:29.290	-81.83	-4.9	-83.37	1.255136	0.55144	0.205448	-0.3285	-0.006	0.3555	0	436	224	3
2026-02-12	15:58:29.310	-95.9	-7	-98.77	1.122644	0.540948	0.144448	-0.33	-0.024	0.3525	0	436	224	3
2026-02-12	15:58:29.330	-98.49	-7.63	-116.725	1.01382	0.458964	0.0976	-0.33	-0.042	0.348	0	436	224	3
2026-02-12	15:58:29.350	-93.205	-11.165	-137.445	1.083604	0.431636	0.060512	-0.324	-0.054	0.348	0	436	224	3
2026-02-12	15:58:29.370	-85.225	-11.13	-159.355	1.17608	0.3843	0.002928	-0.315	-0.0705	0.3465	0	436	224	3
2026-02-12	15:58:29.390	-77.945	-11.97	-176.505	1.28222	0.380152	-0.032452	-0.3105	-0.09	0.339	0	436	224	3
2026-02-12	15:58:29.410	-75.32	-14	-190.505	1.349076	0.38064	-0.043432	-0.306	-0.117	0.333	0	422	240	3
2026-02-12	15:58:29.430	-76.125	-13.44	-200.41	1.392508	0.351848	-0.035868	-0.3	-0.135	0.3375	0	422	240	3
2026-02-12	15:58:29.450	-73.57	-14.07	-207.445	1.388604	0.346236	-0.021228	-0.3	-0.135	0.3375	0	422	240	3
2026-02-12	15:58:29.470	-68.355	-14.665	-205.905	1.3908	0.341356	0	-0.2535	-0.204	0.318	0	422	240	3
2026-02-12	15:58:29.490	-61.915	-13.09	-201.95	1.343708	0.372344	-0.001464	-0.2415	-0.2325	0.312	0	422	240	3
2026-02-12	15:58:29.510	-55.44	-10.955	-197.855	1.236592	0.35014	-0.012688	-0.222	-0.2565	0.3075	0	422	240	3
2026-02-12	15:58:29.530	-47.705	-11.69	-191.905	1.138992	0.36234	-0.027572	-0.204	-0.2625	0.2985	0	422	240	3
2026-02-12	15:58:29.550	-47.285	-13.23	-185.01	1.048956	0.349652	-0.035868	-0.177	-0.2895	0.294	0	422	240	3
2026-02-12	15:58:29.570	-49.875	-15.575	-178.01	0.999424	0.327936	-0.03904	-0.1605	-0.294	0.2925	0	422	240	3
2026-02-12	15:58:29.590	-52.745	-16.24	-170.31	0.954772	0.317444	-0.05002	-0.135	-0.3135	0.282	0	422	240	3
2026-02-12	15:58:29.610	-58.24	-16.345	-161.525	0.9028	0.293288	-0.049532	-0.1065	-0.3255	0.282	0	405	213	3
2026-02-12	15:58:29.630	-63.35	-15.33	-149.275	0.865224	0.291824	-0.046116	-0.102	-0.342	0.279	0	405	213	3
2026-02-12	15:58:29.650	-63.49	-15.085	-139.44	0.854244	0.250344	-0.038796	-0.078	-0.3495	0.2715	0	405	213	3
2026-02-12	15:58:29.670	-55.545	-14.105	-131.075	0.842776	0.284504	-0.036844	-0.057	-0.3555	0.258	0	405	213	3
2026-02-12	15:58:29.690	-51.205	-12.74	-119.21	0.805932	0.255224	-0.0244	-0.036	-0.354	0.264	0	405	213	3
2026-02-12	15:58:29.710	-43.085	-14.245	-97.51	0.768356	0.24644	-0.002928	-0.036	-0.354	0.264	0	405	213	3
2026-02-12	15:58:29.730	-37.03	-15.715	-82.81	0.752496	0.243756	0.00976	-0.015	-0.363	0.2535	0	405	213	3
2026-02-12	15:58:29.750	-31.5	-19.075	-66.185	0.747616	0.239852	0.012444	0.012	-0.3735	0.237	0	405	213	3
2026-02-12	15:58:29.770	-25.55	-24.255	-47.88	0.750544	0.236436	0.01342	0.018	-0.372	0.2265	0	405	213	3
2026-02-12	15:58:29.790	-20.825	-29.68	-27.615	0.763232	0.242048	0.032452	0.0225	-0.3735	0.2235	0	405	213	3
2026-02-12	15:58:29.810	-19.53	-35.665	-3.99	0.81862	0.223748	0.07124799	0.0285	-0.3765	0.225	0	387	164	2
2026-02-12	15:58:29.830	-18.69	-41.72	25.935	0.95282	0.21716	0.1037	0.021	-0.3795	0.2205	0	387	164	2
2026-02-12	15:58:29.850	-15.33	-46.97	63.175	1.051396	0.239608	0.126392	0.024	-0.369	0.2295	0	387	164	2
2026-02-12	15:58:29.870	-6.51	-49.105	101.325	1.011868	0.304512	0.186416	0.012	-0.3705	0.2265	0	387	164	2
2026-02-12	15:58:29.890	0.56	-49.7	134.575	0.892552	0.371368	0.310368	-0.0075	-0.363	0.2175	0	387	164	2
2026-02-12	15:58:29.910	4.9	-46.27	162.82	0.7503	0.3965	0.447496	-0.021	-0.3615	0.2205	0	387	164	2
2026-02-12	15:58:29.930	6.895	-39.55	181.265	0.627812	0.371612	0.475556	-0.0495	-0.354	0.2295	0	387	164	2
2026-02-12	15:58:29.950	12.845	-35.875	188.475	0.65026	0.292556	0.430416	-0.0675	-0.3495	0.231	0	387	164	2
2026-02-12	15:58:29.970	25.935	-37.485	192.29	0.757864	0.230336	0.372832	-0.0945	-0.333	0.2385	0	387	164	2
2026-02-12	15:58:29.990	24.57	-41.93	204.295	1.045052	0.276696	0.432124	-0.12	-0.318	0.2415	0	387	164	2
2026-02-12	15:58:30.010	11.76	-44.17	211.715	1.316136	0.304756	0.507032	-0.1575	-0.297	0.246	0	371	142	3
2026-02-12	15:58:30.030	2.03	-40.495	213.185	1.500112	0.35258	0.555588	-0.183	-0.2835	0.258	0	371	142	3
2026-02-12	15:58:30.050	0.385	-26.53	208.46	1.778028	0.525088	0.690032	-0.204	-0.261	0.2745	0	371	142	3
2026-02-12	15:58:30.070	2.59	-11.69	194.25	1.442772	0.354532	0.630496	-0.222	-0.2325	0.282	0	371	142	3
2026-02-12	15:58:30.090	18.69	-5.845	178.885	1.288076	0.364292	0.6283	-0.243	-0.2145	0.279	0	371	142	3
2026-02-12	15:58:30.110	43.015	-5.46	162.645	1.140212	0.4514	0.600972	-0.261	-0.198	0.2805	0	371	142	3
2026-02-12	15:58:30.130	48.265	-3.15	138.81	1.119472	0.408212	0.549244	-0.27	-0.1785	0.291	0	371	142	3
2026-02-12	15:58:30.150	50.75	6.615	118.335	1.008208	0.391864	0.499712	-0.282	-0.1575	0.2955	0	371	142	3
2026-02-12	15:58:30.170	49.84	13.37	102.48	0.950868	0.431636	0.471652	-0.2895	-0.1365	0.297	0	371	142	3
2026-02-12	15:58:30.190	38.43	17.71	88.375	0.935496	0.470188	0.4453	-0.297	-0.12	0.3015	0	371	142	3
2026-02-12	15:58:30.210	24.85	23.87	74.935	0.935496	0.466528	0.377468	-0.3	-0.111	0.3	0	360	182	3
2026-02-12	15:58:30.230	15.4	29.295	63.175	0.9028	0.61122	0.376492	-0.3	-0.105	0.2985	0	360	182	3
2026-02-12	15:58:30.250	-12.635	31.71	46.41	0.91012	0.51606	0.321592	-0.3045	-0.102	0.3	0	360	182	3
2026-02-12	15:58:30.270	-23.87	33.25	36.365	0.918416	0.559248	0.29646	-0.3105	-0.087	0.288	0	360	182	3
2026-02-12	15:58:30.290	-35.525	32.9	23.765	0.9028	0.538508	0.28914	-0.303	-0.0765	0.279	0	360	182	3
2026-02-12	15:58:30.310	-36.4	32.41	9.94	0.888648	0.47824	0.280356	-0.3075	-0.072	0.2775	0	360	182	3
2026-02-12	15:58:30.330	-30.135	31.36	-4.445	0.88084	0.503128	0.268888	-0.315	-0.072	0.276	0	360	182	3
2026-02-12	15:58:30.350	-26.81	29.61	-19.985	0.842044	0.518256	0.25132	-0.3045	-0.0765	0.2625	0	360	182	3
2026-02-12	15:58:30.370	-24.78	27.755	-37.45	0.82716	0.580232	0.219844	-0.306	-0.078	0.261	0	360	182	3
2026-02-12	15:58:30.390	-34.93	22.715	-55.895	0.87352	0.637084	0.16226	-0.3045	-0.081	0.2565	0	360	182	3
2026-02-12	15:58:30.410	-54.25	17.5	-76.37	0.94672	0.6954	0.121756	-0.2985	-0.081	0.252	0	351	237	3
2026-02-12	15:58:30.430	-76.755	7.84	-92.12	1.071404	0.695888	0.107116	-0.2955	-0.084	0.249	0	351	237	3
2026-02-12	15:58:30.450	-91	-0.35	-106.33	1.192184	0.719312	0.089304	-0.294	-0.0975	0.243	0	351	237	3
2026-02-12	15:58:30.470	-100.94	-8.61	-119	1.317112	0.72834	0.068076	-0.291	-0.111	0.237	0	351	237	3
2026-02-12	15:58:30.490	-107.485	-16.205	-129.71	1.464976	0.702964	0.07808	-0.285	-0.123	0.2265	0	351	237	3
2026-02-12	15:58:30.510	-102.2	-21.595	-136.71	1.484984	0.719556	0.117364	-0.2805	-0.1275	0.2205	0	351	237	3
2026-02-12	15:58:30.530	-93.205	-23.905	-152.775	1.408856	0.776652	0.166408	-0.2805	-0.1275	0.2205	0	351	237	3
2026-02-12	15:58:30.550	-93.87	-24.99	-170.52	1.306376	0.806908	0.137128	-0.2505	-0.1725	0.213	0	351	237	3
2026-02-12	15:58:30.570	-93.17	-25.9	-193.48	1.171444	0.795684	0.07076	-0.234	-0.1875	0.198	0	351	237	3
2026-02-12	15:58:30.590	-89.81	-27.125	-213.5	1.074576	0.786656	0.039284	-0.2145	-0.204	0.1905	0	351	237	3
2026-02-12	15:58:30.610	-88.445	-28.42	-233.625	1.01138	0.802272	-0.018544	-0.1935	-0.21	0.1815	0	345	252	3
2026-02-12	15:58:30.630	-101.36	-33.39	-247.275	1.101904	0.864004	-0.06344	-0.1785	-0.2325	0.177	0	345	252	3
2026-02-12	15:58:30.650	-123.9	-35.735	-250.74	1.192428	0.897676	-0.081496	-0.1515	-0.24	0.174	0	345	252	3
2026-02-12	15:58:30.670	-141.645	-34.755	-249.865	1.349808	0.933788	-0.066368	-0.135	-0.264	0.156	0	345	252	3
2026-02-12	15:58:30.690	-148.4	-31.955	-245.35	1.410564	0.93086	-0.035624	-0.108	-0.267	0.1335	0	345	252	3
2026-02-12	15:58:30.710	-139.195	-28.665	-239.54	1.374696	0.8723	-0.037332	-0.0915	-0.273	0.1275	0	345	252	3
2026-02-12	15:58:30.730	-119.455	-26.46	-235.375	1.315648	0.842288	-0.06344	-0.0705	-0.2595	0.1125	0	345	252	3
2026-02-12	15:58:30.750	-103.355	-26.495	-233.415	1.258552	0.830576	-0.068076	-0.0495	-0.2715	0.09	0	345	252	3
2026-02-12	15:58:30.770	-93.975	-26.635	-228.55	1.182912	0.828136	-0.056852	-0.0225	-0.273	0.084	0	345	252	3
2026-02-12	15:58:30.790	-80.92	-29.61	-218.645	1.02358	0.768844	-0.063928	-0.0225	-0.273	0.084	0	345	252	3
2026-02-12	15:58:30.810	-70.98	-32.9	-209.475	0.918416	0.712724	-0.046116	-0.003	-0.279	0.0675	0	341	219	3
2026-02-12	15:58:30.830	-60.305	-36.96	-199.885	0.811056	0.653432	-0.026108	0.0255	-0.288	0.048	0	341	219	3
2026-02-12	15:58:30.850	-50.05	-40.11	-186.62	0.693692	0.596824	0.000976	0.039	-0.2925	0.039	0	341	219	3
2026-02-12	15:58:30.870	-46.865	-45.5	-173.425	0.618052	0.587796	0.026108	0.0525	-0.3	0.0315	0	341	219	3
2026-02-12	15:58:30.890	-49.245	-49.525	-162.925	0.590724	0.551928	0.065148	0.069	-0.306	0.027	0	341	219	3
2026-02-12	15:58:30.910	-49.665	-49.84	-148.47	0.560468	0.56974	0.103944	0.078	-0.306	0.0255	0	341	219	3
2026-02-12	15:58:30.930	-57.645	-51.205	-143.43	0.538752	0.576572	0.167628	0.0915	-0.3045	0.0255	0	341	219	3
2026-02-12	15:58:30.950	-71.365	-51.415	-119.42	0.43554	0.507276	0.266448	0.1035	-0.3045	0.0135	0	341	219	3
2026-02-12	15:58:30.970	-82.6	-51.415	-98.665	0.44042	0.614392	0.321592	0.1275	-0.3015	0.0075	0	341	219	3
2026-02-12	15:58:30.990	-83.93	-46.515	-90.755	0.24644	0.499712	0.395036	0.126	-0.2895	-0.0015	0	341	219	3
2026-02-12	15:58:31.010	-104.825	-47.18	-76.86	0.439932	0.546072	0.538996	0.1365	-0.288	-0.006	0	341	177	3
2026-02-12	15:58:31.030	-118.265	-42	-58.03	0.223504	0.4331	0.492148	0.1455	-0.2805	-0.0225	0	341	177	3
2026-02-12	15:58:31.050	-98.595	-35.21	-43.505	0.264008	0.438468	0.603412	0.1515	-0.2625	-0.03	0	341	177	3
2026-02-12	15:58:31.070	-75.67	-29.015	-14.98	0.286944	0.472872	0.660996	0.1605	-0.246	-0.039	0	341	177	3
2026-02-12	15:58:31.090	-66.605	-28.945	-2.8	0.388204	0.502152	0.731024	0.1695	-0.228	-0.0525	0	341	177	3
2026-02-12	15:58:31.110	-69.58	-30.625	9.415	0.502396	0.443592	0.742004	0.1635	-0.219	-0.0615	0	341	177	3
2026-02-12	15:58:31.130	-66.85	-29.61	20.755	0.621956	0.495076	0.739564	0.1575	-0.2085	-0.0675	0	341	177	3
2026-02-12	15:58:31.150	-78.4	-30.87	37.66	0.735416	0.463112	0.74542	0.1545	-0.2025	-0.072	0	341	177	3
2026-02-12	15:58:31.170	-83.51	-35.525	58.8	0.767868	0.384056	0.663924	0.1515	-0.1935	-0.0825	0	341	177	3
2026-02-12	15:58:31.190	-76.3	-31.43	79.31	0.740052	0.423828	0.953796	0.147	-0.1815	-0.093	0	341	177	3
2026-02-12	15:58:31.210	-49.035	-34.545	84.63	0.599264	0.333792	0.941596	0.1365	-0.1725	-0.0975	0	348	202	3
2026-02-12	15:58:31.230	-4.27	-33.285	82.425	0.427732	0.273768	0.977464	0.126	-0.1605	-0.099	0	348	202	3
2026-02-12	15:58:31.250	45.71	-36.155	79.975	0.452376	0.382104	0.874252	0.117	-0.1575	-0.1035	0	348	202	3
2026-02-12	15:58:31.270	51.59	-33.845	84.98	0.512644	0.564372	0.8601	0.1095	-0.165	-0.1065	0	348	202	3
2026-02-12	15:58:31.290	21.63	-25.06	86.275	0.609512	0.66856	0.843508	0.0975	-0.1695	-0.1005	0	348	202	3
2026-02-12	15:58:31.310	6.895	-19.39	83.58	0.6344	0.559248	0.753716	0.0825	-0.171	-0.0975	0	348	202	3
2026-02-12	15:58:31.330	45.115	-14.98	69.23	0.67832	0.537044	0.716384	0.078	-0.1725	-0.1005	0	348	202	3
2026-02-12	15:58:31.350	86.205	-5.81	55.3	0.64172	0.58926	0.762256	0.0615	-0.1755	-0.096	0	348	202	3
2026-02-12	15:58:31.370	110.005	2.94	35	0.565348	0.688324	0.76738	0.069	-0.186	-0.0915	0	348	202	3
2026-02-12	15:58:31.390	95.725	6.825	16.975	0.515572	0.71004	0.698572	0.063	-0.192	-0.0735	0	348	202	3
2026-02-12	15:58:31.410	55.125	8.365	5.495	0.450424	0.622688	0.712968	0.057	-0.21	-0.081	0	360	304	3
2026-02-12	15:58:31.430	19.985	6.195	-2.03	0.428464	0.538996	0.725656	0.057	-0.2055	-0.069	0	360	304	3
2026-02-12	15:58:31.450	3.255	6.23	-8.75	0.396256	0.44408	0.676856	0.0555	-0.21	-0.069	0	360	304	3
2026-02-12	15:58:31.470	5.88	7.42	-14.105	0.37576	0.430904	0.673928	0.0555	-0.213	-0.069	0	360	304	3
2026-02-12	15:58:31.490	25.9	8.75	-20.51	0.384056	0.44164	0.585112	0.06	-0.2145	-0.069	0	360	304	3
2026-02-12	15:58:31.510	43.47	12.915	-25.305	0.345992	0.465064	0.561444	0.0675	-0.2145	-0.066	0	360	304	3
2026-02-12	15:58:31.530	34.3	11.445	-26.46	0.36356	0.6283	0.597312	0.069	-0.216	-0.069	0	360	304	3
2026-02-12	15:58:31.550	9.345	12.32	-29.19	0.36356	0.753716	0.644892	0.072	-0.2205	-0.0705	0	360	304	3
2026-02-12	15:58:31.570	-10.045	12.32	-29.365	0.345016	0.516304	0.748592	0.081	-0.2205	-0.066	0	360	304	3
2026-02-12	15:58:31.590	-21	13.965	-17.36	0.367952	0.299144	0.694668	0.0855	-0.2205	-0.066	0	360	304	3
2026-02-12	15:58:31.610	-8.575	14.14	-9.03	0.284016	0.376004	0.679296	0.0855	-0.2205	-0.066	0	368	418	1
2026-02-12	15:58:31.630	14.595	17.395	-7.735	0.404552	0.562908	0.740052	0.0915	-0.213	-0.063	0	368	418	1
2026-02-12	15:58:31.650	30.555	24.08	-8.19	0.3416	0.575108	0.649284	0.0945	-0.2145	-0.0735	0	368	418	1
2026-02-12	15:58:31.670	51.45	24.045	-8.155	0.402844	0.539972	0.621224	0.1155	-0.2205	-0.072	0	368	418	1
2026-02-12	15:58:31.690	77.875	26.005	1.19	0.548268	0.536068	0.790072	0.102	-0.2265	-0.0675	0	368	418	1
2026-02-12	15:58:31.710	82.915	34.93	11.69	0.71248	0.307196	1.122156	0.1035	-0.2295	-0.057	0	368	418	1
2026-02-12	15:58:31.730	112.7	45.01	22.89	0.83082	-0.585112	0.892552	0.111	-0.237	-0.0525	0	368	418	1
2026-02-12	15:58:31.750	301.875	41.86	36.75	1.122156	-0.581696	-0.004636	0.1095	-0.2505	-0.042	0	368	418	1
2026-02-12	15:58:31.770	285.6	-6.545	-3.045	1.267336	1.209752	-0.588284	0.108	-0.2835	-0.0105	0	368	418	1
2026-02-12	15:58:31.790	29.82	-44.38	-56.07	1.314184	1.606496	0.186904	0.1095	-0.309	0.0225	0	368	418	1
2026-02-12	15:58:31.810	-169.505	-42.84	-62.72	0.05856	0.410896	0.672464	0.1095	-0.3165	0.0165	0	376	499	3
2026-02-12	15:58:31.830	-83.825	-48.055	-33.39	-0.185684	1.156316	0.98942	0.1185	-0.3	0	0	376	499	3
2026-02-12	15:58:31.850	32.62	-4.445	-22.33	-0.179584	1.153632	0.5551	0.117	-0.2925	-0.006	0	376	499	3
