yyyy-MM-dd	HH:mm:ss.fff	gyrX	gyrY	gyrZ	accX	accY	accZ	magX	magY	magZ	Marker	Energy	Angle	Classification
2026-02-19	12:32:01.810	48.72	-35.56	-10.99	0.743224	-0.694424	0.50996	-0.1875	0.7005	-0.492	0	347	150	3
2026-02-19	12:32:01.830	27.02	-25.41	-9.695	0.804224	-0.682468	0.67466	-0.1905	0.6975	-0.486	0	347	150	3
2026-02-19	12:32:01.850	19.95	-11.97	3.64	0.908412	-0.633668	0.674172	-0.1965	0.6945	-0.492	0	347	150	3
2026-02-19	12:32:01.870	60.13	-0.595	21.14	0.716872	-0.55876	0.583404	-0.1935	0.6915	-0.4965	0	347	150	3
2026-02-19	12:32:01.890	65.38	2.87	24.255	0.724192	-0.691008	0.539728	-0.195	0.687	-0.492	0	347	150	3
2026-02-19	12:32:01.910	62.72	2.38	16.1	0.785436	-0.672952	0.560712	-0.18	0.684	-0.495	0	347	150	3
2026-02-19	12:32:01.930	40.81	0.84	25.62	0.792512	-0.653676	0.41968	-0.18	0.684	-0.495	0	347	150	3
2026-02-19	12:32:01.950	54.25	1.4	30.66	0.674904	-0.51118	0.310612	-0.1785	0.678	-0.501	0	347	150	3
2026-02-19	12:32:01.970	59.395	1.715	23.695	0.784704	-0.405284	0.406748	-0.18	0.669	-0.5085	0	347	150	3
2026-02-19	12:32:01.990	39.41	3.15	21.385	0.7503	-0.451644	0.407968	-0.1785	0.663	-0.5145	0	347	150	3
2026-02-19	12:32:02.010	2.345	4.025	0.56	0.607316	-0.493124	0.6283	-0.0855	0.6555	-0.5655	0	301	479	1
2026-02-19	12:32:02.030	0.56	4.865	-1.89	0.599752	-0.45872	0.657092	-0.087	0.654	-0.567	0	301	479	1
2026-02-19	12:32:02.050	-2.905	6.335	-3.22	0.614636	-0.48068	0.645136	-0.09	0.6555	-0.5655	0	301	479	1
2026-02-19	12:32:02.070	-1.82	5.95	-4.62	0.63562	-0.496052	0.613172	-0.09	0.6585	-0.5685	0	301	479	1
2026-02-19	12:32:02.090	-1.12	2.765	-5.285	0.661972	-0.446032	0.574376	-0.09	0.6615	-0.57	0	301	479	1
2026-02-19	12:32:02.110	2.975	-0.595	-8.855	0.624152	-0.38552	0.59048	-0.087	0.6615	-0.5685	0	301	479	1
2026-02-19	12:32:02.130	-2.52	-2.555	-13.265	0.586576	-0.399428	0.619028	-0.0825	0.66	-0.5715	0	301	479	1
2026-02-19	12:32:02.150	-10.78	-2.66	-16.345	0.56364	-0.49166	0.682468	-0.093	0.66	-0.5655	0	301	479	1
2026-02-19	12:32:02.170	-11.445	-1.82	-16.94	0.574376	-0.504592	0.641232	-0.093	0.66	-0.5685	0	301	479	1
2026-02-19	12:32:02.190	-14.665	-4.655	-14.455	0.588284	-0.561688	0.621224	-0.0915	0.657	-0.57	0	301	479	1
2026-02-19	12:32:02.210	-8.4	-3.64	-15.12	0.60146	-0.45262	0.54168	-0.09	0.657	-0.567	0	277	520	1
2026-02-19	12:32:02.230	-15.61	-3.675	-18.935	0.5368	-0.456768	0.525576	-0.0915	0.6585	-0.564	0	277	520	1
2026-02-19	12:32:02.250	-24.675	-3.99	-17.71	0.553148	-0.596092	0.614148	-0.093	0.6585	-0.561	0	277	520	1
2026-02-19	12:32:02.270	-15.26	-0.805	-11.585	0.499468	-0.633912	0.609512	-0.099	0.657	-0.5595	0	277	520	1
2026-02-19	12:32:02.290	-0.175	3.85	0	0.634644	-0.474824	0.608048	-0.105	0.654	-0.558	0	277	520	1
2026-02-19	12:32:02.310	2.31	4.76	-5.6	0.646112	-0.3843	0.64172	-0.0915	0.6615	-0.564	0	277	520	1
2026-02-19	12:32:02.330	-15.435	-0.28	-18.445	0.601216	-0.239364	0.637328	-0.087	0.657	-0.5625	0	277	520	1
2026-02-19	12:32:02.350	-49	-8.015	-13.44	0.589992	-0.394548	0.538508	-0.1005	0.663	-0.5595	0	277	520	1
2026-02-19	12:32:02.370	-57.995	-13.685	-10.325	0.558272	-0.55144	0.526552	-0.096	0.6705	-0.5535	0	277	520	1
2026-02-19	12:32:02.390	-47.6	-15.12	-11.235	0.568276	-0.477752	0.56608	-0.099	0.681	-0.5505	0	277	520	1
2026-02-19	12:32:02.410	-50.4	-18.095	-15.855	0.604876	-0.355996	0.56364	-0.0975	0.6765	-0.549	0	254	548	1
2026-02-19	12:32:02.430	-93.835	-27.545	-15.995	0.582916	-0.56486	0.340624	-0.108	0.678	-0.549	0	254	548	1
2026-02-19	12:32:02.450	-91.14	-39.795	1.12	0.6466	-1.16022	0.172752	-0.102	0.687	-0.537	0	254	548	1
2026-02-19	12:32:02.470	24.745	-32.725	12.005	0.601704	-0.768844	0.546072	-0.108	0.6945	-0.5295	0	254	548	1
2026-02-19	12:32:02.490	73.255	-25.165	12.88	0.668804	-0.450668	0.762988	-0.1185	0.7065	-0.5235	0	254	548	1
2026-02-19	12:32:02.510	49.805	-19.32	2.275	0.629276	-0.549	0.61854	-0.1215	0.7005	-0.525	0	254	548	1
2026-02-19	12:32:02.530	40.81	-16.065	-1.26	0.61976	-0.73932	0.419924	-0.1215	0.696	-0.5265	0	254	548	1
2026-02-19	12:32:02.550	60.025	-15.61	-3.15	0.663436	-0.701988	0.43188	-0.1245	0.693	-0.528	0	254	548	1
2026-02-19	12:32:02.570	72.415	-14.7	-5.215	0.640256	-0.40504	0.547292	-0.1245	0.6825	-0.528	0	254	548	1
2026-02-19	12:32:02.590	47.53	-11.795	-12.495	0.581696	-0.439932	0.58316	-0.1275	0.675	-0.531	0	254	548	1
2026-02-19	12:32:02.610	25.41	-1.085	-11.165	0.701744	-0.570228	0.524112	-0.132	0.669	-0.5385	0	234	557	3
2026-02-19	12:32:02.630	30.1	4.025	1.715	0.689544	-0.51362	0.56486	-0.135	0.6645	-0.543	0	234	557	3
2026-02-19	12:32:02.650	25.41	2.765	3.815	0.679784	-0.461648	0.6283	-0.135	0.6645	-0.543	0	234	557	3
2026-02-19	12:32:02.670	16.59	6.72	6.44	0.717116	-0.482632	0.604144	-0.132	0.654	-0.552	0	234	557	3
2026-02-19	12:32:02.690	13.125	11.235	13.405	0.67832	-0.446032	0.582184	-0.126	0.6525	-0.549	0	234	557	3
2026-02-19	12:32:02.710	12.46	11.2	13.02	0.716384	-0.421632	0.60024	-0.1275	0.657	-0.546	0	234	557	3
2026-02-19	12:32:02.730	12.81	11.095	13.195	0.69418	-0.40748	0.55266	-0.1245	0.6495	-0.5505	0	234	557	3
2026-02-19	12:32:02.750	3.045	5.46	6.545	0.67832	-0.376248	0.604388	-0.126	0.654	-0.549	0	234	557	3
2026-02-19	12:32:02.770	-15.575	2.1	7.315	0.739564	-0.520452	0.56486	-0.1245	0.6555	-0.549	0	234	557	3
2026-02-19	12:32:02.790	-10.64	4.725	13.16	0.688324	-0.522404	0.60634	-0.1245	0.6555	-0.5505	0	234	557	3
2026-02-19	12:32:02.810	4.235	5.04	-1.33	0.632448	-0.497272	0.638548	-0.0885	0.6585	-0.5655	0	322	433	1
2026-02-19	12:32:02.830	-0.28	4.62	0.7	0.610976	-0.540216	0.620248	-0.0885	0.6555	-0.561	0	322	433	1
2026-02-19	12:32:02.850	3.85	4.375	3.395	0.58926	-0.534604	0.619516	-0.0945	0.663	-0.5655	0	322	433	1
2026-02-19	12:32:02.870	3.675	4.06	3.045	0.561932	-0.496052	0.61244	-0.0975	0.66	-0.5685	0	322	433	1
2026-02-19	12:32:02.890	-2.415	1.435	2.8	0.5551	-0.540704	0.580232	-0.093	0.6555	-0.5595	0	322	433	1
2026-02-19	12:32:02.910	-0.525	-0.14	3.08	0.573156	-0.539484	0.583648	-0.0855	0.651	-0.561	0	322	433	1
2026-02-19	12:32:02.930	1.295	0.315	4.305	0.583404	-0.5307	0.597068	-0.0885	0.6615	-0.5715	0	322	433	1
2026-02-19	12:32:02.950	3.57	1.19	4.095	0.571204	-0.504104	0.600728	-0.0945	0.663	-0.57	0	322	433	1
2026-02-19	12:32:02.970	2.765	1.82	3.675	0.55022	-0.518988	0.633424	-0.09	0.66	-0.567	0	322	433	1
2026-02-19	12:32:02.990	4.41	3.78	3.325	0.561688	-0.483852	0.630496	-0.0855	0.657	-0.5655	0	322	433	1
2026-02-19	12:32:01.010	87.955	-18.76	-27.615	-0.280356	-1.435452	-0.1037	0.186	0.9375	-0.2505	0	318	179	3
2026-02-19	12:32:01.030	76.72	-24.465	-8.61	-0.41968	-1.112884	0.026108	0.183	0.9375	-0.2595	0	318	179	3
2026-02-19	12:32:01.050	66.745	-38.99	-10.5	-0.509716	-0.865224	0.088084	0.177	0.93	-0.273	0	318	179	3
2026-02-19	12:32:01.070	38.675	-47.81	-45.29	0.0244	-0.926468	0.133956	0.1695	0.936	-0.288	0	318	179	3
2026-02-19	12:32:01.090	34.685	-89.705	-138.705	-0.978684	-1.851228	0.21594	0.1605	0.9345	-0.2925	0	318	179	3
2026-02-19	12:32:01.110	121.415	-63.525	-31.36	0.14518	-0.510448	0.310612	0.141	0.933	-0.3015	0	318	179	3
2026-02-19	12:32:01.130	64.33	-78.645	-98.595	0.028548	-0.8357	0.233996	0.1275	0.933	-0.3135	0	318	179	3
2026-02-19	12:32:01.150	41.335	-50.61	-104.615	0.105164	-0.683932	0.174948	0.1125	0.9255	-0.321	0	318	179	3
2026-02-19	12:32:01.170	-16.555	-45.185	-109.13	0.563884	-0.431392	-0.050264	0.0915	0.9165	-0.3255	0	318	179	3
2026-02-19	12:32:01.190	-19.285	-29.61	-92.785	0.648064	-0.476044	-0.1098	0.075	0.9165	-0.3285	0	318	179	3
2026-02-19	12:32:01.210	-12.04	-43.925	-101.465	0.600972	-0.793732	-0.293776	0.0585	0.915	-0.3255	0	317	112	3
2026-02-19	12:32:01.230	38.43	-50.89	-78.4	0.792268	-0.844972	0.088328	0.036	0.918	-0.324	0	317	112	3
2026-02-19	12:32:01.250	65.8	-70.455	-15.925	0.29036	-1.098244	0.185684	0.0255	0.924	-0.3285	0	317	112	3
2026-02-19	12:32:01.270	79.835	-52.01	-51.835	0.439688	-0.988932	0.2745	0.0135	0.9105	-0.342	0	317	112	3
2026-02-19	12:32:01.290	80.08	-43.4	-56.595	0.48678	-1.007232	0.30744	0	0.894	-0.36	0	317	112	3
2026-02-19	12:32:01.310	79.135	-44.38	-41.195	0.484096	-0.784704	0.233752	-0.012	0.903	-0.3675	0	317	112	3
2026-02-19	12:32:01.330	82.18	-46.76	-32.69	0.439444	-0.805932	0.101504	-0.015	0.894	-0.3765	0	317	112	3
2026-02-19	12:32:01.350	78.26	-40.88	-33.215	0.742492	-1.070184	0.24888	-0.0135	0.8805	-0.3885	0	317	112	3
2026-02-19	12:32:01.370	53.41	-32.97	-13.93	0.572668	-0.992348	0.28792	-0.024	0.8805	-0.3945	0	317	112	3
2026-02-19	12:32:01.390	24.815	-24.185	-19.88	0.357948	-0.945988	0.20862	-0.036	0.876	-0.396	0	317	112	3
2026-02-19	12:32:01.410	5.67	-20.475	-21.525	0.319396	-0.880352	0.214476	-0.036	0.8715	-0.3885	0	325	90	3
2026-02-19	12:32:01.430	2.905	-22.995	-22.715	0.419436	-0.830088	0.157136	-0.042	0.8655	-0.3975	0	325	90	3
2026-02-19	12:32:01.450	7.91	-26.145	-23.66	0.425048	-0.768844	0.122488	-0.048	0.867	-0.3975	0	325	90	3
2026-02-19	12:32:01.470	22.855	-28.385	-31.71	0.478972	-0.74664	0.152012	-0.048	0.8655	-0.4005	0	325	90	3
2026-02-19	12:32:01.490	38.675	-36.995	-43.015	0.383812	-0.88572	0.222528	-0.06	0.8625	-0.405	0	325	90	3
2026-02-19	12:32:01.510	67.585	-20.685	-101.36	0.716872	-1.001376	0.106872	-0.066	0.855	-0.402	0	325	90	3
2026-02-19	12:32:01.530	69.58	-30.73	-48.58	0.388692	-0.592432	0.215208	-0.0765	0.8445	-0.4155	0	325	90	3
2026-02-19	12:32:01.550	96.635	-33.46	-57.435	0.73932	-0.72224	0.231068	-0.081	0.84	-0.4215	0	325	90	3
2026-02-19	12:32:01.570	112.385	-32.27	-48.335	0.707112	-0.65758	0.293288	-0.096	0.8265	-0.429	0	325	90	3
2026-02-19	12:32:01.590	115.57	-36.75	-40.95	0.662216	-0.614392	0.373076	-0.096	0.8265	-0.429	0	325	90	3
2026-02-19	12:32:01.610	106.225	-40.145	-40.11	0.806176	-0.720044	0.34648	-0.1065	0.807	-0.4425	0	336	104	3
2026-02-19	12:32:01.630	105.91	-36.19	-37.695	0.781288	-0.66856	0.387716	-0.1215	0.7815	-0.4635	0	336	104	3
2026-02-19	12:32:01.650	106.715	-35.455	-34.44	0.851316	-0.504836	0.363804	-0.132	0.771	-0.4725	0	336	104	3
2026-02-19	12:32:01.670	93.345	-36.155	-31.01	0.784948	-0.427732	0.372832	-0.1395	0.7605	-0.477	0	336	104	3
2026-02-19	12:32:01.690	59.71	-34.755	-30.03	0.776896	-0.53436	0.415776	-0.141	0.747	-0.483	0	336	104	3
2026-02-19	12:32:01.710	33.985	-32.27	-29.995	0.720532	-0.61976	0.465796	-0.144	0.7365	-0.4845	0	336	104	3
2026-02-19	12:32:01.730	23.94	-30.94	-28.175	0.712968	-0.621956	0.417484	-0.1545	0.7305	-0.486	0	336	104	3
2026-02-19	12:32:01.750	40.985	-32.62	-27.825	0.77836	-0.599508	0.386984	-0.1635	0.7245	-0.489	0	336	104	3
2026-02-19	12:32:01.770	60.55	-34.335	-19.005	0.77592	-0.656604	0.439688	-0.1635	0.7245	-0.489	0	336	104	3
2026-02-19	12:32:01.790	63.07	-35.665	-12.425	0.781044	-0.625372	0.408212	-0.1785	0.705	-0.4935	0	336	104	3
2026-02-19	12:32:01.810	48.72	-35.56	-10.99	0.743224	-0.694424	0.50996	-0.1875	0.7005	-0.492	0	347	150	3
2026-02-19	12:32:01.830	27.02	-25.41	-9.695	0.804224	-0.682468	0.67466	-0.1905	0.6975	-0.486	0	347	150	3
2026-02-19	12:32:01.850	19.95	-11.97	3.64	0.908412	-0.633668	0.674172	-0.1965	0.6945	-0.492	0	347	150	3
2026-02-19	12:32:01.870	60.13	-0.595	21.14	0.716872	-0.55876	0.583404	-0.1935	0.6915	-0.4965	0	347	150	3
2026-02-19	12:32:01.890	65.38	2.87	24.255	0.724192	-0.691008	0.539728	-0.195	0.687	-0.492	0	347	150	3
2026-02-19	12:32:01.910	62.72	2.38	16.1	0.785436	-0.672952	0.560712	-0.18	0.684	-0.495	0	347	150	3
2026-02-19	12:32:01.930	40.81	0.84	25.62	0.792512	-0.653676	0.41968	-0.18	0.684	-0.495	0	347	150	3
2026-02-19	12:32:01.950	54.25	1.4	30.66	0.674904	-0.51118	0.310612	-0.1785	0.678	-0.501	0	347	150	3
2026-02-19	12:32:01.970	59.395	1.715	23.695	0.784704	-0.405284	0.406748	-0.18	0.669	-0.5085	0	347	150	3
2026-02-19	12:32:01.990	39.41	3.15	21.385	0.7503	-0.451644	0.407968	-0.1785	0.663	-0.5145	0	347	150	3
2026-02-19	12:32:02.010	2.345	4.025	0.56	0.607316	-0.493124	0.6283	-0.0855	0.6555	-0.5655	0	301	479	1
2026-02-19	12:32:02.030	0.56	4.865	-1.89	0.599752	-0.45872	0.657092	-0.087	0.654	-0.567	0	301	479	1
2026-02-19	12:32:02.050	-2.905	6.335	-3.22	0.614636	-0.48068	0.645136	-0.09	0.6555	-0.5655	0	301	479	1
2026-02-19	12:32:02.070	-1.82	5.95	-4.62	0.63562	-0.496052	0.613172	-0.09	0.6585	-0.5685	0	301	479	1
2026-02-19	12:32:02.090	-1.12	2.765	-5.285	0.661972	-0.446032	0.574376	-0.09	0.6615	-0.57	0	301	479	1
2026-02-19	12:32:02.110	2.975	-0.595	-8.855	0.624152	-0.38552	0.59048	-0.087	0.6615	-0.5685	0	301	479	1
2026-02-19	12:32:02.130	-2.52	-2.555	-13.265	0.586576	-0.399428	0.619028	-0.0825	0.66	-0.5715	0	301	479	1
2026-02-19	12:32:02.150	-10.78	-2.66	-16.345	0.56364	-0.49166	0.682468	-0.093	0.66	-0.5655	0	301	479	1
2026-02-19	12:32:02.170	-11.445	-1.82	-16.94	0.574376	-0.504592	0.641232	-0.093	0.66	-0.5685	0	301	479	1
2026-02-19	12:32:02.190	-14.665	-4.655	-14.455	0.588284	-0.561688	0.621224	-0.0915	0.657	-0.57	0	301	479	1
2026-02-19	12:32:02.210	-8.4	-3.64	-15.12	0.60146	-0.45262	0.54168	-0.09	0.657	-0.567	0	277	520	1
2026-02-19	12:32:02.230	-15.61	-3.675	-18.935	0.5368	-0.456768	0.525576	-0.0915	0.6585	-0.564	0	277	520	1
2026-02-19	12:32:02.250	-24.675	-3.99	-17.71	0.553148	-0.596092	0.614148	-0.093	0.6585	-0.561	0	277	520	1
2026-02-19	12:32:02.270	-15.26	-0.805	-11.585	0.499468	-0.633912	0.609512	-0.099	0.657	-0.5595	0	277	520	1
2026-02-19	12:32:02.290	-0.175	3.85	0	0.634644	-0.474824	0.608048	-0.105	0.654	-0.558	0	277	520	1
2026-02-19	12:32:02.310	2.31	4.76	-5.6	0.646112	-0.3843	0.64172	-0.0915	0.6615	-0.564	0	277	520	1
2026-02-19	12:32:02.330	-15.435	-0.28	-18.445	0.601216	-0.239364	0.637328	-0.087	0.657	-0.5625	0	277	520	1
2026-02-19	12:32:02.350	-49	-8.015	-13.44	0.589992	-0.394548	0.538508	-0.1005	0.663	-0.5595	0	277	520	1
2026-02-19	12:32:02.370	-57.995	-13.685	-10.325	0.558272	-0.55144	0.526552	-0.096	0.6705	-0.5535	0	277	520	1
2026-02-19	12:32:02.390	-47.6	-15.12	-11.235	0.568276	-0.477752	0.56608	-0.099	0.681	-0.5505	0	277	520	1
2026-02-19	12:32:02.410	-50.4	-18.095	-15.855	0.604876	-0.355996	0.56364	-0.0975	0.6765	-0.549	0	254	548	1
2026-02-19	12:32:02.430	-93.835	-27.545	-15.995	0.582916	-0.56486	0.340624	-0.108	0.678	-0.549	0	254	548	1
2026-02-19	12:32:02.450	-91.14	-39.795	1.12	0.6466	-1.16022	0.172752	-0.102	0.687	-0.537	0	254	548	1
2026-02-19	12:32:02.470	24.745	-32.725	12.005	0.601704	-0.768844	0.546072	-0.108	0.6945	-0.5295	0	254	548	1
2026-02-19	12:32:02.490	73.255	-25.165	12.88	0.668804	-0.450668	0.762988	-0.1185	0.7065	-0.5235	0	254	548	1
2026-02-19	12:32:02.510	49.805	-19.32	2.275	0.629276	-0.549	0.61854	-0.1215	0.7005	-0.525	0	254	548	1
2026-02-19	12:32:02.530	40.81	-16.065	-1.26	0.61976	-0.73932	0.419924	-0.1215	0.696	-0.5265	0	254	548	1
2026-02-19	12:32:02.550	60.025	-15.61	-3.15	0.663436	-0.701988	0.43188	-0.1245	0.693	-0.528	0	254	548	1
2026-02-19	12:32:02.570	72.415	-14.7	-5.215	0.640256	-0.40504	0.547292	-0.1245	0.6825	-0.528	0	254	548	1
2026-02-19	12:32:02.590	47.53	-11.795	-12.495	0.581696	-0.439932	0.58316	-0.1275	0.675	-0.531	0	254	548	1
2026-02-19	12:32:02.610	25.41	-1.085	-11.165	0.701744	-0.570228	0.524112	-0.132	0.669	-0.5385	0	234	557	3
2026-02-19	12:32:02.630	30.1	4.025	1.715	0.689544	-0.51362	0.56486	-0.135	0.6645	-0.543	0	234	557	3
2026-02-19	12:32:02.650	25.41	2.765	3.815	0.679784	-0.461648	0.6283	-0.135	0.6645	-0.543	0	234	557	3
2026-02-19	12:32:02.670	16.59	6.72	6.44	0.717116	-0.482632	0.604144	-0.132	0.654	-0.552	0	234	557	3
2026-02-19	12:32:02.690	13.125	11.235	13.405	0.67832	-0.446032	0.582184	-0.126	0.6525	-0.549	0	234	557	3
2026-02-19	12:32:02.710	12.46	11.2	13.02	0.716384	-0.421632	0.60024	-0.1275	0.657	-0.546	0	234	557	3
2026-02-19	12:32:02.730	12.81	11.095	13.195	0.69418	-0.40748	0.55266	-0.1245	0.6495	-0.5505	0	234	557	3
2026-02-19	12:32:02.750	3.045	5.46	6.545	0.67832	-0.376248	0.604388	-0.126	0.654	-0.549	0	234	557	3
2026-02-19	12:32:02.770	-15.575	2.1	7.315	0.739564	-0.520452	0.56486	-0.1245	0.6555	-0.549	0	234	557	3
2026-02-19	12:32:02.790	-10.64	4.725	13.16	0.688324	-0.522404	0.60634	-0.1245	0.6555	-0.5505	0	234	557	3
2026-02-19	12:32:02.810	4.235	5.04	-1.33	0.632448	-0.497272	0.638548	-0.0885	0.6585	-0.5655	0	322	433	1
2026-02-19	12:32:02.830	-0.28	4.62	0.7	0.610976	-0.540216	0.620248	-0.0885	0.6555	-0.561	0	322	433	1
2026-02-19	12:32:02.850	3.85	4.375	3.395	0.58926	-0.534604	0.619516	-0.0945	0.663	-0.5655	0	322	433	1
2026-02-19	12:32:02.870	3.675	4.06	3.045	0.561932	-0.496052	0.61244	-0.0975	0.66	-0.5685	0	322	433	1
2026-02-19	12:32:02.890	-2.415	1.435	2.8	0.5551	-0.540704	0.580232	-0.093	0.6555	-0.5595	0	322	433	1
2026-02-19	12:32:02.910	-0.525	-0.14	3.08	0.573156	-0.539484	0.583648	-0.0855	0.651	-0.561	0	322	433	1
2026-02-19	12:32:02.930	1.295	0.315	4.305	0.583404	-0.5307	0.597068	-0.0885	0.6615	-0.5715	0	322	433	1
2026-02-19	12:32:02.950	3.57	1.19	4.095	0.571204	-0.504104	0.600728	-0.0945	0.663	-0.57	0	322	433	1
2026-02-19	12:32:02.970	2.765	1.82	3.675	0.55022	-0.518988	0.633424	-0.09	0.66	-0.567	0	322	433	1
2026-02-19	12:32:02.990	4.41	3.78	3.325	0.561688	-0.483852	0.630496	-0.0855	0.657	-0.5655	0	322	433	1
2026-02-19	12:32:21.010	-59.01	-35.525	-37.38	1.142408	-0.440664	0.813496	-0.2505	0.594	-0.4305	0	448	375	2
2026-02-19	12:32:21.030	-40.285	-14.315	-15.225	1.779736	-0.308172	0.524356	-0.264	0.5955	-0.429	0	448	375	2
2026-02-19	12:32:21.050	-39.445	13.125	-3.78	1.924672	-0.326228	0.724192	-0.258	0.5985	-0.423	0	448	375	2
2026-02-19	12:32:21.070	-85.435	17.64	0.735	1.532564	-0.100528	0.613416	-0.255	0.6015	-0.42	0	448	375	2
2026-02-19	12:32:21.090	-85.47	16.87	8.365	1.011624	0.047336	0.583648	-0.2565	0.6045	-0.42	0	448	375	2
2026-02-19	12:32:21.110	-42.07	16.45	26.705	0.662948	-0.060268	0.566812	-0.255	0.6135	-0.4215	0	448	375	2
2026-02-19	12:32:21.130	2.17	14.875	52.815	0.565104	-0.065392	0.56608	-0.2535	0.6195	-0.42	0	448	375	2
2026-02-19	12:32:21.150	35.735	13.51	75.25	0.64782	-0.062464	0.527772	-0.255	0.6285	-0.42	0	448	375	2
2026-02-19	12:32:21.170	45.815	14.49	89.775	0.720288	-0.036112	0.497516	-0.2475	0.6345	-0.4215	0	448	375	2
2026-02-19	12:32:21.190	35.35	22.295	102.165	0.739564	-0.100772	0.44408	-0.2415	0.639	-0.426	0	448	375	2
2026-02-19	12:32:21.210	21.945	29.82	109.515	0.701744	-0.164212	0.415532	-0.243	0.645	-0.4305	0	449	385	3
2026-02-19	12:32:21.230	13.23	34.335	113.365	0.669536	-0.241804	0.390156	-0.2235	0.6645	-0.4395	0	449	385	3
2026-02-19	12:32:21.250	12.915	37.38	116.235	0.665632	-0.290604	0.385276	-0.2145	0.678	-0.4425	0	449	385	3
2026-02-19	12:32:21.270	11.34	40.355	117.95	0.663436	-0.302316	0.337208	-0.1995	0.6855	-0.447	0	449	385	3
2026-02-19	12:32:21.290	8.785	43.925	116.69	0.632692	-0.375516	0.342576	-0.1935	0.696	-0.4485	0	449	385	3
2026-02-19	12:32:21.310	12.915	43.68	115.85	0.613172	-0.427244	0.339404	-0.1785	0.7095	-0.4545	0	449	385	3
2026-02-19	12:32:21.330	16.695	40.25	115.325	0.618296	-0.465064	0.325984	-0.1665	0.714	-0.4575	0	449	385	3
2026-02-19	12:32:21.350	19.705	35.91	113.715	0.630008	-0.488	0.326228	-0.153	0.729	-0.4605	0	449	385	3
2026-02-19	12:32:21.370	20.895	30.1	108.99	0.666364	-0.493612	0.30744	-0.144	0.732	-0.4665	0	449	385	3
2026-02-19	12:32:21.390	25.515	25.06	101.99	0.686128	-0.520208	0.369416	-0.129	0.735	-0.4755	0	449	385	3
2026-02-19	12:32:21.410	33.355	18.9	93.1	0.69906	-0.45384	0.33916	-0.12	0.7425	-0.483	0	445	399	3
2026-02-19	12:32:21.430	42.84	13.58	86.45	0.686616	-0.429928	0.338672	-0.102	0.75	-0.4785	0	445	399	3
2026-02-19	12:32:21.450	57.54	4.76	82.075	0.678564	-0.366732	0.285236	-0.096	0.7485	-0.489	0	445	399	3
2026-02-19	12:32:21.470	74.655	-2.31	76.51	0.617076	-0.30256	0.320372	-0.0795	0.747	-0.5055	0	445	399	3
2026-02-19	12:32:21.490	87.815	-9.94	68.18	0.671976	-0.286944	0.274256	-0.069	0.744	-0.5115	0	445	399	3
2026-02-19	12:32:21.510	98.28	-15.61	57.47	0.72346	-0.25254	0.308416	-0.069	0.738	-0.5175	0	445	399	3
2026-02-19	12:32:21.530	92.75	-20.825	46.83	0.794708	-0.195932	0.332084	-0.063	0.7305	-0.528	0	445	399	3
2026-02-19	12:32:21.550	64.645	-21.525	33.635	0.83326	-0.183	0.332816	-0.054	0.7245	-0.5325	0	445	399	3
2026-02-19	12:32:21.570	40.32	-19.985	21.35	0.843264	-0.154208	0.324764	-0.057	0.7185	-0.537	0	445	399	3
2026-02-19	12:32:21.590	32.41	-22.015	10.64	0.884012	-0.160064	0.323056	-0.0585	0.717	-0.54	0	445	399	3
2026-02-19	12:32:21.610	31.36	-26.075	4.305	0.966972	-0.1403	0.351848	-0.06	0.7125	-0.5385	0	434	398	3
2026-02-19	12:32:21.630	31.395	-29.26	-0.91	1.061888	-0.141764	0.390888	-0.0645	0.7095	-0.537	0	434	398	3
2026-02-19	12:32:21.650	26.775	-31.325	-4.83	1.097268	-0.14518	0.443592	-0.066	0.7065	-0.5385	0	434	398	3
2026-02-19	12:32:21.670	18.2	-33.18	-5.705	1.078968	-0.124196	0.504836	-0.0675	0.702	-0.5415	0	434	398	3
2026-02-19	12:32:21.690	12.04	-33.32	-4.515	1.060424	-0.121268	0.568764	-0.072	0.6975	-0.5385	0	434	398	3
2026-02-19	12:32:21.710	1.155	-32.69	-3.85	1.054812	-0.088328	0.589504	-0.0765	0.6945	-0.54	0	434	398	3
2026-02-19	12:32:21.730	-14.21	-32.305	-6.09	1.012356	-0.03172	0.558028	-0.0795	0.693	-0.5415	0	434	398	3
2026-02-19	12:32:21.750	-26.18	-29.68	-11.515	0.920612	-0.038796	0.509472	-0.084	0.6945	-0.537	0	434	398	3
2026-02-19	12:32:21.770	-29.155	-25.935	-18.725	0.831308	-0.084424	0.514596	-0.093	0.693	-0.531	0	434	398	3
2026-02-19	12:32:21.790	-28.735	-22.505	-23.38	0.78446	-0.170556	0.499956	-0.0945	0.6915	-0.5295	0	434	398	3
2026-02-19	12:32:21.810	-25.445	-21.56	-26.775	0.739564	-0.268644	0.51484	-0.093	0.696	-0.5265	0	418	400	3
2026-02-19	12:32:21.830	-17.815	-24.64	-31.605	0.696864	-0.394792	0.491904	-0.0975	0.699	-0.522	0	418	400	3
2026-02-19	12:32:21.850	-11.865	-29.61	-38.15	0.642696	-0.429684	0.469944	-0.102	0.6975	-0.519	0	418	400	3
2026-02-19	12:32:21.870	-9.1	-34.72	-42.28	0.55876	-0.4819	0.476044	-0.108	0.696	-0.519	0	418	400	3
2026-02-19	12:32:21.890	32.865	-7.28	-19.355	1.440576	-0.579256	0.454816	-0.1155	0.7005	-0.5175	0	418	400	3
2026-02-19	12:32:21.910	6.965	-15.015	2.24	0.965752	-0.299632	0.41968	-0.1215	0.702	-0.513	0	418	400	3
2026-02-19	12:32:21.930	2.17	-44.31	9.94	0.862052	-0.16592	0.182512	-0.129	0.687	-0.5295	0	418	400	3
2026-02-19	12:32:21.950	73.15	-38.01	1.96	0.959652	0.13664	0.265716	-0.126	0.6855	-0.519	0	418	400	3
2026-02-19	12:32:21.970	113.155	-41.335	-11.655	0.81374	-0.11468	0.481656	-0.1275	0.6795	-0.522	0	418	400	3
2026-02-19	12:32:21.990	98.42	-42.42	-10.395	0.766404	0.11834	0.530944	-0.129	0.6735	-0.5325	0	418	400	3
2026-02-19	12:32:22.010	58.24	-9.835	-20.02	0.748836	-0.07442	0.94306	-0.1425	0.654	-0.534	0	401	412	3
2026-02-19	12:32:22.030	-4.235	7.315	-32.27	0.866932	-0.008296	0.566568	-0.144	0.6435	-0.534	0	401	412	3
2026-02-19	12:32:22.050	-10.675	9.065	-39.27	0.93574	-0.055632	0.500932	-0.153	0.6405	-0.537	0	401	412	3
2026-02-19	12:32:22.070	21.21	-0.63	-36.645	0.864004	-0.222284	0.537776	-0.153	0.639	-0.543	0	401	412	3
2026-02-19	12:32:22.090	33.845	-10.92	-28.77	0.806176	-0.210572	0.500444	-0.1605	0.6345	-0.5415	0	401	412	3
2026-02-19	12:32:22.110	12.915	-11.865	-29.33	0.82716	-0.310856	0.335012	-0.1605	0.6345	-0.5415	0	401	412	3
2026-02-19	12:32:22.130	11.585	-14.105	-32.41	0.828868	-0.43554	0.374052	-0.165	0.6255	-0.54	0	401	412	3
2026-02-19	12:32:22.150	9.66	-17.395	-28.035	0.826672	-0.44286	0.354288	-0.168	0.6165	-0.5445	0	401	412	3
2026-02-19	12:32:22.170	12.355	-20.86	-22.645	0.848388	-0.359168	0.293532	-0.1665	0.6105	-0.5445	0	401	412	3
2026-02-19	12:32:22.190	21.07	-23.765	-19.285	0.83692	-0.239608	0.335744	-0.168	0.6	-0.537	0	401	412	3
2026-02-19	12:32:22.210	13.58	-22.855	-17.43	0.8784	-0.083448	0.442616	-0.171	0.5955	-0.54	0	385	428	3
2026-02-19	12:32:22.230	-2.905	-22.05	-14.455	0.967216	0.240096	0.440176	-0.174	0.594	-0.5415	0	385	428	3
2026-02-19	12:32:22.250	-9.415	-21.35	-22.75	1.012356	0.29768	0.409432	-0.177	0.5925	-0.54	0	385	428	3
2026-02-19	12:32:22.270	-14.28	-14.42	-32.445	0.916708	-0.010248	0.44774	-0.174	0.5955	-0.5535	0	385	428	3
2026-02-19	12:32:22.290	-21.315	-5.81	-31.675	0.879376	-0.25132	0.322324	-0.174	0.5955	-0.5535	0	385	428	3
2026-02-19	12:32:22.310	-10.64	-13.02	-23.975	0.884012	-0.360144	0.198128	-0.183	0.594	-0.543	0	385	428	3
2026-02-19	12:32:22.330	8.96	-21	-18.095	0.813984	-0.394304	0.400648	-0.1935	0.588	-0.5355	0	385	428	3
2026-02-19	12:32:22.350	0.945	-23.17	-15.75	0.819352	-0.274744	0.4209	-0.1965	0.585	-0.537	0	385	428	3
2026-02-19	12:32:22.370	0.07	-21.735	-14	0.875228	-0.081008	0.300364	-0.201	0.585	-0.531	0	385	428	3
2026-02-19	12:32:22.390	11.445	-20.79	-17.36	0.849608	-0.176656	0.499224	-0.2055	0.576	-0.531	0	385	428	3
2026-02-19	12:32:22.410	9.17	-24.08	-17.255	0.76128	-0.212524	0.642696	-0.2085	0.567	-0.531	0	370	433	3
2026-02-19	12:32:22.430	-3.71	-23.1	-12.11	0.844728	0.003416	0.583648	-0.2115	0.5685	-0.5265	0	370	433	3
2026-02-19	12:32:22.450	-2.31	-19.32	-12.285	0.935984	0.268644	0.41724	-0.2145	0.5715	-0.525	0	370	433	3
2026-02-19	12:32:22.470	-10.29	-4.865	-35.455	0.896456	0.03538	0.43066	-0.216	0.5715	-0.5235	0	370	433	3
2026-02-19	12:32:22.490	-26.32	-2.87	-39.13	0.953064	-0.040748	0.301828	-0.2205	0.5625	-0.5055	0	370	433	3
2026-02-19	12:32:22.510	-24.605	-5.355	-33.11	1.031144	0.016104	0.051972	-0.2115	0.5625	-0.513	0	370	433	3
2026-02-19	12:32:22.530	-14	-8.855	-31.71	0.998936	-0.140544	-0.000488	-0.225	0.5565	-0.51	0	370	433	3
2026-02-19	12:32:22.550	-4.97	-8.995	-31.115	0.94062	-0.226432	0.140544	-0.222	0.558	-0.501	0	370	433	3
2026-02-19	12:32:22.570	-5.18	-10.01	-23.555	0.99674	-0.13664	0.104676	-0.222	0.558	-0.5085	0	370	433	3
2026-02-19	12:32:22.590	-5.32	-9.66	-20.265	0.987956	0.006832	0.042456	-0.225	0.5595	-0.501	0	370	433	3
2026-02-19	12:32:22.610	-0.315	-6.37	-26.775	0.949648	-0.08662	0.318908	-0.2295	0.552	-0.492	0	355	423	1
2026-02-19	12:32:22.630	-8.47	-7.735	-29.05	0.833504	-0.137372	0.515816	-0.219	0.552	-0.498	0	355	423	1
2026-02-19	12:32:22.650	-7.98	-12.845	-26.11	0.91378	-0.005124	0.554856	-0.219	0.552	-0.498	0	355	423	1
2026-02-19	12:32:22.670	3.36	-15.925	-29.75	0.738344	-0.155916	0.753716	-0.2265	0.5535	-0.495	0	355	423	1
2026-02-19	12:32:22.690	-21.875	-15.645	-40.81	0.630984	-0.363072	0.992836	-0.2355	0.5505	-0.489	0	355	423	1
2026-02-19	12:32:22.710	-63.525	-21.7	-50.225	0.59292	-0.446276	0.966484	-0.234	0.5445	-0.4845	0	355	423	1
2026-02-19	12:32:22.730	-110.005	-41.615	-58.205	0.792512	-0.417484	0.8906	-0.237	0.5415	-0.4845	0	355	423	1
2026-02-19	12:32:22.750	-125.86	-59.5	-67.515	1.124108	-0.325252	0.692228	-0.2475	0.543	-0.48	0	355	423	1
2026-02-19	12:32:22.770	-126.105	-39.69	-63.98	1.513288	-0.117852	0.207156	-0.255	0.5475	-0.4695	0	355	423	1
2026-02-19	12:32:22.790	-124.075	-0.735	-51.065	1.939312	0.473116	-0.15372	-0.258	0.5535	-0.462	0	355	423	1
2026-02-19	12:32:22.810	-98.49	32.025	-22.12	1.832928	0.119072	0.246684	-0.2595	0.558	-0.4635	0	345	421	3
2026-02-19	12:32:22.830	-36.19	30.66	30.695	1.233908	0.157868	0.56242	-0.2595	0.567	-0.4665	0	345	421	3
2026-02-19	12:32:22.850	7.595	26.53	64.225	0.93086	0.081008	0.599996	-0.2535	0.5775	-0.465	0	345	421	3
2026-02-19	12:32:22.870	10.745	21.35	87.92	0.794952	0.039528	0.502396	-0.246	0.5805	-0.4665	0	345	421	3
2026-02-19	12:32:22.890	22.995	21.14	100.03	0.74054	0.040992	0.482632	-0.24	0.591	-0.4665	0	345	421	3
2026-02-19	12:32:22.910	37.66	27.545	103.005	0.694424	0.040504	0.493612	-0.2355	0.6015	-0.468	0	345	421	3
2026-02-19	12:32:22.930	34.755	39.13	101.92	0.648308	0.010736	0.459696	-0.231	0.6045	-0.474	0	345	421	3
2026-02-19	12:32:22.950	13.65	49.805	94.5	0.625128	-0.054168	0.42334	-0.2235	0.609	-0.477	0	345	421	3
2026-02-19	12:32:22.970	-4.69	55.65	85.855	0.618296	-0.118096	0.336964	-0.216	0.6135	-0.483	0	345	421	3
2026-02-19	12:32:22.990	-12.985	57.295	77.56	0.614636	-0.213012	0.349164	-0.2085	0.627	-0.4905	0	345	421	3
2026-02-19	12:32:23.010	-15.82	52.71	70.315	0.632204	-0.289628	0.25132	-0.204	0.6405	-0.495	0	344	427	3
2026-02-19	12:32:23.030	-19.005	48.86	65.975	0.684176	-0.306708	0.20374	-0.1845	0.6465	-0.504	0	344	427	3
2026-02-19	12:32:23.050	-19.565	45.43	60.41	0.753716	-0.357948	0.219112	-0.177	0.657	-0.4995	0	344	427	3
2026-02-19	12:32:23.070	-15.82	41.37	54.355	0.84546	-0.38918	0.243268	-0.165	0.6705	-0.5025	0	344	427	3
2026-02-19	12:32:23.090	-11.305	36.085	50.89	0.851316	-0.364048	0.288896	-0.156	0.6675	-0.51	0	344	427	3
2026-02-19	12:32:23.110	-7.7	31.045	50.26	0.823744	-0.305488	0.309148	-0.1515	0.675	-0.522	0	344	427	3
2026-02-19	12:32:23.130	-5.6	27.055	49.63	0.792756	-0.249856	0.337696	-0.1395	0.687	-0.507	0	344	427	3
2026-02-19	12:32:23.150	3.5	22.925	47.985	0.780312	-0.16958	0.345016	-0.1335	0.6795	-0.513	0	344	427	3
2026-02-19	12:32:23.170	14.63	15.505	40.53	0.776408	-0.092232	0.343552	-0.1335	0.693	-0.513	0	344	427	3
2026-02-19	12:32:23.190	22.12	9.905	30.31	0.782508	-0.08174	0.402356	-0.1275	0.6915	-0.516	0	344	427	3
2026-02-19	12:32:23.210	24.535	7.14	22.68	0.817156	-0.070028	0.42822	-0.123	0.6915	-0.519	0	344	421	3
2026-02-19	12:32:23.230	19.915	6.37	13.475	0.82472	-0.038308	0.445056	-0.117	0.69	-0.522	0	344	421	3
2026-02-19	12:32:23.250	8.19	7.21	1.82	0.809836	-0.08418	0.46238	-0.1155	0.6945	-0.5235	0	344	421	3
2026-02-19	12:32:23.270	-9.135	5.425	-6.93	0.804468	-0.13054	0.461404	-0.1185	0.699	-0.519	0	344	421	3
2026-02-19	12:32:23.290	-22.785	2.345	-7.875	0.842532	-0.160308	0.447984	-0.117	0.696	-0.519	0	344	421	3
2026-02-19	12:32:23.310	-22.54	-3.71	-5.53	0.867908	-0.160064	0.40016	-0.117	0.699	-0.5205	0	344	421	3
2026-02-19	12:32:23.330	-4.62	-11.83	-0.455	0.859368	-0.140056	0.386496	-0.117	0.702	-0.5205	0	344	421	3
2026-02-19	12:32:23.350	17.64	-21.455	2.87	0.906704	-0.094184	0.371612	-0.1185	0.6975	-0.519	0	344	421	3
2026-02-19	12:32:23.370	29.225	-29.26	-1.785	0.972828	-0.065392	0.370636	-0.12	0.693	-0.5175	0	344	421	3
2026-02-19	12:32:23.390	28.245	-28.035	-9.835	1.744356	0.161284	0.044164	-0.1275	0.693	-0.516	0	344	421	3
2026-02-19	12:32:23.410	81.165	24.92	12.355	1.323944	-1.006744	1.293444	-0.1275	0.684	-0.51	0	342	414	3
2026-02-19	12:32:23.430	-25.655	-20.93	5.775	1.214876	0.106872	0.306952	-0.126	0.6825	-0.5175	0	342	414	3
2026-02-19	12:32:23.450	-36.645	-28.035	-4.2	0.806664	0.15006	0.180072	-0.132	0.684	-0.5205	0	342	414	3
2026-02-19	12:32:23.470	3.64	-18.655	-26.355	0.847656	-0.050264	0.463356	-0.1365	0.684	-0.5175	0	342	414	3
2026-02-19	12:32:23.490	21.14	-14.595	-35.525	0.915488	-0.171776	0.534116	-0.138	0.6855	-0.5145	0	342	414	3
2026-02-19	12:32:23.510	15.015	-8.715	-34.23	0.663924	-0.471652	0.648308	-0.1425	0.684	-0.5145	0	342	414	3
2026-02-19	12:32:23.530	10.57	-7.245	-32.375	0.619028	-0.59414	0.586332	-0.1425	0.678	-0.519	0	342	414	3
2026-02-19	12:32:23.550	9.24	-3.535	-28.385	0.632692	-0.657336	0.633668	-0.144	0.6765	-0.5205	0	342	414	3
2026-02-19	12:32:23.570	10.885	-9.66	-22.085	0.635132	-0.6344	0.668072	-0.1515	0.672	-0.5235	0	342	414	3
2026-02-19	12:32:23.590	7.21	-21.525	-13.685	0.635864	-0.648552	0.717604	-0.1515	0.6645	-0.519	0	342	414	3
2026-02-19	12:32:23.610	-4.55	-33.075	-8.33	0.681736	-0.55876	0.643428	-0.156	0.6645	-0.516	0	341	423	3
2026-02-19	12:32:23.630	9.03	-36.925	-6.23	0.802272	-0.233508	0.535824	-0.165	0.6615	-0.519	0	341	423	3
2026-02-19	12:32:23.650	26.74	-32.55	-11.095	0.857416	0.037088	0.60268	-0.1635	0.66	-0.519	0	341	423	3
2026-02-19	12:32:23.670	19.215	-23.59	-17.57	0.865224	0.178852	0.56364	-0.1695	0.6615	-0.516	0	341	423	3
2026-02-19	12:32:23.690	9.135	-15.295	-22.26	0.888648	0.188856	0.487512	-0.1755	0.6585	-0.513	0	341	423	3
2026-02-19	12:32:23.710	21.665	-12.845	-20.405	0.933056	0.05978	0.476288	-0.183	0.654	-0.5175	0	341	423	3
2026-02-19	12:32:23.730	37.275	-15.855	-16.275	0.9333	0.027328	0.552904	-0.189	0.648	-0.5175	0	341	423	3
2026-02-19	12:32:23.750	36.855	-12.005	-18.83	0.915244	0.10126	0.452376	-0.192	0.6405	-0.516	0	341	423	3
2026-02-19	12:32:23.770	25.515	-3.255	-29.365	0.890356	-0.053436	0.346236	-0.189	0.633	-0.5175	0	341	423	3
2026-02-19	12:32:23.790	16.17	1.33	-35.875	0.848388	-0.371612	0.268156	-0.192	0.63	-0.5205	0	341	423	3
2026-02-19	12:32:23.810	21.945	-2.555	-27.02	0.879132	-0.510692	0.1464	-0.198	0.6285	-0.519	0	341	444	3
2026-02-19	12:32:23.830	29.54	-8.89	-12.39	0.931836	-0.418216	0.01098	-0.1995	0.618	-0.522	0	341	444	3
2026-02-19	12:32:23.850	33.565	-11.48	-8.54	0.972584	-0.348432	0.119804	-0.1995	0.6105	-0.522	0	341	444	3
2026-02-19	12:32:23.870	21.595	-12.81	-12.74	0.922564	-0.342332	0.293532	-0.21	0.6075	-0.522	0	341	444	3
2026-02-19	12:32:23.890	0.91	-15.925	-15.575	0.833992	-0.283528	0.419192	-0.213	0.6045	-0.5205	0	341	444	3
2026-02-19	12:32:23.910	11.305	-17.045	-15.68	0.770796	-0.200812	0.636108	-0.21	0.606	-0.5175	0	341	444	3
2026-02-19	12:32:23.930	14.105	-17.395	-14.315	0.76006	-0.083448	0.831552	-0.2205	0.594	-0.519	0	341	444	3
2026-02-19	12:32:23.950	-7	-14.35	-18.9	0.767868	0.158112	0.861564	-0.2175	0.5865	-0.519	0	341	444	3
2026-02-19	12:32:23.970	-26.39	-9.205	-34.615	0.787632	0.040504	0.712724	-0.2265	0.591	-0.5175	0	341	444	3
2026-02-19	12:32:23.990	-28.35	-6.3	-44.17	0.787144	-0.162992	0.587064	-0.225	0.5925	-0.5145	0	341	444	3
2026-02-19	12:32:24.010	-27.615	-9.17	-40.25	0.884744	-0.188124	0.289384	-0.231	0.5895	-0.513	0	341	452	3
2026-02-19	12:32:24.030	-16.415	-13.16	-33.215	1.013332	-0.141276	-0.049776	-0.234	0.5865	-0.5085	0	341	452	3
2026-02-19	12:32:24.050	-0.07	-17.955	-31.57	0.991128	-0.305732	-0.032452	-0.2355	0.585	-0.5085	0	341	452	3
2026-02-19	12:32:24.070	5.46	-23.17	-20.895	0.964288	-0.284504	0.084668	-0.2385	0.5835	-0.5115	0	341	452	3
2026-02-19	12:32:24.090	10.255	-22.05	-6.37	0.976244	0.023424	0.166164	-0.2385	0.5835	-0.5115	0	341	452	3
2026-02-19	12:32:24.110	3.43	-16.52	-12.285	0.909876	0.163724	0.459696	-0.249	0.576	-0.5175	0	341	452	3
2026-02-19	12:32:24.130	-14.98	-13.265	-26.845	0.775432	0.03294	0.690764	-0.255	0.573	-0.5085	0	341	452	3
2026-02-19	12:32:24.150	-24.885	-16.03	-29.155	0.764208	0.04758	0.815448	-0.2535	0.573	-0.4995	0	341	452	3
2026-02-19	12:32:24.170	-28.98	-16.275	-27.93	0.812276	0.282796	0.698816	-0.261	0.5685	-0.501	0	341	452	3
2026-02-19	12:32:24.190	-36.785	-8.575	-41.51	0.87474	0.233508	0.513132	-0.258	0.564	-0.4935	0	341	452	3
2026-02-19	12:32:24.210	-54.285	-1.89	-54.565	0.916952	0.033428	0.329644	-0.2655	0.5595	-0.4905	0	342	446	3
2026-02-19	12:32:24.230	-56.07	-3.535	-51.17	1.019188	0.033428	0.052948	-0.2715	0.57	-0.4845	0	342	446	3
2026-02-19	12:32:24.250	-31.22	-6.79	-41.825	1.060424	0.054412	-0.046848	-0.267	0.567	-0.483	0	342	446	3
2026-02-19	12:32:24.270	-28.84	-7.595	-36.82	1.053104	-0.049532	0.034648	-0.2715	0.564	-0.474	0	342	446	3
2026-02-19	12:32:24.290	-33.635	-9.17	-27.58	1.064572	0.016836	0.000976	-0.276	0.5625	-0.468	0	342	446	3
2026-02-19	12:32:24.310	-25.34	-8.26	-24.815	1.0065	0.140056	0.148352	-0.2745	0.5625	-0.468	0	342	446	3
2026-02-19	12:32:24.330	-24.745	0.525	-38.22	0.89548	0.025376	0.502396	-0.273	0.567	-0.468	0	342	446	3
2026-02-19	12:32:24.350	-58.1	4.375	-49.77	0.8479	-0.023424	0.811544	-0.273	0.57	-0.4635	0	342	446	3
2026-02-19	12:32:24.370	-114.555	1.225	-58.8	0.748592	-0.20984	0.85278	-0.276	0.5655	-0.456	0	342	446	3
2026-02-19	12:32:24.390	-157.01	-26.46	-65.065	0.763476	-0.614392	0.960628	-0.276	0.57	-0.456	0	342	446	3
2026-02-19	12:32:24.410	-144.305	-52.36	-73.745	0.897432	-0.621224	0.937936	-0.2775	0.579	-0.4515	0	345	434	3
2026-02-19	12:32:24.430	-140.735	-53.06	-68.46	1.213412	-0.354044	0.631472	-0.282	0.5835	-0.4485	0	345	434	3
2026-02-19	12:32:24.450	-115.22	-6.72	-35.7	1.714832	-0.09272	0.249856	-0.282	0.5835	-0.4485	0	345	434	3
2026-02-19	12:32:24.470	-57.61	17.78	-9.275	1.741672	-0.270108	0.298656	-0.3045	0.5895	-0.42	0	345	434	3
2026-02-19	12:32:24.490	-47.915	19.74	7.84	1.31394	-0.015128	0.356728	-0.3075	0.594	-0.4305	0	345	434	3
2026-02-19	12:32:24.510	-9.835	27.265	33.635	0.984296	-0.065636	0.520208	-0.3015	0.606	-0.4215	0	345	434	3
2026-02-19	12:32:24.530	13.51	27.02	58.87	0.801784	-0.045384	0.538264	-0.2985	0.609	-0.4245	0	345	434	3
2026-02-19	12:32:24.550	20.86	26.075	80.815	0.841068	-0.132248	0.575108	-0.294	0.612	-0.4215	0	345	434	3
2026-02-19	12:32:24.570	32.795	32.585	93.73	0.778604	-0.050508	0.62586	-0.294	0.6255	-0.429	0	345	434	3
2026-02-19	12:32:24.590	46.76	35.735	106.19	0.728828	-0.045872	0.532652	-0.2775	0.639	-0.438	0	345	434	3
2026-02-19	12:32:24.610	36.155	38.64	113.61	0.674904	-0.10858	0.484584	-0.273	0.639	-0.4395	0	351	439	3
2026-02-19	12:32:24.630	20.65	44.415	112.42	0.641232	-0.146156	0.412116	-0.27	0.6405	-0.441	0	351	439	3
2026-02-19	12:32:24.650	10.71	46.9	109.655	0.608536	-0.249612	0.344284	-0.2535	0.663	-0.447	0	351	439	3
2026-02-19	12:32:24.670	8.225	45.08	105.77	0.560956	-0.281088	0.277428	-0.246	0.6735	-0.465	0	351	439	3
2026-02-19	12:32:24.690	14.525	40.075	101.92	0.5673	-0.26108	0.194224	-0.2355	0.687	-0.468	0	351	439	3
2026-02-19	12:32:24.710	24.395	38.57	98.42	0.630008	-0.32086	0.071492	-0.2235	0.6915	-0.4695	0	351	439	3
2026-02-19	12:32:24.730	41.09	35.7	96.25	0.712968	-0.334036	0.191052	-0.2175	0.705	-0.4815	0	351	439	3
2026-02-19	12:32:24.750	43.855	32.62	90.615	0.756644	-0.303536	0.223504	-0.204	0.714	-0.4905	0	351	439	3
2026-02-19	12:32:24.770	37.73	30.205	84.21	0.801052	-0.29768	0.190808	-0.204	0.7155	-0.495	0	351	439	3
2026-02-19	12:32:24.790	16.415	29.12	72.065	0.855464	-0.221064	0.244976	-0.1875	0.7155	-0.498	0	351	439	3
2026-02-19	12:32:24.810	5.005	25.69	60.865	0.891332	-0.216916	0.27328	-0.1785	0.7245	-0.5025	0	357	437	3
2026-02-19	12:32:24.830	8.61	21.525	53.76	0.869372	-0.2135	0.2867	-0.162	0.735	-0.51	0	357	437	3
2026-02-19	12:32:24.850	15.155	18.13	45.64	0.886208	-0.140056	0.2928	-0.1575	0.7395	-0.513	0	357	437	3
2026-02-19	12:32:24.870	16.205	8.75	36.89	0.878156	-0.161528	0.334036	-0.153	0.7485	-0.5145	0	357	437	3
2026-02-19	12:32:24.890	25.025	-4.41	30.275	0.85278	-0.184464	0.377468	-0.1455	0.7545	-0.5175	0	357	437	3
2026-02-19	12:32:24.910	52.64	-20.055	26.53	0.887428	-0.202764	0.37576	-0.1485	0.7545	-0.5175	0	357	437	3
2026-02-19	12:32:24.930	68.18	-30.1	20.825	0.892308	-0.145912	0.378444	-0.1515	0.7485	-0.5205	0	357	437	3
2026-02-19	12:32:24.950	58.52	-33.46	16.94	0.888404	-0.122976	0.290848	-0.147	0.747	-0.5235	0	357	437	3
2026-02-19	12:32:24.970	29.26	-28.63	8.225	0.902068	-0.05124	0.477996	-0.144	0.747	-0.5235	0	357	437	3
2026-02-19	12:32:24.990	12.635	-32.34	-2.205	0.928176	-0.04636	0.382836	-0.144	0.747	-0.5235	0	357	437	3
2026-02-19	12:32:25.010	8.715	-34.965	-12.18	0.964288	-0.01708	0.389424	-0.156	0.732	-0.525	0	358	418	3
2026-02-19	12:32:25.030	5.32	-28.77	-22.54	2.373388	0.058804	-0.170312	-0.1575	0.732	-0.5235	0	358	418	3
2026-02-19	12:32:25.050	10.29	25.375	4.375	1.3054	-0.874252	1.525	-0.159	0.7365	-0.513	0	358	418	3
2026-02-19	12:32:25.070	-12.355	-36.12	5.985	1.234884	0.313052	-0.05978	-0.1605	0.7335	-0.516	0	358	418	3
2026-02-19	12:32:25.090	8.855	-40.81	-7.315	0.935984	0.331108	0.279624	-0.1665	0.732	-0.513	0	358	418	3
2026-02-19	12:32:25.110	55.965	-30.625	-16.17	0.869616	0.004636	0.488976	-0.162	0.732	-0.513	0	358	418	3
2026-02-19	12:32:25.130	45.675	-27.09	-20.58	0.715164	-0.20374	0.571692	-0.171	0.729	-0.5265	0	358	418	3
2026-02-19	12:32:25.150	16.8	-17.5	-33.6	0.635864	-0.19032	0.556564	-0.183	0.7185	-0.516	0	358	418	3
2026-02-19	12:32:25.170	8.085	-12.495	-35.56	0.596092	-0.58926	0.64782	-0.1815	0.714	-0.519	0	358	418	3
2026-02-19	12:32:25.190	11.795	-7.63	-32.165	0.673196	-0.583892	0.6588	-0.1815	0.711	-0.5235	0	358	418	3
2026-02-19	12:32:25.210	7.175	-4.725	-28.28	0.642696	-0.53192	0.754204	-0.1905	0.705	-0.531	0	359	411	3
2026-02-19	12:32:25.230	-6.965	-4.025	-27.58	0.656116	-0.577304	0.797636	-0.192	0.7035	-0.5235	0	359	411	3
2026-02-19	12:32:25.250	-17.01	-5.145	-25.62	0.679052	-0.473116	0.630984	-0.198	0.6945	-0.5295	0	359	411	3
2026-02-19	12:32:25.270	-12.005	-9.555	-25.48	0.75884	-0.379908	0.493124	-0.2025	0.7065	-0.525	0	359	411	3
2026-02-19	12:32:25.290	1.54	-15.155	-23.765	0.8052	-0.277184	0.430904	-0.204	0.7005	-0.525	0	359	411	3
2026-02-19	12:32:25.310	8.26	-20.16	-21.28	0.8418	-0.119072	0.355752	-0.207	0.705	-0.5205	0	359	411	3
2026-02-19	12:32:25.330	11.13	-18.445	-20.3	0.917684	-0.092476	0.299632	-0.21	0.693	-0.5175	0	359	411	3
2026-02-19	12:32:25.350	19.95	-18.865	-18.48	0.92354	-0.024156	0.347944	-0.21	0.693	-0.519	0	359	411	3
2026-02-19	12:32:25.370	19.39	-19.075	-15.995	0.890844	0.066124	0.412604	-0.21	0.6915	-0.5205	0	359	411	3
2026-02-19	12:32:25.390	12.355	-14.14	-17.08	0.921344	0.006832	0.430904	-0.2205	0.684	-0.522	0	359	411	3
2026-02-19	12:32:25.410	14	-12.81	-16.94	0.939888	-0.055388	0.452132	-0.2265	0.6795	-0.519	0	361	425	3
2026-02-19	12:32:25.430	16.59	-16.345	-14.07	0.914512	0.0244	0.385764	-0.228	0.678	-0.5175	0	361	425	3
2026-02-19	12:32:25.450	17.29	-14.49	-16.625	0.878644	0.0061	0.411872	-0.231	0.675	-0.5205	0	361	425	3
2026-02-19	12:32:25.470	14.91	-12.915	-18.865	0.853024	-0.149084	0.52216	-0.2325	0.6735	-0.5175	0	361	425	3
2026-02-19	12:32:25.490	12.005	-14.28	-15.33	0.892064	-0.137372	0.459208	-0.2325	0.672	-0.5205	0	361	425	3
2026-02-19	12:32:25.510	6.72	-13.09	-16.625	0.91012	-0.173972	0.354288	-0.231	0.669	-0.5235	0	361	425	3
2026-02-19	12:32:25.530	-0.105	-17.29	-16.415	0.917196	-0.1769	0.31964	-0.2475	0.6645	-0.525	0	361	425	3
2026-02-19	12:32:25.550	-10.92	-23.17	-10.395	0.97356	-0.159332	0.258152	-0.255	0.66	-0.519	0	361	425	3
2026-02-19	12:32:25.570	-15.925	-23.03	-8.4	0.991372	0.020984	0.208864	-0.2535	0.6645	-0.516	0	361	425	3
2026-02-19	12:32:25.590	-9.415	-14.91	-14	0.978196	-0.076372	0.199836	-0.258	0.66	-0.519	0	361	425	3
2026-02-19	12:32:25.610	0.14	-9.94	-15.96	0.915976	-0.21228	0.268888	-0.2565	0.657	-0.516	0	359	433	3
2026-02-19	12:32:25.630	-3.675	-13.51	-10.64	0.897188	-0.18056	0.339892	-0.264	0.657	-0.5205	0	359	433	3
2026-02-19	12:32:25.650	-8.54	-14.385	-8.12	0.935984	-0.138592	0.320128	-0.2655	0.651	-0.5115	0	359	433	3
2026-02-19	12:32:25.670	4.935	-11.725	-13.51	0.843508	-0.199592	0.47458	-0.27	0.654	-0.5085	0	359	433	3
2026-02-19	12:32:25.690	-4.13	-11.55	-19.04	0.72346	-0.456524	0.595848	-0.2715	0.6495	-0.519	0	359	433	3
2026-02-19	12:32:25.710	-8.505	-16.66	-14.735	0.78202	-0.280356	0.550464	-0.276	0.6495	-0.513	0	359	433	3
2026-02-19	12:32:25.730	2.45	-16.59	-17.535	0.791536	-0.108336	0.595604	-0.282	0.648	-0.5085	0	359	433	3
2026-02-19	12:32:25.750	-1.96	-12.18	-29.365	0.72102	-0.260104	0.665632	-0.288	0.642	-0.5115	0	359	433	3
2026-02-19	12:32:25.770	-8.505	-7.84	-32.515	0.78324	-0.183488	0.560468	-0.291	0.639	-0.5115	0	359	433	3
2026-02-19	12:32:25.790	-9.03	-11.935	-31.955	0.827404	-0.017812	0.506788	-0.2955	0.6255	-0.504	0	359	433	3
2026-02-19	12:32:25.810	-20.23	-14.07	-34.265	0.910852	0.109312	0.321348	-0.2835	0.636	-0.501	0	352	431	3
2026-02-19	12:32:25.830	-24.185	-12.53	-39.06	0.997472	0.08174	0.233264	-0.2955	0.636	-0.5055	0	352	431	3
2026-02-19	12:32:25.850	-29.82	-13.3	-38.43	1.032608	0.086376	0.126148	-0.303	0.627	-0.5025	0	352	431	3
2026-02-19	12:32:25.870	-10.395	-10.29	-34.825	1.04676	0.082228	0.06832	-0.3	0.624	-0.4935	0	352	431	3
2026-02-19	12:32:25.890	-7.28	-9.31	-31.745	1.036756	0.00854	0.146888	-0.303	0.6195	-0.4905	0	352	431	3
2026-02-19	12:32:25.910	-16.8	-13.825	-23.73	1.038464	0.144936	0.016348	-0.3075	0.615	-0.486	0	352	431	3
2026-02-19	12:32:25.930	8.33	-16.065	-13.93	1.12484	0.3782	0.104432	-0.312	0.6165	-0.48	0	352	431	3
2026-02-19	12:32:25.950	25.095	-12.11	-15.365	1.035048	0.340868	0.3721	-0.312	0.6165	-0.474	0	352	431	3
2026-02-19	12:32:25.970	-3.99	-7.07	-21.105	0.933544	0.103944	0.43432	-0.312	0.6105	-0.474	0	352	431	3
2026-02-19	12:32:25.990	-17.745	-3.99	-22.785	0.93208	0.275476	0.450668	-0.318	0.6075	-0.477	0	352	431	3
2026-02-19	12:32:24.010	-27.615	-9.17	-40.25	0.884744	-0.188124	0.289384	-0.231	0.5895	-0.513	0	341	452	3
2026-02-19	12:32:24.030	-16.415	-13.16	-33.215	1.013332	-0.141276	-0.049776	-0.234	0.5865	-0.5085	0	341	452	3
2026-02-19	12:32:24.050	-0.07	-17.955	-31.57	0.991128	-0.305732	-0.032452	-0.2355	0.585	-0.5085	0	341	452	3
2026-02-19	12:32:24.070	5.46	-23.17	-20.895	0.964288	-0.284504	0.084668	-0.2385	0.5835	-0.5115	0	341	452	3
2026-02-19	12:32:24.090	10.255	-22.05	-6.37	0.976244	0.023424	0.166164	-0.2385	0.5835	-0.5115	0	341	452	3
2026-02-19	12:32:24.110	3.43	-16.52	-12.285	0.909876	0.163724	0.459696	-0.249	0.576	-0.5175	0	341	452	3
2026-02-19	12:32:24.130	-14.98	-13.265	-26.845	0.775432	0.03294	0.690764	-0.255	0.573	-0.5085	0	341	452	3
2026-02-19	12:32:24.150	-24.885	-16.03	-29.155	0.764208	0.04758	0.815448	-0.2535	0.573	-0.4995	0	341	452	3
2026-02-19	12:32:24.170	-28.98	-16.275	-27.93	0.812276	0.282796	0.698816	-0.261	0.5685	-0.501	0	341	452	3
2026-02-19	12:32:24.190	-36.785	-8.575	-41.51	0.87474	0.233508	0.513132	-0.258	0.564	-0.4935	0	341	452	3
2026-02-19	12:32:24.210	-54.285	-1.89	-54.565	0.916952	0.033428	0.329644	-0.2655	0.5595	-0.4905	0	342	446	3
2026-02-19	12:32:24.230	-56.07	-3.535	-51.17	1.019188	0.033428	0.052948	-0.2715	0.57	-0.4845	0	342	446	3
2026-02-19	12:32:24.250	-31.22	-6.79	-41.825	1.060424	0.054412	-0.046848	-0.267	0.567	-0.483	0	342	446	3
2026-02-19	12:32:24.270	-28.84	-7.595	-36.82	1.053104	-0.049532	0.034648	-0.2715	0.564	-0.474	0	342	446	3
2026-02-19	12:32:24.290	-33.635	-9.17	-27.58	1.064572	0.016836	0.000976	-0.276	0.5625	-0.468	0	342	446	3
2026-02-19	12:32:24.310	-25.34	-8.26	-24.815	1.0065	0.140056	0.148352	-0.2745	0.5625	-0.468	0	342	446	3
2026-02-19	12:32:24.330	-24.745	0.525	-38.22	0.89548	0.025376	0.502396	-0.273	0.567	-0.468	0	342	446	3
2026-02-19	12:32:24.350	-58.1	4.375	-49.77	0.8479	-0.023424	0.811544	-0.273	0.57	-0.4635	0	342	446	3
2026-02-19	12:32:24.370	-114.555	1.225	-58.8	0.748592	-0.20984	0.85278	-0.276	0.5655	-0.456	0	342	446	3
2026-02-19	12:32:24.390	-157.01	-26.46	-65.065	0.763476	-0.614392	0.960628	-0.276	0.57	-0.456	0	342	446	3
2026-02-19	12:32:24.410	-144.305	-52.36	-73.745	0.897432	-0.621224	0.937936	-0.2775	0.579	-0.4515	0	345	434	3
2026-02-19	12:32:24.430	-140.735	-53.06	-68.46	1.213412	-0.354044	0.631472	-0.282	0.5835	-0.4485	0	345	434	3
2026-02-19	12:32:24.450	-115.22	-6.72	-35.7	1.714832	-0.09272	0.249856	-0.282	0.5835	-0.4485	0	345	434	3
2026-02-19	12:32:24.470	-57.61	17.78	-9.275	1.741672	-0.270108	0.298656	-0.3045	0.5895	-0.42	0	345	434	3
2026-02-19	12:32:24.490	-47.915	19.74	7.84	1.31394	-0.015128	0.356728	-0.3075	0.594	-0.4305	0	345	434	3
2026-02-19	12:32:24.510	-9.835	27.265	33.635	0.984296	-0.065636	0.520208	-0.3015	0.606	-0.4215	0	345	434	3
2026-02-19	12:32:24.530	13.51	27.02	58.87	0.801784	-0.045384	0.538264	-0.2985	0.609	-0.4245	0	345	434	3
2026-02-19	12:32:24.550	20.86	26.075	80.815	0.841068	-0.132248	0.575108	-0.294	0.612	-0.4215	0	345	434	3
2026-02-19	12:32:24.570	32.795	32.585	93.73	0.778604	-0.050508	0.62586	-0.294	0.6255	-0.429	0	345	434	3
2026-02-19	12:32:24.590	46.76	35.735	106.19	0.728828	-0.045872	0.532652	-0.2775	0.639	-0.438	0	345	434	3
2026-02-19	12:32:24.610	36.155	38.64	113.61	0.674904	-0.10858	0.484584	-0.273	0.639	-0.4395	0	351	439	3
2026-02-19	12:32:24.630	20.65	44.415	112.42	0.641232	-0.146156	0.412116	-0.27	0.6405	-0.441	0	351	439	3
2026-02-19	12:32:24.650	10.71	46.9	109.655	0.608536	-0.249612	0.344284	-0.2535	0.663	-0.447	0	351	439	3
2026-02-19	12:32:24.670	8.225	45.08	105.77	0.560956	-0.281088	0.277428	-0.246	0.6735	-0.465	0	351	439	3
2026-02-19	12:32:24.690	14.525	40.075	101.92	0.5673	-0.26108	0.194224	-0.2355	0.687	-0.468	0	351	439	3
2026-02-19	12:32:24.710	24.395	38.57	98.42	0.630008	-0.32086	0.071492	-0.2235	0.6915	-0.4695	0	351	439	3
2026-02-19	12:32:24.730	41.09	35.7	96.25	0.712968	-0.334036	0.191052	-0.2175	0.705	-0.4815	0	351	439	3
2026-02-19	12:32:24.750	43.855	32.62	90.615	0.756644	-0.303536	0.223504	-0.204	0.714	-0.4905	0	351	439	3
2026-02-19	12:32:24.770	37.73	30.205	84.21	0.801052	-0.29768	0.190808	-0.204	0.7155	-0.495	0	351	439	3
2026-02-19	12:32:24.790	16.415	29.12	72.065	0.855464	-0.221064	0.244976	-0.1875	0.7155	-0.498	0	351	439	3
2026-02-19	12:32:24.810	5.005	25.69	60.865	0.891332	-0.216916	0.27328	-0.1785	0.7245	-0.5025	0	357	437	3
2026-02-19	12:32:24.830	8.61	21.525	53.76	0.869372	-0.2135	0.2867	-0.162	0.735	-0.51	0	357	437	3
2026-02-19	12:32:24.850	15.155	18.13	45.64	0.886208	-0.140056	0.2928	-0.1575	0.7395	-0.513	0	357	437	3
2026-02-19	12:32:24.870	16.205	8.75	36.89	0.878156	-0.161528	0.334036	-0.153	0.7485	-0.5145	0	357	437	3
2026-02-19	12:32:24.890	25.025	-4.41	30.275	0.85278	-0.184464	0.377468	-0.1455	0.7545	-0.5175	0	357	437	3
2026-02-19	12:32:24.910	52.64	-20.055	26.53	0.887428	-0.202764	0.37576	-0.1485	0.7545	-0.5175	0	357	437	3
2026-02-19	12:32:24.930	68.18	-30.1	20.825	0.892308	-0.145912	0.378444	-0.1515	0.7485	-0.5205	0	357	437	3
2026-02-19	12:32:24.950	58.52	-33.46	16.94	0.888404	-0.122976	0.290848	-0.147	0.747	-0.5235	0	357	437	3
2026-02-19	12:32:24.970	29.26	-28.63	8.225	0.902068	-0.05124	0.477996	-0.144	0.747	-0.5235	0	357	437	3
2026-02-19	12:32:24.990	12.635	-32.34	-2.205	0.928176	-0.04636	0.382836	-0.144	0.747	-0.5235	0	357	437	3
2026-02-19	12:32:27.010	-19.25	4.55	-35.84	0.920368	0.15494	0.536556	-0.3165	0.612	-0.474	0	342	418	3
2026-02-19	12:32:27.030	-37.695	11.13	-50.015	0.798368	-0.007076	0.667096	-0.3165	0.6135	-0.4725	0	342	418	3
2026-02-19	12:32:27.050	-86.205	3.185	-60.725	0.837408	-0.209596	0.635376	-0.321	0.6105	-0.4755	0	342	418	3
2026-02-19	12:32:27.070	-128.8	-14.35	-78.435	0.821304	-0.50386	0.487512	-0.321	0.6105	-0.4755	0	342	418	3
2026-02-19	12:32:27.090	-134.715	-30.94	-91.525	0.868396	-0.751764	0.454572	-0.3315	0.6105	-0.4635	0	342	418	3
2026-02-19	12:32:27.110	-121.765	-45.08	-82.18	0.998204	-0.885476	0.32208	-0.3315	0.6165	-0.4545	0	342	418	3
2026-02-19	12:32:27.130	-103.005	-39.41	-53.165	1.15412	-0.787144	0.0915	-0.336	0.609	-0.4395	0	342	418	3
2026-02-19	12:32:27.150	-86.94	-21.49	-23.905	1.304668	-0.577792	-0.094428	-0.3465	0.6135	-0.4305	0	342	418	3
2026-02-19	12:32:27.170	-26.285	2.135	0.385	1.744112	-0.326472	0.150548	-0.357	0.618	-0.4245	0	342	418	3
2026-02-19	12:32:27.190	22.995	5.985	30.17	1.443016	-0.02928	0.392108	-0.345	0.624	-0.4305	0	342	418	3
2026-02-19	12:32:27.210	33.145	3.185	51.94	1.315648	0.150304	0.50264	-0.351	0.621	-0.4305	0	338	405	3
2026-02-19	12:32:27.230	39.375	8.75	63.98	1.138504	0.347456	0.584136	-0.3465	0.627	-0.432	0	338	405	3
2026-02-19	12:32:27.250	29.785	22.96	71.925	0.927688	0.265472	0.778848	-0.339	0.63	-0.4305	0	338	405	3
2026-02-19	12:32:27.270	29.47	40.25	84.455	0.896212	0.177876	0.763232	-0.3315	0.6375	-0.438	0	338	405	3
2026-02-19	12:32:27.290	23.555	42.105	98.245	0.875472	0.054656	0.623664	-0.3225	0.651	-0.45	0	338	405	3
2026-02-19	12:32:27.310	19.53	45.08	106.855	0.868152	-0.085156	0.488732	-0.3135	0.657	-0.462	0	338	405	3
2026-02-19	12:32:27.330	16.485	49.315	109.83	0.809348	-0.155672	0.365512	-0.303	0.6705	-0.4725	0	338	405	3
2026-02-19	12:32:27.350	11.935	52.15	110.495	0.71614	-0.2196	0.335744	-0.3	0.6825	-0.477	0	338	405	3
2026-02-19	12:32:27.370	14.105	52.395	108.78	0.630984	-0.272548	0.266448	-0.2805	0.693	-0.48	0	338	405	3
2026-02-19	12:32:27.390	20.825	50.68	107.485	0.617808	-0.287188	0.159332	-0.267	0.7095	-0.4905	0	338	405	3
2026-02-19	12:32:27.410	24.045	49	104.895	0.589504	-0.390644	0.139812	-0.261	0.711	-0.4965	0	340	401	3
2026-02-19	12:32:27.430	26.46	44.31	103.25	0.628788	-0.433832	0.167384	-0.249	0.723	-0.5085	0	340	401	3
2026-02-19	12:32:27.450	26.32	41.405	103.39	0.690764	-0.477996	0.224724	-0.2385	0.729	-0.5085	0	340	401	3
2026-02-19	12:32:27.470	28.63	38.08	100.625	0.7991	-0.409188	0.26718	-0.2385	0.729	-0.5085	0	340	401	3
2026-02-19	12:32:27.490	28.21	34.86	95.06	0.816668	-0.370392	0.25864	-0.2145	0.741	-0.525	0	340	401	3
2026-02-19	12:32:27.510	29.645	30.065	85.925	0.77958	-0.288652	0.270108	-0.189	0.7575	-0.5445	0	340	401	3
2026-02-19	12:32:27.530	30.24	25.34	76.825	0.790316	-0.259128	0.311588	-0.1785	0.759	-0.5535	0	340	401	3
2026-02-19	12:32:27.550	28.56	21.315	67.235	0.816424	-0.238388	0.347944	-0.162	0.762	-0.561	0	340	401	3
2026-02-19	12:32:27.570	19.285	20.475	58.87	0.805688	-0.247904	0.374296	-0.1515	0.7665	-0.561	0	340	401	3
2026-02-19	12:32:27.590	13.265	20.02	50.925	0.798612	-0.24278	0.400404	-0.1455	0.7665	-0.567	0	340	401	3
2026-02-19	12:32:27.610	9.065	15.925	44.31	0.844484	-0.259616	0.41236	-0.138	0.7665	-0.5745	0	344	392	3
2026-02-19	12:32:27.630	8.75	10.43	37.415	0.92232	-0.264008	0.409188	-0.132	0.7725	-0.579	0	344	392	3
2026-02-19	12:32:27.650	11.235	5.635	33.705	0.948428	-0.274744	0.381616	-0.1275	0.777	-0.5805	0	344	392	3
2026-02-19	12:32:27.670	12.81	-5.005	28.91	0.874252	-0.23424	0.346236	-0.126	0.777	-0.5775	0	344	392	3
2026-02-19	12:32:27.690	13.16	-12.25	23.975	0.858392	-0.240828	0.345016	-0.1245	0.768	-0.588	0	344	392	3
2026-02-19	12:32:27.710	17.5	-18.27	19.005	0.872544	-0.256444	0.349652	-0.1215	0.7725	-0.588	0	344	392	3
2026-02-19	12:32:27.730	22.12	-20.125	13.93	0.90768	-0.252784	0.40382	-0.1245	0.774	-0.582	0	344	392	3
2026-02-19	12:32:27.750	26.95	-16.205	11.06	0.87352	-0.262056	0.451156	-0.1245	0.7725	-0.5865	0	344	392	3
2026-02-19	12:32:27.770	21.665	-14.14	4.935	0.854976	-0.259128	0.42456	-0.1275	0.765	-0.588	0	344	392	3
2026-02-19	12:32:27.790	3.29	-12.95	-3.29	0.783728	-0.255956	0.474824	-0.123	0.7605	-0.5835	0	344	392	3
2026-02-19	12:32:27.810	-17.99	-13.51	-11.235	0.785924	-0.280844	0.457012	-0.1305	0.768	-0.585	0	343	384	3
2026-02-19	12:32:27.830	-27.72	-13.93	-16.065	0.763476	-0.338184	0.48678	-0.1245	0.765	-0.5895	0	343	384	3
2026-02-19	12:32:27.850	-21.98	-16.03	-18.165	0.738344	-0.340624	0.492392	-0.1335	0.762	-0.591	0	343	384	3
2026-02-19	12:32:27.870	-6.79	-20.37	-21.525	0.720044	-0.35258	0.513132	-0.1455	0.7695	-0.579	0	343	384	3
2026-02-19	12:32:27.890	1.4	-23.31	-22.505	0.7076	-0.338184	0.488976	-0.153	0.765	-0.576	0	343	384	3
2026-02-19	12:32:27.910	5.18	-24.605	-21.14	0.682712	-0.349896	0.497516	-0.159	0.762	-0.573	0	343	384	3
2026-02-19	12:32:27.930	9.45	-27.685	-21.805	0.672952	-0.327448	0.49288	-0.1575	0.7635	-0.573	0	343	384	3
2026-02-19	12:32:27.950	15.33	-30.1	-24.885	0.689056	-0.316956	0.486048	-0.171	0.7575	-0.5715	0	343	384	3
2026-02-19	12:32:27.970	19.04	-31.78	-29.925	0.700768	-0.31842	0.485316	-0.1785	0.756	-0.57	0	343	384	3
2026-02-19	12:32:27.990	19.81	-32.34	-35.49	1.095316	-0.105652	0.574376	-0.18	0.753	-0.564	0	343	384	3
2026-02-19	12:32:28.010	-99.33	-38.15	-58.8	1.409588	-0.08418	0.505324	-0.375	0.5445	-0.4905	0	301	442	3
2026-02-19	12:32:28.030	-72.73	-14.385	-42.455	1.677012	0.23546	0.188368	-0.384	0.5475	-0.483	0	301	442	3
2026-02-19	12:32:28.050	-46.375	6.755	-16.8	1.459364	-0.073932	0.448716	-0.387	0.5565	-0.48	0	301	442	3
2026-02-19	12:32:28.070	-34.755	10.465	4.375	1.212436	-0.025864	0.31476	-0.387	0.5595	-0.4785	0	301	442	3
2026-02-19	12:32:28.090	-3.64	16.94	29.75	0.901092	-0.05612	0.418216	-0.387	0.5535	-0.48	0	301	442	3
2026-02-19	12:32:28.110	16.94	18.06	53.445	0.812764	-0.098088	0.399672	-0.3855	0.552	-0.483	0	301	442	3
2026-02-19	12:32:28.130	34.37	18.13	72.275	0.856684	-0.13786	0.398696	-0.3765	0.5595	-0.4845	0	301	442	3
2026-02-19	12:32:28.150	49	19.145	91.805	0.857904	-0.122732	0.40992	-0.3765	0.5595	-0.4845	0	301	442	3
2026-02-19	12:32:28.170	43.26	22.155	99.295	0.82594	-0.122488	0.432856	-0.3675	0.5685	-0.4905	0	301	442	3
2026-02-19	12:32:28.190	39.9	29.365	100.52	0.751764	-0.128832	0.449692	-0.3555	0.5865	-0.4965	0	301	442	3
2026-02-19	12:32:28.210	37.415	34.475	98.56	0.731268	-0.091744	0.367952	-0.3495	0.5955	-0.504	0	297	443	3
2026-02-19	12:32:28.230	25.9	39.55	91.945	0.69174	-0.171776	0.346968	-0.345	0.6015	-0.507	0	297	443	3
2026-02-19	12:32:28.250	15.505	40.74	84.805	0.66734	-0.139812	0.306708	-0.3345	0.609	-0.51	0	297	443	3
2026-02-19	12:32:28.270	14.49	40.705	78.085	0.645136	-0.24034	0.3843	-0.3255	0.621	-0.5205	0	297	443	3
2026-02-19	12:32:28.290	21.84	42.105	73.85	0.705648	-0.210816	0.279136	-0.318	0.633	-0.5235	0	297	443	3
2026-02-19	12:32:28.310	17.605	38.815	67.585	0.76128	-0.26108	0.238144	-0.306	0.6405	-0.528	0	297	443	3
2026-02-19	12:32:28.330	1.96	28.525	61.705	0.879376	-0.262788	0.294752	-0.303	0.645	-0.534	0	297	443	3
2026-02-19	12:32:28.350	3.36	21.665	61.495	0.948916	-0.2562	0.257908	-0.2925	0.654	-0.5355	0	297	443	3
2026-02-19	12:32:28.370	22.295	14.63	60.095	0.974292	-0.183976	0.240584	-0.2775	0.6615	-0.5385	0	297	443	3
2026-02-19	12:32:28.390	39.9	8.155	56.49	0.9699	-0.163236	0.257664	-0.2775	0.663	-0.543	0	297	443	3
2026-02-19	12:32:28.410	49.665	4.095	53.585	0.903776	-0.131516	0.311344	-0.27	0.669	-0.543	0	293	433	3
2026-02-19	12:32:28.430	50.19	1.435	50.26	0.872544	-0.09857599	0.323056	-0.261	0.669	-0.552	0	293	433	3
2026-02-19	12:32:28.450	45.395	0.49	43.47	0.876692	-0.050508	0.338672	-0.2565	0.6705	-0.552	0	293	433	3
2026-02-19	12:32:28.470	36.96	1.225	33.775	0.909144	-0.038796	0.372588	-0.255	0.666	-0.558	0	293	433	3
2026-02-19	12:32:28.490	24.325	2.135	23.065	0.880596	-0.057828	0.40748	-0.243	0.678	-0.5505	0	293	433	3
2026-02-19	12:32:28.510	6.195	0.945	11.76	0.815936	-0.078568	0.388692	-0.243	0.678	-0.5505	0	293	433	3
2026-02-19	12:32:28.530	0.175	-1.715	5.565	0.823012	-0.062952	0.39406	-0.2415	0.678	-0.552	0	293	433	3
2026-02-19	12:32:28.550	-7.035	-4.27	-1.085	0.887184	-0.068808	0.414068	-0.237	0.6765	-0.552	0	293	433	3
2026-02-19	12:32:28.570	-14.245	-4.935	-6.825	0.909388	-0.075884	0.408456	-0.2325	0.6765	-0.5505	0	293	433	3
2026-02-19	12:32:28.590	-17.325	-6.055	-11.9	0.890356	-0.081252	0.374296	-0.234	0.6765	-0.549	0	293	433	3
2026-02-19	12:32:28.610	-12.39	-9.135	-16.695	0.874008	-0.128344	0.377224	-0.2325	0.6765	-0.5475	0	287	416	3
2026-02-19	12:32:28.630	-8.365	-12.705	-19.95	0.896212	-0.131516	0.411628	-0.2385	0.675	-0.5445	0	287	416	3
2026-02-19	12:32:28.650	-11.025	-14.84	-21.665	0.89792	-0.132248	0.442372	-0.2475	0.6735	-0.54	0	287	416	3
2026-02-19	12:32:28.670	-12.53	-3.5	-24.955	1.552328	-0.260348	0.576572	-0.246	0.681	-0.543	0	287	416	3
2026-02-19	12:32:28.690	-47.215	4.725	-10.815	1.158024	-0.030256	0.317932	-0.2445	0.6825	-0.543	0	287	416	3
2026-02-19	12:32:28.710	-48.545	-5.74	-11.06	0.919636	0.043676	0.210572	-0.243	0.6795	-0.54	0	287	416	3
2026-02-19	12:32:28.730	-1.155	-9.17	-23.8	0.94062	-0.235948	0.341356	-0.24	0.684	-0.534	0	287	416	3
2026-02-19	12:32:28.750	31.29	-14.455	-25.48	0.870836	-0.201056	0.433832	-0.246	0.684	-0.531	0	287	416	3
2026-02-19	12:32:28.770	13.58	-19.915	-34.545	0.833504	-0.238876	0.492392	-0.2475	0.681	-0.528	0	287	416	3
2026-02-19	12:32:28.790	-4.83	-11.025	-34.79	0.62586	-0.469456	0.56974	-0.2505	0.6735	-0.5295	0	287	416	3
2026-02-19	12:32:28.810	-12.6	-8.4	-28.945	0.673196	-0.549244	0.569008	-0.255	0.6675	-0.531	0	277	407	3
2026-02-19	12:32:28.830	-5.53	-10.955	-15.05	0.711504	-0.52338	0.581208	-0.258	0.6675	-0.528	0	277	407	3
2026-02-19	12:32:28.850	10.675	-17.465	-3.15	0.77226	-0.412604	0.572912	-0.2625	0.6675	-0.5265	0	277	407	3
2026-02-19	12:32:28.870	23.415	-21.665	-3.71	0.84058	-0.095892	0.526064	-0.267	0.6675	-0.528	0	277	407	3
2026-02-19	12:32:28.890	22.82	-20.23	-11.76	0.853756	-0.063196	0.59292	-0.2625	0.663	-0.5235	0	277	407	3
2026-02-19	12:32:28.910	9.8	-17.745	-16.065	0.838384	-0.088572	0.596824	-0.2715	0.6615	-0.5265	0	277	407	3
2026-02-19	12:32:28.930	1.4	-13.09	-18.865	0.853756	-0.130296	0.538752	-0.276	0.657	-0.5355	0	277	407	3
2026-02-19	12:32:28.950	-1.155	-7.7	-21.49	0.828136	-0.082472	0.45506	-0.276	0.648	-0.522	0	277	407	3
2026-02-19	12:32:28.970	6.51	-7.14	-20.3	0.82106	-0.088328	0.463844	-0.282	0.6435	-0.5235	0	277	407	3
2026-02-19	12:32:28.990	23.275	-8.295	-13.545	0.854488	-0.104188	0.455548	-0.282	0.651	-0.528	0	277	407	3
2026-02-19	12:32:29.010	31.535	-4.48	-11.025	0.918416	-0.045628	0.468236	-0.285	0.645	-0.516	0	269	417	3
2026-02-19	12:32:29.030	20.65	-2.87	-15.82	0.955504	-0.022936	0.318176	-0.2895	0.6375	-0.5205	0	269	417	3
2026-02-19	12:32:29.050	16.31	-3.78	-22.82	0.91256	-0.24766	0.246196	-0.2895	0.6375	-0.5205	0	269	417	3
2026-02-19	12:32:29.070	25.83	-7.945	-18.13	0.8967	-0.40748	0.300608	-0.2925	0.633	-0.522	0	269	417	3
2026-02-19	12:32:29.090	22.96	-13.79	-10.815	0.883524	-0.308172	0.28548	-0.294	0.6255	-0.522	0	269	417	3
2026-02-19	12:32:29.110	23.24	-13.475	-11.585	0.880108	-0.24156	0.327936	-0.291	0.621	-0.5205	0	269	417	3
2026-02-19	12:32:29.130	19.88	-12.67	-19.39	0.781532	-0.457256	0.561444	-0.2925	0.6135	-0.5205	0	269	417	3
2026-02-19	12:32:29.150	4.445	-13.86	-18.06	0.74176	-0.427244	0.55632	-0.297	0.6105	-0.5175	0	269	417	3
2026-02-19	12:32:29.170	0.455	-14.175	-15.89	0.820328	-0.251076	0.399184	-0.3	0.6135	-0.516	0	269	417	3
2026-02-19	12:32:29.190	11.76	-14.315	-15.05	0.892796	-0.126392	0.389912	-0.3	0.606	-0.5175	0	269	417	3
2026-02-19	12:32:29.210	11.095	-18.445	-15.085	0.858636	-0.06734399	0.458476	-0.303	0.6	-0.5205	0	260	426	3
2026-02-19	12:32:29.230	-0.805	-14.49	-16.975	1.00528	0.111508	0.294264	-0.306	0.603	-0.5235	0	260	426	3
2026-02-19	12:32:29.250	-6.755	-8.68	-15.995	1.118984	0.280112	0.163236	-0.3015	0.5985	-0.519	0	260	426	3
2026-02-19	12:32:29.270	-7.035	-7.595	-13.72	1.128256	0.46604	0.139324	-0.303	0.5985	-0.5175	0	260	426	3
2026-02-19	12:32:29.290	-4.725	-7.735	-16.345	1.097024	0.351116	0.293776	-0.306	0.6	-0.5145	0	260	426	3
2026-02-19	12:32:29.310	-3.675	-7.385	-13.58	1.000888	0.124196	0.354532	-0.3	0.5985	-0.5145	0	260	426	3
2026-02-19	12:32:29.330	1.085	-8.295	-6.755	0.974536	0.159332	0.338672	-0.3015	0.591	-0.519	0	260	426	3
2026-02-19	12:32:29.350	12.215	-7.665	-7.77	0.898164	0.028792	0.47214	-0.3165	0.5835	-0.5175	0	260	426	3
2026-02-19	12:32:29.370	8.855	-3.045	-14.07	0.78568	-0.241072	0.585356	-0.3225	0.579	-0.516	0	260	426	3
2026-02-19	12:32:29.390	-8.4	-4.06	-15.925	0.746152	-0.460428	0.476532	-0.324	0.576	-0.5115	0	260	426	3
2026-02-19	12:32:29.410	-3.64	-8.435	-19.18	0.7503	-0.564372	0.408456	-0.327	0.5715	-0.5085	0	255	424	3
2026-02-19	12:32:29.430	-4.34	-11.55	-22.4	0.744932	-0.64294	0.467992	-0.3255	0.5715	-0.51	0	255	424	3
2026-02-19	12:32:29.450	-7.245	-16.695	-21.315	0.732	-0.63562	0.407236	-0.333	0.5715	-0.5085	0	255	424	3
2026-02-19	12:32:29.470	-6.93	-23.73	-18.375	0.769332	-0.58438	0.297436	-0.3375	0.576	-0.504	0	255	424	3
2026-02-19	12:32:29.490	-4.235	-28.35	-20.65	0.726632	-0.465064	0.39772	-0.33	0.57	-0.4965	0	255	424	3
2026-02-19	12:32:29.510	2.45	-27.475	-19.6	0.67588	0.083936	0.928176	-0.342	0.5715	-0.489	0	255	424	3
2026-02-19	12:32:29.530	-1.855	-25.62	-21.21	0.707112	0.57096	1.193892	-0.3435	0.567	-0.4845	0	255	424	3
2026-02-19	12:32:29.550	-50.645	-15.12	-43.085	0.83936	0.562664	0.710772	-0.354	0.5625	-0.4815	0	255	424	3
2026-02-19	12:32:29.570	-108.36	3.465	-73.78	1.047736	0.203984	-0.077348	-0.348	0.5595	-0.48	0	255	424	3
2026-02-19	12:32:29.590	-82.04	5.635	-75.46	1.211948	-0.214964	-0.437248	-0.348	0.5595	-0.48	0	255	424	3
2026-02-19	12:32:29.610	-34.44	-11.725	-43.05	1.091168	-0.165432	-0.216672	-0.3465	0.5625	-0.4725	0	258	424	3
2026-02-19	12:32:29.630	8.05	-31.01	-14.175	0.943304	0.403088	0.456768	-0.3465	0.5655	-0.4635	0	258	424	3
2026-02-19	12:32:29.650	13.93	-26.775	-23.31	0.79422	0.52582	1.03456	-0.3525	0.5655	-0.456	0	258	424	3
2026-02-19	12:32:29.670	-33.67	-6.02	-52.745	0.787388	0.094184	0.711748	-0.3555	0.5655	-0.4515	0	258	424	3
2026-02-19	12:32:29.690	-87.99	-8.225	-66.71	0.91256	-0.150548	0.403576	-0.3615	0.5595	-0.4515	0	258	424	3
2026-02-19	12:32:29.710	-106.68	-20.86	-73.29	0.99796	-0.274744	0.34404	-0.3645	0.558	-0.4455	0	258	424	3
2026-02-19	12:32:29.730	-100.03	-42.035	-74.55	1.0614	-0.309148	0.36356	-0.3675	0.5625	-0.4395	0	258	424	3
2026-02-19	12:32:29.750	-66.185	-51.065	-50.89	1.374452	-0.4636	0.38552	-0.3735	0.5625	-0.4335	0	258	424	3
2026-02-19	12:32:29.770	-48.51	-35.21	-21.875	1.586244	0.063684	0.05368	-0.375	0.5625	-0.4305	0	258	424	3
2026-02-19	12:32:29.790	-28.14	-11.06	-0.98	1.951756	0.163724	0.240584	-0.3765	0.5595	-0.423	0	258	424	3
2026-02-19	12:32:29.810	4.97	7.595	27.335	1.366888	0.191296	0.738344	-0.381	0.567	-0.411	0	273	423	3
2026-02-19	12:32:29.830	5.11	16.8	47.74	1.13582	0.057584	0.721508	-0.3765	0.5655	-0.42	0	273	423	3
2026-02-19	12:32:29.850	7.315	26.565	62.475	0.998448	-0.029036	0.635376	-0.372	0.57	-0.4215	0	273	423	3
2026-02-19	12:32:29.870	11.2	33.845	76.475	0.937204	-0.036844	0.460184	-0.3645	0.579	-0.4245	0	273	423	3
2026-02-19	12:32:29.890	16.03	39.725	86.94	0.838872	0.01586	0.414312	-0.3615	0.591	-0.4305	0	273	423	3
2026-02-19	12:32:29.910	19.32	47.6	95.55	0.760548	-0.087352	0.36722	-0.351	0.6	-0.438	0	273	423	3
2026-02-19	12:32:29.930	15.12	56.175	97.545	0.706624	-0.175436	0.337696	-0.336	0.609	-0.447	0	273	423	3
2026-02-19	12:32:29.950	9.87	60.445	95.165	0.613172	-0.205936	0.287676	-0.3315	0.6135	-0.4545	0	273	423	3
2026-02-19	12:32:29.970	13.195	58.695	87.255	0.518744	-0.160796	0.222284	-0.3135	0.645	-0.4695	0	273	423	3
2026-02-19	12:32:29.990	22.785	59.955	67.165	0.463356	-0.209596	0.01342	-0.3	0.6525	-0.48	0	273	423	3
2026-02-19	12:32:30.010	11.655	61.845	42	0.491172	-0.224724	0.19886	-0.282	0.669	-0.4935	0	294	421	3
2026-02-19	12:32:30.030	-34.58	60.165	26.775	0.693204	-0.410896	0.299388	-0.2745	0.6615	-0.4995	0	294	421	3
2026-02-19	12:32:30.050	-76.44	63.175	23.94	0.791536	-0.443104	0.310856	-0.276	0.666	-0.5145	0	294	421	3
2026-02-19	12:32:30.070	-67.41	56.315	32.095	0.89426	-0.4148	0.201056	-0.252	0.6885	-0.5025	0	294	421	3
2026-02-19	12:32:30.090	-14.455	37.345	47.18	0.989908	-0.214964	0.060024	-0.2445	0.693	-0.51	0	294	421	3
2026-02-19	12:32:30.110	48.965	6.195	61.67	1.10044	-0.098332	0.147132	-0.228	0.7035	-0.5145	0	294	421	3
2026-02-19	12:32:30.130	94.955	-14.035	72.555	1.080432	0.132492	0.230824	-0.228	0.7035	-0.5145	0	294	421	3
2026-02-19	12:32:30.150	101.71	-18.865	71.33	1.00406	0.258884	0.227896	-0.2175	0.702	-0.522	0	294	421	3
2026-02-19	12:32:30.170	92.61	-15.4	57.12	0.908168	0.241316	0.310368	-0.2025	0.705	-0.5325	0	294	421	3
2026-02-19	12:32:30.190	74.795	-8.05	42.875	0.810568	0.143472	0.41358	-0.195	0.7005	-0.537	0	294	421	3
2026-02-19	12:32:30.210	46.445	-1.155	31.325	0.78446	0.11224	0.39528	-0.1875	0.6945	-0.5415	0	315	400	3
2026-02-19	12:32:30.230	12.355	3.36	22.05	0.773236	0.033428	0.357704	-0.186	0.6885	-0.5475	0	315	400	3
2026-02-19	12:32:30.250	-14.245	4.515	12.04	0.809104	0.006344	0.320128	-0.1905	0.6825	-0.5505	0	315	400	3
2026-02-19	12:32:30.270	-29.75	2.275	1.33	0.844972	0.018056	0.285724	-0.1815	0.6855	-0.5505	0	315	400	3
2026-02-19	12:32:30.290	-38.5	-3.15	-8.61	0.851804	-0.031476	0.303048	-0.174	0.693	-0.5445	0	315	400	3
2026-02-19	12:32:30.310	23.03	27.685	2.625	1.743624	-1.049444	0.941596	-0.1785	0.699	-0.5385	0	315	400	3
2026-02-19	12:32:30.330	-2.695	-10.85	8.645	1.720932	0.30866	0.161772	-0.177	0.6945	-0.543	0	315	400	3
2026-02-19	12:32:30.350	-0.21	-37.835	13.195	1.01382	0.554124	0.255468	-0.1725	0.699	-0.5415	0	315	400	3
2026-02-19	12:32:30.370	35.035	-40.6	-10.325	0.83204	-0.07686	0.437004	-0.186	0.6915	-0.5355	0	315	400	3
2026-02-19	12:32:30.390	52.815	-38.36	-10.5	0.817156	-0.042944	0.483608	-0.1845	0.6885	-0.5295	0	315	400	3
2026-02-19	12:32:30.410	41.09	-25.34	-16.485	0.856684	-0.17568	0.574376	-0.192	0.6795	-0.5385	0	333	382	3
2026-02-19	12:32:30.430	13.3	-13.16	-19.39	0.829844	-0.056608	0.411628	-0.192	0.6795	-0.5385	0	333	382	3
2026-02-19	12:32:30.450	-3.92	-5.215	-23.415	0.793976	-0.262056	0.492392	-0.192	0.6735	-0.537	0	333	382	3
2026-02-19	12:32:30.470	7.28	-5.775	-19.6	0.764452	-0.356972	0.565592	-0.1965	0.6705	-0.5325	0	333	382	3
2026-02-19	12:32:30.490	28.07	-9.205	-17.885	0.768844	-0.409676	0.648064	-0.2025	0.6735	-0.531	0	333	382	3
2026-02-19	12:32:30.510	26.67	-8.12	-19.355	0.720532	-0.362828	0.748348	-0.207	0.6645	-0.537	0	333	382	3
2026-02-19	12:32:30.530	6.755	-7.77	-18.97	0.701744	-0.344772	0.706136	-0.201	0.66	-0.5415	0	333	382	3
2026-02-19	12:32:30.550	0.455	-5.74	-19.775	0.739564	-0.290116	0.65758	-0.2145	0.66	-0.5505	0	333	382	3
2026-02-19	12:32:30.570	8.4	-5.705	-19.25	0.81374	-0.178852	0.613416	-0.204	0.6495	-0.5415	0	333	382	3
2026-02-19	12:32:30.590	11.095	-8.505	-21.7	0.835456	-0.100528	0.551928	-0.2055	0.6525	-0.543	0	333	382	3
2026-02-19	12:32:30.610	-0.035	-8.96	-26.425	0.861564	-0.120048	0.517524	-0.2115	0.6405	-0.5415	0	348	391	3
2026-02-19	12:32:30.630	-13.58	-8.26	-29.33	0.862296	-0.143472	0.381128	-0.2145	0.6405	-0.534	0	348	391	3
2026-02-19	12:32:30.650	-10.185	-10.15	-24.22	0.893284	-0.175192	0.238876	-0.2205	0.6405	-0.5415	0	348	391	3
2026-02-19	12:32:30.670	1.75	-11.655	-10.885	0.965996	-0.104432	0.11834	-0.219	0.6405	-0.537	0	348	391	3
2026-02-19	12:32:30.690	5.6	-10.85	-4.305	1.0553	0.011468	0.032452	-0.2235	0.639	-0.537	0	348	391	3
2026-02-19	12:32:30.710	9.765	-8.575	-5.355	1.119472	-0.028548	-0.011712	-0.228	0.6375	-0.537	0	348	391	3
2026-02-19	12:32:30.730	14.21	-10.465	-1.05	1.08458	-0.128832	-0.041236	-0.2235	0.6345	-0.531	0	348	391	3
2026-02-19	12:32:30.750	14.14	-12.425	4.795	1.084092	-0.11712	-0.008052	-0.2235	0.633	-0.531	0	348	391	3
2026-02-19	12:32:30.770	14.035	-13.685	9.625	1.07848	0.021716	0.042456	-0.231	0.6315	-0.5325	0	348	391	3
2026-02-19	12:32:30.790	40.425	-20.055	11.83	0.982832	0.034648	0.338184	-0.228	0.63	-0.537	0	348	391	3
2026-02-19	12:32:30.810	43.75	-25.97	11.585	0.841312	-0.151036	0.621224	-0.2205	0.627	-0.54	0	358	399	3
2026-02-19	12:32:30.830	8.75	-18.235	1.855	0.800076	-0.060756	0.796416	-0.2265	0.621	-0.54	0	358	399	3
2026-02-19	12:32:30.850	2.835	-4.76	-13.37	0.719312	-0.182756	0.826916	-0.2295	0.618	-0.54	0	358	399	3
2026-02-19	12:32:30.870	9.66	-7.385	-16.275	0.643672	-0.390644	0.853512	-0.2265	0.6225	-0.546	0	358	399	3
2026-02-19	12:32:30.890	10.815	-8.155	-11.375	0.740784	-0.157624	0.757132	-0.2385	0.618	-0.537	0	358	399	3
2026-02-19	12:32:30.910	-1.645	-5.46	-15.47	0.84668	0.059048	0.532896	-0.243	0.6135	-0.549	0	358	399	3
2026-02-19	12:32:30.930	1.26	-6.335	-24.535	0.841556	-0.089304	0.560224	-0.2535	0.6195	-0.546	0	358	399	3
2026-02-19	12:32:30.950	13.335	-2.905	-25.025	0.83814	-0.057096	0.532408	-0.2415	0.615	-0.5475	0	358	399	3
2026-02-19	12:32:30.970	6.965	-0.735	-24.29	0.976976	-0.043432	0.260592	-0.246	0.603	-0.5355	0	358	399	3
2026-02-19	12:32:30.990	-19.355	-5.81	-28.63	1.016016	-0.056852	0.049776	-0.2415	0.5985	-0.54	0	358	399	3
2026-02-19	12:32:31.010	-6.37	-9.975	-25.515	0.964288	-0.281576	0.101748	-0.243	0.5925	-0.5385	0	363	406	3
2026-02-19	12:32:31.030	4.445	-13.58	-18.935	0.900116	-0.6039	0.03904	-0.246	0.5865	-0.5385	0	363	406	3
2026-02-19	12:32:31.050	9.1	-23.17	-8.68	0.848632	-0.66002	0.152256	-0.2505	0.591	-0.537	0	363	406	3
2026-02-19	12:32:31.070	19.565	-36.015	8.26	0.881328	-0.172996	0.300364	-0.2535	0.5925	-0.528	0	363	406	3
2026-02-19	12:32:31.090	24.01	-35.56	9.66	0.859856	0.23668	0.608292	-0.267	0.5805	-0.5265	0	363	406	3
2026-02-19	12:32:31.110	0.28	-18.025	-11.235	0.797636	0.144936	0.757864	-0.2655	0.591	-0.525	0	363	406	3
2026-02-19	12:32:31.130	-32.69	-9.24	-21.315	0.839848	0.078568	0.674904	-0.2745	0.576	-0.522	0	363	406	3
2026-02-19	12:32:31.150	-26.74	-10.885	-17.885	0.893528	0.346968	0.630252	-0.273	0.5775	-0.513	0	363	406	3
2026-02-19	12:32:31.170	-23.065	-14.455	-20.545	0.897432	0.36234	0.69052	-0.2715	0.576	-0.5175	0	363	406	3
2026-02-19	12:32:31.190	-34.825	-4.62	-35.875	0.9333	0.214232	0.432368	-0.2715	0.5775	-0.5085	0	363	406	3
2026-02-19	12:32:31.210	-44.59	-5.425	-38.955	0.964288	-0.113704	0.130052	-0.2715	0.5805	-0.504	0	366	410	3
2026-02-19	12:32:31.230	-19.915	-14.035	-32.06	0.915976	-0.324032	0.107604	-0.27	0.588	-0.4965	0	366	410	3
2026-02-19	12:32:31.250	-11.235	-17.395	-27.86	0.901092	-0.415776	0.05002	-0.2745	0.591	-0.4935	0	366	410	3
2026-02-19	12:32:31.270	-11.025	-19.32	-25.585	0.919148	-0.307684	0.012688	-0.2805	0.585	-0.492	0	366	410	3
2026-02-19	12:32:31.290	2.555	-20.195	-26.775	0.911828	-0.19398	0.207644	-0.282	0.582	-0.4935	0	366	410	3
2026-02-19	12:32:31.310	2.205	-19.11	-29.19	0.844972	-0.15616	0.324032	-0.285	0.5805	-0.4875	0	366	410	3
2026-02-19	12:32:31.330	-14.805	-17.43	-34.02	0.89182	-0.04148	0.421876	-0.285	0.576	-0.4815	0	366	410	3
2026-02-19	12:32:31.350	-26.915	-16.695	-39.34	0.900116	0.082472	0.504348	-0.2835	0.5745	-0.474	0	366	410	3
2026-02-19	12:32:31.370	-51.765	-14.63	-56	0.864004	-0.128344	0.576816	-0.2865	0.5745	-0.468	0	366	410	3
2026-02-19	12:32:31.390	-86.31	-27.23	-70.49	0.852292	-0.3233	0.609024	-0.288	0.576	-0.471	0	366	410	3
2026-02-19	12:32:31.410	-94.745	-44.135	-69.02	1.035536	-0.453108	0.532896	-0.2925	0.576	-0.456	0	367	405	3
2026-02-19	12:32:31.430	-76.72	-43.295	-59.08	1.253184	-0.47336	0.327692	-0.309	0.57	-0.456	0	367	405	3
2026-02-19	12:32:31.450	-65.38	-30.52	-37.87	1.463024	0.010004	0.000488	-0.303	0.5745	-0.447	0	367	405	3
2026-02-19	12:32:31.470	-54.705	-5.985	-14.875	2.100108	-0.12444	0.113704	-0.309	0.5805	-0.4395	0	367	405	3
2026-02-19	12:32:31.490	-19.985	20.545	17.465	1.557208	0.125416	0.60756	-0.309	0.5835	-0.441	0	367	405	3
2026-02-19	12:32:31.510	-16.975	26.775	49.595	1.309792	0.205936	0.654896	-0.3075	0.5805	-0.444	0	367	405	3
2026-02-19	12:32:31.530	13.79	31.29	79.31	1.053592	0.241316	0.809836	-0.3015	0.5865	-0.4485	0	367	405	3
2026-02-19	12:32:31.550	12.39	39.515	99.365	0.947452	0.155916	0.623664	-0.294	0.597	-0.447	0	367	405	3
2026-02-19	12:32:31.570	10.395	49.735	112.035	0.854488	0.024888	0.499956	-0.294	0.597	-0.447	0	367	405	3
2026-02-19	12:32:31.590	10.115	56.035	117.145	0.868152	-0.167872	0.438712	-0.279	0.6225	-0.4635	0	367	405	3
2026-02-19	12:32:31.610	10.36	55.755	115.955	0.696376	0.038552	0.283528	-0.27	0.633	-0.4665	0	369	403	3
2026-02-19	12:32:31.630	1.995	58.73	110.145	0.79544	-0.166408	0.318908	-0.2565	0.636	-0.4755	0	369	403	3
2026-02-19	12:32:31.650	4.83	63.49	109.585	0.758108	-0.272548	0.31842	-0.2385	0.66	-0.4845	0	369	403	3
2026-02-19	12:32:31.670	-0.77	65.24	108.01	0.831064	-0.3111	0.222528	-0.231	0.6705	-0.4995	0	369	403	3
2026-02-19	12:32:31.690	-4.865	65.59	105.525	0.833016	-0.324032	0.10126	-0.207	0.6705	-0.501	0	369	403	3
2026-02-19	12:32:31.710	-11.375	65.485	102.935	0.788608	-0.325252	0.22326	-0.1995	0.6885	-0.5205	0	369	403	3
2026-02-19	12:32:31.730	-18.865	62.65	99.085	0.709064	-0.324764	0.214476	-0.1905	0.69	-0.513	0	369	403	3
2026-02-19	12:32:31.750	-10.5	57.4	94.15	0.6405	-0.353556	0.199348	-0.1755	0.7005	-0.5205	0	369	403	3
2026-02-19	12:32:31.770	8.47	48.405	91.175	0.620492	-0.332084	0.209108	-0.1545	0.7185	-0.5325	0	369	403	3
2026-02-19	12:32:31.790	28.28	37.415	87.29	0.62342	-0.31842	0.240828	-0.1395	0.723	-0.54	0	369	403	3
2026-02-19	12:32:31.810	40.005	27.79	81.27	0.632448	-0.263276	0.275232	-0.126	0.7245	-0.549	0	371	397	3
2026-02-19	12:32:31.830	36.715	21.07	73.15	0.65148	-0.250344	0.35746	-0.1125	0.7275	-0.549	0	371	397	3
2026-02-19	12:32:31.850	24.64	17.675	63.21	0.6893	-0.249856	0.418704	-0.096	0.732	-0.5505	0	371	397	3
2026-02-19	12:32:31.870	10.605	17.71	51.905	0.74176	-0.256688	0.463844	-0.09	0.7365	-0.5535	0	371	397	3
2026-02-19	12:32:31.890	-4.76	18.725	39.69	0.842776	-0.245464	0.444324	-0.084	0.735	-0.558	0	371	397	3
2026-02-19	12:32:31.910	-12.95	14.805	26.215	0.881816	-0.224236	0.366488	-0.078	0.735	-0.564	0	371	397	3
2026-02-19	12:32:31.930	-5.845	5.25	17.045	0.884256	-0.242292	0.304024	-0.078	0.735	-0.564	0	371	397	3
2026-02-19	12:32:31.950	10.71	-3.15	13.72	0.915	-0.287676	0.331352	-0.0645	0.7455	-0.5535	0	371	397	3
2026-02-19	12:32:31.970	25.515	-10.92	11.97	0.971852	-0.305	0.34526	-0.069	0.7455	-0.5535	0	371	397	3
2026-02-19	12:32:31.990	30.59	-18.305	11.585	0.93696	-0.303292	0.390644	-0.0645	0.735	-0.552	0	371	397	3
2026-02-19	12:32:30.010	11.655	61.845	42	0.491172	-0.224724	0.19886	-0.282	0.669	-0.4935	0	294	421	3
2026-02-19	12:32:30.030	-34.58	60.165	26.775	0.693204	-0.410896	0.299388	-0.2745	0.6615	-0.4995	0	294	421	3
2026-02-19	12:32:30.050	-76.44	63.175	23.94	0.791536	-0.443104	0.310856	-0.276	0.666	-0.5145	0	294	421	3
2026-02-19	12:32:30.070	-67.41	56.315	32.095	0.89426	-0.4148	0.201056	-0.252	0.6885	-0.5025	0	294	421	3
2026-02-19	12:32:30.090	-14.455	37.345	47.18	0.989908	-0.214964	0.060024	-0.2445	0.693	-0.51	0	294	421	3
2026-02-19	12:32:30.110	48.965	6.195	61.67	1.10044	-0.098332	0.147132	-0.228	0.7035	-0.5145	0	294	421	3
2026-02-19	12:32:30.130	94.955	-14.035	72.555	1.080432	0.132492	0.230824	-0.228	0.7035	-0.5145	0	294	421	3
2026-02-19	12:32:30.150	101.71	-18.865	71.33	1.00406	0.258884	0.227896	-0.2175	0.702	-0.522	0	294	421	3
2026-02-19	12:32:30.170	92.61	-15.4	57.12	0.908168	0.241316	0.310368	-0.2025	0.705	-0.5325	0	294	421	3
2026-02-19	12:32:30.190	74.795	-8.05	42.875	0.810568	0.143472	0.41358	-0.195	0.7005	-0.537	0	294	421	3
2026-02-19	12:32:30.210	46.445	-1.155	31.325	0.78446	0.11224	0.39528	-0.1875	0.6945	-0.5415	0	315	400	3
2026-02-19	12:32:30.230	12.355	3.36	22.05	0.773236	0.033428	0.357704	-0.186	0.6885	-0.5475	0	315	400	3
2026-02-19	12:32:30.250	-14.245	4.515	12.04	0.809104	0.006344	0.320128	-0.1905	0.6825	-0.5505	0	315	400	3
2026-02-19	12:32:30.270	-29.75	2.275	1.33	0.844972	0.018056	0.285724	-0.1815	0.6855	-0.5505	0	315	400	3
2026-02-19	12:32:30.290	-38.5	-3.15	-8.61	0.851804	-0.031476	0.303048	-0.174	0.693	-0.5445	0	315	400	3
2026-02-19	12:32:30.310	23.03	27.685	2.625	1.743624	-1.049444	0.941596	-0.1785	0.699	-0.5385	0	315	400	3
2026-02-19	12:32:30.330	-2.695	-10.85	8.645	1.720932	0.30866	0.161772	-0.177	0.6945	-0.543	0	315	400	3
2026-02-19	12:32:30.350	-0.21	-37.835	13.195	1.01382	0.554124	0.255468	-0.1725	0.699	-0.5415	0	315	400	3
2026-02-19	12:32:30.370	35.035	-40.6	-10.325	0.83204	-0.07686	0.437004	-0.186	0.6915	-0.5355	0	315	400	3
2026-02-19	12:32:30.390	52.815	-38.36	-10.5	0.817156	-0.042944	0.483608	-0.1845	0.6885	-0.5295	0	315	400	3
2026-02-19	12:32:30.410	41.09	-25.34	-16.485	0.856684	-0.17568	0.574376	-0.192	0.6795	-0.5385	0	333	382	3
2026-02-19	12:32:30.430	13.3	-13.16	-19.39	0.829844	-0.056608	0.411628	-0.192	0.6795	-0.5385	0	333	382	3
2026-02-19	12:32:30.450	-3.92	-5.215	-23.415	0.793976	-0.262056	0.492392	-0.192	0.6735	-0.537	0	333	382	3
2026-02-19	12:32:30.470	7.28	-5.775	-19.6	0.764452	-0.356972	0.565592	-0.1965	0.6705	-0.5325	0	333	382	3
2026-02-19	12:32:30.490	28.07	-9.205	-17.885	0.768844	-0.409676	0.648064	-0.2025	0.6735	-0.531	0	333	382	3
2026-02-19	12:32:30.510	26.67	-8.12	-19.355	0.720532	-0.362828	0.748348	-0.207	0.6645	-0.537	0	333	382	3
2026-02-19	12:32:30.530	6.755	-7.77	-18.97	0.701744	-0.344772	0.706136	-0.201	0.66	-0.5415	0	333	382	3
2026-02-19	12:32:30.550	0.455	-5.74	-19.775	0.739564	-0.290116	0.65758	-0.2145	0.66	-0.5505	0	333	382	3
2026-02-19	12:32:30.570	8.4	-5.705	-19.25	0.81374	-0.178852	0.613416	-0.204	0.6495	-0.5415	0	333	382	3
2026-02-19	12:32:30.590	11.095	-8.505	-21.7	0.835456	-0.100528	0.551928	-0.2055	0.6525	-0.543	0	333	382	3
2026-02-19	12:32:34.610	-17.255	54.985	73.115	0.590724	-0.262056	0.157868	-0.1965	0.6765	-0.4605	0	442	336	3
2026-02-19	12:32:34.630	-19.075	50.435	64.785	0.611952	-0.288652	0.181048	-0.1605	0.7035	-0.4815	0	442	336	3
2026-02-19	12:32:34.650	-15.085	43.995	58.905	0.707844	-0.344528	0.22936	-0.147	0.708	-0.4815	0	442	336	3
2026-02-19	12:32:34.670	-5.25	36.26	55.125	0.806664	-0.379908	0.25986	-0.147	0.711	-0.4815	0	442	336	3
2026-02-19	12:32:34.690	5.18	26.705	52.15	0.818864	-0.360388	0.325252	-0.1395	0.714	-0.486	0	442	336	3
2026-02-19	12:32:34.710	9.765	17.36	48.79	0.7808	-0.337696	0.35624	-0.129	0.7155	-0.4875	0	442	336	3
2026-02-19	12:32:34.730	15.89	8.785	43.12	0.771528	-0.266204	0.394548	-0.12	0.723	-0.4875	0	442	336	3
2026-02-19	12:32:34.750	26.565	-0.875	36.68	0.833748	-0.21594	0.341844	-0.1095	0.732	-0.48	0	442	336	3
2026-02-19	12:32:34.770	40.53	-9.625	23.485	0.84302	-0.1525	0.406504	-0.1065	0.735	-0.474	0	442	336	3
2026-02-19	12:32:34.790	37.1	-16.485	7.42	0.825452	-0.159332	0.456768	-0.1065	0.735	-0.474	0	442	336	3
2026-02-19	12:32:30.810	43.75	-25.97	11.585	0.841312	-0.151036	0.621224	-0.2205	0.627	-0.54	0	358	399	3
2026-02-19	12:32:30.830	8.75	-18.235	1.855	0.800076	-0.060756	0.796416	-0.2265	0.621	-0.54	0	358	399	3
2026-02-19	12:32:30.850	2.835	-4.76	-13.37	0.719312	-0.182756	0.826916	-0.2295	0.618	-0.54	0	358	399	3
2026-02-19	12:32:30.870	9.66	-7.385	-16.275	0.643672	-0.390644	0.853512	-0.2265	0.6225	-0.546	0	358	399	3
2026-02-19	12:32:30.890	10.815	-8.155	-11.375	0.740784	-0.157624	0.757132	-0.2385	0.618	-0.537	0	358	399	3
2026-02-19	12:32:30.910	-1.645	-5.46	-15.47	0.84668	0.059048	0.532896	-0.243	0.6135	-0.549	0	358	399	3
2026-02-19	12:32:30.930	1.26	-6.335	-24.535	0.841556	-0.089304	0.560224	-0.2535	0.6195	-0.546	0	358	399	3
2026-02-19	12:32:30.950	13.335	-2.905	-25.025	0.83814	-0.057096	0.532408	-0.2415	0.615	-0.5475	0	358	399	3
2026-02-19	12:32:30.970	6.965	-0.735	-24.29	0.976976	-0.043432	0.260592	-0.246	0.603	-0.5355	0	358	399	3
2026-02-19	12:32:30.990	-19.355	-5.81	-28.63	1.016016	-0.056852	0.049776	-0.2415	0.5985	-0.54	0	358	399	3
2026-02-19	12:32:31.010	-6.37	-9.975	-25.515	0.964288	-0.281576	0.101748	-0.243	0.5925	-0.5385	0	363	406	3
2026-02-19	12:32:31.030	4.445	-13.58	-18.935	0.900116	-0.6039	0.03904	-0.246	0.5865	-0.5385	0	363	406	3
2026-02-19	12:32:31.050	9.1	-23.17	-8.68	0.848632	-0.66002	0.152256	-0.2505	0.591	-0.537	0	363	406	3
2026-02-19	12:32:31.070	19.565	-36.015	8.26	0.881328	-0.172996	0.300364	-0.2535	0.5925	-0.528	0	363	406	3
2026-02-19	12:32:31.090	24.01	-35.56	9.66	0.859856	0.23668	0.608292	-0.267	0.5805	-0.5265	0	363	406	3
2026-02-19	12:32:31.110	0.28	-18.025	-11.235	0.797636	0.144936	0.757864	-0.2655	0.591	-0.525	0	363	406	3
2026-02-19	12:32:31.130	-32.69	-9.24	-21.315	0.839848	0.078568	0.674904	-0.2745	0.576	-0.522	0	363	406	3
2026-02-19	12:32:31.150	-26.74	-10.885	-17.885	0.893528	0.346968	0.630252	-0.273	0.5775	-0.513	0	363	406	3
2026-02-19	12:32:31.170	-23.065	-14.455	-20.545	0.897432	0.36234	0.69052	-0.2715	0.576	-0.5175	0	363	406	3
2026-02-19	12:32:31.190	-34.825	-4.62	-35.875	0.9333	0.214232	0.432368	-0.2715	0.5775	-0.5085	0	363	406	3
2026-02-19	12:32:31.210	-44.59	-5.425	-38.955	0.964288	-0.113704	0.130052	-0.2715	0.5805	-0.504	0	366	410	3
2026-02-19	12:32:31.230	-19.915	-14.035	-32.06	0.915976	-0.324032	0.107604	-0.27	0.588	-0.4965	0	366	410	3
2026-02-19	12:32:31.250	-11.235	-17.395	-27.86	0.901092	-0.415776	0.05002	-0.2745	0.591	-0.4935	0	366	410	3
2026-02-19	12:32:31.270	-11.025	-19.32	-25.585	0.919148	-0.307684	0.012688	-0.2805	0.585	-0.492	0	366	410	3
2026-02-19	12:32:31.290	2.555	-20.195	-26.775	0.911828	-0.19398	0.207644	-0.282	0.582	-0.4935	0	366	410	3
2026-02-19	12:32:31.310	2.205	-19.11	-29.19	0.844972	-0.15616	0.324032	-0.285	0.5805	-0.4875	0	366	410	3
2026-02-19	12:32:31.330	-14.805	-17.43	-34.02	0.89182	-0.04148	0.421876	-0.285	0.576	-0.4815	0	366	410	3
2026-02-19	12:32:31.350	-26.915	-16.695	-39.34	0.900116	0.082472	0.504348	-0.2835	0.5745	-0.474	0	366	410	3
2026-02-19	12:32:31.370	-51.765	-14.63	-56	0.864004	-0.128344	0.576816	-0.2865	0.5745	-0.468	0	366	410	3
2026-02-19	12:32:31.390	-86.31	-27.23	-70.49	0.852292	-0.3233	0.609024	-0.288	0.576	-0.471	0	366	410	3
2026-02-19	12:32:31.410	-94.745	-44.135	-69.02	1.035536	-0.453108	0.532896	-0.2925	0.576	-0.456	0	367	405	3
2026-02-19	12:32:31.430	-76.72	-43.295	-59.08	1.253184	-0.47336	0.327692	-0.309	0.57	-0.456	0	367	405	3
2026-02-19	12:32:31.450	-65.38	-30.52	-37.87	1.463024	0.010004	0.000488	-0.303	0.5745	-0.447	0	367	405	3
2026-02-19	12:32:31.470	-54.705	-5.985	-14.875	2.100108	-0.12444	0.113704	-0.309	0.5805	-0.4395	0	367	405	3
2026-02-19	12:32:31.490	-19.985	20.545	17.465	1.557208	0.125416	0.60756	-0.309	0.5835	-0.441	0	367	405	3
2026-02-19	12:32:31.510	-16.975	26.775	49.595	1.309792	0.205936	0.654896	-0.3075	0.5805	-0.444	0	367	405	3
2026-02-19	12:32:31.530	13.79	31.29	79.31	1.053592	0.241316	0.809836	-0.3015	0.5865	-0.4485	0	367	405	3
2026-02-19	12:32:31.550	12.39	39.515	99.365	0.947452	0.155916	0.623664	-0.294	0.597	-0.447	0	367	405	3
2026-02-19	12:32:31.570	10.395	49.735	112.035	0.854488	0.024888	0.499956	-0.294	0.597	-0.447	0	367	405	3
2026-02-19	12:32:31.590	10.115	56.035	117.145	0.868152	-0.167872	0.438712	-0.279	0.6225	-0.4635	0	367	405	3
2026-02-19	12:32:31.610	10.36	55.755	115.955	0.696376	0.038552	0.283528	-0.27	0.633	-0.4665	0	369	403	3
2026-02-19	12:32:31.630	1.995	58.73	110.145	0.79544	-0.166408	0.318908	-0.2565	0.636	-0.4755	0	369	403	3
2026-02-19	12:32:31.650	4.83	63.49	109.585	0.758108	-0.272548	0.31842	-0.2385	0.66	-0.4845	0	369	403	3
2026-02-19	12:32:31.670	-0.77	65.24	108.01	0.831064	-0.3111	0.222528	-0.231	0.6705	-0.4995	0	369	403	3
2026-02-19	12:32:31.690	-4.865	65.59	105.525	0.833016	-0.324032	0.10126	-0.207	0.6705	-0.501	0	369	403	3
2026-02-19	12:32:31.710	-11.375	65.485	102.935	0.788608	-0.325252	0.22326	-0.1995	0.6885	-0.5205	0	369	403	3
2026-02-19	12:32:31.730	-18.865	62.65	99.085	0.709064	-0.324764	0.214476	-0.1905	0.69	-0.513	0	369	403	3
2026-02-19	12:32:31.750	-10.5	57.4	94.15	0.6405	-0.353556	0.199348	-0.1755	0.7005	-0.5205	0	369	403	3
2026-02-19	12:32:31.770	8.47	48.405	91.175	0.620492	-0.332084	0.209108	-0.1545	0.7185	-0.5325	0	369	403	3
2026-02-19	12:32:31.790	28.28	37.415	87.29	0.62342	-0.31842	0.240828	-0.1395	0.723	-0.54	0	369	403	3
2026-02-19	12:32:31.810	40.005	27.79	81.27	0.632448	-0.263276	0.275232	-0.126	0.7245	-0.549	0	371	397	3
2026-02-19	12:32:31.830	36.715	21.07	73.15	0.65148	-0.250344	0.35746	-0.1125	0.7275	-0.549	0	371	397	3
2026-02-19	12:32:31.850	24.64	17.675	63.21	0.6893	-0.249856	0.418704	-0.096	0.732	-0.5505	0	371	397	3
2026-02-19	12:32:31.870	10.605	17.71	51.905	0.74176	-0.256688	0.463844	-0.09	0.7365	-0.5535	0	371	397	3
2026-02-19	12:32:31.890	-4.76	18.725	39.69	0.842776	-0.245464	0.444324	-0.084	0.735	-0.558	0	371	397	3
2026-02-19	12:32:31.910	-12.95	14.805	26.215	0.881816	-0.224236	0.366488	-0.078	0.735	-0.564	0	371	397	3
2026-02-19	12:32:31.930	-5.845	5.25	17.045	0.884256	-0.242292	0.304024	-0.078	0.735	-0.564	0	371	397	3
2026-02-19	12:32:31.950	10.71	-3.15	13.72	0.915	-0.287676	0.331352	-0.0645	0.7455	-0.5535	0	371	397	3
2026-02-19	12:32:31.970	25.515	-10.92	11.97	0.971852	-0.305	0.34526	-0.069	0.7455	-0.5535	0	371	397	3
2026-02-19	12:32:31.990	30.59	-18.305	11.585	0.93696	-0.303292	0.390644	-0.0645	0.735	-0.552	0	371	397	3
2026-02-19	12:32:34.010	-14.7	-28.105	2.765	0.79422	-0.130296	0.321836	-0.126	0.7125	-0.48	0	433	337	3
2026-02-19	12:32:34.030	27.475	-22.68	-4.69	0.836676	-0.12444	0.386252	-0.1275	0.717	-0.48	0	433	337	3
2026-02-19	12:32:34.050	43.47	-23.275	-14.665	0.778848	-0.260348	0.530212	-0.1275	0.717	-0.48	0	433	337	3
2026-02-19	12:32:34.070	36.82	-22.365	-24.535	0.783484	-0.413092	0.533628	-0.135	0.7095	-0.4785	0	433	337	3
2026-02-19	12:32:34.090	14.77	-14.28	-26.705	0.712236	-0.423584	0.597312	-0.1395	0.702	-0.4785	0	433	337	3
2026-02-19	12:32:34.110	-12.145	-4.97	-24.92	0.665632	-0.51118	0.562664	-0.1425	0.696	-0.4815	0	433	337	3
2026-02-19	12:32:34.130	-17.85	-1.19	-17.605	0.704428	-0.517768	0.462136	-0.1425	0.6945	-0.483	0	433	337	3
2026-02-19	12:32:34.150	9.275	-5.915	-13.3	0.779336	-0.497516	0.503372	-0.1425	0.6945	-0.483	0	433	337	3
2026-02-19	12:32:34.170	29.4	-11.585	-11.62	0.8113	-0.4209	0.541192	-0.1395	0.6975	-0.477	0	433	337	3
2026-02-19	12:32:34.190	28.525	-14.455	-12.46	0.779824	-0.293044	0.545828	-0.147	0.6915	-0.4815	0	433	337	3
2026-02-19	12:32:34.210	26.18	-14.245	-16.275	0.780312	-0.197396	0.549976	-0.147	0.6825	-0.492	0	417	363	3
2026-02-19	12:32:34.230	29.05	-13.16	-20.09	0.805932	-0.197396	0.675148	-0.1545	0.684	-0.4935	0	417	363	3
2026-02-19	12:32:34.250	24.815	-13.265	-21.56	0.812032	-0.195444	0.687348	-0.156	0.684	-0.492	0	417	363	3
2026-02-19	12:32:34.270	11.62	-11.865	-22.645	0.813008	-0.115168	0.660996	-0.1635	0.678	-0.492	0	417	363	3
2026-02-19	12:32:34.290	3.71	-11.2	-23.31	0.8601	-0.134444	0.591944	-0.165	0.672	-0.492	0	417	363	3
2026-02-19	12:32:34.310	3.885	-11.865	-26.53	0.876204	-0.088328	0.529724	-0.1605	0.6735	-0.4905	0	417	363	3
2026-02-19	12:32:34.330	-0.77	-11.515	-29.82	0.83204	-0.082228	0.426756	-0.1605	0.6735	-0.4905	0	417	363	3
2026-02-19	12:32:34.350	-10.115	-9.17	-31.78	0.83692	-0.177144	0.293532	-0.1755	0.669	-0.4905	0	417	363	3
2026-02-19	12:32:34.370	-9.17	-7.805	-30.205	0.86132	-0.196176	0.144448	-0.1695	0.6645	-0.4845	0	417	363	3
2026-02-19	12:32:34.390	6.825	-9.73	-24.43	0.887916	-0.248636	0.10492	-0.1755	0.666	-0.486	0	417	363	3
2026-02-19	12:32:34.410	21.77	-11.55	-15.96	0.915488	-0.246196	0.084424	-0.1815	0.6615	-0.477	0	397	397	3
2026-02-19	12:32:34.430	30.24	-11.165	-11.235	0.95404	-0.190808	0.139568	-0.192	0.6645	-0.4845	0	397	397	3
2026-02-19	12:32:34.450	35.735	-9.625	-10.885	0.972096	-0.211792	0.331596	-0.177	0.654	-0.489	0	397	397	3
2026-02-19	12:32:34.470	26.32	-8.4	-11.585	0.909144	-0.1342	0.457256	-0.186	0.651	-0.4965	0	397	397	3
2026-02-19	12:32:34.490	8.33	-11.48	-11.69	0.945256	-0.022448	0.415288	-0.1815	0.6345	-0.4935	0	397	397	3
2026-02-19	12:32:34.510	7.07	-13.3	-13.405	0.941352	0.069296	0.351116	-0.18	0.6375	-0.489	0	397	397	3
2026-02-19	12:32:34.530	7.315	-7.84	-17.045	0.92232	0.00488	0.448228	-0.1875	0.6405	-0.489	0	397	397	3
2026-02-19	12:32:34.550	3.325	-2.8	-12.81	0.996252	0.034404	0.389668	-0.1935	0.6405	-0.492	0	397	397	3
2026-02-19	12:32:34.570	-0.63	-4.585	-7.525	1.069696	0.226188	0.163724	-0.195	0.636	-0.489	0	397	397	3
2026-02-19	12:32:34.590	6.02	-7.77	-7.245	1.062376	0.24278	0.224236	-0.1995	0.63	-0.489	0	397	397	3
2026-02-19	12:32:34.610	4.305	-5.39	-10.115	0.996008	0.020984	0.360388	-0.1995	0.63	-0.492	0	377	406	3
2026-02-19	12:32:34.630	-9.135	3.29	-15.47	0.910852	-0.28182	0.275232	-0.1995	0.624	-0.492	0	377	406	3
2026-02-19	12:32:34.650	-9.485	2.8	-11.725	0.892064	-0.482144	0.225212	-0.2025	0.6225	-0.4875	0	377	406	3
2026-02-19	12:32:34.670	-4.41	-9.555	-0.56	0.833016	-0.44774	0.265228	-0.2055	0.627	-0.489	0	377	406	3
2026-02-19	12:32:34.690	-5.845	-13.475	-0.63	0.799832	-0.429196	0.419436	-0.2055	0.627	-0.489	0	377	406	3
2026-02-19	12:32:34.710	-1.225	-11.375	-6.545	0.703696	-0.522404	0.600972	-0.2055	0.6255	-0.4785	0	377	406	3
2026-02-19	12:32:34.730	-5.32	-13.265	-10.115	0.637816	-0.553148	0.693692	-0.2085	0.621	-0.4785	0	377	406	3
2026-02-19	12:32:34.750	-7.665	-17.885	-9.695	0.673684	-0.340868	0.713944	-0.2115	0.624	-0.4815	0	377	406	3
2026-02-19	12:32:34.770	-2.765	-23.8	-8.89	0.737856	-0.047336	0.797392	-0.2115	0.6255	-0.4725	0	377	406	3
2026-02-19	12:32:34.790	-6.405	-23.24	-14.91	0.793732	0.09467199	0.717848	-0.2115	0.6195	-0.4665	0	377	406	3
2026-02-19	12:32:34.810	-10.955	-10.115	-25.97	0.898652	0.208864	0.533384	-0.2235	0.615	-0.468	0	360	405	3
2026-02-19	12:32:34.830	-27.65	-4.34	-39.13	0.975512	0.071736	0.332328	-0.222	0.621	-0.4695	0	360	405	3
2026-02-19	12:32:34.850	-43.47	-8.19	-40.95	0.999668	-0.016592	0.125416	-0.2205	0.6285	-0.4725	0	360	405	3
2026-02-19	12:32:34.870	-23.835	-10.675	-33.075	1.024556	0.008052	-0.0244	-0.2205	0.6285	-0.4725	0	360	405	3
2026-02-19	12:32:34.890	-1.085	-6.825	-29.015	1.052128	-0.09076799	-0.017324	-0.2265	0.621	-0.4635	0	360	405	3
2026-02-19	12:32:34.910	-10.885	-4.515	-32.69	0.92232	-0.300608	0.068808	-0.2205	0.6165	-0.4635	0	360	405	3
2026-02-19	12:32:34.930	-18.2	-7.35	-27.125	0.92476	-0.408456	0.125172	-0.237	0.618	-0.4605	0	360	405	3
2026-02-19	12:32:34.950	20.825	-20.965	-7.945	0.92598	-0.017568	0.234728	-0.2355	0.618	-0.453	0	360	405	3
2026-02-19	12:32:34.970	38.01	-22.085	-13.72	0.833992	0.038308	0.571204	-0.231	0.6165	-0.456	0	360	405	3
2026-02-19	12:32:34.990	7.91	-11.375	-31.22	0.744932	-0.173484	0.740052	-0.231	0.606	-0.453	0	360	405	3
2026-02-19	12:32:37.010	-13.335	-22.575	-32.9	0.713456	-0.228872	0.401136	-0.114	0.6645	-0.5745	0	329	421	3
2026-02-19	12:32:37.030	-6.265	-30.87	-38.92	0.780312	-0.244732	0.4575	-0.114	0.663	-0.567	0	329	421	3
2026-02-19	12:32:37.050	41.965	10.535	-32.445	1.690676	-1.075064	0.683932	-0.1305	0.6645	-0.5625	0	329	421	3
2026-02-19	12:32:37.070	-9.38	8.435	-0.035	1.090924	-0.137616	0.698328	-0.1365	0.651	-0.567	0	329	421	3
2026-02-19	12:32:37.090	-28.28	-29.89	6.265	0.766892	-0.517768	0.423828	-0.135	0.654	-0.567	0	329	421	3
2026-02-19	12:32:37.110	21.175	-32.34	-0.245	0.872544	0.033184	0.384788	-0.1305	0.6525	-0.5625	0	329	421	3
2026-02-19	12:32:37.130	59.78	-28.91	-8.96	0.79178	-0.078324	0.677832	-0.1365	0.6495	-0.561	0	329	421	3
2026-02-19	12:32:37.150	42.735	-22.54	-13.44	0.74664	-0.251808	0.782264	-0.144	0.648	-0.5655	0	329	421	3
2026-02-19	12:32:37.170	15.085	-8.925	-19.215	0.729072	-0.324276	0.714188	-0.15	0.6405	-0.573	0	329	421	3
2026-02-19	12:32:37.190	0.91	-0.665	-24.71	0.717604	-0.322568	0.634888	-0.156	0.633	-0.576	0	329	421	3
2026-02-19	12:32:35.210	12.985	21.245	64.19	1.06994	0.20252	0.688812	-0.267	0.612	-0.4305	0	343	398	3
2026-02-19	12:32:35.230	1.82	43.4	73.64	0.9699	0.162016	0.647088	-0.267	0.612	-0.4305	0	343	398	3
2026-02-19	12:32:35.250	-5.25	57.645	81.795	0.940376	0.022204	0.52582	-0.2535	0.633	-0.4545	0	343	398	3
2026-02-19	12:32:35.270	-2.8	63.315	91.735	0.91744	-0.030744	0.444324	-0.243	0.6435	-0.4605	0	343	398	3
2026-02-19	12:32:35.290	-0.14	66.115	100.45	0.848388	-0.15616	0.38186	-0.234	0.642	-0.4695	0	343	398	3
2026-02-19	12:32:35.310	10.535	67.655	104.965	0.751032	-0.19398	0.413336	-0.216	0.6555	-0.4695	0	343	398	3
2026-02-19	12:32:35.330	12.95	67.48	104.58	0.703696	-0.231312	0.392596	-0.1995	0.6675	-0.4845	0	343	398	3
2026-02-19	12:32:35.350	8.33	67.62	99.68	0.622688	-0.258884	0.350872	-0.192	0.675	-0.4965	0	343	398	3
2026-02-19	12:32:35.370	2.31	66.255	94.815	0.569252	-0.294996	0.283772	-0.186	0.6825	-0.504	0	343	398	3
2026-02-19	12:32:35.390	5.04	62.055	92.26	0.54168	-0.302804	0.288408	-0.1635	0.687	-0.507	0	343	398	3
2026-02-19	12:32:35.410	9.52	55.51	89.355	0.549976	-0.23912	0.277428	-0.1635	0.687	-0.507	0	343	401	3
2026-02-19	12:32:35.430	3.08	50.855	83.965	0.58804	-0.22204	0.2989	-0.1395	0.696	-0.5295	0	343	401	3
2026-02-19	12:32:35.450	-1.855	48.895	72.24	0.672464	-0.256932	0.290848	-0.1245	0.7065	-0.5325	0	343	401	3
2026-02-19	12:32:35.470	-4.83	49.14	59.115	0.70516	-0.254248	0.345016	-0.1125	0.7095	-0.543	0	343	401	3
2026-02-19	12:32:35.490	-8.365	46.27	51.205	0.7137	-0.254248	0.326716	-0.102	0.7185	-0.5445	0	343	401	3
2026-02-19	12:32:35.510	-9.17	39.655	45.78	0.72468	-0.262056	0.34648	-0.0945	0.7155	-0.5625	0	343	401	3
2026-02-19	12:32:35.530	-4.725	30.73	41.51	0.752496	-0.286212	0.340136	-0.084	0.717	-0.5595	0	343	401	3
2026-02-19	12:32:35.550	4.76	23.345	38.36	0.760548	-0.346236	0.378688	-0.081	0.7275	-0.5595	0	343	401	3
2026-02-19	12:32:35.570	21.525	13.58	37.17	0.79666	-0.3233	0.39284	-0.072	0.7215	-0.57	0	343	401	3
2026-02-19	12:32:35.590	25.375	3.955	36.33	0.782508	-0.2684	0.4026	-0.0615	0.72	-0.573	0	343	401	3
2026-02-19	12:32:35.610	24.115	-1.995	32.585	0.731756	-0.244488	0.4087	-0.0495	0.7185	-0.579	0	344	398	3
2026-02-19	12:32:35.630	24.43	-6.3	24.99	0.73078	-0.246684	0.435296	-0.045	0.7185	-0.582	0	344	398	3
2026-02-19	12:32:35.650	27.475	-8.75	17.08	0.727608	-0.237656	0.449692	-0.042	0.7155	-0.585	0	344	398	3
2026-02-19	12:32:35.670	24.01	-10.85	10.815	0.704184	-0.222528	0.434808	-0.042	0.7065	-0.585	0	344	398	3
2026-02-19	12:32:35.690	13.405	-13.825	4.48	0.704428	-0.233264	0.427	-0.048	0.7005	-0.5895	0	344	398	3
2026-02-19	12:32:35.710	8.54	-17.325	-1.12	0.756644	-0.288408	0.460916	-0.048	0.7005	-0.5895	0	344	398	3
2026-02-19	12:32:35.730	14.42	-20.09	-6.055	0.837652	-0.308172	0.488976	-0.0465	0.7005	-0.5835	0	344	398	3
2026-02-19	12:32:35.750	18.095	-23.03	-8.785	0.863516	-0.317444	0.52338	-0.0525	0.696	-0.5835	0	344	398	3
2026-02-19	12:32:35.770	13.09	-25.445	-10.045	0.89548	-0.287432	0.55876	-0.057	0.693	-0.5835	0	344	398	3
2026-02-19	12:32:35.790	11.585	-26.46	-11.235	0.907924	-0.29036	0.586332	-0.066	0.69	-0.585	0	344	398	3
2026-02-19	12:32:35.810	12.81	-26.775	-11.27	0.895236	-0.232776	0.587308	-0.072	0.6885	-0.5865	0	339	402	3
2026-02-19	12:32:35.830	10.29	-25.76	-10.325	0.874496	-0.231556	0.563884	-0.078	0.6855	-0.582	0	339	402	3
2026-02-19	12:32:35.850	7.245	-24.57	-11.445	0.855708	-0.193492	0.547292	-0.0735	0.675	-0.5745	0	339	402	3
2026-02-19	12:32:35.870	6.09	-23.625	-13.755	0.85156	-0.204228	0.544852	-0.0825	0.6765	-0.576	0	339	402	3
2026-02-19	12:32:35.890	8.05	-22.715	-15.855	0.840336	-0.197396	0.53802	-0.0915	0.6645	-0.5775	0	339	402	3
2026-02-19	12:32:35.910	9.275	-20.44	-17.57	0.816912	-0.21716	0.53192	-0.0975	0.672	-0.5835	0	339	402	3
2026-02-19	12:32:35.930	3.15	-17.99	-20.3	0.781776	-0.2196	0.501664	-0.1035	0.6735	-0.573	0	339	402	3
2026-02-19	12:32:35.950	-6.125	-15.61	-23.52	0.782752	-0.234728	0.482388	-0.1035	0.6735	-0.573	0	339	402	3
2026-02-19	12:32:35.970	-13.86	-15.82	-26.39	0.770552	-0.25498	0.464088	-0.1065	0.6615	-0.573	0	339	402	3
2026-02-19	12:32:35.990	-17.745	-17.99	-29.54	0.745664	-0.276696	0.42944	-0.12	0.6615	-0.57	0	339	402	3
2026-02-19	12:32:34.010	-14.7	-28.105	2.765	0.79422	-0.130296	0.321836	-0.126	0.7125	-0.48	0	433	337	3
2026-02-19	12:32:34.030	27.475	-22.68	-4.69	0.836676	-0.12444	0.386252	-0.1275	0.717	-0.48	0	433	337	3
2026-02-19	12:32:34.050	43.47	-23.275	-14.665	0.778848	-0.260348	0.530212	-0.1275	0.717	-0.48	0	433	337	3
2026-02-19	12:32:34.070	36.82	-22.365	-24.535	0.783484	-0.413092	0.533628	-0.135	0.7095	-0.4785	0	433	337	3
2026-02-19	12:32:34.090	14.77	-14.28	-26.705	0.712236	-0.423584	0.597312	-0.1395	0.702	-0.4785	0	433	337	3
2026-02-19	12:32:34.110	-12.145	-4.97	-24.92	0.665632	-0.51118	0.562664	-0.1425	0.696	-0.4815	0	433	337	3
2026-02-19	12:32:34.130	-17.85	-1.19	-17.605	0.704428	-0.517768	0.462136	-0.1425	0.6945	-0.483	0	433	337	3
2026-02-19	12:32:34.150	9.275	-5.915	-13.3	0.779336	-0.497516	0.503372	-0.1425	0.6945	-0.483	0	433	337	3
2026-02-19	12:32:34.170	29.4	-11.585	-11.62	0.8113	-0.4209	0.541192	-0.1395	0.6975	-0.477	0	433	337	3
2026-02-19	12:32:34.190	28.525	-14.455	-12.46	0.779824	-0.293044	0.545828	-0.147	0.6915	-0.4815	0	433	337	3
2026-02-19	12:32:38.210	52.885	42.77	116.235	0.9394	-0.049776	0.50142	-0.255	0.546	-0.51	0	305	424	3
2026-02-19	12:32:38.230	17.535	59.15	105.49	0.843752	-0.100284	0.454328	-0.2445	0.555	-0.513	0	305	424	3
2026-02-19	12:32:38.250	-10.43	72.66	96.6	0.731756	-0.178364	0.42578	-0.237	0.5565	-0.5175	0	305	424	3
2026-02-19	12:32:38.270	-29.26	79.135	89.005	0.63806	-0.22814	0.366488	-0.2265	0.567	-0.5235	0	305	424	3
2026-02-19	12:32:38.290	-37.695	80.43	83.545	0.543388	-0.28426	0.32086	-0.21	0.5805	-0.5295	0	305	424	3
2026-02-19	12:32:38.310	-35	77.315	78.4	0.489952	-0.306708	0.261324	-0.195	0.5895	-0.5385	0	305	424	3
2026-02-19	12:32:38.330	-31.64	72.415	74.445	0.427	-0.328424	0.254004	-0.18	0.6	-0.546	0	305	424	3
2026-02-19	12:32:38.350	-25.9	67.06	72.52	0.386252	-0.35624	0.252784	-0.1665	0.6105	-0.552	0	305	424	3
2026-02-19	12:32:38.370	-15.715	58.52	69.895	0.395768	-0.383568	0.246928	-0.1605	0.6165	-0.5535	0	305	424	3
2026-02-19	12:32:38.390	-0.385	47.425	65.835	0.427	-0.380396	0.276452	-0.1605	0.6165	-0.5535	0	305	424	3
2026-02-19	12:32:34.410	21.77	-11.55	-15.96	0.915488	-0.246196	0.084424	-0.1815	0.6615	-0.477	0	397	397	3
2026-02-19	12:32:34.430	30.24	-11.165	-11.235	0.95404	-0.190808	0.139568	-0.192	0.6645	-0.4845	0	397	397	3
2026-02-19	12:32:34.450	35.735	-9.625	-10.885	0.972096	-0.211792	0.331596	-0.177	0.654	-0.489	0	397	397	3
2026-02-19	12:32:34.470	26.32	-8.4	-11.585	0.909144	-0.1342	0.457256	-0.186	0.651	-0.4965	0	397	397	3
2026-02-19	12:32:34.490	8.33	-11.48	-11.69	0.945256	-0.022448	0.415288	-0.1815	0.6345	-0.4935	0	397	397	3
2026-02-19	12:32:34.510	7.07	-13.3	-13.405	0.941352	0.069296	0.351116	-0.18	0.6375	-0.489	0	397	397	3
2026-02-19	12:32:34.530	7.315	-7.84	-17.045	0.92232	0.00488	0.448228	-0.1875	0.6405	-0.489	0	397	397	3
2026-02-19	12:32:34.550	3.325	-2.8	-12.81	0.996252	0.034404	0.389668	-0.1935	0.6405	-0.492	0	397	397	3
2026-02-19	12:32:34.570	-0.63	-4.585	-7.525	1.069696	0.226188	0.163724	-0.195	0.636	-0.489	0	397	397	3
2026-02-19	12:32:34.590	6.02	-7.77	-7.245	1.062376	0.24278	0.224236	-0.1995	0.63	-0.489	0	397	397	3
2026-02-19	12:32:34.610	4.305	-5.39	-10.115	0.996008	0.020984	0.360388	-0.1995	0.63	-0.492	0	377	406	3
2026-02-19	12:32:34.630	-9.135	3.29	-15.47	0.910852	-0.28182	0.275232	-0.1995	0.624	-0.492	0	377	406	3
2026-02-19	12:32:34.650	-9.485	2.8	-11.725	0.892064	-0.482144	0.225212	-0.2025	0.6225	-0.4875	0	377	406	3
2026-02-19	12:32:34.670	-4.41	-9.555	-0.56	0.833016	-0.44774	0.265228	-0.2055	0.627	-0.489	0	377	406	3
2026-02-19	12:32:34.690	-5.845	-13.475	-0.63	0.799832	-0.429196	0.419436	-0.2055	0.627	-0.489	0	377	406	3
2026-02-19	12:32:34.710	-1.225	-11.375	-6.545	0.703696	-0.522404	0.600972	-0.2055	0.6255	-0.4785	0	377	406	3
2026-02-19	12:32:34.730	-5.32	-13.265	-10.115	0.637816	-0.553148	0.693692	-0.2085	0.621	-0.4785	0	377	406	3
2026-02-19	12:32:34.750	-7.665	-17.885	-9.695	0.673684	-0.340868	0.713944	-0.2115	0.624	-0.4815	0	377	406	3
2026-02-19	12:32:34.770	-2.765	-23.8	-8.89	0.737856	-0.047336	0.797392	-0.2115	0.6255	-0.4725	0	377	406	3
2026-02-19	12:32:34.790	-6.405	-23.24	-14.91	0.793732	0.09467199	0.717848	-0.2115	0.6195	-0.4665	0	377	406	3
2026-02-19	12:32:38.810	-6.3	-15.82	-18.795	0.776652	-0.196176	0.449204	-0.12	0.6225	-0.561	0	328	400	3
2026-02-19	12:32:38.830	-19.81	-12.425	-22.155	0.714432	-0.159088	0.447008	-0.1245	0.618	-0.558	0	328	400	3
2026-02-19	12:32:38.850	-38.85	-6.16	-29.33	0.901092	-0.0366	0.414556	-0.1335	0.615	-0.555	0	328	400	3
2026-02-19	12:32:38.870	-6.965	35.945	-23.205	1.552572	-1.100684	1.11508	-0.132	0.6195	-0.555	0	328	400	3
2026-02-19	12:32:38.890	-69.16	12.285	-12.425	1.197796	-0.19886	0.481412	-0.1245	0.624	-0.558	0	328	400	3
2026-02-19	12:32:38.910	-54.775	-8.61	-15.54	0.803248	-0.203252	0.296704	-0.1215	0.6315	-0.5535	0	328	400	3
2026-02-19	12:32:38.930	11.795	-10.605	-24.325	0.758352	-0.336964	0.497516	-0.12	0.639	-0.549	0	328	400	3
2026-02-19	12:32:38.950	34.055	-14.91	-26.985	0.76494	-0.294996	0.605364	-0.132	0.6375	-0.546	0	328	400	3
2026-02-19	12:32:38.970	21.56	-11.165	-31.64	0.66124	-0.496052	0.739564	-0.1335	0.633	-0.5535	0	328	400	3
2026-02-19	12:32:38.990	14.49	-6.895	-31.395	0.671	-0.480924	0.62952	-0.141	0.6195	-0.5535	0	328	400	3
2026-02-19	12:32:37.010	-13.335	-22.575	-32.9	0.713456	-0.228872	0.401136	-0.114	0.6645	-0.5745	0	329	421	3
2026-02-19	12:32:37.030	-6.265	-30.87	-38.92	0.780312	-0.244732	0.4575	-0.114	0.663	-0.567	0	329	421	3
2026-02-19	12:32:37.050	41.965	10.535	-32.445	1.690676	-1.075064	0.683932	-0.1305	0.6645	-0.5625	0	329	421	3
2026-02-19	12:32:37.070	-9.38	8.435	-0.035	1.090924	-0.137616	0.698328	-0.1365	0.651	-0.567	0	329	421	3
2026-02-19	12:32:37.090	-28.28	-29.89	6.265	0.766892	-0.517768	0.423828	-0.135	0.654	-0.567	0	329	421	3
2026-02-19	12:32:37.110	21.175	-32.34	-0.245	0.872544	0.033184	0.384788	-0.1305	0.6525	-0.5625	0	329	421	3
2026-02-19	12:32:37.130	59.78	-28.91	-8.96	0.79178	-0.078324	0.677832	-0.1365	0.6495	-0.561	0	329	421	3
2026-02-19	12:32:37.150	42.735	-22.54	-13.44	0.74664	-0.251808	0.782264	-0.144	0.648	-0.5655	0	329	421	3
2026-02-19	12:32:37.170	15.085	-8.925	-19.215	0.729072	-0.324276	0.714188	-0.15	0.6405	-0.573	0	329	421	3
2026-02-19	12:32:37.190	0.91	-0.665	-24.71	0.717604	-0.322568	0.634888	-0.156	0.633	-0.576	0	329	421	3
2026-02-19	12:32:37.210	13.16	-1.89	-26.53	0.765184	-0.327204	0.687836	-0.159	0.6315	-0.579	0	319	450	3
2026-02-19	12:32:37.230	30.45	-8.575	-21.455	0.748104	-0.279868	0.66002	-0.159	0.6255	-0.5775	0	319	450	3
2026-02-19	12:32:37.250	28.315	-13.055	-18.865	0.739076	-0.141032	0.558028	-0.1575	0.618	-0.5775	0	319	450	3
2026-02-19	12:32:37.270	26.635	-7.315	-23.275	0.810324	-0.149328	0.513132	-0.1605	0.6105	-0.582	0	319	450	3
2026-02-19	12:32:37.290	26.005	-4.585	-26.145	0.858636	-0.194956	0.44042	-0.1635	0.609	-0.585	0	319	450	3
2026-02-19	12:32:37.310	15.33	-10.325	-22.295	0.930128	-0.097112	0.29036	-0.1635	0.609	-0.585	0	319	450	3
2026-02-19	12:32:37.330	9.835	-11.655	-22.12	1.007232	-0.057828	0.166408	-0.1695	0.5865	-0.582	0	319	450	3
2026-02-19	12:32:37.350	17.01	-10.92	-24.43	0.997716	-0.148596	0.182756	-0.1755	0.5835	-0.579	0	319	450	3
2026-02-19	12:32:37.370	10.78	-10.325	-25.41	0.909876	-0.294264	0.249368	-0.174	0.579	-0.576	0	319	450	3
2026-02-19	12:32:37.390	-1.19	-12.18	-20.475	0.918416	-0.393084	0.16714	-0.183	0.573	-0.5835	0	319	450	3
2026-02-19	12:32:37.410	9.17	-15.855	-8.785	0.922564	-0.271816	0.134932	-0.1845	0.57	-0.5805	0	311	472	3
2026-02-19	12:32:37.430	21.035	-18.9	-2.975	0.89548	-0.142008	0.356728	-0.186	0.5715	-0.579	0	311	472	3
2026-02-19	12:32:37.450	10.08	-20.825	-0.035	0.921344	0.071736	0.5673	-0.189	0.573	-0.582	0	311	472	3
2026-02-19	12:32:37.470	-11.585	-14.35	-8.12	0.94672	0.278404	0.558272	-0.1935	0.5625	-0.576	0	311	472	3
2026-02-19	12:32:37.490	-19.53	-2.765	-20.65	0.972096	0.184708	0.497272	-0.195	0.564	-0.576	0	311	472	3
2026-02-19	12:32:37.510	-9.1	-1.015	-19.775	0.898164	-0.070028	0.422608	-0.198	0.5625	-0.5775	0	311	472	3
2026-02-19	12:32:37.530	0.315	-5.285	-14.875	0.857904	-0.272792	0.405772	-0.198	0.561	-0.579	0	311	472	3
2026-02-19	12:32:37.550	-4.97	-10.465	-12.985	0.824476	-0.418948	0.356728	-0.201	0.555	-0.576	0	311	472	3
2026-02-19	12:32:37.570	-7.91	-8.89	-13.86	0.892308	-0.527772	0.091744	-0.207	0.5565	-0.576	0	311	472	3
2026-02-19	12:32:37.590	0.84	-11.62	-13.02	0.8906	-0.560468	0.116632	-0.207	0.552	-0.57	0	311	472	3
2026-02-19	12:32:37.610	8.4	-20.79	-7.805	0.775432	-0.506544	0.40748	-0.2115	0.549	-0.5745	0	305	467	3
2026-02-19	12:32:37.630	12.46	-28.735	-2.765	0.708576	-0.407968	0.603412	-0.213	0.546	-0.567	0	305	467	3
2026-02-19	12:32:37.650	10.955	-24.71	-2.52	0.78568	-0.208864	0.610488	-0.2115	0.546	-0.57	0	305	467	3
2026-02-19	12:32:37.670	-12.495	-24.605	-6.195	0.793976	-0.21228	0.673196	-0.219	0.543	-0.564	0	305	467	3
2026-02-19	12:32:37.690	-8.015	-21.14	-9.52	0.823256	0.155916	0.693448	-0.2265	0.546	-0.555	0	305	467	3
2026-02-19	12:32:37.710	-20.51	-16.66	-18.27	0.855464	0.110044	0.574132	-0.2295	0.5505	-0.5505	0	305	467	3
2026-02-19	12:32:37.730	-28.7	-4.725	-29.855	0.873764	-0.0061	0.432124	-0.2355	0.5445	-0.5475	0	305	467	3
2026-02-19	12:32:37.750	-30.52	-0.98	-34.195	0.925736	-0.104676	0.30256	-0.2355	0.5415	-0.546	0	305	467	3
2026-02-19	12:32:37.770	-32.515	-12.95	-28.035	0.958432	-0.044652	0.215452	-0.2325	0.54	-0.546	0	305	467	3
2026-02-19	12:32:37.790	-13.58	-19.145	-23.24	0.972096	0.041724	0.165676	-0.2355	0.5385	-0.546	0	305	467	3
2026-02-19	12:32:37.810	-3.85	-10.675	-31.57	0.922564	-0.21838	0.185928	-0.2385	0.54	-0.5415	0	302	455	3
2026-02-19	12:32:37.830	-19.005	-7.105	-35.07	0.836432	-0.46482	0.15982	-0.2385	0.5415	-0.5385	0	302	455	3
2026-02-19	12:32:37.850	2.17	-18.445	-21.385	0.816424	-0.294264	0.300364	-0.2385	0.5415	-0.5385	0	302	455	3
2026-02-19	12:32:37.870	29.96	-26.355	-18.935	0.734684	-0.177388	0.635864	-0.243	0.543	-0.5355	0	302	455	3
2026-02-19	12:32:37.890	18.55	-22.225	-30.24	0.665144	-0.252052	0.772748	-0.2445	0.5325	-0.525	0	302	455	3
2026-02-19	12:32:37.910	-7.315	-18.06	-42.14	0.706136	-0.262056	0.699548	-0.246	0.531	-0.5295	0	302	455	3
2026-02-19	12:32:37.930	-15.75	-23.485	-47.705	0.785924	-0.208864	0.531432	-0.2505	0.5265	-0.5205	0	302	455	3
2026-02-19	12:32:37.950	-14.14	-32.41	-54.25	0.825452	-0.134932	0.438712	-0.2475	0.5235	-0.5235	0	302	455	3
2026-02-19	12:32:37.970	-22.4	-37.17	-57.995	0.903288	-0.083204	0.333304	-0.258	0.5175	-0.519	0	302	455	3
2026-02-19	12:32:37.990	-11.13	-48.93	-52.605	0.9943	0.180316	0.301096	-0.252	0.5115	-0.507	0	302	455	3
2026-02-19	12:32:38.010	11.025	-2.415	-29.96	0.6893	-0.569008	0.661484	-0.1425	0.6255	-0.552	0	327	422	3
2026-02-19	12:32:38.030	10.605	-6.93	-23.45	0.71004	-0.572424	0.650992	-0.1425	0.6165	-0.5535	0	327	422	3
2026-02-19	12:32:38.050	16.45	-15.4	-14.175	0.712236	-0.48678	0.590236	-0.147	0.612	-0.558	0	327	422	3
2026-02-19	12:32:38.070	25.585	-20.02	-10.43	0.712968	-0.33428	0.51484	-0.153	0.6165	-0.552	0	327	422	3
2026-02-19	12:32:38.090	31.745	-16.905	-13.475	0.781532	-0.264252	0.553392	-0.1425	0.6075	-0.5505	0	327	422	3
2026-02-19	12:32:38.110	26.25	-11.76	-18.06	0.80764	-0.14274	0.528748	-0.153	0.6015	-0.549	0	327	422	3
2026-02-19	12:32:38.130	19.565	-7.315	-21.315	0.847168	-0.09638	0.510936	-0.159	0.5925	-0.549	0	327	422	3
2026-02-19	12:32:38.150	19.6	-4.69	-25.655	0.8906	-0.100772	0.487756	-0.156	0.591	-0.549	0	327	422	3
2026-02-19	12:32:38.170	16.625	-6.055	-28.455	0.85766	-0.163236	0.48556	-0.156	0.585	-0.549	0	327	422	3
2026-02-19	12:32:38.190	12.11	-5.635	-27.195	0.853756	-0.10736	0.448716	-0.156	0.576	-0.5535	0	327	422	3
2026-02-19	12:32:38.210	1.645	-4.515	-29.365	0.875472	-0.148352	0.407236	-0.162	0.5745	-0.5535	0	323	454	3
2026-02-19	12:32:38.230	-8.68	-5.53	-32.795	0.840824	-0.224724	0.480436	-0.1695	0.5745	-0.5475	0	323	454	3
2026-02-19	12:32:38.250	-25.655	-0.77	-38.85	0.807884	-0.277672	0.461648	-0.171	0.573	-0.5445	0	323	454	3
2026-02-19	12:32:38.270	-44.625	7.28	-44.94	0.839604	-0.373076	0.315248	-0.168	0.5655	-0.555	0	323	454	3
2026-02-19	12:32:38.290	-22.925	6.195	-42.14	0.875472	-0.412848	0.332084	-0.171	0.57	-0.552	0	323	454	3
2026-02-19	12:32:38.310	-9.205	-2.555	-32.06	0.854244	-0.411628	0.334524	-0.177	0.5715	-0.549	0	323	454	3
2026-02-19	12:32:38.330	-6.825	-7.77	-23.345	0.897676	-0.265228	0.313296	-0.1755	0.5625	-0.549	0	323	454	3
2026-02-19	12:32:38.350	6.3	-10.745	-16.94	0.9394	-0.183732	0.26352	-0.1725	0.561	-0.5475	0	323	454	3
2026-02-19	12:32:38.370	22.96	-13.37	-10.92	0.921344	-0.033428	0.377468	-0.177	0.5625	-0.546	0	323	454	3
2026-02-19	12:32:38.390	11.375	-12.005	-11.69	0.940376	0.077592	0.42822	-0.1815	0.5565	-0.5445	0	323	454	3
2026-02-19	12:32:38.410	2.8	-9.1	-17.745	0.912072	0.147864	0.5368	-0.183	0.5535	-0.5415	0	314	468	1
2026-02-19	12:32:38.430	0.98	-7.21	-22.645	0.856684	-0.004636	0.583648	-0.1845	0.549	-0.5385	0	314	468	1
2026-02-19	12:32:38.450	8.295	-3.85	-22.75	0.842288	-0.09076799	0.467992	-0.1875	0.5445	-0.5355	0	314	468	1
2026-02-19	12:32:38.470	9.73	-5.6	-20.615	0.86742	-0.081252	0.513864	-0.1875	0.5445	-0.5355	0	314	468	1
2026-02-19	12:32:38.490	3.22	-10.675	-18.585	0.870836	-0.254492	0.452864	-0.1875	0.549	-0.5445	0	314	468	1
2026-02-19	12:32:38.510	-3.29	-11.97	-18.445	0.854488	-0.366244	0.25986	-0.192	0.534	-0.546	0	314	468	1
2026-02-19	12:32:38.530	4.27	-11.41	-19.285	0.910608	-0.37454	0.232532	-0.1995	0.534	-0.5355	0	314	468	1
2026-02-19	12:32:38.550	6.615	-11.9	-18.62	0.871812	-0.285724	0.333304	-0.204	0.534	-0.5385	0	314	468	1
2026-02-19	12:32:38.570	-7.84	-14.735	-16.8	0.85034	-0.129076	0.466772	-0.1965	0.5325	-0.5325	0	314	468	1
2026-02-19	12:32:38.590	-12.985	-16.52	-15.295	0.898164	0.014152	0.449692	-0.207	0.537	-0.5355	0	314	468	1
2026-02-19	12:32:38.610	-15.75	-10.885	-24.325	0.882792	0.132736	0.515328	-0.207	0.5265	-0.5235	0	304	465	1
2026-02-19	12:32:38.630	-40.005	-2.555	-38.815	0.868152	0.125172	0.5917	-0.21	0.531	-0.528	0	304	465	1
2026-02-19	12:32:38.650	-53.62	1.365	-42.7	0.955748	0.237656	0.430416	-0.21	0.5265	-0.5265	0	304	465	1
2026-02-19	12:32:38.670	-38.71	7.98	-46.375	1.026264	0.160552	0.238388	-0.213	0.5265	-0.5235	0	304	465	1
2026-02-19	12:32:38.690	-34.195	10.08	-50.295	0.975024	-0.18544	0.150304	-0.21	0.531	-0.519	0	304	465	1
2026-02-19	12:32:38.710	-45.57	6.16	-44.38	0.991616	-0.361364	0.14762	-0.204	0.528	-0.519	0	304	465	1
2026-02-19	12:32:38.730	-41.825	-0.805	-25.305	1.040172	-0.325496	-0.13542	-0.204	0.5265	-0.519	0	304	465	1
2026-02-19	12:32:38.750	-2.87	-4.13	-17.815	0.969656	-0.31232	0.100284	-0.21	0.528	-0.513	0	304	465	1
2026-02-19	12:32:38.770	-0.735	-5.495	-19.145	0.750544	-0.331108	0.625372	-0.213	0.528	-0.513	0	304	465	1
2026-02-19	12:32:38.790	-23.59	-4.375	-23.03	0.74786	-0.210328	0.81374	-0.21	0.5295	-0.5085	0	304	465	1
2026-02-19	12:32:38.810	-29.61	-8.575	-32.585	0.694912	-0.20862	0.798856	-0.21	0.531	-0.5025	0	295	452	3
2026-02-19	12:32:38.830	-53.83	-4.865	-59.325	0.492392	-0.526308	1.030412	-0.2085	0.531	-0.5055	0	295	452	3
2026-02-19	12:32:38.850	-76.895	-3.675	-67.76	0.467748	-0.704672	0.969168	-0.2115	0.534	-0.507	0	295	452	3
2026-02-19	12:32:38.870	-61.18	-14.21	-52.185	0.597556	-0.62464	0.669536	-0.216	0.531	-0.507	0	295	452	3
2026-02-19	12:32:38.890	-25.865	-37.59	-33.635	0.788364	-0.396256	0.421876	-0.216	0.531	-0.501	0	295	452	3
2026-02-19	12:32:38.910	-13.44	-54.04	-35	0.89792	-0.049776	0.252784	-0.2235	0.531	-0.4905	0	295	452	3
2026-02-19	12:32:38.930	-29.925	-57.54	-52.885	1.001376	0.041724	0.370148	-0.234	0.5295	-0.483	0	295	452	3
2026-02-19	12:32:38.950	-55.125	-58.135	-60.795	1.168516	-0.049288	0.45384	-0.237	0.528	-0.474	0	295	452	3
2026-02-19	12:32:38.970	-31.325	-70.21	-50.68	1.392264	0.116144	0.4514	-0.2415	0.5205	-0.465	0	295	452	3
2026-02-19	12:32:38.990	37.625	-52.99	-10.605	1.475712	0.589748	0.329644	-0.246	0.5175	-0.4635	0	295	452	3
2026-02-19	12:32:39.010	60.165	-10.99	26.04	1.670912	0.493856	0.233996	-0.246	0.5175	-0.4635	0	294	452	3
2026-02-19	12:32:39.030	17.78	20.02	37.94	1.303204	0.442372	0.427976	-0.2625	0.5085	-0.438	0	294	452	3
2026-02-19	12:32:39.050	-28.875	49.49	43.89	1.000888	0.105652	0.62342	-0.2595	0.513	-0.441	0	294	452	3
2026-02-19	12:32:39.070	-42.525	59.85	53.725	0.858392	-0.148596	0.522404	-0.249	0.5205	-0.444	0	294	452	3
2026-02-19	12:32:39.090	-29.015	55.93	72.87	0.804468	-0.318908	0.43798	-0.2475	0.5355	-0.4455	0	294	452	3
2026-02-19	12:32:39.110	6.44	47.565	90.265	0.856684	-0.34038	0.40138	-0.2385	0.5265	-0.441	0	294	452	3
2026-02-19	12:32:39.130	35.455	41.685	101.885	0.875228	-0.266692	0.338428	-0.2385	0.5445	-0.4485	0	294	452	3
2026-02-19	12:32:39.150	40.32	42.035	104.09	0.862296	-0.21228	0.328668	-0.2205	0.546	-0.45	0	294	452	3
2026-02-19	12:32:39.170	32.13	42.77	103.39	0.820084	-0.238876	0.338184	-0.2235	0.552	-0.456	0	294	452	3
2026-02-19	12:32:39.190	21.35	46.375	98.945	0.823988	-0.290848	0.319152	-0.2175	0.567	-0.4635	0	294	452	3
2026-02-19	12:32:39.210	18.165	47.04	94.745	0.809592	-0.302072	0.288164	-0.2175	0.567	-0.4635	0	300	452	3
2026-02-19	12:32:39.230	20.475	43.575	90.125	0.77714	-0.269864	0.21838	-0.2055	0.5835	-0.4605	0	300	452	3
2026-02-19	12:32:39.250	28.805	41.335	87.99	0.676856	-0.316712	0.305244	-0.1935	0.597	-0.462	0	300	452	3
2026-02-19	12:32:39.270	27.72	36.33	85.785	0.681248	-0.306708	0.288896	-0.189	0.594	-0.465	0	300	452	3
2026-02-19	12:32:39.290	22.19	29.61	84.91	0.711504	-0.254736	0.223016	-0.183	0.603	-0.459	0	300	452	3
2026-02-19	12:32:39.310	23.135	22.96	84.315	0.757376	-0.247172	0.223504	-0.1725	0.6135	-0.459	0	300	452	3
2026-02-19	12:32:39.330	30.52	15.435	82.075	0.805932	-0.250832	0.221064	-0.1635	0.624	-0.4635	0	300	452	3
2026-02-19	12:32:39.350	44.765	8.225	80.29	0.799344	-0.252052	0.254492	-0.162	0.633	-0.4635	0	300	452	3
2026-02-19	12:32:39.370	55.37	3.955	76.195	0.753716	-0.224724	0.29524	-0.159	0.6345	-0.4635	0	300	452	3
2026-02-19	12:32:39.390	51.625	2.24	69.685	0.712724	-0.204716	0.345748	-0.156	0.6345	-0.462	0	300	452	3
2026-02-19	12:32:39.410	27.965	-0.175	55.16	0.68564	-0.228384	0.388936	-0.147	0.648	-0.465	0	307	435	3
2026-02-19	12:32:39.430	15.925	-1.645	45.115	0.71126	-0.233264	0.43432	-0.144	0.651	-0.462	0	307	435	3
2026-02-19	12:32:39.450	10.36	-3.675	33.985	0.759328	-0.262788	0.432612	-0.144	0.657	-0.462	0	307	435	3
2026-02-19	12:32:39.470	11.34	-5.355	25.55	0.790072	-0.3111	0.443836	-0.144	0.66	-0.465	0	307	435	3
2026-02-19	12:32:39.490	18.095	-8.82	21.49	0.78812	-0.324276	0.416264	-0.1395	0.6675	-0.462	0	307	435	3
2026-02-19	12:32:39.510	25.375	-17.15	19.075	0.78568	-0.29646	0.368928	-0.135	0.672	-0.4605	0	307	435	3
2026-02-19	12:32:39.530	29.295	-23.94	14.35	0.848632	-0.280844	0.388936	-0.1275	0.6735	-0.459	0	307	435	3
2026-02-19	12:32:39.550	34.93	-27.615	9.17	0.883524	-0.268888	0.403088	-0.1245	0.678	-0.459	0	307	435	3
2026-02-19	12:32:39.570	39.27	-29.995	6.475	0.894992	-0.294508	0.41236	-0.126	0.6735	-0.462	0	307	435	3
2026-02-19	12:32:39.590	41.055	-32.2	3.99	0.909144	-0.285724	0.421388	-0.1245	0.6735	-0.462	0	307	435	3
2026-02-19	12:32:39.610	40.635	-33.11	0.245	0.93452	-0.246196	0.462624	-0.123	0.681	-0.4635	0	308	416	3
2026-02-19	12:32:39.630	33.32	-32.2	-3.43	0.94916	-0.194712	0.482632	-0.123	0.681	-0.4635	0	308	416	3
2026-02-19	12:32:39.650	22.26	-30.135	-8.085	0.94062	-0.146888	0.479704	-0.1335	0.672	-0.459	0	308	416	3
2026-02-19	12:32:39.670	12.145	-29.225	-14.28	0.917928	-0.124928	0.48678	-0.1395	0.6615	-0.4545	0	308	416	3
2026-02-19	12:32:39.690	7.665	-28.35	-19.32	0.88572	-0.133224	0.5002	-0.1365	0.669	-0.468	0	308	416	3
2026-02-19	12:32:39.710	6.02	-25.9	-23.1	1.059204	-0.007564	0.500932	-0.1365	0.663	-0.456	0	308	416	3
2026-02-19	12:32:39.730	23.555	4.97	-16.905	1.265628	-0.748348	1.087996	-0.1485	0.657	-0.459	0	308	416	3
2026-02-19	12:32:39.750	-17.85	-9.31	-5.075	1.039928	-0.03294	0.44774	-0.144	0.6555	-0.4665	0	308	416	3
2026-02-19	12:32:39.770	-26.985	-14.595	-5.775	0.820084	-0.002928	0.377468	-0.1485	0.66	-0.4575	0	308	416	3
2026-02-19	12:32:39.790	-3.675	-11.76	-15.33	0.81008	0.070516	0.38674	-0.1425	0.657	-0.459	0	308	416	3
2026-02-19	12:32:39.810	8.995	-6.79	-33.46	0.832284	-0.077592	0.51972	-0.153	0.66	-0.459	0	305	418	3
2026-02-19	12:32:39.830	-0.42	8.12	-52.08	0.712724	-0.391132	0.659776	-0.153	0.66	-0.459	0	305	418	3
2026-02-19	12:32:39.850	-20.265	13.72	-59.465	0.752984	-0.57706	0.723948	-0.1545	0.657	-0.462	0	305	418	3
2026-02-19	12:32:39.870	-46.025	12.11	-52.605	0.705648	-0.635376	0.666608	-0.156	0.6525	-0.465	0	305	418	3
2026-02-19	12:32:39.890	-51.66	3.29	-39.375	0.656848	-0.560956	0.564128	-0.156	0.651	-0.4635	0	305	418	3
2026-02-19	12:32:39.910	-33.88	-2.835	-27.51	0.680516	-0.623176	0.566568	-0.156	0.6555	-0.4605	0	305	418	3
2026-02-19	12:32:39.930	3.255	-11.025	-15.155	0.716872	-0.612684	0.579256	-0.159	0.657	-0.462	0	305	418	3
2026-02-19	12:32:39.950	23.485	-20.79	-5.985	0.735172	-0.447496	0.506056	-0.165	0.654	-0.4605	0	305	418	3
2026-02-19	12:32:39.970	22.295	-24.43	-7.665	0.777384	-0.290848	0.448228	-0.1695	0.6525	-0.4575	0	305	418	3
2026-02-19	12:32:39.990	11.305	-21.14	-16.87	0.807152	-0.298168	0.474824	-0.1695	0.6525	-0.4575	0	305	418	3
2026-02-19	12:32:40.010	6.09	-20.02	-20.86	0.815936	-0.300364	0.39162	-0.1695	0.6525	-0.4575	0	300	441	3
2026-02-19	12:32:40.030	18.585	-22.085	-17.85	0.830332	-0.182756	0.369416	-0.1725	0.6495	-0.462	0	300	441	3
2026-02-19	12:32:40.050	23.835	-20.44	-16.45	0.829112	-0.124196	0.366976	-0.1725	0.6525	-0.4635	0	300	441	3
2026-02-19	12:32:40.070	21.35	-16.765	-14.77	0.886208	-0.115412	0.388448	-0.1755	0.6495	-0.465	0	300	441	3
2026-02-19	12:32:40.090	21.98	-15.68	-14.315	0.912316	-0.04758	0.360876	-0.177	0.645	-0.465	0	300	441	3
2026-02-19	12:32:40.110	32.655	-15.855	-17.43	0.899628	-0.064904	0.427488	-0.1785	0.642	-0.4635	0	300	441	3
2026-02-19	12:32:40.130	33.6	-13.965	-22.05	0.853268	-0.133224	0.591944	-0.1755	0.6375	-0.465	0	300	441	3
2026-02-19	12:32:40.150	19.075	-13.37	-25.55	0.812032	-0.274012	0.594384	-0.177	0.6345	-0.4665	0	300	441	3
2026-02-19	12:32:40.170	5.67	-11.375	-25.48	0.83448	-0.21838	0.420412	-0.186	0.633	-0.468	0	300	441	3
2026-02-19	12:32:40.190	0.035	-12.81	-27.3	0.875716	-0.228872	0.287676	-0.1875	0.6285	-0.471	0	300	441	3
2026-02-19	12:32:40.210	-0.525	-16.555	-25.445	0.896456	-0.320616	0.23424	-0.1875	0.6255	-0.4725	0	293	457	3
2026-02-19	12:32:40.230	10.325	-13.685	-21.07	0.909876	-0.263276	0.195688	-0.189	0.624	-0.471	0	293	457	3
2026-02-19	12:32:40.250	11.55	-14.98	-14.49	0.979904	-0.101748	0.132004	-0.1845	0.6165	-0.471	0	293	457	3
2026-02-19	12:32:40.270	15.54	-17.29	-11.06	1.009428	0.081984	0.169824	-0.186	0.6195	-0.471	0	293	457	3
2026-02-19	12:32:40.290	15.61	-13.125	-11.55	1.040172	0.103212	0.240828	-0.198	0.6195	-0.4695	0	293	457	3
2026-02-19	12:32:40.310	8.015	-12.88	-8.435	1.036268	0.182024	0.35258	-0.177	0.6225	-0.48	0	293	457	3
2026-02-19	12:32:40.330	-4.375	-14.525	-8.155	1.0065	0.394304	0.361852	-0.1845	0.6225	-0.483	0	293	457	3
2026-02-19	12:32:40.350	-8.75	-13.86	-15.435	0.94184	0.285236	0.608048	-0.1905	0.612	-0.4875	0	293	457	3
2026-02-19	12:32:40.370	-0.56	-6.405	-23.695	0.809348	-0.028792	0.720288	-0.1995	0.6135	-0.486	0	293	457	3
2026-02-19	12:32:40.390	-1.75	-6.125	-22.085	0.793244	-0.142252	0.608048	-0.1905	0.6105	-0.4905	0	293	457	3
2026-02-19	12:32:40.410	-10.08	-6.895	-23.485	0.859612	-0.0488	0.39406	-0.1965	0.609	-0.486	0	287	451	3
2026-02-19	12:32:40.430	-12.705	-5.88	-31.5	0.804224	-0.294996	0.442372	-0.2025	0.6075	-0.48	0	287	451	3
2026-02-19	12:32:40.450	-15.155	-4.76	-35.175	0.773236	-0.452132	0.423096	-0.1995	0.6015	-0.4785	0	287	451	3
2026-02-19	12:32:40.470	-13.195	-9.8	-32.41	0.839604	-0.458476	0.27694	-0.198	0.5985	-0.48	0	287	451	3
2026-02-19	12:32:40.490	-9.17	-18.69	-25.27	0.90036	-0.305	0.099308	-0.1995	0.6045	-0.477	0	287	451	3
2026-02-19	12:32:40.510	1.19	-19.81	-25.34	0.911584	-0.263032	0.130296	-0.1965	0.6015	-0.477	0	287	451	3
2026-02-19	12:32:40.530	4.62	-17.36	-27.195	0.892796	-0.303536	0.233752	-0.201	0.597	-0.48	0	287	451	3
2026-02-19	12:32:40.550	2.905	-19.25	-23.66	0.926712	-0.101748	0.2257	-0.2085	0.591	-0.477	0	287	451	3
2026-02-19	12:32:40.570	4.095	-21.175	-21.14	0.921344	0.165432	0.316224	-0.2115	0.5865	-0.4755	0	287	451	3
2026-02-19	12:32:40.590	0.84	-13.79	-28.56	0.881816	0.116632	0.58194	-0.2115	0.582	-0.474	0	287	451	3
2026-02-19	12:32:40.610	-21.525	-8.75	-33.74	0.860832	0.121756	0.553636	-0.2115	0.5805	-0.4695	0	283	435	3
2026-02-19	12:32:40.630	-30.94	-5.425	-38.71	0.880352	0.16348	0.41236	-0.213	0.5835	-0.468	0	283	435	3
2026-02-19	12:32:40.650	-29.54	-5.425	-43.12	0.881572	0.105164	0.476532	-0.207	0.582	-0.4665	0	283	435	3
2026-02-19	12:32:40.670	-37.1	-3.745	-48.755	0.85766	0.01586	0.538996	-0.2055	0.5805	-0.468	0	283	435	3
