yyyy-MM-dd	HH:mm:ss.fff	gyrX	gyrY	gyrZ	accX	accY	accZ	magX	magY	magZ	Marker	Energy	Angle	Classification
2026-02-19	12:32:01.810	-2.415	-3.36	-0.42	0.751032	0.583648	0.402356	-0.5055	0.06	0.318	0	124	359	3
2026-02-19	12:32:01.830	-3.15	-2.485	-1.4	0.767624	0.579744	0.43066	-0.516	0.06	0.3195	0	124	359	3
2026-02-19	12:32:01.850	-8.645	0.28	-2.52	0.75884	0.5673	0.455792	-0.513	0.0645	0.3255	0	124	359	3
2026-02-19	12:32:01.870	-9.03	0.63	-4.235	0.761524	0.586088	0.367708	-0.516	0.063	0.3225	0	124	359	3
2026-02-19	12:32:01.890	-6.86	-0.035	-4.865	0.782752	0.586332	0.348432	-0.5175	0.0615	0.321	0	124	359	3
2026-02-19	12:32:01.910	-7.21	0.28	-4.445	0.77958	0.564128	0.368196	-0.5145	0.066	0.315	0	124	359	3
2026-02-19	12:32:01.930	-5.285	1.05	-5.355	0.798856	0.55388	0.415776	-0.51	0.0705	0.321	0	124	359	3
2026-02-19	12:32:01.950	-4.795	2.59	-5.565	0.803004	0.55266	0.389668	-0.5085	0.06	0.3135	0	124	359	3
2026-02-19	12:32:01.970	1.26	3.885	-5.285	0.796172	0.537288	0.3721	-0.5085	0.06	0.3135	0	124	359	3
2026-02-19	12:32:01.990	0.665	5.74	-4.515	0.762988	0.492148	0.388204	-0.5085	0.0585	0.3165	0	124	359	3
2026-02-19	12:32:02.010	12.355	4.655	-4.165	0.790316	0.495808	0.360144	-0.507	0.0615	0.318	0	114	364	3
2026-02-19	12:32:02.030	22.96	6.405	-2.59	0.772748	0.50386	0.34648	-0.5055	0.0675	0.315	0	114	364	3
2026-02-19	12:32:02.050	35.875	7.56	0.175	0.783972	0.52094	0.372588	-0.507	0.063	0.318	0	114	364	3
2026-02-19	12:32:02.070	51.8	11.48	1.645	0.757132	0.532164	0.371612	-0.5085	0.0555	0.324	0	114	364	3
2026-02-19	12:32:02.090	56.945	13.475	2.8	0.723704	0.545584	0.340624	-0.501	0.0615	0.3285	0	114	364	3
2026-02-19	12:32:02.110	65.345	14.14	4.025	0.72346	0.59536	0.319884	-0.5175	0.0495	0.345	0	114	364	3
2026-02-19	12:32:02.130	61.6	16.52	5.6	0.698084	0.64782	0.298412	-0.5085	0.0465	0.351	0	114	364	3
2026-02-19	12:32:02.150	49.56	16.695	6.125	0.686372	0.651236	0.274256	-0.5025	0.048	0.3525	0	114	364	3
2026-02-19	12:32:02.170	44.625	15.47	5.67	0.68564	0.68076	0.245952	-0.507	0.048	0.3615	0	114	364	3
2026-02-19	12:32:02.190	36.75	13.93	4.55	0.687836	0.713944	0.231068	-0.5145	0.042	0.3615	0	114	364	3
2026-02-19	12:32:02.210	23.065	11.62	3.22	0.698572	0.735904	0.213988	-0.5055	0.042	0.369	0	105	364	3
2026-02-19	12:32:02.230	9.94	7.98	1.715	0.695156	0.7259	0.209108	-0.5145	0.0405	0.3705	0	105	364	3
2026-02-19	12:32:02.250	-1.12	2.975	-0.98	0.713944	0.704916	0.240828	-0.51	0.042	0.3675	0	105	364	3
2026-02-19	12:32:02.270	-8.82	2.205	-2.065	0.726876	0.688568	0.28914	-0.51	0.0405	0.369	0	105	364	3
2026-02-19	12:32:02.290	-15.925	2.8	-3.955	0.743468	0.658312	0.314028	-0.5115	0.0405	0.3675	0	105	364	3
2026-02-19	12:32:02.310	-19.355	4.095	-3.815	0.73688	0.622688	0.310856	-0.5055	0.045	0.3675	0	105	364	3
2026-02-19	12:32:02.330	-18.9	4.34	-2.975	0.725412	0.611464	0.310612	-0.5025	0.0435	0.3675	0	105	364	3
2026-02-19	12:32:02.350	-18.27	4.025	-2.205	0.721508	0.61488	0.3172	-0.504	0.039	0.366	0	105	364	3
2026-02-19	12:32:02.370	-17.29	3.85	-2.31	0.723948	0.605608	0.331108	-0.5055	0.039	0.3675	0	105	364	3
2026-02-19	12:32:02.390	-17.08	3.85	-2.8	0.726632	0.60024	0.332572	-0.5085	0.0435	0.36	0	105	364	3
2026-02-19	12:32:02.410	-14.7	3.71	-3.325	0.7259	0.579012	0.325496	-0.4995	0.0465	0.363	0	98	355	3
2026-02-19	12:32:02.430	-12.075	2.555	-3.255	0.727364	0.576328	0.320616	-0.495	0.048	0.3585	0	98	355	3
2026-02-19	12:32:02.450	-11.2	0.945	-2.31	0.719556	0.576816	0.333792	-0.5055	0.0435	0.3525	0	98	355	3
2026-02-19	12:32:02.470	-10.43	-1.05	-1.54	0.722972	0.579012	0.350872	-0.498	0.045	0.3585	0	98	355	3
2026-02-19	12:32:02.490	-8.33	-2.45	-0.875	0.726144	0.577548	0.359412	-0.5025	0.042	0.339	0	98	355	3
2026-02-19	12:32:02.510	-4.62	-2.87	-0.525	0.741028	0.586576	0.355508	-0.4995	0.051	0.3495	0	98	355	3
2026-02-19	12:32:02.530	-5.95	-1.645	1.365	0.756156	0.593164	0.364536	-0.4965	0.048	0.3435	0	98	355	3
2026-02-19	12:32:02.550	-5.67	-0.7	1.925	0.748592	0.5856	0.352824	-0.4995	0.045	0.348	0	98	355	3
2026-02-19	12:32:02.570	-1.4	-1.015	2.485	0.743224	0.595848	0.322568	-0.501	0.045	0.3465	0	98	355	3
2026-02-19	12:32:02.590	0.7	-1.82	2.835	0.732976	0.620492	0.313784	-0.504	0.0435	0.3435	0	98	355	3
2026-02-19	12:32:02.610	-0.665	-2.625	2.905	0.72712	0.623908	0.31964	-0.5055	0.045	0.345	0	93	346	3
2026-02-19	12:32:02.630	-2.975	-3.185	2.66	0.731268	0.624396	0.334036	-0.504	0.048	0.3465	0	93	346	3
2026-02-19	12:32:02.650	-4.2	-2.94	1.89	0.732244	0.618296	0.345992	-0.5025	0.048	0.348	0	93	346	3
2026-02-19	12:32:02.670	-2.835	-2.275	0.665	0.739564	0.615612	0.351848	-0.5025	0.0495	0.348	0	93	346	3
2026-02-19	12:32:02.690	-1.015	-1.33	-0.28	0.736392	0.606828	0.345748	-0.5025	0.0465	0.348	0	93	346	3
2026-02-19	12:32:02.710	-0.665	-1.05	0.14	0.739564	0.610488	0.355264	-0.5055	0.051	0.342	0	93	346	3
2026-02-19	12:32:02.730	-1.61	-0.56	0.77	0.730536	0.607804	0.362096	-0.498	0.0465	0.342	0	93	346	3
2026-02-19	12:32:02.750	-2.38	-0.385	1.015	0.726388	0.600484	0.348676	-0.5025	0.0555	0.3525	0	93	346	3
2026-02-19	12:32:02.770	-2.73	-0.665	0.525	0.7259	0.609024	0.3477	-0.504	0.048	0.3495	0	93	346	3
2026-02-19	12:32:02.790	-3.395	-1.155	0.105	0.734684	0.61488	0.358436	-0.5055	0.039	0.348	0	93	346	3
2026-02-19	12:32:00.810	8.715	-5.25	12.775	0.81252	0.538264	0.332328	-0.5475	0.0675	0.3345	0	188	373	2
2026-02-19	12:32:00.830	9.065	-4.515	13.02	0.820816	0.570716	0.3477	-0.54	0.078	0.342	0	188	373	2
2026-02-19	12:32:00.850	8.47	-3.815	12.39	0.823988	0.576816	0.363072	-0.54	0.078	0.342	0	188	373	2
2026-02-19	12:32:00.870	6.265	-2.835	11.69	0.828868	0.58926	0.365024	-0.5475	0.0615	0.3405	0	188	373	2
2026-02-19	12:32:00.890	1.435	-2.485	10.745	0.833016	0.610244	0.354776	-0.5595	0.078	0.3435	0	188	373	2
2026-02-19	12:32:00.910	0.63	-3.745	8.19	0.821792	0.600972	0.3416	-0.5535	0.0705	0.351	0	188	373	2
2026-02-19	12:32:00.930	2.87	-5.39	4.935	0.830576	0.610244	0.347456	-0.549	0.0735	0.357	0	188	373	2
2026-02-19	12:32:00.950	-6.335	-3.15	1.855	0.852292	0.691496	0.362584	-0.5565	0.0795	0.3585	0	188	373	2
2026-02-19	12:32:00.970	-28.42	3.815	-1.995	0.84668	0.68442	0.33306	-0.552	0.072	0.3525	0	188	373	2
2026-02-19	12:32:00.990	-41.93	9.275	-7.21	0.79056	0.665144	0.368928	-0.552	0.072	0.3465	0	188	373	2
2026-02-19	12:32:01.010	-48.02	8.225	-11.2	0.758108	0.59048	0.372588	-0.5595	0.0735	0.345	0	173	364	3
2026-02-19	12:32:01.030	-47.18	4.025	-12.11	0.743224	0.556076	0.271572	-0.555	0.084	0.336	0	173	364	3
2026-02-19	12:32:01.050	-40.985	-1.96	-11.06	0.73566	0.516304	0.235704	-0.555	0.075	0.336	0	173	364	3
2026-02-19	12:32:01.070	-30.17	-4.235	-11.025	0.742736	0.495808	0.328912	-0.5565	0.0765	0.3225	0	173	364	3
2026-02-19	12:32:01.090	-19.775	-3.08	-11.69	0.782508	0.492392	0.403576	-0.543	0.078	0.324	0	173	364	3
2026-02-19	12:32:01.110	-8.75	5.04	-11.585	0.810812	0.51728	0.457744	-0.5415	0.075	0.309	0	173	364	3
2026-02-19	12:32:01.130	-4.165	14	-10.57	0.793244	0.568764	0.406992	-0.5415	0.075	0.309	0	173	364	3
2026-02-19	12:32:01.150	4.025	15.365	-13.3	0.7808	0.6405	0.366976	-0.543	0.0825	0.3135	0	173	364	3
2026-02-19	12:32:01.170	3.185	13.72	-16.31	0.774212	0.594872	0.358192	-0.5385	0.078	0.309	0	173	364	3
2026-02-19	12:32:01.190	0.455	11.025	-18.2	0.757864	0.580964	0.336964	-0.5355	0.0735	0.315	0	173	364	3
2026-02-19	12:32:01.210	-3.325	8.225	-20.51	0.752008	0.537532	0.338916	-0.534	0.0765	0.303	0	159	360	3
2026-02-19	12:32:01.230	-5.635	6.825	-20.125	0.721508	0.491172	0.336964	-0.5295	0.075	0.3105	0	159	360	3
2026-02-19	12:32:01.250	-4.725	4.795	-16.905	0.709064	0.45628	0.329888	-0.5235	0.0705	0.309	0	159	360	3
2026-02-19	12:32:01.270	-0.07	2.73	-11.41	0.69906	0.44164	0.323056	-0.5175	0.0705	0.312	0	159	360	3
2026-02-19	12:32:01.290	3.57	1.365	-5.425	0.720044	0.475068	0.35502	-0.5265	0.0735	0.303	0	159	360	3
2026-02-19	12:32:01.310	3.85	2.485	-0.91	0.739808	0.484828	0.376004	-0.5115	0.078	0.312	0	159	360	3
2026-02-19	12:32:01.330	7.35	4.165	2.205	0.760792	0.516548	0.369172	-0.5085	0.063	0.3105	0	159	360	3
2026-02-19	12:32:01.350	12.67	5.705	3.64	0.74786	0.536068	0.345992	-0.516	0.075	0.306	0	159	360	3
2026-02-19	12:32:01.370	15.68	6.335	3.955	0.754448	0.574376	0.332328	-0.516	0.072	0.3135	0	159	360	3
2026-02-19	12:32:01.390	15.995	6.16	3.5	0.766404	0.574864	0.325984	-0.5175	0.069	0.309	0	159	360	3
2026-02-19	12:32:01.410	15.155	6.16	2.59	0.745664	0.60024	0.332084	-0.5175	0.069	0.309	0	147	358	3
2026-02-19	12:32:01.430	10.5	4.375	1.365	0.758596	0.61854	0.343064	-0.5175	0.0675	0.3105	0	147	358	3
2026-02-19	12:32:01.450	5.67	3.22	-0.21	0.7503	0.627812	0.336232	-0.5175	0.066	0.312	0	147	358	3
2026-02-19	12:32:01.470	1.295	1.26	-2.415	0.732976	0.607804	0.338428	-0.5235	0.078	0.306	0	147	358	3
2026-02-19	12:32:01.490	-1.75	-0.665	-4.27	0.732732	0.59536	0.352092	-0.5205	0.0705	0.3165	0	147	358	3
2026-02-19	12:32:01.510	-3.535	-2.205	-5.005	0.727608	0.564128	0.363072	-0.513	0.0675	0.3195	0	147	358	3
2026-02-19	12:32:01.530	-2.8	-3.395	-4.13	0.729072	0.549244	0.375028	-0.519	0.072	0.3165	0	147	358	3
2026-02-19	12:32:01.550	0.28	-3.78	-2.625	0.741272	0.55876	0.376248	-0.513	0.0615	0.3195	0	147	358	3
2026-02-19	12:32:01.570	2.135	-3.465	-1.33	0.744444	0.559736	0.37332	-0.5145	0.0705	0.3255	0	147	358	3
2026-02-19	12:32:01.590	3.115	-2.73	0.105	0.757132	0.560468	0.364048	-0.51	0.063	0.3195	0	147	358	3
2026-02-19	12:32:01.610	3.395	-2.555	1.435	0.767624	0.5673	0.361364	-0.5085	0.0705	0.315	0	135	358	3
2026-02-19	12:32:01.630	4.445	-2.31	2.485	0.783728	0.574132	0.36966	-0.5175	0.0645	0.3165	0	135	358	3
2026-02-19	12:32:01.650	5.81	-1.365	2.87	0.783484	0.579988	0.359412	-0.51	0.063	0.321	0	135	358	3
2026-02-19	12:32:01.670	5.775	-0.84	1.645	0.783972	0.597068	0.338672	-0.5205	0.0645	0.318	0	135	358	3
2026-02-19	12:32:01.690	1.995	-0.665	0.105	0.77714	0.587064	0.328424	-0.5205	0.0645	0.318	0	135	358	3
2026-02-19	12:32:01.710	-1.19	-1.05	-1.085	0.75884	0.577548	0.330132	-0.5175	0.0645	0.318	0	135	358	3
2026-02-19	12:32:01.730	-2.625	-2.065	-1.855	0.7564	0.570472	0.345748	-0.5175	0.063	0.321	0	135	358	3
2026-02-19	12:32:01.750	-3.22	-3.01	-1.785	0.746884	0.556564	0.366976	-0.522	0.0615	0.3255	0	135	358	3
2026-02-19	12:32:01.770	-2.73	-3.465	-1.19	0.739564	0.547048	0.376004	-0.5055	0.0645	0.33	0	135	358	3
2026-02-19	12:32:01.790	-1.645	-3.71	-0.595	0.741028	0.561444	0.392352	-0.51	0.063	0.318	0	135	358	3
2026-02-19	12:32:01.810	-2.415	-3.36	-0.42	0.751032	0.583648	0.402356	-0.5055	0.06	0.318	0	124	359	3
2026-02-19	12:32:01.830	-3.15	-2.485	-1.4	0.767624	0.579744	0.43066	-0.516	0.06	0.3195	0	124	359	3
2026-02-19	12:32:01.850	-8.645	0.28	-2.52	0.75884	0.5673	0.455792	-0.513	0.0645	0.3255	0	124	359	3
2026-02-19	12:32:01.870	-9.03	0.63	-4.235	0.761524	0.586088	0.367708	-0.516	0.063	0.3225	0	124	359	3
2026-02-19	12:32:01.890	-6.86	-0.035	-4.865	0.782752	0.586332	0.348432	-0.5175	0.0615	0.321	0	124	359	3
2026-02-19	12:32:01.910	-7.21	0.28	-4.445	0.77958	0.564128	0.368196	-0.5145	0.066	0.315	0	124	359	3
2026-02-19	12:32:01.930	-5.285	1.05	-5.355	0.798856	0.55388	0.415776	-0.51	0.0705	0.321	0	124	359	3
2026-02-19	12:32:01.950	-4.795	2.59	-5.565	0.803004	0.55266	0.389668	-0.5085	0.06	0.3135	0	124	359	3
2026-02-19	12:32:01.970	1.26	3.885	-5.285	0.796172	0.537288	0.3721	-0.5085	0.06	0.3135	0	124	359	3
2026-02-19	12:32:01.990	0.665	5.74	-4.515	0.762988	0.492148	0.388204	-0.5085	0.0585	0.3165	0	124	359	3
2026-02-19	12:32:02.010	12.355	4.655	-4.165	0.790316	0.495808	0.360144	-0.507	0.0615	0.318	0	114	364	3
2026-02-19	12:32:02.030	22.96	6.405	-2.59	0.772748	0.50386	0.34648	-0.5055	0.0675	0.315	0	114	364	3
2026-02-19	12:32:02.050	35.875	7.56	0.175	0.783972	0.52094	0.372588	-0.507	0.063	0.318	0	114	364	3
2026-02-19	12:32:02.070	51.8	11.48	1.645	0.757132	0.532164	0.371612	-0.5085	0.0555	0.324	0	114	364	3
2026-02-19	12:32:02.090	56.945	13.475	2.8	0.723704	0.545584	0.340624	-0.501	0.0615	0.3285	0	114	364	3
2026-02-19	12:32:02.110	65.345	14.14	4.025	0.72346	0.59536	0.319884	-0.5175	0.0495	0.345	0	114	364	3
2026-02-19	12:32:02.130	61.6	16.52	5.6	0.698084	0.64782	0.298412	-0.5085	0.0465	0.351	0	114	364	3
2026-02-19	12:32:02.150	49.56	16.695	6.125	0.686372	0.651236	0.274256	-0.5025	0.048	0.3525	0	114	364	3
2026-02-19	12:32:02.170	44.625	15.47	5.67	0.68564	0.68076	0.245952	-0.507	0.048	0.3615	0	114	364	3
2026-02-19	12:32:02.190	36.75	13.93	4.55	0.687836	0.713944	0.231068	-0.5145	0.042	0.3615	0	114	364	3
2026-02-19	12:32:02.210	23.065	11.62	3.22	0.698572	0.735904	0.213988	-0.5055	0.042	0.369	0	105	364	3
2026-02-19	12:32:02.230	9.94	7.98	1.715	0.695156	0.7259	0.209108	-0.5145	0.0405	0.3705	0	105	364	3
2026-02-19	12:32:02.250	-1.12	2.975	-0.98	0.713944	0.704916	0.240828	-0.51	0.042	0.3675	0	105	364	3
2026-02-19	12:32:02.270	-8.82	2.205	-2.065	0.726876	0.688568	0.28914	-0.51	0.0405	0.369	0	105	364	3
2026-02-19	12:32:02.290	-15.925	2.8	-3.955	0.743468	0.658312	0.314028	-0.5115	0.0405	0.3675	0	105	364	3
2026-02-19	12:32:02.310	-19.355	4.095	-3.815	0.73688	0.622688	0.310856	-0.5055	0.045	0.3675	0	105	364	3
2026-02-19	12:32:02.330	-18.9	4.34	-2.975	0.725412	0.611464	0.310612	-0.5025	0.0435	0.3675	0	105	364	3
2026-02-19	12:32:02.350	-18.27	4.025	-2.205	0.721508	0.61488	0.3172	-0.504	0.039	0.366	0	105	364	3
2026-02-19	12:32:02.370	-17.29	3.85	-2.31	0.723948	0.605608	0.331108	-0.5055	0.039	0.3675	0	105	364	3
2026-02-19	12:32:02.390	-17.08	3.85	-2.8	0.726632	0.60024	0.332572	-0.5085	0.0435	0.36	0	105	364	3
2026-02-19	12:32:02.410	-14.7	3.71	-3.325	0.7259	0.579012	0.325496	-0.4995	0.0465	0.363	0	98	355	3
2026-02-19	12:32:02.430	-12.075	2.555	-3.255	0.727364	0.576328	0.320616	-0.495	0.048	0.3585	0	98	355	3
2026-02-19	12:32:02.450	-11.2	0.945	-2.31	0.719556	0.576816	0.333792	-0.5055	0.0435	0.3525	0	98	355	3
2026-02-19	12:32:02.470	-10.43	-1.05	-1.54	0.722972	0.579012	0.350872	-0.498	0.045	0.3585	0	98	355	3
2026-02-19	12:32:02.490	-8.33	-2.45	-0.875	0.726144	0.577548	0.359412	-0.5025	0.042	0.339	0	98	355	3
2026-02-19	12:32:02.510	-4.62	-2.87	-0.525	0.741028	0.586576	0.355508	-0.4995	0.051	0.3495	0	98	355	3
2026-02-19	12:32:02.530	-5.95	-1.645	1.365	0.756156	0.593164	0.364536	-0.4965	0.048	0.3435	0	98	355	3
2026-02-19	12:32:02.550	-5.67	-0.7	1.925	0.748592	0.5856	0.352824	-0.4995	0.045	0.348	0	98	355	3
2026-02-19	12:32:02.570	-1.4	-1.015	2.485	0.743224	0.595848	0.322568	-0.501	0.045	0.3465	0	98	355	3
2026-02-19	12:32:02.590	0.7	-1.82	2.835	0.732976	0.620492	0.313784	-0.504	0.0435	0.3435	0	98	355	3
2026-02-19	12:32:02.610	-0.665	-2.625	2.905	0.72712	0.623908	0.31964	-0.5055	0.045	0.345	0	93	346	3
2026-02-19	12:32:02.630	-2.975	-3.185	2.66	0.731268	0.624396	0.334036	-0.504	0.048	0.3465	0	93	346	3
2026-02-19	12:32:02.650	-4.2	-2.94	1.89	0.732244	0.618296	0.345992	-0.5025	0.048	0.348	0	93	346	3
2026-02-19	12:32:02.670	-2.835	-2.275	0.665	0.739564	0.615612	0.351848	-0.5025	0.0495	0.348	0	93	346	3
2026-02-19	12:32:02.690	-1.015	-1.33	-0.28	0.736392	0.606828	0.345748	-0.5025	0.0465	0.348	0	93	346	3
2026-02-19	12:32:02.710	-0.665	-1.05	0.14	0.739564	0.610488	0.355264	-0.5055	0.051	0.342	0	93	346	3
2026-02-19	12:32:02.730	-1.61	-0.56	0.77	0.730536	0.607804	0.362096	-0.498	0.0465	0.342	0	93	346	3
2026-02-19	12:32:02.750	-2.38	-0.385	1.015	0.726388	0.600484	0.348676	-0.5025	0.0555	0.3525	0	93	346	3
2026-02-19	12:32:02.770	-2.73	-0.665	0.525	0.7259	0.609024	0.3477	-0.504	0.048	0.3495	0	93	346	3
2026-02-19	12:32:02.790	-3.395	-1.155	0.105	0.734684	0.61488	0.358436	-0.5055	0.039	0.348	0	93	346	3
2026-02-19	12:32:00.810	8.715	-5.25	12.775	0.81252	0.538264	0.332328	-0.5475	0.0675	0.3345	0	188	373	2
2026-02-19	12:32:00.830	9.065	-4.515	13.02	0.820816	0.570716	0.3477	-0.54	0.078	0.342	0	188	373	2
2026-02-19	12:32:00.850	8.47	-3.815	12.39	0.823988	0.576816	0.363072	-0.54	0.078	0.342	0	188	373	2
2026-02-19	12:32:00.870	6.265	-2.835	11.69	0.828868	0.58926	0.365024	-0.5475	0.0615	0.3405	0	188	373	2
2026-02-19	12:32:00.890	1.435	-2.485	10.745	0.833016	0.610244	0.354776	-0.5595	0.078	0.3435	0	188	373	2
2026-02-19	12:32:00.910	0.63	-3.745	8.19	0.821792	0.600972	0.3416	-0.5535	0.0705	0.351	0	188	373	2
2026-02-19	12:32:00.930	2.87	-5.39	4.935	0.830576	0.610244	0.347456	-0.549	0.0735	0.357	0	188	373	2
2026-02-19	12:32:00.950	-6.335	-3.15	1.855	0.852292	0.691496	0.362584	-0.5565	0.0795	0.3585	0	188	373	2
2026-02-19	12:32:00.970	-28.42	3.815	-1.995	0.84668	0.68442	0.33306	-0.552	0.072	0.3525	0	188	373	2
2026-02-19	12:32:00.990	-41.93	9.275	-7.21	0.79056	0.665144	0.368928	-0.552	0.072	0.3465	0	188	373	2
2026-02-19	12:32:21.010	70.77	-30.555	41.44	0.942328	0.170068	0.407236	-0.753	0.345	0.474	0	356	170	2
2026-02-19	12:32:21.030	117.25	-19.145	56.035	1.238056	0.184952	0.396256	-0.7545	0.3495	0.4815	0	356	170	2
2026-02-19	12:32:21.050	134.995	8.82	64.47	1.819996	0.446032	0.394304	-0.759	0.3555	0.4875	0	356	170	2
2026-02-19	12:32:21.070	129.78	21.315	44.87	2.104744	0.665144	0.340868	-0.756	0.3675	0.489	0	356	170	2
2026-02-19	12:32:21.090	84.315	8.155	0.35	1.609912	0.478728	0.19886	-0.7605	0.3765	0.495	0	356	170	2
2026-02-19	12:32:21.110	3.22	-9.345	-39.76	1.108248	-0.040992	0.150304	-0.765	0.378	0.4965	0	356	170	2
2026-02-19	12:32:21.130	-76.545	0.945	-55.755	0.819352	-0.328424	0.341844	-0.765	0.3765	0.4935	0	356	170	2
2026-02-19	12:32:21.150	-120.645	14.175	-77.945	0.853512	-0.235704	0.393572	-0.7605	0.3645	0.492	0	356	170	2
2026-02-19	12:32:21.170	-107.17	24.36	-106.155	0.968924	-0.18788	0.37698	-0.7545	0.351	0.4845	0	356	170	2
2026-02-19	12:32:21.190	-39.41	47.04	-126.945	1.02358	-0.187148	0.323056	-0.753	0.348	0.477	0	356	170	2
2026-02-19	12:32:21.210	1.435	59.255	-134.365	0.980392	-0.01586	0.288408	-0.753	0.348	0.477	0	377	188	3
2026-02-19	12:32:21.230	13.195	67.69	-140.63	0.981368	0.178608	0.205204	-0.7335	0.288	0.4515	0	377	188	3
2026-02-19	12:32:21.250	-1.645	72.66	-148.645	0.996984	0.312564	0.096624	-0.723	0.2715	0.444	0	377	188	3
2026-02-19	12:32:21.270	-17.885	73.955	-156.73	1.015284	0.382104	0.111508	-0.7155	0.2445	0.4335	0	377	188	3
2026-02-19	12:32:21.290	-31.535	72.8	-163.03	0.962092	0.382104	0.16714	-0.699	0.2205	0.4215	0	377	188	3
2026-02-19	12:32:21.310	-42.105	75.04	-165.69	0.851072	0.362828	0.132248	-0.6885	0.2145	0.4095	0	377	188	3
2026-02-19	12:32:21.330	-45.43	78.61	-157.08	0.681492	0.243024	0.040504	-0.672	0.201	0.3885	0	377	188	3
2026-02-19	12:32:21.350	-37.45	78.47	-136.465	0.606096	0.029036	-0.094916	-0.6555	0.186	0.3765	0	377	188	3
2026-02-19	12:32:21.370	-22.26	71.75	-109.655	0.4575	0.244244	-0.053436	-0.6345	0.171	0.363	0	377	188	3
2026-02-19	12:32:21.390	-4.69	62.3	-88.62	0.4941	0.468968	0.186416	-0.618	0.1575	0.3495	0	377	188	3
2026-02-19	12:32:21.410	15.575	58.59	-74.235	0.749812	0.427976	0.234728	-0.6075	0.1455	0.342	0	389	200	3
2026-02-19	12:32:21.430	30.03	52.815	-67.445	0.852292	0.541436	0.317444	-0.5895	0.138	0.336	0	389	200	3
2026-02-19	12:32:21.450	31.92	42.56	-60.655	0.79666	0.351116	0.155916	-0.5775	0.1335	0.3345	0	389	200	3
2026-02-19	12:32:21.470	19.39	16.345	-51.135	0.874984	0.047336	0.156404	-0.579	0.1335	0.333	0	389	200	3
2026-02-19	12:32:21.490	-0.385	-1.89	-29.96	0.934764	-0.217404	0.15006	-0.579	0.1335	0.333	0	389	200	3
2026-02-19	12:32:21.510	-10.045	-17.955	-8.19	0.942816	-0.156892	0.22448	-0.5415	0.1095	0.342	0	389	200	3
2026-02-19	12:32:21.530	-18.235	-29.085	3.01	0.944036	-0.029524	0.186904	-0.5475	0.102	0.3375	0	389	200	3
2026-02-19	12:32:21.550	-22.995	-39.375	8.82	0.862052	0.078568	0.242536	-0.552	0.1125	0.3375	0	389	200	3
2026-02-19	12:32:21.570	-33.95	-47.25	12.705	0.840336	0.162016	0.240828	-0.555	0.105	0.333	0	389	200	3
2026-02-19	12:32:21.590	-63.14	-52.85	18.62	0.850828	0.207644	0.221796	-0.567	0.1125	0.33	0	389	200	3
2026-02-19	12:32:21.610	-80.92	-57.295	26.95	0.86742	0.196664	0.214964	-0.5625	0.1185	0.336	0	394	200	2
2026-02-19	12:32:21.630	-79.835	-59.955	36.995	0.926712	0.149572	0.266448	-0.5685	0.1275	0.333	0	394	200	2
2026-02-19	12:32:21.650	-55.755	-55.335	49.105	0.97478	0.138104	0.326716	-0.5805	0.132	0.3225	0	394	200	2
2026-02-19	12:32:21.670	-22.47	-50.015	59.5	1.00528	0.187636	0.243756	-0.585	0.1365	0.327	0	394	200	2
2026-02-19	12:32:21.690	7.175	-44.52	65.135	1.001132	0.230824	0.180316	-0.594	0.1425	0.3315	0	394	200	2
2026-02-19	12:32:21.710	26.495	-40.88	70.245	1.1651	-0.261568	-0.020496	-0.603	0.147	0.3375	0	394	200	2
2026-02-19	12:32:21.730	42.035	3.5	48.86	2.624952	2.11914	1.884412	-0.615	0.153	0.345	0	394	200	2
2026-02-19	12:32:21.750	30.87	-36.295	6.09	0.81252	-0.0732	-0.189588	-0.6225	0.1605	0.348	0	394	200	2
2026-02-19	12:32:21.770	-11.48	-23.205	22.785	0.864248	-0.287432	0.077104	-0.6225	0.1605	0.348	0	394	200	2
2026-02-19	12:32:21.790	-51.205	-17.5	45.78	1.18828	-0.044164	0.232776	-0.6315	0.153	0.3675	0	394	200	2
2026-02-19	12:32:21.810	-28.875	-1.75	35.805	0.853756	0.37698	0.607804	-0.6315	0.165	0.3585	0	394	212	3
2026-02-19	12:32:21.830	12.215	-5.53	31.36	0.801052	0.555344	0.709796	-0.636	0.1785	0.363	0	394	212	3
2026-02-19	12:32:21.850	6.825	-12.04	14.7	0.809592	0.425536	0.66978	-0.6315	0.177	0.3585	0	394	212	3
2026-02-19	12:32:21.870	-27.65	-14.42	13.195	0.924272	0.314272	0.73688	-0.639	0.177	0.357	0	394	212	3
2026-02-19	12:32:21.890	-15.435	-9.065	22.365	0.864492	0.256688	0.692228	-0.6375	0.1785	0.3585	0	394	212	3
2026-02-19	12:32:21.910	21.385	0.35	31.15	0.872544	0.306952	0.619272	-0.6495	0.1815	0.3555	0	394	212	3
2026-02-19	12:32:21.930	34.65	2.905	35.455	0.908168	0.307196	0.508984	-0.648	0.1785	0.3555	0	394	212	3
2026-02-19	12:32:21.950	29.75	-3.745	39.2	0.922076	0.3294	0.408212	-0.651	0.177	0.3585	0	394	212	3
2026-02-19	12:32:21.970	25.025	-8.785	42.315	0.84424	0.386984	0.262544	-0.66	0.1815	0.369	0	394	212	3
2026-02-19	12:32:21.990	16.38	-10.325	36.26	0.921588	0.282064	0.03782	-0.666	0.189	0.375	0	394	212	3
2026-02-19	12:32:22.010	10.045	-14.595	29.995	0.93208	0.113948	-0.048556	-0.663	0.1965	0.3735	0	394	251	3
2026-02-19	12:32:22.030	0.525	-22.365	27.055	0.996252	0.09638	-0.112728	-0.66	0.198	0.375	0	394	251	3
2026-02-19	12:32:22.050	-14.525	-17.36	26.6	1.038708	0.081008	0.009516	-0.66	0.198	0.375	0	394	251	3
2026-02-19	12:32:22.070	-27.02	-13.125	25.515	0.9699	0.106384	0.09857599	-0.6765	0.198	0.3825	0	394	251	3
2026-02-19	12:32:22.090	-40.04	-21.35	19.705	1.006744	0.159576	0.166896	-0.675	0.21	0.381	0	394	251	3
2026-02-19	12:32:22.110	-37.765	-16.24	15.855	0.968192	-0.08662	0.288896	-0.687	0.2145	0.3765	0	394	251	3
2026-02-19	12:32:22.130	7.77	-11.025	20.93	0.985272	-0.069784	0.360388	-0.6825	0.2115	0.3765	0	394	251	3
2026-02-19	12:32:22.150	2.205	-6.825	25.27	1.030656	-0.1098	0.354288	-0.6825	0.213	0.381	0	394	251	3
2026-02-19	12:32:22.170	-9.24	-7.14	29.645	0.952088	-0.042456	0.451644	-0.678	0.225	0.3795	0	394	251	3
2026-02-19	12:32:22.190	-0.56	-6.79	26.88	0.975024	-0.092964	0.356972	-0.684	0.2265	0.381	0	394	251	3
2026-02-19	12:32:22.210	8.75	-4.795	24.99	1.055788	-0.204228	0.166408	-0.6885	0.228	0.384	0	393	274	3
2026-02-19	12:32:22.230	-0.385	-0.805	29.715	1.044076	-0.028304	0.169336	-0.69	0.228	0.384	0	393	274	3
2026-02-19	12:32:22.250	-16.205	-9.31	33.88	0.618052	0.0671	-0.0976	-0.696	0.2325	0.381	0	393	274	3
2026-02-19	12:32:22.270	-19.11	-9.625	20.965	1.0309	0.081008	0.004148	-0.7035	0.237	0.3855	0	393	274	3
2026-02-19	12:32:22.290	-18.48	-12.425	22.68	1.165588	0.03904	0.124928	-0.708	0.24	0.39	0	393	274	3
2026-02-19	12:32:22.310	-10.605	-12.11	22.225	1.005768	0.029768	0.282064	-0.708	0.243	0.384	0	393	274	3
2026-02-19	12:32:22.330	-1.05	-15.82	30.485	0.948916	0.237168	0.333304	-0.7065	0.243	0.3825	0	393	274	3
2026-02-19	12:32:22.350	4.76	-20.895	29.365	0.877912	0.650016	0.294752	-0.7035	0.255	0.3855	0	393	274	3
2026-02-19	12:32:22.370	3.185	-17.43	12.215	0.910852	0.560468	0.203496	-0.7095	0.2535	0.39	0	393	274	3
2026-02-19	12:32:22.390	-5.88	-14.735	5.04	0.998204	0.305976	0.310368	-0.72	0.2595	0.405	0	393	274	3
2026-02-19	12:32:22.410	8.225	-15.295	9.1	0.918904	0.188124	0.245464	-0.717	0.2535	0.393	0	389	273	3
2026-02-19	12:32:22.430	12.81	-14.525	11.69	0.922076	0.205692	0.287188	-0.714	0.2565	0.399	0	389	273	3
2026-02-19	12:32:22.450	4.69	-19.53	12.355	0.921832	0.115412	0.368928	-0.7125	0.2565	0.402	0	389	273	3
2026-02-19	12:32:22.470	14.035	-22.645	12.95	0.89182	0.114924	0.398452	-0.7155	0.2685	0.4035	0	389	273	3
2026-02-19	12:32:22.490	35.595	-29.155	7.98	0.960872	-0.13664	0.119804	-0.7245	0.267	0.4065	0	389	273	3
2026-02-19	12:32:22.510	36.26	-29.33	14.07	1.10044	-0.298412	0.11224	-0.7275	0.267	0.4185	0	389	273	3
2026-02-19	12:32:22.530	17.815	-21.735	27.58	0.970876	-0.132248	0.262056	-0.7275	0.2685	0.4155	0	389	273	3
2026-02-19	12:32:22.550	24.57	-19.915	31.675	0.957944	0.016836	0.22936	-0.729	0.267	0.4215	0	389	273	3
2026-02-19	12:32:22.570	32.97	-21.49	27.615	0.964288	0.083204	0.086376	-0.729	0.27	0.4305	0	389	273	3
2026-02-19	12:32:22.590	5.67	-23.065	19.565	0.965508	-0.268888	0.206668	-0.729	0.2715	0.432	0	389	273	3
2026-02-19	12:32:22.610	-11.97	-17.71	23.87	1.029436	-0.288164	0.359412	-0.7305	0.2685	0.4335	0	381	265	2
2026-02-19	12:32:22.630	13.86	-11.235	32.515	1.017724	-0.396012	0.335744	-0.7365	0.282	0.4455	0	381	265	2
2026-02-19	12:32:22.650	40.32	-6.44	44.8	1.058228	-0.30134	0.344772	-0.738	0.291	0.4485	0	381	265	2
2026-02-19	12:32:22.670	48.3	-10.22	59.605	1.013576	-0.004392	0.408212	-0.741	0.285	0.4605	0	381	265	2
2026-02-19	12:32:22.690	67.585	-23.695	67.795	0.925248	0.231556	0.180316	-0.7455	0.309	0.453	0	381	265	2
2026-02-19	12:32:22.710	102.795	-32.655	72.38	1.029924	0.3965	-0.023424	-0.7515	0.3105	0.456	0	381	265	2
2026-02-19	12:32:22.730	141.05	-29.155	71.19	1.013332	0.171776	-0.08906	-0.762	0.3225	0.468	0	381	265	2
2026-02-19	12:32:22.750	182.98	-28.63	63.105	1.217072	0.264008	-0.113704	-0.7485	0.333	0.4845	0	381	265	2
2026-02-19	12:32:22.770	199.99	-20.02	52.465	1.312964	0.452132	-0.20374	-0.7695	0.339	0.4905	0	381	265	2
2026-02-19	12:32:22.790	148.505	-9.065	39.025	1.409588	0.32696	-0.254248	-0.7545	0.3435	0.4995	0	381	265	2
2026-02-19	12:32:22.810	78.995	5.81	12.215	1.66408	0.18544	-0.033672	-0.7665	0.348	0.519	0	373	248	3
2026-02-19	12:32:22.830	3.605	-3.465	-29.085	1.415688	0.167872	0.100284	-0.7665	0.3555	0.522	0	373	248	3
2026-02-19	12:32:22.850	-57.855	-14.98	-66.15	1.192916	-0.265472	0.15982	-0.7665	0.348	0.5175	0	373	248	3
2026-02-19	12:32:22.870	-108.99	-13.335	-83.545	1.05286	-0.476776	0.202764	-0.7605	0.339	0.5115	0	373	248	3
2026-02-19	12:32:22.890	-127.225	26.705	-80.955	0.953308	-0.327204	0.482632	-0.7545	0.3375	0.5115	0	373	248	3
2026-02-19	12:32:22.910	-111.44	40.635	-95.13	0.920856	-0.159576	0.579256	-0.7485	0.3135	0.501	0	373	248	3
2026-02-19	12:32:22.930	-87.99	42.315	-111.58	0.9272	-0.032696	0.523868	-0.7455	0.297	0.483	0	373	248	3
2026-02-19	12:32:22.950	-67.375	47.705	-120.47	0.958432	-0.025376	0.408456	-0.7335	0.2835	0.4755	0	373	248	3
2026-02-19	12:32:22.970	-35.91	52.255	-122.15	0.917684	0.014152	0.233264	-0.729	0.273	0.4755	0	373	248	3
2026-02-19	12:32:22.990	-4.235	57.96	-119.035	0.912804	0.14152	0.19154	-0.7185	0.252	0.45	0	373	248	3
2026-02-19	12:32:23.010	13.3	60.445	-114.52	0.895724	0.313052	0.176168	-0.7125	0.231	0.4425	0	367	226	3
2026-02-19	12:32:23.030	-1.295	56.455	-110.495	0.839604	0.39894	0.141276	-0.6885	0.225	0.4305	0	367	226	3
2026-02-19	12:32:23.050	-27.265	51.8	-106.155	0.832528	0.435052	-0.122	-0.6765	0.207	0.4245	0	367	226	3
2026-02-19	12:32:23.070	-38.955	50.085	-101.535	0.798124	0.41114	-0.141764	-0.6675	0.204	0.414	0	367	226	3
2026-02-19	12:32:23.090	-43.19	43.75	-92.435	0.821792	0.381128	-0.101016	-0.6615	0.18	0.4065	0	367	226	3
2026-02-19	12:32:23.110	-50.785	35.945	-80.71	0.79788	0.38064	-0.053436	-0.6585	0.18	0.4005	0	367	226	3
2026-02-19	12:32:23.130	-56.315	32.76	-69.58	0.80276	0.2928	-0.058072	-0.639	0.1695	0.381	0	367	226	3
2026-02-19	12:32:23.150	-49.245	29.015	-58.345	0.77104	0.229848	-0.07442	-0.633	0.1665	0.3795	0	367	226	3
2026-02-19	12:32:23.170	-23.87	18.55	-42.875	0.793488	0.18788	0.104188	-0.6285	0.1635	0.378	0	367	226	3
2026-02-19	12:32:23.190	-15.89	14.91	-31.22	0.842776	0.166164	0.168116	-0.6285	0.1635	0.378	0	367	226	3
2026-02-19	12:32:23.210	-14.98	10.605	-22.19	0.914268	0.206912	0.186416	-0.615	0.153	0.36	0	364	203	3
2026-02-19	12:32:23.230	-14.665	5.215	-15.435	0.912072	0.15006	0.178364	-0.6075	0.153	0.3465	0	364	203	3
2026-02-19	12:32:23.250	-12.285	-0.14	-10.5	0.995764	0.109312	0.17568	-0.609	0.1485	0.3495	0	364	203	3
2026-02-19	12:32:23.270	-3.325	-3.71	-3.255	1.069696	0.125172	0.147864	-0.6075	0.1425	0.351	0	364	203	3
2026-02-19	12:32:23.290	6.23	-7.735	2.765	1.088484	0.169092	0.188856	-0.6105	0.1515	0.3525	0	364	203	3
2026-02-19	12:32:23.310	1.785	-14.945	6.265	1.09434	0.171288	0.177876	-0.6015	0.1515	0.3525	0	364	203	3
2026-02-19	12:32:23.330	-7.805	-18.62	10.395	1.048468	0.125904	0.168116	-0.6075	0.153	0.3585	0	364	203	3
2026-02-19	12:32:23.350	-8.26	-23.275	14.735	1.011624	0.092964	0.166164	-0.6135	0.156	0.357	0	364	203	3
2026-02-19	12:32:23.370	7.105	-26.005	20.195	1.051884	0.04758	0.20496	-0.615	0.1515	0.3525	0	364	203	3
2026-02-19	12:32:23.390	22.155	-27.16	28.21	1.059936	0.127856	0.233996	-0.615	0.156	0.36	0	364	203	3
2026-02-19	12:32:23.410	22.68	-25.69	35.455	1.039196	0.097844	0.243268	-0.627	0.162	0.3705	0	359	182	3
2026-02-19	12:32:23.430	31.815	-21.28	40.635	0.970388	0.091256	0.205204	-0.633	0.159	0.3675	0	359	182	3
2026-02-19	12:32:23.450	27.44	-2.59	33.25	1.787544	1.01138	0.454084	-0.633	0.159	0.3675	0	359	182	3
2026-02-19	12:32:23.470	14.14	0.735	-2.66	1.10166	-0.13054	0.220576	-0.633	0.159	0.3675	0	359	182	3
2026-02-19	12:32:23.490	32.725	-21.735	16.485	0.966484	0.159332	0.037576	-0.6345	0.168	0.3855	0	359	182	3
2026-02-19	12:32:23.510	6.58	-12.95	9.8	0.976976	0.125172	0.174948	-0.6435	0.1665	0.39	0	359	182	3
2026-02-19	12:32:23.530	-47.285	-11.025	38.395	0.906704	-0.127368	0.18544	-0.6405	0.171	0.396	0	359	182	3
2026-02-19	12:32:23.550	-43.68	-10.36	40.25	1.075308	0.204716	0.29036	-0.648	0.174	0.3915	0	359	182	3
2026-02-19	12:32:23.570	-36.47	2.03	42.665	0.91256	0.497516	0.44042	-0.6525	0.1785	0.3855	0	359	182	3
2026-02-19	12:32:23.590	-19.915	2.31	40.95	0.858148	0.553148	0.407968	-0.663	0.186	0.387	0	359	182	3
2026-02-19	12:32:23.610	-17.465	3.465	35.14	0.833748	0.618052	0.481168	-0.666	0.1875	0.3825	0	352	181	3
2026-02-19	12:32:23.630	-39.13	-1.82	25.375	0.954528	0.778116	0.457256	-0.66	0.1935	0.3795	0	352	181	3
2026-02-19	12:32:23.650	-52.29	-9.625	18.41	0.843752	0.63562	0.342088	-0.6645	0.198	0.375	0	352	181	3
2026-02-19	12:32:23.670	-46.13	-9.275	18.9	0.803248	0.39528	0.302316	-0.6705	0.204	0.375	0	352	181	3
2026-02-19	12:32:23.690	-27.335	-8.365	25.235	0.91256	0.358192	0.380396	-0.672	0.2145	0.375	0	352	181	3
2026-02-19	12:32:23.710	11.095	-10.535	28.84	0.849608	0.255468	0.34038	-0.681	0.2175	0.3645	0	352	181	3
2026-02-19	12:32:23.730	26.81	-7.455	32.48	0.8784	0.117852	0.272304	-0.681	0.21	0.372	0	352	181	3
2026-02-19	12:32:23.750	1.225	-8.925	35.07	0.9272	-0.013664	0.24644	-0.681	0.21	0.372	0	352	181	3
2026-02-19	12:32:23.770	-16.205	-15.645	34.23	0.931836	-0.188368	0.240584	-0.6855	0.219	0.3825	0	352	181	3
2026-02-19	12:32:23.790	-28.175	-12.355	34.475	0.998692	-0.192028	0.18178	-0.6825	0.2265	0.3765	0	352	181	3
2026-02-19	12:32:23.810	-44.1	-6.51	34.895	0.981856	-0.15616	0.183488	-0.6885	0.228	0.375	0	346	202	3
2026-02-19	12:32:23.830	-48.02	-8.47	31.29	1.019188	-0.111264	0.25864	-0.696	0.2355	0.375	0	346	202	3
2026-02-19	12:32:23.850	-30.03	-9.45	29.4	1.052616	0.007808	0.222772	-0.699	0.24	0.378	0	346	202	3
2026-02-19	12:32:23.870	-9.555	-10.885	30.345	1.006744	0.025132	0.040992	-0.699	0.2505	0.375	0	346	202	3
2026-02-19	12:32:23.890	-4.69	-9.31	31.395	0.966972	0.102236	0.01098	-0.696	0.249	0.372	0	346	202	3
2026-02-19	12:32:23.910	-0.385	-11.83	28.175	0.91744	0.080276	0.06734399	-0.708	0.2655	0.3705	0	346	202	3
2026-02-19	12:32:23.930	10.71	-16.1	22.26	0.966972	0.016836	0.077836	-0.708	0.264	0.372	0	346	202	3
2026-02-19	12:32:23.950	-0.595	-18.62	18.48	1.007964	-0.121268	0.157868	-0.717	0.2655	0.375	0	346	202	3
2026-02-19	12:32:23.970	-28.84	-17.92	17.57	0.967948	-0.209596	0.37454	-0.7275	0.2685	0.3945	0	346	202	3
2026-02-19	12:32:23.990	-21.91	-18.165	17.045	1.000888	-0.18056	0.553148	-0.717	0.273	0.381	0	346	202	3
2026-02-19	12:32:24.010	15.33	-16.66	22.505	0.96014	-0.1037	0.562664	-0.72	0.2715	0.3825	0	340	218	3
2026-02-19	12:32:24.030	-3.99	-15.75	23.66	0.932324	-0.065392	0.358436	-0.723	0.2715	0.3855	0	340	218	3
2026-02-19	12:32:24.050	-19.81	-14.42	25.9	0.994056	0.008052	0.190076	-0.7215	0.282	0.3915	0	340	218	3
2026-02-19	12:32:24.070	0.77	-9.695	27.895	0.948672	0.127856	0.088328	-0.7245	0.282	0.396	0	340	218	3
2026-02-19	12:32:24.090	11.97	-14.105	24.92	0.986736	0.027572	-0.03782	-0.7305	0.2865	0.387	0	340	218	3
2026-02-19	12:32:24.110	6.475	-16.625	25.06	0.976	0.058072	-0.017812	-0.7395	0.2955	0.399	0	340	218	3
2026-02-19	12:32:24.130	-8.61	-16.835	25.97	0.945256	0.147376	0.060268	-0.732	0.294	0.3945	0	340	218	3
2026-02-19	12:32:24.150	-11.41	-18.97	24.955	0.907924	0.295484	0.140056	-0.735	0.2985	0.4035	0	340	218	3
2026-02-19	12:32:24.170	-14.805	-22.82	20.965	0.88694	0.206424	0.44652	-0.741	0.3	0.399	0	340	218	3
2026-02-19	12:32:24.190	-3.71	-22.12	21.77	0.880108	-0.098332	0.574132	-0.7455	0.309	0.4005	0	340	218	3
2026-02-19	12:32:24.210	26.6	-15.12	31.08	0.951356	-0.136396	0.506056	-0.744	0.309	0.405	0	334	226	3
2026-02-19	12:32:24.230	47.74	-9.065	39.2	0.892308	0.004392	0.370148	-0.75	0.3075	0.4095	0	334	226	3
2026-02-19	12:32:24.250	40.46	-12.215	38.78	1.09678	-0.141032	0.090036	-0.7485	0.3195	0.4095	0	334	226	3
2026-02-19	12:32:24.270	13.37	-14.595	30.905	1.08336	-0.208132	0.01586	-0.756	0.318	0.411	0	334	226	3
2026-02-19	12:32:24.290	0.665	-12.145	28.91	0.8662	-0.876692	-0.022204	-0.756	0.318	0.4215	0	334	226	3
2026-02-19	12:32:24.310	5.075	-13.825	37.66	0.930372	-0.07905599	0.064172	-0.756	0.318	0.4215	0	334	226	3
2026-02-19	12:32:24.330	16.73	-16.345	34.3	0.929396	-0.254248	0.140056	-0.7605	0.327	0.4305	0	334	226	3
2026-02-19	12:32:24.350	28.035	-22.33	37.415	1.162416	-0.214232	0.22204	-0.765	0.336	0.4395	0	334	226	3
2026-02-19	12:32:24.370	39.515	-23.485	28.91	1.184132	-0.25254	0.22082	-0.762	0.3465	0.4305	0	334	226	3
2026-02-19	12:32:24.390	39.305	-29.47	25.725	1.230736	-0.040504	0.289628	-0.774	0.3525	0.4335	0	334	226	3
2026-02-19	12:32:24.410	17.395	-22.925	26.6	1.262212	0.222284	0.453108	-0.7695	0.3525	0.441	0	329	228	3
2026-02-19	12:32:24.430	2.135	-20.055	36.68	1.330776	0.071004	0.416996	-0.762	0.351	0.4545	0	329	228	3
2026-02-19	12:32:24.450	-5.95	0.7	46.585	1.8361	0.1769	0.355508	-0.768	0.36	0.45	0	329	228	3
2026-02-19	12:32:24.470	15.4	19.25	35.525	1.753628	0.439688	0.351116	-0.7665	0.3615	0.4485	0	329	228	3
2026-02-19	12:32:24.490	56.525	14.175	1.295	1.443748	0.25498	0.136884	-0.7785	0.372	0.4515	0	329	228	3
2026-02-19	12:32:24.510	64.75	9.695	-34.02	1.126548	0.064416	0.103456	-0.7755	0.3795	0.4455	0	329	228	3
2026-02-19	12:32:24.530	28.315	17.885	-51.835	0.892308	-0.091988	0.130784	-0.768	0.3675	0.4455	0	329	228	3
2026-02-19	12:32:24.550	-12.67	33.11	-65.8	0.841556	-0.1037	0.152744	-0.768	0.3615	0.4425	0	329	228	3
2026-02-19	12:32:24.570	-25.235	39.83	-90.72	0.892796	-0.078568	0.20496	-0.7635	0.3465	0.4365	0	329	228	3
2026-02-19	12:32:24.590	-21.035	44.45	-110.39	0.921344	-0.112972	0.245464	-0.7635	0.3465	0.4365	0	329	228	3
2026-02-19	12:32:24.610	-15.68	49.665	-118.02	0.916952	-0.058804	0.251808	-0.7575	0.3255	0.423	0	327	229	3
2026-02-19	12:32:24.630	-12.355	53.095	-120.19	0.869372	0.026596	0.23912	-0.747	0.2925	0.408	0	327	229	3
2026-02-19	12:32:24.650	-7.175	53.795	-120.575	0.835456	0.11468	0.281088	-0.741	0.2805	0.408	0	327	229	3
2026-02-19	12:32:24.670	-16.345	54.18	-121.135	0.782996	0.072468	0.181536	-0.7275	0.2745	0.3885	0	327	229	3
2026-02-19	12:32:24.690	-16.73	57.75	-115.29	0.71004	0.13176	0.15738	-0.726	0.2625	0.375	0	327	229	3
2026-02-19	12:32:24.710	-7.805	59.745	-108.605	0.723948	0.055144	-0.000488	-0.711	0.237	0.3675	0	327	229	3
2026-02-19	12:32:24.730	2.94	56.07	-102.55	0.738344	0.244	0.050752	-0.6945	0.222	0.3615	0	327	229	3
2026-02-19	12:32:24.750	-3.115	49.315	-95.62	0.776896	0.242048	0.032208	-0.687	0.21	0.357	0	327	229	3
2026-02-19	12:32:24.770	-17.885	41.195	-87.78	0.80032	0.210572	0.038552	-0.6705	0.201	0.3465	0	327	229	3
2026-02-19	12:32:24.790	-25.62	34.405	-79.415	0.860588	0.207156	0.092232	-0.663	0.1905	0.336	0	327	229	3
2026-02-19	12:32:24.810	-22.26	29.96	-69.475	0.888892	0.181048	0.114924	-0.66	0.183	0.3285	0	326	223	3
2026-02-19	12:32:24.830	-10.43	25.445	-60.095	0.91134	0.201056	0.183732	-0.6465	0.174	0.3285	0	326	223	3
2026-02-19	12:32:24.850	-5.67	19.67	-51.52	0.99674	0.183976	0.238388	-0.6345	0.1725	0.312	0	326	223	3
2026-02-19	12:32:24.870	-2.135	16.24	-41.195	1.070184	0.112972	0.251564	-0.63	0.165	0.315	0	326	223	3
2026-02-19	12:32:24.890	6.3	11.83	-34.09	1.043588	0.06832	0.223016	-0.6225	0.1605	0.3105	0	326	223	3
2026-02-19	12:32:24.910	13.65	4.795	-26.425	1.007476	0.047092	0.24522	-0.6165	0.1545	0.3105	0	326	223	3
2026-02-19	12:32:24.930	9.8	-1.715	-19.39	1.016016	0.10004	0.284748	-0.612	0.153	0.3135	0	326	223	3
2026-02-19	12:32:24.950	-4.515	-7.455	-13.545	1.026996	0.12932	0.2684	-0.6075	0.156	0.3135	0	326	223	3
2026-02-19	12:32:24.970	-15.68	-13.335	-10.045	1.026264	0.152256	0.259372	-0.603	0.1455	0.312	0	326	223	3
2026-02-19	12:32:24.990	-22.61	-19.67	-6.58	1.04432	0.16592	0.260348	-0.606	0.147	0.309	0	326	223	3
2026-02-19	12:32:25.010	-23.135	-25.095	-3.43	1.084824	0.1464	0.257176	-0.6015	0.147	0.3135	0	323	213	3
2026-02-19	12:32:25.030	-21.035	-28.175	-0.63	1.074332	0.177144	0.225944	-0.6045	0.138	0.306	0	323	213	3
2026-02-19	12:32:25.050	-18.165	-28.175	1.225	1.006012	0.122976	0.23058	-0.6135	0.1425	0.3105	0	323	213	3
2026-02-19	12:32:25.070	-12.46	-26.915	5.81	0.89548	0.109068	0.189344	-0.6105	0.156	0.3105	0	323	213	3
2026-02-19	12:32:25.090	-3.605	-26.53	11.585	0.801296	0.104676	0.187392	-0.6135	0.1515	0.3075	0	323	213	3
2026-02-19	12:32:25.110	4.27	-27.16	17.36	0.790316	0.106872	0.180804	-0.612	0.144	0.3135	0	323	213	3
2026-02-19	12:32:25.130	14.42	-29.47	25.76	0.833992	0.139568	0.224236	-0.624	0.153	0.318	0	323	213	3
2026-02-19	12:32:25.150	-3.395	-7.385	19.53	1.94468	1.432768	0.993568	-0.6255	0.156	0.321	0	323	213	3
2026-02-19	12:32:25.170	-3.15	-15.89	-4.025	1.003816	-0.039528	0.255224	-0.6315	0.1545	0.3225	0	323	213	3
2026-02-19	12:32:25.190	19.005	-32.585	-6.93	0.866932	0.081008	0.226676	-0.639	0.156	0.3285	0	323	213	3
2026-02-19	12:32:25.210	-18.41	-22.295	19.775	0.904264	0.104188	0.381616	-0.639	0.156	0.3315	0	316	217	3
2026-02-19	12:32:25.230	-47.075	-14.315	26.53	0.958676	0.162748	0.365268	-0.642	0.156	0.333	0	316	217	3
2026-02-19	12:32:25.250	-16.415	-15.26	31.115	0.915244	0.335256	0.439444	-0.648	0.1635	0.3315	0	316	217	3
2026-02-19	12:32:25.270	9.94	-10.43	32.69	0.838872	0.399672	0.377956	-0.6495	0.171	0.327	0	316	217	3
2026-02-19	12:32:25.290	23.45	-4.095	36.295	0.84912	0.45506	0.370148	-0.6555	0.1635	0.333	0	316	217	3
2026-02-19	12:32:25.310	18.165	-3.64	35.945	0.88572	0.57096	0.383324	-0.657	0.168	0.3375	0	316	217	3
2026-02-19	12:32:25.330	1.505	-8.47	30.135	0.882304	0.549488	0.382836	-0.6585	0.1755	0.345	0	316	217	3
2026-02-19	12:32:25.350	-16.555	-12.145	26.25	0.810324	0.324764	0.345016	-0.666	0.1785	0.33	0	316	217	3
2026-02-19	12:32:25.370	-29.68	-11.655	30.485	0.910852	0.275232	0.461404	-0.6585	0.183	0.342	0	316	217	3
2026-02-19	12:32:25.390	-28.945	-10.43	33.915	0.969656	0.248148	0.441884	-0.6765	0.183	0.3345	0	316	217	3
2026-02-19	12:32:25.410	-9.59	-6.965	36.715	0.860588	0.047824	0.39528	-0.681	0.189	0.339	0	310	241	3
2026-02-19	12:32:25.430	2.17	-0.875	42.035	0.921588	0.134688	0.331596	-0.6795	0.1935	0.3405	0	310	241	3
2026-02-19	12:32:25.450	-9.905	1.015	40.495	0.9821	0.181536	0.286212	-0.684	0.1995	0.3405	0	310	241	3
2026-02-19	12:32:25.470	-15.995	-3.5	35.245	0.915244	0.0366	0.246196	-0.687	0.2055	0.336	0	310	241	3
2026-02-19	12:32:25.490	-22.855	-9.275	32.025	1.037976	0.032696	0.22082	-0.693	0.2115	0.333	0	310	241	3
2026-02-19	12:32:25.510	-35.035	-6.79	33.215	1.027484	-0.027816	0.165432	-0.702	0.2145	0.3345	0	310	241	3
2026-02-19	12:32:25.530	-34.86	0.91	36.085	1.041392	-0.006344	0.18788	-0.7035	0.2235	0.3315	0	310	241	3
2026-02-19	12:32:25.550	-1.61	-0.84	30.625	1.01992	-0.079788	0.058316	-0.7005	0.234	0.333	0	310	241	3
2026-02-19	12:32:25.570	12.32	-9.87	23.59	1.049688	-0.217892	0.037576	-0.7005	0.2355	0.3375	0	310	241	3
2026-02-19	12:32:25.590	-3.885	-8.75	23.45	1.114592	-0.24888	0.188856	-0.714	0.237	0.333	0	310	241	3
2026-02-19	12:32:25.610	-9.485	0.35	29.015	1.011136	-0.183976	0.28304	-0.705	0.237	0.3375	0	303	265	2
2026-02-19	12:32:25.630	1.05	2.835	29.4	0.95404	0.00854	0.385276	-0.717	0.24	0.3375	0	303	265	2
2026-02-19	12:32:25.650	5.425	-1.82	23.94	0.945012	0.029768	0.360388	-0.7155	0.2445	0.324	0	303	265	2
2026-02-19	12:32:25.670	-8.47	-5.775	24.115	0.9821	-0.033916	0.40992	-0.7185	0.2505	0.327	0	303	265	2
2026-02-19	12:32:25.690	-10.045	-7	34.3	0.953796	0.100528	0.468236	-0.72	0.258	0.336	0	303	265	2
2026-02-19	12:32:25.710	-1.82	-6.615	36.925	0.888648	0.399672	0.391132	-0.717	0.2535	0.33	0	303	265	2
2026-02-19	12:32:25.730	3.64	-11.795	18.41	0.876204	0.487268	0.30866	-0.7185	0.2595	0.3375	0	303	265	2
2026-02-19	12:32:25.750	2.66	-15.75	5.845	0.920612	0.33306	0.1464	-0.7275	0.2685	0.3435	0	303	265	2
2026-02-19	12:32:25.770	3.325	-16.73	7.7	0.967704	0.237412	0.101992	-0.732	0.27	0.342	0	303	265	2
2026-02-19	12:32:25.790	10.395	-23.38	11.165	0.936716	0.227652	0.168604	-0.7305	0.27	0.3435	0	303	265	2
2026-02-19	12:32:25.810	17.29	-25.865	8.26	0.96624	-0.025864	0.089304	-0.732	0.267	0.3435	0	296	274	2
2026-02-19	12:32:25.830	23.38	-25.585	9.695	1.033584	-0.189588	-0.024156	-0.7335	0.2685	0.3525	0	296	274	2
2026-02-19	12:32:25.850	15.68	-20.93	17.64	1.013088	-0.157868	0.155184	-0.7395	0.27	0.363	0	296	274	2
2026-02-19	12:32:25.870	13.09	-15.26	20.615	0.95038	-0.191784	0.415532	-0.744	0.2685	0.363	0	296	274	2
2026-02-19	12:32:25.890	34.79	-11.025	19.425	0.977464	-0.259372	0.412848	-0.735	0.2715	0.3615	0	296	274	2
2026-02-19	12:32:25.910	43.89	-9.66	19.285	0.994056	-0.416508	0.136396	-0.7485	0.2715	0.366	0	296	274	2
2026-02-19	12:32:25.930	7.98	-2.205	25.48	1.109712	-0.229116	0.050752	-0.7425	0.279	0.3705	0	296	274	2
2026-02-19	12:32:25.950	-11.445	3.185	26.915	1.070672	-0.254492	-0.005612	-0.7395	0.2805	0.3645	0	296	274	2
2026-02-19	12:32:25.970	0.14	5.845	23.555	1.121424	-0.429928	-0.230824	-0.75	0.2835	0.366	0	296	274	2
2026-02-19	12:32:25.990	-5.215	12.285	25.305	1.183888	-0.31354	-0.233264	-0.7485	0.285	0.375	0	296	274	2
2026-02-19	12:32:26.010	-17.78	15.26	31.64	1.097756	-0.395768	0.016104	-0.7485	0.285	0.375	0	292	263	2
2026-02-19	12:32:26.030	-1.61	-4.795	38.71	1.028704	-0.276452	0.11956	-0.7485	0.291	0.3705	0	292	263	2
2026-02-19	12:32:26.050	20.79	-32.41	38.36	1.026264	0.269864	0.41236	-0.753	0.303	0.3645	0	292	263	2
2026-02-19	12:32:26.070	31.85	-42.84	31.92	0.889136	0.683932	0.673684	-0.756	0.309	0.366	0	292	263	2
2026-02-19	12:32:26.090	68.67	-42.21	13.79	0.870836	0.824476	0.765916	-0.762	0.312	0.375	0	292	263	2
2026-02-19	12:32:26.110	100.31	-36.295	7.595	0.88572	0.665632	0.769088	-0.7665	0.312	0.387	0	292	263	2
2026-02-19	12:32:26.130	115.325	-29.12	10.395	0.928664	0.493368	0.68442	-0.7635	0.309	0.399	0	292	263	2
2026-02-19	12:32:26.150	123.34	-12.145	26.11	0.924516	0.325984	0.52582	-0.765	0.306	0.411	0	292	263	2
2026-02-19	12:32:26.170	131.845	4.34	35.49	1.106296	0.28182	0.381372	-0.7725	0.3045	0.4215	0	292	263	2
2026-02-19	12:32:26.190	122.64	22.505	28.175	1.47986	0.512888	0.244	-0.774	0.306	0.4275	0	292	263	2
2026-02-19	12:32:26.210	79.8	19.67	0.315	1.567212	0.257664	-0.04636	-0.768	0.309	0.42	0	296	257	3
2026-02-19	12:32:26.230	23.625	2.38	-30.24	1.359812	0.041968	-0.18056	-0.771	0.315	0.429	0	296	257	3
2026-02-19	12:32:26.250	-40.915	8.33	-57.05	1.284904	-0.156404	0.120048	-0.774	0.303	0.435	0	296	257	3
2026-02-19	12:32:26.270	-90.79	25.97	-84.245	1.12606	-0.140056	0.38674	-0.765	0.3	0.4185	0	296	257	3
2026-02-19	12:32:26.290	-74.76	35.28	-106.12	1.008452	-0.06954	0.580476	-0.765	0.3	0.4185	0	296	257	3
2026-02-19	12:32:26.310	-37.17	43.61	-113.47	0.912316	0.03538	0.570228	-0.7575	0.2805	0.408	0	296	257	3
2026-02-19	12:32:26.330	-6.16	52.185	-112.77	0.782508	0.101016	0.520208	-0.7455	0.258	0.3945	0	296	257	3
2026-02-19	12:32:26.350	10.675	55.265	-107.555	0.67588	0.122732	0.390644	-0.732	0.246	0.384	0	296	257	3
2026-02-19	12:32:26.370	22.54	53.445	-101.01	0.658068	0.144936	0.309392	-0.717	0.225	0.375	0	296	257	3
2026-02-19	12:32:26.390	30.975	50.12	-95.27	0.632204	0.216184	0.289872	-0.708	0.2085	0.3705	0	296	257	3
2026-02-19	12:32:26.410	23.8	45.185	-89.32	0.699792	0.197152	0.187392	-0.6975	0.198	0.3645	0	306	266	3
2026-02-19	12:32:26.430	13.16	41.195	-85.015	0.720532	0.266692	0.19154	-0.6825	0.192	0.3585	0	306	266	3
2026-02-19	12:32:26.450	-4.305	34.44	-79.31	0.751764	0.204472	0.111752	-0.669	0.1785	0.3585	0	306	266	3
2026-02-19	12:32:26.470	-14.105	26.635	-72.765	0.881084	0.255712	0.158356	-0.666	0.1635	0.3555	0	306	266	3
2026-02-19	12:32:26.490	-19.46	19.565	-66.29	0.943548	0.279868	0.164212	-0.6675	0.162	0.3495	0	306	266	3
2026-02-19	12:32:26.510	-20.825	16.625	-60.83	0.98088	0.345748	0.215208	-0.648	0.1485	0.3495	0	306	266	3
2026-02-19	12:32:26.530	-23.52	12.95	-56.98	0.963068	0.274256	0.221064	-0.642	0.15	0.342	0	306	266	3
2026-02-19	12:32:26.550	-23.52	9.415	-49	0.983808	0.181536	0.197396	-0.6285	0.1425	0.342	0	306	266	3
2026-02-19	12:32:26.570	-16.205	5.32	-36.05	0.97844	0.108824	0.182756	-0.6285	0.1425	0.342	0	306	266	3
2026-02-19	12:32:26.590	-8.365	0.385	-26.95	0.947696	0.163724	0.214232	-0.624	0.138	0.3405	0	306	266	3
2026-02-19	12:32:26.610	-10.01	-3.36	-21.84	0.966728	0.18178	0.222528	-0.615	0.132	0.336	0	317	272	3
2026-02-19	12:32:26.630	-15.96	-4.935	-16.87	1.00406	0.170556	0.213744	-0.6105	0.1305	0.327	0	317	272	3
2026-02-19	12:32:26.650	-20.72	-8.75	-11.13	0.98088	0.146156	0.194224	-0.612	0.1305	0.327	0	317	272	3
2026-02-19	12:32:26.670	-21.35	-13.965	-5.425	0.936228	0.138592	0.215452	-0.612	0.1305	0.3285	0	317	272	3
2026-02-19	12:32:26.690	-20.125	-18.13	0.385	0.93818	0.132492	0.240584	-0.6075	0.135	0.324	0	317	272	3
2026-02-19	12:32:26.710	-17.045	-20.86	6.3	0.968192	0.044896	0.257908	-0.6135	0.135	0.327	0	317	272	3
2026-02-19	12:32:26.730	-2.8	-19.215	15.225	0.986248	0.02318	0.279136	-0.6165	0.1365	0.3255	0	317	272	3
2026-02-19	12:32:26.750	15.155	-12.705	25.095	0.961604	0.12078	0.273036	-0.615	0.1425	0.3225	0	317	272	3
2026-02-19	12:32:26.770	20.965	-8.68	30.8	0.925492	0.223504	0.27694	-0.6225	0.1395	0.327	0	317	272	3
2026-02-19	12:32:26.790	21.7	-10.325	33.32	0.885232	0.238632	0.254736	-0.627	0.1365	0.3285	0	317	272	3
2026-02-19	12:32:26.810	26.705	-13.685	32.06	0.866444	0.22082	0.231556	-0.6345	0.147	0.336	0	320	269	3
2026-02-19	12:32:26.830	32.515	-14.07	33.635	0.906216	0.230824	0.29036	-0.636	0.141	0.3465	0	320	269	3
2026-02-19	12:32:26.850	25.62	-14.665	38.885	1.137528	0.09882	0.360632	-0.6405	0.1425	0.3495	0	320	269	3
2026-02-19	12:32:26.870	7.63	13.825	18.76	1.89954	1.28222	0.963068	-0.645	0.144	0.351	0	320	269	3
2026-02-19	12:32:26.890	37.555	-23.625	-13.02	1.123864	-0.008784	0.004636	-0.648	0.147	0.354	0	320	269	3
2026-02-19	12:32:26.910	40.88	-27.895	-12.74	0.728828	0.058316	0.208132	-0.6495	0.1515	0.3585	0	320	269	3
2026-02-19	12:32:26.930	-33.215	-19.6	23.135	0.957212	-0.2074	0.197884	-0.654	0.147	0.3675	0	320	269	3
2026-02-19	12:32:26.950	-56.14	-18.515	22.715	1.083116	0.125416	0.282308	-0.6525	0.1455	0.366	0	320	269	3
2026-02-19	12:32:26.970	-38.22	-20.37	27.545	0.950136	0.205936	0.442128	-0.657	0.1545	0.3615	0	320	269	3
2026-02-19	12:32:26.990	-21.84	-12.915	22.4	0.892308	0.44896	0.406016	-0.6645	0.156	0.3675	0	320	269	3
2026-02-19	12:32:27.010	-14.105	-11.025	23.1	0.790072	0.377956	0.410164	-0.669	0.1635	0.3645	0	318	272	3
2026-02-19	12:32:27.030	-15.645	-11.27	20.755	0.837896	0.376492	0.404308	-0.675	0.165	0.366	0	318	272	3
2026-02-19	12:32:27.050	-22.89	-10.29	20.02	0.913048	0.393816	0.412116	-0.675	0.165	0.369	0	318	272	3
2026-02-19	12:32:27.070	-12.81	-8.19	19.775	0.92598	0.344284	0.396744	-0.6735	0.174	0.366	0	318	272	3
2026-02-19	12:32:27.090	3.78	-6.37	20.965	0.921344	0.368196	0.372588	-0.6735	0.1785	0.3675	0	318	272	3
2026-02-19	12:32:27.110	4.935	-7.455	20.58	0.939156	0.332816	0.335012	-0.6735	0.177	0.3675	0	318	272	3
2026-02-19	12:32:27.130	-4.165	-11.165	21.42	0.915488	0.231068	0.335012	-0.681	0.174	0.3675	0	318	272	3
2026-02-19	12:32:27.150	1.925	-8.19	25.83	0.91378	0.232288	0.35746	-0.681	0.18	0.366	0	318	272	3
2026-02-19	12:32:27.170	19.565	-7.315	27.09	0.898408	0.177632	0.353068	-0.684	0.189	0.3705	0	318	272	3
2026-02-19	12:32:27.190	30.415	-1.82	29.89	0.893772	0.06832	0.3416	-0.69	0.192	0.375	0	318	272	3
2026-02-19	12:32:27.210	35.595	2.31	34.685	0.962824	0.15006	0.306464	-0.696	0.198	0.375	0	313	286	3
2026-02-19	12:32:27.230	26.53	0.945	34.475	0.981856	0.222528	0.207888	-0.705	0.201	0.384	0	313	286	3
2026-02-19	12:32:27.250	3.185	-2.135	32.865	0.963312	0.112728	0.166408	-0.705	0.201	0.387	0	313	286	3
2026-02-19	12:32:27.270	-4.865	-5.95	29.12	0.945988	0.022204	0.13786	-0.705	0.2025	0.387	0	313	286	3
2026-02-19	12:32:27.290	-13.93	-5.39	29.435	1.011624	0.109068	0.205692	-0.711	0.2025	0.387	0	313	286	3
2026-02-19	12:32:27.310	-35.07	-6.335	31.675	1.003084	0.137128	0.184464	-0.714	0.21	0.387	0	313	286	3
2026-02-19	12:32:27.330	-33.075	-7.035	30.835	0.940864	0.141276	0.227652	-0.717	0.222	0.387	0	313	286	3
2026-02-19	12:32:27.350	-7.91	-5.845	29.75	0.904264	0.168848	0.24644	-0.714	0.2265	0.3795	0	313	286	3
2026-02-19	12:32:27.370	7.14	-6.615	26.915	0.986492	0.189832	0.23912	-0.714	0.2295	0.3795	0	313	286	3
2026-02-19	12:32:27.390	-0.42	-10.85	22.015	0.966972	0.023912	0.099064	-0.7215	0.234	0.3855	0	313	286	3
2026-02-19	12:32:27.410	-9.485	-16.205	15.75	0.966728	-0.201544	0.10492	-0.7275	0.237	0.3885	0	303	292	3
2026-02-19	12:32:27.430	-0.42	-13.265	17.85	1.033096	-0.010004	0.169092	-0.7275	0.24	0.39	0	303	292	3
2026-02-19	12:32:27.450	3.43	-12.075	17.22	0.97356	-0.002684	0.17324	-0.7305	0.2415	0.39	0	303	292	3
2026-02-19	12:32:27.470	-4.48	-15.61	12.635	1.064328	0.069784	0.314028	-0.7335	0.2445	0.39	0	303	292	3
2026-02-19	12:32:27.490	-13.965	-15.54	14.245	1.05286	0.23302	0.732732	-0.735	0.2505	0.393	0	303	292	3
2026-02-19	12:32:27.510	-7.21	-12.67	16.975	0.889624	0.14762	0.698816	-0.7335	0.2535	0.3945	0	303	292	3
2026-02-19	12:32:27.530	9.03	-10.99	17.36	0.954284	-0.009028	0.480192	-0.7335	0.2535	0.3975	0	303	292	3
2026-02-19	12:32:27.550	5.74	-7.07	20.545	1.0004	-0.088572	0.300364	-0.741	0.249	0.399	0	303	292	3
2026-02-19	12:32:27.570	-4.725	-2.135	25.165	0.999668	0.061976	0.230336	-0.7395	0.2565	0.402	0	303	292	3
2026-02-19	12:32:27.590	4.095	-4.2	24.465	0.943792	0.081984	0.173484	-0.7365	0.264	0.4005	0	303	292	3
2026-02-19	12:32:27.610	20.545	-10.395	18.27	1.003816	0.028304	-0.008296	-0.7395	0.267	0.399	0	292	290	3
2026-02-19	12:32:27.630	12.775	-13.93	15.645	1.046028	-0.052216	-0.10736	-0.7455	0.27	0.408	0	292	290	3
2026-02-19	12:32:27.650	-0.35	-7.525	21.42	0.955992	0.13176	-0.004636	-0.744	0.273	0.411	0	292	290	3
2026-02-19	12:32:27.670	10.955	-10.045	18.305	0.958676	0.290116	0.125172	-0.741	0.273	0.4095	0	292	290	3
2026-02-19	12:32:27.690	13.965	-15.82	11.235	0.98088	0.19764	0.107116	-0.741	0.2745	0.414	0	292	290	3
2026-02-19	12:32:27.710	-1.295	-17.045	15.82	0.937448	0.190808	0.419924	-0.744	0.276	0.417	0	292	290	3
2026-02-19	12:32:27.730	3.5	-15.33	20.615	0.831308	0.271328	0.61854	-0.753	0.279	0.4215	0	292	290	3
2026-02-19	12:32:27.750	15.365	-16.73	18.445	0.909144	0.246196	0.321836	-0.7545	0.2805	0.426	0	292	290	3
2026-02-19	12:32:27.770	0.21	-19.46	16.94	0.944036	0.082472	0.10126	-0.7545	0.2805	0.4305	0	292	290	3
2026-02-19	12:32:27.790	-27.37	-22.4	20.965	0.941352	0.001708	0.167628	-0.7545	0.2865	0.4335	0	292	290	3
2026-02-19	12:32:27.810	-17.64	-22.4	21.525	0.984784	-0.111508	0.264252	-0.7605	0.291	0.4365	0	281	280	3
2026-02-19	12:32:27.830	-0.49	-18.48	24.115	1.052616	-0.301096	0.08662	-0.7575	0.3	0.441	0	281	280	3
2026-02-19	12:32:27.850	9.275	-13.755	31.885	0.968192	-0.15006	0.106872	-0.7575	0.306	0.4425	0	281	280	3
2026-02-19	12:32:27.870	-0.42	-14.7	31.29	0.989664	-0.127856	0.2501	-0.762	0.3075	0.4425	0	281	280	3
2026-02-19	12:32:27.890	-5.88	-20.23	25.165	1.043588	-0.371856	0.204716	-0.768	0.312	0.444	0	281	280	3
2026-02-19	12:32:27.910	8.645	-14.21	32.62	1.01504	-0.362096	0.271328	-0.7725	0.3135	0.447	0	281	280	3
2026-02-19	12:32:27.930	22.61	-6.72	47.565	0.968436	0.0915	0.5002	-0.771	0.3195	0.4485	0	281	280	3
2026-02-19	12:32:27.950	28.77	-11.305	56.245	0.935984	0.288408	0.465308	-0.768	0.3285	0.4485	0	281	280	3
2026-02-19	12:32:27.970	40.67	-26.705	59.885	1.042856	0.466528	0.424804	-0.7695	0.336	0.4515	0	281	280	3
2026-02-19	12:32:27.990	49.735	-29.12	59.325	1.242204	0.375272	0.506544	-0.774	0.342	0.456	0	281	280	3
2026-02-19	12:32:28.010	69.51	-11.305	52.01	1.412028	0.021472	-0.144692	-0.774	0.354	0.465	0	274	270	3
2026-02-19	12:32:28.030	107.555	10.57	38.01	1.759484	0.0427	-0.173728	-0.7755	0.3675	0.474	0	274	270	3
2026-02-19	12:32:28.050	103.845	24.15	8.96	1.63602	0.106384	0.099064	-0.7755	0.372	0.474	0	274	270	3
2026-02-19	12:32:28.070	43.61	20.825	-28.805	1.217316	0.01342	0.237168	-0.777	0.372	0.471	0	274	270	3
2026-02-19	12:32:28.090	-31.99	17.01	-63.525	0.948428	-0.1037	0.23668	-0.78	0.3705	0.4725	0	274	270	3
2026-02-19	12:32:28.110	-69.335	20.09	-85.855	0.889868	-0.221552	0.374296	-0.774	0.3645	0.471	0	274	270	3
2026-02-19	12:32:28.130	-68.6	33.145	-96.04	0.986492	-0.266204	0.401624	-0.768	0.354	0.4635	0	274	270	3
2026-02-19	12:32:28.150	-53.55	48.09	-100.24	0.989664	-0.139568	0.365268	-0.768	0.3375	0.4575	0	274	270	3
2026-02-19	12:32:28.170	-9.59	54.46	-105.7	0.98576	0.047092	0.379176	-0.765	0.324	0.4485	0	274	270	3
2026-02-19	12:32:28.190	23.73	55.51	-112.49	0.995032	0.18666	0.379176	-0.7575	0.3135	0.435	0	274	270	3
2026-02-19	12:32:28.210	40.04	53.655	-117.88	0.94062	0.111752	0.19032	-0.7485	0.3	0.4275	0	273	262	3
2026-02-19	12:32:28.230	43.715	56	-116.865	0.838628	0.122976	0.045628	-0.741	0.282	0.423	0	273	262	3
2026-02-19	12:32:28.250	24.22	51.73	-106.925	0.741272	0.229604	-0.047092	-0.726	0.2595	0.417	0	273	262	3
2026-02-19	12:32:28.270	-17.78	41.72	-95.83	0.739808	0.35624	-0.007808	-0.7155	0.2475	0.414	0	273	262	3
2026-02-19	12:32:28.290	-54.705	32.935	-86.94	0.696376	0.28426	-0.09638	-0.7005	0.2205	0.396	0	273	262	3
2026-02-19	12:32:28.310	-55.37	22.12	-81.83	0.727364	0.13908	-0.208376	-0.6915	0.2175	0.3945	0	273	262	3
2026-02-19	12:32:28.330	-41.16	14.35	-78.68	0.843264	0.26108	0.00122	-0.6825	0.2115	0.3885	0	273	262	3
2026-02-19	12:32:28.350	-39.34	10.64	-68.46	0.93208	0.210572	0.04514	-0.6795	0.204	0.3855	0	273	262	3
2026-02-19	12:32:28.370	-35.875	8.085	-59.71	0.980636	0.206668	0.092964	-0.6765	0.198	0.3855	0	273	262	3
2026-02-19	12:32:28.390	-30.38	3.71	-53.34	0.969656	0.177632	0.091256	-0.672	0.192	0.375	0	273	262	3
2026-02-19	12:32:28.410	-29.47	-5.32	-43.96	0.848876	0.011224	0.083204	-0.6615	0.1875	0.369	0	276	242	3
2026-02-19	12:32:28.430	-27.58	-11.375	-33.11	0.872544	-0.08295999	0.144692	-0.657	0.183	0.366	0	276	242	3
2026-02-19	12:32:28.450	-18.69	-12.6	-22.295	1.025776	-0.05978	0.188368	-0.6555	0.183	0.3645	0	276	242	3
2026-02-19	12:32:28.470	-8.61	-16.03	-16.485	1.07726	0.126636	0.254492	-0.6525	0.183	0.369	0	276	242	3
2026-02-19	12:32:28.490	-12.355	-19.775	-13.93	1.006012	0.159332	0.226432	-0.651	0.18	0.3705	0	276	242	3
2026-02-19	12:32:28.510	-21.84	-23.345	-11.55	0.912804	0.095648	0.17568	-0.6525	0.1785	0.3705	0	276	242	3
2026-02-19	12:32:28.530	-32.795	-27.65	-6.16	0.967948	0.09272	0.170068	-0.651	0.1785	0.3675	0	276	242	3
2026-02-19	12:32:28.550	-40.95	-28.35	1.96	1.063596	0.156404	0.204716	-0.651	0.1785	0.3645	0	276	242	3
2026-02-19	12:32:28.570	-38.605	-28.735	7.84	1.028704	0.159576	0.195932	-0.657	0.1785	0.3735	0	276	242	3
2026-02-19	12:32:28.590	-29.575	-30.135	10.185	0.993568	0.1342	0.182756	-0.657	0.186	0.375	0	276	242	3
2026-02-19	12:32:28.610	-13.37	-29.4	14.945	0.964532	0.103456	0.184464	-0.6645	0.1905	0.366	0	278	216	3
2026-02-19	12:32:28.630	5.075	-16.73	24.185	1.674572	0.350384	0.38674	-0.666	0.186	0.3675	0	278	216	3
2026-02-19	12:32:28.650	8.785	9.94	0.35	1.436916	0.264984	0.517524	-0.6705	0.186	0.369	0	278	216	3
2026-02-19	12:32:28.670	73.29	1.61	13.79	0.984296	0.018788	0.241316	-0.669	0.189	0.369	0	278	216	3
2026-02-19	12:32:28.690	65.52	-2.695	15.26	0.943548	-0.271084	0.064904	-0.669	0.186	0.3735	0	278	216	3
2026-02-19	12:32:28.710	33.46	3.465	28.42	0.936716	0.073932	0.3111	-0.6765	0.186	0.3825	0	278	216	3
2026-02-19	12:32:28.730	15.05	-2.66	29.855	0.903044	0.232288	0.303536	-0.6765	0.1905	0.3885	0	278	216	3
2026-02-19	12:32:28.750	14.525	-8.75	25.725	0.929396	0.156404	0.248392	-0.675	0.1935	0.39	0	278	216	3
2026-02-19	12:32:28.770	6.65	-10.745	25.305	0.921344	0.3294	0.355996	-0.678	0.1935	0.39	0	278	216	3
2026-02-19	12:32:28.790	-12.145	-13.02	19.915	0.887672	0.22692	0.283772	-0.687	0.1965	0.39	0	278	216	3
2026-02-19	12:32:28.810	-22.33	-13.51	21.595	0.918416	0.397476	0.426024	-0.6915	0.201	0.396	0	280	210	3
2026-02-19	12:32:28.830	-18.41	-9.835	19.32	0.9394	0.388204	0.383812	-0.69	0.2025	0.4005	0	280	210	3
2026-02-19	12:32:28.850	-1.4	-6.545	19.81	0.931836	0.349408	0.3416	-0.6825	0.21	0.396	0	280	210	3
2026-02-19	12:32:28.870	9.17	-5.915	20.02	0.90768	0.315492	0.319884	-0.6975	0.216	0.4005	0	280	210	3
2026-02-19	12:32:28.890	2.345	-6.895	20.615	0.936472	0.32208	0.315004	-0.702	0.21	0.402	0	280	210	3
2026-02-19	12:32:28.910	-8.155	-7.07	20.755	0.954772	0.302316	0.289872	-0.693	0.207	0.3975	0	280	210	3
2026-02-19	12:32:28.930	-6.615	-5.25	22.47	0.939888	0.24644	0.249368	-0.696	0.213	0.4005	0	280	210	3
2026-02-19	12:32:28.950	-3.36	-4.795	26.145	0.899628	0.19154	0.253028	-0.7035	0.2205	0.402	0	280	210	3
2026-02-19	12:32:28.970	-12.915	-3.465	30.975	0.884256	0.198128	0.262788	-0.7095	0.2265	0.405	0	280	210	3
2026-02-19	12:32:28.990	-25.445	-0.98	35.175	0.896944	0.204716	0.304756	-0.7125	0.234	0.4065	0	280	210	3
2026-02-19	12:32:29.010	-22.645	-1.365	33.355	0.915	0.170556	0.256932	-0.7185	0.237	0.3975	0	279	224	3
2026-02-19	12:32:29.030	-24.57	-0.245	33.635	0.898652	0.028548	0.253516	-0.717	0.24	0.396	0	279	224	3
2026-02-19	12:32:29.050	-37.905	-1.505	35.63	1.066036	0.246928	0.335744	-0.7155	0.2445	0.3975	0	279	224	3
2026-02-19	12:32:29.070	-40.53	-3.325	32.55	0.9943	0.087596	0.29036	-0.7185	0.249	0.396	0	279	224	3
2026-02-19	12:32:29.090	-25.235	-5.04	27.72	1.0309	0.046848	0.2806	-0.72	0.2475	0.3945	0	279	224	3
2026-02-19	12:32:29.110	-18.76	-1.68	31.5	1.012844	0.051728	0.105164	-0.7215	0.246	0.3945	0	279	224	3
2026-02-19	12:32:29.130	-15.4	-4.585	29.855	0.992836	0.148352	0.15616	-0.7215	0.246	0.3945	0	279	224	3
2026-02-19	12:32:29.150	-7.28	-6.545	28.105	0.965264	0.166652	0.039284	-0.732	0.2655	0.393	0	279	224	3
2026-02-19	12:32:29.170	-12.25	-5.81	27.475	0.950624	0.266448	-0.049044	-0.729	0.267	0.396	0	279	224	3
2026-02-19	12:32:29.190	-25.9	-10.01	20.055	1.043832	0.29158	-0.014884	-0.7365	0.2805	0.3885	0	279	224	3
2026-02-19	12:32:29.210	-32.795	-15.19	15.12	0.901092	0.173728	0.0366	-0.7365	0.2835	0.402	0	275	235	3
2026-02-19	12:32:29.230	-22.995	-20.23	12.18	0.991616	0.138104	0.054656	-0.7335	0.288	0.399	0	275	235	3
2026-02-19	12:32:29.250	-18.655	-21.98	10.745	1.027972	-0.130296	0.171044	-0.732	0.2865	0.3945	0	275	235	3
2026-02-19	12:32:29.270	-23.52	-23.45	10.01	0.98454	-0.216916	0.478972	-0.735	0.285	0.3945	0	275	235	3
2026-02-19	12:32:29.290	-27.58	-18.725	12.39	1.024068	-0.518988	0.632204	-0.7425	0.2925	0.3975	0	275	235	3
2026-02-19	12:32:29.310	8.26	-15.505	13.055	1.057008	-0.723216	0.54778	-0.744	0.2955	0.399	0	275	235	3
2026-02-19	12:32:29.330	34.755	-9.135	16.73	1.070184	-0.560224	0.349408	-0.744	0.297	0.399	0	275	235	3
2026-02-19	12:32:29.350	18.585	-4.2	19.075	1.035048	-0.240828	0.205204	-0.7455	0.297	0.411	0	275	235	3
2026-02-19	12:32:29.370	3.815	-3.78	14.98	1.003328	-0.083936	0.047336	-0.7455	0.297	0.4125	0	275	235	3
2026-02-19	12:32:29.390	-8.575	-2.625	12.215	1.0492	-0.024644	-0.107848	-0.7455	0.2985	0.4065	0	275	235	3
2026-02-19	12:32:29.410	-20.16	1.925	16.485	0.989176	0.346724	0.104432	-0.7455	0.2985	0.4065	0	271	237	3
2026-02-19	12:32:29.430	-9.135	-1.12	16.065	0.915	0.463356	0.233996	-0.7485	0.303	0.405	0	271	237	3
2026-02-19	12:32:29.450	4.235	-11.76	9.345	0.86376	0.361608	0.35136	-0.7485	0.312	0.4065	0	271	237	3
2026-02-19	12:32:29.470	-3.955	-10.43	16.1	0.89914	0.32696	0.53558	-0.75	0.3135	0.4065	0	271	237	3
2026-02-19	12:32:29.490	4.515	-8.89	25.83	0.837896	0.22814	0.66856	-0.756	0.309	0.411	0	271	237	3
2026-02-19	12:32:29.510	27.51	-7	32.06	0.865224	0.165188	0.4819	-0.7545	0.3195	0.411	0	271	237	3
2026-02-19	12:32:29.530	49.7	-12.18	31.675	0.907192	0.015128	0.077592	-0.7575	0.318	0.4155	0	271	237	3
2026-02-19	12:32:29.550	47.355	-15.05	33.67	1.000644	-0.031964	0.0549	-0.7545	0.318	0.4185	0	271	237	3
2026-02-19	12:32:29.570	24.64	-10.43	38.325	0.859368	0.035868	0.087352	-0.753	0.3195	0.4245	0	271	237	3
2026-02-19	12:32:29.590	33.355	-9.975	37.52	0.952576	-0.068808	0.05246	-0.759	0.3285	0.426	0	271	237	3
2026-02-19	12:32:29.610	51.135	-12.95	33.74	1.055788	-0.189832	-0.05124	-0.7665	0.336	0.4275	0	271	238	3
2026-02-19	12:32:29.630	32.76	-10.255	35.035	1.085556	-0.331596	-0.0122	-0.768	0.336	0.4335	0	271	238	3
2026-02-19	12:32:29.650	-3.745	-3.395	39.62	0.994788	-0.109556	0.19642	-0.768	0.339	0.435	0	271	238	3
2026-02-19	12:32:29.670	-13.405	-11.97	35.21	0.978928	0.102968	0.277184	-0.7665	0.3435	0.4365	0	271	238	3
2026-02-19	12:32:29.690	-4.06	-28.98	31.08	0.953064	0.249368	0.381616	-0.768	0.345	0.4395	0	271	238	3
2026-02-19	12:32:29.710	12.845	-44.52	29.54	1.038464	0.195688	0.416752	-0.774	0.3585	0.4485	0	271	238	3
2026-02-19	12:32:29.730	43.225	-50.365	29.015	1.158268	0.042212	0.391376	-0.777	0.357	0.453	0	271	238	3
2026-02-19	12:32:29.750	78.785	-39.025	28.245	1.320528	-0.2135	0.316224	-0.7785	0.366	0.465	0	271	238	3
2026-02-19	12:32:29.770	103.6	-9.45	30.73	1.375672	-0.16958	0.513864	-0.777	0.3765	0.4665	0	271	238	3
2026-02-19	12:32:29.790	107.52	13.58	30.38	1.744844	-0.166408	0.303536	-0.7755	0.369	0.4725	0	271	238	3
2026-02-19	12:32:29.810	104.51	17.43	5.145	1.491816	0.003172	0.175192	-0.774	0.375	0.48	0	274	238	3
2026-02-19	12:32:29.830	87.78	10.535	-27.895	1.309548	0.08906	0.24156	-0.777	0.3675	0.477	0	274	238	3
2026-02-19	12:32:29.850	33.565	12.6	-51.135	1.1346	-0.037576	0.22082	-0.7785	0.3705	0.4785	0	274	238	3
2026-02-19	12:32:29.870	-13.615	17.85	-70.84	1.04066	-0.06734399	0.202764	-0.777	0.3705	0.477	0	274	238	3
2026-02-19	12:32:29.890	-39.27	21.91	-88.34	0.94794	0.029768	0.207156	-0.7725	0.3555	0.471	0	274	238	3
2026-02-19	12:32:29.910	-48.545	24.255	-103.74	0.906948	0.007564	0.234972	-0.7665	0.336	0.4665	0	274	238	3
2026-02-19	12:32:29.930	-46.375	27.16	-115.22	0.913292	-0.013176	0.27694	-0.7635	0.321	0.4605	0	274	238	3
2026-02-19	12:32:29.950	-33.845	34.895	-119.665	0.864248	-0.001952	0.247172	-0.7575	0.3045	0.4605	0	274	238	3
2026-02-19	12:32:29.970	3.955	41.825	-119.7	0.795928	-0.071492	0.190808	-0.75	0.2925	0.4635	0	274	238	3
2026-02-19	12:32:29.990	51.765	47.74	-114.1	0.73688	-0.105164	0.19154	-0.7305	0.264	0.4425	0	274	238	3
2026-02-19	12:32:30.010	85.68	52.78	-99.505	0.681004	-0.002928	0.143716	-0.72	0.2505	0.444	0	279	240	3
2026-02-19	12:32:30.030	79.695	54.32	-78.89	0.762744	0.027816	-0.016592	-0.723	0.2265	0.444	0	279	240	3
2026-02-19	12:32:30.050	53.935	50.645	-61.285	0.769088	0.265716	0.011956	-0.7035	0.2145	0.432	0	279	240	3
2026-02-19	12:32:30.070	22.47	41.23	-53.41	0.863516	0.593896	0.02074	-0.702	0.2055	0.435	0	279	240	3
2026-02-19	12:32:30.090	4.375	22.12	-60.9	0.99308	0.600972	0.007808	-0.699	0.195	0.4365	0	279	240	3
2026-02-19	12:32:30.110	-19.145	12.285	-70.805	0.944036	0.506056	0.059536	-0.687	0.1935	0.432	0	279	240	3
2026-02-19	12:32:30.130	-56.84	5.355	-73.57	0.939888	0.145912	0.002684	-0.672	0.1815	0.426	0	279	240	3
2026-02-19	12:32:30.150	-63.735	-5.67	-65.135	0.965996	0.009272	0.070516	-0.669	0.1755	0.423	0	279	240	3
2026-02-19	12:32:30.170	-46.9	-11.865	-52.99	0.95526	-0.027328	0.180316	-0.6615	0.171	0.42	0	279	240	3
2026-02-19	12:32:30.190	-27.09	-9.45	-39.97	0.859368	-0.007564	0.282308	-0.6585	0.165	0.417	0	279	240	3
2026-02-19	12:32:30.210	-14.105	-4.34	-30.45	0.805932	0.033184	0.231068	-0.66	0.156	0.4125	0	283	227	3
2026-02-19	12:32:30.230	-8.68	-4.13	-19.39	0.839848	-0.022936	0.18666	-0.6495	0.15	0.4095	0	283	227	3
2026-02-19	12:32:30.250	-16.8	-7.945	-7.735	0.914756	0.161284	0.174704	-0.6405	0.1485	0.408	0	283	227	3
2026-02-19	12:32:30.270	-33.46	-13.23	-2.835	0.915488	0.204472	0.115412	-0.6435	0.15	0.4125	0	283	227	3
2026-02-19	12:32:30.290	-53.375	-17.255	-1.645	0.914024	0.249124	0.140788	-0.6435	0.1395	0.4155	0	283	227	3
2026-02-19	12:32:30.310	-68.46	-22.82	1.4	1.039684	0.193736	0.138104	-0.639	0.144	0.4035	0	283	227	3
2026-02-19	12:32:30.330	-66.395	-26.6	6.195	1.12362	0.174704	0.14884	-0.639	0.144	0.39	0	283	227	3
2026-02-19	12:32:30.350	-52.325	-28.665	9.135	1.064572	0.145668	0.14152	-0.6495	0.1425	0.393	0	283	227	3
2026-02-19	12:32:30.370	-29.4	-28.14	9.45	0.989664	0.106628	0.155184	-0.6405	0.15	0.4005	0	283	227	3
2026-02-19	12:32:30.390	-5.53	-28	14.245	0.95648	0.008052	0.143228	-0.6465	0.1545	0.387	0	283	227	3
2026-02-19	12:32:30.410	22.26	-26.145	25.165	1.239276	-0.375516	-0.08052	-0.651	0.153	0.3945	0	285	209	3
2026-02-19	12:32:30.430	13.405	2.835	5.495	1.77876	1.306864	0.939888	-0.6555	0.1545	0.399	0	285	209	3
2026-02-19	12:32:30.450	30.275	-21.49	4.2	0.948184	-0.229116	0.088328	-0.651	0.156	0.4005	0	285	209	3
2026-02-19	12:32:30.470	29.785	-25.06	-3.92	0.929152	-0.06832	0.319884	-0.654	0.1575	0.405	0	285	209	3
2026-02-19	12:32:30.490	-24.605	-11.795	25.515	0.98576	0.03416	0.436272	-0.6555	0.1605	0.4125	0	285	209	3
2026-02-19	12:32:30.510	-39.76	-10.71	26.74	1.013088	0.196664	0.404552	-0.6585	0.1605	0.408	0	285	209	3
2026-02-19	12:32:30.530	-3.08	-5.075	21.63	0.8906	0.230336	0.339892	-0.663	0.159	0.4035	0	285	209	3
2026-02-19	12:32:30.550	12.25	0	24.815	0.85278	0.287432	0.306708	-0.6645	0.162	0.408	0	285	209	3
2026-02-19	12:32:30.570	5.705	1.925	26.25	0.906704	0.3721	0.312076	-0.663	0.1575	0.414	0	285	209	3
2026-02-19	12:32:30.590	-9.45	-1.33	22.645	0.946964	0.390888	0.302804	-0.6705	0.171	0.417	0	285	209	3
2026-02-19	12:32:30.610	-19.6	-5.425	19.18	0.930372	0.324276	0.249612	-0.6765	0.1695	0.4065	0	287	208	3
2026-02-19	12:32:30.630	-21.14	-5.775	21.595	0.9272	0.269864	0.232532	-0.666	0.1755	0.408	0	287	208	3
2026-02-19	12:32:30.650	-27.615	-0.875	25.585	0.957944	0.301828	0.281088	-0.6645	0.1725	0.411	0	287	208	3
2026-02-19	12:32:30.670	-27.335	2.345	26.705	0.959408	0.342332	0.261324	-0.666	0.1755	0.408	0	287	208	3
2026-02-19	12:32:30.690	-16.8	6.3	25.445	0.904508	0.271816	0.229116	-0.6735	0.1845	0.411	0	287	208	3
2026-02-19	12:32:30.710	-12.845	12.005	26.145	0.85766	0.127856	0.250588	-0.669	0.183	0.411	0	287	208	3
2026-02-19	12:32:30.730	-18.585	11.83	28.805	0.871324	0.175192	0.31232	-0.6795	0.1905	0.405	0	287	208	3
2026-02-19	12:32:30.750	-17.325	11.795	28.35	0.934764	0.1586	0.34404	-0.681	0.1965	0.399	0	287	208	3
2026-02-19	12:32:30.770	-6.3	6.125	26.495	1.009916	0.233996	0.316956	-0.6795	0.198	0.3975	0	287	208	3
2026-02-19	12:32:30.790	-9.17	-1.575	26.705	0.94428	0.141764	0.292312	-0.6795	0.201	0.3975	0	287	208	3
2026-02-19	12:32:30.810	-26.285	-11.9	26.075	0.895968	0.114436	0.406504	-0.6795	0.204	0.4005	0	286	223	3
2026-02-19	12:32:30.830	-22.575	-15.54	25.445	0.97112	0.177388	0.364048	-0.6795	0.204	0.4005	0	286	223	3
2026-02-19	12:32:30.850	-20.72	-11.9	25.865	0.90524	0.123464	0.315248	-0.696	0.225	0.3855	0	286	223	3
2026-02-19	12:32:30.870	-17.955	-8.435	24.78	0.977952	-0.03416	0.214964	-0.6975	0.213	0.4005	0	286	223	3
2026-02-19	12:32:30.890	2.52	-10.395	20.93	1.036024	-0.204472	0.14152	-0.699	0.2205	0.393	0	286	223	3
2026-02-19	12:32:30.910	10.675	-11.13	19.635	1.104588	-0.328424	0.07124799	-0.696	0.2205	0.3975	0	286	223	3
2026-02-19	12:32:30.930	-4.83	-9.695	19.495	1.034804	-0.344528	-0.021472	-0.696	0.225	0.39	0	286	223	3
2026-02-19	12:32:30.950	-14.77	-6.65	15.505	1.09068	-0.358924	-0.027328	-0.7005	0.2235	0.399	0	286	223	3
2026-02-19	12:32:30.970	-9.485	-7.84	11.69	1.107028	-0.077348	0.087352	-0.7005	0.2235	0.399	0	286	223	3
2026-02-19	12:32:30.990	-14.665	-9.1	6.37	0.976488	-0.056608	0.233752	-0.6945	0.2205	0.399	0	286	223	3
2026-02-19	12:32:31.010	-21.7	-8.4	7.77	0.957212	0.205692	0.638304	-0.702	0.222	0.408	0	283	237	3
2026-02-19	12:32:31.030	-1.155	-5.11	15.225	0.853268	0.460184	0.781044	-0.7035	0.2235	0.396	0	283	237	3
2026-02-19	12:32:31.050	4.48	0.525	23.695	0.887672	0.530456	0.367708	-0.7065	0.237	0.396	0	283	237	3
2026-02-19	12:32:31.070	3.745	-5.355	24.535	0.94428	0.398696	0.216672	-0.705	0.2355	0.3975	0	283	237	3
2026-02-19	12:32:31.090	7.455	-4.655	31.185	0.942328	0.152744	0.13298	-0.705	0.2355	0.4005	0	283	237	3
2026-02-19	12:32:31.110	2.625	-7.98	31.5	0.942572	0.060512	0.063684	-0.705	0.2355	0.4005	0	283	237	3
2026-02-19	12:32:31.130	0.56	-11.305	28.14	0.995032	-0.00976	0.154452	-0.711	0.2505	0.3975	0	283	237	3
2026-02-19	12:32:31.150	2.555	-14.735	22.12	0.9638	-0.374052	0.238876	-0.7095	0.2475	0.402	0	283	237	3
2026-02-19	12:32:31.170	7.35	-10.745	24.64	0.979904	-0.195932	0.726632	-0.72	0.246	0.405	0	283	237	3
2026-02-19	12:32:31.190	32.725	-4.235	34.51	0.877424	0.060756	0.681248	-0.717	0.264	0.4005	0	283	237	3
2026-02-19	12:32:31.210	52.5	-6.895	35.7	0.9516	0.104432	0.299388	-0.7245	0.255	0.411	0	281	248	3
2026-02-19	12:32:31.230	58.8	-17.36	27.615	0.95526	-0.085156	-0.03538	-0.723	0.258	0.414	0	281	248	3
2026-02-19	12:32:31.250	28.735	-16.765	25.935	0.995032	-0.108336	0.058316	-0.7245	0.267	0.4185	0	281	248	3
2026-02-19	12:32:31.270	-4.2	-9.905	31.185	0.907436	0.023424	0.266204	-0.7245	0.267	0.423	0	281	248	3
2026-02-19	12:32:31.290	15.365	-12.18	30.17	0.975756	0.200812	0.19276	-0.7365	0.27	0.432	0	281	248	3
2026-02-19	12:32:31.310	37.38	-14.7	25.655	1.027484	-0.088084	0.019764	-0.7275	0.2655	0.4335	0	281	248	3
2026-02-19	12:32:31.330	8.54	-13.685	27.86	1.082872	-0.088084	-0.008784	-0.7335	0.2655	0.441	0	281	248	3
2026-02-19	12:32:31.350	-25.55	-14.49	27.09	1.026752	-0.023912	-0.018544	-0.738	0.2805	0.4365	0	281	248	3
2026-02-19	12:32:31.370	-8.715	-19.53	27.195	1.00284	0.108336	0.2379	-0.738	0.2805	0.4365	0	281	248	3
2026-02-19	12:32:31.390	17.85	-28.35	28.945	0.97234	0.167628	0.396744	-0.738	0.2805	0.4365	0	281	248	3
2026-02-19	12:32:31.410	32.375	-40.285	28.42	0.97478	0.045384	0.43554	-0.7335	0.2895	0.447	0	280	253	3
2026-02-19	12:32:31.430	41.86	-40.775	28.21	1.119228	-0.120292	0.413092	-0.738	0.2925	0.453	0	280	253	3
2026-02-19	12:32:31.450	48.23	-31.71	27.16	1.147532	-0.24644	0.421144	-0.7455	0.294	0.465	0	280	253	3
2026-02-19	12:32:31.470	51.87	-15.05	25.445	1.184376	0.020984	0.473848	-0.747	0.3015	0.471	0	280	253	3
2026-02-19	12:32:31.490	55.09	-10.045	28.98	1.23586	-0.45018	0.150548	-0.738	0.3015	0.4695	0	280	253	3
2026-02-19	12:32:31.510	59.64	17.535	15.26	1.631384	-0.026352	0.144692	-0.744	0.303	0.48	0	280	253	3
2026-02-19	12:32:31.530	60.935	23.135	-13.65	1.492792	0.118584	0.128832	-0.753	0.303	0.48	0	280	253	3
2026-02-19	12:32:31.550	37.205	20.58	-46.2	1.37372	0.121512	0.172752	-0.7395	0.3	0.48	0	280	253	3
2026-02-19	12:32:31.570	-17.29	20.685	-67.55	1.14436	0.152744	0.262056	-0.7335	0.294	0.474	0	280	253	3
2026-02-19	12:32:31.590	-63.49	21.98	-85.68	1.00284	0.133956	0.25132	-0.7485	0.2865	0.4785	0	280	253	3
2026-02-19	12:32:31.610	-76.965	22.995	-100.94	0.9516	0.11102	0.265716	-0.729	0.2805	0.4635	0	280	254	3
2026-02-19	12:32:31.630	-76.125	28.56	-107.835	0.868396	0.060268	0.320372	-0.7245	0.258	0.4605	0	280	254	3
2026-02-19	12:32:31.650	-52.99	36.05	-109.9	0.814228	0.08906	0.322324	-0.717	0.2505	0.4395	0	280	254	3
2026-02-19	12:32:31.670	-21.175	43.295	-108.22	0.788608	0.160796	0.322812	-0.6975	0.24	0.444	0	280	254	3
2026-02-19	12:32:31.690	2.31	46.06	-106.54	0.790316	0.183488	0.249368	-0.6915	0.2205	0.435	0	280	254	3
2026-02-19	12:32:31.710	19.74	47.74	-102.83	0.773724	0.150548	0.174704	-0.684	0.2145	0.423	0	280	254	3
2026-02-19	12:32:31.730	29.61	47.635	-97.405	0.772992	0.235704	0.121268	-0.666	0.1965	0.417	0	280	254	3
2026-02-19	12:32:31.750	18.375	44.87	-93.975	0.748348	0.295728	0.150792	-0.657	0.183	0.4125	0	280	254	3
2026-02-19	12:32:31.770	-10.15	38.29	-89.845	0.733708	0.364536	0.075884	-0.6495	0.174	0.411	0	280	254	3
2026-02-19	12:32:31.790	-34.93	31.43	-86.555	0.751764	0.346236	0.067588	-0.627	0.1695	0.405	0	280	254	3
2026-02-19	12:32:31.810	-48.72	27.3	-82.53	0.870348	0.334524	0.104188	-0.6225	0.1545	0.405	0	281	251	3
2026-02-19	12:32:31.830	-43.68	24.08	-74.935	0.911096	0.28548	0.16958	-0.6075	0.1455	0.381	0	281	251	3
2026-02-19	12:32:31.850	-33.04	24.675	-66.115	0.91622	0.257176	0.22204	-0.6	0.141	0.393	0	281	251	3
2026-02-19	12:32:31.870	-30.17	24.465	-54.215	0.87718	0.179828	0.179096	-0.585	0.1365	0.3765	0	281	251	3
2026-02-19	12:32:31.890	-17.885	22.33	-42.385	0.94672	0.147376	0.227652	-0.5835	0.135	0.3645	0	281	251	3
2026-02-19	12:32:31.910	-0.945	17.08	-31.605	0.980636	0.180316	0.267912	-0.5655	0.129	0.3675	0	281	251	3
2026-02-19	12:32:31.930	8.54	11.235	-19.565	0.938912	0.153964	0.2623	-0.5745	0.1305	0.366	0	281	251	3
2026-02-19	12:32:31.950	14.49	4.025	-7.91	0.944036	0.045384	0.204716	-0.5745	0.1305	0.366	0	281	251	3
2026-02-19	12:32:31.970	20.51	-3.045	1.225	1.011624	0.073688	0.231312	-0.5595	0.1275	0.3645	0	281	251	3
2026-02-19	12:32:31.990	17.465	-10.395	8.12	1.008452	0.082472	0.24034	-0.5535	0.1275	0.366	0	281	251	3
2026-02-19	12:32:32.010	7.175	-18.48	13.02	0.965996	0.07442	0.18178	-0.564	0.1305	0.366	0	281	241	3
2026-02-19	12:32:32.030	-7.63	-25.97	18.725	0.915976	0.038796	0.153964	-0.561	0.123	0.3735	0	281	241	3
2026-02-19	12:32:32.050	-20.93	-32.025	25.62	0.935008	0.046848	0.156648	-0.57	0.1305	0.3735	0	281	241	3
2026-02-19	12:32:32.070	-21.91	-35.14	29.82	1.001132	0.071492	0.176412	-0.5715	0.1335	0.3675	0	281	241	3
2026-02-19	12:32:32.090	-3.955	-35.49	33.075	0.966484	-0.007564	0.218136	-0.567	0.135	0.378	0	281	241	3
2026-02-19	12:32:32.110	16.59	-32.095	36.155	1.01382	0.050996	0.236924	-0.5775	0.138	0.381	0	281	241	3
2026-02-19	12:32:32.130	26.845	-13.615	42.315	1.798524	0.53924	0.21838	-0.582	0.144	0.3795	0	281	241	3
2026-02-19	12:32:32.150	17.395	2.1	-9.065	1.372256	0.43554	0.44286	-0.579	0.15	0.39	0	281	241	3
2026-02-19	12:32:32.170	23.03	-24.43	1.54	0.9882	0.024888	0.172996	-0.5985	0.144	0.3885	0	281	241	3
2026-02-19	12:32:32.190	3.71	-20.86	9.695	0.925248	-0.0976	0.092964	-0.6	0.147	0.393	0	281	241	3
2026-02-19	12:32:30.210	-14.105	-4.34	-30.45	0.805932	0.033184	0.231068	-0.66	0.156	0.4125	0	283	227	3
2026-02-19	12:32:30.230	-8.68	-4.13	-19.39	0.839848	-0.022936	0.18666	-0.6495	0.15	0.4095	0	283	227	3
2026-02-19	12:32:30.250	-16.8	-7.945	-7.735	0.914756	0.161284	0.174704	-0.6405	0.1485	0.408	0	283	227	3
2026-02-19	12:32:30.270	-33.46	-13.23	-2.835	0.915488	0.204472	0.115412	-0.6435	0.15	0.4125	0	283	227	3
2026-02-19	12:32:30.290	-53.375	-17.255	-1.645	0.914024	0.249124	0.140788	-0.6435	0.1395	0.4155	0	283	227	3
2026-02-19	12:32:30.310	-68.46	-22.82	1.4	1.039684	0.193736	0.138104	-0.639	0.144	0.4035	0	283	227	3
2026-02-19	12:32:30.330	-66.395	-26.6	6.195	1.12362	0.174704	0.14884	-0.639	0.144	0.39	0	283	227	3
2026-02-19	12:32:30.350	-52.325	-28.665	9.135	1.064572	0.145668	0.14152	-0.6495	0.1425	0.393	0	283	227	3
2026-02-19	12:32:30.370	-29.4	-28.14	9.45	0.989664	0.106628	0.155184	-0.6405	0.15	0.4005	0	283	227	3
2026-02-19	12:32:30.390	-5.53	-28	14.245	0.95648	0.008052	0.143228	-0.6465	0.1545	0.387	0	283	227	3
2026-02-19	12:32:30.410	22.26	-26.145	25.165	1.239276	-0.375516	-0.08052	-0.651	0.153	0.3945	0	285	209	3
2026-02-19	12:32:30.430	13.405	2.835	5.495	1.77876	1.306864	0.939888	-0.6555	0.1545	0.399	0	285	209	3
2026-02-19	12:32:30.450	30.275	-21.49	4.2	0.948184	-0.229116	0.088328	-0.651	0.156	0.4005	0	285	209	3
2026-02-19	12:32:30.470	29.785	-25.06	-3.92	0.929152	-0.06832	0.319884	-0.654	0.1575	0.405	0	285	209	3
2026-02-19	12:32:30.490	-24.605	-11.795	25.515	0.98576	0.03416	0.436272	-0.6555	0.1605	0.4125	0	285	209	3
2026-02-19	12:32:30.510	-39.76	-10.71	26.74	1.013088	0.196664	0.404552	-0.6585	0.1605	0.408	0	285	209	3
2026-02-19	12:32:30.530	-3.08	-5.075	21.63	0.8906	0.230336	0.339892	-0.663	0.159	0.4035	0	285	209	3
2026-02-19	12:32:30.550	12.25	0	24.815	0.85278	0.287432	0.306708	-0.6645	0.162	0.408	0	285	209	3
2026-02-19	12:32:30.570	5.705	1.925	26.25	0.906704	0.3721	0.312076	-0.663	0.1575	0.414	0	285	209	3
2026-02-19	12:32:30.590	-9.45	-1.33	22.645	0.946964	0.390888	0.302804	-0.6705	0.171	0.417	0	285	209	3
2026-02-19	12:32:30.610	-19.6	-5.425	19.18	0.930372	0.324276	0.249612	-0.6765	0.1695	0.4065	0	287	208	3
2026-02-19	12:32:30.630	-21.14	-5.775	21.595	0.9272	0.269864	0.232532	-0.666	0.1755	0.408	0	287	208	3
2026-02-19	12:32:30.650	-27.615	-0.875	25.585	0.957944	0.301828	0.281088	-0.6645	0.1725	0.411	0	287	208	3
2026-02-19	12:32:30.670	-27.335	2.345	26.705	0.959408	0.342332	0.261324	-0.666	0.1755	0.408	0	287	208	3
2026-02-19	12:32:30.690	-16.8	6.3	25.445	0.904508	0.271816	0.229116	-0.6735	0.1845	0.411	0	287	208	3
2026-02-19	12:32:30.710	-12.845	12.005	26.145	0.85766	0.127856	0.250588	-0.669	0.183	0.411	0	287	208	3
2026-02-19	12:32:30.730	-18.585	11.83	28.805	0.871324	0.175192	0.31232	-0.6795	0.1905	0.405	0	287	208	3
2026-02-19	12:32:30.750	-17.325	11.795	28.35	0.934764	0.1586	0.34404	-0.681	0.1965	0.399	0	287	208	3
2026-02-19	12:32:30.770	-6.3	6.125	26.495	1.009916	0.233996	0.316956	-0.6795	0.198	0.3975	0	287	208	3
2026-02-19	12:32:30.790	-9.17	-1.575	26.705	0.94428	0.141764	0.292312	-0.6795	0.201	0.3975	0	287	208	3
2026-02-19	12:32:30.810	-26.285	-11.9	26.075	0.895968	0.114436	0.406504	-0.6795	0.204	0.4005	0	286	223	3
2026-02-19	12:32:30.830	-22.575	-15.54	25.445	0.97112	0.177388	0.364048	-0.6795	0.204	0.4005	0	286	223	3
2026-02-19	12:32:30.850	-20.72	-11.9	25.865	0.90524	0.123464	0.315248	-0.696	0.225	0.3855	0	286	223	3
2026-02-19	12:32:30.870	-17.955	-8.435	24.78	0.977952	-0.03416	0.214964	-0.6975	0.213	0.4005	0	286	223	3
2026-02-19	12:32:30.890	2.52	-10.395	20.93	1.036024	-0.204472	0.14152	-0.699	0.2205	0.393	0	286	223	3
2026-02-19	12:32:30.910	10.675	-11.13	19.635	1.104588	-0.328424	0.07124799	-0.696	0.2205	0.3975	0	286	223	3
2026-02-19	12:32:30.930	-4.83	-9.695	19.495	1.034804	-0.344528	-0.021472	-0.696	0.225	0.39	0	286	223	3
2026-02-19	12:32:30.950	-14.77	-6.65	15.505	1.09068	-0.358924	-0.027328	-0.7005	0.2235	0.399	0	286	223	3
2026-02-19	12:32:30.970	-9.485	-7.84	11.69	1.107028	-0.077348	0.087352	-0.7005	0.2235	0.399	0	286	223	3
2026-02-19	12:32:30.990	-14.665	-9.1	6.37	0.976488	-0.056608	0.233752	-0.6945	0.2205	0.399	0	286	223	3
2026-02-19	12:32:31.010	-21.7	-8.4	7.77	0.957212	0.205692	0.638304	-0.702	0.222	0.408	0	283	237	3
2026-02-19	12:32:31.030	-1.155	-5.11	15.225	0.853268	0.460184	0.781044	-0.7035	0.2235	0.396	0	283	237	3
2026-02-19	12:32:31.050	4.48	0.525	23.695	0.887672	0.530456	0.367708	-0.7065	0.237	0.396	0	283	237	3
2026-02-19	12:32:31.070	3.745	-5.355	24.535	0.94428	0.398696	0.216672	-0.705	0.2355	0.3975	0	283	237	3
2026-02-19	12:32:31.090	7.455	-4.655	31.185	0.942328	0.152744	0.13298	-0.705	0.2355	0.4005	0	283	237	3
2026-02-19	12:32:31.110	2.625	-7.98	31.5	0.942572	0.060512	0.063684	-0.705	0.2355	0.4005	0	283	237	3
2026-02-19	12:32:31.130	0.56	-11.305	28.14	0.995032	-0.00976	0.154452	-0.711	0.2505	0.3975	0	283	237	3
2026-02-19	12:32:31.150	2.555	-14.735	22.12	0.9638	-0.374052	0.238876	-0.7095	0.2475	0.402	0	283	237	3
2026-02-19	12:32:31.170	7.35	-10.745	24.64	0.979904	-0.195932	0.726632	-0.72	0.246	0.405	0	283	237	3
2026-02-19	12:32:31.190	32.725	-4.235	34.51	0.877424	0.060756	0.681248	-0.717	0.264	0.4005	0	283	237	3
2026-02-19	12:32:31.210	52.5	-6.895	35.7	0.9516	0.104432	0.299388	-0.7245	0.255	0.411	0	281	248	3
2026-02-19	12:32:31.230	58.8	-17.36	27.615	0.95526	-0.085156	-0.03538	-0.723	0.258	0.414	0	281	248	3
2026-02-19	12:32:31.250	28.735	-16.765	25.935	0.995032	-0.108336	0.058316	-0.7245	0.267	0.4185	0	281	248	3
2026-02-19	12:32:31.270	-4.2	-9.905	31.185	0.907436	0.023424	0.266204	-0.7245	0.267	0.423	0	281	248	3
2026-02-19	12:32:31.290	15.365	-12.18	30.17	0.975756	0.200812	0.19276	-0.7365	0.27	0.432	0	281	248	3
2026-02-19	12:32:31.310	37.38	-14.7	25.655	1.027484	-0.088084	0.019764	-0.7275	0.2655	0.4335	0	281	248	3
2026-02-19	12:32:31.330	8.54	-13.685	27.86	1.082872	-0.088084	-0.008784	-0.7335	0.2655	0.441	0	281	248	3
2026-02-19	12:32:31.350	-25.55	-14.49	27.09	1.026752	-0.023912	-0.018544	-0.738	0.2805	0.4365	0	281	248	3
2026-02-19	12:32:31.370	-8.715	-19.53	27.195	1.00284	0.108336	0.2379	-0.738	0.2805	0.4365	0	281	248	3
2026-02-19	12:32:31.390	17.85	-28.35	28.945	0.97234	0.167628	0.396744	-0.738	0.2805	0.4365	0	281	248	3
2026-02-19	12:32:31.410	32.375	-40.285	28.42	0.97478	0.045384	0.43554	-0.7335	0.2895	0.447	0	280	253	3
2026-02-19	12:32:31.430	41.86	-40.775	28.21	1.119228	-0.120292	0.413092	-0.738	0.2925	0.453	0	280	253	3
2026-02-19	12:32:31.450	48.23	-31.71	27.16	1.147532	-0.24644	0.421144	-0.7455	0.294	0.465	0	280	253	3
2026-02-19	12:32:31.470	51.87	-15.05	25.445	1.184376	0.020984	0.473848	-0.747	0.3015	0.471	0	280	253	3
2026-02-19	12:32:31.490	55.09	-10.045	28.98	1.23586	-0.45018	0.150548	-0.738	0.3015	0.4695	0	280	253	3
2026-02-19	12:32:31.510	59.64	17.535	15.26	1.631384	-0.026352	0.144692	-0.744	0.303	0.48	0	280	253	3
2026-02-19	12:32:31.530	60.935	23.135	-13.65	1.492792	0.118584	0.128832	-0.753	0.303	0.48	0	280	253	3
2026-02-19	12:32:31.550	37.205	20.58	-46.2	1.37372	0.121512	0.172752	-0.7395	0.3	0.48	0	280	253	3
2026-02-19	12:32:31.570	-17.29	20.685	-67.55	1.14436	0.152744	0.262056	-0.7335	0.294	0.474	0	280	253	3
2026-02-19	12:32:31.590	-63.49	21.98	-85.68	1.00284	0.133956	0.25132	-0.7485	0.2865	0.4785	0	280	253	3
2026-02-19	12:32:31.610	-76.965	22.995	-100.94	0.9516	0.11102	0.265716	-0.729	0.2805	0.4635	0	280	254	3
2026-02-19	12:32:31.630	-76.125	28.56	-107.835	0.868396	0.060268	0.320372	-0.7245	0.258	0.4605	0	280	254	3
2026-02-19	12:32:31.650	-52.99	36.05	-109.9	0.814228	0.08906	0.322324	-0.717	0.2505	0.4395	0	280	254	3
2026-02-19	12:32:31.670	-21.175	43.295	-108.22	0.788608	0.160796	0.322812	-0.6975	0.24	0.444	0	280	254	3
2026-02-19	12:32:31.690	2.31	46.06	-106.54	0.790316	0.183488	0.249368	-0.6915	0.2205	0.435	0	280	254	3
2026-02-19	12:32:31.710	19.74	47.74	-102.83	0.773724	0.150548	0.174704	-0.684	0.2145	0.423	0	280	254	3
2026-02-19	12:32:31.730	29.61	47.635	-97.405	0.772992	0.235704	0.121268	-0.666	0.1965	0.417	0	280	254	3
2026-02-19	12:32:31.750	18.375	44.87	-93.975	0.748348	0.295728	0.150792	-0.657	0.183	0.4125	0	280	254	3
2026-02-19	12:32:31.770	-10.15	38.29	-89.845	0.733708	0.364536	0.075884	-0.6495	0.174	0.411	0	280	254	3
2026-02-19	12:32:31.790	-34.93	31.43	-86.555	0.751764	0.346236	0.067588	-0.627	0.1695	0.405	0	280	254	3
2026-02-19	12:32:31.810	-48.72	27.3	-82.53	0.870348	0.334524	0.104188	-0.6225	0.1545	0.405	0	281	251	3
2026-02-19	12:32:31.830	-43.68	24.08	-74.935	0.911096	0.28548	0.16958	-0.6075	0.1455	0.381	0	281	251	3
2026-02-19	12:32:31.850	-33.04	24.675	-66.115	0.91622	0.257176	0.22204	-0.6	0.141	0.393	0	281	251	3
2026-02-19	12:32:31.870	-30.17	24.465	-54.215	0.87718	0.179828	0.179096	-0.585	0.1365	0.3765	0	281	251	3
2026-02-19	12:32:31.890	-17.885	22.33	-42.385	0.94672	0.147376	0.227652	-0.5835	0.135	0.3645	0	281	251	3
2026-02-19	12:32:31.910	-0.945	17.08	-31.605	0.980636	0.180316	0.267912	-0.5655	0.129	0.3675	0	281	251	3
2026-02-19	12:32:31.930	8.54	11.235	-19.565	0.938912	0.153964	0.2623	-0.5745	0.1305	0.366	0	281	251	3
2026-02-19	12:32:31.950	14.49	4.025	-7.91	0.944036	0.045384	0.204716	-0.5745	0.1305	0.366	0	281	251	3
2026-02-19	12:32:31.970	20.51	-3.045	1.225	1.011624	0.073688	0.231312	-0.5595	0.1275	0.3645	0	281	251	3
2026-02-19	12:32:31.990	17.465	-10.395	8.12	1.008452	0.082472	0.24034	-0.5535	0.1275	0.366	0	281	251	3
2026-02-19	12:32:32.010	7.175	-18.48	13.02	0.965996	0.07442	0.18178	-0.564	0.1305	0.366	0	281	241	3
2026-02-19	12:32:32.030	-7.63	-25.97	18.725	0.915976	0.038796	0.153964	-0.561	0.123	0.3735	0	281	241	3
2026-02-19	12:32:32.050	-20.93	-32.025	25.62	0.935008	0.046848	0.156648	-0.57	0.1305	0.3735	0	281	241	3
2026-02-19	12:32:32.070	-21.91	-35.14	29.82	1.001132	0.071492	0.176412	-0.5715	0.1335	0.3675	0	281	241	3
2026-02-19	12:32:32.090	-3.955	-35.49	33.075	0.966484	-0.007564	0.218136	-0.567	0.135	0.378	0	281	241	3
2026-02-19	12:32:32.110	16.59	-32.095	36.155	1.01382	0.050996	0.236924	-0.5775	0.138	0.381	0	281	241	3
2026-02-19	12:32:32.130	26.845	-13.615	42.315	1.798524	0.53924	0.21838	-0.582	0.144	0.3795	0	281	241	3
2026-02-19	12:32:32.150	17.395	2.1	-9.065	1.372256	0.43554	0.44286	-0.579	0.15	0.39	0	281	241	3
2026-02-19	12:32:32.170	23.03	-24.43	1.54	0.9882	0.024888	0.172996	-0.5985	0.144	0.3885	0	281	241	3
2026-02-19	12:32:32.190	3.71	-20.86	9.695	0.925248	-0.0976	0.092964	-0.6	0.147	0.393	0	281	241	3
2026-02-19	12:32:30.210	-14.105	-4.34	-30.45	0.805932	0.033184	0.231068	-0.66	0.156	0.4125	0	283	227	3
2026-02-19	12:32:30.230	-8.68	-4.13	-19.39	0.839848	-0.022936	0.18666	-0.6495	0.15	0.4095	0	283	227	3
2026-02-19	12:32:30.250	-16.8	-7.945	-7.735	0.914756	0.161284	0.174704	-0.6405	0.1485	0.408	0	283	227	3
2026-02-19	12:32:30.270	-33.46	-13.23	-2.835	0.915488	0.204472	0.115412	-0.6435	0.15	0.4125	0	283	227	3
2026-02-19	12:32:30.290	-53.375	-17.255	-1.645	0.914024	0.249124	0.140788	-0.6435	0.1395	0.4155	0	283	227	3
2026-02-19	12:32:30.310	-68.46	-22.82	1.4	1.039684	0.193736	0.138104	-0.639	0.144	0.4035	0	283	227	3
2026-02-19	12:32:30.330	-66.395	-26.6	6.195	1.12362	0.174704	0.14884	-0.639	0.144	0.39	0	283	227	3
2026-02-19	12:32:30.350	-52.325	-28.665	9.135	1.064572	0.145668	0.14152	-0.6495	0.1425	0.393	0	283	227	3
2026-02-19	12:32:30.370	-29.4	-28.14	9.45	0.989664	0.106628	0.155184	-0.6405	0.15	0.4005	0	283	227	3
2026-02-19	12:32:30.390	-5.53	-28	14.245	0.95648	0.008052	0.143228	-0.6465	0.1545	0.387	0	283	227	3
2026-02-19	12:32:30.410	22.26	-26.145	25.165	1.239276	-0.375516	-0.08052	-0.651	0.153	0.3945	0	285	209	3
2026-02-19	12:32:30.430	13.405	2.835	5.495	1.77876	1.306864	0.939888	-0.6555	0.1545	0.399	0	285	209	3
2026-02-19	12:32:30.450	30.275	-21.49	4.2	0.948184	-0.229116	0.088328	-0.651	0.156	0.4005	0	285	209	3
2026-02-19	12:32:30.470	29.785	-25.06	-3.92	0.929152	-0.06832	0.319884	-0.654	0.1575	0.405	0	285	209	3
2026-02-19	12:32:30.490	-24.605	-11.795	25.515	0.98576	0.03416	0.436272	-0.6555	0.1605	0.4125	0	285	209	3
2026-02-19	12:32:30.510	-39.76	-10.71	26.74	1.013088	0.196664	0.404552	-0.6585	0.1605	0.408	0	285	209	3
2026-02-19	12:32:30.530	-3.08	-5.075	21.63	0.8906	0.230336	0.339892	-0.663	0.159	0.4035	0	285	209	3
2026-02-19	12:32:30.550	12.25	0	24.815	0.85278	0.287432	0.306708	-0.6645	0.162	0.408	0	285	209	3
2026-02-19	12:32:30.570	5.705	1.925	26.25	0.906704	0.3721	0.312076	-0.663	0.1575	0.414	0	285	209	3
2026-02-19	12:32:30.590	-9.45	-1.33	22.645	0.946964	0.390888	0.302804	-0.6705	0.171	0.417	0	285	209	3
2026-02-19	12:32:34.610	-6.93	-3.115	19.705	1.025532	0.18666	0.4148	-0.6555	0.2415	0.381	0	405	212	3
2026-02-19	12:32:34.630	-0.175	-5.04	14.595	0.931592	0.076372	0.292312	-0.66	0.2385	0.381	0	405	212	3
2026-02-19	12:32:34.650	2.345	-5.915	13.685	1.014552	0.040992	0.150304	-0.666	0.246	0.384	0	405	212	3
2026-02-19	12:32:34.670	-10.185	-6.93	18.865	0.97722	0.159088	0.250588	-0.6675	0.2475	0.384	0	405	212	3
2026-02-19	12:32:34.690	-11.97	-9.205	21.77	0.903288	0.31842	0.349896	-0.6735	0.246	0.3825	0	405	212	3
2026-02-19	12:32:34.710	-6.09	-11.165	16.73	0.933544	0.403332	0.310368	-0.6705	0.2505	0.387	0	405	212	3
2026-02-19	12:32:34.730	1.715	-18.83	8.925	0.946476	0.401868	0.195932	-0.669	0.249	0.39	0	405	212	3
2026-02-19	12:32:34.750	-10.885	-18.69	11.165	0.948428	0.28426	0.32696	-0.672	0.2535	0.3885	0	405	212	3
2026-02-19	12:32:34.770	-12.075	-18.62	16.695	0.882304	0.333792	0.511668	-0.6795	0.258	0.3945	0	405	212	3
2026-02-19	12:32:34.790	2.52	-18.69	15.505	0.860344	0.12566	0.404552	-0.6825	0.258	0.4005	0	405	212	3
2026-02-19	12:32:34.810	8.33	-18.515	15.715	1.009428	-0.1952	0.360388	-0.681	0.261	0.4035	0	388	228	2
2026-02-19	12:32:34.830	23.03	-20.055	19.425	0.975024	-0.227652	0.24156	-0.684	0.264	0.405	0	388	228	2
2026-02-19	12:32:34.850	32.48	-18.725	19.565	1.129964	-0.256932	-0.035136	-0.6855	0.264	0.408	0	388	228	2
2026-02-19	12:32:34.870	8.54	-10.85	22.96	1.086044	-0.348676	-0.07564	-0.6915	0.2685	0.4095	0	388	228	2
2026-02-19	12:32:34.890	7.98	-8.26	19.985	1.064816	-0.233508	-0.018788	-0.6975	0.27	0.414	0	388	228	2
2026-02-19	12:32:34.910	6.125	-10.5	12.25	1.10288	-0.366	-0.043432	-0.6945	0.27	0.4185	0	388	228	2
2026-02-19	12:32:34.930	-7.56	-0.035	20.825	1.047004	-0.179584	0.128344	-0.6945	0.2715	0.42	0	388	228	2
2026-02-19	12:32:34.950	-6.335	4.025	26.565	1.001132	0.020008	0.294508	-0.696	0.273	0.417	0	388	228	2
2026-02-19	12:32:34.970	1.645	0.385	28.35	0.974536	0.103456	0.304512	-0.6945	0.273	0.4155	0	388	228	2
2026-02-19	12:32:34.990	0.665	-2.87	29.82	0.973316	0.123952	0.20618	-0.696	0.27	0.414	0	388	228	2
2026-02-19	12:32:35.010	5.635	-11.06	29.995	0.95404	0.201788	0.29402	-0.699	0.279	0.4125	0	368	234	3
2026-02-19	12:32:35.030	-0.035	-21.525	28.315	0.890844	0.303536	0.438712	-0.702	0.2865	0.414	0	368	234	3
2026-02-19	12:32:35.050	-1.47	-28.98	22.75	0.903044	0.316224	0.569496	-0.702	0.2865	0.4215	0	368	234	3
2026-02-19	12:32:35.070	4.935	-34.44	22.855	0.876692	0.41724	0.684176	-0.705	0.291	0.4305	0	368	234	3
2026-02-19	12:32:35.090	22.4	-35.77	24.395	0.84302	0.561444	0.750788	-0.7065	0.294	0.435	0	368	234	3
2026-02-19	12:32:35.110	52.08	-41.44	21.42	0.807152	0.619028	0.686616	-0.708	0.3015	0.438	0	368	234	3
2026-02-19	12:32:35.130	105.595	-49.63	22.05	0.979416	0.344528	0.445788	-0.7125	0.3015	0.447	0	368	234	3
2026-02-19	12:32:35.150	127.715	-46.62	27.055	1.169492	0.205692	0.25376	-0.7125	0.3015	0.459	0	368	234	3
2026-02-19	12:32:35.170	110.32	-11.69	29.715	1.192184	0.15128	-0.060756	-0.717	0.306	0.471	0	368	234	3
2026-02-19	12:32:35.190	86.45	12.67	26.95	1.725568	-0.244488	-0.486048	-0.723	0.3075	0.4845	0	368	234	3
2026-02-19	12:32:35.210	64.225	35.035	-11.445	1.397876	0.290116	-0.123708	-0.723	0.315	0.4935	0	352	246	3
2026-02-19	12:32:35.230	-8.4	31.22	-68.145	1.323944	0.185196	0.201788	-0.723	0.3135	0.4935	0	352	246	3
2026-02-19	12:32:35.250	-65.52	22.12	-110.32	1.160708	-0.155428	0.436028	-0.726	0.303	0.486	0	352	246	3
2026-02-19	12:32:35.270	-69.65	28.035	-108.5	1.132892	-0.510204	0.61366	-0.723	0.294	0.474	0	352	246	3
2026-02-19	12:32:35.290	-24.115	46.935	-102.55	1.034804	-0.27328	0.745176	-0.711	0.276	0.471	0	352	246	3
2026-02-19	12:32:35.310	23.38	62.93	-111.335	0.941108	0.20252	0.710284	-0.7035	0.264	0.465	0	352	246	3
2026-02-19	12:32:35.330	34.93	64.155	-123.095	0.862052	0.279868	0.391864	-0.699	0.2535	0.4545	0	352	246	3
2026-02-19	12:32:35.350	27.23	59.045	-126.98	0.764452	0.255224	0.157624	-0.6885	0.2355	0.4485	0	352	246	3
2026-02-19	12:32:35.370	2.415	54.04	-121.975	0.665144	0.24766	-0.008784	-0.6765	0.2205	0.441	0	352	246	3
2026-02-19	12:32:35.390	-24.01	52.01	-111.51	0.679052	0.235216	-0.063928	-0.6645	0.207	0.435	0	352	246	3
2026-02-19	12:32:35.410	-45.5	38.395	-99.96	0.721996	0.324032	-0.00488	-0.657	0.1995	0.435	0	344	258	3
2026-02-19	12:32:35.430	-49.105	33.04	-94.395	0.76006	0.305	-0.028548	-0.657	0.1995	0.435	0	344	258	3
2026-02-19	12:32:35.450	-37.555	30.345	-90.51	0.903532	0.348432	0.049288	-0.6315	0.1695	0.4125	0	344	258	3
2026-02-19	12:32:35.470	-25.795	27.265	-82.285	0.990884	0.353312	0.115168	-0.6255	0.1605	0.4065	0	344	258	3
2026-02-19	12:32:35.490	-17.01	27.51	-75.355	1.036756	0.333304	0.163724	-0.6135	0.15	0.4005	0	344	258	3
2026-02-19	12:32:35.510	-10.745	26.53	-69.335	1.053348	0.221064	0.14884	-0.603	0.147	0.393	0	344	258	3
2026-02-19	12:32:35.530	-1.4	20.685	-60.27	1.049932	0.068564	0.126148	-0.5985	0.138	0.387	0	344	258	3
2026-02-19	12:32:35.550	0.385	18.48	-45.675	1.02114	0.03172	0.146156	-0.5925	0.135	0.3855	0	344	258	3
2026-02-19	12:32:35.570	3.535	14.14	-37.345	1.016504	0.177388	0.193492	-0.585	0.1335	0.3855	0	344	258	3
2026-02-19	12:32:35.590	-2.31	7.7	-33.18	1.032852	0.241072	0.17446	-0.5805	0.1245	0.387	0	344	258	3
2026-02-19	12:32:35.610	-14.07	-0.105	-32.445	1.03578	0.324032	0.14884	-0.582	0.1215	0.3885	0	343	251	3
2026-02-19	12:32:35.630	-23.45	-9.45	-30.975	1.052128	0.251076	0.131028	-0.5745	0.12	0.39	0	343	251	3
2026-02-19	12:32:35.650	-31.465	-16.1	-26.635	1.009428	0.238632	0.182024	-0.5655	0.117	0.384	0	343	251	3
2026-02-19	12:32:35.670	-38.535	-20.72	-20.895	0.948916	0.227896	0.203496	-0.5655	0.1125	0.381	0	343	251	3
2026-02-19	12:32:35.690	-40.565	-24.745	-13.02	0.87108	0.23058	0.218868	-0.567	0.1095	0.3795	0	343	251	3
2026-02-19	12:32:35.710	-34.125	-27.965	-4.55	0.816424	0.243512	0.25742	-0.5685	0.111	0.378	0	343	251	3
2026-02-19	12:32:35.730	-22.61	-28.77	3.115	0.860344	0.226432	0.321592	-0.567	0.114	0.378	0	343	251	3
2026-02-19	12:32:35.750	-9.065	-27.23	12.215	0.940132	0.266936	0.321836	-0.57	0.1125	0.369	0	343	251	3
2026-02-19	12:32:35.770	-0.105	-24.745	20.755	0.9638	0.330376	0.30988	-0.5685	0.1185	0.369	0	343	251	3
2026-02-19	12:32:35.790	1.435	-24.745	25.69	0.95892	0.34404	0.2806	-0.5715	0.1215	0.3765	0	343	251	3
2026-02-19	12:32:35.810	-1.015	-27.965	28.875	0.924028	0.303536	0.235704	-0.5775	0.123	0.381	0	339	237	3
2026-02-19	12:32:35.830	1.82	-30.695	31.045	0.933788	0.287676	0.274988	-0.5805	0.1215	0.3795	0	339	237	3
2026-02-19	12:32:35.850	-3.885	-27.86	33.6	0.912316	0.29158	0.299632	-0.5865	0.1155	0.384	0	339	237	3
2026-02-19	12:32:35.870	-2.66	-25.41	37.31	0.906216	0.233996	0.288408	-0.594	0.12	0.3915	0	339	237	3
2026-02-19	12:32:35.890	11.97	-24.15	42.105	0.899872	0.244244	0.298412	-0.6045	0.1305	0.396	0	339	237	3
2026-02-19	12:32:35.910	32.34	-19.215	46.83	1.58356	-0.124196	0.115168	-0.612	0.135	0.402	0	339	237	3
2026-02-19	12:32:35.930	39.585	3.01	23.205	1.225368	1.318088	0.97966	-0.615	0.1365	0.405	0	339	237	3
2026-02-19	12:32:35.950	41.335	-11.13	1.435	0.874496	0.3721	0.255956	-0.6195	0.138	0.4065	0	339	237	3
2026-02-19	12:32:35.970	27.125	-12.495	5.145	0.9699	0.058072	0.271816	-0.6165	0.1305	0.4125	0	339	237	3
2026-02-19	12:32:35.990	2.205	-8.33	20.125	0.989664	0.105408	0.361364	-0.615	0.1245	0.4185	0	339	237	3
2026-02-19	12:32:36.010	4.83	-8.155	25.55	0.942084	0.276452	0.40748	-0.624	0.1425	0.4185	0	332	241	3
2026-02-19	12:32:36.030	8.12	-8.645	29.435	0.884744	0.422852	0.404552	-0.63	0.141	0.4245	0	332	241	3
2026-02-19	12:32:36.050	2.52	-5.6	31.115	0.83326	0.469212	0.454328	-0.6345	0.144	0.426	0	332	241	3
2026-02-19	12:32:36.070	2.59	-5.355	21.84	0.885964	0.447496	0.293288	-0.639	0.1425	0.4245	0	332	241	3
2026-02-19	12:32:36.090	0.665	-1.995	21.98	0.810812	0.377224	0.291824	-0.6405	0.147	0.423	0	332	241	3
2026-02-19	12:32:36.110	-8.33	-2.03	27.195	0.795196	0.336476	0.189588	-0.6375	0.153	0.4215	0	332	241	3
2026-02-19	12:32:36.130	-22.435	1.54	34.685	0.900848	0.367464	0.229604	-0.642	0.156	0.426	0	332	241	3
2026-02-19	12:32:36.150	-19.215	2.8	39.235	0.976	0.417484	0.278892	-0.6495	0.162	0.423	0	332	241	3
2026-02-19	12:32:36.170	-4.795	1.785	39.48	0.921832	0.4148	0.25864	-0.651	0.1605	0.417	0	332	241	3
2026-02-19	12:32:36.190	2.975	0.42	36.505	0.879864	0.408212	0.202276	-0.651	0.165	0.417	0	332	241	3
2026-02-19	12:32:36.210	-11.655	0.49	34.755	0.904508	0.38918	0.266936	-0.6585	0.1695	0.4185	0	324	257	3
2026-02-19	12:32:36.230	-26.635	1.96	31.535	0.947208	0.320372	0.259128	-0.663	0.1695	0.4215	0	324	257	3
2026-02-19	12:32:36.250	-23.24	4.655	29.96	0.94062	0.273768	0.287676	-0.666	0.1785	0.42	0	324	257	3
2026-02-19	12:32:36.270	-17.185	3.22	29.61	0.96258	0.295972	0.35502	-0.669	0.186	0.417	0	324	257	3
2026-02-19	12:32:36.290	-23.345	0.21	29.295	0.925248	0.188856	0.339892	-0.6705	0.1755	0.4125	0	324	257	3
2026-02-19	12:32:36.310	-14.945	-4.165	26.705	0.965752	0.059048	0.344772	-0.684	0.186	0.399	0	324	257	3
2026-02-19	12:32:36.330	-7	-4.41	28.7	1.029192	-0.034892	0.3782	-0.678	0.195	0.405	0	324	257	3
2026-02-19	12:32:36.350	-9.31	0.385	36.33	0.990396	-0.025132	0.377712	-0.684	0.1995	0.4215	0	324	257	3
2026-02-19	12:32:36.370	-0.105	4.83	39.025	0.933056	-0.011468	0.288408	-0.684	0.2025	0.4155	0	324	257	3
2026-02-19	12:32:36.390	12.215	5.285	36.82	1.004304	-0.005612	0.27084	-0.6855	0.207	0.4125	0	324	257	3
2026-02-19	12:32:36.410	8.645	0.91	32.41	1.001864	0.064904	0.1647	-0.6885	0.207	0.417	0	314	271	2
2026-02-19	12:32:36.430	-4.725	-2.38	29.365	0.99552	0.096624	0.035136	-0.696	0.2115	0.414	0	314	271	2
2026-02-19	12:32:36.450	-10.045	-3.395	26.88	0.99186	0.135664	0.074908	-0.7005	0.213	0.4095	0	314	271	2
2026-02-19	12:32:36.470	2.52	-7.21	20.265	1.011136	0.2562	0.08686399	-0.699	0.216	0.4125	0	314	271	2
2026-02-19	12:32:36.490	6.755	-9.765	7.07	0.994056	0.017812	-0.01098	-0.7005	0.225	0.4155	0	314	271	2
2026-02-19	12:32:36.510	-9.66	-11.375	3.465	1.042368	-0.186416	0.123464	-0.7035	0.231	0.4185	0	314	271	2
2026-02-19	12:32:36.530	-23.03	-13.125	10.36	1.044808	-0.156648	0.294508	-0.7005	0.2295	0.417	0	314	271	2
2026-02-19	12:32:36.550	-9.52	-10.885	21.07	0.964776	-0.050752	0.457988	-0.699	0.225	0.414	0	314	271	2
2026-02-19	12:32:36.570	-10.185	-14.14	19.53	0.964288	0.10858	0.45994	-0.699	0.225	0.414	0	314	271	2
2026-02-19	12:32:36.590	-2.52	-15.295	16.59	0.908412	0.318176	0.338184	-0.714	0.2355	0.417	0	314	271	2
2026-02-19	12:32:36.610	-12.74	-12.46	18.445	0.946232	0.44042	0.334768	-0.72	0.234	0.423	0	304	274	2
2026-02-19	12:32:36.630	-7.84	-15.855	17.535	0.865956	0.707844	0.447496	-0.717	0.2355	0.429	0	304	274	2
2026-02-19	12:32:36.650	-4.655	-11.935	6.65	0.884988	0.715408	0.359412	-0.7245	0.243	0.4275	0	304	274	2
2026-02-19	12:32:36.670	-12.04	-14.595	-5.565	0.906948	0.394548	0.41358	-0.729	0.246	0.4275	0	304	274	2
2026-02-19	12:32:36.690	-14.945	-17.885	-4.165	0.861808	0.230092	0.631716	-0.7245	0.2445	0.4305	0	304	274	2
2026-02-19	12:32:36.710	-3.465	-14.56	-2.065	0.917928	-0.190564	0.502884	-0.717	0.243	0.4305	0	304	274	2
2026-02-19	12:32:36.730	16.485	-17.325	6.895	1.084336	-0.50508	0.21838	-0.717	0.243	0.4275	0	304	274	2
2026-02-19	12:32:36.750	14.63	-12.145	22.645	1.095316	-0.481656	-0.000976	-0.72	0.2415	0.4335	0	304	274	2
2026-02-19	12:32:36.770	14.49	-10.885	26.075	1.062864	-0.188856	-0.000732	-0.7185	0.24	0.4365	0	304	274	2
2026-02-19	12:32:36.790	17.5	-7.63	24.955	1.026264	0.044408	-0.006832	-0.726	0.24	0.435	0	304	274	2
2026-02-19	12:32:36.810	8.505	-19.18	13.86	0.976488	0.093452	-0.074664	-0.7305	0.2445	0.4425	0	297	277	3
2026-02-19	12:32:36.830	-32.62	-20.93	18.585	0.87108	0.304512	0.46726	-0.726	0.249	0.4485	0	297	277	3
2026-02-19	12:32:36.850	-8.645	-19.6	21.105	0.852292	0.427732	0.541924	-0.726	0.249	0.4485	0	297	277	3
2026-02-19	12:32:36.870	16.87	-23.59	13.825	0.917196	0.061976	0.280844	-0.732	0.2595	0.4545	0	297	277	3
2026-02-19	12:32:36.890	11.655	-16.94	22.19	0.977952	-0.059536	0.372832	-0.7335	0.261	0.462	0	297	277	3
2026-02-19	12:32:36.910	9.03	-14.28	33.46	0.926224	0.167872	0.447984	-0.738	0.2595	0.4575	0	297	277	3
2026-02-19	12:32:36.930	29.015	-15.365	36.715	0.933056	0.106872	0.280844	-0.738	0.27	0.459	0	297	277	3
2026-02-19	12:32:36.950	41.965	-18.935	40.67	1.0065	0.061	0.206668	-0.7485	0.273	0.471	0	297	277	3
2026-02-19	12:32:36.970	38.92	-22.82	47.81	0.984784	0.020496	0.128832	-0.7485	0.2685	0.4725	0	297	277	3
2026-02-19	12:32:36.990	41.02	-28	50.715	0.976244	0.004636	0.126636	-0.75	0.2775	0.4755	0	297	277	3
2026-02-19	12:32:37.010	43.54	-35.245	47.495	1.0004	-0.034404	0.09882	-0.7515	0.291	0.48	0	295	277	3
2026-02-19	12:32:37.030	41.755	-38.955	39.62	1.007232	-0.125416	0.106872	-0.762	0.297	0.486	0	295	277	3
2026-02-19	12:32:37.050	44.205	-34.51	36.645	1.088484	-0.183732	0.34892	-0.7665	0.3045	0.501	0	295	277	3
2026-02-19	12:32:37.070	63.42	-26.88	38.99	1.169492	-0.216672	0.378444	-0.762	0.312	0.5085	0	295	277	3
2026-02-19	12:32:37.090	85.89	-10.535	32.2	1.164124	-0.205936	0.284016	-0.765	0.321	0.516	0	295	277	3
2026-02-19	12:32:37.110	99.505	-1.54	17.675	1.3908	-0.37698	-0.104676	-0.7695	0.3285	0.5235	0	295	277	3
2026-02-19	12:32:37.130	71.82	20.265	-1.89	1.530368	-0.021716	0.0122	-0.7695	0.3285	0.5235	0	295	277	3
2026-02-19	12:32:37.150	37.205	16.905	-30.1	1.318332	0.172752	0.123952	-0.7755	0.3315	0.531	0	295	277	3
2026-02-19	12:32:37.170	-30.205	18.165	-56.945	1.21512	0.19276	0.199348	-0.771	0.324	0.5295	0	295	277	3
2026-02-19	12:32:37.190	-87.325	19.845	-76.825	1.125572	0.099308	0.240584	-0.768	0.3195	0.5235	0	295	277	3
2026-02-19	12:32:37.210	-103.985	23.59	-89.565	1.039684	0.038308	0.259616	-0.762	0.3075	0.522	0	295	268	3
2026-02-19	12:32:37.230	-88.48	30.555	-92.155	0.961116	0.025864	0.354532	-0.756	0.297	0.504	0	295	268	3
2026-02-19	12:32:37.250	-66.465	42.665	-90.09	0.854244	-0.008052	0.396012	-0.756	0.279	0.498	0	295	268	3
2026-02-19	12:32:37.270	-38.78	49.7	-89.67	0.798368	0.088328	0.402112	-0.747	0.261	0.483	0	295	268	3
2026-02-19	12:32:37.290	-23.8	56.945	-89.145	0.782264	0.171776	0.370392	-0.7395	0.255	0.483	0	295	268	3
2026-02-19	12:32:37.310	-11.13	58.835	-89.355	0.776164	0.182268	0.264252	-0.732	0.243	0.4755	0	295	268	3
2026-02-19	12:32:37.330	7.385	58.905	-88.935	0.780312	0.195444	0.193736	-0.7275	0.2325	0.4575	0	295	268	3
2026-02-19	12:32:37.350	23.135	58.59	-85.295	0.77592	0.187148	0.148596	-0.7185	0.228	0.4485	0	295	268	3
2026-02-19	12:32:37.370	24.955	56.56	-80.57	0.803736	0.23546	0.086376	-0.711	0.216	0.444	0	295	268	3
2026-02-19	12:32:37.390	7.77	51.66	-76.335	0.854244	0.335012	0.040504	-0.7095	0.207	0.438	0	295	268	3
2026-02-19	12:32:37.410	-15.015	42.315	-73.22	0.83936	0.325984	0.010248	-0.7095	0.207	0.438	0	294	257	3
2026-02-19	12:32:37.430	-26.88	34.335	-69.615	0.902312	0.298412	0.035136	-0.672	0.1635	0.4245	0	294	257	3
2026-02-19	12:32:37.450	-33.845	29.645	-63.735	0.928908	0.263276	0.069052	-0.672	0.168	0.42	0	294	257	3
2026-02-19	12:32:37.470	-28.245	26.845	-56.84	0.93086	0.195932	0.112484	-0.669	0.1605	0.417	0	294	257	3
2026-02-19	12:32:37.490	-13.65	23.205	-49.735	0.916708	0.167872	0.15738	-0.648	0.156	0.4005	0	294	257	3
2026-02-19	12:32:37.510	1.575	18.725	-41.72	0.906216	0.188612	0.208864	-0.657	0.1575	0.3945	0	294	257	3
2026-02-19	12:32:37.530	8.33	15.33	-33.985	0.91378	0.205692	0.241804	-0.648	0.1485	0.4035	0	294	257	3
2026-02-19	12:32:37.550	9.94	11.935	-26.81	0.983076	0.1891	0.188612	-0.6405	0.135	0.396	0	294	257	3
2026-02-19	12:32:37.570	13.86	4.83	-19.95	1.022848	0.182756	0.183976	-0.6375	0.1365	0.3915	0	294	257	3
2026-02-19	12:32:37.590	19.6	-1.75	-14.245	1.013088	0.183732	0.213256	-0.636	0.135	0.405	0	294	257	3
2026-02-19	12:32:37.610	18.585	-8.12	-9.905	0.958676	0.16958	0.216672	-0.6345	0.135	0.4005	0	292	239	3
2026-02-19	12:32:37.630	10.01	-12.88	-4.585	0.896212	0.156404	0.199592	-0.63	0.1365	0.399	0	292	239	3
2026-02-19	12:32:37.650	0.805	-17.43	1.33	0.911584	0.149572	0.19642	-0.63	0.135	0.4035	0	292	239	3
2026-02-19	12:32:37.670	-6.125	-22.05	8.855	0.9577	0.182756	0.23058	-0.6285	0.1335	0.4065	0	292	239	3
2026-02-19	12:32:37.690	-9.66	-25.235	16.345	0.937936	0.212524	0.259616	-0.627	0.135	0.408	0	292	239	3
2026-02-19	12:32:37.710	-9.415	-27.545	20.37	0.896456	0.220332	0.244488	-0.645	0.1335	0.402	0	292	239	3
2026-02-19	12:32:37.730	-7.42	-29.225	22.645	0.884744	0.238144	0.264496	-0.6435	0.1425	0.408	0	292	239	3
2026-02-19	12:32:37.750	-2.975	-29.47	25.655	0.92598	0.216672	0.30134	-0.6405	0.1455	0.411	0	292	239	3
2026-02-19	12:32:37.770	7.63	-26.18	31.29	1.364936	-0.323788	-0.129808	-0.642	0.1425	0.417	0	292	239	3
2026-02-19	12:32:37.790	4.55	1.645	15.05	1.705316	1.513532	1.137772	-0.648	0.1425	0.432	0	292	239	3
2026-02-19	12:32:37.810	24.29	-13.86	-7.665	1.073356	-0.070272	0.102724	-0.6555	0.153	0.4275	0	286	228	3
2026-02-19	12:32:37.830	46.06	-19.775	-15.12	0.865468	0.262544	0.265228	-0.651	0.1515	0.426	0	286	228	3
2026-02-19	12:32:37.850	2.38	-18.445	11.2	0.8845	-0.268644	0.107604	-0.654	0.1455	0.432	0	286	228	3
2026-02-19	12:32:37.870	-28.21	-10.22	20.965	1.004304	-0.092476	0.297924	-0.648	0.153	0.4365	0	286	228	3
2026-02-19	12:32:37.890	-26.495	-12.425	29.575	0.925492	0.27084	0.377224	-0.6585	0.1515	0.441	0	286	228	3
2026-02-19	12:32:37.910	-15.155	-11.83	31.325	0.881084	0.262788	0.271084	-0.66	0.1545	0.4395	0	286	228	3
2026-02-19	12:32:37.930	-8.925	-3.78	31.185	0.878888	0.505568	0.460428	-0.6645	0.159	0.438	0	286	228	3
2026-02-19	12:32:37.950	-12.705	-4.585	20.72	0.873764	0.404796	0.363316	-0.6675	0.1635	0.4365	0	286	228	3
2026-02-19	12:32:37.970	-26.81	-6.545	20.65	0.899384	0.347456	0.292068	-0.6675	0.1665	0.435	0	286	228	3
2026-02-19	12:32:37.990	-34.965	-7	24.675	0.935252	0.460428	0.366976	-0.6675	0.1755	0.4305	0	286	228	3
2026-02-19	12:32:38.010	-31.57	-9.975	25.69	0.937692	0.528992	0.409676	-0.6795	0.1815	0.435	0	282	237	3
2026-02-19	12:32:38.030	-14.21	-13.475	23.94	0.871324	0.469456	0.41236	-0.675	0.1815	0.4275	0	282	237	3
2026-02-19	12:32:38.050	-3.92	-10.325	24.22	0.84058	0.370148	0.38796	-0.678	0.1845	0.4335	0	282	237	3
2026-02-19	12:32:38.070	-1.085	-6.755	26.145	0.870836	0.287432	0.392352	-0.6825	0.1935	0.432	0	282	237	3
2026-02-19	12:32:38.090	-5.25	-5.81	27.335	0.92964	0.249856	0.42212	-0.6915	0.1785	0.429	0	282	237	3
2026-02-19	12:32:38.110	-4.69	-5.915	26.81	0.912804	0.167384	0.4453	-0.6885	0.198	0.4305	0	282	237	3
2026-02-19	12:32:38.130	2.905	-1.19	26.425	0.958432	0.040016	0.406748	-0.687	0.198	0.441	0	282	237	3
2026-02-19	12:32:38.150	13.79	0.735	27.58	0.986248	-0.084424	0.330864	-0.6855	0.1995	0.432	0	282	237	3
2026-02-19	12:32:38.170	13.195	3.64	28.945	1.034316	-0.037088	0.351604	-0.687	0.2055	0.4425	0	282	237	3
2026-02-19	12:32:38.190	4.83	3.535	27.895	0.979172	-0.155428	0.18666	-0.6975	0.2055	0.4365	0	282	237	3
2026-02-19	12:32:38.210	1.82	-1.19	33.18	1.01382	0.0915	0.115412	-0.7005	0.21	0.4365	0	278	259	3
2026-02-19	12:32:38.230	-22.295	-1.68	34.125	0.925248	0.074176	0.057096	-0.7035	0.2145	0.4395	0	278	259	3
2026-02-19	12:32:38.250	-24.78	-8.75	40.845	1.03944	0.489464	0.172508	-0.705	0.213	0.4425	0	278	259	3
2026-02-19	12:32:38.270	-38.045	-6.86	27.16	0.925248	0.122732	0.06344	-0.7125	0.2355	0.444	0	278	259	3
2026-02-19	12:32:38.290	-4.305	-9.94	20.51	0.99796	0.223748	0.022936	-0.708	0.2205	0.435	0	278	259	3
2026-02-19	12:32:38.310	1.75	-8.26	20.965	0.989176	0.227408	-0.076372	-0.714	0.24	0.435	0	278	259	3
2026-02-19	12:32:38.330	-12.635	-12.18	18.725	0.917928	0.208864	0.077836	-0.7125	0.24	0.435	0	278	259	3
2026-02-19	12:32:38.350	-6.685	-18.095	13.895	0.964044	0.073688	0.175192	-0.7185	0.2475	0.432	0	278	259	3
2026-02-19	12:32:38.370	14.35	-19.705	10.535	0.994788	-0.1769	0.250588	-0.714	0.24	0.4485	0	278	259	3
2026-02-19	12:32:38.390	16.8	-16.52	13.51	1.05042	-0.262544	0.398452	-0.7215	0.2445	0.4485	0	278	259	3
2026-02-19	12:32:38.410	-2.1	-13.09	16.8	0.974292	-0.182268	0.659532	-0.717	0.2445	0.4485	0	276	268	3
2026-02-19	12:32:38.430	-7.98	-13.72	17.43	0.917928	-0.140056	0.76372	-0.717	0.2475	0.4485	0	276	268	3
2026-02-19	12:32:38.450	16.24	-13.265	18.27	0.977464	-0.127368	0.538996	-0.7245	0.255	0.453	0	276	268	3
2026-02-19	12:32:38.470	28.49	-9.73	21.63	0.979416	-0.108092	0.240096	-0.7275	0.252	0.45	0	276	268	3
2026-02-19	12:32:38.490	3.15	-4.515	27.615	0.969656	0.116144	0.222772	-0.7215	0.2535	0.4605	0	276	268	3
2026-02-19	12:32:38.510	-4.9	-4.41	29.645	0.939888	0.323056	0.175436	-0.723	0.258	0.456	0	276	268	3
2026-02-19	12:32:38.530	9.905	-10.92	23.765	0.947208	0.334524	-0.076128	-0.723	0.258	0.456	0	276	268	3
2026-02-19	12:32:38.550	-3.885	-15.645	21.315	0.971608	0.40626	-0.024888	-0.723	0.258	0.456	0	276	268	3
2026-02-19	12:32:38.570	-19.215	-19.355	23.73	0.874252	0.50752	0.159332	-0.735	0.27	0.4635	0	276	268	3
2026-02-19	12:32:38.590	-3.78	-22.295	19.46	0.917684	0.387472	0.106384	-0.7365	0.2685	0.4635	0	276	268	3
2026-02-19	12:32:38.610	10.08	-24.92	17.5	0.989664	0.164456	0.066124	-0.738	0.2775	0.468	0	277	268	3
2026-02-19	12:32:38.630	6.615	-28.21	19.74	0.944768	0.049776	0.227408	-0.7395	0.279	0.474	0	277	268	3
2026-02-19	12:32:38.650	-6.3	-29.085	21.315	0.92232	-0.05978	0.417728	-0.7365	0.2835	0.4845	0	277	268	3
2026-02-19	12:32:38.670	-10.01	-26.6	21.595	0.955016	-0.175924	0.423584	-0.732	0.2775	0.4785	0	277	268	3
2026-02-19	12:32:38.690	1.61	-22.4	24.325	0.931104	-0.204472	0.325008	-0.7395	0.2955	0.492	0	277	268	3
2026-02-19	12:32:38.710	12.075	-22.855	22.295	0.931348	-0.293044	0.221796	-0.75	0.3015	0.495	0	277	268	3
2026-02-19	12:32:38.730	-2.31	-20.965	22.61	1.013088	-0.38186	0.200324	-0.738	0.2955	0.495	0	277	268	3
2026-02-19	12:32:38.750	-11.9	-17.955	25.235	1.069208	-0.393816	0.156648	-0.7425	0.303	0.4995	0	277	268	3
2026-02-19	12:32:38.770	1.05	-15.19	25.83	1.072624	-0.472872	0.082472	-0.75	0.306	0.498	0	277	268	3
2026-02-19	12:32:38.790	15.715	-12.32	28.42	1.006256	-0.333548	0.032452	-0.744	0.3135	0.4995	0	277	268	3
2026-02-19	12:32:38.810	3.745	-11.725	31.43	1.078724	-0.000244	0.16104	-0.7515	0.3135	0.5025	0	279	258	3
2026-02-19	12:32:38.830	14.98	-5.81	36.855	1.037976	0.080032	0.05368	-0.7515	0.3105	0.507	0	279	258	3
2026-02-19	12:32:38.850	39.2	-4.305	41.825	0.997228	0.148596	-0.023668	-0.7545	0.324	0.5055	0	279	258	3
2026-02-19	12:32:38.870	49.77	-9.31	40.6	1.009184	0.226676	0.027572	-0.75	0.3225	0.5025	0	279	258	3
2026-02-19	12:32:38.890	39.305	-13.825	37.24	0.970876	0.227408	0.140788	-0.7545	0.3315	0.5115	0	279	258	3
2026-02-19	12:32:38.910	22.4	-18.375	33.04	0.95892	0.232288	0.199836	-0.7665	0.3405	0.519	0	279	258	3
2026-02-19	12:32:38.930	7.735	-17.92	31.115	0.971364	0.195444	0.305488	-0.756	0.3435	0.528	0	279	258	3
2026-02-19	12:32:38.950	-7.84	-12.88	25.55	0.978684	0.082472	0.321104	-0.7575	0.351	0.522	0	279	258	3
2026-02-19	12:32:38.970	-14.42	-17.255	32.2	1.058716	-0.10858	0.239608	-0.7545	0.3615	0.528	0	279	258	3
2026-02-19	12:32:38.990	-7.91	0.175	32.445	1.419836	-0.270596	0.160552	-0.7605	0.3615	0.5295	0	279	258	3
2026-02-19	12:32:39.010	35.84	17.29	18.865	1.598444	-0.233264	0.183976	-0.75	0.3645	0.519	0	283	239	3
2026-02-19	12:32:39.030	70.42	19.215	-12.495	1.423008	-0.161284	0.192272	-0.7545	0.369	0.531	0	283	239	3
2026-02-19	12:32:39.050	63.84	15.855	-45.99	1.214388	-0.297192	0.25254	-0.759	0.3675	0.528	0	283	239	3
2026-02-19	12:32:39.070	33.285	13.545	-61.005	1.10044	-0.555344	0.171044	-0.756	0.3615	0.528	0	283	239	3
2026-02-19	12:32:39.090	16.87	26.6	-49.105	0.988688	-0.629276	0.160552	-0.7485	0.3585	0.513	0	283	239	3
2026-02-19	12:32:39.110	25.515	30.905	-46.48	0.945256	-0.346724	0.175192	-0.7455	0.3495	0.5145	0	283	239	3
2026-02-19	12:32:39.130	20.265	29.05	-52.5	0.958432	-0.178608	0.181048	-0.7425	0.3405	0.5175	0	283	239	3
2026-02-19	12:32:39.150	-6.51	27.86	-61.88	1.042368	-0.13542	0.175192	-0.7395	0.333	0.5055	0	283	239	3
2026-02-19	12:32:39.170	-34.79	28.315	-71.82	1.087996	-0.07124799	0.161284	-0.7425	0.327	0.498	0	283	239	3
2026-02-19	12:32:39.190	-49.77	30.52	-82.005	1.112884	0.049044	0.14884	-0.741	0.3195	0.498	0	283	239	3
2026-02-19	12:32:39.210	-57.785	34.405	-90.58	1.197308	0.18178	0.166652	-0.7395	0.303	0.483	0	288	223	3
2026-02-19	12:32:39.230	-61.425	37.345	-95.865	1.216828	0.278648	0.18178	-0.723	0.291	0.477	0	288	223	3
2026-02-19	12:32:39.250	-61.005	40.355	-96.74	1.133136	0.343552	0.188124	-0.729	0.2835	0.4665	0	288	223	3
2026-02-19	12:32:39.270	-54.285	43.61	-95.585	0.965752	0.294264	0.182756	-0.7185	0.267	0.453	0	288	223	3
2026-02-19	12:32:39.290	-33.74	45.29	-93.625	0.82838	0.239852	0.202032	-0.7095	0.2535	0.4545	0	288	223	3
2026-02-19	12:32:39.310	-13.335	47.845	-89.46	0.712236	0.186904	0.216428	-0.705	0.246	0.438	0	288	223	3
2026-02-19	12:32:39.330	5.075	48.055	-84.455	0.66002	0.174704	0.207888	-0.6885	0.2415	0.435	0	288	223	3
2026-02-19	12:32:39.350	14.665	47.11	-77.07	0.595116	0.23058	0.237656	-0.678	0.222	0.423	0	288	223	3
2026-02-19	12:32:39.370	13.44	44.73	-73.185	0.56486	0.23546	0.2074	-0.6735	0.21	0.4215	0	288	223	3
2026-02-19	12:32:39.390	19.88	36.855	-69.825	0.550952	0.267912	0.210572	-0.6645	0.2025	0.4155	0	288	223	3
2026-02-19	12:32:39.410	21.245	31.885	-64.75	0.63562	0.230824	0.19642	-0.6495	0.1935	0.411	0	293	212	2
2026-02-19	12:32:39.430	22.96	27.58	-56.595	0.743956	0.258884	0.175924	-0.6435	0.1905	0.4125	0	293	212	2
2026-02-19	12:32:39.450	27.44	21.63	-46.725	0.801052	0.300364	0.18666	-0.639	0.183	0.4065	0	293	212	2
2026-02-19	12:32:39.470	28.105	14.14	-39.55	0.864248	0.344772	0.230336	-0.6345	0.183	0.4035	0	293	212	2
2026-02-19	12:32:39.490	18.76	7	-33.845	0.877424	0.31476	0.21472	-0.6285	0.177	0.405	0	293	212	2
2026-02-19	12:32:39.510	5.215	0.07	-27.545	0.857904	0.254004	0.192028	-0.6285	0.1665	0.4095	0	293	212	2
2026-02-19	12:32:39.530	-4.375	-6.79	-20.265	0.838384	0.193004	0.19398	-0.615	0.168	0.4035	0	293	212	2
2026-02-19	12:32:39.550	-7.63	-12.915	-12.285	0.860832	0.220332	0.269132	-0.618	0.1635	0.417	0	293	212	2
2026-02-19	12:32:39.570	-19.985	-15.505	-4.305	0.981368	0.24766	0.259616	-0.6105	0.1635	0.4095	0	293	212	2
2026-02-19	12:32:39.590	-28.91	-18.375	4.13	1.006744	0.238876	0.255468	-0.6255	0.171	0.3975	0	293	212	2
2026-02-19	12:32:39.610	-22.925	-22.54	8.12	0.993324	0.169824	0.267668	-0.6135	0.1605	0.4095	0	297	209	2
2026-02-19	12:32:39.630	-5.985	-25.165	12.53	0.983564	0.143472	0.315736	-0.618	0.165	0.405	0	297	209	2
2026-02-19	12:32:39.650	20.335	-21.28	21.805	1.055056	0.113216	0.340868	-0.618	0.1635	0.405	0	297	209	2
2026-02-19	12:32:39.670	37.45	-14.56	31.745	1.085312	0.101992	0.316224	-0.618	0.1635	0.405	0	297	209	2
2026-02-19	12:32:39.690	40.495	-12.845	35.735	1.037244	0.155184	0.279624	-0.621	0.1665	0.414	0	297	209	2
2026-02-19	12:32:39.710	33.39	-14.525	35.875	0.97722	0.170312	0.266448	-0.624	0.174	0.4245	0	297	209	2
2026-02-19	12:32:39.730	23.625	-18.48	35.84	0.924516	0.1586	0.27572	-0.6315	0.1725	0.4275	0	297	209	2
2026-02-19	12:32:39.750	22.295	-20.125	36.295	1.076528	-0.092476	0.118584	-0.639	0.168	0.429	0	297	209	2
2026-02-19	12:32:39.770	10.955	-2.835	26.985	1.616256	1.01016	0.687836	-0.636	0.183	0.441	0	297	209	2
2026-02-19	12:32:39.790	26.95	-9.59	-2.59	1.07238	0.115412	0.244488	-0.6465	0.186	0.444	0	297	209	2
2026-02-19	12:32:39.810	19.11	-20.02	-0.63	0.92476	-0.058804	0.089792	-0.639	0.1905	0.441	0	297	218	3
2026-02-19	12:32:39.830	-24.29	-11.97	16.94	1.007232	0.027328	0.21106	-0.648	0.186	0.4455	0	297	218	3
2026-02-19	12:32:39.850	-53.375	-8.925	25.69	0.942572	0.122	0.269132	-0.648	0.189	0.4425	0	297	218	3
2026-02-19	12:32:39.870	-40.74	-10.78	31.01	0.904996	0.279624	0.315004	-0.6435	0.192	0.441	0	297	218	3
2026-02-19	12:32:39.890	-23.03	-6.965	38.045	0.877912	0.493368	0.331108	-0.651	0.1905	0.4425	0	297	218	3
2026-02-19	12:32:39.910	-8.085	-2.415	31.36	0.850096	0.371368	0.32818	-0.648	0.201	0.4395	0	297	218	3
2026-02-19	12:32:39.930	-8.4	-5.845	27.65	0.848632	0.582428	0.374296	-0.657	0.1995	0.4305	0	297	218	3
2026-02-19	12:32:39.950	-31.64	-6.37	21.84	0.923296	0.47458	0.29768	-0.657	0.1995	0.4305	0	297	218	3
2026-02-19	12:32:39.970	-33.075	-8.855	23.625	0.93696	0.460672	0.305732	-0.6585	0.2055	0.4335	0	297	218	3
2026-02-19	12:32:39.990	-17.22	-13.3	24.395	0.894504	0.426268	0.352824	-0.663	0.2115	0.435	0	297	218	3
2026-02-19	12:32:40.010	-9.03	-12.88	24.255	0.867908	0.32086	0.30378	-0.6675	0.2145	0.4365	0	294	234	3
2026-02-19	12:32:40.030	-11.445	-8.82	26.32	0.899384	0.187392	0.26108	-0.6705	0.216	0.438	0	294	234	3
2026-02-19	12:32:40.050	-9.765	-5.46	29.505	0.96868	0.101992	0.241804	-0.6705	0.2175	0.4365	0	294	234	3
2026-02-19	12:32:40.070	-1.155	-5.46	29.995	1.00162	0.052948	0.214964	-0.6735	0.228	0.4395	0	294	234	3
2026-02-19	12:32:40.090	-5.39	-4.375	30.73	0.983564	-0.068808	0.200812	-0.669	0.2295	0.435	0	294	234	3
2026-02-19	12:32:40.110	-25.725	-2.905	33.145	1.01382	-0.0854	0.247172	-0.684	0.228	0.4365	0	294	234	3
2026-02-19	12:32:40.130	-30.555	-4.2	31.255	1.039196	0.056608	0.35746	-0.6765	0.2325	0.4395	0	294	234	3
2026-02-19	12:32:40.150	-24.185	-8.61	28.42	0.971852	0.033184	0.30256	-0.6735	0.2355	0.4395	0	294	234	3
2026-02-19	12:32:40.170	-20.02	-6.055	28.56	0.971608	0.081496	0.29158	-0.6855	0.2385	0.429	0	294	234	3
2026-02-19	12:32:40.190	-16.975	-6.58	29.015	0.922808	0.17812	0.344284	-0.681	0.249	0.4365	0	294	234	3
2026-02-19	12:32:40.210	-9.975	-11.69	26.74	0.942084	0.216428	0.288164	-0.6915	0.2535	0.435	0	289	250	3
2026-02-19	12:32:40.230	-7.035	-11.97	22.575	0.94428	0.056852	0.141032	-0.6915	0.2535	0.435	0	289	250	3
2026-02-19	12:32:40.250	-10.465	-11.76	26.67	0.978928	0.105652	0.264252	-0.6915	0.2595	0.435	0	289	250	3
2026-02-19	12:32:40.270	-0.21	-13.895	26.705	0.939156	0.07905599	0.307684	-0.6915	0.2625	0.4365	0	289	250	3
2026-02-19	12:32:40.290	19.705	-17.885	16.695	1.0187	-0.227896	0.170556	-0.693	0.2655	0.4425	0	289	250	3
2026-02-19	12:32:40.310	23.52	-20.895	12.04	1.118496	-0.546072	0.038064	-0.6945	0.2655	0.4485	0	289	250	3
2026-02-19	12:32:40.330	-0.77	-10.745	24.255	1.079456	-0.343796	0.314028	-0.6975	0.264	0.447	0	289	250	3
2026-02-19	12:32:40.350	-9.73	-4.62	30.1	0.959652	-0.010492	0.392108	-0.7005	0.27	0.441	0	289	250	3
2026-02-19	12:32:40.370	1.4	-6.335	23.905	0.951112	0.030012	0.305244	-0.7065	0.2685	0.4425	0	289	250	3
2026-02-19	12:32:40.390	12.67	-13.65	14.91	1.03212	-0.17446	0.093208	-0.702	0.2775	0.4515	0	289	250	3
2026-02-19	12:32:40.410	-15.155	-8.085	24.045	1.021628	-0.035624	0.233996	-0.6945	0.27	0.453	0	282	258	3
2026-02-19	12:32:40.430	-15.225	-5.88	29.925	0.910608	0.232532	0.366	-0.7005	0.279	0.4515	0	282	258	3
2026-02-19	12:32:40.450	6.685	-9.835	25.48	0.90768	0.251564	0.24278	-0.7065	0.276	0.45	0	282	258	3
2026-02-19	12:32:40.470	8.12	-14.245	22.225	0.948916	0.25864	0.150304	-0.7155	0.279	0.4515	0	282	258	3
2026-02-19	12:32:40.490	-1.05	-14.805	26.985	0.889136	0.406748	0.238388	-0.708	0.285	0.459	0	282	258	3
2026-02-19	12:32:40.510	22.96	-25.795	19.46	0.913292	0.413824	0.183488	-0.7125	0.2925	0.459	0	282	258	3
2026-02-19	12:32:40.530	28.105	-32.83	13.545	0.909876	0.085888	0.154452	-0.711	0.294	0.462	0	282	258	3
2026-02-19	12:32:40.550	21.665	-29.47	22.26	0.927444	0.065148	0.320128	-0.7125	0.3015	0.4725	0	282	258	3
2026-02-19	12:32:40.570	41.615	-25.34	29.925	0.854732	0.106872	0.447252	-0.714	0.303	0.486	0	282	258	3
2026-02-19	12:32:40.590	55.79	-26.005	29.82	0.90768	-0.073932	0.315492	-0.7185	0.3015	0.4875	0	282	258	3
2026-02-19	12:32:40.610	42.42	-28.14	28.98	0.926224	-0.339404	0.227652	-0.72	0.303	0.4905	0	275	259	3
2026-02-19	12:32:40.630	22.855	-18.375	39.865	0.966728	-0.26352	0.404552	-0.7185	0.303	0.504	0	275	259	3
2026-02-19	12:32:40.650	31.045	-10.885	50.505	0.920612	-0.04758	0.281576	-0.723	0.303	0.51	0	275	259	3
2026-02-19	12:32:40.670	54.215	-11.585	54.845	1.03456	-0.098088	0.130784	-0.726	0.318	0.501	0	275	259	3
2026-02-19	12:32:40.690	66.605	-12.6	57.225	1.048956	-0.035624	0.1769	-0.729	0.327	0.522	0	275	259	3
2026-02-19	12:32:40.710	69.755	-11.83	59.395	0.976732	0.002684	-0.164944	-0.7395	0.3255	0.5145	0	275	259	3
2026-02-19	12:32:40.730	87.01	-21.945	63.14	1.174128	-0.154452	-0.233508	-0.738	0.33	0.5265	0	275	259	3
2026-02-19	12:32:40.750	112.42	-18.025	56.42	1.289296	-0.170556	-0.190564	-0.729	0.3465	0.528	0	275	259	3
2026-02-19	12:32:40.770	114.765	-8.12	40.53	1.314428	-0.122732	-0.03904	-0.7365	0.3495	0.537	0	275	259	3
2026-02-19	12:32:40.790	92.435	-10.885	29.085	1.464	-0.421388	0.088084	-0.7395	0.366	0.549	0	275	259	3
2026-02-19	12:32:40.810	82.705	5.04	20.545	1.742404	-0.132248	0.499712	-0.7395	0.372	0.5535	0	270	250	3
2026-02-19	12:32:40.830	58.205	8.575	-13.125	1.520364	0.194224	0.552904	-0.7395	0.378	0.555	0	270	250	3
2026-02-19	12:32:40.850	26.775	-3.255	-49.98	1.290028	0.16226	0.461404	-0.7425	0.375	0.558	0	270	250	3
2026-02-19	12:32:40.870	-19.53	-6.405	-74.76	1.083116	0.092964	0.366244	-0.7395	0.366	0.5655	0	270	250	3
2026-02-19	12:32:40.890	-46.795	-1.295	-87.43	0.898896	0.022448	0.343308	-0.735	0.3555	0.5625	0	270	250	3
2026-02-19	12:32:40.910	-69.79	9.24	-93.24	0.837408	0.072712	0.33306	-0.735	0.345	0.561	0	270	250	3
2026-02-19	12:32:40.930	-75.6	17.325	-99.365	0.833504	0.114192	0.291336	-0.729	0.3315	0.561	0	270	250	3
2026-02-19	12:32:40.950	-61.355	21.525	-106.89	0.881816	0.132736	0.236924	-0.723	0.318	0.5535	0	270	250	3
2026-02-19	12:32:40.970	-41.16	27.02	-112.805	0.9028	0.066612	0.219844	-0.7245	0.312	0.5505	0	270	250	3
2026-02-19	12:32:40.990	-28.84	33.32	-114.8	0.876204	0.075884	0.173728	-0.711	0.2925	0.5475	0	270	250	3
2026-02-19	12:32:41.010	-22.68	37.485	-116.27	0.872056	0.118096	0.14518	-0.714	0.279	0.531	0	270	240	3
2026-02-19	12:32:41.030	-29.085	40.74	-118.475	0.865956	0.15006	0.085644	-0.7065	0.261	0.5295	0	270	240	3
2026-02-19	12:32:41.050	-33.285	42.875	-120.855	0.874008	0.095404	-0.012688	-0.6975	0.2445	0.5265	0	270	240	3
2026-02-19	12:32:41.070	-36.155	45.465	-116.935	0.916464	0.1647	0.022448	-0.687	0.231	0.516	0	270	240	3
2026-02-19	12:32:41.090	-33.74	47.95	-111.72	0.929884	0.19642	0.018056	-0.6735	0.219	0.507	0	270	240	3
