yyyy-MM-dd	HH:mm:ss.fff	gyrX	gyrY	gyrZ	accX	accY	accZ	magX	magY	magZ	Marker	Energy	Angle	Classification
2026-02-12	15:02:38.410	3.99	-2.17	-1.925	0.109312	-1.003084	0.290848	0.369	1.14	0.1215	0	147	366	2
2026-02-12	15:02:38.430	15.505	-3.045	-3.57	0.116632	-0.953796	0.327692	0.369	1.146	0.12	0	147	366	2
2026-02-12	15:02:38.450	18.97	-3.5	-3.115	0.12566	-0.9211	0.359412	0.363	1.146	0.111	0	147	366	2
2026-02-12	15:02:38.470	17.395	-2.94	-2.835	0.11834	-0.899628	0.37088	0.3675	1.1445	0.111	0	147	366	2
2026-02-12	15:02:38.490	15.505	-3.185	-3.605	0.12932	-0.93818	0.360876	0.3735	1.143	0.1035	0	147	366	2
2026-02-12	15:02:38.510	15.435	-2.17	-3.745	0.138348	-0.903044	0.392108	0.3735	1.143	0.1035	0	147	366	2
2026-02-12	15:02:38.530	10.01	-0.84	-2.905	0.128588	-0.914756	0.391132	0.3675	1.143	0.1005	0	147	366	2
2026-02-12	15:02:38.550	5.6	-0.105	-2.8	0.118096	-0.911584	0.382348	0.3675	1.1415	0.099	0	147	366	2
2026-02-12	15:02:38.570	2.94	0.28	-3.5	0.12322	-0.908168	0.390156	0.3705	1.143	0.1005	0	147	366	2
2026-02-12	15:02:38.590	-1.26	0.91	-3.955	0.127612	-0.905484	0.385764	0.3675	1.146	0.102	0	147	366	2
2026-02-12	15:02:38.610	-2.765	0.035	-3.885	0.1281	-0.940132	0.35624	0.3705	1.137	0.102	0	136	362	2
2026-02-12	15:02:38.630	0.21	-0.28	-3.325	0.130296	-0.944524	0.3599	0.372	1.146	0.108	0	136	362	2
2026-02-12	15:02:38.650	2.17	0.035	-2.625	0.141032	-0.907924	0.397476	0.357	1.143	0.1035	0	136	362	2
2026-02-12	15:02:38.670	-2.1	1.19	-1.155	0.132004	-0.911584	0.385764	0.3705	1.146	0.0975	0	136	362	2
2026-02-12	15:02:38.690	-3.78	1.05	-0.56	0.12322	-0.939156	0.35624	0.363	1.1385	0.0975	0	136	362	2
2026-02-12	15:02:38.710	1.225	-0.07	-1.05	0.122	-0.946232	0.355264	0.366	1.146	0.1125	0	136	362	2
2026-02-12	15:02:38.730	6.09	-0.525	-0.77	0.12566	-0.919392	0.37454	0.366	1.143	0.1095	0	136	362	2
2026-02-12	15:02:38.750	3.92	-0.14	-0.805	0.129564	-0.879864	0.404308	0.3675	1.1385	0.105	0	136	362	2
2026-02-12	15:02:38.770	-2.24	0.455	-1.225	0.138348	-0.904508	0.395524	0.363	1.137	0.099	0	136	362	2
2026-02-12	15:02:38.790	-5.775	1.225	-1.785	0.1342	-0.910608	0.39162	0.3615	1.137	0.102	0	136	362	2
2026-02-12	15:02:38.810	-9.345	2.03	-1.575	0.134932	-0.918172	0.38552	0.366	1.1355	0.1065	0	125	365	2
2026-02-12	15:02:38.830	-11.445	1.995	-1.75	0.1342	-0.93208	0.368196	0.3645	1.152	0.105	0	125	365	2
2026-02-12	15:02:38.850	-10.92	2.065	-1.505	0.131272	-0.914268	0.380396	0.3615	1.1445	0.1095	0	125	365	2
2026-02-12	15:02:38.870	-12.74	3.36	-0.84	0.120048	-0.913292	0.405528	0.357	1.1445	0.114	0	125	365	2
2026-02-12	15:02:38.890	-17.605	6.02	0	0.164944	-0.928908	0.44042	0.3735	1.1505	0.108	0	125	365	2
2026-02-12	15:02:38.910	-27.265	11.48	2.66	0.125904	-0.891576	0.410408	0.369	1.1325	0.1185	0	125	365	2
2026-02-12	15:02:38.930	-24.36	11.025	1.33	0.136152	-1.105564	0.267424	0.3705	1.149	0.1065	0	125	365	2
2026-02-12	15:02:38.950	-13.93	10.955	4.445	0.110776	-1.039684	0.229604	0.372	1.146	0.1125	0	125	365	2
2026-02-12	15:02:38.970	-8.47	9.415	6.58	0.060024	-0.970388	0.273036	0.3705	1.146	0.1215	0	125	365	2
2026-02-12	15:02:38.990	-19.285	4.69	8.54	0.087108	-0.943304	0.2928	0.3615	1.143	0.1215	0	125	365	2
2026-02-12	15:02:39.010	-24.29	-0.875	4.655	0.136884	-0.99064	0.366976	0.363	1.1415	0.1215	0	114	368	2
2026-02-12	15:02:39.030	-11.515	-1.435	5.005	0.175436	-0.947452	0.27816	0.369	1.1445	0.126	0	114	368	2
2026-02-12	15:02:39.050	-19.39	-2.065	7.315	0.142984	-1.033828	0.284748	0.3645	1.143	0.1245	0	114	368	2
2026-02-12	15:02:39.070	-20.51	-3.745	10.535	0.096136	-1.058716	0.302316	0.375	1.1475	0.1365	0	114	368	2
2026-02-12	15:02:39.090	-10.815	-4.97	10.325	0.12932	-0.909144	0.346724	0.378	1.146	0.1395	0	114	368	2
2026-02-12	15:02:39.110	1.015	-1.68	6.405	0.179828	-0.881572	0.365756	0.3765	1.1505	0.1335	0	114	368	2
2026-02-12	15:02:39.130	10.08	4.235	6.965	0.165432	-1.020164	0.443836	0.384	1.158	0.138	0	114	368	2
2026-02-12	15:02:39.150	24.115	11.41	9.555	0.065148	-1.062376	0.287432	0.384	1.158	0.138	0	114	368	2
2026-02-12	15:02:39.170	54.495	13.965	9.45	0.011956	-1.048224	0.145668	0.381	1.152	0.132	0	114	368	2
2026-02-12	15:02:39.190	80.01	12.04	7.56	0.021472	-0.835944	0.258884	0.3795	1.1475	0.1215	0	114	368	2
2026-02-12	15:02:39.210	62.895	7.875	7.7	0.051972	-0.832528	0.345016	0.384	1.146	0.108	0	105	364	3
2026-02-12	15:02:39.230	29.015	3.78	8.995	0.039528	-0.86864	0.31232	0.3855	1.143	0.096	0	105	364	3
2026-02-12	15:02:39.250	7.98	-1.435	8.89	0.02196	-0.872056	0.186416	0.3825	1.143	0.093	0	105	364	3
2026-02-12	15:02:39.270	6.65	-9.835	7.105	0.045628	-0.909632	0.247416	0.3795	1.1445	0.0915	0	105	364	3
2026-02-12	15:02:39.290	16.94	-12.355	5.915	0.106384	-0.95038	0.4026	0.39	1.143	0.102	0	105	364	3
2026-02-12	15:02:39.310	33.95	-9.625	2.695	0.107604	-0.938668	0.45384	0.387	1.1445	0.0945	0	105	364	3
2026-02-12	15:02:39.330	42.665	-4.375	2.345	0.105652	-0.94916	0.564128	0.393	1.149	0.0825	0	105	364	3
2026-02-12	15:02:39.350	43.47	3.5	3.325	0.108336	-0.984052	0.548512	0.3945	1.14	0.084	0	105	364	3
2026-02-12	15:02:39.370	66.01	9.31	1.785	0.108824	-0.915244	0.453108	0.3975	1.14	0.072	0	105	364	3
2026-02-12	15:02:39.390	69.335	12.215	0.84	0.096136	-0.720288	0.47336	0.3975	1.1385	0.0525	0	105	364	3
2026-02-12	15:02:37.410	-0.945	-5.775	-1.19	0.103456	-0.8662	0.409188	0.378	1.152	0.1275	0	161	559	1
2026-02-12	15:02:37.430	-15.155	-4.76	1.68	0.111508	-0.979904	0.337208	0.3795	1.146	0.1215	0	161	559	1
2026-02-12	15:02:37.450	0.91	-3.605	0.245	0.109556	-0.964532	0.325008	0.378	1.1445	0.1245	0	161	559	1
2026-02-12	15:02:37.470	10.43	-2.45	-0.56	0.11834	-0.91622	0.319884	0.381	1.1415	0.132	0	161	559	1
2026-02-12	15:02:37.490	8.68	-2.03	-1.12	0.122732	-0.900848	0.312564	0.3765	1.1415	0.1305	0	161	559	1
2026-02-12	15:02:37.510	-14.49	0.105	1.26	0.143716	-0.921588	0.383812	0.3675	1.143	0.1245	0	161	559	1
2026-02-12	15:02:37.530	-36.925	4.41	3.5	0.143228	-0.974048	0.367464	0.381	1.143	0.132	0	161	559	1
2026-02-12	15:02:37.550	-33.88	8.575	2.345	0.121024	-0.959896	0.314516	0.381	1.1445	0.135	0	161	559	1
2026-02-12	15:02:37.570	-10.815	8.785	0.14	0.044164	-1.00894	0.214232	0.3825	1.146	0.135	0	161	559	1
2026-02-12	15:02:37.590	9.135	4.76	-2.03	0.037332	-0.99064	0.20862	0.369	1.1445	0.138	0	161	559	1
2026-02-12	15:02:37.610	20.615	-0.63	-2.905	0.08295999	-0.959896	0.284504	0.3675	1.14	0.1365	0	167	489	1
2026-02-12	15:02:37.630	4.655	-2.24	-0.595	0.091256	-0.897676	0.37576	0.381	1.1445	0.1305	0	167	489	1
2026-02-12	15:02:37.650	-5.25	-1.05	-1.82	0.142008	-0.933788	0.322568	0.372	1.1385	0.1365	0	167	489	1
2026-02-12	15:02:37.670	2.135	1.05	-1.785	0.127368	-0.921588	0.361608	0.3705	1.143	0.135	0	167	489	1
2026-02-12	15:02:37.690	-3.71	1.645	-0.49	0.092476	-0.947208	0.306708	0.3735	1.143	0.1365	0	167	489	1
2026-02-12	15:02:37.710	-12.635	0.77	-1.05	0.100284	-0.93208	0.298412	0.3795	1.1415	0.1395	0	167	489	1
2026-02-12	15:02:37.730	-15.575	0.35	-1.89	0.116876	-0.98332	0.29402	0.3825	1.1445	0.138	0	167	489	1
2026-02-12	15:02:37.750	-6.86	1.19	-1.96	0.099308	-0.971364	0.27328	0.381	1.146	0.1425	0	167	489	1
2026-02-12	15:02:37.770	3.325	1.085	-3.36	0.079788	-0.943792	0.266692	0.3795	1.1415	0.138	0	167	489	1
2026-02-12	15:02:37.790	6.16	0.14	-4.445	0.09272	-0.903776	0.289384	0.3855	1.1385	0.1455	0	167	489	1
2026-02-12	15:02:37.810	-1.96	0.28	-4.935	0.116632	-0.950868	0.334036	0.378	1.146	0.1335	0	169	437	3
2026-02-12	15:02:37.830	-6.965	1.12	-3.15	0.095648	-0.976	0.317932	0.3735	1.1355	0.1365	0	169	437	3
2026-02-12	15:02:37.850	-2.94	-0.385	-3.92	0.117364	-1.020652	0.288164	0.3795	1.146	0.141	0	169	437	3
2026-02-12	15:02:37.870	1.855	2.695	-1.575	0.116388	-0.987468	0.247416	0.3795	1.146	0.141	0	169	437	3
2026-02-12	15:02:37.890	12.845	3.43	-2.135	0.127612	-0.968924	0.32818	0.378	1.1445	0.141	0	169	437	3
2026-02-12	15:02:37.910	15.365	6.755	-1.26	0.141764	-0.949404	0.369904	0.3735	1.146	0.1365	0	169	437	3
2026-02-12	15:02:37.930	2.73	8.12	0.035	0.104432	-0.894504	0.264496	0.372	1.1445	0.1335	0	169	437	3
2026-02-12	15:02:37.950	-5.81	5.425	-0.315	0.084668	-0.951844	0.202276	0.3735	1.1415	0.1335	0	169	437	3
2026-02-12	15:02:37.970	4.62	2.59	-2.03	0.089792	-1.021384	0.235948	0.3765	1.1385	0.1365	0	169	437	3
2026-02-12	15:02:37.990	18.795	0.98	-2.73	0.088572	-0.954528	0.29768	0.3735	1.137	0.1335	0	169	437	3
2026-02-12	15:02:38.010	13.755	-0.49	-4.13	0.103212	-0.859612	0.364292	0.3735	1.137	0.1335	0	165	400	3
2026-02-12	15:02:38.030	4.305	0.175	-4.795	0.114924	-0.920124	0.350384	0.378	1.14	0.1245	0	165	400	3
2026-02-12	15:02:38.050	6.02	1.75	-3.78	0.112484	-1.062864	0.308416	0.3735	1.143	0.129	0	165	400	3
2026-02-12	15:02:38.070	23.415	1.155	-2.905	0.0976	-0.962824	0.281088	0.3735	1.158	0.129	0	165	400	3
2026-02-12	15:02:38.090	27.195	-0.84	-3.92	0.128588	-0.903532	0.354532	0.372	1.146	0.1245	0	165	400	3
2026-02-12	15:02:38.110	16.66	0.175	-3.045	0.1464	-0.893284	0.389668	0.3735	1.1385	0.1185	0	165	400	3
2026-02-12	15:02:38.130	2.695	1.33	-2.1	0.123708	-0.90402	0.375028	0.3735	1.14	0.117	0	165	400	3
2026-02-12	15:02:38.150	-1.505	1.75	-2.03	0.101504	-0.928176	0.321104	0.3705	1.14	0.1125	0	165	400	3
2026-02-12	15:02:38.170	3.71	0.175	-2.03	0.096136	-0.971608	0.31354	0.369	1.1415	0.1095	0	165	400	3
2026-02-12	15:02:38.190	10.185	-1.855	-0.77	0.116632	-0.925004	0.371612	0.3675	1.1385	0.114	0	165	400	3
2026-02-12	15:02:38.210	5.495	-2.24	-0.77	0.116144	-0.890844	0.390156	0.3705	1.14	0.1125	0	157	377	2
2026-02-12	15:02:38.230	-2.8	-1.085	-0.805	0.12688	-0.910608	0.380396	0.366	1.137	0.1155	0	157	377	2
2026-02-12	15:02:38.250	-5.145	0.175	-1.225	0.095892	-0.913048	0.3294	0.3645	1.137	0.1125	0	157	377	2
2026-02-12	15:02:38.270	-3.5	-1.365	-2.205	0.092964	-0.983076	0.299388	0.369	1.143	0.114	0	157	377	2
2026-02-12	15:02:38.290	5.6	-3.57	-2.345	0.124928	-0.947696	0.343552	0.3735	1.1415	0.114	0	157	377	2
2026-02-12	15:02:38.310	4.795	-2.765	-1.54	0.129808	-0.946232	0.354776	0.3735	1.14	0.117	0	157	377	2
2026-02-12	15:02:38.330	2.52	-1.82	0.035	0.124928	-0.95282	0.359656	0.3705	1.1415	0.117	0	157	377	2
2026-02-12	15:02:38.350	-2.66	0.63	0.315	0.109556	-0.824476	0.404064	0.369	1.1445	0.1125	0	157	377	2
2026-02-12	15:02:38.370	-11.445	0.42	-0.525	0.121268	-0.94428	0.333792	0.3675	1.1445	0.111	0	157	377	2
2026-02-12	15:02:38.390	-9.065	-0.49	-0.07	0.101992	-1.019432	0.277184	0.3645	1.1415	0.1125	0	157	377	2
2026-02-12	15:02:38.410	3.99	-2.17	-1.925	0.109312	-1.003084	0.290848	0.369	1.14	0.1215	0	147	366	2
2026-02-12	15:02:38.430	15.505	-3.045	-3.57	0.116632	-0.953796	0.327692	0.369	1.146	0.12	0	147	366	2
2026-02-12	15:02:38.450	18.97	-3.5	-3.115	0.12566	-0.9211	0.359412	0.363	1.146	0.111	0	147	366	2
2026-02-12	15:02:38.470	17.395	-2.94	-2.835	0.11834	-0.899628	0.37088	0.3675	1.1445	0.111	0	147	366	2
2026-02-12	15:02:38.490	15.505	-3.185	-3.605	0.12932	-0.93818	0.360876	0.3735	1.143	0.1035	0	147	366	2
2026-02-12	15:02:38.510	15.435	-2.17	-3.745	0.138348	-0.903044	0.392108	0.3735	1.143	0.1035	0	147	366	2
2026-02-12	15:02:38.530	10.01	-0.84	-2.905	0.128588	-0.914756	0.391132	0.3675	1.143	0.1005	0	147	366	2
2026-02-12	15:02:38.550	5.6	-0.105	-2.8	0.118096	-0.911584	0.382348	0.3675	1.1415	0.099	0	147	366	2
2026-02-12	15:02:38.570	2.94	0.28	-3.5	0.12322	-0.908168	0.390156	0.3705	1.143	0.1005	0	147	366	2
2026-02-12	15:02:38.590	-1.26	0.91	-3.955	0.127612	-0.905484	0.385764	0.3675	1.146	0.102	0	147	366	2
2026-02-12	15:02:38.610	-2.765	0.035	-3.885	0.1281	-0.940132	0.35624	0.3705	1.137	0.102	0	136	362	2
2026-02-12	15:02:38.630	0.21	-0.28	-3.325	0.130296	-0.944524	0.3599	0.372	1.146	0.108	0	136	362	2
2026-02-12	15:02:38.650	2.17	0.035	-2.625	0.141032	-0.907924	0.397476	0.357	1.143	0.1035	0	136	362	2
2026-02-12	15:02:38.670	-2.1	1.19	-1.155	0.132004	-0.911584	0.385764	0.3705	1.146	0.0975	0	136	362	2
2026-02-12	15:02:38.690	-3.78	1.05	-0.56	0.12322	-0.939156	0.35624	0.363	1.1385	0.0975	0	136	362	2
2026-02-12	15:02:38.710	1.225	-0.07	-1.05	0.122	-0.946232	0.355264	0.366	1.146	0.1125	0	136	362	2
2026-02-12	15:02:38.730	6.09	-0.525	-0.77	0.12566	-0.919392	0.37454	0.366	1.143	0.1095	0	136	362	2
2026-02-12	15:02:38.750	3.92	-0.14	-0.805	0.129564	-0.879864	0.404308	0.3675	1.1385	0.105	0	136	362	2
2026-02-12	15:02:38.770	-2.24	0.455	-1.225	0.138348	-0.904508	0.395524	0.363	1.137	0.099	0	136	362	2
2026-02-12	15:02:38.790	-5.775	1.225	-1.785	0.1342	-0.910608	0.39162	0.3615	1.137	0.102	0	136	362	2
2026-02-12	15:02:38.810	-9.345	2.03	-1.575	0.134932	-0.918172	0.38552	0.366	1.1355	0.1065	0	125	365	2
2026-02-12	15:02:38.830	-11.445	1.995	-1.75	0.1342	-0.93208	0.368196	0.3645	1.152	0.105	0	125	365	2
2026-02-12	15:02:38.850	-10.92	2.065	-1.505	0.131272	-0.914268	0.380396	0.3615	1.1445	0.1095	0	125	365	2
2026-02-12	15:02:38.870	-12.74	3.36	-0.84	0.120048	-0.913292	0.405528	0.357	1.1445	0.114	0	125	365	2
2026-02-12	15:02:38.890	-17.605	6.02	0	0.164944	-0.928908	0.44042	0.3735	1.1505	0.108	0	125	365	2
2026-02-12	15:02:38.910	-27.265	11.48	2.66	0.125904	-0.891576	0.410408	0.369	1.1325	0.1185	0	125	365	2
2026-02-12	15:02:38.930	-24.36	11.025	1.33	0.136152	-1.105564	0.267424	0.3705	1.149	0.1065	0	125	365	2
2026-02-12	15:02:38.950	-13.93	10.955	4.445	0.110776	-1.039684	0.229604	0.372	1.146	0.1125	0	125	365	2
2026-02-12	15:02:38.970	-8.47	9.415	6.58	0.060024	-0.970388	0.273036	0.3705	1.146	0.1215	0	125	365	2
2026-02-12	15:02:38.990	-19.285	4.69	8.54	0.087108	-0.943304	0.2928	0.3615	1.143	0.1215	0	125	365	2
2026-02-12	15:02:39.010	-24.29	-0.875	4.655	0.136884	-0.99064	0.366976	0.363	1.1415	0.1215	0	114	368	2
2026-02-12	15:02:39.030	-11.515	-1.435	5.005	0.175436	-0.947452	0.27816	0.369	1.1445	0.126	0	114	368	2
2026-02-12	15:02:39.050	-19.39	-2.065	7.315	0.142984	-1.033828	0.284748	0.3645	1.143	0.1245	0	114	368	2
2026-02-12	15:02:39.070	-20.51	-3.745	10.535	0.096136	-1.058716	0.302316	0.375	1.1475	0.1365	0	114	368	2
2026-02-12	15:02:39.090	-10.815	-4.97	10.325	0.12932	-0.909144	0.346724	0.378	1.146	0.1395	0	114	368	2
2026-02-12	15:02:39.110	1.015	-1.68	6.405	0.179828	-0.881572	0.365756	0.3765	1.1505	0.1335	0	114	368	2
2026-02-12	15:02:39.130	10.08	4.235	6.965	0.165432	-1.020164	0.443836	0.384	1.158	0.138	0	114	368	2
2026-02-12	15:02:39.150	24.115	11.41	9.555	0.065148	-1.062376	0.287432	0.384	1.158	0.138	0	114	368	2
2026-02-12	15:02:39.170	54.495	13.965	9.45	0.011956	-1.048224	0.145668	0.381	1.152	0.132	0	114	368	2
2026-02-12	15:02:39.190	80.01	12.04	7.56	0.021472	-0.835944	0.258884	0.3795	1.1475	0.1215	0	114	368	2
2026-02-12	15:02:39.210	62.895	7.875	7.7	0.051972	-0.832528	0.345016	0.384	1.146	0.108	0	105	364	3
2026-02-12	15:02:39.230	29.015	3.78	8.995	0.039528	-0.86864	0.31232	0.3855	1.143	0.096	0	105	364	3
2026-02-12	15:02:39.250	7.98	-1.435	8.89	0.02196	-0.872056	0.186416	0.3825	1.143	0.093	0	105	364	3
2026-02-12	15:02:39.270	6.65	-9.835	7.105	0.045628	-0.909632	0.247416	0.3795	1.1445	0.0915	0	105	364	3
2026-02-12	15:02:39.290	16.94	-12.355	5.915	0.106384	-0.95038	0.4026	0.39	1.143	0.102	0	105	364	3
2026-02-12	15:02:39.310	33.95	-9.625	2.695	0.107604	-0.938668	0.45384	0.387	1.1445	0.0945	0	105	364	3
2026-02-12	15:02:39.330	42.665	-4.375	2.345	0.105652	-0.94916	0.564128	0.393	1.149	0.0825	0	105	364	3
2026-02-12	15:02:39.350	43.47	3.5	3.325	0.108336	-0.984052	0.548512	0.3945	1.14	0.084	0	105	364	3
2026-02-12	15:02:39.370	66.01	9.31	1.785	0.108824	-0.915244	0.453108	0.3975	1.14	0.072	0	105	364	3
2026-02-12	15:02:39.390	69.335	12.215	0.84	0.096136	-0.720288	0.47336	0.3975	1.1385	0.0525	0	105	364	3
2026-02-12	15:02:37.410	-0.945	-5.775	-1.19	0.103456	-0.8662	0.409188	0.378	1.152	0.1275	0	161	559	1
2026-02-12	15:02:37.430	-15.155	-4.76	1.68	0.111508	-0.979904	0.337208	0.3795	1.146	0.1215	0	161	559	1
2026-02-12	15:02:37.450	0.91	-3.605	0.245	0.109556	-0.964532	0.325008	0.378	1.1445	0.1245	0	161	559	1
2026-02-12	15:02:37.470	10.43	-2.45	-0.56	0.11834	-0.91622	0.319884	0.381	1.1415	0.132	0	161	559	1
2026-02-12	15:02:37.490	8.68	-2.03	-1.12	0.122732	-0.900848	0.312564	0.3765	1.1415	0.1305	0	161	559	1
2026-02-12	15:02:37.510	-14.49	0.105	1.26	0.143716	-0.921588	0.383812	0.3675	1.143	0.1245	0	161	559	1
2026-02-12	15:02:37.530	-36.925	4.41	3.5	0.143228	-0.974048	0.367464	0.381	1.143	0.132	0	161	559	1
2026-02-12	15:02:37.550	-33.88	8.575	2.345	0.121024	-0.959896	0.314516	0.381	1.1445	0.135	0	161	559	1
2026-02-12	15:02:37.570	-10.815	8.785	0.14	0.044164	-1.00894	0.214232	0.3825	1.146	0.135	0	161	559	1
2026-02-12	15:02:37.590	9.135	4.76	-2.03	0.037332	-0.99064	0.20862	0.369	1.1445	0.138	0	161	559	1
2026-02-12	15:02:37.610	20.615	-0.63	-2.905	0.08295999	-0.959896	0.284504	0.3675	1.14	0.1365	0	167	489	1
2026-02-12	15:02:37.630	4.655	-2.24	-0.595	0.091256	-0.897676	0.37576	0.381	1.1445	0.1305	0	167	489	1
2026-02-12	15:02:37.650	-5.25	-1.05	-1.82	0.142008	-0.933788	0.322568	0.372	1.1385	0.1365	0	167	489	1
2026-02-12	15:02:37.670	2.135	1.05	-1.785	0.127368	-0.921588	0.361608	0.3705	1.143	0.135	0	167	489	1
2026-02-12	15:02:37.690	-3.71	1.645	-0.49	0.092476	-0.947208	0.306708	0.3735	1.143	0.1365	0	167	489	1
2026-02-12	15:02:37.710	-12.635	0.77	-1.05	0.100284	-0.93208	0.298412	0.3795	1.1415	0.1395	0	167	489	1
2026-02-12	15:02:37.730	-15.575	0.35	-1.89	0.116876	-0.98332	0.29402	0.3825	1.1445	0.138	0	167	489	1
2026-02-12	15:02:37.750	-6.86	1.19	-1.96	0.099308	-0.971364	0.27328	0.381	1.146	0.1425	0	167	489	1
2026-02-12	15:02:37.770	3.325	1.085	-3.36	0.079788	-0.943792	0.266692	0.3795	1.1415	0.138	0	167	489	1
2026-02-12	15:02:37.790	6.16	0.14	-4.445	0.09272	-0.903776	0.289384	0.3855	1.1385	0.1455	0	167	489	1
2026-02-12	15:02:37.810	-1.96	0.28	-4.935	0.116632	-0.950868	0.334036	0.378	1.146	0.1335	0	169	437	3
2026-02-12	15:02:37.830	-6.965	1.12	-3.15	0.095648	-0.976	0.317932	0.3735	1.1355	0.1365	0	169	437	3
2026-02-12	15:02:37.850	-2.94	-0.385	-3.92	0.117364	-1.020652	0.288164	0.3795	1.146	0.141	0	169	437	3
2026-02-12	15:02:37.870	1.855	2.695	-1.575	0.116388	-0.987468	0.247416	0.3795	1.146	0.141	0	169	437	3
2026-02-12	15:02:37.890	12.845	3.43	-2.135	0.127612	-0.968924	0.32818	0.378	1.1445	0.141	0	169	437	3
2026-02-12	15:02:37.910	15.365	6.755	-1.26	0.141764	-0.949404	0.369904	0.3735	1.146	0.1365	0	169	437	3
2026-02-12	15:02:37.930	2.73	8.12	0.035	0.104432	-0.894504	0.264496	0.372	1.1445	0.1335	0	169	437	3
2026-02-12	15:02:37.950	-5.81	5.425	-0.315	0.084668	-0.951844	0.202276	0.3735	1.1415	0.1335	0	169	437	3
2026-02-12	15:02:37.970	4.62	2.59	-2.03	0.089792	-1.021384	0.235948	0.3765	1.1385	0.1365	0	169	437	3
2026-02-12	15:02:37.990	18.795	0.98	-2.73	0.088572	-0.954528	0.29768	0.3735	1.137	0.1335	0	169	437	3
2026-02-12	15:02:38.010	13.755	-0.49	-4.13	0.103212	-0.859612	0.364292	0.3735	1.137	0.1335	0	165	400	3
2026-02-12	15:02:38.030	4.305	0.175	-4.795	0.114924	-0.920124	0.350384	0.378	1.14	0.1245	0	165	400	3
2026-02-12	15:02:38.050	6.02	1.75	-3.78	0.112484	-1.062864	0.308416	0.3735	1.143	0.129	0	165	400	3
2026-02-12	15:02:38.070	23.415	1.155	-2.905	0.0976	-0.962824	0.281088	0.3735	1.158	0.129	0	165	400	3
2026-02-12	15:02:38.090	27.195	-0.84	-3.92	0.128588	-0.903532	0.354532	0.372	1.146	0.1245	0	165	400	3
2026-02-12	15:02:38.110	16.66	0.175	-3.045	0.1464	-0.893284	0.389668	0.3735	1.1385	0.1185	0	165	400	3
2026-02-12	15:02:38.130	2.695	1.33	-2.1	0.123708	-0.90402	0.375028	0.3735	1.14	0.117	0	165	400	3
2026-02-12	15:02:38.150	-1.505	1.75	-2.03	0.101504	-0.928176	0.321104	0.3705	1.14	0.1125	0	165	400	3
2026-02-12	15:02:38.170	3.71	0.175	-2.03	0.096136	-0.971608	0.31354	0.369	1.1415	0.1095	0	165	400	3
2026-02-12	15:02:38.190	10.185	-1.855	-0.77	0.116632	-0.925004	0.371612	0.3675	1.1385	0.114	0	165	400	3
2026-02-12	15:02:38.210	5.495	-2.24	-0.77	0.116144	-0.890844	0.390156	0.3705	1.14	0.1125	0	157	377	2
2026-02-12	15:02:38.230	-2.8	-1.085	-0.805	0.12688	-0.910608	0.380396	0.366	1.137	0.1155	0	157	377	2
2026-02-12	15:02:38.250	-5.145	0.175	-1.225	0.095892	-0.913048	0.3294	0.3645	1.137	0.1125	0	157	377	2
2026-02-12	15:02:38.270	-3.5	-1.365	-2.205	0.092964	-0.983076	0.299388	0.369	1.143	0.114	0	157	377	2
2026-02-12	15:02:38.290	5.6	-3.57	-2.345	0.124928	-0.947696	0.343552	0.3735	1.1415	0.114	0	157	377	2
2026-02-12	15:02:38.310	4.795	-2.765	-1.54	0.129808	-0.946232	0.354776	0.3735	1.14	0.117	0	157	377	2
2026-02-12	15:02:38.330	2.52	-1.82	0.035	0.124928	-0.95282	0.359656	0.3705	1.1415	0.117	0	157	377	2
2026-02-12	15:02:38.350	-2.66	0.63	0.315	0.109556	-0.824476	0.404064	0.369	1.1445	0.1125	0	157	377	2
2026-02-12	15:02:38.370	-11.445	0.42	-0.525	0.121268	-0.94428	0.333792	0.3675	1.1445	0.111	0	157	377	2
2026-02-12	15:02:38.390	-9.065	-0.49	-0.07	0.101992	-1.019432	0.277184	0.3645	1.1415	0.1125	0	157	377	2
2026-02-12	15:02:38.410	3.99	-2.17	-1.925	0.109312	-1.003084	0.290848	0.369	1.14	0.1215	0	147	366	2
2026-02-12	15:02:38.430	15.505	-3.045	-3.57	0.116632	-0.953796	0.327692	0.369	1.146	0.12	0	147	366	2
2026-02-12	15:02:38.450	18.97	-3.5	-3.115	0.12566	-0.9211	0.359412	0.363	1.146	0.111	0	147	366	2
2026-02-12	15:02:38.470	17.395	-2.94	-2.835	0.11834	-0.899628	0.37088	0.3675	1.1445	0.111	0	147	366	2
2026-02-12	15:02:38.490	15.505	-3.185	-3.605	0.12932	-0.93818	0.360876	0.3735	1.143	0.1035	0	147	366	2
2026-02-12	15:02:38.510	15.435	-2.17	-3.745	0.138348	-0.903044	0.392108	0.3735	1.143	0.1035	0	147	366	2
2026-02-12	15:02:38.530	10.01	-0.84	-2.905	0.128588	-0.914756	0.391132	0.3675	1.143	0.1005	0	147	366	2
2026-02-12	15:02:38.550	5.6	-0.105	-2.8	0.118096	-0.911584	0.382348	0.3675	1.1415	0.099	0	147	366	2
2026-02-12	15:02:38.570	2.94	0.28	-3.5	0.12322	-0.908168	0.390156	0.3705	1.143	0.1005	0	147	366	2
2026-02-12	15:02:38.590	-1.26	0.91	-3.955	0.127612	-0.905484	0.385764	0.3675	1.146	0.102	0	147	366	2
2026-02-12	15:02:58.610	116.585	-14.14	90.545	0.598044	-0.518988	0.04026	0.222	1.038	0.174	0	408	170	3
2026-02-12	15:02:58.630	142.345	-17.325	72.485	0.633424	-0.486536	0.061732	0.2385	1.0545	0.15	0	408	170	3
2026-02-12	15:02:58.650	165.83	-20.405	50.435	0.699792	-0.444568	0.082472	0.2445	1.0545	0.138	0	408	170	3
2026-02-12	15:02:58.670	176.575	-24.64	30.835	0.679784	-0.333548	0.070516	0.2505	1.0575	0.1185	0	408	170	3
2026-02-12	15:02:58.690	172.445	-37.8	8.33	0.772504	-0.274744	0.083204	0.2505	1.062	0.0975	0	408	170	3
2026-02-12	15:02:58.710	165.34	-53.55	-18.305	0.938424	-0.248636	0.131272	0.2535	1.0695	0.081	0	408	170	3
2026-02-12	15:02:58.730	154.98	-67.095	-43.435	1.044076	-0.213988	0.147132	0.2535	1.062	0.0645	0	408	170	3
2026-02-12	15:02:58.750	137.34	-81.165	-63.175	1.10898	-0.166896	0.13054	0.2475	1.0455	0.045	0	408	170	3
2026-02-12	15:02:58.770	110.915	-101.325	-85.645	1.244888	-0.140544	0.123464	0.237	1.0365	0.0345	0	408	170	3
2026-02-12	15:02:58.790	92.12	-116.935	-106.785	1.372012	-0.135176	0.162504	0.228	1.032	0.0345	0	408	170	3
2026-02-12	15:02:58.810	85.925	-121.17	-119.91	1.43838	-0.135176	0.166652	0.1965	0.999	0.033	0	397	163	3
2026-02-12	15:02:58.830	82.495	-121.205	-127.89	1.4945	-0.136884	0.132736	0.1785	0.9885	0.0375	0	397	163	3
2026-02-12	15:02:58.850	80.64	-118.65	-130.095	1.493036	-0.116632	0.094428	0.1545	0.969	0.033	0	397	163	3
2026-02-12	15:02:58.870	77.7	-112.42	-126.805	1.426912	-0.015128	0.12444	0.1485	0.9645	0.0405	0	397	163	3
2026-02-12	15:02:58.890	71.925	-100.065	-120.505	1.347856	0.00976	0.122	0.135	0.9465	0.051	0	397	163	3
2026-02-12	15:02:58.910	73.29	-84.035	-111.86	1.269044	0.033428	0.10004	0.1185	0.924	0.057	0	397	163	3
2026-02-12	15:02:58.930	69.58	-70.35	-101.255	1.22488	0.076372	0.107848	0.102	0.9105	0.0615	0	397	163	3
2026-02-12	15:02:58.950	51.73	-56.105	-89.075	1.147532	0.060268	0.123952	0.0915	0.894	0.0675	0	397	163	3
2026-02-12	15:02:58.970	35.35	-43.12	-77.7	1.075064	0.082716	0.145912	0.0825	0.879	0.075	0	397	163	3
2026-02-12	15:02:58.990	6.265	-31.115	-67.76	1.055056	0.12078	0.159332	0.0765	0.873	0.0795	0	397	163	3
2026-02-12	15:02:59.010	-33.46	-18.83	-60.375	1.087508	0.072224	0.172508	0.0765	0.873	0.0795	0	387	152	3
2026-02-12	15:02:59.030	-63.98	-7.42	-52.885	1.054568	0.0183	0.123464	0.063	0.843	0.087	0	387	152	3
2026-02-12	15:02:59.050	-83.825	-0.14	-44.31	0.959896	0.069296	0.104432	0.0645	0.8475	0.0795	0	387	152	3
2026-02-12	15:02:59.070	-116.83	3.22	-36.505	0.91622	0.066368	0.1281	0.0645	0.8265	0.0855	0	387	152	3
2026-02-12	15:02:59.090	-144.655	4.725	-24.71	0.819352	0.018544	0.21838	0.0585	0.8265	0.093	0	387	152	3
2026-02-12	15:02:59.110	-172.83	10.29	-19.145	0.775676	0.052704	0.243024	0.057	0.8265	0.1005	0	387	152	3
2026-02-12	15:02:59.130	-177.275	18.2	-16.52	0.746152	-0.03172	0.2074	0.063	0.8265	0.1005	0	387	152	3
2026-02-12	15:02:59.150	-167.615	23.695	-15.715	0.710284	-0.039772	0.18544	0.0585	0.8235	0.108	0	387	152	3
2026-02-12	15:02:59.170	-155.855	30.625	-14.735	0.656604	-0.06222	0.160308	0.054	0.8265	0.1185	0	387	152	3
2026-02-12	15:02:59.190	-149.38	34.02	-12.355	0.658312	-0.13298	0.113948	0.054	0.8235	0.1215	0	387	152	3
2026-02-12	15:02:59.210	-116.375	37.24	-9.555	0.665388	-0.2074	0.073444	0.0525	0.816	0.12	0	376	146	3
2026-02-12	15:02:59.230	-87.815	36.645	-8.47	0.691008	-0.171288	0.06832	0.0555	0.8175	0.1275	0	376	146	3
2026-02-12	15:02:59.250	-67.165	33.915	-7.07	0.73566	-0.138592	0.064172	0.045	0.8205	0.1335	0	376	146	3
2026-02-12	15:02:59.270	-57.19	30.87	-6.3	0.748836	-0.118584	0.068808	0.063	0.8175	0.1215	0	376	146	3
2026-02-12	15:02:59.290	-51.38	25.865	-7.455	0.786412	-0.12932	0.127368	0.0555	0.8175	0.12	0	376	146	3
2026-02-12	15:02:59.310	-38.08	22.4	-11.445	0.872544	-0.16592	0.230824	0.051	0.819	0.117	0	376	146	3
2026-02-12	15:02:59.330	-17.185	21.42	-16.45	0.962092	-0.146156	0.285724	0.051	0.8145	0.1155	0	376	146	3
2026-02-12	15:02:59.350	-8.96	18.76	-18.305	1.000888	-0.107848	0.275232	0.0465	0.813	0.117	0	376	146	3
2026-02-12	15:02:59.370	-16.835	12.74	-16.59	1.00284	-0.106872	0.263764	0.042	0.8145	0.1095	0	376	146	3
2026-02-12	15:02:59.390	-25.375	2.555	-14.14	1.028216	-0.119316	0.30378	0.0435	0.813	0.1065	0	376	146	3
2026-02-12	15:02:59.410	-28.84	-9.94	-11.06	1.013088	-0.118096	0.342576	0.0465	0.8085	0.1125	0	364	149	3
2026-02-12	15:02:59.430	-34.51	-25.83	-7.28	0.991128	-0.08052	0.356728	0.048	0.807	0.1125	0	364	149	3
2026-02-12	15:02:59.450	-36.19	-40.18	-5.95	1.042124	-0.177144	0.383812	0.0465	0.7995	0.1215	0	364	149	3
2026-02-12	15:02:59.470	-19.285	-51.94	-6.265	1.150948	-0.275232	0.442128	0.048	0.801	0.132	0	364	149	3
2026-02-12	15:02:59.490	10.01	-57.61	-7.49	1.246352	-0.298412	0.506788	0.042	0.801	0.1335	0	364	149	3
2026-02-12	15:02:59.510	42.07	-55.265	-7.035	1.275388	-0.269132	0.505568	0.042	0.8025	0.1395	0	364	149	3
2026-02-12	15:02:59.530	71.295	-44.905	-2.275	1.229516	-0.24766	0.481412	0.042	0.801	0.1455	0	364	149	3
2026-02-12	15:02:59.550	98.105	-29.085	6.02	1.163636	-0.238144	0.443836	0.042	0.798	0.156	0	364	149	3
2026-02-12	15:02:59.570	112.98	-11.375	17.325	1.094096	-0.19398	0.385032	0.051	0.8025	0.159	0	364	149	3
2026-02-12	15:02:59.590	108.255	4.095	29.96	1.059692	-0.163236	0.31842	0.0525	0.804	0.15	0	364	149	3
2026-02-12	15:02:59.610	94.43	16.625	39.97	1.123132	-0.157868	0.305488	0.048	0.8055	0.144	0	351	177	3
2026-02-12	15:02:59.630	78.47	34.16	49.63	1.217804	-0.14518	0.298412	0.0495	0.8115	0.141	0	351	177	3
2026-02-12	15:02:59.650	48.685	53.025	59.99	1.206092	-0.076128	0.22936	0.0495	0.8115	0.141	0	351	177	3
2026-02-12	15:02:59.670	15.75	64.295	67.48	1.189744	-0.08418	0.190076	0.057	0.8325	0.114	0	351	177	3
2026-02-12	15:02:59.690	-9.31	72.065	71.89	1.203408	-0.121268	0.210084	0.06	0.852	0.1035	0	351	177	3
2026-02-12	15:02:59.710	-27.755	79.275	77.735	1.179496	-0.15738	0.264008	0.0615	0.8565	0.099	0	351	177	3
2026-02-12	15:02:59.730	-45.395	89.635	89.25	1.057252	-0.189344	0.279136	0.0675	0.864	0.093	0	351	177	3
2026-02-12	15:02:59.750	-47.565	92.4	97.055	0.989176	-0.157868	0.22448	0.075	0.8775	0.084	0	351	177	3
2026-02-12	15:02:59.770	-44.24	88.795	99.575	0.930128	-0.125416	0.178364	0.0825	0.8955	0.066	0	351	177	3
2026-02-12	15:02:59.790	-33.635	85.54	100.765	0.812276	-0.244244	0.160552	0.093	0.909	0.057	0	351	177	3
2026-02-12	15:02:59.810	-2.24	72.8	101.115	0.754448	-0.29036	0.170556	0.105	0.927	0.0525	0	337	211	3
2026-02-12	15:02:59.830	21.49	59.5	98.14	0.7686	-0.280356	0.187392	0.117	0.9405	0.0435	0	337	211	3
2026-02-12	15:02:59.850	17.745	41.3	87.78	0.762744	-0.256444	0.20374	0.126	0.9435	0.042	0	337	211	3
2026-02-12	15:02:59.870	3.64	30.17	78.61	0.702476	-0.271328	0.205936	0.1425	0.966	0.0195	0	337	211	3
2026-02-12	15:02:59.890	-5.775	18.935	69.825	0.6405	-0.299144	0.210816	0.1695	0.981	0.0195	0	337	211	3
2026-02-12	15:02:59.910	-7.735	7.455	61.88	0.619028	-0.360388	0.252052	0.168	0.9795	0.0195	0	337	211	3
2026-02-12	15:02:59.930	-2.45	-2.59	54.705	0.650504	-0.390888	0.310856	0.171	0.987	0.015	0	337	211	3
2026-02-12	15:02:59.950	8.925	-10.535	45.885	0.732	-0.41724	0.346236	0.177	0.9975	0.0105	0	337	211	3
2026-02-12	15:02:59.970	22.47	-16.275	35.21	0.779336	-0.426512	0.332084	0.1815	1.005	0.012	0	337	211	3
2026-02-12	15:02:59.990	33.355	-21.42	25.515	0.759572	-0.452132	0.281332	0.186	1.011	0.015	0	337	211	3
2026-02-12	15:03:00.010	63.595	-34.405	9.24	0.874252	-0.488	0.261812	0.189	1.011	0.015	0	323	231	3
2026-02-12	15:03:00.030	86.66	-41.335	-1.68	0.941596	-0.447008	0.28182	0.186	1.0095	0.0105	0	323	231	3
2026-02-12	15:03:00.050	111.755	-50.89	-18.375	1.022848	-0.395036	0.305244	0.1845	1.0095	0.006	0	323	231	3
2026-02-12	15:03:00.070	125.93	-58.765	-32.165	1.081408	-0.341356	0.322568	0.1845	1.0125	0.006	0	323	231	3
2026-02-12	15:03:00.090	132.755	-64.19	-40.74	1.15534	-0.2867	0.324032	0.18	0.9885	-0.0045	0	323	231	3
2026-02-12	15:03:00.110	129.08	-67.83	-47.74	1.190232	-0.225212	0.306952	0.165	0.981	-0.0165	0	323	231	3
2026-02-12	15:03:00.130	117.39	-70.455	-51.52	1.172908	-0.186416	0.297924	0.159	0.9735	-0.021	0	323	231	3
2026-02-12	15:03:00.150	104.405	-74.585	-53.165	1.179008	-0.15372	0.265472	0.15	0.9585	-0.0285	0	323	231	3
2026-02-12	15:03:00.170	85.4	-79.45	-52.605	1.153876	-0.12078	0.233996	0.1395	0.9435	-0.0255	0	323	231	3
2026-02-12	15:03:00.190	65.45	-84.455	-49.7	1.06384	-0.13298	0.221796	0.132	0.9345	-0.021	0	323	231	3
2026-02-12	15:03:00.210	57.82	-90.545	-46.9	1.056032	-0.07905599	0.265716	0.1245	0.924	-0.0165	0	310	245	3
2026-02-12	15:03:00.230	50.855	-86.835	-47.215	1.081164	0.23546	0.401868	0.1155	0.9135	-0.0105	0	310	245	3
2026-02-12	15:03:00.250	-10.395	-79.03	-52.255	1.017968	0.484584	0.469212	0.1065	0.909	-0.009	0	310	245	3
2026-02-12	15:03:00.270	-115.955	-68.635	-49.14	1.07482	0.20252	0.371124	0.099	0.9075	-0.009	0	310	245	3
2026-02-12	15:03:00.290	-150.185	-43.54	-53.06	1.247328	-0.010736	0.28426	0.099	0.9075	-0.009	0	310	245	3
2026-02-12	15:03:00.310	-148.855	-14.455	-52.36	1.203652	-0.016104	0.111996	0.075	0.8925	0.045	0	310	245	3
2026-02-12	15:03:00.330	-146.405	7.525	-48.16	1.050176	0.02074	-0.008052	0.078	0.8925	0.0615	0	310	245	3
2026-02-12	15:03:00.350	-124.705	17.22	-44.975	1.020652	-0.04026	0.018056	0.072	0.8895	0.066	0	310	245	3
2026-02-12	15:03:00.370	-86.03	24.15	-41.685	1.023336	-0.126636	0.09394	0.069	0.8865	0.0735	0	310	245	3
2026-02-12	15:03:00.390	-41.09	29.96	-35.63	0.988932	-0.155428	0.147864	0.066	0.8835	0.075	0	310	245	3
2026-02-12	15:03:00.410	1.645	34.825	-30.03	0.949648	-0.172752	0.260348	0.06	0.879	0.0765	0	301	253	3
2026-02-12	15:03:00.430	57.085	46.69	-27.685	0.92964	-0.138836	0.43676	0.0615	0.8745	0.075	0	301	253	3
2026-02-12	15:03:00.450	100.31	63.175	-30.345	0.811788	0.07124799	0.407968	0.063	0.867	0.0615	0	301	253	3
2026-02-12	15:03:00.470	86.73	68.145	-34.195	0.640988	0.198128	0.32818	0.0645	0.858	0.045	0	301	253	3
2026-02-12	15:03:00.490	40.6	60.235	-35.175	0.581696	0.084424	0.360876	0.0645	0.8535	0.0405	0	301	253	3
2026-02-12	15:03:00.510	21.245	56.245	-32.9	0.5917	0.059048	0.366732	0.063	0.8475	0.0105	0	301	253	3
2026-02-12	15:03:00.530	2.765	54.39	-28	0.60634	0.094184	0.377468	0.066	0.8445	-0.0015	0	301	253	3
2026-02-12	15:03:00.550	-23.065	55.195	-21.28	0.651724	0.109068	0.357216	0.0645	0.837	-0.003	0	301	253	3
2026-02-12	15:03:00.570	-54.81	59.08	-12.95	0.65026	0.102236	0.291824	0.066	0.834	-0.0075	0	301	253	3
2026-02-12	15:03:00.590	-80.605	61.845	-5.95	0.680516	0.081252	0.225212	0.069	0.8385	-0.015	0	301	253	3
2026-02-12	15:03:00.610	-99.015	61.075	-1.12	0.724436	0.06954	0.154452	0.0705	0.84	-0.021	0	295	258	3
2026-02-12	15:03:00.630	-113.225	56.42	3.29	0.752984	0.059048	0.15006	0.072	0.843	-0.0255	0	295	258	3
2026-02-12	15:03:00.650	-117.46	48.685	5.11	0.819108	0.019764	0.198616	0.0765	0.846	-0.027	0	295	258	3
2026-02-12	15:03:00.670	-111.615	39.97	4.655	0.857172	-0.008296	0.260104	0.084	0.852	-0.0255	0	295	258	3
2026-02-12	15:03:00.690	-90.755	25.935	-0.595	0.905972	-0.043676	0.344528	0.087	0.8625	-0.024	0	295	258	3
2026-02-12	15:03:00.710	-56.595	9.835	-8.33	0.930616	-0.083204	0.432124	0.087	0.867	-0.0225	0	295	258	3
2026-02-12	15:03:00.730	-27.58	-5.005	-13.195	0.896212	-0.059292	0.471896	0.0915	0.876	-0.0195	0	295	258	3
2026-02-12	15:03:00.750	-0.77	-20.79	-18.2	0.853756	-0.018544	0.485316	0.0855	0.8625	-0.018	0	295	258	3
2026-02-12	15:03:00.770	24.255	-36.225	-23.345	0.830088	-0.011468	0.497028	0.084	0.867	-0.0165	0	295	258	3
2026-02-12	15:03:00.790	48.475	-49.21	-24.5	0.823012	-0.011224	0.512888	0.081	0.8655	-0.015	0	295	258	3
2026-02-12	15:03:00.810	69.3	-61.11	-23.87	0.88328	0.017324	0.551928	0.0765	0.8595	-0.0105	0	290	271	3
2026-02-12	15:03:00.830	88.165	-67.235	-25.655	0.96746	0.055144	0.610976	0.0705	0.858	-0.0045	0	290	271	3
2026-02-12	15:03:00.850	97.825	-71.225	-31.185	1.080432	0.080032	0.597312	0.0675	0.852	0.0015	0	290	271	3
2026-02-12	15:03:00.870	88.06	-76.685	-35.49	1.183156	0.047824	0.50752	0.066	0.8445	0.006	0	290	271	3
2026-02-12	15:03:00.890	60.795	-80.85	-34.23	1.197552	-0.017568	0.39406	0.057	0.834	0.012	0	290	271	3
2026-02-12	15:03:00.910	39.41	-85.015	-32.165	1.262944	-0.073444	0.34526	0.0495	0.825	0.0195	0	290	271	3
2026-02-12	15:03:00.930	39.27	-83.79	-31.85	1.362496	-0.01708	0.454816	0.0495	0.825	0.0195	0	290	271	3
2026-02-12	15:03:00.950	32.97	-70.77	-29.19	1.28832	0.011468	0.5368	0.048	0.807	0.048	0	290	271	3
2026-02-12	15:03:00.970	19.32	-52.43	-21.28	1.132404	-0.018056	0.51728	0.045	0.8055	0.066	0	290	271	3
2026-02-12	15:03:00.990	19.18	-38.29	-13.23	1.11264	-0.059536	0.427488	0.039	0.8025	0.0645	0	290	271	3
2026-02-12	15:03:01.010	21.525	-25.27	-5.425	1.118496	-0.074664	0.323056	0.0345	0.7995	0.066	0	285	303	3
2026-02-12	15:03:01.030	16.555	-13.405	2.835	1.155584	-0.093208	0.242292	0.033	0.798	0.0765	0	285	303	3
2026-02-12	15:03:01.050	7.56	-2.555	11.34	1.174128	-0.100772	0.202276	0.03	0.7965	0.0795	0	285	303	3
2026-02-12	15:03:01.070	-3.99	9.03	22.19	1.085312	-0.09882	0.19764	0.03	0.8025	0.072	0	285	303	3
2026-02-12	15:03:01.090	-14.945	18.305	33.88	0.994544	-0.078812	0.205936	0.0315	0.807	0.0735	0	285	303	3
2026-02-12	15:03:01.110	-26.285	25.305	43.925	0.91256	-0.066368	0.20862	0.033	0.8145	0.0735	0	285	303	3
2026-02-12	15:03:01.130	-41.965	30.94	56.63	0.81984	-0.080032	0.204472	0.033	0.825	0.0705	0	285	303	3
2026-02-12	15:03:01.150	-37.17	33.18	62.93	0.78568	-0.158844	0.187148	0.045	0.834	0.0705	0	285	303	3
2026-02-12	15:03:01.170	-9.8	34.65	65.275	0.797148	-0.1708	0.198616	0.0495	0.8445	0.0585	0	285	303	3
2026-02-12	15:03:01.190	8.085	35.91	65.03	0.77104	-0.12932	0.198616	0.051	0.8535	0.0555	0	285	303	3
2026-02-12	15:03:01.210	10.22	37.345	65.135	0.704916	-0.13542	0.196664	0.0555	0.867	0.0555	0	281	322	3
2026-02-12	15:03:01.230	8.505	35.98	64.505	0.664656	-0.145424	0.18666	0.06	0.87	0.051	0	281	322	3
2026-02-12	15:03:01.250	8.295	32.795	62.3	0.650504	-0.12688	0.187636	0.069	0.879	0.042	0	281	322	3
2026-02-12	15:03:01.270	5.565	28.63	58.905	0.655384	-0.091012	0.179828	0.0765	0.891	0.036	0	281	322	3
2026-02-12	15:03:01.290	-2.625	23.835	54.285	0.684908	-0.08052	0.175924	0.0855	0.8985	0.0345	0	281	322	3
2026-02-12	15:03:01.310	-15.365	18.515	49.175	0.72956	-0.091988	0.173728	0.093	0.903	0.0285	0	281	322	3
2026-02-12	15:03:01.330	-28.945	13.02	44.275	0.766648	-0.124196	0.168604	0.096	0.912	0.0225	0	281	322	3
2026-02-12	15:03:01.350	-41.44	2.485	35.7	0.81984	-0.16714	0.163236	0.099	0.9195	0.0225	0	281	322	3
2026-02-12	15:03:01.370	-39.725	-6.265	28.035	0.91134	-0.197396	0.17324	0.102	0.9315	0.0255	0	281	322	3
2026-02-12	15:03:01.390	-30.135	-13.86	18.83	0.993812	-0.228384	0.1891	0.102	0.936	0.033	0	281	322	3
2026-02-12	15:03:01.410	-15.715	-19.18	10.92	1.022848	-0.25864	0.19764	0.1065	0.9375	0.0405	0	276	313	3
2026-02-12	15:03:01.430	4.9	-24.955	4.13	1.042856	-0.267424	0.20862	0.1095	0.945	0.048	0	276	313	3
2026-02-12	15:03:01.450	31.185	-29.05	-3.22	1.07238	-0.26718	0.251076	0.1035	0.945	0.051	0	276	313	3
2026-02-12	15:03:01.470	58.625	-30.625	-9.765	1.07726	-0.228384	0.2867	0.1095	0.9405	0.048	0	276	313	3
2026-02-12	15:03:01.490	78.4	-29.995	-13.51	1.040172	-0.195688	0.280844	0.114	0.9375	0.0435	0	276	313	3
2026-02-12	15:03:01.510	90.265	-30.24	-16.065	1.00894	-0.170312	0.269376	0.1065	0.9375	0.039	0	276	313	3
2026-02-12	15:03:01.530	99.12	-30.94	-18.515	0.99674	-0.151036	0.28426	0.102	0.9375	0.0375	0	276	313	3
2026-02-12	15:03:01.550	107.205	-30.765	-21.455	0.994544	-0.11102	0.314028	0.1005	0.9315	0.0405	0	276	313	3
2026-02-12	15:03:01.570	110.075	-29.155	-25.025	1.024068	-0.066612	0.343552	0.1005	0.9315	0.0405	0	276	313	3
2026-02-12	15:03:01.590	104.475	-26.215	-28.07	1.027972	-0.0549	0.345992	0.0915	0.909	0.0255	0	276	313	3
2026-02-12	15:03:01.610	98.84	-23.835	-32.025	1.093608	-0.047092	0.361608	0.0915	0.903	0.021	0	271	294	3
2026-02-12	15:03:01.630	95.865	-20.44	-38.5	1.199992	-0.022448	0.367464	0.0885	0.894	0.015	0	271	294	3
2026-02-12	15:03:01.650	83.125	-17.08	-45.01	1.27978	0.003416	0.32574	0.081	0.885	0.0105	0	271	294	3
2026-02-12	15:03:01.670	58.24	-14.91	-49.63	1.279536	-0.018544	0.288896	0.078	0.8775	0.0015	0	271	294	3
2026-02-12	15:03:01.690	37.275	-10.22	-50.645	1.144848	-0.074908	0.294752	0.0795	0.867	-0.0015	0	271	294	3
2026-02-12	15:03:01.710	31.535	-4.725	-46.375	0.954284	-0.09394	0.334036	0.0765	0.861	0.003	0	271	294	3
2026-02-12	15:03:01.730	35.525	0.28	-36.645	0.832528	-0.097112	0.3538	0.0705	0.855	0.003	0	271	294	3
2026-02-12	15:03:01.750	46.305	3.605	-24.325	0.822768	-0.087352	0.347212	0.072	0.8475	0	0	271	294	3
2026-02-12	15:03:01.770	68.11	6.685	-7.805	0.905728	-0.046604	0.327692	0.075	0.846	-0.003	0	271	294	3
2026-02-12	15:03:01.790	78.68	9.065	0.945	0.949892	-0.033428	0.31598	0.075	0.846	-0.003	0	271	294	3
2026-02-12	15:03:01.810	84.14	11.41	6.51	1.0065	-0.040504	0.296704	0.075	0.8295	-0.0135	0	263	288	3
2026-02-12	15:03:01.830	84.56	14.42	8.05	1.057984	-0.0305	0.285236	0.0735	0.825	-0.015	0	263	288	3
2026-02-12	15:03:01.850	76.195	18.69	7.175	1.074332	-0.023912	0.284504	0.072	0.8205	-0.027	0	263	288	3
2026-02-12	15:03:01.870	60.375	24.465	6.475	1.014796	-0.03782	0.280112	0.075	0.8205	-0.0375	0	263	288	3
2026-02-12	15:03:01.890	46.48	28.56	6.405	0.96502	-0.049044	0.27084	0.0795	0.825	-0.042	0	263	288	3
2026-02-12	15:03:01.910	35.77	30.87	7.56	0.936472	-0.051728	0.2562	0.0795	0.822	-0.0465	0	263	288	3
2026-02-12	15:03:01.930	26.145	30.975	10.185	0.918416	-0.057584	0.230824	0.0825	0.8205	-0.051	0	263	288	3
2026-02-12	15:03:01.950	18.935	28.98	13.44	0.901092	-0.0793	0.205204	0.087	0.8235	-0.066	0	263	288	3
2026-02-12	15:03:01.970	17.465	25.095	16.835	0.906948	-0.097112	0.188856	0.09	0.819	-0.075	0	263	288	3
2026-02-12	15:03:01.990	22.505	17.325	19.74	0.935252	-0.10004	0.193736	0.0915	0.8145	-0.0705	0	263	288	3
2026-02-12	15:03:02.010	27.405	13.02	20.79	0.94672	-0.103212	0.217648	0.093	0.8205	-0.075	0	253	287	3
2026-02-12	15:03:02.030	33.6	9.835	20.825	0.958676	-0.114192	0.251808	0.099	0.8295	-0.0825	0	253	287	3
2026-02-12	15:03:02.050	42.035	8.575	21.07	0.942816	-0.13298	0.282796	0.099	0.8235	-0.084	0	253	287	3
2026-02-12	15:03:02.070	52.57	8.05	21.735	0.943304	-0.124684	0.27938	0.099	0.822	-0.087	0	253	287	3
2026-02-12	15:03:02.090	58.485	7.665	22.925	0.899872	-0.11834	0.226188	0.099	0.825	-0.0885	0	253	287	3
2026-02-12	15:03:02.110	62.86	4.795	24.78	0.876204	-0.12566	0.186416	0.1035	0.8205	-0.096	0	253	287	3
2026-02-12	15:03:02.130	72.1	0.175	26.355	0.871568	-0.13054	0.179828	0.108	0.8175	-0.1005	0	253	287	3
2026-02-12	15:03:02.150	86.45	-3.955	27.545	0.878888	-0.12322	0.210328	0.1065	0.8145	-0.1035	0	253	287	3
2026-02-12	15:03:02.170	101.395	-5.845	28.98	0.89792	-0.105164	0.264984	0.1095	0.813	-0.1095	0	253	287	3
2026-02-12	15:03:02.190	118.125	-2.94	31.045	0.937692	-0.081008	0.294996	0.1155	0.8115	-0.1095	0	253	287	3
2026-02-12	15:03:02.210	126.035	3.57	33.95	0.933544	-0.045384	0.26596	0.1155	0.8115	-0.1095	0	239	282	2
2026-02-12	15:03:02.230	119.175	7.49	36.995	0.932568	-0.023424	0.229604	0.1125	0.798	-0.1335	0	239	282	2
2026-02-12	15:03:02.250	104.755	9.45	38.99	0.927444	-0.000244	0.194468	0.117	0.792	-0.132	0	239	282	2
2026-02-12	15:03:02.270	86.03	9.345	39.62	0.930128	0.018056	0.186904	0.1215	0.7845	-0.1335	0	239	282	2
2026-02-12	15:03:02.290	66.395	7.875	39.34	0.924272	0.01952	0.199348	0.123	0.7815	-0.144	0	239	282	2
2026-02-12	15:03:02.310	49	5.565	38.255	0.925492	0.006344	0.221796	0.126	0.7785	-0.147	0	239	282	2
2026-02-12	15:03:02.330	35.455	2.45	35.595	0.943304	-0.00244	0.241804	0.1275	0.7785	-0.147	0	239	282	2
2026-02-12	15:03:02.350	23.38	-0.805	31.955	0.959652	-0.018544	0.241316	0.1275	0.7785	-0.1455	0	239	282	2
2026-02-12	15:03:02.370	13.23	-5.705	28.14	0.98454	-0.04758	0.230092	0.129	0.7785	-0.144	0	239	282	2
2026-02-12	15:03:02.390	8.12	-12.88	23.31	1.04798	-0.069784	0.227408	0.1305	0.7845	-0.1485	0	239	282	2
2026-02-12	15:03:02.410	12.6	-22.33	15.12	1.08702	-0.099552	0.262056	0.132	0.7875	-0.153	0	223	273	2
2026-02-12	15:03:02.430	21.665	-27.51	10.185	1.12118	-0.098332	0.275964	0.132	0.7935	-0.1455	0	223	273	2
2026-02-12	15:03:02.450	30.87	-30.695	5.6	1.134844	-0.10248	0.267424	0.1275	0.7875	-0.135	0	223	273	2
2026-02-12	15:03:02.470	39.935	-32.76	2.835	1.129232	-0.105408	0.263276	0.1245	0.7845	-0.1395	0	223	273	2
2026-02-12	15:03:02.490	49.91	-32.9	1.75	1.147776	-0.10614	0.276696	0.12	0.78	-0.141	0	223	273	2
2026-02-12	15:03:02.510	61.74	-28.315	3.325	1.127768	-0.09076799	0.301584	0.1155	0.7755	-0.1365	0	223	273	2
2026-02-12	15:03:02.530	70.245	-19.985	7.595	1.093364	-0.050752	0.289872	0.1125	0.768	-0.138	0	223	273	2
2026-02-12	15:03:02.550	66.22	-11.095	14.7	1.030168	-0.017812	0.242536	0.1125	0.7635	-0.1395	0	223	273	2
2026-02-12	15:03:02.570	54.285	-4.2	23.17	0.982344	0.006832	0.202276	0.111	0.7605	-0.138	0	223	273	2
2026-02-12	15:03:02.590	39.83	-0.595	30.135	0.966972	0.007564	0.15982	0.111	0.7545	-0.135	0	223	273	2
2026-02-12	15:03:02.610	27.755	0.14	35.35	0.973072	-0.010248	0.1403	0.114	0.7545	-0.135	0	207	264	3
2026-02-12	15:03:02.630	18.06	-0.945	38.325	0.979172	-0.017568	0.147132	0.1155	0.759	-0.1395	0	207	264	3
2026-02-12	15:03:02.650	13.125	-3.29	37.94	1.004792	-0.042944	0.154696	0.105	0.771	-0.138	0	207	264	3
2026-02-12	15:03:02.670	11.27	-4.76	36.26	1.00772	-0.073932	0.155184	0.111	0.7725	-0.1395	0	207	264	3
2026-02-12	15:03:02.690	13.72	-6.37	34.16	1.029436	-0.107604	0.156648	0.1125	0.771	-0.1395	0	207	264	3
2026-02-12	15:03:02.710	17.325	-6.58	32.83	1.024556	-0.122732	0.155916	0.111	0.7725	-0.138	0	207	264	3
2026-02-12	15:03:02.730	20.335	-6.825	33.18	1.003572	-0.13298	0.144692	0.1155	0.7755	-0.138	0	207	264	3
2026-02-12	15:03:02.750	25.795	-8.715	34.475	1.012844	-0.12566	0.134444	0.114	0.7815	-0.1395	0	207	264	3
2026-02-12	15:03:02.770	31.92	-9.31	36.61	0.9882	-0.126636	0.125172	0.1125	0.792	-0.141	0	207	264	3
2026-02-12	15:03:02.790	38.92	-9.835	40.495	0.941596	-0.121268	0.104188	0.1185	0.795	-0.1395	0	207	264	3
2026-02-12	15:03:02.810	46.13	-11.27	45.255	0.9211	-0.120292	0.07515199	0.1185	0.795	-0.141	0	191	248	3
2026-02-12	15:03:02.830	53.69	-14.49	50.68	0.920124	-0.115656	0.043432	0.114	0.795	-0.1455	0	191	248	3
2026-02-12	15:03:02.850	58.8	-18.935	54.25	0.91744	-0.134444	0.029768	0.114	0.795	-0.1455	0	191	248	3
2026-02-12	15:03:02.870	63.56	-23.135	54.635	0.920612	-0.138348	0.037332	0.1125	0.798	-0.138	0	191	248	3
2026-02-12	15:03:02.890	71.505	-26.565	51.94	0.964776	-0.15006	0.056608	0.114	0.7965	-0.138	0	191	248	3
2026-02-12	15:03:02.910	80.29	-27.685	45.99	1.035536	-0.150304	0.070028	0.1155	0.7965	-0.1335	0	191	248	3
2026-02-12	15:03:02.930	84.735	-24.92	38.395	1.038952	-0.1647	0.072956	0.1125	0.795	-0.129	0	191	248	3
2026-02-12	15:03:02.950	87.5	-21.595	31.5	1.018456	-0.182512	0.058072	0.1095	0.7905	-0.135	0	191	248	3
2026-02-12	15:03:02.970	88.76	-19.74	24.885	1.014308	-0.182024	0.04026	0.111	0.7965	-0.141	0	191	248	3
2026-02-12	15:03:02.990	88.06	-18.095	19.04	1.024312	-0.171044	0.033428	0.111	0.795	-0.1395	0	191	248	3
2026-02-12	15:03:03.010	84.49	-16.87	15.295	1.04554	-0.156892	0.029524	0.1095	0.783	-0.141	0	178	219	3
2026-02-12	15:03:03.030	78.4	-16.205	13.58	1.060424	-0.144692	0.035136	0.1065	0.777	-0.144	0	178	219	3
2026-02-12	15:03:03.050	66.15	-16.17	12.565	1.047248	-0.120292	0.056608	0.105	0.7755	-0.1425	0	178	219	3
2026-02-12	15:03:03.070	57.05	-17.605	11.165	1.07116	-0.126148	0.0671	0.1035	0.7605	-0.135	0	178	219	3
2026-02-12	15:03:03.090	48.79	-19.565	8.68	1.109956	-0.13542	0.075884	0.102	0.759	-0.135	0	178	219	3
2026-02-12	15:03:03.110	42.245	-20.86	6.23	1.13094	-0.140544	0.0854	0.102	0.7605	-0.135	0	178	219	3
2026-02-12	15:03:03.130	38.535	-21.7	3.955	1.111176	-0.132492	0.08686399	0.1005	0.765	-0.135	0	178	219	3
2026-02-12	15:03:03.150	35.7	-23.135	1.575	1.083848	-0.115412	0.091256	0.0975	0.759	-0.1335	0	178	219	3
2026-02-12	15:03:03.170	31.045	-26.285	-2.765	1.104832	-0.100528	0.083204	0.0975	0.7515	-0.1305	0	178	219	3
2026-02-12	15:03:03.190	25.06	-29.47	-9.31	1.131916	-0.11102	0.073444	0.096	0.7515	-0.129	0	178	219	3
2026-02-12	15:03:03.210	20.09	-33.32	-17.255	1.157292	-0.109068	0.060512	0.0885	0.7455	-0.123	0	167	182	2
2026-02-12	15:03:03.230	14.245	-38.64	-26.985	1.177056	-0.100528	0.064172	0.0825	0.741	-0.123	0	167	182	2
2026-02-12	15:03:03.250	9.765	-45.92	-43.155	1.258796	-0.108336	0.088572	0.0825	0.7395	-0.1185	0	167	182	2
2026-02-12	15:03:03.270	7.98	-51.73	-62.23	1.350784	-0.059292	0.0854	0.0825	0.741	-0.114	0	167	182	2
2026-02-12	15:03:03.290	-8.82	-55.825	-79.275	1.280024	0.07442	0.021716	0.066	0.726	-0.1035	0	167	182	2
2026-02-12	15:03:03.310	-33.6	-62.825	-95.165	1.241716	0.048312	0.029524	0.066	0.7185	-0.102	0	167	182	2
2026-02-12	15:03:03.330	-29.645	-65.765	-106.26	1.358348	-0.17202	0.138348	0.0615	0.7065	-0.0915	0	167	182	2
2026-02-12	15:03:03.350	14	-53.235	-105.84	1.390312	-0.288408	0.246928	0.048	0.69	-0.075	0	167	182	2
2026-02-12	15:03:03.370	69.65	-30.555	-92.505	1.307352	-0.177144	0.238388	0.042	0.672	-0.0675	0	167	182	2
2026-02-12	15:03:03.390	99.855	-8.19	-72.31	1.239032	-0.015372	0.148352	0.0405	0.6585	-0.063	0	167	182	2
2026-02-12	15:03:03.410	105.07	12.95	-52.255	1.18706	0.1159	0.04392	0.039	0.639	-0.06	0	160	152	3
2026-02-12	15:03:03.430	92.05	31.185	-33.95	1.132648	0.239364	-0.054168	0.048	0.624	-0.066	0	160	152	3
2026-02-12	15:03:03.450	53.375	45.92	-17.185	1.020896	0.338916	-0.121024	0.051	0.618	-0.0735	0	160	152	3
2026-02-12	15:03:03.470	-22.12	57.4	-0.56	0.9089	0.349652	-0.118828	0.0465	0.615	-0.0735	0	160	152	3
2026-02-12	15:03:03.490	-98.42	65.38	10.955	0.8296	0.264252	-0.04026	0.0465	0.615	-0.0735	0	160	152	3
2026-02-12	15:03:03.510	-146.755	71.82	20.72	0.781532	0.172264	0.030744	0.048	0.624	-0.1035	0	160	152	3
2026-02-12	15:03:03.530	-186.69	77.455	31.5	0.75884	0.15372	0.04758	0.054	0.633	-0.105	0	160	152	3
2026-02-12	15:03:03.550	-221.025	83.055	40.6	0.707844	0.126636	0.039528	0.063	0.6495	-0.12	0	160	152	3
2026-02-12	15:03:03.570	-237.895	87.01	47.81	0.661972	0.017812	0.04392	0.075	0.6735	-0.138	0	160	152	3
2026-02-12	15:03:03.590	-228.69	89.495	54.145	0.678808	-0.106384	0.059048	0.087	0.7005	-0.1485	0	160	152	3
2026-02-12	15:03:03.610	-198.905	92.96	58.765	0.71614	-0.194712	0.061732	0.096	0.729	-0.1545	0	159	126	3
2026-02-12	15:03:03.630	-156.31	95.515	59.255	0.743224	-0.194224	0.071004	0.1065	0.7575	-0.165	0	159	126	3
2026-02-12	15:03:03.650	-118.58	95.62	56.035	0.75152	-0.16348	0.06832	0.1155	0.783	-0.171	0	159	126	3
2026-02-12	15:03:03.670	-82.005	93.905	49.49	0.742248	-0.182756	0.124928	0.1275	0.8025	-0.1755	0	159	126	3
2026-02-12	15:03:03.690	-15.715	92.085	33.495	0.719312	-0.135176	0.183244	0.135	0.8085	-0.1815	0	159	126	3
2026-02-12	15:03:03.710	3.08	84.98	21.315	0.662216	-0.093208	0.163968	0.1605	0.8265	-0.2025	0	159	126	3
2026-02-12	15:03:03.730	6.65	71.61	7.91	0.616344	-0.074908	0.173728	0.168	0.8295	-0.2025	0	159	126	3
2026-02-12	15:03:03.750	9.87	55.02	-6.825	0.621956	-0.0488	0.247172	0.183	0.8325	-0.213	0	159	126	3
2026-02-12	15:03:03.770	15.715	39.375	-22.225	0.6344	-0.01342	0.2989	0.192	0.8295	-0.2205	0	159	126	3
2026-02-12	15:03:03.790	14.35	22.365	-35.385	0.658556	0.027572	0.30988	0.1935	0.828	-0.2235	0	159	126	3
2026-02-12	15:03:03.810	2.625	4.655	-44.625	0.689056	0.021716	0.317688	0.198	0.822	-0.2295	0	166	114	3
2026-02-12	15:03:03.830	-9.975	-12.705	-51.695	0.736392	-0.011712	0.33916	0.201	0.816	-0.2295	0	166	114	3
2026-02-12	15:03:03.850	-15.925	-28.42	-57.75	0.80276	-0.061	0.374784	0.198	0.81	-0.2265	0	166	114	3
2026-02-12	15:03:03.870	-15.085	-40.39	-61.495	0.868884	-0.0854	0.388692	0.189	0.8025	-0.219	0	166	114	3
2026-02-12	15:03:03.890	-12.915	-51.275	-62.65	0.904264	-0.079788	0.364048	0.18	0.8025	-0.2145	0	166	114	3
2026-02-12	15:03:03.910	-7.14	-59.08	-61.18	0.919392	-0.116144	0.335988	0.1785	0.804	-0.213	0	166	114	3
2026-02-12	15:03:03.930	3.675	-63.84	-58.695	0.953552	-0.14518	0.322812	0.159	0.78	-0.201	0	166	114	3
2026-02-12	15:03:03.950	18.27	-68.18	-55.195	1.027972	-0.175192	0.333792	0.153	0.777	-0.1965	0	166	114	3
2026-02-12	15:03:03.970	34.09	-71.015	-50.96	1.103124	-0.152744	0.374052	0.1425	0.7755	-0.1935	0	166	114	3
2026-02-12	15:03:03.990	48.405	-69.86	-46.095	1.1346	-0.099552	0.422852	0.132	0.768	-0.189	0	166	114	3
2026-02-12	15:03:04.010	57.855	-64.015	-39.06	1.126792	-0.043676	0.434564	0.1275	0.762	-0.1845	0	178	137	3
2026-02-12	15:03:04.030	53.375	-60.515	-34.44	1.120204	-0.0183	0.418216	0.1125	0.7485	-0.174	0	178	137	3
2026-02-12	15:03:04.050	37.8	-57.085	-29.05	1.126304	0.002684	0.410164	0.102	0.7305	-0.1635	0	178	137	3
2026-02-12	15:03:04.070	17.185	-54.635	-25.48	1.16754	0.017568	0.403088	0.1005	0.723	-0.156	0	178	137	3
2026-02-12	15:03:04.090	-4.725	-51.695	-22.19	1.199504	0.020984	0.390156	0.0915	0.7185	-0.1515	0	178	137	3
2026-02-12	15:03:04.110	-28.735	-47.915	-18.48	1.223904	-0.007564	0.369172	0.09	0.7155	-0.1515	0	178	137	3
2026-02-12	15:03:04.130	-41.16	-43.4	-15.715	1.250256	-0.04148	0.372832	0.09	0.7155	-0.1515	0	178	137	3
2026-02-12	15:03:04.150	-41.055	-38.29	-13.58	1.302228	-0.053924	0.386008	0.0825	0.7155	-0.1395	0	178	137	3
2026-02-12	15:03:04.170	-39.165	-30.73	-10.605	1.332972	-0.045872	0.371368	0.0705	0.7125	-0.123	0	178	137	3
2026-02-12	15:03:04.190	-40.46	-22.225	-5.74	1.305156	-0.050508	0.343308	0.0645	0.7125	-0.114	0	178	137	3
2026-02-12	15:03:04.210	-40.845	-14.805	0.945	1.245864	-0.066856	0.30866	0.066	0.717	-0.111	0	190	186	3
2026-02-12	15:03:04.230	-38.15	-8.855	9.17	1.181448	-0.062464	0.286944	0.072	0.726	-0.108	0	190	186	3
2026-02-12	15:03:04.250	-33.215	-3.36	18.48	1.10898	-0.06222	0.282796	0.0705	0.729	-0.105	0	190	186	3
2026-02-12	15:03:04.270	-25.2	0.98	27.265	1.072624	-0.053436	0.286456	0.066	0.735	-0.1035	0	190	186	3
2026-02-12	15:03:04.290	-16.765	4.725	33.705	1.090192	-0.037576	0.289628	0.06	0.7455	-0.1005	0	190	186	3
2026-02-12	15:03:04.310	-15.4	9.205	37.835	1.099708	-0.033428	0.257908	0.0585	0.7515	-0.1005	0	190	186	3
2026-02-12	15:03:04.330	-20.37	14.84	41.23	1.039928	-0.071736	0.217404	0.063	0.756	-0.102	0	190	186	3
2026-02-12	15:03:04.350	-20.685	16.695	41.44	1.029192	-0.08906	0.196664	0.066	0.7725	-0.108	0	190	186	3
2026-02-12	15:03:04.370	-19.18	18.515	40.88	1.01992	-0.096136	0.177388	0.0675	0.771	-0.1095	0	190	186	3
2026-02-12	15:03:04.390	-19.285	19.845	40.39	0.970144	-0.09394	0.146644	0.072	0.777	-0.1065	0	190	186	3
2026-02-12	15:03:04.410	-23.275	19.88	40.88	0.881572	-0.104676	0.111996	0.0765	0.789	-0.108	0	201	226	3
2026-02-12	15:03:04.430	-24.115	16.45	40.32	0.829356	-0.125904	0.099064	0.078	0.801	-0.114	0	201	226	3
2026-02-12	15:03:04.450	-18.515	11.69	37.45	0.839848	-0.169824	0.110044	0.078	0.804	-0.1125	0	201	226	3
2026-02-12	15:03:04.470	-6.195	9.275	34.58	0.863028	-0.22082	0.125904	0.0855	0.807	-0.1155	0	201	226	3
2026-02-12	15:03:04.490	9.1	8.47	32.795	0.849364	-0.238632	0.124196	0.0915	0.813	-0.117	0	201	226	3
2026-02-12	15:03:04.510	23.485	7.42	31.36	0.832284	-0.24156	0.10858	0.0915	0.8175	-0.114	0	201	226	3
2026-02-12	15:03:04.530	42.35	4.725	29.155	0.838628	-0.25864	0.092964	0.0915	0.825	-0.114	0	201	226	3
2026-02-12	15:03:04.550	64.4	0.07	26.845	0.876448	-0.254248	0.082228	0.0915	0.8295	-0.117	0	201	226	3
2026-02-12	15:03:04.570	80.29	-4.725	24.92	0.91866	-0.252052	0.09857599	0.09	0.831	-0.123	0	201	226	3
2026-02-12	15:03:04.590	95.935	-8.82	23.73	0.941352	-0.251564	0.125172	0.0945	0.8265	-0.1245	0	201	226	3
2026-02-12	15:03:04.610	112.49	-10.5	24.85	0.942816	-0.233264	0.15372	0.096	0.8205	-0.132	0	207	234	3
2026-02-12	15:03:04.630	126.385	-10.43	28.385	0.979416	-0.210572	0.148596	0.093	0.8175	-0.135	0	207	234	3
2026-02-12	15:03:04.650	131.11	-9.1	34.09	0.97478	-0.16836	0.111752	0.099	0.807	-0.132	0	207	234	3
2026-02-12	15:03:04.670	128.59	-10.36	38.605	0.981612	-0.142252	0.089792	0.099	0.798	-0.138	0	207	234	3
2026-02-12	15:03:04.690	126.665	-13.65	39.48	1.039684	-0.134444	0.111752	0.0975	0.7935	-0.1455	0	207	234	3
2026-02-12	15:03:04.710	127.12	-14.84	37.66	1.078724	-0.117852	0.136152	0.0975	0.792	-0.1515	0	207	234	3
2026-02-12	15:03:04.730	122.01	-13.58	35.455	1.037732	-0.096868	0.13664	0.099	0.7905	-0.156	0	207	234	3
2026-02-12	15:03:04.750	115.15	-15.61	31.01	1.060668	-0.096624	0.137616	0.102	0.7845	-0.153	0	207	234	3
2026-02-12	15:03:04.770	109.13	-17.36	22.995	1.11142	-0.087352	0.154208	0.1005	0.7725	-0.1545	0	207	234	3
2026-02-12	15:03:04.790	101.185	-17.29	15.89	1.11264	-0.087108	0.15372	0.1005	0.7605	-0.1575	0	207	234	3
2026-02-12	15:03:04.810	92.75	-17.85	10.325	1.147288	-0.080276	0.135908	0.102	0.7575	-0.1575	0	209	215	3
2026-02-12	15:03:04.830	82.915	-19.04	5.18	1.161196	-0.004148	0.075884	0.1005	0.7515	-0.1605	0	209	215	3
2026-02-12	15:03:04.850	51.73	-22.575	-1.505	1.11142	0.225456	-0.033916	0.099	0.741	-0.1575	0	209	215	3
2026-02-12	15:03:04.870	-23.415	-31.815	-12.075	1.0431	0.498248	-0.167872	0.093	0.732	-0.1545	0	209	215	3
2026-02-12	15:03:04.890	-127.54	-45.71	-24.745	0.977708	0.468724	-0.188856	0.087	0.732	-0.1515	0	209	215	3
2026-02-12	15:03:04.910	-187.88	-59.885	-38.92	1.047736	0.169824	-0.0427	0.0825	0.741	-0.1395	0	209	215	3
2026-02-12	15:03:04.930	-182.98	-60.27	-55.86	1.220488	-0.075884	0.127856	0.0765	0.75	-0.129	0	209	215	3
2026-02-12	15:03:04.950	-141.435	-45.185	-67.725	1.256844	-0.205204	0.144448	0.072	0.7545	-0.117	0	209	215	3
2026-02-12	15:03:04.970	-46.13	-22.435	-68.355	1.220244	-0.182024	0.045628	0.072	0.7575	-0.111	0	209	215	3
2026-02-12	15:03:04.990	31.045	-10.675	-64.33	1.205604	-0.07686	0.000244	0.0615	0.7575	-0.099	0	209	215	3
2026-02-12	15:03:05.010	102.725	-1.225	-58.205	1.190476	-0.027572	-0.040992	0.057	0.7515	-0.096	0	210	180	3
2026-02-12	15:03:05.030	171.885	8.68	-48.615	1.1407	0.059536	-0.032452	0.054	0.7395	-0.093	0	210	180	3
2026-02-12	15:03:05.050	213.57	16.905	-34.3	1.105564	0.208376	0.006344	0.0585	0.7215	-0.1005	0	210	180	3
2026-02-12	15:03:05.070	206.885	25.27	-19.565	1.045784	0.362096	0.047336	0.0615	0.696	-0.1095	0	210	180	3
2026-02-12	15:03:05.090	153.37	33.425	-8.645	0.946232	0.461892	0.088328	0.06	0.672	-0.1095	0	210	180	3
2026-02-12	15:03:05.110	69.755	38.64	-2.555	0.878888	0.47092	0.11102	0.063	0.657	-0.1155	0	210	180	3
2026-02-12	15:03:05.130	-18.655	43.19	0.175	0.837164	0.387472	0.131028	0.066	0.6525	-0.1215	0	210	180	3
2026-02-12	15:03:05.150	-89.6	48.195	0.665	0.836432	0.270108	0.151036	0.0705	0.651	-0.123	0	210	180	3
2026-02-12	15:03:05.170	-149.8	55.405	-0.77	0.833992	0.164456	0.142252	0.0795	0.66	-0.129	0	210	180	3
2026-02-12	15:03:05.190	-189.35	64.785	0.07	0.778848	0.030012	0.103456	0.0855	0.6705	-0.135	0	210	180	3
2026-02-12	15:03:05.210	-197.855	70.49	3.185	0.741028	-0.0854	0.055876	0.09	0.6975	-0.15	0	212	145	3
2026-02-12	15:03:05.230	-183.085	72.555	6.405	0.736148	-0.16592	0.036844	0.0945	0.7065	-0.1545	0	212	145	3
2026-02-12	15:03:05.250	-153.475	71.47	7	0.736392	-0.18056	0.044896	0.1035	0.7275	-0.1635	0	212	145	3
2026-02-12	15:03:05.270	-121.905	69.09	5.845	0.711748	-0.15372	0.06954	0.111	0.7485	-0.171	0	212	145	3
2026-02-12	15:03:05.290	-96.46	64.435	3.535	0.697596	-0.139568	0.10248	0.117	0.7635	-0.1725	0	212	145	3
2026-02-12	15:03:05.310	-73.325	58.38	-2.065	0.721508	-0.146644	0.149572	0.1245	0.771	-0.1785	0	212	145	3
2026-02-12	15:03:05.330	-55.16	52.64	-9.31	0.71858	-0.140056	0.191052	0.1365	0.777	-0.183	0	212	145	3
2026-02-12	15:03:05.350	-45.57	46.445	-16.52	0.70028	-0.127856	0.22326	0.141	0.786	-0.1875	0	212	145	3
2026-02-12	15:03:05.370	-43.75	38.92	-23.275	0.6893	-0.098332	0.242292	0.144	0.7905	-0.1935	0	212	145	3
2026-02-12	15:03:05.390	-52.465	26.145	-31.255	0.67954	-0.077104	0.234728	0.1485	0.7905	-0.1935	0	212	145	3
2026-02-12	15:03:05.410	-68.32	10.01	-36.995	0.697108	-0.127612	0.24766	0.1485	0.7905	-0.1935	0	217	126	3
2026-02-12	15:03:05.430	-76.72	-4.095	-39.48	0.724436	-0.16836	0.293776	0.15	0.7905	-0.192	0	217	126	3
2026-02-12	15:03:05.450	-73.185	-16.625	-40.775	0.75762	-0.214232	0.3477	0.1455	0.7995	-0.1935	0	217	126	3
2026-02-12	15:03:05.470	-56.175	-27.72	-41.615	0.820328	-0.232044	0.3843	0.1425	0.8025	-0.189	0	217	126	3
2026-02-12	15:03:05.490	-31.64	-37.52	-42.91	0.92232	-0.216184	0.392352	0.1455	0.798	-0.183	0	217	126	3
2026-02-12	15:03:05.510	-0.385	-44.31	-43.75	1.034072	-0.235948	0.39406	0.141	0.7965	-0.1785	0	217	126	3
2026-02-12	15:03:05.530	36.085	-46.655	-40.775	1.1041	-0.229116	0.408456	0.1335	0.7935	-0.1755	0	217	126	3
2026-02-12	15:03:05.550	69.475	-45.115	-34.405	1.128988	-0.185196	0.418704	0.126	0.7845	-0.171	0	217	126	3
2026-02-12	15:03:05.570	91.42	-40.775	-25.165	1.11874	-0.11224	0.40992	0.117	0.7755	-0.1665	0	217	126	3
2026-02-12	15:03:05.590	94.885	-37.66	-15.505	1.118008	-0.027572	0.395036	0.111	0.7635	-0.1635	0	217	126	3
2026-02-12	15:03:05.610	68.46	-33.67	-2.065	1.101416	0.03904	0.377712	0.108	0.756	-0.1605	0	223	144	3
2026-02-12	15:03:05.630	41.405	-33.04	5.495	1.164368	0.024644	0.370392	0.1065	0.7455	-0.156	0	223	144	3
2026-02-12	15:03:05.650	17.01	-32.025	11.9	1.254892	0.001708	0.376248	0.1005	0.741	-0.153	0	223	144	3
2026-02-12	15:03:05.670	-4.48	-29.855	17.22	1.308328	-0.010492	0.382104	0.0945	0.7335	-0.1515	0	223	144	3
2026-02-12	15:03:05.690	-20.58	-26.18	21.77	1.321016	-0.038064	0.38918	0.096	0.738	-0.1515	0	223	144	3
2026-02-12	15:03:05.710	-27.09	-21.77	24.5	1.343708	-0.029768	0.42212	0.0945	0.75	-0.147	0	223	144	3
2026-02-12	15:03:05.730	-30.38	-16.52	25.725	1.341512	-0.00122	0.417484	0.087	0.7485	-0.1395	0	223	144	3
2026-02-12	15:03:05.750	-36.89	-12.145	27.02	1.306864	-0.014396	0.377468	0.081	0.753	-0.135	0	223	144	3
2026-02-12	15:03:05.770	-40.18	-8.26	26.985	1.279048	-0.006588	0.426268	0.0855	0.765	-0.1335	0	223	144	3
2026-02-12	15:03:05.790	-36.4	1.225	22.26	1.336144	0.028304	0.538752	0.084	0.774	-0.1305	0	223	144	3
2026-02-12	15:03:05.810	-43.085	19.95	17.99	1.181204	0.009272	0.441884	0.0825	0.7815	-0.132	0	231	192	3
2026-02-12	15:03:05.830	-64.89	28.77	19.32	1.016016	-0.088328	0.315736	0.087	0.786	-0.1335	0	231	192	3
2026-02-12	15:03:05.850	-66.29	28.665	19.565	0.966728	-0.139324	0.244976	0.093	0.7905	-0.132	0	231	192	3
2026-02-12	15:03:05.870	-55.125	24.465	18.9	0.969168	-0.148596	0.219112	0.1005	0.801	-0.132	0	231	192	3
2026-02-12	15:03:05.890	-43.855	20.195	19.6	0.974536	-0.164944	0.23546	0.105	0.8115	-0.132	0	231	192	3
2026-02-12	15:03:05.910	-33.11	17.815	21.875	0.955016	-0.1891	0.242292	0.1065	0.8175	-0.132	0	231	192	3
2026-02-12	15:03:05.930	-18.585	15.015	24.43	0.933056	-0.205936	0.241804	0.1035	0.822	-0.1305	0	231	192	3
2026-02-12	15:03:05.950	0.63	12.495	26.635	0.903532	-0.210816	0.25132	0.1065	0.831	-0.129	0	231	192	3
2026-02-12	15:03:05.970	19.565	10.57	29.435	0.864736	-0.203008	0.268644	0.1155	0.8355	-0.1335	0	231	192	3
2026-02-12	15:03:05.990	35.245	9.275	32.515	0.82594	-0.193248	0.262544	0.12	0.834	-0.1335	0	231	192	3
2026-02-12	15:03:06.010	49.385	6.86	35.77	0.779092	-0.176412	0.25132	0.1185	0.834	-0.132	0	239	236	3
2026-02-12	15:03:06.030	58.135	4.865	35.63	0.77836	-0.161284	0.23912	0.1215	0.8355	-0.1365	0	239	236	3
2026-02-12	15:03:06.050	63.735	4.025	34.23	0.742492	-0.173728	0.212524	0.126	0.8385	-0.144	0	239	236	3
2026-02-12	15:03:06.070	66.185	3.43	32.69	0.73322	-0.19154	0.185684	0.126	0.8325	-0.15	0	239	236	3
2026-02-12	15:03:06.090	69.965	2.03	29.68	0.75518	-0.2013	0.169336	0.1275	0.8295	-0.1545	0	239	236	3
2026-02-12	15:03:06.110	72.87	1.4	24.64	0.789584	-0.203984	0.171044	0.1335	0.831	-0.156	0	239	236	3
2026-02-12	15:03:06.130	75.915	2.345	19.635	0.808616	-0.214476	0.177876	0.138	0.8265	-0.1605	0	239	236	3
2026-02-12	15:03:06.150	79.345	3.745	15.54	0.810568	-0.215452	0.178852	0.1395	0.822	-0.165	0	239	236	3
2026-02-12	15:03:06.170	81.165	4.515	11.935	0.825696	-0.213988	0.163724	0.1395	0.8175	-0.174	0	239	236	3
2026-02-12	15:03:06.190	82.215	4.62	8.96	0.859856	-0.22326	0.155672	0.141	0.8145	-0.177	0	239	236	3
2026-02-12	15:03:06.210	79.73	3.885	7.105	0.8967	-0.209108	0.1464	0.1365	0.8055	-0.174	0	243	254	3
2026-02-12	15:03:06.230	72.94	2.415	6.09	0.920368	-0.21106	0.145668	0.1395	0.792	-0.1785	0	243	254	3
2026-02-12	15:03:06.250	61.985	-1.785	7.91	0.879132	-0.215696	0.129808	0.1455	0.7875	-0.1815	0	243	254	3
2026-02-12	15:03:06.270	58.135	-10.5	8.47	0.915	-0.21594	0.121512	0.153	0.7785	-0.1905	0	243	254	3
2026-02-12	15:03:06.290	57.89	-22.75	4.725	0.999424	-0.198128	0.1464	0.1455	0.774	-0.1875	0	243	254	3
2026-02-12	15:03:06.310	59.675	-36.12	-2.94	1.138992	-0.198372	0.21716	0.141	0.7725	-0.186	0	243	254	3
2026-02-12	15:03:06.330	64.68	-44.31	-11.13	1.248548	-0.19764	0.2928	0.1425	0.771	-0.1845	0	243	254	3
2026-02-12	15:03:06.350	69.23	-47.215	-15.89	1.266116	-0.197152	0.320372	0.1365	0.7605	-0.1785	0	243	254	3
2026-02-12	15:03:06.370	75.425	-49.595	-20.895	1.321992	-0.171044	0.320128	0.1275	0.7485	-0.1725	0	243	254	3
2026-02-12	15:03:06.390	76.265	-48.93	-25.095	1.33956	-0.126148	0.304512	0.12	0.741	-0.1725	0	243	254	3
2026-02-12	15:03:06.410	65.975	-46.41	-25.585	1.355664	-0.01464	0.22936	0.1155	0.7275	-0.165	0	244	247	3
2026-02-12	15:03:06.430	25.83	-48.475	-26.635	1.297348	0.2318	0.037088	0.108	0.717	-0.159	0	244	247	3
2026-02-12	15:03:06.450	-46.795	-59.08	-32.375	1.27978	0.404308	-0.058316	0.1035	0.714	-0.1545	0	244	247	3
2026-02-12	15:03:06.470	-122.01	-73.465	-44.66	1.409832	0.154208	0.112728	0.1005	0.7125	-0.141	0	244	247	3
2026-02-12	15:03:06.490	-114.52	-65.31	-47.74	1.382016	0.052948	0.255712	0.093	0.7155	-0.1275	0	244	247	3
2026-02-12	15:03:06.510	-92.015	-50.015	-42.84	1.2017	0.081496	0.260104	0.0825	0.72	-0.1155	0	244	247	3
2026-02-12	15:03:06.530	-64.365	-36.295	-35.63	1.061156	0.144936	0.210816	0.075	0.7215	-0.1095	0	244	247	3
2026-02-12	15:03:06.550	-32.655	-24.29	-29.365	1.015772	0.181292	0.186416	0.0765	0.7215	-0.111	0	244	247	3
2026-02-12	15:03:06.570	0.98	-9.87	-24.535	0.96746	0.189344	0.154452	0.0795	0.723	-0.108	0	244	247	3
2026-02-12	15:03:06.590	21.105	5.145	-19.67	0.896944	0.300608	0.09882	0.0765	0.7215	-0.099	0	244	247	3
2026-02-12	15:03:06.610	8.4	17.605	-16.03	0.81252	0.389912	0.021472	0.075	0.717	-0.0975	0	246	231	3
2026-02-12	15:03:06.630	-28.77	25.025	-15.855	0.74908	0.42212	-0.044408	0.0795	0.714	-0.1005	0	246	231	3
2026-02-12	15:03:06.650	-75.74	28.28	-18.865	0.706868	0.344284	-0.05246	0.0795	0.714	-0.105	0	246	231	3
2026-02-12	15:03:06.670	-118.195	29.54	-23.66	0.748836	0.243512	-0.0366	0.075	0.7155	-0.108	0	246	231	3
2026-02-12	15:03:06.690	-143.92	29.575	-28.98	0.765184	0.20496	-0.020496	0.081	0.717	-0.1125	0	246	231	3
2026-02-12	15:03:06.710	-150.675	27.23	-29.855	0.710284	0.12566	0.002684	0.0855	0.7275	-0.114	0	246	231	3
2026-02-12	15:03:06.730	-139.755	21.84	-28.56	0.711748	0.010736	0.054656	0.0825	0.738	-0.114	0	246	231	3
2026-02-12	15:03:06.750	-108.955	17.43	-28.28	0.740296	-0.055632	0.11224	0.084	0.744	-0.117	0	246	231	3
2026-02-12	15:03:06.770	-68.915	14.98	-27.65	0.714676	-0.049776	0.161284	0.087	0.7485	-0.1155	0	246	231	3
2026-02-12	15:03:06.790	-33.635	11.34	-25.76	0.720776	-0.02928	0.204716	0.0885	0.753	-0.108	0	246	231	3
2026-02-12	15:03:06.810	-0.945	8.89	-24.255	0.754448	-0.03904	0.2135	0.0915	0.756	-0.1125	0	251	203	3
2026-02-12	15:03:06.830	27.37	6.685	-23.625	0.780312	-0.026108	0.19276	0.0945	0.753	-0.117	0	251	203	3
2026-02-12	15:03:06.850	45.675	3.955	-23.135	0.774212	0.004636	0.182512	0.096	0.75	-0.114	0	251	203	3
2026-02-12	15:03:06.870	51.975	1.155	-22.61	0.798856	0.000732	0.195932	0.093	0.741	-0.114	0	251	203	3
2026-02-12	15:03:06.890	49.945	0.595	-21.455	0.852292	0.008296	0.205204	0.0915	0.7275	-0.1155	0	251	203	3
2026-02-12	15:03:06.910	36.085	2.275	-17.57	0.836432	0.036356	0.172752	0.0915	0.7185	-0.123	0	251	203	3
2026-02-12	15:03:06.930	16.17	1.96	-12.635	0.831552	0.048068	0.142496	0.093	0.7185	-0.129	0	251	203	3
2026-02-12	15:03:06.950	-3.465	-0.735	-8.575	0.862052	0.032452	0.142496	0.0855	0.7125	-0.123	0	251	203	3
2026-02-12	15:03:06.970	-17.08	-2.625	-5.74	0.87718	0.007076	0.183244	0.0825	0.711	-0.1185	0	251	203	3
2026-02-12	15:03:06.990	-26.18	-3.01	-1.925	0.865712	-0.008784	0.22448	0.087	0.7185	-0.123	0	251	203	3
2026-02-12	15:03:07.010	-30.765	-3.43	3.01	0.884256	-0.01586	0.258884	0.09	0.7185	-0.1275	0	254	182	3
2026-02-12	15:03:07.030	-31.115	-2.695	7.56	0.898652	-0.028548	0.29646	0.0885	0.723	-0.1215	0	254	182	3
2026-02-12	15:03:07.050	-26.915	-1.19	10.92	0.940376	-0.025132	0.339648	0.0855	0.7275	-0.117	0	254	182	3
2026-02-12	15:03:07.070	-24.57	0.245	13.545	1.026752	-0.00732	0.311588	0.084	0.729	-0.12	0	254	182	3
2026-02-12	15:03:07.090	-39.41	-2.03	18.41	1.160464	0.055388	0.29402	0.084	0.7305	-0.12	0	254	182	3
2026-02-12	15:03:07.110	-70.63	0.14	29.12	1.280756	0.091012	0.414312	0.0825	0.7335	-0.1155	0	254	182	3
2026-02-12	15:03:07.130	-86.625	3.85	39.165	1.226832	0.086132	0.389912	0.084	0.7425	-0.1155	0	254	182	3
2026-02-12	15:03:07.150	-94.045	1.155	45.815	1.18828	0.058072	0.364292	0.087	0.7545	-0.114	0	254	182	3
2026-02-12	15:03:07.170	-90.545	-4.375	46.585	1.16632	0.001952	0.36722	0.09	0.7665	-0.1125	0	254	182	3
2026-02-12	15:03:07.190	-76.37	-10.675	43.785	1.164368	-0.04148	0.354044	0.096	0.7785	-0.111	0	254	182	3
2026-02-12	15:03:07.210	-57.575	-15.575	38.64	1.167296	-0.083936	0.34526	0.099	0.792	-0.102	0	254	188	3
2026-02-12	15:03:07.230	-36.05	-18.935	31.85	1.187548	-0.101992	0.323544	0.096	0.8025	-0.0945	0	254	188	3
2026-02-12	15:03:07.250	-16.275	-22.155	23.555	1.221708	-0.115168	0.308172	0.0945	0.81	-0.0915	0	254	188	3
2026-02-12	15:03:07.270	-0.42	-23.52	15.925	1.198284	-0.126148	0.287432	0.0945	0.8175	-0.09	0	254	188	3
2026-02-12	15:03:07.290	13.65	-24.045	11.375	1.143872	-0.117364	0.273036	0.0945	0.8205	-0.087	0	254	188	3
2026-02-12	15:03:07.310	28.595	-21.035	11.375	1.057496	-0.144692	0.284504	0.0945	0.822	-0.084	0	254	188	3
2026-02-12	15:03:07.330	47.075	-14.595	14.42	0.984296	-0.185196	0.274012	0.09	0.8205	-0.081	0	254	188	3
2026-02-12	15:03:07.350	63.805	-9.415	16.975	1.055056	-0.169336	0.257664	0.0915	0.822	-0.0795	0	254	188	3
2026-02-12	15:03:07.370	69.02	0.28	20.055	1.068964	-0.152012	0.213256	0.096	0.822	-0.0855	0	254	188	3
2026-02-12	15:03:07.390	63.98	9.765	24.78	1.0309	-0.159576	0.16348	0.096	0.8175	-0.0885	0	254	188	3
2026-02-12	15:03:07.410	57.575	15.365	28.385	1.041392	-0.162504	0.139324	0.096	0.816	-0.09	0	251	210	3
2026-02-12	15:03:07.430	48.44	20.335	30.695	1.027972	-0.170068	0.149572	0.0975	0.813	-0.0945	0	251	210	3
2026-02-12	15:03:07.450	35.385	24.955	33.845	0.956236	-0.177876	0.160308	0.1005	0.81	-0.102	0	251	210	3
2026-02-12	15:03:07.470	22.05	25.48	37.765	0.919636	-0.205448	0.145912	0.1095	0.8145	-0.105	0	251	210	3
2026-02-12	15:03:07.490	14	21.49	40.11	0.950136	-0.251076	0.143228	0.1185	0.8145	-0.105	0	251	210	3
2026-02-12	15:03:07.510	11.76	17.08	39.795	0.98454	-0.26596	0.174216	0.123	0.8175	-0.108	0	251	210	3
2026-02-12	15:03:07.530	13.23	16.135	40.495	0.935252	-0.28914	0.206912	0.1215	0.828	-0.114	0	251	210	3
2026-02-12	15:03:07.550	18.515	16.345	42.21	0.894504	-0.29768	0.214476	0.1185	0.8325	-0.1185	0	251	210	3
2026-02-12	15:03:07.570	25.375	17.36	43.855	0.881084	-0.279868	0.224968	0.1215	0.834	-0.1155	0	251	210	3
2026-02-12	15:03:07.590	28.35	19.355	45.36	0.862296	-0.255468	0.212524	0.1275	0.837	-0.12	0	251	210	3
2026-02-12	15:03:07.610	26.53	21.595	48.09	0.812032	-0.25742	0.183732	0.1365	0.843	-0.129	0	247	222	3
2026-02-12	15:03:07.630	26.74	21.945	51.52	0.771528	-0.280844	0.153964	0.138	0.849	-0.1305	0	247	222	3
2026-02-12	15:03:07.650	34.055	19.6	53.2	0.803248	-0.282796	0.136152	0.144	0.849	-0.135	0	247	222	3
2026-02-12	15:03:07.670	42.07	15.785	53.025	0.820816	-0.248148	0.121268	0.1485	0.8475	-0.1365	0	247	222	3
2026-02-12	15:03:07.690	40.285	10.815	53.165	0.811788	-0.2562	0.124196	0.156	0.8505	-0.1365	0	247	222	3
2026-02-12	15:03:07.710	42.945	3.92	52.955	0.83448	-0.277184	0.16348	0.168	0.855	-0.1395	0	247	222	3
2026-02-12	15:03:07.730	57.19	-3.01	50.645	0.884012	-0.271816	0.217892	0.171	0.855	-0.1425	0	247	222	3
2026-02-12	15:03:07.750	78.61	-9.94	43.05	0.882548	-0.26962	0.240828	0.171	0.8565	-0.1485	0	247	222	3
2026-02-12	15:03:07.770	92.19	-15.19	36.12	0.881572	-0.266936	0.250344	0.1725	0.861	-0.153	0	247	222	3
2026-02-12	15:03:07.790	105.595	-20.02	26.215	0.91866	-0.271328	0.259372	0.174	0.8565	-0.159	0	247	222	3
2026-02-12	15:03:07.810	118.475	-24.15	14.7	0.969656	-0.25498	0.259616	0.174	0.8505	-0.162	0	240	221	3
2026-02-12	15:03:07.830	122.36	-27.965	4.235	1.005036	-0.22692	0.244244	0.1755	0.84	-0.1635	0	240	221	3
2026-02-12	15:03:07.850	116.655	-32.13	-4.515	1.049444	-0.207888	0.2257	0.171	0.828	-0.1665	0	240	221	3
2026-02-12	15:03:07.870	108.01	-36.995	-13.3	1.136064	-0.177632	0.213988	0.165	0.816	-0.1635	0	240	221	3
2026-02-12	15:03:07.890	96.39	-41.23	-22.05	1.227564	-0.142252	0.211792	0.1665	0.804	-0.168	0	240	221	3
2026-02-12	15:03:07.910	80.885	-43.89	-29.155	1.297348	-0.132736	0.199592	0.1635	0.7935	-0.1695	0	240	221	3
2026-02-12	15:03:07.930	65.135	-45.71	-32.935	1.33224	-0.115656	0.16958	0.1575	0.7785	-0.1605	0	240	221	3
2026-02-12	15:03:07.950	43.82	-50.61	-38.885	1.381772	-0.073932	0.1769	0.15	0.7695	-0.1575	0	240	221	3
2026-02-12	15:03:07.970	20.405	-53.83	-46.795	1.402512	0.020252	0.187148	0.141	0.762	-0.159	0	240	221	3
2026-02-12	15:03:07.990	-9.73	-53.655	-51.485	1.366156	0.07808	0.165188	0.132	0.753	-0.153	0	240	221	3
2026-02-12	15:03:08.010	-42.455	-50.61	-52.78	1.336632	0.093452	0.16836	0.126	0.7455	-0.1425	0	234	216	3
2026-02-12	15:03:08.030	-64.435	-41.755	-49.49	1.241716	0.070516	0.188612	0.12	0.741	-0.1335	0	234	216	3
2026-02-12	15:03:08.050	-73.5	-29.75	-41.405	1.152656	0.081008	0.185684	0.1155	0.741	-0.1275	0	234	216	3
2026-02-12	15:03:08.070	-78.295	-17.815	-32.025	1.077992	0.121756	0.15128	0.117	0.738	-0.1245	0	234	216	3
2026-02-12	15:03:08.090	-83.405	-6.825	-24.08	1.018456	0.181048	0.119316	0.1155	0.7425	-0.12	0	234	216	3
2026-02-12	15:03:08.110	-89.495	2.45	-19.075	0.953308	0.203496	0.073932	0.1065	0.75	-0.117	0	234	216	3
2026-02-12	15:03:08.130	-92.015	10.22	-16.625	0.8723	0.20008	0.038552	0.1125	0.7515	-0.111	0	234	216	3
2026-02-12	15:03:08.150	-93.87	16.52	-17.115	0.795684	0.136152	0.035136	0.117	0.7545	-0.108	0	234	216	3
2026-02-12	15:03:08.170	-78.82	23.065	-21.49	0.76982	-0.022936	0.073688	0.1095	0.7575	-0.1125	0	234	216	3
2026-02-12	15:03:08.190	-61.25	25.76	-24.92	0.821304	-0.075884	0.077104	0.111	0.7635	-0.117	0	234	216	3
2026-02-12	15:03:08.210	-40.285	28.14	-26.285	0.80398	-0.149328	0.06832	0.1155	0.768	-0.114	0	230	205	3
2026-02-12	15:03:08.230	-4.06	26.285	-24.85	0.782752	-0.195688	0.09076799	0.1155	0.7635	-0.1125	0	230	205	3
2026-02-12	15:03:08.250	36.75	23.065	-19.775	0.770796	-0.168604	0.147132	0.1155	0.759	-0.123	0	230	205	3
2026-02-12	15:03:08.270	67.515	19.95	-14.28	0.776652	-0.102724	0.19154	0.114	0.759	-0.1275	0	230	205	3
2026-02-12	15:03:08.290	83.825	18.62	-8.925	0.77714	-0.044164	0.219356	0.117	0.753	-0.1305	0	230	205	3
2026-02-12	15:03:08.310	86.975	18.41	-3.255	0.7564	0.011712	0.239608	0.123	0.747	-0.1365	0	230	205	3
2026-02-12	15:03:08.330	74.97	18.2	1.715	0.757376	0.061732	0.246684	0.1275	0.7395	-0.1395	0	230	205	3
2026-02-12	15:03:08.350	45.15	19.915	5.11	0.714432	0.078324	0.223748	0.129	0.7275	-0.141	0	230	205	3
2026-02-12	15:03:08.370	5.285	20.23	6.86	0.673684	0.08174	0.18788	0.1275	0.723	-0.1425	0	230	205	3
2026-02-12	15:03:08.390	-57.715	15.26	4.235	0.666608	0.043188	0.138592	0.129	0.7215	-0.1455	0	230	205	3
2026-02-12	15:03:08.410	-88.025	10.92	-0.07	0.647088	0.000488	0.132492	0.1275	0.7275	-0.147	0	230	191	3
2026-02-12	15:03:08.430	-106.785	4.725	-4.97	0.661484	-0.027572	0.1525	0.138	0.7395	-0.1455	0	230	191	3
2026-02-12	15:03:08.450	-113.505	-0.7	-11.305	0.705404	-0.077348	0.198616	0.141	0.7485	-0.144	0	230	191	3
2026-02-12	15:03:08.470	-102.83	-4.27	-19.11	0.752496	-0.163968	0.243268	0.135	0.7575	-0.1455	0	230	191	3
2026-02-12	15:03:08.490	-76.965	-7.07	-26.075	0.779092	-0.21228	0.267912	0.1365	0.765	-0.141	0	230	191	3
2026-02-12	15:03:08.510	-47.11	-11.69	-30.66	0.822768	-0.21594	0.282552	0.132	0.7665	-0.1365	0	230	191	3
2026-02-12	15:03:08.530	-17.22	-17.08	-33.355	0.905484	-0.208132	0.312808	0.1275	0.765	-0.1365	0	230	191	3
2026-02-12	15:03:08.550	9.24	-21.63	-34.265	1.013576	-0.16592	0.348188	0.126	0.7635	-0.1335	0	230	191	3
2026-02-12	15:03:08.570	27.79	-25.13	-32.095	1.09068	-0.107848	0.371856	0.1275	0.7605	-0.129	0	230	191	3
2026-02-12	15:03:08.590	37.625	-27.825	-25.025	1.149972	-0.050996	0.37332	0.1215	0.7575	-0.1245	0	230	191	3
2026-02-12	15:03:08.610	36.995	-29.82	-16.03	1.190476	-0.001464	0.366488	0.1185	0.7455	-0.1185	0	230	190	3
2026-02-12	15:03:08.630	28.07	-31.045	-9.695	1.216584	0.005124	0.366488	0.123	0.735	-0.1185	0	230	190	3
2026-02-12	15:03:08.650	15.05	-32.83	-5.11	1.28344	0.016836	0.370636	0.1185	0.738	-0.1185	0	230	190	3
2026-02-12	15:03:08.670	-1.26	-34.125	-2.8	1.372744	0.016348	0.370392	0.1095	0.738	-0.1125	0	230	190	3
2026-02-12	15:03:08.690	-17.99	-33.285	-2.1	1.43594	-0.010004	0.37576	0.1095	0.7305	-0.105	0	230	190	3
2026-02-12	15:03:08.710	-26.985	-28.945	-1.75	1.4396	-0.063196	0.387716	0.105	0.732	-0.105	0	230	190	3
2026-02-12	15:03:08.730	-26.145	-21.175	-0.455	1.385432	-0.085888	0.41358	0.1005	0.741	-0.102	0	230	190	3
2026-02-12	15:03:08.750	-21.14	-8.505	4.305	1.27856	-0.092964	0.402356	0.1035	0.747	-0.093	0	230	190	3
2026-02-12	15:03:08.770	-16.205	5.495	12.705	1.170956	-0.101504	0.368196	0.1035	0.744	-0.093	0	230	190	3
2026-02-12	15:03:08.790	-13.335	19.495	22.54	1.09556	-0.08906	0.311344	0.1005	0.738	-0.096	0	230	190	3
2026-02-12	15:03:08.810	-16.905	35.455	34.09	1.106052	-0.063928	0.235948	0.099	0.7365	-0.0975	0	233	213	3
2026-02-12	15:03:08.830	-25.55	46.095	41.72	1.066036	-0.084424	0.18788	0.1065	0.7455	-0.096	0	233	213	3
2026-02-12	15:03:08.850	-32.55	53.375	47.845	1.036512	-0.104188	0.158112	0.117	0.759	-0.1035	0	233	213	3
2026-02-12	15:03:08.870	-40.145	57.995	52.01	1.02846	-0.122244	0.161528	0.1215	0.765	-0.114	0	233	213	3
2026-02-12	15:03:08.890	-49.595	61.32	55.125	1.008208	-0.151768	0.16226	0.1275	0.7755	-0.114	0	233	213	3
2026-02-12	15:03:08.910	-59.22	61.11	57.225	0.982832	-0.16836	0.166896	0.1365	0.786	-0.117	0	233	213	3
2026-02-12	15:03:08.930	-65.52	58.59	59.01	0.90036	-0.209352	0.167384	0.1425	0.7995	-0.123	0	233	213	3
2026-02-12	15:03:08.950	-63.98	53.76	60.62	0.818132	-0.26108	0.1891	0.15	0.8115	-0.1305	0	233	213	3
2026-02-12	15:03:08.970	-53.795	47.495	61.635	0.741516	-0.289628	0.208864	0.1575	0.8205	-0.135	0	233	213	3
2026-02-12	15:03:08.990	-40.88	39.83	61.88	0.70394	-0.311832	0.22936	0.168	0.834	-0.1335	0	233	213	3
2026-02-12	15:03:09.010	-24.955	28.49	59.64	0.762988	-0.318176	0.249124	0.18	0.843	-0.1365	0	237	233	3
2026-02-12	15:03:09.030	-6.125	19.88	54.145	0.827648	-0.3111	0.24766	0.183	0.8445	-0.1395	0	237	233	3
2026-02-12	15:03:09.050	9.835	15.925	49.49	0.797148	-0.309148	0.224236	0.1875	0.8595	-0.1425	0	237	233	3
2026-02-12	15:03:09.070	26.88	11.2	45.57	0.770552	-0.316468	0.190564	0.1935	0.876	-0.144	0	237	233	3
2026-02-12	15:03:09.090	42.63	6.65	41.86	0.7808	-0.331596	0.183976	0.1995	0.873	-0.144	0	237	233	3
2026-02-12	15:03:09.110	57.575	3.01	37.135	0.847656	-0.31964	0.20862	0.2025	0.867	-0.15	0	237	233	3
2026-02-12	15:03:09.130	64.75	3.185	33.39	0.854	-0.317444	0.212524	0.2055	0.8655	-0.15	0	237	233	3
2026-02-12	15:03:09.150	69.23	2.695	30.345	0.845216	-0.303048	0.197152	0.2145	0.87	-0.1515	0	237	233	3
2026-02-12	15:03:09.170	73.57	1.225	26.81	0.855708	-0.284504	0.18056	0.222	0.8655	-0.162	0	237	233	3
2026-02-12	15:03:09.190	76.055	-1.575	21.595	0.916464	-0.257176	0.175192	0.2235	0.8565	-0.168	0	237	233	3
2026-02-12	15:03:09.210	71.435	-2.905	15.82	0.901092	-0.235216	0.173972	0.222	0.8505	-0.1695	0	239	238	3
2026-02-12	15:03:09.230	58.765	-8.61	10.605	0.91012	-0.23302	0.167872	0.222	0.8475	-0.171	0	239	238	3
2026-02-12	15:03:09.250	48.02	-18.305	4.2	0.92964	-0.229848	0.20374	0.2175	0.8415	-0.1695	0	239	238	3
2026-02-12	15:03:09.270	44.38	-27.265	-1.4	0.965752	-0.215452	0.277672	0.2145	0.8385	-0.174	0	239	238	3
2026-02-12	15:03:09.290	44.275	-35.385	-9.275	1.044808	-0.198372	0.336232	0.21	0.8355	-0.177	0	239	238	3
2026-02-12	15:03:09.310	42.91	-43.155	-19.285	1.096536	-0.204716	0.339404	0.207	0.8295	-0.1725	0	239	238	3
2026-02-12	15:03:09.330	40.6	-52.395	-28.21	1.11508	-0.243756	0.323544	0.207	0.8235	-0.1695	0	239	238	3
2026-02-12	15:03:09.350	49.035	-63.175	-37.66	1.203164	-0.25986	0.343064	0.198	0.8175	-0.1665	0	239	238	3
2026-02-12	15:03:09.370	63.245	-70.105	-48.3	1.312232	-0.215696	0.36844	0.189	0.807	-0.159	0	239	238	3
2026-02-12	15:03:09.390	70.245	-72.415	-55.37	1.317356	-0.183244	0.32818	0.18	0.7995	-0.159	0	239	238	3
2026-02-12	15:03:09.410	68.075	-75.11	-58.24	1.337852	-0.188612	0.265228	0.1725	0.7875	-0.156	0	238	239	3
2026-02-12	15:03:09.430	69.895	-75.355	-60.13	1.373476	-0.153476	0.25132	0.1605	0.7665	-0.1485	0	238	239	3
2026-02-12	15:03:09.450	37.66	-66.64	-67.795	1.30662	0.31842	0.200568	0.15	0.759	-0.1485	0	238	239	3
2026-02-12	15:03:09.470	-22.19	-59.465	-78.33	1.253428	0.316956	0.174704	0.1425	0.7485	-0.138	0	238	239	3
2026-02-12	15:03:09.490	-57.645	-47.95	-83.405	1.196088	0.149084	0.194956	0.135	0.735	-0.123	0	238	239	3
2026-02-12	15:03:09.510	-78.96	-33.18	-81.34	1.109468	0.114924	0.235704	0.1305	0.7275	-0.117	0	238	239	3
2026-02-12	15:03:09.530	-93.52	-19.32	-77.175	1.089216	0.071492	0.248636	0.1245	0.7215	-0.1095	0	238	239	3
2026-02-12	15:03:09.550	-88.585	-4.445	-70.245	1.03456	0.066368	0.26108	0.1245	0.7215	-0.1095	0	238	239	3
2026-02-12	15:03:09.570	-70.735	6.79	-61.495	1.005768	0.129808	0.24644	0.1245	0.7215	-0.1125	0	238	239	3
2026-02-12	15:03:09.590	-58.38	13.86	-54.005	1.040904	0.185196	0.214964	0.12	0.7185	-0.108	0	238	239	3
2026-02-12	15:03:09.610	-61.425	22.75	-46.62	0.941108	0.205692	0.14396	0.12	0.717	-0.111	0	238	241	3
2026-02-12	15:03:09.630	-79.59	27.51	-39.655	0.803492	0.165188	0.083204	0.12	0.7155	-0.114	0	238	241	3
2026-02-12	15:03:09.650	-97.615	26.425	-34.055	0.7503	0.049288	0.075396	0.12	0.7125	-0.114	0	238	241	3
2026-02-12	15:03:09.670	-98.245	25.445	-26.32	0.67344	-0.063928	0.144204	0.12	0.7125	-0.114	0	238	241	3
2026-02-12	15:03:09.690	-85.47	25.13	-22.925	0.637572	-0.034648	0.197152	0.1215	0.717	-0.1125	0	238	241	3
2026-02-12	15:03:09.710	-76.965	25.13	-21.455	0.603656	-0.018788	0.225944	0.129	0.726	-0.1125	0	238	241	3
2026-02-12	15:03:09.730	-71.54	25.06	-20.86	0.579988	-0.074176	0.257664	0.1365	0.732	-0.117	0	238	241	3
2026-02-12	15:03:09.750	-48.72	25.305	-23.135	0.6405	-0.140544	0.306708	0.1425	0.732	-0.12	0	238	241	3
2026-02-12	15:03:09.770	-21.455	29.12	-25.2	0.635132	-0.127124	0.287676	0.141	0.732	-0.12	0	238	241	3
2026-02-12	15:03:09.790	-1.995	29.82	-23.66	0.608292	-0.107604	0.277184	0.1395	0.7335	-0.129	0	238	241	3
2026-02-12	15:03:09.810	6.02	25.305	-20.055	0.607072	-0.058804	0.239852	0.141	0.729	-0.138	0	239	238	3
2026-02-12	15:03:09.830	3.78	18.025	-14.07	0.606096	-0.03416	0.213012	0.1455	0.723	-0.138	0	239	238	3
2026-02-12	15:03:09.850	1.155	9.8	-7.455	0.64416	-0.009028	0.24888	0.153	0.726	-0.135	0	239	238	3
2026-02-12	15:03:09.870	8.505	4.165	-0.945	0.70882	0.036112	0.334036	0.156	0.729	-0.1335	0	239	238	3
2026-02-12	15:03:09.890	9.52	-0.49	5.565	0.714432	0.093452	0.332328	0.153	0.723	-0.135	0	239	238	3
2026-02-12	15:03:09.910	-8.925	-7.315	11.2	0.691496	0.11102	0.291092	0.1515	0.7245	-0.132	0	239	238	3
2026-02-12	15:03:09.930	-38.57	-18.025	15.785	0.739076	0.08052	0.310856	0.1515	0.7245	-0.1305	0	239	238	3
2026-02-12	15:03:09.950	-52.22	-26.775	15.155	0.78324	0.02562	0.437492	0.1485	0.7245	-0.1335	0	239	238	3
2026-02-12	15:03:09.970	-49.875	-31.15	11.83	0.828136	-0.061244	0.539972	0.147	0.7335	-0.129	0	239	238	3
2026-02-12	15:03:09.990	-51.975	-34.475	11.06	0.8723	-0.070028	0.582916	0.147	0.741	-0.1215	0	239	238	3
2026-02-12	15:03:10.010	-72.31	-38.185	8.26	1.025776	-0.023424	0.604144	0.1455	0.747	-0.12	0	243	246	3
2026-02-12	15:03:10.030	-66.885	-36.365	2.275	1.169736	-0.168848	0.58804	0.141	0.7575	-0.117	0	243	246	3
2026-02-12	15:03:10.050	-40.46	-27.23	0.385	1.276852	-0.33306	0.568032	0.1305	0.762	-0.1095	0	243	246	3
2026-02-12	15:03:10.070	-21.175	-15.925	8.12	1.280024	-0.38064	0.51972	0.126	0.759	-0.1035	0	243	246	3
2026-02-12	15:03:10.090	-10.85	-7.42	25.445	1.30418	-0.385032	0.47458	0.1275	0.762	-0.105	0	243	246	3
2026-02-12	15:03:10.110	2.45	-5.005	35.28	1.404952	-0.361608	0.496052	0.1305	0.7665	-0.1005	0	243	246	3
2026-02-12	15:03:10.130	17.325	0.175	45.5	1.453752	-0.32086	0.503616	0.1365	0.7755	-0.0915	0	243	246	3
2026-02-12	15:03:10.150	21.595	8.855	58.52	1.412272	-0.308904	0.488	0.1335	0.78	-0.09	0	243	246	3
2026-02-12	15:03:10.170	18.06	16.905	72.94	1.324676	-0.368928	0.492148	0.132	0.786	-0.093	0	243	246	3
2026-02-12	15:03:10.190	16.065	25.095	89.565	1.238544	-0.427	0.499956	0.135	0.795	-0.0945	0	243	246	3
2026-02-12	15:03:10.210	18.2	33.18	106.785	1.149972	-0.44286	0.451156	0.144	0.7995	-0.1005	0	249	282	3
2026-02-12	15:03:10.230	26.53	39.55	123.41	1.12606	-0.427	0.368684	0.156	0.807	-0.108	0	249	282	3
2026-02-12	15:03:10.250	37.73	44.345	136.115	1.138504	-0.40138	0.28426	0.165	0.8205	-0.1125	0	249	282	3
2026-02-12	15:03:10.270	48.825	48.825	143.64	1.123864	-0.40748	0.230336	0.1785	0.834	-0.1185	0	249	282	3
2026-02-12	15:03:10.290	58.205	51.87	147.21	1.106784	-0.407724	0.190808	0.1845	0.8415	-0.1215	0	249	282	3
2026-02-12	15:03:10.310	68.11	54.53	146.265	1.092632	-0.38674	0.174704	0.1845	0.8415	-0.1215	0	249	282	3
2026-02-12	15:03:10.330	70.665	55.23	141.085	1.05652	-0.351604	0.183244	0.21	0.858	-0.135	0	249	282	3
2026-02-12	15:03:10.350	68.18	55.475	134.085	0.997472	-0.340136	0.192028	0.243	0.8745	-0.1485	0	249	282	3
2026-02-12	15:03:10.370	63.105	54.88	126.175	0.9455	-0.328668	0.204716	0.255	0.879	-0.156	0	249	282	3
2026-02-12	15:03:10.390	55.615	54.145	118.125	0.885476	-0.317932	0.213256	0.27	0.8775	-0.1665	0	249	282	3
2026-02-12	15:03:10.410	47.39	52.605	110.285	0.811544	-0.297192	0.198128	0.282	0.8805	-0.1725	0	258	312	3
2026-02-12	15:03:10.430	39.305	48.79	102.2	0.738832	-0.277184	0.169092	0.2925	0.8865	-0.1785	0	258	312	3
2026-02-12	15:03:10.450	35.105	41.755	92.785	0.660508	-0.288164	0.149328	0.306	0.885	-0.183	0	258	312	3
2026-02-12	15:03:10.470	38.92	32.725	84.42	0.615368	-0.29402	0.153476	0.315	0.888	-0.189	0	258	312	3
2026-02-12	15:03:10.490	47.67	23.205	76.475	0.595848	-0.2745	0.171288	0.3255	0.8955	-0.1935	0	258	312	3
2026-02-12	15:03:10.510	57.715	13.545	64.61	0.616344	-0.244488	0.199592	0.3345	0.897	-0.1935	0	258	312	3
2026-02-12	15:03:10.530	62.685	6.125	52.5	0.640256	-0.235216	0.213012	0.339	0.894	-0.198	0	258	312	3
2026-02-12	15:03:10.550	63.805	0.49	42.42	0.654652	-0.219112	0.196664	0.348	0.888	-0.2055	0	258	312	3
2026-02-12	15:03:10.570	62.195	-5.6	31.5	0.666364	-0.201544	0.191052	0.3525	0.882	-0.2085	0	258	312	3
2026-02-12	15:03:10.590	58.275	-12.67	20.23	0.674416	-0.192516	0.200324	0.354	0.876	-0.2115	0	258	312	3
2026-02-12	15:03:10.610	54.565	-19.915	8.785	0.6893	-0.193004	0.221308	0.3555	0.8685	-0.2175	0	267	310	3
2026-02-12	15:03:10.630	51.765	-28	-3.185	0.727852	-0.171288	0.226432	0.351	0.8625	-0.2175	0	267	310	3
2026-02-12	15:03:10.650	47.74	-38.045	-18.06	0.813984	-0.163724	0.236192	0.342	0.8565	-0.2175	0	267	310	3
2026-02-12	15:03:10.670	47.635	-48.23	-34.58	0.936716	-0.193004	0.264984	0.342	0.849	-0.2205	0	267	310	3
2026-02-12	15:03:10.690	57.82	-56.875	-48.86	1.040416	-0.202032	0.315492	0.336	0.843	-0.2205	0	267	310	3
2026-02-12	15:03:10.710	75.705	-64.05	-59.535	1.123864	-0.17324	0.347944	0.3285	0.84	-0.219	0	267	310	3
2026-02-12	15:03:10.730	94.36	-73.5	-71.645	1.276364	-0.120292	0.346724	0.3195	0.8235	-0.2205	0	267	310	3
2026-02-12	15:03:10.750	93.8	-80.43	-77.49	1.35176	-0.061976	0.313784	0.3075	0.8085	-0.2205	0	267	310	3
2026-02-12	15:03:10.770	79.065	-90.65	-82.705	1.396412	-0.016836	0.266692	0.2865	0.7875	-0.2175	0	267	310	3
2026-02-12	15:03:10.790	56.14	-105.455	-89.635	1.474248	-0.011956	0.232044	0.2715	0.771	-0.2085	0	267	310	3
2026-02-12	15:03:10.810	30.345	-121.695	-98.98	1.572092	-0.031964	0.2623	0.255	0.7545	-0.204	0	274	296	3
2026-02-12	15:03:10.830	12.39	-131.915	-109.235	1.671888	-0.02318	0.350628	0.237	0.738	-0.198	0	274	296	3
2026-02-12	15:03:10.850	-6.86	-134.54	-119.525	1.706048	-0.012444	0.376004	0.2205	0.7275	-0.186	0	274	296	3
2026-02-12	15:03:10.870	-31.185	-132.3	-127.015	1.616988	-0.069784	0.3477	0.201	0.7185	-0.1725	0	274	296	3
2026-02-12	15:03:10.890	-41.825	-132.3	-131.32	1.517436	-0.09857599	0.297924	0.186	0.708	-0.1575	0	274	296	3
2026-02-12	15:03:10.910	-40.88	-133	-133.56	1.42252	-0.112484	0.288652	0.171	0.699	-0.1455	0	274	296	3
2026-02-12	15:03:10.930	-27.44	-131.46	-133.63	1.393484	-0.098088	0.30866	0.162	0.696	-0.144	0	274	296	3
2026-02-12	15:03:10.950	-28.07	-121.87	-126.385	1.2688	-0.055632	0.293776	0.162	0.696	-0.144	0	274	296	3
2026-02-12	15:03:10.970	-30.905	-113.225	-119.28	1.1956	-0.067588	0.331108	0.15	0.6765	-0.12	0	274	296	3
2026-02-12	15:03:10.990	-29.015	-102.865	-110.53	1.126304	-0.025376	0.353312	0.129	0.648	-0.087	0	274	296	3
2026-02-12	15:03:11.010	-37.45	-93.66	-101.08	1.047248	0.041968	0.325008	0.1185	0.6315	-0.0735	0	281	290	3
2026-02-12	15:03:11.030	-56.455	-86.345	-93.135	0.988932	0.04026	0.313296	0.108	0.6225	-0.063	0	281	290	3
2026-02-12	15:03:11.050	-71.995	-77.77	-87.465	0.898896	-0.0122	0.322568	0.102	0.615	-0.0555	0	281	290	3
2026-02-12	15:03:11.070	-78.68	-70.455	-83.335	0.814228	-0.050264	0.320372	0.1005	0.603	-0.0495	0	281	290	3
2026-02-12	15:03:11.090	-78.33	-63.105	-79.52	0.76738	-0.061244	0.32452	0.099	0.5955	-0.0435	0	281	290	3
2026-02-12	15:03:11.110	-78.015	-55.335	-76.965	0.737856	-0.053192	0.313784	0.105	0.5925	-0.036	0	281	290	3
2026-02-12	15:03:11.130	-82.95	-47.46	-75.145	0.756644	-0.040016	0.295484	0.1005	0.5865	-0.03	0	281	290	3
2026-02-12	15:03:11.150	-98.385	-36.155	-70.56	0.742492	-0.037332	0.248392	0.0945	0.582	-0.027	0	281	290	3
2026-02-12	15:03:11.170	-115.675	-27.23	-62.335	0.679296	-0.050508	0.224724	0.102	0.5775	-0.0315	0	281	290	3
2026-02-12	15:03:11.190	-124.705	-24.535	-54.635	0.686372	-0.048312	0.229604	0.108	0.5715	-0.0345	0	281	290	3
2026-02-12	15:03:11.210	-130.865	-21.77	-47.39	0.706868	-0.032696	0.264008	0.102	0.57	-0.03	0	288	291	3
2026-02-12	15:03:11.230	-136.535	-15.54	-38.85	0.68442	-0.002928	0.318176	0.1035	0.5715	-0.0285	0	288	291	3
2026-02-12	15:03:11.250	-140.07	-9.275	-28.14	0.6283	-0.001708	0.290848	0.105	0.5745	-0.03	0	288	291	3
2026-02-12	15:03:11.270	-138.845	-8.155	-15.19	0.602924	-0.021716	0.257176	0.105	0.5775	-0.033	0	288	291	3
2026-02-12	15:03:11.290	-121.45	-10.325	-5.25	0.676612	-0.044408	0.325252	0.108	0.5865	-0.042	0	288	291	3
2026-02-12	15:03:11.310	-88.06	-7.35	3.395	0.754448	-0.026108	0.410652	0.102	0.5895	-0.048	0	288	291	3
2026-02-12	15:03:11.330	-56.49	-2.87	15.155	0.76128	0.057828	0.422608	0.1005	0.5955	-0.045	0	288	291	3
2026-02-12	15:03:11.350	-36.82	-0.91	26.11	0.783484	0.121756	0.435052	0.1035	0.606	-0.045	0	288	291	3
2026-02-12	15:03:11.370	-1.89	4.97	35.98	0.920856	0.13908	0.492392	0.1005	0.6045	-0.0495	0	288	291	3
2026-02-12	15:03:11.390	6.44	10.045	42.525	0.981368	0.211304	0.466528	0.1035	0.6075	-0.0495	0	288	291	3
2026-02-12	15:03:11.410	-2.03	16.38	50.365	0.980148	0.210084	0.419924	0.105	0.612	-0.0495	0	293	299	3
2026-02-12	15:03:11.430	-13.58	18.445	56.035	0.985028	0.269376	0.365512	0.105	0.6225	-0.051	0	293	299	3
2026-02-12	15:03:11.450	-24.99	17.185	60.025	1.074088	0.24278	0.353312	0.1005	0.6315	-0.0555	0	293	299	3
2026-02-12	15:03:11.470	-33.11	17.01	64.61	1.100928	0.226676	0.360876	0.102	0.6375	-0.06	0	293	299	3
2026-02-12	15:03:11.490	-39.865	15.68	70.7	1.135332	0.199348	0.364048	0.099	0.6465	-0.06	0	293	299	3
2026-02-12	15:03:11.510	-40.81	14.28	76.195	1.204384	0.13786	0.37088	0.096	0.6615	-0.0615	0	293	299	3
2026-02-12	15:03:11.530	-39.025	17.045	83.335	1.203896	0.0976	0.351604	0.102	0.6765	-0.0645	0	293	299	3
2026-02-12	15:03:11.550	-33.88	20.86	91.77	1.220488	0.0488	0.325496	0.1035	0.687	-0.066	0	293	299	3
2026-02-12	15:03:11.570	-21.735	25.305	99.785	1.25172	0.014152	0.299144	0.105	0.693	-0.066	0	293	299	3
2026-02-12	15:03:11.590	-2.87	31.85	110.11	1.301008	0.056852	0.259616	0.105	0.693	-0.066	0	293	299	3
2026-02-12	15:03:11.610	6.65	38.255	116.76	1.267824	0.048068	0.249856	0.1125	0.7155	-0.0705	0	296	312	3
2026-02-12	15:03:11.630	15.33	44.24	122.29	1.252452	0.02074	0.224236	0.117	0.741	-0.078	0	296	312	3
2026-02-12	15:03:11.650	19.32	49.525	125.825	1.28222	-0.034404	0.199592	0.117	0.756	-0.0795	0	296	312	3
2026-02-12	15:03:11.670	19.635	56.91	128.24	1.247572	-0.111508	0.164212	0.126	0.771	-0.0915	0	296	312	3
2026-02-12	15:03:11.690	16.31	62.58	131.11	1.12118	-0.134688	0.13908	0.1365	0.7845	-0.0975	0	296	312	3
2026-02-12	15:03:11.710	8.47	61.075	133	1.006744	-0.158844	0.12444	0.1515	0.798	-0.1005	0	296	312	3
2026-02-12	15:03:11.730	2.695	54.565	133	0.8723	-0.219112	0.14396	0.162	0.816	-0.111	0	296	312	3
2026-02-12	15:03:11.750	10.36	43.75	131.215	0.798368	-0.311344	0.179584	0.1725	0.834	-0.1155	0	296	312	3
2026-02-12	15:03:11.770	36.785	31.605	126.035	0.782508	-0.378932	0.239852	0.183	0.84	-0.1155	0	296	312	3
2026-02-12	15:03:11.790	67.41	21.105	120.12	0.797148	-0.38796	0.307684	0.1875	0.855	-0.1245	0	296	312	3
2026-02-12	15:03:11.810	74.69	13.895	115.395	0.809348	-0.379176	0.315248	0.1965	0.8625	-0.1335	0	297	312	3
2026-02-12	15:03:11.830	64.12	6.16	111.37	0.80642	-0.399916	0.310856	0.21	0.867	-0.141	0	297	312	3
2026-02-12	15:03:11.850	57.61	-1.295	107.555	0.784216	-0.452376	0.3111	0.2205	0.8715	-0.1425	0	297	312	3
2026-02-12	15:03:11.870	61.11	-7.91	104.335	0.764208	-0.479704	0.317444	0.228	0.8805	-0.1455	0	297	312	3
2026-02-12	15:03:11.890	68.355	-11.725	102.06	0.732976	-0.47092	0.30622	0.231	0.885	-0.147	0	297	312	3
2026-02-12	15:03:11.910	68.04	-14.525	100.345	0.682956	-0.340868	0.252784	0.24	0.8865	-0.1515	0	297	312	3
2026-02-12	15:03:11.930	47.74	-20.265	92.925	0.64904	-0.239608	0.1769	0.2475	0.8895	-0.153	0	297	312	3
2026-02-12	15:03:11.950	21.77	-27.335	82.915	0.601948	-0.272548	0.14518	0.252	0.894	-0.1545	0	297	312	3
2026-02-12	15:03:11.970	3.885	-36.33	73.045	0.625616	-0.379908	0.183488	0.2565	0.9015	-0.153	0	297	312	3
2026-02-12	15:03:11.990	-4.515	-43.085	64.505	0.75884	-0.529236	0.265716	0.255	0.9075	-0.1515	0	297	312	3
2026-02-12	15:03:12.010	-8.435	-40.915	53.48	0.937448	-0.575596	0.3111	0.2595	0.906	-0.1455	0	298	300	3
2026-02-12	15:03:12.030	-35.735	-36.995	50.995	0.93574	-0.494588	0.223504	0.258	0.9135	-0.141	0	298	300	3
2026-02-12	15:03:12.050	-71.015	-37.52	50.225	0.943548	-0.502884	0.099552	0.2595	0.9255	-0.1335	0	298	300	3
2026-02-12	15:03:12.070	-84.56	-41.755	47.74	0.967216	-0.507764	0.06588	0.258	0.9345	-0.126	0	298	300	3
2026-02-12	15:03:12.090	-76.86	-44.03	44.1	0.986492	-0.499712	0.105652	0.255	0.948	-0.114	0	298	300	3
2026-02-12	15:03:12.110	-64.19	-42.56	40.285	0.998692	-0.460672	0.152744	0.255	0.9615	-0.1035	0	298	300	3
2026-02-12	15:03:12.130	-58.03	-37.975	36.61	1.039928	-0.478972	0.175436	0.258	0.9705	-0.096	0	298	300	3
2026-02-12	15:03:12.150	-51.66	-31.045	31.5	1.095804	-0.463356	0.166652	0.258	0.978	-0.0855	0	298	300	3
2026-02-12	15:03:12.170	-53.76	-22.925	23.275	1.11142	-0.400404	0.131272	0.2565	0.981	-0.0735	0	298	300	3
2026-02-12	15:03:12.190	-68.495	-15.82	10.22	1.133136	-0.343552	0.067588	0.258	0.9825	-0.069	0	298	300	3
2026-02-12	15:03:12.210	-89.67	-11.69	-8.645	1.194136	-0.346724	0.005124	0.264	1.0005	-0.0615	0	300	277	3
2026-02-12	15:03:12.230	-100.275	-6.3	-48.65	1.26514	-0.461404	0.00366	0.264	1.0005	-0.0615	0	300	277	3
2026-02-12	15:03:12.250	-93.31	-1.855	-75.425	1.265384	-0.55022	0.02928	0.2565	1.002	-0.045	0	300	277	3
2026-02-12	15:03:12.270	-76.02	2.03	-98.84	1.25782	-0.61854	0.068808	0.24	1.002	-0.027	0	300	277	3
2026-02-12	15:03:12.290	-40.46	6.265	-117.32	1.230492	-0.649772	0.095892	0.228	0.999	-0.0195	0	300	277	3
2026-02-12	15:03:12.310	11.865	9.66	-128.52	1.11508	-0.642452	0.11102	0.216	0.99	-0.015	0	300	277	3
2026-02-12	15:03:12.330	76.125	7.77	-133.735	1.007964	-0.523868	0.16714	0.207	0.9765	-0.018	0	300	277	3
2026-02-12	15:03:12.350	121.31	2.695	-134.785	0.94062	-0.3538	0.24522	0.1935	0.96	-0.03	0	300	277	3
2026-02-12	15:03:12.370	130.655	-1.89	-133.91	0.914512	-0.201056	0.29402	0.174	0.9405	-0.0405	0	300	277	3
2026-02-12	15:03:12.390	108.395	-2.31	-129.64	0.861808	-0.162016	0.283528	0.165	0.918	-0.048	0	300	277	3
2026-02-12	15:03:12.410	86.695	1.015	-126.98	0.901336	-0.155184	0.265716	0.162	0.903	-0.054	0	301	244	3
2026-02-12	15:03:12.430	59.92	14.35	-128.94	1.0248	-0.133956	0.190076	0.156	0.888	-0.0615	0	301	244	3
2026-02-12	15:03:12.450	24.99	31.15	-128.695	1.051884	-0.152256	0.102236	0.141	0.8685	-0.072	0	301	244	3
2026-02-12	15:03:12.470	-3.85	37.975	-125.72	1.184864	-0.186172	0.036844	0.126	0.84	-0.081	0	301	244	3
2026-02-12	15:03:12.490	-28.805	43.89	-117.915	1.235128	-0.242536	-0.00732	0.1215	0.819	-0.0855	0	301	244	3
2026-02-12	15:03:12.510	-35.805	45.22	-104.405	1.185108	-0.270596	0.04148	0.12	0.807	-0.093	0	301	244	3
2026-02-12	15:03:12.530	-29.96	40.915	-86.835	1.08336	-0.239852	0.121512	0.123	0.798	-0.0945	0	301	244	3
2026-02-12	15:03:12.550	-18.97	34.615	-67.55	0.986492	-0.18178	0.20496	0.1215	0.783	-0.099	0	301	244	3
2026-02-12	15:03:12.570	-4.725	29.225	-51.065	0.911828	-0.116388	0.266204	0.123	0.7725	-0.1095	0	301	244	3
2026-02-12	15:03:12.590	6.755	26.705	-39.095	0.812032	-0.058316	0.274256	0.123	0.7665	-0.111	0	301	244	3
2026-02-12	15:03:12.610	9.765	24.71	-30.87	0.711992	-0.0427	0.23302	0.123	0.765	-0.1095	0	301	217	3
2026-02-12	15:03:12.630	4.235	20.895	-27.265	0.64782	-0.066368	0.189832	0.1245	0.7665	-0.12	0	301	217	3
2026-02-12	15:03:12.650	-8.61	16.38	-27.65	0.53314	-0.10248	0.156892	0.12	0.7605	-0.114	0	301	217	3
2026-02-12	15:03:12.670	-23.485	12.6	-29.68	0.481412	-0.1037	0.135664	0.12	0.7575	-0.12	0	301	217	3
2026-02-12	15:03:12.690	-41.755	8.4	-32.9	0.4514	-0.113948	0.108824	0.1245	0.753	-0.126	0	301	217	3
2026-02-12	15:03:12.710	-54.32	3.78	-38.57	0.484584	-0.127612	0.121268	0.1215	0.7485	-0.132	0	301	217	3
2026-02-12	15:03:12.730	-57.365	2.1	-46.27	0.52704	-0.134688	0.150548	0.1215	0.744	-0.129	0	301	217	3
2026-02-12	15:03:12.750	-55.44	3.185	-53.48	0.540948	-0.131272	0.155916	0.1275	0.744	-0.123	0	301	217	3
2026-02-12	15:03:12.770	-51.24	2.66	-60.41	0.593164	-0.135908	0.172508	0.126	0.75	-0.1245	0	301	217	3
2026-02-12	15:03:12.790	-38.045	3.08	-67.76	0.681004	-0.172508	0.23424	0.123	0.7485	-0.1215	0	301	217	3
2026-02-12	15:03:12.810	-12.74	5.145	-73.465	0.744932	-0.194956	0.290848	0.1215	0.741	-0.126	0	300	201	3
2026-02-12	15:03:12.830	12.53	3.885	-74.375	0.78934	-0.155916	0.295728	0.12	0.738	-0.129	0	300	201	3
2026-02-12	15:03:12.850	24.43	-0.805	-69.72	0.859368	-0.094428	0.327448	0.123	0.72	-0.1215	0	300	201	3
2026-02-12	15:03:12.870	30.87	-5.075	-56.98	0.957456	0.002928	0.392596	0.123	0.72	-0.1215	0	300	201	3
2026-02-12	15:03:12.890	18.235	-9.1	-43.015	0.967704	0.096868	0.443104	0.117	0.7065	-0.1245	0	300	201	3
2026-02-12	15:03:12.910	2.24	-13.475	-27.475	1.009184	0.142008	0.485804	0.111	0.6915	-0.123	0	300	201	3
2026-02-12	15:03:12.930	-11.2	-16.66	-14.105	1.059936	0.179828	0.532652	0.117	0.6855	-0.117	0	300	201	3
2026-02-12	15:03:12.950	-26.81	-20.335	-1.435	1.082384	0.197396	0.54412	0.117	0.684	-0.114	0	300	201	3
2026-02-12	15:03:12.970	-46.41	-25.83	9.03	1.087996	0.205692	0.539972	0.111	0.684	-0.1125	0	300	201	3
2026-02-12	15:03:12.990	-68.355	-34.16	15.4	1.108004	0.173484	0.522404	0.1095	0.687	-0.1065	0	300	201	3
2026-02-12	15:03:13.010	-83.79	-45.115	18.025	1.122156	0.099064	0.526064	0.105	0.6975	-0.102	0	300	215	3
2026-02-12	15:03:13.030	-70.735	-55.65	14.245	1.15046	-0.007808	0.623664	0.102	0.7065	-0.099	0	300	215	3
2026-02-12	15:03:13.050	-26.845	-60.06	6.265	1.198528	-0.049288	0.75152	0.1005	0.708	-0.096	0	300	215	3
2026-02-12	15:03:13.070	21.455	-52.78	-0.105	1.216828	-0.021472	0.734684	0.087	0.7155	-0.087	0	300	215	3
2026-02-12	15:03:13.090	43.505	-39.62	-2.45	1.257088	-0.043188	0.627324	0.087	0.714	-0.075	0	300	215	3
2026-02-12	15:03:13.110	54.005	-24.01	-0.035	1.203652	-0.071736	0.5429	0.084	0.7095	-0.069	0	300	215	3
2026-02-12	15:03:13.130	65.24	-7.42	6.755	1.130208	-0.069052	0.450668	0.0855	0.7095	-0.069	0	300	215	3
2026-02-12	15:03:13.150	76.72	7.56	13.895	1.120204	-0.06344	0.3538	0.0795	0.7095	-0.0645	0	300	215	3
2026-02-12	15:03:13.170	84.42	19.775	21.245	1.196332	-0.027816	0.266448	0.0765	0.702	-0.069	0	300	215	3
2026-02-12	15:03:13.190	80.465	31.045	28.77	1.282708	0.012444	0.189344	0.0825	0.696	-0.0705	0	300	215	3
2026-02-12	15:03:13.210	62.125	43.015	38.885	1.249036	0.009272	0.137128	0.0825	0.696	-0.072	0	302	265	3
2026-02-12	15:03:13.230	40.565	52.15	49.105	1.178032	-0.026108	0.107848	0.0855	0.7005	-0.0825	0	302	265	3
2026-02-12	15:03:13.250	23.625	57.155	56.84	1.12606	-0.02318	0.134444	0.09	0.705	-0.087	0	302	265	3
2026-02-12	15:03:13.270	5.355	62.02	65.205	1.055788	-0.027328	0.183	0.0915	0.708	-0.0945	0	302	265	3
2026-02-12	15:03:13.290	-14.315	63.595	79.275	0.963556	-0.061976	0.288652	0.0915	0.714	-0.105	0	302	265	3
2026-02-12	15:03:13.310	-27.545	64.54	86.695	0.914756	-0.036356	0.358436	0.0975	0.7275	-0.114	0	302	265	3
2026-02-12	15:03:13.330	-48.72	67.445	95.76	0.879864	-0.055632	0.36234	0.1095	0.75	-0.123	0	302	265	3
2026-02-12	15:03:13.350	-71.855	69.965	105.77	0.822524	-0.091012	0.310368	0.1185	0.765	-0.1305	0	302	265	3
2026-02-12	15:03:13.370	-91.805	69.3	115.57	0.766404	-0.110044	0.23302	0.123	0.78	-0.1395	0	302	265	3
2026-02-12	15:03:13.390	-101.01	63.91	123.34	0.72468	-0.141764	0.149084	0.135	0.804	-0.144	0	302	265	3
2026-02-12	15:03:13.410	-95.445	54.53	126.595	0.706624	-0.156404	0.08662	0.156	0.831	-0.1425	0	303	297	3
2026-02-12	15:03:13.430	-79.555	42.665	125.265	0.721996	-0.172508	0.047092	0.1695	0.852	-0.144	0	303	297	3
2026-02-12	15:03:13.450	-59.71	29.715	119.735	0.744688	-0.187148	0.025376	0.1815	0.873	-0.147	0	303	297	3
2026-02-12	15:03:13.470	-44.1	16.17	110.635	0.7686	-0.192516	0.02806	0.192	0.8835	-0.1455	0	303	297	3
2026-02-12	15:03:13.490	-35.105	1.68	96.53	0.814472	-0.194224	0.056608	0.198	0.897	-0.147	0	303	297	3
2026-02-12	15:03:13.510	-17.185	-15.575	62.825	0.864736	-0.260348	0.131516	0.198	0.897	-0.147	0	303	297	3
2026-02-12	15:03:13.530	7.91	-21.98	36.4	0.884988	-0.326716	0.198616	0.207	0.9165	-0.1395	0	303	297	3
2026-02-12	15:03:13.550	41.335	-23.8	11.935	0.85766	-0.362584	0.250344	0.2175	0.9345	-0.1365	0	303	297	3
2026-02-12	15:03:13.570	69.23	-22.96	-8.785	0.8113	-0.347212	0.269864	0.2145	0.9315	-0.1395	0	303	297	3
2026-02-12	15:03:13.590	92.295	-20.51	-26.635	0.779336	-0.310612	0.278404	0.2085	0.9285	-0.144	0	303	297	3
2026-02-12	15:03:13.610	103.145	-19.355	-39.375	0.768112	-0.251808	0.259128	0.204	0.921	-0.1485	0	303	292	2
2026-02-12	15:03:13.630	100.87	-22.575	-48.125	0.788608	-0.251564	0.21716	0.1965	0.906	-0.1575	0	303	292	2
2026-02-12	15:03:13.650	100.065	-28.105	-55.615	0.825452	-0.255468	0.196664	0.192	0.888	-0.165	0	303	292	2
2026-02-12	15:03:13.670	104.055	-34.545	-60.655	0.865224	-0.245464	0.217648	0.1965	0.882	-0.165	0	303	292	2
2026-02-12	15:03:13.690	113.365	-39.935	-63.105	0.92354	-0.24278	0.274744	0.1875	0.8685	-0.171	0	303	292	2
2026-02-12	15:03:13.710	131.39	-40.67	-61.845	0.977464	-0.227652	0.360876	0.1755	0.8445	-0.165	0	303	292	2
2026-02-12	15:03:13.730	150.29	-37.065	-55.965	1.028216	-0.19642	0.417484	0.1695	0.8235	-0.165	0	303	292	2
2026-02-12	15:03:13.750	156.31	-31.955	-47.46	1.036512	-0.134688	0.428952	0.159	0.792	-0.171	0	303	292	2
2026-02-12	15:03:13.770	153.965	-25.725	-36.4	1.012844	-0.07515199	0.437492	0.153	0.7665	-0.174	0	303	292	2
2026-02-12	15:03:13.790	148.47	-20.3	-25.69	1.031632	0.002928	0.455548	0.141	0.75	-0.1755	0	303	292	2
2026-02-12	15:03:13.810	141.225	-16.765	-19.6	1.114104	0.108824	0.479216	0.1335	0.735	-0.18	0	299	281	3
2026-02-12	15:03:13.830	117.18	-17.43	-16.87	1.210972	0.183732	0.44042	0.1365	0.711	-0.1785	0	299	281	3
2026-02-12	15:03:13.850	76.265	-23.555	-14.385	1.305888	0.177144	0.419192	0.138	0.6945	-0.1755	0	299	281	3
2026-02-12	15:03:13.870	41.3	-26.95	-13.65	1.295152	0.123952	0.482876	0.138	0.684	-0.1725	0	299	281	3
2026-02-12	15:03:13.890	26.67	-25.62	-14.105	1.159488	0.080764	0.592188	0.1395	0.678	-0.1695	0	299	281	3
2026-02-12	15:03:13.910	22.61	-19.81	-14	0.980636	0.06466	0.654652	0.126	0.6795	-0.1755	0	299	281	3
2026-02-12	15:03:13.930	10.885	-7.735	-8.995	0.74298	0.027816	0.547536	0.132	0.678	-0.171	0	299	281	3
2026-02-12	15:03:13.950	9.205	-5.74	-6.16	0.695156	-0.033428	0.431636	0.129	0.6765	-0.1665	0	299	281	3
2026-02-12	15:03:13.970	26.6	-7.385	-7.455	0.70516	-0.081496	0.370392	0.126	0.675	-0.168	0	299	281	3
2026-02-12	15:03:13.990	54.11	-10.64	-10.675	0.76128	-0.099796	0.326716	0.126	0.669	-0.168	0	299	281	3
2026-02-12	15:03:14.010	81.865	-14.49	-15.61	0.878644	-0.10492	0.300608	0.1245	0.6555	-0.165	0	295	296	3
2026-02-12	15:03:14.030	104.58	-16.66	-22.12	0.990396	-0.087596	0.31842	0.12	0.6465	-0.1605	0	295	296	3
2026-02-12	15:03:14.050	117.075	-14.98	-28.07	1.02846	-0.055388	0.348432	0.117	0.6345	-0.156	0	295	296	3
2026-02-12	15:03:14.070	119.385	-11.76	-31.01	1.021384	-0.025132	0.355752	0.117	0.618	-0.1545	0	295	296	3
2026-02-12	15:03:14.090	110.215	-8.4	-30.415	0.990884	-0.007808	0.362096	0.117	0.603	-0.153	0	295	296	3
2026-02-12	15:03:14.110	93.24	-5.355	-25.165	0.942328	-0.00244	0.377468	0.117	0.594	-0.153	0	295	296	3
2026-02-12	15:03:14.130	79.31	-2.695	-16.275	0.892552	-0.021472	0.397476	0.117	0.588	-0.1455	0	295	296	3
2026-02-12	15:03:14.150	78.89	1.47	-1.82	0.870104	-0.006588	0.399916	0.117	0.588	-0.1455	0	295	296	3
2026-02-12	15:03:14.170	81.06	3.99	7.455	0.882304	0.02684	0.366244	0.1185	0.57	-0.1455	0	295	296	3
2026-02-12	15:03:14.190	73.29	6.685	16.695	0.894016	0.005124	0.323056	0.1215	0.5505	-0.1395	0	295	296	3
2026-02-12	15:03:14.210	66.815	9.1	23.8	0.902312	-0.029768	0.31964	0.123	0.549	-0.1335	0	288	321	3
2026-02-12	15:03:14.230	66.955	11.515	28.98	0.9272	-0.02318	0.354288	0.117	0.546	-0.135	0	288	321	3
2026-02-12	15:03:14.250	65.8	15.4	32.76	0.976976	0.0183	0.37088	0.114	0.54	-0.135	0	288	321	3
2026-02-12	15:03:14.270	54.67	21.245	37.94	0.953552	0.002196	0.33428	0.1155	0.54	-0.1305	0	288	321	3
2026-02-12	15:03:14.290	46.935	24.99	44.345	0.90646	-0.023668	0.302804	0.1155	0.54	-0.126	0	288	321	3
2026-02-12	15:03:14.310	50.61	24.955	49.77	0.90646	-0.017812	0.311588	0.1155	0.5385	-0.126	0	288	321	3
2026-02-12	15:03:14.330	57.715	24.815	53.55	0.921588	0.013176	0.3294	0.1185	0.546	-0.135	0	288	321	3
2026-02-12	15:03:14.350	58.24	25.48	58.275	0.90402	0.017812	0.321592	0.117	0.5445	-0.1335	0	288	321	3
2026-02-12	15:03:14.370	59.395	24.605	61.075	0.920368	0.011224	0.321836	0.117	0.549	-0.132	0	288	321	3
2026-02-12	15:03:14.390	60.13	24.08	61.915	0.92964	0.013908	0.324032	0.1155	0.5535	-0.132	0	288	321	3
2026-02-12	15:03:14.410	58.17	23.905	62.79	0.91134	0.007076	0.31598	0.1155	0.5535	-0.132	0	277	337	3
2026-02-12	15:03:14.430	54.915	22.995	63.42	0.886452	0.008296	0.306708	0.1155	0.558	-0.1305	0	277	337	3
2026-02-12	15:03:14.450	52.255	20.895	63.105	0.864492	0.005856	0.299388	0.1125	0.5625	-0.1305	0	277	337	3
2026-02-12	15:03:14.470	49.91	18.34	62.055	0.854976	-0.00244	0.288164	0.108	0.567	-0.132	0	277	337	3
2026-02-12	15:03:14.490	47.145	15.015	60.27	0.870104	-0.010004	0.268156	0.114	0.5715	-0.132	0	277	337	3
2026-02-12	15:03:14.510	44.17	11.27	57.715	0.88084	-0.028304	0.25498	0.1185	0.576	-0.129	0	277	337	3
2026-02-12	15:03:14.530	43.715	7	54.565	0.891576	-0.049776	0.253272	0.1155	0.579	-0.1275	0	277	337	3
2026-02-12	15:03:14.550	46.69	2.87	51.45	0.916464	-0.059048	0.252296	0.1095	0.5745	-0.129	0	277	337	3
2026-02-12	15:03:14.570	52.22	-3.99	46.76	0.9821	-0.06954	0.242292	0.1095	0.5805	-0.129	0	277	337	3
2026-02-12	15:03:14.590	55.51	-9.73	42.42	1.0736	-0.07808	0.23058	0.1095	0.582	-0.1305	0	277	337	3
2026-02-12	15:03:14.610	60.55	-16.87	35.315	1.222928	-0.088084	0.268156	0.1095	0.588	-0.126	0	260	338	3
2026-02-12	15:03:14.630	68.32	-16.555	28.945	1.218292	-0.125904	0.319152	0.102	0.588	-0.117	0	260	338	3
2026-02-12	15:03:14.650	78.155	-12.705	29.015	1.118984	-0.130784	0.319884	0.0945	0.585	-0.114	0	260	338	3
2026-02-12	15:03:14.670	83.265	-6.405	31.71	0.985516	-0.116144	0.271328	0.0945	0.5865	-0.1125	0	260	338	3
2026-02-12	15:03:14.690	81.935	-0.525	38.465	0.876204	-0.114192	0.226676	0.093	0.5835	-0.111	0	260	338	3
2026-02-12	15:03:14.710	81.97	3.115	45.78	0.847412	-0.097356	0.210328	0.0915	0.582	-0.108	0	260	338	3
2026-02-12	15:03:14.730	82.075	6.405	51.765	0.883036	-0.061244	0.183732	0.093	0.5835	-0.108	0	260	338	3
2026-02-12	15:03:14.750	76.405	8.995	54.985	0.94062	-0.040992	0.162016	0.0885	0.5865	-0.096	0	260	338	3
2026-02-12	15:03:14.770	65.765	10.64	55.23	0.993812	-0.053436	0.166896	0.0915	0.5835	-0.0945	0	260	338	3
2026-02-12	15:03:14.790	39.2	8.855	49.315	1.141432	-0.061732	0.183244	0.0915	0.5835	-0.0945	0	260	338	3
2026-02-12	15:03:14.810	12.285	7.21	41.58	1.2139	-0.064904	0.190076	0.0855	0.5895	-0.099	0	243	323	3
2026-02-12	15:03:14.830	-20.09	5.635	34.755	1.21146	-0.092476	0.18056	0.0825	0.597	-0.0975	0	243	323	3
2026-02-12	15:03:14.850	-50.75	2.695	29.295	1.156804	-0.138104	0.156892	0.0855	0.6045	-0.099	0	243	323	3
2026-02-12	15:03:14.870	-73.115	-1.995	23.905	1.088972	-0.174704	0.151524	0.087	0.6105	-0.102	0	243	323	3
2026-02-12	15:03:14.890	-84.7	-6.93	20.09	1.013332	-0.211792	0.151768	0.084	0.615	-0.1035	0	243	323	3
2026-02-12	15:03:14.910	-84.945	-12.39	17.43	0.97234	-0.240584	0.165188	0.0795	0.63	-0.105	0	243	323	3
2026-02-12	15:03:14.930	-77.665	-17.465	15.54	0.958188	-0.257176	0.163236	0.0795	0.642	-0.102	0	243	323	3
2026-02-12	15:03:14.950	-66.605	-21.945	13.755	0.933056	-0.280356	0.150792	0.0825	0.6465	-0.102	0	243	323	3
2026-02-12	15:03:14.970	-48.405	-26.495	11.97	0.901824	-0.30622	0.121756	0.081	0.648	-0.099	0	243	323	3
2026-02-12	15:03:14.990	-12.6	-33.46	8.75	0.904508	-0.337452	0.105408	0.084	0.6555	-0.087	0	243	323	3
2026-02-12	15:03:15.010	27.93	-39.69	5.39	0.942816	-0.352092	0.10736	0.075	0.66	-0.0885	0	228	295	3
2026-02-12	15:03:15.030	58.1	-42.315	3.36	0.96868	-0.355996	0.116876	0.066	0.66	-0.0795	0	228	295	3
2026-02-12	15:03:15.050	84.56	-42.84	1.96	0.979904	-0.330132	0.13664	0.063	0.657	-0.0705	0	228	295	3
2026-02-12	15:03:15.070	101.15	-42.07	1.4	0.982344	-0.284748	0.153964	0.06	0.657	-0.069	0	228	295	3
2026-02-12	15:03:15.090	105.245	-40.355	1.575	0.981856	-0.271084	0.16348	0.0585	0.6525	-0.057	0	228	295	3
2026-02-12	15:03:15.110	104.23	-38.15	2.45	0.968924	-0.259616	0.168604	0.06	0.642	-0.048	0	228	295	3
2026-02-12	15:03:15.130	100.31	-36.05	3.78	0.970876	-0.242536	0.174704	0.0585	0.633	-0.0465	0	228	295	3
2026-02-12	15:03:15.150	93.17	-33.495	5.285	0.977708	-0.228872	0.179828	0.0525	0.6315	-0.039	0	228	295	3
2026-02-12	15:03:15.170	83.195	-30.8	7.525	0.941596	-0.22936	0.17202	0.048	0.6315	-0.033	0	228	295	3
2026-02-12	15:03:15.190	73.745	-29.015	10.57	0.894748	-0.246196	0.158844	0.051	0.63	-0.018	0	228	295	3
2026-02-12	15:03:15.210	71.925	-27.79	9.24	1.006256	-0.219112	0.232044	0.051	0.6195	-0.0195	0	215	261	3
2026-02-12	15:03:15.230	72.73	-22.54	6.37	1.058716	-0.20984	0.244976	0.0465	0.6135	-0.0135	0	215	261	3
2026-02-12	15:03:15.250	69.65	-16.94	3.15	1.062864	-0.176168	0.205692	0.0465	0.6075	-0.006	0	215	261	3
2026-02-12	15:03:15.270	59.045	-14.77	-0.035	1.043588	-0.17202	0.17446	0.0495	0.6105	-0.0015	0	215	261	3
2026-02-12	15:03:15.290	46.585	-15.225	-2.135	1.014308	-0.186416	0.170312	0.0495	0.6105	0.0015	0	215	261	3
2026-02-12	15:03:15.310	39.76	-17.64	-3.01	1.01626	-0.18056	0.189832	0.045	0.6075	0.006	0	215	261	3
2026-02-12	15:03:15.330	41.93	-21.245	-3.955	1.09556	-0.172996	0.216916	0.042	0.612	0.0075	0	215	261	3
2026-02-12	15:03:15.350	48.685	-22.82	-3.605	1.131916	-0.143472	0.247904	0.045	0.6075	0.0105	0	215	261	3
2026-02-12	15:03:15.370	52.99	-23.275	-1.82	1.11874	-0.116876	0.2684	0.0465	0.6015	0.0165	0	215	261	3
2026-02-12	15:03:15.390	58.45	-24.185	-1.365	1.154608	-0.095648	0.280844	0.039	0.612	0.024	0	215	261	3
2026-02-12	15:03:15.410	64.155	-24.045	-2.87	1.165344	-0.072712	0.279624	0.0375	0.5985	0.024	0	203	238	3
2026-02-12	15:03:15.430	67.095	-25.445	-5.74	1.214144	-0.05368	0.287188	0.0375	0.5985	0.024	0	203	238	3
2026-02-12	15:03:15.450	72.66	-26.39	-10.85	1.3115	-0.045384	0.31232	0.036	0.5985	0.036	0	203	238	3
2026-02-12	15:03:15.470	74.165	-23.87	-17.115	1.352736	-0.02074	0.31476	0.036	0.597	0.0465	0	203	238	3
2026-02-12	15:03:15.490	65.625	-21.28	-21.98	1.36396	0.002928	0.286212	0.033	0.591	0.051	0	203	238	3
2026-02-12	15:03:15.510	49.07	-17.605	-25.76	1.323456	0.001708	0.257908	0.0315	0.579	0.06	0	203	238	3
2026-02-12	15:03:15.530	33.145	-12.425	-28.525	1.246596	0.009272	0.254736	0.036	0.57	0.066	0	203	238	3
2026-02-12	15:03:15.550	20.86	-6.09	-30.45	1.181692	0.017812	0.256444	0.039	0.564	0.066	0	203	238	3
2026-02-12	15:03:15.570	7.035	2.695	-29.82	1.0919	0.0122	0.233996	0.042	0.5625	0.0675	0	203	238	3
2026-02-12	15:03:15.590	-7.245	11.445	-26.635	1.015284	0.014396	0.187392	0.048	0.564	0.072	0	203	238	3
2026-02-12	15:03:15.610	-20.02	18.06	-22.89	1.00406	-0.002196	0.153964	0.0495	0.5565	0.0675	0	194	232	3
2026-02-12	15:03:15.630	-33.565	26.11	-19.285	1.01138	-0.010736	0.129808	0.0375	0.558	0.06	0	194	232	3
2026-02-12	15:03:15.650	-50.505	34.685	-14.875	0.977464	-0.000732	0.088328	0.042	0.5535	0.0555	0	194	232	3
2026-02-12	15:03:15.670	-67.62	38.64	-11.445	0.974292	0.032696	0.055388	0.0495	0.5445	0.048	0	194	232	3
2026-02-12	15:03:15.690	-86.03	40.915	-9.31	0.991372	0.072468	0.072468	0.0495	0.5445	0.0375	0	194	232	3
2026-02-12	15:03:15.710	-110.53	43.785	-8.365	0.973804	0.079788	0.101504	0.048	0.5475	0.0285	0	194	232	3
2026-02-12	15:03:15.730	-126.28	46.27	-8.26	0.943792	0.0244	0.133956	0.0555	0.549	0.0165	0	194	232	3
2026-02-12	15:03:15.750	-122.92	48.44	-8.715	0.925004	-0.010004	0.195688	0.066	0.5535	0.0015	0	194	232	3
2026-02-12	15:03:15.770	-108.36	50.4	-10.29	0.889868	-0.044408	0.208376	0.0645	0.5565	-0.006	0	194	232	3
2026-02-12	15:03:15.790	-86.695	49.63	-13.09	0.835456	-0.082228	0.201544	0.0585	0.558	-0.012	0	194	232	3
2026-02-12	15:03:15.810	-57.54	45.99	-16.03	0.804224	-0.099064	0.208132	0.06	0.561	-0.024	0	188	225	3
2026-02-12	15:03:15.830	-24.325	41.72	-18.41	0.77348	-0.098088	0.232532	0.0645	0.5625	-0.0375	0	188	225	3
2026-02-12	15:03:15.850	23.31	38.22	-21.945	0.708332	-0.063928	0.257908	0.078	0.561	-0.048	0	188	225	3
2026-02-12	15:03:15.870	40.775	35.35	-23.17	0.6466	-0.022204	0.244976	0.078	0.5595	-0.0495	0	188	225	3
2026-02-12	15:03:15.890	42.14	29.435	-23.8	0.629764	0.001708	0.22814	0.081	0.5565	-0.0525	0	188	225	3
2026-02-12	15:03:15.910	33.565	22.155	-25.06	0.634156	0.009272	0.224968	0.081	0.5505	-0.0555	0	188	225	3
2026-02-12	15:03:15.930	21.875	15.435	-26.495	0.656604	0.022448	0.240584	0.0825	0.54	-0.0555	0	188	225	3
2026-02-12	15:03:15.950	8.82	9.415	-28.035	0.683444	0.032208	0.253028	0.087	0.534	-0.0585	0	188	225	3
2026-02-12	15:03:15.970	-5.95	4.515	-29.575	0.706624	0.032208	0.253272	0.0855	0.531	-0.066	0	188	225	3
2026-02-12	15:03:15.990	-20.825	-2.03	-31.64	0.765672	-0.001952	0.237168	0.0915	0.5235	-0.0675	0	188	225	3
2026-02-12	15:03:16.010	-28.245	-10.255	-35.805	0.803736	-0.066124	0.250588	0.096	0.5205	-0.0675	0	186	221	3
2026-02-12	15:03:16.030	-24.885	-14.735	-37.8	0.813984	-0.08784	0.261324	0.0975	0.5235	-0.06	0	186	221	3
2026-02-12	15:03:16.050	-14.56	-20.195	-38.57	0.81618	-0.106384	0.281332	0.093	0.5205	-0.0615	0	186	221	3
2026-02-12	15:03:16.070	6.23	-27.895	-35.875	0.820816	-0.099552	0.318664	0.0945	0.504	-0.0645	0	186	221	3
2026-02-12	15:03:16.090	23.52	-34.125	-34.475	0.879864	-0.109556	0.360632	0.093	0.507	-0.0555	0	186	221	3
2026-02-12	15:03:16.110	48.3	-37.485	-35.105	0.9516	-0.107848	0.450912	0.0945	0.504	-0.0435	0	186	221	3
2026-02-12	15:03:16.130	75.495	-37.73	-35.21	1.016016	-0.06734399	0.502152	0.0945	0.495	-0.0375	0	186	221	3
2026-02-12	15:03:16.150	92.75	-37.52	-30.625	1.028704	-0.05734	0.497516	0.0945	0.492	-0.03	0	186	221	3
2026-02-12	15:03:16.170	103.6	-37.905	-23.24	1.034316	-0.011224	0.472872	0.096	0.486	-0.018	0	186	221	3
2026-02-12	15:03:16.190	99.435	-39.165	-15.785	1.075064	0.072468	0.464576	0.096	0.4725	-0.0045	0	186	221	3
2026-02-12	15:03:16.210	85.785	-37.065	-7.77	1.095804	0.095892	0.481412	0.093	0.4635	0.009	0	186	234	2
2026-02-12	15:03:16.230	70.735	-34.265	-0.14	1.115812	0.11956	0.470432	0.0915	0.462	0.0195	0	186	234	2
2026-02-12	15:03:16.250	49.665	-32.27	7.665	1.148508	0.132736	0.429196	0.099	0.4575	0.015	0	186	234	2
2026-02-12	15:03:16.270	26.6	-31.01	15.05	1.220244	0.088572	0.3721	0.093	0.4545	0.0315	0	186	234	2
2026-02-12	15:03:16.290	18.13	-29.645	19.88	1.344196	0.049532	0.366	0.0885	0.4575	0.039	0	186	234	2
2026-02-12	15:03:16.310	22.82	-24.325	22.47	1.480104	0.0366	0.395768	0.0855	0.462	0.0435	0	186	234	2
2026-02-12	15:03:16.330	30.66	-12.74	28.105	1.52378	0.012932	0.4087	0.087	0.462	0.0465	0	186	234	2
2026-02-12	15:03:16.350	40.285	2.94	40.67	1.402024	0.002684	0.37088	0.084	0.465	0.0555	0	186	234	2
2026-02-12	15:03:16.370	52.185	16.38	58.66	1.311744	-0.001708	0.315492	0.0795	0.4695	0.0585	0	186	234	2
2026-02-12	15:03:16.390	68.25	28.42	75.915	1.31394	0.014396	0.343064	0.0765	0.4755	0.0585	0	186	234	2
2026-02-12	15:03:16.410	87.99	40.915	90.79	1.29564	0.031232	0.364292	0.0705	0.486	0.06	0	190	265	3
2026-02-12	15:03:16.430	108.99	46.83	106.785	1.272216	0.057828	0.24034	0.0675	0.492	0.063	0	190	265	3
2026-02-12	15:03:16.450	118.475	53.2	111.405	1.253428	0.167384	0.193736	0.0675	0.51	0.054	0	190	265	3
2026-02-12	15:03:16.470	92.435	60.62	109.76	1.1834	0.1952	0.171288	0.0615	0.5175	0.057	0	190	265	3
2026-02-12	15:03:16.490	21.035	63.49	101.465	1.018944	0.14762	0.140544	0.0555	0.537	0.0585	0	190	265	3
2026-02-12	15:03:16.510	-22.05	60.865	91.245	0.914024	0.109068	0.103212	0.0525	0.5505	0.048	0	190	265	3
2026-02-12	15:03:16.530	-55.51	55.93	79.8	0.824232	0.039284	0.070272	0.048	0.5685	0.036	0	190	265	3
2026-02-12	15:03:16.550	-70.14	48.44	68.005	0.76738	-0.024644	0.07808	0.045	0.5865	0.03	0	190	265	3
2026-02-12	15:03:16.570	-64.505	42.035	56.98	0.698328	-0.068564	0.112484	0.0435	0.6	0.018	0	190	265	3
2026-02-12	15:03:16.590	-47.18	35.98	46.165	0.630008	-0.090524	0.11834	0.042	0.6105	0.0075	0	190	265	3
2026-02-12	15:03:16.610	-26.705	29.68	35.14	0.5917	-0.111752	0.119072	0.0435	0.6195	0.003	0	198	280	3
2026-02-12	15:03:16.630	-5.495	24.395	23.905	0.598776	-0.16592	0.111996	0.0495	0.6225	0	0	198	280	3
2026-02-12	15:03:16.650	18.025	19.635	14.56	0.576816	-0.186416	0.111752	0.0495	0.624	0	0	198	280	3
2026-02-12	15:03:16.670	43.715	12.495	8.085	0.549488	-0.154208	0.10736	0.0495	0.6345	-0.0075	0	198	280	3
2026-02-12	15:03:16.690	62.37	2.905	2.345	0.592676	-0.127124	0.102968	0.048	0.6285	-0.006	0	198	280	3
2026-02-12	15:03:16.710	80.465	-10.325	-5.355	0.650504	-0.112972	0.103212	0.048	0.6285	-0.006	0	198	280	3
2026-02-12	15:03:16.730	89.915	-18.445	-8.505	0.67222	-0.106384	0.107116	0.0465	0.6165	-0.0045	0	198	280	3
2026-02-12	15:03:16.750	97.86	-26.88	-11.305	0.708088	-0.088328	0.113704	0.042	0.6105	-0.003	0	198	280	3
2026-02-12	15:03:16.770	99.75	-34.545	-13.72	0.735416	-0.06588	0.127856	0.0465	0.6135	0.003	0	198	280	3
2026-02-12	15:03:16.790	97.055	-42.98	-15.855	0.778116	-0.06588	0.15616	0.048	0.6105	0.0105	0	198	280	3
2026-02-12	15:03:16.810	95.83	-51.03	-18.2	0.844728	-0.079788	0.196908	0.045	0.6	0.0225	0	209	265	3
2026-02-12	15:03:16.830	100.1	-57.085	-20.685	0.955992	-0.101016	0.249124	0.048	0.594	0.0375	0	209	265	3
2026-02-12	15:03:16.850	110.25	-59.15	-22.365	1.073356	-0.094916	0.29158	0.0465	0.5865	0.051	0	209	265	3
2026-02-12	15:03:16.870	116.69	-57.925	-22.05	1.167296	-0.051484	0.30744	0.045	0.579	0.0585	0	209	265	3
2026-02-12	15:03:16.890	113.12	-55.685	-21.28	1.265872	-0.006832	0.295728	0.051	0.5745	0.066	0	209	265	3
2026-02-12	15:03:16.910	88.655	-52.43	-19.075	1.336632	0.032452	0.236924	0.0465	0.5715	0.0765	0	209	265	3
2026-02-12	15:03:16.930	49.98	-51.765	-17.465	1.388116	0.0671	0.1891	0.0465	0.5685	0.0885	0	209	265	3
2026-02-12	15:03:16.950	14.35	-54.985	-19.565	1.523048	0.105164	0.205692	0.045	0.561	0.105	0	209	265	3
2026-02-12	15:03:16.970	-22.05	-56.56	-22.505	1.608448	0.075396	0.239852	0.0405	0.558	0.114	0	209	265	3
2026-02-12	15:03:16.990	-51.415	-55.09	-21.7	1.557452	-0.000244	0.27816	0.0405	0.5595	0.1215	0	209	265	3
2026-02-12	15:03:17.010	-63.665	-48.265	-15.75	1.434232	-0.074176	0.333548	0.048	0.5565	0.1275	0	221	245	3
2026-02-12	15:03:17.030	-57.085	-31.57	-5.775	1.294176	-0.050752	0.384788	0.0525	0.555	0.1365	0	221	245	3
2026-02-12	15:03:17.050	-46.69	-7.84	4.83	1.191696	0.02074	0.365268	0.051	0.5535	0.141	0	221	245	3
2026-02-12	15:03:17.070	-51.03	16.94	13.825	1.128256	0.066124	0.263276	0.051	0.552	0.141	0	221	245	3
2026-02-12	15:03:17.090	-69.58	39.62	19.39	1.077016	0.107604	0.149572	0.0525	0.5505	0.135	0	221	245	3
2026-02-12	15:03:17.110	-97.895	57.435	19.775	1.012112	0.199836	0.02318	0.042	0.5625	0.123	0	221	245	3
2026-02-12	15:03:17.130	-165.375	71.12	13.965	0.906948	0.34282	-0.15128	0.0525	0.5565	0.108	0	221	245	3
2026-02-12	15:03:17.150	-225.645	72.94	9.975	0.81984	0.3294	-0.188612	0.051	0.5595	0.09	0	221	245	3
2026-02-12	15:03:17.170	-273.21	67.795	7.77	0.813984	0.212768	-0.152012	0.045	0.564	0.0645	0	221	245	3
2026-02-12	15:03:17.190	-302.435	62.405	8.225	0.824476	0.071492	-0.058316	0.0435	0.5745	0.0465	0	221	245	3
2026-02-12	15:03:17.210	-313.74	59.955	11.27	0.820572	-0.069296	0.081496	0.048	0.5895	0.0285	0	235	227	3
2026-02-12	15:03:17.230	-299.67	61.005	13.16	0.815204	-0.227408	0.173972	0.0495	0.6015	0.009	0	235	227	3
2026-02-12	15:03:17.250	-256.13	64.19	11.515	0.790804	-0.321348	0.209108	0.0555	0.612	-0.012	0	235	227	3
2026-02-12	15:03:17.270	-194.11	66.885	6.37	0.727608	-0.319152	0.199348	0.063	0.624	-0.021	0	235	227	3
2026-02-12	15:03:17.290	-127.4	68.565	-1.575	0.662216	-0.254492	0.205692	0.066	0.63	-0.0225	0	235	227	3
2026-02-12	15:03:17.310	-68.075	68.215	-12.95	0.650992	-0.207156	0.199836	0.066	0.6375	-0.0405	0	235	227	3
2026-02-12	15:03:17.330	-19.32	66.57	-25.97	0.620492	-0.163968	0.177388	0.078	0.6495	-0.054	0	235	227	3
2026-02-12	15:03:17.350	18.06	57.085	-40.11	0.589992	-0.11346	0.191784	0.078	0.6495	-0.054	0	235	227	3
2026-02-12	15:03:17.370	16.275	47.985	-45.78	0.584136	-0.08174	0.232532	0.0825	0.642	-0.0645	0	235	227	3
2026-02-12	15:03:17.390	-2.415	37.24	-51.135	0.676124	-0.083692	0.3111	0.0885	0.6315	-0.0825	0	235	227	3
2026-02-12	15:03:17.410	-26.32	30.625	-55.965	0.796416	-0.11712	0.363316	0.0885	0.6225	-0.0945	0	249	208	3
2026-02-12	15:03:17.430	-46.97	27.965	-57.855	0.81496	-0.136884	0.372344	0.093	0.6135	-0.0975	0	249	208	3
2026-02-12	15:03:17.450	-62.895	23.45	-57.12	0.852048	-0.172264	0.371856	0.0945	0.6045	-0.1005	0	249	208	3
2026-02-12	15:03:17.470	-69.16	19.495	-55.335	0.90158	-0.252784	0.395768	0.096	0.6045	-0.1065	0	249	208	3
2026-02-12	15:03:17.490	-64.295	16.94	-51.485	0.937204	-0.307196	0.415776	0.105	0.606	-0.1095	0	249	208	3
2026-02-12	15:03:17.510	-55.825	14.07	-45.36	0.9394	-0.30256	0.436272	0.1095	0.6015	-0.1095	0	249	208	3
2026-02-12	15:03:17.530	-49.735	10.71	-39.025	0.93208	-0.292068	0.447252	0.1125	0.6075	-0.123	0	249	208	3
2026-02-12	15:03:17.550	-44.38	4.725	-31.29	0.915	-0.278404	0.446032	0.105	0.5985	-0.1215	0	249	208	3
2026-02-12	15:03:17.570	-40.32	-3.15	-24.185	0.918904	-0.255224	0.446276	0.1095	0.6015	-0.123	0	249	208	3
2026-02-12	15:03:17.590	-39.025	-9.87	-20.825	0.955992	-0.27572	0.488	0.114	0.606	-0.123	0	249	208	3
2026-02-12	15:03:17.610	-35.665	-14.91	-18.865	0.992836	-0.310368	0.51362	0.114	0.609	-0.12	0	261	217	3
