yyyy-MM-dd	HH:mm:ss.fff	gyrX	gyrY	gyrZ	accX	accY	accZ	magX	magY	magZ	Marker	Energy	Angle	Classification
2026-02-12	15:02:38.410	-1.75	-0.14	8.505	0.629032	0.398452	0.669536	-0.0555	-0.201	0.186	0	16	719	1
2026-02-12	15:02:38.430	-1.365	-0.42	8.715	0.63196	0.393328	0.688812	-0.0525	-0.1995	0.1845	0	16	719	1
2026-02-12	15:02:38.450	-2.205	-0.91	8.925	0.628056	0.380152	0.68808	-0.0555	-0.201	0.1875	0	16	719	1
2026-02-12	15:02:38.470	-3.43	-1.12	8.785	0.6283	0.382592	0.692228	-0.0585	-0.1965	0.189	0	16	719	1
2026-02-12	15:02:38.490	-3.535	-1.365	8.085	0.61976	0.387472	0.68198	-0.051	-0.1965	0.183	0	16	719	1
2026-02-12	15:02:38.510	-3.92	-2.1	7.035	0.631228	0.377468	0.693204	-0.057	-0.201	0.1815	0	16	719	1
2026-02-12	15:02:38.530	-5.005	-2.765	6.02	0.636108	0.37576	0.695888	-0.063	-0.1965	0.1845	0	16	719	1
2026-02-12	15:02:38.550	-5.635	-2.87	4.97	0.636108	0.37454	0.693448	-0.0645	-0.195	0.1815	0	16	719	1
2026-02-12	15:02:38.570	-5.88	-3.01	4.13	0.63074	0.371856	0.69296	-0.06	-0.1935	0.1845	0	16	719	1
2026-02-12	15:02:38.590	-5.74	-3.255	3.57	0.639768	0.367952	0.692472	-0.0555	-0.192	0.189	0	16	719	1
2026-02-12	15:02:38.610	-6.23	-3.255	3.535	0.641476	0.37332	0.700524	-0.0555	-0.192	0.1845	0	16	715	1
2026-02-12	15:02:38.630	-6.23	-2.73	3.745	0.641964	0.374296	0.692472	-0.0585	-0.192	0.1815	0	16	715	1
2026-02-12	15:02:38.650	-5.075	-2.065	4.095	0.643184	0.3782	0.688812	-0.0615	-0.195	0.1815	0	16	715	1
2026-02-12	15:02:38.670	-4.515	-1.68	4.445	0.646844	0.372344	0.683444	-0.06	-0.1965	0.1815	0	16	715	1
2026-02-12	15:02:38.690	-4.2	-1.4	4.865	0.650504	0.371368	0.684664	-0.0675	-0.189	0.189	0	16	715	1
2026-02-12	15:02:38.710	-3.85	-0.7	5.39	0.645868	0.369416	0.68564	-0.066	-0.198	0.1845	0	16	715	1
2026-02-12	15:02:38.730	-3.115	0.14	5.915	0.644892	0.367464	0.681736	-0.0675	-0.1875	0.1875	0	16	715	1
2026-02-12	15:02:38.750	-2.275	0.735	6.475	0.650504	0.366732	0.6832	-0.0645	-0.192	0.189	0	16	715	1
2026-02-12	15:02:38.770	-2.345	1.295	7.245	0.651968	0.36722	0.687836	-0.0675	-0.183	0.1875	0	16	715	1
2026-02-12	15:02:38.790	-2.415	1.925	7.84	0.654164	0.36722	0.68198	-0.072	-0.1845	0.1815	0	16	715	1
2026-02-12	15:02:38.810	-1.855	2.52	8.19	0.646844	0.37088	0.67832	-0.0735	-0.186	0.1785	0	17	711	1
2026-02-12	15:02:38.830	-1.365	2.835	8.33	0.650748	0.364536	0.679052	-0.063	-0.183	0.1875	0	17	711	1
2026-02-12	15:02:38.850	-1.155	3.08	8.435	0.652944	0.358924	0.678564	-0.066	-0.1785	0.1755	0	17	711	1
2026-02-12	15:02:38.870	-1.155	3.255	8.54	0.65148	0.357948	0.68076	-0.0735	-0.1815	0.177	0	17	711	1
2026-02-12	15:02:38.890	-1.12	3.325	8.61	0.65148	0.354776	0.678076	-0.0705	-0.177	0.1815	0	17	711	1
2026-02-12	15:02:38.910	-0.7	3.36	8.54	0.648308	0.355996	0.685396	-0.0705	-0.18	0.1815	0	17	711	1
2026-02-12	15:02:38.930	-0.63	3.675	8.365	0.648308	0.349408	0.685884	-0.0705	-0.1845	0.183	0	17	711	1
2026-02-12	15:02:38.950	0.035	3.955	8.155	0.650992	0.349896	0.688324	-0.0645	-0.1785	0.1875	0	17	711	1
2026-02-12	15:02:38.970	0.77	4.165	7.805	0.644404	0.34648	0.694668	-0.075	-0.1845	0.177	0	17	711	1
2026-02-12	15:02:38.990	0.21	4.06	7.63	0.650992	0.341844	0.693936	-0.0675	-0.1755	0.1845	0	17	711	1
2026-02-12	15:02:39.010	-0.175	3.955	7.63	0.653432	0.341112	0.690764	-0.069	-0.177	0.1785	0	18	708	1
2026-02-12	15:02:39.030	0.455	3.78	7.665	0.652944	0.346236	0.691984	-0.075	-0.171	0.1875	0	18	708	1
2026-02-12	15:02:39.050	1.33	3.5	7.56	0.649772	0.33916	0.697108	-0.0735	-0.174	0.1725	0	18	708	1
2026-02-12	15:02:39.070	1.4	3.185	7.175	0.650748	0.335744	0.700036	-0.0705	-0.1725	0.1815	0	18	708	1
2026-02-12	15:02:39.090	1.4	2.8	6.405	0.654408	0.329888	0.694668	-0.0855	-0.1725	0.183	0	18	708	1
2026-02-12	15:02:39.110	1.54	2.31	5.565	0.651236	0.325984	0.696132	-0.0825	-0.168	0.18	0	18	708	1
2026-02-12	15:02:39.130	1.19	1.785	4.62	0.65514	0.32086	0.701012	-0.0825	-0.177	0.1875	0	18	708	1
2026-02-12	15:02:39.150	1.225	1.54	3.36	0.651236	0.324276	0.700524	-0.0855	-0.1815	0.1755	0	18	708	1
2026-02-12	15:02:39.170	1.54	1.05	1.855	0.650504	0.318908	0.6954	-0.084	-0.171	0.177	0	18	708	1
2026-02-12	15:02:39.190	0.875	0	-0.035	0.649772	0.317688	0.712968	-0.081	-0.171	0.189	0	18	708	1
2026-02-12	15:02:39.210	-0.805	-0.945	-1.68	0.655872	0.31354	0.709308	-0.081	-0.174	0.186	0	19	707	1
2026-02-12	15:02:39.230	-1.645	-1.75	-2.73	0.6588	0.319884	0.701744	-0.0825	-0.174	0.183	0	19	707	1
2026-02-12	15:02:39.250	-1.89	-2.415	-3.675	0.655628	0.324276	0.704672	-0.081	-0.1725	0.1815	0	19	707	1
2026-02-12	15:02:39.270	-2.415	-2.87	-4.48	0.654408	0.32696	0.706624	-0.078	-0.1725	0.18	0	19	707	1
2026-02-12	15:02:39.290	-2.695	-3.15	-4.935	0.650992	0.33306	0.694424	-0.0825	-0.171	0.1815	0	19	707	1
2026-02-12	15:02:39.310	-2.485	-3.185	-5.215	0.654164	0.336964	0.683932	-0.0825	-0.168	0.1755	0	19	707	1
2026-02-12	15:02:39.330	-1.68	-3.22	-5.495	0.652456	0.33428	0.689056	-0.078	-0.171	0.177	0	19	707	1
2026-02-12	15:02:39.350	-1.365	-3.22	-5.53	0.648552	0.332084	0.691252	-0.0765	-0.1725	0.1815	0	19	707	1
2026-02-12	15:02:39.370	-1.575	-3.29	-5.46	0.650504	0.332572	0.694668	-0.075	-0.1755	0.1785	0	19	707	1
2026-02-12	15:02:39.390	-1.505	-3.395	-5.355	0.650992	0.33672	0.690764	-0.0765	-0.18	0.177	0	19	707	1
2026-02-12	15:02:37.410	-0.21	-3.395	-3.045	0.594384	0.40382	0.71126	-0.0465	-0.1995	0.174	0	18	723	1
2026-02-12	15:02:37.430	0.035	-3.43	-3.465	0.592676	0.400648	0.709308	-0.0435	-0.2055	0.1725	0	18	723	1
2026-02-12	15:02:37.450	0.42	-3.605	-3.815	0.594384	0.400892	0.71004	-0.042	-0.2085	0.1755	0	18	723	1
2026-02-12	15:02:37.470	0.63	-3.815	-4.2	0.59536	0.40138	0.71004	-0.0435	-0.204	0.1755	0	18	723	1
2026-02-12	15:02:37.490	0.7	-3.815	-4.445	0.594384	0.4026	0.715164	-0.0405	-0.1995	0.1725	0	18	723	1
2026-02-12	15:02:37.510	0.665	-3.605	-4.55	0.596092	0.404308	0.712724	-0.039	-0.1935	0.174	0	18	723	1
2026-02-12	15:02:37.530	0.56	-3.01	-4.515	0.59536	0.404064	0.708088	-0.039	-0.1935	0.177	0	18	723	1
2026-02-12	15:02:37.550	0.385	-1.925	-4.585	0.591944	0.401624	0.702232	-0.039	-0.201	0.1755	0	18	723	1
2026-02-12	15:02:37.570	0	-0.245	-4.865	0.583892	0.403088	0.706136	-0.045	-0.2055	0.1755	0	18	723	1
2026-02-12	15:02:37.590	-0.49	0.805	-4.76	0.588772	0.41236	0.704184	-0.0465	-0.2055	0.177	0	18	723	1
2026-02-12	15:02:37.610	-0.28	0.735	-3.99	0.594872	0.410652	0.715896	-0.0495	-0.204	0.177	0	18	725	1
2026-02-12	15:02:37.630	-0.105	0.035	-2.52	0.599752	0.415532	0.727608	-0.042	-0.201	0.1755	0	18	725	1
2026-02-12	15:02:37.650	-0.7	-1.155	-0.42	0.605608	0.41602	0.728584	-0.045	-0.1995	0.18	0	18	725	1
2026-02-12	15:02:37.670	-1.155	-2.415	1.61	0.602436	0.417728	0.72102	-0.039	-0.1995	0.174	0	18	725	1
2026-02-12	15:02:37.690	-0.91	-3.395	3.22	0.594872	0.419436	0.708576	-0.0405	-0.2115	0.171	0	18	725	1
2026-02-12	15:02:37.710	-0.175	-3.99	4.235	0.59048	0.408456	0.703208	-0.0345	-0.204	0.1755	0	18	725	1
2026-02-12	15:02:37.730	0.07	-4.095	4.865	0.591212	0.404796	0.70028	-0.0465	-0.204	0.177	0	18	725	1
2026-02-12	15:02:37.750	0.175	-3.78	4.9	0.59048	0.400404	0.698572	-0.0405	-0.204	0.1695	0	18	725	1
2026-02-12	15:02:37.770	0.525	-3.15	4.515	0.58682	0.399672	0.703452	-0.039	-0.1995	0.1815	0	18	725	1
2026-02-12	15:02:37.790	0.945	-2.66	3.71	0.589992	0.401136	0.702476	-0.0525	-0.2055	0.1785	0	18	725	1
2026-02-12	15:02:37.810	1.155	-2.24	2.8	0.59414	0.396012	0.703696	-0.0465	-0.204	0.177	0	17	726	1
2026-02-12	15:02:37.830	1.12	-1.995	1.925	0.597068	0.393816	0.704184	-0.0465	-0.2025	0.177	0	17	726	1
2026-02-12	15:02:37.850	1.015	-1.995	0.875	0.604388	0.398208	0.706868	-0.0525	-0.2025	0.18	0	17	726	1
2026-02-12	15:02:37.870	0.595	-2.17	0.245	0.603656	0.396744	0.707844	-0.0525	-0.2025	0.18	0	17	726	1
2026-02-12	15:02:37.890	0.315	-2.275	-0.28	0.602436	0.39894	0.70272	-0.0525	-0.201	0.186	0	17	726	1
2026-02-12	15:02:37.910	0.21	-2.415	-0.735	0.604876	0.401868	0.700524	-0.0465	-0.198	0.1755	0	17	726	1
2026-02-12	15:02:37.930	-0.07	-2.765	-0.98	0.610488	0.400892	0.700524	-0.054	-0.1995	0.1845	0	17	726	1
2026-02-12	15:02:37.950	-0.21	-3.185	-1.155	0.614392	0.399184	0.696132	-0.0435	-0.1995	0.177	0	17	726	1
2026-02-12	15:02:37.970	0	-3.465	-1.4	0.605608	0.404552	0.692716	-0.0435	-0.195	0.1815	0	17	726	1
2026-02-12	15:02:37.990	0.385	-3.5	-1.715	0.600484	0.4087	0.698572	-0.0465	-0.1965	0.1785	0	17	726	1
2026-02-12	15:02:38.010	0.21	-3.22	-2.135	0.605852	0.401868	0.69296	-0.0465	-0.1965	0.1785	0	17	725	1
2026-02-12	15:02:38.030	0	-3.01	-2.415	0.608048	0.405528	0.69174	-0.0495	-0.1995	0.177	0	17	725	1
2026-02-12	15:02:38.050	-0.07	-2.905	-2.8	0.605364	0.410164	0.691496	-0.036	-0.207	0.1755	0	17	725	1
2026-02-12	15:02:38.070	0	-3.15	-3.255	0.608536	0.41358	0.69418	-0.0495	-0.2025	0.1785	0	17	725	1
2026-02-12	15:02:38.090	-0.07	-3.675	-3.535	0.61	0.418216	0.697596	-0.0435	-0.204	0.1845	0	17	725	1
2026-02-12	15:02:38.110	-0.455	-4.235	-3.815	0.609268	0.424316	0.693448	-0.048	-0.1965	0.18	0	17	725	1
2026-02-12	15:02:38.130	0	-4.585	-3.885	0.60512	0.412116	0.69418	-0.051	-0.1965	0.18	0	17	725	1
2026-02-12	15:02:38.150	1.47	-4.55	-3.36	0.61976	0.39284	0.723948	-0.0465	-0.1995	0.183	0	17	725	1
2026-02-12	15:02:38.170	2.345	-4.375	-2.03	0.630496	0.375028	0.741516	-0.0435	-0.204	0.186	0	17	725	1
2026-02-12	15:02:38.190	2.45	-4.34	-0.63	0.624396	0.380396	0.722728	-0.0465	-0.2055	0.1845	0	17	725	1
2026-02-12	15:02:38.210	1.925	-4.865	0.105	0.613904	0.3965	0.69906	-0.0435	-0.207	0.1875	0	16	723	1
2026-02-12	15:02:38.230	2.1	-5.495	0.035	0.605364	0.410896	0.680272	-0.0435	-0.2085	0.1845	0	16	723	1
2026-02-12	15:02:38.250	0.875	-5.74	-0.21	0.609756	0.4087	0.682224	-0.045	-0.204	0.1845	0	16	723	1
2026-02-12	15:02:38.270	-0.84	-5.285	0.175	0.612928	0.40748	0.684176	-0.051	-0.2025	0.1875	0	16	723	1
2026-02-12	15:02:38.290	-1.82	-4.34	1.225	0.61122	0.4087	0.672952	-0.054	-0.2055	0.186	0	16	723	1
2026-02-12	15:02:38.310	-1.75	-2.905	2.73	0.618784	0.414556	0.66856	-0.051	-0.2055	0.1875	0	16	723	1
2026-02-12	15:02:38.330	-1.435	-1.435	4.305	0.617564	0.41846	0.667828	-0.051	-0.201	0.1905	0	16	723	1
2026-02-12	15:02:38.350	-1.12	-0.455	5.67	0.625128	0.419192	0.665876	-0.0525	-0.1995	0.192	0	16	723	1
2026-02-12	15:02:38.370	-1.12	-0.035	6.755	0.626836	0.414312	0.663192	-0.057	-0.21	0.1875	0	16	723	1
2026-02-12	15:02:38.390	-1.75	-0.14	8.05	0.628056	0.402844	0.66734	-0.0555	-0.201	0.1875	0	16	723	1
2026-02-12	15:02:38.410	-1.75	-0.14	8.505	0.629032	0.398452	0.669536	-0.0555	-0.201	0.186	0	16	719	1
2026-02-12	15:02:38.430	-1.365	-0.42	8.715	0.63196	0.393328	0.688812	-0.0525	-0.1995	0.1845	0	16	719	1
2026-02-12	15:02:38.450	-2.205	-0.91	8.925	0.628056	0.380152	0.68808	-0.0555	-0.201	0.1875	0	16	719	1
2026-02-12	15:02:38.470	-3.43	-1.12	8.785	0.6283	0.382592	0.692228	-0.0585	-0.1965	0.189	0	16	719	1
2026-02-12	15:02:38.490	-3.535	-1.365	8.085	0.61976	0.387472	0.68198	-0.051	-0.1965	0.183	0	16	719	1
2026-02-12	15:02:38.510	-3.92	-2.1	7.035	0.631228	0.377468	0.693204	-0.057	-0.201	0.1815	0	16	719	1
2026-02-12	15:02:38.530	-5.005	-2.765	6.02	0.636108	0.37576	0.695888	-0.063	-0.1965	0.1845	0	16	719	1
2026-02-12	15:02:38.550	-5.635	-2.87	4.97	0.636108	0.37454	0.693448	-0.0645	-0.195	0.1815	0	16	719	1
2026-02-12	15:02:38.570	-5.88	-3.01	4.13	0.63074	0.371856	0.69296	-0.06	-0.1935	0.1845	0	16	719	1
2026-02-12	15:02:38.590	-5.74	-3.255	3.57	0.639768	0.367952	0.692472	-0.0555	-0.192	0.189	0	16	719	1
2026-02-12	15:02:38.610	-6.23	-3.255	3.535	0.641476	0.37332	0.700524	-0.0555	-0.192	0.1845	0	16	715	1
2026-02-12	15:02:38.630	-6.23	-2.73	3.745	0.641964	0.374296	0.692472	-0.0585	-0.192	0.1815	0	16	715	1
2026-02-12	15:02:38.650	-5.075	-2.065	4.095	0.643184	0.3782	0.688812	-0.0615	-0.195	0.1815	0	16	715	1
2026-02-12	15:02:38.670	-4.515	-1.68	4.445	0.646844	0.372344	0.683444	-0.06	-0.1965	0.1815	0	16	715	1
2026-02-12	15:02:38.690	-4.2	-1.4	4.865	0.650504	0.371368	0.684664	-0.0675	-0.189	0.189	0	16	715	1
2026-02-12	15:02:38.710	-3.85	-0.7	5.39	0.645868	0.369416	0.68564	-0.066	-0.198	0.1845	0	16	715	1
2026-02-12	15:02:38.730	-3.115	0.14	5.915	0.644892	0.367464	0.681736	-0.0675	-0.1875	0.1875	0	16	715	1
2026-02-12	15:02:38.750	-2.275	0.735	6.475	0.650504	0.366732	0.6832	-0.0645	-0.192	0.189	0	16	715	1
2026-02-12	15:02:38.770	-2.345	1.295	7.245	0.651968	0.36722	0.687836	-0.0675	-0.183	0.1875	0	16	715	1
2026-02-12	15:02:38.790	-2.415	1.925	7.84	0.654164	0.36722	0.68198	-0.072	-0.1845	0.1815	0	16	715	1
2026-02-12	15:02:38.810	-1.855	2.52	8.19	0.646844	0.37088	0.67832	-0.0735	-0.186	0.1785	0	17	711	1
2026-02-12	15:02:38.830	-1.365	2.835	8.33	0.650748	0.364536	0.679052	-0.063	-0.183	0.1875	0	17	711	1
2026-02-12	15:02:38.850	-1.155	3.08	8.435	0.652944	0.358924	0.678564	-0.066	-0.1785	0.1755	0	17	711	1
2026-02-12	15:02:38.870	-1.155	3.255	8.54	0.65148	0.357948	0.68076	-0.0735	-0.1815	0.177	0	17	711	1
2026-02-12	15:02:38.890	-1.12	3.325	8.61	0.65148	0.354776	0.678076	-0.0705	-0.177	0.1815	0	17	711	1
2026-02-12	15:02:38.910	-0.7	3.36	8.54	0.648308	0.355996	0.685396	-0.0705	-0.18	0.1815	0	17	711	1
2026-02-12	15:02:38.930	-0.63	3.675	8.365	0.648308	0.349408	0.685884	-0.0705	-0.1845	0.183	0	17	711	1
2026-02-12	15:02:38.950	0.035	3.955	8.155	0.650992	0.349896	0.688324	-0.0645	-0.1785	0.1875	0	17	711	1
2026-02-12	15:02:38.970	0.77	4.165	7.805	0.644404	0.34648	0.694668	-0.075	-0.1845	0.177	0	17	711	1
2026-02-12	15:02:38.990	0.21	4.06	7.63	0.650992	0.341844	0.693936	-0.0675	-0.1755	0.1845	0	17	711	1
2026-02-12	15:02:39.010	-0.175	3.955	7.63	0.653432	0.341112	0.690764	-0.069	-0.177	0.1785	0	18	708	1
2026-02-12	15:02:39.030	0.455	3.78	7.665	0.652944	0.346236	0.691984	-0.075	-0.171	0.1875	0	18	708	1
2026-02-12	15:02:39.050	1.33	3.5	7.56	0.649772	0.33916	0.697108	-0.0735	-0.174	0.1725	0	18	708	1
2026-02-12	15:02:39.070	1.4	3.185	7.175	0.650748	0.335744	0.700036	-0.0705	-0.1725	0.1815	0	18	708	1
2026-02-12	15:02:39.090	1.4	2.8	6.405	0.654408	0.329888	0.694668	-0.0855	-0.1725	0.183	0	18	708	1
2026-02-12	15:02:39.110	1.54	2.31	5.565	0.651236	0.325984	0.696132	-0.0825	-0.168	0.18	0	18	708	1
2026-02-12	15:02:39.130	1.19	1.785	4.62	0.65514	0.32086	0.701012	-0.0825	-0.177	0.1875	0	18	708	1
2026-02-12	15:02:39.150	1.225	1.54	3.36	0.651236	0.324276	0.700524	-0.0855	-0.1815	0.1755	0	18	708	1
2026-02-12	15:02:39.170	1.54	1.05	1.855	0.650504	0.318908	0.6954	-0.084	-0.171	0.177	0	18	708	1
2026-02-12	15:02:39.190	0.875	0	-0.035	0.649772	0.317688	0.712968	-0.081	-0.171	0.189	0	18	708	1
2026-02-12	15:02:39.210	-0.805	-0.945	-1.68	0.655872	0.31354	0.709308	-0.081	-0.174	0.186	0	19	707	1
2026-02-12	15:02:39.230	-1.645	-1.75	-2.73	0.6588	0.319884	0.701744	-0.0825	-0.174	0.183	0	19	707	1
2026-02-12	15:02:39.250	-1.89	-2.415	-3.675	0.655628	0.324276	0.704672	-0.081	-0.1725	0.1815	0	19	707	1
2026-02-12	15:02:39.270	-2.415	-2.87	-4.48	0.654408	0.32696	0.706624	-0.078	-0.1725	0.18	0	19	707	1
2026-02-12	15:02:39.290	-2.695	-3.15	-4.935	0.650992	0.33306	0.694424	-0.0825	-0.171	0.1815	0	19	707	1
2026-02-12	15:02:39.310	-2.485	-3.185	-5.215	0.654164	0.336964	0.683932	-0.0825	-0.168	0.1755	0	19	707	1
2026-02-12	15:02:39.330	-1.68	-3.22	-5.495	0.652456	0.33428	0.689056	-0.078	-0.171	0.177	0	19	707	1
2026-02-12	15:02:39.350	-1.365	-3.22	-5.53	0.648552	0.332084	0.691252	-0.0765	-0.1725	0.1815	0	19	707	1
2026-02-12	15:02:39.370	-1.575	-3.29	-5.46	0.650504	0.332572	0.694668	-0.075	-0.1755	0.1785	0	19	707	1
2026-02-12	15:02:39.390	-1.505	-3.395	-5.355	0.650992	0.33672	0.690764	-0.0765	-0.18	0.177	0	19	707	1
2026-02-12	15:02:37.410	-0.21	-3.395	-3.045	0.594384	0.40382	0.71126	-0.0465	-0.1995	0.174	0	18	723	1
2026-02-12	15:02:37.430	0.035	-3.43	-3.465	0.592676	0.400648	0.709308	-0.0435	-0.2055	0.1725	0	18	723	1
2026-02-12	15:02:37.450	0.42	-3.605	-3.815	0.594384	0.400892	0.71004	-0.042	-0.2085	0.1755	0	18	723	1
2026-02-12	15:02:37.470	0.63	-3.815	-4.2	0.59536	0.40138	0.71004	-0.0435	-0.204	0.1755	0	18	723	1
2026-02-12	15:02:37.490	0.7	-3.815	-4.445	0.594384	0.4026	0.715164	-0.0405	-0.1995	0.1725	0	18	723	1
2026-02-12	15:02:37.510	0.665	-3.605	-4.55	0.596092	0.404308	0.712724	-0.039	-0.1935	0.174	0	18	723	1
2026-02-12	15:02:37.530	0.56	-3.01	-4.515	0.59536	0.404064	0.708088	-0.039	-0.1935	0.177	0	18	723	1
2026-02-12	15:02:37.550	0.385	-1.925	-4.585	0.591944	0.401624	0.702232	-0.039	-0.201	0.1755	0	18	723	1
2026-02-12	15:02:37.570	0	-0.245	-4.865	0.583892	0.403088	0.706136	-0.045	-0.2055	0.1755	0	18	723	1
2026-02-12	15:02:37.590	-0.49	0.805	-4.76	0.588772	0.41236	0.704184	-0.0465	-0.2055	0.177	0	18	723	1
2026-02-12	15:02:37.610	-0.28	0.735	-3.99	0.594872	0.410652	0.715896	-0.0495	-0.204	0.177	0	18	725	1
2026-02-12	15:02:37.630	-0.105	0.035	-2.52	0.599752	0.415532	0.727608	-0.042	-0.201	0.1755	0	18	725	1
2026-02-12	15:02:37.650	-0.7	-1.155	-0.42	0.605608	0.41602	0.728584	-0.045	-0.1995	0.18	0	18	725	1
2026-02-12	15:02:37.670	-1.155	-2.415	1.61	0.602436	0.417728	0.72102	-0.039	-0.1995	0.174	0	18	725	1
2026-02-12	15:02:37.690	-0.91	-3.395	3.22	0.594872	0.419436	0.708576	-0.0405	-0.2115	0.171	0	18	725	1
2026-02-12	15:02:37.710	-0.175	-3.99	4.235	0.59048	0.408456	0.703208	-0.0345	-0.204	0.1755	0	18	725	1
2026-02-12	15:02:37.730	0.07	-4.095	4.865	0.591212	0.404796	0.70028	-0.0465	-0.204	0.177	0	18	725	1
2026-02-12	15:02:37.750	0.175	-3.78	4.9	0.59048	0.400404	0.698572	-0.0405	-0.204	0.1695	0	18	725	1
2026-02-12	15:02:37.770	0.525	-3.15	4.515	0.58682	0.399672	0.703452	-0.039	-0.1995	0.1815	0	18	725	1
2026-02-12	15:02:37.790	0.945	-2.66	3.71	0.589992	0.401136	0.702476	-0.0525	-0.2055	0.1785	0	18	725	1
2026-02-12	15:02:37.810	1.155	-2.24	2.8	0.59414	0.396012	0.703696	-0.0465	-0.204	0.177	0	17	726	1
2026-02-12	15:02:37.830	1.12	-1.995	1.925	0.597068	0.393816	0.704184	-0.0465	-0.2025	0.177	0	17	726	1
2026-02-12	15:02:37.850	1.015	-1.995	0.875	0.604388	0.398208	0.706868	-0.0525	-0.2025	0.18	0	17	726	1
2026-02-12	15:02:37.870	0.595	-2.17	0.245	0.603656	0.396744	0.707844	-0.0525	-0.2025	0.18	0	17	726	1
2026-02-12	15:02:37.890	0.315	-2.275	-0.28	0.602436	0.39894	0.70272	-0.0525	-0.201	0.186	0	17	726	1
2026-02-12	15:02:37.910	0.21	-2.415	-0.735	0.604876	0.401868	0.700524	-0.0465	-0.198	0.1755	0	17	726	1
2026-02-12	15:02:37.930	-0.07	-2.765	-0.98	0.610488	0.400892	0.700524	-0.054	-0.1995	0.1845	0	17	726	1
2026-02-12	15:02:37.950	-0.21	-3.185	-1.155	0.614392	0.399184	0.696132	-0.0435	-0.1995	0.177	0	17	726	1
2026-02-12	15:02:37.970	0	-3.465	-1.4	0.605608	0.404552	0.692716	-0.0435	-0.195	0.1815	0	17	726	1
2026-02-12	15:02:37.990	0.385	-3.5	-1.715	0.600484	0.4087	0.698572	-0.0465	-0.1965	0.1785	0	17	726	1
2026-02-12	15:02:38.010	0.21	-3.22	-2.135	0.605852	0.401868	0.69296	-0.0465	-0.1965	0.1785	0	17	725	1
2026-02-12	15:02:38.030	0	-3.01	-2.415	0.608048	0.405528	0.69174	-0.0495	-0.1995	0.177	0	17	725	1
2026-02-12	15:02:38.050	-0.07	-2.905	-2.8	0.605364	0.410164	0.691496	-0.036	-0.207	0.1755	0	17	725	1
2026-02-12	15:02:38.070	0	-3.15	-3.255	0.608536	0.41358	0.69418	-0.0495	-0.2025	0.1785	0	17	725	1
2026-02-12	15:02:38.090	-0.07	-3.675	-3.535	0.61	0.418216	0.697596	-0.0435	-0.204	0.1845	0	17	725	1
2026-02-12	15:02:38.110	-0.455	-4.235	-3.815	0.609268	0.424316	0.693448	-0.048	-0.1965	0.18	0	17	725	1
2026-02-12	15:02:38.130	0	-4.585	-3.885	0.60512	0.412116	0.69418	-0.051	-0.1965	0.18	0	17	725	1
2026-02-12	15:02:38.150	1.47	-4.55	-3.36	0.61976	0.39284	0.723948	-0.0465	-0.1995	0.183	0	17	725	1
2026-02-12	15:02:38.170	2.345	-4.375	-2.03	0.630496	0.375028	0.741516	-0.0435	-0.204	0.186	0	17	725	1
2026-02-12	15:02:38.190	2.45	-4.34	-0.63	0.624396	0.380396	0.722728	-0.0465	-0.2055	0.1845	0	17	725	1
2026-02-12	15:02:58.210	-20.965	-59.71	83.545	0.666608	-0.022936	0.338428	0.0615	0.015	-0.0255	0	463	214	3
2026-02-12	15:02:58.230	-48.16	-66.605	92.085	0.816424	0.385764	0.297924	0.057	0.018	-0.018	0	463	214	3
2026-02-12	15:02:58.250	-33.495	-79.59	85.89	0.71736	0.30744	-0.006344	0.042	0.0255	-0.012	0	463	214	3
2026-02-12	15:02:58.270	83.23	-93.205	75.005	0.691252	0.010004	-0.344772	0.027	0.036	-0.009	0	463	214	3
2026-02-12	15:02:58.290	140.35	-96.005	89.915	1.218048	0.833016	0.056852	0.012	0.039	-0.0015	0	463	214	3
2026-02-12	15:02:58.310	-40.565	-105.735	105.525	1.763144	0.412116	0.96502	0	0.0345	0.009	0	463	214	3
2026-02-12	15:02:58.330	-74.9	-93.38	94.78	0.634644	0.007076	0.955504	-0.003	0.0345	0.0165	0	463	214	3
2026-02-12	15:02:58.350	-6.02	-66.815	51.73	0.552172	1.041392	0.738344	-0.003	0.0345	0.0165	0	463	214	3
2026-02-12	15:02:58.370	9.8	-78.505	45.325	0.6466	0.291336	0.551684	-0.039	0.0735	0.03	0	463	214	3
2026-02-12	15:02:58.390	-14.105	-71.26	52.08	0.844484	0.330864	0.533628	-0.0525	0.0675	0.027	0	463	214	3
2026-02-12	15:02:58.410	-5.04	-59.325	46.55	0.833748	0.327204	0.615368	-0.0705	0.0795	0.042	0	478	261	3
2026-02-12	15:02:58.430	1.645	-51.8	36.155	0.882792	0.087108	0.584624	-0.0735	0.09	0.0525	0	478	261	3
2026-02-12	15:02:58.450	25.725	-35.455	20.02	0.830088	0.304756	0.482388	-0.084	0.09	0.0615	0	478	261	3
2026-02-12	15:02:58.470	35.42	-23.695	11.025	0.816912	0.32208	0.512644	-0.0795	0.093	0.0615	0	478	261	3
2026-02-12	15:02:58.490	28.805	-16.59	4.445	0.824476	0.282552	0.543144	-0.087	0.0915	0.0585	0	478	261	3
2026-02-12	15:02:58.510	30.345	-6.755	-2.905	0.833504	0.252296	0.450912	-0.0795	0.0795	0.0645	0	478	261	3
2026-02-12	15:02:58.530	41.055	9.38	-13.825	0.798612	0.180316	0.386984	-0.0885	0.0705	0.054	0	478	261	3
2026-02-12	15:02:58.550	55.65	23.59	-21.98	0.809592	0.372588	0.447984	-0.081	0.078	0.069	0	478	261	3
2026-02-12	15:02:58.570	59.395	27.72	-22.19	0.79056	0.382104	0.535092	-0.084	0.0675	0.066	0	478	261	3
2026-02-12	15:02:58.590	49.455	30.1	-17.745	0.792512	0.445544	0.641476	-0.0795	0.0585	0.06	0	478	261	3
2026-02-12	15:02:58.610	33.95	24.36	-16.485	0.72712	0.296216	0.454084	-0.0795	0.0585	0.06	0	482	314	3
2026-02-12	15:02:58.630	30.205	21.945	-16.94	0.748348	0.46238	0.65392	-0.0765	0.0495	0.0615	0	482	314	3
2026-02-12	15:02:58.650	17.71	8.995	-15.89	0.791536	0.313052	0.67832	-0.069	0.0345	0.0555	0	482	314	3
2026-02-12	15:02:58.670	17.745	1.715	-21.28	0.732488	0.425292	0.530944	-0.0675	0.0345	0.051	0	482	314	3
2026-02-12	15:02:58.690	18.41	-5.32	-24.22	0.693204	0.46238	0.488976	-0.0705	0.0345	0.0555	0	482	314	3
2026-02-12	15:02:58.710	18.06	-17.675	-25.375	0.701256	0.377712	0.661972	-0.0705	0.0285	0.0585	0	482	314	3
2026-02-12	15:02:58.730	-3.605	-41.195	-29.295	0.811544	0.224236	0.769576	-0.0705	0.027	0.0615	0	482	314	3
2026-02-12	15:02:58.750	-4.095	-60.725	-33.565	0.741272	0.521428	0.54778	-0.072	0.024	0.06	0	482	314	3
2026-02-12	15:02:58.770	2.1	-70.525	-22.19	0.711992	0.591944	0.416996	-0.081	0.0165	0.0615	0	482	314	3
2026-02-12	15:02:58.790	15.225	-74.69	-6.405	0.756888	0.471408	0.459452	-0.087	0.012	0.069	0	482	314	3
2026-02-12	15:02:58.810	17.675	-75.005	5.915	0.79788	0.47946	0.354776	-0.09	0.015	0.078	0	472	369	3
2026-02-12	15:02:58.830	22.75	-68.005	16.73	0.80886	0.559248	0.344284	-0.102	0.015	0.0885	0	472	369	3
2026-02-12	15:02:58.850	30.415	-62.335	28.49	0.817888	0.493368	0.36112	-0.1065	0.0135	0.1005	0	472	369	3
2026-02-12	15:02:58.870	31.15	-62.58	34.16	0.833748	0.387716	0.392352	-0.117	0.012	0.1035	0	472	369	3
2026-02-12	15:02:58.890	26.74	-68.285	36.155	0.848388	0.434808	0.36356	-0.123	0.012	0.1065	0	472	369	3
2026-02-12	15:02:58.910	27.37	-71.365	39.865	0.87596	0.46238	0.341844	-0.1335	0.012	0.117	0	472	369	3
2026-02-12	15:02:58.930	30.205	-75.53	46.13	0.876204	0.398208	0.323056	-0.141	0.015	0.1275	0	472	369	3
2026-02-12	15:02:58.950	27.72	-80.92	51.905	0.901824	0.40748	0.358192	-0.144	0.015	0.1365	0	472	369	3
2026-02-12	15:02:58.970	30.625	-85.855	58.625	0.9089	0.417484	0.26962	-0.1485	0.0165	0.147	0	472	369	3
2026-02-12	15:02:58.990	36.435	-85.435	63.875	0.929396	0.362828	0.198372	-0.159	0.027	0.1575	0	472	369	3
2026-02-12	15:02:59.010	46.025	-81.55	69.09	0.975512	0.372344	0.23058	-0.1695	0.0345	0.1695	0	452	399	3
2026-02-12	15:02:59.030	42	-79.24	79.1	0.998936	0.343796	0.199348	-0.1755	0.0435	0.1845	0	452	399	3
2026-02-12	15:02:59.050	31.255	-73.85	90.125	1.007232	0.321836	0.044652	-0.183	0.0525	0.198	0	452	399	3
2026-02-12	15:02:59.070	35.175	-66.465	99.855	1.01138	0.373076	-0.114924	-0.189	0.0585	0.204	0	452	399	3
2026-02-12	15:02:59.090	65.52	-67.725	109.655	1.114836	0.460916	-0.049776	-0.1935	0.0705	0.2145	0	452	399	3
2026-02-12	15:02:59.110	94.36	-74.69	109.55	1.296128	0.427244	0.046116	-0.201	0.081	0.2295	0	452	399	3
2026-02-12	15:02:59.130	119.91	-71.82	98.525	1.311012	0.305976	0.048312	-0.2055	0.084	0.2385	0	452	399	3
2026-02-12	15:02:59.150	74.655	-73.08	92.645	1.105076	0.052704	0.147376	-0.2055	0.0855	0.2415	0	452	399	3
2026-02-12	15:02:59.170	24.745	-74.375	94.64	1.049688	-0.067832	0.201056	-0.213	0.117	0.2685	0	452	399	3
2026-02-12	15:02:59.190	-8.96	-73.71	98.805	1.139968	-0.076372	-0.208376	-0.222	0.123	0.2745	0	452	399	3
2026-02-12	15:02:59.210	-19.425	-76.685	101.255	1.122156	0.137128	0.09076799	-0.213	0.1485	0.2925	0	428	376	3
2026-02-12	15:02:59.230	-15.225	-70.315	90.055	1.155828	0.131028	0.061976	-0.2175	0.162	0.3	0	428	376	3
2026-02-12	15:02:59.250	-8.715	-62.02	83.16	1.138992	0.170068	0.082472	-0.2265	0.1725	0.3165	0	428	376	3
2026-02-12	15:02:59.270	39.865	-49.595	57.575	1.181448	0.278892	0.076128	-0.225	0.1815	0.318	0	428	376	3
2026-02-12	15:02:59.290	182.07	-24.185	1.96	1.294176	0.359656	0.115168	-0.2205	0.1905	0.3255	0	428	376	3
2026-02-12	15:02:59.310	320.6	13.58	-69.02	1.323212	0.376492	-0.09272	-0.2295	0.1875	0.33	0	428	376	3
2026-02-12	15:02:59.330	325.115	47.355	-122.57	1.335168	0.984784	-0.19642	-0.2265	0.162	0.3225	0	428	376	3
2026-02-12	15:02:59.350	128.905	43.82	-161.35	1.459852	1.511092	-0.190564	-0.231	0.1425	0.303	0	428	376	3
2026-02-12	15:02:59.370	15.575	40.565	-218.68	1.500844	1.245132	0.027328	-0.2295	0.1245	0.2895	0	428	376	3
2026-02-12	15:02:59.390	25.06	55.09	-267.575	1.334924	0.976244	0.201056	-0.234	0.1065	0.2835	0	428	376	3
2026-02-12	15:02:59.410	18.48	73.955	-276.08	1.126548	0.367952	0.247416	-0.2385	0.0885	0.2775	0	409	313	3
2026-02-12	15:02:59.430	-24.395	92.26	-245.56	1.033828	0.320372	0.297436	-0.2385	0.0885	0.2775	0	409	313	3
2026-02-12	15:02:59.450	-86.73	105.875	-218.155	0.98454	0.495076	0.24644	-0.213	-0.0255	0.2475	0	409	313	3
2026-02-12	15:02:59.470	-156.31	115.15	-194.495	0.906948	0.521916	0.151768	-0.2055	-0.057	0.225	0	409	313	3
2026-02-12	15:02:59.490	-194.075	116.69	-175.455	0.893528	0.59902	0.083204	-0.18	-0.072	0.195	0	409	313	3
2026-02-12	15:02:59.510	-192.71	111.23	-160.265	0.88084	0.585112	0.116632	-0.1635	-0.0885	0.1665	0	409	313	3
2026-02-12	15:02:59.530	-161.91	108.78	-148.89	0.817888	0.543632	0.173728	-0.1485	-0.099	0.1425	0	409	313	3
2026-02-12	15:02:59.550	-134.505	112.665	-142.45	0.688812	0.502152	0.283528	-0.132	-0.1035	0.123	0	409	313	3
2026-02-12	15:02:59.570	-125.3	107.975	-139.86	0.60634	0.46482	0.323544	-0.108	-0.1065	0.0885	0	409	313	3
2026-02-12	15:02:59.590	-129.535	98.7	-134.015	0.697596	0.432612	0.442128	-0.084	-0.1185	0.069	0	409	313	3
2026-02-12	15:02:59.610	-167.195	91.49	-113.155	0.784216	0.457256	0.564616	-0.06	-0.1035	0.0555	0	396	257	3
2026-02-12	15:02:59.630	-198.065	86.485	-86.24	0.731756	0.30256	0.483852	-0.054	-0.1095	0.0285	0	396	257	3
2026-02-12	15:02:59.650	-157.115	80.15	-66.01	0.6649	0.072468	0.367952	-0.0255	-0.093	0.0045	0	396	257	3
2026-02-12	15:02:59.670	13.23	64.085	-40.95	0.778848	-0.306952	0.122488	-0.012	-0.081	-0.0045	0	396	257	3
2026-02-12	15:02:59.690	140.945	71.75	-3.885	0.87474	0.2806	0.260104	-0.012	-0.081	-0.0045	0	396	257	3
2026-02-12	15:02:59.710	35.07	54.18	21.875	0.629032	0.53802	0.36356	0	-0.0945	-0.012	0	396	257	3
2026-02-12	15:02:59.730	-28.07	31.99	25.795	0.580476	0.382592	0.270596	0.0165	-0.1095	-0.018	0	396	257	3
2026-02-12	15:02:59.750	-5.18	24.185	28.175	0.578036	0.448472	-0.314028	0.0195	-0.1035	-0.018	0	396	257	3
2026-02-12	15:02:59.770	100.975	-0.735	22.925	0.7991	0.08686399	-0.9821	0.021	-0.102	-0.018	0	396	257	3
2026-02-12	15:02:59.790	73.045	-40.635	72.835	2.0679	-0.358192	-0.646844	0.0195	-0.1125	-0.009	0	396	257	3
2026-02-12	15:02:59.810	-61.495	-96.075	91.735	3.049024	-0.367708	0.787632	0.015	-0.1095	-0.003	0	393	229	3
2026-02-12	15:02:59.830	111.965	-8.47	-3.43	0.354044	0.091988	0.979904	0	-0.105	-0.003	0	393	229	3
2026-02-12	15:02:59.850	126.07	2.485	7.07	-0.18666	1.269288	0.149084	-0.009	-0.1155	0.006	0	393	229	3
2026-02-12	15:02:59.870	60.9	-21.35	-0.035	-0.060512	0.870348	0.414556	-0.0045	-0.1275	0.0165	0	393	229	3
2026-02-12	15:02:59.890	-16.275	-43.155	8.225	0.691252	0.432856	0.319396	-0.009	-0.1335	0.018	0	393	229	3
2026-02-12	15:02:59.910	-5.285	-36.61	3.57	0.691984	0.456768	0.468968	-0.0135	-0.132	0.021	0	393	229	3
2026-02-12	15:02:59.930	-3.36	-33.04	-0.84	0.619516	0.706136	0.59414	-0.0195	-0.1305	0.0285	0	393	229	3
2026-02-12	15:02:59.950	6.72	-34.16	-9.695	0.684176	0.684664	0.476288	-0.0255	-0.132	0.0285	0	393	229	3
2026-02-12	15:02:59.970	3.815	-38.36	-9.695	0.673928	0.666852	0.418216	-0.027	-0.132	0.027	0	393	229	3
2026-02-12	15:02:59.990	5.6	-39.48	-7.14	0.603412	0.620248	0.47946	-0.033	-0.135	0.03	0	393	229	3
2026-02-12	15:03:00.010	9.135	-37.065	-0.595	0.623664	0.691984	0.461648	-0.036	-0.1395	0.0345	0	406	228	3
2026-02-12	15:03:00.030	19.215	-35.28	4.095	0.624396	0.60634	0.382592	-0.0345	-0.141	0.039	0	406	228	3
2026-02-12	15:03:00.050	37.135	-34.545	5.81	0.6588	0.655872	0.3538	-0.0405	-0.144	0.0435	0	406	228	3
2026-02-12	15:03:00.070	55.65	-40.18	6.65	0.647088	0.522404	0.521184	-0.0495	-0.1455	0.051	0	406	228	3
2026-02-12	15:03:00.090	69.16	-42.77	17.675	0.90036	0.490196	0.536312	-0.057	-0.15	0.06	0	406	228	3
2026-02-12	15:03:00.110	93.73	-31.535	30.345	0.654896	0.719068	0.175436	-0.0615	-0.156	0.0645	0	406	228	3
2026-02-12	15:03:00.130	104.335	-38.745	31.395	0.39772	1.029436	0.23058	-0.066	-0.156	0.078	0	406	228	3
2026-02-12	15:03:00.150	70.35	-63.98	38.5	0.641964	0.880596	0.309636	-0.0735	-0.162	0.0915	0	406	228	3
2026-02-12	15:03:00.170	41.965	-69.195	50.645	0.615612	0.899628	0.195932	-0.0855	-0.1665	0.102	0	406	228	3
2026-02-12	15:03:00.190	14.875	-68.11	57.855	0.730536	0.732732	0.199104	-0.0975	-0.1665	0.1155	0	406	228	3
2026-02-12	15:03:00.210	4.375	-59.745	68.74	0.712724	0.758596	0.159088	-0.111	-0.1665	0.1245	0	425	252	3
2026-02-12	15:03:00.230	5.39	-52.15	70.945	0.786656	0.670268	0.117608	-0.12	-0.1665	0.1305	0	425	252	3
2026-02-12	15:03:00.250	11.235	-40.355	70.175	0.772016	0.689056	-0.055144	-0.123	-0.15	0.144	0	425	252	3
2026-02-12	15:03:00.270	33.88	-34.65	70.735	0.7503	0.687592	0.2196	-0.147	-0.1365	0.1485	0	425	252	3
2026-02-12	15:03:00.290	21.84	-50.225	73.395	0.848876	0.548512	0.254248	-0.1515	-0.144	0.159	0	425	252	3
2026-02-12	15:03:00.310	-4.025	-56.595	79.87	0.812032	0.640012	0.056608	-0.162	-0.126	0.162	0	425	252	3
2026-02-12	15:03:00.330	-23.835	-49.77	89.215	0.885232	0.487024	0.081496	-0.171	-0.1155	0.174	0	425	252	3
2026-02-12	15:03:00.350	-26.845	-36.96	92.155	0.867664	0.482144	0.06734399	-0.177	-0.1035	0.174	0	425	252	3
2026-02-12	15:03:00.370	-24.78	-27.125	94.92	0.930128	0.432124	0.09516	-0.1935	-0.09	0.177	0	425	252	3
2026-02-12	15:03:00.390	-20.72	-16.87	97.265	0.884744	0.544852	-0.034892	-0.2025	-0.075	0.183	0	425	252	3
2026-02-12	15:03:00.410	-0.595	-14.98	101.115	0.870836	0.434564	0.098332	-0.2085	-0.0645	0.174	0	438	257	3
2026-02-12	15:03:00.430	-1.82	-25.41	101.955	0.9455	0.310612	0.167628	-0.207	-0.054	0.186	0	438	257	3
2026-02-12	15:03:00.450	-9.66	-31.57	96.355	0.971608	0.293776	0.066612	-0.21	-0.0285	0.192	0	438	257	3
2026-02-12	15:03:00.470	-13.09	-30.59	85.435	0.943548	0.276208	0.051972	-0.2235	-0.0285	0.1995	0	438	257	3
2026-02-12	15:03:00.490	-4.41	-30.695	84.595	0.957212	0.34038	-0.059292	-0.2295	-0.0075	0.201	0	438	257	3
2026-02-12	15:03:00.510	-4.48	-25.865	84.665	0.965752	0.19642	0.01586	-0.234	0.0075	0.2055	0	438	257	3
2026-02-12	15:03:00.530	-3.22	-18.585	76.3	0.942084	0.142008	-0.067588	-0.2385	0.024	0.21	0	438	257	3
2026-02-12	15:03:00.550	4.235	-11.095	70.525	0.976	0.242292	-0.060268	-0.24	0.027	0.2115	0	438	257	3
2026-02-12	15:03:00.570	19.88	-5.88	75.145	1.058716	0.221308	0.104432	-0.243	0.0435	0.216	0	438	257	3
2026-02-12	15:03:00.590	27.335	-6.65	70.805	1.047004	0.035868	0.134932	-0.2415	0.0435	0.2145	0	438	257	3
2026-02-12	15:03:00.610	20.195	-5.005	58.1	1.002108	0.026352	0.083936	-0.243	0.0645	0.2145	0	442	229	3
2026-02-12	15:03:00.630	2.695	-3.08	56.84	1.014796	0.222772	-0.025376	-0.2445	0.0645	0.2205	0	442	229	3
2026-02-12	15:03:00.650	10.99	-5.74	66.745	1.03212	0.174948	-0.023912	-0.2475	0.072	0.222	0	442	229	3
2026-02-12	15:03:00.670	22.645	-7.875	73.325	1.075552	0.069784	0.091256	-0.249	0.087	0.225	0	442	229	3
2026-02-12	15:03:00.690	16.59	-11.305	77.21	1.038708	0.034404	0.04148	-0.2385	0.096	0.219	0	442	229	3
2026-02-12	15:03:00.710	10.5	-10.955	89.635	0.979416	0.161284	-0.073688	-0.2355	0.108	0.225	0	442	229	3
2026-02-12	15:03:00.730	21.91	-5.565	106.96	1.076284	0.043432	-0.049532	-0.2475	0.1185	0.234	0	442	229	3
2026-02-12	15:03:00.750	21	-0.98	124.495	1.106784	-0.014152	0.0366	-0.2475	0.1275	0.2235	0	442	229	3
2026-02-12	15:03:00.770	2.555	1.645	140.49	1.16998	-0.017324	0.01098	-0.2475	0.1275	0.2235	0	442	229	3
2026-02-12	15:03:00.790	-14.385	-3.64	158.935	1.324432	-0.01586	0.010004	-0.24	0.1635	0.228	0	442	229	3
2026-02-12	15:03:00.810	-37.135	-21.42	174.23	1.425448	0.046604	-0.127856	-0.2325	0.2085	0.231	0	439	182	2
2026-02-12	15:03:00.830	-62.615	-48.895	163.17	1.504504	0.174948	-0.252052	-0.231	0.231	0.2355	0	439	182	2
2026-02-12	15:03:00.850	-68.845	-62.825	119.805	1.57502	0.15616	-0.317444	-0.225	0.2595	0.246	0	439	182	2
2026-02-12	15:03:00.870	-33.985	-49.91	63.91	1.582096	-0.152012	-0.013176	-0.2175	0.285	0.261	0	439	182	2
2026-02-12	15:03:00.890	36.085	-20.335	11.48	1.270752	-0.024156	0.142252	-0.213	0.2955	0.27	0	439	182	2
2026-02-12	15:03:00.910	80.395	-7.42	-3.43	1.288808	-0.361852	0.211792	-0.213	0.291	0.2685	0	439	182	2
2026-02-12	15:03:00.930	101.185	6.755	-9.73	1.30174	-0.400648	0.244732	-0.216	0.2925	0.267	0	439	182	2
2026-02-12	15:03:00.950	164.115	22.995	-30.94	1.063596	-0.382348	0.147376	-0.216	0.291	0.2595	0	439	182	2
2026-02-12	15:03:00.970	174.44	18.48	-44.66	0.869128	-0.213256	-0.078324	-0.21	0.2775	0.249	0	439	182	2
2026-02-12	15:03:00.990	130.9	5.53	-58.38	0.863028	0.002928	-0.10126	-0.207	0.264	0.2355	0	439	182	2
2026-02-12	15:03:01.010	87.605	-6.965	-78.75	0.89426	-0.100528	-0.100284	-0.2085	0.2475	0.2265	0	434	133	3
2026-02-12	15:03:01.030	87.85	-11.445	-111.93	1.03578	-0.17934	0.116144	-0.2115	0.237	0.2265	0	434	133	3
2026-02-12	15:03:01.050	112.42	-2.765	-131.005	0.997228	-0.257664	0.155916	-0.2115	0.237	0.2265	0	434	133	3
2026-02-12	15:03:01.070	127.645	4.48	-143.78	0.9394	-0.049532	0.151524	-0.231	0.1935	0.2205	0	434	133	3
2026-02-12	15:03:01.090	74.97	-1.225	-153.965	0.919392	0.292068	0.049044	-0.2325	0.1605	0.219	0	434	133	3
2026-02-12	15:03:01.110	-15.715	-12.81	-162.33	0.936228	0.510204	-0.02684	-0.231	0.1365	0.2205	0	434	133	3
2026-02-12	15:03:01.130	-134.4	-25.41	-170.765	1.00528	0.588528	-0.0976	-0.234	0.126	0.2235	0	434	133	3
2026-02-12	15:03:01.150	-207.585	-28.63	-184.59	1.00894	0.503372	-0.025132	-0.234	0.1065	0.225	0	434	133	3
2026-02-12	15:03:01.170	-250.88	-20.09	-195.895	1.056764	0.505568	0.123952	-0.2355	0.0855	0.2235	0	434	133	3
2026-02-12	15:03:01.190	-289.625	0.595	-197.995	1.090924	0.418948	0.235948	-0.2385	0.066	0.222	0	434	133	3
2026-02-12	15:03:01.210	-353.64	34.72	-177.17	1.174128	0.202764	0.519964	-0.2295	0.051	0.219	0	429	100	3
2026-02-12	15:03:01.230	-532.21	72.975	-115.395	0.918172	-0.061244	0.012932	-0.228	0.036	0.21	0	429	100	3
2026-02-12	15:03:01.250	-617.575	72.975	-62.44	0.991372	-0.892796	-0.183732	-0.2235	0.042	0.1905	0	429	100	3
2026-02-12	15:03:01.270	-504.735	107.975	-26.39	0.867908	-0.787144	-0.042456	-0.2115	0.072	0.168	0	429	100	3
2026-02-12	15:03:01.290	-259.945	134.82	-17.675	0.72346	-0.426024	0.110776	-0.195	0.099	0.147	0	429	100	3
2026-02-12	15:03:01.310	-49.91	124.81	-17.5	0.740784	-0.38918	0.155672	-0.1845	0.1095	0.1365	0	429	100	3
2026-02-12	15:03:01.330	69.37	117.46	-16.205	0.823012	-0.18666	0.206912	-0.1575	0.1275	0.105	0	429	100	3
2026-02-12	15:03:01.350	126.14	108.57	-14	0.830332	-0.055388	0.249124	-0.1425	0.1155	0.081	0	429	100	3
2026-02-12	15:03:01.370	150.71	98.455	-11.62	0.823256	-0.003904	0.282308	-0.132	0.1155	0.0735	0	429	100	3
2026-02-12	15:03:01.390	174.405	93.765	-8.61	0.854732	0.065392	0.334768	-0.108	0.0855	0.0585	0	429	100	3
2026-02-12	15:03:01.410	184.765	88.935	-3.29	0.854	0.161528	0.32086	-0.0945	0.063	0.0495	0	426	92	3
2026-02-12	15:03:01.430	185.815	83.09	0.77	0.820816	0.201056	0.294752	-0.0795	0.036	0.039	0	426	92	3
2026-02-12	15:03:01.450	173.81	77.945	4.9	0.783972	0.274988	0.276452	-0.0675	0.018	0.033	0	426	92	3
2026-02-12	15:03:01.470	138.915	69.86	7.7	0.748592	0.345504	0.264252	-0.063	-0.003	0.027	0	426	92	3
2026-02-12	15:03:01.490	95.305	59.71	9.065	0.696132	0.362096	0.282064	-0.042	-0.024	0.015	0	426	92	3
2026-02-12	15:03:01.510	56.77	49.42	9.205	0.679296	0.310124	0.287676	-0.039	-0.0375	0.009	0	426	92	3
2026-02-12	15:03:01.530	34.3	41.58	11.69	0.633668	0.275232	0.283528	-0.027	-0.0405	0.0105	0	426	92	3
2026-02-12	15:03:01.550	26.285	33.285	13.72	0.651724	0.274256	0.274012	-0.0195	-0.0435	0.0015	0	426	92	3
2026-02-12	15:03:01.570	40.635	24.955	14.91	0.671	0.351604	0.22692	-0.012	-0.042	0	0	426	92	3
2026-02-12	15:03:01.590	60.865	18.515	14.21	0.685152	0.354532	0.176412	-0.0135	-0.045	-0.0045	0	426	92	3
2026-02-12	15:03:01.610	85.155	10.85	14.385	0.718092	0.353068	0.111508	-0.012	-0.0495	-0.009	0	423	112	3
2026-02-12	15:03:01.630	111.335	0.35	18.375	0.816668	0.3721	0.097844	-0.0135	-0.054	-0.006	0	423	112	3
2026-02-12	15:03:01.650	134.505	-10.5	26.53	0.933544	0.430172	0.150792	-0.0165	-0.063	-0.0015	0	423	112	3
2026-02-12	15:03:01.670	155.015	-21.455	34.965	0.98698	0.510204	0.220576	-0.0225	-0.075	0.0045	0	423	112	3
2026-02-12	15:03:01.690	167.23	-30.485	38.36	0.957944	0.586088	0.35746	-0.0285	-0.09	0.0165	0	423	112	3
2026-02-12	15:03:01.710	150.605	-30.905	37.345	0.887184	0.658068	0.539728	-0.03	-0.099	0.024	0	423	112	3
2026-02-12	15:03:01.730	108.255	-24.955	30.94	0.874008	0.64538	0.630008	-0.0435	-0.1095	0.045	0	423	112	3
2026-02-12	15:03:01.750	64.505	-16.52	21.21	0.944524	0.6405	0.546072	-0.0465	-0.117	0.0555	0	423	112	3
2026-02-12	15:03:01.770	41.51	-7.315	9.94	0.986492	0.595848	0.413824	-0.0585	-0.129	0.0585	0	423	112	3
2026-02-12	15:03:01.790	28.805	-1.54	1.225	1.025288	0.592432	0.340868	-0.057	-0.1275	0.057	0	423	112	3
2026-02-12	15:03:01.810	20.475	2.205	-3.78	1.032364	0.581696	0.336476	-0.0555	-0.1305	0.0675	0	420	154	3
2026-02-12	15:03:01.830	5.74	8.015	-3.045	1.078236	0.564128	0.488732	-0.0555	-0.144	0.063	0	420	154	3
2026-02-12	15:03:01.850	-14	21.245	2.695	1.082872	0.478484	0.688812	-0.0555	-0.144	0.063	0	420	154	3
2026-02-12	15:03:01.870	-16.345	37.835	7.98	1.006256	0.320616	0.817156	-0.0555	-0.138	0.0585	0	420	154	3
2026-02-12	15:03:01.890	-1.645	59.5	14.875	0.894748	0.20252	0.84424	-0.0525	-0.129	0.0555	0	420	154	3
2026-02-12	15:03:01.910	40.6	80.115	16.765	0.802516	0.224968	0.794464	-0.048	-0.1275	0.051	0	420	154	3
2026-02-12	15:03:01.930	82.495	97.93	17.22	0.745176	0.328424	0.817888	-0.042	-0.1365	0.045	0	420	154	3
2026-02-12	15:03:01.950	93.45	114.135	20.16	0.73566	0.38552	0.876692	-0.0285	-0.1455	0.0405	0	420	154	3
2026-02-12	15:03:01.970	83.65	130.655	25.83	0.728096	0.409188	0.817644	-0.015	-0.1515	0.036	0	420	154	3
2026-02-12	15:03:01.990	60.06	142.59	32.83	0.741028	0.469456	0.82594	-0.003	-0.162	0.0315	0	420	154	3
2026-02-12	15:03:02.010	10.185	159.6	48.545	0.81252	0.436272	0.876692	0.003	-0.1665	0.027	0	416	236	3
2026-02-12	15:03:02.030	1.925	171.325	58.695	0.846436	0.436272	0.781532	0.018	-0.165	0.018	0	416	236	3
2026-02-12	15:03:02.050	17.745	185.955	68.53	0.788852	0.489708	0.66368	0.0405	-0.1605	0.0045	0	416	236	3
2026-02-12	15:03:02.070	45.745	192.29	71.925	0.721264	0.471408	0.670024	0.06	-0.159	-0.0045	0	416	236	3
2026-02-12	15:03:02.090	73.255	196.525	69.055	0.666608	0.49166	0.702476	0.081	-0.1635	-0.018	0	416	236	3
2026-02-12	15:03:02.110	100.765	185.815	50.715	0.54656	0.521916	0.681248	0.0885	-0.165	-0.0255	0	416	236	3
2026-02-12	15:03:02.130	118.02	175.665	35.035	0.48922	0.539728	0.6649	0.0885	-0.165	-0.0255	0	416	236	3
2026-02-12	15:03:02.150	103.985	166.005	24.08	0.465308	0.623664	0.70028	0.1305	-0.1935	-0.009	0	416	236	3
2026-02-12	15:03:02.170	44.765	147.07	24.22	0.446764	0.549	0.673684	0.15	-0.204	-0.0045	0	416	236	3
2026-02-12	15:03:02.190	1.47	126.315	28.14	0.372588	0.487268	0.588772	0.168	-0.216	-0.0135	0	416	236	3
2026-02-12	15:03:02.210	-15.855	104.335	33.985	0.307684	0.434564	0.537776	0.1755	-0.2175	-0.0045	0	413	346	3
2026-02-12	15:03:02.230	-26.565	81.97	42.805	0.385032	0.446276	0.566324	0.186	-0.2145	-0.021	0	413	346	3
2026-02-12	15:03:02.250	-45.465	62.93	55.755	0.45628	0.474092	0.632936	0.183	-0.2115	-0.027	0	413	346	3
2026-02-12	15:03:02.270	-44.38	49.98	60.9	0.471164	0.513132	0.610244	0.186	-0.207	-0.03	0	413	346	3
2026-02-12	15:03:02.290	-32.83	42.42	60.48	0.510692	0.526308	0.565836	0.1875	-0.2025	-0.0375	0	413	346	3
2026-02-12	15:03:02.310	-16.345	30.87	60.9	0.609024	0.408944	0.548512	0.183	-0.2025	-0.0375	0	413	346	3
2026-02-12	15:03:02.330	12.215	26.705	57.68	0.554368	0.429684	0.480924	0.1815	-0.198	-0.0405	0	413	346	3
2026-02-12	15:03:02.350	37.905	17.5	56.245	0.519964	0.3233	0.391132	0.1755	-0.1965	-0.0435	0	413	346	3
2026-02-12	15:03:02.370	88.9	1.47	56.63	0.647576	0.29524	0.356972	0.1695	-0.204	-0.036	0	413	346	3
2026-02-12	15:03:02.390	142.625	-7.945	57.575	0.738344	0.378688	0.393816	0.168	-0.207	-0.0315	0	413	346	3
2026-02-12	15:03:02.410	142.905	-6.265	60.41	0.73078	0.324276	0.417728	0.1545	-0.2385	-0.015	0	407	431	3
2026-02-12	15:03:02.430	146.825	-9.205	68.355	0.80154	0.11102	0.36966	0.1455	-0.255	0.012	0	407	431	3
2026-02-12	15:03:02.450	171.99	-13.405	76.65	0.79666	0.057828	-0.029036	0.1365	-0.27	0.0225	0	407	431	3
2026-02-12	15:03:02.470	260.295	-15.785	85.61	1.143872	0.073444	0.305488	0.123	-0.2865	0.048	0	407	431	3
2026-02-12	15:03:02.490	142.485	12.705	92.19	1.050664	1.544276	0.48678	0.1125	-0.3075	0.078	0	407	431	3
2026-02-12	15:03:02.510	-133.28	-26.53	76.23	1.00772	0.609024	0.081984	0.09	-0.3315	0.1125	0	407	431	3
2026-02-12	15:03:02.530	-195.405	-47.18	79.66	0.939888	-0.170556	0.531188	0.0855	-0.315	0.1005	0	407	431	3
2026-02-12	15:03:02.550	-77.63	-24.78	58.765	1.09678	0.948428	0.963312	0.069	-0.2805	0.0705	0	407	431	3
2026-02-12	15:03:02.570	-4.9	-4.445	18.375	0.90402	0.650504	0.81252	0.0555	-0.2865	0.0615	0	407	431	3
2026-02-12	15:03:02.590	52.64	-4.48	11.69	0.620736	-0.028792	0.374052	0.06	-0.276	0.066	0	407	431	3
2026-02-12	15:03:02.610	64.435	-1.225	22.855	0.560224	0.874008	0.476288	0.0555	-0.282	0.0645	0	402	466	3
2026-02-12	15:03:02.630	42.7	-19.88	24.43	0.674416	0.70882	0.851072	0.036	-0.288	0.0765	0	402	466	3
2026-02-12	15:03:02.650	32.585	-19.39	21.14	0.684908	0.34404	0.4758	0.0375	-0.288	0.0855	0	402	466	3
2026-02-12	15:03:02.670	46.41	-19.285	21.49	0.662704	0.537044	0.464576	0.0345	-0.2895	0.0885	0	402	466	3
2026-02-12	15:03:02.690	23.87	-26.985	26.74	0.682468	0.651968	0.629764	0.027	-0.294	0.099	0	402	466	3
2026-02-12	15:03:02.710	5.005	-28.525	24.78	0.681004	0.588772	0.70516	0.0225	-0.294	0.108	0	402	466	3
2026-02-12	15:03:02.730	-0.35	-30.835	18.725	0.640744	0.47092	0.492636	0.0135	-0.294	0.108	0	402	466	3
2026-02-12	15:03:02.750	-12.32	-35.735	15.4	0.749812	0.5002	0.565592	0.0015	-0.2925	0.1065	0	402	466	3
2026-02-12	15:03:02.770	-27.44	-36.19	10.64	0.813008	0.381616	0.552416	0	-0.2895	0.1065	0	402	466	3
2026-02-12	15:03:02.790	-14.035	-27.72	4.06	0.776896	0.41358	0.495564	-0.0015	-0.2895	0.108	0	402	466	3
2026-02-12	15:03:02.810	-8.89	-21.7	0.49	0.725412	0.482632	0.508496	-0.006	-0.2865	0.1095	0	399	483	3
2026-02-12	15:03:02.830	-15.4	-18.62	1.75	0.75152	0.546072	0.538508	-0.0105	-0.282	0.1035	0	399	483	3
2026-02-12	15:03:02.850	-14.665	-13.37	3.115	0.723704	0.458232	0.44652	-0.012	-0.2835	0.1065	0	399	483	3
2026-02-12	15:03:02.870	0.175	-7.98	4.025	0.741272	0.495076	0.420168	-0.0075	-0.279	0.1065	0	399	483	3
2026-02-12	15:03:02.890	9.205	-3.71	8.575	0.728096	0.533872	0.533872	-0.012	-0.279	0.1095	0	399	483	3
2026-02-12	15:03:02.910	16.275	-2.87	7.91	0.730048	0.473604	0.437004	-0.015	-0.285	0.099	0	399	483	3
2026-02-12	15:03:02.930	23.485	-3.675	6.825	0.759816	0.49898	0.61976	-0.0135	-0.2835	0.1095	0	399	483	3
2026-02-12	15:03:02.950	2.345	-6.475	6.965	0.747372	0.447252	0.459452	-0.0165	-0.285	0.117	0	399	483	3
2026-02-12	15:03:02.970	11.83	-3.745	3.325	0.732488	0.52338	0.46238	-0.0195	-0.2835	0.1155	0	399	483	3
2026-02-12	15:03:02.990	13.58	-3.395	0.595	0.743956	0.4697	0.488732	-0.0225	-0.2835	0.114	0	399	483	3
2026-02-12	15:03:03.010	14.455	-4.13	-2.695	0.72102	0.435296	0.444812	-0.0225	-0.2835	0.1125	0	390	494	3
2026-02-12	15:03:03.030	23.975	-5.04	-6.51	0.737124	0.502152	0.455548	-0.018	-0.279	0.1215	0	390	494	3
2026-02-12	15:03:03.050	23.31	-7.91	-7.14	0.754448	0.569252	0.538752	-0.018	-0.2865	0.1275	0	390	494	3
2026-02-12	15:03:03.070	11.41	-12.565	-8.575	0.76006	0.507276	0.554612	-0.021	-0.294	0.129	0	390	494	3
2026-02-12	15:03:03.090	2.52	-14.595	-12.74	0.7503	0.412604	0.427488	-0.021	-0.294	0.132	0	390	494	3
2026-02-12	15:03:03.110	20.685	-11.83	-16.45	0.71614	0.486048	0.286212	-0.012	-0.2955	0.1335	0	390	494	3
2026-02-12	15:03:03.130	42.49	-6.965	-13.79	0.713212	0.62342	0.501664	-0.015	-0.3	0.1365	0	390	494	3
2026-02-12	15:03:03.150	28.035	-13.405	-9.485	0.74908	0.533628	0.476044	-0.018	-0.3045	0.141	0	390	494	3
2026-02-12	15:03:03.170	23.135	-15.225	-7.35	0.750056	0.442372	0.31598	-0.0195	-0.303	0.15	0	390	494	3
2026-02-12	15:03:03.190	44.205	-19.635	0.28	0.757376	0.578768	0.429196	-0.0225	-0.2985	0.1575	0	390	494	3
2026-02-12	15:03:03.210	25.34	-26.25	10.01	0.819352	0.570472	0.583404	-0.0225	-0.2985	0.1575	0	374	495	3
2026-02-12	15:03:03.230	18.865	-27.79	15.26	0.769332	0.478484	0.335988	-0.0135	-0.312	0.165	0	374	495	3
2026-02-12	15:03:03.250	26.005	-27.72	22.225	0.729804	0.626348	0.435052	-0.024	-0.315	0.1725	0	374	495	3
2026-02-12	15:03:03.270	7.245	-39.62	33.635	0.87962	0.582672	0.636108	-0.027	-0.3135	0.1845	0	374	495	3
2026-02-12	15:03:03.290	-2.03	-47.6	40.46	0.79788	0.624884	0.355752	-0.036	-0.3015	0.1845	0	374	495	3
2026-02-12	15:03:03.310	-4.795	-46.27	50.12	0.743224	0.618296	0.26962	-0.039	-0.3075	0.1905	0	374	495	3
2026-02-12	15:03:03.330	6.79	-47.04	62.16	0.790316	0.473848	0.34038	-0.0585	-0.3045	0.1935	0	374	495	3
2026-02-12	15:03:03.350	10.08	-53.34	71.12	0.833504	0.483852	0.366976	-0.0645	-0.297	0.1935	0	374	495	3
2026-02-12	15:03:03.370	8.015	-63.77	79.38	0.853512	0.486048	0.343796	-0.0735	-0.288	0.1995	0	374	495	3
2026-02-12	15:03:03.390	4.27	-71.505	84.875	0.861564	0.412604	0.274988	-0.084	-0.2835	0.21	0	374	495	3
2026-02-12	15:03:03.410	4.34	-74.34	88.235	0.879132	0.349896	0.259372	-0.1005	-0.279	0.2205	0	353	483	1
2026-02-12	15:03:03.430	-10.325	-75.565	94.605	0.983564	0.484584	0.297924	-0.12	-0.2715	0.2295	0	353	483	1
2026-02-12	15:03:03.450	-72.17	-90.405	100.59	1.07116	0.419924	0.316712	-0.138	-0.261	0.2355	0	353	483	1
2026-02-12	15:03:03.470	-141.435	-110.285	97.02	1.310036	0.471164	0.272304	-0.147	-0.255	0.2385	0	353	483	1
2026-02-12	15:03:03.490	-149.345	-117.425	76.79	1.50426	0.631716	0.16104	-0.1785	-0.2265	0.24	0	353	483	1
2026-02-12	15:03:03.510	-132.055	-90.93	40.95	1.613084	0.551196	0.135664	-0.183	-0.1995	0.2355	0	353	483	1
2026-02-12	15:03:03.530	-72.485	-53.55	-3.325	1.502796	0.325252	-0.071736	-0.201	-0.189	0.2385	0	353	483	1
2026-02-12	15:03:03.550	10.955	-22.12	-33.18	1.39446	0.127612	0.341356	-0.21	-0.189	0.234	0	353	483	1
2026-02-12	15:03:03.570	-8.89	22.54	-19.775	1.077748	0.26718	0.534604	-0.2025	-0.1965	0.2355	0	353	483	1
2026-02-12	15:03:03.590	-75.705	44.52	-30.275	0.919636	0.383812	0.504836	-0.1995	-0.1905	0.234	0	353	483	1
2026-02-12	15:03:03.610	-108.57	71.54	-31.99	0.732488	0.648064	0.476288	-0.195	-0.1875	0.216	0	334	455	3
2026-02-12	15:03:03.630	-148.61	79.45	-43.47	0.605608	0.713944	0.454816	-0.1995	-0.1935	0.198	0	334	455	3
2026-02-12	15:03:03.650	-148.96	84.07	-56.875	0.667584	0.620492	0.655872	-0.183	-0.189	0.1605	0	334	455	3
2026-02-12	15:03:03.670	-99.12	96.04	-71.82	0.585356	0.388936	0.748592	-0.174	-0.1755	0.141	0	334	455	3
2026-02-12	15:03:03.690	-27.195	111.405	-83.65	0.541192	0.335988	0.7991	-0.1575	-0.1845	0.126	0	334	455	3
2026-02-12	15:03:03.710	14.735	124.39	-91.35	0.530212	0.405528	0.799832	-0.1395	-0.189	0.0945	0	334	455	3
2026-02-12	15:03:03.730	13.93	129.115	-97.23	0.553148	0.48678	0.754692	-0.1095	-0.1905	0.081	0	334	455	3
2026-02-12	15:03:03.750	-15.155	129.815	-99.4	0.55754	0.53436	0.731512	-0.0915	-0.2055	0.069	0	334	455	3
2026-02-12	15:03:03.770	-46.55	128.205	-100.065	0.528504	0.459452	0.66856	-0.0555	-0.222	0.048	0	334	455	3
2026-02-12	15:03:03.790	-56.105	126.945	-99.96	0.536556	0.451888	0.685152	-0.027	-0.2235	0.027	0	334	455	3
2026-02-12	15:03:03.810	-53.55	127.715	-98.315	0.606584	0.468968	0.77958	0	-0.222	0.0105	0	323	451	3
2026-02-12	15:03:03.830	-52.92	129.43	-93.52	0.61488	0.487756	0.770552	0.0285	-0.222	-0.0045	0	323	451	3
2026-02-12	15:03:03.850	-46.27	129.71	-88.27	0.540704	0.441884	0.692716	0.0585	-0.2205	-0.015	0	323	451	3
2026-02-12	15:03:03.870	-26.81	127.855	-81.06	0.521672	0.347212	0.699304	0.0765	-0.219	-0.018	0	323	451	3
2026-02-12	15:03:03.890	16.485	128.87	-73.99	0.586088	0.519232	0.758596	0.0765	-0.219	-0.018	0	323	451	3
2026-02-12	15:03:03.910	106.575	116.235	-74.305	0.576084	0.199836	0.56608	0.129	-0.2085	-0.0435	0	323	451	3
2026-02-12	15:03:03.930	204.855	107.905	-77.49	0.51118	0.31476	0.027328	0.1575	-0.222	-0.033	0	323	451	3
2026-02-12	15:03:03.950	314.055	85.435	-63.98	0.749568	0.420412	0.550464	0.183	-0.2415	-0.018	0	323	451	3
2026-02-12	15:03:03.970	362.005	87.99	-74.725	1.079944	1.142164	0.702232	0.198	-0.276	0.0165	0	323	451	3
2026-02-12	15:03:03.990	135.52	81.375	-44.45	1.041636	1.070916	0.423584	0.21	-0.3075	0.0705	0	323	451	3
2026-02-12	15:03:04.010	-83.3	50.225	-29.75	0.709552	0.790316	0.149572	0.225	-0.3165	0.0855	0	320	478	3
2026-02-12	15:03:04.030	-68.005	36.925	-37.485	0.52948	0.81496	0.221552	0.246	-0.324	0.096	0	320	478	3
2026-02-12	15:03:04.050	-10.71	28.105	-40.635	0.391864	0.709552	0.27206	0.261	-0.318	0.093	0	320	478	3
2026-02-12	15:03:04.070	38.15	16.485	-31.71	0.344528	0.625372	0.243512	0.2715	-0.312	0.09	0	320	478	3
2026-02-12	15:03:04.090	109.9	11.62	-19.635	0.38308	0.366	0.259128	0.2745	-0.318	0.0915	0	320	478	3
2026-02-12	15:03:04.110	152.88	8.225	12.88	0.55144	0.282308	0.2806	0.279	-0.324	0.1095	0	320	478	3
2026-02-12	15:03:04.130	145.04	5.11	50.855	0.639524	0.442128	0.196908	0.2805	-0.3315	0.126	0	320	478	3
2026-02-12	15:03:04.150	75.145	-6.79	90.79	0.770552	0.302316	-0.035624	0.27	-0.3465	0.1455	0	320	478	3
2026-02-12	15:03:04.170	17.64	-41.3	135.8	1.216584	0.122244	-0.33306	0.2565	-0.3525	0.1605	0	320	478	3
2026-02-12	15:03:04.190	-71.54	-70.035	159.95	1.269288	0.956236	0.135176	0.234	-0.3525	0.165	0	320	478	3
2026-02-12	15:03:04.210	-143.535	-82.215	156.73	0.64782	0.29402	0.7503	0.1965	-0.348	0.153	0	325	478	3
2026-02-12	15:03:04.230	-123.655	-74.2	163.555	0.492148	0.646112	0.78446	0.1665	-0.3405	0.1335	0	325	478	3
2026-02-12	15:03:04.250	-44.8	-57.12	143.15	0.13664	0.936472	0.640988	0.138	-0.3315	0.12	0	325	478	3
2026-02-12	15:03:04.270	40.845	-51.1	119.175	0.248636	0.691496	0.211792	0.1215	-0.327	0.1155	0	325	478	3
2026-02-12	15:03:04.290	-1.505	-56.21	118.79	0.745176	0.788608	0.298168	0.0735	-0.321	0.126	0	325	478	3
2026-02-12	15:03:04.310	-10.815	-58.835	109.165	1.026752	0.367952	0.52948	0.0465	-0.315	0.126	0	325	478	3
2026-02-12	15:03:04.330	6.58	-44.52	101.395	0.848144	0.422852	0.495808	0.0255	-0.3135	0.1305	0	325	478	3
2026-02-12	15:03:04.350	-0.77	-37.87	93.38	0.822036	0.481168	0.401136	0.012	-0.297	0.129	0	325	478	3
2026-02-12	15:03:04.370	-3.78	-36.715	91.21	0.780312	0.330376	0.360388	-0.0015	-0.2925	0.123	0	325	478	3
2026-02-12	15:03:04.390	15.4	-33.88	92.05	0.78324	0.31842	0.324764	-0.0195	-0.285	0.1305	0	325	478	3
2026-02-12	15:03:04.410	32.48	-29.505	92.96	0.753716	0.67344	0.356484	-0.0315	-0.282	0.1485	0	336	456	3
2026-02-12	15:03:04.430	24.465	-26.25	84.105	0.887428	0.773236	0.356484	-0.0525	-0.282	0.1455	0	336	456	3
2026-02-12	15:03:04.450	14.525	-20.965	79.1	0.821792	0.505324	0.246196	-0.072	-0.2715	0.1515	0	336	456	3
2026-02-12	15:03:04.470	21.175	-12.495	73.115	0.860588	0.323056	0.20374	-0.0765	-0.2655	0.153	0	336	456	3
2026-02-12	15:03:04.490	34.44	-1.015	65.8	0.88816	0.43554	0.25254	-0.084	-0.258	0.1605	0	336	456	3
2026-02-12	15:03:04.510	35.84	4.06	60.2	0.891332	0.41724	0.31232	-0.0915	-0.2595	0.168	0	336	456	3
2026-02-12	15:03:04.530	28.245	6.545	53.795	0.863516	0.424316	0.309392	-0.0975	-0.2625	0.1695	0	336	456	3
2026-02-12	15:03:04.550	7.56	5.915	45.99	0.911828	0.293044	0.359168	-0.0975	-0.2625	0.1695	0	336	456	3
2026-02-12	15:03:04.570	-0.805	9.24	36.33	0.875228	0.210816	0.267424	-0.126	-0.249	0.1785	0	336	456	3
2026-02-12	15:03:04.590	12.215	13.965	27.195	0.843996	0.275476	0.198372	-0.1215	-0.2475	0.1785	0	336	456	3
2026-02-12	15:03:04.610	30.065	12.18	19.46	0.840336	0.48312	0.376736	-0.1245	-0.2355	0.1755	0	346	427	3
2026-02-12	15:03:04.630	16.275	1.645	15.61	0.970876	0.283528	0.479704	-0.123	-0.2415	0.1785	0	346	427	3
2026-02-12	15:03:04.650	6.93	-6.125	8.12	0.931592	0.18666	0.40504	-0.126	-0.2355	0.1785	0	346	427	3
2026-02-12	15:03:04.670	7.28	-9.31	-0.35	0.913536	0.370636	0.359412	-0.129	-0.24	0.174	0	346	427	3
2026-02-12	15:03:04.690	2.17	-14.63	-1.96	0.876448	0.373808	0.312564	-0.1305	-0.24	0.1905	0	346	427	3
2026-02-12	15:03:04.710	0.805	-15.645	-2.1	0.914024	0.304512	0.28548	-0.135	-0.228	0.183	0	346	427	3
2026-02-12	15:03:04.730	4.27	-12.46	-3.465	0.88328	0.274256	0.24034	-0.1365	-0.2385	0.192	0	346	427	3
2026-02-12	15:03:04.750	13.615	-9.415	-2.415	0.907192	0.458964	0.314272	-0.135	-0.2325	0.1905	0	346	427	3
2026-02-12	15:03:04.770	-2.275	-14.945	4.41	0.864248	0.353312	0.356484	-0.1275	-0.24	0.1905	0	346	427	3
2026-02-12	15:03:04.790	-19.145	-21.14	6.09	0.91134	0.278648	0.29402	-0.1305	-0.237	0.1965	0	346	427	3
2026-02-12	15:03:04.810	-25.585	-27.72	3.78	0.88572	0.345504	0.375272	-0.1305	-0.237	0.1965	0	350	401	1
2026-02-12	15:03:04.830	-39.935	-37.45	5.88	0.988688	0.360144	0.384788	-0.135	-0.2385	0.192	0	350	401	1
2026-02-12	15:03:04.850	-48.58	-47.495	6.51	0.960628	0.232532	0.25254	-0.144	-0.2355	0.192	0	350	401	1
2026-02-12	15:03:04.870	-18.445	-50.89	1.295	0.888648	0.344528	0.147132	-0.144	-0.231	0.195	0	350	401	1
2026-02-12	15:03:04.890	0.35	-50.085	6.37	0.978196	0.452132	0.18056	-0.144	-0.228	0.198	0	350	401	1
2026-02-12	15:03:04.910	8.645	-47.74	19.635	0.95404	0.341356	0.1952	-0.1455	-0.2265	0.207	0	350	401	1
2026-02-12	15:03:04.930	23.485	-44.73	26.915	0.9089	0.409432	0.163724	-0.1515	-0.2295	0.213	0	350	401	1
2026-02-12	15:03:04.950	25.165	-43.085	37.905	0.988932	0.310368	0.11956	-0.165	-0.222	0.2205	0	350	401	1
2026-02-12	15:03:04.970	39.585	-35.14	45.395	0.972584	0.31232	0.0854	-0.171	-0.2115	0.228	0	350	401	1
2026-02-12	15:03:04.990	60.795	-25.2	46.725	1.00406	0.28304	0.107116	-0.177	-0.2115	0.2355	0	350	401	1
2026-02-12	15:03:05.010	85.155	-17.745	47.985	1.023824	0.311344	0.226188	-0.183	-0.207	0.252	0	346	370	2
2026-02-12	15:03:05.030	46.69	-32.48	54.39	0.95892	0.224968	0.240096	-0.186	-0.204	0.261	0	346	370	2
2026-02-12	15:03:05.050	25.9	-41.23	58.065	1.05408	0.29036	0.195932	-0.1905	-0.2055	0.2625	0	346	370	2
2026-02-12	15:03:05.070	-0.735	-49.56	69.79	1.09312	0.282064	0.182268	-0.204	-0.1965	0.2805	0	346	370	2
2026-02-12	15:03:05.090	-40.215	-57.575	82.355	1.10654	0.279868	0.154696	-0.207	-0.186	0.282	0	346	370	2
2026-02-12	15:03:05.110	-64.995	-66.045	83.09	1.200724	0.292312	0.115412	-0.219	-0.1695	0.2865	0	346	370	2
2026-02-12	15:03:05.130	-78.505	-69.335	72.8	1.305888	0.356728	0.100284	-0.231	-0.162	0.294	0	346	370	2
2026-02-12	15:03:05.150	-74.865	-66.745	43.96	1.505968	0.485804	0.122488	-0.237	-0.1515	0.297	0	346	370	2
2026-02-12	15:03:05.170	-9.555	-42.665	2.31	1.555744	-0.145668	0.102724	-0.24	-0.132	0.2985	0	346	370	2
2026-02-12	15:03:05.190	104.37	-17.57	-25.165	1.528416	-0.102968	-0.282308	-0.243	-0.1245	0.3045	0	346	370	2
2026-02-12	15:03:05.210	242.34	11.9	-65.94	1.24562	0.123708	0.060512	-0.2475	-0.1365	0.318	0	338	328	3
2026-02-12	15:03:05.230	167.055	26.075	-77.875	1.176324	0.7869	0.111752	-0.2415	-0.1515	0.3375	0	338	328	3
2026-02-12	15:03:05.250	-31.745	21.84	-85.89	0.934032	0.992348	0.094184	-0.225	-0.159	0.3465	0	338	328	3
2026-02-12	15:03:05.270	-146.405	20.93	-112.945	0.99308	1.38104	0.365024	-0.2175	-0.171	0.342	0	338	328	3
2026-02-12	15:03:05.290	-168.35	27.09	-144.305	0.82106	0.720776	0.310612	-0.213	-0.1845	0.324	0	338	328	3
2026-02-12	15:03:05.310	-57.575	53.935	-159.46	0.855952	0.700036	0.466284	-0.198	-0.201	0.3015	0	338	328	3
2026-02-12	15:03:05.330	-13.86	85.435	-166.39	0.675148	0.6222	0.432856	-0.1815	-0.219	0.2835	0	338	328	3
2026-02-12	15:03:05.350	-100.835	100.66	-157.29	0.562176	0.76494	0.468724	-0.174	-0.225	0.2745	0	338	328	3
2026-02-12	15:03:05.370	-129.78	105.455	-155.855	0.565836	0.7564	0.451644	-0.117	-0.255	0.243	0	338	328	3
2026-02-12	15:03:05.390	-123.76	113.925	-156.905	0.594628	0.756644	0.417728	-0.0975	-0.267	0.2025	0	338	328	3
2026-02-12	15:03:05.410	-113.505	120.085	-156.765	0.580476	0.636352	0.321104	-0.057	-0.285	0.1875	0	334	292	3
2026-02-12	15:03:05.430	-119.56	128.625	-146.16	0.513376	0.484584	0.266936	-0.0435	-0.2805	0.153	0	334	292	3
2026-02-12	15:03:05.450	-126.175	122.465	-133.49	0.539972	0.433344	0.255956	-0.006	-0.282	0.126	0	334	292	3
2026-02-12	15:03:05.470	-113.4	108.185	-123.375	0.632448	0.476288	0.315004	0.0195	-0.2745	0.1005	0	334	292	3
2026-02-12	15:03:05.490	-99.995	95.97	-113.54	0.786168	0.62952	0.501664	0.045	-0.282	0.0795	0	334	292	3
2026-02-12	15:03:05.510	-96.635	89.915	-106.4	0.873032	0.765184	0.628056	0.0735	-0.276	0.0675	0	334	292	3
2026-02-12	15:03:05.530	-98.77	89.075	-102.48	0.832528	0.865224	0.564128	0.1065	-0.2565	0.051	0	334	292	3
2026-02-12	15:03:05.550	-104.405	84.49	-96.775	0.757376	0.70638	0.48068	0.1215	-0.2535	0.0315	0	334	292	3
2026-02-12	15:03:05.570	-82.95	81.655	-89.355	0.706868	0.576572	0.532896	0.1455	-0.2415	0.018	0	334	292	3
2026-02-12	15:03:05.590	-68.39	81.27	-77.35	0.673684	0.584136	0.580964	0.1695	-0.2385	0.0135	0	334	292	3
2026-02-12	15:03:05.610	-81.445	78.365	-59.815	0.559004	0.543632	0.618052	0.1905	-0.231	0.0015	0	336	294	3
2026-02-12	15:03:05.630	-89.46	69.86	-39.55	0.52826	0.355264	0.607804	0.1905	-0.231	0.0015	0	336	294	3
2026-02-12	15:03:05.650	1.715	57.4	-29.96	0.56486	0.265716	0.564128	0.231	-0.2085	-0.0165	0	336	294	3
2026-02-12	15:03:05.670	118.405	50.33	-21.455	0.537044	0.350384	0.423828	0.2415	-0.2055	-0.0165	0	336	294	3
2026-02-12	15:03:05.690	176.68	41.3	-6.58	0.517036	0.46238	0.291824	0.24	-0.21	-0.0045	0	336	294	3
2026-02-12	15:03:05.710	183.12	31.115	8.4	0.583648	0.698328	0.362584	0.2475	-0.231	0.018	0	336	294	3
2026-02-12	15:03:05.730	182.56	16.625	16.485	0.626348	0.615368	0.30622	0.255	-0.2475	0.042	0	336	294	3
2026-02-12	15:03:05.750	210.805	2.66	22.54	0.63928	0.565348	0.146156	0.2505	-0.264	0.0555	0	336	294	3
2026-02-12	15:03:05.770	217.49	-8.33	36.19	0.62342	0.45994	0.033428	0.2535	-0.297	0.0795	0	336	294	3
2026-02-12	15:03:05.790	206.43	-17.5	57.75	0.650748	0.167628	0.026108	0.2325	-0.312	0.1215	0	336	294	3
2026-02-12	15:03:05.810	185.045	-27.055	92.855	0.760548	-0.196664	0.075396	0.222	-0.33	0.144	0	340	320	3
2026-02-12	15:03:05.830	148.155	-22.995	133.91	0.928176	0.099552	0.367952	0.2115	-0.3435	0.174	0	340	320	3
2026-02-12	15:03:05.850	21.7	-14.035	160.93	1.054812	1.020164	0.389668	0.1845	-0.3435	0.198	0	340	320	3
2026-02-12	15:03:05.870	-163.695	-22.82	155.26	0.91378	1.019676	0.560956	0.159	-0.3465	0.2025	0	340	320	3
2026-02-12	15:03:05.890	-120.89	-22.155	131.04	0.711504	0.642208	0.606584	0.159	-0.3465	0.2025	0	340	320	3
2026-02-12	15:03:05.910	11.2	2.1	106.33	0.546316	0.90158	0.404064	0.123	-0.33	0.174	0	340	320	3
2026-02-12	15:03:05.930	45.745	1.12	94.325	0.539972	0.70028	0.376004	0.0825	-0.312	0.1455	0	340	320	3
2026-02-12	15:03:05.950	36.295	-3.64	92.365	0.511912	0.676856	0.368196	0.0735	-0.3105	0.15	0	340	320	3
2026-02-12	15:03:05.970	19.95	-8.925	88.97	0.520452	0.551684	0.37454	0.06	-0.3105	0.1575	0	340	320	3
2026-02-12	15:03:05.990	-3.71	-13.965	90.265	0.518012	0.43188	0.331108	0.039	-0.309	0.1605	0	340	320	3
2026-02-12	15:03:06.010	-45.85	-21.385	96.915	0.586576	0.489952	0.280356	0.024	-0.3105	0.1605	0	345	338	3
2026-02-12	15:03:06.030	-82.075	-31.325	97.125	0.744932	0.538996	0.270596	0.0135	-0.3045	0.159	0	345	338	3
2026-02-12	15:03:06.050	-66.185	-33.915	82.81	0.848144	0.518744	0.38918	-0.003	-0.2865	0.15	0	345	338	3
2026-02-12	15:03:06.070	-18.935	-28.28	62.79	0.850828	0.39528	0.507032	-0.0135	-0.273	0.144	0	345	338	3
2026-02-12	15:03:06.090	-8.05	-19.635	50.435	0.881084	0.282552	0.371856	-0.021	-0.2685	0.1425	0	345	338	3
2026-02-12	15:03:06.110	-6.79	-15.505	42.385	0.84302	0.413824	0.2867	-0.0315	-0.2655	0.1455	0	345	338	3
2026-02-12	15:03:06.130	2.52	-17.955	27.65	0.812764	0.4819	0.458232	-0.0435	-0.2595	0.147	0	345	338	3
2026-02-12	15:03:06.150	8.855	-16.1	1.365	0.85766	0.419436	0.393084	-0.051	-0.255	0.144	0	345	338	3
2026-02-12	15:03:06.170	24.465	-16.59	-11.2	0.782996	0.378688	0.325496	-0.051	-0.255	0.144	0	345	338	3
2026-02-12	15:03:06.190	20.72	-21.175	-15.155	0.798124	0.568276	0.447252	-0.054	-0.267	0.1515	0	345	338	3
2026-02-12	15:03:06.210	-0.84	-26.915	-17.29	0.829844	0.549244	0.382592	-0.054	-0.267	0.1515	0	347	349	3
2026-02-12	15:03:06.230	15.365	-30.17	-23.835	0.72956	0.547048	0.210328	-0.0495	-0.2685	0.156	0	347	349	3
2026-02-12	15:03:06.250	53.095	-38.185	-34.79	0.665144	0.590724	0.29036	-0.045	-0.27	0.1635	0	347	349	3
2026-02-12	15:03:06.270	44.905	-42.735	-32.515	0.9272	0.355996	0.43676	-0.045	-0.2745	0.1695	0	347	349	3
2026-02-12	15:03:06.290	37.275	-35.77	-21.35	0.963312	0.333304	0.354044	-0.045	-0.282	0.18	0	347	349	3
2026-02-12	15:03:06.310	50.575	-29.995	-9.415	0.71858	0.60268	0.207888	-0.045	-0.285	0.1905	0	347	349	3
2026-02-12	15:03:06.330	41.79	-28.105	6.265	0.793976	0.62708	0.278892	-0.0435	-0.288	0.1995	0	347	349	3
2026-02-12	15:03:06.350	33.985	-29.715	24.43	0.899872	0.6771	0.391132	-0.0465	-0.2925	0.204	0	347	349	3
2026-02-12	15:03:06.370	27.65	-38.43	34.02	0.872788	0.426024	0.289384	-0.0525	-0.294	0.213	0	347	349	3
2026-02-12	15:03:06.390	8.785	-41.475	38.43	0.910608	0.445788	0.251564	-0.054	-0.2865	0.222	0	347	349	3
2026-02-12	15:03:06.410	-8.68	-46.235	39.76	0.88084	0.486292	0.24278	-0.063	-0.282	0.225	0	343	352	2
2026-02-12	15:03:06.430	-3.92	-47.74	39.655	0.910364	0.476776	0.22204	-0.0705	-0.2805	0.2235	0	343	352	2
2026-02-12	15:03:06.450	-3.395	-41.93	44.73	0.9028	0.467016	0.162748	-0.084	-0.2715	0.2415	0	343	352	2
2026-02-12	15:03:06.470	-4.76	-36.19	54.915	0.865468	0.556564	0.118096	-0.0945	-0.261	0.2385	0	343	352	2
2026-02-12	15:03:06.490	6.825	-34.58	64.715	0.860588	0.548756	0.142496	-0.1005	-0.2655	0.249	0	343	352	2
2026-02-12	15:03:06.510	12.95	-35.455	71.96	0.950624	0.428464	0.178608	-0.1185	-0.252	0.246	0	343	352	2
2026-02-12	15:03:06.530	2.73	-32.97	81.515	0.901336	0.433344	0.093452	-0.114	-0.2475	0.2565	0	343	352	2
2026-02-12	15:03:06.550	-3.5	-28.175	89.18	0.854	0.48312	0.017324	-0.1245	-0.2445	0.258	0	343	352	2
2026-02-12	15:03:06.570	0.07	-27.335	92.855	0.905484	0.33794	0.130784	-0.1455	-0.2385	0.2655	0	343	352	2
2026-02-12	15:03:06.590	-14.665	-31.815	90.23	1.01016	0.205936	0.117608	-0.156	-0.228	0.2655	0	343	352	2
2026-02-12	15:03:06.610	-10.43	-24.745	86.87	1.009184	0.304024	-0.013664	-0.174	-0.2085	0.267	0	334	331	2
2026-02-12	15:03:06.630	14.875	-12.53	90.02	0.942572	0.319396	-0.054412	-0.177	-0.1965	0.2775	0	334	331	2
2026-02-12	15:03:06.650	41.86	-4.2	95.06	0.884988	0.196176	-0.073444	-0.186	-0.1935	0.273	0	334	331	2
2026-02-12	15:03:06.670	84.665	-2.695	104.405	1.04188	0.524356	0.290604	-0.1995	-0.168	0.285	0	334	331	2
2026-02-12	15:03:06.690	52.885	2.765	108.185	0.99552	0.241316	0.136884	-0.207	-0.1665	0.294	0	334	331	2
2026-02-12	15:03:06.710	40.46	-5.355	111.02	0.999912	0.118096	0.1281	-0.21	-0.1515	0.294	0	334	331	2
2026-02-12	15:03:06.730	52.955	-16.485	117.81	1.057496	0.09394	0.076372	-0.2235	-0.126	0.3015	0	334	331	2
2026-02-12	15:03:06.750	27.44	-17.185	115.64	1.098488	-0.093696	0.110288	-0.24	-0.108	0.312	0	334	331	2
2026-02-12	15:03:06.770	11.725	-22.015	107.94	1.080188	-0.033916	0.104188	-0.2505	-0.096	0.321	0	334	331	2
2026-02-12	15:03:06.790	0.315	-30.45	102.69	1.11874	-0.117852	0.009272	-0.2595	-0.0825	0.324	0	334	331	2
2026-02-12	15:03:06.810	-6.195	-42.875	97.16	1.199748	0.143716	0.244488	-0.264	-0.0735	0.324	0	325	286	2
2026-02-12	15:03:06.830	-52.815	-63.98	80.92	1.34566	-0.071004	0.05124	-0.267	-0.0585	0.342	0	325	286	2
2026-02-12	15:03:06.850	-76.58	-82.53	51.835	1.406416	0.037576	-0.01098	-0.267	-0.039	0.3495	0	325	286	2
2026-02-12	15:03:06.870	-80.815	-86.8	13.16	1.413004	0.124196	-0.111264	-0.276	-0.0315	0.3495	0	325	286	2
2026-02-12	15:03:06.890	-73.71	-81.795	-22.645	1.504992	0.076372	-0.054656	-0.2835	-0.0315	0.3615	0	325	286	2
2026-02-12	15:03:06.910	-7.21	-64.645	-45.395	1.36518	-0.415776	-0.04148	-0.276	-0.021	0.3735	0	325	286	2
2026-02-12	15:03:06.930	80.115	-36.47	-43.505	1.208776	-0.393328	-0.108092	-0.276	-0.0255	0.381	0	325	286	2
2026-02-12	15:03:06.950	63.315	-19.145	-37.555	1.060668	0.179584	-0.21716	-0.27	-0.042	0.3825	0	325	286	2
2026-02-12	15:03:06.970	-52.675	-20.685	-41.09	1.00528	0.596824	-0.16104	-0.27	-0.042	0.3825	0	325	286	2
2026-02-12	15:03:06.990	-151.83	-21.175	-53.725	0.95404	0.763476	-0.149328	-0.2655	-0.0465	0.387	0	325	286	2
2026-02-12	15:03:07.010	-184.8	-23.835	-81.095	0.996008	0.76006	-0.08662	-0.2655	-0.0555	0.39	0	322	228	3
2026-02-12	15:03:07.030	-177.905	-8.715	-107.52	0.848632	0.731512	0.016104	-0.2625	-0.0675	0.3825	0	322	228	3
2026-02-12	15:03:07.050	-190.295	8.785	-124.74	0.815936	0.761036	0.2745	-0.2505	-0.0855	0.3675	0	322	228	3
2026-02-12	15:03:07.070	-210.385	39.025	-131.04	0.920856	0.620492	0.47214	-0.2415	-0.105	0.3465	0	322	228	3
2026-02-12	15:03:07.090	-175.175	80.43	-132.72	0.976244	0.524356	0.55998	-0.234	-0.1215	0.3285	0	322	228	3
2026-02-12	15:03:07.110	-128.555	121.485	-130.375	0.939644	0.486292	0.594384	-0.2145	-0.1395	0.3045	0	322	228	3
2026-02-12	15:03:07.130	-124.04	158.69	-120.19	0.932568	0.473604	0.612684	-0.1935	-0.15	0.2715	0	322	228	3
2026-02-12	15:03:07.150	-158.62	180.915	-103.495	0.977952	0.529236	0.575596	-0.18	-0.1635	0.237	0	322	228	3
2026-02-12	15:03:07.170	-174.405	194.95	-91.245	1.03578	0.55144	0.517036	-0.1665	-0.174	0.201	0	322	228	3
2026-02-12	15:03:07.190	-148.715	204.785	-85.47	0.981124	0.550952	0.378688	-0.1425	-0.1665	0.1635	0	322	228	3
2026-02-12	15:03:07.210	-106.855	199.465	-78.295	1.05408	0.36112	0.388936	-0.1155	-0.1635	0.1275	0	326	196	3
2026-02-12	15:03:07.230	-103.04	187.32	-60.41	1.206092	0.515572	0.554124	-0.105	-0.165	0.1125	0	326	196	3
2026-02-12	15:03:07.250	-99.33	169.435	-53.27	1.256112	0.605608	0.483364	-0.057	-0.153	0.057	0	326	196	3
2026-02-12	15:03:07.270	-79.485	153.02	-56.63	1.14802	0.519476	0.33428	-0.03	-0.15	0.027	0	326	196	3
2026-02-12	15:03:07.290	-43.085	141.015	-62.3	1.070428	0.275964	0.326228	0.012	-0.138	0.012	0	326	196	3
2026-02-12	15:03:07.310	-5.6	125.055	-62.44	1.023336	-0.000976	0.299632	0.0315	-0.141	0.0015	0	326	196	3
2026-02-12	15:03:07.330	78.715	112.875	-62.09	1.026508	-0.04514	0.34038	0.0525	-0.1395	-0.0015	0	326	196	3
2026-02-12	15:03:07.350	115.01	105.42	-55.37	0.886208	0.016592	0.327204	0.066	-0.1485	0.003	0	326	196	3
2026-02-12	15:03:07.370	112.455	94.115	-45.99	0.743224	-0.010492	0.30622	0.0825	-0.1665	0.0045	0	326	196	3
2026-02-12	15:03:07.390	81.585	77.28	-29.365	0.763964	0.013176	0.279868	0.09	-0.177	0.009	0	326	196	3
2026-02-12	15:03:07.410	54.285	55.51	-10.675	0.848144	-0.035868	0.177144	0.105	-0.189	0.0165	0	335	211	3
2026-02-12	15:03:07.430	62.93	41.02	4.935	0.798856	0.025864	-0.057828	0.114	-0.195	0.0225	0	335	211	3
2026-02-12	15:03:07.450	87.29	21.175	24.5	0.695888	-0.344528	-0.453352	0.12	-0.204	0.0315	0	335	211	3
2026-02-12	15:03:07.470	184.275	19.11	47.67	0.71492	-0.075884	-0.135908	0.1215	-0.2115	0.0405	0	335	211	3
2026-02-12	15:03:07.490	152.075	-16.135	79.24	0.860588	0.263032	-0.057096	0.1155	-0.2265	0.0525	0	335	211	3
2026-02-12	15:03:07.510	12.495	-68.775	113.225	1.05774	0.214232	-0.246928	0.1125	-0.2385	0.0645	0	335	211	3
2026-02-12	15:03:07.530	-94.36	-92.225	126.525	1.135088	0.476532	0.554124	0.0765	-0.243	0.0915	0	335	211	3
2026-02-12	15:03:07.550	-112.105	-86.275	107.765	0.813252	0.372344	0.822768	0.057	-0.228	0.087	0	335	211	3
2026-02-12	15:03:07.570	-65.87	-73.115	85.05	0.6771	0.425048	0.657092	0.045	-0.2175	0.0765	0	335	211	3
2026-02-12	15:03:07.590	-31.99	-55.86	66.325	0.603168	0.691252	0.474336	0.0255	-0.1905	0.081	0	335	211	3
2026-02-12	15:03:07.610	11.34	-51.03	43.575	0.656604	0.479948	0.369904	0.003	-0.192	0.072	0	346	227	3
2026-02-12	15:03:07.630	40.845	-48.755	31.92	0.792756	0.298412	0.335744	-0.006	-0.1965	0.0795	0	346	227	3
2026-02-12	15:03:07.650	47.25	-42.07	23.905	0.87962	0.355264	0.433588	-0.0105	-0.1875	0.09	0	346	227	3
2026-02-12	15:03:07.670	29.995	-34.93	18.9	0.91744	0.313296	0.457988	-0.0195	-0.198	0.093	0	346	227	3
2026-02-12	15:03:07.690	5.67	-29.155	16.345	0.909388	0.531188	0.43554	-0.0285	-0.195	0.108	0	346	227	3
2026-02-12	15:03:07.710	13.86	-26.95	9.8	0.82838	0.506544	0.488	-0.0255	-0.1965	0.1065	0	346	227	3
2026-02-12	15:03:07.730	25.55	-21.77	3.85	0.812032	0.444568	0.40504	-0.03	-0.195	0.1095	0	346	227	3
2026-02-12	15:03:07.750	26.075	-19.74	0.525	0.781288	0.308172	0.354044	-0.0345	-0.201	0.1125	0	346	227	3
2026-02-12	15:03:07.770	20.195	-21.7	-2.87	0.823256	0.403576	0.395036	-0.033	-0.204	0.114	0	346	227	3
2026-02-12	15:03:07.790	22.05	-24.36	-4.235	0.813496	0.325496	0.414068	-0.0375	-0.204	0.1215	0	346	227	3
2026-02-12	15:03:07.810	18.76	-26.915	-0.91	0.851804	0.49898	0.411628	-0.0435	-0.201	0.1275	0	356	254	3
2026-02-12	15:03:07.830	13.79	-34.72	-3.71	0.865468	0.500688	0.481412	-0.0465	-0.1995	0.1275	0	356	254	3
2026-02-12	15:03:07.850	17.43	-46.095	-7.315	0.856196	0.24522	0.412116	-0.0495	-0.2025	0.135	0	356	254	3
2026-02-12	15:03:07.870	19.25	-53.375	-6.09	0.9516	0.341844	0.499712	-0.0525	-0.2055	0.1455	0	356	254	3
2026-02-12	15:03:07.890	8.015	-59.885	2.03	0.858636	0.354776	0.419192	-0.0555	-0.2115	0.1545	0	356	254	3
2026-02-12	15:03:07.910	-14	-59.185	12.495	0.864492	0.770064	0.220576	-0.0585	-0.2085	0.156	0	356	254	3
2026-02-12	15:03:07.930	-19.18	-55.685	23.87	0.788364	0.66002	0.113704	-0.066	-0.204	0.153	0	356	254	3
2026-02-12	15:03:07.950	5.145	-45.99	32.865	0.812032	0.506056	0.0488	-0.075	-0.2025	0.1575	0	356	254	3
2026-02-12	15:03:07.970	28.14	-36.365	41.79	0.888892	0.506544	0.208864	-0.078	-0.201	0.165	0	356	254	3
2026-02-12	15:03:07.990	26.6	-30.415	54.005	0.934276	0.506544	0.23912	-0.078	-0.201	0.165	0	356	254	3
2026-02-12	15:03:08.010	27.93	-28.175	64.995	0.8906	0.374784	0.162992	-0.078	-0.201	0.165	0	359	282	2
2026-02-12	15:03:08.030	25.76	-34.125	68.845	0.912072	0.406992	0.23424	-0.099	-0.1935	0.1815	0	359	282	2
2026-02-12	15:03:08.050	21.7	-40.25	67.865	0.920856	0.332816	0.1647	-0.099	-0.1935	0.1815	0	359	282	2
2026-02-12	15:03:08.070	25.13	-40.145	65.205	0.963068	0.355752	0.166652	-0.111	-0.186	0.189	0	359	282	2
2026-02-12	15:03:08.090	35.77	-40.215	64.05	0.938912	0.239608	0.164212	-0.1275	-0.1725	0.2025	0	359	282	2
2026-02-12	15:03:08.110	37.1	-42.665	62.37	0.991128	0.285968	0.1586	-0.138	-0.165	0.21	0	359	282	2
2026-02-12	15:03:08.130	32.865	-43.4	66.045	1.00772	0.384056	0.157868	-0.15	-0.162	0.222	0	359	282	2
2026-02-12	15:03:08.150	30.31	-42.595	73.395	1.004792	0.315248	0.10614	-0.1545	-0.1575	0.2265	0	359	282	2
2026-02-12	15:03:08.170	37.415	-50.33	78.26	0.998448	0.222528	0.16958	-0.165	-0.1515	0.234	0	359	282	2
2026-02-12	15:03:08.190	22.75	-60.585	83.125	1.121424	0.201056	0.183976	-0.1785	-0.1425	0.2505	0	359	282	2
2026-02-12	15:03:08.210	7.49	-68.04	90.055	1.095804	0.258152	0.042212	-0.1875	-0.1305	0.258	0	355	282	2
2026-02-12	15:03:08.230	5.53	-71.995	92.96	1.098976	0.19276	-0.028792	-0.1905	-0.117	0.2715	0	355	282	2
2026-02-12	15:03:08.250	4.025	-73.01	86.905	1.154364	0.179828	-0.095892	-0.1995	-0.1065	0.2805	0	355	282	2
2026-02-12	15:03:08.270	12.6	-66.22	71.435	1.237812	0.16592	-0.070516	-0.213	-0.0945	0.2865	0	355	282	2
2026-02-12	15:03:08.290	22.365	-52.92	55.02	1.293444	0.146156	-0.0244	-0.2205	-0.0885	0.303	0	355	282	2
2026-02-12	15:03:08.310	-5.67	-28.525	34.86	1.340292	0.087596	0.16592	-0.225	-0.0855	0.312	0	355	282	2
2026-02-12	15:03:08.330	-21.91	-5.6	24.01	1.19926	-0.118096	0.11224	-0.225	-0.0855	0.312	0	355	282	2
2026-02-12	15:03:08.350	2.45	16.835	12.81	1.051884	-0.109312	0.207644	-0.2235	-0.06	0.318	0	355	282	2
2026-02-12	15:03:08.370	52.22	29.12	8.225	1.061644	-0.020496	-0.018544	-0.222	-0.057	0.3165	0	355	282	2
2026-02-12	15:03:08.390	110.775	38.29	3.29	1.103124	0.111996	0.128344	-0.225	-0.06	0.3195	0	355	282	2
2026-02-12	15:03:08.410	110.005	39.375	-9.205	0.99918	0.122976	-0.239364	-0.225	-0.06	0.3225	0	348	249	3
2026-02-12	15:03:08.430	49.14	35.35	-8.47	0.964776	0.42212	-0.164212	-0.2325	-0.0645	0.3195	0	348	249	3
2026-02-12	15:03:08.450	7.84	22.26	-28	1.172176	0.691984	0.088084	-0.2265	-0.0705	0.33	0	348	249	3
2026-02-12	15:03:08.470	-62.965	30.73	-48.545	1.052128	0.913292	0.139812	-0.2145	-0.063	0.312	0	348	249	3
2026-02-12	15:03:08.490	-71.33	21.455	-81.305	1.064572	0.424072	0.16104	-0.2175	-0.069	0.3105	0	348	249	3
2026-02-12	15:03:08.510	7.315	43.19	-105.245	1.019676	0.601948	0.22082	-0.213	-0.087	0.3	0	348	249	3
2026-02-12	15:03:08.530	44.31	54.495	-124.075	1.061644	0.75762	0.171288	-0.198	-0.0975	0.306	0	348	249	3
2026-02-12	15:03:08.550	25.97	56.21	-136.255	1.115812	0.756888	0.200812	-0.186	-0.1155	0.291	0	348	249	3
2026-02-12	15:03:08.570	-38.57	66.605	-139.335	1.099952	0.705648	0.245464	-0.183	-0.126	0.288	0	348	249	3
2026-02-12	15:03:08.590	-79.905	78.19	-137.585	0.96136	0.529968	0.177388	-0.18	-0.1365	0.285	0	348	249	3
2026-02-12	15:03:08.610	-94.395	82.04	-132.125	0.978196	0.596824	0.142496	-0.1425	-0.159	0.2565	0	341	209	3
2026-02-12	15:03:08.630	-157.115	90.895	-116.025	0.937936	0.59902	0.275232	-0.1245	-0.1755	0.237	0	341	209	3
2026-02-12	15:03:08.650	-217.49	99.68	-92.435	0.890844	0.31476	0.386252	-0.108	-0.1785	0.2235	0	341	209	3
2026-02-12	15:03:08.670	-199.08	114.765	-68.355	0.941108	0.28792	0.480436	-0.0855	-0.186	0.1875	0	341	209	3
2026-02-12	15:03:08.690	-151.62	120.05	-49.77	0.992104	0.364536	0.475068	-0.0795	-0.174	0.1695	0	341	209	3
2026-02-12	15:03:08.710	-104.755	111.09	-38.99	0.941352	0.33428	0.402844	-0.0585	-0.168	0.1365	0	341	209	3
2026-02-12	15:03:08.730	-75.81	96.145	-33.74	0.838628	0.330864	0.340868	-0.045	-0.162	0.1125	0	341	209	3
2026-02-12	15:03:08.750	-90.86	78.015	-32.9	0.79544	0.23668	0.3355	-0.0315	-0.159	0.096	0	341	209	3
2026-02-12	15:03:08.770	-85.995	60.655	-35.175	0.846924	0.239364	0.397964	-0.0165	-0.168	0.09	0	341	209	3
2026-02-12	15:03:08.790	-65.24	55.23	-44.59	0.793244	0.282552	0.490684	-0.009	-0.1485	0.072	0	341	209	3
2026-02-12	15:03:08.810	-46.585	53.55	-55.37	0.694424	0.29524	0.589504	0	-0.15	0.069	0	335	203	3
2026-02-12	15:03:08.830	-37.45	53.445	-62.545	0.73322	0.29158	0.69296	0.0165	-0.144	0.054	0	335	203	3
2026-02-12	15:03:08.850	-67.445	54.565	-59.115	0.717848	0.316224	0.710772	0.0285	-0.141	0.0435	0	335	203	3
2026-02-12	15:03:08.870	-90.965	54.845	-54.215	0.613904	0.265472	0.5551	0.036	-0.138	0.0375	0	335	203	3
2026-02-12	15:03:08.890	-95.83	50.855	-46.725	0.644404	0.204228	0.459452	0.0525	-0.129	0.0285	0	335	203	3
2026-02-12	15:03:08.910	-95.62	42.77	-31.675	0.7564	0.169092	0.392108	0.063	-0.117	0.021	0	335	203	3
2026-02-12	15:03:08.930	-85.925	36.96	-20.965	0.707112	0.151036	0.354532	0.075	-0.108	0.006	0	335	203	3
2026-02-12	15:03:08.950	-65.485	29.435	-17.5	0.671732	0.100284	0.354532	0.0855	-0.102	0	0	335	203	3
2026-02-12	15:03:08.970	-31.08	27.335	-17.22	0.65514	0.10126	0.417728	0.0885	-0.0945	0	0	335	203	3
2026-02-12	15:03:08.990	-16.905	23.555	-12.635	0.715164	0.245464	0.449204	0.0915	-0.0885	-0.0075	0	335	203	3
2026-02-12	15:03:09.010	-30.73	17.64	-6.685	0.694912	0.204472	0.442128	0.0975	-0.0855	-0.0075	0	331	242	3
2026-02-12	15:03:09.030	-16.45	21.105	-5.11	0.637816	0.075884	0.385764	0.1005	-0.078	-0.003	0	331	242	3
2026-02-12	15:03:09.050	16.1	35.315	-2.8	0.549	0.183976	0.394304	0.105	-0.078	-0.003	0	331	242	3
2026-02-12	15:03:09.070	11.83	31.745	0	0.55144	0.239364	0.423584	0.1125	-0.0885	-0.009	0	331	242	3
2026-02-12	15:03:09.090	20.79	20.3	-0.56	0.598776	0.118828	0.399184	0.1125	-0.0885	-0.0105	0	331	242	3
2026-02-12	15:03:09.110	85.435	16.485	-11.97	0.5551	0.199104	0.34648	0.1125	-0.084	-0.009	0	331	242	3
2026-02-12	15:03:09.130	105	7.875	-17.99	0.632204	0.185684	0.243756	0.1125	-0.0915	-0.0075	0	331	242	3
2026-02-12	15:03:09.150	99.26	-3.29	-6.44	0.731268	-0.092476	0.219112	0.1185	-0.1035	-0.003	0	331	242	3
2026-02-12	15:03:09.170	108.395	-7.07	16.1	1.079456	0.251564	0.118096	0.1215	-0.1185	0.0075	0	331	242	3
2026-02-12	15:03:09.190	27.125	-15.75	0.63	1.946632	1.34444	0.33916	0.117	-0.138	0.0135	0	331	242	3
2026-02-12	15:03:09.210	98.49	-44.66	-46.69	0.996496	-0.686128	0.951844	0.114	-0.1455	0.021	0	329	292	3
2026-02-12	15:03:09.230	132.475	-12.705	-42.49	0.66734	0.345992	0.839116	0.1155	-0.15	0.033	0	329	292	3
2026-02-12	15:03:09.250	101.185	-15.4	-41.685	0.548756	0.713212	0.799588	0.1155	-0.162	0.039	0	329	292	3
2026-02-12	15:03:09.270	42.84	-24.115	-32.025	0.40992	0.713944	0.85644	0.1155	-0.174	0.048	0	329	292	3
2026-02-12	15:03:09.290	39.795	-23.24	-28.49	0.470188	0.674416	0.538264	0.117	-0.186	0.054	0	329	292	3
2026-02-12	15:03:09.310	72.66	-27.125	-25.97	0.590236	0.472872	0.467504	0.1095	-0.198	0.0585	0	329	292	3
2026-02-12	15:03:09.330	68.775	-35.77	-17.465	0.634156	0.47336	0.487512	0.108	-0.201	0.0705	0	329	292	3
2026-02-12	15:03:09.350	63.805	-39.06	-8.89	0.6344	0.65148	0.39284	0.114	-0.2055	0.081	0	329	292	3
2026-02-12	15:03:09.370	48.615	-44.8	1.61	0.595848	0.63806	0.491904	0.111	-0.21	0.084	0	329	292	3
2026-02-12	15:03:09.390	66.885	-48.79	17.395	0.681736	0.63562	0.41724	0.1095	-0.2115	0.084	0	329	292	3
2026-02-12	15:03:09.410	67.83	-47.74	34.65	0.648308	0.652212	0.44652	0.1095	-0.2115	0.084	0	333	347	3
2026-02-12	15:03:09.430	62.335	-50.12	46.9	0.609512	0.726876	0.405284	0.087	-0.2235	0.117	0	333	347	3
2026-02-12	15:03:09.450	59.43	-62.335	55.79	0.66856	0.868884	0.720776	0.069	-0.2355	0.1275	0	333	347	3
2026-02-12	15:03:09.470	50.47	-83.65	59.64	0.72956	0.604144	0.618052	0.057	-0.237	0.1335	0	333	347	3
2026-02-12	15:03:09.490	44.695	-96.565	62.3	0.790072	0.683688	0.525332	0.042	-0.234	0.1395	0	333	347	3
2026-02-12	15:03:09.510	20.3	-109.655	66.29	0.79056	0.621224	0.43066	0.033	-0.2325	0.1605	0	333	347	3
2026-02-12	15:03:09.530	5.425	-107.765	68.88	0.724436	0.628056	0.240096	0.015	-0.24	0.1575	0	333	347	3
2026-02-12	15:03:09.550	-7.805	-96.95	73.78	0.697108	0.766648	0.155428	0.0015	-0.2235	0.165	0	333	347	3
2026-02-12	15:03:09.570	-14.77	-84.595	79.975	0.744444	0.675148	0.109556	-0.0225	-0.219	0.171	0	333	347	3
2026-02-12	15:03:09.590	-12.495	-68.95	84.455	0.76616	0.482388	0.095404	-0.033	-0.21	0.18	0	333	347	3
2026-02-12	15:03:09.610	-31.64	-60.41	90.125	0.8418	0.448228	0.119072	-0.051	-0.2145	0.1845	0	340	384	3
2026-02-12	15:03:09.630	-29.82	-58.24	90.86	0.86742	0.410652	0.156648	-0.06	-0.204	0.183	0	340	384	3
2026-02-12	15:03:09.650	-17.78	-53.375	87.465	0.89548	0.385032	0.156648	-0.0705	-0.186	0.1965	0	340	384	3
2026-02-12	15:03:09.670	-3.29	-47.845	84.875	0.922564	0.382836	0.177388	-0.0705	-0.186	0.1965	0	340	384	3
2026-02-12	15:03:09.690	15.015	-43.785	79.345	0.987956	0.312808	0.204228	-0.0825	-0.1695	0.201	0	340	384	3
2026-02-12	15:03:09.710	20.685	-39.27	73.395	0.973804	0.33062	0.164212	-0.1065	-0.162	0.207	0	340	384	3
2026-02-12	15:03:09.730	23.03	-34.72	66.08	0.9272	0.235216	0.066124	-0.123	-0.159	0.207	0	340	384	3
2026-02-12	15:03:09.750	19.18	-27.965	61.53	0.961116	0.310612	0.094916	-0.12	-0.1485	0.216	0	340	384	3
2026-02-12	15:03:09.770	16.485	-20.965	60.13	0.984052	0.332572	0.052216	-0.1305	-0.1455	0.219	0	340	384	3
2026-02-12	15:03:09.790	28.035	-9.065	56.42	0.95038	0.247172	0.011468	-0.1275	-0.138	0.228	0	340	384	3
2026-02-12	15:03:09.810	32.41	5.04	51.45	0.924516	0.212768	-0.006588	-0.1395	-0.135	0.2385	0	345	373	3
2026-02-12	15:03:09.830	34.23	15.365	51.275	0.992104	0.366244	0.085888	-0.1425	-0.1275	0.2355	0	345	373	3
2026-02-12	15:03:09.850	38.395	18.41	52.745	1.005524	0.239364	0.103944	-0.1485	-0.1305	0.2325	0	345	373	3
2026-02-12	15:03:09.870	40.005	20.44	45.255	0.91134	0.07076	0.03416	-0.1575	-0.114	0.2325	0	345	373	3
2026-02-12	15:03:09.890	35.875	15.19	39.13	1.040904	0.297436	0.263276	-0.165	-0.1215	0.2355	0	345	373	3
2026-02-12	15:03:09.910	26.39	-5.74	41.86	1.077504	0.199592	0.252296	-0.165	-0.108	0.2415	0	345	373	3
2026-02-12	15:03:09.930	8.4	-25.515	42.21	1.131428	0.187636	0.157868	-0.1695	-0.1125	0.249	0	345	373	3
2026-02-12	15:03:09.950	-1.33	-32.76	41.895	1.097512	0.06344	0.041968	-0.168	-0.102	0.249	0	345	373	3
2026-02-12	15:03:09.970	-13.72	-35.385	52.5	1.14802	0.165188	0.089548	-0.171	-0.0945	0.255	0	345	373	3
2026-02-12	15:03:09.990	-30.52	-43.61	75.04	1.29808	0.028548	-0.166896	-0.177	-0.0945	0.2595	0	345	373	3
2026-02-12	15:03:10.010	-49.7	-50.05	78.89	1.27734	0.731756	0.200324	-0.183	-0.0825	0.258	0	349	323	3
2026-02-12	15:03:10.030	-37.66	-53.795	70	1.360544	0.280112	0.055144	-0.192	-0.0675	0.2625	0	349	323	3
2026-02-12	15:03:10.050	-8.225	-43.995	69.79	1.377868	0.430904	0.1891	-0.198	-0.057	0.27	0	349	323	3
2026-02-12	15:03:10.070	19.88	-32.2	61.81	1.381528	0.327448	0.25498	-0.2055	-0.0465	0.276	0	349	323	3
2026-02-12	15:03:10.090	41.72	-18.235	53.375	1.352736	0.127368	0.062464	-0.2145	-0.036	0.2865	0	349	323	3
2026-02-12	15:03:10.110	98.35	-6.545	45.92	1.478884	0.126392	0.205936	-0.2205	-0.03	0.291	0	349	323	3
2026-02-12	15:03:10.130	176.47	15.085	26.53	1.323944	0.016348	0.071004	-0.216	-0.027	0.297	0	349	323	3
2026-02-12	15:03:10.150	135.415	27.44	28.315	1.066768	0.132736	-0.075884	-0.2115	-0.0225	0.3	0	349	323	3
2026-02-12	15:03:10.170	8.05	28.875	32.06	1.235128	0.475312	0.228872	-0.21	-0.024	0.297	0	349	323	3
2026-02-12	15:03:10.190	-108.885	41.58	6.44	1.03944	0.649528	0.346968	-0.216	-0.0195	0.294	0	349	323	3
2026-02-12	15:03:10.210	-116.76	55.58	-45.08	0.840824	0.393084	0.355264	-0.2205	-0.015	0.2895	0	352	270	3
2026-02-12	15:03:10.230	-5.11	62.86	-88.69	0.864248	0.033184	0.221552	-0.21	-0.015	0.2625	0	352	270	3
2026-02-12	15:03:10.250	58.765	80.115	-104.86	0.844484	0.296948	0.28182	-0.204	-0.021	0.2595	0	352	270	3
2026-02-12	15:03:10.270	8.225	80.185	-114.975	0.899628	0.348676	0.499712	-0.1965	-0.036	0.2505	0	352	270	3
2026-02-12	15:03:10.290	-52.15	89.53	-124.215	0.919636	0.296216	0.567788	-0.192	-0.051	0.246	0	352	270	3
2026-02-12	15:03:10.310	-54.18	100.31	-136.85	0.953552	0.160308	0.479948	-0.1785	-0.0675	0.2355	0	352	270	3
2026-02-12	15:03:10.330	-10.815	108.675	-148.015	0.975756	0.225944	0.429196	-0.165	-0.084	0.216	0	352	270	3
2026-02-12	15:03:10.350	-8.89	110.845	-151.725	0.994544	0.30012	0.429684	-0.1455	-0.096	0.201	0	352	270	3
2026-02-12	15:03:10.370	-39.865	112.525	-149.17	0.95648	0.228872	0.358436	-0.1245	-0.111	0.189	0	352	270	3
2026-02-12	15:03:10.390	-30.52	112.945	-151.515	0.874984	0.229848	0.3172	-0.1125	-0.126	0.1785	0	352	270	3
2026-02-12	15:03:10.410	17.045	105.98	-159.04	0.84302	0.24278	0.327448	-0.0855	-0.1335	0.1635	0	353	251	3
2026-02-12	15:03:10.430	47.74	100.66	-159.845	0.809836	0.204228	0.394304	-0.06	-0.15	0.1515	0	353	251	3
2026-02-12	15:03:10.450	31.78	94.5	-146.16	0.738344	0.2074	0.422364	-0.0435	-0.168	0.147	0	353	251	3
2026-02-12	15:03:10.470	-37.24	83.755	-118.475	0.672708	0.287676	0.375516	-0.036	-0.1695	0.144	0	353	251	3
2026-02-12	15:03:10.490	-71.26	79.17	-103.355	0.64294	0.35746	0.381372	0.012	-0.198	0.123	0	353	251	3
2026-02-12	15:03:10.510	-86.835	77.91	-92.75	0.652944	0.394548	0.443592	0.024	-0.1935	0.111	0	353	251	3
2026-02-12	15:03:10.530	-89.25	81.48	-85.575	0.633912	0.500688	0.43554	0.0435	-0.1935	0.099	0	353	251	3
2026-02-12	15:03:10.550	-92.295	80.64	-82.075	0.567788	0.520208	0.414312	0.057	-0.1875	0.0885	0	353	251	3
2026-02-12	15:03:10.570	-95.2	73.605	-80.78	0.547292	0.539728	0.4758	0.069	-0.183	0.084	0	353	251	3
2026-02-12	15:03:10.590	-98.455	69.02	-76.23	0.527284	0.559004	0.51728	0.093	-0.18	0.0705	0	353	251	3
2026-02-12	15:03:10.610	-91.35	66.57	-72.415	0.55022	0.590968	0.580476	0.1005	-0.174	0.0615	0	352	272	2
2026-02-12	15:03:10.630	-77.42	70.7	-73.22	0.601948	0.567056	0.618052	0.111	-0.159	0.036	0	352	272	2
2026-02-12	15:03:10.650	-43.68	68.39	-74.55	0.566812	0.242536	0.32574	0.129	-0.156	0.0375	0	352	272	2
2026-02-12	15:03:10.670	91.42	63.91	-69.79	0.696864	-0.042212	0.554612	0.1515	-0.1545	0.0405	0	352	272	2
2026-02-12	15:03:10.690	195.23	86.205	-80.36	0.708332	0.966484	0.782996	0.162	-0.159	0.0495	0	352	272	2
2026-02-12	15:03:10.710	78.26	88.235	-76.44	0.97844	1.157292	0.8967	0.18	-0.186	0.0615	0	352	272	2
2026-02-12	15:03:10.730	-18.445	72.975	-84.84	0.717116	0.498248	0.622932	0.1935	-0.195	0.069	0	352	272	2
2026-02-12	15:03:10.750	0.385	67.165	-82.355	0.405284	0.44896	0.426512	0.213	-0.189	0.069	0	352	272	2
2026-02-12	15:03:10.770	103.46	54.635	-81.62	0.449936	0.358924	0.282308	0.237	-0.192	0.072	0	352	272	2
2026-02-12	15:03:10.790	185.15	42.315	-54.775	0.626592	0.39894	0.149328	0.246	-0.204	0.084	0	352	272	2
2026-02-12	15:03:10.810	173.6	24.745	-19.145	0.77836	0.488732	0.011224	0.2505	-0.213	0.108	0	352	317	3
2026-02-12	15:03:10.830	90.895	-28.805	31.885	1.438624	0.329156	-0.332084	0.2505	-0.219	0.123	0	352	317	3
2026-02-12	15:03:10.850	57.015	-69.23	56.21	1.519144	0.00244	0.255712	0.2445	-0.234	0.1275	0	352	317	3
2026-02-12	15:03:10.870	88.69	-58.485	58.485	0.470188	0.45018	0.526064	0.2385	-0.2415	0.1335	0	352	317	3
2026-02-12	15:03:10.890	60.55	-65.66	73.745	0.124196	1.468148	1.148996	0.2295	-0.252	0.1455	0	352	317	3
2026-02-12	15:03:10.910	131.985	-62.23	65.835	-0.750056	0.893284	0.381616	0.21	-0.2475	0.1455	0	352	317	3
2026-02-12	15:03:10.930	119.63	-74.13	70.385	0.066612	1.406416	0.274012	0.1965	-0.2595	0.1695	0	352	317	3
2026-02-12	15:03:10.950	9.94	-99.155	78.47	0.976488	0.428464	0.81618	0.1845	-0.2685	0.1905	0	352	317	3
2026-02-12	15:03:10.970	15.4	-83.965	84.105	0.61854	0.730048	0.447496	0.1665	-0.267	0.189	0	352	317	3
2026-02-12	15:03:10.990	29.295	-80.115	81.27	0.391132	0.977708	0.349408	0.1485	-0.267	0.1965	0	352	317	3
2026-02-12	15:03:11.010	19.355	-83.79	86.695	0.718824	0.61488	0.410652	0.138	-0.2745	0.198	0	361	353	3
2026-02-12	15:03:11.030	31.745	-75.845	91.77	0.510936	0.8235	0.24156	0.12	-0.2715	0.1995	0	361	353	3
2026-02-12	15:03:11.050	26.565	-70.385	93.555	0.497028	0.867176	0.230824	0.0975	-0.2655	0.207	0	361	353	3
2026-02-12	15:03:11.070	17.71	-70.49	90.895	0.711992	0.589016	0.358192	0.078	-0.2625	0.216	0	361	353	3
2026-02-12	15:03:11.090	18.375	-66.01	87.64	0.712968	0.656116	0.201056	0.057	-0.258	0.222	0	361	353	3
2026-02-12	15:03:11.110	21.14	-57.645	84.98	0.606096	0.66856	0.142252	0.0465	-0.252	0.2295	0	361	353	3
2026-02-12	15:03:11.130	20.755	-54.6	81.655	0.70394	0.662216	0.251808	0.0315	-0.2565	0.2325	0	361	353	3
2026-02-12	15:03:11.150	15.785	-58.835	75.915	0.837896	0.491172	0.302804	0.0165	-0.249	0.234	0	361	353	3
2026-02-12	15:03:11.170	14.805	-58.73	70.665	0.783484	0.684664	0.175436	0.0045	-0.2385	0.24	0	361	353	3
2026-02-12	15:03:11.190	2.765	-52.08	66.85	0.742736	0.492636	0.174216	-0.0075	-0.243	0.252	0	361	353	3
2026-02-12	15:03:11.210	-2.835	-40.285	65.065	0.7869	0.567056	0.13176	-0.0165	-0.237	0.258	0	375	364	3
2026-02-12	15:03:11.230	-2.94	-31.675	64.995	0.887672	0.698084	0.076372	-0.021	-0.2295	0.2565	0	375	364	3
2026-02-12	15:03:11.250	12.74	-25.48	60.34	0.7808	0.530212	0.114436	-0.033	-0.225	0.2595	0	375	364	3
2026-02-12	15:03:11.270	20.405	-22.575	58.835	0.857172	0.4941	0.131272	-0.0435	-0.2205	0.2655	0	375	364	3
2026-02-12	15:03:11.290	23.59	-23.03	56.105	0.816424	0.50996	0.099064	-0.0435	-0.2205	0.267	0	375	364	3
2026-02-12	15:03:11.310	11.375	-28.595	55.44	0.799344	0.683444	0.116876	-0.057	-0.21	0.273	0	375	364	3
2026-02-12	15:03:11.330	-21.14	-37.45	59.255	0.930372	0.571448	0.117852	-0.0645	-0.21	0.2835	0	375	364	3
2026-02-12	15:03:11.350	-26.285	-40.11	62.23	0.887916	0.476532	0.107848	-0.0795	-0.201	0.288	0	375	364	3
2026-02-12	15:03:11.370	-31.36	-37.66	71.155	0.876936	0.47702	0.045628	-0.09	-0.195	0.279	0	375	364	3
2026-02-12	15:03:11.390	-33.53	-33.005	84	0.927688	0.599264	0.025376	-0.09	-0.189	0.2805	0	375	364	3
2026-02-12	15:03:11.410	-23.625	-30.345	97.72	0.9516	0.490196	0.137616	-0.096	-0.177	0.282	0	384	336	3
2026-02-12	15:03:11.430	-18.06	-27.685	110.39	0.975756	0.427488	-0.023424	-0.102	-0.1665	0.282	0	384	336	3
2026-02-12	15:03:11.450	-12.495	-24.29	121.52	1.008452	0.501908	0.004392	-0.114	-0.156	0.2865	0	384	336	3
2026-02-12	15:03:11.470	-3.605	-22.155	138.075	1.011624	0.3721	0.094916	-0.1275	-0.1455	0.2925	0	384	336	3
2026-02-12	15:03:11.490	-1.715	-18.095	155.05	1.006256	0.34404	-0.165432	-0.141	-0.1275	0.2955	0	384	336	3
2026-02-12	15:03:11.510	17.535	-20.335	176.26	1.141188	0.333792	0.161772	-0.1545	-0.108	0.2985	0	384	336	3
2026-02-12	15:03:11.530	4.34	-18.69	186.48	1.114592	0.212524	0.1708	-0.1665	-0.0915	0.303	0	384	336	3
2026-02-12	15:03:11.550	-6.055	-26.705	190.785	1.35786	0.338916	0.02196	-0.1755	-0.081	0.3045	0	384	336	3
2026-02-12	15:03:11.570	14.315	-38.57	179.725	1.54574	-0.100772	-0.437004	-0.201	-0.027	0.306	0	384	336	3
2026-02-12	15:03:11.590	25.41	-26.32	132.055	1.705072	0.887428	0.137128	-0.207	-0.0075	0.306	0	384	336	3
2026-02-12	15:03:11.610	24.745	-17.78	62.895	1.609912	-0.00244	0.004636	-0.21	0.009	0.3345	0	390	280	3
2026-02-12	15:03:11.630	41.09	-4.55	13.44	1.423496	0.232776	0.268888	-0.2085	0.0225	0.336	0	390	280	3
2026-02-12	15:03:11.650	129.115	24.15	-42.315	1.0919	-0.227408	0.45384	-0.21	0.0255	0.327	0	390	280	3
2026-02-12	15:03:11.670	200.655	31.57	-62.195	1.028216	-0.697352	0.332084	-0.2115	0.0195	0.3345	0	390	280	3
2026-02-12	15:03:11.690	205.45	46.165	-63.28	0.96014	-0.182024	0.202032	-0.2115	0.009	0.3405	0	390	280	3
2026-02-12	15:03:11.710	102.305	49.035	-71.47	1.00284	0.423096	0.133712	-0.21	0.003	0.3405	0	390	280	3
2026-02-12	15:03:11.730	-19.53	41.125	-91.175	0.939644	0.549244	0.088572	-0.2025	-0.0135	0.3405	0	390	280	3
2026-02-12	15:03:11.750	-58.275	35	-125.825	0.947452	0.411628	0.234484	-0.204	-0.0255	0.333	0	390	280	3
2026-02-12	15:03:11.770	-32.27	51.03	-157.64	0.979904	0.5551	0.384788	-0.1965	-0.045	0.3255	0	390	280	3
2026-02-12	15:03:11.790	-30.73	68.32	-174.79	0.92842	0.545584	0.33672	-0.189	-0.0645	0.3195	0	390	280	3
2026-02-12	15:03:11.810	-31.5	83.825	-187.705	0.862052	0.60024	0.380396	-0.174	-0.0795	0.3045	0	397	235	3
2026-02-12	15:03:11.830	-43.645	92.68	-192.745	0.808616	0.776896	0.38918	-0.1635	-0.108	0.2895	0	397	235	3
2026-02-12	15:03:11.850	-95.095	91.42	-189.63	0.833504	0.787632	0.413336	-0.138	-0.1425	0.267	0	397	235	3
2026-02-12	15:03:11.870	-142.135	94.045	-183.155	0.76982	0.592676	0.419436	-0.1155	-0.1605	0.249	0	397	235	3
2026-02-12	15:03:11.890	-155.75	100.625	-175.77	0.6771	0.388204	0.449204	-0.093	-0.177	0.222	0	397	235	3
2026-02-12	15:03:11.910	-146.3	109.305	-167.44	0.63196	0.241072	0.482876	-0.0705	-0.1815	0.195	0	397	235	3
2026-02-12	15:03:11.930	-129.675	119.105	-159.005	0.619272	0.252296	0.406016	-0.045	-0.189	0.1725	0	397	235	3
2026-02-12	15:03:11.950	-143.465	123.305	-146.615	0.538508	0.270352	0.320128	-0.015	-0.195	0.147	0	397	235	3
2026-02-12	15:03:11.970	-160.895	111.79	-132.72	0.571692	0.22936	0.343308	-0.003	-0.1935	0.135	0	397	235	3
2026-02-12	15:03:11.990	-163.975	102.865	-116.235	0.626104	0.239364	0.445788	0.018	-0.198	0.1065	0	397	235	3
2026-02-12	15:03:12.010	-160.265	95.62	-97.475	0.643184	0.34404	0.49166	0.018	-0.198	0.1065	0	403	234	3
2026-02-12	15:03:12.030	-130.2	89.845	-93.135	0.668316	0.29158	0.494832	0.0585	-0.18	0.075	0	403	234	3
2026-02-12	15:03:12.050	-72.695	83.685	-89.67	0.652456	0.317932	0.482632	0.0765	-0.171	0.057	0	403	234	3
2026-02-12	15:03:12.070	-33.39	72.065	-84.84	0.612928	0.286944	0.479948	0.0975	-0.165	0.0375	0	403	234	3
2026-02-12	15:03:12.090	0.28	53.41	-74.9	0.571692	0.3294	0.503616	0.0975	-0.165	0.0375	0	403	234	3
2026-02-12	15:03:12.110	2.065	37.52	-64.68	0.766648	0.301584	0.4148	0.12	-0.165	0.033	0	403	234	3
2026-02-12	15:03:12.130	-3.71	31.395	-44.59	0.7991	0.145424	0.697108	0.1515	-0.168	0.03	0	403	234	3
2026-02-12	15:03:12.150	2.73	30.59	-41.93	0.781044	0.218624	0.685152	0.1665	-0.1695	0.027	0	403	234	3
2026-02-12	15:03:12.170	4.235	38.815	-35.525	0.796416	0.500688	0.746396	0.174	-0.168	0.0255	0	403	234	3
2026-02-12	15:03:12.190	-9.275	36.995	-34.93	0.857416	0.750788	0.71126	0.177	-0.171	0.0255	0	403	234	3
2026-02-12	15:03:12.210	-39.235	29.085	-30.87	0.794708	0.665144	0.589992	0.189	-0.1695	0.0225	0	405	276	3
2026-02-12	15:03:12.230	-27.545	15.785	-22.505	0.722972	0.385032	0.596336	0.198	-0.1635	0.0195	0	405	276	3
2026-02-12	15:03:12.250	-6.685	8.575	-8.715	0.556564	0.381616	0.454084	0.198	-0.1605	0.018	0	405	276	3
2026-02-12	15:03:12.270	22.925	-12.495	12.46	0.548024	0.265716	0.258884	0.1995	-0.162	0.018	0	405	276	3
2026-02-12	15:03:12.290	131.25	-34.265	16.485	0.649772	0.564616	-0.06734399	0.1995	-0.165	0.0195	0	405	276	3
2026-02-12	15:03:12.310	174.195	-62.265	32.655	0.877668	0.435784	-0.091012	0.189	-0.177	0.0345	0	405	276	3
2026-02-12	15:03:12.330	156.275	-87.85	65.24	0.898164	0.342332	0.645868	0.1725	-0.1905	0.0495	0	405	276	3
2026-02-12	15:03:12.350	35.385	-100.24	75.46	0.47946	0.579988	0.850584	0.165	-0.1965	0.0525	0	405	276	3
2026-02-12	15:03:12.370	72.905	-91.56	69.545	0.336232	0.545584	0.885964	0.165	-0.1965	0.0525	0	405	276	3
2026-02-12	15:03:12.390	103.565	-79.555	67.025	0.43554	1.061888	0.633668	0.1185	-0.213	0.081	0	405	276	3
2026-02-12	15:03:12.410	65.94	-87.5	70.21	0.512888	0.616832	0.488976	0.1005	-0.2265	0.0945	0	405	334	3
2026-02-12	15:03:12.430	58.31	-82.075	69.37	0.72956	0.544852	0.592676	0.078	-0.228	0.1035	0	405	334	3
2026-02-12	15:03:12.450	91.28	-72.625	64.68	0.76128	0.469212	0.525576	0.063	-0.228	0.1185	0	405	334	3
2026-02-12	15:03:12.470	151.025	-60.06	60.095	0.763476	0.61	0.424804	0.0495	-0.2355	0.1365	0	405	334	3
2026-02-12	15:03:12.490	149.555	-45.745	66.675	0.606828	0.82472	0.351116	0.03	-0.2385	0.1605	0	405	334	3
2026-02-12	15:03:12.510	76.475	-39.515	72.31	0.65758	0.812032	0.361364	0.0315	-0.2445	0.177	0	405	334	3
2026-02-12	15:03:12.530	33.95	-41.405	75.635	0.77958	0.583404	0.374052	0.021	-0.249	0.1785	0	405	334	3
2026-02-12	15:03:12.550	35.98	-37.345	74.375	0.758596	0.479216	0.28792	0.0045	-0.252	0.1845	0	405	334	3
2026-02-12	15:03:12.570	38.36	-30.135	74.935	0.723948	0.57706	0.278892	-0.0045	-0.246	0.1935	0	405	334	3
2026-02-12	15:03:12.590	14.63	-30.87	78.575	0.759084	0.565836	0.303048	-0.015	-0.24	0.198	0	405	334	3
2026-02-12	15:03:12.610	-5.39	-35.735	79.8	0.849852	0.538264	0.39284	-0.0285	-0.2355	0.207	0	401	379	3
2026-02-12	15:03:12.630	-10.815	-42.315	76.93	0.78202	0.506788	0.312808	-0.036	-0.2325	0.216	0	401	379	3
2026-02-12	15:03:12.650	-24.64	-50.575	74.095	0.871324	0.454328	0.366	-0.051	-0.2235	0.207	0	401	379	3
2026-02-12	15:03:12.670	-25.515	-59.955	68.425	0.907924	0.411384	0.346236	-0.0675	-0.216	0.2205	0	401	379	3
2026-02-12	15:03:12.690	-16.87	-62.79	60.13	0.889136	0.350628	0.239608	-0.0825	-0.2055	0.219	0	401	379	3
2026-02-12	15:03:12.710	-14.105	-60.585	53.41	0.90646	0.40382	0.228384	-0.0885	-0.1995	0.2175	0	401	379	3
2026-02-12	15:03:12.730	-18.06	-58.31	51.73	0.917684	0.447984	0.21594	-0.093	-0.2025	0.231	0	401	379	3
2026-02-12	15:03:12.750	-14.14	-54.145	50.575	0.915	0.3843	0.1647	-0.1065	-0.1905	0.2355	0	401	379	3
2026-02-12	15:03:12.770	-8.085	-44.695	48.79	0.926956	0.39406	0.162992	-0.114	-0.1875	0.24	0	401	379	3
2026-02-12	15:03:12.790	-13.09	-39.305	48.44	0.93208	0.386008	0.138104	-0.1185	-0.1725	0.2475	0	401	379	3
2026-02-12	15:03:12.810	-6.055	-35.595	46.165	0.92842	0.25132	0.102968	-0.1275	-0.171	0.2505	0	393	387	3
2026-02-12	15:03:12.830	-2.87	-28.175	45.15	0.96014	0.380396	0.176168	-0.1275	-0.1635	0.246	0	393	387	3
2026-02-12	15:03:12.850	-7.175	-29.33	49.84	0.979416	0.403088	0.185928	-0.132	-0.162	0.2475	0	393	387	3
2026-02-12	15:03:12.870	3.29	-26.845	49.875	0.930372	0.2257	0.021716	-0.1425	-0.156	0.258	0	393	387	3
2026-02-12	15:03:12.890	11.34	-16.905	54.18	0.979416	0.283284	0.138592	-0.1485	-0.1425	0.264	0	393	387	3
2026-02-12	15:03:12.910	7.665	-19.145	63.21	0.978928	0.307684	0.123952	-0.1545	-0.141	0.2685	0	393	387	3
2026-02-12	15:03:12.930	5.495	-20.93	70.63	0.991616	0.222772	0.11346	-0.1605	-0.132	0.273	0	393	387	3
2026-02-12	15:03:12.950	9.905	-23.87	77.98	0.9821	0.226676	0.063196	-0.165	-0.123	0.2745	0	393	387	3
2026-02-12	15:03:12.970	15.645	-24.465	86.345	1.034072	0.251076	0.032696	-0.1725	-0.1155	0.2775	0	393	387	3
2026-02-12	15:03:12.990	15.785	-33.39	100.275	1.09312	0.243024	0.294508	-0.183	-0.1035	0.2835	0	393	387	3
2026-02-12	15:03:13.010	-64.295	-54.495	114.66	1.333948	0.186904	0.218624	-0.1935	-0.0885	0.288	0	382	354	2
2026-02-12	15:03:13.030	-108.15	-81.13	144.305	1.571848	-0.061732	0.069784	-0.198	-0.069	0.294	0	382	354	2
2026-02-12	15:03:13.050	-129.325	-72.765	145.53	1.615768	0.266448	0.330864	-0.204	-0.048	0.2985	0	382	354	2
2026-02-12	15:03:13.070	-189.35	-73.85	133.665	1.704584	0.110532	0.123708	-0.2115	-0.0375	0.2985	0	382	354	2
2026-02-12	15:03:13.090	-224.735	-71.785	117.845	1.6897	0.247172	0.128344	-0.225	-0.009	0.3075	0	382	354	2
2026-02-12	15:03:13.110	-196.07	-51.73	83.335	1.392996	0.236924	0.171288	-0.231	0.0135	0.2985	0	382	354	2
2026-02-12	15:03:13.130	-171.535	-32.025	61.565	1.058716	0.08686399	0.0488	-0.2325	0.027	0.306	0	382	354	2
2026-02-12	15:03:13.150	-146.23	-24.29	52.22	1.04188	0.011956	0.299388	-0.234	0.0375	0.3105	0	382	354	2
2026-02-12	15:03:13.170	-123.55	7.875	33.81	0.890112	0.07515199	0.438224	-0.234	0.0375	0.3105	0	382	354	2
2026-02-12	15:03:13.190	-91.175	30.17	18.34	0.848876	-0.020008	0.45506	-0.237	0.051	0.309	0	382	354	2
2026-02-12	15:03:13.210	-43.19	53.935	2.38	0.842776	-0.166652	0.377956	-0.2445	0.0645	0.3015	0	373	309	3
2026-02-12	15:03:13.230	-0.35	73.5	-12.565	0.948184	-0.112972	0.233996	-0.246	0.066	0.294	0	373	309	3
2026-02-12	15:03:13.250	7.035	89.285	-21.805	0.929152	-0.029036	0.039284	-0.24	0.0705	0.2895	0	373	309	3
2026-02-12	15:03:13.270	-23.205	90.51	-24.43	0.912804	-0.05246	-0.03538	-0.2355	0.0675	0.276	0	373	309	3
2026-02-12	15:03:13.290	-52.78	91	-20.79	0.906216	-0.155916	-0.053436	-0.234	0.0615	0.2595	0	373	309	3
2026-02-12	15:03:13.310	-50.54	92.19	-32.62	0.873276	-0.09857599	0.003416	-0.231	0.0615	0.246	0	373	309	3
2026-02-12	15:03:13.330	-38.22	94.255	-45.955	0.77226	-0.077104	-0.061976	-0.231	0.057	0.228	0	373	309	3
2026-02-12	15:03:13.350	1.645	91.7	-53.9	0.719068	-0.154452	-0.064904	-0.2265	0.0465	0.21	0	373	309	3
2026-02-12	15:03:13.370	51.8	97.475	-56.105	0.649284	-0.170312	0.04026	-0.216	0.0375	0.201	0	373	309	3
2026-02-12	15:03:13.390	96.635	103.11	-59.64	0.630008	-0.061244	0.137616	-0.2085	0.03	0.189	0	373	309	3
2026-02-12	15:03:13.410	122.85	105.455	-65.835	0.64294	0.11346	0.225212	-0.201	0.0255	0.18	0	369	268	3
2026-02-12	15:03:13.430	119.665	104.3	-76.335	0.778848	0.270596	0.431636	-0.1965	0.024	0.1785	0	369	268	3
2026-02-12	15:03:13.450	92.715	106.575	-80.78	0.852292	0.287676	0.47458	-0.1965	0.024	0.1785	0	369	268	3
2026-02-12	15:03:13.470	73.29	104.86	-84.175	0.911096	0.280112	0.436028	-0.165	-0.0405	0.1485	0	369	268	3
2026-02-12	15:03:13.490	55.475	100.065	-84.245	0.962824	0.271572	0.430416	-0.159	-0.0585	0.138	0	369	268	3
2026-02-12	15:03:13.510	24.15	97.02	-82.005	1.009184	0.316712	0.458232	-0.1425	-0.066	0.129	0	369	268	3
2026-02-12	15:03:13.530	-2.275	91.98	-78.225	1.0431	0.152012	0.462624	-0.1275	-0.078	0.1305	0	369	268	3
2026-02-12	15:03:13.550	6.86	88.025	-77.175	0.987224	0.099064	0.445544	-0.108	-0.078	0.108	0	369	268	3
2026-02-12	15:03:13.570	21.91	84.49	-78.89	0.88816	0.127124	0.459696	-0.1005	-0.087	0.1095	0	369	268	3
2026-02-12	15:03:13.590	42.245	80.29	-84.42	0.8113	0.119316	0.486536	-0.09	-0.096	0.108	0	369	268	3
2026-02-12	15:03:13.610	71.54	77.98	-91.98	0.743956	0.162504	0.481168	-0.078	-0.12	0.1035	0	367	254	3
2026-02-12	15:03:13.630	90.79	73.325	-96.81	0.644404	0.17934	0.453352	-0.072	-0.117	0.0975	0	367	254	3
2026-02-12	15:03:13.650	100.45	68.11	-97.685	0.57584	0.223504	0.45994	-0.0555	-0.1275	0.099	0	367	254	3
2026-02-12	15:03:13.670	94.955	63.56	-94.85	0.528016	0.300852	0.489952	-0.0405	-0.1515	0.1065	0	367	254	3
2026-02-12	15:03:13.690	74.935	57.89	-88.585	0.568032	0.35868	0.52094	-0.0255	-0.1665	0.108	0	367	254	3
2026-02-12	15:03:13.710	42.245	56.84	-79.87	0.657336	0.41602	0.591944	-0.015	-0.171	0.111	0	367	254	3
2026-02-12	15:03:13.730	8.715	62.685	-71.575	0.780556	0.531188	0.63318	0.012	-0.201	0.117	0	367	254	3
2026-02-12	15:03:13.750	-38.36	78.995	-68.95	0.840824	0.616832	0.715408	0.0105	-0.207	0.1035	0	367	254	3
2026-02-12	15:03:13.770	-85.82	94.71	-67.9	0.9089	0.520208	0.87474	0.039	-0.2175	0.102	0	367	254	3
2026-02-12	15:03:13.790	-113.155	113.26	-61.46	0.905728	0.325008	0.847656	0.051	-0.2235	0.0765	0	367	254	3
2026-02-12	15:03:13.810	-80.92	129.885	-51.415	0.816912	0.1403	0.775676	0.0705	-0.2175	0.0465	0	365	292	3
2026-02-12	15:03:13.830	-16.73	139.44	-37.205	0.76982	0.193248	0.716628	0.093	-0.213	0.0315	0	365	292	3
2026-02-12	15:03:13.850	17.255	136.36	-16.66	0.770308	0.348432	0.705404	0.126	-0.2085	-0.003	0	365	292	3
2026-02-12	15:03:13.870	14.945	125.58	7.525	0.75518	0.315248	0.748836	0.15	-0.201	-0.0075	0	365	292	3
2026-02-12	15:03:13.890	15.05	114.31	28.245	0.732732	0.2379	0.763964	0.159	-0.1965	-0.021	0	365	292	3
2026-02-12	15:03:13.910	29.4	112.665	45.675	0.654652	0.220088	0.683932	0.162	-0.168	-0.0165	0	365	292	3
2026-02-12	15:03:13.930	49.245	119.63	56.455	0.595116	0.292068	0.580964	0.1545	-0.153	-0.015	0	365	292	3
2026-02-12	15:03:13.950	66.885	121.17	62.44	0.517524	0.31232	0.482388	0.138	-0.1515	-0.006	0	365	292	3
2026-02-12	15:03:13.970	77.84	98.315	68.985	0.465308	0.286212	0.438224	0.138	-0.174	0.0075	0	365	292	3
2026-02-12	15:03:13.990	73.57	86.94	72.975	0.475068	0.376736	0.564616	0.1425	-0.1875	0.0225	0	365	292	3
2026-02-12	15:03:14.010	64.505	72.8	79.87	0.5124	0.376004	0.57706	0.1455	-0.21	0.045	0	364	367	3
2026-02-12	15:03:14.030	79.24	57.505	84.455	0.51606	0.389424	0.544608	0.1455	-0.228	0.054	0	364	367	3
2026-02-12	15:03:14.050	86.835	46.305	91.84	0.582672	0.602436	0.581452	0.1485	-0.24	0.0645	0	364	367	3
2026-02-12	15:03:14.070	65.52	39.725	99.365	0.86864	0.903288	0.440908	0.1395	-0.2535	0.072	0	364	367	3
2026-02-12	15:03:14.090	152.6	31.045	75.18	0.880108	1.111176	0.282308	0.129	-0.2685	0.0795	0	364	367	3
2026-02-12	15:03:14.110	209.72	18.83	62.055	0.528016	0.818864	0.578524	0.129	-0.2835	0.096	0	364	367	3
2026-02-12	15:03:14.130	156.905	-1.82	44.8	0.556808	0.659288	0.580232	0.1275	-0.3	0.123	0	364	367	3
2026-02-12	15:03:14.150	138.635	-6.965	41.58	0.39894	0.557784	0.505812	0.12	-0.3105	0.1485	0	364	367	3
2026-02-12	15:03:14.170	123.375	-2.1	52.08	0.381616	0.682224	0.510204	0.1035	-0.3195	0.1695	0	364	367	3
2026-02-12	15:03:14.190	67.025	-1.05	65.31	0.382104	0.740052	0.523136	0.0945	-0.3315	0.183	0	364	367	3
2026-02-12	15:03:14.210	64.925	4.48	64.19	0.438224	0.84546	0.549976	0.096	-0.3405	0.1875	0	363	432	3
2026-02-12	15:03:14.230	133.35	19.74	44.485	0.415044	0.854244	0.451156	0.0825	-0.342	0.189	0	363	432	3
2026-02-12	15:03:14.250	169.75	39.83	23.835	0.403332	1.097756	0.504836	0.0825	-0.342	0.189	0	363	432	3
2026-02-12	15:03:14.270	103.46	41.895	24.99	0.41602	0.841312	0.483364	0.075	-0.3555	0.2175	0	363	432	3
2026-02-12	15:03:14.290	97.545	50.75	27.755	0.448716	0.81984	0.521916	0.069	-0.3735	0.2535	0	363	432	3
2026-02-12	15:03:14.310	85.96	55.265	42.035	0.607804	0.82838	0.44652	0.0645	-0.3795	0.267	0	363	432	3
2026-02-12	15:03:14.330	104.615	60.375	37.66	0.338916	0.839848	0.218868	0.06	-0.378	0.2775	0	363	432	3
2026-02-12	15:03:14.350	134.54	68.32	26.565	0.255712	0.793244	0.152988	0.057	-0.375	0.288	0	363	432	3
2026-02-12	15:03:14.370	111.685	69.405	15.82	0.370148	0.892064	0.304268	0.054	-0.3825	0.3045	0	363	432	3
2026-02-12	15:03:14.390	51.38	66.43	23.065	0.404308	1.067012	0.270352	0.06	-0.3855	0.324	0	363	432	3
2026-02-12	15:03:14.410	-2.31	58.1	36.645	0.405772	0.762988	0.199348	0.0585	-0.381	0.3315	0	363	461	3
2026-02-12	15:03:14.430	7.035	59.955	46.9	0.5002	0.779336	0.259372	0.057	-0.3795	0.333	0	363	461	3
2026-02-12	15:03:14.450	18.165	60.515	55.72	0.613416	0.9943	0.158844	0.0555	-0.3765	0.333	0	363	461	3
2026-02-12	15:03:14.470	13.615	56.91	51.765	0.719312	1.165344	0.227896	0.051	-0.378	0.3315	0	363	461	3
2026-02-12	15:03:14.490	3.325	55.09	43.96	0.63318	0.815692	0.345748	0.045	-0.3825	0.33	0	363	461	3
2026-02-12	15:03:14.510	1.19	57.365	45.255	0.525332	0.721264	0.245708	0.039	-0.384	0.33	0	363	461	3
2026-02-12	15:03:14.530	-14.035	51.415	53.34	0.474092	0.721752	0.23912	0.039	-0.384	0.33	0	363	461	3
2026-02-12	15:03:14.550	-21.07	39.795	64.575	0.481168	0.77348	0.312808	0.015	-0.3585	0.3195	0	363	461	3
2026-02-12	15:03:14.570	-21.28	34.44	73.01	0.518256	0.861076	0.432856	0.012	-0.3615	0.315	0	363	461	3
2026-02-12	15:03:14.590	-26.635	37.73	79.625	0.601948	0.911584	0.489952	0.0015	-0.3525	0.312	0	363	461	3
2026-02-12	15:03:14.610	-31.43	40.145	89.32	0.629276	0.730536	0.450424	-0.0075	-0.3405	0.3045	0	364	447	3
2026-02-12	15:03:14.630	-40.075	37.94	106.295	0.590236	0.718336	0.379908	-0.021	-0.336	0.297	0	364	447	3
2026-02-12	15:03:14.650	-41.685	31.395	118.3	0.619272	0.66978	0.470432	-0.039	-0.3255	0.303	0	364	447	3
2026-02-12	15:03:14.670	-9.905	30.38	118.51	0.6344	0.632448	0.496296	-0.051	-0.312	0.282	0	364	447	3
2026-02-12	15:03:14.690	31.36	35.665	113.155	0.630984	0.575352	0.431148	-0.0825	-0.294	0.279	0	364	447	3
2026-02-12	15:03:14.710	51.975	41.09	107.135	0.608292	0.624396	0.359412	-0.0975	-0.291	0.2835	0	364	447	3
2026-02-12	15:03:14.730	41.405	42.035	98.805	0.595116	0.63562	0.357704	-0.0945	-0.2745	0.2985	0	364	447	3
2026-02-12	15:03:14.750	36.26	40.32	88.935	0.645868	0.566568	0.42578	-0.1185	-0.273	0.2925	0	364	447	3
2026-02-12	15:03:14.770	24.395	39.27	79.17	0.788608	0.538508	0.4819	-0.12	-0.2625	0.291	0	364	447	3
2026-02-12	15:03:14.790	-4.13	37.38	74.69	0.850584	0.470188	0.508984	-0.138	-0.246	0.2985	0	364	447	3
2026-02-12	15:03:14.810	-18.305	33.285	73.99	0.851316	0.518012	0.502884	-0.1365	-0.234	0.2955	0	359	429	3
2026-02-12	15:03:14.830	-10.045	28.42	70.56	0.874008	0.64538	0.53192	-0.144	-0.231	0.2865	0	359	429	3
2026-02-12	15:03:14.850	9.59	24.535	56.735	0.937936	0.634156	0.600728	-0.15	-0.2205	0.2895	0	359	429	3
2026-02-12	15:03:14.870	22.54	24.43	40.67	0.936716	0.523136	0.602192	-0.153	-0.21	0.2805	0	359	429	3
2026-02-12	15:03:14.890	20.685	27.02	27.3	0.906948	0.588528	0.49532	-0.153	-0.204	0.279	0	359	429	3
2026-02-12	15:03:14.910	3.675	31.185	16.87	0.791536	0.504104	0.459696	-0.162	-0.2055	0.2865	0	359	429	3
2026-02-12	15:03:14.930	6.37	34.405	4.865	0.785436	0.560712	0.493856	-0.165	-0.189	0.2865	0	359	429	3
2026-02-12	15:03:14.950	-13.195	43.19	-2.24	0.70272	0.550464	0.504592	-0.165	-0.1815	0.2775	0	359	429	3
2026-02-12	15:03:14.970	-20.02	45.605	-6.405	0.6283	0.50996	0.48312	-0.1665	-0.1785	0.2685	0	359	429	3
2026-02-12	15:03:14.990	-42.84	53.2	-6.65	0.518988	0.680272	0.693204	-0.1575	-0.18	0.2715	0	359	429	3
2026-02-12	15:03:15.010	-96.775	48.51	-7.525	0.5185	0.584624	0.687104	-0.162	-0.174	0.264	0	351	433	3
2026-02-12	15:03:15.030	-96.355	51.345	-10.57	0.545096	0.50264	0.706624	-0.156	-0.174	0.2505	0	351	433	3
2026-02-12	15:03:15.050	-42.21	60.62	-20.125	0.491904	0.454572	0.772016	-0.1395	-0.1725	0.2295	0	351	433	3
2026-02-12	15:03:15.070	-2.625	67.41	-26.95	0.457256	0.51118	0.84424	-0.135	-0.1695	0.222	0	351	433	3
2026-02-12	15:03:15.090	12.005	69.93	-31.745	0.449936	0.56364	0.901824	-0.126	-0.168	0.216	0	351	433	3
2026-02-12	15:03:15.110	8.89	71.015	-36.085	0.41846	0.540948	0.912316	-0.1155	-0.1755	0.2115	0	351	433	3
2026-02-12	15:03:15.130	-0.105	72.1	-39.025	0.367464	0.503372	0.887672	-0.1065	-0.1785	0.1995	0	351	433	3
2026-02-12	15:03:15.150	-11.935	70.875	-40.18	0.332572	0.473848	0.853024	-0.0975	-0.18	0.1935	0	351	433	3
2026-02-12	15:03:15.170	-19.005	69.545	-42.385	0.362096	0.511668	0.824232	-0.084	-0.1845	0.1905	0	351	433	3
2026-02-12	15:03:15.190	-38.57	70.385	-42.7	0.365268	0.532652	0.815692	-0.0705	-0.1875	0.1815	0	351	433	3
2026-02-12	15:03:15.210	-101.43	71.435	-35.07	0.29402	0.473848	0.873276	-0.066	-0.1875	0.171	0	341	479	3
2026-02-12	15:03:15.230	-176.085	58.415	-28.245	0.3538	0.357216	0.970876	-0.057	-0.1845	0.153	0	341	479	3
2026-02-12	15:03:15.250	-207.62	54.88	-23.52	0.373808	0.253516	0.962824	-0.0405	-0.18	0.1305	0	341	479	3
2026-02-12	15:03:15.270	-195.79	52.675	-21	0.369172	0.164212	0.915976	-0.033	-0.1695	0.105	0	341	479	3
2026-02-12	15:03:15.290	-159.285	55.37	-22.085	0.377956	0.100528	0.911584	-0.0225	-0.153	0.081	0	341	479	3
2026-02-12	15:03:15.310	-94.36	61.495	-29.505	0.361608	0.223504	0.896944	-0.012	-0.138	0.063	0	341	479	3
2026-02-12	15:03:15.330	-37.205	60.06	-35.945	0.32208	0.142496	0.880352	-0.009	-0.132	0.054	0	341	479	3
2026-02-12	15:03:15.350	20.72	61.53	-41.37	0.301584	0.245952	0.87962	0.015	-0.1275	0.033	0	341	479	3
2026-02-12	15:03:15.370	91.07	53.06	-50.925	0.253272	0.198616	0.670268	0.015	-0.132	0.0345	0	341	479	3
2026-02-12	15:03:15.390	171.5	41.86	-62.09	0.247172	0.27694	0.55632	0.0225	-0.1395	0.036	0	341	479	3
2026-02-12	15:03:15.410	221.27	30.065	-63.875	0.354776	0.42822	0.721996	0.0315	-0.1545	0.045	0	334	558	1
2026-02-12	15:03:15.430	227.395	24.115	-63.35	0.49044	0.565592	0.925248	0.0375	-0.1815	0.0615	0	334	558	1
2026-02-12	15:03:15.450	207.06	22.225	-59.78	0.50508	0.488976	0.8296	0.048	-0.21	0.0765	0	334	558	1
2026-02-12	15:03:15.470	179.865	20.23	-56.035	0.472384	0.59658	0.651968	0.051	-0.2295	0.0945	0	334	558	1
2026-02-12	15:03:15.490	134.855	8.54	-51.24	0.5429	0.637816	0.650016	0.06	-0.249	0.117	0	334	558	1
2026-02-12	15:03:15.510	92.05	7.84	-40.25	0.584868	0.742248	0.85522	0.069	-0.2685	0.1395	0	334	558	1
2026-02-12	15:03:15.530	39.725	10.5	-33.495	0.428952	0.865956	0.81008	0.069	-0.2745	0.1515	0	334	558	1
2026-02-12	15:03:15.550	25.095	6.125	-33.67	0.37332	0.744444	0.754448	0.072	-0.273	0.1545	0	334	558	1
2026-02-12	15:03:15.570	24.29	4.655	-27.265	0.29036	0.671732	0.692228	0.075	-0.282	0.159	0	334	558	1
2026-02-12	15:03:15.590	42.21	1.155	-18.095	0.209108	0.564616	0.541192	0.0735	-0.288	0.162	0	334	558	1
2026-02-12	15:03:15.610	70.07	-2.205	-13.37	0.206912	0.594628	0.473848	0.0735	-0.288	0.162	0	328	626	1
2026-02-12	15:03:15.630	80.08	-14.21	-6.685	0.199592	0.515816	0.351848	0.0855	-0.2955	0.174	0	328	626	1
2026-02-12	15:03:15.650	87.85	-29.575	0.245	0.20618	0.56974	0.264008	0.084	-0.3	0.1845	0	328	626	1
2026-02-12	15:03:15.670	63.28	-49.98	18.095	0.243512	0.429684	0.266448	0.0855	-0.3075	0.1965	0	328	626	1
2026-02-12	15:03:15.690	1.435	-68.95	55.02	0.624152	0.531432	0.549732	0.0765	-0.3075	0.2085	0	328	626	1
2026-02-12	15:03:15.710	-40.53	-70.035	65.94	0.973072	1.007232	0.74664	0.066	-0.303	0.207	0	328	626	1
2026-02-12	15:03:15.730	-27.3	-68.985	37.66	0.879864	0.493856	0.665632	0.051	-0.303	0.21	0	328	626	1
2026-02-12	15:03:15.750	30.695	-63.14	31.675	0.514352	0.156892	0.636352	0.0465	-0.306	0.213	0	328	626	1
2026-02-12	15:03:15.770	60.34	-52.395	40.32	0.334768	0.899384	0.578036	0.024	-0.2985	0.219	0	328	626	1
2026-02-12	15:03:15.790	12.915	-59.535	42.945	0.109068	0.953064	0.628788	0.024	-0.2955	0.222	0	328	626	1
2026-02-12	15:03:15.810	-19.845	-65.905	44.275	0.142984	0.83692	0.700768	0.0135	-0.303	0.2295	0	326	650	1
2026-02-12	15:03:15.830	16.24	-59.15	36.365	0.390644	0.760792	0.635864	0.0075	-0.288	0.2355	0	326	650	1
2026-02-12	15:03:15.850	85.75	-39.655	21.91	0.455548	0.709796	0.47824	-0.0015	-0.2865	0.2325	0	326	650	1
2026-02-12	15:03:15.870	81.445	-35.105	16.59	0.517036	0.689056	0.451644	-0.0015	-0.2865	0.2325	0	326	650	1
2026-02-12	15:03:15.890	63.21	-35.665	13.685	0.602192	0.69418	0.446764	-0.006	-0.2895	0.2565	0	326	650	1
2026-02-12	15:03:15.910	46.725	-32.795	13.195	0.528992	0.723704	0.437492	-0.0105	-0.294	0.282	0	326	650	1
2026-02-12	15:03:15.930	15.715	-32.48	15.855	0.41114	0.643428	0.35746	-0.0195	-0.291	0.303	0	326	650	1
2026-02-12	15:03:15.950	0.805	-33.915	18.97	0.441396	0.732488	0.378688	-0.021	-0.297	0.3	0	326	650	1
2026-02-12	15:03:15.970	3.64	-32.48	18.585	0.516304	0.776896	0.443104	-0.027	-0.2925	0.3015	0	326	650	1
2026-02-12	15:03:15.990	12.005	-29.225	18.13	0.509228	0.71492	0.414556	-0.033	-0.288	0.3	0	326	650	1
2026-02-12	15:03:16.010	6.44	-28.385	20.72	0.526552	0.79788	0.457744	-0.033	-0.288	0.3	0	325	636	1
2026-02-12	15:03:16.030	10.885	-28.42	19.25	0.518744	0.81374	0.47336	-0.0435	-0.285	0.3225	0	325	636	1
2026-02-12	15:03:16.050	36.295	-26.355	13.405	0.487512	0.731756	0.43798	-0.0405	-0.2835	0.3105	0	325	636	1
2026-02-12	15:03:16.070	84.875	-25.375	4.34	0.546804	0.744688	0.463112	-0.048	-0.291	0.312	0	325	636	1
2026-02-12	15:03:16.090	177.415	-19.04	-8.925	0.635376	0.923784	0.488732	-0.042	-0.2865	0.3375	0	325	636	1
2026-02-12	15:03:16.110	222.39	-4.69	-9.555	0.590968	0.978196	0.32696	-0.045	-0.285	0.36	0	325	636	1
2026-02-12	15:03:16.130	144.76	-2.415	19.81	0.560224	0.765916	0.06734399	-0.048	-0.2835	0.396	0	325	636	1
2026-02-12	15:03:16.150	85.82	-5.88	45.92	0.463112	0.74298	0.062464	-0.048	-0.2805	0.4125	0	325	636	1
2026-02-12	15:03:16.170	26.215	-8.715	67.025	0.439688	0.842532	0.05246	-0.0495	-0.2745	0.435	0	325	636	1
2026-02-12	15:03:16.190	-14.245	-13.265	82.285	0.493124	0.675392	0.116388	-0.06	-0.27	0.4425	0	325	636	1
2026-02-12	15:03:16.210	-40.705	-15.225	101.045	0.489952	0.511424	0.094916	-0.0735	-0.264	0.444	0	325	588	1
2026-02-12	15:03:16.230	-76.72	-20.3	129.255	0.467016	0.555832	0.05612	-0.0855	-0.2535	0.438	0	325	588	1
2026-02-12	15:03:16.250	-115.535	-30.31	146.02	0.85644	0.931348	0.210084	-0.102	-0.2415	0.4275	0	325	588	1
2026-02-12	15:03:16.270	-85.225	-27.685	145.67	0.998204	0.73932	0.419192	-0.117	-0.225	0.4215	0	325	588	1
2026-02-12	15:03:16.290	-24.115	-18.13	144.76	0.792024	0.7015	0.288896	-0.129	-0.21	0.4185	0	325	588	1
2026-02-12	15:03:16.310	20.615	-20.58	140.07	0.76738	0.61488	0.361364	-0.144	-0.1995	0.42	0	325	588	1
2026-02-12	15:03:16.330	47.005	-21.945	131.565	0.966972	0.492636	0.406016	-0.159	-0.1845	0.4245	0	325	588	1
2026-02-12	15:03:16.350	45.92	-17.36	126.42	0.90646	0.458476	0.21838	-0.1725	-0.162	0.429	0	325	588	1
2026-02-12	15:03:16.370	56.665	-10.01	125.895	0.822524	0.36844	0.137372	-0.1845	-0.144	0.4395	0	325	588	1
2026-02-12	15:03:16.390	41.16	-5.74	119.385	0.884744	0.525576	0.133224	-0.1965	-0.1275	0.4515	0	325	588	1
2026-02-12	15:03:16.410	6.86	-9.59	110.355	0.865224	0.558028	0.064904	-0.204	-0.1185	0.4545	0	325	512	1
2026-02-12	15:03:16.430	-22.12	-11.76	103.705	0.89426	0.413092	0.062708	-0.2205	-0.087	0.4605	0	325	512	1
2026-02-12	15:03:16.450	-16.59	-12.81	96.25	0.899384	0.26596	0.041968	-0.216	-0.081	0.453	0	325	512	1
2026-02-12	15:03:16.470	-4.83	-9.415	88.935	0.913048	0.277916	0.137372	-0.2325	-0.063	0.4515	0	325	512	1
2026-02-12	15:03:16.490	-18.655	-7.875	83.615	0.961116	0.238144	0.161772	-0.2325	-0.054	0.4575	0	325	512	1
2026-02-12	15:03:16.510	-29.33	-5.25	79.24	0.950136	0.269132	0.110532	-0.2355	-0.042	0.459	0	325	512	1
2026-02-12	15:03:16.530	-29.19	-3.535	74.865	0.964776	0.20008	0.111752	-0.24	-0.03	0.456	0	325	512	1
2026-02-12	15:03:16.550	-23.135	-1.225	70.49	0.987956	0.158356	0.200324	-0.2415	-0.0225	0.459	0	325	512	1
2026-02-12	15:03:16.570	-22.295	-0.735	66.5	1.009672	0.194712	0.17446	-0.243	-0.0165	0.459	0	325	512	1
2026-02-12	15:03:16.590	-22.68	-2.66	64.295	0.967948	0.167872	0.136152	-0.246	-0.0015	0.4575	0	325	512	1
2026-02-12	15:03:16.610	-26.845	-0.77	63.84	1.022848	0.110288	0.205204	-0.2475	0.0075	0.4575	0	328	428	1
2026-02-12	15:03:16.630	-20.93	-3.71	60.76	1.02114	0.140788	0.18178	-0.2535	0.0135	0.4575	0	328	428	1
2026-02-12	15:03:16.650	-16.485	-5.46	57.4	1.031144	0.043432	0.188368	-0.2595	0.024	0.4575	0	328	428	1
2026-02-12	15:03:16.670	-10.675	-3.675	41.86	0.99308	0.053924	0.120292	-0.264	0.03	0.4605	0	328	428	1
2026-02-12	15:03:16.690	-3.745	-2.87	35.63	0.988688	0.055144	0.127856	-0.264	0.03	0.4605	0	328	428	1
2026-02-12	15:03:16.710	3.395	-2.1	31.85	0.972096	-0.009028	0.105164	-0.2595	0.051	0.462	0	328	428	1
2026-02-12	15:03:16.730	9.87	0.945	26.32	1.018212	0.040016	0.136396	-0.261	0.057	0.4695	0	328	428	1
2026-02-12	15:03:16.750	12.18	3.43	24.675	1.003572	0.028304	0.113216	-0.258	0.06	0.45	0	328	428	1
2026-02-12	15:03:16.770	19.705	7.21	22.05	0.953064	0.0366	0.083692	-0.255	0.066	0.4635	0	328	428	1
2026-02-12	15:03:16.790	30.94	7.875	22.505	1.013332	0.066368	0.185684	-0.2565	0.0645	0.4635	0	328	428	1
2026-02-12	15:03:16.810	28.28	6.09	27.405	1.026508	-0.000976	0.207644	-0.258	0.069	0.4605	0	333	353	2
2026-02-12	15:03:16.830	29.295	1.295	31.255	1.005524	0.11346	0.152256	-0.252	0.0675	0.4575	0	333	353	2
2026-02-12	15:03:16.850	22.155	-2.205	42.77	1.047248	-0.01586	0.260104	-0.2565	0.078	0.4575	0	333	353	2
2026-02-12	15:03:16.870	15.505	-10.745	51.625	1.06018	0.03782	0.212036	-0.261	0.081	0.468	0	333	353	2
2026-02-12	15:03:16.890	12.565	-19.74	62.125	1.057984	-0.066368	0.027084	-0.2595	0.099	0.4635	0	333	353	2
2026-02-12	15:03:16.910	30.73	-23.45	75.495	1.060912	0.127856	0.378444	-0.2655	0.1035	0.462	0	333	353	2
2026-02-12	15:03:16.930	2.03	-41.475	85.225	1.299056	-0.199348	0.252296	-0.2535	0.1215	0.4755	0	333	353	2
2026-02-12	15:03:16.950	-3.115	-75.39	107.975	1.541348	-0.013176	0.316468	-0.2535	0.1215	0.4755	0	333	353	2
2026-02-12	15:03:16.970	-10.395	-77	86.45	1.624308	0.38918	0.34038	-0.2505	0.141	0.489	0	333	353	2
2026-02-12	15:03:16.990	-32.795	-79.66	56.735	1.860256	0.009516	0.115656	-0.2415	0.1695	0.5085	0	333	353	2
2026-02-12	15:03:17.010	-26.11	-50.225	35.735	1.780468	0.209352	0.3416	-0.237	0.1785	0.519	0	339	301	3
2026-02-12	15:03:17.030	24.675	-15.12	-26.46	1.407636	0.333792	0.322568	-0.24	0.1815	0.5235	0	339	301	3
2026-02-12	15:03:17.050	57.435	-16.625	-40.74	1.137772	-0.448716	0.383324	-0.2415	0.189	0.531	0	339	301	3
2026-02-12	15:03:17.070	154.07	7.385	-62.335	1.065304	-0.459208	0.094428	-0.24	0.18	0.534	0	339	301	3
2026-02-12	15:03:17.090	125.86	15.645	-63.56	1.016992	-0.008784	-0.078812	-0.2445	0.171	0.5235	0	339	301	3
2026-02-12	15:03:17.110	-62.825	8.715	-78.505	1.121424	0.661728	0.163724	-0.24	0.1755	0.5265	0	339	301	3
2026-02-12	15:03:17.130	-195.02	-4.515	-117.075	1.260016	0.649284	0.188612	-0.246	0.171	0.5205	0	339	301	3
2026-02-12	15:03:17.150	-199.255	24.045	-170.345	1.32858	0.927932	0.385032	-0.2445	0.1455	0.528	0	339	301	3
2026-02-12	15:03:17.170	-176.96	59.36	-216.685	1.40666	0.823744	0.417728	-0.2475	0.1125	0.519	0	339	301	3
2026-02-12	15:03:17.190	-165.48	104.37	-246.295	1.43472	1.08336	0.541924	-0.258	0.072	0.4995	0	339	301	3
2026-02-12	15:03:17.210	-216.23	155.645	-262.01	1.163636	0.879132	0.521184	-0.255	0.0345	0.4845	0	351	277	3
2026-02-12	15:03:17.230	-212.345	184.24	-257.075	0.902556	0.627812	0.372344	-0.2505	-0.015	0.45	0	351	277	3
2026-02-12	15:03:17.250	-186.935	202.825	-242.13	0.639524	0.385276	0.246684	-0.2325	-0.0795	0.39	0	351	277	3
2026-02-12	15:03:17.270	-173.075	205.24	-224.84	0.44164	0.320616	0.147376	-0.213	-0.1155	0.3405	0	351	277	3
2026-02-12	15:03:17.290	-155.225	190.4	-207.655	0.443592	0.119072	0.24766	-0.198	-0.147	0.297	0	351	277	3
2026-02-12	15:03:17.310	-137.69	189.42	-193.97	0.446032	0.330132	0.409676	-0.1755	-0.168	0.2625	0	351	277	3
2026-02-12	15:03:17.330	-159.53	172.9	-179.48	0.485804	0.21472	0.412116	-0.1455	-0.1845	0.2265	0	351	277	3
2026-02-12	15:03:17.350	-158.27	161.385	-165.165	0.490196	0.144936	0.44286	-0.114	-0.201	0.192	0	351	277	3
2026-02-12	15:03:17.370	-153.72	157.92	-150.01	0.4514	0.107116	0.390888	-0.081	-0.2115	0.1665	0	351	277	3
2026-02-12	15:03:17.390	-133.595	145.53	-130.795	0.404552	0.144448	0.352092	-0.048	-0.2115	0.1425	0	351	277	3
2026-02-12	15:03:17.410	-103.95	129.395	-112.945	0.39406	0.153232	0.361852	-0.0195	-0.2145	0.117	0	368	281	3
2026-02-12	15:03:17.430	-63.525	114.905	-96.635	0.435296	0.172264	0.475068	0.003	-0.216	0.087	0	368	281	3
2026-02-12	15:03:17.450	-45.15	100.275	-75.775	0.497028	0.345016	0.637328	0.0345	-0.216	0.072	0	368	281	3
2026-02-12	15:03:17.470	-55.3	78.96	-53.655	0.51606	0.416264	0.719556	0.0615	-0.216	0.0615	0	368	281	3
2026-02-12	15:03:17.490	-27.51	63.035	-40.95	0.533384	0.34892	0.694668	0.072	-0.2175	0.0525	0	368	281	3
2026-02-12	15:03:17.510	-9.135	56.42	-32.025	0.597312	0.498492	0.841312	0.1005	-0.207	0.0435	0	368	281	3
2026-02-12	15:03:17.530	-18.375	50.75	-25.165	0.644404	0.608048	0.926468	0.1155	-0.201	0.033	0	368	281	3
