yyyy-MM-dd	HH:mm:ss.fff	gyrX	gyrY	gyrZ	accX	accY	accZ	magX	magY	magZ	Marker	Energy	Angle	Classification
2026-02-12	15:53:34.010	2.31	0.175	2.345	0.459208	-0.093208	-0.849608	-0.051	-0.258	0.6075	0	23	890	1
2026-02-12	15:53:34.030	3.29	1.225	2.31	0.459452	-0.09028	-0.859368	-0.054	-0.2565	0.612	0	23	890	1
2026-02-12	15:53:34.050	3.43	2.1	1.855	0.455792	-0.088328	-0.88572	-0.054	-0.255	0.612	0	23	890	1
2026-02-12	15:53:34.070	1.715	0.035	1.575	0.440908	-0.08686399	-0.873032	-0.0555	-0.255	0.612	0	23	890	1
2026-02-12	15:53:34.090	1.26	-1.295	1.225	0.451888	-0.085888	-0.86742	-0.0525	-0.2535	0.615	0	23	890	1
2026-02-12	15:53:34.110	0.7	-1.995	0.28	0.463356	-0.099796	-0.873276	-0.048	-0.2535	0.6135	0	23	890	1
2026-02-12	15:53:34.130	0.21	-2.38	0.665	0.471652	-0.106628	-0.866444	-0.0525	-0.2565	0.6135	0	23	890	1
2026-02-12	15:53:34.150	0.385	-1.365	1.82	0.464332	-0.101992	-0.853268	-0.0555	-0.2535	0.618	0	23	890	1
2026-02-12	15:53:34.170	1.785	0.14	2.38	0.450668	-0.09638	-0.850584	-0.0555	-0.2505	0.618	0	23	890	1
2026-02-12	15:53:34.190	2.835	1.12	2.205	0.44896	-0.087108	-0.86864	-0.054	-0.249	0.615	0	23	890	1
2026-02-12	15:53:34.210	2.17	0.385	1.61	0.450912	-0.090524	-0.87108	-0.0525	-0.2565	0.612	0	21	889	1
2026-02-12	15:53:34.230	0.875	-0.595	1.505	0.45628	-0.0854	-0.87474	-0.051	-0.255	0.609	0	21	889	1
2026-02-12	15:53:34.250	-0.07	-1.61	0.84	0.460184	-0.088572	-0.867176	-0.051	-0.2505	0.606	0	21	889	1
2026-02-12	15:53:34.270	-1.05	-1.925	0.385	0.458964	-0.0915	-0.870592	-0.051	-0.255	0.6105	0	21	889	1
2026-02-12	15:53:34.290	-1.085	-2.695	0.49	0.45872	-0.102236	-0.85888	-0.057	-0.258	0.612	0	21	889	1
2026-02-12	15:53:34.310	0.455	-0.945	0.98	0.449936	-0.088572	-0.863516	-0.0615	-0.255	0.6135	0	21	889	1
2026-02-12	15:53:34.330	2.905	0.7	0.525	0.447984	-0.095892	-0.873032	-0.0585	-0.2535	0.612	0	21	889	1
2026-02-12	15:53:34.350	0.805	-0.245	0.595	0.445544	-0.080032	-0.878888	-0.0555	-0.252	0.609	0	21	889	1
2026-02-12	15:53:34.370	-1.05	-2.835	-0.35	0.45018	-0.0915	-0.869372	-0.0525	-0.255	0.609	0	21	889	1
2026-02-12	15:53:34.390	-0.665	-3.535	-0.665	0.45872	-0.096868	-0.867908	-0.054	-0.2535	0.6105	0	21	889	1
2026-02-12	15:53:34.410	0.595	-2.625	-0.665	0.45628	-0.099308	-0.860344	-0.057	-0.2505	0.6105	0	20	889	1
2026-02-12	15:53:34.430	1.05	-0.805	0	0.455304	-0.088084	-0.8662	-0.0555	-0.255	0.6135	0	20	889	1
2026-02-12	15:53:34.450	1.33	-0.14	-0.7	0.44774	-0.097112	-0.8662	-0.0525	-0.2565	0.618	0	20	889	1
2026-02-12	15:53:34.470	0.875	-0.84	-0.175	0.445056	-0.089304	-0.862296	-0.054	-0.2535	0.618	0	20	889	1
2026-02-12	15:53:34.490	0.63	-0.91	0.105	0.447496	-0.081008	-0.86742	-0.054	-0.252	0.618	0	20	889	1
2026-02-12	15:53:34.510	-0.805	-1.12	-0.805	0.454084	-0.089548	-0.864492	-0.0525	-0.252	0.615	0	20	889	1
2026-02-12	15:53:34.530	-0.175	-0.98	-1.015	0.457744	-0.09028	-0.865956	-0.0555	-0.2535	0.6105	0	20	889	1
2026-02-12	15:53:34.550	0.28	-0.245	-0.805	0.457256	-0.091744	-0.867664	-0.0555	-0.255	0.6105	0	20	889	1
2026-02-12	15:53:34.570	0.595	0.455	-0.665	0.45384	-0.092964	-0.878156	-0.054	-0.255	0.615	0	20	889	1
2026-02-12	15:53:34.590	0.595	0.21	-0.49	0.449204	-0.092232	-0.87596	-0.057	-0.2535	0.612	0	20	889	1
2026-02-12	15:53:34.610	1.295	-0.315	-0.35	0.445056	-0.07905599	-0.874252	-0.0555	-0.255	0.609	0	19	889	1
2026-02-12	15:53:34.630	0.63	-0.98	-1.225	0.441396	-0.084912	-0.872544	-0.0555	-0.2595	0.6105	0	19	889	1
2026-02-12	15:53:34.650	-0.14	-2.345	-1.785	0.444568	-0.080764	-0.866688	-0.0555	-0.258	0.609	0	19	889	1
2026-02-12	15:53:34.670	0.07	-2.625	-2.135	0.454572	-0.077836	-0.86498	-0.051	-0.2565	0.6105	0	19	889	1
2026-02-12	15:53:34.690	0.49	-1.785	-2.555	0.463112	-0.098332	-0.870592	-0.0555	-0.258	0.6105	0	19	889	1
2026-02-12	15:53:34.710	0.98	-1.505	-1.645	0.467016	-0.089548	-0.86376	-0.0585	-0.2565	0.6075	0	19	889	1
2026-02-12	15:53:34.730	-0.14	-0.14	-0.98	0.457012	-0.088328	-0.884012	-0.0555	-0.2535	0.609	0	19	889	1
2026-02-12	15:53:34.750	0.14	-0.98	-0.63	0.44164	-0.079788	-0.86132	-0.0555	-0.2535	0.609	0	19	889	1
2026-02-12	15:53:34.770	-0.07	-0.875	-0.805	0.446764	-0.08295999	-0.870592	-0.0555	-0.258	0.6105	0	19	889	1
2026-02-12	15:53:34.790	-0.56	-1.505	-0.805	0.447984	-0.09272	-0.868152	-0.0555	-0.261	0.612	0	19	889	1
2026-02-12	15:53:34.810	0.56	-1.085	0.175	0.456768	-0.078324	-0.874008	-0.0525	-0.258	0.6135	0	18	889	1
2026-02-12	15:53:34.830	0.63	-0.63	0	0.458232	-0.085156	-0.870348	-0.0525	-0.258	0.612	0	18	889	1
2026-02-12	15:53:34.850	0.28	-0.84	-0.035	0.455304	-0.088084	-0.860588	-0.0555	-0.258	0.606	0	18	889	1
2026-02-12	15:53:34.870	-0.21	-0.245	0.455	0.452864	-0.084668	-0.853512	-0.0525	-0.261	0.606	0	18	889	1
2026-02-12	15:53:34.890	0.98	1.19	0.595	0.450424	-0.083448	-0.856196	-0.051	-0.264	0.6075	0	18	889	1
2026-02-12	15:53:34.910	2.1	2.625	0.385	0.448228	-0.072956	-0.88694	-0.051	-0.2625	0.612	0	18	889	1
2026-02-12	15:53:34.930	1.085	0.91	-0.42	0.447252	-0.076616	-0.894748	-0.0495	-0.2595	0.609	0	18	889	1
2026-02-12	15:53:34.950	-0.35	-1.575	-0.56	0.440908	-0.068076	-0.875716	-0.0525	-0.2565	0.6045	0	18	889	1
2026-02-12	15:53:34.970	-0.735	-2.45	-1.33	0.446276	-0.068808	-0.870592	-0.054	-0.258	0.603	0	18	889	1
2026-02-12	15:53:34.990	-0.42	-2.345	-2.415	0.459452	-0.07442	-0.881816	-0.051	-0.2595	0.6045	0	18	889	1
2026-02-12	15:53:33.010	3.5	0.63	-1.785	0.436028	-0.061976	-0.886696	-0.054	-0.252	0.606	0	30	890	1
2026-02-12	15:53:33.030	3.01	-1.925	-3.29	0.448472	-0.074908	-0.89182	-0.051	-0.2535	0.6045	0	30	890	1
2026-02-12	15:53:33.050	1.61	-4.095	-3.535	0.459696	-0.074664	-0.874984	-0.0555	-0.2565	0.6075	0	30	890	1
2026-02-12	15:53:33.070	1.4	-3.605	-3.255	0.46116	-0.087108	-0.846192	-0.054	-0.2565	0.609	0	30	890	1
2026-02-12	15:53:33.090	2.415	-1.155	-1.995	0.465308	-0.095404	-0.853268	-0.0555	-0.2595	0.609	0	30	890	1
2026-02-12	15:53:33.110	3.57	0.07	0.035	0.46604	-0.088084	-0.859612	-0.0555	-0.261	0.6075	0	30	890	1
2026-02-12	15:53:33.130	2.38	1.225	1.155	0.45872	-0.085156	-0.869128	-0.0465	-0.2625	0.606	0	30	890	1
2026-02-12	15:53:33.150	3.395	1.645	1.855	0.450668	-0.077104	-0.862296	-0.048	-0.2655	0.603	0	30	890	1
2026-02-12	15:53:33.170	4.025	2.205	2.1	0.448228	-0.06734399	-0.867176	-0.054	-0.258	0.6	0	30	890	1
2026-02-12	15:53:33.190	2.31	1.26	1.085	0.449204	-0.07515199	-0.882792	-0.0555	-0.2565	0.603	0	30	890	1
2026-02-12	15:53:33.210	1.89	-0.56	0.63	0.454328	-0.078568	-0.880108	-0.0525	-0.2565	0.6075	0	28	891	1
2026-02-12	15:53:33.230	1.96	-1.26	0.49	0.448472	-0.07076	-0.874496	-0.051	-0.2565	0.609	0	28	891	1
2026-02-12	15:53:33.250	1.995	-1.47	-0.875	0.445544	-0.066368	-0.861564	-0.0555	-0.258	0.606	0	28	891	1
2026-02-12	15:53:33.270	2.66	-0.98	-2.24	0.449692	-0.077104	-0.864736	-0.057	-0.258	0.603	0	28	891	1
2026-02-12	15:53:33.290	2.765	-1.225	-2.625	0.449936	-0.074664	-0.879376	-0.0585	-0.2535	0.6015	0	28	891	1
2026-02-12	15:53:33.310	1.295	-2.66	-3.395	0.447496	-0.06832	-0.87962	-0.0585	-0.255	0.609	0	28	891	1
2026-02-12	15:53:33.330	-0.105	-3.535	-4.095	0.454572	-0.081496	-0.86986	-0.0525	-0.258	0.6135	0	28	891	1
2026-02-12	15:53:33.350	-0.49	-3.115	-3.36	0.4575	-0.08662	-0.852292	-0.051	-0.2565	0.615	0	28	891	1
2026-02-12	15:53:33.370	0.07	-1.365	-2.415	0.46482	-0.088572	-0.861808	-0.054	-0.258	0.612	0	28	891	1
2026-02-12	15:53:33.390	0.105	-0.77	-1.995	0.465552	-0.088328	-0.877912	-0.0525	-0.2595	0.6075	0	28	891	1
2026-02-12	15:53:33.410	0.595	-1.05	-1.295	0.460672	-0.090524	-0.866932	-0.0525	-0.264	0.609	0	27	891	1
2026-02-12	15:53:33.430	2.17	0.455	0.14	0.45628	-0.083204	-0.85644	-0.0525	-0.2625	0.609	0	27	891	1
2026-02-12	15:53:33.450	4.55	2.275	0.91	0.447984	-0.073688	-0.86132	-0.054	-0.2565	0.6075	0	27	891	1
2026-02-12	15:53:33.470	4.97	2.8	0.735	0.449448	-0.076616	-0.894504	-0.0555	-0.2535	0.6105	0	27	891	1
2026-02-12	15:53:33.490	2.31	-0.14	0.49	0.442372	-0.077104	-0.88328	-0.0555	-0.255	0.6135	0	27	891	1
2026-02-12	15:53:33.510	1.05	-2.205	0.63	0.45384	-0.071004	-0.870836	-0.054	-0.2595	0.612	0	27	891	1
2026-02-12	15:53:33.530	1.365	-1.68	-0.035	0.463844	-0.083204	-0.854732	-0.054	-0.2595	0.6075	0	27	891	1
2026-02-12	15:53:33.550	2.38	0.245	0.56	0.465064	-0.09028	-0.853024	-0.0525	-0.258	0.606	0	27	891	1
2026-02-12	15:53:33.570	3.605	1.89	1.505	0.4575	-0.0854	-0.874496	-0.051	-0.2565	0.606	0	27	891	1
2026-02-12	15:53:33.590	3.99	1.47	1.225	0.44896	-0.07515199	-0.881328	-0.054	-0.261	0.606	0	27	891	1
2026-02-12	15:53:49.610	-0.98	-3.15	-3.15	0.457012	-0.09857599	-0.870104	-0.051	-0.261	0.6075	0	22	44	2
2026-02-12	15:53:49.630	-0.945	-2.45	-1.61	0.461892	-0.094428	-0.862052	-0.051	-0.261	0.6075	0	22	44	2
2026-02-12	15:53:49.650	-0.175	-1.085	0.245	0.457256	-0.085156	-0.858636	-0.0525	-0.264	0.6045	0	22	44	2
2026-02-12	15:53:49.670	0.595	0.385	1.19	0.454816	-0.080764	-0.864736	-0.054	-0.267	0.603	0	22	44	2
2026-02-12	15:53:49.690	1.61	1.015	1.26	0.450668	-0.077348	-0.872544	-0.054	-0.267	0.603	0	22	44	2
2026-02-12	15:53:49.710	2.03	1.225	1.225	0.443592	-0.067832	-0.876448	-0.054	-0.267	0.603	0	22	44	2
2026-02-12	15:53:49.730	1.085	0.91	-0.42	0.447252	-0.076616	-0.894748	-0.0495	-0.2595	0.609	0	22	44	2
2026-02-12	15:53:49.750	4.375	0.595	-2.345	0.320372	0.165432	-0.905972	-0.0525	-0.261	0.603	0	22	44	2
2026-02-12	15:53:49.770	7.665	3.115	-4.655	0.197884	0.388204	-0.913536	-0.054	-0.267	0.603	0	22	44	2
2026-02-12	15:53:49.790	8.085	5.145	-5.285	0.1952	0.376492	-0.88938	-4.9365	2.1915	-1.395	0	22	44	2
2026-02-12	15:53:49.810	8.365	8.26	-3.15	0.203252	0.37332	-0.87596	-4.9515	2.1735	-1.425	0	113	203	3
2026-02-12	15:53:49.830	9.275	12.285	-1.505	0.186416	0.376004	-0.906948	-4.89	2.145	-1.446	0	113	203	3
2026-02-12	15:53:49.850	6.055	12.285	-1.435	0.170556	0.416752	-0.950624	-4.7805	2.106	-1.461	0	113	203	3
2026-02-12	15:53:49.870	8.12	8.12	-4.69	0.184464	0.419924	-0.971852	-4.662	2.0775	-1.485	0	113	203	3
2026-02-12	15:53:49.890	-1.68	0.525	-8.33	0.236436	0.32208	-0.879376	-4.6395	2.061	-1.5195	0	113	203	3
2026-02-12	15:53:49.910	-1.435	4.165	-3.01	0.22204	0.354288	-0.816668	-4.7145	2.079	-1.5315	0	113	203	3
2026-02-12	15:53:49.930	8.995	15.505	0.175	0.22692	0.356728	-0.903288	-4.701	2.0805	-1.515	0	113	203	3
2026-02-12	15:53:49.950	14.455	19.495	-1.61	0.217404	0.396744	-0.950136	-4.5645	2.055	-1.5315	0	113	203	3
2026-02-12	15:53:49.970	12.32	12.915	-5.915	0.21716	0.397964	-0.954772	-4.428	2.0145	-1.5525	0	113	203	3
2026-02-12	15:53:49.990	5.915	6.545	-9.835	0.201544	0.37942	-0.929396	-4.3635	1.998	-1.5645	0	113	203	3
2026-02-12	15:53:50.010	1.645	4.445	-9.45	0.212036	0.37088	-0.911584	-4.383	1.9845	-1.566	0	236	402	1
2026-02-12	15:53:50.030	2.8	3.64	-9.03	0.232532	0.366	-0.876692	-4.422	2.0025	-1.5765	0	236	402	1
2026-02-12	15:53:50.050	3.045	5.705	-8.925	0.239364	0.359656	-0.876692	-4.4595	2.0175	-1.5735	0	236	402	1
2026-02-12	15:53:50.070	2.555	9.765	-7.805	0.20496	0.38064	-0.897188	-4.461	2.0085	-1.569	0	236	402	1
2026-02-12	15:53:50.090	2.765	11.235	-8.33	0.213012	0.40016	-0.943548	-4.3905	1.9875	-1.5585	0	236	402	1
2026-02-12	15:53:50.110	0.035	4.725	-11.69	0.24766	0.365756	-0.88572	-4.3455	1.9695	-1.5645	0	236	402	1
2026-02-12	15:53:50.130	-0.455	6.02	-12.215	0.217892	0.352336	-0.872056	-4.356	1.974	-1.569	0	236	402	1
2026-02-12	15:53:50.150	0.805	10.64	-10.745	0.219356	0.353556	-0.897432	-4.368	1.956	-1.5465	0	236	402	1
2026-02-12	15:53:50.170	0	9.45	-9.8	0.239608	0.39772	-0.927688	-4.3245	1.9425	-1.545	0	236	402	1
2026-02-12	15:53:50.190	0.77	4.165	-12.705	0.23912	0.381372	-0.853268	-4.263	1.9365	-1.539	0	236	402	1
2026-02-12	15:53:50.210	3.36	8.575	-13.965	0.226676	0.349896	-0.872056	-4.2825	1.9485	-1.5195	0	325	546	1
2026-02-12	15:53:50.230	8.225	12.6	-12.53	0.230824	0.377468	-0.925736	-4.2555	1.935	-1.5225	0	325	546	1
2026-02-12	15:53:50.250	9.065	9.94	-14.28	0.217892	0.355996	-0.921832	-4.167	1.905	-1.512	0	325	546	1
2026-02-12	15:53:50.270	7.14	6.895	-14.385	0.213256	0.361852	-0.899384	-4.1175	1.8945	-1.512	0	325	546	1
2026-02-12	15:53:50.290	7.945	5.705	-14.945	0.207156	0.364536	-0.903532	-4.0665	1.8825	-1.4895	0	325	546	1
2026-02-12	15:53:50.310	8.505	4.445	-17.08	0.20496	0.330376	-0.908656	-4.0485	1.884	-1.4805	0	325	546	1
2026-02-12	15:53:50.330	2.205	1.68	-16.065	0.235216	0.37332	-0.840092	-4.0455	1.89	-1.458	0	325	546	1
2026-02-12	15:53:50.350	5.6	5.425	-17.15	0.237412	0.388204	-0.865224	-4.056	1.8975	-1.4355	0	325	546	1
2026-02-12	15:53:50.370	11.095	8.47	-21.035	0.227408	0.358436	-0.919392	-4.0185	1.902	-1.4385	0	325	546	1
2026-02-12	15:53:50.390	10.57	7.525	-21.805	0.177632	0.353068	-0.976976	-3.9945	1.86	-1.4445	0	325	546	1
2026-02-12	15:53:50.410	3.5	0	-20.895	0.217404	0.34526	-0.9028	-3.975	1.8315	-1.4565	0	377	648	1
2026-02-12	15:53:50.430	0.105	-3.43	-19.215	0.2806	0.354776	-0.854244	-4.041	1.839	-1.461	0	377	648	1
2026-02-12	15:53:50.450	1.26	-2.135	-19.88	0.288164	0.322812	-0.825452	-4.041	1.839	-1.461	0	377	648	1
2026-02-12	15:53:50.470	3.815	3.885	-17.43	0.30622	0.317688	-0.841312	-4.119	1.872	-1.443	0	377	648	1
2026-02-12	15:53:50.490	9.345	8.82	-14.665	0.299632	0.363804	-0.892552	-4.1985	1.905	-1.425	0	377	648	1
2026-02-12	15:53:50.510	12.845	9.695	-16.275	0.274988	0.378444	-0.947208	-4.1805	1.908	-1.4115	0	377	648	1
2026-02-12	15:53:50.530	13.825	4.69	-19.32	0.269132	0.324764	-0.925004	-4.155	1.8975	-1.3995	0	377	648	1
2026-02-12	15:53:50.550	18.445	0.875	-17.01	0.286212	0.324764	-0.941108	-4.188	1.8855	-1.413	0	377	648	1
2026-02-12	15:53:50.570	16.94	-5.285	-13.685	0.313052	0.327692	-0.875716	-4.284	1.899	-1.4355	0	377	648	1
2026-02-12	15:53:50.590	16.03	-4.585	-9.625	0.301096	0.353556	-0.813984	-4.4115	1.9335	-1.4385	0	377	648	1
2026-02-12	15:53:50.610	21.315	3.605	-7.07	0.277428	0.392596	-0.905484	-4.5045	1.9635	-1.4235	0	396	720	1
2026-02-12	15:53:50.630	20.44	2.345	-7.945	0.297436	0.36234	-0.935008	-4.518	1.968	-1.425	0	396	720	1
2026-02-12	15:53:50.650	14.35	-1.225	-6.23	0.293288	0.37332	-0.868152	-4.506	1.968	-1.4385	0	396	720	1
2026-02-12	15:53:50.670	9.45	0.77	-5.53	0.26108	0.388936	-0.814716	-4.515	1.977	-1.422	0	396	720	1
2026-02-12	15:53:50.690	13.965	5.32	-6.335	0.24278	0.416996	-0.937448	-4.5135	1.977	-1.3935	0	396	720	1
2026-02-12	15:53:50.710	5.705	-4.69	-10.01	0.268888	0.368928	-0.86986	-4.4865	1.9635	-1.3995	0	396	720	1
2026-02-12	15:53:50.730	1.365	-5.88	-9.275	0.27572	0.358436	-0.811788	-4.5045	1.956	-1.416	0	396	720	1
2026-02-12	15:53:50.750	8.155	1.61	-7.91	0.265716	0.405772	-0.871568	-4.5585	1.9515	-1.419	0	396	720	1
2026-02-12	15:53:50.770	8.855	0.49	-10.815	0.291336	0.362828	-0.934764	-4.5735	1.929	-1.437	0	396	720	1
2026-02-12	15:53:50.790	3.15	-7.315	-10.675	0.297192	0.350384	-0.843508	-4.5945	1.9035	-1.4625	0	396	720	1
2026-02-12	15:53:50.810	3.885	-5.32	-9.8	0.298656	0.334524	-0.822524	-4.683	1.896	-1.4775	0	390	771	1
2026-02-12	15:53:50.830	8.365	-1.61	-8.12	0.297924	0.334524	-0.878644	-4.7925	1.8915	-1.494	0	390	771	1
2026-02-12	15:53:50.850	7.805	-3.92	-6.965	0.253516	0.3721	-0.904264	-4.8585	1.8825	-1.509	0	390	771	1
2026-02-12	15:53:50.870	2.59	-9.17	-8.715	0.269132	0.361852	-0.846924	-4.905	1.8735	-1.5105	0	390	771	1
2026-02-12	15:53:50.890	4.095	-8.96	-8.365	0.314028	0.333792	-0.861076	-4.932	1.869	-1.506	0	390	771	1
2026-02-12	15:53:50.910	6.335	-7.28	-6.265	0.316712	0.344528	-0.81862	-4.932	1.869	-1.506	0	390	771	1
2026-02-12	15:53:50.930	6.79	-3.15	-3.99	0.262056	0.40748	-0.843508	-4.932	1.869	-1.506	0	390	771	1
2026-02-12	15:53:50.950	10.185	-1.925	-4.725	0.262788	0.450424	-0.937448	-5.163	1.8825	-1.461	0	390	771	1
2026-02-12	15:53:50.970	3.71	-12.74	-8.68	0.316712	0.40016	-0.864492	-5.151	1.8915	-1.4655	0	390	771	1
2026-02-12	15:53:50.990	-5.635	-13.825	-7.7	0.304512	0.388692	-0.804956	-5.256	1.902	-1.4655	0	390	771	1
2026-02-12	15:53:51.010	-2.03	-7.735	-4.725	0.26474	0.444568	-0.80398	-5.3565	1.9245	-1.4205	0	365	804	1
2026-02-12	15:53:51.030	-2.66	-4.2	-4.935	0.283284	0.444812	-0.916952	-5.361	1.9185	-1.4115	0	365	804	1
2026-02-12	15:53:51.050	-9.31	-12.46	-5.53	0.314516	0.427	-0.843264	-5.343	1.9185	-1.434	0	365	804	1
2026-02-12	15:53:51.070	-10.395	-10.535	-4.55	0.311344	0.421144	-0.793244	-5.403	1.935	-1.434	0	365	804	1
2026-02-12	15:53:51.090	-8.96	-3.535	-2.38	0.30134	0.437004	-0.874984	-5.4615	1.9365	-1.416	0	365	804	1
2026-02-12	15:53:51.110	-7.42	-5.985	-1.12	0.30622	0.437492	-0.893284	-5.445	1.9365	-1.4265	0	365	804	1
2026-02-12	15:53:51.130	-6.72	-8.05	0.385	0.284016	0.465552	-0.850584	-5.4495	1.9335	-1.4025	0	365	804	1
2026-02-12	15:53:51.150	-8.155	-4.2	0.315	0.254492	0.455548	-0.9028	-5.4795	1.9425	-1.356	0	365	804	1
2026-02-12	15:53:51.170	-5.32	-5.425	1.12	0.268888	0.454816	-0.983076	-5.454	1.947	-1.3545	0	365	804	1
2026-02-12	15:53:51.190	-8.925	-12.495	0.665	0.27206	0.375516	-0.95404	-5.448	1.9665	-1.3635	0	365	804	1
2026-02-12	15:53:51.210	-14.07	-10.885	6.79	0.277672	0.374296	-0.841068	-5.5275	1.989	-1.338	0	331	827	1
2026-02-12	15:53:51.230	-10.885	3.71	12.705	0.213256	0.43798	-0.958676	-5.5095	2.0145	-1.2825	0	331	827	1
2026-02-12	15:53:51.250	-13.405	4.06	12.11	0.189588	0.41602	-0.973072	-5.2995	2.019	-1.254	0	331	827	1
2026-02-12	15:53:51.270	-19.11	-1.54	10.815	0.174704	0.412848	-1.013088	-5.085	2.001	-1.2435	0	331	827	1
2026-02-12	15:53:51.290	-18.935	-9.1	5.915	0.148108	0.37332	-0.945744	-4.911	1.986	-1.233	0	331	827	1
2026-02-12	15:53:51.310	-12.81	-8.4	1.085	0.083448	0.398452	-1.069208	-4.806	1.9635	-1.221	0	331	827	1
2026-02-12	15:53:51.330	-17.955	-22.68	-4.585	0.110776	0.262056	-1.125816	-4.7055	1.911	-1.2495	0	331	827	1
2026-02-12	15:53:51.350	-35.77	-41.685	2.625	0.237656	0.217892	-0.851804	-4.7685	1.9185	-1.2795	0	331	827	1
2026-02-12	15:53:51.370	-29.47	-31.815	14.735	0.132004	0.356484	-0.677344	-4.914	1.998	-1.185	0	331	827	1
2026-02-12	15:53:51.390	-1.4	-3.43	16.1	0.0305	0.414312	-0.906704	-4.869	2.067	-1.05	0	331	827	1
2026-02-12	15:53:51.410	5.635	-5.775	9.905	-0.027816	0.385276	-1.04676	-4.5675	2.028	-1.0335	0	296	852	1
2026-02-12	15:53:51.430	-16.59	-27.44	7.385	0.01098	0.381616	-0.909388	-4.3515	1.983	-1.065	0	296	852	1
2026-02-12	15:53:51.450	-18.585	-30.38	4.725	0.047336	0.331352	-0.760792	-4.3575	2.019	-1.0695	0	296	852	1
2026-02-12	15:53:51.470	-8.75	-14	5.285	0.044652	0.34404	-0.797148	-4.4325	2.0595	-1.08	0	296	852	1
2026-02-12	15:53:51.490	4.165	-3.57	6.125	-0.019032	0.413092	-0.943792	-4.3905	2.046	-1.122	0	296	852	1
2026-02-12	15:53:51.510	13.09	-10.465	0	-0.045872	0.462868	-1.027728	-4.3905	2.046	-1.122	0	296	852	1
2026-02-12	15:53:51.530	4.9	-28.245	-10.22	0.010004	0.364292	-0.99674	-4.3905	2.046	-1.122	0	296	852	1
2026-02-12	15:53:51.550	-3.64	-39.55	-11.025	0.068076	0.321836	-0.861808	-4.3905	2.046	-1.122	0	296	852	1
2026-02-12	15:53:51.570	-3.22	-38.01	-7.105	0.070516	0.342332	-0.734684	-4.473	2.0445	-1.26	0	296	852	1
2026-02-12	15:53:51.590	13.195	-18.445	-1.785	0.032452	0.386252	-0.8052	-4.6275	2.0715	-1.392	0	296	852	1
2026-02-12	15:53:51.610	20.335	-8.75	2.59	0.011712	0.437004	-0.91988	-4.6995	2.1015	-1.3845	0	266	873	1
2026-02-12	15:53:51.630	16.345	-15.225	3.535	0.045872	0.433588	-0.864004	-4.629	2.097	-1.395	0	266	873	1
2026-02-12	15:53:51.650	14.14	-16.275	5.355	0.046604	0.424316	-0.81496	-4.5555	2.0985	-1.401	0	266	873	1
2026-02-12	15:53:51.670	20.125	-9.52	9.87	0.05002	0.457988	-0.895236	-4.53	2.094	-1.3935	0	266	873	1
2026-02-12	15:53:51.690	20.65	-9.59	11.55	0.049776	0.503616	-0.930372	-4.473	2.082	-1.3845	0	266	873	1
2026-02-12	15:53:51.710	15.645	-13.615	8.575	0.061732	0.465064	-0.873032	-4.437	2.073	-1.389	0	266	873	1
2026-02-12	15:53:51.730	14.315	-13.72	9.73	0.09638	0.425048	-0.821304	-4.485	2.0745	-1.4085	0	266	873	1
2026-02-12	15:53:51.750	17.955	-7.56	13.895	0.092476	0.470432	-0.842044	-4.5735	2.094	-1.416	0	266	873	1
2026-02-12	15:53:51.770	23.94	-2.345	12.635	0.080032	0.479216	-0.877912	-4.6065	2.109	-1.4145	0	266	873	1
2026-02-12	15:53:51.790	23.135	0.98	9.905	0.076372	0.4819	-0.935984	-4.5975	2.112	-1.4145	0	266	873	1
2026-02-12	15:53:51.810	15.82	-0.56	9.1	0.087108	0.485072	-0.930616	-4.5945	2.1135	-1.4235	0	241	885	1
2026-02-12	15:53:51.830	12.46	-1.68	8.365	0.114192	0.452132	-0.860832	-4.635	2.1255	-1.4265	0	241	885	1
2026-02-12	15:53:51.850	11.62	3.64	9.17	0.118828	0.463844	-0.839116	-4.713	2.154	-1.407	0	241	885	1
2026-02-12	15:53:51.870	15.085	13.16	9.03	0.106872	0.497516	-0.906948	-4.7565	2.1825	-1.3785	0	241	885	1
2026-02-12	15:53:51.890	16.275	16.765	4.935	0.09882	0.515328	-1.007232	-4.74	2.181	-1.359	0	241	885	1
2026-02-12	15:53:51.910	9.975	10.99	-1.505	0.112972	0.47946	-1.020408	-4.7145	2.1705	-1.359	0	241	885	1
2026-02-12	15:53:51.930	1.715	6.58	-5.04	0.13176	0.43554	-0.988444	-4.7655	2.184	-1.368	0	241	885	1
2026-02-12	15:53:51.950	-2.835	8.33	-3.885	0.154696	0.43554	-0.944768	-4.899	2.2125	-1.371	0	241	885	1
2026-02-12	15:53:51.970	-0.98	17.815	-3.57	0.12078	0.434808	-0.981856	-5.0235	2.2515	-1.3515	0	241	885	1
2026-02-12	15:53:51.990	1.085	24.36	-2.485	0.088816	0.431392	-1.071648	-5.0595	2.2665	-1.332	0	241	885	1
2026-02-12	15:53:52.010	2.03	20.58	-2.8	0.122488	0.441396	-1.137772	-5.0085	2.256	-1.335	0	220	897	1
2026-02-12	15:53:52.030	-4.76	9.8	-9.38	0.138836	0.385276	-1.025044	-4.947	2.268	-1.3365	0	220	897	1
2026-02-12	15:53:52.050	-8.155	13.405	-10.99	0.11224	0.360632	-0.995276	-4.938	2.2995	-1.3095	0	220	897	1
2026-02-12	15:53:52.070	-1.96	20.265	-10.85	0.096136	0.365512	-1.036024	-4.917	2.325	-1.281	0	220	897	1
2026-02-12	15:53:52.090	-3.745	18.025	-15.505	0.111264	0.37088	-1.03822	-4.83	2.343	-1.2795	0	220	897	1
2026-02-12	15:53:52.110	-4.725	11.795	-22.645	0.088816	0.305244	-1.004792	-4.7205	2.352	-1.2825	0	220	897	1
2026-02-12	15:53:52.130	-2.485	9.555	-25.165	0.05612	0.266692	-1.022116	-4.641	2.3475	-1.2945	0	220	897	1
2026-02-12	15:53:52.150	-1.19	7.28	-24.08	0.037088	0.268156	-1.037244	-4.6185	2.3415	-1.302	0	220	897	1
2026-02-12	15:53:52.170	-13.055	3.15	-21.315	0.052704	0.203496	-0.938424	-4.6185	2.3415	-1.302	0	220	897	1
2026-02-12	15:53:52.190	-12.88	7.175	-15.26	0.037088	0.2806	-0.935008	-4.6185	2.3415	-1.302	0	220	897	1
2026-02-12	15:53:52.210	-10.255	8.33	-19.32	0.017812	0.265716	-0.951112	-4.6185	2.3415	-1.302	0	203	919	1
2026-02-12	15:53:52.230	0.42	5.46	-24.045	0.015616	0.276208	-1.09678	-4.107	2.1765	-1.1955	0	203	919	1
2026-02-12	15:53:52.250	-0.98	-10.5	-29.855	0.070516	0.253028	-1.057984	-4.011	2.1105	-1.254	0	203	919	1
2026-02-12	15:53:52.270	-4.41	-20.965	-30.835	0.15982	0.181536	-0.855464	-4.0755	2.094	-1.2795	0	203	919	1
2026-02-12	15:53:52.290	5.915	-6.79	-22.26	0.154208	0.213988	-0.847168	-4.2255	2.1195	-1.2825	0	203	919	1
2026-02-12	15:53:52.310	14.035	7.035	-15.995	0.12078	0.299632	-0.913536	-4.23	2.1045	-1.266	0	203	919	1
2026-02-12	15:53:52.330	6.895	5.18	-14.875	0.101992	0.315736	-0.907436	-4.1235	2.055	-1.2525	0	203	919	1
2026-02-12	15:53:52.350	1.015	-0.735	-14.455	0.11712	0.30622	-0.813252	-4.083	2.043	-1.236	0	203	919	1
2026-02-12	15:53:52.370	0.735	2.17	-12.495	0.142984	0.281576	-0.76372	-4.119	2.046	-1.2	0	203	919	1
2026-02-12	15:53:52.390	-0.525	9.905	-7.28	0.162992	0.33672	-0.776164	-4.1205	2.055	-1.188	0	203	919	1
2026-02-12	15:53:52.410	5.11	16.59	-6.09	0.133224	0.380152	-0.856196	-4.0395	2.0415	-1.1715	0	190	937	1
2026-02-12	15:53:52.430	5.11	13.51	-9.835	0.145424	0.39894	-0.879132	-3.9285	2.01	-1.1535	0	190	937	1
2026-02-12	15:53:52.450	2.275	4.305	-14.035	0.158844	0.390156	-0.854244	-3.906	1.995	-1.1535	0	190	937	1
2026-02-12	15:53:52.470	7.91	-0.49	-15.925	0.173972	0.36234	-0.785436	-3.999	2.0175	-1.1505	0	190	937	1
2026-02-12	15:53:52.490	13.93	2.59	-14.875	0.13542	0.4148	-0.852292	-4.1445	2.0535	-1.146	0	190	937	1
2026-02-12	15:53:52.510	13.23	-0.7	-16.45	0.118828	0.411872	-0.866932	-4.2525	2.082	-1.155	0	190	937	1
2026-02-12	15:53:52.530	6.72	-5.915	-13.755	0.162504	0.360144	-0.77958	-4.395	2.1315	-1.1595	0	190	937	1
2026-02-12	15:53:52.550	5.565	0.315	-4.865	0.180072	0.381128	-0.754692	-4.557	2.166	-1.1535	0	190	937	1
2026-02-12	15:53:52.570	11.445	10.29	0.385	0.148596	0.45384	-0.907924	-4.569	2.199	-1.119	0	190	937	1
2026-02-12	15:53:52.590	8.26	4.34	-1.96	0.13176	0.473604	-0.938424	-4.569	2.199	-1.119	0	190	937	1
2026-02-12	15:53:52.610	-4.48	-3.115	-3.535	0.133468	0.464332	-0.928908	-4.4775	2.1675	-1.116	0	180	937	1
2026-02-12	15:53:52.630	-5.285	-3.64	-2.415	0.1586	0.47336	-0.941108	-4.386	2.1375	-1.1145	0	180	937	1
2026-02-12	15:53:52.650	-4.69	-3.185	-1.47	0.167628	0.478972	-0.940132	-4.422	2.145	-1.1175	0	180	937	1
2026-02-12	15:53:52.670	-11.06	-1.855	0.35	0.173484	0.426268	-0.950624	-4.461	2.1525	-1.128	0	180	937	1
2026-02-12	15:53:52.690	-9.905	1.925	8.82	0.15372	0.513376	-1.032852	-4.428	2.1495	-1.131	0	180	937	1
2026-02-12	15:53:52.710	-6.545	2.94	9.31	0.119072	0.574376	-1.165344	-4.296	2.1315	-1.131	0	180	937	1
2026-02-12	15:53:52.730	-13.475	-8.365	3.78	0.113216	0.50996	-1.260504	-4.161	2.109	-1.146	0	180	937	1
2026-02-12	15:53:52.750	-28.175	-27.58	3.78	0.190564	0.442372	-1.042368	-4.173	2.136	-1.164	0	180	937	1
2026-02-12	15:53:52.770	-26.6	-20.335	7.98	0.173484	0.42944	-0.881084	-4.29	2.205	-1.143	0	180	937	1
2026-02-12	15:53:52.790	-5.11	5.355	11.235	0.078812	0.464088	-1.156316	-4.2915	2.2395	-1.098	0	180	937	1
2026-02-12	15:53:52.810	-2.87	-0.105	10.57	0.033184	0.478484	-1.287588	-4.074	2.1825	-1.086	0	173	940	1
2026-02-12	15:53:52.830	-11.62	-20.3	7.77	0.042456	0.466528	-1.152412	-3.8175	2.0955	-1.092	0	173	940	1
2026-02-12	15:53:52.850	-17.15	-21.945	4.27	-0.026596	0.431636	-1.150948	-3.675	2.0595	-1.0755	0	173	940	1
2026-02-12	15:53:52.870	-10.92	-23.8	4.83	-0.010736	0.367708	-1.13582	-3.6045	2.0535	-1.068	0	173	940	1
2026-02-12	15:53:52.890	-20.79	-31.045	11.795	0.088816	0.300364	-0.826428	-3.5775	2.067	-1.1025	0	173	940	1
2026-02-12	15:53:52.910	-20.23	-6.055	23.625	-0.02562	0.37698	-0.760792	-3.5535	2.0895	-1.122	0	173	940	1
2026-02-12	15:53:52.930	4.865	20.72	27.16	-0.153964	0.49654	-1.114836	-3.408	2.0235	-1.122	0	173	940	1
2026-02-12	15:53:52.950	0.07	2.905	17.395	-0.140056	0.332084	-1.297592	-3.1725	1.8765	-1.1835	0	173	940	1
2026-02-12	15:53:52.970	-27.335	-38.85	16.38	-0.047824	0.293776	-0.872788	-3.09	1.7895	-1.2975	0	173	940	1
2026-02-12	15:53:52.990	-26.565	-31.955	20.405	-0.050752	0.219112	-0.662216	-3.2655	1.839	-1.3905	0	173	940	1
2026-02-12	15:53:53.010	-5.495	-5.32	31.15	-0.11468	0.332084	-0.846192	-3.492	1.9155	-1.434	0	170	958	1
2026-02-12	15:53:53.030	9.8	-4.165	34.405	-0.097112	0.379664	-0.972096	-3.564	1.9305	-1.4685	0	170	958	1
2026-02-12	15:53:53.050	10.01	-20.37	30.8	-0.08174	0.3843	-0.854488	-3.5565	1.9335	-1.488	0	170	958	1
2026-02-12	15:53:53.070	14.945	-19.775	29.085	-0.05612	0.3721	-0.850828	-3.6195	1.9635	-1.479	0	170	958	1
2026-02-12	15:53:53.090	13.16	-19.355	31.675	0.004636	0.358192	-0.765672	-3.7245	2.0115	-1.4655	0	170	958	1
2026-02-12	15:53:53.110	15.26	-13.125	38.43	-0.006344	0.384056	-0.721264	-3.7965	2.058	-1.449	0	170	958	1
2026-02-12	15:53:53.130	21.875	-4.795	42.455	-0.028548	0.388204	-0.773968	-3.789	2.067	-1.425	0	170	958	1
2026-02-12	15:53:53.150	24.675	-8.015	43.365	-0.055876	0.436272	-0.865468	-3.6855	2.0295	-1.3995	0	170	958	1
2026-02-12	15:53:53.170	12.6	-25.935	38.15	-0.021716	0.317444	-0.735172	-3.5835	1.989	-1.383	0	170	958	1
2026-02-12	15:53:53.190	3.92	-27.825	42.42	0.038064	0.287188	-0.580232	-3.6105	1.9965	-1.368	0	170	958	1
2026-02-12	15:53:53.210	11.13	-9.625	48.65	0.020008	0.323544	-0.670512	-3.6885	2.034	-1.344	0	170	961	1
2026-02-12	15:53:53.230	22.75	-0.07	47.74	0.020984	0.334524	-0.910608	-3.654	2.028	-1.317	0	170	961	1
2026-02-12	15:53:53.250	11.655	-14.56	45.57	0.08052	0.347212	-0.85888	-3.5445	1.983	-1.3035	0	170	961	1
2026-02-12	15:53:53.270	11.305	-16.135	43.435	0.073932	0.416508	-0.903532	-3.507	1.9695	-1.2735	0	170	961	1
2026-02-12	15:53:53.290	31.5	-9.31	33.32	0.070272	0.492148	-1.186572	-3.5475	1.998	-1.2195	0	170	961	1
2026-02-12	15:53:53.310	24.395	-22.4	15.365	0.143228	0.43066	-1.13582	-3.639	2.052	-1.212	0	170	961	1
2026-02-12	15:53:53.330	-16.275	-23.345	7.665	0.22936	0.400892	-0.826672	-3.879	2.1435	-1.233	0	170	961	1
2026-02-12	15:53:53.350	-10.675	14.595	7.665	0.136884	0.383812	-1.047004	-4.176	2.2605	-1.2225	0	170	961	1
2026-02-12	15:53:53.370	9.94	31.01	4.305	0.122244	0.384056	-1.360544	-4.218	2.2815	-1.2435	0	170	961	1
2026-02-12	15:53:53.390	-7.875	13.3	-6.615	0.161284	0.390888	-1.32248	-4.1355	2.2455	-1.2795	0	170	961	1
2026-02-12	15:53:53.410	-24.36	1.4	-18.445	0.194956	0.415776	-1.117764	-4.1355	2.2455	-1.2795	0	173	956	1
2026-02-12	15:53:53.430	-7.595	18.06	-29.05	0.203496	0.343308	-1.17974	-4.1355	2.2455	-1.2795	0	173	956	1
2026-02-12	15:53:53.450	1.82	24.115	-37.17	0.210572	0.337452	-1.181692	-3.552	2.121	-1.254	0	173	956	1
2026-02-12	15:53:53.470	-0.035	15.75	-44.73	0.212036	0.269376	-1.02724	-3.4545	2.0985	-1.266	0	173	956	1
2026-02-12	15:53:53.490	8.75	19.46	-50.96	0.088084	0.271572	-1.067744	-3.45	2.1195	-1.245	0	173	956	1
2026-02-12	15:53:53.510	6.86	17.745	-55.72	0.09394	0.1708	-0.99064	-3.447	2.0925	-1.2345	0	173	956	1
2026-02-12	15:53:53.530	-6.545	22.4	-49.595	0.090036	0.155672	-0.962336	-3.5175	2.1075	-1.242	0	173	956	1
2026-02-12	15:53:53.550	-6.86	28.49	-43.505	0.0671	0.188612	-0.921832	-3.489	2.1015	-1.218	0	173	956	1
2026-02-12	15:53:53.570	7.77	35.21	-41.79	0.050508	0.192272	-1.043344	-3.396	2.0505	-1.1745	0	173	956	1
2026-02-12	15:53:53.590	11.515	21.84	-40.635	0.110044	0.14152	-0.974536	-3.258	1.9545	-1.191	0	173	956	1
2026-02-12	15:53:53.610	14.245	12.215	-35.91	0.203252	0.071492	-0.752252	-3.2355	1.9035	-1.227	0	178	968	1
2026-02-12	15:53:53.630	27.93	24.395	-24.675	0.165188	0.138592	-0.734928	-3.261	1.8765	-1.2285	0	178	968	1
2026-02-12	15:53:53.650	47.775	36.575	-18.095	0.11346	0.202032	-0.950624	-3.261	1.8765	-1.2285	0	178	968	1
2026-02-12	15:53:53.670	38.01	17.325	-16.275	0.08686399	0.225456	-0.93696	-3.096	1.776	-1.1925	0	178	968	1
2026-02-12	15:53:53.690	15.54	-5.285	-15.68	0.15494	0.244976	-0.705648	-2.931	1.6755	-1.1565	0	178	968	1
2026-02-12	15:53:53.710	12.495	-7.91	-16.415	0.244732	0.178608	-0.50752	-2.9385	1.7175	-1.0905	0	178	968	1
2026-02-12	15:53:53.730	23.975	13.72	-12.845	0.227408	0.191296	-0.375272	-2.988	1.7925	-0.9855	0	178	968	1
2026-02-12	15:53:53.750	40.565	46.305	-9.065	0.105164	0.292068	-0.59048	-2.9595	1.794	-0.8955	0	178	968	1
2026-02-12	15:53:53.770	52.99	56.665	-9.73	-0.005856	0.460428	-1.02724	-2.7375	1.686	-0.8415	0	178	968	1
2026-02-12	15:53:53.790	24.85	19.075	-18.585	0.073932	0.415044	-0.966728	-2.505	1.56	-0.84	0	178	968	1
2026-02-12	15:53:53.810	0.175	-6.755	-19.775	0.15982	0.380152	-0.762744	-2.451	1.521	-0.834	0	184	965	1
2026-02-12	15:53:53.830	7.945	-1.12	-17.535	0.216916	0.304512	-0.678564	-2.538	1.5525	-0.8145	0	184	965	1
2026-02-12	15:53:53.850	21.875	22.295	-7.525	0.187636	0.37576	-0.873032	-2.5845	1.557	-0.7995	0	184	965	1
2026-02-12	15:53:53.870	25.27	28.665	4.025	0.164212	0.599752	-1.223172	-2.481	1.509	-0.792	0	184	965	1
2026-02-12	15:53:53.890	15.575	2.17	-2.625	0.141276	0.554368	-1.293932	-2.319	1.4505	-0.795	0	184	965	1
2026-02-12	15:53:53.910	-8.575	-24.955	-5.495	0.20618	0.374052	-1.209996	-2.2785	1.4355	-0.8145	0	184	965	1
2026-02-12	15:53:53.930	-33.425	-40.32	9.765	0.24644	0.395768	-0.91988	-2.409	1.503	-0.825	0	184	965	1
2026-02-12	15:53:53.950	-18.305	-23.695	21.63	0.121756	0.592432	-1.070428	-2.5845	1.6185	-0.7935	0	184	965	1
2026-02-12	15:53:53.970	-10.08	-23.135	9.45	0.024644	0.444324	-1.327848	-2.6805	1.689	-0.7725	0	184	965	1
2026-02-12	15:53:53.990	-32.025	-45.64	11.9	0.120536	0.445788	-1.308084	-2.7585	1.7415	-0.804	0	184	965	1
2026-02-12	15:53:54.010	-39.165	-57.575	17.57	0.124684	0.291092	-1.033096	-2.901	1.8435	-0.8235	0	192	960	1
2026-02-12	15:53:54.030	-29.995	-31.15	32.235	0.074908	0.311832	-0.927688	-3.0705	1.956	-0.78	0	192	960	1
2026-02-12	15:53:54.050	-20.405	-2.905	40.845	0.049288	0.365024	-1.08824	-3.126	2.01	-0.741	0	192	960	1
2026-02-12	15:53:54.070	-21.35	-10.36	38.675	0.091012	0.293532	-0.969656	-3.0975	2.01	-0.7605	0	192	960	1
2026-02-12	15:53:54.090	-24.64	-11.2	38.745	0.07124799	0.302316	-0.964776	-3.0975	2.0055	-0.804	0	192	960	1
2026-02-12	15:53:54.110	-21.665	-7.245	39.34	-0.024888	0.308416	-0.947452	-3.09	1.998	-0.846	0	192	960	1
2026-02-12	15:53:54.130	-23.03	-1.715	44.065	-0.055632	0.336476	-0.966728	-3.0765	1.9785	-0.8715	0	192	960	1
2026-02-12	15:53:54.150	-26.95	-5.32	46.935	-0.094916	0.409676	-0.809104	-3.0675	1.9665	-0.8655	0	192	960	1
2026-02-12	15:53:54.170	-21	-3.325	39.83	0.026596	0.302316	-0.740052	-3.0705	1.968	-0.8475	0	192	960	1
2026-02-12	15:53:54.190	-12.67	-0.77	37.17	0.066612	0.353068	-0.72468	-3.063	1.9515	-0.8355	0	192	960	1
2026-02-12	15:53:54.210	-10.08	-2.73	31.675	0.074176	0.298412	-0.649284	-3.0075	1.9065	-0.8445	0	200	964	1
2026-02-12	15:53:54.230	-16.345	-0.035	31.255	0.0671	0.263764	-0.620248	-2.958	1.8585	-0.8535	0	200	964	1
2026-02-12	15:53:54.250	-9.45	3.605	35.77	0.071004	0.266936	-0.674904	-2.9325	1.8195	-0.8415	0	200	964	1
2026-02-12	15:53:54.270	-5.67	-0.42	36.995	0.105164	0.230824	-0.592676	-2.916	1.8	-0.834	0	200	964	1
2026-02-12	15:53:54.290	-2.415	1.12	39.515	0.023912	0.343308	-0.74176	-2.925	1.791	-0.8175	0	200	964	1
2026-02-12	15:53:54.310	5.53	-12.53	34.615	0.046604	0.343552	-0.739564	-2.94	1.776	-0.7845	0	200	964	1
2026-02-12	15:53:54.330	-0.525	-25.06	30.8	0.14884	0.209108	-0.669048	-3.0015	1.7865	-0.7695	0	200	964	1
2026-02-12	15:53:54.350	2.38	-18.445	39.375	0.240584	0.264496	-0.628788	-3.1395	1.8285	-0.7575	0	200	964	1
2026-02-12	15:53:54.370	18.27	4.795	43.82	0.184952	0.382104	-0.871812	-3.2145	1.8555	-0.7155	0	200	964	1
2026-02-12	15:53:54.390	29.645	8.435	37.52	0.168116	0.380884	-1.135576	-3.129	1.821	-0.6825	0	200	964	1
2026-02-12	15:53:54.410	11.865	-15.89	29.015	0.288652	0.375028	-1.138748	-3.0195	1.761	-0.696	0	206	949	1
2026-02-12	15:53:54.430	-1.75	-31.64	21.245	0.346968	0.300364	-0.86742	-3.0585	1.7835	-0.7065	0	206	949	1
2026-02-12	15:53:54.450	12.53	-5.88	19.81	0.278892	0.304268	-0.986492	-3.174	1.8615	-0.6705	0	206	949	1
2026-02-12	15:53:54.470	29.54	17.29	19.25	0.235216	0.479216	-1.355664	-3.156	1.89	-0.6345	0	206	949	1
2026-02-12	15:53:54.490	24.465	4.375	3.57	0.261568	0.419924	-1.387384	-2.976	1.851	-0.639	0	206	949	1
2026-02-12	15:53:54.510	2.555	-14	-11.655	0.340868	0.27084	-1.113372	-2.8305	1.809	-0.6615	0	206	949	1
2026-02-12	15:53:54.530	-9.415	-5.6	-15.155	0.344772	0.2684	-0.893772	-2.808	1.8105	-0.669	0	206	949	1
2026-02-12	15:53:54.550	18.375	26.53	-17.115	0.204472	0.333792	-1.169492	-2.7525	1.794	-0.6495	0	206	949	1
2026-02-12	15:53:54.570	55.685	29.4	-26.95	0.145912	0.366732	-1.558916	-2.5365	1.6965	-0.654	0	206	949	1
2026-02-12	15:53:54.590	54.075	-4.935	-42.525	0.214476	0.347212	-1.498648	-2.289	1.5795	-0.6915	0	206	949	1
2026-02-12	15:53:54.610	32.2	-31.745	-54.915	0.215696	0.24034	-1.213168	-2.2035	1.5465	-0.7305	0	213	950	1
2026-02-12	15:53:54.630	19.355	-31.255	-53.9	0.210816	0.088572	-0.77348	-2.331	1.614	-0.7395	0	213	950	1
2026-02-12	15:53:54.650	26.18	7	-35.455	0.152988	0.135176	-0.79422	-2.4465	1.6665	-0.726	0	213	950	1
2026-02-12	15:53:54.670	41.475	38.43	-28.805	0.038552	0.223016	-1.117764	-2.4465	1.6665	-0.726	0	213	950	1
2026-02-12	15:53:54.690	46.13	29.82	-37.625	-0.000976	0.218868	-1.295152	-2.4465	1.6665	-0.726	0	213	950	1
2026-02-12	15:53:54.710	10.5	-1.225	-48.755	0.124684	0.051484	-0.931104	-2.4465	1.6665	-0.726	0	213	950	1
2026-02-12	15:53:54.730	-2.94	4.48	-42.665	0.160064	0.063684	-0.687836	-2.4465	1.6665	-0.726	0	213	950	1
2026-02-12	15:53:54.750	25.06	32.41	-38.605	0.09394	0.09272	-0.781044	-2.418	1.6635	-0.7635	0	213	950	1
2026-02-12	15:53:54.770	36.89	38.395	-38.675	0.087108	0.113216	-0.819108	-2.391	1.6605	-0.801	0	213	950	1
2026-02-12	15:53:54.790	28.875	29.96	-39.27	0.105652	0.046116	-0.680272	-2.316	1.602	-0.7905	0	213	950	1
2026-02-12	15:53:54.810	9.17	28.875	-31.29	0.127368	0.162016	-0.630984	-2.2095	1.5285	-0.7635	0	221	967	1
2026-02-12	15:53:54.830	17.885	36.015	-30.065	0.124196	0.144936	-0.625372	-2.145	1.497	-0.723	0	221	967	1
2026-02-12	15:53:54.850	20.405	44.835	-27.86	0.180804	0.05856	-0.6893	-2.0715	1.467	-0.6915	0	221	967	1
2026-02-12	15:53:54.870	8.19	45.255	-17.64	0.1708	0.18422	-0.619516	-2.0025	1.437	-0.6555	0	221	967	1
2026-02-12	15:53:54.890	11.41	48.37	-21.28	0.19032	0.256688	-0.656848	-1.9515	1.413	-0.609	0	221	967	1
2026-02-12	15:53:54.910	22.365	43.155	-33.18	0.240096	0.2501	-0.788852	-1.9245	1.3965	-0.6015	0	221	967	1
2026-02-12	15:53:54.930	16.975	30.24	-35.665	0.22448	0.23912	-0.799832	-1.941	1.3845	-0.6135	0	221	967	1
2026-02-12	15:53:54.950	22.155	31.64	-29.295	0.155672	0.431148	-0.898164	-1.971	1.3725	-0.5985	0	221	967	1
2026-02-12	15:53:54.970	27.615	31.71	-33.39	0.148108	0.423096	-1.106296	-1.9755	1.3665	-0.576	0	221	967	1
2026-02-12	15:53:54.990	14.49	10.465	-32.76	0.236436	0.479948	-1.203652	-1.9845	1.3695	-0.573	0	221	967	1
2026-02-12	15:53:55.010	4.55	-14.595	-35.175	0.263032	0.507276	-1.153144	-2.0505	1.41	-0.5685	0	230	962	1
2026-02-12	15:53:55.030	-13.37	-28.525	-37.205	0.305244	0.353556	-0.987468	-2.1855	1.488	-0.5475	0	230	962	1
2026-02-12	15:53:55.050	-22.54	-18.48	-18.795	0.294996	0.413824	-1.008208	-2.3415	1.569	-0.501	0	230	962	1
2026-02-12	15:53:55.070	-18.585	-4.55	-4.445	0.21594	0.481656	-1.131428	-2.4	1.6215	-0.447	0	230	962	1
2026-02-12	15:53:55.090	-30.625	-5.425	-1.19	0.173484	0.526552	-1.28466	-2.3655	1.629	-0.42	0	230	962	1
2026-02-12	15:53:55.110	-39.305	-25.13	-8.435	0.215696	0.399916	-1.2993	-2.3415	1.62	-0.4275	0	230	962	1
2026-02-12	15:53:55.130	-41.055	-43.855	-11.27	0.202764	0.290604	-1.107516	-2.4225	1.6395	-0.4545	0	230	962	1
2026-02-12	15:53:55.150	-35.56	-40.005	-1.225	0.170312	0.311588	-1.009428	-2.5935	1.6755	-0.4575	0	230	962	1
2026-02-12	15:53:55.170	-25.69	-23.345	10.815	0.074176	0.375516	-1.083116	-2.736	1.7055	-0.459	0	230	962	1
2026-02-12	15:53:55.190	-31.675	-22.085	16.765	0.100772	0.27572	-1.127036	-2.814	1.7235	-0.495	0	230	962	1
2026-02-12	15:53:55.210	-47.04	-34.02	26.845	0.18422	0.284504	-0.890844	-2.892	1.7625	-0.531	0	238	965	1
2026-02-12	15:53:55.230	-44.45	-24.465	30.73	0.140056	0.280844	-0.728828	-2.985	1.8345	-0.522	0	238	965	1
2026-02-12	15:53:55.250	-19.18	-0.455	33.355	0.050752	0.352092	-0.852292	-3	1.866	-0.5025	0	238	965	1
2026-02-12	15:53:55.270	-9.415	5.6	31.955	0.019276	0.355996	-1.007964	-2.907	1.8225	-0.522	0	238	965	1
2026-02-12	15:53:55.290	-18.655	-12.705	30.24	0.11102	0.290116	-0.815936	-2.8155	1.7655	-0.567	0	238	965	1
2026-02-12	15:53:55.310	-20.335	-14.28	33.915	0.155184	0.258884	-0.653188	-2.8155	1.7535	-0.6	0	238	965	1
2026-02-12	15:53:55.330	-8.995	-1.96	39.48	0.149572	0.275964	-0.56364	-2.817	1.7535	-0.6045	0	238	965	1
2026-02-12	15:53:55.350	-1.155	15.47	42.035	0.115168	0.315004	-0.621224	-2.7345	1.7115	-0.597	0	238	965	1
2026-02-12	15:53:55.370	-2.59	20.02	42.595	0.112972	0.337208	-0.73078	-2.5905	1.6305	-0.597	0	238	965	1
2026-02-12	15:53:55.390	-10.22	9.52	42.56	0.105408	0.365024	-0.721996	-2.433	1.551	-0.6	0	238	965	1
2026-02-12	15:53:55.410	-6.475	-0.105	37.625	0.140056	0.340624	-0.71736	-2.3235	1.5015	-0.585	0	242	963	1
2026-02-12	15:53:55.430	-10.43	-6.72	33.005	0.133712	0.332328	-0.739808	-2.28	1.4865	-0.567	0	242	963	1
2026-02-12	15:53:55.450	-6.195	-11.34	29.19	0.108092	0.413824	-0.891576	-2.277	1.4925	-0.549	0	242	963	1
2026-02-12	15:53:55.470	2.1	-23.59	16.59	0.1525	0.343796	-0.949892	-2.3205	1.5255	-0.5385	0	242	963	1
2026-02-12	15:53:55.490	-14.49	-36.4	11.585	0.243512	0.24156	-0.812032	-2.454	1.5855	-0.5385	0	242	963	1
2026-02-12	15:53:55.510	-7.56	-20.58	17.395	0.288652	0.350872	-0.920368	-2.6145	1.671	-0.516	0	242	963	1
2026-02-12	15:53:55.530	0.455	-6.65	9.835	0.319152	0.368196	-1.037	-2.679	1.7325	-0.4845	0	242	963	1
2026-02-12	15:53:55.550	3.15	-2.345	-1.33	0.297192	0.334524	-1.139968	-2.6595	1.743	-0.474	0	242	963	1
2026-02-12	15:53:55.570	-8.855	-4.655	-8.715	0.288896	0.282308	-1.02358	-2.6265	1.7445	-0.474	0	242	963	1
2026-02-12	15:53:55.590	-10.85	9.94	-11.06	0.27938	0.290116	-1.094096	-2.5995	1.7385	-0.4605	0	242	963	1
2026-02-12	15:53:55.610	-5.075	19.81	-16.31	0.22082	0.305732	-1.2383	-2.532	1.713	-0.453	0	244	952	1
2026-02-12	15:53:55.630	7.735	11.095	-28.035	0.201544	0.308172	-1.242204	-2.445	1.6755	-0.459	0	244	952	1
2026-02-12	15:53:55.650	7.595	0.385	-41.055	0.195932	0.327936	-1.239764	-2.4045	1.6575	-0.468	0	244	952	1
2026-02-12	15:53:55.670	17.85	-3.99	-51.625	0.193004	0.226188	-1.202188	-2.424	1.6845	-0.4665	0	244	952	1
2026-02-12	15:53:55.690	21.42	0.035	-49	0.224968	0.266204	-1.129964	-2.493	1.734	-0.4575	0	244	952	1
2026-02-12	15:53:55.710	21.315	5.565	-49.28	0.198616	0.301828	-1.068964	-2.5785	1.7925	-0.4395	0	244	952	1
2026-02-12	15:53:55.730	28	10.535	-53.305	0.176656	0.2501	-1.097512	-2.643	1.836	-0.4125	0	244	952	1
2026-02-12	15:53:55.750	16.94	11.41	-52.15	0.171044	0.254248	-1.089948	-2.676	1.854	-0.4005	0	244	952	1
2026-02-12	15:53:55.770	7.49	11.935	-51.205	0.16836	0.251564	-1.051396	-2.676	1.854	-0.4035	0	244	952	1
2026-02-12	15:53:55.790	5.6	11.76	-53.27	0.217892	0.159088	-0.887184	-2.67	1.851	-0.405	0	244	952	1
2026-02-12	15:53:55.810	7.525	21.7	-49.945	0.217404	0.160308	-0.850828	-2.688	1.866	-0.411	0	242	962	1
2026-02-12	15:53:55.830	14.385	26.46	-48.09	0.199348	0.184708	-0.843264	-2.688	1.866	-0.411	0	242	962	1
2026-02-12	15:53:55.850	23.345	32.2	-48.09	0.153476	0.22692	-0.82716	-2.64	1.815	-0.408	0	242	962	1
2026-02-12	15:53:55.870	24.535	31.465	-50.54	0.16104	0.222772	-0.82716	-2.535	1.7595	-0.396	0	242	962	1
2026-02-12	15:53:55.890	22.26	23.975	-52.85	0.164944	0.228872	-0.764696	-2.535	1.7595	-0.396	0	242	962	1
2026-02-12	15:53:55.910	16.66	19.075	-55.86	0.17934	0.168848	-0.663436	-2.535	1.7595	-0.396	0	242	962	1
2026-02-12	15:53:55.930	13.09	22.4	-51.87	0.199104	0.139812	-0.574864	-2.5065	1.725	-0.384	0	242	962	1
2026-02-12	15:53:55.950	17.885	35.07	-42.07	0.185684	0.188856	-0.558272	-2.451	1.6785	-0.363	0	242	962	1
2026-02-12	15:53:55.970	24.08	45.71	-37.415	0.153476	0.216672	-0.60756	-2.37	1.644	-0.345	0	242	962	1
2026-02-12	15:53:55.990	26.005	44.275	-36.785	0.146156	0.303292	-0.643672	-2.256	1.596	-0.336	0	242	962	1
2026-02-12	15:53:56.010	23.485	36.33	-44.45	0.186904	0.310612	-0.69052	-2.1525	1.5495	-0.3435	0	238	961	1
2026-02-12	15:53:56.030	5.32	29.26	-51.625	0.292068	0.316224	-0.515816	-2.106	1.515	-0.3615	0	238	961	1
2026-02-12	15:53:56.050	-9.135	50.47	-53.095	0.24034	0.387716	-0.573888	-2.0715	1.4745	-0.3735	0	238	961	1
2026-02-12	15:53:56.070	21.315	77.98	-51.905	0.243268	0.366244	-0.882792	-1.9755	1.386	-0.4005	0	238	961	1
2026-02-12	15:53:56.090	37.625	71.75	-37.8	0.33672	0.400648	-1.1407	-1.8195	1.2705	-0.456	0	238	961	1
2026-02-12	15:53:56.110	16.345	28.455	-22.365	0.293288	0.614392	-1.100928	-1.6785	1.1985	-0.4785	0	238	961	1
2026-02-12	15:53:56.130	-14.28	-13.58	-29.925	0.27694	0.671244	-0.86986	-1.62	1.1985	-0.444	0	238	961	1
2026-02-12	15:53:56.150	-3.465	-16.1	-41.125	0.253272	0.711504	-1.034316	-1.6665	1.2345	-0.3975	0	238	961	1
2026-02-12	15:53:56.170	-9.8	-21.07	-52.045	0.350384	0.47336	-1.107028	-1.7775	1.275	-0.408	0	238	961	1
2026-02-12	15:53:56.190	-28.595	-31.465	-35.175	0.421144	0.404796	-0.973316	-1.9185	1.3395	-0.4515	0	238	961	1
2026-02-12	15:53:56.210	-25.13	-18.2	-7.665	0.3172	0.540948	-0.918172	-2.0385	1.4115	-0.4515	0	236	940	1
2026-02-12	15:53:56.230	-27.125	-3.01	3.255	0.230336	0.526308	-0.993324	-2.064	1.4505	-0.405	0	236	940	1
2026-02-12	15:53:56.250	-20.265	-4.515	7.875	0.188124	0.643428	-1.094584	-2.0085	1.455	-0.348	0	236	940	1
2026-02-12	15:53:56.270	-15.75	-14.175	-1.05	0.165188	0.61854	-1.35542	-1.9155	1.4355	-0.324	0	236	940	1
2026-02-12	15:53:56.290	-22.645	-43.82	-10.185	0.172752	0.491416	-1.293444	-1.8705	1.425	-0.333	0	236	940	1
2026-02-12	15:53:56.310	-48.825	-67.48	-5.25	0.203008	0.370636	-1.033584	-1.932	1.464	-0.3255	0	236	940	1
2026-02-12	15:53:56.330	-42.595	-64.89	11.27	0.168116	0.415044	-0.77348	-2.0625	1.557	-0.276	0	236	940	1
2026-02-12	15:53:56.350	-26.18	-31.99	15.26	0.066124	0.428464	-0.920612	-2.1795	1.6515	-0.219	0	236	940	1
2026-02-12	15:53:56.370	-17.99	-20.685	11.865	-0.0488	0.419192	-1.040172	-2.229	1.692	-0.219	0	236	940	1
2026-02-12	15:53:56.390	-23.87	-31.185	12.915	0.049288	0.340624	-1.037244	-2.28	1.707	-0.273	0	236	940	1
2026-02-12	15:53:56.410	-30.695	-37.59	20.965	0.101748	0.305488	-0.809836	-2.3835	1.7505	-0.324	0	236	938	1
2026-02-12	15:53:56.430	-16.45	-17.92	32.515	0.053436	0.284992	-0.670512	-2.472	1.803	-0.3435	0	236	938	1
2026-02-12	15:53:56.450	11.83	8.4	42.98	-0.01098	0.412116	-0.865956	-2.4645	1.7985	-0.345	0	236	938	1
2026-02-12	15:53:56.470	13.58	3.22	38.885	-0.02196	0.432612	-0.97844	-2.3445	1.7265	-0.357	0	236	938	1
2026-02-12	15:53:56.490	-2.765	-23.17	31.78	0.038064	0.413092	-0.74054	-2.2245	1.662	-0.3525	0	236	938	1
2026-02-12	15:53:56.510	-6.58	-26.11	29.715	0.046116	0.4209	-0.640012	-2.1885	1.6515	-0.3195	0	236	938	1
2026-02-12	15:53:56.530	3.43	-15.96	28.665	0.06344	0.319884	-0.592676	-2.193	1.656	-0.291	0	236	938	1
2026-02-12	15:53:56.550	-0.175	-8.89	37.695	0.067832	0.357704	-0.610244	-2.196	1.644	-0.2715	0	236	938	1
2026-02-12	15:53:56.570	5.32	-5.46	44.94	0.089548	0.479216	-0.74054	-2.1465	1.611	-0.264	0	236	938	1
2026-02-12	15:53:56.590	4.27	-13.51	35.665	0.077836	0.42822	-0.70882	-2.076	1.5675	-0.258	0	236	938	1
2026-02-12	15:53:56.610	0.21	-20.44	30.415	0.137128	0.410652	-0.690764	-2.0565	1.545	-0.252	0	237	932	1
2026-02-12	15:53:56.630	-6.93	-23.695	27.58	0.160552	0.435296	-0.698084	-2.091	1.563	-0.249	0	237	932	1
2026-02-12	15:53:56.650	-7.175	-22.75	23.31	0.159332	0.409188	-0.649284	-2.16	1.6065	-0.24	0	237	932	1
2026-02-12	15:53:56.670	0.245	-16.905	22.715	0.185928	0.443836	-0.72956	-2.256	1.647	-0.2145	0	237	932	1
2026-02-12	15:53:56.690	8.645	-15.26	18.865	0.21106	0.460916	-0.754936	-2.334	1.6845	-0.1755	0	237	932	1
2026-02-12	15:53:56.710	6.265	-8.68	12.565	0.202032	0.438224	-0.80642	-2.382	1.7085	-0.1545	0	237	932	1
2026-02-12	15:53:56.730	6.16	2.73	11.375	0.255712	0.4392	-1.025776	-2.403	1.713	-0.1515	0	237	932	1
2026-02-12	15:53:56.750	4.375	-0.77	9.975	0.248148	0.546804	-1.041636	-2.379	1.6965	-0.1575	0	237	932	1
2026-02-12	15:53:56.770	21.175	-2.135	-1.645	0.168604	0.572668	-1.132892	-2.355	1.683	-0.1455	0	237	932	1
2026-02-12	15:53:56.790	35.665	-8.12	-17.815	0.253272	0.460184	-1.236348	-2.3745	1.686	-0.1335	0	237	932	1
2026-02-12	15:53:56.810	32.795	-17.08	-23.94	0.294752	0.369416	-1.181692	-2.4585	1.707	-0.144	0	238	916	1
2026-02-12	15:53:56.830	20.86	-7.035	-19.53	0.2501	0.420168	-1.071404	-2.5665	1.752	-0.159	0	238	916	1
2026-02-12	15:53:56.850	21.665	12.075	-18.445	0.195932	0.359656	-1.192184	-2.6115	1.779	-0.168	0	238	916	1
2026-02-12	15:53:56.870	27.37	19.705	-15.96	0.185196	0.420168	-1.249768	-2.6115	1.779	-0.168	0	238	916	1
2026-02-12	15:53:56.890	28	20.65	-20.37	0.12444	0.467992	-1.377624	-2.5665	1.755	-0.1785	0	238	916	1
2026-02-12	15:53:56.910	25.935	11.62	-28.945	0.133956	0.4087	-1.368352	-2.5665	1.755	-0.1785	0	238	916	1
2026-02-12	15:53:56.930	19.74	0.7	-35.84	0.119804	0.288408	-1.158756	-2.43	1.692	-0.2595	0	238	916	1
2026-02-12	15:53:56.950	15.19	5.915	-27.895	0.151768	0.202032	-0.984052	-2.4885	1.701	-0.2625	0	238	916	1
2026-02-12	15:53:56.970	13.37	22.715	-10.64	0.141276	0.23546	-0.996496	-2.547	1.728	-0.2595	0	238	916	1
2026-02-12	15:53:56.990	8.89	28.35	-2.415	0.131516	0.30256	-1.05042	-2.4765	1.728	-0.255	0	238	916	1
2026-02-12	15:53:57.010	-4.2	15.33	-9.975	0.172996	0.300608	-0.976	-2.3565	1.6935	-0.24	0	239	932	1
2026-02-12	15:53:57.030	2.975	15.155	-23.835	0.094916	0.27572	-0.91378	-2.2845	1.692	-0.213	0	239	932	1
2026-02-12	15:53:57.050	17.255	26.6	-33.215	0.077348	0.251564	-0.962824	-2.301	1.6725	-0.1815	0	239	932	1
2026-02-12	15:53:57.070	11.935	23.695	-31.92	0.095404	0.257908	-0.925004	-2.3115	1.6485	-0.183	0	239	932	1
2026-02-12	15:53:57.090	-2.66	14.07	-30.205	0.16836	0.170556	-0.840824	-2.3115	1.6485	-0.183	0	239	932	1
2026-02-12	15:53:57.110	-1.61	12.425	-27.405	0.172508	0.188124	-0.8113	-2.3115	1.6485	-0.183	0	239	932	1
2026-02-12	15:53:57.130	11.375	16.94	-28.315	0.10736	0.235216	-0.917684	-2.376	1.6455	-0.1695	0	239	932	1
2026-02-12	15:53:57.150	8.12	7.35	-35.49	0.137128	0.272548	-0.904752	-2.4495	1.644	-0.1575	0	239	932	1
2026-02-12	15:53:57.170	-7.49	-6.3	-44.45	0.229604	0.131028	-0.750788	-2.5155	1.662	-0.15	0	239	932	1
2026-02-12	15:53:57.190	-24.64	-1.225	-40.53	0.261568	0.072712	-0.563396	-2.616	1.6995	-0.12	0	239	932	1
2026-02-12	15:53:57.210	-8.225	21.525	-29.015	0.158844	0.141032	-0.626836	-2.652	1.719	-0.072	0	239	952	1
2026-02-12	15:53:57.230	8.225	35.525	-26.005	0.053924	0.25742	-0.913292	-2.586	1.707	-0.042	0	239	952	1
2026-02-12	15:53:57.250	-8.47	10.08	-40.39	0.133956	0.233752	-0.814228	-2.547	1.7085	-0.039	0	239	952	1
2026-02-12	15:53:57.270	-32.655	-11.55	-54.46	0.235216	0.088572	-0.560956	-2.661	1.779	0.0045	0	239	952	1
2026-02-12	15:53:57.290	-15.645	4.165	-51.065	0.237412	0.092232	-0.392352	-2.8455	1.8735	0.1065	0	239	952	1
2026-02-12	15:53:57.310	-12.11	43.75	-41.51	0.167872	0.146644	-0.559736	-2.931	1.908	0.1635	0	239	952	1
2026-02-12	15:53:57.330	4.935	58.765	-32.69	0.164944	0.234972	-0.720288	-2.8545	1.8675	0.1275	0	239	952	1
2026-02-12	15:53:57.350	11.83	51.52	-38.395	0.226432	0.369172	-0.806908	-2.706	1.8	0.072	0	239	952	1
2026-02-12	15:53:57.370	16.415	32.9	-59.29	0.262544	0.386984	-0.758352	-2.589	1.7625	0.039	0	239	952	1
2026-02-12	15:53:57.390	26.005	22.12	-73.115	0.292312	0.400892	-0.687104	-2.5575	1.7475	0.0315	0	239	952	1
2026-02-12	15:53:57.410	30.975	19.495	-77.28	0.299632	0.474092	-0.76738	-2.58	1.746	0.0315	0	239	935	1
2026-02-12	15:53:57.430	38.5	12.355	-82.46	0.302072	0.540216	-0.734196	-2.619	1.7535	0.0135	0	239	935	1
2026-02-12	15:53:57.450	40.425	10.43	-88.515	0.304024	0.536556	-0.757376	-2.694	1.7595	-0.0015	0	239	935	1
2026-02-12	15:53:57.470	35.63	11.305	-87.255	0.29646	0.54412	-0.849852	-2.775	1.77	-0.0255	0	239	935	1
2026-02-12	15:53:57.490	29.96	5.565	-80.535	0.264008	0.489952	-0.80032	-2.8455	1.7715	-0.063	0	239	935	1
2026-02-12	15:53:57.510	26.32	4.41	-70	0.29768	0.498736	-0.727852	-2.898	1.764	-0.0795	0	239	935	1
2026-02-12	15:53:57.530	23.695	11.655	-63.14	0.275232	0.560712	-0.742004	-2.8785	1.746	-0.0735	0	239	935	1
2026-02-12	15:53:57.550	26.425	20.055	-64.785	0.161528	0.68076	-0.873032	-2.769	1.698	-0.0765	0	239	935	1
2026-02-12	15:53:57.570	21.105	18.55	-73.5	0.142984	0.599508	-1.042124	-2.6445	1.623	-0.1185	0	239	935	1
2026-02-12	15:53:57.590	1.155	5.915	-73.395	0.208376	0.471408	-1.054324	-2.5995	1.5615	-0.1755	0	239	935	1
2026-02-12	15:53:57.610	-14.91	-5.635	-61.74	0.250588	0.40016	-0.751764	-2.64	1.5495	-0.2055	0	239	902	1
2026-02-12	15:53:57.630	-15.785	14.35	-44.8	0.219844	0.488244	-0.716628	-2.685	1.5645	-0.1845	0	239	902	1
2026-02-12	15:53:57.650	-11.725	34.72	-35.455	0.191052	0.53192	-0.810568	-2.6235	1.548	-0.1635	0	239	902	1
2026-02-12	15:53:57.670	-9.205	41.685	-29.365	0.135664	0.605364	-0.972828	-2.466	1.479	-0.18	0	239	902	1
2026-02-12	15:53:57.690	-1.4	31.885	-35.84	0.117852	0.607804	-1.10898	-2.292	1.392	-0.207	0	239	902	1
2026-02-12	15:53:57.710	3.64	11.2	-46.795	0.10126	0.551684	-1.108248	-2.175	1.3245	-0.2325	0	239	902	1
2026-02-12	15:53:57.730	3.22	-9.17	-46.795	0.058804	0.5795	-1.036756	-2.1345	1.2915	-0.2505	0	239	902	1
2026-02-12	15:53:57.750	-1.33	-21.28	-40.425	0.070516	0.489708	-0.949648	-2.1435	1.29	-0.249	0	239	902	1
2026-02-12	15:53:57.770	2.03	-23.24	-28.28	0.106628	0.532652	-1.067256	-2.1525	1.3005	-0.2385	0	239	902	1
2026-02-12	15:53:57.790	11.9	-27.86	-24.185	0.014884	0.540948	-1.160708	-2.13	1.308	-0.237	0	239	902	1
2026-02-12	15:53:57.810	2.345	-42.49	-23.205	-0.046848	0.520452	-1.1346	-2.1075	1.308	-0.2475	0	238	889	1
2026-02-12	15:53:57.830	-19.53	-61.6	-16.625	0.015372	0.421144	-0.971364	-2.124	1.3245	-0.2535	0	238	889	1
2026-02-12	15:53:57.850	-24.85	-63.56	-6.125	0.056364	0.419436	-0.858392	-2.1945	1.3875	-0.2535	0	238	889	1
2026-02-12	15:53:57.870	-17.85	-50.785	-1.61	-0.006832	0.402844	-0.801052	-2.2935	1.4655	-0.2475	0	238	889	1
2026-02-12	15:53:57.890	-3.36	-32.97	3.255	-0.014884	0.406504	-0.879132	-2.3685	1.515	-0.2565	0	238	889	1
2026-02-12	15:53:57.910	6.86	-19.985	7.455	-0.044652	0.427244	-1.03822	-2.3925	1.5315	-0.273	0	238	889	1
2026-02-12	15:53:57.930	6.79	-20.37	8.155	-0.055632	0.388204	-1.029192	-2.3925	1.5315	-0.273	0	238	889	1
2026-02-12	15:53:57.950	6.3	-21.56	14.595	-0.057584	0.382348	-0.94062	-2.3985	1.5225	-0.3915	0	238	889	1
2026-02-12	15:53:57.970	0.875	-20.545	17.185	-0.030012	0.366244	-0.8784	-2.3985	1.5225	-0.3915	0	238	889	1
2026-02-12	15:53:57.990	-2.38	-15.505	21	0.011712	0.382592	-0.780312	-2.5005	1.5825	-0.393	0	238	889	1
2026-02-12	15:53:58.010	-5.145	0.07	22.995	0.00366	0.373564	-0.849608	-2.5005	1.5825	-0.393	0	237	900	1
2026-02-12	15:53:58.030	-1.82	2.45	25.06	0.049288	0.377468	-0.785924	-2.6175	1.629	-0.3825	0	237	900	1
2026-02-12	15:53:58.050	-5.6	9.345	27.335	0.061732	0.387716	-0.792512	-2.664	1.629	-0.405	0	237	900	1
2026-02-12	15:53:58.070	-1.12	15.785	27.72	0.06832	0.343308	-0.756156	-2.694	1.617	-0.402	0	237	900	1
2026-02-12	15:53:58.090	3.85	24.22	30.73	0.051728	0.334768	-0.782996	-2.712	1.5855	-0.4245	0	237	900	1
2026-02-12	15:53:58.110	6.65	28.63	32.97	0.051484	0.330132	-0.861808	-2.6985	1.533	-0.429	0	237	900	1
2026-02-12	15:53:58.130	9.765	21	32.62	0.098332	0.358436	-0.855952	-2.658	1.4745	-0.4605	0	237	900	1
2026-02-12	15:53:58.150	12.355	12.81	29.015	0.117852	0.398696	-0.791536	-2.667	1.4595	-0.4425	0	237	900	1
2026-02-12	15:53:58.170	13.09	13.475	22.26	0.117852	0.407968	-0.818864	-2.6865	1.47	-0.3975	0	237	900	1
2026-02-12	15:53:58.190	18.76	21	16.59	0.097844	0.383812	-0.906216	-2.682	1.4745	-0.3705	0	237	900	1
2026-02-12	15:53:58.210	11.445	22.785	13.755	0.167384	0.414068	-0.97844	-2.6415	1.467	-0.3435	0	233	907	1
2026-02-12	15:53:58.230	2.905	15.645	6.825	0.237168	0.390644	-0.946232	-2.607	1.446	-0.324	0	233	907	1
2026-02-12	15:53:58.250	5.46	14.805	-4.55	0.245708	0.347456	-0.9028	-2.631	1.47	-0.327	0	233	907	1
2026-02-12	15:53:58.270	11.585	23.975	-12.81	0.238876	0.349408	-0.960872	-2.6595	1.5	-0.2985	0	233	907	1
2026-02-12	15:53:58.290	18.06	30.1	-18.445	0.23058	0.377712	-1.008696	-2.6175	1.4955	-0.288	0	233	907	1
2026-02-12	15:53:58.310	17.325	31.605	-26.18	0.279624	0.378688	-0.996252	-2.6175	1.4955	-0.288	0	233	907	1
2026-02-12	15:53:58.330	11.515	34.755	-35.14	0.2684	0.338184	-0.936472	-2.6175	1.4955	-0.288	0	233	907	1
2026-02-12	15:53:58.350	17.85	44.94	-41.475	0.20008	0.41358	-1.10044	-2.5065	1.464	-0.2865	0	233	907	1
2026-02-12	15:53:58.370	24.465	37.555	-55.23	0.18056	0.37088	-1.13216	-2.3265	1.4265	-0.315	0	233	907	1
2026-02-12	15:53:58.390	21.35	27.895	-67.41	0.135908	0.385764	-1.143628	-2.268	1.407	-0.345	0	233	907	1
2026-02-12	15:53:58.410	23.485	18.165	-78.435	0.11712	0.317688	-1.0736	-2.286	1.404	-0.357	0	227	917	1
2026-02-12	15:53:58.430	29.575	13.265	-83.475	0.112972	0.328912	-1.03456	-2.3205	1.425	-0.3765	0	227	917	1
2026-02-12	15:53:58.450	29.995	8.19	-90.44	0.104188	0.333548	-0.999424	-2.37	1.455	-0.3915	0	227	917	1
2026-02-12	15:53:58.470	24.36	2.135	-96.495	0.044408	0.20252	-0.976244	-2.433	1.476	-0.408	0	227	917	1
2026-02-12	15:53:58.490	29.785	2.24	-89.39	0.008052	0.121756	-1.036268	-2.505	1.479	-0.435	0	227	917	1
2026-02-12	15:53:58.510	27.125	0.035	-76.825	0.026352	0.126148	-0.995032	-2.5365	1.488	-0.459	0	227	917	1
2026-02-12	15:53:58.530	17.535	1.575	-67.69	0.091744	0.13664	-0.87352	-2.532	1.506	-0.4545	0	227	917	1
2026-02-12	15:53:58.550	22.155	12.145	-65.45	0.109556	0.189832	-0.868396	-2.475	1.5165	-0.4335	0	227	917	1
2026-02-12	15:53:58.570	47.53	21.21	-71.4	0.045872	0.168116	-0.953552	-2.3715	1.497	-0.426	0	227	917	1
2026-02-12	15:53:58.590	37.485	18.095	-75.635	0.094428	0.13664	-1.01016	-2.2815	1.443	-0.444	0	227	917	1
2026-02-12	15:53:58.610	22.015	5.88	-73.745	0.114924	0.211792	-0.85034	-2.2095	1.398	-0.4725	0	220	934	1
2026-02-12	15:53:58.630	17.185	10.815	-72.765	0.070028	0.226188	-0.827404	-2.1435	1.3755	-0.477	0	220	934	1
2026-02-12	15:53:58.650	27.825	19.985	-70.455	0.06222	0.218624	-0.951844	-2.103	1.3425	-0.4695	0	220	934	1
2026-02-12	15:53:58.670	19.95	8.4	-67.795	0.106872	0.277916	-0.844484	-2.088	1.305	-0.4755	0	220	934	1
2026-02-12	15:53:58.690	15.645	3.78	-72.17	0.121756	0.334768	-0.7747	-2.0895	1.2915	-0.4785	0	220	934	1
2026-02-12	15:53:58.710	18.515	4.935	-78.26	0.197152	0.255468	-0.8235	-2.139	1.293	-0.498	0	220	934	1
2026-02-12	15:53:58.730	16.485	5.39	-72.52	0.236924	0.262788	-0.804468	-2.235	1.3005	-0.552	0	220	934	1
2026-02-12	15:53:58.750	19.67	13.125	-64.365	0.186416	0.345748	-0.765428	-2.331	1.311	-0.594	0	220	934	1
2026-02-12	15:53:58.770	24.01	25.13	-62.125	0.157624	0.336476	-0.874252	-2.4075	1.3125	-0.6165	0	220	934	1
2026-02-12	15:53:58.790	18.375	22.19	-55.72	0.16958	0.366244	-0.9638	-2.457	1.296	-0.648	0	220	934	1
2026-02-12	15:53:58.810	14	10.255	-46.76	0.162504	0.412848	-0.958676	-2.484	1.278	-0.6675	0	212	943	1
2026-02-12	15:53:58.830	11.585	3.465	-39.97	0.06222	0.460184	-1.011136	-2.502	1.2705	-0.663	0	212	943	1
2026-02-12	15:53:58.850	0.805	2.52	-36.12	0.070028	0.482388	-1.09312	-2.547	1.2645	-0.6405	0	212	943	1
2026-02-12	15:53:58.870	-8.12	-5.32	-30.555	0.062464	0.460428	-1.161928	-2.6205	1.272	-0.6405	0	212	943	1
2026-02-12	15:53:58.890	-13.44	-14.455	-23.275	0.063684	0.3843	-1.141188	-2.736	1.296	-0.6615	0	212	943	1
2026-02-12	15:53:58.910	-20.545	-18.55	-10.29	0.078324	0.387472	-1.091656	-2.898	1.3365	-0.666	0	212	943	1
2026-02-12	15:53:58.930	-26.04	-13.02	2.555	0.027328	0.484096	-1.091656	-3.024	1.3905	-0.6435	0	212	943	1
2026-02-12	15:53:58.950	-23.345	-4.585	3.71	-0.089792	0.51484	-1.166076	-3.0645	1.434	-0.609	0	212	943	1
2026-02-12	15:53:58.970	-17.36	-6.86	-0.805	-0.05368	0.443592	-1.291492	-3.0645	1.4505	-0.5925	0	212	943	1
2026-02-12	15:53:58.990	-13.125	-21.91	-3.045	-0.047824	0.374784	-1.235616	-3.0645	1.4505	-0.5925	0	212	943	1
2026-02-12	15:53:59.010	-9.485	-29.225	-0.385	-0.015616	0.290604	-1.0675	-3.0645	1.4505	-0.5925	0	206	958	1
2026-02-12	15:53:59.030	-3.71	-19.25	7.385	-0.0732	0.238388	-1.05286	-3.246	1.461	-0.63	0	206	958	1
2026-02-12	15:53:59.050	4.9	-3.43	21.63	-0.13176	0.24522	-1.215852	-3.246	1.461	-0.63	0	206	958	1
2026-02-12	15:53:59.070	0.385	-4.41	43.54	-0.157868	0.384544	-1.257576	-3.0225	1.41	-0.6	0	206	958	1
2026-02-12	15:53:59.090	-21.175	-22.61	49.63	-0.1952	0.504592	-1.118008	-2.775	1.3635	-0.5565	0	206	958	1
2026-02-12	15:53:59.110	-34.615	-36.61	37.8	-0.115412	0.33184	-0.945988	-2.652	1.371	-0.504	0	206	958	1
2026-02-12	15:53:59.130	-34.335	-34.685	38.08	-0.101504	0.222284	-0.853756	-2.6835	1.407	-0.5175	0	206	958	1
2026-02-12	15:53:59.150	-28.245	-21	50.47	-0.124684	0.254248	-0.773236	-2.7705	1.4175	-0.525	0	206	958	1
2026-02-12	15:53:59.170	-10.885	2.38	60.305	-0.16836	0.35258	-0.90036	-2.763	1.398	-0.5475	0	206	958	1
2026-02-12	15:53:59.190	5.075	9.31	56.7	-0.197396	0.377956	-1.09068	-2.622	1.3425	-0.585	0	206	958	1
2026-02-12	15:53:59.210	-2.66	-20.055	45.185	-0.158356	0.290848	-0.9394	-2.622	1.3425	-0.585	0	202	983	1
2026-02-12	15:53:59.230	-5.635	-33.705	43.925	-0.083692	0.245464	-0.786656	-2.5125	1.2615	-0.657	0	202	983	1
2026-02-12	15:53:59.250	-5.215	-32.76	48.79	-0.0488	0.198616	-0.595604	-2.64	1.3095	-0.657	0	202	983	1
2026-02-12	15:53:59.270	-0.735	-6.86	60.97	-0.071492	0.250588	-0.664412	-2.793	1.365	-0.6105	0	202	983	1
2026-02-12	15:53:59.290	4.06	9.24	67.235	-0.031232	0.302072	-0.77226	-2.7675	1.3725	-0.5715	0	202	983	1
2026-02-12	15:53:59.310	2.415	6.965	63.28	-0.004148	0.315492	-0.777872	-2.658	1.344	-0.591	0	202	983	1
2026-02-12	15:53:59.330	-2.66	0.525	54.81	-0.020984	0.280844	-0.746152	-2.5635	1.3125	-0.5715	0	202	983	1
2026-02-12	15:53:59.350	-0.7	-1.505	51.065	-0.022448	0.276452	-0.795928	-2.514	1.2885	-0.5535	0	202	983	1
2026-02-12	15:53:59.370	-1.12	-9.03	48.405	0.004636	0.32818	-0.823256	-2.493	1.2765	-0.546	0	202	983	1
2026-02-12	15:53:59.390	-4.375	-17.745	40.775	0.080276	0.320616	-0.792024	-2.5365	1.2855	-0.543	0	202	983	1
2026-02-12	15:53:59.410	-1.47	-10.43	32.515	0.076616	0.295484	-0.903776	-2.637	1.332	-0.5325	0	201	984	1
2026-02-12	15:53:59.430	5.075	-1.75	28.385	0.077592	0.273768	-1.067988	-2.7495	1.365	-0.528	0	201	984	1
2026-02-12	15:53:59.450	7.315	-7.91	25.76	0.090036	0.326716	-1.144116	-2.8245	1.3935	-0.5385	0	201	984	1
2026-02-12	15:53:59.470	2.73	-18.655	17.64	0.12566	0.33306	-1.027972	-2.9385	1.4565	-0.528	0	201	984	1
2026-02-12	15:53:59.490	5.425	-7.525	7.49	0.101504	0.29158	-1.012356	-3.0675	1.5555	-0.489	0	201	984	1
2026-02-12	15:53:59.510	10.885	15.47	2.1	0.041236	0.291336	-1.197064	-3.1695	1.6125	-0.453	0	201	984	1
2026-02-12	15:53:59.530	22.575	24.43	-5.18	-0.03416	0.360388	-1.467172	-3.1695	1.6125	-0.453	0	201	984	1
2026-02-12	15:53:59.550	24.85	5.145	-25.375	-0.027328	0.233996	-1.448384	-3.1695	1.6125	-0.453	0	201	984	1
2026-02-12	15:53:59.570	7.945	-15.365	-40.25	0.085888	0.155428	-1.255136	-3.162	1.6665	-0.48	0	201	984	1
2026-02-12	15:53:59.590	10.535	-17.885	-46.655	0.133224	0.134688	-0.983076	-3.2445	1.7955	-0.4545	0	201	984	1
2026-02-12	15:53:59.610	27.16	16.31	-51.24	0.03538	0.129808	-1.119472	-3.336	1.8945	-0.3615	0	201	985	1
2026-02-12	15:53:59.630	43.505	37.555	-51.135	0.034404	0.12322	-1.188524	-3.264	1.9155	-0.3195	0	201	985	1
2026-02-12	15:53:59.650	31.01	38.955	-47.355	0.006832	0.159576	-1.172664	-3.0975	1.896	-0.3015	0	201	985	1
2026-02-12	15:53:59.670	21.84	34.055	-46.2	0.066124	0.111508	-0.985272	-2.9145	1.8525	-0.252	0	201	985	1
2026-02-12	15:53:59.690	16.345	44.31	-44.17	0.083204	0.074664	-0.970876	-2.73	1.7895	-0.1935	0	201	985	1
2026-02-12	15:53:59.710	19.46	50.085	-41.23	0.070516	0.136152	-0.98332	-2.5275	1.719	-0.162	0	201	985	1
2026-02-12	15:53:59.730	26.81	47.635	-46.55	0.04148	0.17446	-1.093364	-2.325	1.638	-0.159	0	201	985	1
2026-02-12	15:53:59.750	26.46	30.38	-57.75	0.083448	0.160308	-1.063352	-2.178	1.569	-0.174	0	201	985	1
2026-02-12	15:53:59.770	12.39	13.405	-66.395	0.1464	0.078324	-0.879132	-2.142	1.5405	-0.1725	0	201	985	1
2026-02-12	15:53:59.790	8.855	11.795	-65.765	0.15128	0.0427	-0.71248	-2.1825	1.551	-0.144	0	201	985	1
2026-02-12	15:53:59.810	13.58	22.855	-60.305	0.097844	0.10492	-0.615612	-2.2095	1.5615	-0.1065	0	203	1000	1
2026-02-12	15:53:59.830	20.335	35.98	-58.415	0.07808	0.117364	-0.691252	-2.1795	1.5345	-0.0855	0	203	1000	1
2026-02-12	15:53:59.850	21.91	31.92	-58.135	0.096868	0.135176	-0.736148	-2.115	1.491	-0.099	0	203	1000	1
2026-02-12	15:53:59.870	14.525	18.865	-61.46	0.119804	0.158844	-0.623176	-2.076	1.4685	-0.1065	0	203	1000	1
2026-02-12	15:53:59.890	9.1	19.95	-64.75	0.102724	0.104432	-0.54656	-2.07	1.4565	-0.0945	0	203	1000	1
2026-02-12	15:53:59.910	12.74	32.655	-57.435	0.07198	0.180316	-0.571936	-2.061	1.437	-0.0855	0	203	1000	1
2026-02-12	15:53:59.930	25.305	43.015	-53.48	0.051728	0.275964	-0.73566	-2.0085	1.401	-0.0885	0	203	1000	1
2026-02-12	15:53:59.950	27.65	30.765	-60.06	0.091012	0.285968	-0.81008	-1.9335	1.3635	-0.1185	0	203	1000	1
2026-02-12	15:53:59.970	19.88	11.025	-67.9	0.142496	0.323056	-0.794464	-1.9185	1.3515	-0.144	0	203	1000	1
2026-02-12	15:53:59.990	17.395	0.84	-70.49	0.125416	0.370636	-0.714432	-1.965	1.3605	-0.156	0	203	1000	1
2026-02-12	15:54:00.010	25.305	11.585	-64.89	0.125416	0.27328	-0.834236	-2.04	1.359	-0.1665	0	207	987	1
2026-02-12	15:54:00.030	34.65	22.435	-46.69	0.114192	0.383812	-1.097756	-2.085	1.338	-0.192	0	207	987	1
2026-02-12	15:54:00.050	24.64	5.95	-36.12	0.096868	0.549732	-1.228296	-2.0865	1.3245	-0.216	0	207	987	1
2026-02-12	15:54:00.070	4.795	-26.845	-41.965	0.08295999	0.60878	-1.244156	-2.0865	1.3245	-0.216	0	207	987	1
2026-02-12	15:54:00.090	-2.38	-54.04	-51.94	0.112972	0.494832	-1.268556	-2.0865	1.3515	-0.231	0	207	987	1
2026-02-12	15:54:00.110	-6.09	-63.63	-52.255	0.1586	0.38918	-1.22122	-2.0865	1.3515	-0.231	0	207	987	1
2026-02-12	15:54:00.130	-20.895	-66.535	-34.44	0.190076	0.306708	-1.009428	-2.5935	1.575	-0.1935	0	207	987	1
2026-02-12	15:54:00.150	-25.305	-39.655	-2.45	0.12078	0.343796	-0.920856	-2.9355	1.7175	-0.1065	0	207	987	1
2026-02-12	15:54:00.170	-16.66	-4.2	26.39	0.035136	0.494344	-1.086288	-2.9865	1.7565	-0.0405	0	207	987	1
2026-02-12	15:54:00.190	-9.065	3.605	33.565	-0.061	0.590724	-1.3298	-2.751	1.692	-0.0735	0	207	987	1
2026-02-12	15:54:00.210	-6.44	-21.35	18.76	-0.125172	0.496784	-1.486448	-2.472	1.5795	-0.1635	0	212	978	1
2026-02-12	15:54:00.230	-20.09	-57.155	11.235	-0.149572	0.40748	-1.464732	-2.3535	1.5015	-0.261	0	212	978	1
2026-02-12	15:54:00.250	-42.245	-86.345	19.11	0.02196	0.153232	-1.121668	-2.4375	1.53	-0.3045	0	212	978	1
2026-02-12	15:54:00.270	-67.515	-84	47.075	0.111508	0.214232	-0.71126	-2.7105	1.6875	-0.3	0	212	978	1
2026-02-12	15:54:00.290	-65.205	-45.01	66.85	-0.067588	0.433588	-0.648064	-2.97	1.8915	-0.156	0	212	978	1
2026-02-12	15:54:00.310	-47.215	-16.275	67.69	-0.2074	0.475068	-0.796416	-2.937	1.9485	-0.0495	0	212	978	1
2026-02-12	15:54:00.330	-43.96	-20.685	67.935	-0.211792	0.471896	-0.85644	-2.778	1.8645	-0.069	0	212	978	1
2026-02-12	15:54:00.350	-30.31	-27.195	67.375	-0.269132	0.511912	-0.998692	-2.6445	1.7805	-0.18	0	212	978	1
2026-02-12	15:54:00.370	1.47	-29.61	60.025	-0.1464	0.337452	-1.085068	-2.5485	1.7325	-0.303	0	212	978	1
2026-02-12	15:54:00.390	-8.12	-44.73	65.345	-0.086376	0.287188	-0.778604	-2.5605	1.7085	-0.4365	0	212	978	1
2026-02-12	15:54:00.410	-14.98	-45.08	75.915	-0.011468	0.309148	-0.555344	-2.688	1.764	-0.4395	0	220	984	1
2026-02-12	15:54:00.430	-3.955	-32.235	81.13	-0.01098	0.33306	-0.481656	-2.7765	1.815	-0.3795	0	220	984	1
2026-02-12	15:54:00.450	22.155	-2.625	81.76	-0.177388	0.455792	-0.846192	-2.688	1.788	-0.339	0	220	984	1
2026-02-12	15:54:00.470	4.095	-5.705	76.755	-0.116632	0.415044	-0.886452	-2.4465	1.65	-0.3705	0	220	984	1
2026-02-12	15:54:00.490	-26.39	-15.715	75.635	0.094184	0.373076	-0.819108	-2.274	1.5345	-0.4245	0	220	984	1
2026-02-12	15:54:00.510	-34.09	-16.135	69.72	0.07198	0.289872	-0.632448	-2.226	1.5405	-0.456	0	220	984	1
2026-02-12	15:54:00.530	-23.38	1.33	68.985	-0.049776	0.379176	-0.690276	-2.2245	1.5315	-0.4365	0	220	984	1
2026-02-12	15:54:00.550	-14.42	11.83	65.625	-0.030744	0.453108	-0.938668	-2.145	1.4865	-0.402	0	220	984	1
2026-02-12	15:54:00.570	-26.11	0.77	54.215	0.075884	0.47946	-0.967704	-2.0325	1.389	-0.426	0	220	984	1
2026-02-12	15:54:00.590	-31.92	-8.19	41.37	0.096868	0.41236	-0.863028	-2.0235	1.386	-0.4515	0	220	984	1
2026-02-12	15:54:00.610	-14.245	3.185	34.825	0.079544	0.393084	-0.985516	-2.094	1.4055	-0.45	0	229	974	1
2026-02-12	15:54:00.630	-6.51	9.73	30.555	0.088572	0.3355	-0.985272	-2.193	1.4295	-0.4605	0	229	974	1
2026-02-12	15:54:00.650	-1.855	15.4	31.395	0.060268	0.399428	-1.079212	-2.295	1.4355	-0.462	0	229	974	1
2026-02-12	15:54:00.670	19.81	18.27	22.295	-0.046604	0.46238	-1.291492	-2.3625	1.4505	-0.477	0	229	974	1
2026-02-12	15:54:00.690	11.935	1.54	9.555	0.025376	0.358192	-1.26392	-2.352	1.437	-0.504	0	229	974	1
2026-02-12	15:54:00.710	-3.675	-5.88	9.835	0.048312	0.340624	-1.10776	-2.427	1.458	-0.5235	0	229	974	1
2026-02-12	15:54:00.730	-3.465	4.025	11.235	0.068564	0.315492	-1.070672	-2.5185	1.5135	-0.5145	0	229	974	1
2026-02-12	15:54:00.750	8.12	19.53	10.745	0.061244	0.377468	-1.176812	-2.5185	1.5135	-0.5145	0	229	974	1
2026-02-12	15:54:00.770	20.23	18.2	1.26	0.02562	0.390644	-1.240252	-2.5185	1.5135	-0.5145	0	229	974	1
2026-02-12	15:54:00.790	18.06	8.89	-10.885	0.030988	0.367464	-1.178276	-2.5185	1.5135	-0.5145	0	229	974	1
2026-02-12	15:54:00.810	15.89	4.62	-20.37	0.019032	0.342088	-1.121912	-2.3715	1.4595	-0.5055	0	236	973	1
2026-02-12	15:54:00.830	18.2	3.115	-25.515	0.019276	0.278648	-1.008208	-2.235	1.4175	-0.4905	0	236	973	1
2026-02-12	15:54:00.850	18.445	6.965	-23.485	-0.017324	0.272548	-0.960628	-2.253	1.434	-0.4755	0	236	973	1
2026-02-12	15:54:00.870	20.16	10.885	-22.295	-0.011468	0.2745	-0.938424	-2.256	1.44	-0.4635	0	236	973	1
2026-02-12	15:54:00.890	14.385	9.835	-26.04	0.040992	0.234728	-0.911828	-2.238	1.446	-0.4575	0	236	973	1
2026-02-12	15:54:00.910	16.345	8.295	-30.17	0.038064	0.213256	-0.893284	-2.22	1.4475	-0.453	0	236	973	1
2026-02-12	15:54:00.930	24.64	9.205	-30.765	0	0.191052	-0.898408	-2.2005	1.4325	-0.4515	0	236	973	1
2026-02-12	15:54:00.950	15.82	3.22	-25.865	0.045384	0.187392	-0.75518	-2.1885	1.4235	-0.429	0	236	973	1
2026-02-12	15:54:00.970	4.585	6.16	-21.525	0.117852	0.155184	-0.61	-2.205	1.428	-0.384	0	236	973	1
2026-02-12	15:54:00.990	5.74	19.775	-17.92	0.112484	0.198128	-0.546316	-2.1885	1.4265	-0.3375	0	236	973	1
2026-02-12	15:54:01.010	15.225	36.225	-17.255	0.068564	0.235948	-0.588772	-2.1105	1.3935	-0.3045	0	239	979	1
2026-02-12	15:54:01.030	19.39	48.125	-19.845	0.08295999	0.285968	-0.62708	-1.9935	1.3185	-0.3045	0	239	979	1
2026-02-12	15:54:01.050	6.265	55.93	-26.425	0.10858	0.178852	-0.730048	-1.8645	1.2225	-0.345	0	239	979	1
2026-02-12	15:54:01.070	-5.425	48.895	-21	0.127856	0.19276	-0.819108	-1.755	1.134	-0.399	0	239	979	1
2026-02-12	15:54:01.090	-4.97	32.515	-21.665	0.09028	0.373564	-0.803248	-1.6785	1.0875	-0.4335	0	239	979	1
2026-02-12	15:54:01.110	-7.945	15.4	-42.385	0.122	0.364048	-0.694668	-1.6575	1.083	-0.4575	0	239	979	1
2026-02-12	15:54:01.130	-5.74	11.2	-56.21	0.188612	0.264496	-0.737612	-1.6665	1.089	-0.474	0	239	979	1
2026-02-12	15:54:01.150	1.54	9.625	-51.17	0.233996	0.231556	-0.756644	-1.7595	1.107	-0.5415	0	239	979	1
2026-02-12	15:54:01.170	5.6	11.41	-45.5	0.217404	0.243268	-0.79788	-1.7595	1.107	-0.5415	0	239	979	1
2026-02-12	15:54:01.190	13.965	10.64	-36.155	0.173728	0.332816	-0.799344	-1.896	1.1265	-0.639	0	239	979	1
2026-02-12	15:54:01.210	6.895	10.92	-33.985	0.104676	0.425292	-0.823744	-1.9035	1.122	-0.6165	0	240	957	1
2026-02-12	15:54:01.230	6.965	11.795	-34.65	0.142252	0.532164	-0.926224	-1.8765	1.107	-0.588	0	240	957	1
2026-02-12	15:54:01.250	11.13	6.37	-40.215	0.213744	0.518988	-0.983808	-1.8225	1.0905	-0.5985	0	240	957	1
2026-02-12	15:54:01.270	8.05	-1.295	-47.215	0.211548	0.46238	-0.959408	-1.809	1.08	-0.6315	0	240	957	1
2026-02-12	15:54:01.290	7.665	2.24	-47.425	0.110288	0.523136	-1.034072	-1.842	1.062	-0.666	0	240	957	1
2026-02-12	15:54:01.310	12.495	6.16	-46.795	0.103456	0.496296	-1.250988	-1.842	1.026	-0.7215	0	240	957	1
2026-02-12	15:54:01.330	-0.035	-10.815	-38.78	0.195444	0.476776	-1.23952	-1.866	0.999	-0.7605	0	240	957	1
2026-02-12	15:54:01.350	-24.255	-28.77	-23.38	0.15128	0.556564	-0.942816	-1.893	1.005	-0.807	0	240	957	1
2026-02-12	15:54:01.370	-29.05	-9.555	-10.045	0.120292	0.51972	-1.018456	-1.8975	1.029	-0.7515	0	240	957	1
2026-02-12	15:54:01.390	-33.005	5.67	7.525	0.111996	0.574864	-1.1529	-1.7955	1.0035	-0.702	0	240	957	1
2026-02-12	15:54:01.410	-34.3	2.8	17.745	0.06588	0.71736	-1.164368	-1.647	0.9345	-0.636	0	239	942	1
2026-02-12	15:54:01.430	-30.73	-8.05	8.855	0.017568	0.751032	-1.141676	-1.491	0.879	-0.591	0	239	942	1
2026-02-12	15:54:01.450	-25.76	-19.985	-4.83	0.0244	0.615856	-1.164612	-1.4115	0.855	-0.576	0	239	942	1
2026-02-12	15:54:01.470	-25.97	-30.345	-6.125	0.0244	0.550464	-1.045784	-1.4055	0.8415	-0.6165	0	239	942	1
2026-02-12	15:54:01.490	-24.185	-26.705	2.17	-0.005368	0.4758	-0.892552	-1.4715	0.8655	-0.663	0	239	942	1
2026-02-12	15:54:01.510	-10.815	-10.36	19.635	-0.069052	0.521916	-0.890356	-1.5135	0.8895	-0.69	0	239	942	1
2026-02-12	15:54:01.530	-1.47	-5.11	29.435	-0.111752	0.584624	-0.963312	-1.4955	0.873	-0.669	0	239	942	1
2026-02-12	15:54:01.550	0.245	-13.72	27.23	-0.134932	0.582672	-1.009916	-1.44	0.8355	-0.6495	0	239	942	1
2026-02-12	15:54:01.570	-4.865	-26.39	22.855	-0.097844	0.50996	-0.919392	-1.3785	0.813	-0.651	0	239	942	1
2026-02-12	15:54:01.590	-6.37	-29.68	26.53	-0.023668	0.430172	-0.782752	-1.383	0.8055	-0.6795	0	239	942	1
2026-02-12	15:54:01.610	-3.465	-23.765	35.77	-0.00244	0.410652	-0.651236	-1.4115	0.8265	-0.7125	0	238	948	1
2026-02-12	15:54:01.630	7.525	-9.905	43.925	-0.070028	0.437248	-0.691008	-1.443	0.834	-0.699	0	238	948	1
2026-02-12	15:54:01.650	10.85	-5.95	47.005	-0.084668	0.4819	-0.746884	-1.4115	0.8055	-0.6795	0	238	948	1
2026-02-12	15:54:01.670	5.915	-12.005	44.17	-0.061488	0.46848	-0.726388	-1.3665	0.7725	-0.66	0	238	948	1
2026-02-12	15:54:01.690	-1.96	-20.65	41.055	0.0122	0.350628	-0.632204	-1.3335	0.744	-0.651	0	238	948	1
2026-02-12	15:54:01.710	-1.855	-18.025	46.725	0.035624	0.348432	-0.558272	-1.35	0.7395	-0.657	0	238	948	1
2026-02-12	15:54:01.730	12.74	-2.73	49.98	-0.043188	0.465308	-0.688324	-1.389	0.7485	-0.6495	0	238	948	1
2026-02-12	15:54:01.750	13.16	-2.73	42.175	-0.040992	0.443592	-0.783972	-1.371	0.7425	-0.624	0	238	948	1
2026-02-12	15:54:01.770	-1.82	-17.5	38.36	0.029036	0.385276	-0.71736	-1.3605	0.7245	-0.618	0	238	948	1
2026-02-12	15:54:01.790	-10.675	-22.05	38.08	0.07686	0.32574	-0.630496	-1.3905	0.7335	-0.6405	0	238	948	1
2026-02-12	15:54:01.810	1.96	-8.4	40.74	0.084668	0.34282	-0.670756	-1.4655	0.768	-0.657	0	237	937	1
2026-02-12	15:54:01.830	14.105	3.465	43.82	0.041236	0.52216	-0.813496	-1.512	0.804	-0.6435	0	237	937	1
2026-02-12	15:54:01.850	12.355	1.19	37.135	-0.047824	0.49654	-0.869128	-1.437	0.7935	-0.621	0	237	937	1
2026-02-12	15:54:01.870	16.03	-1.925	35.56	0.07808	0.42456	-1.013576	-1.3905	0.756	-0.585	0	237	937	1
2026-02-12	15:54:01.890	13.545	-7.77	36.365	0.138592	0.43798	-1.069208	-1.3515	0.7215	-0.597	0	237	937	1
2026-02-12	15:54:01.910	0.945	-11.795	32.06	0.134444	0.497272	-1.02602	-1.3275	0.7095	-0.603	0	237	937	1
2026-02-12	15:54:01.930	-0.875	-10.29	24.395	0.114192	0.473848	-1.060668	-1.323	0.72	-0.5865	0	237	937	1
2026-02-12	15:54:01.950	-2.17	-9.94	18.725	0.111752	0.480192	-1.097512	-1.311	0.726	-0.5775	0	237	937	1
2026-02-12	15:54:01.970	5.46	-10.85	9.66	0.129076	0.45994	-1.143384	-1.305	0.7215	-0.57	0	237	937	1
2026-02-12	15:54:01.990	5.04	-14.63	-1.89	0.183244	0.42944	-1.076528	-1.3035	0.7335	-0.579	0	237	937	1
2026-02-12	15:54:02.010	7.42	-10.15	-10.605	0.183732	0.392596	-1.043344	-1.3035	0.7335	-0.579	0	235	924	1
2026-02-12	15:54:02.030	17.955	2.31	-14.665	0.110532	0.376736	-1.154364	-1.3035	0.7335	-0.579	0	235	924	1
2026-02-12	15:54:02.050	29.715	6.09	-18.55	0.054656	0.453596	-1.303204	-1.314	0.7395	-0.597	0	235	924	1
2026-02-12	15:54:02.070	25.445	-8.12	-30.38	0.091012	0.287676	-1.232688	-1.335	0.756	-0.63	0	235	924	1
2026-02-12	15:54:02.090	-0.035	-21.175	-26.46	0.106384	0.284748	-0.904996	-1.395	0.786	-0.645	0	235	924	1
2026-02-12	15:54:02.110	-1.155	-1.12	-16.205	0.06222	0.270108	-0.821548	-1.4535	0.8355	-0.6465	0	235	924	1
2026-02-12	15:54:02.130	11.095	24.325	-10.115	0.010004	0.34648	-1.031876	-1.437	0.8505	-0.633	0	235	924	1
2026-02-12	15:54:02.150	7.28	20.825	-14.7	0.014884	0.339404	-1.108004	-1.3695	0.8175	-0.6165	0	235	924	1
2026-02-12	15:54:02.170	-7.525	5.39	-22.225	0.059048	0.278892	-0.918172	-1.3185	0.7935	-0.609	0	235	924	1
2026-02-12	15:54:02.190	-10.43	7.035	-22.61	0.09076799	0.243512	-0.81008	-1.308	0.789	-0.6045	0	235	924	1
2026-02-12	15:54:02.210	-4.55	14.91	-19.355	0.087596	0.276696	-0.76006	-1.308	0.789	-0.6045	0	234	934	1
2026-02-12	15:54:02.230	3.43	23.03	-20.825	0.0488	0.31232	-0.808128	-1.311	0.801	-0.5895	0	234	934	1
2026-02-12	15:54:02.250	7.63	24.08	-26.075	0.0366	0.321592	-0.866932	-1.311	0.801	-0.5895	0	234	934	1
2026-02-12	15:54:02.270	8.295	14.28	-34.37	0.07515199	0.268888	-0.877912	-1.2795	0.7515	-0.5865	0	234	934	1
2026-02-12	15:54:02.290	2.45	1.155	-37.38	0.133956	0.193492	-0.710528	-1.3125	0.75	-0.621	0	234	934	1
2026-02-12	15:54:02.310	11.62	9.73	-34.72	0.105652	0.202764	-0.695156	-1.3965	0.768	-0.651	0	234	934	1
2026-02-12	15:54:02.330	21.665	21.07	-33.915	0.096136	0.23668	-0.717116	-1.4535	0.783	-0.6585	0	234	934	1
2026-02-12	15:54:02.350	21.735	22.785	-32.06	0.138592	0.273768	-0.721264	-1.4565	0.78	-0.6705	0	234	934	1
2026-02-12	15:54:02.370	23.205	18.48	-31.955	0.151036	0.2867	-0.651236	-1.4565	0.774	-0.669	0	234	934	1
2026-02-12	15:54:02.390	22.61	22.925	-32.725	0.0976	0.236436	-0.661728	-1.4535	0.762	-0.663	0	234	934	1
2026-02-12	15:54:02.410	17.01	27.86	-27.16	0.068808	0.355508	-0.831552	-1.434	0.7275	-0.6465	0	231	934	1
2026-02-12	15:54:02.430	5.53	13.65	-30.205	0.105408	0.405528	-0.7991	-1.3995	0.7005	-0.6525	0	231	934	1
2026-02-12	15:54:02.450	-6.44	0.525	-38.5	0.191296	0.357216	-0.719312	-1.422	0.6915	-0.651	0	231	934	1
2026-02-12	15:54:02.470	1.295	1.89	-39.655	0.28792	0.270108	-0.646112	-1.4925	0.7125	-0.675	0	231	934	1
2026-02-12	15:54:02.490	11.865	22.82	-30.275	0.21716	0.374784	-0.799832	-1.5285	0.7155	-0.693	0	231	934	1
2026-02-12	15:54:02.510	14.175	31.465	-23.205	0.146888	0.461648	-0.877424	-1.4985	0.669	-0.651	0	231	934	1
2026-02-12	15:54:02.530	14.245	27.825	-20.195	0.156892	0.566324	-1.021384	-1.4085	0.621	-0.621	0	231	934	1
2026-02-12	15:54:02.550	10.465	12.915	-27.65	0.177144	0.579744	-1.208288	-1.314	0.594	-0.609	0	231	934	1
2026-02-12	15:54:02.570	8.75	-11.515	-35.595	0.078812	0.6588	-1.286856	-1.278	0.576	-0.606	0	231	934	1
2026-02-12	15:54:02.590	6.86	-38.71	-43.225	0.114192	0.510448	-1.148508	-1.338	0.603	-0.6405	0	231	934	1
2026-02-12	15:54:02.610	1.33	-46.34	-32.655	0.243756	0.427	-0.99064	-1.512	0.663	-0.7095	0	228	923	1
2026-02-12	15:54:02.630	-6.09	-29.89	-9.52	0.227164	0.465796	-0.947208	-1.6875	0.7485	-0.7665	0	228	923	1
2026-02-12	15:54:02.650	-4.41	-3.71	13.58	0.004392	0.609024	-1.088728	-1.7445	0.8025	-0.7395	0	228	923	1
2026-02-12	15:54:02.670	0.07	5.53	24.78	-0.035868	0.626836	-1.332728	-1.599	0.801	-0.6855	0	228	923	1
2026-02-12	15:54:02.690	-20.93	-16.205	21.595	0.01342	0.629276	-1.318332	-1.4775	0.7755	-0.636	0	228	923	1
2026-02-12	15:54:02.710	-42.77	-39.83	8.96	0.007808	0.565836	-1.095316	-1.431	0.765	-0.6135	0	228	923	1
2026-02-12	15:54:02.730	-31.745	-42.245	0.035	-0.05734	0.448472	-1.037732	-1.4925	0.8085	-0.6135	0	228	923	1
2026-02-12	15:54:02.750	-21.875	-36.085	6.685	-0.081984	0.386984	-0.957944	-1.584	0.8205	-0.636	0	228	923	1
2026-02-12	15:54:02.770	-22.855	-28.42	23.1	-0.0854	0.396744	-0.756156	-1.677	0.8625	-0.657	0	228	923	1
2026-02-12	15:54:02.790	-16.73	-8.155	37.8	-0.07442	0.437004	-0.7442	-1.7295	0.8895	-0.654	0	228	923	1
2026-02-12	15:54:02.810	3.045	9.24	42.84	-0.173972	0.47458	-0.920856	-1.7145	0.8955	-0.636	0	228	932	1
2026-02-12	15:54:02.830	0.735	1.33	41.23	-0.143228	0.474336	-0.897188	-1.635	0.852	-0.63	0	228	932	1
2026-02-12	15:54:02.850	-3.71	-10.255	40.075	-0.07198	0.471896	-0.749568	-1.6005	0.828	-0.6285	0	228	932	1
2026-02-12	15:54:02.870	-1.47	-6.3	38.605	-0.058804	0.381372	-0.681492	-1.6005	0.834	-0.6465	0	228	932	1
2026-02-12	15:54:02.890	10.01	5.705	43.75	-0.061976	0.417972	-0.74664	-1.617	0.831	-0.6795	0	228	932	1
2026-02-12	15:54:02.910	13.72	5.425	44.59	-0.052216	0.482632	-0.785924	-1.6185	0.8085	-0.6885	0	228	932	1
2026-02-12	15:54:02.930	9.73	-3.29	36.89	-0.061	0.459696	-0.760304	-1.608	0.792	-0.696	0	228	932	1
2026-02-12	15:54:02.950	1.995	-10.885	34.055	-0.032208	0.398452	-0.715896	-1.6005	0.7815	-0.7275	0	228	932	1
2026-02-12	15:54:02.970	4.55	-12.53	39.34	0.002196	0.396012	-0.67466	-1.659	0.777	-0.741	0	228	932	1
2026-02-12	15:54:02.990	5.53	-9.975	43.12	-0.005612	0.443836	-0.68564	-1.6845	0.7785	-0.744	0	228	932	1
2026-02-12	15:54:03.010	8.435	-8.96	40.775	-0.024888	0.448228	-0.737612	-1.674	0.7845	-0.7395	0	227	933	1
2026-02-12	15:54:03.030	8.645	-13.23	36.575	-0.032452	0.418704	-0.792268	-1.6575	0.7695	-0.7275	0	227	933	1
2026-02-12	15:54:03.050	5.775	-20.3	35.665	-0.017812	0.436028	-0.847412	-1.647	0.753	-0.732	0	227	933	1
2026-02-12	15:54:03.070	-4.97	-31.92	33.495	0.066124	0.406748	-0.785436	-1.6575	0.7605	-0.7335	0	227	933	1
2026-02-12	15:54:03.090	-7.84	-33.495	31.325	0.116388	0.376004	-0.726632	-1.7055	0.783	-0.753	0	227	933	1
2026-02-12	15:54:03.110	-1.505	-22.365	30.59	0.091256	0.439444	-0.766648	-1.782	0.828	-0.765	0	227	933	1
2026-02-12	15:54:03.130	4.375	-10.675	27.23	0.06734399	0.47336	-0.92842	-1.8015	0.8685	-0.768	0	227	933	1
2026-02-12	15:54:03.150	4.97	-10.815	21.735	0.075884	0.453108	-1.026996	-1.8045	0.8475	-0.7515	0	227	933	1
2026-02-12	15:54:03.170	7.49	-12.53	18.515	0.074176	0.465552	-1.097512	-1.788	0.8445	-0.7635	0	227	933	1
2026-02-12	15:54:03.190	7.35	-13.965	14.875	0.093452	0.408456	-1.109956	-1.8135	0.843	-0.786	0	227	933	1
2026-02-12	15:54:03.210	-1.82	-16.17	12.845	0.0671	0.474824	-1.089704	-1.8435	0.87	-0.8145	0	226	920	1
2026-02-12	15:54:03.230	4.34	-12.46	5.145	0.050508	0.436516	-1.13338	-1.881	0.927	-0.84	0	226	920	1
2026-02-12	15:54:03.250	9.415	-4.445	1.4	0.06954	0.373808	-1.226832	-1.941	0.9615	-0.855	0	226	920	1
2026-02-12	15:54:03.270	1.995	-1.085	1.855	0.063928	0.404552	-1.209996	-1.941	0.9615	-0.855	0	226	920	1
2026-02-12	15:54:03.290	-2.345	-1.89	-3.325	0.116144	0.375516	-1.096536	-1.941	0.9615	-0.855	0	226	920	1
2026-02-12	15:54:03.310	2.31	0.77	-7.28	0.125416	0.332328	-1.061888	-1.941	0.9615	-0.855	0	226	920	1
2026-02-12	15:54:03.330	13.615	12.18	-12.04	0.082716	0.304756	-1.091168	-1.941	0.9615	-0.855	0	226	920	1
2026-02-12	15:54:03.350	31.465	22.505	-14.175	-0.025132	0.303292	-1.240008	-2.157	1.0335	-0.8655	0	226	920	1
2026-02-12	15:54:03.370	35.315	17.185	-15.47	-0.040504	0.33062	-1.296372	-2.1075	0.9915	-0.8565	0	226	920	1
2026-02-12	15:54:03.390	16.38	-4.06	-17.185	0.062708	0.253272	-1.068476	-2.1165	0.993	-0.861	0	226	920	1
2026-02-12	15:54:03.410	9.345	-5.145	-9.17	0.09857599	0.169092	-0.880352	-2.196	1.032	-0.8385	0	223	933	1
2026-02-12	15:54:03.430	13.44	17.15	6.09	0.043676	0.246684	-0.899628	-2.256	1.047	-0.789	0	223	933	1
2026-02-12	15:54:03.450	21.49	31.99	11.585	0.047336	0.3111	-1.062864	-2.1705	1.0155	-0.756	0	223	933	1
2026-02-12	15:54:03.470	22.925	20.79	2.835	0.098332	0.310368	-1.092388	-2.049	0.9765	-0.765	0	223	933	1
2026-02-12	15:54:03.490	8.05	3.99	-9.38	0.090036	0.254004	-0.951356	-2.0205	0.9585	-0.7605	0	223	933	1
2026-02-12	15:54:03.510	-3.325	1.995	-9.835	0.096868	0.23302	-0.760792	-2.049	0.966	-0.7515	0	223	933	1
2026-02-12	15:54:03.530	3.255	12.705	-6.09	0.093452	0.251808	-0.740052	-2.106	0.9735	-0.729	0	223	933	1
2026-02-12	15:54:03.550	9.905	18.34	-13.16	0.101748	0.325008	-0.820328	-2.109	0.9945	-0.714	0	223	933	1
2026-02-12	15:54:03.570	18.585	9.87	-29.785	0.120048	0.229604	-0.819108	-2.121	0.9885	-0.7065	0	223	933	1
2026-02-12	15:54:03.590	4.76	0.875	-36.645	0.181048	0.169092	-0.676124	-2.166	0.996	-0.7455	0	223	933	1
2026-02-12	15:54:03.610	0.84	7.91	-31.535	0.177144	0.201788	-0.591212	-2.2875	1.014	-0.732	0	221	952	1
2026-02-12	15:54:03.630	11.06	25.48	-26.495	0.122732	0.254248	-0.628788	-2.361	1.035	-0.7095	0	221	952	1
2026-02-12	15:54:03.650	15.96	35.91	-27.65	0.101992	0.276208	-0.751764	-2.3235	1.008	-0.6885	0	221	952	1
2026-02-12	15:54:03.670	4.62	25.48	-30.835	0.141032	0.240096	-0.74054	-2.259	0.9705	-0.6885	0	221	952	1
2026-02-12	15:54:03.690	-2.24	16.345	-27.755	0.182512	0.296216	-0.667828	-2.2485	0.951	-0.669	0	221	952	1
2026-02-12	15:54:03.710	3.71	22.26	-25.55	0.209596	0.299632	-0.677344	-2.235	0.954	-0.66	0	221	952	1
2026-02-12	15:54:03.730	17.99	36.68	-24.465	0.1952	0.396744	-0.836188	-2.172	0.9285	-0.6585	0	221	952	1
2026-02-12	15:54:03.750	15.05	34.825	-32.76	0.139324	0.431148	-0.980148	-2.0745	0.897	-0.663	0	221	952	1
2026-02-12	15:54:03.770	11.725	17.675	-39.235	0.122976	0.435052	-1.127524	-2.01	0.8505	-0.678	0	221	952	1
2026-02-12	15:54:03.790	13.02	-5.25	-40.74	0.191296	0.373808	-1.171444	-2.034	0.8475	-0.7125	0	221	952	1
2026-02-12	15:54:03.810	-1.12	-22.715	-33.53	0.20618	0.343064	-0.984784	-2.1645	0.873	-0.7515	0	220	947	1
2026-02-12	15:54:03.830	-4.725	-10.15	-20.58	0.07686	0.45994	-1.019676	-2.3355	0.9435	-0.738	0	220	947	1
2026-02-12	15:54:03.850	-4.69	1.365	-11.9	0.011956	0.47214	-1.196332	-2.412	0.9975	-0.717	0	220	947	1
2026-02-12	15:54:03.870	-17.885	-5.215	-1.89	0.046604	0.445056	-1.213412	-2.4075	1.005	-0.723	0	220	947	1
2026-02-12	15:54:03.890	-38.885	-12.74	5.215	-0.007076	0.452132	-1.167784	-2.3865	1.026	-0.741	0	220	947	1
2026-02-12	15:54:03.910	-47.565	-16.59	7.91	-0.049776	0.412116	-1.206092	-2.3955	1.0485	-0.723	0	220	947	1
2026-02-12	15:54:03.930	-47.53	-26.075	7.21	-0.078568	0.43188	-1.201456	-2.394	1.0665	-0.7125	0	220	947	1
2026-02-12	15:54:03.950	-48.685	-41.02	9.415	-0.030256	0.370636	-1.03456	-2.4135	1.0965	-0.7095	0	220	947	1
2026-02-12	15:54:03.970	-35.42	-36.54	22.155	0.013664	0.365756	-0.875472	-2.481	1.1595	-0.6795	0	220	947	1
2026-02-12	15:54:03.990	-24.01	-13.475	38.955	-0.01342	0.412848	-0.854	-2.4615	1.215	-0.636	0	220	947	1
2026-02-12	15:54:04.010	-11.97	5.53	46.34	-0.105896	0.551928	-0.98454	-2.325	1.227	-0.561	0	220	951	1
2026-02-12	15:54:04.030	-6.825	-1.855	34.265	-0.118584	0.585844	-0.989664	-2.112	1.1805	-0.528	0	220	951	1
2026-02-12	15:54:04.050	-5.355	-20.86	15.015	-0.065148	0.44408	-0.89426	-1.9755	1.1385	-0.5265	0	220	951	1
2026-02-12	15:54:04.070	-3.71	-31.745	8.995	-0.00122	0.351116	-0.744688	-1.9755	1.1145	-0.564	0	220	951	1
2026-02-12	15:54:04.090	0.84	-24.675	14.42	-0.04758	0.365024	-0.69296	-2.025	1.11	-0.5985	0	220	951	1
2026-02-12	15:54:04.110	9.38	-12.845	18.515	-0.040504	0.430904	-0.786656	-2.0685	1.0965	-0.6135	0	220	951	1
2026-02-12	15:54:04.130	7.035	-16.835	15.19	-0.00976	0.42944	-0.788852	-2.0565	1.0815	-0.633	0	220	951	1
2026-02-12	15:54:04.150	0.175	-28.595	10.78	0.033672	0.370392	-0.63684	-2.0565	1.0725	-0.648	0	220	951	1
2026-02-12	15:54:04.170	-0.595	-25.83	12.565	0.037576	0.32574	-0.58072	-2.1255	1.0935	-0.654	0	220	951	1
2026-02-12	15:54:04.190	1.785	-15.715	21.035	0.042944	0.33428	-0.614148	-2.1675	1.086	-0.6435	0	220	951	1
2026-02-12	15:54:04.210	7.42	-7.77	27.685	0.013176	0.428952	-0.704672	-2.118	1.0725	-0.63	0	219	949	1
2026-02-12	15:54:04.230	2.73	-13.02	22.19	0.007076	0.422608	-0.705892	-2.055	1.047	-0.6105	0	219	949	1
2026-02-12	15:54:04.250	1.365	-19.95	16.1	0.023912	0.39772	-0.719556	-2.019	1.0335	-0.5985	0	219	949	1
2026-02-12	15:54:04.270	1.89	-26.075	12.81	0.01708	0.373564	-0.72102	-2.0565	1.035	-0.6135	0	219	949	1
2026-02-12	15:54:04.290	8.715	-26.565	12.18	0.015128	0.426024	-0.796904	-2.136	1.053	-0.615	0	219	949	1
2026-02-12	15:54:04.310	12.67	-30.205	8.47	0.022692	0.476288	-0.850096	-2.2185	1.0995	-0.6315	0	219	949	1
2026-02-12	15:54:04.330	9.765	-34.65	0.63	0.033916	0.459452	-0.816912	-2.2185	1.0995	-0.6315	0	219	949	1
2026-02-12	15:54:04.350	8.505	-28.105	-3.045	0.075884	0.367952	-0.898896	-2.3805	1.158	-0.642	0	219	949	1
2026-02-12	15:54:04.370	9.695	-24.78	1.225	0.089304	0.370636	-0.896212	-2.5425	1.2165	-0.6525	0	219	949	1
2026-02-12	15:54:04.390	12.565	-14.035	12.53	0.050264	0.475068	-0.940864	-2.6865	1.2555	-0.657	0	219	949	1
2026-02-12	15:54:04.410	18.095	1.645	14.035	-0.06222	0.568276	-1.09434	-2.814	1.3065	-0.636	0	218	928	1
2026-02-12	15:54:04.430	14.665	1.96	6.44	-0.01342	0.52094	-1.223904	-2.7465	1.3125	-0.6165	0	218	928	1
2026-02-12	15:54:04.450	7.21	-8.715	1.47	0.032208	0.459208	-1.222684	-2.688	1.3005	-0.633	0	218	928	1
2026-02-12	15:54:04.470	-0.315	-13.51	-1.75	0.026108	0.45262	-1.113128	-2.7015	1.3065	-0.6435	0	218	928	1
2026-02-12	15:54:04.490	-0.42	-1.68	-2.765	0.003904	0.427732	-1.05774	-2.766	1.335	-0.633	0	218	928	1
2026-02-12	15:54:04.510	1.365	13.51	-2.485	-0.011224	0.446276	-1.154608	-2.8215	1.362	-0.6195	0	218	928	1
2026-02-12	15:54:04.530	9.87	14.945	-8.26	0.018544	0.410408	-1.1834	-2.805	1.377	-0.6285	0	218	928	1
2026-02-12	15:54:04.550	18.2	16.275	-18.515	-0.045384	0.410652	-1.231956	-2.7645	1.38	-0.645	0	218	928	1
2026-02-12	15:54:04.570	23.765	14.875	-26.32	-0.108824	0.381372	-1.239032	-2.7525	1.38	-0.648	0	218	928	1
2026-02-12	15:54:04.590	22.225	9.625	-25.83	-0.12078	0.334036	-1.170712	-2.7525	1.38	-0.648	0	218	928	1
2026-02-12	15:54:04.610	6.265	2.03	-17.465	-0.048556	0.28792	-1.000156	-2.7525	1.38	-0.648	0	217	932	1
2026-02-12	15:54:04.630	-3.115	9.205	-7	-0.07124799	0.280844	-0.96258	-2.577	1.326	-0.651	0	217	932	1
2026-02-12	15:54:04.650	-2.275	13.545	-3.22	-0.04026	0.321592	-1.017968	-2.4375	1.29	-0.621	0	217	932	1
2026-02-12	15:54:04.670	3.64	3.08	-11.865	0.038796	0.29036	-0.948672	-2.3055	1.275	-0.6465	0	217	932	1
2026-02-12	15:54:04.690	8.12	-1.015	-22.26	0.038064	0.259616	-0.883768	-2.2455	1.245	-0.6375	0	217	932	1
2026-02-12	15:54:04.710	17.535	4.935	-24.78	0.010248	0.21472	-0.8296	-2.2185	1.218	-0.6165	0	217	932	1
2026-02-12	15:54:04.730	17.815	12.075	-19.985	-0.009028	0.279136	-0.881328	-2.175	1.1805	-0.612	0	217	932	1
2026-02-12	15:54:04.750	15.925	4.375	-24.5	0.011468	0.266448	-0.858392	-2.142	1.155	-0.621	0	217	932	1
2026-02-12	15:54:04.770	12.495	-8.015	-32.725	0.03904	0.241804	-0.773968	-2.166	1.1505	-0.6345	0	217	932	1
2026-02-12	15:54:04.790	17.5	-9.1	-36.505	0.060756	0.157624	-0.751276	-2.2605	1.1685	-0.6525	0	217	932	1
2026-02-12	15:54:04.810	14.28	-3.115	-28.735	0.05124	0.17812	-0.711992	-2.3355	1.1625	-0.6645	0	215	949	1
2026-02-12	15:54:04.830	8.295	6.02	-19.39	0.071736	0.201544	-0.69906	-2.3865	1.167	-0.654	0	215	949	1
2026-02-12	15:54:04.850	2.38	11.165	-14.21	0.090036	0.22448	-0.651968	-2.3955	1.1565	-0.66	0	215	949	1
2026-02-12	15:54:04.870	6.72	18.62	-15.05	0.038064	0.260104	-0.730292	-2.3535	1.158	-0.642	0	215	949	1
2026-02-12	15:54:04.890	8.82	17.605	-19.495	0.030012	0.291336	-0.792756	-2.289	1.1265	-0.624	0	215	949	1
2026-02-12	15:54:04.910	5.705	10.43	-23.52	0.0671	0.300852	-0.812276	-2.247	1.1145	-0.642	0	215	949	1
2026-02-12	15:54:04.930	1.61	6.65	-26.075	0.10492	0.260836	-0.782996	-2.2515	1.1055	-0.648	0	215	949	1
2026-02-12	15:54:04.950	4.55	9.975	-22.12	0.1647	0.2196	-0.748348	-2.3025	1.122	-0.6555	0	215	949	1
2026-02-12	15:54:04.970	13.86	22.085	-15.225	0.122	0.369904	-0.822768	-2.301	1.14	-0.6585	0	215	949	1
2026-02-12	15:54:04.990	14.175	27.895	-20.895	0.007808	0.47214	-0.898652	-2.2515	1.1355	-0.615	0	215	949	1
2026-02-12	15:54:05.010	16.695	26.285	-29.26	0.053924	0.394792	-1.084824	-2.1735	1.0725	-0.6195	0	212	945	1
2026-02-12	15:54:05.030	13.58	10.885	-28.805	0.097112	0.359412	-1.166076	-2.1435	1.026	-0.666	0	212	945	1
2026-02-12	15:54:05.050	4.2	-2.94	-24.43	0.039772	0.410408	-1.104344	-2.151	1.026	-0.723	0	212	945	1
2026-02-12	15:54:05.070	-1.61	-3.465	-19.67	0.000732	0.424072	-1.149728	-2.2485	1.0515	-0.6945	0	212	945	1
2026-02-12	15:54:05.090	-9.94	-5.775	-10.815	0.075884	0.369172	-1.138016	-2.3175	1.077	-0.7125	0	212	945	1
2026-02-12	15:54:05.110	-11.83	-5.46	1.4	0.074908	0.439444	-1.050664	-2.379	1.1265	-0.705	0	212	945	1
2026-02-12	15:54:05.130	-8.225	7.385	3.78	-0.034892	0.461648	-1.139236	-2.385	1.1625	-0.684	0	212	945	1
2026-02-12	15:54:05.150	-11.445	10.64	5.18	-0.054168	0.462868	-1.278804	-2.283	1.1505	-0.6705	0	212	945	1
2026-02-12	15:54:05.170	-8.645	-1.05	3.185	0.001708	0.445544	-1.25904	-2.184	1.122	-0.681	0	212	945	1
2026-02-12	15:54:05.190	-2.45	-11.48	-6.685	0.022448	0.362828	-1.194624	-2.1915	1.131	-0.705	0	212	945	1
2026-02-12	15:54:05.210	2.31	-16.17	-4.515	0.0183	0.242292	-0.975268	-2.2365	1.1295	-0.7395	0	211	950	1
2026-02-12	15:54:05.230	-5.32	-2.8	21.385	-0.02928	0.333304	-0.888404	-2.2665	1.107	-0.7125	0	211	950	1
2026-02-12	15:54:05.250	-7.525	15.47	46.34	-0.00854	0.354532	-0.867176	-2.1765	1.086	-0.6675	0	211	950	1
2026-02-12	15:54:05.270	0.245	29.505	55.93	-0.1098	0.571448	-1.043832	-1.977	1.0635	-0.6045	0	211	950	1
2026-02-12	15:54:05.290	4.76	14.455	35.735	-0.163724	0.563152	-1.121424	-1.77	1.0245	-0.5565	0	211	950	1
2026-02-12	15:54:05.310	-5.425	-11.235	15.085	-0.12688	0.438468	-0.991372	-1.644	0.9885	-0.573	0	211	950	1
2026-02-12	15:54:05.330	-11.795	-19.11	11.935	-0.09467199	0.327204	-0.802516	-1.7115	0.978	-0.609	0	211	950	1
2026-02-12	15:54:05.350	-6.79	-8.89	21.91	-0.096136	0.352092	-0.731268	-1.812	1.0155	-0.6525	0	211	950	1
2026-02-12	15:54:05.370	-1.365	1.4	25.9	-0.118096	0.381372	-0.756888	-1.896	1.0455	-0.6915	0	211	950	1
2026-02-12	15:54:05.390	2.24	1.33	22.47	-0.144936	0.404064	-0.765916	-1.896	1.0455	-0.6915	0	211	950	1
2026-02-12	15:54:05.410	2.905	-2.87	17.15	-0.132492	0.360876	-0.81496	-1.896	1.035	-0.6945	0	209	963	1
2026-02-12	15:54:05.430	-0.56	-10.43	16.835	-0.091744	0.333304	-0.76616	-1.896	1.0245	-0.6975	0	209	963	1
2026-02-12	15:54:05.450	-2.31	-12.46	17.395	-0.06734399	0.315736	-0.732244	-1.89	1.0095	-0.7035	0	209	963	1
2026-02-12	15:54:05.470	-5.705	-12.355	18.165	-0.033184	0.34526	-0.701256	-1.9005	1.0005	-0.7065	0	209	963	1
2026-02-12	15:54:05.490	-1.96	-12.285	17.185	-0.03294	0.339892	-0.733952	-1.926	1.02	-0.696	0	209	963	1
2026-02-12	15:54:05.510	1.575	-16.31	13.3	-0.056608	0.376248	-0.80154	-1.9485	1.044	-0.684	0	209	963	1
2026-02-12	15:54:05.530	0.63	-24.08	7.105	-0.053436	0.335988	-0.841312	-1.992	1.0665	-0.687	0	209	963	1
2026-02-12	15:54:05.550	3.43	-29.785	4.795	0.01708	0.295728	-0.870104	-2.097	1.104	-0.702	0	209	963	1
2026-02-12	15:54:05.570	5.95	-29.085	3.29	0.027328	0.269864	-0.864492	-2.253	1.164	-0.72	0	209	963	1
2026-02-12	15:54:05.590	2.485	-23.87	4.025	-0.035624	0.28548	-0.867908	-2.4285	1.242	-0.723	0	209	963	1
2026-02-12	15:54:05.610	3.43	-14.84	9.135	-0.001708	0.259616	-0.973316	-2.5845	1.3185	-0.702	0	208	956	1
2026-02-12	15:54:05.630	-3.395	-9.275	17.955	0.0488	0.30134	-1.04798	-2.688	1.3815	-0.678	0	208	956	1
2026-02-12	15:54:05.650	-11.095	-6.195	23.45	0.05246	0.375516	-0.942816	-2.7135	1.4565	-0.6315	0	208	956	1
2026-02-12	15:54:05.670	-4.41	15.925	21.525	-0.049288	0.434564	-1.161196	-2.6535	1.509	-0.549	0	208	956	1
2026-02-12	15:54:05.690	5.74	24.605	13.09	-0.0732	0.403576	-1.410076	-2.5035	1.4865	-0.4935	0	208	956	1
2026-02-12	15:54:05.710	-9.73	-1.085	1.54	0.08906	0.350628	-1.258552	-2.358	1.4445	-0.501	0	208	956	1
2026-02-12	15:54:05.730	-14.805	-12.775	-14.175	0.122	0.34648	-1.01138	-2.3325	1.4685	-0.5115	0	208	956	1
2026-02-12	15:54:05.750	4.48	7.21	-27.475	0.036844	0.223504	-1.05896	-2.3895	1.5285	-0.4995	0	208	956	1
2026-02-12	15:54:05.770	23.59	24.01	-22.645	0.016104	0.246196	-1.2261	-2.427	1.5405	-0.504	0	208	956	1
2026-02-12	15:54:05.790	16.8	16.905	-22.96	0.030012	0.31476	-1.210484	-2.391	1.515	-0.528	0	208	956	1
2026-02-12	15:54:05.810	8.295	3.815	-30.345	0.041968	0.228872	-1.029436	-2.3235	1.4925	-0.5355	0	206	959	1
2026-02-12	15:54:05.830	2.45	7.77	-24.185	0.028304	0.228628	-0.98942	-2.295	1.485	-0.5325	0	206	959	1
2026-02-12	15:54:05.850	1.505	11.9	-15.015	0.047824	0.29158	-1.001132	-2.295	1.485	-0.5325	0	206	959	1
2026-02-12	15:54:05.870	7.28	9.275	-20.335	0.038064	0.330132	-1.037	-2.295	1.485	-0.5325	0	206	959	1
2026-02-12	15:54:05.890	7.42	0.735	-34.125	0.037088	0.275476	-1.007232	-1.9755	1.392	-0.438	0	206	959	1
2026-02-12	15:54:05.910	-1.295	-6.58	-40.25	0.093452	0.192272	-0.897676	-1.9785	1.368	-0.4425	0	206	959	1
2026-02-12	15:54:05.930	-0.49	-4.445	-37.695	0.112972	0.174948	-0.770308	-2.043	1.377	-0.447	0	206	959	1
2026-02-12	15:54:05.950	3.64	4.69	-36.995	0.066612	0.257664	-0.781288	-2.088	1.3905	-0.4275	0	206	959	1
2026-02-12	15:54:05.970	15.75	5.565	-44.975	0.026108	0.2257	-0.872544	-2.076	1.3785	-0.4365	0	206	959	1
2026-02-12	15:54:05.990	4.585	-4.025	-46.795	0.101504	0.154452	-0.792756	-2.1195	1.353	-0.4605	0	206	959	1
2026-02-12	15:54:06.010	-5.04	-3.29	-37.625	0.154452	0.149084	-0.622932	-2.1825	1.368	-0.465	0	204	970	1
2026-02-12	15:54:06.030	-6.37	13.335	-26.425	0.10736	0.258152	-0.583648	-2.2155	1.371	-0.4365	0	204	970	1
2026-02-12	15:54:06.050	11.27	31.465	-27.475	0.061244	0.288896	-0.772992	-2.16	1.344	-0.4065	0	204	970	1
2026-02-12	15:54:06.070	11.76	27.615	-33.985	0.055632	0.275232	-0.941596	-2.0265	1.284	-0.4425	0	204	970	1
2026-02-12	15:54:06.090	-1.82	8.505	-36.68	0.097844	0.293532	-0.789096	-2.01	1.245	-0.4485	0	204	970	1
2026-02-12	15:54:06.110	-11.2	6.895	-33.005	0.148596	0.273524	-0.66002	-2.079	1.251	-0.4575	0	204	970	1
2026-02-12	15:54:06.130	13.755	26.25	-25.41	0.202276	0.231556	-0.750788	-2.1555	1.278	-0.4395	0	204	970	1
2026-02-12	15:54:06.150	29.365	46.9	-21.735	0.040504	0.467504	-1.020896	-2.1225	1.2585	-0.4575	0	204	970	1
2026-02-12	15:54:06.170	20.895	34.51	-35.7	-0.024156	0.459208	-1.140456	-2.034	1.2105	-0.4485	0	204	970	1
2026-02-12	15:54:06.190	4.97	5.845	-42.595	0.04148	0.36356	-1.13826	-2.0355	1.1835	-0.4755	0	204	970	1
2026-02-12	15:54:06.210	-2.205	-11.06	-36.785	0.023424	0.306708	-1.018944	-2.1615	1.1925	-0.507	0	203	964	1
2026-02-12	15:54:06.230	-14.035	1.505	-20.685	-0.0122	0.320616	-1.142408	-2.253	1.2195	-0.5025	0	203	964	1
2026-02-12	15:54:06.250	-17.29	3.5	-0.945	0	0.42334	-1.149728	-2.2815	1.2435	-0.4785	0	203	964	1
2026-02-12	15:54:06.270	-22.68	-2.38	3.71	-0.000244	0.4636	-1.081652	-2.2755	1.278	-0.453	0	203	964	1
2026-02-12	15:54:06.290	-21.14	-5.775	-3.78	-0.016104	0.440176	-1.061888	-2.2695	1.3305	-0.4155	0	203	964	1
2026-02-12	15:54:06.310	-9.52	-5.705	-8.715	-0.084668	0.391864	-1.1468	-2.292	1.356	-0.426	0	203	964	1
2026-02-12	15:54:06.330	-0.98	-9.415	-5.705	-0.066856	0.442616	-1.192672	-2.2995	1.3455	-0.4545	0	203	964	1
2026-02-12	15:54:06.350	-3.22	-17.535	-4.76	-0.00732	0.390156	-1.089704	-2.307	1.332	-0.51	0	203	964	1
2026-02-12	15:54:06.370	-6.72	-15.015	2.415	-0.039284	0.312808	-0.9272	-2.3595	1.353	-0.546	0	203	964	1
2026-02-12	15:54:06.390	-2.31	3.745	18.445	-0.161528	0.439688	-0.961116	-2.343	1.338	-0.5565	0	203	964	1
2026-02-12	15:54:06.410	7.245	10.745	20.93	-0.210084	0.533628	-1.163636	-2.2155	1.2945	-0.549	0	202	968	1
2026-02-12	15:54:06.430	-4.445	-17.64	5.985	-0.125172	0.436028	-1.021384	-2.067	1.233	-0.579	0	202	968	1
2026-02-12	15:54:06.450	-13.86	-32.935	-2.8	-0.071004	0.30134	-0.838628	-2.0745	1.233	-0.6045	0	202	968	1
2026-02-12	15:54:06.470	-6.79	-22.54	5.285	-0.061	0.289384	-0.686616	-2.0745	1.233	-0.6045	0	202	968	1
2026-02-12	15:54:06.490	8.26	2.66	17.08	-0.049532	0.373808	-0.776164	-2.1405	1.2465	-0.618	0	202	968	1
2026-02-12	15:54:06.510	15.785	10.955	18.48	-0.072224	0.4026	-0.86132	-2.208	1.2615	-0.633	0	202	968	1
2026-02-12	15:54:06.530	11.375	5.25	14.315	-0.061244	0.373564	-0.823744	-2.1225	1.2315	-0.6465	0	202	968	1
2026-02-12	15:54:06.550	3.99	-2.905	13.93	-0.05246	0.390644	-0.709552	-2.0355	1.182	-0.6465	0	202	968	1
2026-02-12	15:54:06.570	1.05	-0.805	15.155	-0.021472	0.34892	-0.6466	-2.0265	1.1565	-0.624	0	202	968	1
2026-02-12	15:54:06.590	4.13	8.96	19.565	-0.012688	0.367708	-0.732732	-2.013	1.134	-0.618	0	202	968	1
2026-02-12	15:54:06.610	4.83	10.115	22.26	-0.04392	0.376248	-0.778604	-1.9875	1.098	-0.6255	0	201	969	1
2026-02-12	15:54:06.630	2.205	3.99	22.995	-0.030256	0.389912	-0.728828	-1.917	1.0815	-0.6525	0	201	969	1
2026-02-12	15:54:06.650	1.75	1.96	21.98	-0.022204	0.385276	-0.773968	-1.8735	1.0905	-0.675	0	201	969	1
2026-02-12	15:54:06.670	1.61	-2.625	20.755	-0.017324	0.36722	-0.818132	-1.8975	1.0965	-0.669	0	201	969	1
2026-02-12	15:54:06.690	0.28	-8.05	19.39	0.004636	0.399916	-0.8479	-1.968	1.0965	-0.6405	0	201	969	1
2026-02-12	15:54:06.710	-5.285	-12.39	12.81	-0.00488	0.428464	-0.772992	-2.055	1.116	-0.609	0	201	969	1
2026-02-12	15:54:06.730	3.605	-5.25	4.655	-0.01464	0.336964	-0.968192	-2.127	1.158	-0.597	0	201	969	1
2026-02-12	15:54:06.750	9.17	-9.38	6.405	0.142496	0.204472	-1.062864	-2.2065	1.1925	-0.6105	0	201	969	1
2026-02-12	15:54:06.770	-2.275	-10.395	16.73	0.10858	0.388936	-0.906704	-2.2875	1.233	-0.615	0	201	969	1
2026-02-12	15:54:06.790	1.82	11.9	12.53	0.017568	0.432368	-0.982588	-2.3355	1.2825	-0.561	0	201	969	1
2026-02-12	15:54:06.810	15.505	25.55	5.18	-0.013176	0.352336	-1.192916	-2.307	1.293	-0.51	0	200	955	1
2026-02-12	15:54:06.830	9.765	15.925	2.8	0.007076	0.356728	-1.220488	-2.2395	1.26	-0.5085	0	200	955	1
2026-02-12	15:54:06.850	4.375	10.78	-1.47	0.02318	0.379908	-1.088972	-2.1735	1.23	-0.528	0	200	955	1
2026-02-12	15:54:06.870	2.485	17.92	-8.33	0.051484	0.330132	-1.134844	-2.1315	1.2255	-0.5325	0	200	955	1
2026-02-12	15:54:06.890	11.725	19.565	-17.185	0.024644	0.325496	-1.16144	-2.103	1.2255	-0.5295	0	200	955	1
2026-02-12	15:54:06.910	13.09	16.52	-27.23	-0.016348	0.294508	-1.1834	-2.0775	1.209	-0.534	0	200	955	1
2026-02-12	15:54:06.930	14.35	12.845	-30.695	-0.028304	0.3416	-1.233664	-2.049	1.185	-0.5385	0	200	955	1
2026-02-12	15:54:06.950	12.145	3.815	-32.585	-0.001708	0.275964	-1.190232	-1.992	1.161	-0.54	0	200	955	1
2026-02-12	15:54:06.970	-2.38	-4.445	-28.875	0.038308	0.259372	-1.06628	-1.953	1.1355	-0.534	0	200	955	1
2026-02-12	15:54:06.990	-12.67	-4.935	-27.65	0.05246	0.24766	-0.949648	-1.9515	1.1325	-0.519	0	200	955	1
2026-02-12	15:54:07.010	-7.525	0.63	-29.995	0.047824	0.202764	-0.976732	-1.9605	1.146	-0.4995	0	198	961	1
2026-02-12	15:54:07.030	-4.165	-0.175	-31.57	0.05246	0.188856	-0.984052	-1.9635	1.14	-0.492	0	198	961	1
2026-02-12	15:54:07.050	-4.515	1.12	-29.82	0.047824	0.157868	-0.908168	-1.95	1.122	-0.4995	0	198	961	1
2026-02-12	15:54:07.070	-4.445	6.825	-24.78	0.06832	0.167628	-0.873276	-1.9365	1.116	-0.5055	0	198	961	1
2026-02-12	15:54:07.090	1.89	9.1	-23.345	0.096136	0.135908	-0.877912	-1.9365	1.116	-0.5055	0	198	961	1
2026-02-12	15:54:07.110	2.52	4.62	-25.62	0.09272	0.15982	-0.861808	-1.9365	1.116	-0.5055	0	198	961	1
2026-02-12	15:54:07.130	-1.26	1.4	-29.96	0.08686399	0.180072	-0.788608	-1.8675	1.071	-0.501	0	198	961	1
2026-02-12	15:54:07.150	-2.485	5.075	-33.39	0.10614	0.138348	-0.753228	-1.914	1.074	-0.4875	0	198	961	1
2026-02-12	15:54:07.170	-3.92	10.5	-31.465	0.114924	0.151036	-0.75884	-1.9365	1.077	-0.489	0	198	961	1
2026-02-12	15:54:07.190	0.035	14.735	-30.52	0.070272	0.19642	-0.795684	-1.92	1.0815	-0.486	0	198	961	1
2026-02-12	15:54:07.210	-1.435	10.465	-34.58	0.08662	0.2135	-0.76738	-1.938	1.0545	-0.471	0	197	969	1
2026-02-12	15:54:07.230	-0.595	5.04	-40.705	0.069784	0.227164	-0.73566	-1.9725	1.056	-0.48	0	197	969	1
2026-02-12	15:54:07.250	-6.125	2.695	-45.64	0.110532	0.14396	-0.685152	-2.01	1.062	-0.483	0	197	969	1
2026-02-12	15:54:07.270	-4.76	10.01	-37.31	0.141032	0.153964	-0.691496	-2.0595	1.062	-0.4995	0	197	969	1
2026-02-12	15:54:07.290	-2.695	18.62	-29.015	0.147132	0.250588	-0.699792	-2.0715	1.053	-0.477	0	197	969	1
2026-02-12	15:54:07.310	-2.555	22.015	-35.14	0.11468	0.320372	-0.715164	-2.0115	1.0365	-0.4725	0	197	969	1
2026-02-12	15:54:07.330	4.62	18.69	-47.075	0.134444	0.30012	-0.765428	-1.956	1.0215	-0.4575	0	197	969	1
2026-02-12	15:54:07.350	8.645	13.02	-54.39	0.16592	0.225212	-0.778848	-1.9125	0.984	-0.4785	0	197	969	1
2026-02-12	15:54:07.370	9.17	12.425	-51.975	0.140544	0.275476	-0.737856	-1.9125	0.972	-0.4935	0	197	969	1
2026-02-12	15:54:07.390	12.705	17.15	-51.45	0.126148	0.33428	-0.79178	-1.8885	0.963	-0.495	0	197	969	1
2026-02-12	15:54:07.410	17.675	17.185	-55.86	0.119072	0.316468	-0.93574	-1.8585	0.951	-0.4965	0	196	951	1
2026-02-12	15:54:07.430	17.29	2.66	-55.475	0.151768	0.270108	-0.90402	-1.8495	0.9375	-0.5145	0	196	951	1
2026-02-12	15:54:07.450	11.445	-6.335	-48.895	0.121512	0.407724	-0.845216	-1.863	0.948	-0.519	0	196	951	1
2026-02-12	15:54:07.470	12.88	-3.99	-51.52	0.06466	0.439688	-0.907192	-1.9035	0.981	-0.492	0	196	951	1
2026-02-12	15:54:07.490	7.035	1.19	-52.15	0.101016	0.33672	-1.056764	-1.9215	0.9915	-0.504	0	196	951	1
2026-02-12	15:54:07.510	-11.935	-4.34	-39.34	0.225944	0.301096	-1.021628	-1.9575	1.0245	-0.561	0	196	951	1
2026-02-12	15:54:07.530	-16.135	-1.05	-26.005	0.215452	0.427	-0.84668	-1.9575	1.0245	-0.561	0	196	951	1
2026-02-12	15:54:07.550	-3.395	21.7	-29.995	0.119804	0.454328	-1.012356	-2.025	1.08	-0.552	0	196	951	1
2026-02-12	15:54:07.570	-0.105	28.455	-33.04	0.056608	0.472628	-1.131428	-2.0925	1.1355	-0.543	0	196	951	1
2026-02-12	15:54:07.590	4.165	24.115	-37.275	0.013176	0.484828	-1.31394	-2.046	1.1115	-0.546	0	196	951	1
2026-02-12	15:54:07.610	-8.4	6.475	-38.71	0.074664	0.37698	-1.1773	-2.0085	1.0845	-0.567	0	195	934	1
2026-02-12	15:54:07.630	-9.135	8.085	-30.87	0.021228	0.359656	-1.083604	-2.046	1.0935	-0.585	0	195	934	1
2026-02-12	15:54:07.650	-2.03	19.915	-20.44	-0.059048	0.4575	-1.09678	-2.058	1.113	-0.5835	0	195	934	1
2026-02-12	15:54:07.670	0.105	20.825	-19.775	-0.082716	0.460184	-1.167296	-2.01	1.1145	-0.567	0	195	934	1
2026-02-12	15:54:07.690	-9.555	7.28	-22.715	-0.105164	0.415532	-1.10532	-1.953	1.098	-0.555	0	195	934	1
2026-02-12	15:54:07.710	-20.51	1.435	-19.18	-0.07564	0.38064	-0.972096	-1.923	1.0905	-0.5565	0	195	934	1
2026-02-12	15:54:07.730	-25.165	10.255	-11.445	-0.070028	0.381616	-0.913292	-1.908	1.095	-0.5565	0	195	934	1
2026-02-12	15:54:07.750	-23.835	21.385	-10.36	-0.091744	0.4087	-0.949892	-1.881	1.092	-0.552	0	195	934	1
2026-02-12	15:54:07.770	-17.955	19.11	-16.905	-0.108824	0.372832	-0.96868	-1.83	1.0785	-0.558	0	195	934	1
2026-02-12	15:54:07.790	-8.225	11.025	-21.7	-0.135664	0.353312	-0.984784	-1.788	1.0575	-0.5745	0	195	934	1
2026-02-12	15:54:07.810	1.05	3.605	-23.38	-0.121268	0.379176	-0.962824	-1.7865	1.044	-0.591	0	194	944	1
2026-02-12	15:54:07.830	5.565	1.435	-24.99	-0.087108	0.343552	-0.933788	-1.8075	1.053	-0.606	0	194	944	1
2026-02-12	15:54:07.850	0.98	0.805	-22.365	-0.066124	0.351848	-0.882792	-1.851	1.071	-0.6225	0	194	944	1
2026-02-12	15:54:07.870	-0.98	-0.49	-19.915	-0.039284	0.288408	-0.831308	-1.9125	1.0875	-0.633	0	194	944	1
2026-02-12	15:54:07.890	2.03	1.26	-13.335	-0.009028	0.304756	-0.839116	-1.968	1.1025	-0.6375	0	194	944	1
2026-02-12	15:54:07.910	3.395	2.765	-11.935	-0.007076	0.335744	-0.84302	-1.9995	1.107	-0.642	0	194	944	1
2026-02-12	15:54:07.930	1.89	2.765	-13.16	0.036356	0.305488	-0.80764	-2.016	1.107	-0.654	0	194	944	1
2026-02-12	15:54:07.950	0.98	7.42	-9.8	0.088572	0.272304	-0.744688	-2.0295	1.1055	-0.6675	0	194	944	1
2026-02-12	15:54:07.970	4.725	17.745	-4.55	0.071004	0.284504	-0.757864	-2.0265	1.0935	-0.6585	0	194	944	1
2026-02-12	15:54:07.990	8.05	23.1	-4.06	0.057584	0.376492	-0.815204	-1.9965	1.0725	-0.6495	0	194	944	1
2026-02-12	15:54:08.010	5.81	16.94	-12.285	0.066124	0.411628	-0.804956	-1.95	1.0575	-0.639	0	193	952	1
2026-02-12	15:54:08.030	8.89	13.51	-21	0.10858	0.339648	-0.813496	-1.929	1.0455	-0.6315	0	193	952	1
2026-02-12	15:54:08.050	12.74	18.27	-21	0.114436	0.331108	-0.863272	-1.9455	1.0455	-0.636	0	193	952	1
2026-02-12	15:54:08.070	16.205	23.8	-17.745	0.113948	0.403088	-0.912804	-1.9755	1.0485	-0.6375	0	193	952	1
2026-02-12	15:54:08.090	12.845	25.585	-20.405	0.105164	0.434076	-0.907192	-1.989	1.047	-0.6285	0	193	952	1
2026-02-12	15:54:08.110	11.585	27.58	-25.795	0.107116	0.398696	-0.93818	-1.9935	1.053	-0.6165	0	193	952	1
2026-02-12	15:54:08.130	13.475	27.895	-28.875	0.117608	0.404796	-0.992836	-2.0055	1.053	-0.621	0	193	952	1
2026-02-12	15:54:08.150	9.45	24.815	-33.6	0.109068	0.439688	-1.00406	-2.007	1.062	-0.6285	0	193	952	1
2026-02-12	15:54:08.170	7.84	24.815	-39.375	0.109312	0.39406	-0.971364	-2.0145	1.0755	-0.6315	0	193	952	1
2026-02-12	15:54:08.190	2.765	29.82	-38.36	0.113216	0.39406	-0.968436	-2.022	1.086	-0.633	0	193	952	1
2026-02-12	15:54:08.210	2.03	36.89	-35.56	0.10858	0.395768	-1.01992	-2.019	1.089	-0.6315	0	190	949	1
2026-02-12	15:54:08.230	0.735	37.31	-37.275	0.105652	0.410408	-1.057008	-1.9845	1.0815	-0.621	0	190	949	1
2026-02-12	15:54:08.250	2.73	32.165	-44.275	0.079544	0.371124	-1.036268	-1.92	1.074	-0.615	0	190	949	1
2026-02-12	15:54:08.270	2.1	31.815	-48.79	0.030256	0.361852	-1.089216	-1.869	1.0665	-0.606	0	190	949	1
2026-02-12	15:54:08.290	2.8	27.965	-51.275	0.053436	0.319152	-1.07116	-1.851	1.0605	-0.597	0	190	949	1
2026-02-12	15:54:08.310	4.515	23.835	-53.62	0.06734399	0.280356	-1.02602	-1.851	1.0605	-0.597	0	190	949	1
2026-02-12	15:54:08.330	14.14	23.24	-59.01	-0.0244	0.299632	-1.10532	-1.851	1.0605	-0.597	0	190	949	1
2026-02-12	15:54:08.350	14.98	11.515	-66.5	-0.003904	0.247172	-1.104588	-1.8075	1.0725	-0.5805	0	190	949	1
2026-02-12	15:54:08.370	3.71	-1.155	-66.15	0.05978	0.198128	-0.991372	-1.827	1.1055	-0.609	0	190	949	1
2026-02-12	15:54:08.390	4.62	6.93	-59.43	0.04636	0.11956	-0.943304	-1.8375	1.143	-0.621	0	190	949	1
2026-02-12	15:54:08.410	3.745	19.985	-47.6	0.030012	0.162016	-0.976488	-1.866	1.134	-0.576	0	186	956	1
2026-02-12	15:54:08.430	6.405	18.795	-45.57	0.028304	0.255956	-1.03334	-1.8105	1.11	-0.558	0	186	956	1
2026-02-12	15:54:08.450	10.885	6.685	-57.715	0.0366	0.223504	-0.99674	-1.7385	1.0995	-0.5505	0	186	956	1
2026-02-12	15:54:08.470	12.11	-2.03	-64.47	0.105164	0.153476	-0.901824	-1.7355	1.089	-0.555	0	186	956	1
2026-02-12	15:54:08.490	10.535	1.12	-59.08	0.143472	0.179096	-0.800564	-1.7595	1.0965	-0.573	0	186	956	1
2026-02-12	15:54:08.510	16.66	15.925	-52.815	0.107848	0.24522	-0.80032	-1.7715	1.095	-0.5715	0	186	956	1
2026-02-12	15:54:08.530	21.42	25.06	-50.995	0.096868	0.24888	-0.881816	-1.719	1.0575	-0.558	0	186	956	1
2026-02-12	15:54:08.550	18.865	19.565	-49.315	0.104676	0.260348	-0.90524	-1.6575	1.0155	-0.54	0	186	956	1
2026-02-12	15:54:08.570	13.23	8.26	-50.05	0.133224	0.305244	-0.81618	-1.6185	0.9885	-0.54	0	186	956	1
2026-02-12	15:54:08.590	9.66	6.265	-53.06	0.144692	0.294264	-0.765916	-1.6185	0.9885	-0.54	0	186	956	1
2026-02-12	15:54:08.610	11.97	11.27	-51.835	0.132736	0.280844	-0.790316	-1.626	0.9975	-0.5265	0	181	963	1
2026-02-12	15:54:08.630	15.05	15.4	-47.95	0.103944	0.3111	-0.84058	-1.6335	1.0065	-0.5145	0	181	963	1
2026-02-12	15:54:08.650	18.165	15.085	-47.005	0.097356	0.349652	-0.893772	-1.6185	1.002	-0.5265	0	181	963	1
2026-02-12	15:54:08.670	15.33	7.28	-50.4	0.11102	0.373808	-0.916464	-1.5975	0.999	-0.5385	0	181	963	1
2026-02-12	15:54:08.690	13.16	-2.905	-54.425	0.105408	0.384544	-0.894748	-1.5975	1.008	-0.552	0	181	963	1
2026-02-12	15:54:08.710	9.695	-9.765	-56.63	0.106628	0.368684	-0.854732	-1.632	1.026	-0.5835	0	181	963	1
2026-02-12	15:54:08.730	3.675	-10.15	-52.36	0.186172	0.299144	-0.799344	-1.7115	1.0365	-0.6075	0	181	963	1
2026-02-12	15:54:08.750	3.43	-1.225	-40.53	0.167872	0.34892	-0.866444	-1.7865	1.0455	-0.6135	0	181	963	1
2026-02-12	15:54:08.770	6.825	6.72	-32.305	0.1281	0.467016	-0.943792	-1.7865	1.0485	-0.6015	0	181	963	1
2026-02-12	15:54:08.790	4.865	8.365	-33.775	0.100284	0.492392	-1.04676	-1.734	1.029	-0.582	0	181	963	1
2026-02-12	15:54:08.810	0.105	1.96	-34.965	0.10614	0.44774	-1.08214	-1.689	1.008	-0.588	0	176	958	1
2026-02-12	15:54:08.830	-9.205	-1.365	-29.925	0.099796	0.408456	-1.109224	-1.674	0.993	-0.606	0	176	958	1
2026-02-12	15:54:08.850	-16.87	-3.71	-18.725	0.133956	0.410408	-1.077016	-1.683	0.9885	-0.612	0	176	958	1
2026-02-12	15:54:08.870	-19.67	-2.485	-9.03	0.057828	0.518988	-1.06628	-1.6905	1.002	-0.609	0	176	958	1
2026-02-12	15:54:08.890	-12.18	3.71	-12.215	-0.019764	0.532896	-1.228784	-1.6815	1.0185	-0.606	0	176	958	1
2026-02-12	15:54:08.910	-13.125	-4.06	-19.18	0.027084	0.4148	-1.280756	-1.692	1.0305	-0.6225	0	176	958	1
2026-02-12	15:54:08.930	-18.2	-13.23	-19.39	-0.046604	0.411872	-1.22488	-1.749	1.0485	-0.648	0	176	958	1
2026-02-12	15:54:08.950	-13.44	-13.895	-17.255	-0.099064	0.4148	-1.211704	-1.8345	1.0755	-0.663	0	176	958	1
2026-02-12	15:54:08.970	-4.13	-14.035	-14.385	-0.130296	0.356484	-1.256356	-1.92	1.098	-0.672	0	176	958	1
2026-02-12	15:54:08.990	-4.375	-19.565	-6.44	-0.1403	0.311832	-1.189012	-1.9695	1.1205	-0.684	0	176	958	1
2026-02-12	15:54:09.010	-6.825	-17.045	8.96	-0.182756	0.320372	-1.16388	-1.968	1.1265	-0.6795	0	172	971	1
2026-02-12	15:54:09.030	-8.785	-14.91	23.275	-0.183244	0.411628	-1.146556	-1.9095	1.1145	-0.666	0	172	971	1
2026-02-12	15:54:09.050	-13.65	-21.56	24.815	-0.145912	0.348188	-1.05042	-1.8285	1.1055	-0.6675	0	172	971	1
2026-02-12	15:54:09.070	-16.205	-24.815	26.53	-0.146644	0.275476	-0.940864	-1.7895	1.101	-0.6735	0	172	971	1
2026-02-12	15:54:09.090	-12.04	-21.315	36.12	-0.15494	0.276452	-0.853756	-1.77	1.0965	-0.6765	0	172	971	1
2026-02-12	15:54:09.110	-1.33	-9.59	44.905	-0.14762	0.352092	-0.938668	-1.7235	1.0845	-0.6705	0	172	971	1
2026-02-12	15:54:09.130	0	-8.96	42.595	-0.157136	0.361852	-0.92964	-1.6425	1.062	-0.672	0	172	971	1
2026-02-12	15:54:09.150	-2.8	-12.915	38.64	-0.1159	0.290604	-0.842044	-1.5885	1.0365	-0.681	0	172	971	1
2026-02-12	15:54:09.170	-11.025	-11.97	41.23	-0.052948	0.277916	-0.725168	-1.6005	1.029	-0.6825	0	172	971	1
2026-02-12	15:54:09.190	-7.805	-1.785	45.745	-0.052948	0.31354	-0.694668	-1.6245	1.029	-0.687	0	172	971	1
2026-02-12	15:54:09.210	-1.68	7.49	46.445	-0.056364	0.310124	-0.765672	-1.6185	1.02	-0.6855	0	171	991	1
2026-02-12	15:54:09.230	-2.555	5.39	45.99	-0.031232	0.331108	-0.755912	-1.5915	0.9975	-0.681	0	171	991	1
2026-02-12	15:54:09.250	-6.615	2.03	44.135	-0.019276	0.330376	-0.68198	-1.5675	0.975	-0.6735	0	171	991	1
2026-02-12	15:54:09.270	-4.375	6.195	42.595	-0.014152	0.331596	-0.733952	-1.5585	0.9615	-0.663	0	171	991	1
2026-02-12	15:54:09.290	0.035	4.655	41.93	0.02074	0.35746	-0.7686	-1.548	0.9495	-0.6555	0	171	991	1
2026-02-12	15:54:09.310	1.155	-1.225	37.66	0.00732	0.357216	-0.742492	-1.548	0.9345	-0.6465	0	171	991	1
2026-02-12	15:54:09.330	-0.805	-3.5	31.85	0.000488	0.399428	-0.749324	-1.578	0.933	-0.6405	0	171	991	1
2026-02-12	15:54:09.350	2.065	-2.38	24.885	-0.00244	0.378688	-0.871812	-1.6155	0.948	-0.6375	0	171	991	1
2026-02-12	15:54:09.370	3.185	-8.96	19.635	0.055388	0.358192	-0.903532	-1.653	0.9615	-0.651	0	171	991	1
2026-02-12	15:54:09.390	-2.975	-17.675	16.73	0.100284	0.359412	-0.769576	-1.713	0.987	-0.6765	0	171	991	1
2026-02-12	15:54:09.410	2.38	-5.495	14.875	0.094916	0.360144	-0.84424	-1.7895	1.0245	-0.6855	0	173	981	1
2026-02-12	15:54:09.430	14.49	7.91	10.955	0.011224	0.393328	-1.005524	-1.8285	1.0455	-0.6735	0	173	981	1
2026-02-12	15:54:09.450	16.135	7.525	4.025	-0.033184	0.424804	-1.155584	-1.809	1.032	-0.6585	0	173	981	1
2026-02-12	15:54:09.470	1.05	-7.56	-6.86	0.07442	0.35624	-1.10166	-1.779	1.02	-0.666	0	173	981	1
2026-02-12	15:54:09.490	1.435	-9.975	-14.14	0.100772	0.301828	-1.041392	-1.8075	1.044	-0.684	0	173	981	1
2026-02-12	15:54:09.510	9.52	-0.175	-17.465	0.05246	0.280356	-1.020896	-1.89	1.0875	-0.6855	0	173	981	1
2026-02-12	15:54:09.530	15.4	13.055	-17.465	0.015128	0.358436	-1.159976	-1.938	1.116	-0.6735	0	173	981	1
2026-02-12	15:54:09.550	15.505	10.43	-23.73	0.060756	0.316956	-1.20048	-1.944	1.1205	-0.669	0	173	981	1
2026-02-12	15:54:09.570	11.69	5.25	-29.505	0.0915	0.284016	-1.12728	-1.944	1.1205	-0.669	0	173	981	1
2026-02-12	15:54:09.590	14.21	10.115	-33.74	0.065148	0.274988	-1.069696	-1.944	1.1205	-0.669	0	173	981	1
2026-02-12	15:54:09.610	28.21	20.475	-38.955	-0.033916	0.352092	-1.20048	-1.9185	1.1445	-0.6255	0	175	973	1
2026-02-12	15:54:09.630	38.885	12.74	-51.695	-0.07564	0.328668	-1.295152	-1.8525	1.14	-0.6195	0	175	973	1
2026-02-12	15:54:09.650	25.865	-7.175	-59.045	-0.013176	0.197396	-1.14558	-1.86	1.1355	-0.6225	0	175	973	1
2026-02-12	15:54:09.670	10.745	-10.675	-47.67	0.06222	0.11346	-0.88572	-1.86	1.1355	-0.6225	0	175	973	1
2026-02-12	15:54:09.690	15.47	11.935	-30.135	-0.008052	0.183244	-0.868152	-1.926	1.176	-0.5985	0	175	973	1
2026-02-12	15:54:09.710	19.005	23.135	-25.76	-0.016348	0.259372	-0.98942	-1.992	1.2165	-0.5745	0	175	973	1
2026-02-12	15:54:09.730	24.36	22.05	-31.01	-0.02074	0.350628	-1.131916	-1.8495	1.191	-0.546	0	175	973	1
2026-02-12	15:54:09.750	15.19	1.75	-46.165	0.038552	0.187392	-0.987468	-1.6785	1.1565	-0.5205	0	175	973	1
2026-02-12	15:54:09.770	7.805	-2.205	-50.715	0.069052	0.1464	-0.843996	-1.659	1.1535	-0.5205	0	175	973	1
2026-02-12	15:54:09.790	14.14	10.36	-44.625	0.060756	0.139812	-0.81008	-1.6695	1.1535	-0.519	0	175	973	1
2026-02-12	15:54:09.810	22.855	21.63	-39.06	0.020984	0.222772	-0.90402	-1.647	1.1385	-0.5145	0	178	981	1
2026-02-12	15:54:09.830	16.8	12.39	-43.785	0.026352	0.242292	-0.853024	-1.6125	1.1235	-0.507	0	178	981	1
2026-02-12	15:54:09.850	4.34	0.105	-48.3	0.086376	0.193004	-0.685152	-1.6275	1.1205	-0.5025	0	178	981	1
2026-02-12	15:54:09.870	-4.2	6.02	-44.905	0.116876	0.11834	-0.55266	-1.6815	1.128	-0.4965	0	178	981	1
2026-02-12	15:54:09.890	2.87	29.54	-32.06	0.083204	0.158844	-0.610488	-1.7085	1.1265	-0.489	0	178	981	1
2026-02-12	15:54:09.910	11.13	45.78	-23.24	0.042456	0.253028	-0.794708	-1.659	1.0965	-0.48	0	178	981	1
2026-02-12	15:54:09.930	5.775	33.67	-27.02	0.091744	0.294508	-0.798856	-1.5735	1.0515	-0.468	0	178	981	1
2026-02-12	15:54:09.950	1.995	20.51	-36.295	0.124684	0.251076	-0.74176	-1.5345	1.026	-0.453	0	178	981	1
2026-02-12	15:54:09.970	7.245	21.455	-37.03	0.09882	0.197152	-0.704672	-1.533	1.0125	-0.4425	0	178	981	1
2026-02-12	15:54:09.990	17.675	35.84	-24.745	0.017812	0.342088	-0.927688	-1.5165	0.987	-0.4215	0	178	981	1
2026-02-12	15:54:10.010	23.905	30.625	-22.19	0.073444	0.419436	-1.187304	-1.464	0.966	-0.414	0	181	975	1
2026-02-12	15:54:10.030	-3.045	-4.515	-30.765	0.13176	0.447252	-1.017724	-1.437	0.987	-0.4305	0	181	975	1
2026-02-12	15:54:10.050	-13.3	-15.75	-37.905	0.101504	0.40016	-0.919392	-1.5075	1.047	-0.429	0	181	975	1
2026-02-12	15:54:10.070	-2.1	0	-29.715	0.057828	0.373808	-1.134356	-1.596	1.092	-0.411	0	181	975	1
2026-02-12	15:54:10.090	-0.245	1.47	-14.595	-0.05734	0.518988	-1.393484	-1.599	1.098	-0.4005	0	181	975	1
2026-02-12	15:54:10.110	-15.995	-23.345	-9.94	-0.063684	0.569252	-1.379576	-1.557	1.098	-0.384	0	181	975	1
2026-02-12	15:54:10.130	-31.465	-45.675	-8.82	0.025376	0.4026	-1.154608	-1.569	1.1295	-0.357	0	181	975	1
2026-02-12	15:54:10.150	-32.13	-46.095	8.96	-0.012932	0.471896	-0.963312	-1.6275	1.197	-0.3285	0	181	975	1
2026-02-12	15:54:10.170	-20.335	-26.32	16.765	-0.139812	0.568032	-1.071892	-1.674	1.2525	-0.282	0	181	975	1
2026-02-12	15:54:10.190	-4.97	-22.715	7.91	-0.234972	0.509472	-1.30296	-1.6815	1.2615	-0.2685	0	181	975	1
2026-02-12	15:54:10.210	-16.87	-43.4	3.57	-0.117364	0.337208	-1.1956	-1.692	1.2555	-0.333	0	186	975	1
2026-02-12	15:54:10.230	-27.79	-50.12	19.845	0.004392	0.277672	-0.853512	-1.7685	1.281	-0.42	0	186	975	1
2026-02-12	15:54:10.250	-17.605	-23.275	38.01	-0.14762	0.387716	-0.843996	-1.8405	1.323	-0.4605	0	186	975	1
2026-02-12	15:54:10.270	3.045	-8.225	41.825	-0.208864	0.397964	-1.04554	-1.8195	1.317	-0.459	0	186	975	1
2026-02-12	15:54:10.290	-1.995	-24.045	39.27	-0.136396	0.39894	-1.025532	-1.743	1.281	-0.4755	0	186	975	1
2026-02-12	15:54:10.310	-11.76	-40.04	35.245	-0.115412	0.330132	-0.741028	-1.731	1.278	-0.5025	0	186	975	1
2026-02-12	15:54:10.330	-1.365	-22.225	40.25	-0.11712	0.305244	-0.737612	-1.782	1.302	-0.5085	0	186	975	1
2026-02-12	15:54:10.350	11.2	-4.06	47.845	-0.111752	0.3477	-0.86498	-1.8075	1.305	-0.516	0	186	975	1
2026-02-12	15:54:10.370	11.06	-6.685	47.67	-0.111508	0.358924	-0.835456	-1.788	1.281	-0.531	0	186	975	1
2026-02-12	15:54:10.390	11.62	-14.14	43.645	-0.105164	0.341844	-0.769088	-1.773	1.26	-0.534	0	186	975	1
2026-02-12	15:54:10.410	10.92	-18.41	41.93	-0.0732	0.31842	-0.660508	-1.8	1.2555	-0.5325	0	191	980	1
2026-02-12	15:54:10.430	7.21	-12.25	45.22	-0.027816	0.211548	-0.645868	-1.839	1.2525	-0.5355	0	191	980	1
2026-02-12	15:54:10.450	9.87	-1.575	52.64	-0.00366	0.349164	-0.716872	-1.8405	1.2405	-0.537	0	191	980	1
2026-02-12	15:54:10.470	7.49	-1.82	45.395	-0.043188	0.325008	-0.716872	-1.791	1.218	-0.534	0	191	980	1
2026-02-12	15:54:10.490	4.62	-7.595	38.22	-0.06734399	0.3233	-0.751276	-1.7595	1.185	-0.5145	0	191	980	1
2026-02-12	15:54:10.510	5.075	-17.465	33.285	-0.023424	0.299144	-0.74786	-1.773	1.167	-0.498	0	191	980	1
2026-02-12	15:54:10.530	9.345	-19.18	29.54	-0.049532	0.294752	-0.803004	-1.818	1.176	-0.498	0	191	980	1
2026-02-12	15:54:10.550	8.505	-16.415	26.705	-0.048556	0.314516	-0.9577	-1.8915	1.1925	-0.5055	0	191	980	1
2026-02-12	15:54:10.570	22.435	-21.49	22.155	-0.09028	0.425048	-1.194868	-1.971	1.2195	-0.516	0	191	980	1
2026-02-12	15:54:10.590	34.58	-47.635	5.845	-0.087352	0.392596	-1.271972	-2.088	1.2765	-0.522	0	191	980	1
2026-02-12	15:54:10.610	15.925	-71.225	-6.125	-0.015616	0.232776	-1.012844	-2.349	1.377	-0.5205	0	197	968	1
2026-02-12	15:54:10.630	18.445	-54.53	2.66	0.092476	0.139568	-0.7686	-2.7765	1.53	-0.4755	0	197	968	1
2026-02-12	15:54:10.650	30.8	1.47	20.79	0.062952	0.12322	-0.939644	-3.1575	1.683	-0.411	0	197	968	1
2026-02-12	15:54:10.670	30.975	36.89	37.065	0.0122	0.277428	-1.090924	-3.204	1.7325	-0.4035	0	197	968	1
2026-02-12	15:54:10.690	32.865	52.08	34.055	-0.052704	0.380396	-1.4457	-2.9055	1.6485	-0.4485	0	197	968	1
2026-02-12	15:54:10.710	14.84	27.37	11.13	-0.096136	0.370148	-1.460828	-2.5155	1.5165	-0.5085	0	197	968	1
2026-02-12	15:54:10.730	4.76	5.005	-9.555	-0.02806	0.193492	-1.23342	-2.3325	1.452	-0.543	0	197	968	1
2026-02-12	15:54:10.750	4.865	3.885	-16.695	0.044164	0.217404	-1.023824	-2.3325	1.452	-0.543	0	197	968	1
2026-02-12	15:54:10.770	18.97	15.89	-24.5	0.025132	0.160796	-1.003572	-2.2875	1.413	-0.552	0	197	968	1
2026-02-12	15:54:10.790	29.12	29.225	-28.385	-0.066124	0.22082	-1.105076	-2.2875	1.413	-0.552	0	197	968	1
2026-02-12	15:54:10.810	27.51	27.405	-31.92	-0.12078	0.252784	-1.13216	-2.34	1.4505	-0.546	0	202	971	1
2026-02-12	15:54:10.830	10.22	18.025	-33.495	-0.064416	0.250832	-1.091656	-2.34	1.4505	-0.546	0	202	971	1
2026-02-12	15:54:10.850	-2.52	15.33	-35.7	-0.01464	0.180072	-0.984052	-2.34	1.4505	-0.546	0	202	971	1
2026-02-12	15:54:10.870	-7.875	21.63	-35.14	-0.05002	0.161284	-0.935496	-2.295	1.4475	-0.519	0	202	971	1
2026-02-12	15:54:10.890	3.22	29.435	-33.005	-0.088816	0.217404	-0.97112	-2.202	1.425	-0.4875	0	202	971	1
2026-02-12	15:54:10.910	4.305	24.57	-38.815	-0.064416	0.196908	-1.015284	-2.1105	1.3815	-0.4935	0	202	971	1
2026-02-12	15:54:10.930	-8.68	5.81	-43.54	0.007076	0.137616	-0.782752	-2.064	1.356	-0.5055	0	202	971	1
2026-02-12	15:54:10.950	-11.095	6.86	-42.91	0.022692	0.148108	-0.668316	-2.082	1.3545	-0.498	0	202	971	1
