yyyy-MM-dd	HH:mm:ss.fff	gyrX	gyrY	gyrZ	accX	accY	accZ	magX	magY	magZ	Marker	Energy	Angle	Classification
2026-02-19	12:58:06.210	-5.95	5.46	-4.97	0.034892	0.981612	-0.23424	0.246	-0.4245	0.48	0	170	295	3
2026-02-19	12:58:06.230	-8.19	4.97	-2.73	0.002196	1.008452	-0.249612	0.243	-0.423	0.4875	0	170	295	3
2026-02-19	12:58:06.250	-21.105	13.23	-1.855	-0.005612	0.99918	-0.243268	0.2415	-0.426	0.4785	0	170	295	3
2026-02-19	12:58:06.270	-25.235	5.53	-0.7	-0.02806	0.993812	-0.230336	0.2475	-0.423	0.471	0	170	295	3
2026-02-19	12:58:06.290	-17.78	-3.815	0	-0.037332	0.99918	-0.248636	0.2445	-0.432	0.4755	0	170	295	3
2026-02-19	12:58:06.310	-2.03	-7.455	0.175	-0.037088	1.018456	-0.225212	0.2415	-0.4275	0.462	0	170	295	3
2026-02-19	12:58:06.330	3.815	-5.88	-1.225	-0.009272	1.001376	-0.179584	0.243	-0.432	0.48	0	170	295	3
2026-02-19	12:58:06.350	2.24	-3.605	-2.135	-0.036844	1.017236	-0.139324	0.243	-0.4305	0.4755	0	170	295	3
2026-02-19	12:58:06.370	2.345	-2.625	-3.36	-0.025132	1.00162	-0.185196	0.255	-0.426	0.471	0	170	295	3
2026-02-19	12:58:06.390	2.765	-1.05	-4.13	-0.023668	0.997716	-0.208376	0.2475	-0.426	0.471	0	170	295	3
2026-02-19	12:58:06.410	1.435	-0.315	-3.115	-0.02562	0.995276	-0.185928	0.2445	-0.432	0.4815	0	161	283	2
2026-02-19	12:58:06.430	0.56	-1.89	-2.1	-0.027572	1.003084	-0.202764	0.2445	-0.432	0.4815	0	161	283	2
2026-02-19	12:58:06.450	1.33	-1.75	-2.835	-0.031232	0.994544	-0.206668	0.2445	-0.432	0.4815	0	161	283	2
2026-02-19	12:58:06.470	2.765	-0.14	-3.5	-0.029036	1.009184	-0.193492	0.246	-0.4275	0.4755	0	161	283	2
2026-02-19	12:58:06.490	4.34	-0.14	-3.045	-0.034892	1.021628	-0.200324	0.249	-0.4245	0.4725	0	161	283	2
2026-02-19	12:58:06.510	7.735	0.245	-4.095	-0.034892	1.033096	-0.21472	0.2505	-0.426	0.4725	0	161	283	2
2026-02-19	12:58:06.530	10.22	1.47	-4.9	-0.036112	1.031144	-0.199104	0.252	-0.423	0.474	0	161	283	2
2026-02-19	12:58:06.550	9.52	1.715	-4.375	-0.028792	1.015284	-0.194712	0.249	-0.4275	0.477	0	161	283	2
2026-02-19	12:58:06.570	8.225	3.185	-5.25	-0.025376	0.998448	-0.200568	0.246	-0.4275	0.4785	0	161	283	2
2026-02-19	12:58:06.590	6.265	5.775	-7.105	-0.030012	0.995276	-0.198372	0.252	-0.42	0.4755	0	161	283	2
2026-02-19	12:58:06.610	2.87	6.72	-7.665	-0.030744	0.981856	-0.214232	0.258	-0.4215	0.471	0	150	267	2
2026-02-19	12:58:06.630	-1.155	5.6	-5.74	-0.033672	0.978196	-0.221064	0.261	-0.4245	0.4755	0	150	267	2
2026-02-19	12:58:06.650	-5.39	4.48	-3.29	-0.043432	1.000156	-0.213012	0.2565	-0.423	0.4725	0	150	267	2
2026-02-19	12:58:06.670	-4.62	4.55	-2.45	-0.04148	1.005524	-0.212768	0.255	-0.426	0.4725	0	150	267	2
2026-02-19	12:58:06.690	-0.175	4.41	-3.395	-0.046116	1.009672	-0.199592	0.2565	-0.426	0.4785	0	150	267	2
2026-02-19	12:58:06.710	0.875	4.165	-3.29	-0.029524	0.998448	-0.202276	0.2565	-0.42	0.477	0	150	267	2
2026-02-19	12:58:06.730	-1.365	2.765	-2.065	-0.025376	1.002108	-0.194224	0.261	-0.42	0.48	0	150	267	2
2026-02-19	12:58:06.750	-3.535	1.47	-1.295	-0.03294	1.008208	-0.193736	0.261	-0.4215	0.483	0	150	267	2
2026-02-19	12:58:06.770	-5.53	2.345	-1.47	-0.038552	1.004792	-0.190564	0.258	-0.4245	0.48	0	150	267	2
2026-02-19	12:58:06.790	-4.865	2.765	-1.75	-0.04148	1.008696	-0.191296	0.2595	-0.426	0.477	0	150	267	2
2026-02-19	12:58:06.810	-3.185	2.8	-1.89	-0.031476	1.006744	-0.195932	0.261	-0.426	0.4755	0	138	251	2
2026-02-19	12:58:06.830	-1.54	2.45	-1.68	-0.038796	1.013088	-0.196664	0.261	-0.426	0.4755	0	138	251	2
2026-02-19	12:58:06.850	-2.1	3.29	-2.24	-0.033916	1.008452	-0.192516	0.2565	-0.417	0.4635	0	138	251	2
2026-02-19	12:58:06.870	-2.485	3.36	-2.45	-0.039772	1.00284	-0.192272	0.2565	-0.417	0.4635	0	138	251	2
2026-02-19	12:58:06.890	-4.06	3.675	-1.855	-0.041724	1.003572	-0.191296	0.2505	-0.4185	0.477	0	138	251	2
2026-02-19	12:58:06.910	-3.08	1.82	-0.84	-0.047824	1.009184	-0.20008	0.2565	-0.417	0.4755	0	138	251	2
2026-02-19	12:58:06.930	-0.63	1.05	-0.98	-0.051484	1.013332	-0.198128	0.2595	-0.426	0.4725	0	138	251	2
2026-02-19	12:58:06.950	1.47	1.575	-1.89	-0.04636	1.007232	-0.190076	0.255	-0.4245	0.4845	0	138	251	2
2026-02-19	12:58:06.970	2.59	0.665	-1.785	-0.043188	1.002108	-0.183488	0.252	-0.4245	0.474	0	138	251	2
2026-02-19	12:58:06.990	1.575	0.49	-1.4	-0.042456	1.00162	-0.188856	0.255	-0.4245	0.4755	0	138	251	2
2026-02-19	12:58:07.010	0.385	-0.56	-0.49	-0.045872	0.99552	-0.201788	0.252	-0.423	0.477	0	125	238	2
2026-02-19	12:58:07.030	0.035	-1.54	0.35	-0.04148	1.002108	-0.213988	0.2565	-0.426	0.4695	0	125	238	2
2026-02-19	12:58:07.050	2.87	-2.17	0.385	-0.046848	1.007476	-0.206912	0.2565	-0.4185	0.474	0	125	238	2
2026-02-19	12:58:07.070	3.64	-2.135	-0.035	-0.044408	1.0065	-0.193492	0.264	-0.4245	0.474	0	125	238	2
2026-02-19	12:58:07.090	2.415	-2.345	0.14	-0.0427	1.00894	-0.189588	0.261	-0.426	0.4755	0	125	238	2
2026-02-19	12:58:07.110	1.54	-1.365	-0.105	-0.044896	1.014552	-0.191052	0.2625	-0.426	0.4755	0	125	238	2
2026-02-19	12:58:07.130	2.275	-0.875	-0.665	-0.053924	1.019676	-0.193736	0.255	-0.429	0.4785	0	125	238	2
2026-02-19	12:58:07.150	1.505	-0.84	-0.805	-0.047824	1.008696	-0.19276	0.264	-0.423	0.477	0	125	238	2
2026-02-19	12:58:07.170	-1.12	-0.595	-0.49	-0.045384	1.00528	-0.196176	0.255	-0.4275	0.474	0	125	238	2
2026-02-19	12:58:07.190	-1.54	-0.84	-0.665	-0.046116	1.013088	-0.197396	0.258	-0.4245	0.4725	0	125	238	2
2026-02-19	12:58:05.210	-18.69	5.53	0.945	-0.013908	0.942816	-0.235948	0.261	-0.4035	0.495	0	209	371	3
2026-02-19	12:58:05.230	1.085	-1.295	7.91	0.022936	0.903288	-0.270352	0.273	-0.402	0.4815	0	209	371	3
2026-02-19	12:58:05.250	13.09	6.895	13.44	-0.035136	0.8967	-0.180072	0.2715	-0.4095	0.495	0	209	371	3
2026-02-19	12:58:05.270	24.01	-2.31	25.725	0.054168	1.112884	-0.186416	0.2715	-0.4095	0.495	0	209	371	3
2026-02-19	12:58:05.290	36.925	-20.335	24.185	-0.030744	1.19316	-0.196908	0.2715	-0.4095	0.495	0	209	371	3
2026-02-19	12:58:05.310	3.99	-15.82	8.05	0.032208	1.05896	-0.306464	0.267	-0.4095	0.4935	0	209	371	3
2026-02-19	12:58:05.330	21.7	-15.26	5.285	-0.108336	0.904996	-0.403576	0.2595	-0.4035	0.4905	0	209	371	3
2026-02-19	12:58:05.350	32.13	-1.75	1.75	-0.159576	0.921588	-0.300364	0.2595	-0.4005	0.4935	0	209	371	3
2026-02-19	12:58:05.370	-6.195	14.525	-5.775	-0.179096	1.078236	-0.008052	0.2565	-0.402	0.4995	0	209	371	3
2026-02-19	12:58:05.390	-47.985	-0.805	-2.59	0.027328	0.958188	-0.236924	0.252	-0.399	0.501	0	209	371	3
2026-02-19	12:58:05.410	-26.845	-29.435	8.715	-0.11102	0.863516	-0.590724	0.258	-0.405	0.4965	0	199	350	3
2026-02-19	12:58:05.430	-3.29	6.79	3.185	-0.051728	0.958676	-0.396744	0.2625	-0.4125	0.4905	0	199	350	3
2026-02-19	12:58:05.450	17.08	13.335	2.1	-0.021472	1.0187	-0.227408	0.261	-0.411	0.492	0	199	350	3
2026-02-19	12:58:05.470	30.73	-4.795	4.585	-0.049776	0.965508	-0.286212	0.2625	-0.405	0.4935	0	199	350	3
2026-02-19	12:58:05.490	42.035	-16.205	7.77	0.000732	0.962824	-0.302072	0.2595	-0.405	0.495	0	199	350	3
2026-02-19	12:58:05.510	34.405	-4.13	6.51	-0.019032	0.977708	-0.184952	0.255	-0.4065	0.498	0	199	350	3
2026-02-19	12:58:05.530	9.59	3.85	5.88	0.087108	1.014064	-0.127612	0.258	-0.4035	0.5025	0	199	350	3
2026-02-19	12:58:05.550	6.72	-3.255	10.71	0.015128	1.126304	-0.146644	0.2595	-0.408	0.507	0	199	350	3
2026-02-19	12:58:05.570	-3.36	0.7	4.375	-0.041724	1.03822	-0.314516	0.2565	-0.4095	0.5085	0	199	350	3
2026-02-19	12:58:05.590	-0.805	18.095	0.21	-0.012444	0.97844	-0.292068	0.255	-0.4035	0.5025	0	199	350	3
2026-02-19	12:58:05.610	-21.315	39.305	-3.955	-0.148596	0.978684	-0.354288	0.2505	-0.402	0.504	0	191	332	2
2026-02-19	12:58:05.630	-8.05	-16.52	2.205	-0.139568	0.953796	-0.357948	0.249	-0.408	0.5025	0	191	332	2
2026-02-19	12:58:05.650	-10.325	-3.64	-1.4	-0.010248	0.942328	-0.259128	0.252	-0.4095	0.5055	0	191	332	2
2026-02-19	12:58:05.670	-27.615	5.355	-1.575	-0.061	0.902312	-0.315004	0.252	-0.414	0.5055	0	191	332	2
2026-02-19	12:58:05.690	-14.665	-4.48	4.795	-0.040504	0.940376	-0.364292	0.252	-0.4185	0.4935	0	191	332	2
2026-02-19	12:58:05.710	-13.615	10.465	1.715	-0.010004	0.974292	-0.282552	0.2505	-0.414	0.495	0	191	332	2
2026-02-19	12:58:05.730	5.145	-2.765	4.235	0.01952	0.947452	-0.329888	0.2505	-0.4125	0.498	0	191	332	2
2026-02-19	12:58:05.750	35.49	-16.45	5.74	-0.044164	0.97356	-0.380396	0.2535	-0.4155	0.498	0	191	332	2
2026-02-19	12:58:05.770	30.52	-13.965	5.355	-0.016104	1.018456	-0.144692	0.2535	-0.4155	0.498	0	191	332	2
2026-02-19	12:58:05.790	-12.355	-0.735	8.155	0.031964	0.985028	-0.048556	0.252	-0.408	0.4995	0	191	332	2
2026-02-19	12:58:05.810	-21.14	11.62	5.74	-0.016104	1.022848	-0.105652	0.252	-0.408	0.4995	0	184	318	2
2026-02-19	12:58:05.830	-2.065	4.515	4.095	-0.070272	1.050664	-0.26474	0.2475	-0.4065	0.486	0	184	318	2
2026-02-19	12:58:05.850	-14.42	0.315	5.635	0.0061	0.965264	-0.38674	0.252	-0.4185	0.504	0	184	318	2
2026-02-19	12:58:05.870	2.87	-2.59	8.365	0.022936	0.933544	-0.440176	0.2445	-0.4185	0.501	0	184	318	2
2026-02-19	12:58:05.890	11.095	-8.225	9.87	-0.02928	0.962092	-0.354532	0.2505	-0.4095	0.4935	0	184	318	2
2026-02-19	12:58:05.910	-2.485	-9.52	7.98	-0.031964	1.088484	-0.13054	0.2445	-0.42	0.4965	0	184	318	2
2026-02-19	12:58:05.930	-29.645	-2.135	3.29	0.049288	1.021628	-0.092964	0.2415	-0.42	0.4965	0	184	318	2
2026-02-19	12:58:05.950	-1.75	-8.435	1.155	0.035624	0.934032	-0.265472	0.249	-0.414	0.4815	0	184	318	2
2026-02-19	12:58:05.970	-3.115	1.82	3.15	0.030256	0.955504	-0.352092	0.2475	-0.42	0.4905	0	184	318	2
2026-02-19	12:58:05.990	-11.69	3.29	3.43	-0.010248	1.03822	-0.305244	0.249	-0.4245	0.4935	0	184	318	2
2026-02-19	12:58:14.010	-1.015	-0.245	-1.26	-0.048068	1.016992	-0.173728	0.2595	-0.417	0.471	0	18	11	2
2026-02-19	12:58:14.030	-1.085	-0.665	-1.47	-0.043432	1.022848	-0.182024	0.255	-0.423	0.4785	0	18	11	2
2026-02-19	12:58:14.050	-1.295	0.7	-2.38	-0.04636	1.016016	-0.185196	0.255	-0.4185	0.474	0	18	11	2
2026-02-19	12:58:14.070	-1.645	1.68	-3.255	-0.04392	1.011136	-0.182024	0.2565	-0.4215	0.471	0	18	11	2
2026-02-19	12:58:14.090	-1.645	1.05	-3.185	-0.036356	1.010892	-0.179828	0.258	-0.417	0.474	0	18	11	2
2026-02-19	12:58:14.110	-0.455	0.56	-2.695	-0.034648	1.005524	-0.17568	0.255	-0.423	0.4695	0	18	11	2
2026-02-19	12:58:14.130	2.275	-0.875	-0.665	-0.053924	1.019676	-0.193736	0.255	-0.429	0.4785	0	18	11	2
2026-02-19	12:58:14.150	1.505	-0.84	-0.805	-0.047824	1.008696	-0.19276	0.264	-0.423	0.477	0	18	11	2
2026-02-19	12:58:14.170	38.045	-10.01	-2.275	0.138104	0.944768	-0.301096	0.0795	-0.3975	0.5265	0	18	11	2
2026-02-19	12:58:14.190	31.22	-6.51	-4.41	0.14762	0.933788	-0.353556	-0.099	-0.3675	0.591	0	18	11	2
2026-02-19	12:58:14.210	30.975	-7.105	-2.205	0.167872	0.908412	-0.352824	-0.105	-0.3675	0.6	0	103	60	2
2026-02-19	12:58:14.230	29.505	-9.695	-0.91	0.156404	0.900604	-0.326228	-0.0975	-0.366	0.6	0	103	60	2
2026-02-19	12:58:14.250	24.115	-13.3	0.385	0.149816	0.895236	-0.271572	-0.093	-0.3585	0.6015	0	103	60	2
2026-02-19	12:58:14.270	18.27	-12.985	1.4	0.152988	0.858148	-0.26718	-0.0975	-0.3585	0.603	0	103	60	2
2026-02-19	12:58:14.290	15.75	-11.165	2.03	0.120536	0.873276	-0.282064	-0.0945	-0.3555	0.606	0	103	60	2
2026-02-19	12:58:14.310	15.26	-7.84	2.555	0.095404	0.84668	-0.3172	-0.096	-0.348	0.6135	0	103	60	2
2026-02-19	12:58:14.330	18.62	-2.415	1.225	0.057828	0.859368	-0.341844	-0.096	-0.3435	0.612	0	103	60	2
2026-02-19	12:58:14.350	19.565	-1.33	0.07	0.032208	0.88572	-0.382104	-0.0915	-0.3435	0.6135	0	103	60	2
2026-02-19	12:58:14.370	27.16	-2.345	-1.015	-0.00732	0.86986	-0.415044	-0.093	-0.348	0.618	0	103	60	2
2026-02-19	12:58:14.390	30.94	-0.77	0.105	-0.050508	0.887428	-0.440664	-0.09	-0.3405	0.6165	0	103	60	2
2026-02-19	12:58:14.410	32.69	-0.945	3.36	-0.075396	0.93452	-0.481168	-0.087	-0.333	0.621	0	224	129	2
2026-02-19	12:58:14.430	38.64	-1.855	4.41	-0.059048	0.951844	-0.492392	-0.0885	-0.33	0.6195	0	224	129	2
2026-02-19	12:58:14.450	31.43	-5.845	2.065	0.011224	0.881328	-0.462136	-0.09	-0.3255	0.6225	0	224	129	2
2026-02-19	12:58:14.470	22.645	1.295	-2.135	0.038552	0.86132	-0.449448	-0.093	-0.327	0.636	0	224	129	2
2026-02-19	12:58:14.490	15.26	15.05	-10.675	0.05246	0.896944	-0.499224	-0.09	-0.324	0.636	0	224	129	2
2026-02-19	12:58:14.510	11.655	23.59	-18.55	0.093696	0.918416	-0.516792	-0.084	-0.3195	0.6315	0	224	129	2
2026-02-19	12:58:14.530	2.31	29.19	-26.04	0.113216	0.902556	-0.526308	-0.0915	-0.318	0.6285	0	224	129	2
2026-02-19	12:58:14.550	-12.95	33.6	-27.335	0.12322	0.887428	-0.529236	-0.096	-0.318	0.624	0	224	129	2
2026-02-19	12:58:14.570	-13.16	34.65	-26.39	0.09272	0.947208	-0.548268	-0.0975	-0.3225	0.6225	0	224	129	2
2026-02-19	12:58:14.590	-7.49	22.54	-14.805	0.123464	0.967704	-0.468968	-0.099	-0.3285	0.6255	0	224	129	2
2026-02-19	12:58:14.610	-25.97	4.2	6.195	0.233264	0.97112	-0.301584	-0.1005	-0.3285	0.6315	0	313	197	2
2026-02-19	12:58:14.630	-58.485	-11.2	24.36	0.305	1.039684	-0.21472	-0.1035	-0.327	0.6345	0	313	197	2
2026-02-19	12:58:14.650	-54.81	-8.995	19.74	0.266448	1.042856	-0.265716	-0.1035	-0.327	0.6345	0	313	197	2
2026-02-19	12:58:14.670	-21.455	-1.995	13.86	0.215208	0.989176	-0.27694	-0.1065	-0.3495	0.6165	0	313	197	2
2026-02-19	12:58:14.690	-3.92	-11.2	16.73	0.210328	0.94184	-0.207644	-0.1065	-0.3495	0.6165	0	313	197	2
2026-02-19	12:58:14.710	-19.6	-28.105	13.44	0.235216	0.89548	-0.214232	-0.1005	-0.342	0.609	0	313	197	2
2026-02-19	12:58:14.730	-26.11	-36.435	2.905	0.187636	0.999912	-0.215452	-0.105	-0.3465	0.603	0	313	197	2
2026-02-19	12:58:14.750	-28.7	-35.98	-7.175	0.132736	1.093852	-0.236436	-0.102	-0.348	0.6135	0	313	197	2
2026-02-19	12:58:14.770	-27.545	-38.325	-11.795	0.147376	1.137772	-0.254492	-0.093	-0.3525	0.6045	0	313	197	2
2026-02-19	12:58:14.790	-24.78	-38.395	-5.39	0.207156	1.066768	-0.244732	-0.093	-0.357	0.6045	0	313	197	2
2026-02-19	12:58:14.810	-26.95	-39.865	3.43	0.152744	1.0065	-0.256932	-0.0855	-0.363	0.5985	0	370	246	3
2026-02-19	12:58:14.830	-21.175	-44.87	5.005	0.101504	1.01504	-0.260592	-0.0855	-0.363	0.5985	0	370	246	3
2026-02-19	12:58:14.850	2.275	-56.245	1.365	0.061488	0.967948	-0.24034	-0.0795	-0.3675	0.606	0	370	246	3
2026-02-19	12:58:14.870	0.525	-56.665	-0.63	-0.005124	0.979416	-0.15738	-0.0735	-0.366	0.597	0	370	246	3
2026-02-19	12:58:14.890	-25.935	-53.69	5.11	0.07076	0.873032	-0.109312	-0.0555	-0.363	0.6075	0	370	246	3
2026-02-19	12:58:14.910	0.525	-38.815	11.55	0.098088	0.948428	-0.071736	-0.0645	-0.3615	0.6015	0	370	246	3
2026-02-19	12:58:14.930	-10.395	-5.005	-3.535	0.041968	1.00406	-0.031476	-0.0555	-0.3615	0.6015	0	370	246	3
2026-02-19	12:58:14.950	-30.975	25.025	-13.965	0.068564	1.007964	-0.125416	-0.06	-0.3765	0.5955	0	370	246	3
2026-02-19	12:58:14.970	-12.67	45.605	-33.005	-0.020008	1.137772	-0.099064	-0.0495	-0.366	0.6	0	370	246	3
2026-02-19	12:58:14.990	-13.965	51.905	-48.055	-0.036844	1.086044	-0.19276	-0.0585	-0.381	0.6	0	370	246	3
2026-02-19	12:58:15.010	18.2	17.815	-43.05	-0.0793	0.940864	-0.244976	-0.0555	-0.375	0.5925	0	396	260	3
2026-02-19	12:58:15.030	28.49	-9.31	-24.64	-0.044164	0.99796	-0.371612	-0.0615	-0.375	0.591	0	396	260	3
2026-02-19	12:58:15.050	29.75	-16.87	-17.535	-0.010492	1.015772	-0.380396	-0.0585	-0.363	0.591	0	396	260	3
2026-02-19	12:58:15.070	18.375	-13.825	-11.27	0.025376	1.012112	-0.36112	-0.0525	-0.372	0.591	0	396	260	3
2026-02-19	12:58:15.090	6.825	1.225	-0.735	0.049044	0.993568	-0.31476	-0.0465	-0.3705	0.6045	0	396	260	3
2026-02-19	12:58:15.110	-21.49	24.045	0.91	0.060512	0.978196	-0.272304	-0.048	-0.357	0.6075	0	396	260	3
2026-02-19	12:58:15.130	-27.755	34.23	-1.085	0.037332	1.051884	-0.315492	-0.051	-0.366	0.6015	0	396	260	3
2026-02-19	12:58:15.150	-17.99	32.69	-2.555	0.013664	1.038464	-0.356484	-0.045	-0.369	0.5985	0	396	260	3
2026-02-19	12:58:15.170	14.245	15.75	3.325	0.03294	0.99674	-0.45506	-0.0525	-0.3675	0.591	0	396	260	3
2026-02-19	12:58:15.190	32.305	3.29	3.85	0.033916	1.010404	-0.507764	-0.054	-0.375	0.591	0	396	260	3
2026-02-19	12:58:15.210	46.165	-16.065	7.91	-0.0427	0.948672	-0.477752	-0.054	-0.375	0.591	0	399	262	3
2026-02-19	12:58:15.230	50.435	-28	11.76	-0.088084	0.935496	-0.356484	-0.054	-0.3675	0.5955	0	399	262	3
2026-02-19	12:58:15.250	47.74	-23.975	12.285	-0.116144	0.933056	-0.30134	-0.057	-0.354	0.603	0	399	262	3
2026-02-19	12:58:15.270	39.165	-16.625	8.89	-0.145424	0.909144	-0.305	-0.057	-0.348	0.6135	0	399	262	3
2026-02-19	12:58:15.290	26.04	-7.63	8.4	-0.136884	0.834724	-0.293776	-0.0525	-0.3465	0.618	0	399	262	3
2026-02-19	12:58:15.310	9.065	7.175	7.7	-0.117852	0.856196	-0.369172	-0.0525	-0.342	0.6195	0	399	262	3
2026-02-19	12:58:15.330	-2.45	20.125	4.375	-0.14518	0.934764	-0.448228	-0.0525	-0.3435	0.627	0	399	262	3
2026-02-19	12:58:15.350	-4.375	21.28	2.835	-0.167628	0.914268	-0.464332	-0.0555	-0.3465	0.6255	0	399	262	3
2026-02-19	12:58:15.370	5.005	11.095	5.53	-0.186172	0.998936	-0.463844	-0.063	-0.3465	0.621	0	399	262	3
2026-02-19	12:58:15.390	22.085	1.295	2.765	-0.15494	1.101172	-0.41114	-0.063	-0.342	0.621	0	399	262	3
2026-02-19	12:58:15.410	35.035	3.43	-2.59	-0.042944	1.109468	-0.39772	-0.0645	-0.3375	0.621	0	385	277	3
2026-02-19	12:58:15.430	34.125	12.285	-5.32	0.024156	1.03212	-0.34526	-0.0675	-0.3345	0.6255	0	385	277	3
2026-02-19	12:58:15.450	22.4	26.11	-6.44	0.009028	1.115324	-0.367708	-0.0705	-0.336	0.6345	0	385	277	3
2026-02-19	12:58:15.470	7.42	43.365	-7.175	0.056852	1.036756	-0.380396	-0.0735	-0.3345	0.633	0	385	277	3
2026-02-19	12:58:15.490	-1.155	45.36	-3.99	0.06734399	0.932324	-0.373808	-0.0735	-0.3315	0.6255	0	385	277	3
2026-02-19	12:58:15.510	-5.32	37.66	-0.035	0.109068	0.922808	-0.325984	-0.078	-0.333	0.627	0	385	277	3
2026-02-19	12:58:15.530	-19.04	28.35	8.19	0.21228	0.965996	-0.25376	-0.0855	-0.336	0.627	0	385	277	3
2026-02-19	12:58:15.550	-49.7	11.235	26.88	0.245708	0.976976	-0.166408	-0.09	-0.3345	0.624	0	385	277	3
2026-02-19	12:58:15.570	-57.995	4.585	34.51	0.281088	0.953796	-0.17446	-0.09	-0.3375	0.618	0	385	277	3
2026-02-19	12:58:15.590	-53.025	2.24	32.375	0.33062	0.962092	-0.156648	-0.093	-0.3465	0.6075	0	385	277	3
2026-02-19	12:58:15.610	-55.79	3.955	29.855	0.342332	0.929152	-0.125416	-0.099	-0.354	0.597	0	362	295	3
2026-02-19	12:58:15.630	-67.165	4.83	30.765	0.3233	0.936716	-0.167384	-0.1035	-0.3585	0.594	0	362	295	3
2026-02-19	12:58:15.650	-34.16	8.05	17.15	0.258152	0.932812	-0.268156	-0.108	-0.3645	0.5895	0	362	295	3
2026-02-19	12:58:15.670	-0.875	27.335	0.735	0.258396	0.99552	-0.267424	-0.1095	-0.369	0.585	0	362	295	3
2026-02-19	12:58:15.690	12.11	14.91	0.77	0.289384	0.970632	-0.35868	-0.111	-0.3705	0.5835	0	362	295	3
2026-02-19	12:58:15.710	30.45	-7.84	5.88	0.243268	0.933544	-0.318908	-0.1155	-0.372	0.5805	0	362	295	3
2026-02-19	12:58:15.730	23.38	-6.72	5.67	0.16714	1.0309	-0.195688	-0.1155	-0.372	0.5805	0	362	295	3
2026-02-19	12:58:15.750	24.395	0.14	1.155	0.142252	1.008452	-0.226432	-0.1155	-0.372	0.5805	0	362	295	3
2026-02-19	12:58:15.770	27.825	2.1	-1.82	0.11224	0.944524	-0.21838	-0.1155	-0.372	0.5805	0	362	295	3
2026-02-19	12:58:15.790	26.425	3.22	-3.115	0.100528	0.939156	-0.194468	-0.1155	-0.372	0.5805	0	362	295	3
2026-02-19	12:58:15.810	16.24	16.975	-9.8	0.10858	0.978684	-0.129076	-0.1155	-0.351	0.5895	0	336	297	3
2026-02-19	12:58:15.830	9.625	28.7	-16.31	0.110776	1.0004	-0.135664	-0.1155	-0.3585	0.6015	0	336	297	3
2026-02-19	12:58:15.850	9.17	14.42	-12.635	0.137128	0.983076	-0.182268	-0.12	-0.354	0.5835	0	336	297	3
2026-02-19	12:58:15.870	5.25	-6.265	-6.79	0.190076	0.972828	-0.216672	-0.1155	-0.354	0.588	0	336	297	3
2026-02-19	12:58:15.890	2.135	-22.4	-2.31	0.217404	0.969412	-0.23668	-0.1185	-0.351	0.5895	0	336	297	3
2026-02-19	12:58:15.910	2.205	-29.575	-1.26	0.20374	1.018212	-0.2562	-0.114	-0.357	0.5865	0	336	297	3
2026-02-19	12:58:15.930	4.515	-36.05	-0.07	0.21472	1.022848	-0.26596	-0.108	-0.3525	0.5895	0	336	297	3
2026-02-19	12:58:15.950	2.345	-37.625	0.7	0.253272	0.99796	-0.233508	-0.102	-0.351	0.588	0	336	297	3
2026-02-19	12:58:15.970	-0.98	-29.75	-0.63	0.25864	0.991616	-0.253516	-0.1005	-0.3555	0.597	0	336	297	3
2026-02-19	12:58:15.990	-0.595	-24.71	0.28	0.2562	0.963312	-0.31232	-0.096	-0.3585	0.588	0	336	297	3
2026-02-19	12:58:16.010	0.42	-22.26	0.91	0.238876	0.966728	-0.370636	-0.093	-0.3465	0.5895	0	310	287	3
2026-02-19	12:58:16.030	4.515	-23.52	2.17	0.228628	0.92842	-0.388692	-0.096	-0.3705	0.5895	0	310	287	3
2026-02-19	12:58:16.050	4.83	-26.6	4.935	0.215696	0.891088	-0.35014	-0.1035	-0.357	0.6075	0	310	287	3
2026-02-19	12:58:16.070	3.99	-28.385	8.575	0.228872	0.897676	-0.343064	-0.0885	-0.3585	0.603	0	310	287	3
2026-02-19	12:58:16.090	4.13	-28.875	11.025	0.210816	0.914512	-0.335256	-0.084	-0.3585	0.6015	0	310	287	3
2026-02-19	12:58:16.110	4.69	-28.7	14.42	0.206424	0.905728	-0.295728	-0.078	-0.348	0.6015	0	310	287	3
2026-02-19	12:58:16.130	3.99	-24.185	15.68	0.194224	0.914756	-0.280112	-0.081	-0.3525	0.5895	0	310	287	3
2026-02-19	12:58:16.150	2.975	-20.475	16.24	0.179584	0.952576	-0.299876	-0.078	-0.3555	0.603	0	310	287	3
2026-02-19	12:58:16.170	1.26	-22.05	17.71	0.162016	0.959652	-0.31232	-0.0855	-0.351	0.609	0	310	287	3
2026-02-19	12:58:16.190	0.385	-23.975	18.69	0.127368	0.941352	-0.334524	-0.078	-0.345	0.6015	0	310	287	3
2026-02-19	12:58:16.210	0.91	-24.08	17.99	0.0793	0.929152	-0.343796	-0.0735	-0.351	0.5985	0	283	284	3
2026-02-19	12:58:16.230	1.505	-20.685	16.24	0.039284	0.911096	-0.343064	-0.0825	-0.3525	0.6105	0	283	284	3
2026-02-19	12:58:16.250	2.905	-16.45	15.015	0.018788	0.896456	-0.368684	-0.075	-0.339	0.609	0	283	284	3
2026-02-19	12:58:16.270	5.775	-10.185	11.095	-0.021228	0.887916	-0.41236	-0.081	-0.342	0.6015	0	283	284	3
2026-02-19	12:58:16.290	12.355	-2.065	4.585	-0.061244	0.879376	-0.42334	-0.0825	-0.339	0.6	0	283	284	3
2026-02-19	12:58:16.310	20.475	5.635	-1.26	-0.08906	0.833016	-0.434808	-0.0705	-0.3405	0.606	0	283	284	3
2026-02-19	12:58:16.330	20.86	11.62	-4.725	-0.111508	0.845216	-0.464576	-0.0705	-0.3405	0.606	0	283	284	3
2026-02-19	12:58:16.350	25.725	18.585	-11.27	-0.12688	0.871568	-0.52582	-0.0705	-0.3405	0.606	0	283	284	3
2026-02-19	12:58:16.370	28.035	24.675	-14.735	-0.104188	0.834968	-0.557052	-0.0795	-0.339	0.606	0	283	284	3
2026-02-19	12:58:16.390	22.085	26.53	-13.965	-0.03416	0.826672	-0.56974	-0.0885	-0.3315	0.606	0	283	284	3
2026-02-19	12:58:16.410	18.865	24.745	-11.165	0.04392	0.83204	-0.540704	-0.0885	-0.327	0.606	0	259	299	3
2026-02-19	12:58:16.430	10.01	18.06	-6.37	0.108092	0.845216	-0.499956	-0.087	-0.3255	0.609	0	259	299	3
2026-02-19	12:58:16.450	5.355	11.76	1.785	0.143228	0.865224	-0.47458	-0.093	-0.324	0.612	0	259	299	3
2026-02-19	12:58:16.470	0.945	6.65	7.77	0.140544	0.875228	-0.425536	-0.0975	-0.327	0.609	0	259	299	3
2026-02-19	12:58:16.490	-9.975	7.105	8.12	0.120536	0.85278	-0.400892	-0.0945	-0.3285	0.6045	0	259	299	3
2026-02-19	12:58:16.510	-5.075	12.81	9.03	0.08295999	0.869372	-0.395768	-0.099	-0.33	0.603	0	259	299	3
2026-02-19	12:58:16.530	2.205	22.435	8.295	0.03172	0.89792	-0.416752	-0.1005	-0.33	0.6015	0	259	299	3
2026-02-19	12:58:16.550	20.965	29.295	7.385	0.021228	0.944768	-0.4636	-0.102	-0.327	0.6015	0	259	299	3
2026-02-19	12:58:16.570	41.615	29.925	2.485	0.018544	0.987224	-0.49776	-0.1095	-0.324	0.6105	0	259	299	3
2026-02-19	12:58:16.590	50.785	35.595	-3.465	0.02318	0.964776	-0.503128	-0.117	-0.3195	0.612	0	259	299	3
2026-02-19	12:58:16.610	50.12	47.355	-2.975	0.087596	0.940132	-0.459452	-0.117	-0.3135	0.6045	0	240	332	2
2026-02-19	12:58:16.630	33.985	50.295	-0.035	0.145668	0.897432	-0.366732	-0.1185	-0.312	0.606	0	240	332	2
2026-02-19	12:58:16.650	2.45	41.79	13.405	0.414068	0.98942	-0.277672	-0.1275	-0.3105	0.6105	0	240	332	2
2026-02-19	12:58:16.670	-37.66	37.765	12.145	0.653676	1.241228	-0.199836	-0.135	-0.309	0.6075	0	240	332	2
2026-02-19	12:58:16.690	-100.555	39.515	-9.73	0.672708	1.309548	-0.25498	-0.1395	-0.309	0.597	0	240	332	2
2026-02-19	12:58:16.710	-108.01	34.23	-1.435	0.558028	1.22854	-0.463356	-0.141	-0.3195	0.585	0	240	332	2
2026-02-19	12:58:16.730	-6.755	9.835	-0.98	0.448472	1.08458	-0.482388	-0.1425	-0.333	0.5775	0	240	332	2
2026-02-19	12:58:16.750	39.62	-31.885	-9.485	0.363316	0.924272	-0.409432	-0.147	-0.333	0.579	0	240	332	2
2026-02-19	12:58:16.770	6.09	-58.52	-18.725	0.267424	0.956968	-0.345992	-0.15	-0.33	0.5805	0	240	332	2
2026-02-19	12:58:16.790	-10.5	-75.67	-29.785	0.162504	1.048468	-0.285724	-0.15	-0.33	0.5805	0	240	332	2
2026-02-19	12:58:16.810	14.315	-68.95	-38.29	0.041724	1.043832	-0.24278	-0.15	-0.33	0.5805	0	226	357	3
2026-02-19	12:58:16.830	22.4	-63.21	-34.825	-0.018544	0.979904	-0.232776	-0.15	-0.33	0.5805	0	226	357	3
2026-02-19	12:58:16.850	9.835	-56.595	-27.405	-0.097356	0.816424	-0.198128	-0.105	-0.3315	0.582	0	226	357	3
2026-02-19	12:58:16.870	-19.215	-39.62	-12.74	0.00244	0.81496	-0.226676	-0.087	-0.3315	0.5865	0	226	357	3
2026-02-19	12:58:16.890	-17.745	-24.78	-11.865	0.066856	0.922564	-0.228872	-0.0885	-0.3345	0.5895	0	226	357	3
2026-02-19	12:58:16.910	-29.26	-0.245	-18.865	0.037332	0.9882	-0.228872	-0.081	-0.339	0.588	0	226	357	3
2026-02-19	12:58:16.930	-77.385	21.385	-23.835	-0.062464	0.958188	-0.1891	-0.0855	-0.3405	0.582	0	226	357	3
2026-02-19	12:58:16.950	-70.315	32.375	-16.87	-0.060268	0.952576	-0.159576	-0.0855	-0.351	0.5685	0	226	357	3
2026-02-19	12:58:16.970	-30.415	32.375	-14.14	-0.088328	0.972096	-0.212768	-0.081	-0.36	0.561	0	226	357	3
2026-02-19	12:58:16.990	-8.89	39.445	-9.975	0.022936	1.121668	-0.28548	-0.0825	-0.351	0.555	0	226	357	3
2026-02-19	12:58:17.010	15.645	42.7	-8.295	0.0915	1.16754	-0.314516	-0.0825	-0.3615	0.546	0	219	358	3
2026-02-19	12:58:17.030	7.77	56.14	-14.805	0.152256	1.097512	-0.301584	-0.087	-0.3675	0.5595	0	219	358	3
2026-02-19	12:58:17.050	5.985	45.22	-19.075	0.072712	0.950868	-0.310124	-0.09	-0.3615	0.549	0	219	358	3
2026-02-19	12:58:17.070	19.67	27.09	-18.55	-0.042456	0.931592	-0.307196	-0.0825	-0.363	0.552	0	219	358	3
2026-02-19	12:58:17.090	40.145	0.805	-11.34	-0.076616	0.939644	-0.379908	-0.0885	-0.3555	0.5445	0	219	358	3
2026-02-19	12:58:17.110	61.67	-16.03	-8.82	-0.0305	0.91866	-0.288896	-0.0885	-0.363	0.5505	0	219	358	3
2026-02-19	12:58:17.130	44.485	-9.205	-10.22	0.027816	0.933788	-0.168848	-0.09	-0.3555	0.5625	0	219	358	3
2026-02-19	12:58:17.150	34.16	8.925	-12.215	0.063684	0.97722	-0.237412	-0.0795	-0.3465	0.567	0	219	358	3
2026-02-19	12:58:17.170	19.145	21.28	-15.155	0.091988	1.031388	-0.31598	-0.0855	-0.354	0.57	0	219	358	3
2026-02-19	12:58:17.190	5.285	27.02	-15.47	0.106384	0.965508	-0.35746	-0.0825	-0.3495	0.5745	0	219	358	3
2026-02-19	12:58:17.210	-7.49	24.465	-9.415	0.110532	0.953552	-0.395768	-0.087	-0.351	0.573	0	214	344	3
2026-02-19	12:58:17.230	-8.995	14.84	-1.89	0.105408	0.93696	-0.469212	-0.0855	-0.3525	0.576	0	214	344	3
2026-02-19	12:58:17.250	12.32	-3.815	4.725	0.108824	0.866444	-0.502396	-0.078	-0.3495	0.5595	0	214	344	3
2026-02-19	12:58:17.270	34.055	-18.935	5.04	0.068564	0.928664	-0.4514	-0.0795	-0.3525	0.564	0	214	344	3
2026-02-19	12:58:17.290	45.815	-23.555	6.3	0.01098	1.006012	-0.441884	-0.081	-0.3555	0.573	0	214	344	3
2026-02-19	12:58:17.310	51.03	-23.765	2.87	-0.088816	1.014308	-0.40138	-0.0765	-0.342	0.5685	0	214	344	3
2026-02-19	12:58:17.330	55.3	-20.335	-3.29	-0.178852	0.982344	-0.350872	-0.0735	-0.333	0.579	0	214	344	3
2026-02-19	12:58:17.350	51.765	-10.955	-8.435	-0.165432	0.866444	-0.248148	-0.0765	-0.3435	0.5865	0	214	344	3
2026-02-19	12:58:17.370	30.695	8.4	-11.025	-0.08295999	0.86376	-0.234972	-0.0615	-0.327	0.588	0	214	344	3
2026-02-19	12:58:17.390	7.175	21.28	-13.86	-0.046116	0.901092	-0.365756	-0.0615	-0.3285	0.603	0	214	344	3
2026-02-19	12:58:17.410	-11.34	24.64	-13.405	-0.03782	0.891576	-0.488976	-0.0645	-0.3195	0.5985	0	211	340	3
2026-02-19	12:58:17.430	-24.885	20.79	-6.195	-0.055632	0.93208	-0.555832	-0.0585	-0.339	0.5895	0	211	340	3
2026-02-19	12:58:17.450	-28.77	24.115	-4.48	-0.007808	0.959896	-0.509228	-0.0585	-0.339	0.5895	0	211	340	3
2026-02-19	12:58:17.470	-20.09	26.6	-1.54	0.080764	0.884256	-0.543632	-0.0585	-0.339	0.5895	0	211	340	3
2026-02-19	12:58:17.490	-2.38	25.69	1.19	0.074664	0.77836	-0.538508	-0.0615	-0.342	0.5835	0	211	340	3
2026-02-19	12:58:17.510	14.14	17.43	-0.595	0.063684	0.788608	-0.444812	-0.0615	-0.3435	0.579	0	211	340	3
2026-02-19	12:58:17.530	22.61	10.955	1.155	0.072224	0.916464	-0.360144	-0.063	-0.342	0.582	0	211	340	3
2026-02-19	12:58:17.550	19.845	10.045	2.59	0.092476	1.0248	-0.324032	-0.069	-0.3405	0.5835	0	211	340	3
2026-02-19	12:58:17.570	-8.19	13.265	7.105	0.148596	1.086532	-0.292068	-0.0705	-0.3345	0.5895	0	211	340	3
2026-02-19	12:58:17.590	-31.745	10.57	14.385	0.217404	1.10044	-0.281576	-0.0705	-0.3405	0.591	0	211	340	3
2026-02-19	12:58:17.610	-45.885	0.245	28	0.267912	1.04066	-0.238388	-0.075	-0.3525	0.5865	0	208	349	3
2026-02-19	12:58:17.630	-66.29	-10.325	41.615	0.333792	1.028704	-0.165432	-0.078	-0.3525	0.5805	0	208	349	3
2026-02-19	12:58:17.650	-88.165	-23.695	49.455	0.39528	1.01748	-0.159088	-0.078	-0.3525	0.57	0	208	349	3
2026-02-19	12:58:17.670	-72.31	-22.855	40.67	0.40992	0.98942	-0.196908	-0.075	-0.3585	0.564	0	208	349	3
2026-02-19	12:58:17.690	-23.905	-4.935	27.335	0.371612	0.99552	-0.308416	-0.0795	-0.3645	0.564	0	208	349	3
2026-02-19	12:58:17.710	-0.63	-6.93	29.61	0.38918	0.94306	-0.35746	-0.0825	-0.3705	0.558	0	208	349	3
2026-02-19	12:58:17.730	3.85	-15.645	33.53	0.398452	0.933056	-0.350872	-0.081	-0.3735	0.555	0	208	349	3
2026-02-19	12:58:17.750	4.97	-14	28.28	0.333792	0.949404	-0.291336	-0.084	-0.3705	0.558	0	208	349	3
2026-02-19	12:58:17.770	-0.42	-15.68	27.23	0.274744	0.982588	-0.189344	-0.0885	-0.3675	0.561	0	208	349	3
2026-02-19	12:58:17.790	-19.18	-6.545	22.365	0.227164	0.967216	-0.11346	-0.09	-0.3645	0.5625	0	208	349	3
2026-02-19	12:58:17.810	-18.095	-2.205	19.88	0.177876	0.963068	-0.124928	-0.0885	-0.366	0.5595	0	206	349	3
2026-02-19	12:58:17.830	3.64	-6.545	17.78	0.1464	0.949892	-0.16836	-0.09	-0.3615	0.558	0	206	349	3
2026-02-19	12:58:17.850	9.135	-14.84	16.065	0.101748	0.902068	-0.214964	-0.0915	-0.357	0.5565	0	206	349	3
2026-02-19	12:58:17.870	11.06	-22.785	14.28	0.078812	0.865468	-0.247904	-0.087	-0.3615	0.5595	0	206	349	3
2026-02-19	12:58:17.890	11.585	-23.87	11.095	0.065636	0.867664	-0.293776	-0.087	-0.3615	0.5595	0	206	349	3
2026-02-19	12:58:17.910	12.915	-21.735	7.175	0.070028	0.890112	-0.362584	-0.087	-0.3615	0.5595	0	206	349	3
2026-02-19	12:58:17.930	15.155	-10.71	-0.735	0.105408	0.923296	-0.407968	-0.093	-0.363	0.5595	0	206	349	3
2026-02-19	12:58:17.950	15.295	-2.45	-5.915	0.160796	0.927932	-0.380396	-0.084	-0.3555	0.5625	0	206	349	3
2026-02-19	12:58:17.970	7.07	-1.295	-6.195	0.190808	0.973072	-0.32818	-0.0915	-0.3525	0.5715	0	206	349	3
2026-02-19	12:58:17.990	1.19	1.47	-6.895	0.208132	0.998692	-0.343064	-0.0885	-0.3585	0.558	0	206	349	3
2026-02-19	12:58:18.010	2.45	3.99	-8.085	0.232288	0.96624	-0.38552	-0.084	-0.363	0.5715	0	204	338	3
2026-02-19	12:58:18.030	10.675	3.99	-8.4	0.237168	0.932568	-0.43188	-0.087	-0.3615	0.5685	0	204	338	3
2026-02-19	12:58:18.050	17.71	4.935	-10.08	0.2013	0.902068	-0.420656	-0.084	-0.3615	0.564	0	204	338	3
2026-02-19	12:58:18.070	23.905	9.66	-14.735	0.142984	0.913048	-0.403332	-0.075	-0.354	0.5715	0	204	338	3
2026-02-19	12:58:18.090	26.075	11.095	-18.9	0.074908	0.926712	-0.372344	-0.0855	-0.357	0.573	0	204	338	3
2026-02-19	12:58:18.110	23.38	7.28	-16.52	0.06954	0.868152	-0.395524	-0.081	-0.348	0.579	0	204	338	3
2026-02-19	12:58:18.130	25.83	7.945	-17.29	0.101992	0.840092	-0.423096	-0.084	-0.3585	0.5805	0	204	338	3
2026-02-19	12:58:18.150	24.045	13.16	-15.75	0.131272	0.862784	-0.454816	-0.0825	-0.345	0.579	0	204	338	3
2026-02-19	12:58:18.170	20.09	14.385	-13.23	0.101748	0.896456	-0.459208	-0.0735	-0.3495	0.5805	0	204	338	3
2026-02-19	12:58:18.190	11.83	14.315	-11.305	0.088572	0.869616	-0.437004	-0.072	-0.3555	0.585	0	204	338	3
2026-02-19	12:58:18.210	13.335	12.145	-10.185	0.090524	0.878888	-0.469456	-0.0855	-0.3555	0.591	0	201	338	3
2026-02-19	12:58:18.230	16.905	10.185	-9.24	0.138104	0.880596	-0.526308	-0.078	-0.3495	0.585	0	201	338	3
2026-02-19	12:58:18.250	18.445	9.135	-7.525	0.178364	0.842532	-0.53192	-0.0795	-0.3435	0.594	0	201	338	3
2026-02-19	12:58:18.270	17.325	10.92	-9.17	0.191052	0.827892	-0.510936	-0.087	-0.3465	0.591	0	201	338	3
2026-02-19	12:58:18.290	12.705	10.22	-11.165	0.205936	0.835212	-0.488732	-0.0855	-0.3435	0.5985	0	201	338	3
2026-02-19	12:58:18.310	8.26	2.66	-11.165	0.178852	0.828624	-0.433832	-0.075	-0.3285	0.5895	0	201	338	3
2026-02-19	12:58:18.330	2.275	-3.92	-9.345	0.16714	0.803736	-0.376248	-0.0795	-0.339	0.5925	0	201	338	3
2026-02-19	12:58:18.350	-7.525	-4.69	-8.715	0.13054	0.843508	-0.347212	-0.0765	-0.339	0.585	0	201	338	3
2026-02-19	12:58:18.370	-14.735	6.86	-12.53	0.087352	0.8479	-0.367952	-0.0735	-0.3375	0.597	0	201	338	3
2026-02-19	12:58:18.390	-20.37	12.355	-12.635	0.041724	0.840336	-0.422608	-0.0765	-0.345	0.5955	0	201	338	3
2026-02-19	12:58:18.410	-17.605	18.165	-14.84	-0.019032	0.891088	-0.526796	-0.0795	-0.3435	0.5985	0	196	357	3
2026-02-19	12:58:18.430	-4.62	24.15	-18.585	-0.05246	0.896944	-0.589992	-0.0705	-0.351	0.5805	0	196	357	3
2026-02-19	12:58:18.450	-3.605	23.485	-17.465	-0.031232	0.9333	-0.568764	-0.0825	-0.3525	0.591	0	196	357	3
2026-02-19	12:58:18.470	-23.52	29.225	-19.95	0.110044	0.980636	-0.470188	-0.075	-0.3525	0.588	0	196	357	3
2026-02-19	12:58:18.490	-34.615	35.56	-27.195	0.128344	1.035536	-0.417484	-0.0795	-0.3615	0.579	0	196	357	3
2026-02-19	12:58:18.510	-29.54	42.14	-34.16	0.053192	1.081408	-0.4392	-0.0735	-0.366	0.5745	0	196	357	3
2026-02-19	12:58:18.530	-32.655	35.175	-29.295	0.120536	1.007964	-0.330376	-0.078	-0.3615	0.5775	0	196	357	3
2026-02-19	12:58:18.550	-74.375	1.015	-6.79	0.276208	0.970388	-0.208132	-0.078	-0.3615	0.5775	0	196	357	3
2026-02-19	12:58:18.570	-99.225	-37.275	13.93	0.38796	1.115324	-0.149816	-0.078	-0.3615	0.5775	0	196	357	3
2026-02-19	12:58:18.590	-89.425	-51.135	28.28	0.307196	1.157292	-0.217404	-0.0735	-0.3765	0.561	0	196	357	3
2026-02-19	12:58:18.610	-57.505	-44.835	34.02	0.28426	1.099464	-0.127612	-0.069	-0.39	0.546	0	191	375	3
2026-02-19	12:58:18.630	-93.205	-40.915	15.645	0.291092	1.014796	-0.057584	-0.0705	-0.3915	0.5355	0	191	375	3
2026-02-19	12:58:18.650	-100.8	-42.7	-16.8	0.216916	1.0553	-0.034892	-0.069	-0.4005	0.5265	0	191	375	3
2026-02-19	12:58:18.670	-72.905	-60.2	-33.425	0.115656	1.187304	-0.131516	-0.0585	-0.414	0.516	0	191	375	3
2026-02-19	12:58:18.690	12.425	-72.135	-46.34	0.040748	1.241228	-0.06222	-0.0465	-0.4245	0.5055	0	191	375	3
2026-02-19	12:58:18.710	48.51	-77.07	-20.93	0.009028	1.015528	-0.059536	-0.042	-0.423	0.513	0	191	375	3
2026-02-19	12:58:18.730	71.61	-66.255	-5.425	0.023912	0.971852	-0.061732	-0.039	-0.4155	0.525	0	191	375	3
2026-02-19	12:58:18.750	49.56	-51.975	-5.915	-0.00122	1.008208	-0.031964	-0.0255	-0.411	0.5355	0	191	375	3
2026-02-19	12:58:18.770	5.39	-27.055	-25.445	-0.077104	1.022604	-0.008784	-0.0165	-0.4065	0.5385	0	191	375	3
2026-02-19	12:58:18.790	2.695	-12.11	-35.42	-0.12566	1.004304	-0.035624	-0.0165	-0.405	0.54	0	191	375	3
2026-02-19	12:58:18.810	30.975	-11.655	-17.885	-0.105408	0.9699	-0.03538	-0.009	-0.4035	0.5415	0	189	356	3
2026-02-19	12:58:18.830	6.755	-3.15	-8.47	-0.070028	0.84546	-0.083204	-0.0015	-0.4005	0.5445	0	189	356	3
2026-02-19	12:58:18.850	-18.2	9.415	-12.53	-0.07124799	0.978928	-0.12932	-0.0045	-0.4035	0.5445	0	189	356	3
2026-02-19	12:58:18.870	2.065	17.92	-21.315	-0.083448	1.113616	-0.190076	-0.006	-0.405	0.537	0	189	356	3
2026-02-19	12:58:18.890	9.205	26.355	-27.335	-0.050264	1.066768	-0.159088	-0.0045	-0.4065	0.54	0	189	356	3
2026-02-19	12:58:18.910	5.88	37.38	-29.82	-0.042944	1.01748	-0.145912	0	-0.411	0.5445	0	189	356	3
2026-02-19	12:58:18.930	-4.69	47.075	-30.275	-0.0366	0.996008	-0.17446	0.0045	-0.4125	0.543	0	189	356	3
2026-02-19	12:58:18.950	-5.775	48.055	-25.935	-0.002196	0.974292	-0.250832	0.0045	-0.4125	0.543	0	189	356	3
2026-02-19	12:58:18.970	-4.095	43.925	-22.295	0.012444	1.026264	-0.340136	0.0045	-0.4125	0.543	0	189	356	3
2026-02-19	12:58:18.990	0.35	36.4	-18.97	0.031476	1.164368	-0.44164	-0.0015	-0.4215	0.546	0	189	356	3
2026-02-19	12:58:19.010	27.51	12.495	-17.78	0.07076	1.029436	-0.506788	-0.0045	-0.408	0.5385	0	190	313	3
2026-02-19	12:58:19.030	46.9	-8.68	-14.665	0.018544	0.804956	-0.471896	-0.0075	-0.408	0.552	0	190	313	3
2026-02-19	12:58:19.050	52.185	-20.23	-4.795	-0.058316	0.96014	-0.414556	-0.003	-0.4005	0.558	0	190	313	3
2026-02-19	12:58:19.070	48.895	-25.165	-4.48	-0.279624	1.032608	-0.130784	0.0015	-0.4005	0.564	0	190	313	3
2026-02-19	12:58:19.090	16.485	-16.065	-4.235	-0.07686	1.06018	-0.213012	0.003	-0.3945	0.567	0	190	313	3
2026-02-19	12:58:19.110	59.15	-24.08	3.745	0.039528	0.924272	-0.2684	0.0075	-0.396	0.5655	0	190	313	3
2026-02-19	12:58:19.130	28.665	7.735	-6.86	-0.130296	0.971608	-0.210084	0.006	-0.393	0.567	0	190	313	3
2026-02-19	12:58:19.150	33.845	14.315	-13.79	-0.216184	1.033584	-0.281332	0.003	-0.387	0.5865	0	190	313	3
2026-02-19	12:58:19.170	71.995	-0.035	-17.29	-0.162748	0.985272	-0.354532	0.0105	-0.381	0.5865	0	190	313	3
2026-02-19	12:58:19.190	82.635	-2.625	-14.455	-0.127612	0.915488	-0.381372	0.018	-0.378	0.5865	0	190	313	3
2026-02-19	12:58:19.210	75.285	3.85	-11.97	-0.131516	0.960628	-0.384544	0.012	-0.3705	0.597	0	193	289	3
2026-02-19	12:58:19.230	60.025	8.05	-7.91	-0.149816	0.933788	-0.387228	0.018	-0.3615	0.606	0	193	289	3
2026-02-19	12:58:19.250	38.605	11.83	-4.935	-0.128588	0.90036	-0.344772	0.0165	-0.3555	0.615	0	193	289	3
2026-02-19	12:58:19.270	14.595	16.485	-4.2	-0.05246	0.85156	-0.3843	0.018	-0.351	0.6225	0	193	289	3
2026-02-19	12:58:19.290	8.575	7.525	1.26	-0.037576	0.87474	-0.459452	0.021	-0.354	0.627	0	193	289	3
2026-02-19	12:58:19.310	1.925	-1.19	6.755	-0.062952	0.854	-0.451888	0.012	-0.345	0.624	0	193	289	3
2026-02-19	12:58:19.330	-2.205	-10.185	15.47	-0.108824	0.8357	-0.407968	0.0135	-0.3465	0.63	0	193	289	3
2026-02-19	12:58:19.350	-3.815	-16.765	21	-0.10004	0.849852	-0.413824	0.0105	-0.3435	0.6255	0	193	289	3
2026-02-19	12:58:19.370	0.455	-20.965	25.655	-0.032696	0.9028	-0.436516	0.0075	-0.3555	0.633	0	193	289	3
2026-02-19	12:58:19.390	0.245	-20.44	27.545	-0.06466	0.934032	-0.4636	0.006	-0.3405	0.627	0	193	289	3
2026-02-19	12:58:19.410	-1.33	-15.505	27.825	-0.077592	0.9394	-0.490684	0.009	-0.3435	0.627	0	194	295	3
2026-02-19	12:58:19.430	-2.24	-12.145	28.77	-0.077104	1.000644	-0.515084	0.0075	-0.3555	0.633	0	194	295	3
2026-02-19	12:58:19.450	-6.125	-12.11	30.625	-0.060756	1.064816	-0.534116	0.006	-0.3435	0.621	0	194	295	3
2026-02-19	12:58:19.470	-8.33	-15.75	34.58	-0.072712	0.988444	-0.482144	0.0105	-0.351	0.6285	0	194	295	3
2026-02-19	12:58:19.490	-6.23	-14.56	36.295	-0.079544	0.912072	-0.365756	0.006	-0.3615	0.63	0	194	295	3
2026-02-19	12:58:19.510	-10.185	-6.86	35.84	-0.024156	0.927444	-0.379664	0	-0.3525	0.618	0	194	295	3
2026-02-19	12:58:19.530	-4.2	-1.26	35.805	0.02928	0.990884	-0.389668	0.006	-0.3465	0.6255	0	194	295	3
2026-02-19	12:58:19.550	3.08	4.41	33.46	0.03538	0.933788	-0.356728	-0.003	-0.354	0.6255	0	194	295	3
2026-02-19	12:58:19.570	7.315	10.08	30.205	0.074176	0.902068	-0.293288	-0.0015	-0.3585	0.6285	0	194	295	3
2026-02-19	12:58:19.590	13.37	15.155	25.865	0.100528	0.929152	-0.23912	-0.018	-0.36	0.6255	0	194	295	3
2026-02-19	12:58:19.610	-6.405	16.975	29.435	0.165676	0.968192	-0.195932	-0.0135	-0.3495	0.63	0	195	318	3
2026-02-19	12:58:19.630	-30.24	5.775	34.23	0.205204	1.002108	-0.203252	-0.018	-0.3465	0.627	0	195	318	3
2026-02-19	12:58:19.650	-49.525	-9.135	37.835	0.204228	1.030168	-0.230824	-0.0195	-0.3585	0.636	0	195	318	3
2026-02-19	12:58:19.670	-60.41	-14.315	36.785	0.180072	1.003328	-0.238632	-0.0195	-0.3585	0.636	0	195	318	3
2026-02-19	12:58:19.690	-59.92	-4.34	31.22	0.207888	0.936472	-0.24766	-0.0195	-0.3585	0.636	0	195	318	3
2026-02-19	12:58:19.710	-28	21.14	15.925	0.193004	0.924272	-0.187392	-0.03	-0.369	0.615	0	195	318	3
2026-02-19	12:58:19.730	-0.49	37.24	4.2	0.160552	0.950868	-0.15494	-0.045	-0.378	0.5985	0	195	318	3
2026-02-19	12:58:19.750	-2.94	40.46	0.91	0.17934	0.956236	-0.208132	-0.048	-0.378	0.606	0	195	318	3
2026-02-19	12:58:19.770	-1.75	29.365	2.205	0.196908	0.915	-0.295972	-0.048	-0.3795	0.606	0	195	318	3
2026-02-19	12:58:19.790	0.735	14.315	4.655	0.19764	0.90646	-0.328424	-0.0525	-0.3825	0.6015	0	195	318	3
2026-02-19	12:58:19.810	0.56	1.645	6.965	0.178364	0.942816	-0.290604	-0.0585	-0.3855	0.597	0	193	329	3
2026-02-19	12:58:19.830	-0.98	-1.68	6.86	0.152744	0.971852	-0.297192	-0.0585	-0.3795	0.594	0	193	329	3
2026-02-19	12:58:19.850	4.06	8.96	5.075	0.177388	0.95404	-0.365268	-0.0585	-0.375	0.5955	0	193	329	3
2026-02-19	12:58:19.870	3.78	26.075	-0.455	0.187392	0.975268	-0.363316	-0.0585	-0.381	0.597	0	193	329	3
2026-02-19	12:58:19.890	0.77	24.64	-3.85	0.172752	0.975024	-0.369904	-0.0615	-0.3795	0.591	0	193	329	3
2026-02-19	12:58:19.910	5.845	10.64	-1.505	0.169336	0.950868	-0.382592	-0.0615	-0.3795	0.591	0	193	329	3
2026-02-19	12:58:19.930	9.975	8.12	-3.395	0.160308	0.954772	-0.394304	-0.063	-0.381	0.5925	0	193	329	3
2026-02-19	12:58:19.950	15.365	10.675	-7.28	0.14762	0.986004	-0.409432	-0.066	-0.378	0.597	0	193	329	3
2026-02-19	12:58:19.970	18.9	8.33	-8.295	0.144448	0.99674	-0.390644	-0.069	-0.3735	0.6075	0	193	329	3
2026-02-19	12:58:19.990	21.77	10.29	-10.605	0.135176	0.955992	-0.390156	-0.0675	-0.372	0.6075	0	193	329	3
2026-02-19	12:58:20.010	25.27	9.17	-9.065	0.171044	0.934764	-0.392596	-0.0645	-0.369	0.603	0	190	330	3
2026-02-19	12:58:20.030	21.98	19.11	-12.74	0.183488	0.939888	-0.346968	-0.0675	-0.3645	0.603	0	190	330	3
2026-02-19	12:58:20.050	23.835	25.69	-15.96	0.179828	0.91256	-0.340624	-0.0705	-0.372	0.6075	0	190	330	3
2026-02-19	12:58:20.070	26.565	9.03	-9.03	0.148108	0.89548	-0.38308	-0.0705	-0.372	0.6075	0	190	330	3
2026-02-19	12:58:20.090	23.87	-9.45	-0.42	0.160796	0.86864	-0.40992	-0.063	-0.3645	0.6105	0	190	330	3
2026-02-19	12:58:20.110	22.47	-10.08	0.56	0.161772	0.868152	-0.427244	-0.078	-0.3645	0.615	0	190	330	3
2026-02-19	12:58:20.130	31.01	-3.745	-2.555	0.132492	0.875716	-0.470676	-0.066	-0.3675	0.6165	0	190	330	3
2026-02-19	12:58:20.150	28.28	-0.28	-1.89	0.1098	0.876692	-0.478972	-0.063	-0.357	0.627	0	190	330	3
2026-02-19	12:58:20.170	21.7	-1.435	-1.225	0.131516	0.876936	-0.437004	-0.066	-0.3555	0.6315	0	190	330	3
2026-02-19	12:58:20.190	17.43	-4.795	-2.45	0.120048	0.89426	-0.415532	-0.0585	-0.3525	0.636	0	190	330	3
2026-02-19	12:58:20.210	13.86	-4.9	-4.2	0.12444	0.907436	-0.380396	-0.0705	-0.354	0.6315	0	184	339	3
2026-02-19	12:58:20.230	8.785	-3.675	-4.34	0.140788	0.8601	-0.401624	-0.0675	-0.354	0.642	0	184	339	3
2026-02-19	12:58:20.250	8.715	-10.64	-1.225	0.16226	0.852536	-0.4636	-0.066	-0.351	0.636	0	184	339	3
2026-02-19	12:58:20.270	11.27	-14.7	0.7	0.157136	0.85644	-0.514596	-0.0645	-0.3435	0.642	0	184	339	3
2026-02-19	12:58:20.290	24.57	-10.395	-0.525	0.129564	0.824964	-0.503616	-0.0615	-0.348	0.642	0	184	339	3
2026-02-19	12:58:20.310	20.475	-7.385	1.19	0.130296	0.796172	-0.464088	-0.063	-0.3465	0.6405	0	184	339	3
2026-02-19	12:58:20.330	14.21	-5.67	3.675	0.108336	0.792756	-0.460184	-0.066	-0.3435	0.645	0	184	339	3
2026-02-19	12:58:20.350	10.535	-2.24	4.235	0.073688	0.837408	-0.452376	-0.0645	-0.3405	0.6435	0	184	339	3
2026-02-19	12:58:20.370	7.455	5.915	1.4	0.009028	0.890112	-0.498492	-0.0585	-0.3435	0.645	0	184	339	3
2026-02-19	12:58:20.390	5.6	16.275	-2.31	-0.024888	0.899628	-0.529236	-0.057	-0.3315	0.6465	0	184	339	3
2026-02-19	12:58:20.410	5.46	22.715	-5.53	-0.038064	0.881084	-0.545828	-0.0675	-0.3315	0.6435	0	177	361	3
2026-02-19	12:58:20.430	1.715	28.035	-9.625	-0.053924	0.903288	-0.57584	-0.0585	-0.3315	0.648	0	177	361	3
2026-02-19	12:58:20.450	-0.525	29.295	-12.705	-0.061244	0.958676	-0.614148	-0.0765	-0.3315	0.651	0	177	361	3
2026-02-19	12:58:20.470	1.085	28.91	-15.4	0.032696	0.999424	-0.598044	-0.0705	-0.333	0.6465	0	177	361	3
2026-02-19	12:58:20.490	-19.32	21.91	-2.555	0.221064	0.99674	-0.51118	-0.075	-0.336	0.6465	0	177	361	3
2026-02-19	12:58:20.510	-24.57	0.105	15.925	0.243268	0.896456	-0.47092	-0.0765	-0.339	0.6435	0	177	361	3
2026-02-19	12:58:20.530	2.695	-29.365	42.945	0.2623	0.859612	-0.466528	-0.081	-0.351	0.648	0	177	361	3
2026-02-19	12:58:20.550	10.115	-49.665	57.015	0.304268	0.908412	-0.386496	-0.084	-0.336	0.6405	0	177	361	3
2026-02-19	12:58:20.570	-30.695	-49.84	45.745	0.345504	0.91744	-0.233264	-0.078	-0.336	0.645	0	177	361	3
2026-02-19	12:58:20.590	-72.065	-45.85	28	0.352336	0.838872	-0.09076799	-0.0795	-0.333	0.6495	0	177	361	3
2026-02-19	12:58:20.610	-78.295	-33.285	10.395	0.228628	0.845948	-0.155916	-0.081	-0.3495	0.651	0	171	389	3
2026-02-19	12:58:20.630	-49.7	-28.455	1.645	0.13908	0.896212	-0.335256	-0.084	-0.3405	0.6375	0	171	389	3
2026-02-19	12:58:20.650	7	-36.435	8.12	0.05978	1.001376	-0.50142	-0.0735	-0.3645	0.6255	0	171	389	3
2026-02-19	12:58:20.670	8.68	-70.945	27.16	-0.039772	1.11752	-0.54412	-0.072	-0.3615	0.6255	0	171	389	3
2026-02-19	12:58:20.690	-88.9	-35.98	28	0.046604	0.953796	-0.358924	-0.063	-0.3525	0.6315	0	171	389	3
2026-02-19	12:58:20.710	-11.655	-50.435	17.395	0.039284	1.073356	-0.367464	-0.066	-0.36	0.6195	0	171	389	3
2026-02-19	12:58:20.730	14.315	-59.465	17.5	0.09467199	1.169736	-0.290848	-0.06	-0.3675	0.6135	0	171	389	3
2026-02-19	12:58:20.750	0.875	-44.17	5.81	0.088572	1.085068	-0.183976	-0.054	-0.3705	0.624	0	171	389	3
2026-02-19	12:58:20.770	9.52	-32.2	-3.255	0.082472	1.026264	-0.204472	-0.048	-0.3615	0.6315	0	171	389	3
2026-02-19	12:58:20.790	14.945	-11.34	-5.74	0.01098	1.073112	-0.212036	-0.048	-0.3615	0.6375	0	171	389	3
2026-02-19	12:58:20.810	-3.08	2.45	-6.93	-0.029036	1.048224	-0.284504	-0.042	-0.354	0.633	0	167	399	3
2026-02-19	12:58:20.830	-1.54	0.945	4.585	-0.037088	0.977952	-0.296948	-0.042	-0.354	0.633	0	167	399	3
2026-02-19	12:58:20.850	-16.52	12.81	2.87	0.037576	0.923052	-0.32574	-0.042	-0.357	0.6285	0	167	399	3
2026-02-19	12:58:20.870	-22.75	22.82	-0.245	0.106872	0.935008	-0.36112	-0.0435	-0.36	0.6255	0	167	399	3
2026-02-19	12:58:20.890	-20.3	25.55	-3.465	0.061976	0.94794	-0.365268	-0.048	-0.3615	0.624	0	167	399	3
2026-02-19	12:58:20.910	-21.56	24.885	-5.145	0.055388	0.926712	-0.377956	-0.054	-0.375	0.621	0	167	399	3
2026-02-19	12:58:20.930	-16.45	18.025	-2.205	0.065148	0.904508	-0.430416	-0.054	-0.378	0.618	0	167	399	3
2026-02-19	12:58:20.950	-9.345	9.31	2.695	0.080032	0.870592	-0.451888	-0.0585	-0.369	0.6165	0	167	399	3
2026-02-19	12:58:20.970	0.49	3.78	3.115	0.040504	0.889624	-0.476044	-0.06	-0.3735	0.6165	0	167	399	3
2026-02-19	12:58:20.990	15.225	-2.485	2.94	0.029524	0.908412	-0.5002	-0.0585	-0.381	0.621	0	167	399	3
2026-02-19	12:58:21.010	31.675	-10.185	3.64	0.007564	0.920856	-0.538996	-0.0645	-0.3735	0.6225	0	165	394	3
2026-02-19	12:58:21.030	46.445	-18.69	3.535	-0.025132	0.992104	-0.476288	-0.06	-0.363	0.6195	0	165	394	3
2026-02-19	12:58:21.050	51.73	-19.53	0.14	-0.061732	1.047492	-0.369172	-0.0525	-0.36	0.627	0	165	394	3
2026-02-19	12:58:21.070	45.64	-2.52	-3.675	-0.039284	1.043832	-0.281576	-0.0525	-0.3555	0.6315	0	165	394	3
2026-02-19	12:58:21.090	42.7	17.85	-5.285	0.036356	1.077016	-0.384056	-0.054	-0.3495	0.6315	0	165	394	3
2026-02-19	12:58:21.110	34.405	26.18	-4.06	0.050508	1.080676	-0.417484	-0.054	-0.3495	0.6435	0	165	394	3
2026-02-19	12:58:21.130	30.765	26.845	-2.52	0.103456	1.032364	-0.40504	-0.054	-0.3495	0.6435	0	165	394	3
2026-02-19	12:58:21.150	17.605	24.255	2.415	0.1891	0.959408	-0.330864	-0.0645	-0.3405	0.6495	0	165	394	3
2026-02-19	12:58:21.170	-6.86	21.91	8.19	0.263276	0.986492	-0.289628	-0.0705	-0.339	0.648	0	165	394	3
2026-02-19	12:58:21.190	-40.635	24.605	16.345	0.364536	1.124596	-0.172264	-0.0795	-0.339	0.6555	0	165	394	3
2026-02-19	12:58:21.210	-80.15	16.66	40.285	0.463112	1.117276	-0.167384	-0.0825	-0.348	0.6375	0	165	388	3
2026-02-19	12:58:21.230	-105.91	-0.63	66.99	0.5856	1.065548	-0.117852	-0.0825	-0.3555	0.63	0	165	388	3
2026-02-19	12:58:21.250	-114.31	-3.815	64.155	0.59048	1.01748	-0.178608	-0.09	-0.3585	0.6285	0	165	388	3
2026-02-19	12:58:21.270	-78.155	14.14	36.82	0.409676	0.9089	-0.218136	-0.0945	-0.3735	0.6045	0	165	388	3
2026-02-19	12:58:21.290	-28.175	28.735	10.71	0.216916	0.887184	-0.308904	-0.1005	-0.387	0.591	0	165	388	3
2026-02-19	12:58:21.310	3.605	20.51	12.81	0.2196	0.8784	-0.376004	-0.1125	-0.39	0.5895	0	165	388	3
2026-02-19	12:58:21.330	-0.385	23.45	13.02	0.249368	0.874984	-0.29402	-0.105	-0.39	0.5895	0	165	388	3
2026-02-19	12:58:21.350	-7.175	34.65	3.5	0.222528	0.923052	-0.186904	-0.108	-0.387	0.5955	0	165	388	3
2026-02-19	12:58:21.370	2.59	25.34	1.82	0.207156	0.921832	-0.13542	-0.1185	-0.381	0.585	0	165	388	3
2026-02-19	12:58:21.390	2.52	17.36	0.875	0.226188	0.90768	-0.115656	-0.1215	-0.387	0.5925	0	165	388	3
2026-02-19	12:58:21.410	3.15	4.76	4.83	0.33672	0.904264	-0.134444	-0.12	-0.3825	0.5835	0	166	369	3
2026-02-19	12:58:21.430	-1.855	3.08	5.355	0.406992	0.914512	-0.175436	-0.123	-0.387	0.5865	0	166	369	3
2026-02-19	12:58:21.450	2.52	3.115	5.46	0.418948	0.882792	-0.139324	-0.1335	-0.387	0.5865	0	166	369	3
2026-02-19	12:58:21.470	-0.315	14.63	3.395	0.381616	0.908168	-0.105164	-0.126	-0.3855	0.5805	0	166	369	3
2026-02-19	12:58:21.490	0.665	19.635	4.27	0.297192	0.938912	-0.197152	-0.126	-0.3795	0.5835	0	166	369	3
2026-02-19	12:58:21.510	2.905	15.855	4.83	0.23546	0.93696	-0.277428	-0.1275	-0.3825	0.57	0	166	369	3
2026-02-19	12:58:21.530	5.74	10.08	5.635	0.23668	0.955016	-0.258396	-0.135	-0.3795	0.576	0	166	369	3
2026-02-19	12:58:21.550	11.515	6.545	7.105	0.299876	0.9821	-0.233264	-0.1335	-0.3825	0.5805	0	166	369	3
2026-02-19	12:58:21.570	22.015	8.4	6.755	0.37454	0.964044	-0.210816	-0.1305	-0.3885	0.573	0	166	369	3
2026-02-19	12:58:21.590	24.22	10.5	7.42	0.439688	1.016504	-0.138348	-0.132	-0.381	0.585	0	166	369	3
2026-02-19	12:58:21.610	26.845	15.75	7.945	0.454084	0.97844	-0.1159	-0.135	-0.3795	0.585	0	169	335	3
2026-02-19	12:58:21.630	25.235	26.705	6.3	0.399428	0.90524	-0.108092	-0.1395	-0.3705	0.5835	0	169	335	3
2026-02-19	12:58:21.650	23.695	40.215	1.68	0.24766	0.883524	-0.165676	-0.1395	-0.387	0.588	0	169	335	3
2026-02-19	12:58:21.670	28.91	54.145	-4.55	0.188124	0.81252	-0.246684	-0.144	-0.375	0.594	0	169	335	3
2026-02-19	12:58:21.690	32.76	52.43	-4.095	0.167872	0.731024	-0.288408	-0.1605	-0.36	0.5895	0	169	335	3
2026-02-19	12:58:21.710	39.2	46.97	-4.655	0.156404	0.69906	-0.249612	-0.159	-0.375	0.591	0	169	335	3
2026-02-19	12:58:21.730	42.945	59.64	-9.94	0.142496	0.729804	-0.15128	-0.1635	-0.3615	0.588	0	169	335	3
2026-02-19	12:58:21.750	23.17	72.065	-15.26	0.179828	0.862296	-0.120292	-0.1695	-0.3585	0.591	0	169	335	3
2026-02-19	12:58:21.770	0.735	69.09	1.05	0.334768	1.01016	-0.219112	-0.168	-0.363	0.594	0	169	335	3
2026-02-19	12:58:21.790	-3.43	57.715	7.21	0.460428	1.046272	-0.266692	-0.186	-0.357	0.576	0	169	335	3
2026-02-19	12:58:21.810	2.975	61.46	-1.05	0.48312	1.057252	-0.218868	-0.1875	-0.3615	0.5775	0	171	300	3
2026-02-19	12:58:21.830	-2.275	76.93	-12.6	0.43066	0.959408	-0.198616	-0.1965	-0.3555	0.5775	0	171	300	3
2026-02-19	12:58:21.850	1.155	81.725	-18.515	0.357948	0.914756	-0.19886	-0.195	-0.363	0.573	0	171	300	3
2026-02-19	12:58:21.870	14.665	70.105	-17.815	0.354776	0.876936	-0.333304	-0.2175	-0.351	0.552	0	171	300	3
2026-02-19	12:58:21.890	53.48	52.325	-14.63	0.434808	0.89426	-0.421632	-0.2145	-0.3555	0.561	0	171	300	3
2026-02-19	12:58:21.910	72.205	40.075	-10.57	0.552416	0.995032	-0.32452	-0.219	-0.3675	0.5625	0	171	300	3
2026-02-19	12:58:21.930	35.665	43.19	-11.445	0.471164	1.057984	-0.222284	-0.2145	-0.3495	0.564	0	171	300	3
2026-02-19	12:58:21.950	3.15	40.285	-17.92	0.29036	0.99552	-0.240828	-0.2145	-0.3495	0.564	0	171	300	3
2026-02-19	12:58:21.970	12.425	24.22	-15.645	0.232532	0.9333	-0.297924	-0.2145	-0.3495	0.564	0	171	300	3
2026-02-19	12:58:21.990	26.25	18.375	-18.725	0.230336	0.867664	-0.33428	-0.2205	-0.3495	0.561	0	171	300	3
2026-02-19	12:58:22.010	20.02	21.63	-21.805	0.317444	0.877668	-0.399916	-0.231	-0.351	0.5595	0	173	280	3
2026-02-19	12:58:22.030	21.98	14.56	-18.025	0.493856	0.905972	-0.402112	-0.2325	-0.3495	0.5595	0	173	280	3
2026-02-19	12:58:22.050	17.64	8.785	-17.745	0.585112	0.9089	-0.37942	-0.2295	-0.348	0.5595	0	173	280	3
2026-02-19	12:58:22.070	8.96	1.68	-16.52	0.57706	0.854732	-0.33184	-0.2265	-0.348	0.5595	0	173	280	3
2026-02-19	12:58:22.090	9.205	-4.935	-12.355	0.497272	0.820572	-0.351116	-0.2235	-0.3495	0.561	0	173	280	3
2026-02-19	12:58:22.110	16.8	-6.475	-12.81	0.376004	0.8784	-0.375272	-0.2235	-0.3495	0.561	0	173	280	3
2026-02-19	12:58:22.130	15.575	-7.49	-15.61	0.291824	0.966484	-0.313784	-0.222	-0.3495	0.5685	0	173	280	3
2026-02-19	12:58:22.150	14.98	-12.53	-13.335	0.253516	0.95526	-0.332328	-0.2205	-0.3495	0.5745	0	173	280	3
2026-02-19	12:58:22.170	14.735	-17.815	-9.695	0.281332	0.914756	-0.381616	-0.2205	-0.3495	0.5685	0	173	280	3
2026-02-19	12:58:22.190	15.47	-18.305	-7.175	0.313784	0.858148	-0.397232	-0.2205	-0.3495	0.576	0	173	280	3
2026-02-19	12:58:22.210	17.01	-17.885	-6.37	0.318908	0.831308	-0.400892	-0.2205	-0.3495	0.576	0	175	282	3
2026-02-19	12:58:22.230	18.41	-19.775	-6.02	0.327692	0.8052	-0.394304	-0.2115	-0.3495	0.5715	0	175	282	3
2026-02-19	12:58:22.250	15.68	-20.16	-7.525	0.305488	0.845216	-0.401868	-0.21	-0.351	0.5805	0	175	282	3
2026-02-19	12:58:22.270	16.765	-21.525	-8.05	0.285968	0.897432	-0.415288	-0.2055	-0.348	0.579	0	175	282	3
2026-02-19	12:58:22.290	17.185	-24.745	-5.985	0.286456	0.928176	-0.405772	-0.195	-0.342	0.579	0	175	282	3
2026-02-19	12:58:22.310	10.185	-28.35	-2.87	0.313052	0.944524	-0.393328	-0.204	-0.3375	0.5835	0	175	282	3
2026-02-19	12:58:22.330	3.43	-34.335	-0.665	0.319152	0.891088	-0.341356	-0.1965	-0.3465	0.591	0	175	282	3
2026-02-19	12:58:22.350	7.035	-33.53	-0.35	0.316224	0.857416	-0.321104	-0.198	-0.336	0.5895	0	175	282	3
2026-02-19	12:58:22.370	7.21	-32.2	-0.35	0.310368	0.9089	-0.344528	-0.189	-0.3495	0.597	0	175	282	3
2026-02-19	12:58:22.390	5.915	-29.575	-2.415	0.295728	0.904996	-0.374052	-0.1875	-0.345	0.6075	0	175	282	3
2026-02-19	12:58:22.410	-1.4	-26.985	-1.155	0.2989	0.87596	-0.39528	-0.1785	-0.3495	0.6015	0	174	301	2
2026-02-19	12:58:22.430	-6.51	-22.47	0	0.275476	0.863272	-0.407968	-0.18	-0.3435	0.6015	0	174	301	2
2026-02-19	12:58:22.450	-12.04	-14.525	-4.655	0.209596	0.903532	-0.40382	-0.174	-0.3435	0.6015	0	174	301	2
2026-02-19	12:58:22.470	-13.72	-5.39	-10.115	0.2135	0.91256	-0.406992	-0.1695	-0.3495	0.5985	0	174	301	2
2026-02-19	12:58:22.490	-15.785	-0.98	-13.79	0.24156	0.853512	-0.397964	-0.174	-0.345	0.6015	0	174	301	2
2026-02-19	12:58:22.510	-18.27	-4.585	-14.105	0.256688	0.847168	-0.398452	-0.177	-0.36	0.603	0	174	301	2
2026-02-19	12:58:22.530	-14.49	-8.68	-14.28	0.23668	0.876692	-0.428464	-0.1695	-0.348	0.6	0	174	301	2
2026-02-19	12:58:22.550	-14.385	-6.58	-18.235	0.201544	0.91134	-0.437248	-0.168	-0.354	0.5955	0	174	301	2
2026-02-19	12:58:22.570	-13.825	-1.19	-21.175	0.140788	0.880352	-0.4331	-0.171	-0.3615	0.5985	0	174	301	2
2026-02-19	12:58:22.590	-12.88	1.96	-22.82	0.10248	0.915488	-0.45994	-0.1665	-0.3525	0.5835	0	174	301	2
2026-02-19	12:58:22.610	-9.695	2.24	-23.135	0.084668	1.01748	-0.476776	-0.1635	-0.363	0.594	0	170	326	3
2026-02-19	12:58:22.630	-14.84	3.675	-20.86	0.09467199	1.078968	-0.40626	-0.168	-0.363	0.5895	0	170	326	3
2026-02-19	12:58:22.650	-30.485	-2.765	-13.86	0.10248	1.034072	-0.273524	-0.1605	-0.3675	0.579	0	170	326	3
2026-02-19	12:58:22.670	-48.44	-12.53	-11.55	0.139812	0.964044	-0.219112	-0.1635	-0.369	0.5865	0	170	326	3
2026-02-19	12:58:22.690	-45.465	-25.9	-16.52	0.226432	0.910852	-0.16836	-0.156	-0.381	0.5805	0	170	326	3
2026-02-19	12:58:22.710	-56.07	-38.85	-17.395	0.280844	0.842776	-0.102724	-0.147	-0.3825	0.5625	0	170	326	3
2026-02-19	12:58:22.730	-64.82	-49.105	-14.63	0.281332	0.89548	-0.093696	-0.147	-0.387	0.5625	0	170	326	3
2026-02-19	12:58:22.750	-42.91	-57.05	-13.685	0.257176	1.040416	-0.136884	-0.138	-0.3975	0.57	0	170	326	3
2026-02-19	12:58:22.770	-34.615	-63.945	-7.875	0.19032	1.129232	-0.213256	-0.1305	-0.402	0.5565	0	170	326	3
2026-02-19	12:58:22.790	-34.3	-61.005	0.875	0.16592	1.061156	-0.178608	-0.1185	-0.4065	0.549	0	170	326	3
2026-02-19	12:58:22.810	-30.275	-54.95	23.345	0.140788	0.904264	-0.15616	-0.1155	-0.411	0.5535	0	167	336	3
2026-02-19	12:58:22.830	-14.945	-41.685	27.685	0.070272	1.01992	-0.182268	-0.114	-0.4155	0.552	0	167	336	3
2026-02-19	12:58:22.850	-19.915	-38.675	13.09	-0.011224	1.128012	-0.2379	-0.111	-0.4125	0.5535	0	167	336	3
2026-02-19	12:58:22.870	11.865	-44.8	5.985	-0.005856	1.154852	-0.283284	-0.1125	-0.4185	0.5505	0	167	336	3
2026-02-19	12:58:22.890	56.21	-54.425	0.455	-0.050508	1.052372	-0.205692	-0.1095	-0.4185	0.5595	0	167	336	3
2026-02-19	12:58:22.910	76.16	-50.47	-1.225	-0.057096	1.020652	-0.167384	-0.1005	-0.4065	0.555	0	167	336	3
2026-02-19	12:58:22.930	46.585	-49.105	14.525	-0.036844	1.062376	-0.305732	-0.099	-0.4065	0.573	0	167	336	3
2026-02-19	12:58:22.950	44.73	-47.04	22.12	-0.004148	0.955992	-0.309392	-0.1005	-0.39	0.5835	0	167	336	3
2026-02-19	12:58:22.970	8.995	-29.96	23.485	0.04026	0.80032	-0.277672	-0.096	-0.3915	0.5805	0	167	336	3
2026-02-19	12:58:22.990	3.36	-14.56	14.7	0.063928	0.827892	-0.374052	-0.09	-0.3945	0.5895	0	167	336	3
2026-02-19	12:58:23.010	25.585	-13.475	11.83	0.0671	0.892064	-0.473604	-0.0945	-0.387	0.588	0	166	325	3
2026-02-19	12:58:23.030	20.58	-16.59	16.135	0.057828	0.892796	-0.441152	-0.0885	-0.396	0.6015	0	166	325	3
2026-02-19	12:58:23.050	7.875	-12.215	19.74	0.03904	0.866932	-0.355264	-0.0885	-0.396	0.6015	0	166	325	3
2026-02-19	12:58:23.070	5.39	-8.54	20.545	0.046604	0.91988	-0.406016	-0.0885	-0.396	0.6015	0	166	325	3
2026-02-19	12:58:23.090	15.12	-10.71	20.44	0.040748	0.93696	-0.5307	-0.0915	-0.387	0.6015	0	166	325	3
2026-02-19	12:58:23.110	35.805	-20.65	22.89	0.106384	0.875472	-0.643672	-0.096	-0.378	0.6015	0	166	325	3
2026-02-19	12:58:23.130	70.455	-38.5	29.82	0.15982	0.848144	-0.698328	-0.0975	-0.3735	0.603	0	166	325	3
2026-02-19	12:58:23.150	73.64	-45.535	32.725	0.109068	0.908412	-0.553148	-0.0945	-0.363	0.6135	0	166	325	3
2026-02-19	12:58:23.170	26.495	-33.88	27.93	0.082472	0.997716	-0.346236	-0.0885	-0.3555	0.6225	0	166	325	3
2026-02-19	12:58:23.190	21.14	-39.305	29.295	0.094916	1.013088	-0.309392	-0.0855	-0.36	0.63	0	166	325	3
2026-02-19	12:58:23.210	32.165	-45.85	31.01	0.168116	1.070428	-0.242536	-0.087	-0.357	0.6345	0	167	326	3
2026-02-19	12:58:23.230	16.73	-41.335	26.005	0.349408	1.110932	-0.183244	-0.09	-0.348	0.636	0	167	326	3
2026-02-19	12:58:23.250	1.995	-21.42	16.24	0.474824	1.1712	-0.122976	-0.0825	-0.3555	0.642	0	167	326	3
2026-02-19	12:58:23.270	-19.67	3.15	5.775	0.399672	1.177788	-0.255712	-0.0825	-0.345	0.6375	0	167	326	3
2026-02-19	12:58:23.290	3.395	19.075	-10.325	0.1769	1.086776	-0.400404	-0.0825	-0.345	0.6375	0	167	326	3
2026-02-19	12:58:23.310	48.65	33.495	-24.01	0.109068	1.019676	-0.44774	-0.084	-0.3465	0.6465	0	167	326	3
2026-02-19	12:58:23.330	39.83	34.125	-15.505	0.181536	1.048224	-0.433588	-0.0825	-0.351	0.6465	0	167	326	3
2026-02-19	12:58:23.350	-68.005	38.815	0.525	0.213012	1.023336	-0.31354	-0.0945	-0.336	0.639	0	167	326	3
2026-02-19	12:58:23.370	-106.75	58.275	15.26	0.274744	1.023336	-0.238388	-0.0975	-0.348	0.6315	0	167	326	3
2026-02-19	12:58:23.390	-105.28	65.17	16.765	0.268644	0.960872	-0.258884	-0.102	-0.3645	0.6255	0	167	326	3
2026-02-19	12:58:23.410	-79.905	37.695	29.05	0.282796	0.850096	-0.27084	-0.1215	-0.3735	0.609	0	170	333	3
2026-02-19	12:58:23.430	-51.17	21.98	19.285	0.315248	0.865956	-0.2623	-0.1185	-0.378	0.5835	0	170	333	3
2026-02-19	12:58:23.450	-40.67	19.215	-1.61	0.33062	0.892552	-0.227164	-0.12	-0.3915	0.5955	0	170	333	3
2026-02-19	12:58:23.470	-26.495	20.265	-5.775	0.397964	0.790072	-0.249856	-0.12	-0.39	0.588	0	170	333	3
2026-02-19	12:58:23.490	-26.88	9.94	3.36	0.439444	0.810324	-0.222772	-0.129	-0.3885	0.579	0	170	333	3
2026-02-19	12:58:23.510	-35.035	3.185	8.19	0.460428	0.894992	-0.214232	-0.126	-0.405	0.573	0	170	333	3
2026-02-19	12:58:23.530	-30.065	-1.015	9.87	0.455548	0.959408	-0.196664	-0.1245	-0.405	0.57	0	170	333	3
2026-02-19	12:58:23.550	-0.385	-1.085	5.95	0.368684	0.96258	-0.22082	-0.1245	-0.4065	0.5625	0	170	333	3
2026-02-19	12:58:23.570	35.07	3.43	-2.205	0.255468	0.947208	-0.274988	-0.138	-0.408	0.57	0	170	333	3
2026-02-19	12:58:23.590	40.46	2.485	-3.605	0.19276	0.959408	-0.277672	-0.129	-0.411	0.5715	0	170	333	3
2026-02-19	12:58:23.610	34.685	1.82	-4.27	0.186416	0.979172	-0.229848	-0.129	-0.3975	0.57	0	173	329	3
2026-02-19	12:58:23.630	27.16	-0.595	-3.885	0.22082	0.952332	-0.237656	-0.1335	-0.39	0.582	0	173	329	3
2026-02-19	12:58:23.650	22.855	-7.735	-3.605	0.254248	0.942084	-0.235216	-0.129	-0.399	0.5775	0	173	329	3
2026-02-19	12:58:23.670	17.185	-10.955	-2.66	0.308904	0.93452	-0.23424	-0.126	-0.3915	0.582	0	173	329	3
2026-02-19	12:58:23.690	18.76	-9.8	-3.08	0.3233	0.918172	-0.24034	-0.132	-0.396	0.5835	0	173	329	3
2026-02-19	12:58:23.710	20.58	-2.8	-5.74	0.285968	0.928908	-0.26108	-0.1185	-0.39	0.5955	0	173	329	3
2026-02-19	12:58:23.730	23.485	4.41	-8.925	0.237168	0.91622	-0.29524	-0.123	-0.387	0.5895	0	173	329	3
2026-02-19	12:58:23.750	23.625	8.12	-10.78	0.221552	0.9028	-0.316468	-0.1275	-0.3915	0.6	0	173	329	3
2026-02-19	12:58:23.770	21.595	9.905	-12.46	0.20252	0.86986	-0.328424	-0.132	-0.3855	0.6	0	173	329	3
2026-02-19	12:58:23.790	21.315	8.89	-14.28	0.196176	0.83204	-0.311832	-0.1125	-0.384	0.5955	0	173	329	3
2026-02-19	12:58:23.810	22.26	5.74	-17.115	0.18666	0.8784	-0.317932	-0.1215	-0.381	0.606	0	175	317	3
2026-02-19	12:58:23.830	20.545	1.26	-16.94	0.226188	0.929396	-0.342332	-0.1245	-0.3765	0.612	0	175	317	3
2026-02-19	12:58:23.850	16.73	-6.125	-12.495	0.27572	0.92354	-0.350628	-0.126	-0.3825	0.603	0	175	317	3
2026-02-19	12:58:23.870	9.1	-8.365	-9.1	0.27084	0.951112	-0.37454	-0.1185	-0.3765	0.606	0	175	317	3
2026-02-19	12:58:23.890	7.91	-7.14	-8.575	0.253516	0.970144	-0.43066	-0.1095	-0.3825	0.612	0	175	317	3
2026-02-19	12:58:23.910	13.615	-5.18	-10.675	0.266692	0.954284	-0.46726	-0.114	-0.3795	0.6045	0	175	317	3
2026-02-19	12:58:23.930	24.675	-7.525	-12.775	0.27328	0.922808	-0.482144	-0.117	-0.3795	0.6135	0	175	317	3
2026-02-19	12:58:23.950	31.185	-11.305	-13.965	0.263764	0.872788	-0.455304	-0.1125	-0.3735	0.6165	0	175	317	3
2026-02-19	12:58:23.970	31.57	-14	-14.525	0.217404	0.85156	-0.417972	-0.111	-0.3645	0.624	0	175	317	3
2026-02-19	12:58:23.990	29.68	-15.785	-15.89	0.160552	0.843752	-0.374784	-0.1005	-0.369	0.6255	0	175	317	3
2026-02-19	12:58:24.010	29.54	-16.905	-16.87	0.122244	0.813008	-0.360632	-0.0975	-0.3675	0.6225	0	173	317	3
2026-02-19	12:58:24.030	27.86	-17.08	-17.99	0.09076799	0.808372	-0.37088	-0.1005	-0.366	0.6285	0	173	317	3
2026-02-19	12:58:24.050	20.335	-17.185	-17.15	0.077104	0.809104	-0.386984	-0.093	-0.36	0.6315	0	173	317	3
2026-02-19	12:58:24.070	7.595	-13.265	-14.77	0.077348	0.857416	-0.431636	-0.0885	-0.354	0.6225	0	173	317	3
2026-02-19	12:58:24.090	-2.52	-2.205	-17.15	0.059048	0.931592	-0.495076	-0.087	-0.357	0.642	0	173	317	3
2026-02-19	12:58:24.110	-4.41	9.345	-21.14	0.111996	0.933788	-0.54778	-0.075	-0.3585	0.6375	0	173	317	3
2026-02-19	12:58:24.130	-3.255	14.385	-21.56	0.155184	0.90402	-0.582672	-0.0825	-0.3735	0.6315	0	173	317	3
2026-02-19	12:58:24.150	1.715	15.4	-22.12	0.20374	0.916708	-0.591944	-0.0795	-0.3645	0.6375	0	173	317	3
2026-02-19	12:58:24.170	11.095	11.62	-24.01	0.220088	0.964044	-0.586088	-0.0795	-0.363	0.6375	0	173	317	3
2026-02-19	12:58:24.190	19.88	8.82	-26.495	0.215452	0.955992	-0.552416	-0.0795	-0.363	0.6375	0	173	317	3
2026-02-19	12:58:24.210	21.315	10.395	-28.805	0.243268	1.01016	-0.511912	-0.0735	-0.363	0.6375	0	170	338	3
2026-02-19	12:58:24.230	18.515	10.885	-26.845	0.23424	0.9821	-0.47336	-0.0735	-0.36	0.6405	0	170	338	3
2026-02-19	12:58:24.250	10.15	6.055	-19.18	0.244244	0.932812	-0.465308	-0.075	-0.354	0.645	0	170	338	3
2026-02-19	12:58:24.270	4.2	-12.215	-8.015	0.2013	0.909876	-0.4514	-0.0735	-0.3555	0.6495	0	170	338	3
2026-02-19	12:58:24.290	-0.315	-21.07	-1.61	0.111752	0.875716	-0.472872	-0.0705	-0.3645	0.6495	0	170	338	3
2026-02-19	12:58:24.310	1.225	-19.6	0.525	0.071736	0.817888	-0.463112	-0.0675	-0.369	0.6435	0	170	338	3
2026-02-19	12:58:24.330	6.58	-21.175	-2.345	0.033672	0.806176	-0.430172	-0.0645	-0.354	0.648	0	170	338	3
2026-02-19	12:58:24.350	7.84	-26.775	-3.395	0.014884	0.81252	-0.4087	-0.0645	-0.354	0.648	0	170	338	3
2026-02-19	12:58:24.370	6.755	-41.055	-4.165	-0.003172	0.860588	-0.356728	-0.0645	-0.3645	0.642	0	170	338	3
2026-02-19	12:58:24.390	-0.21	-57.085	-1.855	-0.022692	0.914756	-0.301828	-0.0525	-0.36	0.651	0	170	338	3
2026-02-19	12:58:24.410	-19.495	-70.91	9.975	-0.036356	0.923296	-0.2806	-0.042	-0.3705	0.645	0	166	370	3
2026-02-19	12:58:24.430	-39.865	-76.265	22.715	-0.04636	0.909388	-0.293776	-0.0315	-0.3585	0.6465	0	166	370	3
2026-02-19	12:58:24.450	-48.16	-70.875	25.865	-0.06832	0.900604	-0.303292	-0.0225	-0.3825	0.645	0	166	370	3
2026-02-19	12:58:24.470	-47.775	-59.5	22.26	-0.07442	0.94428	-0.325984	-0.0255	-0.384	0.6435	0	166	370	3
2026-02-19	12:58:24.490	-46.69	-50.785	18.095	-0.050752	0.967216	-0.324276	-0.018	-0.378	0.6315	0	166	370	3
2026-02-19	12:58:24.510	-47.495	-45.745	19.95	-0.0549	0.96868	-0.292068	-0.018	-0.3885	0.627	0	166	370	3
2026-02-19	12:58:24.530	-47.705	-33.95	19.565	-0.077104	0.978684	-0.248636	-0.009	-0.3945	0.624	0	166	370	3
2026-02-19	12:58:24.550	-45.115	-20.335	14	-0.106384	0.95404	-0.194224	-0.0015	-0.402	0.612	0	166	370	3
2026-02-19	12:58:24.570	-38.955	-14.035	9.1	-0.1403	0.912804	-0.129564	-0.0105	-0.4035	0.615	0	166	370	3
2026-02-19	12:58:24.590	-42.945	-5.145	2.765	-0.145424	0.899384	-0.0732	-0.006	-0.411	0.5985	0	166	370	3
2026-02-19	12:58:24.610	-41.65	-5.74	0.805	-0.105164	0.9272	-0.158356	-0.0015	-0.4065	0.6105	0	165	379	2
2026-02-19	12:58:24.630	-27.93	-14.245	-0.56	-0.084424	1.059692	-0.320616	-0.003	-0.42	0.6	0	165	379	2
2026-02-19	12:58:24.650	22.925	-28.735	-22.855	-0.12078	1.081408	-0.245464	-0.0075	-0.42	0.5925	0	165	379	2
2026-02-19	12:58:24.670	8.4	-36.505	8.12	0.148596	0.969656	-0.139324	0.003	-0.426	0.6015	0	165	379	2
2026-02-19	12:58:24.690	-46.69	-27.685	23.975	0.216672	1.039684	-0.11346	0	-0.426	0.594	0	165	379	2
2026-02-19	12:58:24.710	-29.47	8.47	21.84	0.14274	0.960384	-0.276452	0.006	-0.4245	0.5865	0	165	379	2
2026-02-19	12:58:24.730	-40.915	43.575	14.28	0.064416	0.887428	-0.348676	0.0105	-0.435	0.5865	0	165	379	2
2026-02-19	12:58:24.750	-52.045	55.545	12.74	0.002928	0.90768	-0.392596	-0.0075	-0.4395	0.588	0	165	379	2
2026-02-19	12:58:24.770	-28.28	41.055	17.64	0.006344	0.917684	-0.47702	-0.0075	-0.4425	0.567	0	165	379	2
2026-02-19	12:58:24.790	-10.535	13.79	25.62	0.022204	0.993812	-0.562664	-0.0225	-0.4515	0.5685	0	165	379	2
2026-02-19	12:58:24.810	9.625	-8.61	35.595	0.025376	0.952576	-0.606096	-0.021	-0.4485	0.5685	0	165	367	3
2026-02-19	12:58:24.830	27.86	-25.375	48.3	0.078324	0.975268	-0.6466	-0.0285	-0.444	0.558	0	165	367	3
2026-02-19	12:58:24.850	47.845	-38.92	55.405	0.019764	0.984296	-0.69662	-0.027	-0.4515	0.567	0	165	367	3
2026-02-19	12:58:24.870	82.81	-49.77	52.535	-0.098332	1.020408	-0.693204	-0.0375	-0.4395	0.5745	0	165	367	3
2026-02-19	12:58:24.890	103.565	-46.655	43.295	-0.146156	1.170712	-0.571448	-0.0405	-0.4335	0.597	0	165	367	3
2026-02-19	12:58:24.910	77.91	-32.34	34.475	-0.2135	1.170956	-0.420412	-0.033	-0.4125	0.597	0	165	367	3
2026-02-19	12:58:24.930	53.34	-13.545	23.59	-0.238632	1.051396	-0.30256	-0.0345	-0.402	0.6195	0	165	367	3
2026-02-19	12:58:24.950	27.125	11.13	13.825	-0.140544	0.885476	-0.122244	-0.0255	-0.393	0.6165	0	165	367	3
2026-02-19	12:58:24.970	6.755	48.125	-1.365	-0.063928	0.96746	-0.106628	-0.039	-0.4035	0.624	0	165	367	3
2026-02-19	12:58:24.990	13.72	63.315	-16.31	0.088572	1.101416	-0.174948	-0.048	-0.4035	0.6345	0	165	367	3
2026-02-19	12:58:25.010	-31.64	77.98	-27.72	0.255956	1.112152	-0.17202	-0.0465	-0.3975	0.624	0	169	364	3
2026-02-19	12:58:25.030	-56.875	73.465	-19.565	0.417972	1.104832	-0.099796	-0.0435	-0.411	0.6165	0	169	364	3
2026-02-19	12:58:25.050	-77.28	75.74	7.175	0.566812	1.172908	0.056852	-0.063	-0.411	0.612	0	169	364	3
2026-02-19	12:58:25.070	-205.17	96.705	44.38	0.602924	1.294908	-0.084912	-0.066	-0.423	0.6	0	169	364	3
2026-02-19	12:58:25.090	-368.27	67.935	93.66	0.552904	1.219756	-0.240096	-0.087	-0.4395	0.5745	0	169	364	3
2026-02-19	12:58:25.110	-333.69	15.68	116.865	0.508252	1.036512	-0.197152	-0.0975	-0.468	0.5295	0	169	364	3
2026-02-19	12:58:25.130	-165.62	32.62	27.055	0.508252	0.796172	-0.095892	-0.1215	-0.4845	0.4815	0	169	364	3
2026-02-19	12:58:25.150	20.16	40.25	-4.655	0.416264	0.823012	-0.043676	-0.1305	-0.5025	0.438	0	169	364	3
2026-02-19	12:58:25.170	93.1	29.225	3.745	0.429928	0.974048	-0.043676	-0.132	-0.5055	0.4245	0	169	364	3
2026-02-19	12:58:25.190	46.935	42.595	-0.28	0.375028	0.929884	-0.039284	-0.1335	-0.501	0.4605	0	169	364	3
2026-02-19	12:58:25.210	21.105	34.195	0.91	0.344528	0.929884	0.037332	-0.135	-0.4905	0.444	0	179	341	3
2026-02-19	12:58:25.230	25.445	3.64	5.95	0.362828	0.945744	0.020984	-0.141	-0.498	0.462	0	179	341	3
2026-02-19	12:58:25.250	20.58	-23.835	9.73	0.3843	0.9333	0.024156	-0.1425	-0.4935	0.465	0	179	341	3
2026-02-19	12:58:25.270	11.585	-40.285	8.645	0.399184	0.95282	0.047824	-0.1425	-0.4935	0.465	0	179	341	3
2026-02-19	12:58:25.290	21.105	-47.46	3.85	0.359168	0.946232	0.07124799	-0.138	-0.4875	0.465	0	179	341	3
2026-02-19	12:58:25.310	37.59	-46.83	-0.98	0.302072	0.933544	0.094428	-0.129	-0.483	0.471	0	179	341	3
2026-02-19	12:58:25.330	34.195	-41.195	-2.765	0.281088	0.929884	0.081984	-0.126	-0.4845	0.483	0	179	341	3
2026-02-19	12:58:25.350	25.13	-32.97	-2.975	0.292068	0.969656	0.079544	-0.123	-0.483	0.492	0	179	341	3
2026-02-19	12:58:25.370	20.475	-20.965	-5.075	0.2867	0.9882	0.098088	-0.12	-0.4815	0.4935	0	179	341	3
2026-02-19	12:58:25.390	20.3	-7.42	-7.875	0.283284	0.98088	0.106872	-0.12	-0.4815	0.4935	0	179	341	3
2026-02-19	12:58:25.410	17.5	1.505	-9.03	0.285724	0.96746	0.106384	-0.1215	-0.4755	0.4965	0	194	281	2
2026-02-19	12:58:25.430	17.745	3.255	-9.1	0.28792	0.957456	0.09516	-0.1215	-0.4755	0.4965	0	194	281	2
2026-02-19	12:58:25.450	20.965	3.29	-9.275	0.290116	0.960872	0.042456	-0.114	-0.4785	0.5025	0	194	281	2
2026-02-19	12:58:25.470	23.275	3.99	-10.78	0.296216	0.977708	-0.015616	-0.114	-0.4755	0.5025	0	194	281	2
2026-02-19	12:58:25.490	26.635	8.26	-12.845	0.30622	0.978196	-0.069052	-0.117	-0.48	0.51	0	194	281	2
2026-02-19	12:58:25.510	29.505	13.545	-14.595	0.300852	0.978684	-0.121512	-0.1095	-0.471	0.5145	0	194	281	2
2026-02-19	12:58:25.530	31.395	15.855	-15.085	0.281576	0.966484	-0.159088	-0.117	-0.4755	0.525	0	194	281	2
2026-02-19	12:58:25.550	35.35	17.255	-16.17	0.27816	0.945988	-0.177632	-0.111	-0.4725	0.5295	0	194	281	2
2026-02-19	12:58:25.570	33.355	18.97	-15.19	0.270596	0.94306	-0.189832	-0.111	-0.465	0.5265	0	194	281	2
2026-02-19	12:58:25.590	37.94	21.385	-16.555	0.282552	0.94184	-0.211548	-0.114	-0.4575	0.5265	0	194	281	2
2026-02-19	12:58:25.610	41.86	22.435	-18.165	0.281088	0.951112	-0.22692	-0.114	-0.4665	0.5415	0	206	214	2
2026-02-19	12:58:25.630	45.325	18.305	-19.46	0.291824	0.971608	-0.212524	-0.114	-0.4635	0.5385	0	206	214	2
2026-02-19	12:58:25.650	38.045	9.905	-20.16	0.271084	0.897676	-0.199592	-0.1065	-0.45	0.5445	0	206	214	2
2026-02-19	12:58:25.670	32.725	2.8	-18.55	0.25986	0.8296	-0.190076	-0.114	-0.4605	0.5475	0	206	214	2
2026-02-19	12:58:25.690	34.3	2.8	-18.655	0.245464	0.89548	-0.182512	-0.105	-0.4485	0.5505	0	206	214	2
2026-02-19	12:58:25.710	35.49	0.49	-19.32	0.2379	0.941108	-0.198128	-0.0975	-0.4485	0.5565	0	206	214	2
2026-02-19	12:58:25.730	36.75	-0.63	-19.145	0.213988	0.929152	-0.24034	-0.099	-0.4545	0.5715	0	206	214	2
2026-02-19	12:58:25.750	35.56	3.92	-21	0.17568	0.988932	-0.254736	-0.093	-0.4395	0.573	0	206	214	2
2026-02-19	12:58:25.770	30.625	2.205	-23.345	0.149816	1.04188	-0.275476	-0.096	-0.4485	0.573	0	206	214	2
2026-02-19	12:58:25.790	30.415	-0.805	-21.35	0.162748	1.002352	-0.313296	-0.099	-0.435	0.5775	0	206	214	2
2026-02-19	12:58:25.810	32.935	9.135	-24.465	0.182024	0.978928	-0.350628	-0.0885	-0.4455	0.579	0	212	180	3
2026-02-19	12:58:25.830	33.635	17.78	-28.35	0.172996	0.973804	-0.343308	-0.084	-0.4365	0.582	0	212	180	3
2026-02-19	12:58:25.850	28.175	19.635	-29.925	0.18422	0.941596	-0.312808	-0.09	-0.4335	0.6	0	212	180	3
2026-02-19	12:58:25.870	11.2	16.275	-28.105	0.184952	0.923784	-0.285724	-0.0885	-0.432	0.5955	0	212	180	3
2026-02-19	12:58:25.890	2.345	8.995	-28	0.1464	0.898408	-0.344528	-0.081	-0.432	0.597	0	212	180	3
2026-02-19	12:58:25.910	21.84	7.7	-34.475	0.092964	0.976488	-0.407968	-0.072	-0.4365	0.606	0	212	180	3
2026-02-19	12:58:25.930	41.475	15.085	-42.91	0.012688	1.009428	-0.438224	-0.072	-0.435	0.6045	0	212	180	3
2026-02-19	12:58:25.950	66.22	5.95	-42.7	0.03416	0.960628	-0.51606	-0.0735	-0.426	0.6075	0	212	180	3
2026-02-19	12:58:25.970	44.835	3.29	-34.72	0.119072	0.981368	-0.460672	-0.0645	-0.423	0.609	0	212	180	3
2026-02-19	12:58:25.990	-9.94	-1.505	-28.035	0.076372	0.980636	-0.368196	-0.0615	-0.4185	0.618	0	212	180	3
2026-02-19	12:58:26.010	-9.66	-3.045	-30.03	0.07564	0.865712	-0.255224	-0.0555	-0.4185	0.615	0	214	189	3
2026-02-19	12:58:26.030	-13.545	-14.07	-22.435	0.102724	0.747128	-0.127124	-0.051	-0.4275	0.612	0	214	189	3
2026-02-19	12:58:26.050	-41.195	-26.67	-13.475	0.15982	0.764452	-0.093696	-0.054	-0.432	0.6165	0	214	189	3
2026-02-19	12:58:26.070	-40.355	-42.525	-3.99	0.130052	0.807152	-0.139812	-0.039	-0.4335	0.609	0	214	189	3
2026-02-19	12:58:26.090	-10.36	-54.46	-2.73	0.0366	0.942816	-0.245708	-0.0375	-0.4335	0.609	0	214	189	3
2026-02-19	12:58:26.110	38.92	-60.62	-7.28	-0.0305	1.150216	-0.32208	-0.0315	-0.435	0.609	0	214	189	3
2026-02-19	12:58:26.130	4.375	-59.535	1.89	-0.06344	1.144604	-0.346968	-0.0165	-0.435	0.6105	0	214	189	3
2026-02-19	12:58:26.150	-46.795	-55.055	21.945	-0.03904	1.061156	-0.27572	-0.009	-0.4305	0.615	0	214	189	3
2026-02-19	12:58:26.170	-64.925	-48.09	35.735	0.005856	1.029436	-0.26352	-0.0075	-0.441	0.612	0	214	189	3
2026-02-19	12:58:26.190	-41.16	-56.455	39.2	-0.035868	1.224148	-0.210084	-0.009	-0.45	0.5865	0	214	189	3
2026-02-19	12:58:26.210	-48.265	-32.9	21.105	0.006588	0.999424	-0.013908	-0.009	-0.4515	0.5955	0	214	214	3
2026-02-19	12:58:26.230	-17.5	-6.51	-2.205	0.017568	0.978684	-0.0305	-0.012	-0.4605	0.5895	0	214	214	3
2026-02-19	12:58:26.250	-4.34	-0.665	-3.745	-0.010492	0.996984	-0.047092	-0.0075	-0.45	0.585	0	214	214	3
2026-02-19	12:58:26.270	-10.675	7.665	-1.4	-0.061	1.01016	-0.069296	-0.0015	-0.456	0.588	0	214	214	3
2026-02-19	12:58:26.290	-16.625	21.49	0.91	-0.079544	0.8906	-0.134932	-0.0045	-0.453	0.582	0	214	214	3
2026-02-19	12:58:26.310	-7	28.665	1.82	-0.05856	0.925004	-0.227652	-0.006	-0.465	0.576	0	214	214	3
2026-02-19	12:58:26.330	-7.245	31.22	0.245	0.014152	1.027484	-0.30744	-0.0105	-0.462	0.5805	0	214	214	3
2026-02-19	12:58:26.350	-16.45	37.24	-0.805	0.117608	0.975268	-0.372344	-0.0105	-0.4575	0.5715	0	214	214	3
2026-02-19	12:58:26.370	-9.205	35.56	3.045	0.12322	0.950868	-0.4453	-0.0105	-0.4575	0.5715	0	214	214	3
2026-02-19	12:58:26.390	1.47	25.375	8.225	0.088816	0.952576	-0.5063	-0.0105	-0.4575	0.5715	0	214	214	3
2026-02-19	12:58:26.410	3.99	9.975	15.085	0.061488	0.91622	-0.5124	-0.0225	-0.4635	0.5745	0	212	230	3
2026-02-19	12:58:26.430	11.48	-8.225	22.995	0.066612	0.954284	-0.501176	-0.033	-0.465	0.5745	0	212	230	3
2026-02-19	12:58:26.450	22.855	-24.36	30.415	0.083204	0.915	-0.451644	-0.0315	-0.462	0.5715	0	212	230	3
2026-02-19	12:58:26.470	29.085	-32.69	36.295	0.069296	0.959896	-0.4575	-0.0315	-0.462	0.5715	0	212	230	3
2026-02-19	12:58:26.490	33.74	-37.8	39.655	0.012688	0.993812	-0.465064	-0.0345	-0.4605	0.5895	0	212	230	3
2026-02-19	12:58:26.510	37.52	-40.845	39.55	-0.100284	0.962092	-0.416752	-0.0345	-0.4605	0.5895	0	212	230	3
2026-02-19	12:58:26.530	43.61	-30.555	33.495	-0.096868	0.980148	-0.393816	-0.039	-0.4425	0.5955	0	212	230	3
2026-02-19	12:58:26.550	55.825	-20.125	27.86	-0.007808	1.0187	-0.418216	-0.033	-0.4515	0.6045	0	212	230	3
2026-02-19	12:58:26.570	58.45	-20.125	24.395	0.046848	1.059448	-0.404064	-0.045	-0.444	0.603	0	212	230	3
2026-02-19	12:58:26.590	54.25	-31.815	24.885	0.027328	1.072624	-0.130296	-0.036	-0.432	0.618	0	212	230	3
2026-02-19	12:58:26.610	23.205	-28.07	29.855	0.38796	1.042856	-0.068564	-0.0405	-0.42	0.6285	0	211	253	3
2026-02-19	12:58:26.630	21.455	-30.695	50.54	0.62952	1.115812	-0.102968	-0.042	-0.426	0.6255	0	211	253	3
2026-02-19	12:58:26.650	-5.04	1.715	46.655	0.4575	1.460828	-0.152256	-0.0405	-0.4245	0.63	0	211	253	3
2026-02-19	12:58:26.670	10.185	35.98	16.415	0.260592	1.303692	-0.395036	-0.051	-0.4245	0.6375	0	211	253	3
2026-02-19	12:58:26.690	36.19	21.84	2.8	0.110288	0.999912	-0.131272	-0.051	-0.411	0.627	0	211	253	3
2026-02-19	12:58:26.710	17.745	41.79	-8.155	0.062708	0.952332	0.133956	-0.06	-0.4125	0.636	0	211	253	3
2026-02-19	12:58:26.730	2.695	77.175	-17.15	0.143228	0.985272	-0.015128	-0.069	-0.408	0.636	0	211	253	3
2026-02-19	12:58:26.750	62.3	68.285	-19.355	0.125172	0.898896	-0.262788	-0.0795	-0.4095	0.6315	0	211	253	3
2026-02-19	12:58:26.770	30.765	67.235	-18.865	0.158844	0.771284	-0.385032	-0.081	-0.411	0.639	0	211	253	3
2026-02-19	12:58:26.790	-53.69	83.79	-27.755	0.26962	0.8052	-0.326472	-0.0855	-0.393	0.6375	0	211	253	3
2026-02-19	12:58:26.810	-69.825	79.485	-23.135	0.382836	0.900848	-0.359412	-0.0855	-0.402	0.627	0	212	266	3
2026-02-19	12:58:26.830	-54.985	63.35	-14.49	0.37088	0.881328	-0.40992	-0.0915	-0.417	0.6135	0	212	266	3
2026-02-19	12:58:26.850	-41.51	48.475	-11.585	0.27572	0.862784	-0.414556	-0.108	-0.426	0.6255	0	212	266	3
2026-02-19	12:58:26.870	-32.865	26.88	-6.02	0.248148	0.893528	-0.32696	-0.102	-0.4275	0.594	0	212	266	3
2026-02-19	12:58:26.890	-31.395	5.985	8.645	0.313296	0.996008	-0.281332	-0.1185	-0.4365	0.5925	0	212	266	3
2026-02-19	12:58:26.910	-22.54	-7.14	14.315	0.389424	1.002352	-0.233996	-0.108	-0.4305	0.591	0	212	266	3
2026-02-19	12:58:26.930	6.335	-4.13	-1.785	0.372588	0.939644	-0.2013	-0.1155	-0.4335	0.5805	0	212	266	3
2026-02-19	12:58:26.950	25.9	-0.595	-12.285	0.305244	0.950868	-0.181536	-0.12	-0.4395	0.591	0	212	266	3
2026-02-19	12:58:26.970	23.695	0.14	-13.3	0.267912	0.989176	-0.154452	-0.1125	-0.438	0.5925	0	212	266	3
2026-02-19	12:58:26.990	20.58	-0.315	-14.665	0.22326	0.97722	-0.134932	-0.1125	-0.435	0.594	0	212	266	3
2026-02-19	12:58:27.010	20.335	-3.815	-16.1	0.19276	0.978928	-0.157624	-0.114	-0.435	0.597	0	214	269	3
2026-02-19	12:58:27.030	25.55	-3.675	-19.04	0.187636	0.945744	-0.194468	-0.1005	-0.429	0.6045	0	214	269	3
2026-02-19	12:58:27.050	30.275	1.505	-23.765	0.184952	0.92598	-0.240584	-0.105	-0.426	0.6135	0	214	269	3
2026-02-19	12:58:27.070	29.05	1.225	-23.8	0.183976	0.882304	-0.313296	-0.096	-0.4215	0.6045	0	214	269	3
2026-02-19	12:58:27.090	19.215	-2.59	-17.92	0.192516	0.914756	-0.370392	-0.102	-0.423	0.615	0	214	269	3
2026-02-19	12:58:27.110	14.665	-5.67	-16.205	0.19032	0.883524	-0.362828	-0.105	-0.42	0.615	0	214	269	3
2026-02-19	12:58:27.130	21.245	-4.585	-19.11	0.175192	0.918904	-0.363316	-0.0915	-0.4125	0.6135	0	214	269	3
2026-02-19	12:58:27.150	17.605	-4.97	-19.775	0.146156	0.902068	-0.360632	-0.0975	-0.4155	0.615	0	214	269	3
2026-02-19	12:58:27.170	13.685	-6.65	-18.445	0.138836	0.8967	-0.398208	-0.093	-0.4275	0.609	0	214	269	3
2026-02-19	12:58:27.190	15.68	-6.125	-19.005	0.156892	0.900116	-0.41236	-0.0825	-0.4185	0.6225	0	214	269	3
2026-02-19	12:58:27.210	20.825	-5.32	-20.51	0.17446	0.909632	-0.433344	-0.0765	-0.423	0.6285	0	214	271	3
2026-02-19	12:58:27.230	23.765	-4.585	-20.86	0.185928	0.925004	-0.422608	-0.0825	-0.42	0.6255	0	214	271	3
2026-02-19	12:58:27.250	27.125	-4.13	-20.055	0.190076	0.917684	-0.420168	-0.078	-0.4155	0.6315	0	214	271	3
2026-02-19	12:58:27.270	30.205	-2.52	-19.18	0.179584	0.9211	-0.411384	-0.0675	-0.408	0.639	0	214	271	3
2026-02-19	12:58:27.290	32.55	2.275	-21.98	0.158112	0.927444	-0.408456	-0.072	-0.4155	0.6435	0	214	271	3
2026-02-19	12:58:27.310	36.155	1.575	-23.695	0.159088	0.94916	-0.443348	-0.066	-0.4065	0.639	0	214	271	3
2026-02-19	12:58:27.330	36.715	-4.97	-21.63	0.18666	0.93208	-0.44896	-0.066	-0.405	0.648	0	214	271	3
2026-02-19	12:58:27.350	39.13	-11.97	-16.94	0.23424	0.899384	-0.420168	-0.063	-0.393	0.645	0	214	271	3
2026-02-19	12:58:27.370	40.215	-17.15	-12.845	0.25498	0.894016	-0.433344	-0.06	-0.3885	0.6555	0	214	271	3
2026-02-19	12:58:27.390	39.795	-21.245	-12.215	0.244488	0.91256	-0.446764	-0.06	-0.39	0.66	0	214	271	3
2026-02-19	12:58:27.410	34.58	-26.215	-10.57	0.254736	0.89914	-0.42578	-0.057	-0.387	0.669	0	211	290	3
2026-02-19	12:58:27.430	21.385	-29.435	-4.83	0.193736	0.8784	-0.4026	-0.051	-0.3855	0.675	0	211	290	3
2026-02-19	12:58:27.450	12.915	-23.59	-3.57	0.11224	0.913536	-0.431148	-0.042	-0.378	0.681	0	211	290	3
2026-02-19	12:58:27.470	3.535	-25.13	0.35	0.064416	0.905728	-0.45384	-0.042	-0.378	0.681	0	211	290	3
2026-02-19	12:58:27.490	-10.255	-24.92	5.355	0.094916	0.948672	-0.481656	-0.042	-0.378	0.681	0	211	290	3
2026-02-19	12:58:27.510	-14.14	-8.33	0.7	0.0488	0.971608	-0.537532	-0.0375	-0.378	0.6765	0	211	290	3
2026-02-19	12:58:27.530	-5.88	-18.305	5.075	-0.008784	0.977952	-0.514108	-0.033	-0.3795	0.672	0	211	290	3
2026-02-19	12:58:27.550	-15.505	-42.035	16.17	-0.05856	0.911096	-0.376736	-0.033	-0.3795	0.672	0	211	290	3
2026-02-19	12:58:27.570	-28.63	-49.805	21.945	-0.082716	0.843508	-0.31598	-0.033	-0.3915	0.6855	0	211	290	3
2026-02-19	12:58:27.590	-35.14	-40.67	22.19	-0.08418	0.81252	-0.338184	-0.033	-0.3915	0.6855	0	211	290	3
2026-02-19	12:58:27.610	-44.66	-25.235	18.06	-0.017812	0.73932	-0.298168	-0.024	-0.3885	0.6705	0	205	320	3
2026-02-19	12:58:27.630	-52.29	-29.47	19.11	0.037576	0.763232	-0.2501	-0.0225	-0.396	0.6585	0	205	320	3
2026-02-19	12:58:27.650	-59.85	-49.455	29.54	0.034648	0.76494	-0.211548	-0.024	-0.402	0.66	0	205	320	3
2026-02-19	12:58:27.670	-67.795	-61.215	40.6	0.02562	0.833992	-0.204716	-0.0225	-0.4065	0.6525	0	205	320	3
2026-02-19	12:58:27.690	-74.34	-63.945	46.375	0.057828	0.975024	-0.25864	-0.024	-0.426	0.645	0	205	320	3
2026-02-19	12:58:27.710	-66.99	-62.02	41.65	0.101992	1.08336	-0.30866	-0.0135	-0.4245	0.6435	0	205	320	3
2026-02-19	12:58:27.730	-68.18	-63.175	47.285	0.080276	1.021628	-0.281576	-0.0165	-0.4485	0.63	0	205	320	3
2026-02-19	12:58:27.750	-96.845	-68.635	65.765	0.050264	1.189012	-0.31232	-0.015	-0.4455	0.6165	0	205	320	3
2026-02-19	12:58:27.770	-108.115	-63.42	61.845	0.114924	1.082872	-0.199592	-0.018	-0.4605	0.6015	0	205	320	3
2026-02-19	12:58:27.790	-27.51	-84.525	57.61	0.0976	1.098976	-0.136884	-0.018	-0.471	0.5805	0	205	320	3
2026-02-19	12:58:27.810	-3.36	-81.165	56.175	0.02196	1.21024	-0.179096	-0.0225	-0.477	0.582	0	200	334	3
2026-02-19	12:58:27.830	8.47	-65.835	38.465	-0.180072	1.243668	-0.088084	-0.0195	-0.477	0.5835	0	200	334	3
2026-02-19	12:58:27.850	31.15	-35.175	16.52	-0.211548	1.111664	-0.091012	-0.021	-0.4635	0.579	0	200	334	3
2026-02-19	12:58:27.870	59.815	-11.69	6.685	-0.19398	1.00528	-0.129076	-0.0165	-0.477	0.594	0	200	334	3
2026-02-19	12:58:27.890	60.34	5.46	-2.87	-0.096624	0.998936	-0.216428	-0.015	-0.4635	0.6105	0	200	334	3
2026-02-19	12:58:27.910	53.235	9.555	-7.805	-0.01708	1.020164	-0.200568	-0.0075	-0.4575	0.6105	0	200	334	3
2026-02-19	12:58:27.930	29.575	20.86	-8.925	0.018056	0.98332	-0.283528	-0.0165	-0.4575	0.621	0	200	334	3
2026-02-19	12:58:27.950	37.17	24.57	-10.605	-0.045628	0.946476	-0.400648	-0.0195	-0.45	0.621	0	200	334	3
2026-02-19	12:58:27.970	16.135	39.9	-19.215	0.03416	0.878644	-0.390888	-0.015	-0.447	0.624	0	200	334	3
2026-02-19	12:58:27.990	-20.685	58.275	-21.455	0.101992	0.870592	-0.32452	-0.024	-0.4365	0.636	0	200	334	3
2026-02-19	12:58:28.010	-34.37	66.115	-15.05	0.137128	0.983076	-0.319152	-0.021	-0.4515	0.6225	0	196	325	3
2026-02-19	12:58:28.030	-36.715	59.955	-8.68	0.083692	1.054324	-0.360388	-0.036	-0.4545	0.618	0	196	325	3
2026-02-19	12:58:28.050	-26.67	52.535	-8.365	0.074664	0.960384	-0.41236	-0.0345	-0.4515	0.5955	0	196	325	3
2026-02-19	12:58:28.070	-17.36	44.415	-5.985	0.076372	0.929884	-0.447008	-0.045	-0.45	0.6	0	196	325	3
2026-02-19	12:58:28.090	-3.01	29.575	0.385	0.150304	1.016504	-0.517768	-0.054	-0.468	0.6	0	196	325	3
2026-02-19	12:58:28.110	19.74	7.735	7.7	0.18178	1.037732	-0.523868	-0.0525	-0.4605	0.5985	0	196	325	3
2026-02-19	12:58:28.130	39.62	-13.545	12.005	0.183732	0.99186	-0.404796	-0.06	-0.4635	0.603	0	196	325	3
2026-02-19	12:58:28.150	39.13	-12.04	13.335	0.210084	1.002352	-0.228872	-0.054	-0.453	0.6075	0	196	325	3
2026-02-19	12:58:28.170	32.585	-2.135	13.65	0.094916	1.05652	-0.194468	-0.063	-0.4485	0.6105	0	196	325	3
2026-02-19	12:58:28.190	27.79	10.325	8.085	0.050508	1.029192	-0.2928	-0.0645	-0.447	0.609	0	196	325	3
2026-02-19	12:58:28.210	30.66	4.095	7.7	0.159576	0.998204	-0.300608	-0.057	-0.4455	0.618	0	194	318	3
2026-02-19	12:58:28.230	20.265	-5.81	10.605	0.313296	1.055056	-0.152012	-0.0585	-0.4485	0.624	0	194	318	3
2026-02-19	12:58:28.250	-16.94	-0.385	16.17	0.379664	1.179008	0.049776	-0.069	-0.4395	0.6255	0	194	318	3
2026-02-19	12:58:28.270	-71.435	19.005	21.49	0.348188	1.191696	0.040992	-0.072	-0.4395	0.6225	0	194	318	3
2026-02-19	12:58:28.290	-68.215	24.815	22.75	0.224968	1.046516	-0.124928	-0.0735	-0.4545	0.609	0	194	318	3
2026-02-19	12:58:28.310	-23.695	34.51	8.855	0.147132	0.89182	-0.216672	-0.0825	-0.4575	0.588	0	194	318	3
2026-02-19	12:58:28.330	-18.13	43.855	-1.785	0.230092	0.914512	-0.1708	-0.0825	-0.4545	0.594	0	194	318	3
2026-02-19	12:58:28.350	-19.215	38.43	0.665	0.373564	0.98332	-0.201056	-0.0915	-0.4665	0.582	0	194	318	3
2026-02-19	12:58:28.370	4.305	24.99	-1.155	0.40748	0.98576	-0.196908	-0.0945	-0.4665	0.5805	0	194	318	3
2026-02-19	12:58:28.390	6.615	24.115	-1.68	0.359412	0.989908	-0.144692	-0.102	-0.462	0.582	0	194	318	3
2026-02-19	12:58:28.410	-1.575	33.215	-0.805	0.3233	1.017968	-0.166408	-0.099	-0.4575	0.576	0	193	303	3
2026-02-19	12:58:28.430	-3.08	32.935	1.19	0.316712	1.01504	-0.204716	-0.102	-0.462	0.5835	0	193	303	3
2026-02-19	12:58:28.450	4.165	27.02	0.315	0.314028	0.948672	-0.199836	-0.1065	-0.4545	0.5865	0	193	303	3
2026-02-19	12:58:28.470	7	16.24	3.92	0.319884	0.90524	-0.223504	-0.105	-0.4515	0.576	0	193	303	3
2026-02-19	12:58:28.490	10.605	-0.245	6.965	0.33794	0.947452	-0.215452	-0.111	-0.4605	0.588	0	193	303	3
2026-02-19	12:58:28.510	4.445	-11.83	9.45	0.363804	0.929884	-0.171044	-0.111	-0.468	0.5805	0	193	303	3
2026-02-19	12:58:28.530	0.875	-14.805	10.29	0.372344	0.943792	-0.140544	-0.117	-0.462	0.5775	0	193	303	3
2026-02-19	12:58:28.550	7.805	-3.5	4.305	0.288896	0.955992	-0.136396	-0.111	-0.456	0.5745	0	193	303	3
2026-02-19	12:58:28.570	11.025	6.405	-0.7	0.193492	0.901336	-0.224236	-0.117	-0.462	0.582	0	193	303	3
2026-02-19	12:58:28.590	15.645	2.8	-1.05	0.157136	0.903776	-0.25742	-0.1155	-0.4545	0.5835	0	193	303	3
2026-02-19	12:58:28.610	23.415	-4.69	-2.31	0.16836	0.949404	-0.274012	-0.1155	-0.4545	0.5835	0	192	279	3
2026-02-19	12:58:28.630	26.32	-10.71	-2.975	0.183732	0.950624	-0.226432	-0.114	-0.4485	0.588	0	192	279	3
2026-02-19	12:58:28.650	23.485	-9.345	-3.185	0.184708	0.951112	-0.187392	-0.1155	-0.459	0.591	0	192	279	3
2026-02-19	12:58:28.670	20.125	-2.73	-5.355	0.216916	0.938668	-0.199104	-0.1155	-0.459	0.591	0	192	279	3
2026-02-19	12:58:28.690	20.755	2.555	-9.03	0.260592	0.941596	-0.209596	-0.1065	-0.447	0.5865	0	192	279	3
2026-02-19	12:58:28.710	19.74	9.73	-12.355	0.287432	0.944768	-0.200812	-0.114	-0.45	0.588	0	192	279	3
2026-02-19	12:58:28.730	21.175	13.965	-14.735	0.280356	0.916464	-0.25742	-0.111	-0.444	0.5895	0	192	279	3
2026-02-19	12:58:28.750	25.095	7.21	-12.635	0.243024	0.913536	-0.362828	-0.108	-0.4395	0.606	0	192	279	3
2026-02-19	12:58:28.770	26.81	11.27	-15.295	0.173728	0.915732	-0.384544	-0.114	-0.447	0.603	0	192	279	3
2026-02-19	12:58:28.790	25.235	22.085	-20.23	0.141764	0.951356	-0.32208	-0.1065	-0.4395	0.5985	0	192	279	3
2026-02-19	12:58:28.810	21.035	24.465	-23.8	0.134932	0.962336	-0.270352	-0.111	-0.4395	0.606	0	189	262	2
2026-02-19	12:58:28.830	17.99	24.325	-24.045	0.154696	0.959896	-0.27694	-0.1095	-0.4275	0.6045	0	189	262	2
2026-02-19	12:58:28.850	14.35	26.46	-24.29	0.18544	0.91256	-0.319396	-0.1155	-0.4395	0.6075	0	189	262	2
2026-02-19	12:58:28.870	16.8	29.435	-26.985	0.16592	0.88206	-0.311832	-0.1095	-0.435	0.6045	0	189	262	2
2026-02-19	12:58:28.890	14.21	34.79	-29.295	0.198372	0.917684	-0.347212	-0.1125	-0.444	0.618	0	189	262	2
2026-02-19	12:58:28.910	16.45	31.36	-27.965	0.273768	0.922808	-0.405528	-0.1125	-0.4365	0.612	0	189	262	2
2026-02-19	12:58:28.930	24.745	23.695	-24.36	0.291824	0.86986	-0.471652	-0.114	-0.426	0.6165	0	189	262	2
2026-02-19	12:58:28.950	28.56	9.8	-19.635	0.216184	0.891332	-0.421876	-0.114	-0.432	0.621	0	189	262	2
2026-02-19	12:58:28.970	24.29	5.88	-16.17	0.182756	0.960872	-0.400892	-0.1095	-0.429	0.606	0	189	262	2
2026-02-19	12:58:28.990	24.815	3.745	-14.105	0.17324	0.94794	-0.444812	-0.105	-0.4245	0.6225	0	189	262	2
2026-02-19	12:58:29.010	24.71	-3.885	-11.865	0.177876	0.948916	-0.4697	-0.108	-0.4275	0.6165	0	184	266	3
2026-02-19	12:58:29.030	24.045	-11.13	-10.22	0.192516	0.944524	-0.436272	-0.1065	-0.4245	0.633	0	184	266	3
2026-02-19	12:58:29.050	22.12	-8.96	-13.825	0.18056	0.903044	-0.414068	-0.102	-0.426	0.624	0	184	266	3
2026-02-19	12:58:29.070	19.915	-6.475	-17.255	0.16104	0.901336	-0.40504	-0.105	-0.426	0.6315	0	184	266	3
2026-02-19	12:58:29.090	17.36	-3.43	-20.02	0.157136	0.891088	-0.410652	-0.102	-0.429	0.63	0	184	266	3
2026-02-19	12:58:29.110	20.335	-7.42	-20.755	0.134932	0.900116	-0.425536	-0.096	-0.414	0.627	0	184	266	3
2026-02-19	12:58:29.130	23.975	-19.145	-16.905	0.13176	0.879132	-0.438712	-0.087	-0.4215	0.63	0	184	266	3
2026-02-19	12:58:29.150	23.835	-24.325	-13.755	0.13786	0.854976	-0.423828	-0.09	-0.426	0.6345	0	184	266	3
2026-02-19	12:58:29.170	22.61	-21.84	-13.895	0.13298	0.8601	-0.406992	-0.093	-0.4155	0.6405	0	184	266	3
2026-02-19	12:58:29.190	20.405	-18.445	-13.79	0.133956	0.853268	-0.421876	-0.0855	-0.426	0.6405	0	184	266	3
2026-02-19	12:58:29.210	15.4	-18.025	-11.865	0.133468	0.849852	-0.409676	-0.0795	-0.405	0.651	0	178	293	3
2026-02-19	12:58:29.230	7.42	-15.505	-9.135	0.133956	0.85278	-0.418704	-0.0735	-0.4065	0.6555	0	178	293	3
2026-02-19	12:58:29.250	4.165	-13.58	-7.945	0.116876	0.876936	-0.44042	-0.0735	-0.4095	0.6525	0	178	293	3
2026-02-19	12:58:29.270	-3.15	-10.36	-9.24	0.089548	0.892308	-0.472872	-0.0735	-0.411	0.6525	0	178	293	3
2026-02-19	12:58:29.290	-6.79	-10.22	-8.785	0.102968	0.901336	-0.487512	-0.0705	-0.417	0.66	0	178	293	3
2026-02-19	12:58:29.310	-8.015	-10.185	-8.68	0.125172	0.917928	-0.51728	-0.063	-0.417	0.648	0	178	293	3
2026-02-19	12:58:29.330	-5.39	-11.9	-8.785	0.139324	0.89792	-0.52704	-0.0585	-0.4065	0.6435	0	178	293	3
2026-02-19	12:58:29.350	-1.19	-14.035	-8.645	0.140056	0.89304	-0.537532	-0.06	-0.42	0.657	0	178	293	3
2026-02-19	12:58:29.370	0.595	-15.82	-7.245	0.14396	0.895724	-0.517524	-0.0615	-0.4185	0.654	0	178	293	3
2026-02-19	12:58:29.390	-3.045	-15.26	-6.72	0.131272	0.875228	-0.520208	-0.057	-0.423	0.6465	0	178	293	3
2026-02-19	12:58:29.410	-2.87	-11.62	-7.91	0.089548	0.906704	-0.50996	-0.054	-0.4305	0.66	0	171	332	3
2026-02-19	12:58:29.430	-7.14	-6.51	-8.925	0.06588	0.914512	-0.501664	-0.0525	-0.435	0.645	0	171	332	3
2026-02-19	12:58:29.450	-16.1	-5.285	-5.32	0.052948	0.910608	-0.501664	-0.048	-0.426	0.669	0	171	332	3
2026-02-19	12:58:29.470	-19.775	-11.41	0.91	0.040504	0.89182	-0.499468	-0.0465	-0.4275	0.648	0	171	332	3
2026-02-19	12:58:29.490	-13.265	-20.16	6.51	0.043676	0.88694	-0.497272	-0.048	-0.435	0.645	0	171	332	3
2026-02-19	12:58:29.510	-7.945	-29.365	10.64	0.003172	0.855708	-0.4575	-0.0435	-0.4395	0.6345	0	171	332	3
2026-02-19	12:58:29.530	-14.665	-36.12	13.405	0.014396	0.8601	-0.35014	-0.0495	-0.444	0.6435	0	171	332	3
2026-02-19	12:58:29.550	-22.4	-49.945	14.35	0.039284	0.920612	-0.26718	-0.039	-0.4365	0.6405	0	171	332	3
2026-02-19	12:58:29.570	-26.53	-68.495	19.11	0.070028	0.897676	-0.184464	-0.039	-0.45	0.6375	0	171	332	3
2026-02-19	12:58:29.590	-36.4	-80.815	29.645	0.041236	0.807152	-0.148108	-0.0315	-0.453	0.63	0	171	332	3
2026-02-19	12:58:29.610	-43.47	-86.8	39.2	0.043432	0.894992	-0.189344	-0.024	-0.4635	0.6315	0	164	366	3
2026-02-19	12:58:29.630	-46.305	-94.08	45.29	0.041236	1.058716	-0.219844	-0.024	-0.471	0.621	0	164	366	3
2026-02-19	12:58:29.650	-58.275	-100.66	54.04	0.059292	1.088972	-0.209352	-0.0165	-0.4785	0.6195	0	164	366	3
2026-02-19	12:58:29.670	-65.065	-101.08	61.495	0.0793	1.06506	-0.166164	-0.0105	-0.4905	0.621	0	164	366	3
2026-02-19	12:58:29.690	-73.955	-91.56	67.27	0.084424	1.063596	-0.129076	-0.0105	-0.4905	0.621	0	164	366	3
2026-02-19	12:58:29.710	-72.555	-79.555	68.075	-0.00122	1.092388	-0.225212	-0.0105	-0.4905	0.621	0	164	366	3
2026-02-19	12:58:29.730	-54.81	-77.945	62.615	-0.090524	1.22122	-0.281088	-0.0105	-0.4905	0.621	0	164	366	3
2026-02-19	12:58:29.750	-28.77	-62.125	32.095	-0.15128	1.215852	-0.197884	-0.0105	-0.4905	0.621	0	164	366	3
2026-02-19	12:58:29.770	-16.905	-46.725	22.89	-0.158844	1.204628	-0.172508	-0.0105	-0.507	0.573	0	164	366	3
2026-02-19	12:58:29.790	0.84	-31.64	18.375	-0.197152	1.02114	-0.238632	-0.003	-0.504	0.5655	0	164	366	3
2026-02-19	12:58:29.810	38.745	-31.535	16.065	-0.166896	1.04432	-0.236436	-0.0135	-0.51	0.573	0	161	367	3
2026-02-19	12:58:29.830	48.615	-25.06	5.67	-0.187636	1.105808	-0.266692	-0.012	-0.513	0.573	0	161	367	3
2026-02-19	12:58:29.850	44.415	-18.865	2.835	-0.196664	0.987224	-0.271572	0	-0.513	0.579	0	161	367	3
2026-02-19	12:58:29.870	47.845	-4.2	2.17	-0.153964	0.909388	-0.27572	-0.006	-0.501	0.588	0	161	367	3
2026-02-19	12:58:29.890	16.135	22.4	-6.615	-0.12078	0.970144	-0.269132	0	-0.501	0.5925	0	161	367	3
2026-02-19	12:58:29.910	-12.6	47.81	-13.37	-0.057096	0.976732	-0.232044	-0.0105	-0.4905	0.5895	0	161	367	3
2026-02-19	12:58:29.930	-18.9	61.075	-10.64	0.0854	1.031632	-0.210328	-0.0105	-0.492	0.585	0	161	367	3
2026-02-19	12:58:29.950	-34.685	65.45	-8.855	0.105896	1.048468	-0.205448	-0.021	-0.501	0.5865	0	161	367	3
2026-02-19	12:58:29.970	-51.24	93.66	-17.57	0.121512	0.950136	-0.287188	-0.0195	-0.51	0.588	0	161	367	3
2026-02-19	12:58:29.990	-51.38	116.725	-27.79	0.101992	0.919392	-0.36356	-0.0315	-0.51	0.564	0	161	367	3
2026-02-19	12:58:30.010	-22.12	101.675	-26.425	0.152988	0.859612	-0.612928	-0.0405	-0.51	0.5595	0	161	348	3
2026-02-19	12:58:30.030	28.7	72.205	-12.88	0.226188	0.77592	-0.696132	-0.0435	-0.522	0.54	0	161	348	3
2026-02-19	12:58:30.050	32.13	37.205	3.5	0.152012	0.928908	-0.715896	-0.039	-0.5115	0.5445	0	161	348	3
2026-02-19	12:58:30.070	32.235	-13.685	26.88	0.121024	1.189744	-0.531676	-0.054	-0.5115	0.561	0	161	348	3
2026-02-19	12:58:30.090	58.625	-45.605	39.445	0.1647	1.257576	-0.358436	-0.0525	-0.501	0.5625	0	161	348	3
2026-02-19	12:58:30.110	85.19	-55.02	45.045	0.280356	1.355908	-0.210572	-0.057	-0.498	0.5715	0	161	348	3
2026-02-19	12:58:30.130	66.22	-37.94	40.46	0.325984	1.385676	-0.190076	-0.057	-0.489	0.588	0	161	348	3
2026-02-19	12:58:30.150	61.32	-25.9	30.1	0.1586	1.173884	-0.241316	-0.063	-0.4815	0.603	0	161	348	3
2026-02-19	12:58:30.170	55.335	-3.325	14.07	-0.088328	0.948672	-0.20496	-0.0525	-0.474	0.6015	0	161	348	3
2026-02-19	12:58:30.190	44.38	21.175	-1.295	-0.151768	0.86864	-0.199836	-0.06	-0.474	0.6195	0	161	348	3
2026-02-19	12:58:30.210	42.21	34.86	-12.95	-0.00732	0.924272	-0.269864	-0.0705	-0.4545	0.624	0	166	338	3
2026-02-19	12:58:30.230	25.55	19.705	-7.595	0.334036	0.942084	-0.042944	-0.069	-0.456	0.627	0	166	338	3
2026-02-19	12:58:30.250	-31.71	-15.785	19.67	0.390888	0.965996	0.147132	-0.069	-0.4515	0.6255	0	166	338	3
2026-02-19	12:58:30.270	-63.735	5.46	22.4	0.237656	0.887672	0.015616	-0.0645	-0.4455	0.624	0	166	338	3
2026-02-19	12:58:30.290	-62.265	53.34	7.91	0.165676	0.878888	-0.35014	-0.069	-0.459	0.6195	0	166	338	3
2026-02-19	12:58:30.310	-58.59	64.26	-1.995	0.153232	0.85034	-0.480924	-0.081	-0.4665	0.6	0	166	338	3
2026-02-19	12:58:30.330	-45.36	45.465	-7.035	0.267424	0.836676	-0.4392	-0.084	-0.4755	0.5985	0	166	338	3
2026-02-19	12:58:30.350	-19.495	23.135	-2.52	0.38552	0.853268	-0.351848	-0.0915	-0.477	0.5835	0	166	338	3
2026-02-19	12:58:30.370	20.58	22.19	-16.415	0.376248	0.976976	-0.15494	-0.09	-0.477	0.573	0	166	338	3
2026-02-19	12:58:30.390	31.57	18.27	-23.065	0.358924	0.98088	-0.057096	-0.093	-0.471	0.573	0	166	338	3
2026-02-19	12:58:30.410	29.155	15.33	-17.71	0.279136	0.968924	-0.128832	-0.09	-0.4725	0.588	0	175	322	3
2026-02-19	12:58:30.430	26.915	19.985	-16.8	0.20008	0.914024	-0.2379	-0.09	-0.474	0.579	0	175	322	3
2026-02-19	12:58:30.450	22.715	21.525	-18.55	0.170068	0.88084	-0.290848	-0.0855	-0.4635	0.585	0	175	322	3
2026-02-19	12:58:30.470	23.24	9.03	-16.555	0.171044	0.887428	-0.319884	-0.093	-0.4575	0.5985	0	175	322	3
2026-02-19	12:58:30.490	26.355	-1.995	-15.33	0.162016	0.926712	-0.330132	-0.093	-0.462	0.603	0	175	322	3
2026-02-19	12:58:30.510	28.385	-10.745	-15.82	0.155916	0.963312	-0.310856	-0.0825	-0.4635	0.5985	0	175	322	3
2026-02-19	12:58:30.530	25.76	-18.34	-14.105	0.164944	0.982832	-0.27206	-0.078	-0.462	0.6045	0	175	322	3
2026-02-19	12:58:30.550	18.585	-16.415	-12.67	0.1647	0.990152	-0.238388	-0.0705	-0.4545	0.615	0	175	322	3
2026-02-19	12:58:30.570	11.97	-3.36	-15.75	0.14884	0.959164	-0.265472	-0.0795	-0.459	0.6165	0	175	322	3
2026-02-19	12:58:30.590	10.92	9.94	-21.07	0.146156	0.9089	-0.30622	-0.072	-0.456	0.5985	0	175	322	3
2026-02-19	12:58:30.610	8.75	15.75	-25.095	0.119316	0.919392	-0.321592	-0.0705	-0.456	0.6105	0	184	306	3
2026-02-19	12:58:30.630	7.91	14.63	-26.565	0.094916	0.921588	-0.330132	-0.0675	-0.4545	0.6015	0	184	306	3
2026-02-19	12:58:30.650	6.58	14.21	-27.125	0.119316	0.91012	-0.337208	-0.069	-0.459	0.6135	0	184	306	3
2026-02-19	12:58:30.670	2.695	12.53	-26.39	0.157136	0.92964	-0.345504	-0.0585	-0.45	0.615	0	184	306	3
2026-02-19	12:58:30.690	2.135	10.255	-24.255	0.158844	0.941352	-0.356728	-0.057	-0.456	0.615	0	184	306	3
2026-02-19	12:58:30.710	4.795	14.385	-24.185	0.15494	0.904264	-0.374296	-0.06	-0.456	0.6165	0	184	306	3
2026-02-19	12:58:30.730	11.27	18.83	-26.25	0.1403	0.905972	-0.394548	-0.054	-0.453	0.618	0	184	306	3
2026-02-19	12:58:30.750	14.315	16.31	-27.965	0.12932	0.88938	-0.37332	-0.054	-0.453	0.618	0	184	306	3
2026-02-19	12:58:30.770	12.95	8.995	-27.58	0.093452	0.861808	-0.346236	-0.057	-0.456	0.6165	0	184	306	3
2026-02-19	12:58:30.790	11.725	4.48	-26.04	0.062708	0.869128	-0.34892	-0.0615	-0.4605	0.615	0	184	306	3
2026-02-19	12:58:30.810	12.81	3.64	-25.095	0.068808	0.870592	-0.364536	-0.054	-0.4545	0.618	0	189	304	2
2026-02-19	12:58:30.830	12.81	5.495	-24.395	0.071492	0.892064	-0.406504	-0.0465	-0.4485	0.6225	0	189	304	2
2026-02-19	12:58:30.850	9.94	7.735	-24.99	0.092964	0.897188	-0.445544	-0.0465	-0.4485	0.6225	0	189	304	2
2026-02-19	12:58:30.870	3.64	6.265	-22.225	0.095892	0.899872	-0.462868	-0.0465	-0.4485	0.6225	0	189	304	2
2026-02-19	12:58:30.890	1.61	7.945	-20.335	0.09516	0.88572	-0.462868	-0.033	-0.4545	0.6255	0	189	304	2
2026-02-19	12:58:30.910	9.31	13.755	-22.54	0.077836	0.8418	-0.498248	-0.0315	-0.4515	0.6315	0	189	304	2
2026-02-19	12:58:30.930	15.295	14.63	-21.875	0.083692	0.829112	-0.4941	-0.0345	-0.453	0.621	0	189	304	2
2026-02-19	12:58:30.950	13.755	11.865	-21.14	0.081984	0.85034	-0.488488	-0.027	-0.4515	0.627	0	189	304	2
2026-02-19	12:58:30.970	11.48	8.155	-22.505	0.10492	0.859368	-0.500688	-0.033	-0.462	0.6315	0	189	304	2
2026-02-19	12:58:30.990	3.675	3.465	-22.715	0.081984	0.825452	-0.46604	-0.024	-0.4515	0.6255	0	189	304	2
2026-02-19	12:58:31.010	-4.41	1.75	-22.155	0.103944	0.830332	-0.434076	-0.021	-0.4485	0.6345	0	188	321	2
2026-02-19	12:58:31.030	-8.05	0.91	-22.4	0.077348	0.88572	-0.427488	-0.018	-0.459	0.627	0	188	321	2
2026-02-19	12:58:31.050	-5.145	1.61	-18.935	0.066368	0.932812	-0.433344	-0.012	-0.4545	0.615	0	188	321	2
2026-02-19	12:58:31.070	-6.58	-4.305	-5.46	0.034892	0.976976	-0.45628	-0.0105	-0.45	0.6315	0	188	321	2
2026-02-19	12:58:31.090	-2.94	-25.13	9.87	-0.0671	1.05042	-0.53314	0	-0.4545	0.6375	0	188	321	2
2026-02-19	12:58:31.110	17.955	-48.125	17.92	-0.078568	1.000156	-0.522648	-0.009	-0.4605	0.6345	0	188	321	2
2026-02-19	12:58:31.130	5.74	-43.785	26.67	-0.056364	0.927444	-0.560956	0.0015	-0.4575	0.627	0	188	321	2
2026-02-19	12:58:31.150	1.645	-39.235	23.905	0.05246	0.96014	-0.479216	-0.006	-0.453	0.6315	0	188	321	2
2026-02-19	12:58:31.170	-8.33	-68.11	25.06	-0.025132	1.019188	-0.428952	0	-0.453	0.639	0	188	321	2
2026-02-19	12:58:31.190	-3.325	-106.96	31.745	-0.149328	0.961848	-0.42212	0.0075	-0.459	0.6285	0	188	321	2
2026-02-19	12:58:31.210	-5.53	-123.34	53.165	-0.093452	0.910608	-0.442616	0.0075	-0.459	0.6285	0	185	352	3
2026-02-19	12:58:31.230	-8.995	-128.87	63.735	-0.017568	0.960628	-0.365024	0.0075	-0.459	0.6285	0	185	352	3
2026-02-19	12:58:31.250	-47.74	-121.87	71.75	0.064416	1.042856	-0.22204	0.0345	-0.462	0.627	0	185	352	3
2026-02-19	12:58:31.270	-87.57	-109.235	70.14	0.051728	1.128988	-0.191784	0.039	-0.4695	0.618	0	185	352	3
2026-02-19	12:58:31.290	-74.62	-101.185	51.345	-0.14762	1.458876	-0.14762	0.048	-0.471	0.609	0	185	352	3
2026-02-19	12:58:31.310	-101.115	-40.81	19.74	0.033184	1.13582	0.095892	0.0525	-0.4905	0.594	0	185	352	3
2026-02-19	12:58:31.330	-76.44	3.815	-5.46	-0.0366	1.057496	0.073444	0.0465	-0.501	0.585	0	185	352	3
2026-02-19	12:58:31.350	-18.095	20.895	-16.695	-0.175436	0.980392	-0.038064	0.048	-0.5085	0.5595	0	185	352	3
2026-02-19	12:58:31.370	-5.005	27.335	-20.195	-0.223992	1.072868	-0.09272	0.057	-0.5115	0.5655	0	185	352	3
2026-02-19	12:58:31.390	-27.545	24.115	-22.155	-0.246928	1.077748	-0.081496	0.0555	-0.5085	0.5535	0	185	352	3
2026-02-19	12:58:31.410	-5.915	10.71	-19.775	-0.262544	1.06018	-0.061	0.0555	-0.5085	0.5625	0	183	358	3
2026-02-19	12:58:31.430	-0.77	6.37	-20.265	-0.231556	1.07482	-0.051728	0.0585	-0.5175	0.5505	0	183	358	3
2026-02-19	12:58:31.450	-2.03	2.31	-18.795	-0.152012	1.044808	-0.044896	0.0525	-0.5115	0.549	0	183	358	3
2026-02-19	12:58:31.470	-7.56	2.17	-13.65	-0.06344	0.983564	-0.05002	0.06	-0.5085	0.549	0	183	358	3
2026-02-19	12:58:31.490	-11.305	10.22	-11.27	0.010004	1.03944	-0.115656	0.0675	-0.5145	0.561	0	183	358	3
2026-02-19	12:58:31.510	-26.6	25.865	-10.36	0.055144	1.051396	-0.220088	0.0735	-0.5055	0.549	0	183	358	3
2026-02-19	12:58:31.530	-44.45	40.565	-9.275	0.040992	1.034316	-0.29158	0.0705	-0.5085	0.546	0	183	358	3
2026-02-19	12:58:31.550	-38.15	47.67	-5.355	0.038308	1.004792	-0.337452	0.0735	-0.519	0.543	0	183	358	3
2026-02-19	12:58:31.570	-25.2	45.01	-3.535	0.034892	0.97966	-0.333304	0.06	-0.5265	0.5385	0	183	358	3
2026-02-19	12:58:31.590	-10.675	39.865	-2.03	0.015372	0.976976	-0.31964	0.0645	-0.522	0.531	0	183	358	3
2026-02-19	12:58:31.610	9.87	32.095	-3.045	-0.02562	0.995032	-0.3355	0.054	-0.5175	0.531	0	183	329	3
2026-02-19	12:58:31.630	33.11	21.735	-3.57	-0.051728	0.989176	-0.335988	0.0465	-0.525	0.534	0	183	329	3
2026-02-19	12:58:31.650	47.425	10.08	-0.805	-0.058316	0.965996	-0.342088	0.051	-0.5265	0.5415	0	183	329	3
2026-02-19	12:58:31.670	53.095	-0.35	3.955	-0.050996	0.920368	-0.34526	0.057	-0.5145	0.5475	0	183	329	3
2026-02-19	12:58:31.690	54.355	-9.38	10.92	-0.049532	0.875228	-0.34892	0.054	-0.504	0.561	0	183	329	3
2026-02-19	12:58:31.710	48.37	-15.575	18.76	-0.101504	0.932324	-0.3416	0.0525	-0.501	0.5685	0	183	329	3
2026-02-19	12:58:31.730	37.59	-14.63	23.135	-0.170312	0.976	-0.30012	0.0495	-0.501	0.5745	0	183	329	3
2026-02-19	12:58:31.750	32.165	-8.4	19.635	-0.203252	0.979904	-0.287676	0.0435	-0.4965	0.582	0	183	329	3
2026-02-19	12:58:31.770	33.705	-5.25	16.45	-0.209352	0.961116	-0.320372	0.0465	-0.4935	0.5835	0	183	329	3
2026-02-19	12:58:31.790	34.265	-3.815	15.925	-0.188612	0.954528	-0.360876	0.039	-0.4785	0.5985	0	183	329	3
2026-02-19	12:58:31.810	43.68	-5.74	13.72	-0.168604	1.008208	-0.413824	0.042	-0.48	0.588	0	184	306	3
2026-02-19	12:58:31.830	57.4	-9.38	10.185	-0.16958	1.020652	-0.4148	0.042	-0.48	0.588	0	184	306	3
2026-02-19	12:58:31.850	60.305	-7.455	7.945	-0.188856	0.995276	-0.345504	0.039	-0.4755	0.6	0	184	306	3
2026-02-19	12:58:31.870	49.7	-0.91	6.79	-0.206912	1.05042	-0.27328	0.036	-0.471	0.6135	0	184	306	3
2026-02-19	12:58:31.890	37.625	11.655	1.89	-0.221308	1.106296	-0.272304	0.0345	-0.462	0.624	0	184	306	3
2026-02-19	12:58:31.910	22.54	29.295	-1.925	-0.23302	1.11386	-0.315736	0.0345	-0.4515	0.6375	0	184	306	3
2026-02-19	12:58:31.930	13.44	37.87	-4.13	-0.230336	1.040172	-0.377712	0.0345	-0.4515	0.6405	0	184	306	3
2026-02-19	12:58:31.950	6.02	39.9	-12.075	-0.224236	0.957456	-0.354044	0.0345	-0.4515	0.6405	0	184	306	3
2026-02-19	12:58:31.970	3.045	43.645	-20.44	-0.18666	0.866444	-0.28426	0.0345	-0.4515	0.6405	0	184	306	3
2026-02-19	12:58:31.990	-5.005	50.365	-21.945	-0.073932	0.867176	-0.212768	0.018	-0.4425	0.645	0	184	306	3
2026-02-19	12:58:32.010	-15.855	46.515	-16.03	0.040504	0.956724	-0.168604	0.021	-0.4275	0.645	0	184	301	3
2026-02-19	12:58:32.030	-31.325	39.305	-6.545	0.204716	0.987224	-0.139812	0.0075	-0.438	0.639	0	184	301	3
2026-02-19	12:58:32.050	-59.955	38.395	5.6	0.350872	1.035048	-0.126392	0.009	-0.4335	0.6375	0	184	301	3
2026-02-19	12:58:32.070	-67.585	38.605	16.275	0.381128	1.015284	-0.184708	-0.006	-0.444	0.6255	0	184	301	3
2026-02-19	12:58:32.090	-53.795	45.745	17.115	0.412848	1.0126	-0.303536	0	-0.4515	0.6135	0	184	301	3
2026-02-19	12:58:32.110	-37.45	42	11.62	0.308172	0.91012	-0.463844	-0.009	-0.456	0.603	0	184	301	3
2026-02-19	12:58:32.130	15.855	14.735	11.41	0.13542	0.807152	-0.59414	-0.0225	-0.4605	0.6045	0	184	301	3
2026-02-19	12:58:32.150	40.67	18.585	1.82	0.135908	0.836676	-0.559248	-0.0255	-0.4575	0.597	0	184	301	3
2026-02-19	12:58:32.170	74.69	-1.33	1.54	0.133224	0.897188	-0.508252	-0.0225	-0.447	0.612	0	184	301	3
2026-02-19	12:58:32.190	80.64	-17.08	4.9	0.123952	0.886696	-0.449936	-0.0285	-0.4485	0.6225	0	184	301	3
2026-02-19	12:58:32.210	55.72	-14.875	15.75	0.09857599	0.943792	-0.269132	-0.0285	-0.4485	0.6225	0	185	303	3
2026-02-19	12:58:32.230	29.82	6.615	15.715	0.13176	1.012844	-0.104432	-0.0255	-0.4215	0.63	0	185	303	3
2026-02-19	12:58:32.250	-11.27	35.105	10.15	0.143716	1.097512	0.066612	-0.027	-0.4185	0.6525	0	185	303	3
2026-02-19	12:58:32.270	-61.215	56.735	8.4	0.143228	1.157536	0.044164	-0.033	-0.423	0.642	0	185	303	3
2026-02-19	12:58:32.290	-65.59	42.14	17.535	0.195932	1.058228	-0.172752	-0.0435	-0.4185	0.6435	0	185	303	3
2026-02-19	12:58:32.310	-12.32	10.15	18.515	0.285968	0.992592	-0.39894	-0.051	-0.4335	0.6375	0	185	303	3
2026-02-19	12:58:32.330	9.52	-8.715	17.64	0.239364	0.970876	-0.40382	-0.0465	-0.435	0.618	0	185	303	3
2026-02-19	12:58:32.350	12.53	1.365	18.55	0.25986	1.050908	-0.332816	-0.06	-0.4305	0.624	0	185	303	3
2026-02-19	12:58:32.370	22.575	13.72	17.815	0.29402	0.97112	-0.366488	-0.06	-0.435	0.6315	0	185	303	3
2026-02-19	12:58:32.390	25.76	3.185	23.555	0.30012	0.901336	-0.329156	-0.0615	-0.432	0.624	0	185	303	3
2026-02-19	12:58:32.410	20.825	-1.435	25.585	0.277672	0.88084	-0.328912	-0.078	-0.4245	0.6315	0	189	304	3
2026-02-19	12:58:32.430	17.57	-4.27	26.495	0.239608	0.92964	-0.386252	-0.0765	-0.4215	0.636	0	189	304	3
2026-02-19	12:58:32.450	20.79	-6.79	27.79	0.210816	0.931836	-0.4087	-0.0705	-0.4155	0.63	0	189	304	3
2026-02-19	12:58:32.470	30.625	-4.62	26.775	0.1403	0.930372	-0.378688	-0.0765	-0.4125	0.6405	0	189	304	3
2026-02-19	12:58:32.490	28.63	1.96	22.155	0.013176	1.003572	-0.260348	-0.0795	-0.4065	0.651	0	189	304	3
2026-02-19	12:58:32.510	13.335	18.375	13.09	-0.0549	1.0309	-0.143472	-0.0795	-0.402	0.6495	0	189	304	3
2026-02-19	12:58:32.530	8.89	31.185	4.235	-0.02074	0.94306	-0.294752	-0.0855	-0.402	0.6465	0	189	304	3
2026-02-19	12:58:32.550	12.88	22.61	2.975	0.093452	0.824964	-0.48068	-0.096	-0.4005	0.6465	0	189	304	3
2026-02-19	12:58:32.570	22.995	15.995	0.315	0.145424	0.809592	-0.559004	-0.093	-0.3885	0.6495	0	189	304	3
2026-02-19	12:58:32.590	33.04	20.79	-4.2	0.136396	0.842044	-0.49166	-0.0975	-0.387	0.651	0	189	304	3
2026-02-19	12:58:32.610	30.695	20.79	-5.775	0.152012	0.886452	-0.432368	-0.0975	-0.4005	0.6555	0	194	311	2
2026-02-19	12:58:32.630	22.82	15.505	-3.99	0.220088	0.882548	-0.426512	-0.1035	-0.393	0.657	0	194	311	2
2026-02-19	12:58:32.650	14.525	19.04	-4.2	0.245464	0.901092	-0.461648	-0.1065	-0.3855	0.663	0	194	311	2
2026-02-19	12:58:32.670	9.66	24.675	-7.035	0.23058	0.9638	-0.497272	-0.1065	-0.3825	0.663	0	194	311	2
2026-02-19	12:58:32.690	9.73	23.17	-6.23	0.225944	0.936472	-0.513864	-0.1095	-0.3795	0.666	0	194	311	2
2026-02-19	12:58:32.710	9.59	19.81	-4.795	0.265228	0.892552	-0.515084	-0.111	-0.3765	0.6615	0	194	311	2
2026-02-19	12:58:32.730	23.59	12.67	-5.075	0.208376	0.861076	-0.52582	-0.1185	-0.375	0.6645	0	194	311	2
2026-02-19	12:58:32.750	34.195	1.05	-2.905	0.194468	0.894016	-0.440664	-0.117	-0.3735	0.6645	0	194	311	2
2026-02-19	12:58:32.770	33.425	4.095	-5.95	0.190808	0.859612	-0.415776	-0.1095	-0.369	0.681	0	194	311	2
2026-02-19	12:58:32.790	20.86	2.03	-4.76	0.175192	0.839116	-0.428464	-0.117	-0.369	0.6735	0	194	311	2
2026-02-19	12:58:32.810	12.215	-0.35	-4.095	0.166896	0.839604	-0.467504	-0.123	-0.363	0.678	0	197	334	3
2026-02-19	12:58:32.830	11.095	3.045	-5.95	0.190564	0.813984	-0.503616	-0.1125	-0.3705	0.678	0	197	334	3
2026-02-19	12:58:32.850	12.39	8.085	-7.735	0.22692	0.816912	-0.52704	-0.114	-0.3555	0.669	0	197	334	3
2026-02-19	12:58:32.870	14.315	5.81	-6.615	0.220576	0.823256	-0.520452	-0.114	-0.3555	0.672	0	197	334	3
2026-02-19	12:58:32.890	15.12	2.765	-5.285	0.222528	0.82472	-0.511912	-0.117	-0.3585	0.6765	0	197	334	3
2026-02-19	12:58:32.910	16.03	0.525	-4.795	0.201056	0.838628	-0.529968	-0.117	-0.3585	0.6765	0	197	334	3
2026-02-19	12:58:32.930	16.59	-0.63	-5.285	0.226432	0.816912	-0.526308	-0.12	-0.354	0.681	0	197	334	3
2026-02-19	12:58:32.950	17.15	-3.325	-5.145	0.229116	0.793976	-0.535092	-0.123	-0.351	0.687	0	197	334	3
2026-02-19	12:58:32.970	18.69	-7.735	-5.46	0.197152	0.755668	-0.546072	-0.1185	-0.3495	0.684	0	197	334	3
2026-02-19	12:58:32.990	17.99	-9.065	-5.705	0.182512	0.764208	-0.552172	-0.1155	-0.345	0.687	0	197	334	3
2026-02-19	12:58:33.010	15.61	-8.015	-6.65	0.169824	0.766892	-0.559492	-0.117	-0.3435	0.6915	0	197	370	3
2026-02-19	12:58:33.030	13.09	-4.83	-8.715	0.154696	0.771772	-0.554856	-0.114	-0.342	0.69	0	197	370	3
2026-02-19	12:58:33.050	7.35	-4.62	-9.73	0.153232	0.815692	-0.54046	-0.1125	-0.339	0.69	0	197	370	3
2026-02-19	12:58:33.070	1.995	-4.34	-10.01	0.145424	0.836432	-0.538264	-0.1125	-0.339	0.69	0	197	370	3
2026-02-19	12:58:33.090	-4.83	-2.66	-10.955	0.14762	0.833504	-0.54656	-0.1125	-0.339	0.69	0	197	370	3
2026-02-19	12:58:33.110	-9.73	-1.855	-11.41	0.170312	0.809836	-0.567544	-0.108	-0.3435	0.687	0	197	370	3
2026-02-19	12:58:33.130	-11.48	0.84	-13.51	0.128832	0.820328	-0.584868	-0.1065	-0.3435	0.6915	0	197	370	3
2026-02-19	12:58:33.150	-11.69	3.85	-16.73	0.109556	0.806908	-0.587308	-0.0975	-0.327	0.6915	0	197	370	3
2026-02-19	12:58:33.170	-10.535	4.76	-19.915	0.09076799	0.796416	-0.593164	-0.1065	-0.3435	0.6855	0	197	370	3
2026-02-19	12:58:33.190	-8.365	6.265	-22.785	0.097844	0.759572	-0.561932	-0.099	-0.3465	0.6945	0	197	370	3
2026-02-19	12:58:33.210	-12.635	6.93	-24.605	0.071492	0.831308	-0.56364	-0.1005	-0.3495	0.6915	0	194	414	1
2026-02-19	12:58:33.230	-16.59	10.22	-27.615	0.09638	0.87474	-0.56608	-0.0885	-0.3405	0.69	0	194	414	1
2026-02-19	12:58:33.250	-26.18	14.945	-29.96	0.1281	0.9516	-0.54534	-0.0945	-0.357	0.687	0	194	414	1
2026-02-19	12:58:33.270	-38.465	21.035	-31.325	0.150548	0.98942	-0.483852	-0.1005	-0.3525	0.6705	0	194	414	1
2026-02-19	12:58:33.290	-49.455	27.265	-33.11	0.15128	0.984052	-0.426024	-0.099	-0.363	0.678	0	194	414	1
2026-02-19	12:58:33.310	-51.17	28.525	-35.105	0.10858	0.950624	-0.447008	-0.0975	-0.357	0.663	0	194	414	1
2026-02-19	12:58:33.330	-39.48	29.435	-38.29	0.086132	0.897432	-0.474092	-0.0945	-0.3825	0.66	0	194	414	1
2026-02-19	12:58:33.350	-28.91	25.13	-37.975	0.112728	0.797148	-0.447252	-0.0915	-0.3885	0.6555	0	194	414	1
2026-02-19	12:58:33.370	-39.305	9.73	-31.5	0.199348	0.766648	-0.365024	-0.096	-0.3825	0.6525	0	194	414	1
2026-02-19	12:58:33.390	-48.615	-18.235	-20.475	0.243756	0.766404	-0.248148	-0.081	-0.3885	0.6405	0	194	414	1
2026-02-19	12:58:33.410	-53.655	-44.8	-2.45	0.195444	0.820328	-0.181536	-0.0915	-0.3915	0.6345	0	188	446	3
2026-02-19	12:58:33.430	-62.37	-53.62	12.075	0.151524	0.917684	-0.183244	-0.081	-0.3945	0.633	0	188	446	3
2026-02-19	12:58:33.450	-64.925	-53.27	18.69	0.125172	1.038708	-0.25376	-0.069	-0.405	0.627	0	188	446	3
2026-02-19	12:58:33.470	-71.26	-54.005	26.915	0.062952	1.096048	-0.27694	-0.0765	-0.414	0.6165	0	188	446	3
2026-02-19	12:58:33.490	-82.775	-49.14	31.99	-0.00366	1.196088	-0.237412	-0.0675	-0.426	0.6105	0	188	446	3
2026-02-19	12:58:33.510	-85.33	-38.5	28.525	-0.074664	1.26026	-0.18788	-0.069	-0.4365	0.603	0	188	446	3
2026-02-19	12:58:33.530	-58.765	-31.045	22.61	-0.106628	1.130452	-0.148108	-0.063	-0.438	0.5895	0	188	446	3
2026-02-19	12:58:33.550	-16.94	-27.125	12.355	-0.116388	1.05896	-0.15006	-0.0675	-0.45	0.5955	0	188	446	3
2026-02-19	12:58:33.570	7.035	-24.78	-2.24	-0.10858	1.030656	-0.202764	-0.063	-0.447	0.5835	0	188	446	3
2026-02-19	12:58:33.590	53.375	-28.875	-5.425	-0.121024	1.005524	-0.234972	-0.057	-0.447	0.582	0	188	446	3
2026-02-19	12:58:33.610	51.31	-21.28	-3.43	-0.1464	0.981612	-0.267912	-0.0585	-0.4425	0.5955	0	184	438	3
2026-02-19	12:58:33.630	32.62	-6.755	-2.03	-0.119804	1.030656	-0.243756	-0.057	-0.4335	0.5955	0	184	438	3
2026-02-19	12:58:33.650	18.865	7.805	-2.135	-0.0305	0.99064	-0.234484	-0.057	-0.426	0.6075	0	184	438	3
2026-02-19	12:58:33.670	7.91	8.925	0	0.008052	0.99918	-0.224724	-0.0525	-0.432	0.609	0	184	438	3
2026-02-19	12:58:33.690	-0.525	10.185	0.945	0.035868	0.990396	-0.322568	-0.054	-0.4155	0.603	0	184	438	3
2026-02-19	12:58:33.710	2.03	8.4	3.15	0.014152	0.975756	-0.393084	-0.06	-0.429	0.609	0	184	438	3
2026-02-19	12:58:33.730	4.585	15.68	3.43	0.035136	0.937448	-0.45018	-0.0585	-0.426	0.6015	0	184	438	3
2026-02-19	12:58:33.750	11.48	12.845	6.65	0.048556	0.938424	-0.410164	-0.063	-0.4305	0.6015	0	184	438	3
2026-02-19	12:58:33.770	17.185	7.245	9.345	0.020984	1.007476	-0.41846	-0.0615	-0.423	0.603	0	184	438	3
2026-02-19	12:58:33.790	25.34	6.09	9.415	-0.021228	1.021384	-0.427488	-0.0675	-0.423	0.6075	0	184	438	3
2026-02-19	12:58:33.810	30.8	6.37	8.82	-0.055144	0.919148	-0.353312	-0.0615	-0.42	0.6015	0	183	408	3
2026-02-19	12:58:33.830	24.815	9.695	7.875	-0.0732	0.876448	-0.294264	-0.0675	-0.417	0.612	0	183	408	3
2026-02-19	12:58:33.850	17.22	10.115	6.965	-0.059536	0.8723	-0.312808	-0.0765	-0.4065	0.6225	0	183	408	3
2026-02-19	12:58:33.870	28.35	5.565	4.725	-0.037088	0.824476	-0.404796	-0.084	-0.4065	0.621	0	183	408	3
2026-02-19	12:58:33.890	39.725	-6.79	6.37	-0.014396	0.842288	-0.4148	-0.075	-0.4065	0.624	0	183	408	3
2026-02-19	12:58:33.910	33.18	-26.355	18.585	0.01952	0.995032	-0.405284	-0.0735	-0.3945	0.627	0	183	408	3
2026-02-19	12:58:33.930	22.82	-32.935	33.32	0.081008	1.019676	-0.374296	-0.0735	-0.3855	0.627	0	183	408	3
2026-02-19	12:58:33.950	15.19	-11.235	25.48	0.149572	1.06384	-0.244732	-0.078	-0.3795	0.642	0	183	408	3
2026-02-19	12:58:33.970	2.765	21.035	9.38	0.272792	1.025776	-0.361608	-0.078	-0.3765	0.6405	0	183	408	3
2026-02-19	12:58:33.990	1.68	17.745	10.29	0.34892	1.094584	-0.303536	-0.0765	-0.3765	0.6375	0	183	408	3
2026-02-19	12:58:34.010	-27.965	11.06	15.68	0.366244	1.235372	-0.181048	-0.0765	-0.3765	0.6345	0	182	382	3
2026-02-19	12:58:34.030	-48.51	9.275	20.58	0.375516	1.260992	-0.037088	-0.0795	-0.3765	0.6345	0	182	382	3
2026-02-19	12:58:34.050	-112.91	0.175	33.915	0.172264	1.262456	0.171044	-0.0855	-0.378	0.6315	0	182	382	3
2026-02-19	12:58:34.070	-137.55	10.99	39.375	0.119072	1.083116	0.068076	-0.0885	-0.3855	0.6195	0	182	382	3
2026-02-19	12:58:34.090	-85.575	39.515	42.175	0.226676	1.126548	-0.105896	-0.09	-0.399	0.603	0	182	382	3
2026-02-19	12:58:34.110	-12.32	42.875	10.43	0.18178	1.153876	-0.132492	-0.0975	-0.411	0.591	0	182	382	3
2026-02-19	12:58:34.130	-2.52	54.81	-23.59	0.180804	1.049444	-0.12566	-0.102	-0.4155	0.5865	0	182	382	3
2026-02-19	12:58:34.150	8.085	78.05	-38.5	0.195688	1.027972	-0.15006	-0.102	-0.4155	0.5865	0	182	382	3
2026-02-19	12:58:34.170	18.375	79.45	-35.56	0.352824	0.875228	-0.305244	-0.102	-0.4155	0.5865	0	182	382	3
2026-02-19	12:58:34.190	30.765	57.89	-22.085	0.443348	0.880596	-0.429684	-0.126	-0.4185	0.5745	0	182	382	3
2026-02-19	12:58:34.210	31.43	47.11	-24.395	0.418216	1.013576	-0.393816	-0.123	-0.4065	0.57	0	183	348	3
2026-02-19	12:58:34.230	37.905	32.935	-23.52	0.361608	1.03456	-0.26108	-0.129	-0.4095	0.5655	0	183	348	3
2026-02-19	12:58:34.250	44.765	12.53	-21.595	0.363072	1.013576	-0.163236	-0.132	-0.4095	0.5805	0	183	348	3
2026-02-19	12:58:34.270	46.76	5.18	-24.955	0.291336	0.961848	-0.13664	-0.1305	-0.402	0.5745	0	183	348	3
2026-02-19	12:58:34.290	47.95	-1.61	-24.29	0.206668	0.935008	-0.1586	-0.1335	-0.399	0.588	0	183	348	3
2026-02-19	12:58:34.310	40.25	-3.29	-23.17	0.159576	0.917928	-0.16958	-0.117	-0.39	0.594	0	183	348	3
2026-02-19	12:58:34.330	32.69	-9.625	-19.635	0.127612	0.914512	-0.186904	-0.12	-0.3885	0.594	0	183	348	3
2026-02-19	12:58:34.350	23.73	-15.12	-15.995	0.126636	0.93208	-0.224724	-0.114	-0.384	0.6045	0	183	348	3
2026-02-19	12:58:34.370	19.705	-18.305	-14.595	0.132248	0.938668	-0.252296	-0.117	-0.3825	0.606	0	183	348	3
2026-02-19	12:58:34.390	18.2	-20.72	-13.16	0.137616	0.922808	-0.26352	-0.108	-0.3885	0.6045	0	183	348	3
2026-02-19	12:58:34.410	20.3	-26.25	-10.78	0.1586	0.921832	-0.307196	-0.108	-0.3855	0.618	0	186	315	3
2026-02-19	12:58:34.430	22.82	-34.405	-7.385	0.170556	0.913048	-0.344772	-0.1005	-0.3765	0.615	0	186	315	3
2026-02-19	12:58:34.450	25.97	-41.895	-3.85	0.171776	0.91378	-0.394792	-0.096	-0.381	0.6165	0	186	315	3
2026-02-19	12:58:34.470	28.35	-45.745	-0.875	0.153476	0.92598	-0.4087	-0.093	-0.366	0.63	0	186	315	3
2026-02-19	12:58:34.490	33.775	-41.58	-1.82	0.138592	0.945256	-0.398696	-0.0855	-0.372	0.624	0	186	315	3
2026-02-19	12:58:34.510	43.785	-31.57	-4.865	0.127124	0.92842	-0.38186	-0.0795	-0.3615	0.63	0	186	315	3
2026-02-19	12:58:34.530	37.94	-26.705	-2.135	0.134444	0.89914	-0.37942	-0.078	-0.3555	0.6345	0	186	315	3
2026-02-19	12:58:34.550	36.365	-27.65	-0.035	0.1342	0.88938	-0.375028	-0.078	-0.36	0.642	0	186	315	3
2026-02-19	12:58:34.570	31.85	-32.41	3.115	0.117608	0.880352	-0.37942	-0.069	-0.354	0.6495	0	186	315	3
2026-02-19	12:58:34.590	25.83	-36.995	6.72	0.083448	0.875716	-0.390156	-0.0705	-0.3525	0.651	0	186	315	3
2026-02-19	12:58:34.610	22.435	-36.19	7.525	0.070028	0.887916	-0.393816	-0.057	-0.3465	0.657	0	188	302	3
2026-02-19	12:58:34.630	22.155	-30.45	5.95	0.033428	0.874984	-0.387716	-0.057	-0.33	0.654	0	188	302	3
2026-02-19	12:58:34.650	21.14	-24.57	5.285	0.022936	0.879132	-0.383324	-0.0555	-0.3465	0.6585	0	188	302	3
2026-02-19	12:58:34.670	21.07	-19.25	3.675	0.02318	0.911096	-0.402844	-0.0525	-0.3315	0.66	0	188	302	3
2026-02-19	12:58:34.690	18.165	-15.715	2.975	0.03294	0.89426	-0.421876	-0.057	-0.3345	0.669	0	188	302	3
2026-02-19	12:58:34.710	16.695	-14.07	2.38	0.061976	0.853756	-0.429928	-0.0435	-0.3345	0.669	0	188	302	3
2026-02-19	12:58:34.730	10.605	-10.955	3.115	0.071492	0.848388	-0.419924	-0.0465	-0.33	0.6675	0	188	302	3
2026-02-19	12:58:34.750	6.86	-7.49	3.78	0.067588	0.86986	-0.428464	-0.0525	-0.336	0.681	0	188	302	3
2026-02-19	12:58:34.770	4.76	-3.395	2.8	0.061976	0.85278	-0.439444	-0.048	-0.33	0.6705	0	188	302	3
2026-02-19	12:58:34.790	4.06	-1.715	1.295	0.045628	0.84424	-0.447984	-0.0495	-0.321	0.6795	0	188	302	3
2026-02-19	12:58:34.810	-0.875	-2.03	1.785	0.0183	0.82228	-0.464088	-0.0435	-0.321	0.6795	0	187	315	3
2026-02-19	12:58:34.830	1.085	-1.295	0.035	-0.022448	0.842044	-0.472628	-0.0375	-0.321	0.681	0	187	315	3
2026-02-19	12:58:34.850	-2.975	1.575	-1.925	-0.0427	0.856196	-0.484584	-0.0405	-0.33	0.6675	0	187	315	3
2026-02-19	12:58:34.870	-9.1	7.56	-4.865	-0.044164	0.872788	-0.501176	-0.045	-0.321	0.666	0	187	315	3
2026-02-19	12:58:34.890	-12.215	15.785	-8.785	-0.03172	0.88694	-0.533384	-0.048	-0.327	0.6645	0	187	315	3
2026-02-19	12:58:34.910	-14.14	23.275	-12.145	0.011224	0.86986	-0.548268	-0.0375	-0.333	0.6705	0	187	315	3
2026-02-19	12:58:34.930	-11.9	28.525	-15.925	0.020984	0.866688	-0.55754	-0.0465	-0.324	0.6765	0	187	315	3
2026-02-19	12:58:34.950	-9.625	29.68	-18.97	0	0.873032	-0.55388	-0.0555	-0.3345	0.6645	0	187	315	3
2026-02-19	12:58:34.970	-6.825	26.565	-20.195	0.010736	0.85034	-0.571692	-0.054	-0.3405	0.6645	0	187	315	3
2026-02-19	12:58:34.990	-4.585	17.15	-17.955	0.01464	0.884012	-0.620004	-0.048	-0.339	0.6675	0	187	315	3
2026-02-19	12:58:35.010	-0.665	9.24	-16.345	-0.000244	0.895236	-0.687592	-0.06	-0.3345	0.66	0	185	351	3
2026-02-19	12:58:35.030	9.1	4.76	-17.115	-0.055388	0.901824	-0.754692	-0.0525	-0.3375	0.6525	0	185	351	3
2026-02-19	12:58:35.050	12.25	2.415	-17.57	-0.066124	0.88694	-0.761768	-0.0525	-0.348	0.6585	0	185	351	3
2026-02-19	12:58:35.070	12.425	0	-17.36	-0.056608	0.903532	-0.73444	-0.0525	-0.348	0.6585	0	185	351	3
2026-02-19	12:58:35.090	14.105	-6.93	-15.96	-0.00976	0.95038	-0.674904	-0.0465	-0.3435	0.6645	0	185	351	3
2026-02-19	12:58:35.110	13.44	-12.285	-13.475	0.027572	0.953552	-0.620736	-0.0405	-0.3405	0.6705	0	185	351	3
2026-02-19	12:58:35.130	0.385	-21.7	-7.28	0.059536	0.949892	-0.499712	-0.0375	-0.3375	0.666	0	185	351	3
2026-02-19	12:58:35.150	0.63	-28.595	-7.735	0.024888	0.938424	-0.414556	-0.0375	-0.336	0.6615	0	185	351	3
2026-02-19	12:58:35.170	-5.985	-38.885	-2.765	0.045628	0.938912	-0.314028	-0.0375	-0.339	0.666	0	185	351	3
