yyyy-MM-dd	HH:mm:ss.fff	gyrX	gyrY	gyrZ	accX	accY	accZ	magX	magY	magZ	Marker	Energy	Angle	Classification
2026-02-19	12:58:06.210	21.77	-16.24	-1.4	0.22082	-0.765184	0.721752	0.2235	0.855	-0.4245	0	438	328	2
2026-02-19	12:58:06.230	14.735	-14.91	-2.135	0.26352	-0.624884	0.628544	0.2235	0.8565	-0.4305	0	438	328	2
2026-02-19	12:58:06.250	-0.665	-11.55	-7.14	0.295484	-0.682956	0.578768	0.222	0.8595	-0.4305	0	438	328	2
2026-02-19	12:58:06.270	-3.325	-7.525	-8.68	0.321348	-0.841556	0.598044	0.2205	0.858	-0.432	0	438	328	2
2026-02-19	12:58:06.290	1.89	-5.39	-7.42	0.327692	-0.788364	0.61976	0.219	0.8565	-0.4365	0	438	328	2
2026-02-19	12:58:06.310	2.135	-3.885	-6.475	0.305244	-0.762012	0.640256	0.219	0.855	-0.432	0	438	328	2
2026-02-19	12:58:06.330	-8.68	-2.625	-6.58	0.273524	-0.748104	0.620004	0.2205	0.8535	-0.432	0	438	328	2
2026-02-19	12:58:06.350	-20.3	-5.215	-7.77	0.27816	-0.763476	0.56486	0.2145	0.858	-0.435	0	438	328	2
2026-02-19	12:58:06.370	-21.21	-4.97	-7.63	0.2623	-0.798368	0.571448	0.2115	0.8625	-0.435	0	438	328	2
2026-02-19	12:58:06.390	-19.53	-5.565	-7.525	0.256688	-0.73322	0.585112	0.213	0.861	-0.426	0	438	328	2
2026-02-19	12:58:06.410	-19.6	-5.005	-8.715	0.257176	-0.712724	0.56486	0.21	0.867	-0.4185	0	398	388	2
2026-02-19	12:58:06.430	-21.315	-4.655	-8.855	0.269132	-0.836188	0.56364	0.2085	0.864	-0.423	0	398	388	2
2026-02-19	12:58:06.450	-16.59	-4.655	-5.215	0.290848	-0.920612	0.577792	0.2025	0.876	-0.4185	0	398	388	2
2026-02-19	12:58:06.470	-3.71	-4.725	0.07	0.2806	-0.857172	0.584624	0.204	0.8625	-0.4215	0	398	388	2
2026-02-19	12:58:06.490	-0.35	-5.04	3.255	0.277184	-0.832284	0.57584	0.2175	0.8745	-0.4155	0	398	388	2
2026-02-19	12:58:06.510	0.805	-4.305	6.02	0.288652	-0.8723	0.570472	0.201	0.8715	-0.4305	0	398	388	2
2026-02-19	12:58:06.530	9.485	-3.605	9.87	0.282064	-0.827648	0.576328	0.2055	0.8685	-0.42	0	398	388	2
2026-02-19	12:58:06.550	14.35	-3.78	11.97	0.277428	-0.770064	0.551928	0.2025	0.864	-0.42	0	398	388	2
2026-02-19	12:58:06.570	12.53	-4.445	12.32	0.267912	-0.727608	0.55266	0.204	0.861	-0.4215	0	398	388	2
2026-02-19	12:58:06.590	7.35	-4.235	11.305	0.260104	-0.732732	0.560712	0.2115	0.8625	-0.4245	0	398	388	2
2026-02-19	12:58:06.610	6.195	-2.695	9.275	0.255956	-0.72346	0.580232	0.2145	0.864	-0.4245	0	363	445	1
2026-02-19	12:58:06.630	4.095	-0.63	6.825	0.259616	-0.739076	0.576328	0.2205	0.8595	-0.4245	0	363	445	1
2026-02-19	12:58:06.650	1.33	1.225	5.285	0.2623	-0.773724	0.545096	0.2115	0.8655	-0.432	0	363	445	1
2026-02-19	12:58:06.670	-0.735	0.875	4.865	0.264008	-0.76372	0.55632	0.219	0.8655	-0.429	0	363	445	1
2026-02-19	12:58:06.690	-5.285	1.295	4.935	0.262544	-0.786656	0.577304	0.204	0.861	-0.4275	0	363	445	1
2026-02-19	12:58:06.710	-1.225	1.54	4.725	0.26718	-0.7503	0.557052	0.2205	0.861	-0.426	0	363	445	1
2026-02-19	12:58:06.730	-4.165	1.47	3.08	0.2623	-0.74176	0.554612	0.2145	0.864	-0.426	0	363	445	1
2026-02-19	12:58:06.750	-10.325	0.455	1.82	0.26718	-0.761768	0.544608	0.2115	0.8685	-0.426	0	363	445	1
2026-02-19	12:58:06.770	-13.37	-1.015	1.68	0.271816	-0.779336	0.534604	0.216	0.867	-0.426	0	363	445	1
2026-02-19	12:58:06.790	-9.905	-1.505	1.47	0.2745	-0.790316	0.55144	0.216	0.8655	-0.4245	0	363	445	1
2026-02-19	12:58:06.810	-5.6	-1.19	1.68	0.269376	-0.795684	0.54656	0.216	0.873	-0.42	0	332	486	1
2026-02-19	12:58:06.830	-6.51	-2.835	1.82	0.262788	-0.79056	0.5429	0.2235	0.87	-0.414	0	332	486	1
2026-02-19	12:58:06.850	-6.895	-3.745	1.89	0.2562	-0.789828	0.547048	0.2235	0.864	-0.414	0	332	486	1
2026-02-19	12:58:06.870	-5.04	-3.85	2.03	0.258396	-0.806176	0.546316	0.2205	0.8685	-0.4125	0	332	486	1
2026-02-19	12:58:06.890	2.625	-0.175	2.52	0.261568	-0.79056	0.55144	0.222	0.8715	-0.4095	0	332	486	1
2026-02-19	12:58:06.910	3.5	1.61	2.45	0.263032	-0.773724	0.547048	0.2145	0.864	-0.4215	0	332	486	1
2026-02-19	12:58:06.930	3.885	3.745	1.785	0.25864	-0.779092	0.549488	0.222	0.867	-0.408	0	332	486	1
2026-02-19	12:58:06.950	7.63	5.18	1.68	0.25986	-0.793244	0.563396	0.219	0.867	-0.4125	0	332	486	1
2026-02-19	12:58:06.970	8.505	5.985	1.96	0.255468	-0.81008	0.569008	0.2145	0.864	-0.417	0	332	486	1
2026-02-19	12:58:06.990	9.31	6.125	3.01	0.255224	-0.819352	0.5673	0.222	0.87	-0.42	0	332	486	1
2026-02-19	12:58:07.010	12.985	5.985	2.87	0.254492	-0.763232	0.559004	0.219	0.876	-0.423	0	300	512	1
2026-02-19	12:58:07.030	13.58	7.035	0.385	0.234972	-0.71858	0.54168	0.2235	0.87	-0.423	0	300	512	1
2026-02-19	12:58:07.050	2.905	5.075	-1.365	0.233996	-0.744688	0.549488	0.219	0.8655	-0.4245	0	300	512	1
2026-02-19	12:58:07.070	-2.415	2.24	-1.715	0.227652	-0.793	0.555344	0.2235	0.864	-0.423	0	300	512	1
2026-02-19	12:58:07.090	0.315	0.175	0.07	0.240584	-0.872056	0.565348	0.225	0.8655	-0.4245	0	300	512	1
2026-02-19	12:58:07.110	6.23	-0.77	4.41	0.236924	-0.823256	0.584868	0.2205	0.87	-0.423	0	300	512	1
2026-02-19	12:58:07.130	6.965	-0.42	5.005	0.234972	-0.742248	0.591944	0.216	0.867	-0.42	0	300	512	1
2026-02-19	12:58:07.150	1.54	0.245	3.22	0.253272	-0.72712	0.567788	0.219	0.864	-0.423	0	300	512	1
2026-02-19	12:58:07.170	-3.08	1.015	1.26	0.258396	-0.727852	0.547048	0.2235	0.8625	-0.4215	0	300	512	1
2026-02-19	12:58:07.190	-5.985	1.785	-1.015	0.259128	-0.754204	0.559492	0.2235	0.8595	-0.42	0	300	512	1
2026-02-19	12:58:05.210	-26.32	5.145	-6.475	0.135664	-0.854244	0.270596	0.2535	0.9255	-0.2505	0	849	294	5
2026-02-19	12:58:05.230	-29.225	8.225	-13.685	0.181536	-0.894748	0.19032	0.2535	0.921	-0.2475	0	849	294	5
2026-02-19	12:58:05.250	-27.615	10.255	-16.765	0.2074	-0.833992	0.163236	0.252	0.921	-0.2445	0	849	294	5
2026-02-19	12:58:05.270	-29.995	8.365	-17.325	0.238388	-0.853512	0.198372	0.252	0.924	-0.24	0	849	294	5
2026-02-19	12:58:05.290	-30.065	9.52	-17.675	0.227164	-0.993812	0.244244	0.246	0.927	-0.231	0	849	294	5
2026-02-19	12:58:05.310	-23.835	8.295	-15.365	0.206912	-1.02602	0.221552	0.2475	0.9285	-0.2265	0	849	294	5
2026-02-19	12:58:05.330	-31.535	4.305	-12.565	0.188856	-0.996984	0.131272	0.2535	0.9285	-0.228	0	849	294	5
2026-02-19	12:58:05.350	-33.145	0.945	-12.845	0.162748	-1.062132	0.152744	0.243	0.9285	-0.216	0	849	294	5
2026-02-19	12:58:05.370	-24.955	-3.535	-11.655	0.157868	-1.098732	0.20252	0.237	0.9285	-0.2115	0	849	294	5
2026-02-19	12:58:05.390	-9.73	-8.225	-9.24	0.200812	-1.084336	0.26596	0.2265	0.9345	-0.21	0	849	294	5
2026-02-19	12:58:05.410	6.09	-9.135	-3.955	0.229116	-1.034316	0.275964	0.237	0.9315	-0.207	0	738	298	2
2026-02-19	12:58:05.430	9.59	-8.68	0.14	0.191052	-0.930372	0.236924	0.2355	0.945	-0.2085	0	738	298	2
2026-02-19	12:58:05.450	3.955	-7.07	2.87	0.146156	-0.903776	0.205692	0.234	0.939	-0.21	0	738	298	2
2026-02-19	12:58:05.470	3.885	-7.14	4.9	0.144204	-0.938912	0.19886	0.234	0.933	-0.2115	0	738	298	2
2026-02-19	12:58:05.490	16.275	-10.57	4.935	0.149572	-0.93086	0.120048	0.237	0.9345	-0.213	0	738	298	2
2026-02-19	12:58:05.510	32.97	-18.515	2.73	0.17568	-0.921588	0.098332	0.237	0.9345	-0.213	0	738	298	2
2026-02-19	12:58:05.530	28.945	-22.89	0.875	0.177632	-0.846924	0.1403	0.2385	0.9375	-0.2175	0	738	298	2
2026-02-19	12:58:05.550	12.6	-25.48	-1.365	0.178852	-0.89182	0.18666	0.237	0.9285	-0.2265	0	738	298	2
2026-02-19	12:58:05.570	0.63	-24.745	-2.94	0.18056	-0.896456	0.217404	0.2385	0.927	-0.2295	0	738	298	2
2026-02-19	12:58:05.590	-0.42	-21.84	-4.13	0.188124	-0.905484	0.222284	0.2325	0.93	-0.2385	0	738	298	2
2026-02-19	12:58:05.610	3.64	-17.01	-6.37	0.161284	-0.906948	0.226676	0.2295	0.933	-0.24	0	640	285	2
2026-02-19	12:58:05.630	-0.805	-13.86	-9.345	0.181048	-0.909144	0.236436	0.2355	0.9285	-0.2295	0	640	285	2
2026-02-19	12:58:05.650	-4.305	-13.37	-11.025	0.207644	-0.945256	0.210816	0.237	0.9345	-0.2385	0	640	285	2
2026-02-19	12:58:05.670	43.365	2.38	-3.675	0.354044	-1.142164	0.560224	0.228	0.9345	-0.234	0	640	285	2
2026-02-19	12:58:05.690	122.78	25.62	11.725	0.210816	-1.173884	0.448716	0.2325	0.9315	-0.2385	0	640	285	2
2026-02-19	12:58:05.710	142.1	17.78	28.35	0.111752	-0.840336	0.198372	0.237	0.9285	-0.2595	0	640	285	2
2026-02-19	12:58:05.730	74.025	2.415	28.525	0.153476	-0.774944	0.065636	0.2385	0.9255	-0.279	0	640	285	2
2026-02-19	12:58:05.750	33.11	-4.9	20.51	0.153476	-0.816912	0.102724	0.2415	0.9195	-0.285	0	640	285	2
2026-02-19	12:58:05.770	37.94	-13.65	13.51	0.165676	-0.802028	0.21838	0.246	0.912	-0.2925	0	640	285	2
2026-02-19	12:58:05.790	43.295	-17.08	8.085	0.158112	-0.800808	0.357704	0.2505	0.909	-0.3015	0	640	285	2
2026-02-19	12:58:05.810	31.64	-16.625	3.85	0.185196	-0.85156	0.48922	0.246	0.9075	-0.3105	0	557	272	2
2026-02-19	12:58:05.830	27.405	-11.27	0.875	0.148596	-0.975756	0.48068	0.2445	0.909	-0.3165	0	557	272	2
2026-02-19	12:58:05.850	55.125	-8.4	-3.29	0.16714	-0.90036	0.375516	0.2475	0.915	-0.318	0	557	272	2
2026-02-19	12:58:05.870	77.49	-12.005	-4.48	0.211548	-0.725412	0.386984	0.2385	0.9075	-0.3285	0	557	272	2
2026-02-19	12:58:05.890	62.44	-12.25	-7.945	0.255712	-0.49288	0.527772	0.2445	0.903	-0.3345	0	557	272	2
2026-02-19	12:58:05.910	16.415	-6.475	-18.48	0.21594	-0.674904	0.534848	0.2475	0.894	-0.354	0	557	272	2
2026-02-19	12:58:05.930	1.995	-3.675	-20.72	0.207888	-0.885232	0.44774	0.2445	0.8985	-0.348	0	557	272	2
2026-02-19	12:58:05.950	30.975	-0.875	-17.92	0.274256	-1.038708	0.587552	0.2385	0.894	-0.3525	0	557	272	2
2026-02-19	12:58:05.970	89.67	8.575	-9.24	0.189588	-1.053592	0.578768	0.231	0.8925	-0.363	0	557	272	2
2026-02-19	12:58:05.990	106.68	2.205	2.625	0.132004	-0.900604	0.48922	0.2325	0.9	-0.3705	0	557	272	2
2026-02-19	12:58:06.010	61.285	-6.3	2.975	0.234484	-0.754936	0.3599	0.2325	0.888	-0.3855	0	490	284	2
2026-02-19	12:58:06.030	20.405	-8.295	-0.42	0.223016	-0.90158	0.47092	0.2325	0.888	-0.3855	0	490	284	2
2026-02-19	12:58:06.050	24.325	-15.295	2.52	0.210328	-0.85522	0.52094	0.2355	0.876	-0.399	0	490	284	2
2026-02-19	12:58:06.070	31.85	-13.545	2.485	0.266692	-0.776408	0.709796	0.2385	0.8715	-0.399	0	490	284	2
2026-02-19	12:58:06.090	37.38	-7.735	1.645	0.20618	-0.751764	0.678564	0.24	0.876	-0.402	0	490	284	2
2026-02-19	12:58:06.110	35.945	-12.67	0.35	0.1952	-0.687592	0.558028	0.2445	0.864	-0.4095	0	490	284	2
2026-02-19	12:58:06.130	25.655	-14.525	-3.71	0.202032	-0.775676	0.521184	0.2385	0.87	-0.411	0	490	284	2
2026-02-19	12:58:06.150	19.985	-20.965	-5.04	0.193004	-0.678076	0.437736	0.225	0.864	-0.4185	0	490	284	2
2026-02-19	12:58:06.170	4.97	-25.27	-7.035	0.219844	-0.724192	0.457256	0.2325	0.8595	-0.429	0	490	284	2
2026-02-19	12:58:06.190	11.62	-19.67	-7.63	0.250344	-0.878156	0.670024	0.2265	0.858	-0.423	0	490	284	2
2026-02-19	12:58:06.210	21.77	-16.24	-1.4	0.22082	-0.765184	0.721752	0.2235	0.855	-0.4245	0	438	328	2
2026-02-19	12:58:06.230	14.735	-14.91	-2.135	0.26352	-0.624884	0.628544	0.2235	0.8565	-0.4305	0	438	328	2
2026-02-19	12:58:06.250	-0.665	-11.55	-7.14	0.295484	-0.682956	0.578768	0.222	0.8595	-0.4305	0	438	328	2
2026-02-19	12:58:06.270	-3.325	-7.525	-8.68	0.321348	-0.841556	0.598044	0.2205	0.858	-0.432	0	438	328	2
2026-02-19	12:58:06.290	1.89	-5.39	-7.42	0.327692	-0.788364	0.61976	0.219	0.8565	-0.4365	0	438	328	2
2026-02-19	12:58:06.310	2.135	-3.885	-6.475	0.305244	-0.762012	0.640256	0.219	0.855	-0.432	0	438	328	2
2026-02-19	12:58:06.330	-8.68	-2.625	-6.58	0.273524	-0.748104	0.620004	0.2205	0.8535	-0.432	0	438	328	2
2026-02-19	12:58:06.350	-20.3	-5.215	-7.77	0.27816	-0.763476	0.56486	0.2145	0.858	-0.435	0	438	328	2
2026-02-19	12:58:06.370	-21.21	-4.97	-7.63	0.2623	-0.798368	0.571448	0.2115	0.8625	-0.435	0	438	328	2
2026-02-19	12:58:06.390	-19.53	-5.565	-7.525	0.256688	-0.73322	0.585112	0.213	0.861	-0.426	0	438	328	2
2026-02-19	12:58:06.410	-19.6	-5.005	-8.715	0.257176	-0.712724	0.56486	0.21	0.867	-0.4185	0	398	388	2
2026-02-19	12:58:06.430	-21.315	-4.655	-8.855	0.269132	-0.836188	0.56364	0.2085	0.864	-0.423	0	398	388	2
2026-02-19	12:58:06.450	-16.59	-4.655	-5.215	0.290848	-0.920612	0.577792	0.2025	0.876	-0.4185	0	398	388	2
2026-02-19	12:58:06.470	-3.71	-4.725	0.07	0.2806	-0.857172	0.584624	0.204	0.8625	-0.4215	0	398	388	2
2026-02-19	12:58:06.490	-0.35	-5.04	3.255	0.277184	-0.832284	0.57584	0.2175	0.8745	-0.4155	0	398	388	2
2026-02-19	12:58:06.510	0.805	-4.305	6.02	0.288652	-0.8723	0.570472	0.201	0.8715	-0.4305	0	398	388	2
2026-02-19	12:58:06.530	9.485	-3.605	9.87	0.282064	-0.827648	0.576328	0.2055	0.8685	-0.42	0	398	388	2
2026-02-19	12:58:06.550	14.35	-3.78	11.97	0.277428	-0.770064	0.551928	0.2025	0.864	-0.42	0	398	388	2
2026-02-19	12:58:06.570	12.53	-4.445	12.32	0.267912	-0.727608	0.55266	0.204	0.861	-0.4215	0	398	388	2
2026-02-19	12:58:06.590	7.35	-4.235	11.305	0.260104	-0.732732	0.560712	0.2115	0.8625	-0.4245	0	398	388	2
2026-02-19	12:58:06.610	6.195	-2.695	9.275	0.255956	-0.72346	0.580232	0.2145	0.864	-0.4245	0	363	445	1
2026-02-19	12:58:06.630	4.095	-0.63	6.825	0.259616	-0.739076	0.576328	0.2205	0.8595	-0.4245	0	363	445	1
2026-02-19	12:58:06.650	1.33	1.225	5.285	0.2623	-0.773724	0.545096	0.2115	0.8655	-0.432	0	363	445	1
2026-02-19	12:58:06.670	-0.735	0.875	4.865	0.264008	-0.76372	0.55632	0.219	0.8655	-0.429	0	363	445	1
2026-02-19	12:58:06.690	-5.285	1.295	4.935	0.262544	-0.786656	0.577304	0.204	0.861	-0.4275	0	363	445	1
2026-02-19	12:58:06.710	-1.225	1.54	4.725	0.26718	-0.7503	0.557052	0.2205	0.861	-0.426	0	363	445	1
2026-02-19	12:58:06.730	-4.165	1.47	3.08	0.2623	-0.74176	0.554612	0.2145	0.864	-0.426	0	363	445	1
2026-02-19	12:58:06.750	-10.325	0.455	1.82	0.26718	-0.761768	0.544608	0.2115	0.8685	-0.426	0	363	445	1
2026-02-19	12:58:06.770	-13.37	-1.015	1.68	0.271816	-0.779336	0.534604	0.216	0.867	-0.426	0	363	445	1
2026-02-19	12:58:06.790	-9.905	-1.505	1.47	0.2745	-0.790316	0.55144	0.216	0.8655	-0.4245	0	363	445	1
2026-02-19	12:58:06.810	-5.6	-1.19	1.68	0.269376	-0.795684	0.54656	0.216	0.873	-0.42	0	332	486	1
2026-02-19	12:58:06.830	-6.51	-2.835	1.82	0.262788	-0.79056	0.5429	0.2235	0.87	-0.414	0	332	486	1
2026-02-19	12:58:06.850	-6.895	-3.745	1.89	0.2562	-0.789828	0.547048	0.2235	0.864	-0.414	0	332	486	1
2026-02-19	12:58:06.870	-5.04	-3.85	2.03	0.258396	-0.806176	0.546316	0.2205	0.8685	-0.4125	0	332	486	1
2026-02-19	12:58:06.890	2.625	-0.175	2.52	0.261568	-0.79056	0.55144	0.222	0.8715	-0.4095	0	332	486	1
2026-02-19	12:58:06.910	3.5	1.61	2.45	0.263032	-0.773724	0.547048	0.2145	0.864	-0.4215	0	332	486	1
2026-02-19	12:58:06.930	3.885	3.745	1.785	0.25864	-0.779092	0.549488	0.222	0.867	-0.408	0	332	486	1
2026-02-19	12:58:06.950	7.63	5.18	1.68	0.25986	-0.793244	0.563396	0.219	0.867	-0.4125	0	332	486	1
2026-02-19	12:58:06.970	8.505	5.985	1.96	0.255468	-0.81008	0.569008	0.2145	0.864	-0.417	0	332	486	1
2026-02-19	12:58:06.990	9.31	6.125	3.01	0.255224	-0.819352	0.5673	0.222	0.87	-0.42	0	332	486	1
2026-02-19	12:58:07.010	12.985	5.985	2.87	0.254492	-0.763232	0.559004	0.219	0.876	-0.423	0	300	512	1
2026-02-19	12:58:07.030	13.58	7.035	0.385	0.234972	-0.71858	0.54168	0.2235	0.87	-0.423	0	300	512	1
2026-02-19	12:58:07.050	2.905	5.075	-1.365	0.233996	-0.744688	0.549488	0.219	0.8655	-0.4245	0	300	512	1
2026-02-19	12:58:07.070	-2.415	2.24	-1.715	0.227652	-0.793	0.555344	0.2235	0.864	-0.423	0	300	512	1
2026-02-19	12:58:07.090	0.315	0.175	0.07	0.240584	-0.872056	0.565348	0.225	0.8655	-0.4245	0	300	512	1
2026-02-19	12:58:07.110	6.23	-0.77	4.41	0.236924	-0.823256	0.584868	0.2205	0.87	-0.423	0	300	512	1
2026-02-19	12:58:07.130	6.965	-0.42	5.005	0.234972	-0.742248	0.591944	0.216	0.867	-0.42	0	300	512	1
2026-02-19	12:58:07.150	1.54	0.245	3.22	0.253272	-0.72712	0.567788	0.219	0.864	-0.423	0	300	512	1
2026-02-19	12:58:07.170	-3.08	1.015	1.26	0.258396	-0.727852	0.547048	0.2235	0.8625	-0.4215	0	300	512	1
2026-02-19	12:58:07.190	-5.985	1.785	-1.015	0.259128	-0.754204	0.559492	0.2235	0.8595	-0.42	0	300	512	1
2026-02-19	12:58:05.210	-26.32	5.145	-6.475	0.135664	-0.854244	0.270596	0.2535	0.9255	-0.2505	0	849	294	5
2026-02-19	12:58:05.230	-29.225	8.225	-13.685	0.181536	-0.894748	0.19032	0.2535	0.921	-0.2475	0	849	294	5
2026-02-19	12:58:05.250	-27.615	10.255	-16.765	0.2074	-0.833992	0.163236	0.252	0.921	-0.2445	0	849	294	5
2026-02-19	12:58:05.270	-29.995	8.365	-17.325	0.238388	-0.853512	0.198372	0.252	0.924	-0.24	0	849	294	5
2026-02-19	12:58:05.290	-30.065	9.52	-17.675	0.227164	-0.993812	0.244244	0.246	0.927	-0.231	0	849	294	5
2026-02-19	12:58:05.310	-23.835	8.295	-15.365	0.206912	-1.02602	0.221552	0.2475	0.9285	-0.2265	0	849	294	5
2026-02-19	12:58:05.330	-31.535	4.305	-12.565	0.188856	-0.996984	0.131272	0.2535	0.9285	-0.228	0	849	294	5
2026-02-19	12:58:05.350	-33.145	0.945	-12.845	0.162748	-1.062132	0.152744	0.243	0.9285	-0.216	0	849	294	5
2026-02-19	12:58:05.370	-24.955	-3.535	-11.655	0.157868	-1.098732	0.20252	0.237	0.9285	-0.2115	0	849	294	5
2026-02-19	12:58:05.390	-9.73	-8.225	-9.24	0.200812	-1.084336	0.26596	0.2265	0.9345	-0.21	0	849	294	5
2026-02-19	12:58:05.410	6.09	-9.135	-3.955	0.229116	-1.034316	0.275964	0.237	0.9315	-0.207	0	738	298	2
2026-02-19	12:58:05.430	9.59	-8.68	0.14	0.191052	-0.930372	0.236924	0.2355	0.945	-0.2085	0	738	298	2
2026-02-19	12:58:05.450	3.955	-7.07	2.87	0.146156	-0.903776	0.205692	0.234	0.939	-0.21	0	738	298	2
2026-02-19	12:58:05.470	3.885	-7.14	4.9	0.144204	-0.938912	0.19886	0.234	0.933	-0.2115	0	738	298	2
2026-02-19	12:58:05.490	16.275	-10.57	4.935	0.149572	-0.93086	0.120048	0.237	0.9345	-0.213	0	738	298	2
2026-02-19	12:58:05.510	32.97	-18.515	2.73	0.17568	-0.921588	0.098332	0.237	0.9345	-0.213	0	738	298	2
2026-02-19	12:58:05.530	28.945	-22.89	0.875	0.177632	-0.846924	0.1403	0.2385	0.9375	-0.2175	0	738	298	2
2026-02-19	12:58:05.550	12.6	-25.48	-1.365	0.178852	-0.89182	0.18666	0.237	0.9285	-0.2265	0	738	298	2
2026-02-19	12:58:05.570	0.63	-24.745	-2.94	0.18056	-0.896456	0.217404	0.2385	0.927	-0.2295	0	738	298	2
2026-02-19	12:58:05.590	-0.42	-21.84	-4.13	0.188124	-0.905484	0.222284	0.2325	0.93	-0.2385	0	738	298	2
2026-02-19	12:58:05.610	3.64	-17.01	-6.37	0.161284	-0.906948	0.226676	0.2295	0.933	-0.24	0	640	285	2
2026-02-19	12:58:05.630	-0.805	-13.86	-9.345	0.181048	-0.909144	0.236436	0.2355	0.9285	-0.2295	0	640	285	2
2026-02-19	12:58:05.650	-4.305	-13.37	-11.025	0.207644	-0.945256	0.210816	0.237	0.9345	-0.2385	0	640	285	2
2026-02-19	12:58:05.670	43.365	2.38	-3.675	0.354044	-1.142164	0.560224	0.228	0.9345	-0.234	0	640	285	2
2026-02-19	12:58:05.690	122.78	25.62	11.725	0.210816	-1.173884	0.448716	0.2325	0.9315	-0.2385	0	640	285	2
2026-02-19	12:58:05.710	142.1	17.78	28.35	0.111752	-0.840336	0.198372	0.237	0.9285	-0.2595	0	640	285	2
2026-02-19	12:58:05.730	74.025	2.415	28.525	0.153476	-0.774944	0.065636	0.2385	0.9255	-0.279	0	640	285	2
2026-02-19	12:58:05.750	33.11	-4.9	20.51	0.153476	-0.816912	0.102724	0.2415	0.9195	-0.285	0	640	285	2
2026-02-19	12:58:05.770	37.94	-13.65	13.51	0.165676	-0.802028	0.21838	0.246	0.912	-0.2925	0	640	285	2
2026-02-19	12:58:05.790	43.295	-17.08	8.085	0.158112	-0.800808	0.357704	0.2505	0.909	-0.3015	0	640	285	2
2026-02-19	12:58:15.810	-4.2	1.505	6.755	0.85644	-0.058316	0.35746	-0.1725	0.474	-0.5115	0	339	192	3
2026-02-19	12:58:15.830	-6.475	3.535	6.65	0.843996	-0.025376	0.324764	-0.174	0.4605	-0.507	0	339	192	3
2026-02-19	12:58:15.850	-12.39	5.145	5.25	0.87108	-0.025376	0.302804	-0.1755	0.477	-0.51	0	339	192	3
2026-02-19	12:58:15.870	-16.8	6.825	3.255	0.919636	-0.039284	0.3111	-0.168	0.474	-0.51	0	339	192	3
2026-02-19	12:58:15.890	-19.46	10.36	1.645	0.942328	-0.032696	0.321348	-0.1695	0.477	-0.51	0	339	192	3
2026-02-19	12:58:15.910	-24.535	14.175	0.21	0.94672	-0.015372	0.307928	-0.171	0.468	-0.507	0	339	192	3
2026-02-19	12:58:15.930	-29.785	16.695	-1.19	0.978684	-0.013664	0.305488	-0.171	0.4785	-0.5085	0	339	192	3
2026-02-19	12:58:15.950	-35.385	19.565	-2.835	1.009916	0.000488	0.305244	-0.1725	0.4755	-0.507	0	339	192	3
2026-02-19	12:58:15.970	-42.945	22.155	-4.235	1.033096	-0.000488	0.31354	-0.1575	0.4815	-0.513	0	339	192	3
2026-02-19	12:58:15.990	-54.53	26.25	-4.34	1.036268	0.003172	0.308904	-0.1575	0.4815	-0.513	0	339	192	3
2026-02-19	12:58:16.010	-64.295	28.245	-3.185	0.99186	0.047092	0.286456	-0.156	0.489	-0.516	0	352	234	3
2026-02-19	12:58:16.030	-75.635	27.265	-3.22	0.987712	0.047824	0.280356	-0.153	0.5025	-0.516	0	352	234	3
2026-02-19	12:58:16.050	-85.82	25.725	-4.375	0.99308	0.056608	0.281332	-0.156	0.513	-0.5145	0	352	234	3
2026-02-19	12:58:16.070	-96.46	24.535	-7.455	0.97356	0.070516	0.2745	-0.1545	0.522	-0.5205	0	352	234	3
2026-02-19	12:58:16.090	-104.055	22.785	-11.795	0.960628	0.046116	0.275232	-0.1455	0.531	-0.522	0	352	234	3
2026-02-19	12:58:16.110	-104.93	21.455	-17.115	0.935496	0.023912	0.27938	-0.1425	0.5415	-0.522	0	352	234	3
2026-02-19	12:58:16.130	-101.15	19.39	-24.71	0.919636	0.016348	0.287188	-0.1365	0.555	-0.5205	0	352	234	3
2026-02-19	12:58:16.150	-92.96	17.395	-33.04	0.915	-0.037332	0.296704	-0.1305	0.564	-0.5175	0	352	234	3
2026-02-19	12:58:16.170	-79.8	15.435	-40.425	0.906948	-0.081252	0.310612	-0.1335	0.5685	-0.5175	0	352	234	3
2026-02-19	12:58:16.190	-65.835	12.495	-47.565	0.897432	-0.091256	0.318908	-0.132	0.5775	-0.5145	0	352	234	3
2026-02-19	12:58:16.210	-52.185	9.415	-53.69	0.883524	-0.112484	0.317444	-0.1305	0.585	-0.5175	0	345	260	3
2026-02-19	12:58:16.230	-34.825	3.605	-59.115	0.874252	-0.139812	0.32086	-0.135	0.5865	-0.5205	0	345	260	3
2026-02-19	12:58:16.250	-21.35	-2.485	-62.545	0.866932	-0.164944	0.349408	-0.1365	0.585	-0.5205	0	345	260	3
2026-02-19	12:58:16.270	-14.175	-7.42	-63.49	0.855464	-0.170556	0.370636	-0.1425	0.585	-0.5235	0	345	260	3
2026-02-19	12:58:16.290	-10.92	-13.93	-64.435	0.87108	-0.174216	0.386252	-0.1455	0.5865	-0.5175	0	345	260	3
2026-02-19	12:58:16.310	-13.125	-20.265	-64.785	0.854244	-0.182268	0.390644	-0.1455	0.5775	-0.516	0	345	260	3
2026-02-19	12:58:16.330	-16.975	-27.195	-64.995	0.856928	-0.186172	0.399428	-0.147	0.5685	-0.5175	0	345	260	3
2026-02-19	12:58:16.350	-19.04	-33.985	-65.625	0.87108	-0.200812	0.435784	-0.15	0.5655	-0.513	0	345	260	3
2026-02-19	12:58:16.370	-18.06	-38.85	-66.29	0.875472	-0.217648	0.469944	-0.1575	0.5655	-0.5085	0	345	260	3
2026-02-19	12:58:16.390	-14.595	-41.58	-65.485	0.85644	-0.23546	0.478972	-0.1665	0.5685	-0.5055	0	345	260	3
2026-02-19	12:58:16.410	-8.085	-43.575	-63.49	0.860832	-0.237168	0.47946	-0.171	0.564	-0.507	0	325	283	3
2026-02-19	12:58:16.430	0.56	-44.66	-60.13	0.86132	-0.24034	0.489952	-0.174	0.5565	-0.504	0	325	283	3
2026-02-19	12:58:16.450	11.76	-44.17	-54.67	0.854976	-0.226188	0.511912	-0.18	0.552	-0.495	0	325	283	3
2026-02-19	12:58:16.470	23.555	-43.365	-49.875	0.889624	-0.198372	0.536312	-0.183	0.5475	-0.4935	0	325	283	3
2026-02-19	12:58:16.490	27.93	-41.825	-44.905	0.908656	-0.169336	0.520208	-0.1905	0.5355	-0.4875	0	325	283	3
2026-02-19	12:58:16.510	20.055	-40.775	-38.71	0.932568	-0.138104	0.486292	-0.2025	0.528	-0.486	0	325	283	3
2026-02-19	12:58:16.530	4.62	-40.32	-33.005	0.939156	-0.11224	0.478484	-0.207	0.5295	-0.489	0	325	283	3
2026-02-19	12:58:16.550	-8.505	-39.095	-29.575	0.916464	-0.096868	0.476288	-0.213	0.5145	-0.48	0	325	283	3
2026-02-19	12:58:16.570	-26.845	-38.675	-27.335	0.876204	-0.058072	0.422608	-0.213	0.516	-0.4725	0	325	283	3
2026-02-19	12:58:16.590	-51.065	-42.315	-25.025	0.902068	-0.033428	0.377468	-0.2085	0.507	-0.465	0	325	283	3
2026-02-19	12:58:16.610	-69.09	-42.7	-23.275	0.926468	-0.050508	0.39162	-0.222	0.51	-0.468	0	300	315	3
2026-02-19	12:58:16.630	-71.925	-36.4	-17.99	0.917928	-0.08784	0.375272	-0.2175	0.5115	-0.462	0	300	315	3
2026-02-19	12:58:16.650	-61.775	-33.53	-12.25	0.901336	-0.044652	0.295972	-0.225	0.513	-0.456	0	300	315	3
2026-02-19	12:58:16.670	-41.09	-38.64	-11.48	1.021628	-0.093696	0.288164	-0.231	0.5175	-0.4545	0	300	315	3
2026-02-19	12:58:16.690	-3.36	-37.87	-11.305	1.136308	-0.174948	0.323056	-0.228	0.519	-0.4515	0	300	315	3
2026-02-19	12:58:16.710	40.46	-31.78	-5.565	1.255136	-0.124196	0.338672	-0.2325	0.519	-0.4455	0	300	315	3
2026-02-19	12:58:16.730	65.73	-19.88	3.815	1.254648	0.073688	0.269864	-0.2325	0.5085	-0.4455	0	300	315	3
2026-02-19	12:58:16.750	55.93	-9.24	13.055	1.20536	0.178852	0.196176	-0.237	0.498	-0.447	0	300	315	3
2026-02-19	12:58:16.770	44.975	2.065	23.59	1.098	0.192516	0.167384	-0.2355	0.501	-0.441	0	300	315	3
2026-02-19	12:58:16.790	48.79	8.505	40.285	1.01016	0.28548	0.135176	-0.2265	0.4905	-0.4335	0	300	315	3
2026-02-19	12:58:16.810	42.595	8.505	52.395	0.945256	0.380396	0.121024	-0.228	0.486	-0.4365	0	275	335	3
2026-02-19	12:58:16.830	29.54	7.35	54.145	0.992592	0.335744	0.087352	-0.2295	0.48	-0.4425	0	275	335	3
2026-02-19	12:58:16.850	29.085	10.85	52.745	1.056276	0.196176	0.039772	-0.2265	0.48	-0.4455	0	275	335	3
2026-02-19	12:58:16.870	51.8	15.61	52.885	1.068964	0.068076	0.023668	-0.2235	0.4815	-0.4455	0	275	335	3
2026-02-19	12:58:16.890	76.545	17.92	53.06	1.05896	0.08906	0.02928	-0.2235	0.4815	-0.4455	0	275	335	3
2026-02-19	12:58:16.910	80.5	19.005	48.755	1.025044	0.168848	0.004636	-0.216	0.48	-0.438	0	275	335	3
2026-02-19	12:58:16.930	71.575	17.08	42.455	0.994056	0.167628	-0.012688	-0.2115	0.4845	-0.429	0	275	335	3
2026-02-19	12:58:16.950	67.655	11.725	38.815	1.017968	0.110776	0.01952	-0.213	0.4695	-0.4305	0	275	335	3
2026-02-19	12:58:16.970	63.735	8.4	36.995	0.992348	0.132736	0.05246	-0.213	0.477	-0.429	0	275	335	3
2026-02-19	12:58:16.990	52.36	7	34.23	0.9516	0.15494	0.05124	-0.2205	0.4635	-0.423	0	275	335	3
2026-02-19	12:58:17.010	36.225	6.265	29.54	0.912316	0.098088	0.017812	-0.216	0.4665	-0.4185	0	257	313	3
2026-02-19	12:58:17.030	43.715	8.19	26.39	0.89792	-0.054412	-0.012932	-0.2175	0.465	-0.4065	0	257	313	3
2026-02-19	12:58:17.050	79.065	10.01	24.325	0.897188	-0.071492	0.000976	-0.213	0.465	-0.414	0	257	313	3
2026-02-19	12:58:17.070	86.065	10.57	23.38	0.867664	-0.073688	0.047336	-0.2145	0.462	-0.4125	0	257	313	3
2026-02-19	12:58:17.090	75.6	10.92	22.645	0.854732	-0.06832	0.114924	-0.213	0.4605	-0.408	0	257	313	3
2026-02-19	12:58:17.110	44.765	11.62	21.875	0.877912	-0.130052	0.15616	-0.2115	0.459	-0.405	0	257	313	3
2026-02-19	12:58:17.130	35.63	19.88	22.225	0.93452	-0.274744	0.149328	-0.2115	0.4605	-0.405	0	257	313	3
2026-02-19	12:58:17.150	59.36	28.14	23.485	0.910852	-0.239364	0.176168	-0.2115	0.465	-0.405	0	257	313	3
2026-02-19	12:58:17.170	68.775	29.75	23.45	0.92354	-0.166164	0.221064	-0.21	0.465	-0.405	0	257	313	3
2026-02-19	12:58:17.190	56.455	30.59	21.175	0.97112	-0.142496	0.231068	-0.2085	0.465	-0.405	0	257	313	3
2026-02-19	12:58:17.210	43.75	33.565	20.72	1.003328	-0.183732	0.226188	-0.2055	0.4605	-0.405	0	245	266	2
2026-02-19	12:58:17.230	40.145	39.445	26.95	1.001132	-0.13542	0.210816	-0.201	0.4575	-0.405	0	245	266	2
2026-02-19	12:58:17.250	35.28	40.075	30.73	1.00528	-0.091988	0.250344	-0.204	0.4665	-0.411	0	245	266	2
2026-02-19	12:58:17.270	25.9	38.745	31.325	1.014796	-0.077836	0.332084	-0.204	0.4575	-0.4035	0	245	266	2
2026-02-19	12:58:17.290	13.825	37.66	32.025	1.000644	-0.121756	0.349408	-0.201	0.465	-0.4095	0	245	266	2
2026-02-19	12:58:17.310	3.78	35.245	33.915	0.94428	-0.121756	0.343552	-0.198	0.474	-0.4185	0	245	266	2
2026-02-19	12:58:17.330	-7.315	30.905	33.88	0.911828	-0.144936	0.342088	-0.2055	0.477	-0.4185	0	245	266	2
2026-02-19	12:58:17.350	-12.775	26.495	32.2	0.96136	-0.177876	0.339648	-0.2025	0.4875	-0.423	0	245	266	2
2026-02-19	12:58:17.370	-19.67	22.05	31.22	0.96258	-0.15738	0.292068	-0.198	0.4815	-0.423	0	245	266	2
2026-02-19	12:58:17.390	-31.045	13.055	31.115	0.949404	-0.148596	0.254736	-0.189	0.5025	-0.4185	0	245	266	2
2026-02-19	12:58:17.410	-39.935	3.045	28.07	0.98454	-0.13664	0.280356	-0.189	0.5025	-0.4185	0	237	237	3
2026-02-19	12:58:17.430	-41.475	-0.455	22.715	1.028704	-0.174704	0.312808	-0.1875	0.516	-0.4245	0	237	237	3
2026-02-19	12:58:17.450	-27.055	5.075	18.76	0.96624	-0.188368	0.269132	-0.1905	0.528	-0.4245	0	237	237	3
2026-02-19	12:58:17.470	-9.485	1.82	15.155	0.936716	-0.1342	0.244488	-0.1965	0.5265	-0.4185	0	237	237	3
2026-02-19	12:58:17.490	4.865	-1.925	9.59	0.94672	-0.137128	0.272792	-0.201	0.534	-0.42	0	237	237	3
2026-02-19	12:58:17.510	15.575	-1.54	4.935	0.926956	-0.17202	0.287432	-0.189	0.5355	-0.4245	0	237	237	3
2026-02-19	12:58:17.530	26.495	-1.715	3.85	0.91378	-0.096136	0.240584	-0.2025	0.5505	-0.426	0	237	237	3
2026-02-19	12:58:17.550	30.065	-7.035	0.63	0.980148	-0.024888	0.214476	-0.195	0.537	-0.4305	0	237	237	3
2026-02-19	12:58:17.570	29.995	-14.07	-5.285	1.132404	-0.076128	0.267424	-0.207	0.5385	-0.429	0	237	237	3
2026-02-19	12:58:17.590	32.97	-13.23	-4.97	1.139236	-0.078568	0.304512	-0.201	0.54	-0.426	0	237	237	3
2026-02-19	12:58:17.610	35.28	-10.185	0.28	1.067744	0.000244	0.280356	-0.198	0.54	-0.4245	0	228	235	3
2026-02-19	12:58:17.630	31.885	-8.575	3.99	1.033584	0.03904	0.292556	-0.198	0.543	-0.429	0	228	235	3
2026-02-19	12:58:17.650	31.64	-3.885	4.97	1.058716	0.033428	0.312076	-0.201	0.546	-0.4305	0	228	235	3
2026-02-19	12:58:17.670	36.225	7.7	4.76	1.089216	0.068808	0.28914	-0.207	0.54	-0.4275	0	228	235	3
2026-02-19	12:58:17.690	33.355	19.775	4.34	1.120936	0.126148	0.2318	-0.2055	0.537	-0.4275	0	228	235	3
2026-02-19	12:58:17.710	19.11	26.565	2.31	1.143384	0.194224	0.19886	-0.1995	0.5355	-0.426	0	228	235	3
2026-02-19	12:58:17.730	-3.01	34.16	-0.98	1.117276	0.18666	0.18788	-0.1995	0.5385	-0.4305	0	228	235	3
2026-02-19	12:58:17.750	-31.29	41.09	-2.45	1.031632	0.155916	0.177144	-0.204	0.54	-0.4395	0	228	235	3
2026-02-19	12:58:17.770	-53.76	42	-2.1	0.974536	0.065636	0.187148	-0.204	0.54	-0.4395	0	228	235	3
2026-02-19	12:58:17.790	-58.24	39.55	-0.525	0.952332	-0.018544	0.222772	-0.1905	0.549	-0.4455	0	228	235	3
2026-02-19	12:58:17.810	-49.91	37.52	0.91	0.914024	-0.057096	0.259616	-0.1815	0.5505	-0.444	0	220	242	3
2026-02-19	12:58:17.830	-39.025	36.715	0.805	0.832772	-0.043676	0.283772	-0.177	0.558	-0.4455	0	220	242	3
2026-02-19	12:58:17.850	-29.89	35.385	-0.91	0.763964	-0.071004	0.2745	-0.1785	0.57	-0.45	0	220	242	3
2026-02-19	12:58:17.870	-17.605	33.32	-3.605	0.720532	-0.0854	0.271572	-0.1755	0.5685	-0.45	0	220	242	3
2026-02-19	12:58:17.890	-4.305	31.15	-7.42	0.72468	-0.077104	0.285236	-0.1665	0.567	-0.4605	0	220	242	3
2026-02-19	12:58:17.910	2.765	29.155	-11.935	0.742004	-0.072956	0.311832	-0.162	0.567	-0.4545	0	220	242	3
2026-02-19	12:58:17.930	0.35	26.635	-19.145	0.72956	-0.069784	0.317932	-0.159	0.567	-0.4605	0	220	242	3
2026-02-19	12:58:17.950	-11.725	21.28	-23.835	0.772992	-0.081008	0.322568	-0.1605	0.5655	-0.459	0	220	242	3
2026-02-19	12:58:17.970	-25.515	17.08	-28.245	0.824964	-0.114924	0.35136	-0.159	0.5655	-0.4605	0	220	242	3
2026-02-19	12:58:17.990	-35.42	15.4	-31.71	0.8357	-0.12322	0.386252	-0.1545	0.5685	-0.4635	0	220	242	3
2026-02-19	12:58:18.010	-45.535	12.705	-33.565	0.859368	-0.130784	0.413336	-0.153	0.5685	-0.4635	0	212	252	3
2026-02-19	12:58:18.030	-60.76	9.135	-33.845	0.887184	-0.1342	0.442616	-0.1515	0.567	-0.462	0	212	252	3
2026-02-19	12:58:18.050	-95.725	5.355	-31.885	0.892552	-0.128588	0.463112	-0.1515	0.567	-0.462	0	212	252	3
2026-02-19	12:58:18.070	-138.6	2.1	-28.42	0.88084	-0.1525	0.47946	-0.156	0.567	-0.4635	0	212	252	3
2026-02-19	12:58:18.090	-170.695	2.24	-23.415	0.861076	-0.238144	0.482876	-0.1575	0.576	-0.462	0	212	252	3
2026-02-19	12:58:18.110	-153.65	7.525	-13.195	0.87474	-0.433588	0.392596	-0.1575	0.6015	-0.447	0	212	252	3
2026-02-19	12:58:18.130	-106.82	14.665	-7.105	0.80642	-0.532408	0.351116	-0.1545	0.609	-0.4425	0	212	252	3
2026-02-19	12:58:18.150	-58.17	11.515	-1.015	0.764696	-0.459452	0.364048	-0.1545	0.6225	-0.438	0	212	252	3
2026-02-19	12:58:18.170	-31.255	9.485	3.43	0.755912	-0.371368	0.403576	-0.153	0.63	-0.4335	0	212	252	3
2026-02-19	12:58:18.190	-24.745	8.61	4.76	0.76372	-0.325008	0.443348	-0.15	0.633	-0.432	0	212	252	3
2026-02-19	12:58:18.210	-32.48	7.735	3.29	0.7625	-0.299388	0.494588	-0.1485	0.6345	-0.435	0	208	277	3
2026-02-19	12:58:18.230	-49.525	6.755	0.84	0.739808	-0.279624	0.515328	-0.1455	0.636	-0.4365	0	208	277	3
2026-02-19	12:58:18.250	-71.295	4.095	-1.54	0.72834	-0.271328	0.504104	-0.147	0.6435	-0.4305	0	208	277	3
2026-02-19	12:58:18.270	-94.36	0.175	-5.04	0.71492	-0.27206	0.489708	-0.15	0.648	-0.4275	0	208	277	3
2026-02-19	12:58:18.290	-122.675	-5.145	-11.795	0.741272	-0.331596	0.4697	-0.153	0.6495	-0.432	0	208	277	3
2026-02-19	12:58:18.310	-130.27	-7.175	-15.785	0.753472	-0.357948	0.460184	-0.1515	0.666	-0.4185	0	208	277	3
2026-02-19	12:58:18.330	-132.65	-9.415	-19.005	0.7747	-0.371368	0.443836	-0.1545	0.6825	-0.405	0	208	277	3
2026-02-19	12:58:18.350	-131.845	-10.08	-22.365	0.761524	-0.401136	0.414068	-0.153	0.6885	-0.396	0	208	277	3
2026-02-19	12:58:18.370	-125.755	-11.585	-25.97	0.79056	-0.432612	0.382592	-0.159	0.69	-0.3855	0	208	277	3
2026-02-19	12:58:18.390	-111.545	-12.845	-30.275	0.837164	-0.482144	0.3721	-0.1635	0.708	-0.3825	0	208	277	3
2026-02-19	12:58:18.410	-92.225	-12.11	-33.81	0.869372	-0.526796	0.3843	-0.1575	0.714	-0.375	0	206	313	3
2026-02-19	12:58:18.430	-67.62	-10.78	-35.63	0.87596	-0.535824	0.376248	-0.165	0.708	-0.354	0	206	313	3
2026-02-19	12:58:18.450	-37.695	-10.465	-36.435	0.872056	-0.497028	0.35502	-0.1665	0.7035	-0.357	0	206	313	3
2026-02-19	12:58:18.470	-16.73	-12.145	-38.08	0.930616	-0.415044	0.344528	-0.1665	0.7035	-0.357	0	206	313	3
2026-02-19	12:58:18.490	-10.605	-13.79	-41.055	0.959896	-0.38796	0.331596	-0.1725	0.7065	-0.3525	0	206	313	3
2026-02-19	12:58:18.510	-9.695	-13.475	-42.455	0.892552	-0.384788	0.3233	-0.183	0.7065	-0.342	0	206	313	3
2026-02-19	12:58:18.530	-14.455	-18.41	-43.365	0.96014	-0.35746	0.300852	-0.1905	0.7035	-0.339	0	206	313	3
2026-02-19	12:58:18.550	-21.315	-21.105	-47.25	1.01382	-0.33428	0.324032	-0.1935	0.699	-0.339	0	206	313	3
2026-02-19	12:58:18.570	-26.25	-19.88	-50.225	0.989908	-0.362828	0.30744	-0.201	0.699	-0.3345	0	206	313	3
2026-02-19	12:58:18.590	-23.695	-20.44	-49.455	1.003084	-0.357704	0.262788	-0.2055	0.7005	-0.33	0	206	313	3
2026-02-19	12:58:18.610	-16.485	-20.125	-44.135	0.974048	-0.347212	0.20618	-0.2055	0.696	-0.3255	0	205	337	3
2026-02-19	12:58:18.630	-2.065	-23.03	-32.97	0.912072	-0.317688	0.12688	-0.207	0.6885	-0.3255	0	205	337	3
2026-02-19	12:58:18.650	14.35	-29.26	-21.875	0.8967	-0.261568	0.075884	-0.21	0.6855	-0.327	0	205	337	3
2026-02-19	12:58:18.670	31.115	-31.885	-16.835	0.987224	-0.266448	0.111996	-0.213	0.69	-0.3225	0	205	337	3
2026-02-19	12:58:18.690	38.675	-28.07	-12.215	1.014796	-0.265716	0.0915	-0.219	0.687	-0.318	0	205	337	3
2026-02-19	12:58:18.710	45.92	-25.655	-5.04	0.968436	-0.25864	0.05124	-0.2205	0.684	-0.315	0	205	337	3
2026-02-19	12:58:18.730	60.55	-29.61	3.325	1.009916	-0.282308	0.078812	-0.2205	0.6885	-0.318	0	205	337	3
2026-02-19	12:58:18.750	81.27	-28.98	14.315	1.041636	-0.27328	0.11956	-0.2265	0.684	-0.3225	0	205	337	3
2026-02-19	12:58:18.770	99.47	-25.375	26.18	1.008696	-0.168604	0.141276	-0.228	0.678	-0.3195	0	205	337	3
2026-02-19	12:58:18.790	105.735	-23.205	37.275	1.021384	-0.10614	0.15494	-0.2295	0.681	-0.321	0	205	337	3
2026-02-19	12:58:18.810	99.33	-19.81	49.49	1.02114	-0.081008	0.140788	-0.231	0.6825	-0.327	0	205	327	3
2026-02-19	12:58:18.830	87.22	-16.905	58.8	0.990884	-0.059536	0.119316	-0.231	0.6825	-0.3285	0	205	327	3
2026-02-19	12:58:18.850	72.17	-15.785	61.53	1.044808	-0.059536	0.115656	-0.219	0.6825	-0.339	0	205	327	3
2026-02-19	12:58:18.870	51.485	-12.565	62.195	1.03822	-0.063684	0.122244	-0.2205	0.687	-0.3435	0	205	327	3
2026-02-19	12:58:18.890	27.3	-8.925	62.44	0.999424	-0.101748	0.127368	-0.2175	0.6975	-0.3525	0	205	327	3
2026-02-19	12:58:18.910	12.215	-6.65	61.18	0.96136	-0.137372	0.134688	-0.2145	0.6975	-0.354	0	205	327	3
2026-02-19	12:58:18.930	8.61	-4.585	58.1	0.965508	-0.173972	0.142252	-0.2025	0.705	-0.3495	0	205	327	3
2026-02-19	12:58:18.950	8.96	-2.94	53.935	0.979172	-0.199348	0.123464	-0.201	0.7035	-0.3495	0	205	327	3
2026-02-19	12:58:18.970	10.465	-0.63	50.4	0.93208	-0.206424	0.095892	-0.1965	0.7185	-0.354	0	205	327	3
2026-02-19	12:58:18.990	14.245	0.63	45.78	0.889868	-0.232776	0.077348	-0.1995	0.708	-0.348	0	205	327	3
2026-02-19	12:58:17.010	36.225	6.265	29.54	0.912316	0.098088	0.017812	-0.216	0.4665	-0.4185	0	257	313	3
2026-02-19	12:58:17.030	43.715	8.19	26.39	0.89792	-0.054412	-0.012932	-0.2175	0.465	-0.4065	0	257	313	3
2026-02-19	12:58:17.050	79.065	10.01	24.325	0.897188	-0.071492	0.000976	-0.213	0.465	-0.414	0	257	313	3
2026-02-19	12:58:17.070	86.065	10.57	23.38	0.867664	-0.073688	0.047336	-0.2145	0.462	-0.4125	0	257	313	3
2026-02-19	12:58:17.090	75.6	10.92	22.645	0.854732	-0.06832	0.114924	-0.213	0.4605	-0.408	0	257	313	3
2026-02-19	12:58:17.110	44.765	11.62	21.875	0.877912	-0.130052	0.15616	-0.2115	0.459	-0.405	0	257	313	3
2026-02-19	12:58:17.130	35.63	19.88	22.225	0.93452	-0.274744	0.149328	-0.2115	0.4605	-0.405	0	257	313	3
2026-02-19	12:58:17.150	59.36	28.14	23.485	0.910852	-0.239364	0.176168	-0.2115	0.465	-0.405	0	257	313	3
2026-02-19	12:58:17.170	68.775	29.75	23.45	0.92354	-0.166164	0.221064	-0.21	0.465	-0.405	0	257	313	3
2026-02-19	12:58:17.190	56.455	30.59	21.175	0.97112	-0.142496	0.231068	-0.2085	0.465	-0.405	0	257	313	3
2026-02-19	12:58:17.210	43.75	33.565	20.72	1.003328	-0.183732	0.226188	-0.2055	0.4605	-0.405	0	245	266	2
2026-02-19	12:58:17.230	40.145	39.445	26.95	1.001132	-0.13542	0.210816	-0.201	0.4575	-0.405	0	245	266	2
2026-02-19	12:58:17.250	35.28	40.075	30.73	1.00528	-0.091988	0.250344	-0.204	0.4665	-0.411	0	245	266	2
2026-02-19	12:58:17.270	25.9	38.745	31.325	1.014796	-0.077836	0.332084	-0.204	0.4575	-0.4035	0	245	266	2
2026-02-19	12:58:17.290	13.825	37.66	32.025	1.000644	-0.121756	0.349408	-0.201	0.465	-0.4095	0	245	266	2
2026-02-19	12:58:17.310	3.78	35.245	33.915	0.94428	-0.121756	0.343552	-0.198	0.474	-0.4185	0	245	266	2
2026-02-19	12:58:17.330	-7.315	30.905	33.88	0.911828	-0.144936	0.342088	-0.2055	0.477	-0.4185	0	245	266	2
2026-02-19	12:58:17.350	-12.775	26.495	32.2	0.96136	-0.177876	0.339648	-0.2025	0.4875	-0.423	0	245	266	2
2026-02-19	12:58:17.370	-19.67	22.05	31.22	0.96258	-0.15738	0.292068	-0.198	0.4815	-0.423	0	245	266	2
2026-02-19	12:58:17.390	-31.045	13.055	31.115	0.949404	-0.148596	0.254736	-0.189	0.5025	-0.4185	0	245	266	2
2026-02-19	12:58:17.410	-39.935	3.045	28.07	0.98454	-0.13664	0.280356	-0.189	0.5025	-0.4185	0	237	237	3
2026-02-19	12:58:17.430	-41.475	-0.455	22.715	1.028704	-0.174704	0.312808	-0.1875	0.516	-0.4245	0	237	237	3
2026-02-19	12:58:17.450	-27.055	5.075	18.76	0.96624	-0.188368	0.269132	-0.1905	0.528	-0.4245	0	237	237	3
2026-02-19	12:58:17.470	-9.485	1.82	15.155	0.936716	-0.1342	0.244488	-0.1965	0.5265	-0.4185	0	237	237	3
2026-02-19	12:58:17.490	4.865	-1.925	9.59	0.94672	-0.137128	0.272792	-0.201	0.534	-0.42	0	237	237	3
2026-02-19	12:58:17.510	15.575	-1.54	4.935	0.926956	-0.17202	0.287432	-0.189	0.5355	-0.4245	0	237	237	3
2026-02-19	12:58:17.530	26.495	-1.715	3.85	0.91378	-0.096136	0.240584	-0.2025	0.5505	-0.426	0	237	237	3
2026-02-19	12:58:17.550	30.065	-7.035	0.63	0.980148	-0.024888	0.214476	-0.195	0.537	-0.4305	0	237	237	3
2026-02-19	12:58:17.570	29.995	-14.07	-5.285	1.132404	-0.076128	0.267424	-0.207	0.5385	-0.429	0	237	237	3
2026-02-19	12:58:17.590	32.97	-13.23	-4.97	1.139236	-0.078568	0.304512	-0.201	0.54	-0.426	0	237	237	3
2026-02-19	12:58:17.610	35.28	-10.185	0.28	1.067744	0.000244	0.280356	-0.198	0.54	-0.4245	0	228	235	3
2026-02-19	12:58:17.630	31.885	-8.575	3.99	1.033584	0.03904	0.292556	-0.198	0.543	-0.429	0	228	235	3
2026-02-19	12:58:17.650	31.64	-3.885	4.97	1.058716	0.033428	0.312076	-0.201	0.546	-0.4305	0	228	235	3
2026-02-19	12:58:17.670	36.225	7.7	4.76	1.089216	0.068808	0.28914	-0.207	0.54	-0.4275	0	228	235	3
2026-02-19	12:58:17.690	33.355	19.775	4.34	1.120936	0.126148	0.2318	-0.2055	0.537	-0.4275	0	228	235	3
2026-02-19	12:58:17.710	19.11	26.565	2.31	1.143384	0.194224	0.19886	-0.1995	0.5355	-0.426	0	228	235	3
2026-02-19	12:58:17.730	-3.01	34.16	-0.98	1.117276	0.18666	0.18788	-0.1995	0.5385	-0.4305	0	228	235	3
2026-02-19	12:58:17.750	-31.29	41.09	-2.45	1.031632	0.155916	0.177144	-0.204	0.54	-0.4395	0	228	235	3
2026-02-19	12:58:17.770	-53.76	42	-2.1	0.974536	0.065636	0.187148	-0.204	0.54	-0.4395	0	228	235	3
2026-02-19	12:58:17.790	-58.24	39.55	-0.525	0.952332	-0.018544	0.222772	-0.1905	0.549	-0.4455	0	228	235	3
2026-02-19	12:58:17.810	-49.91	37.52	0.91	0.914024	-0.057096	0.259616	-0.1815	0.5505	-0.444	0	220	242	3
2026-02-19	12:58:17.830	-39.025	36.715	0.805	0.832772	-0.043676	0.283772	-0.177	0.558	-0.4455	0	220	242	3
2026-02-19	12:58:17.850	-29.89	35.385	-0.91	0.763964	-0.071004	0.2745	-0.1785	0.57	-0.45	0	220	242	3
2026-02-19	12:58:17.870	-17.605	33.32	-3.605	0.720532	-0.0854	0.271572	-0.1755	0.5685	-0.45	0	220	242	3
2026-02-19	12:58:17.890	-4.305	31.15	-7.42	0.72468	-0.077104	0.285236	-0.1665	0.567	-0.4605	0	220	242	3
2026-02-19	12:58:17.910	2.765	29.155	-11.935	0.742004	-0.072956	0.311832	-0.162	0.567	-0.4545	0	220	242	3
2026-02-19	12:58:17.930	0.35	26.635	-19.145	0.72956	-0.069784	0.317932	-0.159	0.567	-0.4605	0	220	242	3
2026-02-19	12:58:17.950	-11.725	21.28	-23.835	0.772992	-0.081008	0.322568	-0.1605	0.5655	-0.459	0	220	242	3
2026-02-19	12:58:17.970	-25.515	17.08	-28.245	0.824964	-0.114924	0.35136	-0.159	0.5655	-0.4605	0	220	242	3
2026-02-19	12:58:17.990	-35.42	15.4	-31.71	0.8357	-0.12322	0.386252	-0.1545	0.5685	-0.4635	0	220	242	3
2026-02-19	12:58:20.010	16.52	0.175	39.34	0.920612	-0.307684	0.108336	-0.1965	0.717	-0.354	0	205	289	3
2026-02-19	12:58:20.030	20.615	-0.245	31.955	0.989176	-0.388204	0.155916	-0.1905	0.726	-0.3585	0	205	289	3
2026-02-19	12:58:20.050	25.025	3.92	26.985	0.903288	-0.3904	0.17812	-0.183	0.7305	-0.357	0	205	289	3
2026-02-19	12:58:20.070	24.395	3.85	23.835	0.898652	-0.374784	0.176412	-0.1845	0.735	-0.36	0	205	289	3
2026-02-19	12:58:20.090	16.73	4.76	20.685	0.895968	-0.382348	0.187148	-0.1845	0.7335	-0.3645	0	205	289	3
2026-02-19	12:58:20.110	-0.595	6.16	18.48	0.863272	-0.364048	0.197884	-0.18	0.735	-0.3645	0	205	289	3
2026-02-19	12:58:20.130	-33.11	6.265	18.2	0.81984	-0.370148	0.174216	-0.18	0.7395	-0.3675	0	205	289	3
2026-02-19	12:58:20.150	-41.335	8.015	17.85	0.79178	-0.489952	0.11346	-0.177	0.7425	-0.366	0	205	289	3
2026-02-19	12:58:20.170	4.06	3.01	13.685	0.810568	-0.563396	0.130784	-0.1725	0.747	-0.363	0	205	289	3
2026-02-19	12:58:20.190	31.535	-1.435	9.59	0.834724	-0.555832	0.179584	-0.1845	0.753	-0.366	0	205	289	3
2026-02-19	12:58:20.210	48.545	-3.605	5.495	0.82838	-0.550708	0.220088	-0.1755	0.7545	-0.3645	0	204	250	2
2026-02-19	12:58:20.230	63.595	-4.48	2.1	0.849852	-0.538752	0.249856	-0.1845	0.7425	-0.372	0	204	250	2
2026-02-19	12:58:20.250	76.055	-2.45	-0.455	0.892796	-0.498736	0.294996	-0.177	0.7395	-0.375	0	204	250	2
2026-02-19	12:58:20.270	76.93	2.73	-0.98	0.916464	-0.470432	0.284504	-0.1785	0.7425	-0.3765	0	204	250	2
2026-02-19	12:58:20.290	59.29	8.33	0.455	0.883036	-0.410408	0.249368	-0.183	0.7335	-0.384	0	204	250	2
2026-02-19	12:58:20.310	33.005	10.885	0.875	0.881328	-0.39894	0.206424	-0.1785	0.7305	-0.3915	0	204	250	2
2026-02-19	12:58:20.330	9.905	11.585	-0.28	0.886452	-0.387228	0.190808	-0.177	0.735	-0.393	0	204	250	2
2026-02-19	12:58:20.350	-14.805	10.08	-3.99	0.937692	-0.39772	0.21106	-0.1815	0.732	-0.393	0	204	250	2
2026-02-19	12:58:20.370	-24.115	10.29	-6.335	0.957212	-0.422852	0.22692	-0.1695	0.723	-0.405	0	204	250	2
2026-02-19	12:58:20.390	-22.68	10.43	-8.715	0.996252	-0.447496	0.235948	-0.1815	0.7335	-0.4065	0	204	250	2
2026-02-19	12:58:20.410	-10.57	10.675	-11.41	1.047492	-0.459208	0.24888	-0.18	0.7395	-0.4035	0	202	227	3
2026-02-19	12:58:20.430	7.385	12.355	-14.315	1.086044	-0.466284	0.238388	-0.18	0.7305	-0.414	0	202	227	3
2026-02-19	12:58:20.450	26.6	13.545	-15.715	1.099464	-0.431148	0.215696	-0.1755	0.7395	-0.402	0	202	227	3
2026-02-19	12:58:20.470	42.49	12.915	-14.14	1.06262	-0.366976	0.185684	-0.186	0.7305	-0.4035	0	202	227	3
2026-02-19	12:58:20.490	58.275	9.87	-12.705	1.012844	-0.27206	0.189832	-0.1755	0.7275	-0.4095	0	202	227	3
2026-02-19	12:58:20.510	66.465	6.65	-15.225	0.958676	-0.180804	0.211304	-0.18	0.7125	-0.4185	0	202	227	3
2026-02-19	12:58:20.530	71.995	0.035	-17.745	0.88938	-0.185928	0.264252	-0.18	0.7125	-0.4185	0	202	227	3
2026-02-19	12:58:20.550	81.55	-3.5	-16.45	0.842288	-0.19398	0.303536	-0.1845	0.7065	-0.4275	0	202	227	3
2026-02-19	12:58:20.570	91.07	-5.81	-15.155	0.841312	-0.167872	0.322812	-0.1845	0.6975	-0.4365	0	202	227	3
2026-02-19	12:58:20.590	95.55	-5.67	-15.925	0.857416	-0.162016	0.322812	-0.183	0.6885	-0.4395	0	202	227	3
2026-02-19	12:58:20.610	95.2	-2.695	-17.325	0.86376	-0.129564	0.297436	-0.1845	0.6825	-0.4485	0	198	222	3
2026-02-19	12:58:20.630	91.595	0.455	-19.18	0.88328	-0.098088	0.265716	-0.183	0.6735	-0.459	0	198	222	3
2026-02-19	12:58:20.650	85.05	4.025	-20.755	0.905972	-0.064172	0.252052	-0.1905	0.6585	-0.4665	0	198	222	3
2026-02-19	12:58:20.670	75.635	7.105	-21.77	0.93208	-0.055388	0.25864	-0.189	0.648	-0.468	0	198	222	3
2026-02-19	12:58:20.690	59.535	10.5	-21.21	0.91866	-0.046604	0.284504	-0.1845	0.6405	-0.4695	0	198	222	3
2026-02-19	12:58:20.710	37.625	12.25	-18.305	0.891332	-0.028304	0.291336	-0.186	0.6345	-0.471	0	198	222	3
2026-02-19	12:58:20.730	16.73	11.69	-15.785	0.875472	-0.019764	0.283528	-0.201	0.633	-0.48	0	198	222	3
2026-02-19	12:58:20.750	-1.75	11.095	-13.615	0.854488	-0.035136	0.284504	-0.189	0.621	-0.483	0	198	222	3
2026-02-19	12:58:20.770	-13.51	10.64	-12.635	0.862784	-0.048556	0.299876	-0.1935	0.621	-0.489	0	198	222	3
2026-02-19	12:58:20.790	-22.365	10.885	-13.44	0.859856	-0.060512	0.291092	-0.1905	0.621	-0.4905	0	198	222	3
2026-02-19	12:58:20.810	-28.875	11.2	-14.7	0.860832	-0.106384	0.271084	-0.1875	0.621	-0.4815	0	195	231	3
2026-02-19	12:58:20.830	-28.14	10.36	-15.89	0.870836	-0.120292	0.271084	-0.1905	0.624	-0.489	0	195	231	3
2026-02-19	12:58:20.850	-22.505	8.995	-16.73	0.890356	-0.135176	0.293776	-0.189	0.63	-0.489	0	195	231	3
2026-02-19	12:58:20.870	-10.605	8.295	-15.75	0.883768	-0.14518	0.3355	-0.189	0.63	-0.489	0	195	231	3
2026-02-19	12:58:20.890	-1.33	7.385	-13.755	0.875716	-0.13298	0.345992	-0.189	0.63	-0.489	0	195	231	3
2026-02-19	12:58:20.910	0.7	5.985	-12.215	0.89182	-0.160308	0.354776	-0.186	0.621	-0.492	0	195	231	3
2026-02-19	12:58:20.930	6.125	6.51	-11.55	0.909632	-0.173972	0.39772	-0.186	0.621	-0.486	0	195	231	3
2026-02-19	12:58:20.950	14.21	8.75	-10.675	0.914024	-0.134932	0.432612	-0.1875	0.615	-0.4935	0	195	231	3
2026-02-19	12:58:20.970	15.505	11.375	-9.905	0.91866	-0.099308	0.448472	-0.1875	0.618	-0.4905	0	195	231	3
2026-02-19	12:58:20.990	9.555	14.315	-9.415	0.90646	-0.092476	0.44896	-0.192	0.6135	-0.4965	0	195	231	3
2026-02-19	12:58:21.010	-2.17	16.1	-8.995	0.896456	-0.084668	0.44286	-0.1905	0.606	-0.4935	0	191	251	3
2026-02-19	12:58:21.030	-15.505	16.8	-9.065	0.8845	-0.08052	0.449936	-0.1905	0.606	-0.4995	0	191	251	3
2026-02-19	12:58:21.050	-35.14	17.535	-8.89	0.85278	-0.089548	0.45506	-0.18	0.615	-0.501	0	191	251	3
2026-02-19	12:58:21.070	-46.97	17.185	-9.065	0.8418	-0.117608	0.445544	-0.18	0.6165	-0.498	0	191	251	3
2026-02-19	12:58:21.090	-53.97	15.89	-10.15	0.84424	-0.136884	0.437736	-0.1785	0.6195	-0.498	0	191	251	3
2026-02-19	12:58:21.110	-59.745	14.7	-11.655	0.834724	-0.148352	0.451888	-0.1785	0.6255	-0.4965	0	191	251	3
2026-02-19	12:58:21.130	-62.755	14.245	-12.6	0.81252	-0.154696	0.472384	-0.1815	0.63	-0.4935	0	191	251	3
2026-02-19	12:58:21.150	-62.86	12.985	-13.44	0.817644	-0.16714	0.464576	-0.183	0.633	-0.4965	0	191	251	3
2026-02-19	12:58:21.170	-61.18	12.215	-15.4	0.835212	-0.188612	0.464332	-0.1815	0.636	-0.4935	0	191	251	3
2026-02-19	12:58:21.190	-59.255	13.265	-17.29	0.809104	-0.202764	0.469456	-0.174	0.642	-0.4935	0	191	251	3
2026-02-19	12:58:21.210	-58.275	12.845	-18.76	0.822524	-0.224724	0.469212	-0.174	0.6465	-0.4905	0	187	287	3
2026-02-19	12:58:21.230	-61.53	12.11	-20.545	0.853756	-0.250344	0.484828	-0.1785	0.648	-0.486	0	187	287	3
2026-02-19	12:58:21.250	-61.95	12.495	-21.14	0.840824	-0.265228	0.503128	-0.1755	0.6705	-0.4815	0	187	287	3
2026-02-19	12:58:21.270	-58.485	12.95	-20.44	0.821548	-0.266692	0.514108	-0.168	0.6735	-0.4815	0	187	287	3
2026-02-19	12:58:21.290	-54.18	12.67	-19.635	0.824964	-0.25864	0.494588	-0.1785	0.669	-0.477	0	187	287	3
2026-02-19	12:58:21.310	-52.535	11.375	-19.39	0.850584	-0.276696	0.460428	-0.1725	0.672	-0.489	0	187	287	3
2026-02-19	12:58:21.330	-52.99	9.065	-20.125	0.882792	-0.292068	0.45872	-0.1725	0.6735	-0.4695	0	187	287	3
2026-02-19	12:58:21.350	-51.31	7.665	-21.91	0.892552	-0.302072	0.491416	-0.171	0.6795	-0.468	0	187	287	3
2026-02-19	12:58:21.370	-47.11	5.88	-24.29	0.911096	-0.291336	0.506056	-0.18	0.6825	-0.4665	0	187	287	3
2026-02-19	12:58:21.390	-46.2	4.095	-26.495	0.902556	-0.287188	0.50142	-0.1845	0.681	-0.4635	0	187	287	3
2026-02-19	12:58:21.410	-52.92	-0.875	-29.82	0.905972	-0.277672	0.477508	-0.1845	0.681	-0.4635	0	181	332	3
2026-02-19	12:58:21.430	-59.745	-5.495	-32.235	0.91012	-0.287432	0.468236	-0.1845	0.681	-0.4635	0	181	332	3
2026-02-19	12:58:21.450	-67.69	-9.59	-34.405	0.87108	-0.28304	0.459208	-0.174	0.6945	-0.4575	0	181	332	3
2026-02-19	12:58:21.470	-73.99	-17.045	-38.57	0.893772	-0.299632	0.4392	-0.1875	0.7035	-0.456	0	181	332	3
2026-02-19	12:58:21.490	-79.275	-23.59	-44.38	0.862296	-0.329644	0.420656	-0.192	0.696	-0.45	0	181	332	3
2026-02-19	12:58:21.510	-73.745	-30.94	-50.05	0.826916	-0.377712	0.404064	-0.1965	0.699	-0.4395	0	181	332	3
2026-02-19	12:58:21.530	-52.78	-38.29	-53.13	0.823744	-0.410652	0.404308	-0.1995	0.705	-0.4305	0	181	332	3
2026-02-19	12:58:21.550	-19.6	-42.77	-52.325	0.788852	-0.42456	0.43066	-0.2085	0.699	-0.4215	0	181	332	3
2026-02-19	12:58:21.570	20.335	-45.29	-45.885	0.720776	-0.409676	0.416508	-0.2175	0.6975	-0.414	0	181	332	3
2026-02-19	12:58:21.590	70.42	-50.995	-31.15	0.694912	-0.33062	0.356972	-0.2175	0.6975	-0.414	0	181	332	3
2026-02-19	12:58:21.610	92.295	-52.815	-23.8	0.712236	-0.309148	0.337452	-0.228	0.69	-0.4125	0	175	369	3
2026-02-19	12:58:21.630	108.885	-53.235	-18.41	0.782996	-0.294264	0.320128	-0.24	0.6735	-0.411	0	175	369	3
2026-02-19	12:58:21.650	122.36	-50.96	-13.51	0.911584	-0.278892	0.323788	-0.24	0.663	-0.4095	0	175	369	3
2026-02-19	12:58:21.670	129.99	-45.255	-7.98	1.071892	-0.258884	0.293776	-0.2415	0.6525	-0.4155	0	175	369	3
2026-02-19	12:58:21.690	126.07	-35.245	-0.875	1.122156	-0.225944	0.252052	-0.2475	0.6405	-0.4185	0	175	369	3
2026-02-19	12:58:21.710	116.445	-23.52	8.54	1.081652	-0.206912	0.234484	-0.2535	0.636	-0.4215	0	175	369	3
2026-02-19	12:58:21.730	105.805	-15.61	19.04	1.075064	-0.1769	0.234972	-0.255	0.6285	-0.4245	0	175	369	3
2026-02-19	12:58:21.750	88.76	-6.72	31.675	1.05042	-0.141764	0.223016	-0.2565	0.6195	-0.4275	0	175	369	3
2026-02-19	12:58:21.770	69.23	-0.35	42.525	1.03944	-0.118828	0.213012	-0.258	0.6165	-0.4305	0	175	369	3
2026-02-19	12:58:21.790	53.06	4.48	47.95	1.059936	-0.115412	0.193248	-0.261	0.612	-0.444	0	175	369	3
2026-02-19	12:58:21.810	35.35	10.01	51.45	1.048712	-0.113948	0.174216	-0.2445	0.6135	-0.4485	0	171	378	3
2026-02-19	12:58:21.830	18.69	15.015	54.775	0.998936	-0.119804	0.153476	-0.246	0.6105	-0.4575	0	171	378	3
2026-02-19	12:58:21.850	6.475	16.555	57.05	0.971608	-0.122244	0.13054	-0.2415	0.6165	-0.4575	0	171	378	3
2026-02-19	12:58:21.870	0.035	16.59	57.715	0.971852	-0.14274	0.131028	-0.234	0.63	-0.465	0	171	378	3
2026-02-19	12:58:21.890	-3.325	16.17	57.89	0.979172	-0.155184	0.115168	-0.2325	0.642	-0.4605	0	171	378	3
2026-02-19	12:58:21.910	-3.85	15.61	58.03	0.959408	-0.15372	0.108336	-0.228	0.63	-0.4575	0	171	378	3
2026-02-19	12:58:21.930	1.085	11.83	55.265	0.930128	-0.17324	0.111508	-0.222	0.6495	-0.465	0	171	378	3
2026-02-19	12:58:21.950	12.53	4.515	50.295	0.976488	-0.200568	0.113948	-0.216	0.651	-0.4635	0	171	378	3
2026-02-19	12:58:21.970	21.595	1.645	45.71	0.933056	-0.186416	0.123464	-0.207	0.651	-0.462	0	171	378	3
2026-02-19	12:58:21.990	33.425	-2.94	39.305	0.919636	-0.194956	0.15616	-0.204	0.6555	-0.465	0	171	378	3
2026-02-19	12:58:22.010	45.535	-6.93	31.64	0.903044	-0.201056	0.185196	-0.2055	0.6555	-0.4725	0	169	351	3
2026-02-19	12:58:22.030	60.83	-10.29	23.17	0.931104	-0.225456	0.228628	-0.207	0.6525	-0.477	0	169	351	3
2026-02-19	12:58:22.050	77.7	-9.625	15.155	0.949648	-0.212524	0.24888	-0.204	0.6495	-0.468	0	169	351	3
2026-02-19	12:58:22.070	91.315	-6.965	7.105	1.030168	-0.184952	0.251564	-0.2055	0.645	-0.4725	0	169	351	3
2026-02-19	12:58:22.090	95.27	-3.22	-2.065	1.098976	-0.167628	0.23424	-0.198	0.6405	-0.483	0	169	351	3
2026-02-19	12:58:22.110	92.575	1.645	-9.17	1.093608	-0.1525	0.214964	-0.201	0.6315	-0.4875	0	169	351	3
2026-02-19	12:58:22.130	83.51	4.69	-15.19	1.1041	-0.095404	0.196176	-0.204	0.606	-0.4875	0	169	351	3
2026-02-19	12:58:22.150	71.82	8.47	-18.585	1.119716	-0.042456	0.2196	-0.2055	0.6	-0.492	0	169	351	3
2026-02-19	12:58:22.170	56.035	9.555	-18.795	1.10654	0.02318	0.233264	-0.2085	0.5895	-0.498	0	169	351	3
2026-02-19	12:58:22.190	37.03	7.315	-18.025	1.125328	0.035868	0.277428	-0.207	0.579	-0.5055	0	169	351	3
2026-02-19	12:58:22.210	25.83	4.585	-14.035	1.137528	-0.015128	0.320128	-0.2055	0.567	-0.51	0	168	313	3
2026-02-19	12:58:22.230	26.565	3.045	-6.79	1.108736	0.012688	0.363316	-0.207	0.561	-0.5085	0	168	313	3
2026-02-19	12:58:22.250	27.545	2.17	-0.07	1.049688	0.085644	0.391132	-0.2055	0.564	-0.5085	0	168	313	3
2026-02-19	12:58:22.270	23.485	2.94	3.465	0.995276	0.12444	0.385764	-0.204	0.5595	-0.5085	0	168	313	3
2026-02-19	12:58:22.290	16.485	5.985	1.995	0.965752	0.165188	0.346236	-0.204	0.555	-0.507	0	168	313	3
2026-02-19	12:58:22.310	5.565	10.255	-3.185	0.935496	0.149328	0.305488	-0.2055	0.5595	-0.507	0	168	313	3
2026-02-19	12:58:22.330	-6.475	14.56	-7.875	0.883768	0.101992	0.279868	-0.2085	0.5565	-0.507	0	168	313	3
2026-02-19	12:58:22.350	-16.625	18.585	-13.755	0.866444	0.08662	0.27328	-0.207	0.555	-0.5115	0	168	313	3
2026-02-19	12:58:22.370	-21.84	21.385	-22.05	0.873032	0.066612	0.265472	-0.204	0.5565	-0.5175	0	168	313	3
2026-02-19	12:58:22.390	-23.17	22.295	-28.035	0.870348	0.023912	0.256444	-0.1995	0.5535	-0.507	0	168	313	3
2026-02-19	12:58:22.410	-17.57	21.21	-31.29	0.891576	-0.023424	0.266204	-0.1935	0.5595	-0.513	0	168	292	3
2026-02-19	12:58:22.430	-6.09	19.46	-33.355	0.91622	-0.02562	0.301096	-0.1845	0.561	-0.516	0	168	292	3
2026-02-19	12:58:22.450	4.62	17.78	-33.915	0.922076	-0.018056	0.333548	-0.195	0.558	-0.507	0	168	292	3
2026-02-19	12:58:22.470	10.43	15.33	-33.67	0.921588	0.022936	0.337452	-0.195	0.5535	-0.5205	0	168	292	3
2026-02-19	12:58:22.490	7.42	10.92	-33.845	0.941596	0.027084	0.332816	-0.1935	0.5475	-0.519	0	168	292	3
2026-02-19	12:58:22.510	4.83	6.965	-33.74	0.936472	-0.028304	0.36844	-0.192	0.537	-0.516	0	168	292	3
2026-02-19	12:58:22.530	18.48	4.2	-32.585	0.950868	-0.081984	0.467992	-0.186	0.54	-0.516	0	168	292	3
2026-02-19	12:58:22.550	40.635	4.97	-30.1	0.93574	-0.031964	0.507276	-0.192	0.5355	-0.5235	0	168	292	3
2026-02-19	12:58:22.570	43.645	4.76	-29.575	0.88328	0.078568	0.46726	-0.192	0.5205	-0.5175	0	168	292	3
2026-02-19	12:58:22.590	35.175	2.765	-30.765	0.860588	0.02806	0.467504	-0.192	0.519	-0.522	0	168	292	3
2026-02-19	12:58:22.610	38.01	3.955	-30.485	0.84912	-0.02196	0.538752	-0.192	0.5175	-0.5265	0	169	295	3
2026-02-19	12:58:22.630	40.74	4.48	-30.275	0.827892	0.001708	0.522892	-0.1845	0.5055	-0.5235	0	169	295	3
2026-02-19	12:58:22.650	37.555	4.62	-29.75	0.78446	0.012932	0.490928	-0.195	0.4995	-0.522	0	169	295	3
2026-02-19	12:58:22.670	38.92	2.905	-28.77	0.783484	0.012444	0.524356	-0.183	0.4905	-0.5235	0	169	295	3
2026-02-19	12:58:22.690	52.22	6.265	-25.235	0.788364	-0.013176	0.588284	-0.1815	0.486	-0.5295	0	169	295	3
2026-02-19	12:58:22.710	70.14	13.3	-19.46	0.813008	0.012688	0.57706	-0.1815	0.4785	-0.5235	0	169	295	3
2026-02-19	12:58:22.730	73.115	20.755	-13.86	0.79422	0.065392	0.485316	-0.189	0.468	-0.525	0	169	295	3
2026-02-19	12:58:22.750	58.485	24.115	-12.32	0.790316	0.152988	0.409676	-0.177	0.4695	-0.525	0	169	295	3
2026-02-19	12:58:22.770	33.74	25.62	-14.14	0.804956	0.171288	0.371368	-0.177	0.45	-0.525	0	169	295	3
2026-02-19	12:58:22.790	9.135	26.39	-14.42	0.802516	0.139812	0.3965	-0.1725	0.4395	-0.5325	0	169	295	3
2026-02-19	12:58:22.810	-6.65	22.925	-12.6	0.822524	0.085156	0.41114	-0.1725	0.4395	-0.5325	0	169	324	3
2026-02-19	12:58:22.830	-18.235	19.845	-10.535	0.792268	0.093208	0.40016	-0.168	0.4365	-0.5325	0	169	324	3
2026-02-19	12:58:22.850	-26.11	15.19	-6.265	0.763476	0.057584	0.379908	-0.1665	0.4365	-0.537	0	169	324	3
2026-02-19	12:58:22.870	-26.775	9.625	0.385	0.731268	0.034892	0.375272	-0.162	0.4395	-0.54	0	169	324	3
2026-02-19	12:58:22.890	-17.885	3.535	6.265	0.747372	0.023668	0.382836	-0.159	0.4455	-0.5385	0	169	324	3
2026-02-19	12:58:22.910	-6.93	-2.31	9.17	0.774944	0.014884	0.385764	-0.1635	0.45	-0.54	0	169	324	3
2026-02-19	12:58:22.930	5.355	-6.755	11.725	0.84668	-0.016592	0.35624	-0.162	0.4485	-0.54	0	169	324	3
2026-02-19	12:58:22.950	21.98	-9.94	16.135	0.929884	-0.022204	0.355264	-0.1605	0.447	-0.5385	0	169	324	3
2026-02-19	12:58:22.970	36.715	-9.835	21.21	0.9516	0.062464	0.38796	-0.159	0.447	-0.5355	0	169	324	3
2026-02-19	12:58:22.990	41.44	-7.315	27.23	0.906948	0.120292	0.411628	-0.1605	0.447	-0.5385	0	169	324	3
2026-02-19	12:58:23.010	11.27	1.995	31.99	0.969656	-0.155184	0.285724	-0.2355	0.546	-0.483	0	158	432	3
2026-02-19	12:58:23.030	10.92	2.59	30.485	0.965996	-0.15372	0.2806	-0.2325	0.5475	-0.483	0	158	432	3
2026-02-19	12:58:23.050	8.26	3.64	28.315	0.937936	-0.15372	0.277428	-0.2325	0.552	-0.4815	0	158	432	3
2026-02-19	12:58:23.070	8.75	3.22	26.495	0.922564	-0.1586	0.293776	-0.237	0.5505	-0.4785	0	158	432	3
2026-02-19	12:58:23.090	20.09	2.52	22.155	0.975512	-0.160552	0.330376	-0.24	0.5475	-0.4785	0	158	432	3
2026-02-19	12:58:23.110	28.91	4.375	17.325	1.013088	-0.150304	0.329156	-0.2385	0.5565	-0.483	0	158	432	3
2026-02-19	12:58:23.130	35.735	8.085	12.74	1.028948	-0.132492	0.335012	-0.2325	0.5505	-0.48	0	158	432	3
2026-02-19	12:58:23.150	39.48	13.23	10.08	1.026264	-0.106384	0.328668	-0.2265	0.555	-0.486	0	158	432	3
2026-02-19	12:58:23.170	38.185	18.305	8.54	1.057252	-0.060512	0.300608	-0.237	0.558	-0.4815	0	158	432	3
2026-02-19	12:58:23.190	28.35	23.485	7.525	1.018456	-0.0244	0.272548	-0.228	0.546	-0.4875	0	158	432	3
2026-02-19	12:58:23.210	12.355	24.815	7.035	0.952576	0.026596	0.211548	-0.225	0.5475	-0.489	0	157	407	3
2026-02-19	12:58:23.230	-13.79	17.36	1.4	0.989176	0.086376	0.163968	-0.2265	0.5475	-0.4965	0	157	407	3
2026-02-19	12:58:23.250	-44.205	8.225	-8.365	0.99552	0.009272	0.18544	-0.2235	0.549	-0.492	0	157	407	3
2026-02-19	12:58:23.270	-37.765	-6.615	-12.285	1.052128	-0.159332	0.304024	-0.2235	0.549	-0.492	0	157	407	3
2026-02-19	12:58:23.290	-3.85	-13.16	-7.98	1.072624	-0.200812	0.427	-0.2265	0.558	-0.492	0	157	407	3
2026-02-19	12:58:23.310	36.225	-14.245	-3.57	1.114104	-0.154696	0.518256	-0.2325	0.5565	-0.4905	0	157	407	3
2026-02-19	12:58:23.330	69.265	-8.82	-0.91	1.069208	-0.133224	0.516304	-0.2325	0.5505	-0.4875	0	157	407	3
2026-02-19	12:58:23.350	93.065	-0.805	3.045	1.013088	-0.138104	0.448472	-0.2355	0.552	-0.4875	0	157	407	3
2026-02-19	12:58:23.370	111.335	5.425	8.68	1.005036	-0.116876	0.376492	-0.2385	0.543	-0.489	0	157	407	3
2026-02-19	12:58:23.390	117.495	11.41	12.985	0.978928	-0.056852	0.315004	-0.2385	0.537	-0.4935	0	157	407	3
2026-02-19	12:58:23.410	105.245	18.165	15.82	0.943548	0.027328	0.28304	-0.2385	0.537	-0.4935	0	155	383	3
2026-02-19	12:58:23.430	75.6	25.235	17.045	0.91134	0.103456	0.283528	-0.2265	0.5235	-0.501	0	155	383	3
2026-02-19	12:58:23.450	8.82	34.02	15.54	0.87596	0.118828	0.288164	-0.2265	0.5235	-0.501	0	155	383	3
2026-02-19	12:58:23.470	-30.94	36.82	14.56	0.822036	0.057096	0.27206	-0.225	0.5175	-0.5025	0	155	383	3
2026-02-19	12:58:23.490	-59.185	35.77	13.37	0.805444	0.029524	0.268888	-0.2205	0.5175	-0.51	0	155	383	3
2026-02-19	12:58:23.510	-74.725	32.27	10.115	0.829356	-0.003172	0.294264	-0.2175	0.5235	-0.5115	0	155	383	3
2026-02-19	12:58:23.530	-81.865	29.82	4.725	0.854732	-0.033916	0.315492	-0.2145	0.531	-0.5145	0	155	383	3
2026-02-19	12:58:23.550	-82.95	29.68	-0.84	0.871324	-0.07515199	0.330864	-0.213	0.5385	-0.5205	0	155	383	3
2026-02-19	12:58:23.570	-73.885	31.5	-4.9	0.887916	-0.130784	0.357704	-0.207	0.543	-0.5205	0	155	383	3
2026-02-19	12:58:23.590	-53.515	33.355	-7.49	0.892552	-0.144448	0.364048	-0.2025	0.549	-0.5265	0	155	383	3
2026-02-19	12:58:23.610	-27.055	32.55	-10.15	0.886696	-0.087108	0.35746	-0.198	0.5565	-0.5295	0	153	367	2
2026-02-19	12:58:23.630	-12.74	29.295	-12.775	0.863516	-0.061244	0.325252	-0.1905	0.561	-0.5265	0	153	367	2
2026-02-19	12:58:23.650	-5.74	24.045	-14.455	0.865712	-0.051728	0.323788	-0.1875	0.5595	-0.5295	0	153	367	2
2026-02-19	12:58:23.670	0.84	18.62	-15.96	0.87596	-0.043676	0.360632	-0.192	0.5685	-0.5325	0	153	367	2
2026-02-19	12:58:23.690	6.44	15.225	-17.71	0.88328	-0.041968	0.419436	-0.183	0.5625	-0.537	0	153	367	2
2026-02-19	12:58:23.710	9.38	14	-19.355	0.8784	-0.054168	0.443836	-0.1815	0.558	-0.54	0	153	367	2
2026-02-19	12:58:23.730	12.18	13.58	-21.035	0.848876	-0.044408	0.439688	-0.189	0.5565	-0.537	0	153	367	2
2026-02-19	12:58:23.750	12.74	12.25	-23.1	0.827404	-0.032452	0.441152	-0.1845	0.561	-0.543	0	153	367	2
2026-02-19	12:58:23.770	12.075	11.41	-25.27	0.827648	-0.031964	0.467748	-0.18	0.5505	-0.534	0	153	367	2
2026-02-19	12:58:23.790	8.12	12.565	-25.935	0.777628	-0.00488	0.481168	-0.1815	0.5505	-0.546	0	153	367	2
2026-02-19	12:58:23.810	-6.055	10.43	-27.93	0.752008	0.027328	0.4392	-0.177	0.5475	-0.546	0	150	363	2
2026-02-19	12:58:23.830	-23.555	6.895	-33.215	0.7625	0	0.421632	-0.177	0.546	-0.5475	0	150	363	2
2026-02-19	12:58:23.850	-34.265	3.465	-39.095	0.781776	-0.0488	0.434564	-0.174	0.546	-0.546	0	150	363	2
2026-02-19	12:58:23.870	-35.315	0.525	-43.96	0.812276	-0.069296	0.465308	-0.1695	0.5415	-0.546	0	150	363	2
2026-02-19	12:58:23.890	-33.46	-1.33	-48.545	0.838872	-0.074664	0.499712	-0.171	0.543	-0.549	0	150	363	2
2026-02-19	12:58:23.910	-31.99	-1.68	-52.5	0.838384	-0.087596	0.509228	-0.1725	0.5415	-0.549	0	150	363	2
2026-02-19	12:58:23.930	-32.025	-3.045	-55.02	0.844728	-0.092476	0.508008	-0.1725	0.5415	-0.5475	0	150	363	2
2026-02-19	12:58:23.950	-33.985	-4.55	-55.475	0.83814	-0.099308	0.509228	-0.1755	0.543	-0.5475	0	150	363	2
2026-02-19	12:58:23.970	-36.505	-6.545	-52.43	0.822036	-0.09882	0.514108	-0.1815	0.5385	-0.5415	0	150	363	2
2026-02-19	12:58:23.990	-40.425	-9.1	-47.775	0.802516	-0.100528	0.529724	-0.1845	0.537	-0.5385	0	150	363	2
2026-02-19	12:58:24.010	-43.47	-10.185	-42.98	0.794952	-0.126148	0.531676	-0.1875	0.5355	-0.5415	0	147	378	2
2026-02-19	12:58:24.030	-45.99	-11.655	-37.87	0.788608	-0.133224	0.507276	-0.189	0.537	-0.54	0	147	378	2
2026-02-19	12:58:24.050	-53.9	-13.335	-34.37	0.806664	-0.193248	0.515084	-0.192	0.5415	-0.537	0	147	378	2
2026-02-19	12:58:24.070	-47.635	-12.565	-32.515	0.807884	-0.226676	0.541192	-0.192	0.5415	-0.534	0	147	378	2
2026-02-19	12:58:24.090	-27.16	-12.635	-30.66	0.816424	-0.153476	0.572668	-0.189	0.543	-0.5265	0	147	378	2
2026-02-19	12:58:24.110	-11.9	-12.6	-29.68	0.835944	-0.114436	0.577304	-0.192	0.543	-0.528	0	147	378	2
2026-02-19	12:58:24.130	-3.185	-12.845	-28.175	0.860344	-0.095404	0.583404	-0.192	0.5385	-0.528	0	147	378	2
2026-02-19	12:58:24.150	-0.525	-11.34	-24.605	0.87596	-0.094428	0.597312	-0.1905	0.5355	-0.5235	0	147	378	2
2026-02-19	12:58:24.170	-1.96	-9.45	-18.585	0.888648	-0.06954	0.605608	-0.1905	0.5355	-0.5235	0	147	378	2
2026-02-19	12:58:24.190	-10.01	-9.45	-14.945	0.949648	-0.040504	0.597068	-0.201	0.5355	-0.522	0	147	378	2
2026-02-19	12:58:24.210	-21.385	-9.17	-14.175	1.023824	-0.033428	0.610488	-0.213	0.5325	-0.5265	0	145	410	3
2026-02-19	12:58:24.230	-32.725	-5.565	-13.3	1.0309	-0.046116	0.610732	-0.207	0.534	-0.525	0	145	410	3
2026-02-19	12:58:24.250	-45.5	-2.38	-9.87	1.005036	-0.04148	0.549	-0.222	0.537	-0.528	0	145	410	3
2026-02-19	12:58:24.270	-55.265	-1.015	-6.685	0.987712	-0.045872	0.499712	-0.2085	0.5415	-0.522	0	145	410	3
2026-02-19	12:58:24.290	-64.12	0.035	-3.675	0.935008	-0.077348	0.48678	-0.207	0.5445	-0.5205	0	145	410	3
2026-02-19	12:58:24.310	-73.64	-1.015	0.805	0.905484	-0.125416	0.484828	-0.21	0.555	-0.519	0	145	410	3
2026-02-19	12:58:24.330	-65.52	-4.165	7	0.854488	-0.141764	0.45994	-0.2115	0.558	-0.5235	0	145	410	3
2026-02-19	12:58:24.350	-48.125	-10.08	12.32	0.792268	-0.116144	0.428952	-0.207	0.5685	-0.5175	0	145	410	3
2026-02-19	12:58:24.370	-35.455	-17.01	12.985	0.801296	-0.11224	0.436516	-0.207	0.5835	-0.5055	0	145	410	3
2026-02-19	12:58:24.390	-24.885	-21.875	10.325	0.833748	-0.172752	0.463356	-0.2115	0.5865	-0.5025	0	145	410	3
2026-02-19	12:58:24.410	-11.41	-22.715	9.24	0.84912	-0.22692	0.506056	-0.216	0.591	-0.5025	0	142	445	3
2026-02-19	12:58:24.430	3.71	-20.37	10.29	0.81984	-0.213988	0.481168	-0.2205	0.5925	-0.501	0	142	445	3
2026-02-19	12:58:24.450	16.38	-19.145	10.745	0.830576	-0.172752	0.424316	-0.2265	0.5955	-0.498	0	142	445	3
2026-02-19	12:58:24.470	21.21	-18.55	10.115	0.86864	-0.163724	0.388448	-0.228	0.597	-0.4965	0	142	445	3
2026-02-19	12:58:24.490	21.77	-18.62	8.89	0.930372	-0.179096	0.373808	-0.228	0.591	-0.492	0	142	445	3
2026-02-19	12:58:24.510	19.005	-17.675	8.785	0.966728	-0.192272	0.336964	-0.231	0.5895	-0.4875	0	142	445	3
2026-02-19	12:58:24.530	15.19	-17.57	10.815	0.937204	-0.20618	0.320128	-0.231	0.5895	-0.4875	0	142	445	3
2026-02-19	12:58:24.550	12.845	-18.62	14.455	0.873764	-0.201788	0.292068	-0.2385	0.5865	-0.4875	0	142	445	3
2026-02-19	12:58:24.570	12.95	-22.19	19.215	0.825452	-0.184708	0.283528	-0.2385	0.5925	-0.483	0	142	445	3
2026-02-19	12:58:24.590	13.58	-28.315	22.925	0.798612	-0.175436	0.287188	-0.237	0.5895	-0.4845	0	142	445	3
2026-02-19	12:58:24.610	17.115	-35.91	23.66	0.80032	-0.17812	0.315248	-0.2385	0.591	-0.4845	0	140	458	3
2026-02-19	12:58:24.630	26.32	-42.63	21	0.852536	-0.199104	0.363804	-0.2415	0.594	-0.483	0	140	458	3
2026-02-19	12:58:24.650	36.61	-45.395	17.85	0.92232	-0.249856	0.404308	-0.2445	0.5895	-0.48	0	140	458	3
2026-02-19	12:58:24.670	47.285	-42.875	16.24	0.936716	-0.275232	0.398696	-0.2535	0.5895	-0.4755	0	140	458	3
2026-02-19	12:58:24.690	62.265	-35.84	14.07	0.959164	-0.2196	0.345016	-0.2625	0.5925	-0.474	0	140	458	3
2026-02-19	12:58:24.710	63.735	-29.435	12.46	0.996496	-0.173728	0.315492	-0.2625	0.5895	-0.477	0	140	458	3
2026-02-19	12:58:24.730	57.505	-22.575	11.83	0.99064	-0.143716	0.2745	-0.2655	0.579	-0.471	0	140	458	3
2026-02-19	12:58:24.750	47.95	-18.62	12.495	0.959652	-0.13542	0.233752	-0.2775	0.5775	-0.465	0	140	458	3
2026-02-19	12:58:24.770	44.135	-18.025	13.335	0.951356	-0.141276	0.249612	-0.2805	0.5655	-0.468	0	140	458	3
2026-02-19	12:58:24.790	44.065	-18.34	11.83	0.991372	-0.1403	0.29158	-0.279	0.5775	-0.465	0	140	458	3
2026-02-19	12:58:26.810	29.995	9.065	-3.955	0.91134	-0.032208	0.507032	-0.276	0.5445	-0.5055	0	156	309	3
2026-02-19	12:58:26.830	7.84	9.345	-2.415	0.879132	-0.036356	0.504592	-0.276	0.537	-0.501	0	156	309	3
2026-02-19	12:58:26.850	-12.635	8.715	0.315	0.845948	-0.030256	0.488976	-0.264	0.531	-0.507	0	156	309	3
2026-02-19	12:58:26.870	-28.63	6.23	2.345	0.854244	-0.032696	0.486048	-0.2715	0.528	-0.51	0	156	309	3
2026-02-19	12:58:26.890	-40.075	2.905	3.15	0.887672	-0.064172	0.4941	-0.2685	0.549	-0.513	0	156	309	3
2026-02-19	12:58:26.910	-46.795	1.225	4.27	0.872788	-0.09857599	0.49654	-0.27	0.5535	-0.507	0	156	309	3
2026-02-19	12:58:26.930	-48.16	-0.455	6.16	0.836676	-0.116876	0.454084	-0.2685	0.552	-0.51	0	156	309	3
2026-02-19	12:58:26.950	-48.615	-4.025	6.825	0.872788	-0.127124	0.430416	-0.2715	0.558	-0.507	0	156	309	3
2026-02-19	12:58:26.970	-45.395	-6.16	6.09	0.91256	-0.152744	0.4453	-0.2745	0.5685	-0.5055	0	156	309	3
2026-02-19	12:58:26.990	-43.54	-6.3	6.195	0.90768	-0.15616	0.431636	-0.27	0.573	-0.5055	0	156	309	3
2026-02-19	12:58:23.010	11.27	1.995	31.99	0.969656	-0.155184	0.285724	-0.2355	0.546	-0.483	0	158	432	3
2026-02-19	12:58:23.030	10.92	2.59	30.485	0.965996	-0.15372	0.2806	-0.2325	0.5475	-0.483	0	158	432	3
2026-02-19	12:58:23.050	8.26	3.64	28.315	0.937936	-0.15372	0.277428	-0.2325	0.552	-0.4815	0	158	432	3
2026-02-19	12:58:23.070	8.75	3.22	26.495	0.922564	-0.1586	0.293776	-0.237	0.5505	-0.4785	0	158	432	3
2026-02-19	12:58:23.090	20.09	2.52	22.155	0.975512	-0.160552	0.330376	-0.24	0.5475	-0.4785	0	158	432	3
2026-02-19	12:58:23.110	28.91	4.375	17.325	1.013088	-0.150304	0.329156	-0.2385	0.5565	-0.483	0	158	432	3
2026-02-19	12:58:23.130	35.735	8.085	12.74	1.028948	-0.132492	0.335012	-0.2325	0.5505	-0.48	0	158	432	3
2026-02-19	12:58:23.150	39.48	13.23	10.08	1.026264	-0.106384	0.328668	-0.2265	0.555	-0.486	0	158	432	3
2026-02-19	12:58:23.170	38.185	18.305	8.54	1.057252	-0.060512	0.300608	-0.237	0.558	-0.4815	0	158	432	3
2026-02-19	12:58:23.190	28.35	23.485	7.525	1.018456	-0.0244	0.272548	-0.228	0.546	-0.4875	0	158	432	3
2026-02-19	12:58:23.210	12.355	24.815	7.035	0.952576	0.026596	0.211548	-0.225	0.5475	-0.489	0	157	407	3
2026-02-19	12:58:23.230	-13.79	17.36	1.4	0.989176	0.086376	0.163968	-0.2265	0.5475	-0.4965	0	157	407	3
2026-02-19	12:58:23.250	-44.205	8.225	-8.365	0.99552	0.009272	0.18544	-0.2235	0.549	-0.492	0	157	407	3
2026-02-19	12:58:23.270	-37.765	-6.615	-12.285	1.052128	-0.159332	0.304024	-0.2235	0.549	-0.492	0	157	407	3
2026-02-19	12:58:23.290	-3.85	-13.16	-7.98	1.072624	-0.200812	0.427	-0.2265	0.558	-0.492	0	157	407	3
2026-02-19	12:58:23.310	36.225	-14.245	-3.57	1.114104	-0.154696	0.518256	-0.2325	0.5565	-0.4905	0	157	407	3
2026-02-19	12:58:23.330	69.265	-8.82	-0.91	1.069208	-0.133224	0.516304	-0.2325	0.5505	-0.4875	0	157	407	3
2026-02-19	12:58:23.350	93.065	-0.805	3.045	1.013088	-0.138104	0.448472	-0.2355	0.552	-0.4875	0	157	407	3
2026-02-19	12:58:23.370	111.335	5.425	8.68	1.005036	-0.116876	0.376492	-0.2385	0.543	-0.489	0	157	407	3
2026-02-19	12:58:23.390	117.495	11.41	12.985	0.978928	-0.056852	0.315004	-0.2385	0.537	-0.4935	0	157	407	3
2026-02-19	12:58:23.410	105.245	18.165	15.82	0.943548	0.027328	0.28304	-0.2385	0.537	-0.4935	0	155	383	3
2026-02-19	12:58:23.430	75.6	25.235	17.045	0.91134	0.103456	0.283528	-0.2265	0.5235	-0.501	0	155	383	3
2026-02-19	12:58:23.450	8.82	34.02	15.54	0.87596	0.118828	0.288164	-0.2265	0.5235	-0.501	0	155	383	3
2026-02-19	12:58:23.470	-30.94	36.82	14.56	0.822036	0.057096	0.27206	-0.225	0.5175	-0.5025	0	155	383	3
2026-02-19	12:58:23.490	-59.185	35.77	13.37	0.805444	0.029524	0.268888	-0.2205	0.5175	-0.51	0	155	383	3
2026-02-19	12:58:23.510	-74.725	32.27	10.115	0.829356	-0.003172	0.294264	-0.2175	0.5235	-0.5115	0	155	383	3
2026-02-19	12:58:23.530	-81.865	29.82	4.725	0.854732	-0.033916	0.315492	-0.2145	0.531	-0.5145	0	155	383	3
2026-02-19	12:58:23.550	-82.95	29.68	-0.84	0.871324	-0.07515199	0.330864	-0.213	0.5385	-0.5205	0	155	383	3
2026-02-19	12:58:23.570	-73.885	31.5	-4.9	0.887916	-0.130784	0.357704	-0.207	0.543	-0.5205	0	155	383	3
2026-02-19	12:58:23.590	-53.515	33.355	-7.49	0.892552	-0.144448	0.364048	-0.2025	0.549	-0.5265	0	155	383	3
2026-02-19	12:58:23.610	-27.055	32.55	-10.15	0.886696	-0.087108	0.35746	-0.198	0.5565	-0.5295	0	153	367	2
2026-02-19	12:58:23.630	-12.74	29.295	-12.775	0.863516	-0.061244	0.325252	-0.1905	0.561	-0.5265	0	153	367	2
2026-02-19	12:58:23.650	-5.74	24.045	-14.455	0.865712	-0.051728	0.323788	-0.1875	0.5595	-0.5295	0	153	367	2
2026-02-19	12:58:23.670	0.84	18.62	-15.96	0.87596	-0.043676	0.360632	-0.192	0.5685	-0.5325	0	153	367	2
2026-02-19	12:58:23.690	6.44	15.225	-17.71	0.88328	-0.041968	0.419436	-0.183	0.5625	-0.537	0	153	367	2
2026-02-19	12:58:23.710	9.38	14	-19.355	0.8784	-0.054168	0.443836	-0.1815	0.558	-0.54	0	153	367	2
2026-02-19	12:58:23.730	12.18	13.58	-21.035	0.848876	-0.044408	0.439688	-0.189	0.5565	-0.537	0	153	367	2
2026-02-19	12:58:23.750	12.74	12.25	-23.1	0.827404	-0.032452	0.441152	-0.1845	0.561	-0.543	0	153	367	2
2026-02-19	12:58:23.770	12.075	11.41	-25.27	0.827648	-0.031964	0.467748	-0.18	0.5505	-0.534	0	153	367	2
2026-02-19	12:58:23.790	8.12	12.565	-25.935	0.777628	-0.00488	0.481168	-0.1815	0.5505	-0.546	0	153	367	2
2026-02-19	12:58:23.810	-6.055	10.43	-27.93	0.752008	0.027328	0.4392	-0.177	0.5475	-0.546	0	150	363	2
2026-02-19	12:58:23.830	-23.555	6.895	-33.215	0.7625	0	0.421632	-0.177	0.546	-0.5475	0	150	363	2
2026-02-19	12:58:23.850	-34.265	3.465	-39.095	0.781776	-0.0488	0.434564	-0.174	0.546	-0.546	0	150	363	2
2026-02-19	12:58:23.870	-35.315	0.525	-43.96	0.812276	-0.069296	0.465308	-0.1695	0.5415	-0.546	0	150	363	2
2026-02-19	12:58:23.890	-33.46	-1.33	-48.545	0.838872	-0.074664	0.499712	-0.171	0.543	-0.549	0	150	363	2
2026-02-19	12:58:23.910	-31.99	-1.68	-52.5	0.838384	-0.087596	0.509228	-0.1725	0.5415	-0.549	0	150	363	2
2026-02-19	12:58:23.930	-32.025	-3.045	-55.02	0.844728	-0.092476	0.508008	-0.1725	0.5415	-0.5475	0	150	363	2
2026-02-19	12:58:23.950	-33.985	-4.55	-55.475	0.83814	-0.099308	0.509228	-0.1755	0.543	-0.5475	0	150	363	2
2026-02-19	12:58:23.970	-36.505	-6.545	-52.43	0.822036	-0.09882	0.514108	-0.1815	0.5385	-0.5415	0	150	363	2
2026-02-19	12:58:23.990	-40.425	-9.1	-47.775	0.802516	-0.100528	0.529724	-0.1845	0.537	-0.5385	0	150	363	2
2026-02-19	12:58:26.010	-62.86	-30.73	-18.9	1.002108	-0.09076799	0.123464	-0.3075	0.555	-0.4455	0	138	409	3
2026-02-19	12:58:26.030	-41.545	-35.385	-11.48	1.126304	-0.131516	0.19764	-0.3105	0.5565	-0.4395	0	138	409	3
2026-02-19	12:58:26.050	-6.895	-29.4	6.02	1.310036	-0.102968	0.228384	-0.3105	0.558	-0.4395	0	138	409	3
2026-02-19	12:58:26.070	-2.1	-17.325	21.14	1.269044	-0.010004	0.139324	-0.3195	0.5655	-0.435	0	138	409	3
2026-02-19	12:58:26.090	-5.285	-9.135	32.865	1.247572	0.110044	0.124196	-0.3135	0.567	-0.4335	0	138	409	3
2026-02-19	12:58:26.110	17.465	2.03	39.795	1.195844	0.155428	0.184952	-0.318	0.582	-0.4305	0	138	409	3
2026-02-19	12:58:26.130	28.91	16.905	41.79	1.080676	0.197884	0.216672	-0.3165	0.582	-0.4275	0	138	409	3
2026-02-19	12:58:26.150	27.265	29.505	41.51	1.010648	0.247416	0.206424	-0.3165	0.582	-0.4395	0	138	409	3
2026-02-19	12:58:26.170	9.17	36.365	38.08	0.969412	0.297436	0.185196	-0.3045	0.5895	-0.4455	0	138	409	3
2026-02-19	12:58:26.190	-17.5	38.99	31.01	0.930372	0.274012	0.187636	-0.3045	0.5895	-0.4425	0	138	409	3
2026-02-19	12:58:26.210	-28.035	37.835	22.96	0.900116	0.177388	0.226676	-0.3045	0.597	-0.4455	0	142	360	3
2026-02-19	12:58:26.230	-25.69	32.69	12.635	0.88572	0.073688	0.284504	-0.303	0.603	-0.4515	0	142	360	3
2026-02-19	12:58:26.250	-17.185	30.31	6.3	0.865468	0.021472	0.292556	-0.294	0.6135	-0.462	0	142	360	3
2026-02-19	12:58:26.270	-7.14	28.14	0.21	0.854732	0.012688	0.301828	-0.2865	0.6075	-0.4545	0	142	360	3
2026-02-19	12:58:26.290	4.41	27.895	-5.32	0.83326	0.020252	0.295484	-0.288	0.6135	-0.459	0	142	360	3
2026-02-19	12:58:26.310	10.08	28.21	-10.185	0.827404	0.030988	0.263276	-0.282	0.6105	-0.465	0	142	360	3
2026-02-19	12:58:26.330	3.605	28.385	-14.665	0.837652	0.052704	0.2196	-0.279	0.6105	-0.4755	0	142	360	3
2026-02-19	12:58:26.350	-8.505	29.05	-19.32	0.844484	0.001708	0.188368	-0.2835	0.603	-0.4725	0	142	360	3
2026-02-19	12:58:26.370	-13.72	29.33	-22.995	0.865468	-0.00488	0.181048	-0.285	0.6045	-0.48	0	142	360	3
2026-02-19	12:58:26.390	-19.915	28.84	-26.985	0.884744	0.002928	0.202032	-0.276	0.609	-0.4815	0	142	360	3
2026-02-19	12:58:26.410	-25.165	27.615	-30.205	0.890356	-0.037576	0.212768	-0.276	0.609	-0.4815	0	147	320	3
2026-02-19	12:58:26.430	-25.41	24.675	-31.675	0.889624	-0.060024	0.223748	-0.2745	0.609	-0.486	0	147	320	3
2026-02-19	12:58:26.450	-23.17	20.755	-32.165	0.884988	-0.07905599	0.246928	-0.2685	0.6075	-0.489	0	147	320	3
2026-02-19	12:58:26.470	-14.665	16.1	-31.745	0.903288	-0.082472	0.2928	-0.2655	0.603	-0.4875	0	147	320	3
2026-02-19	12:58:26.490	-3.57	11.9	-31.08	0.910364	-0.066368	0.323056	-0.2685	0.6	-0.4845	0	147	320	3
2026-02-19	12:58:26.510	2.835	7.665	-29.68	0.909876	-0.094184	0.335012	-0.2685	0.594	-0.489	0	147	320	3
2026-02-19	12:58:26.530	11.83	3.605	-26.215	0.91134	-0.121024	0.343064	-0.2625	0.5955	-0.495	0	147	320	3
2026-02-19	12:58:26.550	16.555	1.085	-21.315	0.896456	-0.1098	0.368928	-0.2685	0.5925	-0.495	0	147	320	3
2026-02-19	12:58:26.570	12.565	-0.14	-17.78	0.876936	-0.043188	0.385764	-0.273	0.582	-0.4935	0	147	320	3
2026-02-19	12:58:26.590	4.165	1.05	-18.69	0.838628	0.013908	0.410652	-0.2715	0.5805	-0.492	0	147	320	3
2026-02-19	12:58:26.610	-1.75	2.625	-21.945	0.822524	0.026596	0.426268	-0.2715	0.5775	-0.4935	0	153	299	3
2026-02-19	12:58:26.630	-10.78	2.94	-23.94	0.823744	-0.013908	0.410896	-0.2715	0.579	-0.4965	0	153	299	3
2026-02-19	12:58:26.650	-17.15	3.255	-24.465	0.81252	-0.043188	0.3904	-0.2655	0.5715	-0.492	0	153	299	3
2026-02-19	12:58:26.670	-15.47	2.73	-24.325	0.813496	-0.074664	0.412604	-0.2715	0.567	-0.504	0	153	299	3
2026-02-19	12:58:26.690	-5.95	2.275	-22.645	0.842044	-0.099308	0.440664	-0.273	0.5775	-0.4995	0	153	299	3
2026-02-19	12:58:26.710	6.055	1.855	-19.74	0.888648	-0.109068	0.442128	-0.276	0.567	-0.504	0	153	299	3
2026-02-19	12:58:26.730	20.055	1.995	-16.24	0.928176	-0.13054	0.445788	-0.2685	0.5625	-0.4995	0	153	299	3
2026-02-19	12:58:26.750	39.165	3.5	-12.075	0.933788	-0.145668	0.482876	-0.2775	0.5535	-0.498	0	153	299	3
2026-02-19	12:58:26.770	54.6	6.51	-7.49	0.921344	-0.101016	0.518988	-0.2775	0.5535	-0.498	0	153	299	3
2026-02-19	12:58:26.790	49.175	8.4	-4.935	0.911096	-0.044652	0.515572	-0.276	0.552	-0.504	0	153	299	3
2026-02-19	12:58:26.810	29.995	9.065	-3.955	0.91134	-0.032208	0.507032	-0.276	0.5445	-0.5055	0	156	309	3
2026-02-19	12:58:26.830	7.84	9.345	-2.415	0.879132	-0.036356	0.504592	-0.276	0.537	-0.501	0	156	309	3
2026-02-19	12:58:26.850	-12.635	8.715	0.315	0.845948	-0.030256	0.488976	-0.264	0.531	-0.507	0	156	309	3
2026-02-19	12:58:26.870	-28.63	6.23	2.345	0.854244	-0.032696	0.486048	-0.2715	0.528	-0.51	0	156	309	3
2026-02-19	12:58:26.890	-40.075	2.905	3.15	0.887672	-0.064172	0.4941	-0.2685	0.549	-0.513	0	156	309	3
2026-02-19	12:58:26.910	-46.795	1.225	4.27	0.872788	-0.09857599	0.49654	-0.27	0.5535	-0.507	0	156	309	3
2026-02-19	12:58:26.930	-48.16	-0.455	6.16	0.836676	-0.116876	0.454084	-0.2685	0.552	-0.51	0	156	309	3
2026-02-19	12:58:26.950	-48.615	-4.025	6.825	0.872788	-0.127124	0.430416	-0.2715	0.558	-0.507	0	156	309	3
2026-02-19	12:58:26.970	-45.395	-6.16	6.09	0.91256	-0.152744	0.4453	-0.2745	0.5685	-0.5055	0	156	309	3
2026-02-19	12:58:26.990	-43.54	-6.3	6.195	0.90768	-0.15616	0.431636	-0.27	0.573	-0.5055	0	156	309	3
2026-02-19	12:58:27.010	-42.7	-7.63	7.07	0.935984	-0.147376	0.392352	-0.2745	0.5805	-0.498	0	157	341	3
2026-02-19	12:58:27.030	-42.7	-8.085	9.87	0.930616	-0.129808	0.382348	-0.2805	0.5895	-0.495	0	157	341	3
2026-02-19	12:58:27.050	-41.72	-8.82	13.895	0.91012	-0.12688	0.373564	-0.276	0.594	-0.495	0	157	341	3
2026-02-19	12:58:27.070	-38.465	-12.005	16.87	0.8967	-0.135664	0.3721	-0.2745	0.5985	-0.492	0	157	341	3
2026-02-19	12:58:27.090	-31.22	-17.64	18.025	0.925492	-0.16348	0.387472	-0.2745	0.6045	-0.4905	0	157	341	3
2026-02-19	12:58:27.110	-13.265	-22.61	17.465	0.985028	-0.172508	0.399428	-0.276	0.606	-0.4905	0	157	341	3
2026-02-19	12:58:27.130	7.98	-23.1	14.875	1.035536	-0.164456	0.399916	-0.276	0.606	-0.4905	0	157	341	3
2026-02-19	12:58:27.150	21.77	-19.81	11.935	1.017968	-0.152744	0.379908	-0.2835	0.6225	-0.4815	0	157	341	3
2026-02-19	12:58:27.170	28.42	-17.78	10.605	0.98942	-0.1464	0.349408	-0.2955	0.615	-0.48	0	157	341	3
2026-02-19	12:58:27.190	28.455	-16.135	11.025	0.928176	-0.129076	0.325984	-0.285	0.618	-0.486	0	157	341	3
2026-02-19	12:58:27.210	26.775	-16.31	13.09	0.86254	-0.124928	0.302072	-0.285	0.612	-0.4755	0	156	368	3
2026-02-19	12:58:27.230	28.595	-19.04	15.89	0.816912	-0.13542	0.29646	-0.285	0.621	-0.48	0	156	368	3
2026-02-19	12:58:27.250	33.775	-23.38	17.395	0.823012	-0.137372	0.294996	-0.2895	0.621	-0.477	0	156	368	3
2026-02-19	12:58:27.270	42.035	-26.635	15.4	0.917684	-0.1464	0.321836	-0.2925	0.6165	-0.4785	0	156	368	3
2026-02-19	12:58:27.290	49.21	-21.21	11.41	0.898652	-0.14884	0.299876	-0.3	0.6135	-0.4815	0	156	368	3
2026-02-19	12:58:27.310	55.685	-19.565	7.525	0.961604	-0.153964	0.301584	-0.2985	0.609	-0.48	0	156	368	3
2026-02-19	12:58:27.330	60.48	-16.275	3.815	1.020164	-0.142984	0.324764	-0.2955	0.606	-0.477	0	156	368	3
2026-02-19	12:58:27.350	58.765	-9.485	2.24	1.010892	-0.1403	0.318664	-0.294	0.6075	-0.477	0	156	368	3
2026-02-19	12:58:27.370	54.25	-3.885	3.29	0.99186	-0.13176	0.300852	-0.306	0.6015	-0.4815	0	156	368	3
2026-02-19	12:58:27.390	51.275	-0.945	6.09	1.008452	-0.117608	0.293288	-0.3015	0.594	-0.483	0	156	368	3
2026-02-19	12:58:27.410	43.12	0.385	6.265	1.016992	0.067832	0.2623	-0.3015	0.5895	-0.4905	0	152	375	3
2026-02-19	12:58:27.430	7.49	0.735	-4.865	0.994544	0.21594	0.1952	-0.2955	0.5895	-0.4815	0	152	375	3
2026-02-19	12:58:27.450	-36.365	-3.325	-16.835	1.04188	0.127856	0.197396	-0.3045	0.591	-0.486	0	152	375	3
2026-02-19	12:58:27.470	-57.925	-2.8	-25.165	1.104588	-0.04392	0.359168	-0.288	0.585	-0.4755	0	152	375	3
2026-02-19	12:58:27.490	-48.3	5.425	-24.71	1.006988	-0.09857599	0.375028	-0.297	0.5865	-0.48	0	152	375	3
2026-02-19	12:58:27.510	-28.77	8.05	-23.205	1.003572	-0.046604	0.30866	-0.306	0.5925	-0.4845	0	152	375	3
2026-02-19	12:58:27.530	-8.89	8.505	-23.8	1.064816	-0.039284	0.266204	-0.306	0.5985	-0.483	0	152	375	3
2026-02-19	12:58:27.550	9.275	11.585	-23.415	1.004548	-0.018544	0.220576	-0.303	0.5955	-0.48	0	152	375	3
2026-02-19	12:58:27.570	29.61	7.84	-23.275	1.042856	-0.021472	0.196664	-0.3075	0.5895	-0.4845	0	152	375	3
2026-02-19	12:58:27.590	47.425	3.815	-24.43	1.072136	-0.019276	0.24156	-0.309	0.5835	-0.4935	0	152	375	3
2026-02-19	12:58:27.610	57.575	0.28	-24.15	1.038464	-0.005612	0.278648	-0.306	0.576	-0.4965	0	149	363	3
2026-02-19	12:58:27.630	62.055	-9.625	-21.14	1.036512	0.005612	0.305	-0.3045	0.57	-0.4965	0	149	363	3
2026-02-19	12:58:27.650	94.57	-21.035	-13.405	0.982588	-0.042212	0.482388	-0.306	0.567	-0.498	0	149	363	3
2026-02-19	12:58:27.670	131.075	-20.86	-4.97	0.949892	-0.001708	0.575596	-0.309	0.54	-0.501	0	149	363	3
2026-02-19	12:58:27.690	145.495	-14.805	4.06	0.920124	0.139324	0.493856	-0.3105	0.525	-0.4965	0	149	363	3
2026-02-19	12:58:27.710	116.76	-4.025	9.765	0.8601	0.273036	0.342088	-0.3075	0.513	-0.498	0	149	363	3
2026-02-19	12:58:27.730	56.91	6.685	8.82	0.818864	0.334768	0.211548	-0.3195	0.4965	-0.4995	0	149	363	3
2026-02-19	12:58:27.750	-3.29	15.435	3.395	0.820572	0.305976	0.132004	-0.312	0.495	-0.4965	0	149	363	3
2026-02-19	12:58:27.770	-46.55	22.05	-0.525	0.859856	0.23912	0.091988	-0.3105	0.5055	-0.4995	0	149	363	3
2026-02-19	12:58:27.790	-73.29	27.405	0.28	0.912316	0.216672	0.085156	-0.3	0.5025	-0.51	0	149	363	3
2026-02-19	12:58:27.810	-99.12	30.52	2.17	0.928908	0.213988	0.098332	-0.3015	0.51	-0.5145	0	147	346	3
2026-02-19	12:58:27.830	-117.705	30.03	9.94	0.982588	0.028548	0.147376	-0.3015	0.51	-0.5145	0	147	346	3
2026-02-19	12:58:27.850	-102.34	28.14	18.515	1.003572	-0.031964	0.1891	-0.2955	0.525	-0.513	0	147	346	3
2026-02-19	12:58:27.870	-80.885	24.71	26.39	0.996252	-0.014396	0.227408	-0.2865	0.5445	-0.513	0	147	346	3
2026-02-19	12:58:27.890	-56.91	21.98	32.655	0.961848	-0.025376	0.267668	-0.2835	0.558	-0.5175	0	147	346	3
2026-02-19	12:58:27.910	-33.425	20.58	37.905	0.924028	0.016104	0.296948	-0.285	0.5745	-0.519	0	147	346	3
2026-02-19	12:58:27.930	-18.445	19.705	38.955	0.920368	0.07686	0.311588	-0.2805	0.585	-0.519	0	147	346	3
2026-02-19	12:58:27.950	-9.905	19.74	37.625	0.915244	0.085644	0.271816	-0.2745	0.588	-0.519	0	147	346	3
2026-02-19	12:58:27.970	-13.685	19.145	34.23	0.892308	0.113216	0.2196	-0.2775	0.5895	-0.528	0	147	346	3
2026-02-19	12:58:27.990	-19.285	17.955	29.365	0.8723	0.09467199	0.194468	-0.27	0.594	-0.5265	0	147	346	3
2026-02-19	12:58:28.010	-16.66	16.835	20.3	0.86986	0.012688	0.241316	-0.2685	0.6	-0.5235	0	147	324	2
2026-02-19	12:58:28.030	-4.375	15.785	14.98	0.882792	0.030012	0.294264	-0.2685	0.609	-0.5235	0	147	324	2
2026-02-19	12:58:28.050	2.59	15.435	9.415	0.848632	0.048068	0.315248	-0.2595	0.612	-0.5295	0	147	324	2
2026-02-19	12:58:28.070	-0.035	11.515	4.13	0.829112	0.008296	0.321592	-0.252	0.6105	-0.534	0	147	324	2
2026-02-19	12:58:28.090	1.89	7.945	0.21	0.837408	-0.07808	0.364536	-0.252	0.612	-0.5355	0	147	324	2
2026-02-19	12:58:28.110	15.715	8.085	-3.36	0.850096	-0.084912	0.42456	-0.2535	0.6165	-0.5355	0	147	324	2
2026-02-19	12:58:28.130	27.37	8.295	-6.02	0.858636	-0.041236	0.456036	-0.2565	0.6135	-0.5355	0	147	324	2
2026-02-19	12:58:28.150	26.215	8.575	-7.665	0.83814	-0.001708	0.458476	-0.2505	0.6105	-0.537	0	147	324	2
2026-02-19	12:58:28.170	15.89	6.685	-8.925	0.834724	-0.013664	0.461648	-0.2475	0.609	-0.543	0	147	324	2
2026-02-19	12:58:28.190	6.37	5.075	-9.66	0.859612	-0.051728	0.486048	-0.2475	0.6075	-0.5415	0	147	324	2
2026-02-19	12:58:28.210	-0.595	5.46	-9.555	0.882548	-0.064904	0.501908	-0.2445	0.6015	-0.5385	0	148	314	2
2026-02-19	12:58:28.230	-6.195	7.595	-8.715	0.897432	-0.0793	0.524356	-0.243	0.597	-0.5385	0	148	314	2
2026-02-19	12:58:28.250	-8.61	11.06	-7.595	0.886452	-0.075396	0.5246	-0.2475	0.597	-0.5535	0	148	314	2
2026-02-19	12:58:28.270	-12.075	14.14	-6.23	0.88084	-0.061488	0.522648	-0.2505	0.5925	-0.549	0	148	314	2
2026-02-19	12:58:28.290	-18.095	16.66	-6.16	0.882304	-0.069052	0.517036	-0.2475	0.6015	-0.552	0	148	314	2
2026-02-19	12:58:28.310	-28.105	18.165	-6.72	0.8906	-0.087352	0.505324	-0.246	0.6015	-0.549	0	148	314	2
2026-02-19	12:58:28.330	-41.335	19.075	-6.475	0.887916	-0.093696	0.479216	-0.2445	0.606	-0.549	0	148	314	2
2026-02-19	12:58:28.350	-55.58	17.815	-5.705	0.881084	-0.08174	0.457012	-0.2385	0.6105	-0.549	0	148	314	2
2026-02-19	12:58:28.370	-66.955	14.945	-6.51	0.895236	-0.095404	0.472384	-0.2355	0.612	-0.546	0	148	314	2
2026-02-19	12:58:28.390	-73.64	12.425	-8.295	0.908168	-0.139568	0.496784	-0.237	0.621	-0.549	0	148	314	2
2026-02-19	12:58:28.410	-74.305	9.66	-9.31	0.920124	-0.164456	0.515084	-0.2385	0.63	-0.543	0	149	334	3
2026-02-19	12:58:28.430	-68.32	5.95	-10.115	0.919148	-0.166164	0.515816	-0.2325	0.6405	-0.543	0	149	334	3
2026-02-19	12:58:28.450	-58.835	2.135	-12.04	0.91378	-0.173484	0.527284	-0.2325	0.6405	-0.543	0	149	334	3
2026-02-19	12:58:28.470	-52.255	-1.225	-15.68	0.923784	-0.164212	0.528504	-0.2415	0.645	-0.5415	0	149	334	3
2026-02-19	12:58:28.490	-49.7	-5.67	-21.385	0.963556	-0.153232	0.515084	-0.243	0.6525	-0.5385	0	149	334	3
2026-02-19	12:58:28.510	-48.02	-10.045	-29.33	1.014064	-0.165432	0.508008	-0.2355	0.66	-0.531	0	149	334	3
2026-02-19	12:58:28.530	-44.59	-13.16	-37.065	1.04432	-0.197884	0.50996	-0.2355	0.6645	-0.5265	0	149	334	3
2026-02-19	12:58:28.550	-42.875	-13.825	-41.16	0.987468	-0.190076	0.471164	-0.2445	0.666	-0.5295	0	149	334	3
2026-02-19	12:58:28.570	-42.245	-15.19	-42.91	0.925492	-0.189832	0.428952	-0.2505	0.672	-0.5235	0	149	334	3
2026-02-19	12:58:28.590	-39.55	-16.485	-42.14	0.8723	-0.193736	0.419192	-0.2565	0.6645	-0.5205	0	149	334	3
2026-02-19	12:58:28.610	-33.04	-17.185	-38.29	0.81496	-0.176168	0.424072	-0.264	0.6615	-0.5235	0	150	370	3
2026-02-19	12:58:28.630	-28.945	-18.725	-31.955	0.743224	-0.15494	0.381372	-0.27	0.6705	-0.504	0	150	370	3
2026-02-19	12:58:28.650	-25.48	-24.71	-26.32	0.734684	-0.172508	0.350872	-0.2685	0.654	-0.5085	0	150	370	3
2026-02-19	12:58:28.670	-15.575	-31.325	-24.045	0.746396	-0.221796	0.371368	-0.2685	0.654	-0.5085	0	150	370	3
2026-02-19	12:58:28.690	-0.07	-34.65	-23.03	0.759328	-0.238144	0.387716	-0.276	0.6555	-0.501	0	150	370	3
2026-02-19	12:58:28.710	18.9	-36.155	-23.065	0.819352	-0.21472	0.390644	-0.282	0.6585	-0.4935	0	150	370	3
2026-02-19	12:58:28.730	35.315	-34.335	-24.255	0.891576	-0.217404	0.37698	-0.288	0.657	-0.4905	0	150	370	3
2026-02-19	12:58:28.750	44.38	-32.34	-25.025	0.957944	-0.209108	0.349164	-0.297	0.648	-0.4875	0	150	370	3
2026-02-19	12:58:28.770	43.82	-30.94	-25.655	1.01504	-0.186904	0.306464	-0.297	0.639	-0.4845	0	150	370	3
2026-02-19	12:58:28.790	37.87	-31.08	-24.395	1.044564	-0.2074	0.276208	-0.3015	0.6315	-0.4845	0	150	370	3
2026-02-19	12:58:28.810	30.17	-33.04	-18.06	0.991616	-0.187392	0.264496	-0.3135	0.6225	-0.486	0	151	395	3
2026-02-19	12:58:28.830	23.38	-38.255	-9.625	0.927444	-0.155672	0.296948	-0.3195	0.6195	-0.486	0	151	395	3
2026-02-19	12:58:28.850	20.93	-43.68	-2.52	0.961604	-0.159332	0.373808	-0.327	0.6135	-0.4845	0	151	395	3
2026-02-19	12:58:28.870	31.64	-44.24	5.46	0.975268	-0.211548	0.404308	-0.33	0.609	-0.4755	0	151	395	3
2026-02-19	12:58:28.890	59.185	-40.635	15.33	0.955992	-0.19276	0.386984	-0.327	0.612	-0.4695	0	151	395	3
2026-02-19	12:58:28.910	83.37	-34.72	22.155	0.9455	-0.1525	0.370148	-0.3375	0.6015	-0.462	0	151	395	3
2026-02-19	12:58:28.930	96.53	-25.48	26.005	0.922076	-0.126148	0.354532	-0.345	0.603	-0.468	0	151	395	3
2026-02-19	12:58:28.950	100.59	-14.945	27.335	0.918172	-0.09857599	0.3172	-0.3495	0.594	-0.468	0	151	395	3
2026-02-19	12:58:28.970	89.88	-4.9	26.53	0.91378	-0.072468	0.242536	-0.345	0.588	-0.474	0	151	395	3
2026-02-19	12:58:28.990	68.74	3.045	24.815	0.885232	-0.087596	0.174216	-0.3465	0.5745	-0.474	0	151	395	3
2026-02-19	12:58:29.010	-44.38	6.685	-26.775	0.864736	-0.098332	0.424316	-0.276	0.5175	-0.5895	0	143	321	2
2026-02-19	12:58:29.030	-47.915	5.25	-24.29	0.85278	-0.116388	0.437736	-0.264	0.5295	-0.591	0	143	321	2
2026-02-19	12:58:29.050	-48.965	4.095	-21.035	0.849364	-0.1098	0.46116	-0.267	0.537	-0.591	0	143	321	2
2026-02-19	12:58:29.070	-51.1	3.15	-19.145	0.86254	-0.099552	0.47824	-0.273	0.537	-0.588	0	143	321	2
2026-02-19	12:58:29.090	-56.21	2.94	-18.795	0.84546	-0.091744	0.471408	-0.2655	0.543	-0.591	0	143	321	2
2026-02-19	12:58:29.110	-61.32	1.645	-19.11	0.853756	-0.10614	0.453108	-0.279	0.5565	-0.588	0	143	321	2
2026-02-19	12:58:29.130	-62.37	-0.455	-18.27	0.846436	-0.117608	0.450912	-0.2745	0.5595	-0.585	0	143	321	2
2026-02-19	12:58:29.150	-60.165	-3.57	-15.96	0.833504	-0.123952	0.484828	-0.276	0.564	-0.591	0	143	321	2
2026-02-19	12:58:29.170	-55.685	-7.28	-14.14	0.829356	-0.1342	0.518744	-0.2805	0.567	-0.588	0	143	321	2
2026-02-19	12:58:29.190	-50.505	-10.605	-12.88	0.822768	-0.137372	0.532896	-0.2805	0.5715	-0.5805	0	143	321	2
2026-02-19	12:58:29.210	-44.065	-14.105	-11.97	0.813252	-0.126636	0.529236	-0.279	0.5775	-0.576	0	139	355	2
2026-02-19	12:58:29.230	-36.82	-17.85	-11.655	0.820572	-0.139568	0.527284	-0.282	0.582	-0.573	0	139	355	2
2026-02-19	12:58:29.250	-29.12	-20.86	-11.585	0.834724	-0.154696	0.565104	-0.285	0.5865	-0.57	0	139	355	2
2026-02-19	12:58:29.270	-22.225	-22.085	-11.585	0.870348	-0.155428	0.606584	-0.2925	0.5865	-0.5655	0	139	355	2
2026-02-19	12:58:29.290	-18.095	-21.84	-11.235	0.880352	-0.14396	0.608048	-0.2925	0.585	-0.558	0	139	355	2
2026-02-19	12:58:29.310	-17.22	-21.175	-11.305	0.889624	-0.132248	0.590236	-0.291	0.5895	-0.555	0	139	355	2
2026-02-19	12:58:29.330	-17.36	-20.44	-12.845	0.913536	-0.135908	0.587308	-0.3045	0.5895	-0.543	0	139	355	2
2026-02-19	12:58:29.350	-16.065	-18.62	-13.685	0.915976	-0.13542	0.591212	-0.3105	0.5865	-0.5475	0	139	355	2
2026-02-19	12:58:29.370	-17.15	-17.08	-12.775	0.91012	-0.11956	0.57584	-0.318	0.582	-0.549	0	139	355	2
2026-02-19	12:58:29.390	-18.515	-16.135	-11.55	0.908656	-0.121268	0.567544	-0.3225	0.585	-0.546	0	139	355	2
2026-02-19	12:58:29.410	-20.825	-15.75	-10.325	0.920124	-0.116632	0.543388	-0.3225	0.5835	-0.5415	0	136	397	3
2026-02-19	12:58:29.430	-25.97	-16.345	-9.345	0.94916	-0.128588	0.491416	-0.324	0.585	-0.537	0	136	397	3
2026-02-19	12:58:29.450	-32.515	-17.08	-8.785	0.956236	-0.138836	0.451156	-0.327	0.5925	-0.534	0	136	397	3
2026-02-19	12:58:29.470	-36.26	-16.59	-7.735	0.95648	-0.1586	0.438224	-0.333	0.5895	-0.537	0	136	397	3
2026-02-19	12:58:29.490	-33.39	-14.49	-5.285	0.960628	-0.147376	0.442372	-0.3405	0.591	-0.5355	0	136	397	3
2026-02-19	12:58:29.510	-35.49	-10.605	0.105	0.939888	-0.117608	0.359168	-0.342	0.597	-0.5295	0	136	397	3
2026-02-19	12:58:29.530	-48.72	-11.06	5.565	0.930128	-0.110288	0.276208	-0.342	0.597	-0.5295	0	136	397	3
2026-02-19	12:58:29.550	-54.705	-13.3	7.49	0.961604	-0.1525	0.30012	-0.348	0.6015	-0.525	0	136	397	3
2026-02-19	12:58:29.570	-36.26	-10.85	10.605	0.983076	-0.213988	0.354044	-0.345	0.612	-0.5205	0	136	397	3
2026-02-19	12:58:29.590	-8.995	-8.995	14.665	1.020164	-0.170312	0.374296	-0.3525	0.621	-0.5205	0	136	397	3
2026-02-19	12:58:29.610	3.15	-10.255	15.82	1.041636	-0.171044	0.344528	-0.363	0.612	-0.5175	0	132	428	3
2026-02-19	12:58:29.630	10.395	-12.18	15.155	1.014064	-0.17934	0.321592	-0.3615	0.609	-0.5175	0	132	428	3
2026-02-19	12:58:29.650	16.345	-17.29	14.315	0.990884	-0.142984	0.318664	-0.3645	0.618	-0.513	0	132	428	3
2026-02-19	12:58:29.670	19.495	-21.665	11.34	0.987224	-0.09638	0.33794	-0.3705	0.6165	-0.516	0	132	428	3
2026-02-19	12:58:29.690	12.74	-25.55	6.055	0.915488	-0.110776	0.31354	-0.366	0.615	-0.5175	0	132	428	3
2026-02-19	12:58:29.710	4.865	-29.26	2.17	0.781288	-0.14152	0.253028	-0.372	0.615	-0.513	0	132	428	3
2026-02-19	12:58:29.730	5.95	-35.42	-2.17	0.743956	-0.140056	0.244732	-0.378	0.615	-0.5055	0	132	428	3
2026-02-19	12:58:29.750	8.995	-39.585	-8.4	0.736636	-0.196176	0.265716	-0.384	0.609	-0.501	0	132	428	3
2026-02-19	12:58:29.770	17.08	-40.88	-12.985	0.757376	-0.259616	0.281088	-0.3855	0.606	-0.492	0	132	428	3
2026-02-19	12:58:29.790	29.47	-41.37	-14.735	0.781044	-0.292068	0.281332	-0.3885	0.6045	-0.486	0	132	428	3
2026-02-19	12:58:29.810	36.995	-41.335	-14.945	0.798368	-0.297192	0.291092	-0.393	0.597	-0.48	0	131	427	3
2026-02-19	12:58:29.830	30.45	-40.88	-12.39	0.843752	-0.315736	0.334768	-0.399	0.588	-0.471	0	131	427	3
2026-02-19	12:58:29.850	12.18	-37.1	-7.245	0.942816	-0.342332	0.377224	-0.4065	0.5865	-0.468	0	131	427	3
2026-02-19	12:58:29.870	-0.945	-13.895	5.32	0.951356	-0.387228	0.312564	-0.4125	0.5865	-0.4635	0	131	427	3
2026-02-19	12:58:29.890	13.895	-7.455	15.68	0.92964	-0.340868	0.2684	-0.417	0.585	-0.456	0	131	427	3
2026-02-19	12:58:29.910	27.44	-3.255	22.89	0.992104	-0.325252	0.269376	-0.4215	0.5805	-0.4485	0	131	427	3
2026-02-19	12:58:29.930	33.95	3.92	28.14	1.058472	-0.30134	0.282796	-0.4185	0.5805	-0.4485	0	131	427	3
2026-02-19	12:58:29.950	26.845	13.86	33.74	1.057252	-0.29036	0.262056	-0.414	0.588	-0.444	0	131	427	3
2026-02-19	12:58:29.970	12.32	20.965	39.655	1.052372	-0.274744	0.242536	-0.4095	0.591	-0.444	0	131	427	3
2026-02-19	12:58:29.990	0.77	26.215	45.605	1.0492	-0.27694	0.273036	-0.405	0.5955	-0.45	0	131	427	3
2026-02-19	12:58:30.010	-0.175	31.395	52.395	1.029436	-0.27816	0.35868	-0.399	0.603	-0.45	0	131	406	3
2026-02-19	12:58:30.030	9.1	37.555	59.255	1.06018	-0.259372	0.505324	-0.396	0.609	-0.459	0	131	406	3
2026-02-19	12:58:30.050	29.155	54.075	66.395	1.158512	-0.261568	0.560468	-0.3975	0.612	-0.465	0	131	406	3
2026-02-19	12:58:30.070	40.04	63.14	62.475	1.242936	-0.19398	0.457744	-0.378	0.639	-0.474	0	131	406	3
2026-02-19	12:58:30.090	31.15	70.105	53.165	1.286612	-0.13786	0.327204	-0.3645	0.636	-0.4815	0	131	406	3
2026-02-19	12:58:30.110	2.905	73.255	41.44	1.296372	-0.08662	0.216184	-0.3525	0.636	-0.486	0	131	406	3
2026-02-19	12:58:30.130	-30.45	74.025	31.325	1.22976	-0.0915	0.176412	-0.342	0.639	-0.4905	0	131	406	3
2026-02-19	12:58:30.150	-41.895	73.955	28.84	1.080432	-0.134444	0.210328	-0.3375	0.648	-0.5115	0	131	406	3
2026-02-19	12:58:30.170	-35.91	66.36	34.79	0.971852	-0.107116	0.250344	-0.3255	0.6585	-0.51	0	131	406	3
2026-02-19	12:58:30.190	-26.915	54.39	42.91	0.93574	-0.023424	0.240828	-0.3045	0.669	-0.5205	0	131	406	3
2026-02-19	12:58:30.210	-23.765	41.09	45.29	0.9272	0.043188	0.236436	-0.3015	0.6765	-0.5205	0	135	381	3
2026-02-19	12:58:30.230	-12.985	25.445	42.525	0.904508	0.010248	0.244	-0.2835	0.687	-0.525	0	135	381	3
2026-02-19	12:58:30.250	8.785	21.35	38.64	0.890112	-0.027572	0.261812	-0.279	0.69	-0.5265	0	135	381	3
2026-02-19	12:58:30.270	26.81	20.825	33.39	0.88084	-0.02196	0.24766	-0.27	0.6975	-0.5295	0	135	381	3
2026-02-19	12:58:30.290	28.175	21.455	26.25	0.876204	0.003172	0.207156	-0.264	0.702	-0.5325	0	135	381	3
2026-02-19	12:58:30.310	17.465	22.505	16.975	0.843508	0.034892	0.1647	-0.261	0.6975	-0.5385	0	135	381	3
2026-02-19	12:58:30.330	5.845	22.155	7.105	0.802272	0.043432	0.137128	-0.2565	0.693	-0.543	0	135	381	3
2026-02-19	12:58:30.350	0.21	18.55	-3.045	0.781044	0.028792	0.146156	-0.2565	0.6975	-0.543	0	135	381	3
2026-02-19	12:58:30.370	4.34	12.845	-12.04	0.774456	-0.041968	0.18422	-0.2535	0.699	-0.5445	0	135	381	3
2026-02-19	12:58:30.390	17.29	7.105	-19.39	0.803492	-0.08784	0.242292	-0.2475	0.696	-0.546	0	135	381	3
2026-02-19	12:58:30.410	41.475	0.945	-29.4	0.873032	-0.111752	0.314272	-0.249	0.696	-0.546	0	141	353	3
2026-02-19	12:58:30.430	56.035	-0.21	-34.37	0.884256	-0.119804	0.33916	-0.2565	0.681	-0.5595	0	141	353	3
2026-02-19	12:58:30.450	65.975	-1.54	-37.52	0.874984	-0.093696	0.348432	-0.261	0.666	-0.5625	0	141	353	3
2026-02-19	12:58:30.470	66.08	-2.94	-39.235	0.851804	-0.085888	0.356728	-0.261	0.654	-0.558	0	141	353	3
2026-02-19	12:58:30.490	54.25	-5.25	-40.25	0.835212	-0.083936	0.375028	-0.261	0.651	-0.561	0	141	353	3
2026-02-19	12:58:30.510	34.51	-8.505	-41.825	0.846436	-0.079788	0.412604	-0.264	0.636	-0.5685	0	141	353	3
2026-02-19	12:58:30.530	12.145	-10.885	-43.19	0.847412	-0.081984	0.448472	-0.2685	0.624	-0.57	0	141	353	3
2026-02-19	12:58:30.550	-7.945	-12.145	-43.925	0.839604	-0.09028	0.467748	-0.27	0.621	-0.5685	0	141	353	3
2026-02-19	12:58:30.570	-26.25	-12.985	-44.065	0.82838	-0.10614	0.457256	-0.276	0.612	-0.567	0	141	353	3
2026-02-19	12:58:30.590	-45.185	-13.965	-44.87	0.811544	-0.160796	0.437248	-0.282	0.609	-0.5685	0	141	353	3
2026-02-19	12:58:30.610	-48.685	-14.525	-45.01	0.811056	-0.181536	0.45384	-0.2865	0.612	-0.5715	0	148	336	2
2026-02-19	12:58:30.630	-45.745	-14.175	-44.03	0.804224	-0.206424	0.480436	-0.2865	0.609	-0.552	0	148	336	2
2026-02-19	12:58:30.650	-40.635	-13.475	-41.93	0.796416	-0.212768	0.50386	-0.2895	0.609	-0.5445	0	148	336	2
2026-02-19	12:58:30.670	-38.64	-12.88	-39.165	0.797392	-0.203008	0.501176	-0.306	0.6165	-0.549	0	148	336	2
2026-02-19	12:58:30.690	-40.46	-13.195	-37.66	0.813008	-0.202276	0.482876	-0.3045	0.606	-0.5445	0	148	336	2
2026-02-19	12:58:30.710	-43.4	-13.475	-37.45	0.823744	-0.219844	0.478484	-0.318	0.609	-0.543	0	148	336	2
2026-02-19	12:58:30.730	-42.63	-14.07	-36.645	0.84668	-0.234972	0.504592	-0.318	0.609	-0.54	0	148	336	2
2026-02-19	12:58:30.750	-40.635	-14	-34.37	0.836676	-0.237656	0.526796	-0.3075	0.6165	-0.5355	0	148	336	2
2026-02-19	12:58:30.770	-42.28	-13.23	-29.33	0.793732	-0.236192	0.507764	-0.3075	0.6165	-0.5355	0	148	336	2
2026-02-19	12:58:30.790	-42.49	-14.28	-25.69	0.768112	-0.227652	0.482144	-0.3135	0.6165	-0.528	0	148	336	2
2026-02-19	12:58:30.810	-42.385	-16.73	-23.275	0.779824	-0.238876	0.263276	-0.387	0.66	-0.4125	0	157	286	3
2026-02-19	12:58:30.830	-40.67	-18.9	-22.155	0.94916	-0.22692	0.286456	-0.381	0.651	-0.411	0	157	286	3
2026-02-19	12:58:30.850	-35.875	-19.635	-20.44	0.92842	-0.210572	0.272304	-0.3795	0.654	-0.4185	0	157	286	3
2026-02-19	12:58:30.870	-31.605	-19.915	-19.11	0.9821	-0.183976	0.27816	-0.3735	0.6495	-0.432	0	157	286	3
2026-02-19	12:58:30.890	-29.75	-19.53	-18.76	1.045296	-0.168848	0.280356	-0.372	0.6375	-0.4365	0	157	286	3
2026-02-19	12:58:30.910	-28.455	-19.145	-18.41	1.033096	-0.183488	0.234972	-0.372	0.63	-0.444	0	157	286	3
2026-02-19	12:58:30.930	-26.53	-19.775	-17.605	0.980636	-0.161284	0.191296	-0.369	0.6255	-0.4515	0	157	286	3
2026-02-19	12:58:30.950	-25.13	-19.985	-16.45	0.942816	-0.149816	0.205204	-0.372	0.624	-0.4545	0	157	286	3
2026-02-19	12:58:30.970	-25.62	-19.53	-14.77	0.918416	-0.19764	0.24522	-0.369	0.621	-0.453	0	157	286	3
2026-02-19	12:58:30.990	-28.42	-19.11	-12.46	0.88938	-0.271328	0.270108	-0.3675	0.6195	-0.453	0	157	286	3
2026-02-19	12:58:29.010	-44.38	6.685	-26.775	0.864736	-0.098332	0.424316	-0.276	0.5175	-0.5895	0	143	321	2
2026-02-19	12:58:29.030	-47.915	5.25	-24.29	0.85278	-0.116388	0.437736	-0.264	0.5295	-0.591	0	143	321	2
2026-02-19	12:58:29.050	-48.965	4.095	-21.035	0.849364	-0.1098	0.46116	-0.267	0.537	-0.591	0	143	321	2
2026-02-19	12:58:29.070	-51.1	3.15	-19.145	0.86254	-0.099552	0.47824	-0.273	0.537	-0.588	0	143	321	2
2026-02-19	12:58:29.090	-56.21	2.94	-18.795	0.84546	-0.091744	0.471408	-0.2655	0.543	-0.591	0	143	321	2
2026-02-19	12:58:29.110	-61.32	1.645	-19.11	0.853756	-0.10614	0.453108	-0.279	0.5565	-0.588	0	143	321	2
2026-02-19	12:58:29.130	-62.37	-0.455	-18.27	0.846436	-0.117608	0.450912	-0.2745	0.5595	-0.585	0	143	321	2
2026-02-19	12:58:29.150	-60.165	-3.57	-15.96	0.833504	-0.123952	0.484828	-0.276	0.564	-0.591	0	143	321	2
2026-02-19	12:58:29.170	-55.685	-7.28	-14.14	0.829356	-0.1342	0.518744	-0.2805	0.567	-0.588	0	143	321	2
2026-02-19	12:58:29.190	-50.505	-10.605	-12.88	0.822768	-0.137372	0.532896	-0.2805	0.5715	-0.5805	0	143	321	2
2026-02-19	12:58:29.210	-44.065	-14.105	-11.97	0.813252	-0.126636	0.529236	-0.279	0.5775	-0.576	0	139	355	2
2026-02-19	12:58:29.230	-36.82	-17.85	-11.655	0.820572	-0.139568	0.527284	-0.282	0.582	-0.573	0	139	355	2
2026-02-19	12:58:29.250	-29.12	-20.86	-11.585	0.834724	-0.154696	0.565104	-0.285	0.5865	-0.57	0	139	355	2
2026-02-19	12:58:29.270	-22.225	-22.085	-11.585	0.870348	-0.155428	0.606584	-0.2925	0.5865	-0.5655	0	139	355	2
2026-02-19	12:58:29.290	-18.095	-21.84	-11.235	0.880352	-0.14396	0.608048	-0.2925	0.585	-0.558	0	139	355	2
2026-02-19	12:58:29.310	-17.22	-21.175	-11.305	0.889624	-0.132248	0.590236	-0.291	0.5895	-0.555	0	139	355	2
2026-02-19	12:58:29.330	-17.36	-20.44	-12.845	0.913536	-0.135908	0.587308	-0.3045	0.5895	-0.543	0	139	355	2
2026-02-19	12:58:29.350	-16.065	-18.62	-13.685	0.915976	-0.13542	0.591212	-0.3105	0.5865	-0.5475	0	139	355	2
2026-02-19	12:58:29.370	-17.15	-17.08	-12.775	0.91012	-0.11956	0.57584	-0.318	0.582	-0.549	0	139	355	2
2026-02-19	12:58:29.390	-18.515	-16.135	-11.55	0.908656	-0.121268	0.567544	-0.3225	0.585	-0.546	0	139	355	2
2026-02-19	12:58:29.410	-20.825	-15.75	-10.325	0.920124	-0.116632	0.543388	-0.3225	0.5835	-0.5415	0	136	397	3
2026-02-19	12:58:29.430	-25.97	-16.345	-9.345	0.94916	-0.128588	0.491416	-0.324	0.585	-0.537	0	136	397	3
2026-02-19	12:58:29.450	-32.515	-17.08	-8.785	0.956236	-0.138836	0.451156	-0.327	0.5925	-0.534	0	136	397	3
2026-02-19	12:58:29.470	-36.26	-16.59	-7.735	0.95648	-0.1586	0.438224	-0.333	0.5895	-0.537	0	136	397	3
2026-02-19	12:58:29.490	-33.39	-14.49	-5.285	0.960628	-0.147376	0.442372	-0.3405	0.591	-0.5355	0	136	397	3
2026-02-19	12:58:29.510	-35.49	-10.605	0.105	0.939888	-0.117608	0.359168	-0.342	0.597	-0.5295	0	136	397	3
2026-02-19	12:58:29.530	-48.72	-11.06	5.565	0.930128	-0.110288	0.276208	-0.342	0.597	-0.5295	0	136	397	3
2026-02-19	12:58:29.550	-54.705	-13.3	7.49	0.961604	-0.1525	0.30012	-0.348	0.6015	-0.525	0	136	397	3
2026-02-19	12:58:29.570	-36.26	-10.85	10.605	0.983076	-0.213988	0.354044	-0.345	0.612	-0.5205	0	136	397	3
2026-02-19	12:58:29.590	-8.995	-8.995	14.665	1.020164	-0.170312	0.374296	-0.3525	0.621	-0.5205	0	136	397	3
2026-02-19	12:58:29.610	3.15	-10.255	15.82	1.041636	-0.171044	0.344528	-0.363	0.612	-0.5175	0	132	428	3
2026-02-19	12:58:29.630	10.395	-12.18	15.155	1.014064	-0.17934	0.321592	-0.3615	0.609	-0.5175	0	132	428	3
2026-02-19	12:58:29.650	16.345	-17.29	14.315	0.990884	-0.142984	0.318664	-0.3645	0.618	-0.513	0	132	428	3
2026-02-19	12:58:29.670	19.495	-21.665	11.34	0.987224	-0.09638	0.33794	-0.3705	0.6165	-0.516	0	132	428	3
2026-02-19	12:58:29.690	12.74	-25.55	6.055	0.915488	-0.110776	0.31354	-0.366	0.615	-0.5175	0	132	428	3
2026-02-19	12:58:29.710	4.865	-29.26	2.17	0.781288	-0.14152	0.253028	-0.372	0.615	-0.513	0	132	428	3
2026-02-19	12:58:29.730	5.95	-35.42	-2.17	0.743956	-0.140056	0.244732	-0.378	0.615	-0.5055	0	132	428	3
2026-02-19	12:58:29.750	8.995	-39.585	-8.4	0.736636	-0.196176	0.265716	-0.384	0.609	-0.501	0	132	428	3
2026-02-19	12:58:29.770	17.08	-40.88	-12.985	0.757376	-0.259616	0.281088	-0.3855	0.606	-0.492	0	132	428	3
2026-02-19	12:58:29.790	29.47	-41.37	-14.735	0.781044	-0.292068	0.281332	-0.3885	0.6045	-0.486	0	132	428	3
2026-02-19	12:58:29.810	36.995	-41.335	-14.945	0.798368	-0.297192	0.291092	-0.393	0.597	-0.48	0	131	427	3
2026-02-19	12:58:29.830	30.45	-40.88	-12.39	0.843752	-0.315736	0.334768	-0.399	0.588	-0.471	0	131	427	3
2026-02-19	12:58:29.850	12.18	-37.1	-7.245	0.942816	-0.342332	0.377224	-0.4065	0.5865	-0.468	0	131	427	3
2026-02-19	12:58:29.870	-0.945	-13.895	5.32	0.951356	-0.387228	0.312564	-0.4125	0.5865	-0.4635	0	131	427	3
2026-02-19	12:58:29.890	13.895	-7.455	15.68	0.92964	-0.340868	0.2684	-0.417	0.585	-0.456	0	131	427	3
2026-02-19	12:58:29.910	27.44	-3.255	22.89	0.992104	-0.325252	0.269376	-0.4215	0.5805	-0.4485	0	131	427	3
2026-02-19	12:58:29.930	33.95	3.92	28.14	1.058472	-0.30134	0.282796	-0.4185	0.5805	-0.4485	0	131	427	3
2026-02-19	12:58:29.950	26.845	13.86	33.74	1.057252	-0.29036	0.262056	-0.414	0.588	-0.444	0	131	427	3
2026-02-19	12:58:29.970	12.32	20.965	39.655	1.052372	-0.274744	0.242536	-0.4095	0.591	-0.444	0	131	427	3
2026-02-19	12:58:29.990	0.77	26.215	45.605	1.0492	-0.27694	0.273036	-0.405	0.5955	-0.45	0	131	427	3
2026-02-19	12:58:32.010	-35.665	-20.79	-10.745	0.930372	-0.156648	0.400892	-0.36	0.633	-0.474	0	157	380	2
2026-02-19	12:58:32.030	-42.21	-24.815	-11.515	0.982588	-0.174216	0.377712	-0.354	0.6375	-0.474	0	157	380	2
2026-02-19	12:58:32.050	-44.31	-30.275	-14.7	1.074332	-0.189588	0.3782	-0.363	0.6345	-0.462	0	157	380	2
2026-02-19	12:58:32.070	-40.355	-32.13	-17.675	1.093608	-0.239608	0.418948	-0.3645	0.63	-0.4545	0	157	380	2
2026-02-19	12:58:32.090	-30.485	-30.205	-15.015	1.026996	-0.241072	0.393084	-0.372	0.6345	-0.444	0	157	380	2
2026-02-19	12:58:32.110	-19.215	-32.41	-11.48	1.040172	-0.198128	0.334524	-0.381	0.6405	-0.438	0	157	380	2
2026-02-19	12:58:32.130	-10.675	-34.895	-8.89	1.095316	-0.185928	0.30866	-0.3855	0.639	-0.435	0	157	380	2
2026-02-19	12:58:32.150	-5.81	-32.27	-4.34	1.02602	-0.185928	0.320128	-0.387	0.6375	-0.42	0	157	380	2
2026-02-19	12:58:32.170	-2.52	-29.785	3.115	0.958676	-0.150304	0.277428	-0.3885	0.633	-0.414	0	157	380	2
2026-02-19	12:58:32.190	0.525	-31.5	7.735	0.96502	-0.130052	0.245464	-0.3915	0.6375	-0.408	0	157	380	2
2026-02-19	12:58:32.210	-1.68	-30.625	9.835	0.914512	-0.1281	0.22448	-0.3975	0.639	-0.4095	0	159	400	3
2026-02-19	12:58:32.230	-5.74	-31.92	9.905	0.902556	-0.1403	0.214964	-0.3975	0.6435	-0.4065	0	159	400	3
2026-02-19	12:58:32.250	-7.245	-31.675	8.47	0.90768	-0.162992	0.212768	-0.405	0.6435	-0.3945	0	159	400	3
2026-02-19	12:58:32.270	-4.48	-30.135	6.405	0.92232	-0.172264	0.205448	-0.4005	0.642	-0.393	0	159	400	3
2026-02-19	12:58:32.290	1.855	-27.335	4.095	0.978684	-0.187392	0.196176	-0.408	0.651	-0.3885	0	159	400	3
2026-02-19	12:58:32.310	10.045	-17.605	4.13	0.976732	-0.18056	0.139324	-0.408	0.651	-0.3885	0	159	400	3
2026-02-19	12:58:32.330	18.865	-12.04	7.035	0.94794	-0.173972	0.09882	-0.4095	0.6465	-0.381	0	159	400	3
2026-02-19	12:58:32.350	28.455	-9.555	9.8	0.970144	-0.146888	0.088816	-0.4065	0.645	-0.378	0	159	400	3
2026-02-19	12:58:32.370	32.55	-7.315	12.04	0.966728	-0.131516	0.083936	-0.4035	0.6465	-0.3765	0	159	400	3
2026-02-19	12:58:32.390	29.68	-7.63	13.93	0.95282	-0.13054	0.080276	-0.4065	0.6465	-0.3705	0	159	400	3
2026-02-19	12:58:32.410	19.425	-8.75	13.86	0.960872	-0.122	0.107604	-0.414	0.6495	-0.372	0	159	384	3
2026-02-19	12:58:32.430	6.3	-8.33	13.23	0.986248	-0.142252	0.138104	-0.414	0.6555	-0.372	0	159	384	3
2026-02-19	12:58:32.450	-1.96	-7.49	11.83	1.040172	-0.194956	0.153964	-0.411	0.657	-0.3735	0	159	384	3
2026-02-19	12:58:32.470	-1.295	-4.13	11.76	1.051152	-0.229116	0.152012	-0.411	0.6585	-0.3765	0	159	384	3
2026-02-19	12:58:32.490	10.01	0.805	15.82	1.030656	-0.208376	0.136152	-0.4125	0.6615	-0.375	0	159	384	3
2026-02-19	12:58:32.510	12.88	2.59	19.11	0.999424	-0.185684	0.106384	-0.408	0.6645	-0.369	0	159	384	3
2026-02-19	12:58:32.530	14.175	2.415	20.895	1.007232	-0.174704	0.09467199	-0.402	0.666	-0.3645	0	159	384	3
2026-02-19	12:58:32.550	18.27	2.94	21.105	1.004792	-0.1891	0.090524	-0.405	0.6705	-0.372	0	159	384	3
2026-02-19	12:58:32.570	23.975	3.08	21.175	0.976244	-0.1952	0.100528	-0.4095	0.6705	-0.369	0	159	384	3
2026-02-19	12:58:32.590	28.735	2.695	19.915	0.967216	-0.202032	0.11712	-0.4065	0.6735	-0.375	0	159	384	3
2026-02-19	12:58:32.610	32.095	3.29	17.185	0.943304	-0.206424	0.114436	-0.3975	0.672	-0.3765	0	159	336	3
2026-02-19	12:58:32.630	37.205	5.32	13.265	0.909632	-0.201544	0.092476	-0.396	0.6825	-0.3765	0	159	336	3
2026-02-19	12:58:32.650	52.5	7.245	6.16	0.903532	-0.19642	0.107604	-0.396	0.678	-0.381	0	159	336	3
2026-02-19	12:58:32.670	43.645	9.275	-1.295	0.94184	-0.172264	0.172996	-0.396	0.675	-0.3855	0	159	336	3
2026-02-19	12:58:32.690	26.25	11.165	-4.165	0.937204	-0.270352	0.198372	-0.396	0.6765	-0.39	0	159	336	3
2026-02-19	12:58:32.710	27.335	12.39	-5.005	0.93208	-0.281088	0.224236	-0.399	0.669	-0.39	0	159	336	3
2026-02-19	12:58:32.730	35.875	13.09	-5.25	0.951112	-0.271328	0.216672	-0.3855	0.6615	-0.399	0	159	336	3
2026-02-19	12:58:32.750	43.785	12.565	-4.095	0.972584	-0.258884	0.218624	-0.3915	0.6675	-0.3975	0	159	336	3
2026-02-19	12:58:32.770	49.63	12.25	-2.275	0.941108	-0.25254	0.217404	-0.3855	0.6645	-0.405	0	159	336	3
2026-02-19	12:58:32.790	54.6	10.64	-1.225	0.939156	-0.249124	0.230824	-0.384	0.669	-0.408	0	159	336	3
2026-02-19	12:58:32.810	59.255	8.995	-1.33	0.951356	-0.247904	0.263276	-0.387	0.66	-0.4125	0	157	286	3
2026-02-19	12:58:32.830	63.665	9.275	-2.1	0.94916	-0.22692	0.286456	-0.381	0.651	-0.411	0	157	286	3
2026-02-19	12:58:32.850	68.075	10.71	-3.57	0.92842	-0.210572	0.272304	-0.3795	0.654	-0.4185	0	157	286	3
2026-02-19	12:58:32.870	71.295	10.01	-7.35	0.9821	-0.183976	0.27816	-0.3735	0.6495	-0.432	0	157	286	3
2026-02-19	12:58:32.890	60.76	9.31	-14.175	1.045296	-0.168848	0.280356	-0.372	0.6375	-0.4365	0	157	286	3
2026-02-19	12:58:32.910	40.145	9.94	-20.44	1.033096	-0.183488	0.234972	-0.372	0.63	-0.444	0	157	286	3
2026-02-19	12:58:32.930	16.73	9.94	-22.715	0.980636	-0.161284	0.191296	-0.369	0.6255	-0.4515	0	157	286	3
2026-02-19	12:58:32.950	-3.045	7.7	-24.745	0.942816	-0.149816	0.205204	-0.372	0.624	-0.4545	0	157	286	3
2026-02-19	12:58:32.970	-13.755	3.955	-26.53	0.918416	-0.19764	0.24522	-0.369	0.621	-0.453	0	157	286	3
2026-02-19	12:58:32.990	-11.13	-0.385	-24.5	0.88938	-0.271328	0.270108	-0.3675	0.6195	-0.453	0	157	286	3
2026-02-19	12:58:33.010	-10.885	7.385	18.9	0.754692	0.014396	0.578524	-0.234	0.5115	-0.6135	0	154	376	2
2026-02-19	12:58:33.030	-11.725	4.83	18.935	0.764208	0.011712	0.589016	-0.2355	0.5175	-0.6165	0	154	376	2
2026-02-19	12:58:33.050	-13.65	2.17	17.22	0.788852	0.006344	0.605364	-0.2325	0.5205	-0.6105	0	154	376	2
2026-02-19	12:58:33.070	-15.89	0.7	15.085	0.792512	0.006588	0.604388	-0.2295	0.5205	-0.603	0	154	376	2
2026-02-19	12:58:33.090	-16.415	-1.295	12.495	0.792756	0.00366	0.591944	-0.2265	0.519	-0.6075	0	154	376	2
2026-02-19	12:58:33.110	-17.535	-3.955	10.255	0.783728	-0.003172	0.580476	-0.2265	0.519	-0.6075	0	154	376	2
2026-02-19	12:58:33.130	-17.71	-7.245	8.645	0.780068	0.003904	0.57706	-0.2265	0.534	-0.618	0	154	376	2
2026-02-19	12:58:33.150	-20.195	-11.305	7.14	0.786656	0.00488	0.58926	-0.2295	0.5505	-0.6105	0	154	376	2
2026-02-19	12:58:33.170	-25.305	-15.19	7.035	0.785924	0	0.576328	-0.225	0.5445	-0.6165	0	154	376	2
2026-02-19	12:58:33.190	-26.845	-20.3	6.405	0.784948	-0.012688	0.555344	-0.2205	0.5595	-0.612	0	154	376	2
2026-02-19	12:58:33.210	-25.76	-25.9	4.55	0.817156	-0.023668	0.551928	-0.2265	0.5475	-0.609	0	154	430	1
2026-02-19	12:58:33.230	-23.87	-30.1	2.03	0.82594	-0.03538	0.568764	-0.228	0.5625	-0.6	0	154	430	1
2026-02-19	12:58:33.250	-19.005	-34.195	-1.05	0.838628	-0.040992	0.583892	-0.2355	0.567	-0.594	0	154	430	1
2026-02-19	12:58:33.270	-11.585	-37.87	-5.635	0.878156	-0.026596	0.550708	-0.2445	0.5595	-0.6015	0	154	430	1
2026-02-19	12:58:33.290	-11.725	-38.99	-8.925	0.917196	0.009516	0.527772	-0.249	0.5595	-0.5925	0	154	430	1
2026-02-19	12:58:33.310	-17.955	-37.52	-10.92	0.925492	0.006832	0.503616	-0.261	0.5625	-0.5835	0	154	430	1
2026-02-19	12:58:33.330	-28.105	-34.615	-10.78	0.902068	0.010248	0.462868	-0.267	0.564	-0.5835	0	154	430	1
2026-02-19	12:58:33.350	-40.985	-32.865	-9.135	0.87718	0.00366	0.405284	-0.2685	0.567	-0.582	0	154	430	1
2026-02-19	12:58:33.370	-52.465	-34.195	-6.72	0.846436	-0.0183	0.385276	-0.2745	0.57	-0.582	0	154	430	1
2026-02-19	12:58:33.390	-55.195	-38.57	-3.605	0.80886	-0.062708	0.398452	-0.273	0.564	-0.5805	0	154	430	1
2026-02-19	12:58:33.410	-45.955	-45.255	-2.17	0.813496	-0.109312	0.447984	-0.2745	0.5805	-0.57	0	152	469	3
2026-02-19	12:58:33.430	-20.79	-49.665	-3.045	0.884988	-0.197152	0.522892	-0.2895	0.582	-0.5685	0	152	469	3
2026-02-19	12:58:33.450	36.505	-43.47	-0.35	0.959652	-0.2501	0.5307	-0.294	0.5895	-0.558	0	152	469	3
2026-02-19	12:58:33.470	66.955	-35.875	2.975	0.966484	-0.209596	0.485072	-0.2985	0.579	-0.555	0	152	469	3
2026-02-19	12:58:33.490	83.16	-28.35	3.71	0.96868	-0.190564	0.4392	-0.3075	0.57	-0.5505	0	152	469	3
2026-02-19	12:58:33.510	89.005	-22.47	3.395	1.036268	-0.233996	0.43066	-0.315	0.5625	-0.5445	0	152	469	3
2026-02-19	12:58:33.530	83.23	-14.595	6.79	1.04066	-0.244488	0.400892	-0.3195	0.5505	-0.5445	0	152	469	3
2026-02-19	12:58:33.550	73.255	-7.105	13.055	1.013088	-0.225944	0.359168	-0.3195	0.5415	-0.546	0	152	469	3
2026-02-19	12:58:33.570	60.375	-2.065	18.83	1.059936	-0.209596	0.338672	-0.3165	0.525	-0.5445	0	152	469	3
2026-02-19	12:58:33.590	40.635	4.795	25.83	1.023824	-0.21472	0.306464	-0.318	0.519	-0.546	0	152	469	3
2026-02-19	12:58:33.610	21.14	8.155	34.615	0.996252	-0.213012	0.29768	-0.3195	0.5235	-0.5505	0	149	481	3
2026-02-19	12:58:33.630	-2.275	6.265	47.845	0.986004	-0.226188	0.3111	-0.315	0.522	-0.555	0	149	481	3
2026-02-19	12:58:33.650	-13.475	3.395	54.53	0.9882	-0.2135	0.305	-0.318	0.525	-0.552	0	149	481	3
2026-02-19	12:58:33.670	-24.885	2.1	60.795	0.960384	-0.198128	0.26962	-0.315	0.5295	-0.549	0	149	481	3
2026-02-19	12:58:33.690	-32.13	0.105	64.61	0.943548	-0.205448	0.228872	-0.303	0.543	-0.5445	0	149	481	3
2026-02-19	12:58:33.710	-33.25	-2.205	65.975	0.922076	-0.21594	0.20496	-0.306	0.561	-0.5445	0	149	481	3
2026-02-19	12:58:33.730	-28.945	-5.74	64.645	0.899628	-0.224724	0.1952	-0.3015	0.567	-0.5355	0	149	481	3
2026-02-19	12:58:33.750	-19.04	-8.505	60.375	0.869616	-0.239364	0.196176	-0.2925	0.5745	-0.525	0	149	481	3
2026-02-19	12:58:33.770	-1.785	-11.165	53.305	0.87474	-0.248636	0.2196	-0.294	0.5925	-0.525	0	149	481	3
2026-02-19	12:58:33.790	19.95	-10.71	44.66	0.90768	-0.262544	0.240828	-0.288	0.597	-0.528	0	149	481	3
2026-02-19	12:58:33.810	52.465	-5.04	33.915	0.857172	-0.23912	0.22326	-0.279	0.603	-0.5205	0	149	458	3
2026-02-19	12:58:33.830	70.14	-1.89	28.7	0.833748	-0.20618	0.204228	-0.2805	0.6015	-0.516	0	149	458	3
2026-02-19	12:58:33.850	83.405	-0.77	25.41	0.851072	-0.189832	0.19154	-0.279	0.5985	-0.5175	0	149	458	3
2026-02-19	12:58:33.870	91.385	-0.28	23.87	0.871324	-0.149328	0.211304	-0.2655	0.5925	-0.5235	0	149	458	3
2026-02-19	12:58:33.890	93.065	1.12	21.175	0.91744	-0.084912	0.26108	-0.2625	0.585	-0.525	0	149	458	3
2026-02-19	12:58:33.910	88.165	2.205	14.98	1.047736	-0.05612	0.29158	-0.2655	0.579	-0.5265	0	149	458	3
2026-02-19	12:58:33.930	78.19	2.94	7.98	1.183888	-0.042456	0.306464	-0.2595	0.57	-0.5295	0	149	458	3
2026-02-19	12:58:33.950	61.775	4.9	3.22	1.221708	-0.01342	0.275476	-0.258	0.5655	-0.531	0	149	458	3
2026-02-19	12:58:33.970	39.935	5.075	-0.49	1.167296	0.01464	0.235948	-0.2535	0.558	-0.525	0	149	458	3
2026-02-19	12:58:33.990	7.7	0.42	2.695	1.04188	0.0244	0.227896	-0.2505	0.558	-0.5295	0	149	458	3
2026-02-19	12:58:34.010	2.065	-9.555	8.75	1.1468	-0.021472	0.321592	-0.2505	0.5535	-0.5295	0	151	415	3
2026-02-19	12:58:34.030	9.345	-13.93	16.8	1.194868	-0.082716	0.438224	-0.2505	0.546	-0.531	0	151	415	3
2026-02-19	12:58:34.050	28.77	-12.355	26.705	1.196088	-0.085888	0.476288	-0.2475	0.546	-0.5325	0	151	415	3
2026-02-19	12:58:34.070	48.37	-5.495	34.615	1.151436	0.019764	0.430416	-0.246	0.5475	-0.531	0	151	415	3
2026-02-19	12:58:34.090	47.88	3.01	35.63	1.092632	0.0915	0.355264	-0.243	0.546	-0.5325	0	151	415	3
2026-02-19	12:58:34.110	32.06	10.22	30.275	1.021628	0.126148	0.274256	-0.2415	0.5415	-0.534	0	151	415	3
2026-02-19	12:58:34.130	7.35	17.115	21	0.935496	0.114436	0.212768	-0.24	0.537	-0.5355	0	151	415	3
2026-02-19	12:58:34.150	-12.285	21.735	10.745	0.880352	0.083448	0.17934	-0.2325	0.543	-0.537	0	151	415	3
2026-02-19	12:58:34.170	-21.28	24.57	2.45	0.838384	0.055144	0.171288	-0.2295	0.5475	-0.5385	0	151	415	3
2026-02-19	12:58:34.190	-25.9	24.43	-5.075	0.827648	0.00244	0.195444	-0.2295	0.549	-0.5445	0	151	415	3
2026-02-19	12:58:34.210	-26.425	20.86	-11.305	0.860588	-0.066612	0.235948	-0.2295	0.5505	-0.549	0	155	377	3
2026-02-19	12:58:34.230	-23.38	18.2	-14.07	0.88938	-0.097356	0.285724	-0.2235	0.5535	-0.5475	0	155	377	3
2026-02-19	12:58:34.250	-18.795	16.17	-15.645	0.908168	-0.12688	0.325496	-0.222	0.549	-0.552	0	155	377	3
2026-02-19	12:58:34.270	-12.39	16.625	-16.065	0.892308	-0.145668	0.35502	-0.2175	0.5595	-0.5565	0	155	377	3
2026-02-19	12:58:34.290	-4.865	18.2	-15.75	0.874984	-0.108336	0.354776	-0.219	0.5535	-0.5535	0	155	377	3
2026-02-19	12:58:34.310	-5.95	19.635	-15.785	0.849608	-0.0671	0.334524	-0.2145	0.549	-0.558	0	155	377	3
2026-02-19	12:58:34.330	-13.335	19.88	-17.045	0.844728	-0.067588	0.319396	-0.21	0.5505	-0.5595	0	155	377	3
2026-02-19	12:58:34.350	-20.335	20.58	-19.285	0.834236	-0.09076799	0.317688	-0.2145	0.552	-0.558	0	155	377	3
2026-02-19	12:58:34.370	-23.695	20.79	-21.735	0.838628	-0.095648	0.323788	-0.2085	0.555	-0.5535	0	155	377	3
2026-02-19	12:58:34.390	-26.285	20.965	-24.57	0.8723	-0.109068	0.343064	-0.21	0.5595	-0.5655	0	155	377	3
2026-02-19	12:58:34.410	-26.74	23.52	-28.945	0.877668	-0.118096	0.365024	-0.204	0.558	-0.567	0	159	352	3
2026-02-19	12:58:34.430	-28.245	25.55	-32.865	0.862296	-0.109312	0.368928	-0.1995	0.558	-0.5685	0	159	352	3
2026-02-19	12:58:34.450	-33.215	25.06	-35.525	0.852048	-0.101504	0.36966	-0.1935	0.5595	-0.5685	0	159	352	3
2026-02-19	12:58:34.470	-39.34	23.38	-38.92	0.871812	-0.10126	0.395036	-0.1905	0.5595	-0.5715	0	159	352	3
2026-02-19	12:58:34.490	-49	21.525	-41.755	0.887428	-0.139324	0.428952	-0.189	0.558	-0.5745	0	159	352	3
2026-02-19	12:58:34.510	-56.525	20.3	-42.21	0.886696	-0.169092	0.432856	-0.1905	0.5625	-0.573	0	159	352	3
2026-02-19	12:58:34.530	-56.49	18.795	-40.39	0.855708	-0.1464	0.429684	-0.192	0.5685	-0.5775	0	159	352	3
2026-02-19	12:58:34.550	-55.685	16.415	-38.22	0.840336	-0.148352	0.429196	-0.1935	0.57	-0.5805	0	159	352	3
2026-02-19	12:58:34.570	-53.97	14.105	-36.435	0.821792	-0.160064	0.437736	-0.192	0.573	-0.5715	0	159	352	3
2026-02-19	12:58:34.590	-52.22	11.83	-34.79	0.81862	-0.168604	0.449692	-0.186	0.5685	-0.5745	0	159	352	3
2026-02-19	12:58:34.610	-52.885	9.905	-33.53	0.824232	-0.185684	0.456524	-0.189	0.5775	-0.5745	0	161	348	2
2026-02-19	12:58:34.630	-53.13	7.84	-33.425	0.83082	-0.182268	0.451888	-0.186	0.585	-0.576	0	161	348	2
2026-02-19	12:58:34.650	-52.045	5.46	-34.02	0.829112	-0.187392	0.458476	-0.186	0.588	-0.573	0	161	348	2
2026-02-19	12:58:34.670	-49.385	3.08	-33.565	0.836188	-0.195444	0.488732	-0.1875	0.591	-0.573	0	161	348	2
2026-02-19	12:58:34.690	-46.375	1.33	-33.425	0.838384	-0.200568	0.521916	-0.1875	0.594	-0.5715	0	161	348	2
2026-02-19	12:58:34.710	-45.78	0.525	-32.725	0.83082	-0.200812	0.532164	-0.192	0.597	-0.567	0	161	348	2
2026-02-19	12:58:34.730	-47.845	-0.49	-31.465	0.831308	-0.217648	0.522648	-0.1995	0.6	-0.5655	0	161	348	2
2026-02-19	12:58:34.750	-50.295	-1.995	-29.435	0.826428	-0.210328	0.501664	-0.2025	0.606	-0.5655	0	161	348	2
2026-02-19	12:58:34.770	-51.31	-4.375	-27.37	0.809104	-0.216916	0.494344	-0.207	0.609	-0.5655	0	161	348	2
2026-02-19	12:58:34.790	-51.1	-6.895	-25.025	0.803492	-0.229848	0.509228	-0.207	0.615	-0.5595	0	161	348	2
2026-02-19	12:58:34.810	-48.125	-9.24	-22.575	0.803736	-0.240096	0.534848	-0.201	0.6255	-0.558	0	161	367	2
2026-02-19	12:58:34.830	-43.61	-10.535	-20.16	0.797636	-0.232776	0.554612	-0.204	0.6255	-0.5595	0	161	367	2
2026-02-19	12:58:34.850	-40.6	-11.06	-18.795	0.80154	-0.221064	0.564128	-0.21	0.624	-0.558	0	161	367	2
2026-02-19	12:58:34.870	-38.395	-10.885	-19.635	0.834724	-0.218624	0.591944	-0.21	0.624	-0.558	0	161	367	2
2026-02-19	12:58:34.890	-39.375	-8.61	-20.335	0.846436	-0.218624	0.601948	-0.216	0.633	-0.5445	0	161	367	2
2026-02-19	12:58:34.910	-41.965	-6.16	-19.775	0.843508	-0.202276	0.590724	-0.219	0.642	-0.5475	0	161	367	2
2026-02-19	12:58:34.930	-45.43	-3.535	-19.11	0.845948	-0.199348	0.586576	-0.2265	0.6405	-0.54	0	161	367	2
2026-02-19	12:58:34.950	-49	-1.505	-18.655	0.85888	-0.210084	0.573888	-0.2175	0.645	-0.5415	0	161	367	2
2026-02-19	12:58:34.970	-53.445	0.245	-17.57	0.854244	-0.233752	0.54412	-0.225	0.657	-0.5355	0	161	367	2
2026-02-19	12:58:34.990	-54.11	0.98	-15.05	0.861564	-0.247904	0.529236	-0.222	0.645	-0.546	0	161	367	2
2026-02-19	12:58:35.010	-51.24	1.68	-10.815	0.874984	-0.241804	0.529968	-0.225	0.6585	-0.537	0	160	404	3
2026-02-19	12:58:35.030	-51.345	2.66	-6.02	0.868884	-0.235948	0.511424	-0.2355	0.6615	-0.531	0	160	404	3
2026-02-19	12:58:35.050	-54.39	1.4	-2.415	0.892552	-0.240584	0.476288	-0.237	0.6705	-0.525	0	160	404	3
2026-02-19	12:58:35.070	-59.955	-1.225	-0.98	0.89548	-0.254248	0.461648	-0.237	0.6705	-0.525	0	160	404	3
2026-02-19	12:58:35.090	-64.295	-3.395	0.14	0.838384	-0.256688	0.441152	-0.237	0.681	-0.522	0	160	404	3
2026-02-19	12:58:35.110	-64.645	-8.19	0.665	0.829356	-0.262056	0.416996	-0.237	0.696	-0.516	0	160	404	3
2026-02-19	12:58:35.130	-61.25	-12.81	-1.05	0.85522	-0.279136	0.425536	-0.2355	0.7005	-0.5115	0	160	404	3
2026-02-19	12:58:35.150	-52.5	-16.24	-4.62	0.907192	-0.32818	0.440908	-0.2445	0.7035	-0.51	0	160	404	3
2026-02-19	12:58:35.170	-42.84	-17.325	-6.615	0.922808	-0.355264	0.4148	-0.249	0.714	-0.504	0	160	404	3
