yyyy-MM-dd	HH:mm:ss.fff	gyrX	gyrY	gyrZ	accX	accY	accZ	magX	magY	magZ	Marker	Energy	Angle	Classification
2026-02-19	12:58:06.210	-67.48	-53.025	15.19	0.272548	0.504836	0.457744	-0.4545	0.393	0.0915	0	1616	588	5
2026-02-19	12:58:06.230	-24.71	-55.02	22.89	0.40016	0.582916	0.642696	-0.4605	0.4065	0.09	0	1616	588	5
2026-02-19	12:58:06.250	52.815	-46.2	16.625	0.43554	0.794464	0.74786	-0.465	0.408	0.0945	0	1616	588	5
2026-02-19	12:58:06.270	45.99	-31.15	12.11	0.417728	0.93818	0.772504	-0.468	0.4065	0.099	0	1616	588	5
2026-02-19	12:58:06.290	4.725	-25.795	6.3	0.42212	0.766892	0.791292	-0.495	0.3885	0.099	0	1616	588	5
2026-02-19	12:58:06.310	-3.15	-16.905	1.61	0.440664	0.655384	0.824232	-0.4905	0.3855	0.1065	0	1616	588	5
2026-02-19	12:58:06.330	2.905	-6.125	2.1	0.415532	0.678564	0.782508	-0.4965	0.3885	0.0975	0	1616	588	5
2026-02-19	12:58:06.350	0.7	-0.035	3.99	0.379908	0.689544	0.70028	-0.492	0.387	0.108	0	1616	588	5
2026-02-19	12:58:06.370	-4.83	0.175	6.09	0.373808	0.617808	0.619272	-0.4965	0.3885	0.108	0	1616	588	5
2026-02-19	12:58:06.390	-0.49	-0.07	11.375	0.394304	0.621956	0.597556	-0.498	0.39	0.105	0	1616	588	5
2026-02-19	12:58:06.410	18.865	0.455	9.415	0.45018	0.710284	0.629764	-0.495	0.393	0.1035	0	1580	663	5
2026-02-19	12:58:06.430	31.675	-2.45	3.325	0.428952	0.717116	0.66124	-0.492	0.393	0.1005	0	1580	663	5
2026-02-19	12:58:06.450	21.42	-2.345	0.84	0.462624	0.7442	0.717848	-0.4875	0.39	0.102	0	1580	663	5
2026-02-19	12:58:06.470	-0.84	1.96	3.255	0.46726	0.723704	0.738344	-0.4935	0.384	0.111	0	1580	663	5
2026-02-19	12:58:06.490	-11.025	8.435	8.855	0.449204	0.67344	0.67588	-0.4995	0.381	0.111	0	1580	663	5
2026-02-19	12:58:06.510	-6.055	15.995	9.275	0.436516	0.660752	0.623176	-0.495	0.3855	0.108	0	1580	663	5
2026-02-19	12:58:06.530	-0.21	14.14	7.35	0.402356	0.659288	0.593408	-0.4935	0.3885	0.108	0	1580	663	5
2026-02-19	12:58:06.550	-4.34	6.3	6.405	0.4087	0.612196	0.625616	-0.495	0.387	0.1065	0	1580	663	5
2026-02-19	12:58:06.570	-4.725	5.215	7.385	0.39284	0.61366	0.65758	-0.492	0.393	0.1005	0	1580	663	5
2026-02-19	12:58:06.590	-4.2	3.325	7.63	0.391864	0.646844	0.635132	-0.495	0.3915	0.1005	0	1580	663	5
2026-02-19	12:58:06.610	-3.08	1.295	7.315	0.384544	0.682956	0.624396	-0.489	0.396	0.102	0	1485	692	5
2026-02-19	12:58:06.630	-0.315	-1.645	6.615	0.397964	0.64538	0.640744	-0.4875	0.3915	0.1035	0	1485	692	5
2026-02-19	12:58:06.650	1.575	-2.695	6.72	0.393572	0.616832	0.650016	-0.4905	0.39	0.096	0	1485	692	5
2026-02-19	12:58:06.670	-2.87	-0.665	5.32	0.408944	0.622688	0.6527	-0.489	0.3885	0.1005	0	1485	692	5
2026-02-19	12:58:06.690	-1.19	1.295	4.55	0.395524	0.663192	0.645868	-0.486	0.39	0.102	0	1485	692	5
2026-02-19	12:58:06.710	0.56	0.14	2.975	0.404064	0.658068	0.63928	-0.4815	0.3915	0.099	0	1485	692	5
2026-02-19	12:58:06.730	2.765	-0.245	3.325	0.406992	0.647576	0.652944	-0.4845	0.39	0.1005	0	1485	692	5
2026-02-19	12:58:06.750	1.33	0.665	3.85	0.408456	0.676612	0.668316	-0.4905	0.39	0.1005	0	1485	692	5
2026-02-19	12:58:06.770	-2.38	1.085	4.795	0.407236	0.662704	0.660264	-0.489	0.3975	0.1035	0	1485	692	5
2026-02-19	12:58:06.790	-5.46	1.54	5.005	0.407724	0.64904	0.65148	-0.486	0.399	0.1035	0	1485	692	5
2026-02-19	12:58:06.810	-5.39	1.47	4.55	0.407968	0.662704	0.64172	-0.4905	0.3945	0.096	0	1351	692	5
2026-02-19	12:58:06.830	-2.485	-0.21	3.57	0.412604	0.631228	0.637816	-0.4935	0.393	0.0915	0	1351	692	5
2026-02-19	12:58:06.850	-0.595	0.175	2.765	0.415776	0.6283	0.654408	-0.492	0.399	0.1005	0	1351	692	5
2026-02-19	12:58:06.870	-0.105	0.84	3.185	0.409676	0.639524	0.659288	-0.4875	0.3945	0.099	0	1351	692	5
2026-02-19	12:58:06.890	-1.155	0.805	4.235	0.421632	0.65758	0.662948	-0.489	0.3975	0.105	0	1351	692	5
2026-02-19	12:58:06.910	0.49	1.295	5.81	0.427	0.642208	0.65026	-0.486	0.405	0.0975	0	1351	692	5
2026-02-19	12:58:06.930	2.66	2.31	5.6	0.423828	0.624152	0.654408	-0.4815	0.3945	0.0975	0	1351	692	5
2026-02-19	12:58:06.950	5.285	3.535	5.075	0.427976	0.59292	0.666608	-0.486	0.4005	0.1035	0	1351	692	5
2026-02-19	12:58:06.970	10.08	6.09	6.37	0.423584	0.590236	0.665876	-0.486	0.4035	0.0975	0	1351	692	5
2026-02-19	12:58:06.990	14.98	8.715	8.365	0.420656	0.612196	0.6466	-0.486	0.3975	0.0975	0	1351	692	5
2026-02-19	12:58:07.010	18.9	10.64	9.975	0.429684	0.614636	0.631228	-0.486	0.3915	0.0975	0	1196	684	5
2026-02-19	12:58:07.030	28.945	22.855	12.6	0.447252	0.577548	0.609756	-0.4815	0.3885	0.1035	0	1196	684	5
2026-02-19	12:58:07.050	18.935	34.895	13.825	0.374296	0.732732	0.642208	-0.477	0.3855	0.105	0	1196	684	5
2026-02-19	12:58:07.070	-34.37	31.36	17.57	0.34038	0.798368	0.670756	-0.477	0.387	0.0975	0	1196	684	5
2026-02-19	12:58:07.090	-65.485	13.09	19.635	0.394548	0.55754	0.662948	-0.4785	0.393	0.0945	0	1196	684	5
2026-02-19	12:58:07.110	-13.335	14.875	12.355	0.37576	0.714432	0.670024	-0.4785	0.399	0.096	0	1196	684	5
2026-02-19	12:58:07.130	-2.8	9.485	3.99	0.359656	0.726388	0.701256	-0.4785	0.399	0.096	0	1196	684	5
2026-02-19	12:58:07.150	-10.395	1.785	-2.87	0.41968	0.676368	0.721508	-0.4665	0.411	0.096	0	1196	684	5
2026-02-19	12:58:07.170	-15.82	-2.45	-6.02	0.396988	0.629032	0.712724	-0.4695	0.405	0.0945	0	1196	684	5
2026-02-19	12:58:07.190	-18.025	-5.74	-6.195	0.414068	0.575596	0.702476	-0.4665	0.414	0.087	0	1196	684	5
2026-02-19	12:58:05.210	-67.865	-201.565	151.445	1.123864	4.525712	3.006568	-0.1395	0.321	0.1245	0	873	371	5
2026-02-19	12:58:05.230	-303.345	-10.36	-62.23	-0.255468	4.714568	3.571184	-0.1815	0.3195	0.111	0	873	371	5
2026-02-19	12:58:05.250	-479.64	38.745	-141.575	-0.409676	0.404796	2.806732	-0.1905	0.3525	0.096	0	873	371	5
2026-02-19	12:58:05.270	-234.115	219.555	-131.11	0.088572	-1.155096	1.607228	-0.1815	0.4155	0.0885	0	873	371	5
2026-02-19	12:58:05.290	125.615	387.345	-108.29	0.05002	-0.375516	0.663924	-0.153	0.459	0.096	0	873	371	5
2026-02-19	12:58:05.310	340.62	409.85	-187.775	0.271572	0.49532	0.164456	-0.102	0.456	0.117	0	873	371	5
2026-02-19	12:58:05.330	189.7	369.495	-252.56	0.329644	0.595848	-0.32574	-0.0405	0.4335	0.147	0	873	371	5
2026-02-19	12:58:05.350	-137.655	284.13	-176.89	-0.161772	-0.59536	-1.813896	0.0075	0.429	0.1875	0	873	371	5
2026-02-19	12:58:05.370	-272.72	123.48	-52.955	-0.785192	-1.37128	-2.272372	0.0375	0.456	0.219	0	873	371	5
2026-02-19	12:58:05.390	-176.89	-73.535	64.19	-1.231956	-1.629188	-1.815848	0.0585	0.489	0.2265	0	873	371	5
2026-02-19	12:58:05.410	257.74	-284.935	181.895	-0.448716	-1.692384	-1.274412	0.063	0.504	0.225	0	1086	396	5
2026-02-19	12:58:05.430	409.22	-364.245	269.85	0.482876	-0.607072	-0.707112	0.063	0.504	0.225	0	1086	396	5
2026-02-19	12:58:05.450	297.99	-341.95	337.33	1.568432	1.368352	1.63968	0.009	0.441	0.1905	0	1086	396	5
2026-02-19	12:58:05.470	-127.96	-235.83	317.975	1.456436	4.73482	3.056832	-0.078	0.3465	0.1455	0	1086	396	5
2026-02-19	12:58:05.490	-182.735	-175.175	163.555	-0.188368	3.008764	3.265452	-0.1335	0.3165	0.1215	0	1086	396	5
2026-02-19	12:58:05.510	-59.325	-62.475	43.645	-0.909876	1.891488	3.090992	-0.171	0.3345	0.1065	0	1086	396	5
2026-02-19	12:58:05.530	97.37	129.15	-63.945	-0.89182	2.269444	2.02276	-0.189	0.351	0.1035	0	1086	396	5
2026-02-19	12:58:05.550	104.51	232.295	-135.03	-0.707356	1.6287	1.231712	-0.1815	0.3435	0.1095	0	1086	396	5
2026-02-19	12:58:05.570	71.015	271.81	-202.755	-0.011468	0.7503	0.364292	-0.147	0.333	0.1245	0	1086	396	5
2026-02-19	12:58:05.590	115.045	281.645	-248.955	0.247416	0.024156	-1.142652	-0.0975	0.333	0.1455	0	1086	396	5
2026-02-19	12:58:05.610	221.55	226.275	-243.845	-0.027328	-0.6771	-1.28832	-0.0495	0.3345	0.1695	0	1289	419	5
2026-02-19	12:58:05.630	17.185	95.13	-164.5	0.175436	-0.52948	-1.486936	-0.0135	0.3315	0.195	0	1289	419	5
2026-02-19	12:58:05.650	-282.59	-36.12	-8.015	-0.375272	-1.054568	-2.202588	0.006	0.339	0.207	0	1289	419	5
2026-02-19	12:58:05.670	-255.85	-166.565	74.9	-0.479704	-1.101904	-1.231224	0.009	0.3735	0.1935	0	1289	419	5
2026-02-19	12:58:05.690	-143.57	-240.66	153.125	0.04514	-0.9211	-0.280356	0.006	0.3945	0.1845	0	1289	419	5
2026-02-19	12:58:05.710	-175.315	-240.345	202.195	0.2867	-0.266204	-0.036112	0.006	0.3945	0.1845	0	1289	419	5
2026-02-19	12:58:05.730	-245.175	-232.435	221.795	0.276452	0.382348	0.327448	-0.0945	0.4095	0.1215	0	1289	419	5
2026-02-19	12:58:05.750	-345.975	-263.935	215.915	0.166164	0.683688	0.6893	-0.1155	0.426	0.1125	0	1289	419	5
2026-02-19	12:58:05.770	-256.865	-312.935	180.565	0.379664	0.335256	1.516704	-0.1575	0.459	0.0975	0	1289	419	5
2026-02-19	12:58:05.790	25.55	-282.03	134.295	0.172264	0.074664	1.783152	-0.2025	0.495	0.0915	0	1289	419	5
2026-02-19	12:58:05.810	180.25	-204.75	119.14	0.048556	1.218536	2.037156	-0.2475	0.5085	0.0855	0	1461	408	5
2026-02-19	12:58:05.830	99.96	-140.56	112.035	0.237168	1.95932	2.240652	-0.279	0.489	0.0795	0	1461	408	5
2026-02-19	12:58:05.850	-27.58	-111.3	69.72	0.356728	1.867576	2.010072	-0.3015	0.4785	0.078	0	1461	408	5
2026-02-19	12:58:05.870	-68.81	-90.09	12.145	0.238388	0.87474	1.560624	-0.321	0.486	0.0765	0	1461	408	5
2026-02-19	12:58:05.890	21.315	-69.23	3.745	0.121756	0.094916	0.982344	-0.333	0.492	0.075	0	1461	408	5
2026-02-19	12:58:05.910	132.615	-48.825	10.85	0.071004	0.14884	0.575108	-0.3465	0.4935	0.075	0	1461	408	5
2026-02-19	12:58:05.930	169.47	-44.205	29.68	0.37088	0.36844	1.051152	-0.3585	0.4785	0.075	0	1461	408	5
2026-02-19	12:58:05.950	176.575	-27.16	29.19	0.483852	0.8235	1.41154	-0.372	0.453	0.0735	0	1461	408	5
2026-02-19	12:58:05.970	101.15	-28.455	15.995	0.214232	0.737856	1.101904	-0.3795	0.4275	0.0735	0	1461	408	5
2026-02-19	12:58:05.990	34.965	-37.135	10.29	0.236924	0.533628	0.781044	-0.3825	0.4125	0.075	0	1461	408	5
2026-02-19	12:58:06.010	-17.15	-40.04	17.43	0.296704	0.497516	0.65636	-0.387	0.396	0.0735	0	1577	477	5
2026-02-19	12:58:06.030	-40.18	-55.195	19.74	0.464332	0.426268	0.723948	-0.396	0.399	0.075	0	1577	477	5
2026-02-19	12:58:06.050	17.745	-56.665	10.955	0.499468	0.647088	0.807152	-0.405	0.4095	0.081	0	1577	477	5
2026-02-19	12:58:06.070	91.315	-57.89	-2.205	0.498248	0.755424	0.992348	-0.4095	0.4065	0.0795	0	1577	477	5
2026-02-19	12:58:06.090	121.66	-50.4	-11.935	0.64172	0.804468	1.30174	-0.42	0.393	0.078	0	1577	477	5
2026-02-19	12:58:06.110	72.52	-29.61	-9.625	0.355264	0.803736	1.29076	-0.429	0.375	0.084	0	1577	477	5
2026-02-19	12:58:06.130	-14.525	-20.02	8.785	0.28548	0.656848	0.868396	-0.4335	0.363	0.0915	0	1577	477	5
2026-02-19	12:58:06.150	-52.255	-23.1	19.915	0.246928	0.55998	0.587552	-0.4365	0.3645	0.0915	0	1577	477	5
2026-02-19	12:58:06.170	-52.675	-27.545	13.72	0.191784	0.555344	0.431636	-0.441	0.375	0.087	0	1577	477	5
2026-02-19	12:58:06.190	-65.31	-41.685	12.425	0.19154	0.548512	0.343308	-0.447	0.3795	0.09	0	1577	477	5
2026-02-19	12:58:06.210	-67.48	-53.025	15.19	0.272548	0.504836	0.457744	-0.4545	0.393	0.0915	0	1616	588	5
2026-02-19	12:58:06.230	-24.71	-55.02	22.89	0.40016	0.582916	0.642696	-0.4605	0.4065	0.09	0	1616	588	5
2026-02-19	12:58:06.250	52.815	-46.2	16.625	0.43554	0.794464	0.74786	-0.465	0.408	0.0945	0	1616	588	5
2026-02-19	12:58:06.270	45.99	-31.15	12.11	0.417728	0.93818	0.772504	-0.468	0.4065	0.099	0	1616	588	5
2026-02-19	12:58:06.290	4.725	-25.795	6.3	0.42212	0.766892	0.791292	-0.495	0.3885	0.099	0	1616	588	5
2026-02-19	12:58:06.310	-3.15	-16.905	1.61	0.440664	0.655384	0.824232	-0.4905	0.3855	0.1065	0	1616	588	5
2026-02-19	12:58:06.330	2.905	-6.125	2.1	0.415532	0.678564	0.782508	-0.4965	0.3885	0.0975	0	1616	588	5
2026-02-19	12:58:06.350	0.7	-0.035	3.99	0.379908	0.689544	0.70028	-0.492	0.387	0.108	0	1616	588	5
2026-02-19	12:58:06.370	-4.83	0.175	6.09	0.373808	0.617808	0.619272	-0.4965	0.3885	0.108	0	1616	588	5
2026-02-19	12:58:06.390	-0.49	-0.07	11.375	0.394304	0.621956	0.597556	-0.498	0.39	0.105	0	1616	588	5
2026-02-19	12:58:06.410	18.865	0.455	9.415	0.45018	0.710284	0.629764	-0.495	0.393	0.1035	0	1580	663	5
2026-02-19	12:58:06.430	31.675	-2.45	3.325	0.428952	0.717116	0.66124	-0.492	0.393	0.1005	0	1580	663	5
2026-02-19	12:58:06.450	21.42	-2.345	0.84	0.462624	0.7442	0.717848	-0.4875	0.39	0.102	0	1580	663	5
2026-02-19	12:58:06.470	-0.84	1.96	3.255	0.46726	0.723704	0.738344	-0.4935	0.384	0.111	0	1580	663	5
2026-02-19	12:58:06.490	-11.025	8.435	8.855	0.449204	0.67344	0.67588	-0.4995	0.381	0.111	0	1580	663	5
2026-02-19	12:58:06.510	-6.055	15.995	9.275	0.436516	0.660752	0.623176	-0.495	0.3855	0.108	0	1580	663	5
2026-02-19	12:58:06.530	-0.21	14.14	7.35	0.402356	0.659288	0.593408	-0.4935	0.3885	0.108	0	1580	663	5
2026-02-19	12:58:06.550	-4.34	6.3	6.405	0.4087	0.612196	0.625616	-0.495	0.387	0.1065	0	1580	663	5
2026-02-19	12:58:06.570	-4.725	5.215	7.385	0.39284	0.61366	0.65758	-0.492	0.393	0.1005	0	1580	663	5
2026-02-19	12:58:06.590	-4.2	3.325	7.63	0.391864	0.646844	0.635132	-0.495	0.3915	0.1005	0	1580	663	5
2026-02-19	12:58:06.610	-3.08	1.295	7.315	0.384544	0.682956	0.624396	-0.489	0.396	0.102	0	1485	692	5
2026-02-19	12:58:06.630	-0.315	-1.645	6.615	0.397964	0.64538	0.640744	-0.4875	0.3915	0.1035	0	1485	692	5
2026-02-19	12:58:06.650	1.575	-2.695	6.72	0.393572	0.616832	0.650016	-0.4905	0.39	0.096	0	1485	692	5
2026-02-19	12:58:06.670	-2.87	-0.665	5.32	0.408944	0.622688	0.6527	-0.489	0.3885	0.1005	0	1485	692	5
2026-02-19	12:58:06.690	-1.19	1.295	4.55	0.395524	0.663192	0.645868	-0.486	0.39	0.102	0	1485	692	5
2026-02-19	12:58:06.710	0.56	0.14	2.975	0.404064	0.658068	0.63928	-0.4815	0.3915	0.099	0	1485	692	5
2026-02-19	12:58:06.730	2.765	-0.245	3.325	0.406992	0.647576	0.652944	-0.4845	0.39	0.1005	0	1485	692	5
2026-02-19	12:58:06.750	1.33	0.665	3.85	0.408456	0.676612	0.668316	-0.4905	0.39	0.1005	0	1485	692	5
2026-02-19	12:58:06.770	-2.38	1.085	4.795	0.407236	0.662704	0.660264	-0.489	0.3975	0.1035	0	1485	692	5
2026-02-19	12:58:06.790	-5.46	1.54	5.005	0.407724	0.64904	0.65148	-0.486	0.399	0.1035	0	1485	692	5
2026-02-19	12:58:06.810	-5.39	1.47	4.55	0.407968	0.662704	0.64172	-0.4905	0.3945	0.096	0	1351	692	5
2026-02-19	12:58:06.830	-2.485	-0.21	3.57	0.412604	0.631228	0.637816	-0.4935	0.393	0.0915	0	1351	692	5
2026-02-19	12:58:06.850	-0.595	0.175	2.765	0.415776	0.6283	0.654408	-0.492	0.399	0.1005	0	1351	692	5
2026-02-19	12:58:06.870	-0.105	0.84	3.185	0.409676	0.639524	0.659288	-0.4875	0.3945	0.099	0	1351	692	5
2026-02-19	12:58:06.890	-1.155	0.805	4.235	0.421632	0.65758	0.662948	-0.489	0.3975	0.105	0	1351	692	5
2026-02-19	12:58:06.910	0.49	1.295	5.81	0.427	0.642208	0.65026	-0.486	0.405	0.0975	0	1351	692	5
2026-02-19	12:58:06.930	2.66	2.31	5.6	0.423828	0.624152	0.654408	-0.4815	0.3945	0.0975	0	1351	692	5
2026-02-19	12:58:06.950	5.285	3.535	5.075	0.427976	0.59292	0.666608	-0.486	0.4005	0.1035	0	1351	692	5
2026-02-19	12:58:06.970	10.08	6.09	6.37	0.423584	0.590236	0.665876	-0.486	0.4035	0.0975	0	1351	692	5
2026-02-19	12:58:06.990	14.98	8.715	8.365	0.420656	0.612196	0.6466	-0.486	0.3975	0.0975	0	1351	692	5
2026-02-19	12:58:07.010	18.9	10.64	9.975	0.429684	0.614636	0.631228	-0.486	0.3915	0.0975	0	1196	684	5
2026-02-19	12:58:07.030	28.945	22.855	12.6	0.447252	0.577548	0.609756	-0.4815	0.3885	0.1035	0	1196	684	5
2026-02-19	12:58:07.050	18.935	34.895	13.825	0.374296	0.732732	0.642208	-0.477	0.3855	0.105	0	1196	684	5
2026-02-19	12:58:07.070	-34.37	31.36	17.57	0.34038	0.798368	0.670756	-0.477	0.387	0.0975	0	1196	684	5
2026-02-19	12:58:07.090	-65.485	13.09	19.635	0.394548	0.55754	0.662948	-0.4785	0.393	0.0945	0	1196	684	5
2026-02-19	12:58:07.110	-13.335	14.875	12.355	0.37576	0.714432	0.670024	-0.4785	0.399	0.096	0	1196	684	5
2026-02-19	12:58:07.130	-2.8	9.485	3.99	0.359656	0.726388	0.701256	-0.4785	0.399	0.096	0	1196	684	5
2026-02-19	12:58:07.150	-10.395	1.785	-2.87	0.41968	0.676368	0.721508	-0.4665	0.411	0.096	0	1196	684	5
2026-02-19	12:58:07.170	-15.82	-2.45	-6.02	0.396988	0.629032	0.712724	-0.4695	0.405	0.0945	0	1196	684	5
2026-02-19	12:58:07.190	-18.025	-5.74	-6.195	0.414068	0.575596	0.702476	-0.4665	0.414	0.087	0	1196	684	5
2026-02-19	12:58:05.210	-67.865	-201.565	151.445	1.123864	4.525712	3.006568	-0.1395	0.321	0.1245	0	873	371	5
2026-02-19	12:58:05.230	-303.345	-10.36	-62.23	-0.255468	4.714568	3.571184	-0.1815	0.3195	0.111	0	873	371	5
2026-02-19	12:58:05.250	-479.64	38.745	-141.575	-0.409676	0.404796	2.806732	-0.1905	0.3525	0.096	0	873	371	5
2026-02-19	12:58:05.270	-234.115	219.555	-131.11	0.088572	-1.155096	1.607228	-0.1815	0.4155	0.0885	0	873	371	5
2026-02-19	12:58:05.290	125.615	387.345	-108.29	0.05002	-0.375516	0.663924	-0.153	0.459	0.096	0	873	371	5
2026-02-19	12:58:05.310	340.62	409.85	-187.775	0.271572	0.49532	0.164456	-0.102	0.456	0.117	0	873	371	5
2026-02-19	12:58:05.330	189.7	369.495	-252.56	0.329644	0.595848	-0.32574	-0.0405	0.4335	0.147	0	873	371	5
2026-02-19	12:58:05.350	-137.655	284.13	-176.89	-0.161772	-0.59536	-1.813896	0.0075	0.429	0.1875	0	873	371	5
2026-02-19	12:58:05.370	-272.72	123.48	-52.955	-0.785192	-1.37128	-2.272372	0.0375	0.456	0.219	0	873	371	5
2026-02-19	12:58:05.390	-176.89	-73.535	64.19	-1.231956	-1.629188	-1.815848	0.0585	0.489	0.2265	0	873	371	5
2026-02-19	12:58:05.410	257.74	-284.935	181.895	-0.448716	-1.692384	-1.274412	0.063	0.504	0.225	0	1086	396	5
2026-02-19	12:58:05.430	409.22	-364.245	269.85	0.482876	-0.607072	-0.707112	0.063	0.504	0.225	0	1086	396	5
2026-02-19	12:58:05.450	297.99	-341.95	337.33	1.568432	1.368352	1.63968	0.009	0.441	0.1905	0	1086	396	5
2026-02-19	12:58:05.470	-127.96	-235.83	317.975	1.456436	4.73482	3.056832	-0.078	0.3465	0.1455	0	1086	396	5
2026-02-19	12:58:05.490	-182.735	-175.175	163.555	-0.188368	3.008764	3.265452	-0.1335	0.3165	0.1215	0	1086	396	5
2026-02-19	12:58:05.510	-59.325	-62.475	43.645	-0.909876	1.891488	3.090992	-0.171	0.3345	0.1065	0	1086	396	5
2026-02-19	12:58:05.530	97.37	129.15	-63.945	-0.89182	2.269444	2.02276	-0.189	0.351	0.1035	0	1086	396	5
2026-02-19	12:58:05.550	104.51	232.295	-135.03	-0.707356	1.6287	1.231712	-0.1815	0.3435	0.1095	0	1086	396	5
2026-02-19	12:58:05.570	71.015	271.81	-202.755	-0.011468	0.7503	0.364292	-0.147	0.333	0.1245	0	1086	396	5
2026-02-19	12:58:05.590	115.045	281.645	-248.955	0.247416	0.024156	-1.142652	-0.0975	0.333	0.1455	0	1086	396	5
2026-02-19	12:58:05.610	221.55	226.275	-243.845	-0.027328	-0.6771	-1.28832	-0.0495	0.3345	0.1695	0	1289	419	5
2026-02-19	12:58:05.630	17.185	95.13	-164.5	0.175436	-0.52948	-1.486936	-0.0135	0.3315	0.195	0	1289	419	5
2026-02-19	12:58:05.650	-282.59	-36.12	-8.015	-0.375272	-1.054568	-2.202588	0.006	0.339	0.207	0	1289	419	5
2026-02-19	12:58:05.670	-255.85	-166.565	74.9	-0.479704	-1.101904	-1.231224	0.009	0.3735	0.1935	0	1289	419	5
2026-02-19	12:58:05.690	-143.57	-240.66	153.125	0.04514	-0.9211	-0.280356	0.006	0.3945	0.1845	0	1289	419	5
2026-02-19	12:58:05.710	-175.315	-240.345	202.195	0.2867	-0.266204	-0.036112	0.006	0.3945	0.1845	0	1289	419	5
2026-02-19	12:58:05.730	-245.175	-232.435	221.795	0.276452	0.382348	0.327448	-0.0945	0.4095	0.1215	0	1289	419	5
2026-02-19	12:58:05.750	-345.975	-263.935	215.915	0.166164	0.683688	0.6893	-0.1155	0.426	0.1125	0	1289	419	5
2026-02-19	12:58:05.770	-256.865	-312.935	180.565	0.379664	0.335256	1.516704	-0.1575	0.459	0.0975	0	1289	419	5
2026-02-19	12:58:05.790	25.55	-282.03	134.295	0.172264	0.074664	1.783152	-0.2025	0.495	0.0915	0	1289	419	5
2026-02-19	12:58:05.810	180.25	-204.75	119.14	0.048556	1.218536	2.037156	-0.2475	0.5085	0.0855	0	1461	408	5
2026-02-19	12:58:05.830	99.96	-140.56	112.035	0.237168	1.95932	2.240652	-0.279	0.489	0.0795	0	1461	408	5
2026-02-19	12:58:05.850	-27.58	-111.3	69.72	0.356728	1.867576	2.010072	-0.3015	0.4785	0.078	0	1461	408	5
2026-02-19	12:58:05.870	-68.81	-90.09	12.145	0.238388	0.87474	1.560624	-0.321	0.486	0.0765	0	1461	408	5
2026-02-19	12:58:05.890	21.315	-69.23	3.745	0.121756	0.094916	0.982344	-0.333	0.492	0.075	0	1461	408	5
2026-02-19	12:58:05.910	132.615	-48.825	10.85	0.071004	0.14884	0.575108	-0.3465	0.4935	0.075	0	1461	408	5
2026-02-19	12:58:05.930	169.47	-44.205	29.68	0.37088	0.36844	1.051152	-0.3585	0.4785	0.075	0	1461	408	5
2026-02-19	12:58:05.950	176.575	-27.16	29.19	0.483852	0.8235	1.41154	-0.372	0.453	0.0735	0	1461	408	5
2026-02-19	12:58:05.970	101.15	-28.455	15.995	0.214232	0.737856	1.101904	-0.3795	0.4275	0.0735	0	1461	408	5
2026-02-19	12:58:05.990	34.965	-37.135	10.29	0.236924	0.533628	0.781044	-0.3825	0.4125	0.075	0	1461	408	5
2026-02-19	12:58:06.010	-17.15	-40.04	17.43	0.296704	0.497516	0.65636	-0.387	0.396	0.0735	0	1577	477	5
2026-02-19	12:58:06.030	-40.18	-55.195	19.74	0.464332	0.426268	0.723948	-0.396	0.399	0.075	0	1577	477	5
2026-02-19	12:58:06.050	17.745	-56.665	10.955	0.499468	0.647088	0.807152	-0.405	0.4095	0.081	0	1577	477	5
2026-02-19	12:58:06.070	91.315	-57.89	-2.205	0.498248	0.755424	0.992348	-0.4095	0.4065	0.0795	0	1577	477	5
2026-02-19	12:58:06.090	121.66	-50.4	-11.935	0.64172	0.804468	1.30174	-0.42	0.393	0.078	0	1577	477	5
2026-02-19	12:58:06.110	72.52	-29.61	-9.625	0.355264	0.803736	1.29076	-0.429	0.375	0.084	0	1577	477	5
2026-02-19	12:58:06.130	-14.525	-20.02	8.785	0.28548	0.656848	0.868396	-0.4335	0.363	0.0915	0	1577	477	5
2026-02-19	12:58:06.150	-52.255	-23.1	19.915	0.246928	0.55998	0.587552	-0.4365	0.3645	0.0915	0	1577	477	5
2026-02-19	12:58:06.170	-52.675	-27.545	13.72	0.191784	0.555344	0.431636	-0.441	0.375	0.087	0	1577	477	5
2026-02-19	12:58:06.190	-65.31	-41.685	12.425	0.19154	0.548512	0.343308	-0.447	0.3795	0.09	0	1577	477	5
2026-02-19	12:58:06.210	-67.48	-53.025	15.19	0.272548	0.504836	0.457744	-0.4545	0.393	0.0915	0	1616	588	5
2026-02-19	12:58:06.230	-24.71	-55.02	22.89	0.40016	0.582916	0.642696	-0.4605	0.4065	0.09	0	1616	588	5
2026-02-19	12:58:06.250	52.815	-46.2	16.625	0.43554	0.794464	0.74786	-0.465	0.408	0.0945	0	1616	588	5
2026-02-19	12:58:06.270	45.99	-31.15	12.11	0.417728	0.93818	0.772504	-0.468	0.4065	0.099	0	1616	588	5
2026-02-19	12:58:06.290	4.725	-25.795	6.3	0.42212	0.766892	0.791292	-0.495	0.3885	0.099	0	1616	588	5
2026-02-19	12:58:06.310	-3.15	-16.905	1.61	0.440664	0.655384	0.824232	-0.4905	0.3855	0.1065	0	1616	588	5
2026-02-19	12:58:06.330	2.905	-6.125	2.1	0.415532	0.678564	0.782508	-0.4965	0.3885	0.0975	0	1616	588	5
2026-02-19	12:58:06.350	0.7	-0.035	3.99	0.379908	0.689544	0.70028	-0.492	0.387	0.108	0	1616	588	5
2026-02-19	12:58:06.370	-4.83	0.175	6.09	0.373808	0.617808	0.619272	-0.4965	0.3885	0.108	0	1616	588	5
2026-02-19	12:58:06.390	-0.49	-0.07	11.375	0.394304	0.621956	0.597556	-0.498	0.39	0.105	0	1616	588	5
2026-02-19	12:58:06.410	18.865	0.455	9.415	0.45018	0.710284	0.629764	-0.495	0.393	0.1035	0	1580	663	5
2026-02-19	12:58:06.430	31.675	-2.45	3.325	0.428952	0.717116	0.66124	-0.492	0.393	0.1005	0	1580	663	5
2026-02-19	12:58:06.450	21.42	-2.345	0.84	0.462624	0.7442	0.717848	-0.4875	0.39	0.102	0	1580	663	5
2026-02-19	12:58:06.470	-0.84	1.96	3.255	0.46726	0.723704	0.738344	-0.4935	0.384	0.111	0	1580	663	5
2026-02-19	12:58:06.490	-11.025	8.435	8.855	0.449204	0.67344	0.67588	-0.4995	0.381	0.111	0	1580	663	5
2026-02-19	12:58:06.510	-6.055	15.995	9.275	0.436516	0.660752	0.623176	-0.495	0.3855	0.108	0	1580	663	5
2026-02-19	12:58:06.530	-0.21	14.14	7.35	0.402356	0.659288	0.593408	-0.4935	0.3885	0.108	0	1580	663	5
2026-02-19	12:58:06.550	-4.34	6.3	6.405	0.4087	0.612196	0.625616	-0.495	0.387	0.1065	0	1580	663	5
2026-02-19	12:58:06.570	-4.725	5.215	7.385	0.39284	0.61366	0.65758	-0.492	0.393	0.1005	0	1580	663	5
2026-02-19	12:58:06.590	-4.2	3.325	7.63	0.391864	0.646844	0.635132	-0.495	0.3915	0.1005	0	1580	663	5
2026-02-19	12:58:16.610	-4.655	-52.5	8.33	0.730536	0.372344	0.353556	-0.4725	0.1905	0.1965	0	432	346	3
2026-02-19	12:58:16.630	21.175	-60.27	18.935	0.77348	0.226676	0.284748	-0.48	0.1905	0.204	0	432	346	3
2026-02-19	12:58:16.650	31.045	-64.365	32.375	1.0553	0.324276	0.824232	-0.489	0.1905	0.2145	0	432	346	3
2026-02-19	12:58:16.670	-6.79	-48.055	41.3	0.914024	0.34282	0.530456	-0.501	0.1875	0.2205	0	432	346	3
2026-02-19	12:58:16.690	-10.08	-46.585	45.15	0.784704	0.163236	0.377956	-0.51	0.189	0.2175	0	432	346	3
2026-02-19	12:58:16.710	-8.12	-52.29	54.81	1.021872	0.245708	0.264008	-0.5175	0.198	0.222	0	432	346	3
2026-02-19	12:58:16.730	10.43	-57.82	62.86	1.083116	0.267424	0.0915	-0.5265	0.204	0.228	0	432	346	3
2026-02-19	12:58:16.750	-29.645	-67.515	61.845	1.066524	0.370392	0.062464	-0.5415	0.207	0.234	0	432	346	3
2026-02-19	12:58:16.770	-79.17	-81.795	56.07	1.075064	0.327692	0.123464	-0.555	0.216	0.2355	0	432	346	3
2026-02-19	12:58:16.790	-76.16	-83.44	56.56	0.964288	0.321836	-0.049288	-0.5655	0.2265	0.2385	0	432	346	3
2026-02-19	12:58:16.810	-55.755	-90.37	53.62	0.922808	0.296216	-0.294752	-0.579	0.2325	0.243	0	412	371	3
2026-02-19	12:58:16.830	-36.96	-104.86	51.38	1.091168	0.326228	-0.093452	-0.5925	0.2415	0.246	0	412	371	3
2026-02-19	12:58:16.850	-31.22	-109.48	45.29	1.05774	0.423828	0.032452	-0.6045	0.252	0.2505	0	412	371	3
2026-02-19	12:58:16.870	9.73	-96.25	31.15	0.885476	0.46848	0.17568	-0.612	0.2565	0.255	0	412	371	3
2026-02-19	12:58:16.890	5.6	-83.65	21.525	0.704428	0.44042	0.215452	-0.612	0.2565	0.255	0	412	371	3
2026-02-19	12:58:16.910	-6.335	-86.345	14.07	0.75274	0.292312	0.266204	-0.6225	0.2595	0.276	0	412	371	3
2026-02-19	12:58:16.930	53.69	-67.165	4.62	1.092388	0.30134	0.554368	-0.6435	0.264	0.297	0	412	371	3
2026-02-19	12:58:16.950	51.8	-45.57	12.915	1.02968	-0.003904	0.538996	-0.654	0.2625	0.303	0	412	371	3
2026-02-19	12:58:16.970	47.67	-25.41	24.255	1.01382	-0.000488	0.310124	-0.6525	0.258	0.3165	0	412	371	3
2026-02-19	12:58:16.990	69.16	-18.795	33.355	1.083116	-0.210084	0.531676	-0.657	0.2565	0.3285	0	412	371	3
2026-02-19	12:58:17.010	127.96	6.65	36.785	1.204628	-0.26474	0.771528	-0.6645	0.2565	0.33	0	394	358	3
2026-02-19	12:58:17.030	161.105	33.81	38.255	0.959896	0.091012	0.74054	-0.6645	0.2565	0.3375	0	394	358	3
2026-02-19	12:58:17.050	104.23	25.41	39.795	1.06262	0.044652	0.49898	-0.6645	0.2535	0.351	0	394	358	3
2026-02-19	12:58:17.070	38.29	29.855	29.015	0.959164	0.064416	0.260836	-0.669	0.252	0.351	0	394	358	3
2026-02-19	12:58:17.090	-16.625	19.25	19.845	1.01992	0.179584	0.117364	-0.6675	0.2595	0.3465	0	394	358	3
2026-02-19	12:58:17.110	-11.095	6.895	9.485	1.074576	0.1281	0.121268	-0.669	0.2625	0.3435	0	394	358	3
2026-02-19	12:58:17.130	6.615	8.19	2.31	0.86864	0.149816	-0.066612	-0.6705	0.2595	0.3465	0	394	358	3
2026-02-19	12:58:17.150	5.95	-8.33	9.415	0.975512	0.055388	-0.156648	-0.6675	0.261	0.348	0	394	358	3
2026-02-19	12:58:17.170	10.815	-20.545	23.31	1.087996	0.042212	-0.103212	-0.669	0.261	0.3465	0	394	358	3
2026-02-19	12:58:17.190	27.51	-19.985	22.575	0.998936	0.16714	-0.021472	-0.6735	0.2655	0.3495	0	394	358	3
2026-02-19	12:58:17.210	34.825	-22.995	17.29	0.977464	0.318176	0.114192	-0.6795	0.2655	0.354	0	381	337	3
2026-02-19	12:58:17.230	30.205	-23.975	12.11	0.977708	0.413336	0.325984	-0.6795	0.2655	0.357	0	381	337	3
2026-02-19	12:58:17.250	10.15	-14.945	2.205	0.833748	0.326472	0.2196	-0.6795	0.267	0.363	0	381	337	3
2026-02-19	12:58:17.270	4.83	-18.025	-0.14	0.976	0.241072	0.10004	-0.684	0.267	0.3675	0	381	337	3
2026-02-19	12:58:17.290	13.58	-32.025	-2.03	0.946964	0.343308	0.153476	-0.6855	0.2685	0.372	0	381	337	3
2026-02-19	12:58:17.310	-13.86	-50.75	-5.985	1.056276	0.2684	0.178852	-0.6855	0.2655	0.3765	0	381	337	3
2026-02-19	12:58:17.330	-33.32	-56.105	-7.035	0.971852	0.01464	0.191052	-0.687	0.2655	0.378	0	381	337	3
2026-02-19	12:58:17.350	-44.1	-48.615	-5.18	1.106784	-0.122976	0.185684	-0.6915	0.2685	0.384	0	381	337	3
2026-02-19	12:58:17.370	-51.66	-40.32	-10.955	1.100196	0.058072	-0.04148	-0.6915	0.2685	0.3915	0	381	337	3
2026-02-19	12:58:17.390	-3.955	-37.66	-17.955	1.061156	-0.138836	0.20008	-0.693	0.264	0.3915	0	381	337	3
2026-02-19	12:58:17.410	-3.465	-25.725	-6.195	1.076772	-0.231312	0.129808	-0.6975	0.261	0.3915	0	370	301	2
2026-02-19	12:58:17.430	35.35	-9.52	21.98	1.125816	-0.397964	0.151524	-0.6975	0.2595	0.3945	0	370	301	2
2026-02-19	12:58:17.450	86.87	1.295	47.6	1.016748	0.17324	-0.111996	-0.6945	0.258	0.3975	0	370	301	2
2026-02-19	12:58:17.470	119.42	-0.595	46.165	1.100684	0.11712	0.26474	-0.7005	0.27	0.408	0	370	301	2
2026-02-19	12:58:17.490	53.34	-1.155	30.345	1.03822	0.2135	0.38064	-0.7035	0.2745	0.411	0	370	301	2
2026-02-19	12:58:17.510	52.43	1.995	14.21	1.092632	0.097356	0.609512	-0.7035	0.2835	0.417	0	370	301	2
2026-02-19	12:58:17.530	83.825	34.125	-3.01	1.156316	0.147376	0.793732	-0.7065	0.2835	0.4185	0	370	301	2
2026-02-19	12:58:17.550	109.375	78.085	-15.54	1.021872	0.168116	0.789096	-0.711	0.2775	0.42	0	370	301	2
2026-02-19	12:58:17.570	150.99	111.44	-24.43	0.833992	0.242048	0.604632	-0.7035	0.27	0.4155	0	370	301	2
2026-02-19	12:58:17.590	199.255	122.255	-26.53	0.775432	0.178364	0.427976	-0.6975	0.2655	0.4065	0	370	301	2
2026-02-19	12:58:17.610	202.37	126.98	-27.65	0.91744	0.287676	0.322568	-0.699	0.2595	0.411	0	362	277	3
2026-02-19	12:58:17.630	164.115	125.055	-30.415	0.90036	0.22326	0.224724	-0.6915	0.246	0.411	0	362	277	3
2026-02-19	12:58:17.650	103.46	118.335	-27.79	0.998692	0.193736	0.109312	-0.681	0.24	0.405	0	362	277	3
2026-02-19	12:58:17.670	40.88	99.505	-34.16	0.953796	0.171044	-0.088328	-0.6795	0.24	0.402	0	362	277	3
2026-02-19	12:58:17.690	30.17	86.94	-40.18	1.0431	0.189832	-0.000976	-0.6735	0.231	0.387	0	362	277	3
2026-02-19	12:58:17.710	11.375	77.42	-45.745	1.09678	0.244976	0.088816	-0.6645	0.222	0.372	0	362	277	3
2026-02-19	12:58:17.730	3.465	65.94	-59.955	1.208044	0.316712	0.250588	-0.6615	0.222	0.3705	0	362	277	3
2026-02-19	12:58:17.750	-1.015	67.34	-73.43	1.166076	0.366488	0.35868	-0.6615	0.222	0.3705	0	362	277	3
2026-02-19	12:58:17.770	-15.12	71.155	-85.365	1.114104	0.42944	0.451156	-0.6285	0.1995	0.3345	0	362	277	3
2026-02-19	12:58:17.790	-28.595	72.24	-91.98	0.959896	0.294996	0.421632	-0.6225	0.198	0.3345	0	362	277	3
2026-02-19	12:58:17.810	-28.525	72.24	-94.22	0.854	0.35258	0.428708	-0.6105	0.1935	0.327	0	356	276	3
2026-02-19	12:58:17.830	-34.79	67.725	-94.115	0.783484	0.368196	0.379664	-0.5955	0.183	0.315	0	356	276	3
2026-02-19	12:58:17.850	-14.77	63.105	-91.28	0.728828	0.350628	0.396012	-0.5805	0.177	0.303	0	356	276	3
2026-02-19	12:58:17.870	-22.715	68.39	-87.08	0.584868	0.461892	0.430904	-0.567	0.171	0.2955	0	356	276	3
2026-02-19	12:58:17.890	-52.08	62.825	-82.775	0.512888	0.426756	0.349652	-0.5565	0.1665	0.2895	0	356	276	3
2026-02-19	12:58:17.910	-40.145	47.32	-75.845	0.578768	0.37454	0.335256	-0.54	0.162	0.2745	0	356	276	3
2026-02-19	12:58:17.930	-22.05	42.455	-73.43	0.546072	0.508496	0.355752	-0.525	0.159	0.2625	0	356	276	3
2026-02-19	12:58:17.950	-39.62	29.33	-67.235	0.5307	0.517768	0.402356	-0.513	0.1605	0.255	0	356	276	3
2026-02-19	12:58:17.970	-72.835	15.995	-59.535	0.539484	0.550708	0.39528	-0.5025	0.1575	0.252	0	356	276	3
2026-02-19	12:58:17.990	-85.05	-3.115	-51.275	0.60268	0.479704	0.386252	-0.4935	0.159	0.2475	0	356	276	3
2026-02-19	12:58:18.010	-69.37	-14.035	-51.1	0.666852	0.661728	0.499956	-0.486	0.1605	0.2445	0	351	290	3
2026-02-19	12:58:18.030	-78.015	-20.265	-52.535	0.674904	0.650748	0.568032	-0.486	0.1605	0.2445	0	351	290	3
2026-02-19	12:58:18.050	-104.3	-25.9	-49	0.750544	0.604632	0.538752	-0.4725	0.1755	0.213	0	351	290	3
2026-02-19	12:58:18.070	-119	-28.875	-40.95	0.74786	0.528504	0.459208	-0.4695	0.18	0.2055	0	351	290	3
2026-02-19	12:58:18.090	-98.42	-28.385	-32.48	0.743468	0.45994	0.456524	-0.471	0.186	0.201	0	351	290	3
2026-02-19	12:58:18.110	-78.435	-21.875	-21.665	0.722484	0.494588	0.478484	-0.4695	0.195	0.1935	0	351	290	3
2026-02-19	12:58:18.130	-92.225	-23.1	-9.695	0.732976	0.491904	0.448228	-0.4635	0.2025	0.1935	0	351	290	3
2026-02-19	12:58:18.150	-93.765	-29.855	-5.53	0.782752	0.466772	0.457744	-0.462	0.213	0.1875	0	351	290	3
2026-02-19	12:58:18.170	-74.48	-27.895	-5.425	0.787388	0.476776	0.498004	-0.4695	0.222	0.1725	0	351	290	3
2026-02-19	12:58:18.190	-64.715	-25.375	-4.305	0.825696	0.506056	0.508984	-0.477	0.228	0.171	0	351	290	3
2026-02-19	12:58:18.210	-67.445	-27.615	-6.055	0.893528	0.458232	0.507276	-0.477	0.237	0.174	0	346	322	3
2026-02-19	12:58:18.230	-67.27	-26.32	-13.58	0.879864	0.423828	0.45018	-0.4785	0.243	0.1665	0	346	322	3
2026-02-19	12:58:18.250	-59.815	-25.935	-20.545	0.870104	0.380152	0.47092	-0.4845	0.246	0.162	0	346	322	3
2026-02-19	12:58:18.270	-63.42	-24.64	-22.12	0.831308	0.343796	0.473848	-0.486	0.2535	0.162	0	346	322	3
2026-02-19	12:58:18.290	-76.86	-28.84	-21.98	0.785924	0.283528	0.44164	-0.486	0.2595	0.1605	0	346	322	3
2026-02-19	12:58:18.310	-68.005	-30.87	-22.68	0.758108	0.258884	0.440664	-0.486	0.2595	0.1605	0	346	322	3
2026-02-19	12:58:18.330	-64.855	-31.675	-21.56	1.170712	0.794464	1.27612	-0.489	0.285	0.147	0	346	322	3
2026-02-19	12:58:18.350	-138.425	15.96	-56.35	1.669448	0.14152	0.947208	-0.498	0.297	0.141	0	346	322	3
2026-02-19	12:58:18.370	62.615	30.135	-52.745	0.245464	-0.197396	0.281576	-0.4935	0.294	0.135	0	346	322	3
2026-02-19	12:58:18.390	6.755	42.175	-65.1	0.609268	0.68686	0.541924	-0.4725	0.2865	0.1455	0	346	322	3
2026-02-19	12:58:18.410	-22.19	-18.13	-34.79	0.91378	-0.238144	0.19032	-0.4695	0.285	0.144	0	341	367	3
2026-02-19	12:58:18.430	77.315	-10.29	-22.47	0.917928	0.047336	0.413824	-0.468	0.285	0.141	0	341	367	3
2026-02-19	12:58:18.450	88.55	-12.46	-10.535	0.89548	0.296216	0.665388	-0.468	0.282	0.1455	0	341	367	3
2026-02-19	12:58:18.470	-1.365	-29.085	-7.35	0.884988	0.282796	0.386496	-0.4665	0.2715	0.1515	0	341	367	3
2026-02-19	12:58:18.490	-3.465	-46.865	-6.685	0.892552	0.089792	0.199592	-0.4725	0.2655	0.1515	0	341	367	3
2026-02-19	12:58:18.510	26.53	-54.845	4.06	1.052616	0.229604	0.461892	-0.48	0.264	0.1545	0	341	367	3
2026-02-19	12:58:18.530	63.385	-50.12	17.395	0.919148	0.161772	0.487268	-0.486	0.2625	0.159	0	341	367	3
2026-02-19	12:58:18.550	85.47	-45.465	19.355	0.915	0.202276	0.366244	-0.492	0.2595	0.1635	0	341	367	3
2026-02-19	12:58:18.570	86.45	-46.97	32.515	0.96868	0.267424	0.354532	-0.4995	0.2535	0.1755	0	341	367	3
2026-02-19	12:58:18.590	73.815	-44.205	46.935	0.875472	0.241072	0.256932	-0.504	0.2505	0.183	0	341	367	3
2026-02-19	12:58:18.610	49.84	-46.935	53.445	0.803736	0.42212	0.508008	-0.522	0.237	0.1965	0	340	405	3
2026-02-19	12:58:18.630	49.28	-51.905	58.275	0.862052	0.36478	0.63928	-0.5325	0.234	0.204	0	340	405	3
2026-02-19	12:58:18.650	47.285	-49.595	56.735	0.835944	0.292556	0.539728	-0.5475	0.2325	0.2115	0	340	405	3
2026-02-19	12:58:18.670	22.26	-47.355	47.775	0.831796	0.305976	0.542412	-0.5565	0.2325	0.2175	0	340	405	3
2026-02-19	12:58:18.690	-0.525	-45.535	44.24	0.968924	0.18666	0.2928	-0.57	0.2355	0.2235	0	340	405	3
2026-02-19	12:58:18.710	11.27	-41.65	50.12	0.964776	0.118096	0.257908	-0.57	0.237	0.2235	0	340	405	3
2026-02-19	12:58:18.730	7.07	-40.67	56.315	0.977952	0.252052	0.523624	-0.5745	0.2445	0.2325	0	340	405	3
2026-02-19	12:58:18.750	-13.615	-37.625	57.12	0.938424	0.152012	0.480436	-0.585	0.246	0.24	0	340	405	3
2026-02-19	12:58:18.770	-5.04	-27.055	57.925	0.969412	0.060268	0.223992	-0.594	0.249	0.24	0	340	405	3
2026-02-19	12:58:18.790	19.25	-20.125	59.535	1.037488	0.077592	0.225456	-0.6	0.258	0.243	0	340	405	3
2026-02-19	12:58:18.810	15.295	-19.215	54.565	1.031144	0.14274	0.304024	-0.6075	0.264	0.246	0	337	421	1
2026-02-19	12:58:18.830	-9.24	-18.515	41.265	0.984784	0.215452	0.14762	-0.6135	0.267	0.2475	0	337	421	1
2026-02-19	12:58:18.850	-16.73	-24.605	36.82	1.006256	0.140056	-0.056852	-0.621	0.27	0.252	0	337	421	1
2026-02-19	12:58:18.870	-17.43	-34.755	46.55	1.157048	0.116388	0.118828	-0.627	0.2715	0.255	0	337	421	1
2026-02-19	12:58:18.890	-33.145	-31.535	41.405	1.096048	0.260348	0.267668	-0.63	0.294	0.2565	0	337	421	1
2026-02-19	12:58:18.910	-52.045	-27.72	18.235	0.99064	0.234484	0.178364	-0.6345	0.294	0.2625	0	337	421	1
2026-02-19	12:58:18.930	-25.2	-25.13	-2.695	0.918172	0.287432	0.023424	-0.6435	0.3	0.2595	0	337	421	1
2026-02-19	12:58:18.950	-8.68	-29.12	-10.815	0.848632	0.246928	-0.223504	-0.6345	0.2925	0.2595	0	337	421	1
2026-02-19	12:58:18.970	-1.015	-45.15	-0.385	0.917196	0.277672	-0.021228	-0.6405	0.303	0.27	0	337	421	1
2026-02-19	12:58:18.990	-5.635	-57.26	5.775	1.172908	0.218868	0.183	-0.654	0.303	0.2685	0	337	421	1
2026-02-19	12:58:19.010	14.35	-48.09	-6.93	0.989176	0.268888	0.091256	-0.6525	0.3015	0.2745	0	333	398	2
2026-02-19	12:58:19.030	8.96	-51.73	-15.505	0.908656	0.17568	0.047824	-0.654	0.297	0.2835	0	333	398	2
2026-02-19	12:58:19.050	-19.53	-64.33	-7.665	1.031632	0.013176	0.13786	-0.6555	0.2955	0.288	0	333	398	2
2026-02-19	12:58:19.070	9.17	-57.505	0.28	1.122644	-0.343796	1.0431	-0.66	0.2985	0.291	0	333	398	2
2026-02-19	12:58:19.090	195.265	6.93	22.05	0.905972	-0.578524	1.44326	-0.6675	0.294	0.3	0	333	398	2
2026-02-19	12:58:19.110	149.45	45.185	20.58	0.871812	-0.027328	0.834724	-0.6675	0.2865	0.306	0	333	398	2
2026-02-19	12:58:19.130	40.39	46.445	28.315	0.985028	0.076616	0.57828	-0.663	0.279	0.3075	0	333	398	2
2026-02-19	12:58:19.150	-38.605	31.675	26.215	0.980148	0.156648	0.194956	-0.663	0.276	0.309	0	333	398	2
2026-02-19	12:58:19.170	-43.085	20.265	17.64	0.997472	0.09028	0.152988	-0.6675	0.2925	0.3105	0	333	398	2
2026-02-19	12:58:19.190	-32.865	15.19	14.035	0.88206	0.049044	0.139324	-0.6645	0.3	0.3	0	333	398	2
2026-02-19	12:58:19.210	-18.06	0.945	27.475	1.075064	-0.100284	0.09516	-0.666	0.3	0.291	0	331	370	3
2026-02-19	12:58:19.230	53.865	0.875	31.01	1.045052	-0.062464	0.12566	-0.666	0.2955	0.291	0	331	370	3
2026-02-19	12:58:19.250	116.795	5.6	26.145	1.009916	0.07515199	0.171532	-0.669	0.312	0.3045	0	331	370	3
2026-02-19	12:58:19.270	106.33	8.155	25.48	0.881084	0.221796	0.169336	-0.6675	0.291	0.3015	0	331	370	3
2026-02-19	12:58:19.290	33.88	-7.07	30.1	0.956968	0.30256	0.067832	-0.6675	0.294	0.3165	0	331	370	3
2026-02-19	12:58:19.310	-1.82	-25.725	24.36	1.0248	0.29768	0.088816	-0.6675	0.294	0.3135	0	331	370	3
2026-02-19	12:58:19.330	-6.055	-34.895	10.99	1.03944	0.312564	0.16348	-0.675	0.2925	0.312	0	331	370	3
2026-02-19	12:58:19.350	-12.46	-38.395	-3.5	1.020408	0.27938	0.18178	-0.6765	0.297	0.318	0	331	370	3
2026-02-19	12:58:19.370	-15.12	-38.99	-8.4	0.960628	0.178364	0.144692	-0.6825	0.303	0.3225	0	331	370	3
2026-02-19	12:58:19.390	-4.235	-39.235	-3.36	0.989176	0.087596	0.07076	-0.6885	0.3045	0.327	0	331	370	3
2026-02-19	12:58:19.410	19.775	-31.99	-0.805	0.976244	0.159332	0.172508	-0.6885	0.306	0.33	0	330	342	3
2026-02-19	12:58:19.430	48.16	-23.835	2.765	0.995032	0.16348	0.294996	-0.6915	0.306	0.3315	0	330	342	3
2026-02-19	12:58:19.450	85.015	-17.99	3.255	0.999912	0.198372	0.318176	-0.693	0.2925	0.348	0	330	342	3
2026-02-19	12:58:19.470	96.635	-5.88	-2.765	0.90402	0.20862	0.412604	-0.6885	0.2895	0.351	0	330	342	3
2026-02-19	12:58:19.490	84.525	4.795	-3.465	0.988932	0.076616	0.5429	-0.693	0.285	0.3555	0	330	342	3
2026-02-19	12:58:19.510	93.66	21.28	1.925	0.975512	0.061488	0.435052	-0.699	0.2805	0.363	0	330	342	3
2026-02-19	12:58:19.530	110.215	32.76	3.57	0.825452	0.12444	0.268156	-0.6915	0.279	0.3585	0	330	342	3
2026-02-19	12:58:19.550	123.585	29.05	8.4	0.892552	0.04636	0.311832	-0.693	0.2685	0.372	0	330	342	3
2026-02-19	12:58:19.570	137.585	34.3	12.215	1.054324	0.148596	0.403088	-0.6945	0.2625	0.372	0	330	342	3
2026-02-19	12:58:19.590	141.925	45.115	10.57	1.101172	0.14884	0.372832	-0.693	0.2625	0.3825	0	330	342	3
2026-02-19	12:58:19.610	142.59	51.625	1.89	1.119716	0.2928	0.37576	-0.6915	0.261	0.3795	0	325	322	3
2026-02-19	12:58:19.630	117.495	55.615	-10.605	1.16876	0.319152	0.380396	-0.693	0.255	0.3825	0	325	322	3
2026-02-19	12:58:19.650	80.92	57.19	-26.495	1.175348	0.322568	0.42944	-0.693	0.249	0.381	0	325	322	3
2026-02-19	12:58:19.670	38.01	62.86	-40.705	1.14192	0.306952	0.400892	-0.687	0.2415	0.3795	0	325	322	3
2026-02-19	12:58:19.690	13.475	65.345	-50.96	1.094584	0.315492	0.364536	-0.678	0.234	0.381	0	325	322	3
2026-02-19	12:58:19.710	-2.24	65.87	-64.505	0.962824	0.301584	0.299144	-0.6765	0.234	0.378	0	325	322	3
2026-02-19	12:58:19.730	2.52	66.745	-69.86	0.888648	0.309148	0.348676	-0.6765	0.234	0.378	0	325	322	3
2026-02-19	12:58:19.750	-1.715	66.85	-70.735	0.764696	0.253028	0.30988	-0.6495	0.204	0.345	0	325	322	3
2026-02-19	12:58:19.770	1.715	60.585	-71.855	0.783484	0.373076	0.331352	-0.6375	0.204	0.3465	0	325	322	3
2026-02-19	12:58:19.790	-11.305	54.355	-75.285	0.739808	0.395768	0.305732	-0.636	0.195	0.3285	0	325	322	3
2026-02-19	12:58:19.810	-18.97	43.995	-79.135	0.735416	0.398696	0.319396	-0.621	0.1845	0.3195	0	318	320	3
2026-02-19	12:58:19.830	-35.49	40.46	-81.48	0.647576	0.397476	0.349652	-0.6045	0.1755	0.309	0	318	320	3
2026-02-19	12:58:19.850	-57.4	29.225	-79.24	0.643428	0.329156	0.31842	-0.5925	0.1695	0.2985	0	318	320	3
2026-02-19	12:58:19.870	-49.21	21.455	-77.945	0.688324	0.408456	0.323056	-0.582	0.174	0.291	0	318	320	3
2026-02-19	12:58:19.890	-41.685	19.005	-75.04	0.663192	0.437736	0.396256	-0.576	0.165	0.2895	0	318	320	3
2026-02-19	12:58:19.910	-55.23	17.815	-69.475	0.684664	0.4758	0.448472	-0.5715	0.165	0.288	0	318	320	3
2026-02-19	12:58:19.930	-73.675	11.9	-63.07	0.7625	0.4758	0.378688	-0.5625	0.165	0.2805	0	318	320	3
2026-02-19	12:58:19.950	-61.425	6.16	-55.93	0.746152	0.435784	0.382592	-0.5475	0.159	0.27	0	318	320	3
2026-02-19	12:58:19.970	-34.3	7.035	-55.44	0.743956	0.537776	0.41114	-0.543	0.153	0.2655	0	318	320	3
2026-02-19	12:58:19.990	-27.72	8.225	-53.445	0.743468	0.577304	0.461404	-0.5445	0.1515	0.264	0	318	320	3
2026-02-19	12:58:20.010	-42.28	9.59	-49.735	0.787144	0.5917	0.44652	-0.5445	0.1515	0.264	0	308	329	3
2026-02-19	12:58:20.030	-47.985	10.29	-46.165	0.763232	0.536068	0.403332	-0.5235	0.153	0.2505	0	308	329	3
2026-02-19	12:58:20.050	-24.64	11.235	-49.7	0.792024	0.600972	0.379908	-0.5055	0.1485	0.243	0	308	329	3
2026-02-19	12:58:20.070	-18.585	14	-55.16	0.7442	0.636108	0.448472	-0.5085	0.156	0.24	0	308	329	3
2026-02-19	12:58:20.090	-58.975	11.69	-55.265	0.757132	0.64294	0.394792	-0.4935	0.156	0.2295	0	308	329	3
2026-02-19	12:58:20.110	-91.7	3.08	-52.22	0.752496	0.548512	0.329644	-0.4935	0.1455	0.2295	0	308	329	3
2026-02-19	12:58:20.130	-89.915	-2.065	-50.54	0.70516	0.508008	0.327204	-0.4845	0.1455	0.21	0	308	329	3
2026-02-19	12:58:20.150	-85.47	-8.155	-46.83	0.670512	0.485804	0.340136	-0.4665	0.159	0.204	0	308	329	3
2026-02-19	12:58:20.170	-85.05	-15.575	-37.905	0.740052	0.434076	0.346236	-0.4725	0.165	0.201	0	308	329	3
2026-02-19	12:58:20.190	-79.66	-22.085	-27.265	0.736636	0.379176	0.392108	-0.4635	0.174	0.1935	0	308	329	3
2026-02-19	12:58:20.210	-68.355	-21.455	-21.245	0.741272	0.451156	0.427244	-0.4695	0.177	0.1785	0	299	344	3
2026-02-19	12:58:20.230	-77.875	-21.245	-17.395	0.760548	0.435296	0.454572	-0.4665	0.183	0.1845	0	299	344	3
2026-02-19	12:58:20.250	-83.265	-25.97	-11.97	0.891576	0.4209	0.43432	-0.465	0.1875	0.174	0	299	344	3
2026-02-19	12:58:20.270	-45.185	-23.59	-9.1	0.852048	0.404552	0.454084	-0.465	0.1935	0.165	0	299	344	3
2026-02-19	12:58:20.290	-37.03	-20.405	-11.795	0.814228	0.440664	0.471164	-0.465	0.1935	0.165	0	299	344	3
2026-02-19	12:58:20.310	-54.495	-22.925	-12.425	0.831552	0.431392	0.426756	-0.4725	0.204	0.165	0	299	344	3
2026-02-19	12:58:20.330	-70.035	-28.35	-12.145	0.779092	0.3904	0.330376	-0.468	0.207	0.1605	0	299	344	3
2026-02-19	12:58:20.350	-40.04	-42.805	-12.95	0.724192	0.234728	0.168848	-0.474	0.222	0.1575	0	299	344	3
2026-02-19	12:58:20.370	18.06	-51.555	-5.11	0.696376	0.145668	0.174704	-0.4725	0.225	0.1635	0	299	344	3
2026-02-19	12:58:20.390	13.755	-60.305	19.32	0.87962	0.598532	0.356972	-0.4785	0.2205	0.1545	0	299	344	3
2026-02-19	12:58:20.410	-161.91	-4.13	-16.03	2.664724	1.030412	2.383148	-0.4905	0.228	0.1665	0	290	363	3
2026-02-19	12:58:20.430	132.37	-22.015	1.015	0.298168	-0.776896	-0.143472	-0.489	0.237	0.144	0	290	363	3
2026-02-19	12:58:20.450	77.42	17.535	-28.385	0.705892	0.87474	0.450424	-0.495	0.222	0.165	0	290	363	3
2026-02-19	12:58:20.470	-26.705	-62.685	12.6	1.200236	-0.173972	0.286944	-0.492	0.2115	0.162	0	290	363	3
2026-02-19	12:58:20.490	-12.39	-46.795	11.305	0.978196	0.065148	0.298168	-0.495	0.2175	0.1695	0	290	363	3
2026-02-19	12:58:20.510	-24.045	-52.5	18.41	0.940864	0.04758	0.38796	-0.507	0.2205	0.177	0	290	363	3
2026-02-19	12:58:20.530	-17.045	-64.925	30.695	0.942328	-0.1708	0.41114	-0.516	0.222	0.1815	0	290	363	3
2026-02-19	12:58:20.550	13.965	-55.405	51.065	1.059692	-0.041236	0.59536	-0.5145	0.2205	0.18	0	290	363	3
2026-02-19	12:58:20.570	17.885	-36.645	66.71	0.884744	0.123708	0.399916	-0.5145	0.219	0.1785	0	290	363	3
2026-02-19	12:58:20.590	30.065	-31.43	69.44	0.7991	-0.016348	0.44774	-0.5505	0.228	0.186	0	290	363	3
2026-02-19	12:58:20.610	12.215	-27.44	82.915	0.975024	0.152012	0.4087	-0.555	0.228	0.198	0	292	387	3
2026-02-19	12:58:20.630	37.415	-20.16	85.4	0.947696	0.162016	0.470676	-0.5715	0.2445	0.204	0	292	387	3
2026-02-19	12:58:20.650	61.67	-4.62	74.69	0.90646	0.396988	0.496052	-0.5775	0.252	0.207	0	292	387	3
2026-02-19	12:58:20.670	62.23	4.795	52.99	0.785924	0.5368	0.447496	-0.5775	0.2475	0.213	0	292	387	3
2026-02-19	12:58:20.690	29.47	-2.205	35.28	0.753228	0.564372	0.172996	-0.585	0.252	0.216	0	292	387	3
2026-02-19	12:58:20.710	-7.805	-22.505	29.925	0.954772	0.44774	0.174704	-0.5835	0.24	0.2205	0	292	387	3
2026-02-19	12:58:20.730	-1.33	-28.945	24.08	0.94062	0.464332	0.262544	-0.585	0.249	0.2145	0	292	387	3
2026-02-19	12:58:20.750	15.33	-23.66	10.395	0.8723	0.475312	0.228872	-0.5955	0.252	0.219	0	292	387	3
2026-02-19	12:58:20.770	25.41	-20.65	0	0.936228	0.45872	0.127124	-0.6	0.246	0.222	0	292	387	3
2026-02-19	12:58:20.790	24.43	-24.15	-8.155	0.952088	0.399916	0.069784	-0.6045	0.249	0.2235	0	292	387	3
2026-02-19	12:58:20.810	10.255	-35.98	-14.84	1.007476	0.25742	0.150792	-0.6075	0.234	0.234	0	301	396	3
2026-02-19	12:58:20.830	6.755	-40.915	-16.415	1.010892	0.19032	0.168116	-0.6	0.243	0.2355	0	301	396	3
2026-02-19	12:58:20.850	21.245	-40.11	-17.08	0.96136	0.146156	0.08686399	-0.6	0.243	0.2355	0	301	396	3
2026-02-19	12:58:20.870	25.025	-44.555	-10.325	1.095804	0.027328	0.27938	-0.609	0.234	0.243	0	301	396	3
2026-02-19	12:58:20.890	5.95	-41.405	-1.4	1.045052	0.036844	0.293532	-0.6225	0.231	0.255	0	301	396	3
2026-02-19	12:58:20.910	8.015	-37.59	3.36	0.971852	-0.016104	0.285236	-0.621	0.237	0.261	0	301	396	3
2026-02-19	12:58:20.930	12.04	-34.93	13.125	0.958188	0.033672	0.337452	-0.624	0.234	0.249	0	301	396	3
2026-02-19	12:58:20.950	9.765	-32.62	15.4	0.96136	0.216672	0.544364	-0.627	0.2325	0.2745	0	301	396	3
2026-02-19	12:58:20.970	7.21	-21.42	12.425	0.883768	0.330376	0.723948	-0.6225	0.231	0.2715	0	301	396	3
2026-02-19	12:58:20.990	-4.585	-1.435	1.75	0.819352	0.419924	0.739808	-0.633	0.2355	0.279	0	301	396	3
2026-02-19	12:58:21.010	15.085	13.79	-5.635	0.64538	0.307196	0.565592	-0.6345	0.228	0.273	0	311	384	2
2026-02-19	12:58:21.030	1.645	15.715	-4.34	0.946232	0.254004	0.565104	-0.63	0.2355	0.2745	0	311	384	2
2026-02-19	12:58:21.050	9.87	17.535	-8.855	0.870592	0.35014	0.616344	-0.6315	0.234	0.2775	0	311	384	2
2026-02-19	12:58:21.070	17.22	22.155	-22.575	0.799344	0.29158	0.427732	-0.636	0.2235	0.27	0	311	384	2
2026-02-19	12:58:21.090	32.305	21.385	-27.685	0.859124	0.365756	0.393328	-0.6315	0.2205	0.2715	0	311	384	2
2026-02-19	12:58:21.110	36.995	10.64	-27.055	0.930128	0.361852	0.244244	-0.618	0.2175	0.2715	0	311	384	2
2026-02-19	12:58:21.130	28.385	-6.93	-33.495	0.843264	0.273524	0.127856	-0.618	0.2175	0.2715	0	311	384	2
2026-02-19	12:58:21.150	1.365	-24.01	-34.615	1.117032	0.147376	0.175192	-0.6105	0.1965	0.2715	0	311	384	2
2026-02-19	12:58:21.170	4.795	-27.93	-26.915	1.03334	0.15982	0.116144	-0.615	0.2055	0.276	0	311	384	2
2026-02-19	12:58:21.190	19.53	-26.95	-18.305	0.970144	0.246928	0.132736	-0.6105	0.21	0.2775	0	311	384	2
2026-02-19	12:58:21.210	4.83	-23.66	-8.68	0.995276	0.336476	0.098332	-0.615	0.198	0.2865	0	317	374	2
2026-02-19	12:58:21.230	-5.74	-24.535	0.175	0.903288	0.371612	-0.029036	-0.615	0.192	0.2835	0	317	374	2
2026-02-19	12:58:21.250	8.54	-32.34	3.64	1.006256	0.420412	0.033672	-0.6105	0.201	0.291	0	317	374	2
2026-02-19	12:58:21.270	9.59	-36.89	1.855	1.001132	0.473604	0.032208	-0.6195	0.201	0.294	0	317	374	2
2026-02-19	12:58:21.290	4.795	-43.995	-0.665	0.879864	0.40504	-0.199836	-0.615	0.195	0.297	0	317	374	2
2026-02-19	12:58:21.310	4.83	-57.33	2.66	0.978684	0.367952	-0.331596	-0.6195	0.1965	0.306	0	317	374	2
2026-02-19	12:58:21.330	-3.08	-79.73	6.965	1.107516	0.37942	-0.336964	-0.6315	0.195	0.312	0	317	374	2
2026-02-19	12:58:21.350	-3.5	-95.97	1.155	1.064084	0.366488	-0.281576	-0.645	0.1935	0.3255	0	317	374	2
2026-02-19	12:58:21.370	0.21	-101.15	-3.08	0.99674	0.31232	-0.246928	-0.6465	0.1905	0.3285	0	317	374	2
2026-02-19	12:58:21.390	1.68	-100.555	1.12	0.96868	0.326472	-0.318908	-0.657	0.2025	0.345	0	317	374	2
2026-02-19	12:58:21.410	34.09	-112.84	8.015	0.899628	0.355752	-0.240096	-0.657	0.204	0.354	0	321	325	3
2026-02-19	12:58:21.430	17.43	-112.7	16.1	0.99918	0.306952	-0.102236	-0.66	0.2025	0.3705	0	321	325	3
2026-02-19	12:58:21.450	24.255	-102.655	25.9	1.006012	0.252784	0.080032	-0.663	0.201	0.387	0	321	325	3
2026-02-19	12:58:21.470	22.26	-86.94	34.09	0.995764	0.28914	0.228384	-0.678	0.204	0.402	0	321	325	3
2026-02-19	12:58:21.490	26.81	-75.81	34.65	1.042368	0.295728	0.33916	-0.6765	0.204	0.414	0	321	325	3
2026-02-19	12:58:21.510	58.065	-52.115	30.31	1.080432	0.190564	0.541436	-0.69	0.204	0.4305	0	321	325	3
2026-02-19	12:58:21.530	48.335	-19.25	29.295	1.190232	0.225944	0.614636	-0.693	0.2115	0.441	0	321	325	3
2026-02-19	12:58:21.550	42.875	15.645	21.105	1.098488	0.20862	0.526552	-0.6885	0.2085	0.4485	0	321	325	3
2026-02-19	12:58:21.570	44.59	38.325	8.785	0.975268	0.137128	0.231556	-0.684	0.2145	0.4515	0	321	325	3
2026-02-19	12:58:21.590	45.15	41.405	7.385	1.125816	-0.010004	-0.040748	-0.6975	0.219	0.4545	0	321	325	3
2026-02-19	12:58:21.610	57.19	45.745	9.205	1.079944	0.090036	-0.117852	-0.699	0.21	0.441	0	324	256	3
2026-02-19	12:58:21.630	59.5	46.515	5.705	0.921588	0.325252	-0.170312	-0.6975	0.2145	0.447	0	324	256	3
2026-02-19	12:58:21.650	53.9	37.485	-2.555	0.842776	0.299144	-0.2928	-0.6945	0.216	0.4455	0	324	256	3
2026-02-19	12:58:21.670	32.41	26.005	-0.595	1.009916	0.13542	-0.315004	-0.6945	0.2175	0.4425	0	324	256	3
2026-02-19	12:58:21.690	54.915	33.705	11.06	1.030168	0.088572	-0.248148	-0.696	0.213	0.438	0	324	256	3
2026-02-19	12:58:21.710	100.59	45.57	15.925	0.939888	0.358924	-0.042212	-0.696	0.2085	0.444	0	324	256	3
2026-02-19	12:58:21.730	88.27	53.13	8.855	0.984784	0.547292	0.176656	-0.696	0.207	0.45	0	324	256	3
2026-02-19	12:58:21.750	46.795	65.59	-12.635	0.986248	0.470432	0.248148	-0.6975	0.2115	0.4485	0	324	256	3
2026-02-19	12:58:21.770	33.04	80.5	-32.165	0.818376	0.233752	0.058072	-0.699	0.2145	0.4485	0	324	256	3
2026-02-19	12:58:21.790	58.94	74.655	-33.32	1.01748	0.085644	-0.023424	-0.6975	0.207	0.4335	0	324	256	3
2026-02-19	12:58:21.810	110.04	69.405	-25.515	1.100928	0.070272	0.10736	-0.687	0.204	0.4275	0	326	195	3
2026-02-19	12:58:21.830	98.63	75.25	-13.37	1.05774	0.214476	0.191052	-0.681	0.1995	0.4335	0	326	195	3
2026-02-19	12:58:21.850	72.73	73.465	-10.465	0.983076	0.39162	0.17202	-0.678	0.1965	0.429	0	326	195	3
2026-02-19	12:58:21.870	84.28	71.365	-14.56	0.866444	0.3782	0.26108	-0.6735	0.186	0.4365	0	326	195	3
2026-02-19	12:58:21.890	104.58	74.97	-19.075	0.884744	0.382592	0.457256	-0.6735	0.186	0.426	0	326	195	3
2026-02-19	12:58:21.910	144.305	78.645	-23.275	0.921588	0.338916	0.494832	-0.6705	0.1875	0.429	0	326	195	3
2026-02-19	12:58:21.930	122.78	102.55	-30.485	0.70028	0.463356	0.569496	-0.669	0.1785	0.435	0	326	195	3
2026-02-19	12:58:21.950	35.875	105.875	-27.265	0.927688	0.560468	0.478972	-0.6705	0.162	0.4365	0	326	195	3
2026-02-19	12:58:21.970	-0.035	112.595	-34.055	1.214876	0.605364	0.37454	-0.657	0.171	0.432	0	326	195	3
2026-02-19	12:58:21.990	27.545	115.22	-48.58	1.180716	0.47458	0.343796	-0.6495	0.1605	0.414	0	326	195	3
2026-02-19	12:58:22.010	37.31	119.875	-65.45	1.067744	0.548024	0.233996	-0.6345	0.15	0.39	0	327	171	3
2026-02-19	12:58:22.030	30.275	106.855	-73.78	1.0858	0.44286	0.203496	-0.6225	0.144	0.3825	0	327	171	3
2026-02-19	12:58:22.050	-2.765	105.84	-75.25	0.964044	0.504104	0.209352	-0.612	0.138	0.375	0	327	171	3
2026-02-19	12:58:22.070	-36.085	89.565	-72.87	0.814716	0.365268	0.146156	-0.606	0.135	0.3705	0	327	171	3
2026-02-19	12:58:22.090	-19.985	77.945	-76.685	0.723948	0.465796	0.071736	-0.5925	0.1275	0.36	0	327	171	3
2026-02-19	12:58:22.110	27.825	59.605	-81.48	0.750788	0.491416	0.196176	-0.5715	0.1275	0.3465	0	327	171	3
2026-02-19	12:58:22.130	10.5	52.92	-77.84	0.65636	0.583404	0.349164	-0.564	0.1125	0.3465	0	327	171	3
2026-02-19	12:58:22.150	-58.205	41.72	-75.985	0.493612	0.51728	0.28426	-0.5505	0.1125	0.342	0	327	171	3
2026-02-19	12:58:22.170	-74.9	32.795	-74.48	0.512888	0.54778	0.383568	-0.5385	0.105	0.333	0	327	171	3
2026-02-19	12:58:22.190	-88.305	35.245	-74.55	0.400892	0.657092	0.332816	-0.522	0.102	0.312	0	327	171	3
2026-02-19	12:58:22.210	-90.51	23.73	-72.24	0.40016	0.609024	0.360876	-0.5115	0.102	0.3105	0	327	184	3
2026-02-19	12:58:22.230	-53.97	21.035	-72.17	0.415288	0.59048	0.4209	-0.489	0.1065	0.2925	0	327	184	3
2026-02-19	12:58:22.250	-40.005	20.09	-69.02	0.479948	0.66734	0.439688	-0.4815	0.102	0.282	0	327	184	3
2026-02-19	12:58:22.270	-37.87	19.005	-58.87	0.546072	0.747128	0.504836	-0.474	0.099	0.2775	0	327	184	3
2026-02-19	12:58:22.290	-47.495	20.195	-53.48	0.529236	0.752252	0.50386	-0.459	0.099	0.2715	0	327	184	3
2026-02-19	12:58:22.310	-57.61	20.125	-53.62	0.506056	0.719556	0.500932	-0.447	0.105	0.2625	0	327	184	3
2026-02-19	12:58:22.330	-53.165	13.37	-54.005	0.531432	0.631716	0.407968	-0.432	0.1065	0.2475	0	327	184	3
2026-02-19	12:58:22.350	-37.205	5.845	-44.66	0.570228	0.674416	0.438224	-0.423	0.108	0.24	0	327	184	3
2026-02-19	12:58:22.370	-57.225	0.14	-36.47	0.587308	0.716628	0.451888	-0.4215	0.1095	0.237	0	327	184	3
2026-02-19	12:58:22.390	-87.08	-12.04	-33.04	0.597312	0.63074	0.442616	-0.4215	0.1095	0.2355	0	327	184	3
2026-02-19	12:58:22.410	-97.02	-22.68	-35.7	0.592432	0.557052	0.404552	-0.417	0.1125	0.225	0	327	225	2
2026-02-19	12:58:22.430	-88.305	-40.565	-25.34	0.831064	0.478972	0.364048	-0.42	0.1185	0.2175	0	327	225	2
2026-02-19	12:58:22.450	-62.37	-48.02	-7.035	0.921588	0.418216	0.406016	-0.4215	0.1275	0.207	0	327	225	2
2026-02-19	12:58:22.470	-56.98	-47.565	3.465	0.898652	0.458232	0.492392	-0.42	0.135	0.201	0	327	225	2
2026-02-19	12:58:22.490	-69.405	-50.96	5.215	0.999668	0.715164	0.633912	-0.4245	0.141	0.1935	0	327	225	2
2026-02-19	12:58:22.510	-144.025	13.16	-46.025	2.116944	1.681648	2.810636	-0.435	0.1485	0.2055	0	327	225	2
2026-02-19	12:58:22.530	32.06	2.45	-49	0.524844	-0.31598	-0.071004	-0.426	0.1605	0.1875	0	327	225	2
2026-02-19	12:58:22.550	-1.785	-15.82	-34.545	0.692228	0.144448	-0.02318	-0.426	0.1605	0.1875	0	327	225	2
2026-02-19	12:58:22.570	-64.365	-44.03	-17.745	1.213656	0.474336	0.459696	-0.4215	0.159	0.186	0	327	225	2
2026-02-19	12:58:22.590	17.465	-59.535	1.155	0.90646	0.068808	0.338184	-0.423	0.1635	0.18	0	327	225	2
2026-02-19	12:58:22.610	13.195	-53.83	18.235	0.925004	0.4514	0.589504	-0.4275	0.162	0.183	0	333	291	3
2026-02-19	12:58:22.630	-30.8	-70.84	31.325	0.80642	0.334036	0.43188	-0.435	0.1605	0.1905	0	333	291	3
2026-02-19	12:58:22.650	-29.715	-78.61	29.4	0.781532	0.222528	0.361852	-0.447	0.165	0.1875	0	333	291	3
2026-02-19	12:58:22.670	14.07	-84.56	33.67	0.824476	0.249368	0.389912	-0.4605	0.165	0.1905	0	333	291	3
2026-02-19	12:58:22.690	45.5	-73.745	41.055	0.845704	0.340624	0.635132	-0.468	0.168	0.1965	0	333	291	3
2026-02-19	12:58:22.710	1.645	-53.445	36.645	0.729804	0.47458	0.536556	-0.4875	0.171	0.2115	0	333	291	3
2026-02-19	12:58:22.730	-18.025	-56.7	20.615	0.759328	0.352824	0.377224	-0.489	0.1695	0.21	0	333	291	3
2026-02-19	12:58:22.750	16.695	-60.2	16.975	0.840092	0.259128	0.396988	-0.4995	0.168	0.201	0	333	291	3
2026-02-19	12:58:22.770	48.265	-56.28	19.495	0.95648	0.319884	0.497272	-0.5085	0.18	0.219	0	333	291	3
2026-02-19	12:58:22.790	29.365	-44.73	15.435	0.947208	0.433588	0.50874	-0.5145	0.171	0.2265	0	333	291	3
2026-02-19	12:58:22.810	7.14	-47.18	1.295	0.844728	0.325252	0.221308	-0.519	0.1665	0.2355	0	345	352	3
2026-02-19	12:58:22.830	13.02	-64.54	7.21	1.036024	0.243512	0.185684	-0.519	0.1665	0.2355	0	345	352	3
2026-02-19	12:58:22.850	23.66	-69.65	17.36	0.97478	0.164212	0.31842	-0.5295	0.1665	0.2415	0	345	352	3
2026-02-19	12:58:22.870	-3.675	-69.825	18.865	1.026508	0.198616	0.546804	-0.5475	0.1695	0.2505	0	345	352	3
2026-02-19	12:58:22.890	-4.095	-58.485	20.65	0.923296	0.121268	0.424072	-0.558	0.171	0.2565	0	345	352	3
2026-02-19	12:58:22.910	19.6	-48.51	23.45	0.916464	0.027084	0.180804	-0.5625	0.1725	0.2625	0	345	352	3
2026-02-19	12:58:22.930	29.295	-43.61	40.25	1.118496	0.16348	0.3416	-0.57	0.1755	0.2685	0	345	352	3
2026-02-19	12:58:22.950	11.62	-39.725	52.465	1.076528	0.244488	0.2806	-0.5775	0.174	0.2745	0	345	352	3
2026-02-19	12:58:22.970	0	-39.69	45.465	0.908656	0.29036	0.168604	-0.5835	0.174	0.2805	0	345	352	3
2026-02-19	12:58:22.990	-23.87	-50.085	37.52	0.941596	0.31354	0.1281	-0.5865	0.177	0.285	0	345	352	3
2026-02-19	12:58:23.010	-18.06	-58.8	34.79	0.938668	0.387716	0.125904	-0.603	0.1845	0.2835	0	353	379	3
2026-02-19	12:58:23.030	-3.92	-56.84	28.735	0.863272	0.58682	0.245708	-0.6045	0.1935	0.2955	0	353	379	3
2026-02-19	12:58:23.050	1.75	-54.95	17.36	0.707112	0.665144	0.310124	-0.6105	0.1935	0.2955	0	353	379	3
2026-02-19	12:58:23.070	-15.435	-54.25	2.94	0.791536	0.658068	0.329156	-0.6285	0.1875	0.3015	0	353	379	3
2026-02-19	12:58:23.090	4.62	-46.865	-6.16	0.82106	0.532164	0.386496	-0.6225	0.201	0.306	0	353	379	3
2026-02-19	12:58:23.110	43.015	-16.345	-16.17	0.808372	0.454816	0.49044	-0.6225	0.201	0.306	0	353	379	3
2026-02-19	12:58:23.130	30.975	-4.13	-18.06	0.90646	0.383324	0.437004	-0.621	0.1965	0.3105	0	353	379	3
2026-02-19	12:58:23.150	18.2	6.545	-18.06	0.993324	0.291336	0.317932	-0.621	0.1875	0.318	0	353	379	3
2026-02-19	12:58:23.170	27.265	16.135	-18.34	0.897432	0.235704	0.162992	-0.6225	0.18	0.324	0	353	379	3
2026-02-19	12:58:23.190	30.94	8.54	-14	0.938424	0.311588	0.126636	-0.6255	0.177	0.324	0	353	379	3
2026-02-19	12:58:23.210	21.42	-5.775	-7.875	1.054324	0.345016	0.093452	-0.624	0.1785	0.324	0	357	372	3
2026-02-19	12:58:23.230	9.31	-12.67	-7.49	1.010648	0.490684	0.153964	-0.621	0.1785	0.327	0	357	372	3
2026-02-19	12:58:23.250	-9.135	-18.2	-10.92	0.905728	0.513132	0.124684	-0.624	0.1755	0.33	0	357	372	3
2026-02-19	12:58:23.270	-12.81	-26.32	-16.135	0.856684	0.56608	0.05002	-0.6255	0.1725	0.3315	0	357	372	3
2026-02-19	12:58:23.290	-30.45	-35.035	-22.085	0.962824	0.583892	0.1647	-0.621	0.1725	0.33	0	357	372	3
2026-02-19	12:58:23.310	-31.5	-32.445	-27.79	0.752252	0.724924	0.221064	-0.6195	0.1725	0.3315	0	357	372	3
2026-02-19	12:58:23.330	-66.78	-50.365	-28.315	0.823988	0.462136	0.326228	-0.621	0.1665	0.3405	0	357	372	3
2026-02-19	12:58:23.350	-65.275	-51.625	-29.365	0.82838	0.160796	0.37332	-0.624	0.171	0.336	0	357	372	3
2026-02-19	12:58:23.370	-24.255	-40.88	-3.815	0.984784	-0.189832	0.563152	-0.6195	0.1635	0.3345	0	357	372	3
2026-02-19	12:58:23.390	-15.75	4.55	17.395	1.067988	0.025376	0.487756	-0.6195	0.1635	0.3315	0	357	372	3
2026-02-19	12:58:23.410	-56.7	17.325	24.395	0.993324	0.144692	0.3599	-0.6195	0.165	0.33	0	354	347	3
2026-02-19	12:58:23.430	-53.06	23.1	21.56	0.884988	0.252296	0.247416	-0.6225	0.171	0.3225	0	354	347	3
2026-02-19	12:58:23.450	-14.875	27.3	15.435	0.829844	0.302316	0.258396	-0.627	0.1815	0.318	0	354	347	3
2026-02-19	12:58:23.470	20.265	35.42	11.9	0.836188	0.336476	0.419192	-0.627	0.1905	0.315	0	354	347	3
2026-02-19	12:58:23.490	-4.83	50.26	12.25	0.965996	0.407236	0.537776	-0.624	0.1905	0.309	0	354	347	3
2026-02-19	12:58:23.510	-24.78	61.81	16.555	0.956724	0.415532	0.443592	-0.6195	0.192	0.3075	0	354	347	3
2026-02-19	12:58:23.530	-16.73	76.125	12.32	1.015284	0.468236	0.394304	-0.6195	0.1905	0.303	0	354	347	3
2026-02-19	12:58:23.550	40.425	82.775	9.59	1.09678	0.451156	0.453108	-0.621	0.1905	0.2895	0	354	347	3
2026-02-19	12:58:23.570	98.455	100.415	-1.855	1.081896	0.502152	0.410896	-0.612	0.1935	0.2835	0	354	347	3
2026-02-19	12:58:23.590	85.715	111.755	-9.415	1.021384	0.594872	0.479216	-0.603	0.189	0.2805	0	354	347	3
2026-02-19	12:58:23.610	38.29	116.62	-20.125	0.93086	0.59048	0.391376	-0.6015	0.1845	0.2775	0	347	336	3
2026-02-19	12:58:23.630	15.4	108.115	-28.665	0.909388	0.552416	0.270108	-0.591	0.1755	0.2745	0	347	336	3
2026-02-19	12:58:23.650	32.27	102.76	-37.975	0.896944	0.530212	0.285968	-0.5835	0.1665	0.267	0	347	336	3
2026-02-19	12:58:23.670	18.62	90.125	-52.675	0.767624	0.525088	0.26962	-0.5565	0.165	0.264	0	347	336	3
2026-02-19	12:58:23.690	-5.04	79.345	-55.685	0.770064	0.540704	0.273036	-0.5445	0.1605	0.255	0	347	336	3
2026-02-19	12:58:23.710	-17.465	67.865	-55.685	0.719068	0.501908	0.267912	-0.5295	0.1545	0.2445	0	347	336	3
2026-02-19	12:58:23.730	-8.295	59.92	-56.035	0.681248	0.50996	0.309636	-0.5175	0.15	0.237	0	347	336	3
2026-02-19	12:58:23.750	-7.07	57.295	-57.715	0.609512	0.51972	0.323544	-0.4995	0.1485	0.228	0	347	336	3
2026-02-19	12:58:23.770	-32.025	50.61	-54.53	0.59536	0.541192	0.379664	-0.486	0.1485	0.2235	0	347	336	3
2026-02-19	12:58:23.790	-56.07	40.39	-48.44	0.592432	0.475312	0.42578	-0.4755	0.1455	0.222	0	347	336	3
2026-02-19	12:58:23.810	-52.85	36.295	-44.1	0.533872	0.454816	0.449204	-0.4635	0.15	0.2145	0	337	339	3
2026-02-19	12:58:23.830	-40.495	37.485	-42.49	0.452864	0.495808	0.383324	-0.456	0.1515	0.2055	0	337	339	3
2026-02-19	12:58:23.850	-38.92	29.505	-34.055	0.510448	0.450668	0.466528	-0.4485	0.1515	0.1965	0	337	339	3
2026-02-19	12:58:23.870	-35	27.195	-23.1	0.647088	0.57096	0.61732	-0.441	0.1575	0.186	0	337	339	3
2026-02-19	12:58:23.890	-31.465	27.825	-16.975	0.712968	0.639036	0.674904	-0.435	0.1575	0.1755	0	337	339	3
2026-02-19	12:58:23.910	-20.405	32.76	-18.76	0.66856	0.673684	0.677588	-0.429	0.1575	0.174	0	337	339	3
2026-02-19	12:58:23.930	-12.285	37.065	-21.735	0.604632	0.694912	0.658068	-0.426	0.162	0.1755	0	337	339	3
2026-02-19	12:58:23.950	-13.475	36.645	-23.03	0.5246	0.650504	0.615856	-0.4185	0.156	0.174	0	337	339	3
2026-02-19	12:58:23.970	-19.075	29.995	-23.135	0.449204	0.59658	0.549	-0.4155	0.159	0.168	0	337	339	3
2026-02-19	12:58:23.990	-24.5	20.79	-21.7	0.38308	0.517524	0.47092	-0.4065	0.162	0.1635	0	337	339	3
2026-02-19	12:58:24.010	-30.065	7.245	-15.645	0.369416	0.458964	0.421876	-0.4005	0.1665	0.1635	0	326	361	3
2026-02-19	12:58:24.030	-37.24	-8.645	-8.75	0.381372	0.454328	0.423584	-0.3975	0.1695	0.1635	0	326	361	3
2026-02-19	12:58:24.050	-39.795	-26.005	-3.045	0.453352	0.472872	0.468724	-0.3945	0.1695	0.1575	0	326	361	3
2026-02-19	12:58:24.070	-46.795	-39.06	-1.155	0.543388	0.545584	0.4758	-0.3975	0.174	0.153	0	326	361	3
2026-02-19	12:58:24.090	-64.085	-52.185	1.12	0.579988	0.50386	0.484828	-0.4035	0.183	0.1485	0	326	361	3
2026-02-19	12:58:24.110	-74.795	-64.925	4.865	0.643428	0.471652	0.515816	-0.4065	0.192	0.1395	0	326	361	3
2026-02-19	12:58:24.130	-74.62	-76.93	11.69	0.768356	0.452864	0.516792	-0.417	0.1995	0.135	0	326	361	3
2026-02-19	12:58:24.150	-76.545	-86.45	16.835	0.880108	0.38308	0.471164	-0.4335	0.21	0.1365	0	326	361	3
2026-02-19	12:58:24.170	-56.175	-91.665	23.24	0.967216	0.32574	0.488	-0.444	0.2175	0.135	0	326	361	3
2026-02-19	12:58:24.190	-40.635	-84.49	27.72	0.9882	0.359656	0.586576	-0.456	0.2235	0.135	0	326	361	3
2026-02-19	12:58:24.210	-60.9	-80.955	30.52	1.032608	0.335012	0.595848	-0.4725	0.225	0.138	0	317	396	3
2026-02-19	12:58:24.230	-73.01	-78.785	30.625	1.081896	0.249856	0.523868	-0.4815	0.225	0.138	0	317	396	3
2026-02-19	12:58:24.250	-35.56	-66.465	26.32	1.016992	0.194468	0.479216	-0.4815	0.225	0.138	0	317	396	3
2026-02-19	12:58:24.270	-20.86	-50.19	18.795	1.262212	0.948184	1.240252	-0.4995	0.246	0.138	0	317	396	3
2026-02-19	12:58:24.290	-22.68	-30.415	-14.91	1.28344	-0.160552	0.34038	-0.5175	0.267	0.1395	0	317	396	3
2026-02-19	12:58:24.310	33.915	-21.035	-8.995	0.52948	0.059536	0.24278	-0.5295	0.2655	0.141	0	317	396	3
2026-02-19	12:58:24.330	-14.49	-31.675	-2.66	0.7015	0.342576	0.205692	-0.5355	0.258	0.147	0	317	396	3
2026-02-19	12:58:24.350	1.26	-66.5	20.545	1.21512	-0.054412	0.379176	-0.5325	0.258	0.1485	0	317	396	3
2026-02-19	12:58:24.370	63.42	-45.955	25.165	0.993568	0.1586	0.417972	-0.5445	0.261	0.1545	0	317	396	3
2026-02-19	12:58:24.390	35.91	-46.095	22.855	0.861808	0.301828	0.337452	-0.552	0.2595	0.162	0	317	396	3
2026-02-19	12:58:24.410	8.61	-56.84	24.325	0.992836	0.184952	0.258152	-0.558	0.258	0.1665	0	312	427	3
2026-02-19	12:58:24.430	23.765	-54.075	20.545	0.906216	0.141764	0.178364	-0.564	0.255	0.1725	0	312	427	3
2026-02-19	12:58:24.450	19.32	-54.39	18.795	0.9394	0.200568	0.335988	-0.5715	0.2595	0.174	0	312	427	3
2026-02-19	12:58:24.470	0.21	-51.66	21.245	1.041636	0.1769	0.437004	-0.579	0.2595	0.183	0	312	427	3
2026-02-19	12:58:24.490	-2.17	-40.53	16.31	0.932568	0.152256	0.342576	-0.585	0.2565	0.189	0	312	427	3
2026-02-19	12:58:24.510	4.025	-35.28	15.435	0.952332	0.154452	0.347456	-0.5925	0.255	0.189	0	312	427	3
2026-02-19	12:58:24.530	5.95	-31.325	18.9	0.979172	0.126392	0.365024	-0.5985	0.255	0.1935	0	312	427	3
2026-02-19	12:58:24.550	-0.84	-27.125	22.19	0.933056	0.117608	0.322812	-0.6045	0.255	0.2055	0	312	427	3
2026-02-19	12:58:24.570	1.96	-26.74	29.33	0.941108	0.0366	0.295728	-0.606	0.258	0.21	0	312	427	3
2026-02-19	12:58:24.590	20.09	-26.355	37.59	1.019676	-0.008784	0.292068	-0.612	0.2655	0.207	0	312	427	3
2026-02-19	12:58:24.610	53.41	-23.31	42.525	1.032852	-0.000976	0.288896	-0.624	0.267	0.207	0	312	431	3
2026-02-19	12:58:24.630	54.985	-22.26	39.62	0.991128	0.126148	0.242292	-0.63	0.267	0.2175	0	312	431	3
2026-02-19	12:58:24.650	41.475	-30.52	35.175	0.973804	0.111996	0.161528	-0.633	0.267	0.2295	0	312	431	3
2026-02-19	12:58:24.670	16.905	-38.885	35.14	0.951112	0.12322	0.149572	-0.639	0.264	0.2355	0	312	431	3
2026-02-19	12:58:24.690	4.095	-49.14	34.37	1.037976	0.175924	0.191052	-0.6495	0.267	0.2385	0	312	431	3
2026-02-19	12:58:24.710	23.1	-47.565	28.14	0.9882	0.240828	0.298168	-0.651	0.2715	0.24	0	312	431	3
2026-02-19	12:58:24.730	29.295	-39.515	14.84	0.886208	0.427	0.3294	-0.654	0.2715	0.2445	0	312	431	3
2026-02-19	12:58:24.750	36.015	-34.545	1.75	0.73932	0.404796	0.386252	-0.6615	0.2685	0.2535	0	312	431	3
2026-02-19	12:58:24.770	-8.4	-32.13	-2.975	0.927688	0.488	0.44652	-0.666	0.2715	0.264	0	312	431	3
2026-02-19	12:58:24.790	2.17	-25.725	-16.625	0.995276	0.457012	0.609756	-0.666	0.276	0.264	0	312	431	3
2026-02-19	12:58:24.810	47.11	8.015	-34.58	0.765184	0.383568	0.656604	-0.6645	0.276	0.258	0	312	413	3
2026-02-19	12:58:24.830	22.715	13.825	-33.285	0.977708	0.369904	0.667828	-0.6645	0.2535	0.2655	0	312	413	3
2026-02-19	12:58:24.850	24.745	29.435	-36.995	0.809836	0.28548	0.585844	-0.6645	0.2475	0.27	0	312	413	3
2026-02-19	12:58:24.870	4.865	36.575	-29.995	0.849852	0.13054	0.42578	-0.66	0.246	0.273	0	312	413	3
2026-02-19	12:58:24.890	10.43	29.96	-5.39	1.13582	-0.048556	0.415288	-0.6525	0.2475	0.2685	0	312	413	3
2026-02-19	12:58:24.910	47.6	37.45	3.185	0.997716	0.113948	0.398452	-0.651	0.24	0.264	0	312	413	3
2026-02-19	12:58:24.930	69.44	35	4.235	0.894016	0.125904	0.313296	-0.645	0.234	0.261	0	312	413	3
2026-02-19	12:58:24.950	104.755	33.88	-1.155	0.742736	0.2684	0.130052	-0.639	0.234	0.2595	0	312	413	3
2026-02-19	12:58:24.970	92.68	15.295	-2.625	0.99552	0.39284	0.178608	-0.6435	0.228	0.2625	0	312	413	3
2026-02-19	12:58:24.990	48.93	-4.27	3.535	1.067744	0.358924	0.20008	-0.642	0.2175	0.267	0	312	413	3
2026-02-19	12:58:25.010	8.715	-7.35	4.445	0.976	0.45506	0.145424	-0.6375	0.216	0.273	0	310	400	3
2026-02-19	12:58:25.030	9.24	-10.01	1.82	0.90768	0.3965	0.089304	-0.6405	0.2145	0.2775	0	310	400	3
2026-02-19	12:58:25.050	21.91	-7.875	1.715	0.9333	0.45018	0.183	-0.6435	0.21	0.276	0	310	400	3
2026-02-19	12:58:25.070	8.61	-11.34	5.915	0.906216	0.416508	0.201788	-0.6465	0.207	0.2775	0	310	400	3
2026-02-19	12:58:25.090	19.53	-16.275	11.865	0.927932	0.351604	0.31842	-0.651	0.204	0.2775	0	310	400	3
2026-02-19	12:58:25.110	38.99	-11.97	10.64	0.876448	0.3416	0.445788	-0.651	0.204	0.2775	0	310	400	3
2026-02-19	12:58:25.130	49.455	-7.07	6.37	0.91256	0.316712	0.43676	-0.642	0.2145	0.297	0	310	400	3
2026-02-19	12:58:25.150	40.67	6.055	2.73	0.807396	0.32574	0.460184	-0.6465	0.2115	0.2955	0	310	400	3
2026-02-19	12:58:25.170	43.085	13.055	-2.94	0.840336	0.331108	0.446276	-0.651	0.207	0.2985	0	310	400	3
2026-02-19	12:58:25.190	58.695	17.395	-1.19	0.86254	0.209108	0.38796	-0.6465	0.204	0.2985	0	310	400	3
2026-02-19	12:58:25.210	88.235	30.345	-0.07	0.894504	0.31598	0.386984	-0.6465	0.1965	0.2985	0	306	383	3
2026-02-19	12:58:25.230	79.59	42.525	-0.07	0.949648	0.316956	0.410408	-0.645	0.195	0.3075	0	306	383	3
2026-02-19	12:58:25.250	44.205	52.08	1.295	1.053348	0.246684	0.391132	-0.6375	0.192	0.303	0	306	383	3
2026-02-19	12:58:25.270	35.315	60.795	-3.64	1.046028	0.384788	0.332572	-0.636	0.186	0.3015	0	306	383	3
2026-02-19	12:58:25.290	47.04	61.46	-14.28	1.050176	0.322568	0.270108	-0.6375	0.183	0.306	0	306	383	3
2026-02-19	12:58:25.310	61.6	62.23	-26.915	0.988932	0.354776	0.278404	-0.6315	0.18	0.306	0	306	383	3
2026-02-19	12:58:25.330	49.315	60.41	-35.945	0.953308	0.36234	0.297192	-0.621	0.174	0.2985	0	306	383	3
2026-02-19	12:58:25.350	18.27	56.21	-38.92	0.987224	0.417484	0.312076	-0.615	0.168	0.2955	0	306	383	3
2026-02-19	12:58:25.370	-19.145	53.165	-42.875	0.852292	0.432856	0.272548	-0.615	0.1695	0.3	0	306	383	3
2026-02-19	12:58:25.390	-18.83	49.035	-46.06	0.804712	0.426024	0.286456	-0.615	0.1695	0.3	0	306	383	3
2026-02-19	12:58:25.410	-15.19	45.535	-49.245	0.743712	0.421632	0.307196	-0.582	0.1545	0.2745	0	298	371	3
2026-02-19	12:58:25.430	-5.39	41.44	-49.665	0.758596	0.458232	0.385276	-0.576	0.153	0.2625	0	298	371	3
2026-02-19	12:58:25.450	-14.77	45.185	-48.685	0.705404	0.50508	0.397964	-0.5625	0.147	0.267	0	298	371	3
2026-02-19	12:58:25.470	-20.16	43.82	-46.515	0.689056	0.46482	0.3843	-0.5535	0.144	0.2595	0	298	371	3
2026-02-19	12:58:25.490	-8.855	46.655	-44.59	0.670756	0.503128	0.404796	-0.543	0.141	0.252	0	298	371	3
2026-02-19	12:58:25.510	-1.68	46.76	-39.34	0.621224	0.404308	0.439932	-0.537	0.141	0.2475	0	298	371	3
2026-02-19	12:58:25.530	-3.605	51.66	-31.955	0.61	0.484828	0.501176	-0.5295	0.141	0.243	0	298	371	3
2026-02-19	12:58:25.550	-15.47	55.195	-22.4	0.563884	0.479948	0.482632	-0.522	0.1365	0.2385	0	298	371	3
2026-02-19	12:58:25.570	-7.595	56.735	-15.925	0.593652	0.54168	0.436516	-0.5145	0.138	0.2295	0	298	371	3
2026-02-19	12:58:25.590	12.32	55.02	-11.27	0.595848	0.49166	0.457256	-0.504	0.1365	0.2295	0	298	371	3
2026-02-19	12:58:25.610	37.87	47.18	-9.59	0.598288	0.435784	0.428952	-0.4935	0.1275	0.2295	0	287	368	3
2026-02-19	12:58:25.630	50.82	42.875	-13.65	0.596336	0.624152	0.461648	-0.492	0.1215	0.2235	0	287	368	3
2026-02-19	12:58:25.650	-28.7	29.855	-16.135	0.569252	0.698084	0.44164	-0.4935	0.1185	0.2235	0	287	368	3
2026-02-19	12:58:25.670	-75.705	13.79	-15.33	0.547048	0.631228	0.363072	-0.4935	0.1185	0.2235	0	287	368	3
2026-02-19	12:58:25.690	-62.265	0.14	-17.5	0.509716	0.52216	0.320372	-0.48	0.1215	0.2145	0	287	368	3
2026-02-19	12:58:25.710	-29.75	-8.435	-18.095	0.545584	0.637328	0.38186	-0.477	0.1425	0.2055	0	287	368	3
2026-02-19	12:58:25.730	-30.03	-22.855	-12.95	0.691496	0.62098	0.44652	-0.459	0.141	0.201	0	287	368	3
2026-02-19	12:58:25.750	-64.225	-33.67	-1.575	0.925492	0.709796	0.518256	-0.471	0.1365	0.195	0	287	368	3
2026-02-19	12:58:25.770	-100.94	-36.33	0.735	1.008696	0.7076	0.53802	-0.4725	0.144	0.192	0	287	368	3
2026-02-19	12:58:25.790	-90.755	-32.795	-8.33	0.968192	0.61976	0.529236	-0.477	0.15	0.1815	0	287	368	3
2026-02-19	12:58:25.810	-70.84	-30.94	-15.575	0.984784	0.599264	0.510204	-0.4815	0.1575	0.1785	0	278	380	3
2026-02-19	12:58:25.830	-72.17	-11.48	-26.775	1.626016	0.792756	1.663348	-0.486	0.1665	0.177	0	278	380	3
2026-02-19	12:58:25.850	4.795	9.275	-19.425	0.772016	0.009028	0.055632	-0.4845	0.165	0.1725	0	278	380	3
2026-02-19	12:58:25.870	18.025	19.635	-30.975	0.526796	0.398696	0.22692	-0.48	0.1635	0.171	0	278	380	3
2026-02-19	12:58:25.890	-15.05	-15.19	-7.07	1.026508	0.24522	0.229116	-0.477	0.168	0.1665	0	278	380	3
2026-02-19	12:58:25.910	16.205	-30.73	10.395	1.0614	0.16836	0.129076	-0.4815	0.171	0.1665	0	278	380	3
2026-02-19	12:58:25.930	27.72	-40.67	17.955	0.87596	0.373808	0.45384	-0.4875	0.1665	0.168	0	278	380	3
2026-02-19	12:58:25.950	-30.765	-58.905	17.045	0.850096	0.335256	0.303292	-0.486	0.1635	0.1695	0	278	380	3
2026-02-19	12:58:25.970	-31.5	-73.325	19.32	0.879864	0.227408	0.137128	-0.507	0.168	0.171	0	278	380	3
2026-02-19	12:58:25.990	-10.29	-87.255	29.015	1.014064	0.232532	0.276452	-0.5025	0.177	0.18	0	278	380	3
2026-02-19	12:58:26.010	10.325	-81.095	32.83	0.960384	0.28304	0.473604	-0.5235	0.1815	0.1815	0	275	398	3
2026-02-19	12:58:26.030	-4.305	-69.93	25.34	0.82838	0.337208	0.489708	-0.5355	0.177	0.1875	0	275	398	3
2026-02-19	12:58:26.050	-17.29	-60.445	17.465	0.802272	0.325252	0.555832	-0.5475	0.1815	0.1965	0	275	398	3
2026-02-19	12:58:26.070	-12.6	-50.54	9.03	0.765916	0.22936	0.414068	-0.5535	0.183	0.201	0	275	398	3
2026-02-19	12:58:26.090	27.125	-44.835	9.73	0.8845	0.253516	0.574376	-0.558	0.183	0.2025	0	275	398	3
2026-02-19	12:58:26.110	25.83	-28.315	17.22	0.87352	0.381128	0.613904	-0.5655	0.189	0.2115	0	275	398	3
2026-02-19	12:58:26.130	11.34	-20.58	14.735	0.743224	0.352336	0.477264	-0.5715	0.1875	0.2145	0	275	398	3
2026-02-19	12:58:26.150	3.78	-23.205	16.87	0.846924	0.314272	0.481168	-0.573	0.1785	0.2145	0	275	398	3
2026-02-19	12:58:26.170	9.345	-26.95	25.795	0.912804	0.2196	0.459208	-0.5745	0.177	0.222	0	275	398	3
2026-02-19	12:58:26.190	13.265	-24.36	29.68	0.848632	0.221308	0.460184	-0.5775	0.1785	0.219	0	275	398	3
2026-02-19	12:58:26.210	12.775	-21.07	28.56	0.881084	0.197152	0.496296	-0.5805	0.183	0.219	0	276	412	3
2026-02-19	12:58:26.230	22.155	-13.475	29.995	0.925248	0.184708	0.399428	-0.585	0.1845	0.2265	0	276	412	3
2026-02-19	12:58:26.250	28.385	-8.785	23.8	0.927932	0.174948	0.402356	-0.5985	0.192	0.2265	0	276	412	3
2026-02-19	12:58:26.270	17.22	-4.76	16.625	0.94916	0.263032	0.4514	-0.606	0.1845	0.234	0	276	412	3
2026-02-19	12:58:26.290	11.445	-3.36	8.855	0.83936	0.307684	0.233752	-0.603	0.183	0.2355	0	276	412	3
2026-02-19	12:58:26.310	34.86	-3.535	5.215	0.884988	0.403088	0.210572	-0.6015	0.1845	0.2385	0	276	412	3
2026-02-19	12:58:26.330	44.24	-1.785	3.465	0.884744	0.49166	0.225944	-0.6135	0.1845	0.2415	0	276	412	3
2026-02-19	12:58:26.350	47.075	-3.15	-7.735	0.79178	0.449204	0.229604	-0.615	0.177	0.243	0	276	412	3
2026-02-19	12:58:26.370	25.55	-8.855	-21.84	0.900604	0.532652	0.182756	-0.6135	0.183	0.249	0	276	412	3
2026-02-19	12:58:26.390	26.075	-15.295	-24.71	0.96502	0.299876	-0.034648	-0.606	0.174	0.2535	0	276	412	3
2026-02-19	12:58:26.410	30.485	-19.845	-26.985	0.92842	0.401624	0.040748	-0.6	0.162	0.2595	0	275	411	3
2026-02-19	12:58:26.430	8.575	-32.585	-28.49	1.06994	0.41602	0.280844	-0.606	0.1635	0.267	0	275	411	3
2026-02-19	12:58:26.450	-12.565	-37.065	-35.42	0.963556	0.325008	-0.053192	-0.6075	0.162	0.27	0	275	411	3
2026-02-19	12:58:26.470	-19.565	-50.33	-42.175	0.936228	0.271328	-0.126148	-0.6075	0.1575	0.2655	0	275	411	3
2026-02-19	12:58:26.490	-26.845	-78.435	-28.805	1.17852	0.227408	0.032452	-0.609	0.1575	0.27	0	275	411	3
2026-02-19	12:58:26.510	-62.09	-92.33	-23.555	1.092876	0.305732	0.048068	-0.609	0.1575	0.2745	0	275	411	3
2026-02-19	12:58:26.530	-61.845	-96.46	-30.415	0.865468	0.293288	-0.035624	-0.618	0.1545	0.2895	0	275	411	3
2026-02-19	12:58:26.550	-52.045	-105.315	-29.75	1.071404	0.3538	-0.0671	-0.6135	0.1635	0.288	0	275	411	3
2026-02-19	12:58:26.570	-8.785	-102.34	-31.535	0.944036	0.418704	0.305732	-0.624	0.159	0.291	0	275	411	3
2026-02-19	12:58:26.590	54.425	-87.115	-41.3	1.020896	0.054168	1.41398	-0.6165	0.1605	0.3075	0	275	411	3
2026-02-19	12:58:26.610	102.375	-5.495	-44.31	0.791292	0.02806	1.451312	-0.627	0.147	0.318	0	276	380	3
2026-02-19	12:58:26.630	-0.455	45.36	-24.85	0.770308	0.692716	0.603412	-0.6255	0.1365	0.324	0	276	380	3
2026-02-19	12:58:26.650	-47.915	56.28	4.515	0.820084	0.601948	0.202276	-0.6135	0.135	0.3165	0	276	380	3
2026-02-19	12:58:26.670	-29.925	50.12	24.71	0.81618	0.548512	0.018544	-0.6195	0.138	0.3075	0	276	380	3
2026-02-19	12:58:26.690	-12.565	38.43	28.035	0.702476	0.567056	-0.03904	-0.615	0.1395	0.3015	0	276	380	3
2026-02-19	12:58:26.710	-6.895	17.955	32.935	0.92476	0.635132	0.073688	-0.612	0.1455	0.2955	0	276	380	3
2026-02-19	12:58:26.730	8.785	2.975	37.24	0.877912	0.559248	0.027816	-0.6135	0.1515	0.2985	0	276	380	3
2026-02-19	12:58:26.750	14.42	-7.7	30.065	0.805688	0.546804	0.08418	-0.618	0.15	0.3	0	276	380	3
2026-02-19	12:58:26.770	7.245	-18.515	20.405	0.829112	0.434564	0.167628	-0.621	0.153	0.2955	0	276	380	3
2026-02-19	12:58:26.790	-8.47	-12.705	12.495	0.878888	0.548756	0.41846	-0.6225	0.156	0.294	0	276	380	3
2026-02-19	12:58:26.810	-64.05	-7.245	13.93	0.881328	0.48678	0.479704	-0.6225	0.156	0.294	0	282	352	3
2026-02-19	12:58:26.830	-58.45	4.13	15.75	0.844484	0.2928	0.40626	-0.63	0.1575	0.309	0	282	352	3
2026-02-19	12:58:26.850	-19.18	25.235	13.545	0.81984	0.395768	0.243268	-0.6315	0.171	0.294	0	282	352	3
2026-02-19	12:58:26.870	-6.23	35.595	20.055	0.904264	0.51118	0.17568	-0.627	0.1725	0.291	0	282	352	3
2026-02-19	12:58:26.890	0	42.595	26.32	1.117032	0.507764	0.295972	-0.6345	0.177	0.2865	0	282	352	3
2026-02-19	12:58:26.910	14.21	56.21	25.13	1.142652	0.689544	0.315492	-0.6285	0.1845	0.2835	0	282	352	3
2026-02-19	12:58:26.930	27.755	68.53	9.17	1.102148	0.729072	0.353312	-0.624	0.183	0.273	0	282	352	3
2026-02-19	12:58:26.950	39.83	76.475	-7.735	1.088728	0.674172	0.34404	-0.6195	0.1785	0.273	0	282	352	3
2026-02-19	12:58:26.970	45.955	83.16	-20.965	0.993812	0.621712	0.363316	-0.615	0.18	0.264	0	282	352	3
2026-02-19	12:58:26.990	26.075	85.47	-27.825	0.90036	0.579012	0.344284	-0.612	0.174	0.267	0	282	352	3
2026-02-19	12:58:27.010	0.035	83.16	-31.29	0.79178	0.456524	0.312808	-0.603	0.168	0.2625	0	289	333	3
2026-02-19	12:58:27.030	-6.23	77.315	-32.13	0.755912	0.444812	0.33794	-0.594	0.1635	0.252	0	289	333	3
2026-02-19	12:58:27.050	-15.155	73.185	-33.985	0.669292	0.421388	0.321836	-0.579	0.1605	0.246	0	289	333	3
2026-02-19	12:58:27.070	-25.935	56.91	-33.53	0.625128	0.427244	0.323544	-0.5685	0.162	0.243	0	289	333	3
2026-02-19	12:58:27.090	-20.65	47.215	-33.04	0.616832	0.4209	0.380396	-0.5685	0.162	0.243	0	289	333	3
2026-02-19	12:58:27.110	-21.98	39.795	-32.27	0.548268	0.44896	0.358924	-0.5475	0.159	0.2175	0	289	333	3
2026-02-19	12:58:27.130	-35.98	28.91	-30.065	0.554368	0.469456	0.38796	-0.5265	0.153	0.2175	0	289	333	3
2026-02-19	12:58:27.150	-49.105	18.69	-25.935	0.624396	0.49898	0.439444	-0.525	0.159	0.2085	0	289	333	3
2026-02-19	12:58:27.170	-45.675	14.245	-25.48	0.637084	0.539728	0.451644	-0.5175	0.1665	0.201	0	289	333	3
2026-02-19	12:58:27.190	-32.55	13.685	-26.53	0.633668	0.532896	0.508496	-0.5145	0.168	0.195	0	289	333	3
2026-02-19	12:58:27.210	-28.35	15.925	-27.195	0.626104	0.565592	0.519964	-0.504	0.1635	0.186	0	293	331	3
2026-02-19	12:58:27.230	-45.745	15.61	-25.445	0.635376	0.560468	0.548756	-0.5055	0.168	0.192	0	293	331	3
2026-02-19	12:58:27.250	-52.99	15.225	-24.15	0.604144	0.526308	0.515572	-0.4935	0.171	0.1755	0	293	331	3
2026-02-19	12:58:27.270	-46.165	15.505	-23.59	0.568032	0.485316	0.491904	-0.4965	0.174	0.171	0	293	331	3
2026-02-19	12:58:27.290	-40.04	14.385	-21.245	0.551684	0.47824	0.500444	-0.492	0.1635	0.168	0	293	331	3
2026-02-19	12:58:27.310	-45.29	8.75	-14.595	0.597556	0.456036	0.499224	-0.492	0.1725	0.1665	0	293	331	3
2026-02-19	12:58:27.330	-42.245	4.235	-9.87	0.6161	0.48434	0.493612	-0.486	0.1815	0.165	0	293	331	3
2026-02-19	12:58:27.350	-17.185	2.695	-7.385	0.620248	0.522404	0.560468	-0.4815	0.183	0.165	0	293	331	3
2026-02-19	12:58:27.370	-28.91	2.415	-3.22	0.625616	0.53192	0.571692	-0.4815	0.183	0.165	0	293	331	3
2026-02-19	12:58:27.390	-54.67	-1.435	3.605	0.613904	0.5002	0.52582	-0.4815	0.189	0.159	0	293	331	3
2026-02-19	12:58:27.410	-55.3	-8.225	11.55	0.648796	0.42822	0.47702	-0.477	0.1995	0.147	0	293	353	3
2026-02-19	12:58:27.430	-44.38	-14.035	19.495	0.752984	0.43676	0.434564	-0.483	0.204	0.1425	0	293	353	3
2026-02-19	12:58:27.450	-28.49	-27.44	30.38	0.922808	0.414556	0.359168	-0.486	0.201	0.144	0	293	353	3
2026-02-19	12:58:27.470	-11.165	-37.66	37.31	0.976732	0.388204	0.3538	-0.4875	0.2085	0.147	0	293	353	3
2026-02-19	12:58:27.490	-14.77	-49.63	38.745	1.001132	0.391864	0.280112	-0.501	0.2235	0.1515	0	293	353	3
2026-02-19	12:58:27.510	-31.535	-67.795	44.485	1.056032	0.303048	0.173728	-0.501	0.225	0.1515	0	293	353	3
2026-02-19	12:58:27.530	-17.185	-89.075	54.705	1.144116	0.198128	0.059536	-0.522	0.2265	0.1515	0	293	353	3
2026-02-19	12:58:27.550	52.465	-98.84	56.595	1.118496	0.156648	0.1098	-0.5385	0.2415	0.162	0	293	353	3
2026-02-19	12:58:27.570	89.565	-90.93	51.345	1.002596	0.246684	0.272548	-0.5445	0.2355	0.1755	0	293	353	3
2026-02-19	12:58:27.590	37.52	-84.07	49.035	0.913048	0.26474	0.37088	-0.5745	0.2265	0.192	0	293	353	3
2026-02-19	12:58:27.610	-133.875	-55.895	30.8	1.5799	1.104832	1.042124	-0.5835	0.228	0.1935	0	292	373	3
2026-02-19	12:58:27.630	-15.855	-52.64	-3.045	1.088972	-0.071004	0.168116	-0.5925	0.231	0.1965	0	292	373	3
2026-02-19	12:58:27.650	84.21	-35.105	-23.38	0.626348	0.303048	0.205204	-0.5925	0.231	0.1965	0	292	373	3
2026-02-19	12:58:27.670	7.245	-61.04	-17.71	1.165344	0.241804	0.169336	-0.612	0.237	0.1995	0	292	373	3
2026-02-19	12:58:27.690	-1.085	-53.48	-11.025	0.982588	-0.011224	-0.136884	-0.612	0.2415	0.216	0	292	373	3
2026-02-19	12:58:27.710	-7.525	-52.465	-3.5	0.841556	0.172508	0.034404	-0.6165	0.2325	0.2145	0	292	373	3
2026-02-19	12:58:27.730	-30.135	-56.35	-7.28	1.30662	0.242048	0.212036	-0.633	0.2265	0.2235	0	292	373	3
2026-02-19	12:58:27.750	9.345	-37.345	-11.55	1.072624	0.029768	0.285968	-0.6315	0.2325	0.2265	0	292	373	3
2026-02-19	12:58:27.770	18.585	-11.83	-3.57	0.922564	0.103944	0.350384	-0.6285	0.228	0.2295	0	292	373	3
2026-02-19	12:58:27.790	12.495	5.32	18.34	1.114104	0.03416	0.505324	-0.639	0.2265	0.237	0	292	373	3
2026-02-19	12:58:27.810	1.61	27.685	37.065	1.04432	0.083692	0.38674	-0.6345	0.2415	0.2325	0	293	370	3
2026-02-19	12:58:27.830	10.99	41.195	42.035	0.982832	0.058316	0.460672	-0.6405	0.237	0.2445	0	293	370	3
2026-02-19	12:58:27.850	2.94	51.765	46.025	0.941352	-0.001708	0.495808	-0.642	0.237	0.2265	0	293	370	3
2026-02-19	12:58:27.870	7.385	50.995	54.32	0.960628	0.058072	0.555832	-0.6345	0.237	0.216	0	293	370	3
2026-02-19	12:58:27.890	23.485	47.705	40.88	0.8418	0.233996	0.568764	-0.627	0.2415	0.2205	0	293	370	3
2026-02-19	12:58:27.910	26.985	38.325	31.43	0.766404	0.112484	0.520208	-0.6225	0.252	0.2175	0	293	370	3
2026-02-19	12:58:27.930	11.97	22.995	33.005	0.948916	0.211548	0.351116	-0.6225	0.252	0.2175	0	293	370	3
2026-02-19	12:58:27.950	6.58	6.79	32.76	1.052372	0.243756	0.4514	-0.636	0.249	0.2055	0	293	370	3
2026-02-19	12:58:27.970	7.14	5.495	11.095	0.815204	0.450668	0.362096	-0.627	0.252	0.2115	0	293	370	3
2026-02-19	12:58:27.990	39.62	0.21	-0.805	0.686372	0.47214	0.354288	-0.6345	0.249	0.21	0	293	370	3
2026-02-19	12:58:28.010	31.43	-7.665	-6.44	0.874496	0.405284	0.307684	-0.6285	0.261	0.21	0	297	367	3
2026-02-19	12:58:28.030	11.9	-10.465	-13.93	0.944524	0.375028	0.401136	-0.63	0.255	0.2205	0	297	367	3
2026-02-19	12:58:28.050	2.905	-3.22	-20.055	0.905972	0.319884	0.402112	-0.6225	0.2505	0.225	0	297	367	3
2026-02-19	12:58:28.070	15.995	4.06	-25.095	0.807152	0.28182	0.293776	-0.63	0.249	0.2145	0	297	367	3
2026-02-19	12:58:28.090	22.54	-2.345	-26.39	0.91256	0.267668	0.292068	-0.63	0.234	0.222	0	297	367	3
2026-02-19	12:58:28.110	13.44	-10.71	-27.51	0.996496	0.28182	0.234972	-0.6285	0.2355	0.228	0	297	367	3
2026-02-19	12:58:28.130	3.255	-18.165	-31.255	0.983808	0.22326	0.183488	-0.6285	0.237	0.231	0	297	367	3
2026-02-19	12:58:28.150	-11.2	-28	-31.395	0.95526	0.187148	0.072468	-0.6225	0.234	0.2265	0	297	367	3
2026-02-19	12:58:28.170	-43.61	-47.915	-31.955	1.0187	0.267424	-0.103944	-0.621	0.2235	0.2325	0	297	367	3
2026-02-19	12:58:28.190	-10.01	-61.635	-22.47	1.082628	0.124684	0.227896	-0.6255	0.231	0.2325	0	297	367	3
2026-02-19	12:58:28.210	-13.335	-52.185	-12.635	0.99186	0.17934	0.392596	-0.6255	0.2295	0.24	0	298	361	3
2026-02-19	12:58:28.230	-6.37	-38.64	-5.075	0.897432	0.237168	0.381372	-0.633	0.2175	0.249	0	298	361	3
2026-02-19	12:58:28.250	10.885	-31.85	4.69	0.820328	0.319396	0.316956	-0.6345	0.2145	0.252	0	298	361	3
2026-02-19	12:58:28.270	5.88	-29.365	14.805	0.930128	0.386008	0.335744	-0.636	0.228	0.255	0	298	361	3
2026-02-19	12:58:28.290	7.42	-24.955	17.92	0.893284	0.427488	0.34038	-0.6375	0.225	0.2625	0	298	361	3
2026-02-19	12:58:28.310	6.335	-19.215	15.12	0.871568	0.379908	0.308416	-0.6435	0.231	0.2595	0	298	361	3
2026-02-19	12:58:28.330	11.2	-14.665	14.91	0.876692	0.324032	0.262056	-0.6465	0.228	0.2535	0	298	361	3
2026-02-19	12:58:28.350	21.945	-9.24	16.94	0.909144	0.395524	0.248636	-0.6525	0.2235	0.273	0	298	361	3
2026-02-19	12:58:28.370	27.405	-9.17	13.51	0.85522	0.46848	0.202764	-0.6585	0.2265	0.264	0	298	361	3
2026-02-19	12:58:28.390	13.02	-14.35	1.365	0.887184	0.538264	0.138104	-0.654	0.225	0.282	0	298	361	3
2026-02-19	12:58:28.410	-5.39	-25.27	-8.26	0.902312	0.41602	-0.04392	-0.6585	0.2325	0.2835	0	296	342	2
2026-02-19	12:58:28.430	1.82	-34.475	-10.885	0.982832	0.381372	-0.102724	-0.657	0.2325	0.2805	0	296	342	2
2026-02-19	12:58:28.450	7.175	-39.795	-10.92	1.066524	0.323788	-0.062708	-0.6555	0.2325	0.285	0	296	342	2
2026-02-19	12:58:28.470	1.12	-37.24	-11.655	1.034316	0.358192	-0.021716	-0.6645	0.2265	0.2925	0	296	342	2
2026-02-19	12:58:28.490	-4.13	-39.34	-11.97	0.962824	0.240584	-0.057828	-0.6645	0.2265	0.2925	0	296	342	2
2026-02-19	12:58:28.510	-3.395	-41.72	-3.71	1.005768	0.224236	-0.008052	-0.666	0.219	0.2925	0	296	342	2
2026-02-19	12:58:28.530	-15.68	-47.425	8.12	1.076528	0.154452	0.04392	-0.675	0.219	0.3045	0	296	342	2
2026-02-19	12:58:28.550	12.005	-38.465	5.11	1.034072	0.17934	0.169824	-0.675	0.216	0.312	0	296	342	2
2026-02-19	12:58:28.570	6.545	-29.12	0	0.990396	0.15372	0.210572	-0.6735	0.225	0.318	0	296	342	2
2026-02-19	12:58:28.590	2.765	-24.01	2.835	0.944524	0.030744	0.125904	-0.681	0.2205	0.321	0	296	342	2
2026-02-19	12:58:28.610	6.895	-20.09	10.29	1.059692	0.129076	0.204716	-0.678	0.2265	0.3225	0	290	302	2
2026-02-19	12:58:28.630	-4.2	-21.63	19.355	1.059936	0.100772	0.199592	-0.69	0.222	0.324	0	290	302	2
2026-02-19	12:58:28.650	-2.31	-17.85	22.89	1.032852	0.145912	0.234728	-0.69	0.2295	0.3285	0	290	302	2
2026-02-19	12:58:28.670	4.725	-14.49	27.685	1.023092	0.15372	0.284016	-0.6975	0.219	0.3315	0	290	302	2
2026-02-19	12:58:28.690	18.445	-7.105	30.94	0.998204	0.220576	0.392596	-0.6915	0.222	0.3375	0	290	302	2
2026-02-19	12:58:28.710	21.7	1.155	30.8	0.939888	0.222528	0.438956	-0.6945	0.234	0.3285	0	290	302	2
2026-02-19	12:58:28.730	59.535	9.45	27.02	0.938424	0.272548	0.545096	-0.7035	0.24	0.342	0	290	302	2
2026-02-19	12:58:28.750	87.85	21	21.07	0.987224	0.232776	0.713944	-0.6975	0.228	0.3375	0	290	302	2
2026-02-19	12:58:28.770	110.285	54.6	4.585	0.819352	0.362096	0.726388	-0.702	0.234	0.3435	0	290	302	2
2026-02-19	12:58:28.790	169.925	77.35	-6.825	0.843996	0.308904	0.737612	-0.7005	0.225	0.3465	0	290	302	2
2026-02-19	12:58:28.810	230.055	105.875	-17.85	0.815204	0.409432	0.657824	-0.7005	0.2175	0.351	0	284	278	3
2026-02-19	12:58:28.830	234.57	121.87	-17.22	0.967704	0.348432	0.701988	-0.6885	0.216	0.3525	0	284	278	3
2026-02-19	12:58:28.850	141.05	145.355	-16.8	1.0553	0.572912	0.488976	-0.6765	0.201	0.369	0	284	278	3
2026-02-19	12:58:28.870	3.99	144.795	-17.045	0.986004	0.65392	0.155672	-0.6705	0.189	0.3675	0	284	278	3
2026-02-19	12:58:28.890	-60.165	119.35	-24.955	0.967948	0.6161	-0.105164	-0.666	0.1935	0.339	0	284	278	3
2026-02-19	12:58:28.910	-36.68	89.425	-43.155	0.93452	0.65636	-0.153232	-0.651	0.195	0.3165	0	284	278	3
2026-02-19	12:58:28.930	-8.225	58.59	-60.095	0.944524	0.661484	-0.024156	-0.636	0.183	0.312	0	284	278	3
2026-02-19	12:58:28.950	-25.445	38.5	-73.115	0.882548	0.686372	0.10858	-0.6255	0.186	0.306	0	284	278	3
2026-02-19	12:58:28.970	-78.47	25.235	-80.99	0.842288	0.703452	0.12566	-0.618	0.174	0.3	0	284	278	3
2026-02-19	12:58:28.990	-106.68	14.665	-85.26	0.793	0.610244	0.122732	-0.6015	0.1725	0.285	0	284	278	3
2026-02-19	12:58:29.010	-92.435	9.835	-86.17	0.782996	0.565592	0.193492	-0.5925	0.171	0.2715	0	281	282	3
2026-02-19	12:58:29.030	-67.13	10.85	-81.55	0.732	0.472872	0.311832	-0.579	0.177	0.2625	0	281	282	3
2026-02-19	12:58:29.050	-57.785	28.28	-69.965	0.677832	0.532652	0.443104	-0.57	0.171	0.255	0	281	282	3
2026-02-19	12:58:29.070	-69.405	35.525	-57.47	0.721264	0.502152	0.439444	-0.5655	0.1695	0.246	0	281	282	3
2026-02-19	12:58:29.090	-70.07	44.275	-45.43	0.706868	0.55266	0.419192	-0.552	0.1665	0.234	0	281	282	3
2026-02-19	12:58:29.110	-61.88	45.78	-38.43	0.67466	0.491904	0.377712	-0.54	0.168	0.222	0	281	282	3
2026-02-19	12:58:29.130	-42.245	42.7	-36.085	0.629032	0.528992	0.360632	-0.537	0.171	0.216	0	281	282	3
2026-02-19	12:58:29.150	-7.105	35.945	-38.29	0.643672	0.566324	0.396988	-0.531	0.168	0.219	0	281	282	3
2026-02-19	12:58:29.170	5.32	32.83	-38.885	0.628788	0.60756	0.511668	-0.519	0.1695	0.201	0	281	282	3
2026-02-19	12:58:29.190	-31.815	26.215	-36.155	0.569008	0.526308	0.476044	-0.513	0.159	0.2055	0	281	282	3
2026-02-19	12:58:29.210	-60.795	18.62	-33.6	0.569984	0.519232	0.427976	-0.507	0.1635	0.207	0	281	291	3
2026-02-19	12:58:29.230	-62.125	8.96	-30.065	0.613904	0.507032	0.410896	-0.498	0.177	0.192	0	281	291	3
2026-02-19	12:58:29.250	-56.945	-0.28	-21.315	0.708088	0.447984	0.472872	-0.5055	0.1755	0.186	0	281	291	3
2026-02-19	12:58:29.270	-64.19	-3.395	-12.88	0.716384	0.508252	0.506056	-0.495	0.18	0.1815	0	281	291	3
2026-02-19	12:58:29.290	-92.19	-8.82	-6.965	0.69296	0.481168	0.47336	-0.495	0.186	0.1785	0	281	291	3
2026-02-19	12:58:29.310	-104.65	-18.97	-3.29	0.738832	0.44652	0.481656	-0.495	0.189	0.171	0	281	291	3
2026-02-19	12:58:29.330	-61.985	-30.45	8.89	0.857904	0.372588	0.4758	-0.5085	0.198	0.1605	0	281	291	3
2026-02-19	12:58:29.350	6.545	-26.005	12.11	0.931104	0.425536	0.606096	-0.513	0.204	0.165	0	281	291	3
2026-02-19	12:58:29.370	14.315	-15.225	14.665	0.86254	0.464576	0.65758	-0.5175	0.213	0.168	0	281	291	3
2026-02-19	12:58:29.390	-28.385	-16.38	17.745	0.887184	0.520696	0.582184	-0.5205	0.216	0.1635	0	281	291	3
2026-02-19	12:58:29.410	-42.63	-29.12	11.795	0.888648	0.4514	0.48556	-0.5265	0.219	0.162	0	281	320	3
2026-02-19	12:58:29.430	-36.47	-35.07	1.575	0.855464	0.431148	0.494588	-0.5295	0.2205	0.1635	0	281	320	3
2026-02-19	12:58:29.450	-58.73	-45.955	-0.245	0.891088	0.32696	0.454816	-0.531	0.225	0.159	0	281	320	3
2026-02-19	12:58:29.470	-74.725	-52.99	6.72	0.959408	0.190808	0.359656	-0.5385	0.2295	0.1575	0	281	320	3
2026-02-19	12:58:29.490	-63.245	-51.555	15.68	0.919636	0.13054	0.309392	-0.5505	0.2415	0.165	0	281	320	3
2026-02-19	12:58:29.510	-35.525	-54.285	16.52	0.891332	0.092964	0.273524	-0.5505	0.249	0.1605	0	281	320	3
2026-02-19	12:58:29.530	-34.895	-60.27	17.85	0.953796	0.113948	0.227408	-0.567	0.252	0.162	0	281	320	3
2026-02-19	12:58:29.550	-97.615	-57.155	29.54	1.569164	1.026264	0.999424	-0.579	0.255	0.1665	0	281	320	3
2026-02-19	12:58:29.570	-60.2	-29.855	5.18	1.40422	-0.469944	0.274988	-0.5925	0.264	0.1665	0	281	320	3
2026-02-19	12:58:29.590	67.375	14.525	-34.405	0.338428	0.456036	0.375516	-0.5835	0.2805	0.1635	0	281	320	3
2026-02-19	12:58:29.610	-75.95	-27.09	-43.12	0.85278	0.300608	0.190076	-0.588	0.2655	0.153	0	282	354	3
2026-02-19	12:58:29.630	-76.195	-40.88	-28.105	0.944036	-0.054656	0.191052	-0.5925	0.2715	0.156	0	282	354	3
2026-02-19	12:58:29.650	1.19	-29.4	-18.095	0.933544	-0.050508	0.345748	-0.5985	0.276	0.1605	0	282	354	3
2026-02-19	12:58:29.670	58.695	-21.875	-17.045	0.877912	-0.023668	0.538996	-0.5955	0.27	0.162	0	282	354	3
2026-02-19	12:58:29.690	57.26	-12.845	-7.875	1.004304	0.141032	0.613904	-0.591	0.2655	0.168	0	282	354	3
2026-02-19	12:58:29.710	37.835	-9.03	4.27	0.9394	0.102724	0.220088	-0.594	0.261	0.1725	0	282	354	3
2026-02-19	12:58:29.730	45.08	-12.88	9.87	1.053592	0.044896	0.250588	-0.5985	0.2595	0.171	0	282	354	3
2026-02-19	12:58:29.750	18.235	-18.62	5.25	1.08092	0.21228	0.339648	-0.606	0.2475	0.177	0	282	354	3
2026-02-19	12:58:29.770	10.29	-21.035	3.255	1.015772	0.070516	0.4209	-0.6015	0.24	0.183	0	282	354	3
2026-02-19	12:58:29.790	14.455	-12.18	7.07	0.888404	0.044408	0.364292	-0.612	0.246	0.1845	0	282	354	3
2026-02-19	12:58:29.810	4.13	-12.145	21.385	0.966972	0.034892	0.475312	-0.6135	0.249	0.1815	0	289	376	3
2026-02-19	12:58:29.830	-1.68	-12.46	33.88	1.00284	0.014152	0.505324	-0.6165	0.249	0.195	0	289	376	3
2026-02-19	12:58:29.850	5.32	-7.875	32.27	0.931836	0.144448	0.463356	-0.6255	0.246	0.1875	0	289	376	3
2026-02-19	12:58:29.870	21.63	-7.42	30.38	0.907192	0.1342	0.223016	-0.6165	0.261	0.1905	0	289	376	3
2026-02-19	12:58:29.890	52.325	-13.685	31.5	0.993568	0.35746	-0.0427	-0.624	0.2535	0.1965	0	289	376	3
2026-02-19	12:58:29.910	46.235	-28.21	19.635	0.897676	0.537044	0.053436	-0.624	0.2535	0.1965	0	289	376	3
2026-02-19	12:58:29.930	-0.665	-49.665	5.565	0.985516	0.44896	0.13664	-0.63	0.249	0.204	0	289	376	3
2026-02-19	12:58:29.950	-8.33	-58.065	1.12	0.975512	0.307928	0.227164	-0.636	0.249	0.2145	0	289	376	3
2026-02-19	12:58:29.970	-7.525	-56.42	-5.95	0.943792	0.251808	0.278892	-0.642	0.2535	0.222	0	289	376	3
2026-02-19	12:58:29.990	-9.31	-49.84	-8.575	0.920612	0.231068	0.515328	-0.6495	0.252	0.2265	0	289	376	3
2026-02-19	12:58:30.010	-25.515	-32.83	-13.335	0.866444	0.408944	0.599996	-0.6555	0.252	0.231	0	296	378	2
2026-02-19	12:58:30.030	-20.685	-16.345	-22.575	0.709552	0.301096	0.4941	-0.6585	0.255	0.234	0	296	378	2
2026-02-19	12:58:30.050	-7.7	-5.075	-18.97	0.849608	0.34038	0.704672	-0.657	0.258	0.2325	0	296	378	2
2026-02-19	12:58:30.070	14.035	6.965	-9.555	0.848144	0.371368	0.647088	-0.654	0.249	0.234	0	296	378	2
2026-02-19	12:58:30.090	34.685	16.695	-19.355	0.688812	0.473848	0.46604	-0.657	0.255	0.2355	0	296	378	2
2026-02-19	12:58:30.110	53.795	8.12	-23.975	0.769332	0.527772	0.421388	-0.654	0.246	0.2355	0	296	378	2
2026-02-19	12:58:30.130	60.935	-4.585	-21.56	0.770552	0.600484	0.22448	-0.6465	0.2415	0.243	0	296	378	2
2026-02-19	12:58:30.150	49.91	-18.585	-26.53	0.88694	0.65758	0.365268	-0.6495	0.243	0.243	0	296	378	2
2026-02-19	12:58:30.170	5.81	-26.04	-40.6	0.805444	0.501664	0.395524	-0.6495	0.225	0.2475	0	296	378	2
2026-02-19	12:58:30.190	-14.42	-24.325	-46.935	0.80642	0.457988	0.205936	-0.6495	0.225	0.2475	0	296	378	2
2026-02-19	12:58:30.210	25.69	-16.275	-26.18	0.977464	0.23912	0.397964	-0.645	0.2175	0.252	0	300	379	2
2026-02-19	12:58:30.230	29.68	3.5	-11.2	0.922564	0.316468	0.429928	-0.645	0.204	0.2565	0	300	379	2
2026-02-19	12:58:30.250	12.565	8.155	-8.19	0.935496	0.262056	0.41846	-0.648	0.201	0.2595	0	300	379	2
2026-02-19	12:58:30.270	12.915	14.98	-1.61	0.920856	0.17812	0.366976	-0.645	0.201	0.2565	0	300	379	2
2026-02-19	12:58:30.290	40.425	21.805	4.235	0.937692	0.248392	0.401136	-0.6405	0.2025	0.2565	0	300	379	2
2026-02-19	12:58:30.310	42.945	29.82	4.445	0.899628	0.355508	0.500688	-0.6405	0.1995	0.258	0	300	379	2
2026-02-19	12:58:30.330	22.785	35.525	4.2	0.894016	0.361852	0.631716	-0.636	0.189	0.255	0	300	379	2
2026-02-19	12:58:30.350	21.07	37.38	7.63	0.909144	0.159088	0.577548	-0.63	0.1845	0.2565	0	300	379	2
2026-02-19	12:58:30.370	24.71	52.675	17.255	0.795684	0.255956	0.475068	-0.633	0.192	0.258	0	300	379	2
2026-02-19	12:58:30.390	14.42	55.02	26.285	0.72224	0.268888	0.400648	-0.6315	0.1965	0.2655	0	300	379	2
2026-02-19	12:58:30.410	31.395	57.05	30.59	0.850096	0.35136	0.478728	-0.627	0.201	0.2505	0	301	387	2
2026-02-19	12:58:30.430	48.475	67.62	28.42	1.017724	0.554368	0.530456	-0.624	0.198	0.2475	0	301	387	2
2026-02-19	12:58:30.450	61.88	77.84	16.555	1.075308	0.667584	0.62586	-0.627	0.192	0.249	0	301	387	2
2026-02-19	12:58:30.470	52.185	92.96	-7.455	0.989664	0.72956	0.535092	-0.627	0.192	0.249	0	301	387	2
2026-02-19	12:58:30.490	21.735	88.515	-21.665	0.921344	0.678076	0.425048	-0.612	0.1905	0.2385	0	301	387	2
2026-02-19	12:58:30.510	4.62	79.31	-31.15	0.858148	0.53802	0.406016	-0.591	0.1845	0.2325	0	301	387	2
2026-02-19	12:58:30.530	-2.73	70.805	-38.115	0.81618	0.5246	0.366488	-0.579	0.18	0.2325	0	301	387	2
2026-02-19	12:58:30.550	-5.355	60.27	-44.17	0.768356	0.504592	0.355508	-0.5715	0.174	0.2235	0	301	387	2
2026-02-19	12:58:30.570	-3.815	51.45	-46.305	0.740296	0.479704	0.385276	-0.5625	0.1665	0.2145	0	301	387	2
2026-02-19	12:58:30.590	-20.72	47.425	-47.425	0.69784	0.556808	0.435296	-0.546	0.162	0.207	0	301	387	2
2026-02-19	12:58:30.610	-52.99	38.78	-43.54	0.6283	0.416752	0.373808	-0.534	0.162	0.2025	0	298	404	3
2026-02-19	12:58:30.630	-51.835	29.785	-38.99	0.625128	0.416752	0.388204	-0.5295	0.162	0.192	0	298	404	3
2026-02-19	12:58:30.650	-33.425	24.57	-36.82	0.554368	0.422364	0.376004	-0.5205	0.1635	0.186	0	298	404	3
2026-02-19	12:58:30.670	-15.96	18.55	-31.5	0.574376	0.474336	0.46238	-0.5145	0.168	0.186	0	298	404	3
2026-02-19	12:58:30.690	-29.015	16.065	-25.76	0.568764	0.556808	0.508496	-0.5085	0.1635	0.183	0	298	404	3
2026-02-19	12:58:30.710	-42.98	12.18	-21.175	0.588772	0.525088	0.536312	-0.501	0.165	0.18	0	298	404	3
2026-02-19	12:58:30.730	-32.76	13.23	-19.88	0.577548	0.54168	0.562908	-0.501	0.1755	0.177	0	298	404	3
2026-02-19	12:58:30.750	-20.09	16.45	-18.83	0.547048	0.624152	0.583404	-0.4935	0.1665	0.1695	0	298	404	3
2026-02-19	12:58:30.770	-36.645	12.67	-17.675	0.534116	0.553392	0.562176	-0.4875	0.168	0.1665	0	298	404	3
2026-02-19	12:58:30.790	-30.66	9.555	-17.22	0.508252	0.466772	0.531188	-0.4785	0.177	0.159	0	298	404	3
2026-02-19	12:58:30.810	-12.18	9.205	-15.015	0.48678	0.49044	0.52582	-0.4785	0.1785	0.1545	0	292	421	3
2026-02-19	12:58:30.830	-12.6	7.21	-8.225	0.492392	0.502884	0.563152	-0.48	0.1725	0.156	0	292	421	3
2026-02-19	12:58:30.850	-33.67	3.885	1.54	0.519476	0.527284	0.546804	-0.477	0.1755	0.156	0	292	421	3
2026-02-19	12:58:30.870	-39.13	-0.735	6.125	0.569984	0.527772	0.54656	-0.4755	0.1815	0.1515	0	292	421	3
2026-02-19	12:58:30.890	-31.535	-1.96	8.085	0.618784	0.547292	0.583404	-0.4785	0.1845	0.1455	0	292	421	3
2026-02-19	12:58:30.910	-28.35	-0.665	10.675	0.619272	0.524112	0.557052	-0.48	0.186	0.144	0	292	421	3
2026-02-19	12:58:30.930	-30.345	0.07	13.125	0.611708	0.483364	0.5124	-0.477	0.1935	0.135	0	292	421	3
2026-02-19	12:58:30.950	-34.755	-6.195	14.91	0.596824	0.417972	0.46604	-0.477	0.201	0.1275	0	292	421	3
2026-02-19	12:58:30.970	-36.68	-15.89	14.315	0.589992	0.40748	0.448228	-0.48	0.204	0.1275	0	292	421	3
2026-02-19	12:58:30.990	-36.89	-28.63	14.105	0.644404	0.38918	0.428464	-0.48	0.204	0.138	0	292	421	3
2026-02-19	12:58:31.010	-47.18	-40.53	16.625	0.685884	0.338672	0.427732	-0.4905	0.21	0.129	0	284	442	3
2026-02-19	12:58:31.030	-53.935	-61.88	22.19	0.75884	0.254248	0.32574	-0.489	0.2205	0.1245	0	284	442	3
2026-02-19	12:58:31.050	-41.195	-82.39	32.34	0.886452	0.124928	0.1403	-0.501	0.225	0.123	0	284	442	3
2026-02-19	12:58:31.070	19.145	-104.545	48.51	1.031632	0.03416	0.137128	-0.5205	0.234	0.129	0	284	442	3
2026-02-19	12:58:31.090	52.885	-107.555	57.75	1.03334	0.113948	0.267424	-0.5385	0.24	0.138	0	284	442	3
2026-02-19	12:58:31.110	14.98	-110.495	60.55	0.973804	0.208132	0.292312	-0.5565	0.24	0.1485	0	284	442	3
2026-02-19	12:58:31.130	-27.545	-118.16	65.415	1.072868	0.165676	0.272548	-0.573	0.2415	0.165	0	284	442	3
2026-02-19	12:58:31.150	-140.77	-100.065	57.155	2.214056	1.97396	1.720932	-0.597	0.2505	0.1725	0	284	442	3
2026-02-19	12:58:31.170	0.455	-82.81	-4.34	1.790716	-0.889624	0.589992	-0.618	0.267	0.174	0	284	442	3
2026-02-19	12:58:31.190	173.88	20.755	-50.4	0.230092	0.190808	0.132004	-0.6225	0.27	0.177	0	284	442	3
2026-02-19	12:58:31.210	-4.76	-22.925	-17.08	0.691008	0.385032	0.188124	-0.6195	0.252	0.1845	0	281	450	3
2026-02-19	12:58:31.230	-89.18	-66.85	9.31	1.148996	-0.276208	0.127124	-0.6225	0.246	0.1875	0	281	450	3
2026-02-19	12:58:31.250	-18.83	-44.555	15.33	0.989176	-0.012444	0.212036	-0.6285	0.2565	0.186	0	281	450	3
2026-02-19	12:58:31.270	10.955	-40.6	24.255	1.099952	0.061732	0.40626	-0.6285	0.2625	0.186	0	281	450	3
2026-02-19	12:58:31.290	19.845	-31.815	29.505	1.04798	0.108336	0.43676	-0.6405	0.2715	0.198	0	281	450	3
2026-02-19	12:58:31.310	17.78	-23.94	30.45	0.929396	0.133956	0.294996	-0.642	0.2715	0.201	0	281	450	3
2026-02-19	12:58:31.330	19.495	-28.56	30.485	0.928664	0.203496	0.166408	-0.651	0.267	0.201	0	281	450	3
2026-02-19	12:58:31.350	19.95	-43.085	25.865	0.939644	0.322324	0.287188	-0.6585	0.2655	0.207	0	281	450	3
2026-02-19	12:58:31.370	-32.41	-58.555	16.38	0.9882	0.342576	0.3538	-0.66	0.27	0.219	0	281	450	3
2026-02-19	12:58:31.390	-92.855	-64.435	7.245	0.904752	0.213988	0.286944	-0.6675	0.2745	0.2265	0	281	450	3
2026-02-19	12:58:31.410	-124.285	-67.41	3.08	0.898408	0.156404	0.204472	-0.6765	0.282	0.222	0	289	440	3
2026-02-19	12:58:31.430	-93.835	-73.43	-0.49	1.020652	0.043188	0.154696	-0.684	0.294	0.2265	0	289	440	3
2026-02-19	12:58:31.450	-22.68	-67.62	-1.26	1.054812	-0.06222	0.256932	-0.6915	0.3045	0.2325	0	289	440	3
2026-02-19	12:58:31.470	7.42	-50.89	4.48	1.047248	0.01952	0.388936	-0.7005	0.3075	0.234	0	289	440	3
2026-02-19	12:58:31.490	2.415	-34.825	8.47	1.0309	-0.032696	0.327448	-0.708	0.303	0.2415	0	289	440	3
2026-02-19	12:58:31.510	10.5	-20.195	11.935	0.996252	-0.050508	0.282064	-0.708	0.306	0.2505	0	289	440	3
2026-02-19	12:58:31.530	25.165	-6.86	18.69	1.045296	-0.089792	0.284504	-0.708	0.309	0.2535	0	289	440	3
2026-02-19	12:58:31.550	46.375	5.95	24.395	1.075064	-0.084668	0.285236	-0.711	0.3045	0.255	0	289	440	3
2026-02-19	12:58:31.570	62.09	11.795	25.445	1.061644	-0.030012	0.293288	-0.7125	0.306	0.261	0	289	440	3
2026-02-19	12:58:31.590	42	9.31	23.975	1.01504	-0.030012	0.23546	-0.7125	0.3075	0.264	0	289	440	3
2026-02-19	12:58:31.610	5.32	1.925	28.28	1.033584	-0.033428	0.238144	-0.7125	0.3075	0.264	0	300	412	3
2026-02-19	12:58:31.630	6.02	0.105	27.86	0.995032	-0.00122	0.25986	-0.714	0.303	0.264	0	300	412	3
2026-02-19	12:58:31.650	25.585	1.505	21.21	0.980636	0.109556	0.30866	-0.714	0.3045	0.264	0	300	412	3
2026-02-19	12:58:31.670	44.87	6.37	12.495	0.946476	0.204472	0.362828	-0.7125	0.312	0.261	0	300	412	3
2026-02-19	12:58:31.690	43.4	9.695	-0.245	0.873764	0.272792	0.336232	-0.714	0.309	0.2625	0	300	412	3
2026-02-19	12:58:31.710	17.85	10.64	-5.95	0.920368	0.29402	0.339892	-0.7125	0.3045	0.2655	0	300	412	3
2026-02-19	12:58:31.730	2.345	13.02	-9.695	0.87718	0.27328	0.285968	-0.708	0.306	0.2655	0	300	412	3
2026-02-19	12:58:31.750	-3.99	15.54	-11.445	0.9028	0.270596	0.32208	-0.705	0.3045	0.261	0	300	412	3
2026-02-19	12:58:31.770	6.09	19.495	-12.425	0.9394	0.254248	0.316224	-0.7065	0.297	0.2595	0	300	412	3
2026-02-19	12:58:31.790	23.45	24.885	-18.375	0.903044	0.25132	0.313784	-0.7065	0.2955	0.2565	0	300	412	3
2026-02-19	12:58:31.810	34.405	24.71	-22.645	0.90036	0.169092	0.264496	-0.702	0.2955	0.2535	0	307	382	3
2026-02-19	12:58:31.830	33.845	23.695	-18.13	0.909632	0.168604	0.284016	-0.6945	0.291	0.2535	0	307	382	3
2026-02-19	12:58:31.850	31.675	21.91	-12.355	0.993568	0.192272	0.310856	-0.6885	0.2835	0.2505	0	307	382	3
2026-02-19	12:58:31.870	60.69	26.845	-16.345	0.936716	0.213256	0.286212	-0.6855	0.279	0.2505	0	307	382	3
2026-02-19	12:58:31.890	77.28	24.255	-15.89	0.834968	0.249856	0.191052	-0.6855	0.2775	0.2535	0	307	382	3
2026-02-19	12:58:31.910	51.03	10.395	-4.165	0.953552	0.418216	0.226188	-0.681	0.267	0.258	0	307	382	3
2026-02-19	12:58:31.930	39.13	1.015	-0.07	0.99796	0.54412	0.29646	-0.6765	0.255	0.2565	0	307	382	3
2026-02-19	12:58:31.950	37.59	-1.295	-14.21	0.901824	0.598288	0.198372	-0.678	0.2505	0.2565	0	307	382	3
2026-02-19	12:58:31.970	26.495	-6.3	-29.715	0.838872	0.572424	0.204228	-0.6795	0.2505	0.2625	0	307	382	3
2026-02-19	12:58:31.990	12.635	-11.375	-36.4	0.929152	0.446276	0.232044	-0.675	0.2445	0.267	0	307	382	3
2026-02-19	12:58:32.010	20.65	-8.855	-40.425	0.870104	0.406016	0.23424	-0.672	0.234	0.2685	0	307	355	3
2026-02-19	12:58:32.030	26.915	-8.155	-40.32	0.89304	0.30866	0.229604	-0.6675	0.228	0.267	0	307	355	3
2026-02-19	12:58:32.050	32.27	-4.235	-38.57	0.878888	0.30012	0.248148	-0.663	0.225	0.27	0	307	355	3
2026-02-19	12:58:32.070	28.455	-3.36	-34.09	0.920368	0.330376	0.276452	-0.66	0.222	0.273	0	307	355	3
2026-02-19	12:58:32.090	10.43	-3.36	-32.55	0.915488	0.282796	0.339648	-0.654	0.213	0.2745	0	307	355	3
2026-02-19	12:58:32.110	16.17	3.15	-26.985	0.948184	0.376736	0.309636	-0.6555	0.2055	0.276	0	307	355	3
2026-02-19	12:58:32.130	40.95	6.475	-33.705	0.876204	0.318176	0.320616	-0.6585	0.2025	0.2745	0	307	355	3
2026-02-19	12:58:32.150	48.3	10.22	-36.82	0.871324	0.396744	0.355508	-0.654	0.1965	0.273	0	307	355	3
2026-02-19	12:58:32.170	19.495	13.895	-34.3	0.90036	0.317688	0.245464	-0.648	0.189	0.273	0	307	355	3
2026-02-19	12:58:32.190	9.205	14.665	-33.775	0.901092	0.304268	0.291336	-0.642	0.1845	0.276	0	307	355	3
2026-02-19	12:58:32.210	-1.47	11.48	-31.08	0.927688	0.2562	0.375028	-0.633	0.177	0.2805	0	299	334	3
2026-02-19	12:58:32.230	-4.55	9.835	-29.645	0.986492	0.211304	0.480924	-0.627	0.1725	0.2805	0	299	334	3
2026-02-19	12:58:32.250	-6.37	16.905	-31.29	0.964776	0.219844	0.53558	-0.624	0.171	0.2745	0	299	334	3
2026-02-19	12:58:32.270	-32.025	31.29	-26.32	0.884744	0.344772	0.474336	-0.618	0.168	0.27	0	299	334	3
2026-02-19	12:58:32.290	-52.045	34.23	-20.055	0.853024	0.172508	0.343796	-0.6075	0.165	0.2625	0	299	334	3
2026-02-19	12:58:32.310	-43.015	37.905	-8.05	0.954284	0.19032	0.352092	-0.6015	0.1635	0.2535	0	299	334	3
2026-02-19	12:58:32.330	-9.135	47.145	1.015	0.972584	0.14274	0.333304	-0.5985	0.165	0.2505	0	299	334	3
2026-02-19	12:58:32.350	23.345	60.235	7.665	1.016748	0.190076	0.37454	-0.5925	0.1665	0.2475	0	299	334	3
2026-02-19	12:58:32.370	16.765	77.14	14.735	0.99064	0.329644	0.395768	-0.5865	0.1665	0.24	0	299	334	3
2026-02-19	12:58:32.390	-6.755	80.255	12.215	1.12484	0.40748	0.410408	-0.579	0.1665	0.24	0	299	334	3
2026-02-19	12:58:32.410	5.46	84.63	7.805	1.113372	0.483852	0.400404	-0.576	0.1665	0.234	0	286	332	3
2026-02-19	12:58:32.430	34.195	93.59	-0.805	1.052616	0.486536	0.477264	-0.5685	0.168	0.222	0	286	332	3
2026-02-19	12:58:32.450	41.125	104.44	-14.245	0.98454	0.588772	0.518256	-0.564	0.168	0.219	0	286	332	3
2026-02-19	12:58:32.470	35.56	108.255	-21.315	0.904264	0.538996	0.496052	-0.564	0.168	0.219	0	286	332	3
2026-02-19	12:58:32.490	36.925	111.37	-27.965	0.801296	0.572912	0.470432	-0.543	0.1605	0.216	0	286	332	3
2026-02-19	12:58:32.510	33.705	108.395	-35.07	0.69052	0.590968	0.428464	-0.5175	0.1485	0.2085	0	286	332	3
2026-02-19	12:58:32.530	22.715	103.005	-37.1	0.61	0.54534	0.4453	-0.4995	0.144	0.1995	0	286	332	3
2026-02-19	12:58:32.550	5.39	96.145	-38.465	0.543876	0.538996	0.429928	-0.4815	0.141	0.1965	0	286	332	3
2026-02-19	12:58:32.570	-0.875	87.71	-40.145	0.50996	0.5612	0.450912	-0.4665	0.138	0.1965	0	286	332	3
2026-02-19	12:58:32.590	0.105	79.835	-41.37	0.469456	0.51484	0.429684	-0.4545	0.138	0.1905	0	286	332	3
2026-02-19	12:58:32.610	4.69	72.59	-42.175	0.425048	0.554612	0.44408	-0.438	0.135	0.189	0	274	349	3
2026-02-19	12:58:32.630	7.315	63.63	-40.285	0.4453	0.563152	0.510448	-0.417	0.1335	0.192	0	274	349	3
2026-02-19	12:58:32.650	17.78	57.89	-34.72	0.462136	0.55266	0.551196	-0.402	0.132	0.1845	0	274	349	3
2026-02-19	12:58:32.670	20.475	57.47	-29.96	0.395036	0.654652	0.539728	-0.3915	0.1275	0.183	0	274	349	3
2026-02-19	12:58:32.690	-4.27	50.995	-24.185	0.338428	0.642208	0.524356	-0.378	0.1185	0.186	0	274	349	3
2026-02-19	12:58:32.710	-18.655	39.41	-20.895	0.333304	0.620736	0.498736	-0.366	0.1125	0.186	0	274	349	3
2026-02-19	12:58:32.730	-15.12	23.1	-17.78	0.33062	0.591944	0.524844	-0.3645	0.114	0.183	0	274	349	3
2026-02-19	12:58:32.750	-9.275	11.69	-13.475	0.320372	0.560224	0.520208	-0.3645	0.114	0.183	0	274	349	3
2026-02-19	12:58:32.770	-10.185	2.275	-8.155	0.321348	0.581208	0.516792	-0.3525	0.1215	0.18	0	274	349	3
2026-02-19	12:58:32.790	-27.37	-8.75	-2.94	0.361852	0.616832	0.593164	-0.3495	0.1275	0.1755	0	274	349	3
2026-02-19	12:58:32.810	-44.975	-16.275	-0.35	0.4392	0.603412	0.696376	-0.348	0.126	0.171	0	266	382	3
2026-02-19	12:58:32.830	-42.49	-17.64	-0.77	0.508008	0.626348	0.704672	-0.348	0.129	0.1635	0	266	382	3
2026-02-19	12:58:32.850	-30.555	-13.615	-2.485	0.509472	0.651724	0.712724	-0.351	0.138	0.162	0	266	382	3
2026-02-19	12:58:32.870	-21.245	-12.32	-2.625	0.503372	0.601216	0.71858	-0.348	0.144	0.159	0	266	382	3
2026-02-19	12:58:32.890	-25.9	-10.92	-1.54	0.467748	0.592676	0.702964	-0.3525	0.1455	0.1545	0	266	382	3
2026-02-19	12:58:32.910	-29.89	-16.94	-0.665	0.481656	0.53436	0.64782	-0.3585	0.1455	0.156	0	266	382	3
2026-02-19	12:58:32.930	-19.39	-21.385	0.49	0.521916	0.508984	0.63318	-0.354	0.1485	0.1575	0	266	382	3
2026-02-19	12:58:32.950	-24.85	-23.485	3.815	0.556076	0.548756	0.6588	-0.354	0.147	0.156	0	266	382	3
2026-02-19	12:58:32.970	-36.19	-30.24	9.275	0.598776	0.499468	0.65758	-0.357	0.1515	0.153	0	266	382	3
2026-02-19	12:58:32.990	-31.325	-33.6	9.625	0.6161	0.48434	0.665144	-0.3585	0.159	0.1485	0	266	382	3
2026-02-19	12:58:33.010	-15.05	-36.435	4.9	0.661972	0.488488	0.664656	-0.36	0.1575	0.147	0	264	433	3
2026-02-19	12:58:33.030	-15.085	-37.66	6.475	0.704672	0.419436	0.673928	-0.36	0.1575	0.147	0	264	433	3
2026-02-19	12:58:33.050	-14.14	-35.7	12.04	0.701012	0.395036	0.65392	-0.3705	0.168	0.1455	0	264	433	3
2026-02-19	12:58:33.070	-0.525	-36.47	15.505	0.721996	0.389668	0.61	-0.3825	0.1725	0.15	0	264	433	3
2026-02-19	12:58:33.090	21.105	-38.745	18.305	0.696132	0.363804	0.55876	-0.3855	0.1695	0.1485	0	264	433	3
2026-02-19	12:58:33.110	27.545	-42.28	23.975	0.653676	0.351848	0.548024	-0.396	0.171	0.1485	0	264	433	3
2026-02-19	12:58:33.130	9.59	-47.88	33.67	0.643184	0.307928	0.53314	-0.4035	0.1665	0.153	0	264	433	3
2026-02-19	12:58:33.150	-22.05	-41.825	38.29	1.155584	1.556964	1.164856	-0.4035	0.162	0.1545	0	264	433	3
2026-02-19	12:58:33.170	-21.035	-16.975	-8.96	1.030412	-0.313296	0.655628	-0.414	0.1665	0.15	0	264	433	3
2026-02-19	12:58:33.190	78.925	-13.02	11.48	0.3782	0.554124	0.422852	-0.4245	0.1695	0.153	0	264	433	3
2026-02-19	12:58:33.210	36.085	-11.935	2.415	0.5551	0.526064	0.36356	-0.423	0.1665	0.159	0	264	489	3
2026-02-19	12:58:33.230	27.685	-55.44	29.295	0.92354	0.217648	0.478728	-0.4185	0.1575	0.1605	0	264	489	3
2026-02-19	12:58:33.250	74.83	-51.485	35.875	0.919148	0.371856	0.600484	-0.4305	0.1515	0.1665	0	264	489	3
2026-02-19	12:58:33.270	22.61	-59.71	39.69	0.726876	0.456524	0.5673	-0.4425	0.15	0.1785	0	264	489	3
2026-02-19	12:58:33.290	-24.08	-74.165	48.405	0.793488	0.249368	0.622444	-0.453	0.15	0.186	0	264	489	3
2026-02-19	12:58:33.310	-6.265	-71.575	61.25	0.919636	0.08418	0.795928	-0.462	0.15	0.186	0	264	489	3
2026-02-19	12:58:33.330	1.855	-50.4	79.31	0.882304	-0.011224	0.884744	-0.486	0.165	0.1875	0	264	489	3
2026-02-19	12:58:33.350	19.95	-25.095	97.825	0.792024	-0.073444	0.728584	-0.498	0.1515	0.1965	0	264	489	3
2026-02-19	12:58:33.370	36.085	-4.725	104.51	0.829112	0.100772	0.58316	-0.513	0.174	0.201	0	264	489	3
2026-02-19	12:58:33.390	48.125	-2.31	107.59	0.87352	0.022692	0.518012	-0.519	0.171	0.2115	0	264	489	3
2026-02-19	12:58:33.410	32.235	-0.035	105.175	0.893772	0.286212	0.407724	-0.5415	0.1755	0.219	0	270	529	3
2026-02-19	12:58:33.430	5.635	-10.92	99.925	0.872788	0.408456	0.197152	-0.546	0.18	0.219	0	270	529	3
2026-02-19	12:58:33.450	8.19	-23.835	88.83	0.867908	0.46848	0.071004	-0.552	0.1905	0.219	0	270	529	3
2026-02-19	12:58:33.470	3.29	-30.94	75.81	0.923784	0.496052	0.0854	-0.5625	0.198	0.2175	0	270	529	3
2026-02-19	12:58:33.490	-20.265	-40.88	69.02	1.04066	0.465796	0.171288	-0.5775	0.2025	0.2235	0	270	529	3
2026-02-19	12:58:33.510	-33.845	-45.57	56.42	1.03456	0.511424	0.121512	-0.5865	0.2175	0.2295	0	270	529	3
2026-02-19	12:58:33.530	-19.285	-49.56	38.36	0.962824	0.386496	0.02196	-0.594	0.222	0.231	0	270	529	3
2026-02-19	12:58:33.550	4.025	-49.14	26.215	0.9699	0.262788	0.009272	-0.606	0.2205	0.24	0	270	529	3
2026-02-19	12:58:33.570	6.79	-50.68	26.355	1.05408	0.057584	0.108092	-0.6135	0.231	0.246	0	270	529	3
2026-02-19	12:58:33.590	2.1	-52.815	28.735	1.043588	0.053436	0.226432	-0.618	0.2355	0.2445	0	270	529	3
2026-02-19	12:58:33.610	12.775	-58.205	27.965	0.972096	-0.083936	0.223504	-0.6345	0.2325	0.2625	0	282	522	3
2026-02-19	12:58:33.630	34.125	-56.245	31.29	0.976244	-0.084912	0.417728	-0.639	0.234	0.258	0	282	522	3
2026-02-19	12:58:33.650	27.335	-49.525	40.11	0.97478	-0.016592	0.469944	-0.6525	0.231	0.2775	0	282	522	3
2026-02-19	12:58:33.670	24.255	-38.675	42.175	0.921344	0.223992	0.502396	-0.6555	0.237	0.279	0	282	522	3
2026-02-19	12:58:33.690	18.935	-31.115	33.95	0.926224	0.435784	0.492636	-0.6615	0.24	0.2895	0	282	522	3
2026-02-19	12:58:33.710	16.8	-21.84	15.82	0.91622	0.63562	0.540948	-0.6645	0.2445	0.2895	0	282	522	3
2026-02-19	12:58:33.730	16.24	-6.895	-10.185	0.79666	0.74542	0.481168	-0.6705	0.2475	0.291	0	282	522	3
2026-02-19	12:58:33.750	18.165	-0.245	-33.565	0.790072	0.565836	0.344772	-0.672	0.246	0.2895	0	282	522	3
2026-02-19	12:58:33.770	17.99	-3.57	-41.51	0.974292	0.357704	0.396012	-0.6675	0.2385	0.2925	0	282	522	3
2026-02-19	12:58:33.790	27.405	-8.225	-41.475	1.036268	0.118096	0.319396	-0.6675	0.2325	0.297	0	282	522	3
2026-02-19	12:58:33.810	60.095	-5.985	-39.095	0.859856	-0.10736	0.243268	-0.6645	0.225	0.2955	0	296	482	3
2026-02-19	12:58:33.830	46.13	-11.27	-28.91	1.081408	-0.122	0.373564	-0.6585	0.219	0.303	0	296	482	3
2026-02-19	12:58:33.850	34.65	-11.165	-21.455	1.025044	-0.079788	0.280356	-0.654	0.213	0.312	0	296	482	3
2026-02-19	12:58:33.870	40.705	-12.6	-22.75	0.828868	0.017812	0.210572	-0.6495	0.2085	0.3135	0	296	482	3
2026-02-19	12:58:33.890	32.83	-24.185	-20.265	1.070428	0.002928	0.319396	-0.6555	0.2025	0.3255	0	296	482	3
2026-02-19	12:58:33.910	29.26	-31.045	-16.87	1.026264	0.044164	0.325984	-0.6555	0.189	0.3315	0	296	482	3
2026-02-19	12:58:33.930	20.895	-33.53	-16.73	1.0126	0.349652	0.38552	-0.66	0.1875	0.336	0	296	482	3
2026-02-19	12:58:33.950	25.935	-31.29	-26.11	0.83204	0.551684	0.469944	-0.654	0.183	0.345	0	296	482	3
2026-02-19	12:58:33.970	8.855	-29.33	-34.685	0.760548	0.61122	0.507276	-0.6495	0.1815	0.3465	0	296	482	3
2026-02-19	12:58:33.990	-17.01	-31.5	-32.865	1.034804	0.34404	0.61	-0.648	0.183	0.3525	0	296	482	3
2026-02-19	12:58:34.010	5.425	-4.13	-39.025	0.998204	0.46604	0.77348	-0.651	0.177	0.3495	0	309	449	3
2026-02-19	12:58:34.030	45.64	5.88	-38.78	0.970144	0.320616	0.79666	-0.6465	0.1725	0.3525	0	309	449	3
2026-02-19	12:58:34.050	84.7	44.275	-40.95	0.74176	0.458476	0.771772	-0.639	0.165	0.3585	0	309	449	3
2026-02-19	12:58:34.070	71.12	74.095	-31.64	0.630496	0.441152	0.672952	-0.636	0.159	0.3585	0	309	449	3
2026-02-19	12:58:34.090	66.115	86.695	-19.95	0.775188	0.393816	0.527284	-0.627	0.1515	0.3585	0	309	449	3
2026-02-19	12:58:34.110	90.475	96.565	-15.225	0.871324	0.445544	0.465796	-0.6165	0.1455	0.36	0	309	449	3
2026-02-19	12:58:34.130	101.29	98.805	-16.065	0.955748	0.364292	0.366	-0.6075	0.1395	0.3555	0	309	449	3
2026-02-19	12:58:34.150	90.44	95.69	-29.89	1.153144	0.440176	0.358436	-0.603	0.135	0.3525	0	309	449	3
2026-02-19	12:58:34.170	37.66	95.62	-35.77	1.142164	0.45018	0.30622	-0.5925	0.123	0.3615	0	309	449	3
2026-02-19	12:58:34.190	-15.715	87.15	-44.03	1.020652	0.455548	0.189588	-0.5805	0.117	0.3525	0	309	449	3
2026-02-19	12:58:34.210	-31.36	71.645	-50.925	0.895724	0.317688	0.143472	-0.57	0.1095	0.348	0	318	441	3
2026-02-19	12:58:34.230	-15.365	56.735	-51.66	0.959408	0.399672	0.125904	-0.558	0.1125	0.3345	0	318	441	3
2026-02-19	12:58:34.250	-16.205	42.84	-46.655	0.92964	0.402356	0.134444	-0.552	0.105	0.3315	0	318	441	3
2026-02-19	12:58:34.270	-20.615	30.59	-41.615	0.893528	0.44408	0.212036	-0.534	0.105	0.3255	0	318	441	3
2026-02-19	12:58:34.290	-34.65	26.915	-42.21	0.776652	0.522404	0.237656	-0.525	0.1065	0.3195	0	318	441	3
2026-02-19	12:58:34.310	-43.89	17.605	-44.59	0.686616	0.441396	0.226188	-0.5205	0.1095	0.321	0	318	441	3
2026-02-19	12:58:34.330	-35.735	11.83	-48.195	0.664168	0.546316	0.263764	-0.5145	0.1005	0.3075	0	318	441	3
2026-02-19	12:58:34.350	-46.305	4.27	-48.685	0.608536	0.530944	0.334036	-0.507	0.102	0.3015	0	318	441	3
2026-02-19	12:58:34.370	-74.095	0	-50.225	0.592676	0.576084	0.417972	-0.4965	0.108	0.2955	0	318	441	3
2026-02-19	12:58:34.390	-105.14	-2.415	-51.31	0.545096	0.532652	0.416752	-0.486	0.1065	0.2895	0	318	441	3
2026-02-19	12:58:34.410	-104.79	-5.215	-51.135	0.573156	0.483608	0.410164	-0.48	0.1035	0.276	0	323	428	3
2026-02-19	12:58:34.430	-53.515	-1.085	-44.625	0.579988	0.504836	0.50386	-0.4785	0.105	0.2685	0	323	428	3
2026-02-19	12:58:34.450	-44.835	1.785	-40.74	0.559492	0.553392	0.540704	-0.4785	0.105	0.2685	0	323	428	3
2026-02-19	12:58:34.470	-59.255	0.98	-35.035	0.674904	0.562908	0.563396	-0.465	0.1215	0.2535	0	323	428	3
2026-02-19	12:58:34.490	-77.7	3.43	-30.24	0.727852	0.57828	0.562664	-0.444	0.123	0.237	0	323	428	3
2026-02-19	12:58:34.510	-71.715	5.53	-30.38	0.739808	0.550952	0.523136	-0.4455	0.132	0.2325	0	323	428	3
2026-02-19	12:58:34.530	-50.715	6.265	-33.845	0.714432	0.552172	0.502152	-0.4425	0.138	0.2295	0	323	428	3
2026-02-19	12:58:34.550	-42.21	4.55	-35.035	0.703452	0.529968	0.50386	-0.432	0.138	0.2175	0	323	428	3
2026-02-19	12:58:34.570	-59.395	0.49	-33.11	0.67588	0.492148	0.460184	-0.4275	0.1395	0.2235	0	323	428	3
2026-02-19	12:58:34.590	-77.77	-6.23	-29.295	0.675392	0.43554	0.415776	-0.4245	0.1455	0.2115	0	323	428	3
2026-02-19	12:58:34.610	-69.755	-12.46	-26.145	0.676368	0.430172	0.414312	-0.4185	0.1485	0.1995	0	323	421	1
2026-02-19	12:58:34.630	-61.6	-18.865	-22.155	0.681248	0.425292	0.397476	-0.42	0.162	0.198	0	323	421	1
2026-02-19	12:58:34.650	-65.695	-29.68	-15.26	0.726388	0.423584	0.413092	-0.4185	0.1605	0.1935	0	323	421	1
2026-02-19	12:58:34.670	-72.1	-37.345	-10.955	0.771528	0.441152	0.431148	-0.4155	0.162	0.186	0	323	421	1
2026-02-19	12:58:34.690	-76.055	-40.285	-9.485	0.802028	0.465796	0.469212	-0.417	0.1695	0.18	0	323	421	1
2026-02-19	12:58:34.710	-68.88	-39.935	-6.265	0.793	0.414312	0.50752	-0.4185	0.174	0.18	0	323	421	1
2026-02-19	12:58:34.730	-61.565	-36.33	-3.64	0.78324	0.421144	0.518988	-0.4185	0.174	0.18	0	323	421	1
2026-02-19	12:58:34.750	-54.215	-35.84	-1.085	0.834968	0.365756	0.515084	-0.4215	0.1995	0.1665	0	323	421	1
2026-02-19	12:58:34.770	-38.15	-32.095	4.62	0.861808	0.35624	0.508496	-0.435	0.2085	0.1665	0	323	421	1
2026-02-19	12:58:34.790	-21.035	-27.51	8.645	0.856684	0.359412	0.500932	-0.4395	0.2085	0.1635	0	323	421	1
2026-02-19	12:58:34.810	-8.435	-24.465	8.68	0.837652	0.374052	0.48922	-0.4335	0.216	0.1545	0	316	427	3
2026-02-19	12:58:34.830	-5.425	-25.305	7.91	0.817156	0.353068	0.477264	-0.447	0.2175	0.1635	0	316	427	3
2026-02-19	12:58:34.850	-12.145	-26.075	8.82	0.826184	0.384544	0.495076	-0.4485	0.2115	0.162	0	316	427	3
2026-02-19	12:58:34.870	-23.59	-26.88	9.345	0.861564	0.376736	0.520696	-0.45	0.2175	0.165	0	316	427	3
2026-02-19	12:58:34.890	-21.175	-27.72	5.355	0.85156	0.354044	0.498004	-0.45	0.2175	0.162	0	316	427	3
2026-02-19	12:58:34.910	-6.965	-30.1	0.735	0.823988	0.31476	0.48312	-0.462	0.2265	0.165	0	316	427	3
2026-02-19	12:58:34.930	8.295	-31.78	0.28	0.803004	0.285968	0.536556	-0.4605	0.228	0.1665	0	316	427	3
2026-02-19	12:58:34.950	3.395	-30.555	7.525	0.86376	0.252296	0.575352	-0.465	0.2265	0.159	0	316	427	3
2026-02-19	12:58:34.970	12.18	-22.855	13.195	0.898408	0.298412	0.59536	-0.465	0.2235	0.1635	0	316	427	3
2026-02-19	12:58:34.990	32.41	-16.59	16.975	0.884744	0.306464	0.490684	-0.468	0.2205	0.1665	0	316	427	3
2026-02-19	12:58:35.010	35.98	-16.135	19.95	1.168516	0.792512	0.667828	-0.4725	0.2205	0.165	0	302	443	3
2026-02-19	12:58:35.030	45.15	-5.6	12.74	0.896944	-0.014152	0.559004	-0.48	0.2145	0.1785	0	302	443	3
2026-02-19	12:58:35.050	50.155	-0.63	7.14	0.678564	0.486048	0.441396	-0.4845	0.2115	0.177	0	302	443	3
2026-02-19	12:58:35.070	12.39	-27.58	17.815	0.930128	0.294508	0.214964	-0.4875	0.2115	0.189	0	302	443	3
2026-02-19	12:58:35.090	48.685	-42.63	26.04	0.910364	0.175924	0.250832	-0.4875	0.21	0.1875	0	302	443	3
2026-02-19	12:58:35.110	52.675	-46.9	38.85	0.983808	0.336964	0.449448	-0.498	0.207	0.2055	0	302	443	3
2026-02-19	12:58:35.130	26.39	-53.62	45.325	0.93208	0.284748	0.426024	-0.501	0.1995	0.21	0	302	443	3
2026-02-19	12:58:35.150	9.8	-54.985	46.55	0.81496	0.2196	0.256932	-0.5145	0.207	0.21	0	302	443	3
2026-02-19	12:58:35.170	-8.015	-62.965	56.315	0.889136	0.237412	0.291824	-0.528	0.2025	0.2115	0	302	443	3
2026-02-19	12:58:35.190	-6.86	-67.305	65.065	0.97722	0.13176	0.377956	-0.537	0.219	0.2235	0	302	443	3
2026-02-19	12:58:35.210	5.74	-57.645	61.32	0.952088	0.145912	0.410896	-0.549	0.21	0.2235	0	288	454	3
2026-02-19	12:58:35.230	16.17	-48.125	53.865	0.930372	0.153476	0.413336	-0.5595	0.219	0.2325	0	288	454	3
2026-02-19	12:58:35.250	8.575	-41.475	52.29	0.979172	0.124928	0.41114	-0.576	0.216	0.2505	0	288	454	3
2026-02-19	12:58:35.270	1.155	-35.245	48.055	0.9821	0.073932	0.368196	-0.5805	0.2205	0.246	0	288	454	3
2026-02-19	12:58:35.290	4.55	-26.985	45.85	0.952088	0.025864	0.357216	-0.5865	0.2265	0.243	0	288	454	3
2026-02-19	12:58:35.310	0.98	-21.14	45.22	0.94184	0.068564	0.29036	-0.6	0.237	0.2595	0	288	454	3
2026-02-19	12:58:35.330	15.085	-22.225	45.395	0.91622	-0.030744	0.258884	-0.606	0.2415	0.2595	0	288	454	3
2026-02-19	12:58:35.350	21.805	-24.045	49.175	1.03944	-0.063684	0.309636	-0.612	0.2445	0.261	0	288	454	3
2026-02-19	12:58:35.370	25.025	-22.155	54.95	1.080676	-0.074664	0.289628	-0.6105	0.2415	0.2595	0	288	454	3
2026-02-19	12:58:35.390	32.865	-16.45	56.595	0.996496	-0.02684	0.216916	-0.6195	0.2475	0.27	0	288	454	3
