yyyy-MM-dd	HH:mm:ss.fff	gyrX	gyrY	gyrZ	accX	accY	accZ	magX	magY	magZ	Marker	Energy	Angle	Classification
2026-02-11	16:02:12.010	-0.035	-0.14	-0.105	-0.004392	0.005612	1.009672	0.33	0.159	-0.483	0	4	1035	1
2026-02-11	16:02:12.030	-0.07	-0.105	-0.105	-0.00366	0.009028	1.01382	0.3315	0.159	-0.4815	0	4	1035	1
2026-02-11	16:02:12.050	-0.035	-0.105	-0.07	-0.005124	0.008784	1.014064	0.333	0.159	-0.477	0	4	1035	1
2026-02-11	16:02:12.070	-0.035	-0.105	-0.105	-0.000488	0.009272	1.013576	0.3315	0.159	-0.4755	0	4	1035	1
2026-02-11	16:02:12.090	-0.035	-0.105	-0.07	-0.003172	0.009516	1.010892	0.33	0.162	-0.4785	0	4	1035	1
2026-02-11	16:02:12.110	-0.07	-0.14	-0.07	-0.001952	0.005856	1.012844	0.33	0.162	-0.4785	0	4	1035	1
2026-02-11	16:02:12.130	-0.07	-0.105	-0.07	-0.003416	0.005124	1.015528	0.3225	0.162	-0.486	0	4	1035	1
2026-02-11	16:02:12.150	0	-0.105	-0.07	-0.003904	0.009272	1.013088	0.3255	0.1605	-0.483	0	4	1035	1
2026-02-11	16:02:12.170	-0.035	-0.105	-0.07	-0.005612	0.009272	1.011624	0.3255	0.1545	-0.486	0	4	1035	1
2026-02-11	16:02:12.190	-0.035	-0.105	-0.07	-0.001708	0.008784	1.013088	0.324	0.1605	-0.4815	0	4	1035	1
2026-02-11	16:02:12.210	-0.035	-0.105	-0.07	-0.000976	0.009272	1.013332	0.3195	0.1665	-0.483	0	4	1035	1
2026-02-11	16:02:12.230	-0.07	-0.105	-0.07	-0.00366	0.00732	1.01504	0.3285	0.1605	-0.483	0	4	1035	1
2026-02-11	16:02:12.250	-0.07	-0.14	-0.105	-0.001464	0.00732	1.01626	0.3285	0.159	-0.474	0	4	1035	1
2026-02-11	16:02:12.270	-0.07	-0.105	-0.105	-0.002684	0.009516	1.013332	0.3285	0.159	-0.4725	0	4	1035	1
2026-02-11	16:02:12.290	-0.07	-0.105	-0.035	-0.004636	0.003904	1.012112	0.3285	0.1605	-0.471	0	4	1035	1
2026-02-11	16:02:12.310	-0.07	-0.14	-0.105	-0.005368	0.006832	1.014064	0.3315	0.159	-0.48	0	4	1035	1
2026-02-11	16:02:12.330	-0.035	-0.14	-0.07	-0.002928	0.007564	1.012112	0.33	0.1575	-0.471	0	4	1035	1
2026-02-11	16:02:12.350	-0.035	-0.105	-0.07	-0.001952	0.010248	1.011624	0.3315	0.153	-0.486	0	4	1035	1
2026-02-11	16:02:12.370	-0.07	-0.14	-0.105	-0.001952	0.011224	1.014064	0.3285	0.1665	-0.4815	0	4	1035	1
2026-02-11	16:02:12.390	-0.035	-0.14	-0.105	-0.00366	0.00854	1.014064	0.3315	0.1605	-0.4785	0	4	1035	1
2026-02-11	16:02:12.410	-0.035	-0.14	-0.07	-0.00366	0.008296	1.011868	0.336	0.1605	-0.477	0	4	1035	1
2026-02-11	16:02:12.430	-0.035	-0.105	-0.105	-0.001708	0.0061	1.011868	0.3315	0.165	-0.486	0	4	1035	1
2026-02-11	16:02:12.450	-0.035	-0.14	-0.105	-0.003172	0.007076	1.014796	0.327	0.159	-0.4845	0	4	1035	1
2026-02-11	16:02:12.470	-0.035	-0.105	-0.07	-0.005124	0.008052	1.009428	0.327	0.1605	-0.48	0	4	1035	1
2026-02-11	16:02:12.490	-0.07	-0.07	-0.07	-0.005612	0.005612	1.012844	0.33	0.162	-0.4785	0	4	1035	1
2026-02-11	16:02:12.510	-0.035	-0.14	-0.105	-0.003904	0.011468	1.01382	0.3315	0.162	-0.4815	0	4	1035	1
2026-02-11	16:02:12.530	-0.07	-0.105	-0.105	-0.003904	0.008784	1.013576	0.3285	0.162	-0.4815	0	4	1035	1
2026-02-11	16:02:12.550	-0.07	-0.105	-0.07	-0.002928	0.0061	1.01382	0.3285	0.1605	-0.48	0	4	1035	1
2026-02-11	16:02:12.570	-0.035	-0.105	-0.105	0	0.011956	1.011868	0.3285	0.162	-0.4845	0	4	1035	1
2026-02-11	16:02:12.590	-0.035	-0.105	-0.105	-0.005368	0.009272	1.01626	0.3285	0.1635	-0.4875	0	4	1035	1
2026-02-11	16:02:12.610	0	-0.105	-0.07	-0.000732	0.008784	1.013576	0.327	0.1605	-0.4845	0	4	1035	1
2026-02-11	16:02:12.630	-0.035	-0.105	-0.105	-0.002684	0.007076	1.016992	0.3285	0.162	-0.4845	0	4	1035	1
2026-02-11	16:02:12.650	-0.035	-0.105	-0.07	0	0.003904	1.010404	0.3315	0.165	-0.486	0	4	1035	1
2026-02-11	16:02:12.670	-0.035	-0.14	-0.105	-0.000732	0.006832	1.012356	0.3285	0.1635	-0.4785	0	4	1035	1
2026-02-11	16:02:12.690	-0.07	-0.105	-0.105	-0.005368	0.007564	1.014064	0.3285	0.162	-0.4815	0	4	1035	1
2026-02-11	16:02:12.710	-0.035	-0.105	-0.07	0.000244	0.008296	1.010648	0.321	0.165	-0.4785	0	4	1035	1
2026-02-11	16:02:12.730	-0.035	-0.07	-0.07	0.00122	0.007808	1.013088	0.333	0.162	-0.474	0	4	1035	1
2026-02-11	16:02:12.750	-0.07	-0.07	-0.07	-0.00244	0.007076	1.010648	0.327	0.168	-0.4815	0	4	1035	1
2026-02-11	16:02:12.770	-0.07	-0.14	-0.105	-0.002928	0.006344	1.01138	0.336	0.162	-0.4815	0	4	1035	1
2026-02-11	16:02:12.790	-0.035	-0.14	-0.07	-0.004148	0.007808	1.015284	0.333	0.1485	-0.4815	0	4	1035	1
2026-02-11	16:02:12.810	-0.07	-0.105	-0.105	-0.003904	0.007076	1.013088	0.3375	0.1605	-0.4815	0	4	1036	1
2026-02-11	16:02:12.830	-0.035	-0.105	-0.07	-0.004148	0.0061	1.013332	0.3375	0.1605	-0.4815	0	4	1036	1
2026-02-11	16:02:12.850	-0.035	-0.105	-0.105	-0.00244	0.013908	1.010648	0.333	0.1605	-0.483	0	4	1036	1
2026-02-11	16:02:12.870	-0.07	-0.105	-0.105	-0.003904	0.010492	1.010648	0.3285	0.1605	-0.4815	0	4	1036	1
2026-02-11	16:02:12.890	-0.07	-0.07	-0.07	-0.00488	0.011712	1.013332	0.33	0.159	-0.48	0	4	1036	1
2026-02-11	16:02:12.910	-0.035	-0.105	-0.07	0.000488	0.009272	1.0126	0.33	0.156	-0.4815	0	4	1036	1
2026-02-11	16:02:12.930	-0.035	-0.105	-0.105	-0.006344	0.006588	1.01138	0.3225	0.1605	-0.48	0	4	1036	1
2026-02-11	16:02:12.950	-0.035	-0.14	-0.07	-0.004148	0.009028	1.013576	0.327	0.156	-0.4815	0	4	1036	1
2026-02-11	16:02:12.970	-0.07	-0.105	-0.07	-0.002196	0.006588	1.01138	0.3285	0.165	-0.4755	0	4	1036	1
2026-02-11	16:02:12.990	-0.07	-0.105	-0.105	-0.004392	0.010004	1.011868	0.327	0.1575	-0.483	0	4	1036	1
2026-02-11	16:02:11.010	-0.07	-0.105	-0.105	-0.00488	0.007808	1.012112	0.33	0.1635	-0.477	0	7	1036	1
2026-02-11	16:02:11.030	-0.035	-0.07	-0.07	-0.001708	0.008784	1.009672	0.3285	0.162	-0.48	0	7	1036	1
2026-02-11	16:02:11.050	-0.035	-0.105	-0.07	-0.003172	0.008052	1.013332	0.327	0.162	-0.483	0	7	1036	1
2026-02-11	16:02:11.070	-0.07	-0.14	-0.105	-0.002928	0.009272	1.013332	0.327	0.1605	-0.486	0	7	1036	1
2026-02-11	16:02:11.090	-0.035	-0.105	-0.07	-0.002196	0.005856	1.014308	0.33	0.1575	-0.4875	0	7	1036	1
2026-02-11	16:02:11.110	-0.035	-0.07	-0.07	-0.005856	0.007564	1.010648	0.33	0.156	-0.4845	0	7	1036	1
2026-02-11	16:02:11.130	-0.035	-0.07	-0.07	-0.003416	0.007564	1.0126	0.3285	0.1575	-0.4785	0	7	1036	1
2026-02-11	16:02:11.150	-0.035	-0.14	-0.07	-0.005368	0.008784	1.010892	0.3255	0.159	-0.4785	0	7	1036	1
2026-02-11	16:02:11.170	-0.07	-0.14	-0.105	-0.004148	0.006344	1.01382	0.3285	0.1575	-0.4815	0	7	1036	1
2026-02-11	16:02:11.190	-0.07	-0.105	-0.105	-0.005856	0.007564	1.012112	0.3345	0.156	-0.4815	0	7	1036	1
2026-02-11	16:02:11.210	-0.035	-0.105	-0.07	-0.002684	0.008784	1.012112	0.324	0.1605	-0.477	0	6	1036	1
2026-02-11	16:02:11.230	-0.07	-0.105	-0.07	-0.003904	0.007564	1.014064	0.33	0.1605	-0.4815	0	6	1036	1
2026-02-11	16:02:11.250	-0.035	-0.105	-0.105	-0.00244	0.007808	1.011624	0.333	0.162	-0.4815	0	6	1036	1
2026-02-11	16:02:11.270	-0.07	-0.105	-0.07	-0.00122	0.011468	1.01382	0.3345	0.1605	-0.486	0	6	1036	1
2026-02-11	16:02:11.290	-0.035	-0.105	-0.105	-0.005612	0.010248	1.013332	0.33	0.1635	-0.4815	0	6	1036	1
2026-02-11	16:02:11.310	-0.035	-0.14	-0.07	-0.001708	0.010248	1.01138	0.3315	0.165	-0.486	0	6	1036	1
2026-02-11	16:02:11.330	-0.035	-0.105	-0.07	-0.00488	0.00732	1.012112	0.324	0.1635	-0.4815	0	6	1036	1
2026-02-11	16:02:11.350	-0.035	-0.07	-0.105	-0.00122	0.005612	1.014796	0.324	0.156	-0.4815	0	6	1036	1
2026-02-11	16:02:11.370	0	-0.14	-0.07	-0.001708	0.008784	1.01504	0.324	0.156	-0.4815	0	6	1036	1
2026-02-11	16:02:11.390	-0.035	-0.07	-0.105	-0.004636	0.00732	1.013576	0.3285	0.1605	-0.48	0	6	1036	1
2026-02-11	16:02:11.410	-0.07	-0.105	-0.105	-0.001464	0.00854	1.011136	0.3255	0.165	-0.4815	0	6	1036	1
2026-02-11	16:02:11.430	-0.035	-0.105	-0.105	-0.004148	0.00976	1.013332	0.321	0.162	-0.486	0	6	1036	1
2026-02-11	16:02:11.450	-0.035	-0.07	-0.105	-0.002684	0.00732	1.016504	0.3345	0.1575	-0.483	0	6	1036	1
2026-02-11	16:02:11.470	-0.035	-0.105	-0.105	-0.003904	0.006588	1.012356	0.3345	0.156	-0.4785	0	6	1036	1
2026-02-11	16:02:11.490	-0.07	-0.105	-0.07	-0.005612	0.010492	1.014308	0.324	0.1605	-0.483	0	6	1036	1
2026-02-11	16:02:11.510	-0.07	-0.14	-0.105	-0.004148	0.008784	1.01016	0.327	0.162	-0.48	0	6	1036	1
2026-02-11	16:02:11.530	-0.035	-0.105	-0.07	-0.00366	0.008784	1.01504	0.3315	0.159	-0.4755	0	6	1036	1
2026-02-11	16:02:11.550	-0.035	-0.105	-0.07	-0.002928	0.008296	1.011868	0.3315	0.156	-0.477	0	6	1036	1
2026-02-11	16:02:11.570	-0.07	-0.14	-0.07	-0.002196	0.004148	1.011136	0.324	0.159	-0.4815	0	6	1036	1
2026-02-11	16:02:11.590	-0.07	-0.105	-0.07	-0.004636	0.008784	1.01382	0.333	0.1605	-0.471	0	6	1036	1
2026-02-11	16:02:11.610	-0.07	-0.105	-0.105	-0.000976	0.008784	1.011624	0.3315	0.162	-0.474	0	5	1036	1
2026-02-11	16:02:11.630	-0.07	-0.105	-0.105	-0.001952	0.007808	1.012356	0.3285	0.162	-0.477	0	5	1036	1
2026-02-11	16:02:11.650	-0.07	-0.105	-0.105	-0.002684	0.010004	1.015284	0.327	0.165	-0.48	0	5	1036	1
2026-02-11	16:02:11.670	0	-0.105	-0.07	0.000488	0.009272	1.010404	0.327	0.1635	-0.4815	0	5	1036	1
2026-02-11	16:02:11.690	-0.035	-0.14	-0.07	-0.004636	0.010492	1.009916	0.33	0.1605	-0.4815	0	5	1036	1
2026-02-11	16:02:11.710	-0.07	-0.14	-0.07	-0.003172	0.007076	1.014796	0.33	0.1605	-0.483	0	5	1036	1
2026-02-11	16:02:11.730	-0.035	-0.105	-0.105	-0.000732	0.00854	1.015284	0.3285	0.159	-0.483	0	5	1036	1
2026-02-11	16:02:11.750	-0.035	-0.105	-0.07	-0.002684	0.006832	1.013088	0.3255	0.165	-0.4725	0	5	1036	1
2026-02-11	16:02:11.770	-0.035	-0.105	-0.07	-0.0061	0.008784	1.01138	0.3345	0.1575	-0.48	0	5	1036	1
2026-02-11	16:02:11.790	-0.07	-0.105	-0.07	0.000244	0.010492	1.010892	0.3285	0.159	-0.489	0	5	1036	1
2026-02-11	16:02:11.810	-0.07	-0.105	-0.105	-0.001952	0.006588	1.011624	0.3225	0.165	-0.4845	0	5	1036	1
2026-02-11	16:02:11.830	-0.07	-0.14	-0.105	-0.005124	0.009028	1.011624	0.3285	0.1545	-0.486	0	5	1036	1
2026-02-11	16:02:11.850	-0.07	-0.14	-0.07	-0.00488	0.00732	1.01382	0.33	0.1665	-0.4815	0	5	1036	1
2026-02-11	16:02:11.870	-0.035	-0.105	-0.07	-0.004392	0.01098	1.012844	0.3255	0.165	-0.486	0	5	1036	1
2026-02-11	16:02:11.890	-0.07	-0.105	-0.105	-0.002684	0.005856	1.010892	0.3315	0.1575	-0.4845	0	5	1036	1
2026-02-11	16:02:11.910	-0.035	-0.105	-0.07	0.000732	0.007808	1.010648	0.3285	0.159	-0.4845	0	5	1036	1
2026-02-11	16:02:11.930	-0.035	-0.07	-0.07	-0.004392	0.008784	1.013576	0.3285	0.1575	-0.483	0	5	1036	1
2026-02-11	16:02:11.950	-0.035	-0.14	-0.105	-0.005612	0.009272	1.010404	0.33	0.1575	-0.48	0	5	1036	1
2026-02-11	16:02:11.970	-0.035	-0.105	-0.07	-0.004392	0.008784	1.010648	0.3345	0.162	-0.48	0	5	1036	1
2026-02-11	16:02:11.990	-0.07	-0.105	-0.105	-0.0061	0.005856	1.012112	0.333	0.162	-0.483	0	5	1036	1
2026-02-11	16:02:12.010	-0.035	-0.14	-0.105	-0.004392	0.005612	1.009672	0.33	0.159	-0.483	0	4	1035	1
2026-02-11	16:02:12.030	-0.07	-0.105	-0.105	-0.00366	0.009028	1.01382	0.3315	0.159	-0.4815	0	4	1035	1
2026-02-11	16:02:12.050	-0.035	-0.105	-0.07	-0.005124	0.008784	1.014064	0.333	0.159	-0.477	0	4	1035	1
2026-02-11	16:02:12.070	-0.035	-0.105	-0.105	-0.000488	0.009272	1.013576	0.3315	0.159	-0.4755	0	4	1035	1
2026-02-11	16:02:12.090	-0.035	-0.105	-0.07	-0.003172	0.009516	1.010892	0.33	0.162	-0.4785	0	4	1035	1
2026-02-11	16:02:12.110	-0.07	-0.14	-0.07	-0.001952	0.005856	1.012844	0.33	0.162	-0.4785	0	4	1035	1
2026-02-11	16:02:12.130	-0.07	-0.105	-0.07	-0.003416	0.005124	1.015528	0.3225	0.162	-0.486	0	4	1035	1
2026-02-11	16:02:12.150	0	-0.105	-0.07	-0.003904	0.009272	1.013088	0.3255	0.1605	-0.483	0	4	1035	1
2026-02-11	16:02:12.170	-0.035	-0.105	-0.07	-0.005612	0.009272	1.011624	0.3255	0.1545	-0.486	0	4	1035	1
2026-02-11	16:02:12.190	-0.035	-0.105	-0.07	-0.001708	0.008784	1.013088	0.324	0.1605	-0.4815	0	4	1035	1
2026-02-11	16:02:12.210	-0.035	-0.105	-0.07	-0.000976	0.009272	1.013332	0.3195	0.1665	-0.483	0	4	1035	1
2026-02-11	16:02:12.230	-0.07	-0.105	-0.07	-0.00366	0.00732	1.01504	0.3285	0.1605	-0.483	0	4	1035	1
2026-02-11	16:02:12.250	-0.07	-0.14	-0.105	-0.001464	0.00732	1.01626	0.3285	0.159	-0.474	0	4	1035	1
2026-02-11	16:02:12.270	-0.07	-0.105	-0.105	-0.002684	0.009516	1.013332	0.3285	0.159	-0.4725	0	4	1035	1
2026-02-11	16:02:12.290	-0.07	-0.105	-0.035	-0.004636	0.003904	1.012112	0.3285	0.1605	-0.471	0	4	1035	1
2026-02-11	16:02:12.310	-0.07	-0.14	-0.105	-0.005368	0.006832	1.014064	0.3315	0.159	-0.48	0	4	1035	1
2026-02-11	16:02:12.330	-0.035	-0.14	-0.07	-0.002928	0.007564	1.012112	0.33	0.1575	-0.471	0	4	1035	1
2026-02-11	16:02:12.350	-0.035	-0.105	-0.07	-0.001952	0.010248	1.011624	0.3315	0.153	-0.486	0	4	1035	1
2026-02-11	16:02:12.370	-0.07	-0.14	-0.105	-0.001952	0.011224	1.014064	0.3285	0.1665	-0.4815	0	4	1035	1
2026-02-11	16:02:12.390	-0.035	-0.14	-0.105	-0.00366	0.00854	1.014064	0.3315	0.1605	-0.4785	0	4	1035	1
2026-02-11	16:02:12.410	-0.035	-0.14	-0.07	-0.00366	0.008296	1.011868	0.336	0.1605	-0.477	0	4	1035	1
2026-02-11	16:02:12.430	-0.035	-0.105	-0.105	-0.001708	0.0061	1.011868	0.3315	0.165	-0.486	0	4	1035	1
2026-02-11	16:02:12.450	-0.035	-0.14	-0.105	-0.003172	0.007076	1.014796	0.327	0.159	-0.4845	0	4	1035	1
2026-02-11	16:02:12.470	-0.035	-0.105	-0.07	-0.005124	0.008052	1.009428	0.327	0.1605	-0.48	0	4	1035	1
2026-02-11	16:02:12.490	-0.07	-0.07	-0.07	-0.005612	0.005612	1.012844	0.33	0.162	-0.4785	0	4	1035	1
2026-02-11	16:02:12.510	-0.035	-0.14	-0.105	-0.003904	0.011468	1.01382	0.3315	0.162	-0.4815	0	4	1035	1
2026-02-11	16:02:12.530	-0.07	-0.105	-0.105	-0.003904	0.008784	1.013576	0.3285	0.162	-0.4815	0	4	1035	1
2026-02-11	16:02:12.550	-0.07	-0.105	-0.07	-0.002928	0.0061	1.01382	0.3285	0.1605	-0.48	0	4	1035	1
2026-02-11	16:02:12.570	-0.035	-0.105	-0.105	0	0.011956	1.011868	0.3285	0.162	-0.4845	0	4	1035	1
2026-02-11	16:02:12.590	-0.035	-0.105	-0.105	-0.005368	0.009272	1.01626	0.3285	0.1635	-0.4875	0	4	1035	1
2026-02-11	16:02:12.610	0	-0.105	-0.07	-0.000732	0.008784	1.013576	0.327	0.1605	-0.4845	0	4	1035	1
2026-02-11	16:02:12.630	-0.035	-0.105	-0.105	-0.002684	0.007076	1.016992	0.3285	0.162	-0.4845	0	4	1035	1
2026-02-11	16:02:12.650	-0.035	-0.105	-0.07	0	0.003904	1.010404	0.3315	0.165	-0.486	0	4	1035	1
2026-02-11	16:02:12.670	-0.035	-0.14	-0.105	-0.000732	0.006832	1.012356	0.3285	0.1635	-0.4785	0	4	1035	1
2026-02-11	16:02:12.690	-0.07	-0.105	-0.105	-0.005368	0.007564	1.014064	0.3285	0.162	-0.4815	0	4	1035	1
2026-02-11	16:02:12.710	-0.035	-0.105	-0.07	0.000244	0.008296	1.010648	0.321	0.165	-0.4785	0	4	1035	1
2026-02-11	16:02:12.730	-0.035	-0.07	-0.07	0.00122	0.007808	1.013088	0.333	0.162	-0.474	0	4	1035	1
2026-02-11	16:02:12.750	-0.07	-0.07	-0.07	-0.00244	0.007076	1.010648	0.327	0.168	-0.4815	0	4	1035	1
2026-02-11	16:02:12.770	-0.07	-0.14	-0.105	-0.002928	0.006344	1.01138	0.336	0.162	-0.4815	0	4	1035	1
2026-02-11	16:02:12.790	-0.035	-0.14	-0.07	-0.004148	0.007808	1.015284	0.333	0.1485	-0.4815	0	4	1035	1
2026-02-11	16:02:24.810	0	-0.14	-0.105	-0.003416	0.007808	1.011624	0.3285	0.165	-0.483	0	369	897	1
2026-02-11	16:02:24.830	-0.07	-0.14	-0.105	-0.003416	0.011224	1.01016	0.3345	0.1605	-0.4815	0	369	897	1
2026-02-11	16:02:24.850	-0.07	-0.14	-0.105	-0.001464	0.008296	1.013332	0.336	0.153	-0.4725	0	369	897	1
2026-02-11	16:02:24.870	-0.105	-0.105	-0.07	-0.002928	0.007808	1.014552	0.33	0.159	-0.486	0	369	897	1
2026-02-11	16:02:24.890	-0.035	-0.105	-0.07	-0.002684	0.007564	1.015528	0.33	0.159	-0.486	0	369	897	1
2026-02-11	16:02:24.910	-0.035	-0.105	-0.07	-0.002196	0.00732	1.003572	0.333	0.159	-0.48	0	369	897	1
2026-02-11	16:02:24.930	-0.105	-0.175	-0.07	-0.002196	0.012444	1.003084	0.336	0.159	-0.4785	0	369	897	1
2026-02-11	16:02:24.950	-0.21	-0.105	-0.07	-0.00244	0.007808	1.032364	0.3315	0.1605	-0.483	0	369	897	1
2026-02-11	16:02:24.970	0.035	-0.035	-0.07	-0.003904	0.007076	1.015772	0.327	0.1635	-0.48	0	369	897	1
2026-02-11	16:02:24.990	0.035	-0.14	-0.105	-0.001708	0.004636	1.004304	0.33	0.1635	-0.48	0	369	897	1
2026-02-11	16:02:25.010	-0.07	-0.14	-0.07	-0.003904	0.010004	1.012112	0.3345	0.162	-0.48	0	335	934	1
2026-02-11	16:02:25.030	-0.105	-0.105	-0.07	-0.001708	0.010492	1.013088	0.3285	0.153	-0.4815	0	335	934	1
2026-02-11	16:02:25.050	-0.07	-0.14	-0.07	-0.002928	0.008296	1.01138	0.333	0.156	-0.4725	0	335	934	1
2026-02-11	16:02:25.070	-0.07	-0.07	-0.105	-0.002196	0.00488	1.021872	0.327	0.153	-0.4755	0	335	934	1
2026-02-11	16:02:25.090	0	-0.14	-0.105	-0.00366	0.007808	1.010648	0.324	0.153	-0.477	0	335	934	1
2026-02-11	16:02:25.110	-0.035	-0.105	-0.07	-0.001708	0.010492	1.008452	0.3285	0.156	-0.477	0	335	934	1
2026-02-11	16:02:25.130	-0.07	-0.07	-0.07	-0.00366	0.00976	1.012844	0.33	0.162	-0.4815	0	335	934	1
2026-02-11	16:02:25.150	-0.07	-0.14	-0.07	-0.004148	0.009272	1.01016	0.3315	0.162	-0.483	0	335	934	1
2026-02-11	16:02:25.170	-0.105	-0.14	-0.07	-0.003416	0.004392	1.016748	0.33	0.1605	-0.483	0	335	934	1
2026-02-11	16:02:25.190	-0.07	-0.175	-0.07	-0.005124	0.004148	1.022116	0.324	0.162	-0.48	0	335	934	1
2026-02-11	16:02:25.210	-0.035	-0.14	-0.105	-0.004148	0.00854	1.007232	0.327	0.1605	-0.4815	0	295	961	1
2026-02-11	16:02:25.230	-0.07	-0.105	-0.105	-0.002684	0.007076	1.014552	0.3315	0.1605	-0.483	0	295	961	1
2026-02-11	16:02:25.250	-0.035	-0.14	-0.105	-0.004636	0.00732	1.01138	0.33	0.1635	-0.483	0	295	961	1
2026-02-11	16:02:25.270	-0.035	-0.105	-0.105	-0.000976	0.008296	1.014552	0.3285	0.1545	-0.483	0	295	961	1
2026-02-11	16:02:25.290	-0.035	-0.105	-0.105	-0.00244	0.009516	1.016992	0.33	0.1605	-0.486	0	295	961	1
2026-02-11	16:02:25.310	-0.035	-0.14	-0.105	-0.004636	0.009272	1.009916	0.3285	0.1545	-0.477	0	295	961	1
2026-02-11	16:02:25.330	-0.105	-0.105	-0.07	-0.001952	0.007076	1.01016	0.33	0.162	-0.4815	0	295	961	1
2026-02-11	16:02:25.350	-0.07	-0.14	-0.07	-0.000244	0.007564	1.01626	0.333	0.165	-0.48	0	295	961	1
2026-02-11	16:02:25.370	-0.035	-0.14	-0.07	-0.000732	0.0061	1.009916	0.336	0.162	-0.48	0	295	961	1
2026-02-11	16:02:25.390	-0.035	-0.105	-0.07	-0.006832	0.00366	1.017724	0.3255	0.159	-0.4875	0	295	961	1
2026-02-11	16:02:25.410	-0.035	-0.14	-0.07	-0.004636	0.010736	1.009672	0.3225	0.1665	-0.4755	0	255	981	1
2026-02-11	16:02:25.430	-0.07	-0.105	-0.105	-0.002928	0.009272	1.008452	0.3225	0.1635	-0.48	0	255	981	1
2026-02-11	16:02:25.450	-0.105	-0.105	-0.07	-0.001464	0.002928	1.017236	0.3255	0.1605	-0.48	0	255	981	1
2026-02-11	16:02:25.470	-0.07	-0.14	-0.07	-0.002684	0.005124	1.015284	0.33	0.159	-0.477	0	255	981	1
2026-02-11	16:02:25.490	-0.035	-0.14	-0.07	-0.003904	0.008784	1.01138	0.3285	0.1545	-0.4815	0	255	981	1
2026-02-11	16:02:25.510	-0.035	-0.105	-0.105	-0.002196	0.00732	1.012112	0.3255	0.1575	-0.483	0	255	981	1
2026-02-11	16:02:25.530	-0.07	-0.105	-0.105	-0.00366	0.007808	1.01382	0.327	0.1665	-0.483	0	255	981	1
2026-02-11	16:02:25.550	-0.07	-0.105	-0.07	-0.000488	0.009272	1.010404	0.324	0.165	-0.483	0	255	981	1
2026-02-11	16:02:25.570	-0.105	-0.105	-0.07	0.001464	0.009272	1.016016	0.321	0.159	-0.4815	0	255	981	1
2026-02-11	16:02:25.590	-0.07	-0.14	-0.105	-0.00366	0.00854	1.009916	0.321	0.1575	-0.483	0	255	981	1
2026-02-11	16:02:25.610	-0.07	-0.105	-0.105	-0.003172	0.009272	1.015772	0.321	0.1575	-0.486	0	216	996	1
2026-02-11	16:02:25.630	-0.105	-0.14	-0.07	-0.000976	0.006832	1.011868	0.324	0.153	-0.4845	0	216	996	1
2026-02-11	16:02:25.650	-0.07	-0.14	-0.07	-0.00732	0.005368	1.013088	0.3285	0.162	-0.48	0	216	996	1
2026-02-11	16:02:25.670	-0.07	-0.105	-0.07	-0.00488	0.005856	1.014064	0.3255	0.159	-0.48	0	216	996	1
2026-02-11	16:02:25.690	-0.105	-0.14	-0.07	-0.00732	0.006588	1.012112	0.33	0.1515	-0.4755	0	216	996	1
2026-02-11	16:02:25.710	-0.07	-0.105	-0.105	-0.00366	0.008784	1.016016	0.333	0.1575	-0.48	0	216	996	1
2026-02-11	16:02:25.730	-0.035	-0.105	-0.07	-0.001708	0.0061	1.014796	0.3345	0.159	-0.486	0	216	996	1
2026-02-11	16:02:25.750	-0.07	-0.14	-0.105	-0.00488	0.007076	1.011136	0.3255	0.156	-0.483	0	216	996	1
2026-02-11	16:02:25.770	-0.035	-0.105	-0.07	-0.003172	0.009272	1.012844	0.3255	0.159	-0.483	0	216	996	1
2026-02-11	16:02:25.790	-0.035	-0.14	-0.07	-0.004392	0.010492	1.011624	0.333	0.162	-0.4875	0	216	996	1
2026-02-11	16:02:25.810	-0.035	-0.14	-0.07	-0.002196	0.006832	1.011868	0.333	0.159	-0.477	0	181	1006	1
2026-02-11	16:02:25.830	-0.07	-0.14	-0.07	-0.005124	0.008296	1.014064	0.33	0.1605	-0.486	0	181	1006	1
2026-02-11	16:02:25.850	-0.035	-0.105	-0.07	-0.001708	0.006832	1.017968	0.3255	0.153	-0.489	0	181	1006	1
2026-02-11	16:02:25.870	-0.07	-0.14	-0.07	-0.002196	0.008296	1.017968	0.324	0.1545	-0.4815	0	181	1006	1
2026-02-11	16:02:25.890	-0.035	-0.14	-0.105	-0.001952	0.00976	1.010648	0.333	0.1665	-0.48	0	181	1006	1
2026-02-11	16:02:25.910	-0.035	-0.105	-0.105	-0.003416	0.01098	1.010404	0.3195	0.1605	-0.48	0	181	1006	1
2026-02-11	16:02:25.930	-0.07	-0.07	-0.07	-0.002928	0.00732	1.011868	0.327	0.1575	-0.4785	0	181	1006	1
2026-02-11	16:02:25.950	-0.035	-0.105	-0.105	-0.000244	0.008052	1.011868	0.3255	0.159	-0.4905	0	181	1006	1
2026-02-11	16:02:25.970	-0.035	-0.105	-0.07	-0.005368	0.011468	1.013088	0.33	0.159	-0.477	0	181	1006	1
2026-02-11	16:02:25.990	-0.035	-0.105	-0.105	-0.003172	0.00732	1.011868	0.33	0.1635	-0.4845	0	181	1006	1
2026-02-11	16:02:26.010	0	-0.105	-0.105	-0.004636	0.006832	1.014308	0.333	0.1635	-0.4875	0	152	1014	1
2026-02-11	16:02:26.030	-0.035	-0.105	-0.07	-0.001464	0.005856	1.016016	0.333	0.1605	-0.4845	0	152	1014	1
2026-02-11	16:02:26.050	-0.035	-0.105	-0.07	-0.004148	0.006344	1.009916	0.33	0.1605	-0.483	0	152	1014	1
2026-02-11	16:02:26.070	-0.035	-0.07	-0.105	-0.002684	0.00732	1.011136	0.3315	0.1545	-0.48	0	152	1014	1
2026-02-11	16:02:26.090	-0.07	-0.105	-0.105	-0.001464	0.010004	1.014064	0.3315	0.1545	-0.4785	0	152	1014	1
2026-02-11	16:02:26.110	-0.07	-0.105	-0.105	-0.002196	0.007564	1.012844	0.3255	0.156	-0.4815	0	152	1014	1
2026-02-11	16:02:26.130	-0.07	-0.105	-0.105	-0.00488	0.010004	1.011868	0.3225	0.156	-0.483	0	152	1014	1
2026-02-11	16:02:26.150	-0.07	-0.14	-0.07	-0.005124	0.009028	1.013332	0.324	0.159	-0.4785	0	152	1014	1
2026-02-11	16:02:26.170	-0.07	-0.105	-0.14	-0.003904	0.005124	1.0126	0.324	0.159	-0.4785	0	152	1014	1
2026-02-11	16:02:26.190	-0.07	-0.105	-0.07	-0.005612	0.007076	1.015284	0.3255	0.1605	-0.4845	0	152	1014	1
2026-02-11	16:02:26.210	-0.07	-0.105	-0.105	-0.002196	0.009516	1.013332	0.3255	0.156	-0.4815	0	127	1020	1
2026-02-11	16:02:26.230	-0.07	-0.105	-0.105	-0.00488	0.00854	1.01504	0.333	0.159	-0.4875	0	127	1020	1
2026-02-11	16:02:26.250	-0.035	-0.07	-0.07	-0.003904	0.011468	1.016992	0.336	0.1605	-0.489	0	127	1020	1
2026-02-11	16:02:26.270	-0.035	-0.105	-0.105	-0.006344	0.005856	1.012112	0.3285	0.1665	-0.4905	0	127	1020	1
2026-02-11	16:02:26.290	-0.035	-0.14	-0.105	-0.001708	0.010004	1.014064	0.3285	0.159	-0.489	0	127	1020	1
2026-02-11	16:02:26.310	-0.035	-0.105	-0.07	-0.00244	0.009516	1.014552	0.327	0.162	-0.4845	0	127	1020	1
2026-02-11	16:02:26.330	-0.035	-0.105	-0.105	-0.007808	0.006344	1.014796	0.33	0.162	-0.4815	0	127	1020	1
2026-02-11	16:02:26.350	0	-0.105	-0.07	-0.004636	0.009516	1.008452	0.3315	0.162	-0.483	0	127	1020	1
2026-02-11	16:02:26.370	-0.07	-0.105	-0.105	-0.005612	0.008052	1.014552	0.333	0.162	-0.4845	0	127	1020	1
2026-02-11	16:02:26.390	-0.07	-0.105	-0.07	-0.003904	0.010248	1.017724	0.3315	0.165	-0.4875	0	127	1020	1
2026-02-11	16:02:26.410	0.07	-0.07	-0.07	-0.00244	0.008052	1.020164	0.318	0.162	-0.477	0	107	1024	1
2026-02-11	16:02:26.430	0.105	-0.14	-0.105	-0.001708	0.010736	0.990396	0.321	0.159	-0.483	0	107	1024	1
2026-02-11	16:02:26.450	-0.07	-0.07	-0.105	-0.004636	0.00732	1.022848	0.3285	0.159	-0.4875	0	107	1024	1
2026-02-11	16:02:26.470	-0.035	-0.105	-0.105	-0.00122	0.008052	1.00772	0.3345	0.1605	-0.4815	0	107	1024	1
2026-02-11	16:02:26.490	-0.07	-0.14	-0.105	-0.000488	0.0061	1.014064	0.333	0.159	-0.48	0	107	1024	1
2026-02-11	16:02:26.510	-0.07	-0.105	-0.105	-0.00366	0.005856	1.011624	0.3315	0.1605	-0.48	0	107	1024	1
2026-02-11	16:02:26.530	-0.035	-0.14	-0.105	-0.004392	0.010492	1.015528	0.33	0.1605	-0.4815	0	107	1024	1
2026-02-11	16:02:26.550	-0.035	-0.105	-0.07	-0.001952	0.008784	1.007232	0.33	0.159	-0.4815	0	107	1024	1
2026-02-11	16:02:26.570	-0.07	-0.07	-0.07	-0.007564	0.006344	1.016504	0.33	0.1605	-0.4785	0	107	1024	1
2026-02-11	16:02:26.590	-0.07	-0.105	-0.105	-0.002684	0.005368	1.0126	0.327	0.1605	-0.48	0	107	1024	1
2026-02-11	16:02:26.610	-0.105	-0.105	-0.105	0.000488	0.005368	1.016504	0.3285	0.1575	-0.483	0	90	1027	1
2026-02-11	16:02:26.630	0	-0.14	-0.105	-0.00366	0.009516	1.014552	0.327	0.156	-0.483	0	90	1027	1
2026-02-11	16:02:26.650	0	-0.105	-0.105	-0.000488	0.005612	1.012112	0.3285	0.159	-0.48	0	90	1027	1
2026-02-11	16:02:26.670	-0.035	-0.105	-0.105	-0.000976	0.008296	1.014308	0.3315	0.1635	-0.483	0	90	1027	1
2026-02-11	16:02:26.690	-0.035	-0.105	-0.07	-0.000976	0.007564	1.012844	0.3285	0.1665	-0.489	0	90	1027	1
2026-02-11	16:02:26.710	-0.07	-0.105	-0.07	-0.00244	0.00732	1.014796	0.327	0.1665	-0.492	0	90	1027	1
2026-02-11	16:02:26.730	-0.07	-0.105	-0.07	-0.005368	0.00976	1.01504	0.33	0.168	-0.4905	0	90	1027	1
2026-02-11	16:02:26.750	-0.035	-0.14	-0.105	-0.004392	0.007076	1.009428	0.3285	0.1605	-0.4815	0	90	1027	1
2026-02-11	16:02:26.770	-0.035	-0.105	-0.105	-0.001952	0.009028	1.010404	0.3315	0.1545	-0.483	0	90	1027	1
2026-02-11	16:02:26.790	-0.035	-0.07	-0.105	0.00122	0.005124	1.01382	0.327	0.162	-0.4815	0	90	1027	1
2026-02-11	16:02:26.810	0	-0.105	-0.105	-0.00366	0.008052	1.01748	0.3315	0.162	-0.483	0	77	1029	1
2026-02-11	16:02:26.830	0	-0.105	-0.105	-0.004392	0.00732	1.0126	0.33	0.1575	-0.4845	0	77	1029	1
2026-02-11	16:02:26.850	-0.035	-0.14	-0.105	-0.003416	0.009028	1.009184	0.3285	0.1665	-0.4815	0	77	1029	1
2026-02-11	16:02:26.870	-0.105	-0.14	-0.07	-0.003904	0.009028	1.009916	0.333	0.162	-0.492	0	77	1029	1
2026-02-11	16:02:26.890	-0.07	-0.105	-0.07	-0.00244	0.005124	1.018944	0.333	0.162	-0.492	0	77	1029	1
2026-02-11	16:02:26.910	-0.035	-0.105	-0.07	-0.002684	0.006832	1.009916	0.3285	0.162	-0.4905	0	77	1029	1
2026-02-11	16:02:26.930	0	-0.14	-0.105	-0.003904	0.01098	1.009428	0.3285	0.1635	-0.486	0	77	1029	1
2026-02-11	16:02:26.950	-0.07	-0.07	-0.07	-0.003172	0.005856	1.013576	0.333	0.162	-0.486	0	77	1029	1
2026-02-11	16:02:26.970	-0.07	-0.07	-0.07	-0.002684	0.006588	1.014308	0.3285	0.1575	-0.4875	0	77	1029	1
2026-02-11	16:02:26.990	0	-0.105	-0.105	-0.002684	0.010492	1.011624	0.3225	0.1575	-0.486	0	77	1029	1
2026-02-11	16:02:27.010	-0.035	-0.105	-0.07	-0.001464	0.0061	1.01504	0.3285	0.1605	-0.4815	0	66	1031	1
2026-02-11	16:02:27.030	-0.035	-0.105	-0.105	-0.004636	0.007564	1.007476	0.327	0.165	-0.4785	0	66	1031	1
2026-02-11	16:02:27.050	-0.07	-0.105	-0.07	-0.005368	0.008784	1.01504	0.321	0.1635	-0.48	0	66	1031	1
2026-02-11	16:02:27.070	-0.07	-0.105	-0.105	-0.002684	0.006344	1.014552	0.327	0.162	-0.4875	0	66	1031	1
2026-02-11	16:02:27.090	-0.07	-0.105	-0.105	-0.005368	0.008296	1.01138	0.3255	0.162	-0.4815	0	66	1031	1
2026-02-11	16:02:27.110	-0.07	-0.105	-0.105	-0.005124	0.009272	1.012112	0.3225	0.156	-0.477	0	66	1031	1
2026-02-11	16:02:27.130	-0.07	-0.14	-0.07	-0.005368	0.009028	1.010892	0.3285	0.1575	-0.48	0	66	1031	1
2026-02-11	16:02:27.150	-0.035	-0.105	-0.14	-0.004148	0.008784	1.01138	0.3345	0.162	-0.483	0	66	1031	1
2026-02-11	16:02:27.170	-0.07	-0.105	-0.105	-0.004636	0.006832	1.014308	0.333	0.1605	-0.4845	0	66	1031	1
2026-02-11	16:02:27.190	-0.035	-0.105	-0.07	-0.003416	0.006588	1.010892	0.333	0.1605	-0.486	0	66	1031	1
2026-02-11	16:02:27.210	-0.07	-0.105	-0.07	-0.004148	0.0061	1.014796	0.333	0.156	-0.4845	0	57	1032	1
2026-02-11	16:02:27.230	0	-0.105	-0.07	-0.00366	0.011224	1.013332	0.33	0.1545	-0.486	0	57	1032	1
2026-02-11	16:02:27.250	-0.105	-0.105	-0.105	-0.004636	0.011712	1.010404	0.33	0.156	-0.489	0	57	1032	1
2026-02-11	16:02:27.270	-0.07	-0.105	-0.105	-0.001708	0.009516	1.016504	0.3255	0.1605	-0.4905	0	57	1032	1
2026-02-11	16:02:27.290	-0.07	-0.14	-0.105	-0.00122	0.00488	1.014796	0.33	0.1545	-0.4845	0	57	1032	1
2026-02-11	16:02:27.310	-0.035	-0.105	-0.105	-0.001464	0.011956	1.008696	0.33	0.162	-0.483	0	57	1032	1
2026-02-11	16:02:27.330	-0.07	-0.07	-0.105	-0.005612	0.010248	1.014308	0.327	0.1605	-0.48	0	57	1032	1
2026-02-11	16:02:27.350	-0.07	-0.105	-0.105	-0.001464	0.007564	1.011624	0.3255	0.1605	-0.483	0	57	1032	1
2026-02-11	16:02:27.370	-0.035	-0.14	-0.07	-0.000244	0.00976	1.013332	0.324	0.159	-0.486	0	57	1032	1
2026-02-11	16:02:27.390	-0.07	-0.14	-0.07	-0.00122	0.008296	1.015528	0.33	0.162	-0.477	0	57	1032	1
2026-02-11	16:02:27.410	-0.07	-0.105	-0.07	-0.00244	0.008296	1.013332	0.3285	0.1605	-0.483	0	49	1033	1
2026-02-11	16:02:27.430	-0.07	-0.105	-0.07	0	0.01098	1.0126	0.3225	0.1575	-0.4815	0	49	1033	1
2026-02-11	16:02:27.450	-0.07	-0.14	-0.07	-0.005124	0.010736	1.012844	0.3255	0.159	-0.4815	0	49	1033	1
2026-02-11	16:02:27.470	-0.035	-0.105	-0.07	-0.003416	0.006588	1.011868	0.3255	0.1605	-0.4815	0	49	1033	1
2026-02-11	16:02:27.490	-0.07	-0.14	-0.105	-0.00366	0.0061	1.012844	0.324	0.162	-0.4815	0	49	1033	1
2026-02-11	16:02:27.510	-0.035	-0.14	-0.07	-0.003416	0.011468	1.009916	0.3315	0.1605	-0.483	0	49	1033	1
2026-02-11	16:02:27.530	-0.07	-0.105	-0.07	-0.00366	0.011468	1.01382	0.3345	0.159	-0.483	0	49	1033	1
2026-02-11	16:02:27.550	-0.035	-0.105	-0.07	-0.003904	0.00854	1.016748	0.333	0.1635	-0.4845	0	49	1033	1
2026-02-11	16:02:27.570	-0.035	-0.14	-0.07	-0.003172	0.008296	1.008208	0.33	0.165	-0.4815	0	49	1033	1
2026-02-11	16:02:27.590	0	-0.105	-0.07	-0.00366	0.008052	1.011136	0.3315	0.1605	-0.4815	0	49	1033	1
2026-02-11	16:02:27.610	-0.035	-0.105	-0.105	-0.0061	0.007808	1.016016	0.3345	0.159	-0.483	0	42	1034	1
2026-02-11	16:02:27.630	-0.035	-0.105	-0.105	-0.001952	0.008052	1.00772	0.336	0.162	-0.483	0	42	1034	1
2026-02-11	16:02:27.650	-0.035	-0.105	-0.035	-0.001952	0.006832	1.011136	0.3285	0.1695	-0.4845	0	42	1034	1
2026-02-11	16:02:27.670	-0.07	-0.105	-0.105	-0.000732	0.00732	1.01748	0.3315	0.159	-0.483	0	42	1034	1
2026-02-11	16:02:27.690	-0.035	-0.14	-0.07	-0.003416	0.008784	1.0126	0.3285	0.1545	-0.4845	0	42	1034	1
2026-02-11	16:02:27.710	0	-0.14	-0.105	-0.00366	0.008784	1.008696	0.3285	0.1545	-0.4845	0	42	1034	1
2026-02-11	16:02:27.730	-0.07	-0.07	-0.105	-0.002196	0.010248	1.015284	0.3285	0.1575	-0.483	0	42	1034	1
2026-02-11	16:02:27.750	-0.035	-0.105	-0.07	-0.002928	0.009028	1.016016	0.327	0.159	-0.4815	0	42	1034	1
2026-02-11	16:02:27.770	0	-0.105	-0.07	0.000244	0.007564	1.013576	0.324	0.156	-0.4815	0	42	1034	1
2026-02-11	16:02:27.790	-0.035	-0.105	-0.105	-0.001464	0.010736	1.012356	0.3285	0.1605	-0.4815	0	42	1034	1
2026-02-11	16:02:27.810	-0.07	-0.14	-0.105	-0.000976	0.009028	1.015772	0.3315	0.1665	-0.483	0	37	1034	1
2026-02-11	16:02:27.830	0	-0.105	-0.07	-0.003172	0.0061	1.009672	0.336	0.1575	-0.4815	0	37	1034	1
2026-02-11	16:02:27.850	-0.07	-0.105	-0.105	-0.002684	0.010248	1.0126	0.321	0.1605	-0.4815	0	37	1034	1
2026-02-11	16:02:27.870	-0.035	-0.14	-0.105	-0.002928	0.009028	1.017236	0.333	0.1635	-0.4815	0	37	1034	1
2026-02-11	16:02:27.890	-0.035	-0.14	-0.105	-0.00488	0.008784	1.011624	0.3315	0.159	-0.4815	0	37	1034	1
2026-02-11	16:02:27.910	-0.035	-0.105	-0.105	-0.005612	0.009272	1.010892	0.3315	0.1575	-0.4815	0	37	1034	1
2026-02-11	16:02:27.930	-0.07	-0.105	-0.07	-0.001464	0.009516	1.01504	0.3285	0.159	-0.4845	0	37	1034	1
2026-02-11	16:02:27.950	-0.07	-0.105	-0.07	-0.001708	0.00732	1.016016	0.3345	0.165	-0.489	0	37	1034	1
2026-02-11	16:02:27.970	-0.035	-0.105	-0.105	-0.00244	0.005124	1.011624	0.333	0.1545	-0.4815	0	37	1034	1
2026-02-11	16:02:27.990	-0.07	-0.105	-0.07	0	0.007076	1.0126	0.333	0.1545	-0.4815	0	37	1034	1
2026-02-11	16:02:28.010	-0.105	-0.14	-0.105	-0.000732	0.007808	1.014552	0.327	0.159	-0.4845	0	32	1035	1
2026-02-11	16:02:28.030	-0.035	-0.105	-0.07	-0.002196	0.009028	1.012844	0.3255	0.1605	-0.486	0	32	1035	1
2026-02-11	16:02:28.050	-0.07	-0.175	-0.105	-0.002684	0.007564	1.0126	0.3285	0.1605	-0.483	0	32	1035	1
2026-02-11	16:02:28.070	-0.07	-0.105	-0.07	-0.00244	0.009028	1.01382	0.3225	0.162	-0.4815	0	32	1035	1
2026-02-11	16:02:28.090	-0.07	-0.105	-0.07	-0.001952	0.00854	1.016748	0.321	0.162	-0.4815	0	32	1035	1
2026-02-11	16:02:28.110	-0.035	-0.14	-0.07	-0.00488	0.00976	1.012112	0.324	0.1605	-0.483	0	32	1035	1
2026-02-11	16:02:28.130	-0.07	-0.105	-0.105	-0.00366	0.008296	1.011868	0.327	0.1575	-0.4815	0	32	1035	1
2026-02-11	16:02:28.150	-0.035	-0.07	-0.07	-0.003172	0.00732	1.015772	0.327	0.1605	-0.483	0	32	1035	1
2026-02-11	16:02:28.170	-0.035	-0.105	-0.07	-0.005612	0.010736	1.01382	0.3255	0.1635	-0.489	0	32	1035	1
2026-02-11	16:02:28.190	-0.035	-0.105	-0.07	-0.004636	0.009272	1.012844	0.333	0.159	-0.4845	0	32	1035	1
2026-02-11	16:02:28.210	-0.035	-0.105	-0.07	-0.006832	0.00976	1.012356	0.3285	0.1575	-0.4815	0	28	1035	1
2026-02-11	16:02:28.230	-0.035	-0.105	-0.07	-0.007076	0.00732	1.009428	0.3255	0.159	-0.48	0	28	1035	1
2026-02-11	16:02:28.250	-0.035	-0.105	-0.07	-0.00244	0.00976	1.01016	0.33	0.1575	-0.4785	0	28	1035	1
2026-02-11	16:02:28.270	-0.035	-0.105	-0.105	-0.002684	0.008296	1.015284	0.333	0.1545	-0.4785	0	28	1035	1
2026-02-11	16:02:28.290	-0.035	-0.14	-0.07	-0.002928	0.008784	1.011624	0.324	0.1635	-0.486	0	28	1035	1
2026-02-11	16:02:28.310	-0.035	-0.105	-0.07	-0.001708	0.0061	1.014308	0.333	0.1635	-0.486	0	28	1035	1
2026-02-11	16:02:28.330	-0.035	-0.07	-0.07	-0.00122	0.008052	1.013088	0.3285	0.1665	-0.4875	0	28	1035	1
2026-02-11	16:02:28.350	-0.07	-0.07	-0.07	-0.002684	0.007564	1.01626	0.333	0.159	-0.4845	0	28	1035	1
2026-02-11	16:02:28.370	0	-0.105	-0.105	-0.005856	0.007076	1.008208	0.333	0.159	-0.4845	0	28	1035	1
2026-02-11	16:02:28.390	0	-0.105	-0.07	-0.003172	0.006588	1.008208	0.327	0.1605	-0.489	0	28	1035	1
2026-02-11	16:02:28.410	-0.07	-0.07	-0.07	-0.000732	0.01098	1.016992	0.324	0.159	-0.4845	0	24	1035	1
2026-02-11	16:02:28.430	-0.07	-0.105	-0.07	-0.005856	0.006588	1.011868	0.336	0.159	-0.486	0	24	1035	1
2026-02-11	16:02:28.450	-0.07	-0.105	-0.105	-0.004148	0.00732	1.011624	0.321	0.1635	-0.48	0	24	1035	1
2026-02-11	16:02:28.470	-0.035	-0.07	-0.105	-0.005124	0.008296	1.012844	0.333	0.1665	-0.4875	0	24	1035	1
2026-02-11	16:02:28.490	0	-0.105	-0.07	-0.00244	0.006588	1.01626	0.3285	0.165	-0.4845	0	24	1035	1
2026-02-11	16:02:28.510	0	-0.14	-0.07	-0.000976	0.008296	1.009672	0.336	0.1575	-0.48	0	24	1035	1
2026-02-11	16:02:28.530	-0.07	-0.105	-0.07	-0.004148	0.010492	1.008696	0.3315	0.1605	-0.486	0	24	1035	1
2026-02-11	16:02:28.550	-0.07	-0.105	-0.07	-0.00366	0.005856	1.015284	0.33	0.162	-0.4815	0	24	1035	1
2026-02-11	16:02:28.570	-0.035	-0.105	-0.07	-0.002196	0.006832	1.012356	0.3285	0.1605	-0.477	0	24	1035	1
2026-02-11	16:02:28.590	-0.035	-0.105	-0.07	-0.00488	0.008784	1.007964	0.327	0.1605	-0.4815	0	24	1035	1
2026-02-11	16:02:28.610	-0.105	-0.105	-0.035	-0.006344	0.009272	1.01504	0.33	0.1605	-0.483	0	21	1035	1
2026-02-11	16:02:28.630	-0.07	-0.14	-0.07	-0.003172	0.007808	1.017968	0.33	0.156	-0.48	0	21	1035	1
2026-02-11	16:02:28.650	-0.035	-0.14	-0.07	-0.001952	0.007076	1.008696	0.33	0.156	-0.48	0	21	1035	1
2026-02-11	16:02:28.670	-0.07	-0.105	-0.07	-0.00244	0.01098	1.014064	0.33	0.1575	-0.4785	0	21	1035	1
2026-02-11	16:02:28.690	-0.035	-0.105	-0.105	-0.001464	0.007564	1.015284	0.327	0.156	-0.477	0	21	1035	1
2026-02-11	16:02:28.710	-0.035	-0.07	-0.105	-0.005856	0.006588	1.013088	0.327	0.1575	-0.4785	0	21	1035	1
2026-02-11	16:02:28.730	-0.035	-0.07	-0.105	-0.00488	0.00976	1.01504	0.3285	0.159	-0.48	0	21	1035	1
2026-02-11	16:02:28.750	-0.07	-0.14	-0.07	-0.00122	0.00854	1.012356	0.342	0.1605	-0.4785	0	21	1035	1
2026-02-11	16:02:28.770	-0.07	-0.07	-0.07	-0.003904	0.010248	1.012844	0.3375	0.1605	-0.477	0	21	1035	1
2026-02-11	16:02:28.790	-0.035	-0.105	-0.07	-0.004392	0.005124	1.012112	0.327	0.1605	-0.4785	0	21	1035	1
2026-02-11	16:02:28.810	-0.07	-0.105	-0.07	-0.00732	0.005124	1.01504	0.3375	0.1575	-0.4875	0	18	1035	1
2026-02-11	16:02:28.830	-0.07	-0.105	-0.105	-0.00122	0.009516	1.011624	0.3345	0.1545	-0.486	0	18	1035	1
2026-02-11	16:02:28.850	-0.07	-0.105	-0.105	-0.004392	0.00976	1.0126	0.3345	0.1605	-0.48	0	18	1035	1
2026-02-11	16:02:28.870	-0.035	-0.14	-0.07	-0.003416	0.007808	1.013332	0.3375	0.1605	-0.48	0	18	1035	1
2026-02-11	16:02:28.890	-0.07	-0.105	-0.07	-0.005612	0.007076	1.01504	0.327	0.1605	-0.483	0	18	1035	1
2026-02-11	16:02:28.910	0	-0.105	-0.105	0.000732	0.009272	1.008696	0.327	0.1605	-0.4815	0	18	1035	1
2026-02-11	16:02:28.930	-0.035	-0.07	-0.105	-0.003172	0.00976	1.01138	0.3315	0.159	-0.483	0	18	1035	1
2026-02-11	16:02:28.950	-0.07	-0.105	-0.105	-0.00366	0.006832	1.013332	0.33	0.1605	-0.48	0	18	1035	1
2026-02-11	16:02:28.970	-0.07	-0.105	-0.105	-0.000976	0.008784	1.01504	0.327	0.162	-0.4785	0	18	1035	1
2026-02-11	16:02:28.990	-0.07	-0.105	-0.07	-0.00366	0.005612	1.012112	0.3285	0.162	-0.486	0	18	1035	1
2026-02-11	16:02:29.010	-0.035	-0.105	-0.105	-0.00244	0.00732	1.01382	0.327	0.162	-0.4845	0	16	1035	1
2026-02-11	16:02:29.030	-0.035	-0.105	-0.105	-0.002684	0.007808	1.013088	0.3285	0.162	-0.48	0	16	1035	1
2026-02-11	16:02:29.050	-0.07	-0.105	-0.105	-0.008052	0.008784	1.014308	0.3315	0.153	-0.4815	0	16	1035	1
2026-02-11	16:02:29.070	-0.035	-0.07	-0.07	-0.003416	0.00976	1.012844	0.3345	0.1605	-0.483	0	16	1035	1
2026-02-11	16:02:29.090	-0.035	-0.105	-0.105	-0.00122	0.007808	1.012844	0.3345	0.1605	-0.483	0	16	1035	1
2026-02-11	16:02:29.110	-0.035	-0.14	-0.07	-0.004636	0.00732	1.011136	0.3345	0.162	-0.4815	0	16	1035	1
2026-02-11	16:02:29.130	-0.035	-0.105	-0.07	-0.001952	0.006588	1.015284	0.3285	0.1605	-0.483	0	16	1035	1
2026-02-11	16:02:29.150	-0.035	-0.105	-0.105	-0.003904	0.00732	1.010648	0.3255	0.159	-0.483	0	16	1035	1
2026-02-11	16:02:29.170	-0.035	-0.105	-0.07	-0.003904	0.009272	1.012844	0.33	0.159	-0.483	0	16	1035	1
2026-02-11	16:02:29.190	-0.035	-0.14	-0.07	-0.006832	0.009516	1.016016	0.33	0.159	-0.48	0	16	1035	1
2026-02-11	16:02:29.210	-0.035	-0.105	-0.07	-0.00366	0.009028	1.015284	0.33	0.1605	-0.477	0	14	1035	1
2026-02-11	16:02:29.230	-0.035	-0.105	-0.07	-0.004636	0.008784	1.014064	0.3315	0.159	-0.4845	0	14	1035	1
2026-02-11	16:02:29.250	-0.035	-0.14	-0.07	-0.00732	0.007564	1.013088	0.3315	0.159	-0.483	0	14	1035	1
2026-02-11	16:02:29.270	-0.07	-0.105	-0.07	-0.00122	0.005856	1.014796	0.33	0.159	-0.4785	0	14	1035	1
2026-02-11	16:02:29.290	-0.035	-0.105	-0.07	-0.002684	0.009028	1.014064	0.327	0.162	-0.477	0	14	1035	1
2026-02-11	16:02:29.310	-0.07	-0.105	-0.07	-0.001952	0.006588	1.012356	0.33	0.1605	-0.486	0	14	1035	1
2026-02-11	16:02:29.330	-0.07	-0.105	-0.07	-0.001464	0.00976	1.013088	0.324	0.1605	-0.4815	0	14	1035	1
2026-02-11	16:02:29.350	-0.035	-0.105	-0.07	-0.004636	0.011224	1.015284	0.3375	0.156	-0.483	0	14	1035	1
2026-02-11	16:02:29.370	-0.07	-0.105	-0.07	-0.00488	0.009028	1.012356	0.3315	0.159	-0.4785	0	14	1035	1
2026-02-11	16:02:29.390	-0.035	-0.105	-0.105	-0.000244	0.009272	1.014064	0.339	0.162	-0.477	0	14	1035	1
2026-02-11	16:02:29.410	-0.035	-0.14	-0.07	-0.00244	0.005856	1.014308	0.333	0.162	-0.483	0	12	1036	1
2026-02-11	16:02:29.430	-0.035	-0.14	-0.105	-0.007076	0.008296	1.012844	0.3375	0.156	-0.4755	0	12	1036	1
2026-02-11	16:02:29.450	-0.07	-0.105	-0.105	-0.000488	0.006588	1.01382	0.3375	0.156	-0.4755	0	12	1036	1
2026-02-11	16:02:29.470	-0.07	-0.105	-0.105	0.000488	0.007076	1.014796	0.333	0.1605	-0.477	0	12	1036	1
2026-02-11	16:02:29.490	-0.035	-0.14	-0.105	-0.00244	0.006832	1.014796	0.33	0.162	-0.477	0	12	1036	1
2026-02-11	16:02:29.510	-0.07	-0.105	-0.105	-0.00244	0.008296	1.010648	0.33	0.159	-0.48	0	12	1036	1
2026-02-11	16:02:29.530	-0.035	-0.07	-0.105	-0.003904	0.005856	1.013576	0.3315	0.1605	-0.483	0	12	1036	1
2026-02-11	16:02:29.550	-0.035	-0.105	-0.07	-0.003904	0.009516	1.013088	0.333	0.162	-0.48	0	12	1036	1
2026-02-11	16:02:29.570	-0.035	-0.105	-0.07	-0.00366	0.00854	1.012356	0.333	0.1635	-0.48	0	12	1036	1
2026-02-11	16:02:29.590	-0.07	-0.105	-0.105	-0.00244	0.007564	1.012356	0.333	0.1605	-0.4815	0	12	1036	1
2026-02-11	16:02:29.610	-0.07	-0.07	-0.07	-0.001952	0.010004	1.015772	0.3315	0.159	-0.4815	0	11	1036	1
2026-02-11	16:02:29.630	-0.035	-0.105	-0.07	-0.003172	0.005368	1.012844	0.3315	0.1605	-0.4815	0	11	1036	1
2026-02-11	16:02:29.650	-0.035	-0.105	-0.105	-0.005124	0.008052	1.015528	0.3345	0.1635	-0.4785	0	11	1036	1
2026-02-11	16:02:29.670	-0.07	-0.105	-0.07	-0.00366	0.010492	1.0126	0.3195	0.168	-0.483	0	11	1036	1
2026-02-11	16:02:29.690	-0.07	-0.105	-0.035	-0.0061	0.00732	1.014308	0.33	0.162	-0.4815	0	11	1036	1
2026-02-11	16:02:29.710	-0.07	-0.14	-0.07	-0.004392	0.007808	1.009916	0.33	0.159	-0.483	0	11	1036	1
2026-02-11	16:02:29.730	-0.035	-0.14	-0.07	-0.003172	0.010004	1.011624	0.327	0.1575	-0.4845	0	11	1036	1
2026-02-11	16:02:29.750	-0.07	-0.14	-0.105	-0.003172	0.010492	1.009428	0.3255	0.1575	-0.483	0	11	1036	1
2026-02-11	16:02:29.770	-0.07	-0.105	-0.14	-0.001708	0.007808	1.01138	0.327	0.1575	-0.48	0	11	1036	1
2026-02-11	16:02:29.790	-0.07	-0.07	-0.14	-0.00366	0.009272	1.013332	0.3315	0.1605	-0.4845	0	11	1036	1
2026-02-11	16:02:29.810	-0.07	-0.105	-0.105	0.000732	0.007076	1.013088	0.3345	0.165	-0.489	0	9	1036	1
2026-02-11	16:02:29.830	-0.035	-0.105	-0.07	0.000488	0.0061	1.011624	0.3345	0.165	-0.489	0	9	1036	1
2026-02-11	16:02:29.850	-0.105	-0.105	-0.07	0.000976	0.01098	1.012844	0.324	0.159	-0.4875	0	9	1036	1
2026-02-11	16:02:29.870	-0.105	-0.105	-0.105	-0.00122	0.006832	1.015528	0.3315	0.1515	-0.48	0	9	1036	1
2026-02-11	16:02:29.890	-0.07	-0.105	-0.07	-0.003172	0.008052	1.014308	0.3315	0.1545	-0.4875	0	9	1036	1
2026-02-11	16:02:29.910	-0.035	-0.105	-0.105	-0.001708	0.00732	1.01626	0.3285	0.1635	-0.4785	0	9	1036	1
2026-02-11	16:02:29.930	-0.035	-0.14	-0.07	-0.003416	0.009028	1.0126	0.3255	0.1605	-0.4845	0	9	1036	1
2026-02-11	16:02:29.950	-0.035	-0.14	-0.07	0.000732	0.009272	1.0126	0.3435	0.168	-0.4875	0	9	1036	1
2026-02-11	16:02:29.970	-0.07	-0.105	-0.07	-0.004392	0.008296	1.0126	0.339	0.1695	-0.4875	0	9	1036	1
2026-02-11	16:02:29.990	-0.07	-0.07	-0.105	-0.001464	0.008784	1.011624	0.3345	0.1575	-0.48	0	9	1036	1
2026-02-11	16:02:30.010	-0.07	-0.105	-0.105	-0.004392	0.008784	1.012356	0.333	0.159	-0.4785	0	8	1036	1
2026-02-11	16:02:30.030	-0.035	-0.175	-0.105	-0.003416	0.008052	1.01138	0.3345	0.1605	-0.4785	0	8	1036	1
2026-02-11	16:02:30.050	-0.035	-0.105	-0.07	0	0.0061	1.012356	0.336	0.1575	-0.48	0	8	1036	1
2026-02-11	16:02:30.070	-0.07	-0.105	-0.105	-0.004148	0.004636	1.01626	0.3345	0.1575	-0.483	0	8	1036	1
2026-02-11	16:02:30.090	-0.07	-0.14	-0.105	-0.00244	0.006344	1.014308	0.33	0.159	-0.483	0	8	1036	1
2026-02-11	16:02:30.110	-0.035	-0.105	-0.105	-0.003904	0.010004	1.008696	0.33	0.156	-0.48	0	8	1036	1
2026-02-11	16:02:30.130	-0.035	-0.105	-0.07	-0.00244	0.00854	1.014552	0.3345	0.1575	-0.4785	0	8	1036	1
2026-02-11	16:02:30.150	-0.035	-0.105	-0.105	-0.003416	0.010004	1.013088	0.33	0.159	-0.4785	0	8	1036	1
2026-02-11	16:02:30.170	-0.035	-0.14	-0.105	-0.002928	0.009272	1.014796	0.3285	0.1575	-0.4785	0	8	1036	1
2026-02-11	16:02:30.190	-0.035	-0.105	-0.07	-0.007076	0.009272	1.013332	0.333	0.156	-0.4755	0	8	1036	1
2026-02-11	16:02:30.210	-0.035	-0.14	-0.105	-0.006832	0.00732	1.010648	0.327	0.1575	-0.48	0	7	1036	1
2026-02-11	16:02:30.230	-0.07	-0.105	-0.07	-0.000976	0.007076	1.015284	0.33	0.1605	-0.486	0	7	1036	1
2026-02-11	16:02:30.250	-0.07	-0.105	-0.07	0	0.0061	1.013088	0.3255	0.1605	-0.4785	0	7	1036	1
2026-02-11	16:02:30.270	-0.035	-0.14	-0.105	-0.002196	0.00976	1.011624	0.33	0.1605	-0.483	0	7	1036	1
2026-02-11	16:02:30.290	-0.035	-0.105	-0.07	-0.00244	0.008784	1.011868	0.336	0.1635	-0.486	0	7	1036	1
2026-02-11	16:02:30.310	-0.035	-0.07	-0.105	-0.00366	0.010736	1.009916	0.327	0.1575	-0.483	0	7	1036	1
2026-02-11	16:02:30.330	-0.07	-0.14	-0.105	-0.003416	0.008052	1.011624	0.3315	0.156	-0.48	0	7	1036	1
2026-02-11	16:02:30.350	-0.07	-0.14	-0.105	-0.002928	0.010492	1.012356	0.33	0.1635	-0.4785	0	7	1036	1
2026-02-11	16:02:30.370	-0.035	-0.105	-0.105	-0.00488	0.008784	1.01138	0.33	0.1635	-0.4785	0	7	1036	1
2026-02-11	16:02:30.390	-0.035	-0.14	-0.105	-0.0061	0.007564	1.016992	0.33	0.156	-0.483	0	7	1036	1
2026-02-11	16:02:30.410	-0.035	-0.105	-0.105	-0.002928	0.010004	1.014064	0.33	0.165	-0.4815	0	6	1036	1
2026-02-11	16:02:30.430	-0.035	-0.105	-0.07	-0.000488	0.008784	1.01138	0.3375	0.1635	-0.4815	0	6	1036	1
2026-02-11	16:02:30.450	-0.035	-0.105	-0.105	-0.002196	0.011956	1.011868	0.336	0.1575	-0.48	0	6	1036	1
2026-02-11	16:02:30.470	-0.07	-0.14	-0.07	-0.00366	0.006832	1.013088	0.3315	0.1665	-0.4815	0	6	1036	1
2026-02-11	16:02:30.490	-0.07	-0.105	-0.07	-0.003904	0.011224	1.012844	0.324	0.1635	-0.483	0	6	1036	1
2026-02-11	16:02:30.510	-0.07	-0.105	-0.105	-0.004392	0.00854	1.01626	0.3345	0.1605	-0.48	0	6	1036	1
2026-02-11	16:02:30.530	-0.035	-0.105	-0.07	-0.003416	0.00854	1.013088	0.336	0.168	-0.483	0	6	1036	1
2026-02-11	16:02:30.550	-0.035	-0.07	-0.07	0	0.010736	1.010892	0.3315	0.1545	-0.483	0	6	1036	1
2026-02-11	16:02:30.570	-0.035	-0.105	-0.105	-0.002684	0.009516	1.012112	0.3315	0.1575	-0.4815	0	6	1036	1
2026-02-11	16:02:30.590	-0.07	-0.105	-0.105	-0.005368	0.0122	1.015284	0.3315	0.159	-0.4815	0	6	1036	1
2026-02-11	16:02:30.610	-0.07	-0.105	-0.07	-0.003904	0.00854	1.011136	0.3255	0.156	-0.48	0	6	1036	1
2026-02-11	16:02:30.630	-0.07	-0.105	-0.105	-0.002684	0.008296	1.01382	0.3255	0.1575	-0.4815	0	6	1036	1
2026-02-11	16:02:30.650	-0.035	-0.105	-0.07	-0.001708	0.007564	1.011136	0.33	0.1605	-0.483	0	6	1036	1
2026-02-11	16:02:30.670	-0.035	-0.14	-0.07	0.00122	0.007808	1.014308	0.33	0.1635	-0.483	0	6	1036	1
2026-02-11	16:02:30.690	-0.035	-0.14	-0.07	-0.002928	0.009028	1.011136	0.3315	0.1635	-0.4815	0	6	1036	1
2026-02-11	16:02:30.710	-0.07	-0.105	-0.105	-0.001464	0.010004	1.01504	0.333	0.1605	-0.4785	0	6	1036	1
2026-02-11	16:02:30.730	-0.035	-0.14	-0.07	-0.003904	0.008784	1.013332	0.3315	0.159	-0.4815	0	6	1036	1
2026-02-11	16:02:30.750	-0.07	-0.14	-0.07	-0.004148	0.010736	1.011868	0.3315	0.165	-0.48	0	6	1036	1
2026-02-11	16:02:30.770	-0.07	-0.14	-0.105	-0.004636	0.00732	1.015284	0.324	0.1605	-0.48	0	6	1036	1
2026-02-11	16:02:30.790	-0.035	-0.105	-0.105	-0.00366	0.00976	1.014796	0.3285	0.165	-0.486	0	6	1036	1
2026-02-11	16:02:30.810	-0.035	-0.105	-0.07	-0.002196	0.00976	1.015528	0.3345	0.159	-0.4875	0	5	1036	1
2026-02-11	16:02:30.830	-0.035	-0.105	-0.07	-0.001952	0.008052	1.009916	0.3405	0.1635	-0.4815	0	5	1036	1
2026-02-11	16:02:30.850	-0.07	-0.07	-0.07	0.000244	0.006588	1.010648	0.3255	0.162	-0.48	0	5	1036	1
2026-02-11	16:02:30.870	-0.035	-0.105	-0.07	-0.004392	0.006588	1.012356	0.327	0.1575	-0.4815	0	5	1036	1
2026-02-11	16:02:30.890	-0.07	-0.105	-0.105	-0.00366	0.00976	1.012844	0.3345	0.165	-0.483	0	5	1036	1
2026-02-11	16:02:30.910	-0.07	-0.105	-0.035	-0.002196	0.00854	1.01138	0.3285	0.1575	-0.4785	0	5	1036	1
2026-02-11	16:02:30.930	-0.035	-0.105	-0.105	-0.00366	0.009272	1.009428	0.3315	0.162	-0.4785	0	5	1036	1
2026-02-11	16:02:30.950	-0.035	-0.105	-0.105	-0.003416	0.005612	1.013332	0.3345	0.165	-0.4815	0	5	1036	1
2026-02-11	16:02:30.970	-0.035	-0.105	-0.07	-0.003172	0.006832	1.011624	0.33	0.1635	-0.4785	0	5	1036	1
2026-02-11	16:02:30.990	-0.035	-0.105	-0.07	-0.000244	0.00976	1.013576	0.33	0.1605	-0.4785	0	5	1036	1
2026-02-11	16:02:31.010	-0.035	-0.105	-0.105	-0.002196	0.008784	1.012112	0.336	0.1575	-0.4815	0	5	1036	1
2026-02-11	16:02:31.030	-0.035	-0.14	-0.105	-0.005856	0.010736	1.0126	0.327	0.1635	-0.4905	0	5	1036	1
2026-02-11	16:02:31.050	-0.035	-0.105	-0.105	-0.002684	0.010248	1.011136	0.33	0.153	-0.4845	0	5	1036	1
2026-02-11	16:02:31.070	-0.035	-0.105	-0.07	-0.00122	0.008052	1.011868	0.3315	0.159	-0.489	0	5	1036	1
2026-02-11	16:02:31.090	-0.07	-0.105	-0.105	0.000488	0.007076	1.012356	0.3255	0.1545	-0.489	0	5	1036	1
2026-02-11	16:02:31.110	-0.035	-0.105	-0.07	-0.00244	0.007808	1.010892	0.3285	0.1575	-0.4845	0	5	1036	1
2026-02-11	16:02:31.130	-0.035	-0.14	-0.105	-0.003904	0.012688	1.012112	0.33	0.159	-0.48	0	5	1036	1
2026-02-11	16:02:31.150	-0.07	-0.105	-0.105	-0.001708	0.009272	1.013576	0.327	0.156	-0.48	0	5	1036	1
2026-02-11	16:02:31.170	-0.07	-0.105	-0.105	0.000488	0.007808	1.014552	0.3285	0.162	-0.483	0	5	1036	1
2026-02-11	16:02:31.190	-0.035	-0.105	-0.105	-0.002928	0.007564	1.01016	0.333	0.165	-0.483	0	5	1036	1
2026-02-11	16:02:31.210	-0.035	-0.105	-0.105	-0.00244	0.007076	1.010892	0.333	0.1605	-0.48	0	5	1036	1
2026-02-11	16:02:31.230	-0.07	-0.105	-0.07	-0.003172	0.00854	1.014796	0.3285	0.1605	-0.483	0	5	1036	1
2026-02-11	16:02:31.250	-0.035	-0.105	-0.07	-0.005612	0.011224	1.012844	0.33	0.162	-0.4845	0	5	1036	1
2026-02-11	16:02:31.270	-0.07	-0.14	-0.07	-0.004392	0.006588	1.011136	0.3345	0.1605	-0.4785	0	5	1036	1
2026-02-11	16:02:31.290	-0.07	-0.105	-0.07	-0.005124	0.009028	1.016992	0.3345	0.1605	-0.4785	0	5	1036	1
2026-02-11	16:02:31.310	-0.035	-0.105	-0.105	-0.005124	0.007808	1.013088	0.327	0.1605	-0.486	0	5	1036	1
2026-02-11	16:02:31.330	-0.035	-0.105	-0.105	-0.0061	0.008052	1.012356	0.336	0.1665	-0.4785	0	5	1036	1
2026-02-11	16:02:31.350	-0.07	-0.105	-0.105	-0.004636	0.010736	1.011136	0.3225	0.1635	-0.477	0	5	1036	1
2026-02-11	16:02:31.370	-0.07	-0.105	-0.105	-0.000732	0.008296	1.015284	0.33	0.1575	-0.486	0	5	1036	1
2026-02-11	16:02:31.390	-0.07	-0.14	-0.105	-0.00488	0.00854	1.012844	0.3255	0.165	-0.4845	0	5	1036	1
2026-02-11	16:02:31.410	-0.07	-0.105	-0.07	-0.00122	0.008296	1.011868	0.3345	0.1545	-0.489	0	4	1036	1
2026-02-11	16:02:31.430	-0.105	-0.14	-0.07	-0.002196	0.011468	1.01626	0.3345	0.153	-0.4845	0	4	1036	1
2026-02-11	16:02:31.450	-0.07	-0.105	-0.105	-0.001952	0.008052	1.014796	0.3285	0.159	-0.4785	0	4	1036	1
2026-02-11	16:02:31.470	-0.035	-0.14	-0.105	-0.003416	0.008296	1.00894	0.33	0.1575	-0.48	0	4	1036	1
2026-02-11	16:02:31.490	-0.07	-0.105	-0.07	-0.003172	0.00732	1.013576	0.3315	0.1605	-0.4845	0	4	1036	1
2026-02-11	16:02:31.510	-0.035	-0.105	-0.105	-0.005368	0.006344	1.01382	0.3315	0.159	-0.483	0	4	1036	1
2026-02-11	16:02:31.530	-0.035	-0.105	-0.07	-0.001708	0.010004	1.011868	0.33	0.1545	-0.48	0	4	1036	1
2026-02-11	16:02:31.550	-0.07	-0.14	-0.105	-0.004636	0.008784	1.013332	0.3285	0.1575	-0.48	0	4	1036	1
2026-02-11	16:02:31.570	-0.035	-0.105	-0.105	-0.003416	0.008052	1.014308	0.33	0.1575	-0.48	0	4	1036	1
2026-02-11	16:02:31.590	-0.035	-0.105	-0.07	-0.002196	0.006344	1.01382	0.33	0.156	-0.4785	0	4	1036	1
2026-02-11	16:02:31.610	-0.035	-0.105	-0.105	-0.000976	0.006344	1.011624	0.327	0.159	-0.477	0	4	1036	1
2026-02-11	16:02:31.630	-0.035	-0.175	-0.105	-0.00244	0.00488	1.014552	0.327	0.159	-0.4785	0	4	1036	1
2026-02-11	16:02:31.650	-0.07	-0.105	-0.105	-0.004392	0.006832	1.010404	0.3285	0.1575	-0.48	0	4	1036	1
2026-02-11	16:02:31.670	-0.035	-0.07	-0.07	-0.003904	0.007808	1.0126	0.3285	0.1605	-0.483	0	4	1036	1
2026-02-11	16:02:31.690	-0.07	-0.105	-0.07	-0.002928	0.010004	1.011868	0.3285	0.162	-0.483	0	4	1036	1
2026-02-11	16:02:31.710	-0.035	-0.14	-0.035	-0.002684	0.007564	1.012112	0.327	0.159	-0.477	0	4	1036	1
2026-02-11	16:02:31.730	-0.035	-0.07	-0.105	-0.00366	0.009028	1.010404	0.3315	0.159	-0.4755	0	4	1036	1
2026-02-11	16:02:31.750	-0.035	-0.14	-0.105	-0.001708	0.010248	1.01504	0.3375	0.159	-0.4815	0	4	1036	1
2026-02-11	16:02:31.770	-0.035	-0.105	-0.105	-0.006588	0.006832	1.011868	0.3375	0.159	-0.4815	0	4	1036	1
2026-02-11	16:02:31.790	-0.035	-0.14	-0.07	-0.000488	0.007564	1.012112	0.333	0.156	-0.4785	0	4	1036	1
2026-02-11	16:02:31.810	-0.035	-0.105	-0.07	-0.003172	0.00854	1.012356	0.33	0.159	-0.48	0	4	1036	1
2026-02-11	16:02:31.830	-0.07	-0.105	-0.07	-0.003416	0.00854	1.011868	0.3315	0.1665	-0.48	0	4	1036	1
2026-02-11	16:02:31.850	-0.07	-0.14	-0.07	-0.001464	0.00976	1.012112	0.33	0.159	-0.4815	0	4	1036	1
2026-02-11	16:02:31.870	-0.07	-0.105	-0.07	-0.002196	0.008052	1.012844	0.333	0.162	-0.483	0	4	1036	1
2026-02-11	16:02:31.890	-0.07	-0.14	-0.07	-0.007076	0.007564	1.014796	0.333	0.162	-0.4815	0	4	1036	1
2026-02-11	16:02:31.910	-0.035	-0.14	-0.105	-0.00488	0.006588	1.014064	0.324	0.159	-0.486	0	4	1036	1
2026-02-11	16:02:31.930	-0.035	-0.105	-0.07	-0.00122	0.010492	1.010892	0.327	0.1635	-0.4845	0	4	1036	1
2026-02-11	16:02:31.950	-0.035	-0.105	-0.07	-0.004636	0.006832	1.012356	0.327	0.1635	-0.4905	0	4	1036	1
2026-02-11	16:02:31.970	-0.035	-0.14	-0.07	-0.00366	0.006588	1.011868	0.33	0.1515	-0.4845	0	4	1036	1
2026-02-11	16:02:31.990	-0.07	-0.14	-0.105	-0.00366	0.005856	1.013332	0.3345	0.159	-0.483	0	4	1036	1
2026-02-11	16:02:32.010	-0.035	-0.07	-0.07	-0.004636	0.008052	1.0126	0.333	0.1605	-0.48	0	4	1036	1
2026-02-11	16:02:32.030	-0.035	-0.105	-0.07	-0.00366	0.009272	1.012356	0.33	0.159	-0.483	0	4	1036	1
2026-02-11	16:02:32.050	-0.035	-0.105	-0.07	-0.001708	0.00976	1.013576	0.327	0.159	-0.4815	0	4	1036	1
2026-02-11	16:02:32.070	-0.07	-0.105	-0.105	-0.004148	0.00732	1.011624	0.333	0.159	-0.4815	0	4	1036	1
2026-02-11	16:02:32.090	-0.07	-0.14	-0.105	-0.002928	0.006344	1.015284	0.333	0.156	-0.483	0	4	1036	1
2026-02-11	16:02:32.110	-0.035	-0.14	-0.105	-0.00244	0.006344	1.013088	0.3285	0.156	-0.4785	0	4	1036	1
2026-02-11	16:02:32.130	-0.035	-0.105	-0.07	-0.005612	0.009272	1.014064	0.3285	0.156	-0.4815	0	4	1036	1
2026-02-11	16:02:32.150	0	-0.105	-0.105	-0.00366	0.009028	1.013576	0.33	0.1605	-0.483	0	4	1036	1
2026-02-11	16:02:32.170	-0.07	-0.175	-0.14	-0.002928	0.006344	1.012356	0.3285	0.1635	-0.4815	0	4	1036	1
2026-02-11	16:02:32.190	-0.035	-0.14	-0.105	-0.002928	0.00732	1.013576	0.3255	0.165	-0.4815	0	4	1036	1
2026-02-11	16:02:32.210	-0.035	-0.105	-0.07	-0.003416	0.007076	1.014308	0.3255	0.165	-0.4815	0	3	1036	1
2026-02-11	16:02:32.230	-0.07	-0.105	-0.105	-0.003904	0.00732	1.011624	0.3345	0.1605	-0.486	0	3	1036	1
2026-02-11	16:02:32.250	-0.035	-0.105	-0.07	-0.004636	0.00732	1.013332	0.3315	0.1635	-0.486	0	3	1036	1
2026-02-11	16:02:32.270	-0.07	-0.14	-0.07	-0.00366	0.0061	1.01138	0.3345	0.1635	-0.4785	0	3	1036	1
2026-02-11	16:02:32.290	-0.07	-0.105	-0.07	0.001708	0.005368	1.010892	0.333	0.153	-0.48	0	3	1036	1
2026-02-11	16:02:32.310	-0.07	-0.105	-0.07	-0.000976	0.00854	1.015772	0.3375	0.1575	-0.486	0	3	1036	1
2026-02-11	16:02:32.330	-0.07	-0.14	-0.105	-0.003904	0.010248	1.012356	0.336	0.1575	-0.4845	0	3	1036	1
2026-02-11	16:02:32.350	-0.035	-0.14	-0.105	-0.003172	0.005124	1.011136	0.333	0.159	-0.4815	0	3	1036	1
2026-02-11	16:02:32.370	-0.035	-0.105	-0.07	-0.003416	0.009272	1.013576	0.3315	0.1605	-0.4815	0	3	1036	1
2026-02-11	16:02:32.390	-0.035	-0.07	-0.07	-0.00366	0.00976	1.014552	0.3315	0.1605	-0.4815	0	3	1036	1
2026-02-11	16:02:32.410	-0.035	-0.105	-0.105	-0.005368	0.006832	1.011136	0.33	0.1605	-0.483	0	3	1036	1
2026-02-11	16:02:32.430	-0.035	-0.105	-0.105	-0.002684	0.00854	1.011624	0.327	0.159	-0.483	0	3	1036	1
2026-02-11	16:02:32.450	-0.07	-0.105	-0.105	-0.002928	0.010736	1.013576	0.33	0.1575	-0.4815	0	3	1036	1
2026-02-11	16:02:32.470	-0.07	-0.105	-0.105	-0.002928	0.006588	1.013576	0.33	0.162	-0.4815	0	3	1036	1
2026-02-11	16:02:32.490	-0.07	-0.14	-0.105	-0.000976	0.01098	1.014796	0.33	0.1665	-0.486	0	3	1036	1
2026-02-11	16:02:32.510	-0.035	-0.14	-0.105	-0.003172	0.006344	1.013576	0.333	0.165	-0.4785	0	3	1036	1
2026-02-11	16:02:32.530	0	-0.14	-0.105	-0.003416	0.006588	1.012112	0.3315	0.165	-0.48	0	3	1036	1
2026-02-11	16:02:32.550	-0.035	-0.14	-0.07	-0.001708	0.011224	1.013332	0.3345	0.1635	-0.4785	0	3	1036	1
2026-02-11	16:02:32.570	-0.035	-0.105	-0.105	-0.004636	0.007076	1.01382	0.3345	0.159	-0.4785	0	3	1036	1
2026-02-11	16:02:32.590	-0.035	-0.105	-0.105	-0.000488	0.009516	1.012844	0.3345	0.159	-0.48	0	3	1036	1
2026-02-11	16:02:32.610	-0.07	-0.105	-0.07	-0.00244	0.00854	1.014064	0.3375	0.159	-0.483	0	3	1036	1
2026-02-11	16:02:32.630	-0.035	-0.105	-0.07	-0.003416	0.00732	1.013088	0.3345	0.159	-0.483	0	3	1036	1
2026-02-11	16:02:32.650	-0.035	-0.105	-0.07	-0.001952	0.008296	1.013088	0.3285	0.1575	-0.4845	0	3	1036	1
2026-02-11	16:02:32.670	-0.035	-0.07	-0.07	-0.0061	0.008296	1.013088	0.3285	0.1575	-0.4845	0	3	1036	1
2026-02-11	16:02:32.690	-0.07	-0.14	-0.07	-0.003172	0.00976	1.014552	0.33	0.165	-0.4845	0	3	1036	1
2026-02-11	16:02:32.710	-0.035	-0.14	-0.07	-0.004392	0.009028	1.012356	0.3315	0.165	-0.4845	0	3	1036	1
2026-02-11	16:02:32.730	-0.035	-0.105	-0.07	-0.004392	0.007808	1.010404	0.33	0.162	-0.4815	0	3	1036	1
2026-02-11	16:02:32.750	-0.07	-0.105	-0.07	-0.002196	0.00732	1.017236	0.3315	0.162	-0.483	0	3	1036	1
2026-02-11	16:02:32.770	-0.035	-0.105	-0.105	-0.004636	0.00732	1.0126	0.327	0.159	-0.486	0	3	1036	1
2026-02-11	16:02:32.790	-0.07	-0.105	-0.105	-0.00244	0.007808	1.01382	0.327	0.159	-0.4845	0	3	1036	1
2026-02-11	16:02:32.810	-0.035	-0.105	-0.07	-0.007808	0.011468	1.0126	0.33	0.162	-0.4845	0	3	1036	1
2026-02-11	16:02:32.830	-0.035	-0.105	-0.07	-0.0061	0.00732	1.013576	0.3405	0.1605	-0.4845	0	3	1036	1
2026-02-11	16:02:32.850	-0.035	-0.14	-0.07	-0.003904	0.010004	1.015284	0.3315	0.156	-0.48	0	3	1036	1
2026-02-11	16:02:32.870	-0.07	-0.14	-0.07	-0.004148	0.011468	1.010648	0.3315	0.165	-0.48	0	3	1036	1
2026-02-11	16:02:32.890	-0.07	-0.105	-0.07	0.001708	0.007808	1.0126	0.3375	0.159	-0.48	0	3	1036	1
2026-02-11	16:02:32.910	-0.07	-0.105	-0.07	-0.003416	0.010004	1.010404	0.3285	0.1605	-0.48	0	3	1036	1
2026-02-11	16:02:32.930	-0.07	-0.105	-0.105	-0.00366	0.00732	1.016504	0.3285	0.1605	-0.48	0	3	1036	1
2026-02-11	16:02:32.950	-0.035	-0.105	-0.105	-0.00366	0.009272	1.012356	0.33	0.1575	-0.483	0	3	1036	1
2026-02-11	16:02:32.970	-0.035	-0.14	-0.105	-0.005124	0.008052	1.013576	0.333	0.156	-0.486	0	3	1036	1
2026-02-11	16:02:32.990	-0.035	-0.105	-0.105	-0.002928	0.009272	1.009428	0.336	0.153	-0.4905	0	3	1036	1
2026-02-11	16:02:33.010	-0.07	-0.105	-0.07	-0.00122	0.008784	1.013576	0.3315	0.1545	-0.486	0	3	1036	1
2026-02-11	16:02:33.030	-0.035	-0.105	-0.105	-0.004148	0.007808	1.015772	0.33	0.168	-0.4875	0	3	1036	1
2026-02-11	16:02:33.050	-0.07	-0.105	-0.07	-0.001464	0.005612	1.012356	0.3255	0.1545	-0.483	0	3	1036	1
2026-02-11	16:02:33.070	-0.07	-0.14	-0.105	-0.002928	0.005856	1.015772	0.33	0.1605	-0.4845	0	3	1036	1
2026-02-11	16:02:33.090	-0.07	-0.105	-0.07	-0.003904	0.008296	1.011624	0.333	0.1545	-0.48	0	3	1036	1
2026-02-11	16:02:33.110	-0.07	-0.105	-0.07	-0.000732	0.008296	1.010892	0.3315	0.1605	-0.4815	0	3	1036	1
2026-02-11	16:02:33.130	-0.07	-0.14	-0.07	-0.001952	0.006588	1.01138	0.3315	0.1575	-0.4815	0	3	1036	1
2026-02-11	16:02:33.150	-0.105	-0.105	-0.07	-0.002684	0.011468	1.012356	0.3315	0.1545	-0.4725	0	3	1036	1
2026-02-11	16:02:33.170	-0.035	-0.105	-0.07	-0.00366	0.008784	1.013576	0.33	0.1575	-0.4725	0	3	1036	1
2026-02-11	16:02:33.190	-0.035	-0.105	-0.07	-0.002684	0.005612	1.015284	0.3315	0.1605	-0.4785	0	3	1036	1
2026-02-11	16:02:33.210	-0.035	-0.105	-0.07	-0.001464	0.006832	1.010404	0.336	0.1635	-0.4785	0	3	1036	1
2026-02-11	16:02:33.230	-0.07	-0.14	-0.105	-0.00244	0.008052	1.0126	0.336	0.159	-0.48	0	3	1036	1
2026-02-11	16:02:33.250	-0.07	-0.14	-0.105	-0.00122	0.006832	1.013332	0.333	0.159	-0.4815	0	3	1036	1
2026-02-11	16:02:33.270	-0.105	-0.14	-0.105	-0.002684	0.0061	1.016504	0.3315	0.1605	-0.4845	0	3	1036	1
2026-02-11	16:02:33.290	-0.07	-0.105	-0.105	-0.00366	0.006588	1.013576	0.3345	0.1575	-0.486	0	3	1036	1
2026-02-11	16:02:33.310	0	-0.105	-0.07	-0.004636	0.010492	1.012844	0.327	0.1605	-0.4815	0	3	1036	1
2026-02-11	16:02:33.330	0	-0.07	-0.07	-0.000488	0.009028	1.01138	0.3345	0.1545	-0.483	0	3	1036	1
2026-02-11	16:02:33.350	-0.035	-0.105	-0.07	-0.005856	0.011956	1.011624	0.3315	0.1695	-0.4845	0	3	1036	1
2026-02-11	16:02:33.370	-0.035	-0.14	-0.07	-0.002684	0.009028	1.01138	0.3375	0.1605	-0.4875	0	3	1036	1
2026-02-11	16:02:33.390	-0.07	-0.14	-0.07	-0.002684	0.010492	1.006012	0.3315	0.1635	-0.486	0	3	1036	1
2026-02-11	16:02:33.410	-0.07	-0.07	-0.105	-0.000488	0.010248	1.015772	0.3315	0.156	-0.48	0	3	1036	1
2026-02-11	16:02:33.430	-0.07	-0.105	-0.07	-0.005368	0.006344	1.016016	0.3285	0.1575	-0.4875	0	3	1036	1
2026-02-11	16:02:33.450	-0.035	-0.105	-0.07	-0.000244	0.007564	1.011136	0.3285	0.1575	-0.477	0	3	1036	1
2026-02-11	16:02:33.470	-0.035	-0.105	-0.07	0	0.00732	1.014308	0.3375	0.153	-0.4875	0	3	1036	1
2026-02-11	16:02:33.490	-0.035	-0.14	-0.07	0.000732	0.011468	1.014064	0.333	0.156	-0.4875	0	3	1036	1
2026-02-11	16:02:33.510	-0.07	-0.14	-0.105	-0.002928	0.007076	1.006744	0.333	0.1575	-0.489	0	3	1036	1
2026-02-11	16:02:33.530	-0.105	-0.14	-0.105	-0.005124	0.006832	1.014796	0.333	0.1545	-0.4845	0	3	1036	1
2026-02-11	16:02:33.550	-0.07	-0.105	-0.105	-0.000488	0.004636	1.016504	0.3285	0.1545	-0.48	0	3	1036	1
2026-02-11	16:02:33.570	0	-0.105	-0.07	-0.003172	0.006588	1.014552	0.333	0.159	-0.4815	0	3	1036	1
2026-02-11	16:02:33.590	0	-0.105	-0.07	-0.00244	0.009028	1.010648	0.333	0.1605	-0.4845	0	3	1036	1
2026-02-11	16:02:33.610	-0.035	-0.105	-0.105	-0.00122	0.009272	1.009184	0.3315	0.1575	-0.4845	0	3	1036	1
2026-02-11	16:02:33.630	-0.07	-0.105	-0.07	-0.001464	0.00854	1.016748	0.333	0.159	-0.486	0	3	1036	1
2026-02-11	16:02:33.650	-0.105	-0.105	-0.105	-0.00732	0.004636	1.012112	0.3315	0.1665	-0.486	0	3	1036	1
2026-02-11	16:02:33.670	-0.035	-0.105	-0.07	-0.004148	0.009272	1.014308	0.3315	0.159	-0.4875	0	3	1036	1
2026-02-11	16:02:33.690	-0.07	-0.14	-0.07	-0.000488	0.003904	1.011624	0.333	0.153	-0.486	0	3	1036	1
2026-02-11	16:02:33.710	-0.035	-0.105	-0.035	0.000732	0.011712	1.010648	0.3315	0.156	-0.4845	0	3	1036	1
2026-02-11	16:02:33.730	-0.07	-0.07	-0.07	-0.001952	0.00854	1.013088	0.33	0.159	-0.4845	0	3	1036	1
2026-02-11	16:02:33.750	-0.035	-0.105	-0.07	-0.0061	0.011224	1.013576	0.3285	0.1605	-0.4845	0	3	1036	1
2026-02-11	16:02:33.770	-0.07	-0.105	-0.07	-0.002196	0.00854	1.01016	0.3285	0.162	-0.4845	0	3	1036	1
2026-02-11	16:02:33.790	-0.07	-0.14	-0.105	-0.003416	0.008296	1.01504	0.3315	0.1635	-0.483	0	3	1036	1
2026-02-11	16:02:33.810	-0.07	-0.105	-0.105	-0.002196	0.005856	1.011868	0.3315	0.1635	-0.4815	0	3	1036	1
2026-02-11	16:02:33.830	0	-0.14	-0.105	-0.000976	0.00854	1.013332	0.33	0.162	-0.48	0	3	1036	1
2026-02-11	16:02:33.850	-0.035	-0.105	-0.105	-0.00488	0.009272	1.00894	0.333	0.162	-0.48	0	3	1036	1
2026-02-11	16:02:33.870	-0.035	-0.105	-0.105	-0.002684	0.007564	1.012112	0.339	0.165	-0.4845	0	3	1036	1
2026-02-11	16:02:33.890	-0.035	-0.105	-0.105	-0.004148	0.008784	1.012356	0.3345	0.159	-0.4815	0	3	1036	1
2026-02-11	16:02:33.910	-0.07	-0.14	-0.105	-0.004636	0.006344	1.013332	0.3315	0.1605	-0.4785	0	3	1036	1
2026-02-11	16:02:33.930	-0.07	-0.14	-0.07	-0.002196	0.007808	1.014064	0.3255	0.156	-0.4845	0	3	1036	1
2026-02-11	16:02:33.950	-0.035	-0.14	-0.07	-0.002928	0.008296	1.014064	0.336	0.159	-0.4845	0	3	1036	1
2026-02-11	16:02:33.970	0	-0.105	-0.105	-0.000732	0.007076	1.013576	0.3285	0.159	-0.4725	0	3	1036	1
2026-02-11	16:02:33.990	-0.035	-0.07	-0.105	-0.00244	0.011224	1.008696	0.3375	0.159	-0.4815	0	3	1036	1
2026-02-11	16:02:34.010	-0.07	-0.14	-0.07	-0.004636	0.00976	1.013332	0.3285	0.1635	-0.4875	0	3	1036	1
2026-02-11	16:02:34.030	-0.105	-0.105	-0.07	-0.003904	0.007564	1.01504	0.3285	0.1635	-0.4875	0	3	1036	1
2026-02-11	16:02:34.050	-0.07	-0.14	-0.105	-0.001952	0.009516	1.01626	0.3345	0.162	-0.483	0	3	1036	1
2026-02-11	16:02:34.070	-0.035	-0.105	-0.105	-0.00488	0.009516	1.01626	0.3315	0.159	-0.4785	0	3	1036	1
2026-02-11	16:02:34.090	-0.035	-0.105	-0.105	-0.00366	0.00854	1.011136	0.327	0.1545	-0.4755	0	3	1036	1
2026-02-11	16:02:34.110	-0.07	-0.105	-0.07	-0.002196	0.00976	1.012356	0.3315	0.159	-0.477	0	3	1036	1
2026-02-11	16:02:34.130	-0.07	-0.14	-0.105	-0.000976	0.00488	1.01748	0.3345	0.1575	-0.4815	0	3	1036	1
2026-02-11	16:02:34.150	-0.035	-0.14	-0.07	-0.00366	0.00854	1.014308	0.336	0.156	-0.4815	0	3	1036	1
2026-02-11	16:02:34.170	-0.035	-0.14	-0.07	-0.002928	0.008784	1.010648	0.333	0.162	-0.4815	0	3	1036	1
2026-02-11	16:02:34.190	-0.035	-0.105	-0.105	-0.004392	0.0122	1.015528	0.3285	0.159	-0.4845	0	3	1036	1
2026-02-11	16:02:34.210	-0.035	-0.14	-0.07	-0.005368	0.00732	1.0126	0.324	0.1545	-0.486	0	3	1036	1
2026-02-11	16:02:34.230	-0.035	-0.105	-0.105	0.00488	0.007564	1.010648	0.3285	0.1545	-0.4815	0	3	1036	1
2026-02-11	16:02:34.250	-0.035	-0.105	-0.07	-0.001952	0.010492	1.012112	0.333	0.1515	-0.48	0	3	1036	1
2026-02-11	16:02:34.270	-0.035	-0.105	-0.105	-0.001708	0.006588	1.01382	0.33	0.159	-0.4785	0	3	1036	1
2026-02-11	16:02:34.290	-0.07	-0.175	-0.105	-0.002928	0.008784	1.013576	0.33	0.1545	-0.4815	0	3	1036	1
2026-02-11	16:02:34.310	-0.07	-0.105	-0.07	-0.005124	0.00854	1.013088	0.33	0.1605	-0.4785	0	3	1036	1
2026-02-11	16:02:34.330	-0.07	-0.105	-0.105	-0.00366	0.004636	1.014796	0.327	0.1605	-0.48	0	3	1036	1
2026-02-11	16:02:34.350	-0.035	-0.14	-0.07	-0.000732	0.009028	1.009428	0.3225	0.156	-0.4845	0	3	1036	1
2026-02-11	16:02:34.370	-0.035	-0.105	-0.07	0	0.005368	1.014796	0.3255	0.1545	-0.486	0	3	1036	1
2026-02-11	16:02:34.390	-0.07	-0.14	-0.07	-0.00366	0.0061	1.012356	0.3315	0.1515	-0.486	0	3	1036	1
2026-02-11	16:02:34.410	-0.07	-0.14	-0.105	-0.002928	0.007076	1.010892	0.3345	0.1575	-0.486	0	3	1036	1
2026-02-11	16:02:34.430	-0.07	-0.14	-0.105	-0.006344	0.005368	1.013088	0.336	0.1605	-0.483	0	3	1036	1
2026-02-11	16:02:34.450	-0.035	-0.14	-0.07	-0.003904	0.009516	1.013332	0.327	0.1575	-0.4875	0	3	1036	1
2026-02-11	16:02:34.470	-0.035	-0.105	-0.105	-0.002196	0.004636	1.011868	0.3315	0.165	-0.48	0	3	1036	1
2026-02-11	16:02:34.490	-0.07	-0.105	-0.035	-0.002196	0.00854	1.011624	0.3315	0.1605	-0.483	0	3	1036	1
2026-02-11	16:02:34.510	-0.07	-0.105	-0.07	-0.001464	0.007564	1.010648	0.333	0.159	-0.48	0	3	1036	1
2026-02-11	16:02:34.530	-0.07	-0.105	-0.105	-0.001952	0.006588	1.014064	0.3345	0.1545	-0.486	0	3	1036	1
2026-02-11	16:02:34.550	-0.035	-0.105	-0.07	-0.003416	0.007808	1.013576	0.336	0.1515	-0.483	0	3	1036	1
2026-02-11	16:02:34.570	-0.035	-0.14	-0.07	-0.005612	0.00366	1.01504	0.3315	0.159	-0.4785	0	3	1036	1
2026-02-11	16:02:34.590	-0.07	-0.14	-0.07	-0.003172	0.009272	1.012844	0.33	0.159	-0.4785	0	3	1036	1
2026-02-11	16:02:34.610	-0.035	-0.105	-0.105	-0.00244	0.0061	1.014308	0.3315	0.1575	-0.483	0	3	1036	1
2026-02-11	16:02:34.630	-0.07	-0.105	-0.105	-0.003172	0.009272	1.013332	0.333	0.1545	-0.4815	0	3	1036	1
2026-02-11	16:02:34.650	-0.07	-0.105	-0.07	-0.002928	0.00976	1.014064	0.327	0.1575	-0.4815	0	3	1036	1
2026-02-11	16:02:34.670	-0.035	-0.105	-0.105	-0.00488	0.005856	1.013332	0.327	0.162	-0.4845	0	3	1036	1
2026-02-11	16:02:34.690	-0.035	-0.105	-0.07	-0.00366	0.00976	1.01016	0.333	0.162	-0.4845	0	3	1036	1
2026-02-11	16:02:34.710	-0.035	-0.07	-0.07	-0.006588	0.006344	1.014308	0.333	0.1605	-0.4845	0	3	1036	1
2026-02-11	16:02:34.730	-0.035	-0.105	-0.105	-0.001464	0.008296	1.011624	0.3255	0.1605	-0.48	0	3	1036	1
2026-02-11	16:02:34.750	-0.035	-0.105	-0.07	-0.001708	0.007808	1.01138	0.321	0.162	-0.4785	0	3	1036	1
2026-02-11	16:02:34.770	-0.07	-0.07	-0.105	-0.001464	0.006832	1.013576	0.321	0.162	-0.4785	0	3	1036	1
2026-02-11	16:02:34.790	-0.07	-0.105	-0.105	-0.006344	0.009516	1.014552	0.336	0.1575	-0.4755	0	3	1036	1
2026-02-11	16:02:34.810	-0.035	-0.14	-0.105	-0.00122	0.008784	1.012112	0.33	0.1665	-0.4815	0	3	1036	1
2026-02-11	16:02:34.830	-0.035	-0.105	-0.07	-0.002196	0.00976	1.010892	0.3255	0.159	-0.4755	0	3	1036	1
2026-02-11	16:02:34.850	-0.035	-0.105	-0.07	-0.001952	0.005612	1.013576	0.33	0.159	-0.483	0	3	1036	1
2026-02-11	16:02:34.870	0	-0.14	-0.07	-0.004148	0.009516	1.013576	0.3255	0.1605	-0.483	0	3	1036	1
2026-02-11	16:02:34.890	-0.07	-0.14	-0.07	-0.005124	0.00854	1.012356	0.336	0.1545	-0.483	0	3	1036	1
2026-02-11	16:02:34.910	-0.035	-0.105	-0.105	-0.004636	0.006832	1.015528	0.3315	0.1665	-0.477	0	3	1036	1
2026-02-11	16:02:34.930	-0.035	-0.105	-0.07	-0.004148	0.006344	1.013576	0.339	0.162	-0.489	0	3	1036	1
2026-02-11	16:02:34.950	-0.07	-0.105	-0.07	-0.00122	0.007808	1.012356	0.339	0.162	-0.489	0	3	1036	1
2026-02-11	16:02:34.970	-0.07	-0.105	-0.07	-0.004392	0.007076	1.014064	0.336	0.159	-0.477	0	3	1036	1
2026-02-11	16:02:34.990	-0.035	-0.105	-0.07	-0.007076	0.008784	1.010892	0.318	0.1605	-0.486	0	3	1036	1
2026-02-11	16:02:35.010	-0.07	-0.14	-0.105	-0.001708	0.007076	1.011624	0.327	0.1575	-0.483	0	3	1036	1
2026-02-11	16:02:35.030	-0.07	-0.105	-0.105	0.000732	0.005856	1.0126	0.324	0.1665	-0.477	0	3	1036	1
2026-02-11	16:02:35.050	-0.035	-0.105	-0.07	-0.005368	0.005368	1.012356	0.3315	0.1575	-0.4845	0	3	1036	1
2026-02-11	16:02:35.070	-0.035	-0.105	-0.105	-0.000976	0.008052	1.013576	0.3285	0.1575	-0.486	0	3	1036	1
2026-02-11	16:02:35.090	-0.07	-0.105	-0.105	-0.00488	0.007808	1.011868	0.33	0.1665	-0.486	0	3	1036	1
2026-02-11	16:02:35.110	-0.07	-0.14	-0.07	0	0.00854	1.012356	0.3315	0.159	-0.4815	0	3	1036	1
2026-02-11	16:02:35.130	-0.035	-0.14	-0.07	-0.003416	0.00854	1.013576	0.33	0.162	-0.4845	0	3	1036	1
2026-02-11	16:02:35.150	-0.035	-0.14	-0.07	-0.001708	0.006588	1.014308	0.327	0.162	-0.486	0	3	1036	1
2026-02-11	16:02:35.170	-0.07	-0.07	-0.105	-0.004148	0.007808	1.013088	0.3315	0.159	-0.483	0	3	1036	1
2026-02-11	16:02:35.190	-0.035	-0.105	-0.105	-0.002684	0.010004	1.012356	0.3345	0.1575	-0.4785	0	3	1036	1
2026-02-11	16:02:35.210	-0.035	-0.14	-0.07	-0.005612	0.009028	1.014064	0.33	0.159	-0.4785	0	3	1036	1
2026-02-11	16:02:35.230	-0.07	-0.14	-0.07	-0.002928	0.007564	1.014552	0.333	0.162	-0.4785	0	3	1036	1
2026-02-11	16:02:35.250	-0.07	-0.105	-0.07	-0.008296	0.008296	1.014308	0.333	0.159	-0.4785	0	3	1036	1
2026-02-11	16:02:35.270	-0.07	-0.14	-0.105	-0.002196	0.008052	1.013088	0.3285	0.159	-0.483	0	3	1036	1
2026-02-11	16:02:35.290	-0.07	-0.105	-0.105	-0.00366	0.0061	1.011868	0.3315	0.1575	-0.483	0	3	1036	1
2026-02-11	16:02:35.310	-0.035	-0.105	-0.07	-0.00366	0.005856	1.012356	0.336	0.1545	-0.4815	0	3	1036	1
2026-02-11	16:02:35.330	-0.035	-0.105	-0.105	-0.00366	0.00854	1.015528	0.3315	0.168	-0.486	0	3	1036	1
2026-02-11	16:02:35.350	-0.035	-0.105	-0.105	-0.003416	0.010004	1.014552	0.333	0.168	-0.4785	0	3	1036	1
2026-02-11	16:02:35.370	0	-0.105	-0.105	-0.004392	0.00732	1.013576	0.336	0.159	-0.4785	0	3	1036	1
2026-02-11	16:02:35.390	-0.035	-0.105	-0.105	-0.003904	0.011468	1.0126	0.336	0.1575	-0.489	0	3	1036	1
2026-02-11	16:02:35.410	-0.035	-0.14	-0.105	-0.005368	0.006832	1.014552	0.333	0.1665	-0.48	0	3	1036	1
2026-02-11	16:02:35.430	-0.035	-0.14	-0.07	-0.000976	0.006588	1.013088	0.3345	0.1665	-0.4815	0	3	1036	1
2026-02-11	16:02:35.450	-0.035	-0.105	-0.07	-0.00244	0.010248	1.011868	0.327	0.159	-0.492	0	3	1036	1
2026-02-11	16:02:35.470	-0.035	-0.105	-0.07	-0.0061	0.006588	1.014552	0.333	0.1665	-0.4845	0	3	1036	1
2026-02-11	16:02:35.490	-0.07	-0.14	-0.07	-0.003904	0.011712	1.013576	0.333	0.1665	-0.4845	0	3	1036	1
2026-02-11	16:02:35.510	-0.07	-0.14	-0.105	-0.004148	0.010492	1.012112	0.3285	0.1635	-0.483	0	3	1036	1
2026-02-11	16:02:35.530	-0.07	-0.105	-0.07	-0.007076	0.009272	1.012844	0.324	0.162	-0.48	0	3	1036	1
2026-02-11	16:02:35.550	-0.105	-0.14	-0.105	-0.005612	0.007564	1.015284	0.3255	0.159	-0.4815	0	3	1036	1
2026-02-11	16:02:35.570	0	-0.105	-0.105	-0.005368	0.007076	1.011868	0.3285	0.153	-0.48	0	3	1036	1
2026-02-11	16:02:35.590	0	-0.14	-0.105	-0.002684	0.008784	1.014552	0.33	0.1575	-0.4785	0	3	1036	1
2026-02-11	16:02:35.610	0	-0.14	-0.07	-0.00366	0.010004	1.008696	0.3315	0.165	-0.48	0	3	1036	1
2026-02-11	16:02:35.630	-0.035	-0.105	-0.105	-0.00488	0.009516	1.011624	0.333	0.1605	-0.477	0	3	1036	1
2026-02-11	16:02:35.650	-0.07	-0.105	-0.105	-0.003416	0.008784	1.014552	0.336	0.1515	-0.474	0	3	1036	1
2026-02-11	16:02:35.670	-0.035	-0.105	-0.105	-0.004636	0.007076	1.012356	0.333	0.156	-0.48	0	3	1036	1
2026-02-11	16:02:35.690	-0.035	-0.105	-0.07	-0.000488	0.0061	1.014308	0.3315	0.1515	-0.4815	0	3	1036	1
2026-02-11	16:02:35.710	-0.07	-0.105	-0.07	-0.00488	0.007076	1.010892	0.3315	0.153	-0.4815	0	3	1036	1
2026-02-11	16:02:35.730	-0.035	-0.105	-0.105	-0.00122	0.009516	1.011868	0.33	0.162	-0.48	0	3	1036	1
2026-02-11	16:02:35.750	-0.07	-0.14	-0.105	-0.00244	0.00732	1.012844	0.3285	0.162	-0.4845	0	3	1036	1
2026-02-11	16:02:35.770	-0.07	-0.14	-0.07	-0.00488	0.008052	1.015284	0.3285	0.162	-0.4845	0	3	1036	1
2026-02-11	16:02:35.790	-0.07	-0.14	-0.105	-0.004392	0.005368	1.012356	0.3285	0.156	-0.483	0	3	1036	1
2026-02-11	16:02:35.810	-0.07	-0.105	-0.105	-0.001708	0.00732	1.014064	0.33	0.156	-0.486	0	3	1036	1
2026-02-11	16:02:35.830	-0.035	-0.105	-0.105	-0.004148	0.008052	1.011624	0.3345	0.165	-0.483	0	3	1036	1
2026-02-11	16:02:35.850	-0.035	-0.105	-0.105	-0.00732	0.008784	1.0126	0.3375	0.165	-0.4785	0	3	1036	1
2026-02-11	16:02:35.870	-0.035	-0.105	-0.07	-0.001952	0.006832	1.014552	0.3375	0.165	-0.4785	0	3	1036	1
2026-02-11	16:02:35.890	-0.07	-0.14	-0.105	-0.004392	0.008784	1.008452	0.336	0.1575	-0.48	0	3	1036	1
2026-02-11	16:02:35.910	-0.07	-0.14	-0.07	-0.003416	0.00854	1.011624	0.3225	0.1665	-0.486	0	3	1036	1
2026-02-11	16:02:35.930	-0.07	-0.14	-0.07	-0.005124	0.009028	1.012112	0.3345	0.1635	-0.4815	0	3	1036	1
2026-02-11	16:02:35.950	-0.07	-0.105	-0.07	-0.003172	0.006832	1.012356	0.336	0.1605	-0.477	0	3	1036	1
2026-02-11	16:02:35.970	-0.035	-0.14	-0.07	-0.000976	0.00732	1.013088	0.3285	0.162	-0.48	0	3	1036	1
2026-02-11	16:02:35.990	-0.035	-0.07	-0.105	-0.003904	0.009272	1.014064	0.333	0.162	-0.4785	0	3	1036	1
2026-02-11	16:02:36.010	-0.035	-0.175	-0.14	-0.001952	0.0122	1.016748	0.333	0.162	-0.4785	0	3	1036	1
2026-02-11	16:02:36.030	-0.035	-0.105	-0.07	-0.004392	0.007564	1.008696	0.327	0.1575	-0.483	0	3	1036	1
2026-02-11	16:02:36.050	-0.035	-0.105	-0.105	-0.002196	0.009516	1.013332	0.33	0.159	-0.477	0	3	1036	1
2026-02-11	16:02:36.070	-0.07	-0.105	-0.105	-0.001952	0.010004	1.015284	0.3345	0.156	-0.4785	0	3	1036	1
2026-02-11	16:02:36.090	-0.035	-0.105	-0.07	-0.005856	0.006588	1.011136	0.336	0.153	-0.48	0	3	1036	1
2026-02-11	16:02:36.110	-0.07	-0.105	-0.07	-0.00366	0.008052	1.012844	0.333	0.156	-0.4815	0	3	1036	1
2026-02-11	16:02:36.130	-0.035	-0.14	-0.07	-0.005856	0.0061	1.011136	0.3315	0.1545	-0.4875	0	3	1036	1
2026-02-11	16:02:36.150	-0.07	-0.105	-0.105	-0.003172	0.009272	1.014064	0.333	0.1575	-0.483	0	3	1036	1
2026-02-11	16:02:36.170	-0.07	-0.105	-0.07	0.000488	0.010736	1.013088	0.3285	0.1605	-0.4815	0	3	1036	1
2026-02-11	16:02:36.190	-0.07	-0.14	-0.07	-0.00244	0.008784	1.012356	0.324	0.159	-0.4815	0	3	1036	1
2026-02-11	16:02:36.210	-0.07	-0.105	-0.105	-0.00488	0.010736	1.011136	0.33	0.159	-0.4785	0	3	1036	1
2026-02-11	16:02:36.230	-0.035	-0.14	-0.07	-0.003416	0.009272	1.010404	0.3345	0.1605	-0.4785	0	3	1036	1
2026-02-11	16:02:36.250	0	-0.14	-0.105	-0.002196	0.010004	1.01504	0.333	0.159	-0.4815	0	3	1036	1
2026-02-11	16:02:36.270	-0.035	-0.14	-0.07	-0.005124	0.00854	1.010648	0.3285	0.159	-0.483	0	3	1036	1
2026-02-11	16:02:36.290	-0.035	-0.105	-0.07	-0.002928	0.008052	1.011624	0.324	0.159	-0.48	0	3	1036	1
2026-02-11	16:02:36.310	-0.07	-0.14	-0.07	-0.003416	0.006588	1.014308	0.3285	0.1575	-0.4785	0	3	1036	1
2026-02-11	16:02:36.330	-0.035	-0.105	-0.07	-0.003416	0.00854	1.0126	0.333	0.1575	-0.483	0	3	1036	1
2026-02-11	16:02:36.350	-0.07	-0.105	-0.105	-0.003904	0.009028	1.014064	0.3345	0.1575	-0.4815	0	3	1036	1
2026-02-11	16:02:36.370	-0.07	-0.14	-0.105	-0.003172	0.00854	1.014796	0.339	0.162	-0.48	0	3	1036	1
2026-02-11	16:02:36.390	-0.035	-0.14	-0.105	-0.003904	0.006344	1.01382	0.339	0.1605	-0.4785	0	3	1036	1
2026-02-11	16:02:36.410	-0.035	-0.14	-0.105	0.00244	0.007564	1.013332	0.3375	0.1575	-0.477	0	3	1036	1
2026-02-11	16:02:36.430	-0.07	-0.105	-0.105	0	0.009272	1.013576	0.336	0.159	-0.4815	0	3	1036	1
2026-02-11	16:02:36.450	-0.07	-0.14	-0.105	-0.004636	0.007076	1.010648	0.339	0.165	-0.4845	0	3	1036	1
2026-02-11	16:02:36.470	-0.035	-0.14	-0.105	-0.001464	0.006344	1.01382	0.336	0.153	-0.48	0	3	1036	1
2026-02-11	16:02:36.490	-0.07	-0.105	-0.07	-0.00244	0.008052	1.01626	0.333	0.1575	-0.477	0	3	1036	1
2026-02-11	16:02:36.510	-0.07	-0.105	-0.105	0.000976	0.009516	1.013576	0.327	0.162	-0.474	0	3	1036	1
2026-02-11	16:02:36.530	-0.105	-0.105	-0.105	-0.005856	0.009516	1.010404	0.3255	0.156	-0.4845	0	3	1036	1
2026-02-11	16:02:36.550	-0.035	-0.105	-0.07	-0.001952	0.00732	1.012112	0.3315	0.159	-0.4815	0	3	1036	1
2026-02-11	16:02:36.570	-0.035	-0.14	-0.105	-0.005612	0.007564	1.0126	0.3315	0.1575	-0.474	0	3	1036	1
2026-02-11	16:02:36.590	-0.035	-0.14	-0.07	-0.002196	0.005856	1.012112	0.3315	0.159	-0.4755	0	3	1036	1
2026-02-11	16:02:36.610	-0.035	-0.105	-0.07	-0.003172	0.005612	1.011624	0.33	0.159	-0.4755	0	3	1036	1
2026-02-11	16:02:36.630	-0.035	-0.14	-0.105	-0.001952	0.00976	1.010892	0.3315	0.1605	-0.4785	0	3	1036	1
2026-02-11	16:02:36.650	-0.035	-0.105	-0.105	-0.000488	0.008052	1.012112	0.333	0.162	-0.483	0	3	1036	1
2026-02-11	16:02:36.670	-0.07	-0.105	-0.105	-0.003904	0.009516	1.013576	0.3315	0.1605	-0.4845	0	3	1036	1
2026-02-11	16:02:36.690	-0.07	-0.14	-0.105	-0.003904	0.010004	1.015772	0.33	0.162	-0.483	0	3	1036	1
2026-02-11	16:02:36.710	-0.07	-0.14	-0.105	-0.00122	0.007076	1.01382	0.33	0.1635	-0.4785	0	3	1036	1
2026-02-11	16:02:36.730	-0.07	-0.105	-0.105	-0.003172	0.006832	1.014552	0.3345	0.1575	-0.4785	0	3	1036	1
2026-02-11	16:02:36.750	-0.07	-0.105	-0.07	-0.00122	0.008296	1.01504	0.336	0.156	-0.4815	0	3	1036	1
2026-02-11	16:02:36.770	-0.035	-0.105	-0.07	-0.001464	0.008296	1.010404	0.333	0.1575	-0.4815	0	3	1036	1
2026-02-11	16:02:36.790	-0.035	-0.14	-0.105	-0.004392	0.010736	1.009916	0.327	0.162	-0.4785	0	3	1036	1
2026-02-11	16:02:36.810	-0.035	-0.105	-0.14	0.000244	0.009516	1.0126	0.3255	0.159	-0.4815	0	3	1036	1
2026-02-11	16:02:36.830	-0.07	-0.105	-0.07	-0.004392	0.009516	1.014308	0.33	0.1635	-0.4845	0	3	1036	1
2026-02-11	16:02:36.850	-0.07	-0.105	-0.07	-0.005124	0.00976	1.013088	0.333	0.162	-0.4875	0	3	1036	1
2026-02-11	16:02:36.870	-0.07	-0.14	-0.035	-0.00122	0.006588	1.010404	0.333	0.1575	-0.48	0	3	1036	1
2026-02-11	16:02:36.890	-0.07	-0.105	-0.105	-0.00366	0.006832	1.014552	0.3255	0.1575	-0.486	0	3	1036	1
2026-02-11	16:02:36.910	-0.035	-0.105	-0.105	-0.00122	0.01342	1.015284	0.3315	0.153	-0.4815	0	3	1036	1
2026-02-11	16:02:36.930	-0.035	-0.175	-0.105	-0.002684	0.0061	1.011624	0.333	0.1545	-0.48	0	3	1036	1
2026-02-11	16:02:36.950	-0.07	-0.105	-0.07	-0.003416	0.00854	1.013576	0.33	0.1605	-0.4815	0	3	1036	1
2026-02-11	16:02:36.970	-0.07	-0.14	-0.07	-0.002684	0.00854	1.015284	0.327	0.1605	-0.483	0	3	1036	1
2026-02-11	16:02:36.990	-0.035	-0.105	-0.07	-0.003416	0.00854	1.012356	0.3315	0.1635	-0.4875	0	3	1036	1
2026-02-11	16:02:37.010	-0.07	-0.105	-0.105	-0.00488	0.010004	1.013332	0.3345	0.159	-0.483	0	3	1036	1
2026-02-11	16:02:37.030	-0.07	-0.14	-0.105	-0.000976	0.010492	1.015284	0.324	0.1635	-0.477	0	3	1036	1
2026-02-11	16:02:37.050	-0.035	-0.105	-0.105	-0.000244	0.0061	1.014552	0.3315	0.159	-0.486	0	3	1036	1
2026-02-11	16:02:37.070	-0.07	-0.14	-0.07	-0.003172	0.005856	1.013576	0.3285	0.1635	-0.483	0	3	1036	1
2026-02-11	16:02:37.090	-0.07	-0.14	-0.07	-0.003416	0.008296	1.014796	0.3255	0.1635	-0.4785	0	3	1036	1
2026-02-11	16:02:37.110	-0.07	-0.105	-0.07	-0.001464	0.009028	1.013576	0.3375	0.1635	-0.489	0	3	1036	1
2026-02-11	16:02:37.130	-0.035	-0.105	-0.07	-0.004636	0.010004	1.014796	0.333	0.162	-0.4785	0	3	1036	1
2026-02-11	16:02:37.150	-0.035	-0.105	-0.105	-0.002928	0.00854	1.0126	0.3315	0.162	-0.483	0	3	1036	1
2026-02-11	16:02:37.170	-0.035	-0.105	-0.105	-0.00122	0.007564	1.016748	0.327	0.162	-0.4845	0	3	1036	1
2026-02-11	16:02:37.190	-0.07	-0.14	-0.105	-0.004636	0.010004	1.013576	0.3225	0.159	-0.477	0	3	1036	1
2026-02-11	16:02:37.210	-0.07	-0.105	-0.07	-0.003416	0.009028	1.010892	0.3255	0.159	-0.48	0	3	1036	1
2026-02-11	16:02:37.230	-0.035	-0.07	-0.105	-0.002196	0.007808	1.013088	0.3345	0.1605	-0.486	0	3	1036	1
2026-02-11	16:02:37.250	-0.035	-0.105	-0.105	-0.000488	0.008784	1.014308	0.3345	0.1605	-0.4845	0	3	1036	1
2026-02-11	16:02:37.270	-0.035	-0.105	-0.105	-0.00488	0.0122	1.01504	0.333	0.1605	-0.4815	0	3	1036	1
2026-02-11	16:02:37.290	-0.07	-0.105	-0.07	0.001708	0.009028	1.014308	0.33	0.159	-0.4845	0	3	1036	1
2026-02-11	16:02:37.310	-0.035	-0.105	-0.07	-0.001952	0.011712	1.014796	0.327	0.1605	-0.4875	0	3	1036	1
2026-02-11	16:02:37.330	-0.07	-0.105	-0.07	-0.005124	0.00732	1.014796	0.327	0.1605	-0.4875	0	3	1036	1
2026-02-11	16:02:37.350	-0.07	-0.105	-0.07	-0.002928	0.008296	1.014308	0.33	0.1665	-0.483	0	3	1036	1
2026-02-11	16:02:37.370	-0.07	-0.14	-0.07	-0.002684	0.008784	1.013576	0.3375	0.1605	-0.4845	0	3	1036	1
2026-02-11	16:02:37.390	-0.035	-0.105	-0.07	-0.003172	0.012932	1.013576	0.336	0.159	-0.483	0	3	1036	1
2026-02-11	16:02:37.410	-0.035	-0.105	-0.105	-0.000976	0.008784	1.011868	0.336	0.1635	-0.48	0	3	1036	1
2026-02-11	16:02:37.430	-0.07	-0.105	-0.07	-0.004148	0.007564	1.011136	0.336	0.162	-0.486	0	3	1036	1
2026-02-11	16:02:37.450	-0.07	-0.14	-0.105	0	0.009272	1.009184	0.33	0.168	-0.4935	0	3	1036	1
2026-02-11	16:02:37.470	-0.07	-0.14	-0.07	-0.006344	0.007808	1.013576	0.336	0.1605	-0.4785	0	3	1036	1
2026-02-11	16:02:37.490	-0.07	-0.07	-0.105	0.00122	0.008784	1.013576	0.3405	0.1605	-0.4815	0	3	1036	1
2026-02-11	16:02:37.510	-0.035	-0.105	-0.105	-0.004148	0.004148	1.0126	0.339	0.1605	-0.4815	0	3	1036	1
2026-02-11	16:02:37.530	-0.035	-0.105	-0.07	-0.002684	0.010004	1.014796	0.333	0.1635	-0.48	0	3	1036	1
2026-02-11	16:02:37.550	-0.105	-0.105	-0.07	-0.005612	0.009028	1.012844	0.3285	0.1665	-0.4785	0	3	1036	1
2026-02-11	16:02:37.570	-0.035	-0.105	-0.105	-0.00366	0.006588	1.01138	0.333	0.1605	-0.4845	0	3	1036	1
2026-02-11	16:02:37.590	-0.07	-0.105	-0.105	-0.00488	0.006832	1.012844	0.3315	0.1545	-0.483	0	3	1036	1
2026-02-11	16:02:37.610	-0.035	-0.105	-0.105	-0.004148	0.010248	1.014064	0.3315	0.156	-0.4845	0	3	1036	1
2026-02-11	16:02:37.630	0	-0.105	-0.07	-0.005368	0.011468	1.010648	0.3345	0.1545	-0.4785	0	3	1036	1
2026-02-11	16:02:37.650	-0.07	-0.105	-0.105	-0.00366	0.008052	1.014552	0.3315	0.159	-0.4845	0	3	1036	1
2026-02-11	16:02:37.670	-0.035	-0.105	-0.105	-0.0061	0.006344	1.0126	0.33	0.165	-0.4815	0	3	1036	1
2026-02-11	16:02:37.690	-0.035	-0.105	-0.07	-0.003172	0.010004	1.014064	0.33	0.165	-0.4815	0	3	1036	1
2026-02-11	16:02:37.710	-0.035	-0.105	-0.105	-0.006344	0.010492	1.013576	0.33	0.165	-0.4815	0	3	1036	1
2026-02-11	16:02:37.730	-0.035	-0.105	-0.105	-0.00366	0.009028	1.0126	0.327	0.162	-0.4845	0	3	1036	1
2026-02-11	16:02:37.750	-0.07	-0.105	-0.07	-0.003172	0.006588	1.010892	0.3285	0.162	-0.4845	0	3	1036	1
2026-02-11	16:02:37.770	-0.07	-0.105	-0.07	0.003416	0.00854	1.01382	0.3285	0.162	-0.486	0	3	1036	1
2026-02-11	16:02:37.790	-0.07	-0.105	-0.105	-0.00244	0.011224	1.010892	0.3285	0.159	-0.4815	0	3	1036	1
2026-02-11	16:02:37.810	-0.035	-0.14	-0.07	-0.004636	0.007076	1.015284	0.333	0.1575	-0.4785	0	3	1036	1
2026-02-11	16:02:37.830	-0.035	-0.14	-0.105	-0.002928	0.005612	1.014552	0.3315	0.1575	-0.483	0	3	1036	1
2026-02-11	16:02:37.850	-0.07	-0.14	-0.105	-0.0061	0.008296	1.011624	0.327	0.159	-0.4815	0	3	1036	1
2026-02-11	16:02:37.870	-0.07	-0.105	-0.105	-0.005856	0.009028	1.015528	0.3255	0.1575	-0.483	0	3	1036	1
2026-02-11	16:02:37.890	-0.07	-0.105	-0.105	-0.003172	0.007564	1.014552	0.327	0.1635	-0.486	0	3	1036	1
2026-02-11	16:02:37.910	-0.035	-0.105	-0.105	-0.002684	0.007076	1.011624	0.321	0.159	-0.4785	0	3	1036	1
2026-02-11	16:02:37.930	-0.07	-0.14	-0.105	-0.002196	0.005856	1.014552	0.3345	0.156	-0.4785	0	3	1036	1
2026-02-11	16:02:37.950	-0.035	-0.14	-0.07	-0.002928	0.006588	1.010404	0.324	0.1635	-0.48	0	3	1036	1
2026-02-11	16:02:37.970	-0.07	-0.105	-0.105	0.000732	0.005612	1.011624	0.336	0.162	-0.483	0	3	1036	1
2026-02-11	16:02:37.990	-0.035	-0.14	-0.105	-0.002684	0.007076	1.018944	0.3255	0.1635	-0.4755	0	3	1036	1
2026-02-11	16:02:38.010	-0.07	-0.07	-0.105	-0.005856	0.011468	1.011136	0.3255	0.1635	-0.4755	0	3	1036	1
2026-02-11	16:02:38.030	-0.035	-0.105	-0.07	-0.002684	0.010004	1.0126	0.318	0.159	-0.4815	0	3	1036	1
2026-02-11	16:02:38.050	-0.035	-0.105	-0.105	-0.004636	0.008296	1.015284	0.327	0.1605	-0.4785	0	3	1036	1
2026-02-11	16:02:38.070	-0.035	-0.175	-0.105	-0.00366	0.0061	1.016504	0.327	0.1575	-0.48	0	3	1036	1
2026-02-11	16:02:38.090	0	-0.105	-0.07	-0.00732	0.007076	1.006744	0.33	0.153	-0.483	0	3	1036	1
2026-02-11	16:02:38.110	-0.07	-0.105	-0.07	-0.00244	0.007076	1.016748	0.3315	0.156	-0.4845	0	3	1036	1
2026-02-11	16:02:38.130	-0.035	-0.105	-0.105	-0.004392	0.006588	1.016748	0.333	0.159	-0.483	0	3	1036	1
2026-02-11	16:02:38.150	-0.07	-0.175	-0.105	0.000976	0.00732	1.008452	0.3345	0.159	-0.486	0	3	1036	1
2026-02-11	16:02:38.170	-0.07	-0.105	-0.105	-0.005368	0.010004	1.011624	0.3345	0.1605	-0.4875	0	3	1036	1
2026-02-11	16:02:38.190	-0.035	-0.14	-0.105	-0.004148	0.009028	1.016016	0.3345	0.1605	-0.483	0	3	1036	1
2026-02-11	16:02:38.210	-0.035	-0.175	-0.07	-0.002684	0.007564	1.00894	0.3345	0.162	-0.4785	0	3	1036	1
2026-02-11	16:02:38.230	-0.07	-0.105	-0.035	-0.003416	0.007076	1.017724	0.321	0.1575	-0.486	0	3	1036	1
2026-02-11	16:02:38.250	-0.035	-0.14	-0.07	-0.005856	0.008784	1.014064	0.327	0.159	-0.4845	0	3	1036	1
2026-02-11	16:02:38.270	-0.035	-0.14	-0.07	-0.00732	0.010004	1.012844	0.333	0.162	-0.4815	0	3	1036	1
2026-02-11	16:02:38.290	-0.07	-0.105	-0.07	-0.004636	0.008784	1.01504	0.33	0.1665	-0.48	0	3	1036	1
2026-02-11	16:02:38.310	-0.07	-0.14	-0.105	-0.00488	0.009272	1.012844	0.3285	0.162	-0.4785	0	3	1036	1
2026-02-11	16:02:38.330	-0.07	-0.14	-0.105	-0.002196	0.007076	1.015772	0.33	0.153	-0.48	0	3	1036	1
2026-02-11	16:02:38.350	-0.035	-0.105	-0.105	-0.000732	0.008052	1.013332	0.3315	0.1515	-0.4815	0	3	1036	1
2026-02-11	16:02:38.370	-0.035	-0.105	-0.105	-0.004148	0.007564	1.012356	0.3315	0.153	-0.477	0	3	1036	1
2026-02-11	16:02:38.390	-0.105	-0.14	-0.105	-0.006344	0.00854	1.01504	0.333	0.1575	-0.4755	0	3	1036	1
2026-02-11	16:02:38.410	-0.035	-0.105	-0.105	-0.006344	0.00488	1.013332	0.3375	0.1605	-0.477	0	3	1036	1
2026-02-11	16:02:38.430	-0.035	-0.07	-0.07	-0.004392	0.0061	1.010648	0.3375	0.1605	-0.477	0	3	1036	1
2026-02-11	16:02:38.450	-0.07	-0.105	-0.105	-0.00488	0.006832	1.01748	0.336	0.162	-0.483	0	3	1036	1
2026-02-11	16:02:38.470	0	-0.175	-0.105	-0.004636	0.005368	1.010648	0.3345	0.1575	-0.48	0	3	1036	1
2026-02-11	16:02:38.490	-0.035	-0.105	-0.07	-0.00366	0.007808	1.011624	0.3315	0.159	-0.4815	0	3	1036	1
2026-02-11	16:02:38.510	-0.07	-0.105	-0.07	-0.002928	0.012688	1.016992	0.3315	0.1635	-0.477	0	3	1036	1
2026-02-11	16:02:38.530	-0.035	-0.105	-0.07	-0.003172	0.005124	1.010892	0.3285	0.1575	-0.477	0	3	1036	1
2026-02-11	16:02:38.550	-0.07	-0.105	-0.105	-0.001708	0.008784	1.012112	0.327	0.162	-0.477	0	3	1036	1
2026-02-11	16:02:38.570	-0.07	-0.105	-0.105	0.000488	0.00976	1.009184	0.33	0.156	-0.483	0	3	1036	1
2026-02-11	16:02:38.590	-0.035	-0.105	-0.105	-0.002684	0.008052	1.01748	0.3345	0.1635	-0.4845	0	3	1036	1
2026-02-11	16:02:38.610	0	-0.105	-0.105	-0.00488	0.008296	1.0065	0.333	0.1605	-0.4845	0	3	1036	1
2026-02-11	16:02:38.630	-0.07	-0.105	-0.105	-0.003416	0.00854	1.014308	0.3285	0.159	-0.48	0	3	1036	1
2026-02-11	16:02:38.650	-0.035	-0.105	-0.07	-0.001708	0.00854	1.017968	0.327	0.162	-0.4755	0	3	1036	1
2026-02-11	16:02:38.670	0	-0.105	-0.07	-0.001952	0.009272	1.011868	0.3285	0.159	-0.48	0	3	1036	1
2026-02-11	16:02:38.690	-0.035	-0.105	-0.105	-0.004392	0.007564	1.009428	0.3285	0.159	-0.4815	0	3	1036	1
2026-02-11	16:02:38.710	-0.105	-0.105	-0.105	-0.001708	0.010492	1.015772	0.33	0.1605	-0.483	0	3	1036	1
2026-02-11	16:02:38.730	-0.035	-0.175	-0.105	-0.00122	0.0061	1.008696	0.3345	0.159	-0.486	0	3	1036	1
2026-02-11	16:02:38.750	-0.07	-0.105	-0.105	-0.002684	0.01098	1.011868	0.3345	0.1575	-0.486	0	3	1036	1
2026-02-11	16:02:38.770	-0.035	-0.07	-0.105	-0.002196	0.008784	1.015528	0.327	0.156	-0.48	0	3	1036	1
2026-02-11	16:02:38.790	-0.07	-0.14	-0.105	-0.000244	0.005612	1.013576	0.324	0.156	-0.474	0	3	1036	1
2026-02-11	16:02:38.810	-0.035	-0.14	-0.07	-0.003416	0.011712	1.0065	0.3315	0.165	-0.4845	0	3	1036	1
2026-02-11	16:02:38.830	-0.07	-0.105	-0.07	-0.004148	0.010248	1.013576	0.3225	0.165	-0.48	0	3	1036	1
2026-02-11	16:02:38.850	-0.07	-0.14	-0.07	-0.003172	0.006344	1.015772	0.3315	0.156	-0.4845	0	3	1036	1
2026-02-11	16:02:38.870	-0.035	-0.175	-0.105	-0.004636	0.00488	1.015528	0.3315	0.1575	-0.4815	0	3	1036	1
2026-02-11	16:02:38.890	0	-0.105	-0.105	-0.002196	0.00976	1.012112	0.327	0.1575	-0.483	0	3	1036	1
2026-02-11	16:02:38.910	-0.035	-0.14	-0.07	-0.002196	0.010492	1.014064	0.3285	0.1575	-0.486	0	3	1036	1
2026-02-11	16:02:38.930	-0.07	-0.105	-0.105	-0.005856	0.009272	1.015772	0.3345	0.159	-0.4845	0	3	1036	1
2026-02-11	16:02:38.950	-0.035	-0.105	-0.07	-0.00244	0.011224	1.011868	0.333	0.1605	-0.4785	0	3	1036	1
2026-02-11	16:02:38.970	-0.035	-0.105	-0.07	-0.003172	0.007076	1.014064	0.33	0.1635	-0.471	0	3	1036	1
2026-02-11	16:02:38.990	-0.07	-0.175	-0.07	-0.003416	0.010004	1.012112	0.336	0.1545	-0.48	0	3	1036	1
2026-02-11	16:02:39.010	-0.07	-0.14	-0.07	-0.00122	0.009272	1.009428	0.327	0.165	-0.4785	0	3	1036	1
2026-02-11	16:02:39.030	-0.07	-0.105	-0.07	-0.005368	0.0061	1.01382	0.3315	0.1605	-0.4845	0	3	1036	1
2026-02-11	16:02:39.050	-0.035	-0.105	-0.07	-0.002928	0.008784	1.014064	0.321	0.1575	-0.477	0	3	1036	1
2026-02-11	16:02:39.070	-0.035	-0.175	-0.105	-0.003172	0.007808	1.012356	0.3285	0.1665	-0.4785	0	3	1036	1
2026-02-11	16:02:39.090	-0.035	-0.14	-0.105	-0.003172	0.010004	1.012844	0.33	0.162	-0.474	0	3	1036	1
2026-02-11	16:02:39.110	-0.07	-0.14	-0.105	-0.003172	0.010248	1.014064	0.3375	0.159	-0.477	0	3	1036	1
2026-02-11	16:02:39.130	-0.105	-0.14	-0.105	-0.004148	0.004636	1.017236	0.3285	0.159	-0.477	0	3	1036	1
2026-02-11	16:02:39.150	-0.07	-0.105	-0.105	0.000244	0.007076	1.01504	0.3345	0.1575	-0.4755	0	3	1036	1
2026-02-11	16:02:39.170	-0.07	-0.105	-0.105	0.00244	0.009272	1.011624	0.333	0.159	-0.477	0	3	1036	1
2026-02-11	16:02:39.190	-0.07	-0.14	-0.105	-0.00488	0.007564	1.01382	0.3315	0.1575	-0.477	0	3	1036	1
2026-02-11	16:02:39.210	-0.035	-0.105	-0.105	-0.00366	0.007808	1.01382	0.333	0.1575	-0.477	0	3	1036	1
2026-02-11	16:02:39.230	-0.035	-0.14	-0.07	-0.00244	0.006588	1.010648	0.3315	0.159	-0.477	0	3	1036	1
2026-02-11	16:02:39.250	-0.035	-0.105	-0.07	-0.004148	0.009028	1.01382	0.3285	0.1605	-0.4785	0	3	1036	1
2026-02-11	16:02:39.270	-0.035	-0.07	-0.105	-0.00244	0.008052	1.009428	0.33	0.162	-0.477	0	3	1036	1
2026-02-11	16:02:39.290	-0.035	-0.105	-0.07	-0.003904	0.01098	1.00894	0.333	0.162	-0.477	0	3	1036	1
2026-02-11	16:02:39.310	-0.07	-0.14	-0.105	-0.004148	0.006588	1.010892	0.3315	0.1605	-0.48	0	3	1036	1
2026-02-11	16:02:39.330	-0.07	-0.105	-0.07	-0.000488	0.007076	1.014796	0.3285	0.159	-0.4785	0	3	1036	1
2026-02-11	16:02:39.350	-0.035	-0.14	-0.07	-0.007564	0.010492	1.015528	0.3285	0.159	-0.4785	0	3	1036	1
2026-02-11	16:02:39.370	-0.07	-0.14	-0.105	-0.000244	0.008784	1.013576	0.333	0.1665	-0.4785	0	3	1036	1
2026-02-11	16:02:39.390	-0.035	-0.105	-0.105	-0.004392	0.006588	1.010648	0.3285	0.1635	-0.4785	0	3	1036	1
2026-02-11	16:02:39.410	-0.035	-0.105	-0.105	-0.002928	0.005124	1.011624	0.336	0.165	-0.48	0	3	1036	1
2026-02-11	16:02:39.430	-0.035	-0.14	-0.105	-0.005368	0.010004	1.011136	0.3225	0.162	-0.48	0	3	1036	1
2026-02-11	16:02:39.450	-0.105	-0.14	-0.105	-0.00244	0.008784	1.013576	0.33	0.1605	-0.48	0	3	1036	1
2026-02-11	16:02:39.470	0	-0.105	-0.07	-0.004148	0.009272	1.016016	0.33	0.1575	-0.4725	0	3	1036	1
2026-02-11	16:02:39.490	-0.035	-0.105	-0.105	-0.002928	0.011468	1.012356	0.3285	0.1635	-0.474	0	3	1036	1
2026-02-11	16:02:39.510	-0.035	-0.14	-0.07	-0.002196	0.006344	1.010648	0.3345	0.1665	-0.4815	0	3	1036	1
2026-02-11	16:02:39.530	-0.07	-0.14	-0.105	-0.00366	0.009272	1.015772	0.33	0.156	-0.48	0	3	1036	1
2026-02-11	16:02:39.550	-0.07	-0.105	-0.07	-0.002684	0.008784	1.010892	0.333	0.162	-0.48	0	3	1036	1
2026-02-11	16:02:39.570	-0.07	-0.105	-0.14	-0.002684	0.007808	1.013088	0.3165	0.156	-0.48	0	3	1036	1
2026-02-11	16:02:39.590	-0.07	-0.105	-0.105	-0.00366	0.01098	1.013088	0.3255	0.1605	-0.483	0	3	1036	1
2026-02-11	16:02:39.610	-0.035	-0.105	-0.105	-0.00122	0.010248	1.011624	0.3255	0.1635	-0.4815	0	3	1036	1
2026-02-11	16:02:39.630	-0.07	-0.14	-0.105	-0.000732	0.009516	1.014064	0.3405	0.1515	-0.4845	0	3	1036	1
2026-02-11	16:02:39.650	-0.07	-0.105	-0.07	-0.00122	0.008784	1.01382	0.3315	0.1605	-0.486	0	3	1036	1
2026-02-11	16:02:39.670	-0.035	-0.14	-0.105	-0.003904	0.008052	1.015772	0.327	0.159	-0.483	0	3	1036	1
2026-02-11	16:02:39.690	-0.035	-0.105	-0.105	-0.007564	0.008784	1.01504	0.3345	0.1605	-0.4785	0	3	1036	1
2026-02-11	16:02:39.710	-0.07	-0.105	-0.105	-0.00366	0.009028	1.016504	0.3345	0.162	-0.4815	0	3	1036	1
2026-02-11	16:02:39.730	-0.035	-0.105	-0.105	-0.000244	0.00854	1.013332	0.3315	0.162	-0.4815	0	3	1036	1
2026-02-11	16:02:39.750	0	-0.14	-0.07	-0.000732	0.007076	1.0126	0.327	0.159	-0.48	0	3	1036	1
2026-02-11	16:02:39.770	-0.035	-0.14	-0.07	-0.001952	0.00854	1.014064	0.3255	0.156	-0.4815	0	3	1036	1
2026-02-11	16:02:39.790	-0.035	-0.105	-0.07	-0.003172	0.006832	1.013576	0.327	0.159	-0.48	0	3	1036	1
2026-02-11	16:02:39.810	-0.07	-0.105	-0.07	-0.005612	0.010736	1.014064	0.33	0.162	-0.477	0	3	1036	1
2026-02-11	16:02:39.830	-0.07	-0.105	-0.07	-0.003904	0.007564	1.014308	0.3315	0.162	-0.477	0	3	1036	1
2026-02-11	16:02:39.850	-0.035	-0.14	-0.07	-0.001464	0.009272	1.01382	0.33	0.1635	-0.48	0	3	1036	1
2026-02-11	16:02:39.870	-0.07	-0.105	-0.07	-0.000976	0.006832	1.01626	0.33	0.1635	-0.4815	0	3	1036	1
2026-02-11	16:02:39.890	-0.035	-0.14	-0.105	-0.004392	0.005124	1.011868	0.333	0.162	-0.4845	0	3	1036	1
2026-02-11	16:02:39.910	-0.07	-0.14	-0.07	-0.004636	0.00854	1.01138	0.33	0.165	-0.477	0	3	1036	1
2026-02-11	16:02:39.930	-0.035	-0.105	-0.105	-0.003172	0.007808	1.010892	0.333	0.1545	-0.474	0	3	1036	1
2026-02-11	16:02:39.950	-0.07	-0.14	-0.07	-0.003416	0.010248	1.013576	0.333	0.1605	-0.4815	0	3	1036	1
2026-02-11	16:02:39.970	-0.035	-0.105	-0.07	-0.00244	0.0061	1.01382	0.333	0.1605	-0.48	0	3	1036	1
2026-02-11	16:02:39.990	-0.035	-0.105	-0.07	-0.005368	0.00854	1.011624	0.3315	0.156	-0.477	0	3	1036	1
2026-02-11	16:02:40.010	-0.07	-0.105	-0.07	0.00122	0.008052	1.0187	0.3315	0.156	-0.477	0	3	1036	1
2026-02-11	16:02:40.030	-0.07	-0.14	-0.035	-0.000732	0.008296	1.009672	0.3255	0.168	-0.4755	0	3	1036	1
2026-02-11	16:02:40.050	-0.07	-0.105	-0.105	-0.005124	0.005612	1.010892	0.327	0.1515	-0.483	0	3	1036	1
2026-02-11	16:02:40.070	-0.035	-0.105	-0.105	-0.00244	0.005368	1.016016	0.327	0.1515	-0.483	0	3	1036	1
2026-02-11	16:02:40.090	-0.07	-0.14	-0.105	-0.00244	0.00976	1.014796	0.3285	0.156	-0.4845	0	3	1036	1
2026-02-11	16:02:40.110	0	-0.105	-0.105	-0.006832	0.008052	1.011136	0.3315	0.1605	-0.4845	0	3	1036	1
2026-02-11	16:02:40.130	-0.035	-0.105	-0.105	-0.00122	0.011956	1.011136	0.33	0.162	-0.4785	0	3	1036	1
2026-02-11	16:02:40.150	-0.035	-0.105	-0.07	-0.000732	0.007076	1.009916	0.3285	0.1635	-0.474	0	3	1036	1
2026-02-11	16:02:40.170	-0.035	-0.105	-0.07	-0.005612	0.008052	1.012844	0.3285	0.1635	-0.474	0	3	1036	1
2026-02-11	16:02:40.190	-0.07	-0.105	-0.105	-0.003904	0.00854	1.0126	0.336	0.1605	-0.4785	0	3	1036	1
2026-02-11	16:02:40.210	0	-0.14	-0.07	-0.00366	0.006832	1.013088	0.336	0.1605	-0.4815	0	3	1036	1
2026-02-11	16:02:40.230	-0.035	-0.07	-0.105	-0.001952	0.00732	1.013576	0.3255	0.1545	-0.4815	0	3	1036	1
2026-02-11	16:02:40.250	-0.035	-0.14	-0.105	-0.002684	0.007808	1.01138	0.3255	0.1545	-0.4815	0	3	1036	1
2026-02-11	16:02:40.270	-0.035	-0.07	-0.105	-0.00488	0.008784	1.010404	0.324	0.156	-0.48	0	3	1036	1
2026-02-11	16:02:40.290	-0.07	-0.105	-0.105	-0.000732	0.00732	1.012112	0.3285	0.153	-0.483	0	3	1036	1
2026-02-11	16:02:40.310	-0.035	-0.105	-0.105	-0.002928	0.00854	1.010404	0.333	0.1515	-0.486	0	3	1036	1
2026-02-11	16:02:40.330	-0.07	-0.105	-0.105	-0.001464	0.009028	1.013088	0.3315	0.156	-0.4845	0	3	1036	1
2026-02-11	16:02:40.350	-0.035	-0.14	-0.07	-0.00366	0.007808	1.014064	0.3285	0.159	-0.4875	0	3	1036	1
2026-02-11	16:02:40.370	-0.035	-0.14	-0.105	-0.003904	0.00854	1.01138	0.3255	0.159	-0.486	0	3	1036	1
2026-02-11	16:02:40.390	-0.07	-0.105	-0.07	-0.003416	0.00976	1.012112	0.33	0.159	-0.48	0	3	1036	1
2026-02-11	16:02:40.410	-0.035	-0.105	-0.105	-0.003172	0.007564	1.0126	0.336	0.159	-0.48	0	3	1036	1
2026-02-11	16:02:40.430	0	-0.14	-0.105	-0.005856	0.008296	1.01382	0.3375	0.1575	-0.4785	0	3	1036	1
2026-02-11	16:02:40.450	-0.035	-0.105	-0.105	-0.000244	0.007076	1.011624	0.3345	0.1635	-0.474	0	3	1036	1
2026-02-11	16:02:40.470	0	-0.07	-0.105	-0.005368	0.005612	1.013332	0.3315	0.1605	-0.483	0	3	1036	1
2026-02-11	16:02:40.490	-0.035	-0.105	-0.105	-0.001708	0.00732	1.017236	0.327	0.156	-0.4845	0	3	1036	1
2026-02-11	16:02:40.510	-0.035	-0.105	-0.07	-0.002196	0.006588	1.013576	0.336	0.168	-0.486	0	3	1036	1
2026-02-11	16:02:40.530	-0.035	-0.105	-0.105	-0.003904	0.00732	1.013576	0.33	0.1545	-0.4785	0	3	1036	1
2026-02-11	16:02:40.550	-0.035	-0.105	-0.105	-0.000732	0.008296	1.012356	0.333	0.1575	-0.483	0	3	1036	1
2026-02-11	16:02:40.570	-0.035	-0.105	-0.07	-0.005612	0.008052	1.013088	0.33	0.1545	-0.483	0	3	1036	1
2026-02-11	16:02:40.590	-0.07	-0.105	-0.07	-0.003416	0.005368	1.010648	0.33	0.1545	-0.4785	0	3	1036	1
2026-02-11	16:02:40.610	-0.07	-0.105	-0.07	-0.00488	0.006344	1.013576	0.3315	0.1635	-0.474	0	3	1036	1
2026-02-11	16:02:40.630	-0.07	-0.14	-0.07	-0.00244	0.007076	1.010892	0.33	0.165	-0.477	0	3	1036	1
2026-02-11	16:02:40.650	-0.035	-0.14	-0.105	-0.002196	0.008784	1.011136	0.3315	0.168	-0.483	0	3	1036	1
2026-02-11	16:02:40.670	-0.07	-0.105	-0.105	-0.002196	0.009272	1.013332	0.3315	0.162	-0.483	0	3	1036	1
2026-02-11	16:02:40.690	-0.035	-0.14	-0.105	-0.003416	0.007808	1.013332	0.33	0.1605	-0.4815	0	3	1036	1
2026-02-11	16:02:40.710	-0.07	-0.105	-0.07	-0.00244	0.007076	1.011136	0.33	0.159	-0.483	0	3	1036	1
2026-02-11	16:02:40.730	-0.07	-0.105	-0.07	-0.001464	0.008052	1.015772	0.333	0.1575	-0.4815	0	3	1036	1
2026-02-11	16:02:40.750	-0.035	-0.105	-0.105	-0.005368	0.010248	1.013576	0.336	0.162	-0.4785	0	3	1036	1
2026-02-11	16:02:40.770	0	-0.105	-0.105	-0.00122	0.00976	1.011136	0.3345	0.159	-0.483	0	3	1036	1
2026-02-11	16:02:40.790	-0.035	-0.14	-0.105	0.000488	0.007076	1.013576	0.3345	0.156	-0.4845	0	3	1036	1
2026-02-11	16:02:40.810	-0.07	-0.14	-0.105	-0.0061	0.011468	1.010892	0.3345	0.156	-0.4845	0	3	1036	1
2026-02-11	16:02:40.830	-0.105	-0.105	-0.07	-0.00366	0.011224	1.014064	0.3315	0.156	-0.486	0	3	1036	1
2026-02-11	16:02:40.850	-0.07	-0.14	-0.07	-0.000976	0.009272	1.010648	0.327	0.1545	-0.486	0	3	1036	1
2026-02-11	16:02:40.870	-0.07	-0.14	-0.07	-0.00366	0.009516	1.012356	0.327	0.1605	-0.483	0	3	1036	1
2026-02-11	16:02:40.890	-0.035	-0.105	-0.07	-0.002196	0.006832	1.013088	0.3315	0.1665	-0.486	0	3	1036	1
2026-02-11	16:02:40.910	-0.035	-0.105	-0.07	-0.001464	0.008296	1.014308	0.333	0.1635	-0.4875	0	3	1036	1
2026-02-11	16:02:40.930	-0.07	-0.14	-0.105	-0.005612	0.005612	1.015772	0.3345	0.159	-0.486	0	3	1036	1
2026-02-11	16:02:40.950	-0.035	-0.105	-0.105	-0.001708	0.007808	1.012844	0.333	0.1605	-0.4845	0	3	1036	1
2026-02-11	16:02:40.970	-0.035	-0.105	-0.07	-0.002684	0.008296	1.013332	0.3315	0.1665	-0.486	0	3	1036	1
2026-02-11	16:02:40.990	0	-0.14	-0.105	-0.001708	0.00854	1.014552	0.3345	0.168	-0.4905	0	3	1036	1
2026-02-11	16:02:41.010	-0.035	-0.105	-0.105	-0.003416	0.009272	1.010648	0.333	0.156	-0.486	0	2	1036	1
2026-02-11	16:02:41.030	-0.035	-0.105	-0.105	-0.00488	0.007564	1.009672	0.339	0.1545	-0.489	0	2	1036	1
2026-02-11	16:02:41.050	-0.07	-0.14	-0.07	-0.003904	0.008784	1.014064	0.3315	0.1575	-0.486	0	2	1036	1
2026-02-11	16:02:41.070	-0.035	-0.175	-0.07	-0.00488	0.005612	1.012112	0.3375	0.1635	-0.4845	0	2	1036	1
2026-02-11	16:02:41.090	0	-0.14	-0.07	-0.004636	0.009516	1.011868	0.333	0.1575	-0.486	0	2	1036	1
2026-02-11	16:02:41.110	-0.035	-0.105	-0.07	-0.003172	0.009516	1.012844	0.3315	0.165	-0.4815	0	2	1036	1
2026-02-11	16:02:41.130	-0.035	-0.14	-0.105	-0.003172	0.010492	1.0126	0.3375	0.159	-0.48	0	2	1036	1
2026-02-11	16:02:41.150	-0.07	-0.105	-0.105	-0.001464	0.005124	1.013088	0.333	0.162	-0.4875	0	2	1036	1
2026-02-11	16:02:41.170	-0.07	-0.14	-0.105	-0.007808	0.011468	1.014308	0.333	0.1605	-0.4845	0	2	1036	1
2026-02-11	16:02:41.190	-0.07	-0.14	-0.07	-0.003172	0.00976	1.014064	0.3315	0.156	-0.48	0	2	1036	1
2026-02-11	16:02:41.210	-0.035	-0.14	-0.105	0.00122	0.005856	1.009916	0.3315	0.1545	-0.4815	0	2	1036	1
2026-02-11	16:02:41.230	-0.035	-0.105	-0.07	-0.001708	0.008296	1.014796	0.3345	0.156	-0.4785	0	2	1036	1
2026-02-11	16:02:41.250	-0.035	-0.105	-0.105	-0.005612	0.008784	1.01504	0.333	0.1605	-0.477	0	2	1036	1
2026-02-11	16:02:41.270	-0.07	-0.175	-0.105	-0.000976	0.008784	1.010648	0.33	0.165	-0.4785	0	2	1036	1
2026-02-11	16:02:41.290	-0.035	-0.105	-0.035	-0.001464	0.005612	1.014308	0.327	0.159	-0.4815	0	2	1036	1
2026-02-11	16:02:41.310	-0.105	-0.105	-0.105	-0.004392	0.006588	1.014552	0.327	0.159	-0.483	0	2	1036	1
2026-02-11	16:02:41.330	-0.035	-0.105	-0.07	-0.001464	0.006588	1.0126	0.3315	0.162	-0.48	0	2	1036	1
2026-02-11	16:02:41.350	0	-0.105	-0.105	-0.000488	0.00854	1.016992	0.333	0.162	-0.4815	0	2	1036	1
2026-02-11	16:02:41.370	-0.035	-0.105	-0.07	-0.001952	0.01098	1.012844	0.3345	0.1605	-0.4815	0	2	1036	1
2026-02-11	16:02:41.390	-0.035	-0.14	-0.07	-0.002928	0.008052	1.010648	0.3315	0.162	-0.4755	0	2	1036	1
2026-02-11	16:02:41.410	-0.035	-0.105	-0.105	-0.000244	0.011468	1.013088	0.339	0.159	-0.48	0	2	1036	1
2026-02-11	16:02:41.430	-0.07	-0.105	-0.07	-0.001464	0.007564	1.012112	0.327	0.1515	-0.48	0	2	1036	1
2026-02-11	16:02:41.450	-0.07	-0.105	-0.07	0.000732	0.005856	1.012112	0.333	0.1605	-0.486	0	2	1036	1
2026-02-11	16:02:41.470	-0.07	-0.105	-0.105	-0.001952	0.007808	1.014308	0.336	0.1605	-0.48	0	2	1036	1
2026-02-11	16:02:41.490	-0.035	-0.14	-0.105	-0.003416	0.009272	1.014308	0.333	0.162	-0.477	0	2	1036	1
2026-02-11	16:02:41.510	-0.035	-0.105	-0.07	-0.002928	0.006344	1.01016	0.33	0.162	-0.4785	0	2	1036	1
2026-02-11	16:02:41.530	-0.07	-0.14	-0.105	-0.004636	0.00732	1.014796	0.33	0.159	-0.483	0	2	1036	1
2026-02-11	16:02:41.550	-0.035	-0.105	-0.07	-0.005124	0.008052	1.015772	0.333	0.1665	-0.4845	0	2	1036	1
2026-02-11	16:02:41.570	-0.035	-0.14	-0.07	-0.004636	0.00854	1.011624	0.333	0.159	-0.4785	0	2	1036	1
2026-02-11	16:02:41.590	0	-0.14	-0.14	-0.006588	0.009028	1.015284	0.342	0.1575	-0.477	0	2	1036	1
2026-02-11	16:02:41.610	-0.07	-0.105	-0.07	-0.000732	0.005368	1.011868	0.3285	0.1515	-0.48	0	2	1036	1
2026-02-11	16:02:41.630	-0.07	-0.105	-0.07	0	0.00976	1.014796	0.336	0.1605	-0.4785	0	2	1036	1
2026-02-11	16:02:41.650	-0.07	-0.105	-0.105	-0.00244	0.008052	1.01138	0.327	0.159	-0.4785	0	2	1036	1
2026-02-11	16:02:41.670	-0.07	-0.105	-0.105	-0.002196	0.008784	1.013332	0.336	0.159	-0.4815	0	2	1036	1
2026-02-11	16:02:41.690	-0.07	-0.14	-0.07	-0.003172	0.00854	1.014064	0.336	0.162	-0.4815	0	2	1036	1
2026-02-11	16:02:41.710	-0.07	-0.105	-0.07	-0.004636	0.00854	1.009428	0.3315	0.159	-0.4755	0	2	1036	1
2026-02-11	16:02:41.730	-0.035	-0.105	-0.07	-0.005368	0.008784	1.0126	0.33	0.159	-0.4785	0	2	1036	1
2026-02-11	16:02:41.750	-0.07	-0.105	-0.105	-0.004148	0.006832	1.015772	0.3315	0.1575	-0.48	0	2	1036	1
2026-02-11	16:02:41.770	-0.07	-0.105	-0.07	-0.003172	0.00732	1.012112	0.333	0.159	-0.483	0	2	1036	1
2026-02-11	16:02:41.790	-0.035	-0.105	-0.105	-0.003172	0.011712	1.015284	0.33	0.1605	-0.4845	0	2	1036	1
2026-02-11	16:02:41.810	-0.07	-0.14	-0.07	-0.002928	0.00732	1.012356	0.3315	0.159	-0.4815	0	2	1036	1
2026-02-11	16:02:41.830	-0.035	-0.105	-0.105	-0.00122	0.010492	1.013576	0.336	0.1605	-0.483	0	2	1036	1
2026-02-11	16:02:41.850	-0.07	-0.14	-0.105	-0.00244	0.009028	1.009672	0.33	0.159	-0.477	0	2	1036	1
2026-02-11	16:02:41.870	-0.035	-0.105	-0.07	-0.002928	0.009272	1.014308	0.3285	0.153	-0.474	0	2	1036	1
2026-02-11	16:02:41.890	-0.035	-0.105	-0.105	-0.00366	0.005368	1.011624	0.333	0.1545	-0.4785	0	2	1036	1
2026-02-11	16:02:41.910	-0.07	-0.105	-0.07	-0.006344	0.00854	1.01138	0.345	0.162	-0.4845	0	2	1036	1
2026-02-11	16:02:41.930	-0.035	-0.105	-0.07	-0.004636	0.008784	1.011136	0.327	0.159	-0.48	0	2	1036	1
2026-02-11	16:02:41.950	-0.035	-0.105	-0.07	-0.001708	0.007076	1.012356	0.3255	0.159	-0.483	0	2	1036	1
2026-02-11	16:02:41.970	-0.07	-0.105	-0.105	-0.002684	0.01098	1.011868	0.3345	0.162	-0.48	0	2	1036	1
2026-02-11	16:02:41.990	-0.07	-0.105	-0.07	-0.002684	0.011956	1.012356	0.333	0.159	-0.477	0	2	1036	1
2026-02-11	16:02:42.010	-0.07	-0.105	-0.07	-0.002928	0.010004	1.012356	0.333	0.159	-0.477	0	2	1036	1
2026-02-11	16:02:42.030	-0.035	-0.105	-0.105	-0.006344	0.007076	1.011868	0.339	0.159	-0.4875	0	2	1036	1
2026-02-11	16:02:42.050	-0.035	-0.105	-0.105	-0.002684	0.008052	1.014796	0.3255	0.159	-0.48	0	2	1036	1
2026-02-11	16:02:42.070	-0.035	-0.14	-0.07	-0.00366	0.009028	1.014064	0.3315	0.1545	-0.4755	0	2	1036	1
2026-02-11	16:02:42.090	-0.07	-0.105	-0.105	-0.000732	0.00854	1.012112	0.3315	0.1575	-0.477	0	2	1036	1
2026-02-11	16:02:42.110	-0.035	-0.105	-0.07	-0.003904	0.007076	1.016016	0.3315	0.1545	-0.48	0	2	1036	1
2026-02-11	16:02:42.130	-0.035	-0.105	-0.105	-0.001952	0.004392	1.014064	0.3315	0.15	-0.48	0	2	1036	1
2026-02-11	16:02:42.150	-0.07	-0.105	-0.105	-0.003416	0.009516	1.015528	0.3405	0.165	-0.486	0	2	1036	1
2026-02-11	16:02:42.170	0	-0.105	-0.105	-0.004148	0.0061	1.014308	0.3375	0.162	-0.489	0	2	1036	1
2026-02-11	16:02:42.190	0	-0.105	-0.105	-0.003416	0.008784	1.010404	0.3345	0.159	-0.486	0	2	1036	1
2026-02-11	16:02:42.210	-0.035	-0.14	-0.105	-0.000976	0.01098	1.013088	0.3345	0.162	-0.4815	0	2	1036	1
2026-02-11	16:02:42.230	-0.035	-0.105	-0.105	-0.000244	0.007808	1.012112	0.327	0.165	-0.4815	0	2	1036	1
2026-02-11	16:02:42.250	-0.07	-0.105	-0.07	-0.000488	0.007076	1.014796	0.333	0.1545	-0.483	0	2	1036	1
2026-02-11	16:02:42.270	-0.07	-0.105	-0.07	-0.003172	0.01098	1.01382	0.336	0.159	-0.483	0	2	1036	1
2026-02-11	16:02:42.290	-0.035	-0.105	-0.105	0.000488	0.00732	1.0126	0.3375	0.165	-0.483	0	2	1036	1
2026-02-11	16:02:42.310	-0.07	-0.14	-0.105	-0.001708	0.008296	1.01626	0.336	0.165	-0.48	0	2	1036	1
2026-02-11	16:02:42.330	-0.035	-0.14	-0.07	-0.007564	0.008296	1.011624	0.3345	0.1635	-0.477	0	2	1036	1
2026-02-11	16:02:42.350	-0.035	-0.105	-0.105	-0.003904	0.006832	1.013576	0.3315	0.165	-0.4815	0	2	1036	1
2026-02-11	16:02:42.370	-0.07	-0.105	-0.07	-0.004148	0.008784	1.015528	0.3285	0.1635	-0.486	0	2	1036	1
2026-02-11	16:02:42.390	-0.07	-0.14	-0.07	-0.001708	0.008784	1.01504	0.3285	0.1605	-0.483	0	2	1036	1
2026-02-11	16:02:42.410	-0.07	-0.105	-0.105	-0.003172	0.006832	1.009916	0.3285	0.1605	-0.4845	0	2	1036	1
2026-02-11	16:02:42.430	-0.07	-0.105	-0.105	-0.002684	0.007564	1.01504	0.3285	0.159	-0.4815	0	2	1036	1
2026-02-11	16:02:42.450	-0.035	-0.14	-0.105	-0.002928	0.005368	1.01504	0.3285	0.1575	-0.477	0	2	1036	1
2026-02-11	16:02:42.470	-0.035	-0.105	-0.105	-0.00244	0.007076	1.014064	0.336	0.168	-0.4785	0	2	1036	1
2026-02-11	16:02:42.490	-0.07	-0.105	-0.105	-0.003172	0.005124	1.016016	0.3315	0.159	-0.4815	0	2	1036	1
2026-02-11	16:02:42.510	-0.035	-0.14	-0.07	-0.000488	0.008296	1.010892	0.321	0.1605	-0.486	0	2	1036	1
2026-02-11	16:02:42.530	-0.035	-0.105	-0.07	-0.005612	0.007808	1.014308	0.3315	0.1635	-0.4785	0	2	1036	1
2026-02-11	16:02:42.550	-0.07	-0.105	-0.07	-0.002196	0.00976	1.014064	0.333	0.1605	-0.486	0	2	1036	1
2026-02-11	16:02:42.570	0	-0.14	-0.105	-0.000244	0.007564	1.014308	0.3375	0.162	-0.4845	0	2	1036	1
2026-02-11	16:02:42.590	-0.035	-0.14	-0.105	-0.003416	0.010492	1.013332	0.333	0.159	-0.477	0	2	1036	1
2026-02-11	16:02:42.610	-0.07	-0.105	-0.07	-0.003172	0.00976	1.014064	0.3315	0.1575	-0.4845	0	2	1036	1
2026-02-11	16:02:42.630	-0.07	-0.105	-0.07	-0.002928	0.009516	1.013576	0.3315	0.1575	-0.4845	0	2	1036	1
2026-02-11	16:02:42.650	-0.07	-0.14	-0.105	-0.001708	0.008296	1.013088	0.333	0.1605	-0.483	0	2	1036	1
2026-02-11	16:02:42.670	-0.035	-0.14	-0.105	-0.005124	0.008784	1.0126	0.333	0.1665	-0.4785	0	2	1036	1
2026-02-11	16:02:42.690	-0.07	-0.14	-0.105	-0.00366	0.006832	1.015528	0.33	0.162	-0.48	0	2	1036	1
2026-02-11	16:02:42.710	-0.035	-0.14	-0.07	-0.0061	0.0061	1.01504	0.3315	0.1575	-0.4815	0	2	1036	1
2026-02-11	16:02:42.730	-0.07	-0.105	-0.07	-0.002196	0.00854	1.014064	0.33	0.159	-0.4815	0	2	1036	1
2026-02-11	16:02:42.750	-0.07	-0.14	-0.07	-0.003416	0.009272	1.013332	0.3285	0.156	-0.4815	0	2	1036	1
2026-02-11	16:02:42.770	-0.07	-0.105	-0.07	-0.000732	0.010492	1.016748	0.33	0.156	-0.4815	0	2	1036	1
2026-02-11	16:02:42.790	0	-0.175	-0.105	-0.00488	0.00976	1.009916	0.3315	0.1605	-0.4815	0	2	1036	1
2026-02-11	16:02:42.810	-0.035	-0.14	-0.105	-0.001464	0.00366	1.012356	0.3375	0.1575	-0.4845	0	2	1036	1
2026-02-11	16:02:42.830	-0.035	-0.105	-0.035	-0.002928	0.009028	1.014552	0.3315	0.159	-0.4815	0	2	1036	1
2026-02-11	16:02:42.850	-0.07	-0.14	-0.07	-0.00122	0.008052	1.010404	0.3285	0.1575	-0.4785	0	2	1036	1
2026-02-11	16:02:42.870	0	-0.14	-0.07	-0.00244	0.008784	1.012112	0.327	0.1545	-0.4785	0	2	1036	1
2026-02-11	16:02:42.890	-0.035	-0.14	-0.035	0	0.006588	1.0126	0.327	0.156	-0.4815	0	2	1036	1
2026-02-11	16:02:42.910	-0.07	-0.175	-0.07	0	0.008296	1.013576	0.333	0.1605	-0.483	0	2	1036	1
2026-02-11	16:02:42.930	-0.035	-0.105	-0.07	-0.003172	0.009272	1.016748	0.333	0.1605	-0.4845	0	2	1036	1
2026-02-11	16:02:42.950	-0.07	-0.14	-0.07	-0.002196	0.010248	1.01382	0.33	0.1605	-0.483	0	2	1036	1
2026-02-11	16:02:42.970	-0.035	-0.105	-0.07	-0.00122	0.009516	1.011624	0.3345	0.162	-0.4815	0	2	1036	1
2026-02-11	16:02:42.990	-0.035	-0.14	-0.07	-0.003172	0.006344	1.011624	0.3375	0.162	-0.4815	0	2	1036	1
2026-02-11	16:02:43.010	-0.035	-0.105	-0.07	0.000488	0.006344	1.013576	0.33	0.165	-0.48	0	2	1036	1
2026-02-11	16:02:43.030	-0.07	-0.105	-0.07	-0.000976	0.005368	1.010892	0.33	0.1665	-0.4785	0	2	1036	1
2026-02-11	16:02:43.050	-0.07	-0.14	-0.105	-0.002928	0.010004	1.013088	0.3315	0.1605	-0.48	0	2	1036	1
2026-02-11	16:02:43.070	-0.035	-0.105	-0.105	-0.00244	0.008052	1.01016	0.333	0.159	-0.483	0	2	1036	1
2026-02-11	16:02:43.090	-0.07	-0.105	-0.105	-0.003416	0.0061	1.0126	0.327	0.159	-0.4875	0	2	1036	1
2026-02-11	16:02:43.110	-0.035	-0.14	-0.035	-0.00122	0.010736	1.012112	0.333	0.1605	-0.48	0	2	1036	1
2026-02-11	16:02:43.130	-0.035	-0.14	-0.07	-0.000488	0.006588	1.013088	0.3315	0.153	-0.486	0	2	1036	1
2026-02-11	16:02:43.150	-0.07	-0.14	-0.105	-0.001708	0.011712	1.011136	0.3315	0.159	-0.483	0	2	1036	1
2026-02-11	16:02:43.170	-0.035	-0.105	-0.07	-0.003172	0.006588	1.010648	0.3285	0.1635	-0.4785	0	2	1036	1
2026-02-11	16:02:43.190	-0.07	-0.14	-0.07	-0.001952	0.008052	1.016016	0.3315	0.159	-0.48	0	2	1036	1
2026-02-11	16:02:43.210	-0.035	-0.07	-0.07	-0.001952	0.010004	1.014064	0.333	0.159	-0.4815	0	2	1036	1
2026-02-11	16:02:43.230	-0.035	-0.105	-0.105	0.000976	0.009272	1.009428	0.33	0.162	-0.48	0	2	1036	1
2026-02-11	16:02:43.250	-0.07	-0.105	-0.07	-0.00244	0.006344	1.011136	0.3285	0.1575	-0.48	0	2	1036	1
2026-02-11	16:02:43.270	-0.07	-0.105	-0.07	-0.003904	0.00732	1.014308	0.3315	0.156	-0.48	0	2	1036	1
2026-02-11	16:02:43.290	-0.035	-0.14	-0.105	-0.001952	0.007808	1.011624	0.33	0.1605	-0.477	0	2	1036	1
2026-02-11	16:02:43.310	-0.035	-0.14	-0.07	-0.002928	0.006588	1.012844	0.33	0.1635	-0.4785	0	2	1036	1
2026-02-11	16:02:43.330	-0.035	-0.105	-0.105	-0.001464	0.008052	1.013576	0.333	0.1635	-0.48	0	2	1036	1
2026-02-11	16:02:43.350	-0.035	-0.14	-0.07	-0.002928	0.010004	1.012112	0.3315	0.1605	-0.4785	0	2	1036	1
2026-02-11	16:02:43.370	-0.07	-0.105	-0.105	-0.00366	0.006344	1.013332	0.3315	0.1605	-0.4785	0	2	1036	1
2026-02-11	16:02:43.390	-0.07	-0.14	-0.07	-0.006344	0.00854	1.01382	0.3345	0.1605	-0.4815	0	2	1036	1
2026-02-11	16:02:43.410	-0.035	-0.14	-0.105	-0.003172	0.010492	1.01138	0.33	0.159	-0.477	0	2	1036	1
2026-02-11	16:02:43.430	-0.035	-0.105	-0.105	-0.000732	0.007808	1.011136	0.33	0.159	-0.477	0	2	1036	1
2026-02-11	16:02:43.450	-0.035	-0.07	-0.105	-0.003172	0.007076	1.01382	0.327	0.1575	-0.4785	0	2	1036	1
2026-02-11	16:02:43.470	-0.035	-0.105	-0.07	-0.00366	0.00854	1.014064	0.3285	0.159	-0.4785	0	2	1036	1
2026-02-11	16:02:43.490	-0.07	-0.14	-0.105	-0.00244	0.009028	1.014064	0.333	0.1575	-0.4785	0	2	1036	1
2026-02-11	16:02:43.510	-0.035	-0.105	-0.07	-0.00244	0.007808	1.011624	0.333	0.1605	-0.483	0	2	1036	1
2026-02-11	16:02:43.530	-0.07	-0.105	-0.105	-0.00366	0.00976	1.014308	0.3345	0.1635	-0.486	0	2	1036	1
2026-02-11	16:02:43.550	-0.07	-0.105	-0.07	0.000732	0.006344	1.012356	0.3375	0.1605	-0.4875	0	2	1036	1
2026-02-11	16:02:43.570	-0.07	-0.14	-0.07	-0.00366	0.007076	1.012356	0.324	0.1605	-0.4815	0	2	1036	1
2026-02-11	16:02:43.590	-0.07	-0.105	-0.07	-0.003904	0.006344	1.013576	0.333	0.1575	-0.48	0	2	1036	1
2026-02-11	16:02:43.610	-0.105	-0.105	-0.105	-0.004148	0.009028	1.01138	0.3255	0.1635	-0.48	0	2	1036	1
2026-02-11	16:02:43.630	-0.035	-0.105	-0.07	-0.0061	0.009272	1.014796	0.33	0.156	-0.486	0	2	1036	1
2026-02-11	16:02:43.650	0	-0.14	-0.07	-0.003416	0.010248	1.012844	0.324	0.156	-0.4815	0	2	1036	1
2026-02-11	16:02:43.670	0	-0.105	-0.07	-0.002684	0.008296	1.008696	0.3465	0.1575	-0.489	0	2	1036	1
2026-02-11	16:02:43.690	-0.07	-0.07	-0.07	-0.004392	0.005368	1.014064	0.33	0.1635	-0.474	0	2	1036	1
2026-02-11	16:02:43.710	-0.035	-0.14	-0.07	-0.001952	0.01098	1.015284	0.3285	0.1545	-0.48	0	2	1036	1
2026-02-11	16:02:43.730	-0.035	-0.105	-0.105	0.000732	0.009272	1.015284	0.3285	0.1545	-0.48	0	2	1036	1
2026-02-11	16:02:43.750	-0.07	-0.105	-0.105	-0.005612	0.010492	1.013576	0.3315	0.1575	-0.483	0	2	1036	1
2026-02-11	16:02:43.770	-0.07	-0.105	-0.105	-0.005368	0.00854	1.011624	0.3345	0.159	-0.48	0	2	1036	1
2026-02-11	16:02:43.790	-0.07	-0.07	-0.105	-0.003904	0.007564	1.010404	0.3315	0.159	-0.477	0	2	1036	1
2026-02-11	16:02:43.810	-0.035	-0.14	-0.105	-0.003416	0.006344	1.014308	0.33	0.1605	-0.48	0	2	1036	1
2026-02-11	16:02:43.830	-0.07	-0.14	-0.105	-0.002684	0.00854	1.012844	0.3285	0.1575	-0.483	0	2	1036	1
2026-02-11	16:02:43.850	-0.105	-0.07	-0.105	-0.003172	0.01098	1.015772	0.327	0.156	-0.486	0	2	1036	1
2026-02-11	16:02:43.870	-0.035	-0.105	-0.105	-0.004148	0.007076	1.014308	0.3255	0.1575	-0.483	0	2	1036	1
2026-02-11	16:02:43.890	-0.07	-0.14	-0.14	-0.000732	0.008052	1.015528	0.3255	0.1545	-0.477	0	2	1036	1
2026-02-11	16:02:43.910	-0.07	-0.14	-0.105	-0.005612	0.00732	1.01138	0.33	0.15	-0.474	0	2	1036	1
2026-02-11	16:02:43.930	-0.07	-0.175	-0.07	-0.002928	0.010736	1.011868	0.3315	0.1605	-0.4785	0	2	1036	1
2026-02-11	16:02:43.950	-0.035	-0.105	-0.105	-0.004392	0.00976	1.015284	0.33	0.1545	-0.4785	0	2	1036	1
2026-02-11	16:02:43.970	-0.07	-0.105	-0.105	-0.0061	0.006344	1.014308	0.3375	0.1545	-0.4845	0	2	1036	1
2026-02-11	16:02:43.990	-0.035	-0.14	-0.105	-0.001952	0.010004	1.011136	0.333	0.1575	-0.4935	0	2	1036	1
2026-02-11	16:02:44.010	-0.07	-0.14	-0.105	-0.00244	0.009516	1.0126	0.333	0.1575	-0.4935	0	2	1036	1
2026-02-11	16:02:44.030	-0.035	-0.07	-0.105	-0.004392	0.0061	1.012844	0.3315	0.162	-0.4815	0	2	1036	1
2026-02-11	16:02:44.050	-0.035	-0.105	-0.105	-0.004636	0.008052	1.0126	0.327	0.159	-0.4875	0	2	1036	1
2026-02-11	16:02:44.070	-0.07	-0.14	-0.105	-0.001464	0.0061	1.012356	0.327	0.1635	-0.483	0	2	1036	1
2026-02-11	16:02:44.090	-0.035	-0.105	-0.07	-0.000488	0.007564	1.012112	0.327	0.1635	-0.483	0	2	1036	1
2026-02-11	16:02:44.110	-0.035	-0.07	-0.105	-0.00366	0.010248	1.011868	0.327	0.162	-0.489	0	2	1036	1
2026-02-11	16:02:44.130	-0.035	-0.105	-0.105	-0.001952	0.008784	1.014064	0.33	0.159	-0.477	0	2	1036	1
2026-02-11	16:02:44.150	-0.035	-0.105	-0.105	-0.000488	0.007808	1.012356	0.336	0.159	-0.4785	0	2	1036	1
2026-02-11	16:02:44.170	-0.035	-0.14	-0.07	-0.00366	0.00488	1.014308	0.333	0.162	-0.483	0	2	1036	1
2026-02-11	16:02:44.190	-0.07	-0.14	-0.07	-0.004392	0.00854	1.011624	0.327	0.1635	-0.486	0	2	1036	1
2026-02-11	16:02:44.210	-0.07	-0.105	-0.105	-0.00366	0.006588	1.012112	0.336	0.162	-0.483	0	2	1036	1
2026-02-11	16:02:44.230	-0.035	-0.14	-0.07	-0.005856	0.006588	1.015284	0.3285	0.1605	-0.4845	0	2	1036	1
2026-02-11	16:02:44.250	-0.035	-0.14	-0.105	-0.003416	0.0061	1.012356	0.3345	0.15	-0.483	0	2	1036	1
2026-02-11	16:02:44.270	-0.035	-0.105	-0.105	0.00122	0.007076	1.01382	0.3375	0.1635	-0.4845	0	2	1036	1
2026-02-11	16:02:44.290	-0.07	-0.105	-0.07	-0.000732	0.00976	1.012844	0.333	0.1605	-0.4815	0	2	1036	1
2026-02-11	16:02:44.310	-0.035	-0.105	-0.07	-0.00366	0.008052	1.01016	0.3315	0.162	-0.48	0	2	1036	1
2026-02-11	16:02:44.330	-0.07	-0.105	-0.105	-0.000488	0.009272	1.011868	0.3285	0.162	-0.4815	0	2	1036	1
2026-02-11	16:02:44.350	-0.035	-0.14	-0.07	-0.000488	0.011468	1.014308	0.3285	0.1575	-0.483	0	2	1036	1
2026-02-11	16:02:44.370	-0.035	-0.14	-0.07	-0.004148	0.006832	1.010648	0.3315	0.159	-0.483	0	2	1036	1
2026-02-11	16:02:44.390	-0.07	-0.14	-0.105	-0.004636	0.006344	1.012844	0.3315	0.159	-0.4845	0	2	1036	1
2026-02-11	16:02:44.410	-0.035	-0.14	-0.07	-0.002928	0.009516	1.017236	0.3315	0.1575	-0.486	0	2	1036	1
2026-02-11	16:02:44.430	0	-0.105	-0.105	-0.005612	0.008052	1.001864	0.33	0.162	-0.483	0	2	1036	1
2026-02-11	16:02:44.450	-0.105	-0.14	-0.07	-0.007808	0.007076	1.017236	0.3315	0.1665	-0.483	0	2	1036	1
2026-02-11	16:02:44.470	-0.035	-0.14	-0.105	-0.003172	0.00976	1.01016	0.3315	0.1665	-0.483	0	2	1036	1
2026-02-11	16:02:44.490	-0.035	-0.105	-0.105	-0.003416	0.00854	1.005768	0.3315	0.162	-0.489	0	2	1036	1
2026-02-11	16:02:44.510	-0.105	-0.105	-0.105	-0.00366	0.013908	1.017968	0.3435	0.1545	-0.4785	0	2	1036	1
2026-02-11	16:02:44.530	-0.07	-0.105	-0.105	0.000488	0.007808	1.009672	0.3315	0.1605	-0.4815	0	2	1036	1
2026-02-11	16:02:44.550	-0.07	-0.14	-0.105	-0.003904	0.00854	1.010892	0.33	0.1575	-0.4815	0	2	1036	1
2026-02-11	16:02:44.570	-0.07	-0.105	-0.07	-0.002928	0.010736	1.02358	0.333	0.1485	-0.477	0	2	1036	1
2026-02-11	16:02:44.590	0	-0.14	-0.07	-0.001708	0.011468	1.006744	0.33	0.159	-0.4785	0	2	1036	1
2026-02-11	16:02:44.610	-0.035	-0.14	-0.105	-0.008784	0.008052	1.002596	0.3315	0.1545	-0.483	0	2	1035	1
2026-02-11	16:02:44.630	-0.105	-0.105	-0.07	-0.00122	0.00366	1.018944	0.3285	0.1545	-0.4785	0	2	1035	1
2026-02-11	16:02:44.650	0	-0.14	-0.105	-0.005612	0.00732	1.006012	0.33	0.1545	-0.48	0	2	1035	1
2026-02-11	16:02:44.670	0	-0.105	-0.07	-0.000488	0.010736	1.010404	0.3345	0.1545	-0.48	0	2	1035	1
2026-02-11	16:02:44.690	-0.07	-0.105	-0.07	-0.002684	0.009516	1.015284	0.339	0.156	-0.48	0	2	1035	1
2026-02-11	16:02:44.710	-0.07	-0.105	-0.105	-0.006344	0.008296	1.019676	0.336	0.1605	-0.4785	0	2	1035	1
2026-02-11	16:02:44.730	0	-0.14	-0.07	-0.00244	0.010004	1.012112	0.333	0.1605	-0.477	0	2	1035	1
2026-02-11	16:02:44.750	-0.035	-0.105	-0.07	-0.005368	0.00732	1.016016	0.3195	0.156	-0.474	0	2	1035	1
2026-02-11	16:02:44.770	-0.035	-0.105	-0.105	0.000244	0.006344	1.013332	0.3375	0.1575	-0.483	0	2	1035	1
2026-02-11	16:02:44.790	-0.07	-0.14	-0.105	-0.000976	0.010004	1.016016	0.3345	0.1545	-0.483	0	2	1035	1
2026-02-11	16:02:44.810	-0.07	-0.105	-0.105	-0.000976	0.005368	1.011868	0.3345	0.159	-0.4815	0	2	1035	1
2026-02-11	16:02:44.830	-0.07	-0.105	-0.07	-0.004636	0.006344	1.015528	0.3345	0.159	-0.4815	0	2	1035	1
2026-02-11	16:02:44.850	-0.07	-0.14	-0.105	-0.002928	0.00854	1.01138	0.33	0.1545	-0.48	0	2	1035	1
2026-02-11	16:02:44.870	-0.035	-0.14	-0.07	-0.000488	0.007808	1.012844	0.327	0.1545	-0.4785	0	2	1035	1
2026-02-11	16:02:44.890	-0.035	-0.105	-0.07	-0.002928	0.0061	1.014796	0.3315	0.1575	-0.4785	0	2	1035	1
2026-02-11	16:02:44.910	-0.07	-0.14	-0.105	-0.00366	0.008052	1.013576	0.336	0.156	-0.48	0	2	1035	1
2026-02-11	16:02:44.930	-0.07	-0.105	-0.035	-0.002684	0.009516	1.0065	0.336	0.159	-0.4815	0	2	1035	1
2026-02-11	16:02:44.950	-0.07	-0.105	-0.105	-0.00366	0.009028	1.01138	0.3315	0.165	-0.483	0	2	1035	1
2026-02-11	16:02:44.970	-0.105	-0.14	-0.105	0.003416	0.007808	1.016016	0.3255	0.165	-0.483	0	2	1035	1
2026-02-11	16:02:44.990	-0.07	-0.105	-0.07	-0.004392	0.008296	1.013576	0.3255	0.1605	-0.4815	0	2	1035	1
2026-02-11	16:02:45.010	-0.07	-0.105	-0.07	-0.005124	0.01098	1.00772	0.3285	0.162	-0.4815	0	3	1035	1
2026-02-11	16:02:45.030	-0.07	-0.14	-0.07	-0.003172	0.006344	1.017968	0.339	0.1575	-0.48	0	3	1035	1
2026-02-11	16:02:45.050	-0.035	-0.14	-0.105	-0.005612	0.008296	1.0126	0.3375	0.162	-0.4815	0	3	1035	1
2026-02-11	16:02:45.070	0	-0.105	-0.105	-0.003904	0.00976	1.013576	0.3285	0.1635	-0.477	0	3	1035	1
2026-02-11	16:02:45.090	-0.07	-0.105	-0.07	0.000976	0.008784	1.0126	0.333	0.1605	-0.483	0	3	1035	1
2026-02-11	16:02:45.110	-0.035	-0.14	-0.07	-0.004148	0.00732	1.017724	0.3375	0.162	-0.4785	0	3	1035	1
2026-02-11	16:02:45.130	-0.035	-0.175	-0.105	-0.001708	0.006344	1.01138	0.3375	0.1575	-0.483	0	3	1035	1
2026-02-11	16:02:45.150	-0.035	-0.07	-0.07	-0.004148	0.009516	1.0126	0.3315	0.162	-0.4815	0	3	1035	1
2026-02-11	16:02:45.170	-0.07	-0.105	-0.07	-0.00488	0.009028	1.012356	0.339	0.165	-0.4815	0	3	1035	1
2026-02-11	16:02:45.190	-0.035	-0.14	-0.105	-0.003172	0.007076	1.009672	0.339	0.165	-0.4815	0	3	1035	1
2026-02-11	16:02:45.210	-0.07	-0.105	-0.105	-0.001952	0.010248	1.014552	0.333	0.162	-0.4845	0	3	1035	1
2026-02-11	16:02:45.230	-0.035	-0.105	-0.07	-0.004392	0.007808	1.013088	0.3285	0.156	-0.4845	0	3	1035	1
2026-02-11	16:02:45.250	0	-0.14	-0.105	-0.001708	0.00976	1.011868	0.3315	0.1515	-0.4785	0	3	1035	1
2026-02-11	16:02:45.270	-0.105	-0.14	-0.105	-0.00244	0.0061	1.012356	0.3315	0.1575	-0.4785	0	3	1035	1
2026-02-11	16:02:45.290	-0.07	-0.105	-0.07	-0.005124	0.008296	1.01138	0.33	0.162	-0.48	0	3	1035	1
2026-02-11	16:02:45.310	-0.035	-0.105	-0.105	-0.002196	0.007564	1.013088	0.3315	0.1605	-0.48	0	3	1035	1
2026-02-11	16:02:45.330	-0.07	-0.105	-0.105	-0.003904	0.008296	1.011868	0.3315	0.159	-0.477	0	3	1035	1
2026-02-11	16:02:45.350	-0.035	-0.105	-0.07	-0.000732	0.0061	1.009428	0.33	0.1605	-0.477	0	3	1035	1
2026-02-11	16:02:45.370	-0.035	-0.07	-0.07	-0.00366	0.007564	1.012356	0.33	0.1635	-0.48	0	3	1035	1
2026-02-11	16:02:45.390	-0.07	-0.105	-0.105	-0.004148	0.005124	1.0126	0.3315	0.1605	-0.4785	0	3	1035	1
2026-02-11	16:02:45.410	-0.035	-0.14	-0.105	-0.000976	0.010736	1.011624	0.33	0.1575	-0.4815	0	3	1035	1
2026-02-11	16:02:45.430	-0.035	-0.105	-0.035	-0.003904	0.010248	1.013576	0.333	0.1575	-0.483	0	3	1035	1
2026-02-11	16:02:45.450	-0.035	-0.14	-0.07	-0.000976	0.008052	1.017724	0.333	0.1575	-0.48	0	3	1035	1
2026-02-11	16:02:45.470	0	-0.14	-0.105	-0.003172	0.00976	1.012112	0.3285	0.1575	-0.477	0	3	1035	1
2026-02-11	16:02:45.490	-0.07	-0.105	-0.105	0.000488	0.007564	1.013576	0.33	0.1575	-0.48	0	3	1035	1
