yyyy-MM-dd	HH:mm:ss.fff	gyrX	gyrY	gyrZ	accX	accY	accZ	magX	magY	magZ	Marker	Energy	Angle	Classification
2026-02-12	16:07:01.610	4.76	-2.03	5.985	-0.282796	0.443348	0.873032	0.0765	-0.6645	0.6705	0	58	889	1
2026-02-12	16:07:01.630	3.465	-4.445	6.65	-0.29524	0.447496	0.875228	0.069	-0.6645	0.6675	0	58	889	1
2026-02-12	16:07:01.650	2.625	-6.685	6.895	-0.283772	0.457988	0.888648	0.069	-0.6675	0.663	0	58	889	1
2026-02-12	16:07:01.670	0.84	-6.3	5.705	-0.283528	0.454084	0.877424	0.0735	-0.675	0.6675	0	58	889	1
2026-02-12	16:07:01.690	-0.14	-7.35	4.235	-0.274012	0.460672	0.872056	0.075	-0.681	0.669	0	58	889	1
2026-02-12	16:07:01.710	0.105	-8.155	3.255	-0.260104	0.46116	0.888892	0.0705	-0.6765	0.6615	0	58	889	1
2026-02-12	16:07:01.730	0.84	-5.705	2.94	-0.247172	0.472384	0.881816	0.0705	-0.6735	0.6615	0	58	889	1
2026-02-12	16:07:01.750	1.925	-3.325	1.19	-0.244732	0.468968	0.878156	0.072	-0.675	0.66	0	58	889	1
2026-02-12	16:07:01.770	0.035	-1.05	-0.98	-0.24644	0.45628	0.877668	0.072	-0.6705	0.654	0	58	889	1
2026-02-12	16:07:01.790	-2.975	0.7	-0.14	-0.22936	0.464332	0.88572	0.069	-0.669	0.6555	0	58	889	1
2026-02-12	16:07:01.810	-0.385	4.025	0.175	-0.22692	0.458476	0.88816	0.066	-0.6675	0.663	0	53	890	1
2026-02-12	16:07:01.830	2.59	7.14	-0.84	-0.243756	0.463844	0.868152	0.069	-0.6675	0.6615	0	53	890	1
2026-02-12	16:07:01.850	2.975	5.88	0.07	-0.256688	0.458476	0.859368	0.0675	-0.6705	0.654	0	53	890	1
2026-02-12	16:07:01.870	3.64	3.465	1.645	-0.258152	0.456036	0.884256	0.069	-0.6675	0.657	0	53	890	1
2026-02-12	16:07:01.890	2.765	3.955	2.485	-0.27328	0.466284	0.871324	0.0705	-0.6675	0.6615	0	53	890	1
2026-02-12	16:07:01.910	1.26	0.875	1.855	-0.282552	0.480436	0.854732	0.063	-0.669	0.663	0	53	890	1
2026-02-12	16:07:01.930	-0.315	-3.675	-0.665	-0.261812	0.447252	0.8906	0.06	-0.672	0.666	0	53	890	1
2026-02-12	16:07:01.950	0.35	-0.945	1.89	-0.265228	0.459208	0.877668	0.063	-0.6765	0.663	0	53	890	1
2026-02-12	16:07:01.970	-0.91	1.645	2.625	-0.253028	0.4575	0.85156	0.06	-0.681	0.6615	0	53	890	1
2026-02-12	16:07:01.990	-4.55	-1.155	3.395	-0.242048	0.449204	0.8723	0.06	-0.6795	0.6615	0	53	890	1
2026-02-12	16:07:02.010	-3.815	-2.275	2.94	-0.250588	0.462136	0.884744	0.057	-0.684	0.6555	0	48	891	1
2026-02-12	16:07:02.030	-0.28	-0.91	2.205	-0.2562	0.45872	0.886452	0.0555	-0.6945	0.6495	0	48	891	1
2026-02-12	16:07:02.050	3.885	-0.945	2.31	-0.268644	0.457256	0.886452	0.057	-0.6975	0.648	0	48	891	1
2026-02-12	16:07:02.070	4.34	-2.17	2.03	-0.272548	0.454084	0.882304	0.054	-0.699	0.6495	0	48	891	1
2026-02-12	16:07:02.090	0.63	-2.8	1.925	-0.25376	0.452376	0.866932	0.048	-0.7005	0.654	0	48	891	1
2026-02-12	16:07:02.110	-1.4	-3.885	2.8	-0.23546	0.45262	0.8845	0.042	-0.7035	0.657	0	48	891	1
2026-02-12	16:07:02.130	-1.575	-0.98	2.765	-0.232532	0.459452	0.891332	0.042	-0.7035	0.657	0	48	891	1
2026-02-12	16:07:02.150	1.19	1.715	1.925	-0.250344	0.447008	0.90036	0.042	-0.705	0.6495	0	48	891	1
2026-02-12	16:07:02.170	0.665	3.29	2.87	-0.27938	0.456036	0.873764	0.0405	-0.708	0.6465	0	48	891	1
2026-02-12	16:07:02.190	-2.87	2.45	3.885	-0.292312	0.459696	0.849608	0.0405	-0.7095	0.6495	0	48	891	1
2026-02-12	16:07:08.210	0.945	-6.58	3.22	-0.241316	0.377956	0.907924	0.0705	-0.699	0.594	0	73	8	2
2026-02-12	16:07:08.230	5.775	-8.995	5.88	-0.223992	0.41358	0.94428	0.0705	-0.696	0.5925	0	73	8	2
2026-02-12	16:07:08.250	19.39	2.52	2.835	-0.207888	0.82594	0.49654	0.0765	-0.693	0.588	0	73	8	2
2026-02-12	16:07:08.270	-5.74	40.285	-10.605	-0.216672	1.110444	-0.006344	-0.243	0.345	2.145	0	73	8	2
2026-02-12	16:07:08.290	-17.535	20.79	-16.135	-0.19276	0.999424	-0.116876	-0.252	0.3375	2.1375	0	73	8	2
2026-02-12	16:07:08.310	-2.065	-6.055	-11.095	-0.07076	0.931592	-0.017812	-0.2595	0.3495	2.1135	0	73	8	2
2026-02-12	16:07:08.330	13.93	6.93	7.91	-0.134688	1.135088	0.017568	-0.264	0.3645	2.121	0	73	8	2
2026-02-12	16:07:08.350	15.61	25.06	0.84	-0.233752	1.100196	0.062464	-0.2655	0.3645	2.1555	0	73	8	2
2026-02-12	16:07:08.370	17.22	34.405	-3.045	-0.282308	1.20414	-0.070516	-0.267	0.3525	2.1945	0	73	8	2
2026-02-12	16:07:08.390	21.245	20.02	-22.05	-0.293288	1.18584	-0.001952	-0.2595	0.3285	2.226	0	73	8	2
2026-02-12	16:07:08.410	10.99	9.94	-46.62	-0.258152	1.070428	-0.064416	-0.255	0.3285	2.259	0	215	20	2
2026-02-12	16:07:08.430	5.88	6.58	-44.485	-0.135176	1.021872	-0.049288	-0.255	0.336	2.283	0	215	20	2
2026-02-12	16:07:08.450	7.525	5.81	-34.335	-0.097112	0.970144	-0.0244	-0.252	0.3405	2.2845	0	215	20	2
2026-02-12	16:07:08.470	4.865	5.74	-26.635	-0.095648	1.00284	-0.03416	-0.267	0.3405	2.307	0	215	20	2
2026-02-12	16:07:08.490	5.95	5.635	-19.53	-0.140544	1.055056	-0.035136	-0.2625	0.3465	2.3085	0	215	20	2
2026-02-12	16:07:08.510	10.605	10.85	-6.58	-0.21838	1.064328	0.064416	-0.252	0.3525	2.3295	0	215	20	2
2026-02-12	16:07:08.530	2.975	26.18	-2.52	-0.279136	1.130452	0.074908	-0.2325	0.36	2.3565	0	215	20	2
2026-02-12	16:07:08.550	2.345	26.74	-15.645	-0.213744	1.206824	0.002196	-0.207	0.3465	2.37	0	215	20	2
2026-02-12	16:07:08.570	20.44	21.595	-26.495	-0.237412	1.168516	0.07124799	-0.1905	0.342	2.3865	0	215	20	2
2026-02-12	16:07:08.590	23.905	40.215	-13.86	-0.239852	1.25294	0.190564	-0.162	0.339	2.439	0	215	20	2
2026-02-12	16:07:08.610	18.865	62.265	-25.2	-0.31354	1.3664	0.022936	-0.1455	0.306	2.481	0	343	23	3
2026-02-12	16:07:08.630	13.51	43.505	-62.615	-0.305	1.3664	0.060512	-0.123	0.2835	2.508	0	343	23	3
2026-02-12	16:07:08.650	19.005	27.09	-97.195	-0.193492	1.144116	0.09028	-0.111	0.2535	2.5425	0	343	23	3
2026-02-12	16:07:08.670	24.675	28.385	-105.7	-0.116632	1.068232	0.014884	-0.1155	0.2625	2.5635	0	343	23	3
2026-02-12	16:07:08.690	42.14	36.96	-87.955	-0.189832	1.025532	0.033916	-0.126	0.2655	2.589	0	343	23	3
2026-02-12	16:07:08.710	52.815	38.99	-78.61	-0.249368	1.068964	-0.052704	-0.135	0.2715	2.616	0	343	23	3
2026-02-12	16:07:08.730	48.755	28.21	-82.04	-0.242536	0.895968	-0.037332	-0.1335	0.2835	2.6325	0	343	23	3
2026-02-12	16:07:08.750	28.315	22.715	-80.01	-0.291824	0.999912	0.002928	-0.126	0.2895	2.6745	0	343	23	3
2026-02-12	16:07:08.770	25.865	22.645	-98.91	-0.364536	1.108004	-0.0183	-0.111	0.2805	2.739	0	343	23	3
2026-02-12	16:07:08.790	32.06	23.8	-118.475	-0.364292	1.032364	-0.04514	-0.09	0.2745	2.7795	0	343	23	3
2026-02-12	16:07:08.810	31.395	33.46	-134.295	-0.396744	0.816668	-0.020008	-0.0585	0.294	2.811	0	427	20	3
2026-02-12	16:07:08.830	27.44	49.245	-131.53	-0.389424	0.650016	-0.114924	-0.0435	0.3285	2.829	0	427	20	3
2026-02-12	16:07:08.850	29.715	49.28	-116.62	-0.404552	0.623176	-0.163724	-0.0435	0.3285	2.829	0	427	20	3
2026-02-12	16:07:08.870	71.47	37.31	-99.61	-0.450424	0.658312	-0.211792	-0.063	0.333	2.871	0	427	20	3
2026-02-12	16:07:08.890	87.85	34.37	-77.805	-0.468968	0.721752	-0.255956	-0.063	0.333	2.871	0	427	20	3
2026-02-12	16:07:08.910	91.665	32.445	-72.625	-0.537044	0.479216	-0.281576	-0.0315	0.273	2.913	0	427	20	3
2026-02-12	16:07:08.930	100.52	26.6	-46.025	-0.552904	0.644892	-0.312564	0.0195	0.1545	2.9925	0	427	20	3
2026-02-12	16:07:08.950	86.625	6.23	-38.57	-0.516548	0.571448	-0.376492	0.06	0.0015	3.048	0	427	20	3
2026-02-12	16:07:08.970	91.49	-16.065	-40.705	-0.582672	0.281088	-0.252052	0.114	-0.1965	3.0645	0	427	20	3
2026-02-12	16:07:08.990	72.975	-7	-20.23	-0.658312	0.098088	-0.151768	0.177	-0.435	3.0135	0	427	20	3
2026-02-12	16:07:09.010	19.775	23.765	-2.275	-0.771528	-0.016348	-0.133712	0.2205	-0.7035	2.811	0	473	3	2
2026-02-12	16:07:09.030	-73.885	76.37	30.52	-0.669292	0.303292	-0.328912	0.228	-0.9225	2.382	0	473	3	2
2026-02-12	16:07:09.050	-172.69	125.3	53.27	-0.547292	0.461892	-0.582184	0.2145	-1.0095	1.818	0	473	3	2
2026-02-12	16:07:09.070	-218.47	129.465	70	-0.634156	0.762988	-0.659288	0.2115	-0.966	1.308	0	473	3	2
2026-02-12	16:07:09.090	-236.53	95.235	53.375	-0.736148	1.088728	-0.153964	0.2325	-0.8385	0.9525	0	473	3	2
2026-02-12	16:07:09.110	-233.695	128.555	30.835	-0.772748	1.508408	-0.167872	0.2685	-0.693	0.744	0	473	3	2
2026-02-12	16:07:09.130	-237.65	169.785	8.68	-0.536312	1.079944	-0.087108	0.3	-0.573	0.6315	0	473	3	2
2026-02-12	16:07:09.150	-213.43	183.295	32.235	-0.43554	1.052128	-0.407724	0.321	-0.48	0.573	0	473	3	2
2026-02-12	16:07:09.170	-173.005	151.48	48.23	-0.43798	1.38714	0.122732	0.339	-0.4155	0.552	0	473	3	2
2026-02-12	16:07:09.190	-138.495	151.235	-8.26	-0.348188	1.28344	0.21838	0.351	-0.372	0.555	0	473	3	2
2026-02-12	16:07:09.210	-95.97	122.08	-22.295	-0.291824	1.27124	-0.244244	0.3645	-0.336	0.558	0	493	49	3
2026-02-12	16:07:09.230	-55.86	84.49	-37.87	-0.228384	1.524024	-0.081496	0.372	-0.3165	0.5625	0	493	49	3
2026-02-12	16:07:09.250	-25.55	71.995	-113.96	-0.264252	1.17364	0.122	0.3825	-0.3105	0.579	0	493	49	3
2026-02-12	16:07:09.270	-22.225	74.375	-138.355	-0.180072	0.78324	0.179828	0.405	-0.297	0.5955	0	493	49	3
2026-02-12	16:07:09.290	-24.115	99.54	-93.345	-0.120048	0.975756	-0.133468	0.426	-0.2835	0.6045	0	493	49	3
2026-02-12	16:07:09.310	-23.31	92.155	-91.84	-0.160552	1.224392	-0.221552	0.45	-0.27	0.615	0	493	49	3
2026-02-12	16:07:09.330	1.785	67.34	-143.36	-0.288164	0.965752	-0.088328	0.471	-0.2625	0.624	0	493	49	3
2026-02-12	16:07:09.350	-3.045	51.03	-156.94	-0.319152	0.519964	0.092476	0.495	-0.2535	0.6315	0	493	49	3
2026-02-12	16:07:09.370	-22.015	65.415	-120.54	-0.31598	0.32208	0.174948	0.5145	-0.243	0.6375	0	493	49	3
2026-02-12	16:07:09.390	-36.82	102.55	-74.34	-0.28426	0.376492	-0.001708	0.5145	-0.243	0.6375	0	493	49	3
2026-02-12	16:07:09.410	-45.395	118.58	-54.005	-0.28182	0.506544	-0.1952	0.5145	-0.243	0.6375	0	499	79	3
2026-02-12	16:07:09.430	-49	103.81	-48.475	-0.314028	0.589748	-0.275964	0.5145	-0.243	0.6375	0	499	79	3
2026-02-12	16:07:09.450	-73.605	88.095	-50.715	-0.329644	0.655872	-0.383812	0.597	-0.243	0.6435	0	499	79	3
2026-02-12	16:07:09.470	-94.185	85.575	-47.425	-0.357216	0.148108	-0.378932	0.5985	-0.243	0.6525	0	499	79	3
2026-02-12	16:07:09.490	-67.41	79.485	1.12	-0.251808	0.418704	-0.068808	0.5955	-0.252	0.6375	0	499	79	3
2026-02-12	16:07:09.510	-115.395	118.09	27.23	-0.516304	1.035048	-0.498004	0.591	-0.252	0.627	0	499	79	3
2026-02-12	16:07:09.530	-119.665	121.73	-6.685	-0.479948	1.007964	-0.578524	0.591	-0.2745	0.618	0	499	79	3
2026-02-12	16:07:09.550	-95.48	95.62	-15.645	-0.514596	1.00284	-0.566324	0.5745	-0.2805	0.612	0	499	79	3
2026-02-12	16:07:09.570	-69.475	77.805	-24.78	-0.5856	0.837896	-0.550464	0.5715	-0.2895	0.591	0	499	79	3
2026-02-12	16:07:09.590	-55.405	77.665	-29.225	-0.638548	0.681736	-0.309148	0.5745	-0.294	0.585	0	499	79	3
2026-02-12	16:07:09.610	-42.105	104.685	-16.345	-0.561932	0.63318	-0.35746	0.5775	-0.303	0.576	0	496	110	3
2026-02-12	16:07:09.630	-36.47	116.27	-4.34	-0.59048	0.780312	-0.399428	0.5865	-0.285	0.573	0	496	110	3
2026-02-12	16:07:09.650	-32.27	124.075	-7.175	-0.602192	1.04554	-0.639524	0.576	-0.282	0.5745	0	496	110	3
2026-02-12	16:07:09.670	-27.335	105.35	-28.175	-0.747372	0.92842	-0.400404	0.576	-0.3015	0.573	0	496	110	3
2026-02-12	16:07:09.690	-41.93	111.195	-47.285	-0.685152	0.804468	-0.263032	0.5775	-0.3	0.57	0	496	110	3
2026-02-12	16:07:09.710	-58.555	126.21	-43.435	-0.625372	0.903288	-0.339648	0.5685	-0.297	0.579	0	496	110	3
2026-02-12	16:07:09.730	-75.285	123.585	-51.31	-0.571204	1.001132	-0.592188	0.5775	-0.306	0.564	0	496	110	3
2026-02-12	16:07:09.750	-75.145	90.265	-72.52	-0.603168	0.896944	-0.49654	0.573	-0.303	0.564	0	496	110	3
2026-02-12	16:07:09.770	-82.355	75.74	-70.28	-0.564616	0.998692	-0.442128	0.579	-0.3135	0.5565	0	496	110	3
2026-02-12	16:07:09.790	-76.3	84.035	-70.07	-0.450668	1.128744	-0.64416	0.5775	-0.309	0.5475	0	496	110	3
2026-02-12	16:07:09.810	-57.505	73.36	-82.425	-0.523136	1.0004	-0.703452	0.5775	-0.318	0.5355	0	486	169	3
2026-02-12	16:07:09.830	-37.87	63.49	-74.97	-0.593408	0.849852	-0.57218	0.594	-0.318	0.528	0	486	169	3
2026-02-12	16:07:09.850	-37.73	63.84	-60.795	-0.65026	0.7869	-0.387472	0.6045	-0.306	0.534	0	486	169	3
2026-02-12	16:07:09.870	-60.9	69.755	-53.97	-0.561444	0.90768	-0.432368	0.624	-0.294	0.519	0	486	169	3
2026-02-12	16:07:09.890	-82.145	58.66	-60.725	-0.568032	0.92598	-0.517036	0.639	-0.2985	0.51	0	486	169	3
2026-02-12	16:07:09.910	-97.3	46.865	-67.48	-0.543144	0.791048	-0.468724	0.636	-0.303	0.492	0	486	169	3
2026-02-12	16:07:09.930	-102.025	63.035	-50.785	-0.403088	0.906704	-0.396744	0.6495	-0.291	0.474	0	486	169	3
2026-02-12	16:07:09.950	-76.79	94.64	-49.735	-0.38186	0.833992	-0.49288	0.654	-0.2805	0.459	0	486	169	3
2026-02-12	16:07:09.970	-62.09	97.58	-55.58	-0.457744	0.722484	-0.474336	0.6465	-0.2805	0.4605	0	486	169	3
2026-02-12	16:07:09.990	-57.435	80.71	-59.08	-0.532896	0.585844	-0.417728	0.66	-0.2865	0.4545	0	486	169	3
2026-02-12	16:07:10.010	-74.34	66.115	-35.35	-0.526308	0.674172	-0.411384	0.675	-0.2925	0.4485	0	470	242	3
2026-02-12	16:07:10.030	-78.995	68.6	-25.515	-0.461648	0.716872	-0.341112	0.675	-0.2925	0.447	0	470	242	3
2026-02-12	16:07:10.050	-73.71	89.355	-17.045	-0.43066	0.764208	-0.35746	0.6765	-0.2895	0.4455	0	470	242	3
2026-02-12	16:07:10.070	-67.865	99.05	-25.13	-0.44652	0.589504	-0.346968	0.6795	-0.288	0.441	0	470	242	3
2026-02-12	16:07:10.090	-78.715	95.41	-26.285	-0.493612	0.534116	-0.356484	0.6765	-0.2925	0.4425	0	470	242	3
2026-02-12	16:07:10.110	-87.85	94.64	-19.74	-0.45506	0.568764	-0.464088	0.6795	-0.291	0.4365	0	470	242	3
2026-02-12	16:07:10.130	-65.03	97.685	-11.795	-0.406748	0.74542	-0.638548	0.6885	-0.291	0.4335	0	470	242	3
2026-02-12	16:07:10.150	-28.245	75.67	-30.275	-0.526552	0.537288	-0.369904	0.6855	-0.2985	0.435	0	470	242	3
2026-02-12	16:07:10.170	-35.07	62.685	-37.695	-0.619028	0.436028	-0.397964	0.69	-0.3015	0.426	0	470	242	3
2026-02-12	16:07:10.190	-51.45	50.435	-35.42	-0.58926	0.480924	-0.438468	0.699	-0.3	0.4275	0	470	242	3
2026-02-12	16:07:10.210	-58.59	56.035	-31.29	-0.5429	0.606828	-0.526308	0.7005	-0.297	0.4365	0	447	305	3
2026-02-12	16:07:10.230	-43.26	63.98	-33.215	-0.630252	0.6527	-0.6161	0.7035	-0.2925	0.429	0	447	305	3
2026-02-12	16:07:10.250	-27.72	54.11	-41.685	-0.689056	0.685152	-0.661972	0.705	-0.291	0.432	0	447	305	3
2026-02-12	16:07:10.270	-5.565	39.9	-49.35	-0.700524	0.476532	-0.51484	0.708	-0.2925	0.438	0	447	305	3
2026-02-12	16:07:10.290	-21.315	39.865	-44.8	-0.728096	0.550708	-0.577792	0.7185	-0.2865	0.4365	0	447	305	3
2026-02-12	16:07:10.310	-18.235	44.345	-36.4	-0.70516	0.559492	-0.656604	0.726	-0.2805	0.4455	0	447	305	3
2026-02-12	16:07:10.330	-7.875	35.735	-36.33	-0.690032	0.559248	-0.65392	0.729	-0.279	0.4485	0	447	305	3
2026-02-12	16:07:10.350	1.015	33.39	-26.775	-0.64416	0.666852	-0.680516	0.729	-0.276	0.444	0	447	305	3
2026-02-12	16:07:10.370	21.875	35.07	-17.78	-0.683688	0.665632	-0.786168	0.7305	-0.2775	0.4455	0	447	305	3
2026-02-12	16:07:10.390	31.5	23.45	-21.875	-0.763964	0.488976	-0.661484	0.7365	-0.2775	0.45	0	447	305	3
2026-02-12	16:07:10.410	25.025	22.19	-5.775	-0.771772	0.614392	-0.670756	0.7425	-0.2715	0.453	0	423	365	3
2026-02-12	16:07:10.430	25.095	10.815	-3.395	-0.841312	0.66002	-0.67222	0.7515	-0.267	0.453	0	423	365	3
2026-02-12	16:07:10.450	16.94	-5.25	-12.915	-0.834236	0.575596	-0.592432	0.753	-0.2715	0.462	0	423	365	3
2026-02-12	16:07:10.470	6.65	-4.095	-8.645	-0.731756	0.5673	-0.710528	0.75	-0.2685	0.4665	0	423	365	3
2026-02-12	16:07:10.490	8.715	-9.205	-7.455	-0.646356	0.594628	-0.661484	0.7485	-0.2625	0.474	0	423	365	3
2026-02-12	16:07:10.510	9.87	-9.485	0.35	-0.495076	0.567544	-0.740296	0.744	-0.2625	0.4755	0	423	365	3
2026-02-12	16:07:10.530	28.28	-17.85	14.525	-0.461648	0.62098	-0.711992	0.7485	-0.2595	0.465	0	423	365	3
2026-02-12	16:07:10.550	49.315	-29.54	18.935	-0.478484	0.536312	-0.635864	0.753	-0.261	0.459	0	423	365	3
2026-02-12	16:07:10.570	52.605	-36.295	29.68	-0.455548	0.552904	-0.575352	0.7545	-0.2655	0.468	0	423	365	3
2026-02-12	16:07:10.590	51.345	-37.695	38.85	-0.455792	0.605852	-0.59414	0.753	-0.2595	0.4755	0	423	365	3
2026-02-12	16:07:10.610	51.87	-35.84	43.68	-0.486292	0.671	-0.581208	0.75	-0.2565	0.48	0	398	430	3
2026-02-12	16:07:10.630	52.85	-29.26	47.11	-0.465796	0.695888	-0.581696	0.7485	-0.264	0.48	0	398	430	3
2026-02-12	16:07:10.650	53.445	-27.265	43.33	-0.534116	0.667584	-0.531188	0.7485	-0.2655	0.474	0	398	430	3
2026-02-12	16:07:10.670	49.665	-27.335	41.405	-0.541436	0.610244	-0.48434	0.7485	-0.2655	0.474	0	398	430	3
2026-02-12	16:07:10.690	45.325	-26.81	43.645	-0.515572	0.538264	-0.462868	0.7485	-0.2655	0.474	0	398	430	3
2026-02-12	16:07:10.710	35.28	-26.565	49.7	-0.493124	0.523868	-0.485804	0.72	-0.282	0.498	0	398	430	3
2026-02-12	16:07:10.730	28.77	-29.75	52.57	-0.476776	0.554856	-0.397476	0.726	-0.282	0.507	0	398	430	3
2026-02-12	16:07:10.750	25.62	-27.23	50.785	-0.437004	0.581452	-0.519964	0.7065	-0.2775	0.504	0	398	430	3
2026-02-12	16:07:10.770	30.24	-35.525	41.65	-0.482876	0.55022	-0.45506	0.7155	-0.2805	0.4905	0	398	430	3
2026-02-12	16:07:10.790	18.305	-37.485	36.575	-0.507032	0.610488	-0.451888	0.705	-0.294	0.5055	0	398	430	3
2026-02-12	16:07:10.810	7.98	-32.13	32.69	-0.491172	0.672952	-0.515084	0.696	-0.288	0.504	0	372	479	3
2026-02-12	16:07:10.830	9.065	-31.535	24.43	-0.542412	0.647088	-0.534116	0.696	-0.2775	0.4935	0	372	479	3
2026-02-12	16:07:10.850	10.85	-26.18	23.31	-0.543144	0.669292	-0.515572	0.699	-0.297	0.501	0	372	479	3
2026-02-12	16:07:10.870	12.11	-13.58	31.57	-0.555832	0.796904	-0.555588	0.6855	-0.3015	0.504	0	372	479	3
2026-02-12	16:07:10.890	14.49	-15.19	26.495	-0.707112	0.882548	-0.58316	0.696	-0.3	0.489	0	372	479	3
2026-02-12	16:07:10.910	4.165	-33.845	7.56	-0.800808	0.853024	-0.513376	0.69	-0.303	0.4995	0	372	479	3
2026-02-12	16:07:10.930	-12.32	-34.755	-7.035	-0.753472	0.87474	-0.54656	0.6885	-0.312	0.489	0	372	479	3
2026-02-12	16:07:10.950	-13.615	-25.585	-20.23	-0.7564	0.872544	-0.589992	0.6975	-0.2955	0.48	0	372	479	3
2026-02-12	16:07:10.970	-11.55	-25.83	-32.305	-0.786168	0.80032	-0.58316	0.693	-0.3015	0.4935	0	372	479	3
2026-02-12	16:07:10.990	-14.14	-29.47	-31.85	-0.73688	0.762744	-0.599508	0.693	-0.3015	0.4935	0	372	479	3
2026-02-12	16:07:11.010	-6.44	-32.13	-25.62	-0.694912	0.778848	-0.577304	0.6975	-0.3015	0.4815	0	347	504	3
2026-02-12	16:07:11.030	3.815	-32.2	-24.605	-0.66856	0.772016	-0.48556	0.702	-0.3015	0.4695	0	347	504	3
2026-02-12	16:07:11.050	13.93	-29.225	-23.94	-0.682224	0.73444	-0.524844	0.702	-0.3	0.471	0	347	504	3
2026-02-12	16:07:11.070	18.69	-36.12	-24.57	-0.699304	0.732488	-0.488732	0.7125	-0.294	0.4665	0	347	504	3
2026-02-12	16:07:11.090	12.18	-41.23	-30.8	-0.701988	0.721264	-0.380152	0.729	-0.291	0.4575	0	347	504	3
2026-02-12	16:07:11.110	9.94	-30.17	-30.8	-0.643428	0.736636	-0.410896	0.7335	-0.288	0.453	0	347	504	3
2026-02-12	16:07:11.130	13.965	-24.57	-34.055	-0.599752	0.673928	-0.342576	0.735	-0.2805	0.4485	0	347	504	3
2026-02-12	16:07:11.150	7.315	-17.185	-28.91	-0.602924	0.638792	-0.338916	0.7485	-0.279	0.4455	0	347	504	3
2026-02-12	16:07:11.170	3.71	-9.31	-19.985	-0.569008	0.67466	-0.324764	0.753	-0.282	0.45	0	347	504	3
2026-02-12	16:07:11.190	4.13	2.87	-16.415	-0.550708	0.621224	-0.249368	0.756	-0.2775	0.444	0	347	504	3
2026-02-12	16:07:11.210	-0.7	20.195	-7.105	-0.560956	0.617808	-0.273524	0.759	-0.267	0.4455	0	322	508	3
2026-02-12	16:07:11.230	-2.8	26.95	-3.325	-0.544852	0.579256	-0.235948	0.756	-0.267	0.4575	0	322	508	3
2026-02-12	16:07:11.250	-4.165	37.17	0.42	-0.55998	0.51362	-0.350872	0.756	-0.273	0.462	0	322	508	3
2026-02-12	16:07:11.270	-6.02	30.87	6.37	-0.588772	0.543388	-0.323788	0.7545	-0.2745	0.462	0	322	508	3
2026-02-12	16:07:11.290	-3.885	25.62	14.945	-0.60756	0.549488	-0.354044	0.753	-0.276	0.4635	0	322	508	3
2026-02-12	16:07:11.310	1.75	17.78	22.785	-0.671976	0.522404	-0.304024	0.7515	-0.2715	0.459	0	322	508	3
2026-02-12	16:07:11.330	-0.035	14.175	26.46	-0.705648	0.491416	-0.31964	0.7515	-0.273	0.462	0	322	508	3
2026-02-12	16:07:11.350	-1.575	13.545	26.67	-0.611952	0.411872	-0.360632	0.7455	-0.279	0.471	0	322	508	3
2026-02-12	16:07:11.370	1.925	17.29	30.94	-0.533872	0.49288	-0.409432	0.738	-0.2775	0.4635	0	322	508	3
2026-02-12	16:07:11.390	5.25	13.79	20.335	-0.531676	0.39406	-0.42456	0.7365	-0.279	0.468	0	322	508	3
2026-02-12	16:07:11.410	9.38	9.415	30.45	-0.517768	0.489952	-0.430172	0.7335	-0.279	0.4755	0	301	487	3
2026-02-12	16:07:11.430	17.64	9.415	33.6	-0.587308	0.509716	-0.411628	0.7275	-0.282	0.468	0	301	487	3
2026-02-12	16:07:11.450	17.29	12.95	33.495	-0.629032	0.57462	-0.38552	0.72	-0.291	0.474	0	301	487	3
2026-02-12	16:07:11.470	13.51	15.085	29.995	-0.687348	0.602192	-0.437492	0.7125	-0.2955	0.483	0	301	487	3
2026-02-12	16:07:11.490	5.565	16.065	11.515	-0.722972	0.506544	-0.448716	0.708	-0.297	0.4815	0	301	487	3
2026-02-12	16:07:11.510	-0.455	9.52	12.915	-0.767624	0.529968	-0.466284	0.7095	-0.3	0.4815	0	301	487	3
2026-02-12	16:07:11.530	-3.535	5.81	18.585	-0.675392	0.517524	-0.461648	0.717	-0.2985	0.4845	0	301	487	3
2026-02-12	16:07:11.550	-0.49	13.895	33.53	-0.61244	0.636596	-0.676612	0.7125	-0.297	0.4905	0	301	487	3
2026-02-12	16:07:11.570	9.73	-2.415	27.09	-0.661972	0.694668	-0.612684	0.7035	-0.3015	0.492	0	301	487	3
2026-02-12	16:07:11.590	10.71	-22.47	16.66	-0.757132	0.727364	-0.539972	0.693	-0.3045	0.492	0	301	487	3
2026-02-12	16:07:11.610	4.865	-29.995	6.475	-0.7625	0.676856	-0.479948	0.6915	-0.303	0.477	0	282	467	3
2026-02-12	16:07:11.630	0.875	-19.6	6.86	-0.678564	0.693692	-0.51972	0.7035	-0.3015	0.4635	0	282	467	3
2026-02-12	16:07:11.650	14.56	-11.41	7.56	-0.659532	0.654652	-0.602192	0.7035	-0.297	0.4695	0	282	467	3
2026-02-12	16:07:11.670	23.765	-23.695	5.39	-0.703208	0.63074	-0.518988	0.69	-0.2985	0.4725	0	282	467	3
2026-02-12	16:07:11.690	15.295	-29.54	8.715	-0.708576	0.654164	-0.548512	0.6975	-0.297	0.465	0	282	467	3
2026-02-12	16:07:11.710	10.605	-26.705	15.33	-0.640256	0.787388	-0.616588	0.6975	-0.297	0.4635	0	282	467	3
2026-02-12	16:07:11.730	15.61	-17.745	8.855	-0.681736	0.783728	-0.59292	0.678	-0.309	0.477	0	282	467	3
2026-02-12	16:07:11.750	16.94	-8.155	8.61	-0.628056	0.785924	-0.621224	0.687	-0.3105	0.4815	0	282	467	3
2026-02-12	16:07:11.770	15.995	-9.45	9.975	-0.581696	0.72834	-0.6222	0.69	-0.309	0.483	0	282	467	3
2026-02-12	16:07:11.790	12.215	-19.67	11.97	-0.5551	0.69174	-0.538996	0.6825	-0.3045	0.486	0	282	467	3
2026-02-12	16:07:11.810	9.485	-24.465	17.99	-0.457012	0.63928	-0.569008	0.681	-0.2985	0.4875	0	265	470	3
2026-02-12	16:07:11.830	15.96	-29.365	22.68	-0.415776	0.47946	-0.52338	0.6795	-0.3015	0.4905	0	265	470	3
2026-02-12	16:07:11.850	20.93	-26.04	39.83	-0.352824	0.602192	-0.545096	0.6765	-0.3045	0.492	0	265	470	3
2026-02-12	16:07:11.870	39.935	-27.72	47.11	-0.400648	0.576328	-0.518744	0.666	-0.309	0.4935	0	265	470	3
2026-02-12	16:07:11.890	42.175	-32.935	52.605	-0.500688	0.664168	-0.41358	0.654	-0.3105	0.5025	0	265	470	3
2026-02-12	16:07:11.910	30.31	-27.51	56.595	-0.498492	0.781044	-0.415776	0.651	-0.3075	0.507	0	265	470	3
2026-02-12	16:07:11.930	26.11	-19.04	56.91	-0.46116	0.844972	-0.443592	0.651	-0.3075	0.507	0	265	470	3
2026-02-12	16:07:11.950	25.655	-20.44	44.205	-0.543876	0.810568	-0.378932	0.651	-0.3075	0.507	0	265	470	3
2026-02-12	16:07:11.970	6.545	-26.88	32.55	-0.525332	0.77226	-0.375272	0.627	-0.3105	0.5025	0	265	470	3
2026-02-12	16:07:11.990	-2.835	-30.03	36.33	-0.484828	0.805444	-0.51118	0.6255	-0.315	0.51	0	265	470	3
2026-02-12	16:07:12.010	-2.905	-40.285	25.235	-0.561688	0.661728	-0.41236	0.6225	-0.3165	0.504	0	251	483	3
2026-02-12	16:07:12.030	-12.215	-43.4	20.685	-0.551684	0.606096	-0.352092	0.6255	-0.3195	0.486	0	251	483	3
2026-02-12	16:07:12.050	-18.725	-33.495	28.42	-0.45262	0.735416	-0.491904	0.6135	-0.318	0.492	0	251	483	3
2026-02-12	16:07:12.070	-4.025	-27.125	33.39	-0.444568	0.781044	-0.55144	0.6105	-0.324	0.4905	0	251	483	3
2026-02-12	16:07:12.090	9.345	-24.43	36.155	-0.51972	0.818376	-0.585112	0.609	-0.33	0.4905	0	251	483	3
2026-02-12	16:07:12.110	21.91	-31.465	30.555	-0.671732	0.80154	-0.427488	0.6	-0.333	0.495	0	251	483	3
2026-02-12	16:07:12.130	14.77	-36.68	19.11	-0.635376	0.786412	-0.359656	0.5985	-0.333	0.4875	0	251	483	3
2026-02-12	16:07:12.150	3.325	-34.44	16.415	-0.598288	0.865468	-0.434564	0.606	-0.327	0.474	0	251	483	3
2026-02-12	16:07:12.170	3.885	-35.28	3.99	-0.655628	0.839116	-0.406992	0.603	-0.3285	0.477	0	251	483	3
2026-02-12	16:07:12.190	-1.925	-29.155	-4.725	-0.616588	0.896456	-0.40138	0.6105	-0.3225	0.453	0	251	483	3
2026-02-12	16:07:12.210	-6.615	-19.915	-14.28	-0.60268	0.917684	-0.405284	0.612	-0.321	0.45	0	239	487	3
2026-02-12	16:07:12.230	-8.19	-15.82	-20.825	-0.621468	0.90768	-0.391864	0.603	-0.3315	0.477	0	239	487	3
2026-02-12	16:07:12.250	-10.08	-10.815	-24.185	-0.620492	0.874496	-0.435784	0.606	-0.336	0.4815	0	239	487	3
2026-02-12	16:07:12.270	-10.815	-13.265	-24.78	-0.622688	0.861564	-0.346236	0.609	-0.3375	0.483	0	239	487	3
2026-02-12	16:07:12.290	-13.335	-8.015	-22.54	-0.592676	0.897676	-0.3843	0.6195	-0.3315	0.4695	0	239	487	3
2026-02-12	16:07:12.310	-7.595	-5.075	-26.355	-0.62342	0.868884	-0.39894	0.627	-0.33	0.468	0	239	487	3
2026-02-12	16:07:12.330	-4.865	-3.045	-27.965	-0.645868	0.881572	-0.415044	0.627	-0.3315	0.4695	0	239	487	3
2026-02-12	16:07:12.350	-5.95	-3.955	-27.79	-0.640744	0.882548	-0.365268	0.6315	-0.33	0.471	0	239	487	3
2026-02-12	16:07:12.370	-11.515	-1.225	-28.525	-0.611952	0.798368	-0.390888	0.633	-0.327	0.471	0	239	487	3
2026-02-12	16:07:12.390	-12.81	0.175	-22.855	-0.57218	0.790316	-0.359412	0.6375	-0.3255	0.4515	0	239	487	3
2026-02-12	16:07:12.410	-10.605	6.3	-17.605	-0.561932	0.763476	-0.395036	0.642	-0.327	0.447	0	228	477	3
2026-02-12	16:07:12.430	-3.885	8.855	-11.9	-0.537288	0.718336	-0.361852	0.642	-0.33	0.456	0	228	477	3
2026-02-12	16:07:12.450	-0.455	9.695	-6.825	-0.553636	0.709552	-0.299388	0.642	-0.324	0.456	0	228	477	3
2026-02-12	16:07:12.470	-2.03	10.745	-3.115	-0.544608	0.718092	-0.280112	0.642	-0.321	0.456	0	228	477	3
2026-02-12	16:07:12.490	-4.97	15.75	-0.665	-0.501176	0.723704	-0.269864	0.6405	-0.3225	0.462	0	228	477	3
2026-02-12	16:07:12.510	-2.625	24.395	4.095	-0.492148	0.720532	-0.371124	0.6495	-0.318	0.447	0	228	477	3
2026-02-12	16:07:12.530	3.675	18.165	4.025	-0.545584	0.638548	-0.338184	0.663	-0.318	0.432	0	228	477	3
2026-02-12	16:07:12.550	-3.465	7.385	3.99	-0.560956	0.681736	-0.25254	0.657	-0.318	0.4455	0	228	477	3
2026-02-12	16:07:12.570	-11.515	2.03	-0.525	-0.549488	0.648064	-0.317444	0.6465	-0.318	0.4545	0	228	477	3
2026-02-12	16:07:12.590	-6.125	-0.21	-0.98	-0.498492	0.595848	-0.326228	0.645	-0.3225	0.45	0	228	477	3
2026-02-12	16:07:12.610	6.335	7.35	4.305	-0.504592	0.515084	-0.32696	0.6495	-0.3255	0.4455	0	218	454	3
2026-02-12	16:07:12.630	15.68	12.11	11.025	-0.538508	0.53558	-0.245464	0.645	-0.3255	0.4485	0	218	454	3
2026-02-12	16:07:12.650	14.455	17.5	16.765	-0.506788	0.61854	-0.323788	0.6375	-0.33	0.453	0	218	454	3
2026-02-12	16:07:12.670	17.745	11.305	8.68	-0.553636	0.628056	-0.354776	0.6375	-0.339	0.4485	0	218	454	3
2026-02-12	16:07:12.690	20.335	8.715	-3.885	-0.599508	0.571936	-0.368196	0.639	-0.3375	0.444	0	218	454	3
2026-02-12	16:07:12.710	19.25	15.015	-8.96	-0.61	0.561444	-0.280844	0.6405	-0.3345	0.4455	0	218	454	3
2026-02-12	16:07:12.730	12.215	28.035	-13.055	-0.605608	0.608292	-0.349164	0.645	-0.33	0.444	0	218	454	3
2026-02-12	16:07:12.750	10.22	27.195	-18.165	-0.632448	0.628788	-0.382104	0.642	-0.33	0.453	0	218	454	3
2026-02-12	16:07:12.770	11.375	23.485	-18.725	-0.63928	0.569984	-0.490928	0.6405	-0.3345	0.4545	0	218	454	3
2026-02-12	16:07:12.790	17.325	17.36	-8.05	-0.683932	0.631472	-0.515572	0.6405	-0.3315	0.4605	0	218	454	3
2026-02-12	16:07:12.810	26.635	13.86	1.19	-0.680516	0.717116	-0.50752	0.6375	-0.3285	0.477	0	208	429	3
2026-02-12	16:07:12.830	43.26	8.785	5.39	-0.741028	0.707844	-0.44896	0.6405	-0.3315	0.4815	0	208	429	3
2026-02-12	16:07:12.850	49.63	6.825	10.22	-0.794708	0.718824	-0.427	0.6375	-0.33	0.492	0	208	429	3
2026-02-12	16:07:12.870	48.79	6.51	12.95	-0.805444	0.815204	-0.432612	0.6315	-0.3285	0.5055	0	208	429	3
2026-02-12	16:07:12.890	48.685	3.85	4.9	-0.84058	0.7869	-0.389668	0.633	-0.3315	0.51	0	208	429	3
2026-02-12	16:07:12.910	36.33	8.05	-1.295	-0.77226	0.772504	-0.382836	0.63	-0.33	0.5175	0	208	429	3
2026-02-12	16:07:12.930	12.705	14.595	-6.405	-0.727608	0.759816	-0.520208	0.6345	-0.3225	0.5265	0	208	429	3
2026-02-12	16:07:12.950	-5.495	11.34	-5.39	-0.546072	0.76616	-0.535824	0.636	-0.321	0.5265	0	208	429	3
2026-02-12	16:07:12.970	-7.91	23.94	10.465	-0.392108	0.828868	-0.670024	0.63	-0.321	0.5295	0	208	429	3
2026-02-12	16:07:12.990	5.81	21.245	18.9	-0.465552	0.762988	-0.63806	0.624	-0.3195	0.531	0	208	429	3
2026-02-12	16:07:13.010	3.255	3.395	21.805	-0.600972	0.76616	-0.45384	0.621	-0.3255	0.534	0	200	421	3
2026-02-12	16:07:13.030	-24.535	-11.235	11.725	-0.615856	0.715652	-0.475556	0.621	-0.33	0.5325	0	200	421	3
2026-02-12	16:07:13.050	-49	-14.385	4.41	-0.425048	0.692716	-0.602436	0.6195	-0.3285	0.522	0	200	421	3
2026-02-12	16:07:13.070	-35.56	-7.105	7.07	-0.364048	0.680516	-0.800564	0.621	-0.327	0.5205	0	200	421	3
2026-02-12	16:07:13.090	-8.61	-18.515	3.045	-0.428464	0.54534	-0.60878	0.618	-0.3285	0.519	0	200	421	3
2026-02-12	16:07:13.110	-4.375	-15.015	16.8	-0.428464	0.604876	-0.55876	0.612	-0.3285	0.5145	0	200	421	3
2026-02-12	16:07:13.130	-8.365	-10.78	25.445	-0.404308	0.660752	-0.592188	0.612	-0.3285	0.5145	0	200	421	3
2026-02-12	16:07:13.150	-13.16	-8.54	31.955	-0.426268	0.713944	-0.566568	0.6135	-0.3315	0.5025	0	200	421	3
2026-02-12	16:07:13.170	-14.525	-5.6	36.75	-0.468236	0.8113	-0.534848	0.6135	-0.3315	0.5025	0	200	421	3
2026-02-12	16:07:13.190	-7.49	2.485	34.3	-0.50386	0.791048	-0.531676	0.6	-0.342	0.5055	0	200	421	3
2026-02-12	16:07:13.210	-4.55	5.04	28.14	-0.506788	0.71004	-0.532164	0.6075	-0.3315	0.492	0	195	440	3
2026-02-12	16:07:13.230	-6.685	2.52	27.09	-0.479704	0.605608	-0.53192	0.6075	-0.3315	0.492	0	195	440	3
2026-02-12	16:07:13.250	-7.735	-2.345	28.63	-0.468236	0.619516	-0.464576	0.6075	-0.3315	0.492	0	195	440	3
2026-02-12	16:07:13.270	-7.07	-4.76	29.435	-0.46238	0.684664	-0.501664	0.591	-0.339	0.4965	0	195	440	3
2026-02-12	16:07:13.290	3.535	-13.965	24.605	-0.451888	0.61366	-0.510204	0.573	-0.348	0.4965	0	195	440	3
2026-02-12	16:07:13.310	5.845	-23.065	23.905	-0.496296	0.641232	-0.47702	0.57	-0.345	0.492	0	195	440	3
2026-02-12	16:07:13.330	3.675	-25.62	23.59	-0.502396	0.650748	-0.475068	0.5685	-0.3465	0.4965	0	195	440	3
2026-02-12	16:07:13.350	8.855	-22.4	25.725	-0.468236	0.72224	-0.504104	0.567	-0.342	0.4935	0	195	440	3
2026-02-12	16:07:13.370	13.16	-20.3	14.595	-0.560712	0.670756	-0.461892	0.567	-0.3375	0.489	0	195	440	3
2026-02-12	16:07:13.390	7.07	-18.62	5.985	-0.632692	0.732732	-0.384056	0.567	-0.339	0.486	0	195	440	3
2026-02-12	16:07:13.410	-1.365	-10.115	4.06	-0.532164	0.878644	-0.506788	0.5655	-0.3345	0.4785	0	191	466	3
2026-02-12	16:07:13.430	9.45	-3.675	-6.545	-0.561932	0.813496	-0.578036	0.567	-0.3375	0.4815	0	191	466	3
2026-02-12	16:07:13.450	16.905	-3.745	-14.735	-0.654652	0.828136	-0.46116	0.57	-0.345	0.4875	0	191	466	3
2026-02-12	16:07:13.470	8.05	-2.45	-19.285	-0.68564	0.8662	-0.409432	0.576	-0.3435	0.4785	0	191	466	3
2026-02-12	16:07:13.490	-9.065	-2.31	-29.995	-0.639524	0.949648	-0.391132	0.5805	-0.342	0.465	0	191	466	3
2026-02-12	16:07:13.510	-21.21	4.235	-41.02	-0.521428	1.020408	-0.56242	0.579	-0.342	0.474	0	191	466	3
2026-02-12	16:07:13.530	-18.725	0.945	-53.585	-0.610244	0.928176	-0.550708	0.585	-0.3405	0.48	0	191	466	3
2026-02-12	16:07:13.550	-16.59	4.2	-45.955	-0.55754	0.91256	-0.505812	0.591	-0.333	0.474	0	191	466	3
2026-02-12	16:07:13.570	-14.735	14.42	-35.42	-0.57096	0.956968	-0.442372	0.603	-0.3315	0.4695	0	191	466	3
2026-02-12	16:07:13.590	-14.21	18.97	-35.665	-0.599264	0.843264	-0.407236	0.615	-0.333	0.4605	0	191	466	3
2026-02-12	16:07:13.610	-24.255	24.29	-28.455	-0.591212	0.834968	-0.46116	0.618	-0.3285	0.4485	0	186	481	3
2026-02-12	16:07:13.630	-18.515	26.32	-25.655	-0.55876	0.810324	-0.451156	0.6195	-0.33	0.447	0	186	481	3
2026-02-12	16:07:13.650	-24.535	24.36	-26.04	-0.512156	0.768112	-0.403332	0.6285	-0.3255	0.4485	0	186	481	3
2026-02-12	16:07:13.670	-30.905	23.765	-28.175	-0.475068	0.69418	-0.379908	0.636	-0.3255	0.4335	0	186	481	3
2026-02-12	16:07:13.690	-30.905	31.115	-19.565	-0.361364	0.64538	-0.383324	0.642	-0.327	0.417	0	186	481	3
2026-02-12	16:07:13.710	-18.83	46.13	-5.705	-0.32818	0.732732	-0.364292	0.6465	-0.3195	0.417	0	186	481	3
2026-02-12	16:07:13.730	-8.155	56.595	-4.76	-0.387716	0.869372	-0.361852	0.6435	-0.3195	0.4215	0	186	481	3
2026-02-12	16:07:13.750	-1.12	50.155	-22.155	-0.50142	0.656604	-0.290848	0.636	-0.3255	0.432	0	186	481	3
2026-02-12	16:07:13.770	-18.095	42.665	-28.805	-0.509472	0.673684	-0.261812	0.633	-0.33	0.4335	0	186	481	3
2026-02-12	16:07:13.790	-32.235	52.325	-25.34	-0.41114	0.641476	-0.382104	0.6375	-0.3285	0.4245	0	186	481	3
2026-02-12	16:07:13.810	-24.43	58.415	-13.44	-0.287188	0.628544	-0.524844	0.633	-0.324	0.4275	0	183	480	3
2026-02-12	16:07:13.830	4.305	51.38	-7.595	-0.277916	0.616344	-0.5978	0.636	-0.3165	0.429	0	183	480	3
2026-02-12	16:07:13.850	40.04	31.15	-7.105	-0.358924	0.501176	-0.474092	0.639	-0.315	0.4335	0	183	480	3
2026-02-12	16:07:13.870	48.965	25.095	0.105	-0.494344	0.487268	-0.365512	0.6345	-0.3225	0.438	0	183	480	3
2026-02-12	16:07:13.890	33.985	22.715	1.225	-0.594628	0.480192	-0.34404	0.639	-0.3255	0.4335	0	183	480	3
2026-02-12	16:07:13.910	36.155	27.125	8.4	-0.573644	0.537044	-0.316712	0.6405	-0.3225	0.4365	0	183	480	3
2026-02-12	16:07:13.930	58.59	37.52	2.66	-0.679296	0.547292	-0.471408	0.6405	-0.3195	0.432	0	183	480	3
2026-02-12	16:07:13.950	32.48	42.315	-5.11	-0.593408	0.537776	-0.443836	0.6465	-0.3195	0.4335	0	183	480	3
2026-02-12	16:07:13.970	23.59	57.155	5.04	-0.4575	0.673928	-0.870104	0.6435	-0.321	0.4485	0	183	480	3
2026-02-12	16:07:13.990	15.435	38.045	-10.71	-0.560712	0.581208	-0.937936	0.636	-0.3225	0.4605	0	183	480	3
2026-02-12	16:07:14.010	36.995	14.105	-11.095	-0.693936	0.600728	-0.742248	0.633	-0.3225	0.4635	0	182	476	3
2026-02-12	16:07:14.030	41.545	14.7	-11.62	-0.73444	0.641232	-0.700768	0.6345	-0.321	0.4665	0	182	476	3
2026-02-12	16:07:14.050	29.4	18.62	-24.255	-0.7076	0.655628	-0.67344	0.636	-0.3195	0.474	0	182	476	3
2026-02-12	16:07:14.070	17.92	21.945	-36.05	-0.578036	0.599996	-0.831064	0.636	-0.318	0.468	0	182	476	3
2026-02-12	16:07:14.090	20.055	16.59	-36.575	-0.539484	0.525332	-0.846436	0.645	-0.3075	0.4665	0	182	476	3
2026-02-12	16:07:14.110	15.89	15.225	-24.955	-0.570228	0.659288	-0.864492	0.651	-0.306	0.486	0	182	476	3
2026-02-12	16:07:14.130	23.065	13.3	-22.295	-0.589016	0.646356	-0.84302	0.6405	-0.3105	0.501	0	182	476	3
2026-02-12	16:07:14.150	31.115	17.36	-15.715	-0.51118	0.626592	-0.85644	0.6465	-0.309	0.5055	0	182	476	3
2026-02-12	16:07:14.170	32.76	23.94	0.245	-0.454816	0.621956	-0.955992	0.651	-0.309	0.4995	0	182	476	3
2026-02-12	16:07:14.190	41.895	4.025	6.86	-0.422852	0.620736	-0.837896	0.6495	-0.309	0.492	0	182	476	3
2026-02-12	16:07:14.210	68.46	-5.11	17.64	-0.350628	0.644648	-0.866932	0.6495	-0.309	0.492	0	185	507	3
2026-02-12	16:07:14.230	77.21	-6.335	18.445	-0.301584	0.574864	-0.751764	0.642	-0.3045	0.5175	0	185	507	3
2026-02-12	16:07:14.250	83.405	-7.42	8.015	-0.4026	0.47458	-0.650992	0.642	-0.3045	0.5175	0	185	507	3
2026-02-12	16:07:14.270	70.14	-0.7	2.205	-0.41846	0.439688	-0.580232	0.6345	-0.2985	0.522	0	185	507	3
2026-02-12	16:07:14.290	75.215	4.06	27.335	-0.481412	0.394548	-0.753472	0.6435	-0.3075	0.531	0	185	507	3
2026-02-12	16:07:14.310	82.075	-21.77	43.12	-0.345016	0.3599	-0.701256	0.642	-0.2895	0.546	0	185	507	3
2026-02-12	16:07:14.330	63.945	-21.455	59.01	-0.253028	0.387716	-0.87596	0.633	-0.2925	0.5565	0	185	507	3
2026-02-12	16:07:14.350	35.91	-13.3	60.165	-0.188124	0.325984	-0.843752	0.621	-0.279	0.57	0	185	507	3
2026-02-12	16:07:14.370	15.785	-5.6	72.31	-0.312076	0.31354	-0.820328	0.606	-0.2925	0.573	0	185	507	3
2026-02-12	16:07:14.390	28.56	-16.24	83.86	-0.140544	0.452376	-0.744444	0.6075	-0.288	0.573	0	185	507	3
2026-02-12	16:07:14.410	45.92	-10.465	78.575	-0.306952	0.300364	-0.740296	0.588	-0.2865	0.5895	0	192	566	3
2026-02-12	16:07:14.430	44.94	8.26	88.27	-0.28914	0.361608	-0.6832	0.5865	-0.2865	0.5925	0	192	566	3
2026-02-12	16:07:14.450	-19.915	35.98	76.09	-0.362584	0.327692	-0.550952	0.582	-0.2805	0.5775	0	192	566	3
2026-02-12	16:07:14.470	-74.83	48.125	74.935	-0.315004	0.24278	-0.76494	0.5655	-0.2835	0.603	0	192	566	3
2026-02-12	16:07:14.490	-64.47	29.68	98.665	-0.21838	1.094096	-0.838384	0.57	-0.291	0.5775	0	192	566	3
2026-02-12	16:07:14.510	-43.365	24.045	46.97	-0.368928	0.945256	-0.837164	0.57	-0.291	0.5775	0	192	566	3
2026-02-12	16:07:14.530	-19.32	23.765	4.585	-0.29158	0.393084	-0.676368	0.57	-0.291	0.5775	0	192	566	3
2026-02-12	16:07:14.550	-14.035	26.075	24.815	-0.397476	0.545096	-0.716384	0.5475	-0.291	0.5835	0	192	566	3
2026-02-12	16:07:14.570	-23.24	20.475	16.52	-0.584868	0.698572	-0.632204	0.525	-0.2895	0.594	0	192	566	3
2026-02-12	16:07:14.590	-58.1	48.3	1.365	-0.425292	0.641232	-0.591212	0.5175	-0.2895	0.594	0	192	566	3
2026-02-12	16:07:14.610	-78.155	101.92	2.065	-0.258152	0.836432	-0.736392	0.5025	-0.294	0.5955	0	203	623	1
2026-02-12	16:07:14.630	-100.03	110.915	-8.085	-0.25498	0.635376	-0.846192	0.489	-0.303	0.6045	0	203	623	1
2026-02-12	16:07:14.650	-213.57	104.895	5.425	-0.15982	0.847656	-0.946964	0.483	-0.3105	0.594	0	203	623	1
2026-02-12	16:07:14.670	-270.62	92.225	-13.65	-0.067832	1.337364	-0.59902	0.474	-0.3195	0.5625	0	203	623	1
2026-02-12	16:07:14.690	-238.525	106.855	-50.96	0.054168	0.898896	-0.864248	0.4755	-0.336	0.5325	0	203	623	1
2026-02-12	16:07:14.710	-107.905	64.47	-17.885	-0.105896	0.45506	-0.98454	0.4665	-0.354	0.525	0	203	623	1
2026-02-12	16:07:14.730	-75.355	8.225	64.89	-0.030012	1.121424	-0.727852	0.4455	-0.3645	0.5205	0	203	623	1
2026-02-12	16:07:14.750	-70.455	-3.465	32.445	-0.114924	1.44448	-0.286944	0.4425	-0.3705	0.5085	0	203	623	1
2026-02-12	16:07:14.770	-85.75	57.05	-13.79	-0.067588	0.974536	-0.449448	0.4425	-0.375	0.4965	0	203	623	1
2026-02-12	16:07:14.790	-52.08	86.555	19.985	-0.060268	0.66856	-0.761036	0.4425	-0.3765	0.483	0	203	623	1
2026-02-12	16:07:14.810	-21.455	44.065	80.08	-0.018544	0.792268	-0.743712	0.4395	-0.3795	0.48	0	218	658	1
2026-02-12	16:07:14.830	-47.11	-13.475	104.44	-0.046116	1.204628	-0.070028	0.435	-0.384	0.483	0	218	658	1
2026-02-12	16:07:14.850	-69.405	9.835	66.78	-0.022204	1.113372	0.10858	0.426	-0.39	0.4755	0	218	658	1
2026-02-12	16:07:14.870	-102.62	63.805	15.26	0.396012	0.398696	-0.354776	0.4155	-0.3915	0.462	0	218	658	1
2026-02-12	16:07:14.890	-162.155	83.09	24.64	0.027572	0.74298	0.07564	0.408	-0.393	0.4485	0	218	658	1
2026-02-12	16:07:14.910	-152.18	116.585	65.66	-0.012688	0.829356	-0.46848	0.408	-0.399	0.4215	0	218	658	1
2026-02-12	16:07:14.930	-93.8	47.635	22.505	0.179584	0.82716	0.074176	0.4065	-0.396	0.3945	0	218	658	1
2026-02-12	16:07:14.950	-52.255	50.925	27.055	0.065636	1.041392	-0.052948	0.396	-0.393	0.381	0	218	658	1
2026-02-12	16:07:14.970	-73.15	55.405	23.485	0.00732	1.031632	-0.267424	0.393	-0.3915	0.3705	0	218	658	1
2026-02-12	16:07:14.990	-87.955	37.975	19.565	-0.00732	1.068476	-0.330376	0.387	-0.381	0.351	0	218	658	1
2026-02-12	16:07:15.010	-83.475	16.205	1.82	0.043432	1.157536	-0.231556	0.378	-0.3765	0.3315	0	240	634	1
2026-02-12	16:07:15.030	-48.3	6.09	-29.47	-0.004636	1.05042	-0.232776	0.3825	-0.372	0.321	0	240	634	1
2026-02-12	16:07:15.050	-43.19	-8.925	-53.97	-0.07686	0.833016	-0.14518	0.3915	-0.3675	0.315	0	240	634	1
2026-02-12	16:07:15.070	-72.17	-18.97	-58.52	-0.051484	0.648796	-0.135664	0.3915	-0.369	0.3105	0	240	634	1
2026-02-12	16:07:15.090	-48.93	-30.625	-46.655	-0.082228	0.769332	-0.17324	0.399	-0.372	0.3	0	240	634	1
2026-02-12	16:07:15.110	-39.305	-35.91	-37.73	-0.1525	0.791536	-0.070272	0.405	-0.3705	0.2925	0	240	634	1
2026-02-12	16:07:15.130	6.405	-27.965	-29.365	-0.194712	0.877912	-0.022448	0.4035	-0.3705	0.288	0	240	634	1
2026-02-12	16:07:15.150	43.575	-10.99	-11.83	-0.21228	0.94184	-0.183488	0.411	-0.3705	0.279	0	240	634	1
2026-02-12	16:07:15.170	38.78	-22.855	4.76	-0.259128	1.048468	-0.29036	0.42	-0.3645	0.2775	0	240	634	1
2026-02-12	16:07:15.190	34.615	-60.235	0.7	-0.15738	1.08458	-0.261812	0.4155	-0.3675	0.2865	0	240	634	1
2026-02-12	16:07:15.210	46.375	-87.85	-13.965	-0.055876	0.897188	-0.029768	0.3975	-0.3795	0.3015	0	265	553	1
2026-02-12	16:07:15.230	28.385	-69.51	-10.675	0.023424	0.783972	-0.143472	0.3795	-0.39	0.3165	0	265	553	1
2026-02-12	16:07:15.250	-25.9	-40.495	-1.225	0.100284	0.809592	-0.20496	0.375	-0.396	0.324	0	265	553	1
2026-02-12	16:07:15.270	16.415	-19.74	6.51	0.096868	1.147532	-0.25254	0.375	-0.396	0.324	0	265	553	1
2026-02-12	16:07:15.290	44.905	-18.2	12.915	0.18666	1.023092	-0.331352	0.3645	-0.4035	0.315	0	265	553	1
2026-02-12	16:07:15.310	51.485	-26.845	21.245	0.112728	1.094584	-0.26474	0.3645	-0.4035	0.315	0	265	553	1
2026-02-12	16:07:15.330	51.73	-39.13	65.065	-0.312808	1.1956	0.0244	0.3765	-0.4065	0.327	0	265	553	1
2026-02-12	16:07:15.350	5.285	-39.9	39.655	-0.321836	1.353224	0.48312	0.372	-0.408	0.3375	0	265	553	1
2026-02-12	16:07:15.370	-5.81	5.285	28.315	-0.060756	1.312232	0.136884	0.3765	-0.4095	0.345	0	265	553	1
2026-02-12	16:07:15.390	-4.9	24.85	22.75	0.110776	1.23952	-0.304024	0.3555	-0.417	0.348	0	265	553	1
2026-02-12	16:07:15.410	-39.025	25.305	17.85	0.279136	1.09678	-0.460184	0.3525	-0.405	0.3345	0	287	455	3
2026-02-12	16:07:15.430	-19.04	10.92	24.78	0.190808	1.037488	-0.43676	0.348	-0.4095	0.33	0	287	455	3
2026-02-12	16:07:15.450	8.54	-10.43	35	0.087596	1.087996	-0.320616	0.3375	-0.4035	0.3375	0	287	455	3
2026-02-12	16:07:15.470	28.875	-23.135	40.005	0.096868	1.103856	-0.206424	0.3345	-0.399	0.3285	0	287	455	3
2026-02-12	16:07:15.490	22.19	-31.815	31.15	0.089792	1.164856	-0.26108	0.333	-0.393	0.342	0	287	455	3
2026-02-12	16:07:15.510	2.17	-39.165	10.85	0.15372	1.063352	-0.180804	0.3225	-0.4005	0.3465	0	287	455	3
2026-02-12	16:07:15.530	-1.925	-40.145	8.435	0.19886	1.046028	-0.199836	0.309	-0.402	0.339	0	287	455	3
2026-02-12	16:07:15.550	9.765	-44.31	11.2	0.24522	0.995764	-0.210328	0.321	-0.3945	0.3405	0	287	455	3
2026-02-12	16:07:15.570	13.37	-47.705	10.115	0.188612	0.964044	-0.113216	0.3135	-0.396	0.3465	0	287	455	3
2026-02-12	16:07:15.590	5.355	-43.12	6.405	0.186172	0.968924	-0.072712	0.3075	-0.3975	0.348	0	287	455	3
2026-02-12	16:07:15.610	-1.015	-33.705	2.555	0.199104	0.975512	-0.087352	0.3195	-0.3975	0.3615	0	305	373	2
2026-02-12	16:07:15.630	-4.445	-29.645	1.96	0.184464	0.985516	-0.12688	0.309	-0.402	0.369	0	305	373	2
2026-02-12	16:07:15.650	-7.07	-28.315	-2.695	0.106628	0.992348	-0.125904	0.303	-0.396	0.36	0	305	373	2
2026-02-12	16:07:15.670	-1.225	-25.62	-6.09	0.071004	0.925736	-0.171776	0.3075	-0.3945	0.372	0	305	373	2
2026-02-12	16:07:15.690	2.835	-36.96	-13.58	0.032452	0.880108	-0.118828	0.3135	-0.393	0.366	0	305	373	2
2026-02-12	16:07:15.710	3.01	-37.45	-21.28	-0.011712	0.931348	-0.00122	0.3105	-0.3945	0.3615	0	305	373	2
2026-02-12	16:07:15.730	-0.525	-24.955	-28.77	0.01708	0.91012	-0.152012	0.3075	-0.402	0.3795	0	305	373	2
2026-02-12	16:07:15.750	-7.49	-28.175	-27.405	0.016104	0.849608	-0.148352	0.3105	-0.4065	0.3855	0	305	373	2
2026-02-12	16:07:15.770	-15.26	-28.665	-21.595	-0.032452	0.920368	-0.127368	0.3105	-0.4065	0.3855	0	305	373	2
2026-02-12	16:07:15.790	-18.55	-24.64	-19.145	-0.035136	1.018944	-0.124928	0.3105	-0.4065	0.3855	0	305	373	2
2026-02-12	16:07:15.810	-21.77	-18.375	-22.505	-0.023912	1.038952	-0.152256	0.3105	-0.4065	0.3855	0	313	310	2
2026-02-12	16:07:15.830	-31.43	-11.83	-24.955	0.026596	1.045296	-0.099064	0.3195	-0.4035	0.378	0	313	310	2
2026-02-12	16:07:15.850	-36.855	-5.425	-22.54	0.055144	1.06384	-0.17324	0.327	-0.405	0.3705	0	313	310	2
2026-02-12	16:07:15.870	-27.3	-3.85	-19.845	0.027572	1.118252	-0.140056	0.3345	-0.4065	0.363	0	313	310	2
2026-02-12	16:07:15.890	-9.905	-0.49	-22.68	-0.02074	1.174616	-0.011956	0.339	-0.405	0.354	0	313	310	2
2026-02-12	16:07:15.910	-21.07	9.485	-23.59	-0.018788	1.184132	-0.044164	0.351	-0.405	0.348	0	313	310	2
2026-02-12	16:07:15.930	-26.81	14.875	-25.585	-0.022936	1.23464	-0.119316	0.369	-0.4035	0.3405	0	313	310	2
2026-02-12	16:07:15.950	-22.75	9.8	-32.795	-0.048068	1.174372	0.014396	0.3675	-0.399	0.339	0	313	310	2
2026-02-12	16:07:15.970	-24.465	17.535	-31.745	-0.086132	1.16998	-0.015372	0.3585	-0.4035	0.339	0	313	310	2
2026-02-12	16:07:15.990	-20.965	17.71	-28.91	-0.01342	1.193892	-0.040748	0.36	-0.4035	0.333	0	313	310	2
2026-02-12	16:07:16.010	-15.225	7.875	-29.05	-0.001464	1.242448	0.037088	0.3705	-0.3975	0.3285	0	312	257	3
2026-02-12	16:07:16.030	-12.495	5.005	-32.305	-0.073688	1.245132	0.120292	0.3675	-0.405	0.3285	0	312	257	3
2026-02-12	16:07:16.050	-13.3	9.485	-33.46	-0.162992	1.173884	0.207644	0.372	-0.408	0.324	0	312	257	3
2026-02-12	16:07:16.070	-17.22	20.055	-24.85	-0.161772	1.14558	0.167872	0.39	-0.4035	0.3195	0	312	257	3
2026-02-12	16:07:16.090	-16.38	27.72	-23.625	-0.134688	1.059936	0.10126	0.396	-0.4005	0.3165	0	312	257	3
2026-02-12	16:07:16.110	-16.695	29.645	-26.285	-0.061976	0.912316	0.108824	0.4005	-0.396	0.309	0	312	257	3
2026-02-12	16:07:16.130	-18.165	26.495	-21.14	0.007564	0.804956	0.08174	0.402	-0.396	0.3015	0	312	257	3
2026-02-12	16:07:16.150	-21.455	24.22	-16.275	0.018056	0.743468	0.206912	0.399	-0.4005	0.3	0	312	257	3
2026-02-12	16:07:16.170	-23.24	39.55	-3.465	-0.111508	0.894992	0.077836	0.4095	-0.396	0.2895	0	312	257	3
2026-02-12	16:07:16.190	-1.995	38.99	-3.115	-0.120536	0.952332	0.102724	0.4155	-0.396	0.282	0	312	257	3
2026-02-12	16:07:16.210	12.95	36.855	-6.055	-0.129076	0.9211	0.117364	0.411	-0.399	0.291	0	305	194	3
2026-02-12	16:07:16.230	9.03	36.47	-9.975	-0.11346	0.911096	0.033184	0.417	-0.393	0.294	0	305	194	3
2026-02-12	16:07:16.250	7.035	32.97	-9.555	-0.109068	0.727608	0.022448	0.4245	-0.396	0.2925	0	305	194	3
2026-02-12	16:07:16.270	4.76	35.105	-3.115	-0.069296	0.79544	0.120292	0.429	-0.3975	0.2985	0	305	194	3
2026-02-12	16:07:16.290	-24.465	43.61	4.025	-0.14518	0.858636	-0.069052	0.4305	-0.3945	0.2985	0	305	194	3
2026-02-12	16:07:16.310	-36.925	38.22	-0.875	-0.13664	0.824964	-0.061976	0.429	-0.3945	0.2955	0	305	194	3
2026-02-12	16:07:16.330	-49.595	36.085	1.26	-0.161772	0.81252	-0.149328	0.429	-0.3945	0.2955	0	305	194	3
2026-02-12	16:07:16.350	-38.605	27.265	5.565	-0.18544	0.83692	-0.191784	0.423	-0.396	0.288	0	305	194	3
2026-02-12	16:07:16.370	-24.255	19.18	5.67	-0.24644	0.81862	-0.165432	0.423	-0.396	0.288	0	305	194	3
2026-02-12	16:07:16.390	-10.185	0.105	9.065	-0.351848	0.9394	-0.114924	0.432	-0.3915	0.2715	0	305	194	3
2026-02-12	16:07:16.410	-7.875	-17.045	-3.99	-0.384544	1.067256	0.029036	0.4335	-0.3915	0.2655	0	295	136	3
2026-02-12	16:07:16.430	-2.695	-19.95	-19.67	-0.340868	1.088484	0.14518	0.435	-0.39	0.2595	0	295	136	3
2026-02-12	16:07:16.450	24.885	6.545	-7.84	-0.28304	0.992348	-0.073444	0.441	-0.387	0.261	0	295	136	3
2026-02-12	16:07:16.470	39.06	11.235	15.085	-0.366	1.16022	-0.193492	0.4395	-0.3855	0.2655	0	295	136	3
2026-02-12	16:07:16.490	59.885	-8.645	-11.69	-0.268156	1.091168	-0.158844	0.438	-0.3885	0.2655	0	295	136	3
2026-02-12	16:07:16.510	58.695	-15.925	-18.83	-0.250588	1.121912	-0.076616	0.4455	-0.4095	0.276	0	295	136	3
2026-02-12	16:07:16.530	64.4	-2.31	-23.03	-0.147132	1.166564	-0.010492	0.4515	-0.402	0.291	0	295	136	3
2026-02-12	16:07:16.550	65.835	6.86	-27.09	-0.183732	1.087264	-0.231556	0.453	-0.402	0.2985	0	295	136	3
2026-02-12	16:07:16.570	49.945	-12.565	-18.935	-0.322568	1.092144	-0.122732	0.459	-0.417	0.318	0	295	136	3
2026-02-12	16:07:16.590	42.525	-11.795	-8.89	-0.32818	1.35542	-0.110044	0.4605	-0.405	0.321	0	295	136	3
2026-02-12	16:07:16.610	65.135	-0.875	-26.53	-0.358924	1.247084	-0.25132	0.4695	-0.408	0.3105	0	285	105	3
2026-02-12	16:07:16.630	59.08	-2.52	-28.77	-0.191296	1.095804	-0.247416	0.477	-0.417	0.333	0	285	105	3
2026-02-12	16:07:16.650	39.41	-5.53	-13.475	-0.209108	1.033828	-0.23668	0.474	-0.414	0.3525	0	285	105	3
2026-02-12	16:07:16.670	29.89	-15.33	3.325	-0.110288	1.101904	-0.234972	0.4785	-0.4155	0.3555	0	285	105	3
2026-02-12	16:07:16.690	10.36	-21.875	8.61	-0.126392	0.965264	-0.161772	0.4785	-0.4185	0.36	0	285	105	3
2026-02-12	16:07:16.710	-10.745	-19.355	16.52	-0.126392	0.854976	0.005612	0.4815	-0.4155	0.363	0	285	105	3
2026-02-12	16:07:16.730	-48.965	2.8	32.095	-0.052704	0.834968	-0.028792	0.4755	-0.4185	0.366	0	285	105	3
2026-02-12	16:07:16.750	-76.265	21.21	31.045	-0.055388	0.89182	-0.142008	0.462	-0.4155	0.357	0	285	105	3
2026-02-12	16:07:16.770	-91.805	14.665	3.465	-0.065392	0.653432	-0.027816	0.441	-0.417	0.348	0	285	105	3
2026-02-12	16:07:16.790	-95.9	26.32	35.315	0.039528	0.658556	-0.022692	0.4515	-0.405	0.3285	0	285	105	3
2026-02-12	16:07:16.810	-25.025	30.31	74.2	0.121268	1.087996	-0.258152	0.429	-0.393	0.321	0	277	100	3
2026-02-12	16:07:16.830	129.99	19.11	102.69	0.10492	1.14924	0.1464	0.42	-0.3915	0.309	0	277	100	3
2026-02-12	16:07:16.850	-64.61	-10.815	15.155	0.117608	0.744932	-0.399916	0.39	-0.384	0.3255	0	277	100	3
2026-02-12	16:07:16.870	-54.67	-80.36	28.945	-0.202276	0.933544	-0.073932	0.3885	-0.378	0.3195	0	277	100	3
2026-02-12	16:07:16.890	-50.68	-112.07	45.57	-0.141276	0.860588	-0.02562	0.378	-0.3765	0.321	0	277	100	3
2026-02-12	16:07:16.910	-127.295	-86.24	51.065	-0.141032	0.832284	0.238876	0.3675	-0.3705	0.315	0	277	100	3
2026-02-12	16:07:16.930	-170.205	-32.2	77.315	0.089304	1.073844	0.21716	0.369	-0.3675	0.3	0	277	100	3
2026-02-12	16:07:16.950	-199.01	-14.245	60.41	0.13176	1.146312	-0.190076	0.3375	-0.369	0.285	0	277	100	3
2026-02-12	16:07:16.970	-127.4	-73.325	7.175	-0.136152	1.347612	1.406904	0.3315	-0.3555	0.246	0	277	100	3
2026-02-12	16:07:16.990	-75.18	-43.435	-8.295	-0.13542	0.833992	0.335744	0.324	-0.345	0.237	0	277	100	3
2026-02-12	16:07:17.010	-27.825	-8.4	-3.36	-0.11468	0.767136	0.074908	0.321	-0.3405	0.219	0	272	86	3
2026-02-12	16:07:17.030	-39.34	-8.435	-10.115	-0.07076	0.872056	0.191296	0.3075	-0.342	0.219	0	272	86	3
2026-02-12	16:07:17.050	-70.175	-3.85	-0.56	-0.027572	1.088728	0.250344	0.3075	-0.342	0.219	0	272	86	3
2026-02-12	16:07:17.070	-84.28	-12.6	15.75	-0.095404	1.12362	0.435784	0.3075	-0.342	0.219	0	272	86	3
2026-02-12	16:07:17.090	-76.685	-16.765	14.735	0.04148	1.22854	0.55632	0.3075	-0.3315	0.204	0	272	86	3
2026-02-12	16:07:17.110	-44.38	-8.715	-4.41	-0.12078	1.139236	0.503616	0.3045	-0.3135	0.183	0	272	86	3
2026-02-12	16:07:17.130	-17.01	7.77	-10.745	-0.110776	1.196332	0.532164	0.303	-0.3075	0.1785	0	272	86	3
2026-02-12	16:07:17.150	-0.595	10.185	-33.285	-0.091988	1.1773	0.481656	0.306	-0.3105	0.1755	0	272	86	3
2026-02-12	16:07:17.170	15.68	-0.595	-45.5	0.012688	1.10166	0.580476	0.3105	-0.3135	0.171	0	272	86	3
2026-02-12	16:07:17.190	53.585	13.685	-32.025	0.09076799	1.133136	0.700036	0.315	-0.3165	0.1725	0	272	86	3
2026-02-12	16:07:17.210	119.28	49.84	-21.7	0.05124	1.302472	0.818376	0.324	-0.318	0.18	0	275	19	3
2026-02-12	16:07:17.230	138.425	110.32	-33.53	0.007808	1.344684	0.531676	0.3345	-0.327	0.1905	0	275	19	3
2026-02-12	16:07:17.250	82.705	139.23	-66.15	-0.212768	0.947696	0.391132	0.348	-0.3375	0.2025	0	275	19	3
2026-02-12	16:07:17.270	2.52	132.44	-44.45	-0.131028	0.931592	0.322568	0.372	-0.3465	0.2085	0	275	19	3
2026-02-12	16:07:17.290	-10.5	128.87	-20.37	-0.08418	1.071404	0.193492	0.393	-0.3495	0.2055	0	275	19	3
2026-02-12	16:07:17.310	-13.02	116.34	-21.42	0.018788	1.125572	0.144448	0.4035	-0.345	0.1965	0	275	19	3
2026-02-12	16:07:17.330	-13.44	102.69	-39.41	-0.03904	0.80886	0.114924	0.414	-0.3435	0.1965	0	275	19	3
2026-02-12	16:07:17.350	-12.215	76.93	-22.82	0.050508	0.546804	0.07076	0.4275	-0.345	0.201	0	275	19	3
2026-02-12	16:07:17.370	7.525	38.22	10.815	0.04392	0.579988	0.112484	0.438	-0.345	0.201	0	275	19	3
2026-02-12	16:07:17.390	21.105	3.395	34.335	-0.08906	0.759572	0.15738	0.4425	-0.345	0.1995	0	275	19	3
2026-02-12	16:07:17.410	3.29	-12.285	38.78	-0.124928	0.87474	0.264496	0.4425	-0.345	0.1995	0	282	74	3
2026-02-12	16:07:17.430	-28.7	-14.875	29.785	-0.098332	0.828624	0.284992	0.4305	-0.336	0.201	0	282	74	3
2026-02-12	16:07:17.450	-49.595	-13.65	24.115	-0.147132	0.869616	0.25254	0.4305	-0.336	0.201	0	282	74	3
2026-02-12	16:07:17.470	-54.565	-18.795	9.8	-0.246196	0.865468	0.250832	0.435	-0.3435	0.18	0	282	74	3
2026-02-12	16:07:17.490	-59.43	-26.775	-4.97	-0.257908	0.906704	0.361608	0.432	-0.348	0.1755	0	282	74	3
2026-02-12	16:07:17.510	-58.275	13.09	-21.175	-0.139812	0.726388	0.256688	0.432	-0.336	0.174	0	282	74	3
2026-02-12	16:07:17.530	19.075	27.65	-23.345	-0.168604	0.739076	0.0549	0.432	-0.333	0.1545	0	282	74	3
2026-02-12	16:07:17.550	13.055	3.465	-18.725	-0.21716	0.973804	0.162992	0.453	-0.33	0.165	0	282	74	3
2026-02-12	16:07:17.570	-113.75	3.815	-29.96	-0.13786	0.821304	0.809348	0.4455	-0.339	0.1635	0	282	74	3
2026-02-12	16:07:17.590	-23.415	117.915	-40.215	-0.164456	0.77348	0.697108	0.462	-0.3285	0.15	0	282	74	3
2026-02-12	16:07:17.610	26.53	222.04	-29.47	-0.265228	1.049688	0.22692	0.483	-0.3345	0.15	0	290	144	2
2026-02-12	16:07:17.630	-103.355	248.08	-71.435	-0.640988	1.089704	-0.125904	0.522	-0.318	0.159	0	290	144	2
2026-02-12	16:07:17.650	-131.18	177.52	-83.02	-0.563396	0.83936	0.06588	0.552	-0.303	0.162	0	290	144	2
2026-02-12	16:07:17.670	11.095	99.19	-38.08	-0.445056	0.660996	-0.160308	0.6195	-0.2715	0.147	0	290	144	2
2026-02-12	16:07:17.690	25.865	30.1	26.04	-0.353068	1.277096	-0.11224	0.636	-0.255	0.147	0	290	144	2
2026-02-12	16:07:17.710	-35.56	-5.845	6.51	-0.323544	1.161684	-0.014884	0.633	-0.2655	0.1545	0	290	144	2
2026-02-12	16:07:17.730	-99.75	-26.18	1.855	-0.356484	1.049444	-0.062464	0.6045	-0.2685	0.159	0	290	144	2
2026-02-12	16:07:17.750	-149.1	-68.95	23.73	-0.235704	1.069696	0.264008	0.6	-0.2595	0.153	0	290	144	2
2026-02-12	16:07:17.770	-203.525	-80.325	33.88	-0.376492	1.208044	0.44042	0.588	-0.243	0.1245	0	290	144	2
2026-02-12	16:07:17.790	-273.7	-68.145	29.19	-0.376248	1.042856	0.779336	0.5715	-0.231	0.102	0	290	144	2
2026-02-12	16:07:17.810	-219.03	-42	13.405	-0.300364	0.776408	1.212924	0.561	-0.2025	0.063	0	298	184	3
2026-02-12	16:07:17.830	-111.615	32.06	12.425	-0.396012	0.638792	0.86498	0.552	-0.174	0.0435	0	298	184	3
2026-02-12	16:07:17.850	-110.11	57.54	37.94	-0.398696	0.881084	0.469456	0.552	-0.153	0.039	0	298	184	3
2026-02-12	16:07:17.870	-133	7.63	42.49	-0.240096	1.222928	0.538264	0.5715	-0.141	0.0375	0	298	184	3
2026-02-12	16:07:17.890	-167.93	-31.535	0.28	-0.170556	1.133868	0.667096	0.5685	-0.1335	0.0315	0	298	184	3
2026-02-12	16:07:17.910	-170.975	-47.25	-54.46	-0.185684	0.804224	0.73444	0.5655	-0.102	0.0225	0	298	184	3
2026-02-12	16:07:17.930	-157.57	-47.18	-76.58	-0.255468	0.477752	0.772748	0.552	-0.0675	0.012	0	298	184	3
2026-02-12	16:07:17.950	-197.19	-50.505	-44.1	-0.107848	0.362828	0.806908	0.5655	-0.0405	0.0075	0	298	184	3
2026-02-12	16:07:17.970	-205.835	-35.595	-13.44	-0.154208	0.3111	0.933788	0.5535	-0.0195	0	0	298	184	3
2026-02-12	16:07:17.990	-122.535	-3.5	1.61	-0.284016	0.367464	0.652456	0.5475	0.015	0.0015	0	298	184	3
2026-02-12	16:07:18.010	-42.105	-30.45	7.49	-0.126392	0.433832	0.582672	0.5475	0.033	0.003	0	311	249	3
2026-02-12	16:07:18.030	-5.18	-62.755	-26.985	-0.125904	0.194712	0.626104	0.546	0.036	-0.012	0	311	249	3
2026-02-12	16:07:18.050	-5.215	-98.98	-35.245	-0.071736	0.1586	0.864248	0.5325	0.0315	-0.0105	0	311	249	3
2026-02-12	16:07:18.070	0	-112	-38.185	-0.154452	0.416264	1.303204	0.5235	0.039	-0.012	0	311	249	3
2026-02-12	16:07:18.090	3.71	-59.71	-54.285	-0.284016	0.229604	0.768356	0.498	0.0345	-0.021	0	311	249	3
2026-02-12	16:07:18.110	-3.99	-76.02	-47.425	-0.320372	0.327448	0.47702	0.4965	0.036	-0.0225	0	311	249	3
2026-02-12	16:07:18.130	-104.055	-132.685	-52.43	-0.234728	0.343796	0.625372	0.474	0.0345	-0.027	0	311	249	3
2026-02-12	16:07:18.150	-292.18	-154.14	-67.48	0.113704	-0.01464	0.785192	0.45	0.036	-0.0315	0	311	249	3
2026-02-12	16:07:18.170	-340.97	-88.725	-39.095	0.344284	-0.012932	1.324188	0.4305	0.078	-0.021	0	311	249	3
2026-02-12	16:07:18.190	-106.75	78.225	-15.54	-0.004148	0.063684	1.422032	0.405	0.1395	-0.0105	0	311	249	3
2026-02-12	16:07:18.210	-22.19	168.105	-9.975	-0.176168	0.10004	1.24806	0.4095	0.1725	0	0	330	359	3
2026-02-12	16:07:18.230	-66.5	215.985	0.35	0.004392	0.101016	1.195356	0.423	0.1785	-0.003	0	330	359	3
2026-02-12	16:07:18.250	-147.98	190.645	27.405	-0.305488	0.001708	0.472628	0.4635	0.1755	-0.0075	0	330	359	3
2026-02-12	16:07:18.270	-67.655	52.36	28.945	-0.419192	-0.036356	0.840824	0.522	0.195	-0.006	0	330	359	3
2026-02-12	16:07:18.290	16.03	1.82	21.665	-0.221308	-0.205692	1.35176	0.5295	0.2025	0	0	330	359	3
2026-02-12	16:07:18.310	65.485	45.85	40.565	-0.260348	-0.10248	1.193892	0.5295	0.2025	0	0	330	359	3
2026-02-12	16:07:18.330	61.005	57.225	53.76	-0.261812	0.193248	1.097024	0.5295	0.2025	0	0	330	359	3
2026-02-12	16:07:18.350	51.205	57.295	36.19	-0.451156	0.157624	1.36884	0.555	0.183	0	0	330	359	3
2026-02-12	16:07:18.370	31.29	77.805	26.18	-0.503616	0.082228	1.02846	0.594	0.1605	-0.003	0	330	359	3
2026-02-12	16:07:18.390	56.84	54.495	2.975	-0.414068	0.185196	0.975268	0.618	0.153	-0.0045	0	330	359	3
2026-02-12	16:07:18.410	64.505	28.945	-21	-0.41114	0.111264	1.034072	0.6315	0.1395	-0.003	0	355	506	3
2026-02-12	16:07:18.430	49.245	20.825	-28.56	-0.510448	-0.046848	0.990152	0.6495	0.129	-0.0015	0	355	506	3
2026-02-12	16:07:18.450	32.445	2.66	-12.53	-0.520208	0.013176	0.9028	0.6675	0.126	0.0015	0	355	506	3
2026-02-12	16:07:18.470	48.895	-26.67	-12.355	-0.51728	-0.049532	1.209264	0.687	0.1275	-0.0015	0	355	506	3
2026-02-12	16:07:18.490	58.135	-15.925	-8.505	-0.413092	-0.077592	1.065548	0.687	0.12	-0.0075	0	355	506	3
2026-02-12	16:07:18.510	55.895	-15.505	-2.73	-0.397964	-0.038308	1.038952	0.687	0.12	-0.0075	0	355	506	3
2026-02-12	16:07:18.530	24.43	-10.955	6.23	-0.359656	0.125172	0.988932	0.7155	0.1065	-0.009	0	355	506	3
2026-02-12	16:07:18.550	-7.805	-2.975	-5.285	-0.272548	0.117608	0.988444	0.714	0.0945	-0.015	0	355	506	3
2026-02-12	16:07:18.570	-10.675	6.965	-26.39	-0.285724	0.092476	0.89304	0.723	0.0945	-0.0315	0	355	506	3
2026-02-12	16:07:18.590	10.815	3.78	-30.415	-0.297192	-0.263276	0.710528	0.7425	0.096	-0.0195	0	355	506	3
2026-02-12	16:07:18.610	21.175	-13.72	8.33	-0.301828	-0.220088	0.85522	0.756	0.0975	-0.018	0	379	649	1
2026-02-12	16:07:18.630	-3.64	-6.265	42.42	-0.345504	0.007564	0.862052	0.774	0.1065	-0.039	0	379	649	1
2026-02-12	16:07:18.650	-27.37	3.99	36.61	-0.455304	-0.021716	0.994544	0.7875	0.105	-0.027	0	379	649	1
2026-02-12	16:07:18.670	-0.63	18.13	22.61	-0.334768	-0.106384	0.818376	0.786	0.105	-0.0315	0	379	649	1
2026-02-12	16:07:18.690	31.85	10.64	33.11	-0.35502	-0.034648	0.704672	0.8355	0.1065	-0.021	0	379	649	1
2026-02-12	16:07:18.710	30.905	1.505	49.77	-0.361852	0.238388	0.72346	0.8175	0.0915	-0.0435	0	379	649	1
2026-02-12	16:07:18.730	5.845	2.66	46.55	-0.402844	0.412116	0.773236	0.8205	0.0885	-0.0405	0	379	649	1
2026-02-12	16:07:18.750	-7.315	10.045	24.465	-0.406016	0.308904	0.739076	0.825	0.0885	-0.0435	0	379	649	1
2026-02-12	16:07:18.770	15.505	9.73	10.045	-0.398452	0.106628	0.761036	0.8325	0.072	-0.054	0	379	649	1
2026-02-12	16:07:18.790	31.78	5.53	17.57	-0.430416	0.171288	0.811544	0.855	0.0735	-0.066	0	379	649	1
2026-02-12	16:07:18.810	23.345	18.48	27.09	-0.53314	0.04514	0.7869	0.8835	0.0795	-0.0765	0	394	742	1
2026-02-12	16:07:18.830	31.64	34.755	46.48	-0.519476	-0.050996	0.696132	0.9165	0.066	-0.0735	0	394	742	1
2026-02-12	16:07:18.850	16.765	30.135	71.33	-0.515816	0.524356	0.90158	0.9525	0.054	-0.0615	0	394	742	1
2026-02-12	16:07:18.870	-2.975	54.46	44.31	-0.557296	0.607804	0.876204	0.9855	0.033	-0.0525	0	394	742	1
2026-02-12	16:07:18.890	-18.725	80.43	4.48	-0.591212	0.356728	0.751276	0.939	0.012	-0.057	0	394	742	1
2026-02-12	16:07:18.910	-26.11	74.69	4.165	-0.523624	0.325984	0.935496	0.978	0.012	-0.03	0	394	742	1
2026-02-12	16:07:18.930	-22.33	71.96	19.915	-0.471896	0.379664	0.931348	1.0005	0.012	-0.0165	0	394	742	1
2026-02-12	16:07:18.950	-18.76	68.04	23.24	-0.544608	0.269132	0.827404	1.0365	0.006	-0.0045	0	394	742	1
2026-02-12	16:07:18.970	-13.965	37.38	30.73	-0.597556	0.311832	0.81252	1.077	-0.003	0.0045	0	394	742	1
2026-02-12	16:07:18.990	10.885	12.18	32.34	-0.64416	0.388448	0.984052	1.0815	-0.0255	0.0105	0	394	742	1
2026-02-12	16:07:19.010	10.535	14.035	17.885	-0.618296	0.40382	0.92598	1.0665	-0.027	0.0195	0	399	788	1
2026-02-12	16:07:19.030	11.48	-3.64	8.47	-0.630008	0.38064	0.935496	1.0635	-0.0315	0.0165	0	399	788	1
2026-02-12	16:07:19.050	15.4	-23.135	4.69	-0.571448	0.380396	1.028948	1.0725	-0.042	0.012	0	399	788	1
2026-02-12	16:07:19.070	12.39	-26.25	3.43	-0.480436	0.407236	1.038952	1.038	-0.0405	0.006	0	399	788	1
2026-02-12	16:07:19.090	16.065	-22.155	-8.61	-0.531676	0.46604	1.074088	1.029	-0.048	0.015	0	399	788	1
2026-02-12	16:07:19.110	25.27	-5.705	-31.43	-0.50264	0.375516	0.89182	1.0155	-0.054	0.018	0	399	788	1
2026-02-12	16:07:19.130	23.695	9.52	-43.26	-0.42334	0.316956	0.778116	1.0215	-0.0555	0.0195	0	399	788	1
2026-02-12	16:07:19.150	27.125	8.4	-43.75	-0.420656	0.276452	0.809348	1.0305	-0.0525	0.012	0	399	788	1
2026-02-12	16:07:19.170	23.345	11.515	-37.065	-0.377468	0.243024	0.799344	1.0185	-0.057	0.0255	0	399	788	1
2026-02-12	16:07:19.190	19.74	10.92	-28.42	-0.362828	0.282308	0.803492	1.023	-0.06	0.021	0	399	788	1
2026-02-12	16:07:19.210	14.21	6.825	-24.36	-0.308172	0.29768	0.809104	1.0545	-0.063	0.0315	0	394	816	1
2026-02-12	16:07:19.230	13.37	-7.49	-22.435	-0.356484	0.248392	0.77836	1.035	-0.0585	0.0315	0	394	816	1
2026-02-12	16:07:19.250	19.355	-22.05	-19.425	-0.379664	0.244488	0.743224	1.0245	-0.057	0.0195	0	394	816	1
2026-02-12	16:07:19.270	13.44	-34.23	-11.48	-0.363804	0.25742	0.705892	1.0185	-0.0675	0.0285	0	394	816	1
2026-02-12	16:07:19.290	17.465	-45.15	-5.775	-0.366	0.290116	0.761524	1.014	-0.066	0.021	0	394	816	1
2026-02-12	16:07:19.310	13.58	-35.595	-9.205	-0.369904	0.332816	0.733952	1.0065	-0.0645	0.018	0	394	816	1
2026-02-12	16:07:19.330	7.245	-24.99	-20.37	-0.41358	0.305244	0.701012	1.0335	-0.066	0.024	0	394	816	1
2026-02-12	16:07:19.350	8.015	-24.675	-29.435	-0.387472	0.251564	0.739076	0.984	-0.0705	0.0255	0	394	816	1
2026-02-12	16:07:19.370	-0.14	-18.83	-30.905	-0.401624	0.298168	0.798368	1.0005	-0.0765	0.0315	0	394	816	1
2026-02-12	16:07:19.390	-8.19	-10.255	-37.345	-0.413824	0.243512	0.783728	0.969	-0.0735	0.027	0	394	816	1
2026-02-12	16:07:19.410	-0.42	-13.09	-37.66	-0.430172	0.1891	0.781288	1.0215	-0.066	0.027	0	380	826	1
2026-02-12	16:07:19.430	0.035	-13.02	-27.23	-0.500932	0.229848	0.727608	0.966	-0.072	0.027	0	380	826	1
2026-02-12	16:07:19.450	-0.525	-24.605	-19.25	-0.520452	0.258884	0.768844	0.987	-0.069	0.0195	0	380	826	1
2026-02-12	16:07:19.470	-7.455	-37.765	-14.49	-0.526064	0.297924	0.915	0.957	-0.066	0.0195	0	380	826	1
2026-02-12	16:07:19.490	-10.745	-36.54	-16.8	-0.53924	0.28426	1.05652	0.9525	-0.0645	0.0195	0	380	826	1
2026-02-12	16:07:19.510	-9.03	-18.97	-15.4	-0.502396	0.232288	1.11752	0.9	-0.0585	0.003	0	380	826	1
2026-02-12	16:07:19.530	-9.695	-1.33	-4.095	-0.567056	0.27206	1.13094	0.948	-0.0465	0.0045	0	380	826	1
2026-02-12	16:07:19.550	-10.57	12.145	-0.805	-0.577792	0.273036	1.074576	0.939	-0.048	0.006	0	380	826	1
2026-02-12	16:07:19.570	-9.87	15.61	0.14	-0.574864	0.246928	1.030656	0.93	-0.051	0.0075	0	380	826	1
2026-02-12	16:07:19.590	-5.11	11.935	3.78	-0.617808	0.242536	1.048956	0.93	-0.051	0.0075	0	380	826	1
2026-02-12	16:07:19.610	-7.7	9.065	8.505	-0.606096	0.22936	1.101172	0.93	-0.051	0.0075	0	359	837	1
2026-02-12	16:07:19.630	-2.8	11.27	11.97	-0.592188	0.221064	1.075064	0.948	-0.0495	0.015	0	359	837	1
2026-02-12	16:07:19.650	-0.875	13.615	14.56	-0.573888	0.219356	1.0675	0.9555	-0.039	0.0195	0	359	837	1
2026-02-12	16:07:19.670	1.435	19.635	16.695	-0.550708	0.21838	1.058472	0.954	-0.048	0.0195	0	359	837	1
2026-02-12	16:07:19.690	2.38	26.425	19.11	-0.510936	0.17324	1.0126	0.9825	-0.0495	0.0285	0	359	837	1
2026-02-12	16:07:19.710	6.37	33.95	23.765	-0.380396	0.189832	0.905728	0.9855	-0.054	0.0315	0	359	837	1
2026-02-12	16:07:19.730	7.21	32.34	26.845	-0.350872	0.213744	0.844728	0.999	-0.051	0.036	0	359	837	1
2026-02-12	16:07:19.750	15.89	25.795	23.59	-0.341112	0.151768	0.79544	0.9855	-0.0585	0.042	0	359	837	1
2026-02-12	16:07:19.770	16.485	20.79	24.71	-0.313052	0.145912	0.747616	0.99	-0.0615	0.036	0	359	837	1
2026-02-12	16:07:19.790	17.465	8.085	31.255	-0.327692	0.174704	0.786656	0.9825	-0.066	0.033	0	359	837	1
2026-02-12	16:07:19.810	17.78	4.2	30.38	-0.349652	0.190076	0.853512	1.0035	-0.0675	0.0525	0	336	862	1
2026-02-12	16:07:19.830	10.29	9.38	24.955	-0.3538	0.238876	0.814716	1.014	-0.0765	0.045	0	336	862	1
2026-02-12	16:07:19.850	8.155	11.41	18.865	-0.382104	0.243024	0.720044	1.0425	-0.081	0.045	0	336	862	1
2026-02-12	16:07:19.870	9.975	5.39	17.325	-0.38552	0.249124	0.6527	1.023	-0.0795	0.0525	0	336	862	1
2026-02-12	16:07:19.890	10.43	-3.01	15.365	-0.432368	0.27328	0.571448	1.0095	-0.09	0.069	0	336	862	1
2026-02-12	16:07:19.910	7.875	-18.34	13.58	-0.428464	0.28914	0.589016	1.035	-0.0855	0.0645	0	336	862	1
2026-02-12	16:07:19.930	7.805	-32.41	12.215	-0.418704	0.320372	0.652944	1.0005	-0.087	0.057	0	336	862	1
2026-02-12	16:07:19.950	7.42	-39.06	9.345	-0.43676	0.340624	0.687348	1.0545	-0.09	0.0585	0	336	862	1
2026-02-12	16:07:19.970	10.08	-39.795	5.285	-0.416264	0.38918	0.70882	1.0005	-0.0795	0.054	0	336	862	1
2026-02-12	16:07:19.990	10.325	-39.515	-5.425	-0.48068	0.404308	0.772992	0.9795	-0.09	0.0525	0	336	862	1
2026-02-12	16:07:20.010	6.335	-33.53	-11.97	-0.491172	0.349164	0.713456	0.993	-0.0795	0.048	0	313	867	1
2026-02-12	16:07:20.030	-3.045	-42.84	-5.635	-0.498492	0.332572	0.709796	0.9915	-0.0825	0.051	0	313	867	1
2026-02-12	16:07:20.050	-0.28	-53.41	-0.14	-0.514352	0.364536	0.769088	1.029	-0.0855	0.045	0	313	867	1
2026-02-12	16:07:20.070	-1.085	-51.415	-2.31	-0.487756	0.380396	0.799832	1.0875	-0.0765	0.039	0	313	867	1
2026-02-12	16:07:20.090	3.255	-49.14	-7.595	-0.417484	0.371856	0.854244	0.9795	-0.078	0.045	0	313	867	1
2026-02-12	16:07:20.110	13.965	-39.41	-11.34	-0.410896	0.355752	0.90524	0.993	-0.0765	0.0255	0	313	867	1
2026-02-12	16:07:20.130	11.83	-24.71	-8.785	-0.40504	0.379664	0.942816	0.9345	-0.072	0.0285	0	313	867	1
2026-02-12	16:07:20.150	7.665	-15.33	-10.745	-0.36844	0.38552	1.004304	0.957	-0.0705	0.0195	0	313	867	1
2026-02-12	16:07:20.170	4.69	-5.46	-15.47	-0.40504	0.406504	1.037488	0.9615	-0.075	0.015	0	313	867	1
2026-02-12	16:07:20.190	1.4	4.025	-18.76	-0.410408	0.3965	1.0248	1.0245	-0.063	0.012	0	313	867	1
2026-02-12	16:07:20.210	2.31	8.61	-19.46	-0.482144	0.39528	1.005524	0.936	-0.069	0.0165	0	292	859	1
2026-02-12	16:07:20.230	2.8	6.335	-21.105	-0.516304	0.370392	1.0187	0.9105	-0.075	0.012	0	292	859	1
2026-02-12	16:07:20.250	2.065	0.07	-20.475	-0.488488	0.35502	1.062376	0.9165	-0.0705	0.006	0	292	859	1
2026-02-12	16:07:20.270	4.34	-5.67	-15.19	-0.463112	0.372588	1.124596	0.882	-0.072	0	0	292	859	1
2026-02-12	16:07:20.290	8.435	-1.89	-15.96	-0.500444	0.371612	1.180716	0.897	-0.0675	0.0045	0	292	859	1
2026-02-12	16:07:20.310	9.94	11.305	-19.565	-0.433832	0.306708	1.088972	0.8895	-0.0675	0.006	0	292	859	1
2026-02-12	16:07:20.330	22.05	9.17	-12.985	-0.352824	0.30134	1.0431	0.891	-0.078	0.003	0	292	859	1
2026-02-12	16:07:20.350	31.43	9.1	-9.765	-0.37454	0.367708	1.074332	0.9045	-0.078	0.0045	0	292	859	1
2026-02-12	16:07:20.370	38.99	19.88	-23.345	-0.374296	0.274256	0.998204	0.9105	-0.0885	0.012	0	292	859	1
2026-02-12	16:07:20.390	54.285	26.355	-28.56	-0.303536	0.192028	0.863516	0.936	-0.09	0.0255	0	292	859	1
2026-02-12	16:07:20.410	57.855	20.755	-19.46	-0.315736	0.199836	0.841312	0.9345	-0.1095	0.018	0	274	874	1
2026-02-12	16:07:20.430	58.275	14.385	-10.955	-0.296948	0.250832	0.818376	0.9525	-0.12	0.0255	0	274	874	1
2026-02-12	16:07:20.450	45.57	10.185	-3.22	-0.317932	0.235948	0.803736	0.99	-0.1245	0.0315	0	274	874	1
2026-02-12	16:07:20.470	34.65	-5.425	3.36	-0.301096	0.259372	0.770552	0.9825	-0.138	0.039	0	274	874	1
2026-02-12	16:07:20.490	32.27	-15.68	13.965	-0.306464	0.288164	0.723704	0.9885	-0.144	0.033	0	274	874	1
2026-02-12	16:07:20.510	27.615	-23.73	17.5	-0.36478	0.332084	0.656848	0.9885	-0.1575	0.0345	0	274	874	1
2026-02-12	16:07:20.530	20.09	-32.06	13.86	-0.372588	0.346236	0.644404	0.9435	-0.153	0.042	0	274	874	1
2026-02-12	16:07:20.550	7.665	-37.835	8.96	-0.397232	0.355264	0.684664	0.945	-0.156	0.0315	0	274	874	1
2026-02-12	16:07:20.570	0.455	-41.02	5.81	-0.382592	0.341356	0.7564	0.9255	-0.147	0.0405	0	274	874	1
2026-02-12	16:07:20.590	-7.14	-34.3	3.43	-0.377224	0.332572	0.780556	0.9405	-0.15	0.0285	0	274	874	1
2026-02-12	16:07:20.610	-14.21	-22.435	-1.155	-0.340624	0.3294	0.733464	0.987	-0.1455	0.0315	0	258	885	1
2026-02-12	16:07:20.630	-21.28	-20.93	-3.115	-0.308416	0.330376	0.710528	1.0335	-0.1425	0.0345	0	258	885	1
2026-02-12	16:07:20.650	-21.98	-27.37	-2.695	-0.318664	0.330132	0.755424	0.966	-0.1425	0.0315	0	258	885	1
2026-02-12	16:07:20.670	-30.1	-28.175	-1.855	-0.29158	0.359656	0.81862	0.897	-0.1395	0.0285	0	258	885	1
2026-02-12	16:07:20.690	-31.885	-26.005	-1.12	-0.284504	0.3538	0.912072	0.8925	-0.1335	0.021	0	258	885	1
2026-02-12	16:07:20.710	-26.705	-17.01	2.24	-0.356728	0.418948	0.967704	0.876	-0.126	0.0165	0	258	885	1
2026-02-12	16:07:20.730	-25.27	0.175	-2.065	-0.422608	0.464332	1.003816	0.8625	-0.12	0.0165	0	258	885	1
2026-02-12	16:07:20.750	-25.095	16.835	-13.02	-0.42578	0.416264	1.044808	0.861	-0.114	0.012	0	258	885	1
2026-02-12	16:07:20.770	-24.955	26.46	-9.765	-0.389912	0.388692	1.043344	0.87	-0.1125	0.0135	0	258	885	1
2026-02-12	16:07:20.790	-21.455	29.295	4.585	-0.454816	0.428708	1.057496	0.882	-0.108	0.015	0	258	885	1
2026-02-12	16:07:20.810	-16.38	30.94	10.045	-0.53558	0.447008	1.043344	0.8745	-0.1065	0.009	0	245	885	1
2026-02-12	16:07:20.830	-11.27	29.19	5.775	-0.556808	0.461404	1.015772	0.8895	-0.1065	0.009	0	245	885	1
2026-02-12	16:07:20.850	-8.295	23.135	0.595	-0.528748	0.386008	1.046028	0.9105	-0.105	0.0135	0	245	885	1
2026-02-12	16:07:20.870	-4.095	19.915	11.165	-0.481656	0.347456	1.084824	0.9105	-0.105	0.0135	0	245	885	1
2026-02-12	16:07:20.890	2.485	28.035	21.21	-0.56974	0.38674	1.054812	0.9105	-0.105	0.0135	0	245	885	1
2026-02-12	16:07:20.910	3.465	35.035	18.515	-0.522892	0.337696	0.972584	0.936	-0.09	0.0165	0	245	885	1
2026-02-12	16:07:20.930	11.165	29.505	18.865	-0.446764	0.323544	0.957944	0.921	-0.0945	0.0165	0	245	885	1
2026-02-12	16:07:20.950	7.21	26.565	24.605	-0.364048	0.294264	0.969412	0.9645	-0.093	0.021	0	245	885	1
2026-02-12	16:07:20.970	7.805	22.54	30.905	-0.265472	0.271328	0.937448	0.936	-0.1005	0.024	0	245	885	1
2026-02-12	16:07:20.990	10.78	18.935	37.555	-0.227164	0.255956	0.87718	0.945	-0.105	0.03	0	245	885	1
2026-02-12	16:07:21.010	11.97	13.545	41.475	-0.23912	0.250344	0.835212	0.924	-0.1035	0.024	0	234	898	1
2026-02-12	16:07:21.030	16.975	9.87	41.16	-0.260348	0.273768	0.805444	0.9225	-0.105	0.03	0	234	898	1
2026-02-12	16:07:21.050	13.825	7.385	36.75	-0.283528	0.29036	0.82228	0.9585	-0.102	0.0345	0	234	898	1
2026-02-12	16:07:21.070	10.955	0.56	29.785	-0.288408	0.21716	0.872788	0.942	-0.108	0.0285	0	234	898	1
2026-02-12	16:07:21.090	13.65	-1.645	31.71	-0.363804	0.239852	0.88816	0.939	-0.102	0.0285	0	234	898	1
2026-02-12	16:07:21.110	6.475	5.355	32.795	-0.471652	0.321104	0.795196	0.9645	-0.1125	0.027	0	234	898	1
2026-02-12	16:07:21.130	-1.96	3.115	24.64	-0.4758	0.314272	0.7137	0.957	-0.108	0.0375	0	234	898	1
2026-02-12	16:07:21.150	-6.37	-10.71	16.975	-0.447984	0.284992	0.732244	0.9705	-0.114	0.0435	0	234	898	1
2026-02-12	16:07:21.170	-7.21	-15.47	17.675	-0.41236	0.292312	0.74298	0.954	-0.1245	0.033	0	234	898	1
2026-02-12	16:07:21.190	-8.75	-12.6	23.52	-0.37454	0.321104	0.720044	0.954	-0.117	0.042	0	234	898	1
2026-02-12	16:07:21.210	-11.795	-13.545	24.22	-0.367708	0.373076	0.742004	0.942	-0.1095	0.0375	0	224	904	1
2026-02-12	16:07:21.230	-9.73	-11.62	17.5	-0.324764	0.390644	0.785192	0.927	-0.099	0.036	0	224	904	1
2026-02-12	16:07:21.250	-10.535	-2.835	12.6	-0.345748	0.41114	0.790316	0.93	-0.1035	0.0285	0	224	904	1
2026-02-12	16:07:21.270	-4.48	5.985	11.9	-0.35014	0.364292	0.719312	1.143	-0.1005	0.0225	0	224	904	1
2026-02-12	16:07:21.290	-4.865	6.405	15.155	-0.452376	0.378688	0.70882	0.9255	-0.105	0.03	0	224	904	1
2026-02-12	16:07:21.310	-8.61	1.75	14.875	-0.4209	0.38552	0.710528	0.93	-0.114	0.0315	0	224	904	1
2026-02-12	16:07:21.330	-11.445	-2.765	14.595	-0.45628	0.413092	0.738832	0.936	-0.105	0.0255	0	224	904	1
2026-02-12	16:07:21.350	-15.645	-2.415	13.405	-0.496296	0.418704	0.749812	0.9345	-0.0975	0.0285	0	224	904	1
2026-02-12	16:07:21.370	-18.025	-1.365	9.24	-0.469456	0.420412	0.76128	0.933	-0.09	0.027	0	224	904	1
2026-02-12	16:07:21.390	-17.01	-2.45	6.3	-0.440664	0.44164	0.8113	0.9465	-0.096	0.027	0	224	904	1
2026-02-12	16:07:21.410	-12.635	-1.89	1.715	-0.474824	0.454572	0.863272	0.927	-0.096	0.03	0	215	890	1
2026-02-12	16:07:21.430	-13.335	3.605	-4.06	-0.475312	0.446764	0.879132	0.939	-0.087	0.024	0	215	890	1
2026-02-12	16:07:21.450	-12.95	2.59	-5.67	-0.426756	0.4514	0.901336	0.945	-0.084	0.036	0	215	890	1
2026-02-12	16:07:21.470	-6.93	-0.28	-5.495	-0.409676	0.457744	0.939644	0.915	-0.072	0.0255	0	215	890	1
2026-02-12	16:07:21.490	-1.54	1.68	-7.525	-0.446276	0.445056	0.939644	0.9375	-0.0735	0.0285	0	215	890	1
2026-02-12	16:07:21.510	6.405	0.455	-10.045	-0.449692	0.45628	0.927444	0.918	-0.0765	0.0285	0	215	890	1
2026-02-12	16:07:21.530	14.28	0.07	-12.075	-0.498004	0.482876	0.935984	0.936	-0.069	0.0225	0	215	890	1
2026-02-12	16:07:21.550	19.145	0.84	-13.02	-0.538996	0.472872	0.94184	0.909	-0.0735	0.0255	0	215	890	1
2026-02-12	16:07:21.570	21.77	-2.625	-11.585	-0.575108	0.458232	0.956724	0.915	-0.0735	0.0255	0	215	890	1
2026-02-12	16:07:21.590	31.92	-6.475	-10.185	-0.562176	0.43676	0.906216	0.9165	-0.0825	0.021	0	215	890	1
2026-02-12	16:07:21.610	34.965	-13.72	-2.415	-0.51606	0.452376	0.84668	0.9375	-0.0765	0.0315	0	207	878	1
2026-02-12	16:07:21.630	27.895	-27.86	4.165	-0.463844	0.46848	0.908656	0.942	-0.084	0.0345	0	207	878	1
2026-02-12	16:07:21.650	24.64	-38.15	3.5	-0.332084	0.41846	0.985272	0.915	-0.0795	0.027	0	207	878	1
2026-02-12	16:07:21.670	23.555	-31.99	6.3	-0.244244	0.433588	0.977464	0.915	-0.0795	0.027	0	207	878	1
2026-02-12	16:07:21.690	27.16	-20.895	2.905	-0.219356	0.4392	0.909876	0.9165	-0.0855	0.024	0	207	878	1
2026-02-12	16:07:21.710	30.205	-14.63	-1.645	-0.22448	0.437004	0.867664	0.9195	-0.093	0.021	0	207	878	1
2026-02-12	16:07:21.730	30.87	-6.405	-12.565	-0.185196	0.405772	0.780068	0.9285	-0.0945	0.027	0	207	878	1
2026-02-12	16:07:21.750	32.41	-11.655	-17.22	-0.169092	0.382592	0.801784	0.9255	-0.096	0.03	0	207	878	1
2026-02-12	16:07:21.770	32.165	-14.07	-18.13	-0.17446	0.422852	0.868884	0.906	-0.102	0.027	0	207	878	1
2026-02-12	16:07:21.790	24.815	-3.5	-19.565	-0.163724	0.4453	0.823012	0.903	-0.1125	0.024	0	207	878	1
2026-02-12	16:07:21.810	24.045	-0.105	-20.685	-0.214232	0.417972	0.748592	0.9165	-0.117	0.0255	0	199	877	1
2026-02-12	16:07:21.830	21.665	-1.19	-16.065	-0.233508	0.351604	0.681736	0.9255	-0.117	0.03	0	199	877	1
2026-02-12	16:07:21.850	12.25	-12.285	-9.73	-0.230336	0.38186	0.701012	0.927	-0.1215	0.03	0	199	877	1
2026-02-12	16:07:21.870	9.415	-19.915	-1.26	-0.208376	0.455548	0.709796	0.9345	-0.123	0.027	0	199	877	1
2026-02-12	16:07:21.890	-3.325	-20.755	-1.225	-0.297436	0.498736	0.737612	0.939	-0.123	0.027	0	199	877	1
2026-02-12	16:07:21.910	-17.22	-23.205	-10.395	-0.267668	0.438712	0.795196	0.9315	-0.1215	0.036	0	199	877	1
2026-02-12	16:07:21.930	-19.215	-28.175	-12.915	-0.287188	0.419192	0.874496	0.9285	-0.1155	0.0375	0	199	877	1
2026-02-12	16:07:21.950	-23.415	-18.34	-12.32	-0.332328	0.41846	0.874252	0.933	-0.114	0.033	0	199	877	1
2026-02-12	16:07:21.970	-25.9	-9.905	-11.655	-0.279624	0.438224	0.78446	0.9165	-0.111	0.0345	0	199	877	1
2026-02-12	16:07:21.990	-21.7	-19.04	-11.935	-0.33672	0.4331	0.813252	0.8955	-0.1095	0.0405	0	199	877	1
2026-02-12	16:07:22.010	-22.085	-18.725	-14.945	-0.339404	0.43554	0.81618	0.894	-0.1035	0.0435	0	192	872	1
2026-02-12	16:07:22.030	-24.885	-17.955	-17.5	-0.35136	0.451156	0.850584	0.8985	-0.096	0.0405	0	192	872	1
2026-02-12	16:07:22.050	-29.435	-23.625	-21.49	-0.322568	0.401868	0.993812	0.894	-0.093	0.0375	0	192	872	1
2026-02-12	16:07:22.070	-25.76	-14.56	-14.945	-0.30988	0.377956	1.079944	0.876	-0.0855	0.0315	0	192	872	1
2026-02-12	16:07:22.090	-22.05	6.09	-5.53	-0.419192	0.395768	1.027972	0.8685	-0.0825	0.0255	0	192	872	1
2026-02-12	16:07:22.110	-23.835	22.855	-5.635	-0.444568	0.42578	0.982344	0.8715	-0.0825	0.0225	0	192	872	1
2026-02-12	16:07:22.130	-27.37	24.045	-5.6	-0.412116	0.379176	0.992104	0.8715	-0.0825	0.0225	0	192	872	1
2026-02-12	16:07:22.150	-31.745	20.51	4.585	-0.38552	0.36356	1.061644	0.942	-0.0735	0.0315	0	192	872	1
2026-02-12	16:07:22.170	-29.61	24.955	13.58	-0.46848	0.422364	1.09922	0.903	-0.075	0.036	0	192	872	1
2026-02-12	16:07:22.190	-26.81	32.62	9.03	-0.496784	0.368684	1.081896	0.9315	-0.069	0.0315	0	192	872	1
2026-02-12	16:07:22.210	-23.94	34.335	4.83	-0.500688	0.373808	1.090924	0.9195	-0.069	0.0375	0	186	878	1
2026-02-12	16:07:22.230	-19.005	35.07	6.615	-0.474092	0.312076	1.042368	0.9105	-0.06	0.0315	0	186	878	1
2026-02-12	16:07:22.250	-12.81	38.395	12.635	-0.450668	0.305732	1.071892	0.9705	-0.0525	0.042	0	186	878	1
2026-02-12	16:07:22.270	-12.18	46.27	14.315	-0.445544	0.268156	1.032608	0.9255	-0.0585	0.048	0	186	878	1
2026-02-12	16:07:22.290	-10.045	47.215	18.025	-0.371124	0.223016	0.930128	0.9495	-0.0495	0.048	0	186	878	1
2026-02-12	16:07:22.310	-16.765	38.71	24.185	-0.358192	0.170556	0.96014	0.9615	-0.051	0.054	0	186	878	1
2026-02-12	16:07:22.330	-14.525	35.595	27.755	-0.27816	0.171776	0.913536	0.966	-0.054	0.0525	0	186	878	1
2026-02-12	16:07:22.350	-11.9	35.665	33.88	-0.265716	0.180316	0.831308	0.9705	-0.063	0.0645	0	186	878	1
2026-02-12	16:07:22.370	-10.605	32.025	34.09	-0.273524	0.159332	0.798124	1.137	-0.048	0.072	0	186	878	1
2026-02-12	16:07:22.390	-10.045	27.195	33.6	-0.289872	0.161772	0.800808	0.987	-0.051	0.0735	0	186	878	1
2026-02-12	16:07:22.410	-15.12	18.48	33.53	-0.330864	0.135664	0.83448	1.0005	-0.0675	0.078	0	182	899	1
2026-02-12	16:07:22.430	-22.75	10.5	38.185	-0.330376	0.119316	0.869616	1.029	-0.0675	0.072	0	182	899	1
2026-02-12	16:07:22.450	-26.39	9.8	47.74	-0.388204	0.192028	0.843752	1.023	-0.0555	0.078	0	182	899	1
2026-02-12	16:07:22.470	-30.38	7.63	50.785	-0.407724	0.247904	0.774944	1.0425	-0.06	0.0765	0	182	899	1
2026-02-12	16:07:22.490	-26.775	-1.925	46.34	-0.5063	0.201788	0.72346	1.014	-0.051	0.069	0	182	899	1
2026-02-12	16:07:22.510	-22.89	-11.13	42.945	-0.435296	0.195932	0.709308	0.9885	-0.0585	0.0645	0	182	899	1
2026-02-12	16:07:22.530	-11.34	-13.3	43.61	-0.42578	0.198128	0.815692	1.0185	-0.045	0.0645	0	182	899	1
2026-02-12	16:07:22.550	-8.855	-3.885	44.975	-0.432124	0.170556	0.85644	0.9825	-0.06	0.06	0	182	899	1
2026-02-12	16:07:22.570	-0.49	18.165	65.03	-0.566812	0.322568	0.844484	0.9825	-0.042	0.063	0	182	899	1
2026-02-12	16:07:22.590	19.775	38.43	67.83	-0.597556	0.374784	0.855952	0.9705	-0.0435	0.0675	0	182	899	1
2026-02-12	16:07:22.610	-7.455	49.28	62.23	-0.540948	0.39406	0.535336	0.978	-0.0645	0.072	0	180	905	1
2026-02-12	16:07:22.630	-24.395	20.51	63.98	-0.498248	0.4575	0.665388	0.9795	-0.063	0.063	0	180	905	1
2026-02-12	16:07:22.650	-15.645	2.555	56.735	-0.41236	0.5185	0.769332	0.966	-0.0615	0.0675	0	180	905	1
2026-02-12	16:07:22.670	3.465	9.03	40.565	-0.51484	0.500444	0.7686	0.954	-0.0585	0.06	0	180	905	1
2026-02-12	16:07:22.690	20.685	11.445	26.005	-0.462868	0.496052	0.741272	1.0875	-0.0465	0.0465	0	180	905	1
2026-02-12	16:07:22.710	30.31	7.175	17.71	-0.397232	0.584624	0.783972	0.9435	-0.066	0.0585	0	180	905	1
2026-02-12	16:07:22.730	33.04	8.05	3.5	-0.291824	0.577548	0.814472	0.9435	-0.066	0.0585	0	180	905	1
2026-02-12	16:07:22.750	36.645	9.485	-0.805	-0.308172	0.506056	0.820572	0.9285	-0.075	0.051	0	180	905	1
2026-02-12	16:07:22.770	30.905	6.86	5.075	-0.357704	0.511912	0.844972	0.915	-0.084	0.045	0	180	905	1
2026-02-12	16:07:22.790	23.835	2.87	9.695	-0.376736	0.516792	0.843264	0.9165	-0.0885	0.0405	0	180	905	1
2026-02-12	16:07:22.810	15.575	-2.73	10.185	-0.443836	0.576816	0.869616	0.9165	-0.0915	0.039	0	180	890	1
2026-02-12	16:07:22.830	16.975	-2.975	-1.68	-0.417728	0.514108	0.917684	0.909	-0.096	0.0375	0	180	890	1
2026-02-12	16:07:22.850	8.75	4.165	-4.725	-0.436028	0.506788	0.797636	0.903	-0.102	0.036	0	180	890	1
2026-02-12	16:07:22.870	2.24	-1.995	-5.705	-0.442372	0.48922	0.84302	0.903	-0.1065	0.036	0	180	890	1
2026-02-12	16:07:22.890	-6.93	-4.69	-2.625	-0.385032	0.532652	0.906948	0.9135	-0.108	0.0345	0	180	890	1
2026-02-12	16:07:22.910	-11.935	-0.175	-2.345	-0.36356	0.51728	0.86986	0.9225	-0.1035	0.03	0	180	890	1
2026-02-12	16:07:22.930	-18.305	-8.12	-1.4	-0.330132	0.54412	0.906704	0.9165	-0.1035	0.027	0	180	890	1
2026-02-12	16:07:22.950	-20.615	-12.88	-5.53	-0.333792	0.5551	0.854976	0.921	-0.1035	0.027	0	180	890	1
2026-02-12	16:07:22.970	-17.15	-21.7	-15.54	-0.363072	0.544852	0.850584	0.921	-0.099	0.033	0	180	890	1
2026-02-12	16:07:22.990	-8.68	-27.195	-27.895	-0.318664	0.451156	0.81008	0.909	-0.093	0.036	0	180	890	1
2026-02-12	16:07:23.010	8.33	-31.465	-28.455	-0.298412	0.463844	0.820572	0.918	-0.0885	0.0285	0	180	876	1
2026-02-12	16:07:23.030	17.885	-35.035	-28.875	-0.267912	0.467992	0.899384	0.9105	-0.0915	0.0255	0	180	876	1
2026-02-12	16:07:23.050	20.685	-28.21	-30.17	-0.232288	0.437248	0.916708	0.8955	-0.09	0.0255	0	180	876	1
2026-02-12	16:07:23.070	14.77	-23.835	-25.2	-0.168604	0.502396	0.951112	0.9045	-0.0855	0.021	0	180	876	1
2026-02-12	16:07:23.090	3.85	-17.71	-26.635	-0.23302	0.482876	0.933056	0.9	-0.087	0.0195	0	180	876	1
2026-02-12	16:07:23.110	-6.02	-16.38	-33.915	-0.265228	0.39528	0.826916	0.888	-0.0855	0.018	0	180	876	1
2026-02-12	16:07:23.130	-11.165	-21.595	-30.66	-0.312076	0.46726	0.822768	0.8955	-0.087	0.021	0	180	876	1
2026-02-12	16:07:23.150	-6.37	-20.16	-38.955	-0.293288	0.446032	0.815448	0.903	-0.0855	0.021	0	180	876	1
2026-02-12	16:07:23.170	3.22	-15.925	-44.87	-0.243756	0.404796	0.824476	0.8955	-0.0795	0.018	0	180	876	1
2026-02-12	16:07:23.190	5.985	-12.985	-43.05	-0.249856	0.417972	0.8479	0.8925	-0.078	0.015	0	180	876	1
2026-02-12	16:07:23.210	-0.14	-9.485	-43.575	-0.262788	0.419924	0.850584	0.8925	-0.075	0.018	0	179	871	1
2026-02-12	16:07:23.230	-2.975	-5.53	-51.275	-0.333548	0.346236	0.812764	0.894	-0.0735	0.024	0	179	871	1
2026-02-12	16:07:23.250	-6.58	-9.135	-51.87	-0.266204	0.34648	0.780068	0.894	-0.0765	0.0165	0	179	871	1
2026-02-12	16:07:23.270	-4.515	-12.18	-47.81	-0.27084	0.31354	0.813984	0.891	-0.075	0.009	0	179	871	1
2026-02-12	16:07:23.290	-1.61	-8.89	-41.195	-0.295972	0.291824	0.811788	0.8835	-0.072	0.009	0	179	871	1
2026-02-12	16:07:23.310	-0.665	-6.86	-33.88	-0.28182	0.371124	0.869616	0.873	-0.069	0.009	0	179	871	1
2026-02-12	16:07:23.330	-1.05	-6.125	-33.495	-0.414068	0.309392	0.88572	0.873	-0.066	0.0075	0	179	871	1
2026-02-12	16:07:23.350	0.56	-5.145	-32.2	-0.380396	0.288164	0.948916	0.873	-0.066	0.0075	0	179	871	1
2026-02-12	16:07:23.370	0.56	-1.47	-23.555	-0.36966	0.301096	0.9821	0.8775	-0.0585	0.0045	0	179	871	1
2026-02-12	16:07:23.390	2.17	2.135	-13.545	-0.393084	0.358924	0.980392	0.897	-0.063	0.009	0	179	871	1
2026-02-12	16:07:23.410	0.7	2.73	-11.69	-0.490196	0.343064	1.005768	0.87	-0.054	0.012	0	177	872	1
2026-02-12	16:07:23.430	-0.35	2.03	-16.52	-0.449204	0.27084	0.965508	0.879	-0.0615	0.0075	0	177	872	1
2026-02-12	16:07:23.450	-1.89	-3.115	-9.205	-0.438956	0.27572	1.007476	0.957	-0.0525	0.003	0	177	872	1
2026-02-12	16:07:23.470	-5.88	-6.475	-0.245	-0.398208	0.334768	1.074332	0.888	-0.0615	0.009	0	177	872	1
2026-02-12	16:07:23.490	-10.36	-2.835	4.76	-0.473116	0.324032	1.065548	0.9	-0.057	0.0105	0	177	872	1
2026-02-12	16:07:23.510	-15.82	-2.415	-1.47	-0.515816	0.237168	1.008696	0.8835	-0.051	0.0135	0	177	872	1
2026-02-12	16:07:23.530	-22.575	-6.86	-1.4	-0.519476	0.23058	1.007476	0.9045	-0.0435	0.0135	0	177	872	1
2026-02-12	16:07:23.550	-27.3	-7.21	-2.485	-0.424316	0.173728	1.002108	0.9015	-0.042	0.0195	0	177	872	1
2026-02-12	16:07:23.570	-22.54	-7.595	-1.54	-0.37088	-0.030012	0.851316	0.8985	-0.0435	0.0165	0	177	872	1
2026-02-12	16:07:23.590	-6.72	-11.41	12.565	-0.24888	0.105408	1.042856	0.8865	-0.024	0.0135	0	177	872	1
2026-02-12	16:07:23.610	-8.645	-6.055	22.785	-0.29524	0.238632	0.969412	0.8955	-0.0255	0.0225	0	174	889	1
2026-02-12	16:07:23.630	2.73	3.255	3.675	-0.29646	0.07564	0.919636	0.888	-0.0255	0.027	0	174	889	1
2026-02-12	16:07:23.650	4.305	-2.31	2.73	-0.262788	0.030744	0.914268	0.8925	-0.033	0.0225	0	174	889	1
2026-02-12	16:07:23.670	6.895	-3.99	9.17	-0.29768	0.08295999	0.9638	0.906	-0.027	0.036	0	174	889	1
2026-02-12	16:07:23.690	8.365	0.805	7.84	-0.309636	0.09467199	0.940376	0.891	-0.0315	0.03	0	174	889	1
2026-02-12	16:07:23.710	4.445	0.49	7.035	-0.313052	0.12932	0.908656	0.8985	-0.0255	0.024	0	174	889	1
2026-02-12	16:07:23.730	2.45	-0.595	6.86	-0.339648	0.183488	0.862784	0.9015	-0.0285	0.0225	0	174	889	1
2026-02-12	16:07:23.750	5.075	0.175	3.57	-0.336232	0.16104	0.822768	0.897	-0.0285	0.0285	0	174	889	1
2026-02-12	16:07:23.770	1.96	-4.2	7.07	-0.366488	0.181536	0.784216	0.909	-0.0225	0.0375	0	174	889	1
2026-02-12	16:07:23.790	2.94	-9.625	8.785	-0.35014	0.19154	0.790316	0.8955	-0.0315	0.0285	0	174	889	1
2026-02-12	16:07:23.810	10.22	-10.675	10.71	-0.338428	0.228628	0.782752	0.894	-0.0285	0.0285	0	172	907	1
2026-02-12	16:07:23.830	15.26	-11.445	12.425	-0.314516	0.251808	0.776408	0.8835	-0.033	0.0255	0	172	907	1
2026-02-12	16:07:23.850	17.955	-11.585	14.595	-0.328668	0.286212	0.755424	0.873	-0.0375	0.0225	0	172	907	1
2026-02-12	16:07:23.870	13.65	-13.86	18.165	-0.382348	0.30866	0.786656	0.876	-0.0345	0.0225	0	172	907	1
2026-02-12	16:07:23.890	9.1	-16.345	10.71	-0.321592	0.318908	0.80032	0.882	-0.039	0.0255	0	172	907	1
2026-02-12	16:07:23.910	5.53	-17.115	5.04	-0.32696	0.321592	0.784948	0.885	-0.045	0.0255	0	172	907	1
2026-02-12	16:07:23.930	1.365	-21.385	1.925	-0.346236	0.346724	0.740296	0.873	-0.042	0.021	0	172	907	1
2026-02-12	16:07:23.950	-4.375	-31.815	-4.025	-0.359168	0.344284	0.745908	0.87	-0.042	0.0225	0	172	907	1
2026-02-12	16:07:23.970	-9.205	-41.65	-8.68	-0.360876	0.335744	0.798368	0.87	-0.048	0.0225	0	172	907	1
2026-02-12	16:07:23.990	-16.94	-46.725	-13.685	-0.383568	0.344528	0.8235	0.861	-0.048	0.018	0	172	907	1
2026-02-12	16:07:24.010	-20.44	-47.88	-20.475	-0.377956	0.327448	0.832772	0.864	-0.0435	0.0165	0	171	906	1
2026-02-12	16:07:24.030	-18.935	-46.865	-24.92	-0.392352	0.3416	0.8845	0.858	-0.036	0.012	0	171	906	1
2026-02-12	16:07:24.050	-16.765	-42.665	-28.91	-0.377468	0.349164	0.941352	0.8355	-0.0285	0.0075	0	171	906	1
2026-02-12	16:07:24.070	-27.86	-41.965	-33.495	-0.36722	0.368196	1.100928	0.8175	-0.027	0.009	0	171	906	1
2026-02-12	16:07:24.090	-18.585	-26.495	-43.26	-0.294508	0.361364	1.153144	0.8175	-0.018	0.003	0	171	906	1
2026-02-12	16:07:24.110	-15.995	-14.945	-49.735	-0.28548	0.272548	1.186816	0.8265	-0.006	0	0	171	906	1
2026-02-12	16:07:24.130	-7.245	-8.085	-48.405	-0.386008	0.304512	1.225856	0.822	-0.0045	0.006	0	171	906	1
2026-02-12	16:07:24.150	-0.77	-2.38	-55.23	-0.40382	0.339648	1.190476	0.813	-0.003	0.006	0	171	906	1
2026-02-12	16:07:24.170	6.37	0.49	-64.96	-0.372344	0.269376	1.116788	0.8115	-0.0015	0.0045	0	171	906	1
2026-02-12	16:07:24.190	10.92	-3.01	-62.93	-0.373076	0.264008	1.123864	0.8175	-0.006	0.0045	0	171	906	1
2026-02-12	16:07:24.210	14.56	-1.995	-61.775	-0.37088	0.281576	1.125816	0.816	-0.003	0	0	170	912	1
2026-02-12	16:07:24.230	13.825	-0.7	-63.63	-0.276452	0.233996	1.07116	0.804	-0.0015	-0.0045	0	170	912	1
2026-02-12	16:07:24.250	22.785	-0.945	-59.78	-0.20008	0.212524	1.03944	0.7995	-0.003	-0.0045	0	170	912	1
2026-02-12	16:07:24.270	28.945	-0.245	-52.185	-0.162992	0.202276	1.07116	0.792	-0.0045	-0.009	0	170	912	1
2026-02-12	16:07:24.290	41.615	7.07	-46.97	-0.102968	0.202276	0.97356	0.7905	-0.0045	-0.015	0	170	912	1
2026-02-12	16:07:24.310	40.53	4.515	-43.225	-0.147376	0.200812	0.951356	0.7935	-0.0075	-0.0105	0	170	912	1
2026-02-12	16:07:24.330	36.085	1.855	-46.41	-0.105652	0.206424	0.90158	0.795	-0.0135	-0.0105	0	170	912	1
2026-02-12	16:07:24.350	42.105	4.095	-46.97	-0.070272	0.17568	0.784216	0.795	-0.0195	-0.0105	0	170	912	1
2026-02-12	16:07:24.370	45.5	-6.16	-40.39	-0.105164	0.195688	0.808128	0.792	-0.0285	-0.006	0	170	912	1
2026-02-12	16:07:24.390	46.06	-12.145	-35.315	-0.113216	0.240584	0.853756	0.7935	-0.033	-0.012	0	170	912	1
2026-02-12	16:07:24.410	43.015	-11.83	-36.015	-0.117852	0.229604	0.827404	0.7875	-0.0345	-0.0135	0	170	932	1
2026-02-12	16:07:24.430	32.48	-19.04	-33.74	-0.140788	0.254004	0.854976	0.7965	-0.0375	-0.009	0	170	932	1
2026-02-12	16:07:24.450	21.735	-24.255	-32.585	-0.152744	0.257664	0.854488	0.795	-0.0465	-0.0075	0	170	932	1
2026-02-12	16:07:24.470	12.18	-30.065	-31.115	-0.199836	0.258396	0.851316	0.7785	-0.051	-0.006	0	170	932	1
2026-02-12	16:07:24.490	3.465	-36.96	-30.485	-0.232532	0.288164	0.897188	0.7725	-0.0525	-0.009	0	170	932	1
2026-02-12	16:07:24.510	-3.64	-37.03	-34.65	-0.226676	0.253028	0.893528	0.7635	-0.0495	-0.009	0	170	932	1
2026-02-12	16:07:24.530	-5.285	-36.19	-34.44	-0.238144	0.21594	0.889868	0.762	-0.045	-0.006	0	170	932	1
2026-02-12	16:07:24.550	-8.085	-37.8	-29.4	-0.262788	0.216672	0.948672	0.762	-0.045	-0.006	0	170	932	1
2026-02-12	16:07:24.570	-7	-33.355	-27.3	-0.260592	0.165676	0.982832	0.762	-0.045	-0.006	0	170	932	1
2026-02-12	16:07:24.590	-1.12	-28.245	-21.77	-0.266204	0.227652	0.934764	0.762	-0.045	-0.006	0	170	932	1
2026-02-12	16:07:24.610	-0.35	-24.325	-21.14	-0.263764	0.217648	0.961848	0.7485	-0.045	-0.024	0	169	943	1
2026-02-12	16:07:24.630	3.99	-19.39	-21.28	-0.215452	0.16836	0.959408	0.72	-0.0465	-0.021	0	169	943	1
2026-02-12	16:07:24.650	2.835	-16.59	-12.95	-0.234972	0.1952	0.982832	0.7215	-0.039	-0.0165	0	169	943	1
2026-02-12	16:07:24.670	1.225	-13.405	-8.33	-0.229116	0.17934	1.01626	0.7275	-0.0405	-0.0195	0	169	943	1
2026-02-12	16:07:24.690	-0.525	-8.12	-1.295	-0.23668	0.189832	0.99796	0.7335	-0.0285	-0.0165	0	169	943	1
2026-02-12	16:07:24.710	-2.695	-6.09	3.605	-0.286212	0.202276	1.03822	0.7245	-0.036	-0.027	0	169	943	1
2026-02-12	16:07:24.730	-5.95	-0.455	3.99	-0.315248	0.213256	1.029924	0.72	-0.0435	-0.0195	0	169	943	1
2026-02-12	16:07:24.750	-9.45	2.8	3.955	-0.338672	0.195932	1.060668	0.711	-0.039	-0.0255	0	169	943	1
2026-02-12	16:07:24.770	-10.395	8.365	5.705	-0.362828	0.205936	1.101904	0.7365	-0.0255	-0.018	0	169	943	1
2026-02-12	16:07:24.790	-14.98	15.89	5.705	-0.363072	0.19276	1.086044	0.72	-0.033	-0.0225	0	169	943	1
2026-02-12	16:07:24.810	-18.62	19.705	6.965	-0.393572	0.185684	1.083604	0.7365	-0.03	-0.027	0	168	954	1
2026-02-12	16:07:24.830	-22.26	20.965	8.995	-0.397232	0.185684	1.10776	0.744	-0.0255	-0.018	0	168	954	1
2026-02-12	16:07:24.850	-27.3	23.52	11.2	-0.418948	0.176168	1.137528	0.7455	-0.0225	-0.018	0	168	954	1
2026-02-12	16:07:24.870	-30.1	28.56	13.23	-0.434076	0.164456	1.150216	0.7455	-0.0225	-0.018	0	168	954	1
2026-02-12	16:07:24.890	-31.815	33.81	17.465	-0.436028	0.13908	1.102636	0.7395	-0.0195	-0.018	0	168	954	1
2026-02-12	16:07:24.910	-29.47	34.195	20.475	-0.441152	0.131516	1.095804	0.7335	-0.018	-0.018	0	168	954	1
2026-02-12	16:07:24.930	-31.185	37.38	32.41	-0.410408	0.192272	1.081896	0.7455	-0.012	-0.0165	0	168	954	1
2026-02-12	16:07:24.950	-33.25	34.475	33.39	-0.26718	0.12078	1.158756	0.747	-0.003	-0.012	0	168	954	1
2026-02-12	16:07:24.970	-36.19	38.36	41.23	-0.276208	0.14152	1.131184	0.747	0.0015	-0.009	0	168	954	1
2026-02-12	16:07:24.990	-29.4	38.92	47.285	-0.157136	0.116144	1.099708	0.7605	0.003	-0.006	0	168	954	1
2026-02-12	16:07:25.010	-22.015	41.055	50.68	-0.11346	0.17568	0.970876	0.7755	0.012	0	0	165	978	1
2026-02-12	16:07:25.030	-4.515	37.8	45.745	-0.09272	0.167628	0.951844	0.786	0.021	0.003	0	165	978	1
2026-02-12	16:07:25.050	7.875	36.26	43.4	-0.105652	0.162016	0.803736	0.795	0.0165	0.003	0	165	978	1
2026-02-12	16:07:25.070	17.85	25.55	38.815	-0.096624	0.100772	0.830088	0.8025	0.0105	0	0	165	978	1
2026-02-12	16:07:25.090	24.64	19.985	42.035	-0.108824	0.102968	0.865224	0.8085	0.009	0	0	165	978	1
2026-02-12	16:07:25.110	27.895	21.735	46.62	-0.186416	0.146644	0.858148	0.8175	0.0075	0.0015	0	165	978	1
2026-02-12	16:07:25.130	20.37	21.945	46.795	-0.257176	0.175436	0.823012	0.804	0	0.0045	0	165	978	1
2026-02-12	16:07:25.150	6.895	17.325	45.92	-0.25742	0.195932	0.778848	0.7965	-0.003	0.0105	0	165	978	1
2026-02-12	16:07:25.170	-5.215	6.23	50.75	-0.329644	0.21472	0.7564	0.81	-0.003	0.0105	0	165	978	1
2026-02-12	16:07:25.190	-9.275	-4.13	52.71	-0.340624	0.282552	0.774456	0.828	-0.0045	0.006	0	165	978	1
2026-02-12	16:07:25.210	-9.31	-7.14	46.97	-0.361852	0.273036	0.773236	0.84	-0.0075	0.0045	0	164	989	1
2026-02-12	16:07:25.230	-11.27	-10.85	44.24	-0.3294	0.274256	0.742248	0.837	-0.009	0.0045	0	164	989	1
2026-02-12	16:07:25.250	-10.85	-18.515	45.36	-0.305732	0.28182	0.760792	0.837	-0.0045	0.0075	0	164	989	1
2026-02-12	16:07:25.270	-8.26	-25.27	47.285	-0.303048	0.305488	0.807152	0.825	-0.0045	0.0105	0	164	989	1
2026-02-12	16:07:25.290	-6.755	-27.265	44.905	-0.331108	0.34038	0.83082	0.822	-0.0045	0.0045	0	164	989	1
2026-02-12	16:07:25.310	-8.995	-27.615	39.06	-0.329888	0.363316	0.864736	0.8295	-0.0015	0	0	164	989	1
2026-02-12	16:07:25.330	-3.955	-19.67	32.865	-0.319152	0.345748	0.85644	0.816	0.0015	0.0015	0	164	989	1
2026-02-12	16:07:25.350	1.575	-13.86	29.225	-0.358192	0.366976	0.832528	0.807	0	0.003	0	164	989	1
2026-02-12	16:07:25.370	2.73	-12.32	24.255	-0.370148	0.40016	0.857172	0.7995	-0.0075	0.003	0	164	989	1
2026-02-12	16:07:25.390	1.505	-11.55	16.66	-0.367708	0.383568	0.899628	0.798	-0.006	0.003	0	164	989	1
2026-02-12	16:07:25.410	3.885	-7.7	10.99	-0.3721	0.382592	0.922808	0.7995	-0.003	0	0	164	972	1
2026-02-12	16:07:25.430	7.77	-3.535	4.865	-0.360144	0.402844	0.929884	0.813	-0.003	0	0	164	972	1
2026-02-12	16:07:25.450	4.655	-4.76	-2.625	-0.338672	0.409188	0.962336	0.8145	-0.006	0.003	0	164	972	1
2026-02-12	16:07:25.470	-1.4	-11.55	-9.275	-0.295972	0.34404	1.01992	0.795	-0.012	0	0	164	972	1
2026-02-12	16:07:25.490	-5.425	-7.35	-10.325	-0.283284	0.329644	1.0431	0.786	-0.009	-0.003	0	164	972	1
2026-02-12	16:07:25.510	-4.095	-0.665	-9.73	-0.327448	0.354532	1.016992	0.786	-0.006	-0.0075	0	164	972	1
2026-02-12	16:07:25.530	-4.445	-1.015	-12.46	-0.361364	0.368684	1.026508	0.8055	-0.0015	-0.012	0	164	972	1
2026-02-12	16:07:25.550	-7.56	0.665	-20.545	-0.35502	0.372344	1.092632	0.807	0	-0.0075	0	164	972	1
2026-02-12	16:07:25.570	-6.615	8.015	-23.345	-0.353068	0.342332	0.981612	0.792	0	-0.006	0	164	972	1
2026-02-12	16:07:25.590	-5.285	-2.52	-21.28	-0.291092	0.296704	1.00284	0.7935	-0.0015	-0.003	0	164	972	1
2026-02-12	16:07:25.610	-3.535	-17.57	-15.995	-0.23058	0.30012	1.110932	0.8025	0.0015	-0.003	0	164	959	1
2026-02-12	16:07:25.630	-0.035	-20.86	-14.7	-0.176168	0.299632	1.16632	0.7995	0.0075	-0.003	0	164	959	1
2026-02-12	16:07:25.650	3.01	-15.715	-19.25	-0.166896	0.284504	1.128744	0.78	0.0045	-0.0045	0	164	959	1
2026-02-12	16:07:25.670	5.145	-11.585	-26.74	-0.155672	0.246684	1.048468	0.783	0	-0.006	0	164	959	1
2026-02-12	16:07:25.690	16.45	-7.665	-31.64	-0.13298	0.199836	0.895236	0.8145	0.003	-0.006	0	164	959	1
2026-02-12	16:07:25.710	32.095	-13.93	-30.38	-0.120292	0.229604	0.856684	0.819	0.003	-0.009	0	164	959	1
2026-02-12	16:07:25.730	39.9	-22.12	-31.255	-0.089548	0.252784	0.921344	0.8055	-0.006	-0.0075	0	164	959	1
2026-02-12	16:07:25.750	38.815	-22.085	-35.49	-0.080764	0.252784	0.956724	0.7995	-0.009	-0.0045	0	164	959	1
2026-02-12	16:07:25.770	35.49	-16.625	-38.01	-0.055632	0.208376	0.93818	0.7965	-0.0075	-0.0045	0	164	959	1
2026-02-12	16:07:25.790	23.24	-15.19	-32.76	-0.069052	0.21716	0.88206	0.7965	-0.0075	-0.0045	0	164	959	1
2026-02-12	16:07:25.810	6.405	-17.85	-28.525	-0.085156	0.180072	0.874252	0.7965	-0.0075	-0.0045	0	164	962	1
2026-02-12	16:07:25.830	-2.52	-20.3	-21.7	-0.137372	0.25376	0.859856	0.7665	-0.009	-0.012	0	164	962	1
2026-02-12	16:07:25.850	-10.255	-18.34	-22.96	-0.116632	0.308172	0.836188	0.7815	-0.021	-0.003	0	164	962	1
2026-02-12	16:07:25.870	-11.83	-16.87	-28.945	-0.202276	0.245708	0.785192	0.774	-0.018	-0.0015	0	164	962	1
2026-02-12	16:07:25.890	-9.835	-19.145	-31.43	-0.168604	0.294996	0.875716	0.759	-0.015	-0.012	0	164	962	1
2026-02-12	16:07:25.910	-11.935	-13.545	-35.98	-0.157624	0.243024	0.884012	0.7815	-0.003	0	0	164	962	1
2026-02-12	16:07:25.930	-15.82	-10.325	-31.78	-0.1586	0.245464	0.867908	0.7815	-0.003	0	0	164	962	1
2026-02-12	16:07:25.950	-18.165	-12.915	-28.105	-0.182024	0.284748	0.895968	0.7815	-0.003	0	0	164	962	1
2026-02-12	16:07:25.970	-16.8	-12.915	-29.75	-0.194956	0.282064	0.892552	0.7815	-0.003	0	0	164	962	1
2026-02-12	16:07:25.990	-12.95	-11.97	-31.57	-0.173484	0.270108	0.859368	0.7605	-0.0045	-0.003	0	164	962	1
2026-02-12	16:07:26.010	-5.075	-15.89	-30.45	-0.227408	0.321348	0.943304	0.741	-0.006	-0.0075	0	164	961	1
2026-02-12	16:07:26.030	-6.3	-15.645	-33.32	-0.220088	0.323788	0.9943	0.735	0	-0.0105	0	164	961	1
2026-02-12	16:07:26.050	-6.335	-7.07	-39.375	-0.183732	0.243756	0.976244	0.7245	0.003	-0.015	0	164	961	1
2026-02-12	16:07:26.070	-4.515	-6.335	-34.93	-0.199592	0.223992	1.040904	0.723	0.0015	-0.015	0	164	961	1
2026-02-12	16:07:26.090	-5.075	-4.27	-28.665	-0.249124	0.253516	1.15778	0.7275	0.003	-0.021	0	164	961	1
2026-02-12	16:07:26.110	-9.31	7.245	-29.015	-0.255468	0.20862	1.124108	0.7245	0.009	-0.0225	0	164	961	1
2026-02-12	16:07:26.130	-8.75	11.41	-25.165	-0.300364	0.221552	1.050664	0.723	0.0105	-0.0165	0	164	961	1
2026-02-12	16:07:26.150	-5.705	5.635	-22.82	-0.32696	0.220332	1.121668	0.723	0.0045	-0.0195	0	164	961	1
2026-02-12	16:07:26.170	-5.985	7.49	-21.035	-0.331352	0.165676	1.129476	0.7245	0.006	-0.024	0	164	961	1
2026-02-12	16:07:26.190	-9.835	8.295	-10.08	-0.355752	0.09857599	1.064328	0.738	0.0105	-0.0195	0	164	961	1
2026-02-12	16:07:26.210	-11.13	0.875	8.435	-0.340624	0.146156	1.246108	0.7425	0.009	-0.0165	0	162	967	1
2026-02-12	16:07:26.230	-19.88	15.645	13.055	-0.325984	0.106384	1.187792	0.726	0.009	-0.015	0	162	967	1
2026-02-12	16:07:26.250	-4.515	21.28	16.345	-0.333304	0.06832	1.017236	0.723	0.015	-0.0105	0	162	967	1
2026-02-12	16:07:26.270	-18.375	-1.715	24.08	-0.26474	0.361852	1.100928	0.729	0.0195	-0.012	0	162	967	1
2026-02-12	16:07:26.290	-10.465	4.725	0.035	-0.226432	0.093452	1.139968	0.729	0.024	-0.009	0	162	967	1
2026-02-12	16:07:26.310	-1.575	13.16	2.835	-0.184464	0.167628	1.200236	0.7305	0.0315	-0.0015	0	162	967	1
2026-02-12	16:07:26.330	7.21	27.475	-2.87	-0.119804	0.108092	1.03944	0.7365	0.0315	-0.0015	0	162	967	1
2026-02-12	16:07:26.350	14.98	19.25	-0.42	-0.126148	0.095404	0.994788	0.741	0.0255	0	0	162	967	1
2026-02-12	16:07:26.370	20.475	13.02	1.225	-0.100772	0.061976	0.971364	0.741	0.0255	0	0	162	967	1
2026-02-12	16:07:26.390	25.2	10.01	3.01	-0.105164	0.024156	0.909144	0.7455	0.027	-0.0015	0	162	967	1
2026-02-12	16:07:26.410	27.055	1.12	8.68	-0.091012	0.018056	0.924516	0.7545	0.0195	-0.0015	0	162	988	1
2026-02-12	16:07:26.430	25.2	-1.89	16.695	-0.143472	0.063684	0.9699	0.7635	0.018	-0.0045	0	162	988	1
2026-02-12	16:07:26.450	20.195	1.26	20.65	-0.179096	0.132492	0.94306	0.762	0.018	-0.0105	0	162	988	1
2026-02-12	16:07:26.470	14	6.79	19.985	-0.207888	0.160308	0.860344	0.7515	0.015	-0.009	0	162	988	1
2026-02-12	16:07:26.490	9.94	5.495	19.355	-0.266204	0.18422	0.805444	0.7455	0.012	-0.003	0	162	988	1
2026-02-12	16:07:26.510	6.965	1.015	17.325	-0.271084	0.18666	0.78812	0.7485	0.0105	-0.003	0	162	988	1
2026-02-12	16:07:26.530	8.785	-0.455	18.55	-0.280112	0.194956	0.716384	0.7515	0.012	-0.0075	0	162	988	1
2026-02-12	16:07:26.550	13.09	-7.665	21.315	-0.30378	0.228628	0.770552	0.7455	0.006	-0.012	0	162	988	1
2026-02-12	16:07:26.570	9.835	-10.64	20.195	-0.30256	0.26474	0.800076	0.7395	0.006	-0.015	0	162	988	1
2026-02-12	16:07:26.590	11.34	-7.875	16.625	-0.282796	0.245952	0.775432	0.738	0.0105	-0.0135	0	162	988	1
2026-02-12	16:07:26.610	6.09	-13.895	18.48	-0.259372	0.264252	0.828624	0.7335	0.0075	-0.012	0	162	995	1
2026-02-12	16:07:26.630	3.115	-15.225	20.23	-0.302072	0.304512	0.884256	0.7275	0.0075	-0.012	0	162	995	1
2026-02-12	16:07:26.650	2.1	-12.25	16.905	-0.326472	0.335988	0.892552	0.7665	0.012	-0.015	0	162	995	1
2026-02-12	16:07:26.670	1.925	-9.87	11.305	-0.331108	0.345016	0.903532	0.7575	0.009	-0.018	0	162	995	1
2026-02-12	16:07:26.690	0.42	-8.785	6.335	-0.371124	0.366	0.955992	0.72	0.0045	-0.0165	0	162	995	1
2026-02-12	16:07:26.710	2.94	-2.17	-0.21	-0.348432	0.350384	0.969412	0.7275	0.003	-0.018	0	162	995	1
2026-02-12	16:07:26.730	4.27	2.065	-1.89	-0.330864	0.346968	1.013332	0.7305	0	-0.0195	0	162	995	1
2026-02-12	16:07:26.750	3.465	6.755	-1.715	-0.29768	0.34648	1.03822	0.7365	0.0105	-0.015	0	162	995	1
2026-02-12	16:07:26.770	-0.77	9.31	-2.975	-0.263032	0.35746	1.074332	0.7245	0.0135	-0.0165	0	162	995	1
2026-02-12	16:07:26.790	-2.835	12.18	-6.405	-0.261324	0.344284	1.074088	0.72	0.0105	-0.021	0	162	995	1
2026-02-12	16:07:26.810	-5.11	11.235	-8.295	-0.280112	0.354532	1.11752	0.7275	0.009	-0.0195	0	163	985	1
2026-02-12	16:07:26.830	-7.07	14.56	-12.145	-0.27084	0.328424	1.072136	0.729	0.009	-0.024	0	163	985	1
2026-02-12	16:07:26.850	-3.57	12.705	-11.83	-0.278648	0.346968	1.001132	0.7335	0.0105	-0.027	0	163	985	1
2026-02-12	16:07:26.870	1.89	2.8	-12.285	-0.286944	0.360632	1.001864	0.7395	0.0105	-0.0225	0	163	985	1
2026-02-12	16:07:26.890	2.625	-7.595	-14.42	-0.234484	0.357948	1.070428	0.7515	0.0135	-0.018	0	163	985	1
2026-02-12	16:07:26.910	1.995	-8.225	-19.355	-0.18178	0.322324	1.021628	0.7515	0.0135	-0.0135	0	163	985	1
2026-02-12	16:07:26.930	10.255	-16.87	-22.26	-0.103456	0.302804	1.023824	0.7425	0.0105	-0.0165	0	163	985	1
2026-02-12	16:07:26.950	19.705	-18.795	-30.87	-0.081984	0.27328	0.974536	0.75	0.015	-0.018	0	163	985	1
2026-02-12	16:07:26.970	34.545	-16.03	-39.445	-0.092232	0.263764	0.813008	0.75	0.015	-0.018	0	163	985	1
2026-02-12	16:07:26.990	41.545	-29.26	-46.935	-0.108336	0.270596	0.805444	0.747	0.012	-0.0165	0	163	985	1
2026-02-12	16:07:27.010	43.54	-41.265	-54.67	-0.060756	0.244976	0.844484	0.747	0.012	-0.0165	0	164	983	1
2026-02-12	16:07:27.030	47.46	-44.31	-53.83	-0.034404	0.204228	0.929884	0.747	0.012	-0.0165	0	164	983	1
2026-02-12	16:07:27.050	43.715	-42.84	-49.035	-0.031476	0.219844	0.978928	0.747	0.012	-0.0165	0	164	983	1
2026-02-12	16:07:27.070	27.09	-32.235	-40.32	-0.05612	0.233996	0.95648	0.723	-0.006	-0.0225	0	164	983	1
2026-02-12	16:07:27.090	10.71	-23.03	-34.09	-0.113704	0.249124	0.853024	0.6975	-0.024	-0.0255	0	164	983	1
2026-02-12	16:07:27.110	-3.115	-25.41	-31.395	-0.136152	0.264008	0.81984	0.693	-0.027	-0.0195	0	164	983	1
2026-02-12	16:07:27.130	-13.02	-31.535	-31.92	-0.122244	0.25498	0.85644	0.6825	-0.03	-0.0255	0	164	983	1
2026-02-12	16:07:27.150	-18.06	-33.635	-31.99	-0.123952	0.280356	0.97966	0.6795	-0.0255	-0.027	0	164	983	1
2026-02-12	16:07:27.170	-20.965	-21.91	-36.47	-0.11468	0.284016	0.991616	0.6705	-0.021	-0.0225	0	164	983	1
2026-02-12	16:07:27.190	-22.505	-10.71	-40.74	-0.12566	0.24644	0.955748	0.657	-0.021	-0.0225	0	164	983	1
2026-02-12	16:07:27.210	-20.93	-5.985	-40.215	-0.133956	0.237656	0.936716	0.669	-0.0165	-0.024	0	164	978	1
2026-02-12	16:07:27.230	-15.575	-3.78	-37.94	-0.12322	0.247904	0.898896	0.6675	-0.0135	-0.024	0	164	978	1
2026-02-12	16:07:27.250	-7.63	-6.58	-34.895	-0.125904	0.255468	0.939156	0.654	-0.015	-0.0255	0	164	978	1
2026-02-12	16:07:27.270	-1.785	-6.125	-33.005	-0.123708	0.254492	0.964776	0.6585	-0.012	-0.024	0	164	978	1
2026-02-12	16:07:27.290	3.745	-3.815	-31.08	-0.171532	0.139324	0.909876	0.6555	-0.012	-0.021	0	164	978	1
2026-02-12	16:07:27.310	11.795	-0.77	-25.865	-0.1342	0.3355	1.046028	0.645	-0.0105	-0.021	0	164	978	1
2026-02-12	16:07:27.330	8.505	8.33	-26.53	-0.188856	0.2806	1.014308	0.6465	-0.0075	-0.024	0	164	978	1
2026-02-12	16:07:27.350	13.545	11.48	-24.57	-0.193492	0.32452	1.065548	0.6495	-0.0135	-0.024	0	164	978	1
2026-02-12	16:07:27.370	20.37	21	-25.27	-0.181292	0.310856	1.029924	0.6615	-0.018	-0.021	0	164	978	1
2026-02-12	16:07:27.390	22.54	21.21	-15.645	-0.208864	0.270108	1.136064	0.6705	-0.024	-0.0255	0	164	978	1
2026-02-12	16:07:27.410	15.68	10.78	10.01	-0.196908	0.318176	1.181448	0.6735	-0.0255	-0.0285	0	162	978	1
2026-02-12	16:07:27.430	13.895	16.695	5.95	-0.175924	0.389668	1.211948	0.6675	-0.0255	-0.03	0	162	978	1
2026-02-12	16:07:27.450	8.085	21.525	-13.475	-0.206424	0.316224	1.127036	0.6525	-0.0375	-0.03	0	162	978	1
2026-02-12	16:07:27.470	10.115	13.965	-20.895	-0.270352	0.151036	1.065304	0.6675	-0.039	-0.0345	0	162	978	1
2026-02-12	16:07:27.490	22.19	11.445	-15.68	-0.266692	0.22204	1.023824	0.6795	-0.033	-0.033	0	162	978	1
2026-02-12	16:07:27.510	22.435	7	-13.055	-0.273036	0.184708	0.998936	0.6645	-0.039	-0.0255	0	162	978	1
2026-02-12	16:07:27.530	21.14	-2.275	-12.985	-0.264252	0.144692	1.019188	0.657	-0.0435	-0.024	0	162	978	1
2026-02-12	16:07:27.550	5.915	-12.145	-5.74	-0.280112	0.149084	1.013088	0.6555	-0.0465	-0.021	0	162	978	1
2026-02-12	16:07:27.570	2.1	-8.085	-7.42	-0.198128	0.160796	1.025288	0.6555	-0.0435	-0.018	0	162	978	1
2026-02-12	16:07:27.590	5.425	5.95	-12.6	-0.167628	0.0854	0.90036	0.66	-0.039	-0.015	0	162	978	1
2026-02-12	16:07:27.610	2.555	3.395	-6.23	-0.1586	0.074664	0.85522	0.6615	-0.0375	-0.0195	0	159	990	1
2026-02-12	16:07:27.630	3.745	2.695	-1.855	-0.133224	0.02684	0.825452	0.6615	-0.0375	-0.0225	0	159	990	1
2026-02-12	16:07:27.650	2.275	-2.8	8.12	-0.10858	0.046116	0.853512	0.6615	-0.042	-0.0195	0	159	990	1
2026-02-12	16:07:27.670	-1.155	-8.12	17.36	-0.13908	0.095648	0.904752	0.663	-0.0405	-0.0225	0	159	990	1
2026-02-12	16:07:27.690	-5.88	-9.695	20.58	-0.132004	0.131272	0.940376	0.669	-0.039	-0.03	0	159	990	1
2026-02-12	16:07:27.710	-13.16	-10.885	22.015	-0.160552	0.134688	0.900116	0.663	-0.036	-0.0285	0	159	990	1
2026-02-12	16:07:27.730	-12.915	-15.05	25.48	-0.213988	0.210572	0.879132	0.6465	-0.0345	-0.0225	0	159	990	1
2026-02-12	16:07:27.750	-10.885	-19.145	22.785	-0.231068	0.223992	0.854244	0.639	-0.0315	-0.021	0	159	990	1
2026-02-12	16:07:27.770	-10.36	-24.395	21.455	-0.235948	0.20374	0.8418	0.6375	-0.0255	-0.0165	0	159	990	1
2026-02-12	16:07:27.790	-3.465	-26.81	25.165	-0.252052	0.232532	0.843996	0.639	-0.024	-0.015	0	159	990	1
2026-02-12	16:07:27.810	4.725	-26.67	25.97	-0.238388	0.256932	0.84912	0.636	-0.027	-0.021	0	157	991	1
2026-02-12	16:07:27.830	6.58	-27.825	24.325	-0.234484	0.237412	0.888404	0.633	-0.027	-0.021	0	157	991	1
2026-02-12	16:07:27.850	2.415	-25.795	24.36	-0.203008	0.217892	0.874984	0.6285	-0.027	-0.0195	0	157	991	1
2026-02-12	16:07:27.870	3.01	-24.5	27.16	-0.22082	0.26352	0.850584	0.6135	-0.0315	-0.0225	0	157	991	1
2026-02-12	16:07:27.890	-2.695	-28.14	28.595	-0.232532	0.283528	0.919636	0.615	-0.0315	-0.0225	0	157	991	1
2026-02-12	16:07:27.910	-11.27	-25.13	26.39	-0.23302	0.28792	0.950868	0.6195	-0.033	-0.021	0	157	991	1
2026-02-12	16:07:27.930	-17.08	-18.27	22.89	-0.225944	0.31232	0.96502	0.6165	-0.0315	-0.0165	0	157	991	1
2026-02-12	16:07:27.950	-20.44	-14.49	20.44	-0.269864	0.347212	1.065548	0.6165	-0.024	-0.0165	0	157	991	1
2026-02-12	16:07:27.970	-18.445	-0.56	14.455	-0.275232	0.389912	1.111908	0.6165	-0.021	-0.018	0	157	991	1
2026-02-12	16:07:27.990	-11.69	14.84	6.335	-0.241316	0.36478	1.044564	0.615	-0.0225	-0.018	0	157	991	1
2026-02-12	16:07:28.010	-1.995	12.705	4.55	-0.217892	0.381616	1.077016	0.615	-0.018	-0.021	0	154	984	1
2026-02-12	16:07:28.030	3.85	10.64	0.56	-0.162748	0.3904	1.212924	0.618	-0.018	-0.018	0	154	984	1
2026-02-12	16:07:28.050	2.45	19.32	-4.2	-0.14274	0.334036	1.17852	0.6225	-0.021	-0.021	0	154	984	1
2026-02-12	16:07:28.070	6.195	20.195	-4.62	-0.151036	0.313784	1.168516	0.6315	-0.0165	-0.027	0	154	984	1
2026-02-12	16:07:28.090	11.62	17.115	-4.235	-0.177388	0.311344	1.164612	0.6315	-0.0165	-0.027	0	154	984	1
2026-02-12	16:07:28.110	11.725	14.665	-5.285	-0.223016	0.305976	1.141432	0.6405	-0.0165	-0.0285	0	154	984	1
2026-02-12	16:07:28.130	16.485	13.475	-5.53	-0.236192	0.313052	1.11264	0.6405	-0.0165	-0.0285	0	154	984	1
2026-02-12	16:07:28.150	22.12	9.345	-5.075	-0.216916	0.30744	1.056764	0.6435	-0.0195	-0.0255	0	154	984	1
2026-02-12	16:07:28.170	22.4	-1.155	-0.56	-0.14762	0.279136	1.045784	0.6255	-0.0135	-0.03	0	154	984	1
2026-02-12	16:07:28.190	18.025	-12.495	7.91	-0.111264	0.286944	1.123376	0.6405	-0.015	-0.03	0	154	984	1
2026-02-12	16:07:28.210	16.485	-10.675	7.56	-0.099552	0.333792	1.089948	0.6375	-0.039	-0.036	0	152	994	1
2026-02-12	16:07:28.230	27.93	-2.45	-4.235	-0.056364	0.294264	0.899872	0.6555	-0.021	-0.0285	0	152	994	1
2026-02-12	16:07:28.250	39.13	-9.94	-11.27	-0.036112	0.2562	0.844972	0.636	-0.03	-0.0195	0	152	994	1
2026-02-12	16:07:28.270	42.875	-15.68	-14.35	0.044164	0.358192	0.9943	0.648	-0.0405	-0.0105	0	152	994	1
2026-02-12	16:07:28.290	50.68	-8.47	-26.04	-0.003904	0.191784	0.823256	0.648	-0.0405	-0.0105	0	152	994	1
2026-02-12	16:07:28.310	49.175	-17.255	-19.005	0.04636	0.27084	0.895968	0.648	-0.0405	-0.0105	0	152	994	1
2026-02-12	16:07:28.330	40.075	-14	-17.255	-0.008296	0.271084	0.935496	0.639	-0.057	-0.0165	0	152	994	1
2026-02-12	16:07:28.350	31.255	-2.87	-16.765	-0.053924	0.275232	0.892064	0.6285	-0.075	-0.021	0	152	994	1
2026-02-12	16:07:28.370	22.365	3.5	-15.855	-0.122488	0.277184	0.783972	0.6345	-0.081	-0.021	0	152	994	1
2026-02-12	16:07:28.390	10.535	-6.195	-15.47	-0.088328	0.276452	0.766892	0.6315	-0.087	-0.021	0	152	994	1
2026-02-12	16:07:28.410	4.34	-14.49	-12.005	-0.122244	0.303292	0.848876	0.6255	-0.0885	-0.0195	0	151	1002	1
2026-02-12	16:07:28.430	-3.71	-9.905	-12.95	-0.145424	0.338672	0.909144	0.621	-0.09	-0.0225	0	151	1002	1
2026-02-12	16:07:28.450	-17.71	-3.465	-16.485	-0.09467199	0.280112	0.882304	0.615	-0.0945	-0.0255	0	151	1002	1
2026-02-12	16:07:28.470	-22.645	0.315	-14.63	-0.130296	0.292312	0.89426	0.6345	-0.087	-0.027	0	151	1002	1
2026-02-12	16:07:28.490	-25.515	5.53	-10.71	-0.154208	0.29524	0.885476	0.639	-0.0825	-0.0255	0	151	1002	1
2026-02-12	16:07:28.510	-23.17	9.24	-12.145	-0.152988	0.301828	0.886696	0.627	-0.0825	-0.024	0	151	1002	1
2026-02-12	16:07:28.530	-21	9.03	-13.685	-0.152744	0.29036	0.940864	0.624	-0.0735	-0.0255	0	151	1002	1
2026-02-12	16:07:28.550	-20.475	11.48	-12.635	-0.169824	0.282552	1.034072	0.6225	-0.0675	-0.024	0	151	1002	1
2026-02-12	16:07:28.570	-17.22	25.725	-11.62	-0.171288	0.27938	1.001132	0.6285	-0.0675	-0.0225	0	151	1002	1
2026-02-12	16:07:28.590	-15.225	31.185	-10.605	-0.168116	0.245952	0.919636	0.6435	-0.0645	-0.027	0	151	1002	1
2026-02-12	16:07:28.610	-7.63	21.84	-5.6	-0.173728	0.19276	0.978684	0.6525	-0.0615	-0.03	0	149	995	1
2026-02-12	16:07:28.630	-7.525	14.7	4.095	-0.154452	0.358436	0.974536	0.6345	-0.0585	-0.03	0	149	995	1
2026-02-12	16:07:28.650	-12.775	8.365	-12.25	-0.240828	0.321592	1.064328	0.6285	-0.057	-0.027	0	149	995	1
2026-02-12	16:07:28.670	-19.285	9.24	-29.33	-0.229116	0.23424	1.112152	0.636	-0.0555	-0.0285	0	149	995	1
2026-02-12	16:07:28.690	-29.085	14.175	-22.505	-0.180804	0.167384	1.088484	0.6465	-0.0465	-0.03	0	149	995	1
2026-02-12	16:07:28.710	-37.31	15.05	1.54	-0.19032	0.178608	1.130208	0.663	-0.042	-0.03	0	149	995	1
2026-02-12	16:07:28.730	-42.525	13.02	15.19	-0.237412	0.228384	1.133868	0.6705	-0.0435	-0.033	0	149	995	1
2026-02-12	16:07:28.750	-40.46	9.24	15.575	-0.213256	0.144448	1.090436	0.66	-0.0375	-0.039	0	149	995	1
2026-02-12	16:07:28.770	-33.53	0.42	25.795	-0.148108	0.097844	1.0919	0.6555	-0.027	-0.0345	0	149	995	1
2026-02-12	16:07:28.790	-26.635	-8.61	40.775	-0.128588	0.09857599	1.211704	0.657	-0.0255	-0.0315	0	149	995	1
2026-02-12	16:07:28.810	-14.455	-0.805	47.005	-0.14884	0.09857599	1.135332	0.657	-0.024	-0.03	0	148	996	1
2026-02-12	16:07:28.830	-1.12	3.675	44.905	-0.177144	0.104676	1.054812	0.651	-0.021	-0.03	0	148	996	1
2026-02-12	16:07:28.850	8.26	3.22	39.9	-0.174948	0.055388	1.036756	0.6495	-0.021	-0.0315	0	148	996	1
2026-02-12	16:07:28.870	13.475	4.76	40.775	-0.177632	0.043676	0.965996	0.6495	-0.0195	-0.03	0	148	996	1
2026-02-12	16:07:28.890	18.025	2.17	42.735	-0.153476	0.079544	0.982832	0.6525	-0.021	-0.0285	0	148	996	1
2026-02-12	16:07:28.910	6.02	3.08	40.74	-0.24522	0.101504	1.010404	0.663	-0.0195	-0.0255	0	148	996	1
2026-02-12	16:07:28.930	0.84	9.135	34.545	-0.231312	0.158356	0.988444	0.654	-0.021	-0.021	0	148	996	1
2026-02-12	16:07:28.950	-7.315	12.985	29.435	-0.221308	0.169336	0.893528	0.6525	-0.021	-0.021	0	148	996	1
2026-02-12	16:07:28.970	-13.86	10.57	28.875	-0.233264	0.16348	0.828624	0.681	-0.015	-0.024	0	148	996	1
2026-02-12	16:07:28.990	-15.015	6.755	32.585	-0.277184	0.172508	0.802272	0.6855	-0.0165	-0.027	0	148	996	1
2026-02-12	16:07:29.010	-15.12	5.495	33.74	-0.283528	0.2135	0.8174	0.6645	-0.0165	-0.0285	0	147	1004	1
2026-02-12	16:07:29.030	-13.02	6.335	29.47	-0.304268	0.191296	0.834236	0.6615	-0.012	-0.0255	0	147	1004	1
2026-02-12	16:07:29.050	-13.685	8.855	28.245	-0.316712	0.2013	0.85522	0.6525	-0.015	-0.027	0	147	1004	1
2026-02-12	16:07:29.070	-15.295	12.67	28.385	-0.263764	0.122	0.757132	0.651	-0.0135	-0.0285	0	147	1004	1
2026-02-12	16:07:29.090	-8.015	8.225	29.89	-0.316956	0.277428	0.812764	0.66	-0.0045	-0.03	0	147	1004	1
2026-02-12	16:07:29.110	-15.96	-0.42	25.06	-0.277916	0.261812	0.941352	0.6615	-0.0045	-0.03	0	147	1004	1
2026-02-12	16:07:29.130	-20.16	5.635	12.67	-0.293776	0.150792	0.85888	0.6795	-0.0015	-0.0255	0	147	1004	1
2026-02-12	16:07:29.150	-16.38	11.69	5.215	-0.275476	0.21472	0.831796	0.6945	0.006	-0.024	0	147	1004	1
2026-02-12	16:07:29.170	-19.18	6.23	7.56	-0.295728	0.196176	0.860344	0.672	0.0015	-0.0255	0	147	1004	1
2026-02-12	16:07:29.190	-15.4	5.18	6.86	-0.292556	0.192028	0.87108	0.672	0.0015	-0.0255	0	147	1004	1
2026-02-12	16:07:29.210	-9.17	5.18	7.385	-0.316468	0.204472	0.8418	0.6855	0.012	-0.03	0	147	995	1
2026-02-12	16:07:29.230	-3.15	0.245	8.365	-0.324276	0.23302	0.910852	0.8205	0.0255	-0.03	0	147	995	1
2026-02-12	16:07:29.250	-1.05	2.205	8.085	-0.206668	0.17812	0.834236	0.675	0.0075	-0.036	0	147	995	1
2026-02-12	16:07:29.270	-4.165	-28.84	-20.65	-0.547292	0.477264	0.176656	0.6765	0.0045	-0.033	0	147	995	1
2026-02-12	16:07:29.290	8.05	-88.76	-42.35	-0.053192	-0.152012	1.813652	0.672	0.012	-0.0405	0	147	995	1
2026-02-12	16:07:29.310	-4.725	45.745	35.875	-0.332328	0.089304	0.624396	0.6405	0.015	-0.048	0	147	995	1
2026-02-12	16:07:29.330	1.995	37.345	51.52	-0.335256	0.359656	0.951112	0.654	0.009	-0.0495	0	147	995	1
2026-02-12	16:07:29.350	-4.165	21.035	33.075	-0.41968	0.403088	0.824232	0.6675	0.0045	-0.039	0	147	995	1
2026-02-12	16:07:29.370	-5.635	-31.675	1.68	-0.320128	0.345992	1.106784	0.678	0.0225	-0.0315	0	147	995	1
2026-02-12	16:07:29.390	5.53	-40.985	-11.97	-0.33184	0.165432	1.230248	0.684	0.0045	-0.03	0	147	995	1
2026-02-12	16:07:29.410	13.825	-10.605	3.045	-0.28792	0.24278	1.139968	0.66	0.0105	-0.042	0	151	977	1
2026-02-12	16:07:29.430	15.925	-6.51	7.945	-0.242048	0.257176	0.952576	0.645	0.018	-0.048	0	151	977	1
2026-02-12	16:07:29.450	19.005	-29.295	5.775	-0.204472	0.28914	1.164368	0.66	0.0105	-0.0405	0	151	977	1
2026-02-12	16:07:29.470	20.16	-27.195	0.07	-0.120536	0.261568	1.27734	0.6435	0.015	-0.045	0	151	977	1
2026-02-12	16:07:29.490	16.03	-5.915	-8.68	-0.118828	0.149816	1.119472	0.6705	0.0075	-0.042	0	151	977	1
2026-02-12	16:07:29.510	23.59	0.595	-9.17	-0.105896	0.15006	0.909388	0.642	0	-0.048	0	151	977	1
2026-02-12	16:07:29.530	33.005	-11.025	0.105	-0.132492	0.133712	1.0126	0.663	0.0075	-0.0435	0	151	977	1
2026-02-12	16:07:29.550	35.98	2.66	3.815	-0.131272	0.180804	0.86986	0.663	0.0075	-0.0435	0	151	977	1
2026-02-12	16:07:29.570	36.4	0.455	-5.775	-0.05612	0.202032	0.875716	0.663	0.0075	-0.0435	0	151	977	1
2026-02-12	16:07:29.590	32.025	-10.36	-10.36	0.00122	0.17568	0.992104	0.657	-0.0165	-0.039	0	151	977	1
2026-02-12	16:07:29.610	25.935	-5.53	-4.095	0	0.232044	0.975024	0.654	-0.039	-0.0375	0	159	976	1
2026-02-12	16:07:29.630	8.05	0.245	-6.09	-0.014152	0.246196	0.95526	0.6465	-0.036	-0.0435	0	159	976	1
2026-02-12	16:07:29.650	2.135	6.615	-9.065	-0.048312	0.171044	0.819596	0.648	-0.0345	-0.0435	0	159	976	1
2026-02-12	16:07:29.670	-7.77	-0.7	0.63	-0.080764	0.187392	0.839848	0.666	-0.036	-0.039	0	159	976	1
2026-02-12	16:07:29.690	-12.215	-5.81	6.09	-0.127612	0.218136	0.934032	0.6615	-0.0345	-0.0375	0	159	976	1
2026-02-12	16:07:29.710	-6.02	1.715	-1.19	-0.095404	0.323056	0.908412	0.6525	-0.0315	-0.036	0	159	976	1
2026-02-12	16:07:29.730	-11.06	5.005	-9.24	-0.161284	0.316956	0.89304	0.6495	-0.0315	-0.0345	0	159	976	1
2026-02-12	16:07:29.750	-11.305	4.06	-20.79	-0.155672	0.31232	0.929396	0.648	-0.03	-0.0375	0	159	976	1
2026-02-12	16:07:29.770	-11.76	2.87	-25.235	-0.10004	0.220576	0.815448	0.6495	-0.03	-0.0405	0	159	976	1
2026-02-12	16:07:29.790	-12.075	-5.04	-17.955	-0.173484	0.274744	0.87474	0.6525	-0.0255	-0.039	0	159	976	1
2026-02-12	16:07:29.810	-6.93	-3.395	-19.32	-0.129564	0.298656	0.879376	0.651	-0.021	-0.039	0	167	976	1
2026-02-12	16:07:29.830	-10.85	-4.55	-20.055	-0.157136	0.303048	1.013332	0.6405	-0.0225	-0.0375	0	167	976	1
2026-02-12	16:07:29.850	-7	11.34	-20.86	-0.223016	0.272548	0.974292	0.642	-0.021	-0.036	0	167	976	1
2026-02-12	16:07:29.870	-2.1	15.225	-21.42	-0.232532	0.295972	0.986492	0.645	-0.0225	-0.0375	0	167	976	1
2026-02-12	16:07:29.890	-0.245	6.37	-19.67	-0.211304	0.342088	1.003572	0.6525	-0.021	-0.0375	0	167	976	1
2026-02-12	16:07:29.910	-0.7	2.345	-19.39	-0.252052	0.247904	1.05042	0.6525	-0.0225	-0.042	0	167	976	1
2026-02-12	16:07:29.930	1.225	2.345	-9.555	-0.306952	0.267668	1.115324	0.6465	-0.0255	-0.039	0	167	976	1
2026-02-12	16:07:29.950	-0.945	10.395	-6.44	-0.334036	0.227896	1.023092	0.642	-0.018	-0.0375	0	167	976	1
2026-02-12	16:07:29.970	-5.285	5.67	-2.31	-0.2989	0.2501	1.086532	0.6435	-0.0165	-0.039	0	167	976	1
2026-02-12	16:07:29.990	-11.34	5.81	-0.84	-0.249124	0.203008	1.171444	0.6495	-0.0195	-0.036	0	167	976	1
2026-02-12	16:07:30.010	-14.595	15.855	2.87	-0.278404	0.21106	1.142896	0.657	-0.0195	-0.0375	0	172	980	1
2026-02-12	16:07:30.030	-16.275	17.815	4.165	-0.305	0.185196	1.123864	0.6615	-0.0165	-0.0375	0	172	980	1
2026-02-12	16:07:30.050	-15.505	18.83	6.16	-0.29036	0.157136	1.124352	0.6585	-0.012	-0.036	0	172	980	1
2026-02-12	16:07:30.070	-15.61	20.965	10.395	-0.315492	0.124928	1.031632	0.6555	-0.0045	-0.0345	0	172	980	1
2026-02-12	16:07:30.090	-17.08	11.69	15.75	-0.294996	0.113216	1.094096	0.6495	-0.0015	-0.0375	0	172	980	1
2026-02-12	16:07:30.110	-21.875	11.97	18.865	-0.215696	0.092964	1.104832	0.651	-0.0015	-0.0345	0	172	980	1
2026-02-12	16:07:30.130	-25.865	13.685	22.82	-0.14762	0.09467199	1.070428	0.6645	0	-0.027	0	172	980	1
2026-02-12	16:07:30.150	-25.9	10.815	25.795	-0.12444	0.108092	1.07604	0.681	0.006	-0.024	0	172	980	1
2026-02-12	16:07:30.170	-14.665	13.02	25.795	-0.119316	0.13298	1.081164	0.681	0.012	-0.0255	0	172	980	1
2026-02-12	16:07:30.190	-1.82	20.93	22.155	-0.102968	0.0915	1.0004	0.6795	0.0135	-0.0255	0	172	980	1
2026-02-12	16:07:30.210	7.175	25.025	22.12	-0.09857599	0.05612	0.882792	0.6855	0.0165	-0.0255	0	175	996	1
2026-02-12	16:07:30.230	10.99	18.34	26.005	-0.142008	0.027572	0.899384	0.693	0.015	-0.03	0	175	996	1
2026-02-12	16:07:30.250	11.62	16.835	27.965	-0.162748	0.05124	0.914756	0.693	0.015	-0.03	0	175	996	1
2026-02-12	16:07:30.270	5.705	22.925	28.63	-0.191296	0.098332	0.947208	0.714	0.015	-0.0195	0	175	996	1
2026-02-12	16:07:30.290	3.045	32.795	19.495	-0.249368	0.103944	0.9516	0.72	0.0105	-0.024	0	175	996	1
2026-02-12	16:07:30.310	0.805	40.145	6.755	-0.257664	0.179828	0.944036	0.7305	0.012	-0.0225	0	175	996	1
2026-02-12	16:07:30.330	-2.17	45.675	-33.635	-0.30134	0.239608	0.794708	0.7335	0.006	-0.027	0	175	996	1
2026-02-12	16:07:30.350	-9.59	36.12	-53.69	-0.295484	0.097356	0.716628	0.756	0	-0.0255	0	175	996	1
2026-02-12	16:07:30.370	-5.635	30.38	-39.76	-0.294752	0.103212	0.701988	0.795	0.012	-0.0345	0	175	996	1
2026-02-12	16:07:30.390	-1.085	21.7	-22.435	-0.42456	0.199104	0.725412	0.777	0.012	-0.0405	0	175	996	1
2026-02-12	16:07:30.410	0.42	18.55	-25.55	-0.451156	0.157624	0.800076	0.786	0.009	-0.039	0	177	1001	1
2026-02-12	16:07:30.430	3.36	20.405	-30.625	-0.45994	0.18056	0.873764	0.8055	0.009	-0.0375	0	177	1001	1
2026-02-12	16:07:30.450	7.385	30.695	-40.18	-0.51972	0.16836	0.938668	0.813	0.015	-0.0495	0	177	1001	1
2026-02-12	16:07:30.470	-0.21	44.87	-48.65	-0.514108	0.145668	0.791292	0.831	0.0135	-0.0555	0	177	1001	1
2026-02-12	16:07:30.490	4.235	39.9	-45.57	-0.501176	0.113216	0.692716	0.861	0.021	-0.063	0	177	1001	1
2026-02-12	16:07:30.510	3.955	23.695	-30.415	-0.559004	0.13542	0.720288	0.8235	0.012	-0.054	0	177	1001	1
2026-02-12	16:07:30.530	-7.63	6.37	-24.255	-0.591944	0.120292	0.833504	0.822	0	-0.0495	0	177	1001	1
2026-02-12	16:07:30.550	-8.54	3.36	-25.655	-0.558516	0.178364	0.907192	0.8415	0.0075	-0.063	0	177	1001	1
2026-02-12	16:07:30.570	3.15	18.235	-26.32	-0.494832	0.21472	0.90036	0.84	0.012	-0.06	0	177	1001	1
2026-02-12	16:07:30.590	-3.605	26.25	-22.4	-0.414556	0.219844	0.91134	0.8265	0.0075	-0.0645	0	177	1001	1
2026-02-12	16:07:30.610	-16.17	24.99	-11.97	-0.51728	0.143228	0.962824	0.816	0.0105	-0.063	0	178	982	1
2026-02-12	16:07:30.630	-13.3	25.725	-1.05	-0.521428	0.12444	0.98332	0.831	0.0105	-0.0735	0	178	982	1
2026-02-12	16:07:30.650	-2.905	16.45	4.34	-0.521672	0.250588	1.055056	0.834	0.006	-0.069	0	178	982	1
2026-02-12	16:07:30.670	-12.355	13.72	3.115	-0.604144	0.101016	1.084092	0.8535	0.0015	-0.0675	0	178	982	1
2026-02-12	16:07:30.690	-2.24	8.645	-9.94	-0.555344	0.12932	0.944768	0.861	0.009	-0.066	0	178	982	1
