yyyy-MM-dd	HH:mm:ss.fff	gyrX	gyrY	gyrZ	accX	accY	accZ	magX	magY	magZ	Marker	Energy	Angle	Classification
2026-02-12	16:07:01.610	11.795	0.175	1.82	0.96258	-0.222284	0.232044	0.078	0.6405	-0.2445	0	244	218	2
2026-02-12	16:07:01.630	11.2	0.21	2.59	0.959164	-0.210816	0.22936	0.0735	0.636	-0.246	0	244	218	2
2026-02-12	16:07:01.650	10.22	0.175	2.73	0.960872	-0.213988	0.223748	0.078	0.636	-0.24	0	244	218	2
2026-02-12	16:07:01.670	9.59	0.14	2.38	0.957944	-0.204472	0.224236	0.069	0.6285	-0.2415	0	244	218	2
2026-02-12	16:07:01.690	8.26	-0.035	1.68	0.956236	-0.20252	0.219844	0.0795	0.6315	-0.243	0	244	218	2
2026-02-12	16:07:01.710	6.79	-0.14	0.91	0.952088	-0.203496	0.22082	0.0735	0.6375	-0.249	0	244	218	2
2026-02-12	16:07:01.730	4.795	-0.315	-0.07	0.955016	-0.20374	0.217648	0.075	0.6345	-0.2445	0	244	218	2
2026-02-12	16:07:01.750	3.955	-0.385	-0.385	0.956724	-0.208864	0.218624	0.0795	0.636	-0.2415	0	244	218	2
2026-02-12	16:07:01.770	3.605	-0.49	-0.525	0.956236	-0.213988	0.217404	0.0795	0.6375	-0.246	0	244	218	2
2026-02-12	16:07:01.790	3.71	-0.63	-0.455	0.961848	-0.210816	0.22082	0.0705	0.6345	-0.2475	0	244	218	2
2026-02-12	16:07:01.810	3.745	-0.7	-0.42	0.961848	-0.212036	0.220088	0.0675	0.633	-0.243	0	219	222	2
2026-02-12	16:07:01.830	3.57	-0.84	-0.245	0.962092	-0.212768	0.219356	0.078	0.642	-0.246	0	219	222	2
2026-02-12	16:07:01.850	3.395	-0.875	-0.175	0.962336	-0.213744	0.224724	0.072	0.636	-0.2475	0	219	222	2
2026-02-12	16:07:01.870	3.15	-0.875	-0.035	0.954528	-0.2135	0.224968	0.0735	0.633	-0.243	0	219	222	2
2026-02-12	16:07:01.890	2.975	-0.945	0.035	0.955016	-0.213988	0.224236	0.075	0.633	-0.2385	0	219	222	2
2026-02-12	16:07:01.910	3.115	-1.05	0	0.944524	-0.215208	0.226676	0.0705	0.63	-0.2415	0	219	222	2
2026-02-12	16:07:01.930	4.655	-1.19	0.035	0.92232	-0.216672	0.237656	0.075	0.636	-0.2415	0	219	222	2
2026-02-12	16:07:01.950	6.055	-1.75	0.07	1.002596	-0.223748	0.234484	0.075	0.636	-0.2415	0	219	222	2
2026-02-12	16:07:01.970	5.915	-0.49	-0.07	0.977952	-0.216428	0.24034	0.075	0.636	-0.2415	0	219	222	2
2026-02-12	16:07:01.990	5.53	0.21	-0.49	0.964288	-0.210328	0.244488	0.075	0.633	-0.2415	0	219	222	2
2026-02-12	16:07:02.010	4.2	0.42	-0.035	0.960872	-0.205692	0.23668	0.078	0.633	-0.2445	0	195	224	2
2026-02-12	16:07:02.030	2.345	0.665	0.525	0.964532	-0.208376	0.22326	0.081	0.636	-0.2505	0	195	224	2
2026-02-12	16:07:02.050	0.77	0.98	0.735	0.958432	-0.205448	0.219356	0.081	0.636	-0.249	0	195	224	2
2026-02-12	16:07:02.070	0.07	0.91	0.525	0.954528	-0.208864	0.219112	0.0765	0.639	-0.252	0	195	224	2
2026-02-12	16:07:02.090	-0.49	0.77	0.035	0.961604	-0.211304	0.21472	0.0735	0.6315	-0.249	0	195	224	2
2026-02-12	16:07:02.110	-1.96	0.84	-0.455	0.966484	-0.217648	0.206424	0.0765	0.6255	-0.2475	0	195	224	2
2026-02-12	16:07:02.130	-3.745	0.84	-0.945	0.96868	-0.218868	0.20618	0.0795	0.633	-0.2415	0	195	224	2
2026-02-12	16:07:02.150	-5.32	0.735	-1.085	0.953796	-0.22326	0.211548	0.075	0.624	-0.2535	0	195	224	2
2026-02-12	16:07:02.170	-5.775	0.42	-0.595	0.952576	-0.220332	0.21594	0.0765	0.63	-0.2505	0	195	224	2
2026-02-12	16:07:02.190	-5.495	0.14	-0.21	0.953064	-0.216184	0.225212	0.075	0.6315	-0.246	0	195	224	2
2026-02-12	16:07:02.210	-4.585	0.07	-0.14	0.958676	-0.212768	0.233264	0.075	0.63	-0.2445	0	171	225	2
2026-02-12	16:07:02.230	-3.36	0.14	-0.245	0.959164	-0.214476	0.242536	0.0795	0.633	-0.2445	0	171	225	2
2026-02-12	16:07:02.250	-3.045	0.07	-0.28	0.961848	-0.212768	0.246196	0.0765	0.6315	-0.24	0	171	225	2
2026-02-12	16:07:02.270	-3.22	0.035	-0.28	0.961116	-0.20984	0.248636	0.075	0.6375	-0.246	0	171	225	2
2026-02-12	16:07:02.290	-3.535	0.14	-0.315	0.960872	-0.217404	0.247904	0.0825	0.6285	-0.2385	0	171	225	2
2026-02-12	16:07:02.310	-3.395	0.385	-0.315	0.953796	-0.224968	0.239852	0.0765	0.636	-0.2475	0	171	225	2
2026-02-12	16:07:02.330	-2.835	0.63	-0.245	0.959896	-0.225212	0.23058	0.0795	0.636	-0.246	0	171	225	2
2026-02-12	16:07:02.350	-2.03	0.77	-0.175	0.956968	-0.224968	0.225456	0.0675	0.6345	-0.249	0	171	225	2
2026-02-12	16:07:02.370	-1.54	0.7	-0.21	0.95892	-0.224724	0.221064	0.078	0.6345	-0.249	0	171	225	2
2026-02-12	16:07:02.390	-1.4	0.56	-0.245	0.95892	-0.224236	0.219112	0.0765	0.636	-0.2505	0	171	225	2
2026-02-12	16:07:02.410	-1.26	0.35	-0.245	0.96258	-0.22814	0.217648	0.0735	0.636	-0.2505	0	149	227	2
2026-02-12	16:07:02.430	-1.225	0.21	-0.14	0.961116	-0.221796	0.22692	0.072	0.633	-0.249	0	149	227	2
2026-02-12	16:07:02.450	-1.12	0.175	-0.14	0.957212	-0.22204	0.224968	0.0795	0.6375	-0.2505	0	149	227	2
2026-02-12	16:07:02.470	-0.875	0.28	-0.105	0.956968	-0.219356	0.227408	0.078	0.6465	-0.243	0	149	227	2
2026-02-12	16:07:02.490	-0.63	0.315	-0.105	0.96014	-0.215696	0.22936	0.078	0.6405	-0.246	0	149	227	2
2026-02-12	16:07:02.510	-0.63	0.385	-0.245	0.956724	-0.21106	0.234728	0.0795	0.636	-0.252	0	149	227	2
2026-02-12	16:07:02.530	-1.225	0.315	-0.35	0.964044	-0.213256	0.233996	0.0705	0.645	-0.2505	0	149	227	2
2026-02-12	16:07:02.550	-1.54	0.42	-0.455	0.965996	-0.221796	0.23546	0.0735	0.639	-0.249	0	149	227	2
2026-02-12	16:07:02.570	-1.54	0.455	-0.595	0.96014	-0.217648	0.23058	0.075	0.636	-0.249	0	149	227	2
2026-02-12	16:07:02.590	-1.645	0.28	-0.525	0.956968	-0.224236	0.229604	0.075	0.636	-0.249	0	149	227	2
2026-02-12	16:07:00.610	18.445	-17.325	49.56	0.948672	-0.221552	0.12444	0.093	0.687	-0.264	0	342	213	2
2026-02-12	16:07:00.630	25.165	-18.305	44.625	0.920124	-0.187392	0.147864	0.102	0.6855	-0.267	0	342	213	2
2026-02-12	16:07:00.650	30.03	-18.585	36.575	0.909144	-0.215696	0.179828	0.102	0.6855	-0.264	0	342	213	2
2026-02-12	16:07:00.670	40.705	-13.825	29.015	0.909388	-0.116632	0.296948	0.102	0.6855	-0.264	0	342	213	2
2026-02-12	16:07:00.690	46.515	-10.08	18.97	0.905972	-0.06588	0.448228	0.0975	0.687	-0.273	0	342	213	2
2026-02-12	16:07:00.710	31.255	-4.55	8.4	0.930372	-0.014396	0.563884	0.0945	0.6825	-0.282	0	342	213	2
2026-02-12	16:07:00.730	-6.125	-3.78	0.035	0.951356	-0.062952	0.53436	0.0975	0.6825	-0.2835	0	342	213	2
2026-02-12	16:07:00.750	-47.565	-0.455	-9.24	0.913292	-0.160064	0.399672	0.093	0.6855	-0.2775	0	342	213	2
2026-02-12	16:07:00.770	-73.01	2.625	-21	0.90646	-0.22204	0.32208	0.0885	0.687	-0.273	0	342	213	2
2026-02-12	16:07:00.790	-87.57	6.195	-29.715	0.927688	-0.263764	0.250344	0.09	0.69	-0.276	0	342	213	2
2026-02-12	16:07:00.810	-83.79	9.485	-34.195	0.921344	-0.388448	0.181292	0.099	0.696	-0.273	0	325	202	2
2026-02-12	16:07:00.830	-55.79	11.445	-37.94	0.920612	-0.334768	0.140788	0.102	0.699	-0.2655	0	325	202	2
2026-02-12	16:07:00.850	-29.26	11.165	-40.74	0.918416	-0.39162	0.107848	0.096	0.699	-0.2625	0	325	202	2
2026-02-12	16:07:00.870	8.505	7.595	-45.115	0.913536	-0.33672	0.09882	0.0945	0.705	-0.249	0	325	202	2
2026-02-12	16:07:00.890	27.335	0.98	-48.86	0.943792	-0.264984	0.110044	0.093	0.6945	-0.252	0	325	202	2
2026-02-12	16:07:00.910	26.88	-3.185	-50.26	0.955992	-0.239364	0.147376	0.0945	0.6825	-0.2535	0	325	202	2
2026-02-12	16:07:00.930	21.28	-7	-50.47	0.973804	-0.224236	0.175924	0.0915	0.672	-0.252	0	325	202	2
2026-02-12	16:07:00.950	8.015	-8.68	-49.525	0.98454	-0.230824	0.194224	0.09	0.6615	-0.2505	0	325	202	2
2026-02-12	16:07:00.970	-4.69	-9.17	-46.83	0.986004	-0.277428	0.188368	0.084	0.654	-0.252	0	325	202	2
2026-02-12	16:07:00.990	-8.33	-8.47	-44.205	0.990152	-0.284016	0.194956	0.0765	0.651	-0.255	0	325	202	2
2026-02-12	16:07:01.010	-12.355	-7.525	-40.005	0.99064	-0.284504	0.202276	0.075	0.6435	-0.2535	0	308	203	2
2026-02-12	16:07:01.030	-13.02	-6.335	-35.49	0.983808	-0.310368	0.214964	0.078	0.6405	-0.249	0	308	203	2
2026-02-12	16:07:01.050	-11.41	-4.83	-30.835	0.978196	-0.27938	0.235216	0.0795	0.6345	-0.24	0	308	203	2
2026-02-12	16:07:01.070	-15.68	-4.83	-24.78	0.984052	-0.317932	0.231312	0.072	0.6255	-0.2475	0	308	203	2
2026-02-12	16:07:01.090	-13.825	-1.54	-16.555	0.97234	-0.31476	0.250588	0.066	0.624	-0.24	0	308	203	2
2026-02-12	16:07:01.110	-12.81	-0.665	-11.27	0.979172	-0.322324	0.245952	0.0675	0.6285	-0.237	0	308	203	2
2026-02-12	16:07:01.130	-10.115	-0.175	-6.93	0.97234	-0.305488	0.239608	0.0705	0.6315	-0.231	0	308	203	2
2026-02-12	16:07:01.150	-7.665	0.07	-3.08	0.97234	-0.30134	0.235704	0.0705	0.6315	-0.228	0	308	203	2
2026-02-12	16:07:01.170	-6.51	0.315	0.735	0.975024	-0.311344	0.239852	0.072	0.633	-0.2295	0	308	203	2
2026-02-12	16:07:01.190	-1.68	1.155	3.745	0.976976	-0.306952	0.245464	0.0735	0.633	-0.231	0	308	203	2
2026-02-12	16:07:01.210	6.23	2.275	5.355	0.974292	-0.274256	0.240584	0.069	0.6375	-0.2325	0	289	207	2
2026-02-12	16:07:01.230	13.545	2.94	6.265	0.975268	-0.251076	0.23546	0.0705	0.636	-0.24	0	289	207	2
2026-02-12	16:07:01.250	19.495	2.94	7	0.976488	-0.213744	0.238144	0.066	0.639	-0.231	0	289	207	2
2026-02-12	16:07:01.270	21.63	3.15	7.77	0.998448	-0.193736	0.245464	0.075	0.636	-0.2385	0	289	207	2
2026-02-12	16:07:01.290	19.145	4.41	9.275	1.001132	-0.15616	0.244488	0.072	0.6345	-0.228	0	289	207	2
2026-02-12	16:07:01.310	10.64	5.6	11.165	0.986492	-0.125904	0.233996	0.0735	0.63	-0.2325	0	289	207	2
2026-02-12	16:07:01.330	1.645	5.39	12.32	0.9699	-0.13298	0.22814	0.072	0.624	-0.24	0	289	207	2
2026-02-12	16:07:01.350	-6.51	4.655	12.81	0.952332	-0.155672	0.22204	0.0705	0.6285	-0.2445	0	289	207	2
2026-02-12	16:07:01.370	-11.025	3.78	12.215	0.948184	-0.18422	0.2135	0.072	0.633	-0.246	0	289	207	2
2026-02-12	16:07:01.390	-10.64	3.535	10.15	0.946964	-0.193004	0.208376	0.0735	0.63	-0.2415	0	289	207	2
2026-02-12	16:07:01.410	-7.945	3.15	7.175	0.942572	-0.20618	0.201788	0.075	0.627	-0.237	0	267	213	2
2026-02-12	16:07:01.430	-4.41	2.695	3.5	0.940864	-0.202764	0.203984	0.0735	0.642	-0.2385	0	267	213	2
2026-02-12	16:07:01.450	-3.71	1.61	0.035	0.936472	-0.203252	0.21106	0.0735	0.6405	-0.243	0	267	213	2
2026-02-12	16:07:01.470	-4.83	0.49	-2.45	0.936228	-0.210572	0.220576	0.0765	0.6285	-0.24	0	267	213	2
2026-02-12	16:07:01.490	-7.035	-0.175	-3.85	0.944768	-0.22936	0.224724	0.075	0.6375	-0.24	0	267	213	2
2026-02-12	16:07:01.510	-7.595	-0.42	-4.27	0.9577	-0.250344	0.235216	0.0765	0.636	-0.243	0	267	213	2
2026-02-12	16:07:01.530	-3.955	-0.245	-3.675	0.963068	-0.262056	0.234972	0.0765	0.639	-0.24	0	267	213	2
2026-02-12	16:07:01.550	1.47	-0.14	-2.415	0.968924	-0.26108	0.234972	0.0795	0.642	-0.2385	0	267	213	2
2026-02-12	16:07:01.570	6.965	-0.21	-0.77	0.969412	-0.252052	0.235704	0.078	0.6435	-0.2385	0	267	213	2
2026-02-12	16:07:01.590	10.64	-0.035	0.7	0.973804	-0.23912	0.235948	0.0765	0.642	-0.2415	0	267	213	2
2026-02-12	16:07:01.610	11.795	0.175	1.82	0.96258	-0.222284	0.232044	0.078	0.6405	-0.2445	0	244	218	2
2026-02-12	16:07:01.630	11.2	0.21	2.59	0.959164	-0.210816	0.22936	0.0735	0.636	-0.246	0	244	218	2
2026-02-12	16:07:01.650	10.22	0.175	2.73	0.960872	-0.213988	0.223748	0.078	0.636	-0.24	0	244	218	2
2026-02-12	16:07:01.670	9.59	0.14	2.38	0.957944	-0.204472	0.224236	0.069	0.6285	-0.2415	0	244	218	2
2026-02-12	16:07:01.690	8.26	-0.035	1.68	0.956236	-0.20252	0.219844	0.0795	0.6315	-0.243	0	244	218	2
2026-02-12	16:07:01.710	6.79	-0.14	0.91	0.952088	-0.203496	0.22082	0.0735	0.6375	-0.249	0	244	218	2
2026-02-12	16:07:01.730	4.795	-0.315	-0.07	0.955016	-0.20374	0.217648	0.075	0.6345	-0.2445	0	244	218	2
2026-02-12	16:07:01.750	3.955	-0.385	-0.385	0.956724	-0.208864	0.218624	0.0795	0.636	-0.2415	0	244	218	2
2026-02-12	16:07:01.770	3.605	-0.49	-0.525	0.956236	-0.213988	0.217404	0.0795	0.6375	-0.246	0	244	218	2
2026-02-12	16:07:01.790	3.71	-0.63	-0.455	0.961848	-0.210816	0.22082	0.0705	0.6345	-0.2475	0	244	218	2
2026-02-12	16:07:01.810	3.745	-0.7	-0.42	0.961848	-0.212036	0.220088	0.0675	0.633	-0.243	0	219	222	2
2026-02-12	16:07:01.830	3.57	-0.84	-0.245	0.962092	-0.212768	0.219356	0.078	0.642	-0.246	0	219	222	2
2026-02-12	16:07:01.850	3.395	-0.875	-0.175	0.962336	-0.213744	0.224724	0.072	0.636	-0.2475	0	219	222	2
2026-02-12	16:07:01.870	3.15	-0.875	-0.035	0.954528	-0.2135	0.224968	0.0735	0.633	-0.243	0	219	222	2
2026-02-12	16:07:01.890	2.975	-0.945	0.035	0.955016	-0.213988	0.224236	0.075	0.633	-0.2385	0	219	222	2
2026-02-12	16:07:01.910	3.115	-1.05	0	0.944524	-0.215208	0.226676	0.0705	0.63	-0.2415	0	219	222	2
2026-02-12	16:07:01.930	4.655	-1.19	0.035	0.92232	-0.216672	0.237656	0.075	0.636	-0.2415	0	219	222	2
2026-02-12	16:07:01.950	6.055	-1.75	0.07	1.002596	-0.223748	0.234484	0.075	0.636	-0.2415	0	219	222	2
2026-02-12	16:07:01.970	5.915	-0.49	-0.07	0.977952	-0.216428	0.24034	0.075	0.636	-0.2415	0	219	222	2
2026-02-12	16:07:01.990	5.53	0.21	-0.49	0.964288	-0.210328	0.244488	0.075	0.633	-0.2415	0	219	222	2
2026-02-12	16:07:02.010	4.2	0.42	-0.035	0.960872	-0.205692	0.23668	0.078	0.633	-0.2445	0	195	224	2
2026-02-12	16:07:02.030	2.345	0.665	0.525	0.964532	-0.208376	0.22326	0.081	0.636	-0.2505	0	195	224	2
2026-02-12	16:07:02.050	0.77	0.98	0.735	0.958432	-0.205448	0.219356	0.081	0.636	-0.249	0	195	224	2
2026-02-12	16:07:02.070	0.07	0.91	0.525	0.954528	-0.208864	0.219112	0.0765	0.639	-0.252	0	195	224	2
2026-02-12	16:07:02.090	-0.49	0.77	0.035	0.961604	-0.211304	0.21472	0.0735	0.6315	-0.249	0	195	224	2
2026-02-12	16:07:02.110	-1.96	0.84	-0.455	0.966484	-0.217648	0.206424	0.0765	0.6255	-0.2475	0	195	224	2
2026-02-12	16:07:02.130	-3.745	0.84	-0.945	0.96868	-0.218868	0.20618	0.0795	0.633	-0.2415	0	195	224	2
2026-02-12	16:07:02.150	-5.32	0.735	-1.085	0.953796	-0.22326	0.211548	0.075	0.624	-0.2535	0	195	224	2
2026-02-12	16:07:02.170	-5.775	0.42	-0.595	0.952576	-0.220332	0.21594	0.0765	0.63	-0.2505	0	195	224	2
2026-02-12	16:07:02.190	-5.495	0.14	-0.21	0.953064	-0.216184	0.225212	0.075	0.6315	-0.246	0	195	224	2
2026-02-12	16:07:02.210	-4.585	0.07	-0.14	0.958676	-0.212768	0.233264	0.075	0.63	-0.2445	0	171	225	2
2026-02-12	16:07:02.230	-3.36	0.14	-0.245	0.959164	-0.214476	0.242536	0.0795	0.633	-0.2445	0	171	225	2
2026-02-12	16:07:02.250	-3.045	0.07	-0.28	0.961848	-0.212768	0.246196	0.0765	0.6315	-0.24	0	171	225	2
2026-02-12	16:07:02.270	-3.22	0.035	-0.28	0.961116	-0.20984	0.248636	0.075	0.6375	-0.246	0	171	225	2
2026-02-12	16:07:02.290	-3.535	0.14	-0.315	0.960872	-0.217404	0.247904	0.0825	0.6285	-0.2385	0	171	225	2
2026-02-12	16:07:02.310	-3.395	0.385	-0.315	0.953796	-0.224968	0.239852	0.0765	0.636	-0.2475	0	171	225	2
2026-02-12	16:07:02.330	-2.835	0.63	-0.245	0.959896	-0.225212	0.23058	0.0795	0.636	-0.246	0	171	225	2
2026-02-12	16:07:02.350	-2.03	0.77	-0.175	0.956968	-0.224968	0.225456	0.0675	0.6345	-0.249	0	171	225	2
2026-02-12	16:07:02.370	-1.54	0.7	-0.21	0.95892	-0.224724	0.221064	0.078	0.6345	-0.249	0	171	225	2
2026-02-12	16:07:02.390	-1.4	0.56	-0.245	0.95892	-0.224236	0.219112	0.0765	0.636	-0.2505	0	171	225	2
2026-02-12	16:07:02.410	-1.26	0.35	-0.245	0.96258	-0.22814	0.217648	0.0735	0.636	-0.2505	0	149	227	2
2026-02-12	16:07:02.430	-1.225	0.21	-0.14	0.961116	-0.221796	0.22692	0.072	0.633	-0.249	0	149	227	2
2026-02-12	16:07:02.450	-1.12	0.175	-0.14	0.957212	-0.22204	0.224968	0.0795	0.6375	-0.2505	0	149	227	2
2026-02-12	16:07:02.470	-0.875	0.28	-0.105	0.956968	-0.219356	0.227408	0.078	0.6465	-0.243	0	149	227	2
2026-02-12	16:07:02.490	-0.63	0.315	-0.105	0.96014	-0.215696	0.22936	0.078	0.6405	-0.246	0	149	227	2
2026-02-12	16:07:02.510	-0.63	0.385	-0.245	0.956724	-0.21106	0.234728	0.0795	0.636	-0.252	0	149	227	2
2026-02-12	16:07:02.530	-1.225	0.315	-0.35	0.964044	-0.213256	0.233996	0.0705	0.645	-0.2505	0	149	227	2
2026-02-12	16:07:02.550	-1.54	0.42	-0.455	0.965996	-0.221796	0.23546	0.0735	0.639	-0.249	0	149	227	2
2026-02-12	16:07:02.570	-1.54	0.455	-0.595	0.96014	-0.217648	0.23058	0.075	0.636	-0.249	0	149	227	2
2026-02-12	16:07:02.590	-1.645	0.28	-0.525	0.956968	-0.224236	0.229604	0.075	0.636	-0.249	0	149	227	2
2026-02-12	16:07:00.610	18.445	-17.325	49.56	0.948672	-0.221552	0.12444	0.093	0.687	-0.264	0	342	213	2
2026-02-12	16:07:00.630	25.165	-18.305	44.625	0.920124	-0.187392	0.147864	0.102	0.6855	-0.267	0	342	213	2
2026-02-12	16:07:00.650	30.03	-18.585	36.575	0.909144	-0.215696	0.179828	0.102	0.6855	-0.264	0	342	213	2
2026-02-12	16:07:00.670	40.705	-13.825	29.015	0.909388	-0.116632	0.296948	0.102	0.6855	-0.264	0	342	213	2
2026-02-12	16:07:00.690	46.515	-10.08	18.97	0.905972	-0.06588	0.448228	0.0975	0.687	-0.273	0	342	213	2
2026-02-12	16:07:00.710	31.255	-4.55	8.4	0.930372	-0.014396	0.563884	0.0945	0.6825	-0.282	0	342	213	2
2026-02-12	16:07:00.730	-6.125	-3.78	0.035	0.951356	-0.062952	0.53436	0.0975	0.6825	-0.2835	0	342	213	2
2026-02-12	16:07:00.750	-47.565	-0.455	-9.24	0.913292	-0.160064	0.399672	0.093	0.6855	-0.2775	0	342	213	2
2026-02-12	16:07:00.770	-73.01	2.625	-21	0.90646	-0.22204	0.32208	0.0885	0.687	-0.273	0	342	213	2
2026-02-12	16:07:00.790	-87.57	6.195	-29.715	0.927688	-0.263764	0.250344	0.09	0.69	-0.276	0	342	213	2
2026-02-12	16:07:00.810	-83.79	9.485	-34.195	0.921344	-0.388448	0.181292	0.099	0.696	-0.273	0	325	202	2
2026-02-12	16:07:00.830	-55.79	11.445	-37.94	0.920612	-0.334768	0.140788	0.102	0.699	-0.2655	0	325	202	2
2026-02-12	16:07:00.850	-29.26	11.165	-40.74	0.918416	-0.39162	0.107848	0.096	0.699	-0.2625	0	325	202	2
2026-02-12	16:07:00.870	8.505	7.595	-45.115	0.913536	-0.33672	0.09882	0.0945	0.705	-0.249	0	325	202	2
2026-02-12	16:07:00.890	27.335	0.98	-48.86	0.943792	-0.264984	0.110044	0.093	0.6945	-0.252	0	325	202	2
2026-02-12	16:07:00.910	26.88	-3.185	-50.26	0.955992	-0.239364	0.147376	0.0945	0.6825	-0.2535	0	325	202	2
2026-02-12	16:07:00.930	21.28	-7	-50.47	0.973804	-0.224236	0.175924	0.0915	0.672	-0.252	0	325	202	2
2026-02-12	16:07:00.950	8.015	-8.68	-49.525	0.98454	-0.230824	0.194224	0.09	0.6615	-0.2505	0	325	202	2
2026-02-12	16:07:00.970	-4.69	-9.17	-46.83	0.986004	-0.277428	0.188368	0.084	0.654	-0.252	0	325	202	2
2026-02-12	16:07:00.990	-8.33	-8.47	-44.205	0.990152	-0.284016	0.194956	0.0765	0.651	-0.255	0	325	202	2
2026-02-12	16:07:11.010	-34.335	-24.605	-24.885	0.40748	-0.6222	0.316224	0.078	0.87	0.123	0	382	74	3
2026-02-12	16:07:11.030	-41.44	-23.52	-28.735	0.45018	-0.698084	0.374052	0.0765	0.87	0.1245	0	382	74	3
2026-02-12	16:07:11.050	-48.195	-21.525	-29.855	0.498736	-0.781288	0.358436	0.0765	0.867	0.1335	0	382	74	3
2026-02-12	16:07:11.070	-50.785	-20.37	-27.16	0.648308	-1.023336	0.351116	0.0705	0.8565	0.141	0	382	74	3
2026-02-12	16:07:11.090	-31.36	-19.915	-16.065	0.755912	-1.131184	0.26962	0.072	0.855	0.144	0	382	74	3
2026-02-12	16:07:11.110	-5.39	-21.56	-2.59	0.906948	-1.122644	0.207644	0.0765	0.852	0.15	0	382	74	3
2026-02-12	16:07:11.130	-6.16	-18.2	13.16	1.016992	-1.16754	0.367952	0.075	0.849	0.1575	0	382	74	3
2026-02-12	16:07:11.150	-20.86	-2.94	28.7	0.937936	-1.306132	0.445544	0.0705	0.849	0.1575	0	382	74	3
2026-02-12	16:07:11.170	-16.485	14.315	36.995	0.757132	-1.152656	0.45262	0.078	0.8535	0.1575	0	382	74	3
2026-02-12	16:07:11.190	-1.295	20.58	40.32	0.79666	-1.093852	0.22326	0.0855	0.858	0.1635	0	382	74	3
2026-02-12	16:07:11.210	20.475	18.13	32.41	0.926468	-0.79422	0.21594	0.081	0.8685	0.1575	0	368	116	3
2026-02-12	16:07:11.230	24.01	18.69	17.08	1.030412	-0.794708	0.184708	0.093	0.8625	0.153	0	368	116	3
2026-02-12	16:07:11.250	41.055	20.125	10.92	0.905728	-0.451888	-0.01708	0.087	0.885	0.1455	0	368	116	3
2026-02-12	16:07:11.270	34.965	11.55	-0.805	0.681248	-0.132004	-0.153232	0.0885	0.87	0.1425	0	368	116	3
2026-02-12	16:07:11.290	11.025	-3.535	-15.925	0.494344	-0.075396	-0.145424	0.09	0.873	0.141	0	368	116	3
2026-02-12	16:07:11.310	-11.095	-17.92	-29.295	0.5002	-0.21716	-0.05978	0.0885	0.876	0.138	0	368	116	3
2026-02-12	16:07:11.330	-29.96	-28.175	-35.105	0.579012	-0.515572	0.056608	0.0795	0.87	0.1395	0	368	116	3
2026-02-12	16:07:11.350	-39.97	-32.27	-28.91	0.600972	-0.849852	0.060756	0.078	0.8655	0.147	0	368	116	3
2026-02-12	16:07:11.370	-28.245	-35.84	-19.6	0.60024	-1.085556	-0.009272	0.078	0.864	0.156	0	368	116	3
2026-02-12	16:07:11.390	4.585	-41.3	-17.115	0.587552	-0.892308	-0.108336	0.075	0.858	0.162	0	368	116	3
2026-02-12	16:07:11.410	20.3	-49.945	-30.31	0.713456	-0.66978	-0.144204	0.075	0.855	0.1635	0	359	140	3
2026-02-12	16:07:11.430	20.65	-49.7	-37.17	0.814228	-0.65148	-0.07515199	0.0795	0.855	0.1755	0	359	140	3
2026-02-12	16:07:11.450	21.98	-46.725	-43.295	0.883768	-0.62586	-0.044652	0.0795	0.8415	0.177	0	359	140	3
2026-02-12	16:07:11.470	23.24	-41.3	-45.955	0.883036	-0.586088	-0.049288	0.0795	0.8385	0.1845	0	359	140	3
2026-02-12	16:07:11.490	28.77	-36.05	-41.895	0.796416	-0.623664	-0.033916	0.0795	0.84	0.183	0	359	140	3
2026-02-12	16:07:11.510	40.075	-36.925	-37.345	0.753716	-0.621468	-0.025376	0.0735	0.834	0.1815	0	359	140	3
2026-02-12	16:07:11.530	39.13	-35.665	-31.955	0.703208	-0.540216	-0.00244	0.069	0.8325	0.186	0	359	140	3
2026-02-12	16:07:11.550	25.48	-32.585	-27.44	0.690032	-0.552416	0.034892	0.069	0.8325	0.189	0	359	140	3
2026-02-12	16:07:11.570	8.715	-25.83	-24.08	0.66368	-0.585112	0.064416	0.0675	0.8265	0.1935	0	359	140	3
2026-02-12	16:07:11.590	-7.91	-17.92	-21.315	0.646844	-0.596336	0.069296	0.0675	0.828	0.195	0	359	140	3
2026-02-12	16:07:11.610	-26.46	-8.05	-21.07	0.648796	-0.62464	0.058072	0.066	0.825	0.195	0	351	126	3
2026-02-12	16:07:11.630	-38.465	-0.105	-23.59	0.675392	-0.648552	0.030256	0.063	0.8175	0.1995	0	351	126	3
2026-02-12	16:07:11.650	-39.2	4.865	-25.9	0.696376	-0.684176	0.0122	0.057	0.807	0.207	0	351	126	3
2026-02-12	16:07:11.670	-35.455	8.785	-28.63	0.722484	-0.71248	0.007808	0.0615	0.798	0.2025	0	351	126	3
2026-02-12	16:07:11.690	-32.06	12.46	-30.695	0.730292	-0.743468	0.01586	0.0585	0.798	0.2055	0	351	126	3
2026-02-12	16:07:11.710	-28.665	15.295	-30.695	0.733952	-0.776896	0.028304	0.054	0.798	0.2055	0	351	126	3
2026-02-12	16:07:11.730	-26.18	17.745	-28.63	0.713456	-0.789828	0.033916	0.048	0.792	0.204	0	351	126	3
2026-02-12	16:07:11.750	-22.995	18.76	-24.815	0.705648	-0.804224	0.030744	0.0465	0.78	0.2025	0	351	126	3
2026-02-12	16:07:11.770	-20.545	17.85	-19.425	0.73444	-0.81252	0.062464	0.045	0.771	0.2025	0	351	126	3
2026-02-12	16:07:11.790	-20.125	17.955	-13.405	0.80764	-0.813984	0.125172	0.039	0.7665	0.207	0	351	126	3
2026-02-12	16:07:11.810	-20.195	20.02	-9.8	0.890356	-0.799832	0.1342	0.036	0.7635	0.2055	0	341	99	3
2026-02-12	16:07:11.830	-13.09	23.135	-7.7	0.948184	-0.854488	0.037088	0.036	0.7635	0.201	0	341	99	3
2026-02-12	16:07:11.850	-7.07	24.185	-7.035	1.020896	-0.965996	0.066368	0.036	0.7635	0.201	0	341	99	3
2026-02-12	16:07:11.870	-0.665	26.74	-5.635	1.047492	-1.0065	-0.003416	0.033	0.7605	0.1965	0	341	99	3
2026-02-12	16:07:11.890	7.42	28.525	-3.64	1.016748	-0.995764	-0.056608	0.0345	0.7575	0.198	0	341	99	3
2026-02-12	16:07:11.910	14.49	26.215	0.56	0.928664	-0.919148	-0.113216	0.0315	0.7575	0.1905	0	341	99	3
2026-02-12	16:07:11.930	24.045	19.95	7.77	0.856196	-0.800564	-0.078324	0.0255	0.7605	0.18	0	341	99	3
2026-02-12	16:07:11.950	39.375	13.335	16.17	0.798368	-0.59536	0.011468	0.0255	0.762	0.1725	0	341	99	3
2026-02-12	16:07:11.970	53.9	9.38	26.39	0.8113	-0.3965	0.115168	0.0255	0.7635	0.168	0	341	99	3
2026-02-12	16:07:11.990	63.77	11.655	37.03	0.820328	-0.181292	0.204228	0.0315	0.7665	0.162	0	341	99	3
2026-02-12	16:07:12.010	51.66	17.85	47.04	0.883524	-0.060024	0.211548	0.0405	0.768	0.1575	0	329	79	3
2026-02-12	16:07:12.030	29.505	22.855	51.87	0.923296	-0.17324	0.222772	0.0405	0.7785	0.153	0	329	79	3
2026-02-12	16:07:12.050	-9.485	32.095	55.685	1.045296	-0.522648	0.249856	0.042	0.7905	0.15	0	329	79	3
2026-02-12	16:07:12.070	-10.78	39.585	54.32	0.996252	-0.599508	0.22814	0.0465	0.801	0.1395	0	329	79	3
2026-02-12	16:07:12.090	-16.38	50.33	50.365	0.93086	-0.630008	0.162016	0.051	0.8055	0.1455	0	329	79	3
2026-02-12	16:07:12.110	-23.87	55.825	46.725	0.7747	-0.610976	0.110532	0.051	0.816	0.1275	0	329	79	3
2026-02-12	16:07:12.130	-29.61	55.125	42.35	0.6649	-0.62098	0.105652	0.0495	0.816	0.1275	0	329	79	3
2026-02-12	16:07:12.150	-33.53	53.655	38.85	0.571936	-0.68686	0.141276	0.0525	0.8175	0.1245	0	329	79	3
2026-02-12	16:07:12.170	-29.75	50.855	34.545	0.52704	-0.750544	0.204472	0.054	0.822	0.117	0	329	79	3
2026-02-12	16:07:12.190	-18.2	45.08	32.095	0.528504	-0.750544	0.233264	0.0555	0.8265	0.1095	0	329	79	3
2026-02-12	16:07:12.210	-0.7	38.15	28.945	0.499712	-0.644404	0.2196	0.063	0.8325	0.108	0	318	78	3
2026-02-12	16:07:12.230	9.205	30.625	24.115	0.5002	-0.517036	0.204472	0.066	0.837	0.1035	0	318	78	3
2026-02-12	16:07:12.250	3.36	21.98	15.75	0.483852	-0.467748	0.221552	0.069	0.837	0.0975	0	318	78	3
2026-02-12	16:07:12.270	-7.315	14.105	7.315	0.461404	-0.503616	0.228628	0.072	0.8355	0.0975	0	318	78	3
2026-02-12	16:07:12.290	-13.335	7.7	1.26	0.434564	-0.501176	0.234484	0.06	0.834	0.0975	0	318	78	3
2026-02-12	16:07:12.310	-18.76	1.96	-6.09	0.400648	-0.455304	0.243024	0.075	0.8445	0.1005	0	318	78	3
2026-02-12	16:07:12.330	-28.98	-2.065	-14.665	0.384788	-0.456768	0.278892	0.069	0.8445	0.1005	0	318	78	3
2026-02-12	16:07:12.350	-40.11	-5.285	-22.015	0.3843	-0.509716	0.316224	0.066	0.84	0.102	0	318	78	3
2026-02-12	16:07:12.370	-49.595	-6.475	-27.125	0.40504	-0.621956	0.363804	0.0645	0.834	0.1065	0	318	78	3
2026-02-12	16:07:12.390	-53.235	-6.475	-29.575	0.438712	-0.729072	0.35502	0.0585	0.8295	0.1095	0	318	78	3
2026-02-12	16:07:12.410	-52.395	-7.735	-30.135	0.481168	-0.821792	0.272304	0.057	0.822	0.1155	0	311	102	2
2026-02-12	16:07:12.430	-51.975	-12.18	-26.845	0.645624	-1.067256	0.325252	0.057	0.819	0.123	0	311	102	2
2026-02-12	16:07:12.450	-36.05	-14.56	-12.355	0.778848	-1.254892	0.311832	0.0555	0.8145	0.1245	0	311	102	2
2026-02-12	16:07:12.470	-7.56	-14.805	6.93	0.919148	-1.138992	0.327204	0.054	0.813	0.1245	0	311	102	2
2026-02-12	16:07:12.490	-16.765	-5.81	27.16	0.898164	-1.242692	0.401136	0.051	0.8115	0.1335	0	311	102	2
2026-02-12	16:07:12.510	-18.375	7.875	38.15	0.81862	-1.389336	0.406504	0.06	0.807	0.1335	0	311	102	2
2026-02-12	16:07:12.530	1.785	14.77	45.045	0.84546	-1.30784	0.444568	0.0585	0.8085	0.135	0	311	102	2
2026-02-12	16:07:12.550	20.44	12.285	46.865	0.948428	-1.076772	0.283284	0.0615	0.819	0.1335	0	311	102	2
2026-02-12	16:07:12.570	28.315	10.71	37.905	1.011624	-0.91988	0.181536	0.0675	0.8325	0.132	0	311	102	2
2026-02-12	16:07:12.590	49.735	8.295	23.765	0.953064	-0.60024	0.04636	0.0705	0.8385	0.1305	0	311	102	2
2026-02-12	16:07:12.610	58.975	1.575	12.635	0.775188	-0.201544	-0.03904	0.078	0.84	0.1215	0	309	141	3
2026-02-12	16:07:12.630	36.19	-7.595	-2.625	0.5673	-0.033428	-0.06466	0.0765	0.84	0.117	0	309	141	3
2026-02-12	16:07:12.650	7.42	-19.425	-18.48	0.46848	-0.11224	-0.044652	0.075	0.8415	0.1185	0	309	141	3
2026-02-12	16:07:12.670	-6.37	-29.12	-32.06	0.472628	-0.198616	-0.018544	0.0735	0.84	0.117	0	309	141	3
2026-02-12	16:07:12.690	-38.745	-37.38	-38.92	0.60512	-0.705892	0.02806	0.069	0.8385	0.1155	0	309	141	3
2026-02-12	16:07:12.710	-36.785	-40.285	-33.775	0.681736	-1.095072	-0.028792	0.072	0.8295	0.1215	0	309	141	3
2026-02-12	16:07:12.730	-8.26	-41.545	-28.49	0.69296	-1.192672	-0.128832	0.0645	0.828	0.138	0	309	141	3
2026-02-12	16:07:12.750	18.725	-43.225	-32.165	0.68442	-0.875472	-0.217892	0.063	0.822	0.141	0	309	141	3
2026-02-12	16:07:12.770	26.425	-45.885	-38.605	0.767868	-0.713944	-0.1769	0.0615	0.813	0.1425	0	309	141	3
2026-02-12	16:07:12.790	25.9	-45.115	-41.51	0.874252	-0.603656	-0.053924	0.0615	0.8085	0.1455	0	309	141	3
2026-02-12	16:07:12.810	20.79	-38.605	-43.47	0.916708	-0.523624	0.05612	0.057	0.804	0.1515	0	315	152	3
2026-02-12	16:07:12.830	8.085	-29.75	-44.415	0.856196	-0.480924	0.070028	0.0585	0.798	0.153	0	315	152	3
2026-02-12	16:07:12.850	-2.8	-24.395	-43.82	0.7747	-0.50508	0.083204	0.06	0.795	0.1575	0	315	152	3
2026-02-12	16:07:12.870	-9.275	-22.47	-41.125	0.687348	-0.554124	0.077592	0.057	0.789	0.1605	0	315	152	3
2026-02-12	16:07:12.890	-11.27	-21.665	-35.665	0.619516	-0.629032	0.061732	0.051	0.777	0.162	0	315	152	3
2026-02-12	16:07:12.910	-8.085	-20.37	-31.43	0.58072	-0.673928	0.056364	0.045	0.771	0.1665	0	315	152	3
2026-02-12	16:07:12.930	-4.725	-18.305	-30.24	0.57584	-0.685884	0.065636	0.0405	0.7725	0.171	0	315	152	3
2026-02-12	16:07:12.950	-2.625	-15.995	-29.785	0.578036	-0.695644	0.051728	0.0465	0.771	0.174	0	315	152	3
2026-02-12	16:07:12.970	-2.31	-13.965	-29.925	0.59292	-0.709552	0.038796	0.048	0.7665	0.177	0	315	152	3
2026-02-12	16:07:12.990	-2.1	-12.215	-30.625	0.604144	-0.722484	0.021716	0.042	0.7605	0.1755	0	315	152	3
2026-02-12	16:07:13.010	-0.84	-11.235	-30.73	0.62952	-0.74786	0.013908	0.042	0.7545	0.1725	0	322	132	3
2026-02-12	16:07:13.030	2.695	-10.15	-30.38	0.64294	-0.772504	0.027572	0.0375	0.75	0.1755	0	322	132	3
2026-02-12	16:07:13.050	8.225	-8.785	-28.77	0.659776	-0.785436	0.000488	0.0405	0.747	0.177	0	322	132	3
2026-02-12	16:07:13.070	13.65	-9.275	-25.795	0.72102	-0.804712	-0.009028	0.045	0.7395	0.18	0	322	132	3
2026-02-12	16:07:13.090	15.47	-9.485	-20.79	0.820084	-0.823744	0.055144	0.0435	0.7365	0.1845	0	322	132	3
2026-02-12	16:07:13.110	14.315	-5.775	-17.045	0.927444	-0.742004	0.040504	0.0465	0.7395	0.186	0	322	132	3
2026-02-12	16:07:13.130	11.13	-2.205	-17.675	0.994788	-0.743712	-0.017324	0.0465	0.7395	0.186	0	322	132	3
2026-02-12	16:07:13.150	11.515	-0.245	-17.535	1.048224	-0.826184	0.017812	0.0375	0.735	0.183	0	322	132	3
2026-02-12	16:07:13.170	14.805	4.76	-16.345	1.08214	-0.866444	0.03172	0.0345	0.726	0.1785	0	322	132	3
2026-02-12	16:07:13.190	12.95	9.94	-12.39	1.094096	-0.931104	-0.00244	0.036	0.7245	0.1785	0	322	132	3
2026-02-12	16:07:13.210	14.28	14.595	-6.825	1.043588	-0.954772	-0.03538	0.0345	0.7275	0.18	0	325	103	3
2026-02-12	16:07:13.230	17.535	16.03	1.855	0.96502	-0.88694	-0.089548	0.033	0.726	0.1755	0	325	103	3
2026-02-12	16:07:13.250	27.09	15.365	9.625	0.902312	-0.718092	-0.02196	0.0315	0.7245	0.1695	0	325	103	3
2026-02-12	16:07:13.270	36.89	15.575	18.375	0.841068	-0.493612	0.028792	0.033	0.7275	0.1695	0	325	103	3
2026-02-12	16:07:13.290	42.805	15.575	28.665	0.7869	-0.311588	0.058072	0.033	0.7305	0.168	0	325	103	3
2026-02-12	16:07:13.310	45.36	16.975	38.675	0.76738	-0.22692	0.126636	0.033	0.741	0.159	0	325	103	3
2026-02-12	16:07:13.330	40.005	23.24	49.945	0.782752	-0.17934	0.17812	0.033	0.75	0.153	0	325	103	3
2026-02-12	16:07:13.350	20.44	27.685	54.81	0.868884	-0.292068	0.193492	0.0375	0.7515	0.1395	0	325	103	3
2026-02-12	16:07:13.370	0.875	32.585	56.91	0.985272	-0.508984	0.196176	0.039	0.759	0.1395	0	325	103	3
2026-02-12	16:07:13.390	-4.2	38.675	57.435	1.0126	-0.564372	0.20984	0.0405	0.771	0.138	0	325	103	3
2026-02-12	16:07:13.410	-13.79	46.025	53.76	1.0187	-0.604144	0.217648	0.042	0.78	0.1335	0	324	83	3
2026-02-12	16:07:13.430	-19.18	54.11	51.87	0.924028	-0.617808	0.167384	0.0465	0.7845	0.129	0	324	83	3
2026-02-12	16:07:13.450	-23.31	57.995	49.91	0.811056	-0.606828	0.170068	0.0525	0.792	0.123	0	324	83	3
2026-02-12	16:07:13.470	-27.405	56.91	47.425	0.699792	-0.652456	0.170556	0.057	0.795	0.1155	0	324	83	3
2026-02-12	16:07:13.490	-21.84	52.22	44.555	0.612928	-0.688324	0.176656	0.0585	0.795	0.111	0	324	83	3
2026-02-12	16:07:13.510	-10.78	44.1	42.49	0.565104	-0.703452	0.193248	0.063	0.8055	0.108	0	324	83	3
2026-02-12	16:07:13.530	1.68	35.595	37.345	0.510692	-0.59902	0.23668	0.06	0.8115	0.1005	0	324	83	3
2026-02-12	16:07:13.550	7.245	26.88	29.225	0.491416	-0.547292	0.234484	0.0555	0.81	0.0945	0	324	83	3
2026-02-12	16:07:13.570	7.105	19.53	22.925	0.481656	-0.53436	0.242292	0.0585	0.816	0.0885	0	324	83	3
2026-02-12	16:07:13.590	4.13	12.915	17.885	0.47092	-0.541924	0.23302	0.066	0.825	0.0825	0	324	83	3
2026-02-12	16:07:13.610	0.91	7	11.69	0.451156	-0.513376	0.226432	0.072	0.825	0.081	0	321	88	3
2026-02-12	16:07:13.630	-4.27	1.75	3.71	0.418704	-0.445788	0.244976	0.069	0.828	0.078	0	321	88	3
2026-02-12	16:07:13.650	-16.03	-2.1	-6.055	0.402844	-0.406016	0.280356	0.0675	0.831	0.078	0	321	88	3
2026-02-12	16:07:13.670	-30.415	-5.04	-15.155	0.394548	-0.482388	0.293776	0.069	0.8295	0.0825	0	321	88	3
2026-02-12	16:07:13.690	-39.165	-8.085	-22.82	0.390644	-0.56364	0.2745	0.0675	0.831	0.0825	0	321	88	3
2026-02-12	16:07:13.710	-43.4	-10.71	-28	0.421388	-0.667096	0.303048	0.0675	0.822	0.0855	0	321	88	3
2026-02-12	16:07:13.730	-47.285	-11.375	-29.47	0.466772	-0.795684	0.353556	0.066	0.816	0.093	0	321	88	3
2026-02-12	16:07:13.750	-52.115	-10.99	-25.76	0.531188	-0.927932	0.361852	0.066	0.819	0.0975	0	321	88	3
2026-02-12	16:07:13.770	-49.735	-11.095	-13.475	0.676368	-1.243912	0.361364	0.0615	0.8085	0.1035	0	321	88	3
2026-02-12	16:07:13.790	-28.525	-9.87	1.4	0.71248	-1.152656	0.299388	0.0585	0.798	0.108	0	321	88	3
2026-02-12	16:07:13.810	-17.395	-13.3	14.7	0.831796	-1.212924	0.320372	0.063	0.798	0.1095	0	318	120	3
2026-02-12	16:07:13.830	-9.73	-7.77	28.595	0.876936	-1.195356	0.508496	0.0675	0.7995	0.114	0	318	120	3
2026-02-12	16:07:13.850	-13.86	2.73	39.375	0.923052	-1.322724	0.540704	0.066	0.801	0.1185	0	318	120	3
2026-02-12	16:07:13.870	2.17	9.87	43.26	0.94428	-1.264408	0.356972	0.0675	0.804	0.123	0	318	120	3
2026-02-12	16:07:13.890	31.395	9.625	39.095	0.995276	-0.956236	0.1769	0.069	0.8115	0.12	0	318	120	3
2026-02-12	16:07:13.910	45.01	4.935	27.545	0.965996	-0.669048	0.08662	0.0705	0.819	0.114	0	318	120	3
2026-02-12	16:07:13.930	53.69	-0.56	10.85	0.935252	-0.30256	0.037576	0.081	0.822	0.105	0	318	120	3
2026-02-12	16:07:13.950	32.34	-7.49	-3.29	0.765672	-0.12688	-0.021472	0.081	0.8205	0.102	0	318	120	3
2026-02-12	16:07:13.970	-9.625	-17.36	-22.05	0.592188	-0.249124	-0.047092	0.0765	0.8235	0.102	0	318	120	3
2026-02-12	16:07:13.990	-11.97	-26.425	-30.24	0.53924	-0.340136	-0.079788	0.078	0.8235	0.102	0	318	120	3
2026-02-12	16:07:14.010	-19.355	-35.14	-32.9	0.549488	-0.543144	-0.02196	0.0795	0.816	0.105	0	320	155	3
2026-02-12	16:07:14.030	-30.03	-39.76	-27.93	0.58194	-0.844728	0.010736	0.078	0.813	0.1125	0	320	155	3
2026-02-12	16:07:14.050	-17.605	-39.97	-20.195	0.613172	-1.020652	-0.004636	0.072	0.8085	0.123	0	320	155	3
2026-02-12	16:07:14.070	8.19	-38.22	-16.8	0.628788	-0.959164	-0.053436	0.072	0.8085	0.1305	0	320	155	3
2026-02-12	16:07:14.090	22.82	-37.8	-22.26	0.665876	-0.721752	-0.085888	0.0735	0.8085	0.132	0	320	155	3
2026-02-12	16:07:14.110	16.66	-36.96	-30.345	0.768356	-0.671244	-0.03904	0.078	0.7995	0.135	0	320	155	3
2026-02-12	16:07:14.130	9.695	-32.795	-35.91	0.859124	-0.60878	0.005124	0.0795	0.795	0.1395	0	320	155	3
2026-02-12	16:07:14.150	3.115	-24.64	-39.935	0.869372	-0.5612	0.013176	0.0675	0.7935	0.1425	0	320	155	3
2026-02-12	16:07:14.170	-8.155	-17.08	-39.165	0.8174	-0.596824	-0.002684	0.063	0.786	0.1455	0	320	155	3
2026-02-12	16:07:14.190	-14.945	-13.265	-34.475	0.738832	-0.62586	0.004392	0.0645	0.7755	0.144	0	320	155	3
2026-02-12	16:07:14.210	-17.01	-10.92	-29.89	0.671488	-0.6283	0.021716	0.06	0.7725	0.144	0	324	155	3
2026-02-12	16:07:14.230	-17.85	-9.1	-27.3	0.632204	-0.630252	0.022936	0.0645	0.774	0.1485	0	324	155	3
2026-02-12	16:07:14.250	-18.34	-7.49	-26.915	0.611708	-0.64294	0.03904	0.0675	0.768	0.153	0	324	155	3
2026-02-12	16:07:14.270	-19.39	-5.67	-27.615	0.601948	-0.673196	0.045872	0.0585	0.765	0.156	0	324	155	3
2026-02-12	16:07:14.290	-19.285	-3.99	-28.98	0.604144	-0.693692	0.04758	0.0555	0.7575	0.159	0	324	155	3
2026-02-12	16:07:14.310	-19.18	-2.555	-29.925	0.620248	-0.727852	0.04392	0.057	0.7515	0.162	0	324	155	3
2026-02-12	16:07:14.330	-16.73	-1.575	-30.59	0.631716	-0.7381	0.044408	0.0525	0.75	0.162	0	324	155	3
2026-02-12	16:07:14.350	-14.105	-0.7	-30.905	0.64416	-0.741272	0.03538	0.048	0.7395	0.162	0	324	155	3
2026-02-12	16:07:14.370	-9.73	-0.175	-31.08	0.636108	-0.741516	0.024888	0.051	0.729	0.165	0	324	155	3
2026-02-12	16:07:14.390	-2.24	-1.225	-30.625	0.632204	-0.755668	0.006832	0.048	0.726	0.165	0	324	155	3
2026-02-12	16:07:14.410	5.285	-4.305	-28.56	0.670512	-0.78324	-0.021228	0.0435	0.7245	0.1605	0	325	129	2
2026-02-12	16:07:14.430	8.575	-7.175	-24.36	0.755424	-0.81496	0.050752	0.042	0.7245	0.162	0	325	129	2
2026-02-12	16:07:14.450	7.98	-6.3	-18.9	0.859368	-0.805444	0.101748	0.0405	0.7245	0.168	0	325	129	2
2026-02-12	16:07:14.470	4.655	-2.66	-15.015	0.91744	-0.7625	0.068076	0.042	0.714	0.1665	0	325	129	2
2026-02-12	16:07:14.490	4.025	-0.63	-13.79	0.935252	-0.7625	-0.023668	0.039	0.711	0.165	0	325	129	2
2026-02-12	16:07:14.510	2.94	-0.14	-12.32	0.914268	-0.854976	-0.017324	0.036	0.717	0.168	0	325	129	2
2026-02-12	16:07:14.530	10.15	1.715	-9.975	0.934276	-0.943304	0.08662	0.036	0.7155	0.1635	0	325	129	2
2026-02-12	16:07:14.550	15.26	8.68	-6.44	0.916952	-0.94428	0.085156	0.0405	0.7125	0.1635	0	325	129	2
2026-02-12	16:07:14.570	17.29	14.385	-1.715	0.912804	-0.958432	0.009028	0.036	0.7095	0.162	0	325	129	2
2026-02-12	16:07:14.590	22.4	17.08	3.71	0.896456	-0.913536	-0.070516	0.0315	0.7125	0.1605	0	325	129	2
2026-02-12	16:07:14.610	30.485	15.89	14.665	0.887428	-0.7442	-0.050996	0.033	0.7185	0.162	0	320	101	3
2026-02-12	16:07:14.630	35.665	14.105	25.165	0.854244	-0.567544	-0.019032	0.0315	0.714	0.153	0	320	101	3
2026-02-12	16:07:14.650	43.96	11.235	36.015	0.820328	-0.405284	0.02684	0.0375	0.717	0.1455	0	320	101	3
2026-02-12	16:07:14.670	54.04	10.045	45.36	0.813496	-0.276452	0.117608	0.0405	0.7275	0.1425	0	320	101	3
2026-02-12	16:07:14.690	57.645	14.175	53.725	0.842288	-0.198616	0.182512	0.036	0.7365	0.135	0	320	101	3
2026-02-12	16:07:14.710	43.61	21.245	59.255	0.903776	-0.22692	0.228384	0.039	0.7425	0.126	0	320	101	3
2026-02-12	16:07:14.730	14.42	26.705	63.035	0.986004	-0.444324	0.253028	0.0495	0.7545	0.1185	0	320	101	3
2026-02-12	16:07:14.750	-3.465	33.355	65.205	1.003084	-0.597312	0.263032	0.054	0.7605	0.1185	0	320	101	3
2026-02-12	16:07:14.770	-12.005	41.58	61.215	0.949892	-0.645868	0.226188	0.0525	0.765	0.12	0	320	101	3
2026-02-12	16:07:14.790	-21.84	50.47	55.79	0.875228	-0.630496	0.163236	0.057	0.7785	0.1095	0	320	101	3
2026-02-12	16:07:14.810	-30.87	55.965	49.665	0.759572	-0.713944	0.111752	0.063	0.789	0.1005	0	313	86	3
2026-02-12	16:07:14.830	-22.925	53.13	43.19	0.630252	-0.75274	0.128344	0.063	0.789	0.1005	0	313	86	3
2026-02-12	16:07:14.850	-9.73	46.97	40.075	0.555832	-0.739076	0.153476	0.0675	0.7905	0.0945	0	313	86	3
2026-02-12	16:07:14.870	3.22	38.92	35.665	0.521184	-0.656604	0.197396	0.0705	0.7965	0.09	0	313	86	3
2026-02-12	16:07:14.890	11.585	31.675	30.45	0.5185	-0.581696	0.229604	0.066	0.8055	0.0855	0	313	86	3
2026-02-12	16:07:14.910	14.525	24.64	24.465	0.504592	-0.524112	0.237168	0.069	0.81	0.0795	0	313	86	3
2026-02-12	16:07:14.930	11.025	17.325	16.905	0.48068	-0.506788	0.242048	0.0765	0.81	0.0795	0	313	86	3
2026-02-12	16:07:14.950	5.95	9.345	10.045	0.45872	-0.546804	0.232776	0.0825	0.813	0.078	0	313	86	3
2026-02-12	16:07:14.970	2.835	1.435	3.535	0.421632	-0.546316	0.22326	0.0825	0.8145	0.0705	0	313	86	3
2026-02-12	16:07:14.990	-0.455	-5.845	-3.92	0.389668	-0.477508	0.259372	0.084	0.8145	0.0705	0	313	86	3
2026-02-12	16:07:15.010	-11.585	-11.795	-11.62	0.371124	-0.468968	0.287188	0.084	0.8145	0.075	0	305	96	3
2026-02-12	16:07:15.030	-24.57	-17.78	-20.825	0.372832	-0.515328	0.27816	0.081	0.8145	0.0765	0	305	96	3
2026-02-12	16:07:15.050	-34.72	-21.7	-28.14	0.388448	-0.582672	0.296948	0.078	0.816	0.081	0	305	96	3
2026-02-12	16:07:15.070	-41.965	-22.61	-31.99	0.42456	-0.686616	0.308416	0.078	0.81	0.0885	0	305	96	3
2026-02-12	16:07:15.090	-45.675	-21.7	-32.865	0.464332	-0.74786	0.330376	0.0735	0.801	0.0945	0	305	96	3
2026-02-12	16:07:15.110	-48.615	-21.35	-31.535	0.55266	-0.917684	0.284504	0.069	0.7965	0.096	0	305	96	3
2026-02-12	16:07:15.130	-42.035	-21.42	-24.92	0.726876	-1.223172	0.325984	0.0705	0.7875	0.1005	0	305	96	3
2026-02-12	16:07:15.150	-14.595	-18.585	-10.955	0.842044	-1.267092	0.253028	0.0705	0.7845	0.108	0	305	96	3
2026-02-12	16:07:15.170	6.545	-17.5	4.48	1.008452	-1.192672	0.297192	0.072	0.7815	0.111	0	305	96	3
2026-02-12	16:07:15.190	-3.36	-6.3	23.03	1.014796	-1.260748	0.3843	0.075	0.7845	0.1125	0	305	96	3
2026-02-12	16:07:15.210	-12.775	6.65	38.325	0.971852	-1.377624	0.410652	0.0765	0.7905	0.1155	0	301	129	3
2026-02-12	16:07:15.230	6.09	15.33	48.65	0.987712	-1.380796	0.343064	0.078	0.7905	0.1185	0	301	129	3
2026-02-12	16:07:15.250	34.475	21.875	47.565	0.94672	-0.903288	0.222284	0.0825	0.7935	0.1125	0	301	129	3
2026-02-12	16:07:15.270	47.915	23.17	28.105	0.748592	-0.448716	0.04758	0.084	0.801	0.1065	0	301	129	3
2026-02-12	16:07:15.290	38.01	16.03	6.195	0.645868	-0.141764	-0.03416	0.087	0.813	0.102	0	301	129	3
2026-02-12	16:07:15.310	10.675	6.265	-11.55	0.5673	-0.025376	-0.03294	0.09	0.8145	0.0945	0	301	129	3
2026-02-12	16:07:15.330	-16.87	-4.725	-25.9	0.500932	-0.139568	-0.008784	0.0885	0.816	0.0945	0	301	129	3
2026-02-12	16:07:15.350	-30.905	-13.65	-36.295	0.51118	-0.35014	0.005368	0.0825	0.8115	0.102	0	301	129	3
2026-02-12	16:07:15.370	-35.42	-20.09	-37.555	0.579744	-0.61366	0.025864	0.078	0.804	0.1005	0	301	129	3
2026-02-12	16:07:15.390	-35.805	-25.27	-28.105	0.607804	-0.828868	0.020252	0.078	0.7995	0.102	0	301	129	3
2026-02-12	16:07:15.410	-32.795	-31.57	-16.205	0.61732	-1.004304	-0.017324	0.081	0.792	0.1095	0	304	154	3
2026-02-12	16:07:15.430	-19.18	-36.365	-10.465	0.626592	-1.044564	-0.073932	0.0855	0.789	0.114	0	304	154	3
2026-02-12	16:07:15.450	9.205	-40.705	-19.04	0.621956	-0.815692	-0.14274	0.0765	0.789	0.1185	0	304	154	3
2026-02-12	16:07:15.470	19.075	-46.095	-35.035	0.721508	-0.6771	-0.04392	0.0765	0.789	0.1185	0	304	154	3
2026-02-12	16:07:15.490	12.6	-45.605	-42.595	0.797392	-0.648064	0.051972	0.0735	0.789	0.1245	0	304	154	3
2026-02-12	16:07:15.510	4.445	-40.425	-45.885	0.803004	-0.639036	0.083692	0.075	0.78	0.1365	0	304	154	3
2026-02-12	16:07:15.530	-0.805	-34.825	-46.27	0.78202	-0.606584	0.0366	0.0765	0.7695	0.1425	0	304	154	3
2026-02-12	16:07:15.550	-5.39	-31.535	-44.45	0.725412	-0.59048	-0.023424	0.075	0.7665	0.1425	0	304	154	3
2026-02-12	16:07:15.570	-5.74	-31.99	-41.44	0.664412	-0.617564	-0.05856	0.075	0.762	0.1515	0	304	154	3
2026-02-12	16:07:15.590	-0.49	-33.32	-39.34	0.626592	-0.653676	-0.048068	0.072	0.7545	0.156	0	304	154	3
2026-02-12	16:07:15.610	8.365	-33.18	-38.675	0.622932	-0.669048	-0.017568	0.0675	0.747	0.153	0	311	144	3
2026-02-12	16:07:15.630	13.965	-30.94	-39.375	0.622688	-0.67832	0.005612	0.069	0.7425	0.156	0	311	144	3
2026-02-12	16:07:15.650	15.33	-27.93	-39.585	0.632204	-0.709064	0.00976	0.072	0.741	0.1605	0	311	144	3
2026-02-12	16:07:15.670	12.285	-24.22	-38.605	0.647088	-0.728584	-0.014396	0.0675	0.7365	0.159	0	311	144	3
2026-02-12	16:07:15.690	9.8	-21.14	-37.1	0.652212	-0.725168	-0.040748	0.066	0.732	0.162	0	311	144	3
2026-02-12	16:07:15.710	11.06	-19.88	-34.86	0.6588	-0.721508	-0.036112	0.0645	0.723	0.165	0	311	144	3
2026-02-12	16:07:15.730	15.33	-18.62	-30.975	0.671244	-0.732488	0.005124	0.066	0.7185	0.1695	0	311	144	3
2026-02-12	16:07:15.750	19.005	-16.695	-25.41	0.694668	-0.72834	0.011468	0.0615	0.7215	0.1695	0	311	144	3
2026-02-12	16:07:15.770	18.2	-15.33	-19.705	0.757132	-0.7442	0.032208	0.06	0.7215	0.168	0	311	144	3
2026-02-12	16:07:15.790	13.615	-12.53	-14.945	0.865956	-0.757864	0.058072	0.06	0.714	0.1755	0	311	144	3
2026-02-12	16:07:15.810	9.1	-8.33	-12.355	0.919636	-0.721752	-0.00366	0.06	0.7125	0.1785	0	313	112	3
2026-02-12	16:07:15.830	8.12	-5.215	-11.375	0.962824	-0.749568	-0.078324	0.063	0.711	0.174	0	313	112	3
2026-02-12	16:07:15.850	10.99	-3.36	-9.03	1.0004	-0.835944	-0.080032	0.063	0.7065	0.1695	0	313	112	3
2026-02-12	16:07:15.870	14.525	0.945	-5.775	1.055056	-0.875716	-0.012932	0.0645	0.714	0.1785	0	313	112	3
2026-02-12	16:07:15.890	15.12	11.76	-0.91	1.042368	-0.871812	-0.040748	0.06	0.714	0.168	0	313	112	3
2026-02-12	16:07:15.910	12.355	16.765	4.48	0.981368	-0.844484	-0.086376	0.0615	0.717	0.1665	0	313	112	3
2026-02-12	16:07:15.930	12.145	18.2	11.76	0.917684	-0.807152	-0.087596	0.063	0.7125	0.162	0	313	112	3
2026-02-12	16:07:15.950	18.795	19.32	19.915	0.857904	-0.642452	-0.016592	0.063	0.708	0.162	0	313	112	3
2026-02-12	16:07:15.970	21.805	18.69	29.26	0.780068	-0.457744	-0.030744	0.0615	0.7155	0.165	0	313	112	3
2026-02-12	16:07:15.990	24.85	16.345	37.59	0.74054	-0.389668	0.01708	0.06	0.7215	0.1635	0	313	112	3
2026-02-12	16:07:16.010	34.335	17.29	45.675	0.732732	-0.366976	0.099064	0.0615	0.7275	0.1605	0	310	78	3
2026-02-12	16:07:16.030	44.065	19.95	52.5	0.756156	-0.32086	0.131516	0.063	0.735	0.1515	0	310	78	3
2026-02-12	16:07:16.050	39.585	26.075	57.54	0.848632	-0.373808	0.163236	0.0675	0.7425	0.144	0	310	78	3
2026-02-12	16:07:16.070	21.875	31.885	59.955	0.957212	-0.491172	0.187392	0.0705	0.7485	0.1425	0	310	78	3
2026-02-12	16:07:16.090	2.415	38.5	61.355	1.003084	-0.564372	0.26596	0.0765	0.7515	0.1275	0	310	78	3
2026-02-12	16:07:16.110	-21.105	51.45	57.26	0.93574	-0.625616	0.232288	0.0765	0.7515	0.1275	0	310	78	3
2026-02-12	16:07:16.130	-28.77	59.78	52.01	0.820328	-0.657336	0.137372	0.081	0.765	0.126	0	310	78	3
2026-02-12	16:07:16.150	-27.16	60.655	46.865	0.71492	-0.667584	0.08784	0.09	0.783	0.1185	0	310	78	3
2026-02-12	16:07:16.170	-20.72	55.965	42.805	0.61854	-0.64538	0.120536	0.0915	0.7845	0.111	0	310	78	3
2026-02-12	16:07:16.190	-14.7	49.56	38.045	0.553636	-0.655628	0.14884	0.09	0.7875	0.108	0	310	78	3
2026-02-12	16:07:16.210	-7.7	41.335	33.53	0.510936	-0.655384	0.195688	0.09	0.795	0.102	0	304	64	3
2026-02-12	16:07:16.230	-0.525	31.57	28.525	0.50752	-0.65392	0.216184	0.0885	0.804	0.1005	0	304	64	3
2026-02-12	16:07:16.250	5.25	22.295	24.15	0.527284	-0.653432	0.225212	0.09	0.804	0.096	0	304	64	3
2026-02-12	16:07:16.270	10.395	13.965	18.515	0.516792	-0.605608	0.215452	0.0945	0.798	0.093	0	304	64	3
2026-02-12	16:07:16.290	10.605	6.265	11.9	0.503128	-0.57584	0.214964	0.105	0.807	0.09	0	304	64	3
2026-02-12	16:07:16.310	5.39	-2.17	3.185	0.473848	-0.55388	0.213012	0.099	0.816	0.084	0	304	64	3
2026-02-12	16:07:16.330	-1.645	-9.24	-7.035	0.440908	-0.480192	0.219112	0.1005	0.813	0.081	0	304	64	3
2026-02-12	16:07:16.350	-12.32	-13.23	-16.135	0.41846	-0.454572	0.265716	0.099	0.81	0.084	0	304	64	3
2026-02-12	16:07:16.370	-23.415	-16.31	-24.57	0.411628	-0.53436	0.246928	0.0975	0.8085	0.0915	0	304	64	3
2026-02-12	16:07:16.390	-32.725	-18.62	-32.55	0.410408	-0.542412	0.2562	0.096	0.8055	0.096	0	304	64	3
2026-02-12	16:07:16.410	-39.06	-19.67	-38.36	0.433588	-0.7137	0.2257	0.096	0.7995	0.102	0	298	80	3
2026-02-12	16:07:16.430	-40.635	-20.58	-41.545	0.504348	-0.793732	0.2684	0.099	0.795	0.108	0	298	80	3
2026-02-12	16:07:16.450	-40.075	-21.56	-40.11	0.63562	-0.990152	0.2684	0.096	0.7875	0.1125	0	298	80	3
2026-02-12	16:07:16.470	-28.07	-20.475	-28.315	0.821304	-1.274656	0.29158	0.093	0.783	0.1125	0	298	80	3
2026-02-12	16:07:16.490	-4.655	-19.04	-8.19	0.906704	-1.146556	0.243756	0.087	0.771	0.1125	0	298	80	3
2026-02-12	16:07:16.510	-6.86	-16.1	11.445	0.933788	-1.102148	0.339892	0.09	0.777	0.1215	0	298	80	3
2026-02-12	16:07:16.530	-19.88	0.805	37.485	0.825452	-1.237812	0.461648	0.087	0.783	0.126	0	298	80	3
2026-02-12	16:07:16.550	-10.85	8.47	48.23	0.849364	-1.23952	0.375028	0.0855	0.783	0.129	0	298	80	3
2026-02-12	16:07:16.570	6.02	7.98	50.295	0.927688	-1.163636	0.137372	0.0915	0.7875	0.1335	0	298	80	3
2026-02-12	16:07:16.590	33.565	2.03	39.48	0.948428	-0.77592	-0.025132	0.096	0.7935	0.1305	0	298	80	3
2026-02-12	16:07:16.610	38.43	-5.32	20.58	0.920124	-0.460184	-0.019276	0.1005	0.798	0.1275	0	294	114	3
2026-02-12	16:07:16.630	21.07	-11.235	4.97	0.72224	-0.260592	0.045872	0.108	0.804	0.1245	0	294	114	3
2026-02-12	16:07:16.650	-0.105	-13.125	-12.635	0.560468	-0.225944	0.078812	0.105	0.807	0.126	0	294	114	3
2026-02-12	16:07:16.670	-9.66	-18.48	-27.265	0.450668	-0.339892	-0.000976	0.102	0.8025	0.1275	0	294	114	3
2026-02-12	16:07:16.690	-3.85	-24.675	-38.15	0.45384	-0.40992	-0.046848	0.1005	0.801	0.1275	0	294	114	3
2026-02-12	16:07:16.710	-8.26	-30.975	-38.745	0.535092	-0.608536	-0.033428	0.1065	0.792	0.1305	0	294	114	3
2026-02-12	16:07:16.730	-14.63	-37.975	-28.035	0.59414	-0.8967	-0.016104	0.099	0.7905	0.1275	0	294	114	3
2026-02-12	16:07:16.750	7.28	-43.96	-10.57	0.62708	-1.018944	-0.050752	0.099	0.7905	0.1275	0	294	114	3
2026-02-12	16:07:16.770	29.365	-47.46	-11.375	0.627812	-0.765672	-0.120048	0.1035	0.789	0.1365	0	294	114	3
2026-02-12	16:07:16.790	29.925	-50.855	-18.865	0.678808	-0.689788	-0.11346	0.1095	0.786	0.1485	0	294	114	3
2026-02-12	16:07:16.810	23.975	-51.345	-26.18	0.739076	-0.677588	-0.061732	0.105	0.7845	0.1515	0	296	127	3
2026-02-12	16:07:16.830	22.295	-49	-33.565	0.787876	-0.641964	-0.03904	0.105	0.7815	0.159	0	296	127	3
2026-02-12	16:07:16.850	17.57	-46.165	-37.905	0.807884	-0.603168	-0.027084	0.108	0.7755	0.165	0	296	127	3
2026-02-12	16:07:16.870	15.715	-43.295	-38.395	0.758108	-0.625616	-0.0244	0.0975	0.7755	0.1635	0	296	127	3
2026-02-12	16:07:16.890	17.745	-41.72	-36.96	0.713456	-0.641476	-0.037332	0.093	0.777	0.165	0	296	127	3
2026-02-12	16:07:16.910	24.78	-40.32	-35	0.705404	-0.593408	-0.026352	0.114	0.771	0.168	0	296	127	3
2026-02-12	16:07:16.930	27.79	-37.17	-33.88	0.707844	-0.550464	-0.00976	0.1005	0.7695	0.1755	0	296	127	3
2026-02-12	16:07:16.950	18.585	-31.85	-35.14	0.698328	-0.5612	0.024644	0.105	0.7695	0.1755	0	296	127	3
2026-02-12	16:07:16.970	10.57	-24.36	-35.35	0.692472	-0.607316	0.007564	0.105	0.7635	0.1785	0	296	127	3
2026-02-12	16:07:16.990	1.365	-18.025	-36.75	0.676124	-0.564128	-0.005368	0.102	0.756	0.1785	0	296	127	3
2026-02-12	16:07:17.010	-16.59	-15.12	-38.605	0.676124	-0.617808	-0.009272	0.0975	0.7575	0.1815	0	298	108	2
2026-02-12	16:07:17.030	-28.735	-11.27	-39.55	0.674172	-0.686616	0.017812	0.093	0.7515	0.186	0	298	108	2
2026-02-12	16:07:17.050	-40.215	-5.845	-39.795	0.692228	-0.74908	0.031964	0.087	0.738	0.189	0	298	108	2
2026-02-12	16:07:17.070	-36.365	-0.63	-36.575	0.727364	-0.747372	0.002196	0.087	0.7305	0.195	0	298	108	2
2026-02-12	16:07:17.090	-37.135	4.865	-33.74	0.77714	-0.644892	-0.0427	0.0855	0.726	0.201	0	298	108	2
2026-02-12	16:07:17.110	-48.125	8.68	-30.695	0.854244	-0.64172	-0.022204	0.0855	0.7245	0.2025	0	298	108	2
2026-02-12	16:07:17.130	-52.36	10.15	-28.42	0.97966	-0.748836	-0.005124	0.0855	0.7185	0.207	0	298	108	2
2026-02-12	16:07:17.150	-47.005	14.595	-24.92	1.039196	-0.648796	-0.04636	0.078	0.7125	0.1995	0	298	108	2
2026-02-12	16:07:17.170	-49.735	19.635	-24.78	1.037244	-0.676856	-0.129076	0.084	0.711	0.1995	0	298	108	2
2026-02-12	16:07:17.190	-46.585	19.845	-22.4	1.032364	-0.920124	-0.15494	0.081	0.7035	0.1995	0	298	108	2
2026-02-12	16:07:17.210	-31.92	19.285	-16.905	0.984052	-0.993812	-0.194712	0.0735	0.6945	0.1995	0	296	76	3
2026-02-12	16:07:17.230	-19.705	20.58	-11.235	0.918416	-0.92842	-0.179828	0.0735	0.6885	0.1965	0	296	76	3
2026-02-12	16:07:17.250	-14.385	20.02	-6.3	0.887672	-0.908412	-0.237168	0.075	0.687	0.1935	0	296	76	3
2026-02-12	16:07:17.270	-0.595	14.98	2.275	0.92232	-0.940132	-0.19032	0.0705	0.684	0.189	0	296	76	3
2026-02-12	16:07:17.290	14.455	13.72	13.475	0.824232	-0.696132	0.091012	0.069	0.681	0.1875	0	296	76	3
2026-02-12	16:07:17.310	14.105	14	24.22	0.757864	-0.302316	0.06222	0.069	0.684	0.189	0	296	76	3
2026-02-12	16:07:17.330	17.64	15.295	32.34	0.731756	-0.305732	0.061	0.0675	0.6855	0.195	0	296	76	3
2026-02-12	16:07:17.350	44.59	14.595	42.14	0.777872	-0.411628	-0.010492	0.066	0.693	0.1815	0	296	76	3
2026-02-12	16:07:17.370	95.165	15.855	52.115	0.876692	-0.588528	0.02806	0.0675	0.702	0.1875	0	296	76	3
2026-02-12	16:07:17.390	139.23	21.21	59.85	1.026508	-0.427732	0.298412	0.0675	0.702	0.1875	0	296	76	3
2026-02-12	16:07:17.410	95.55	39.445	62.265	1.066036	-0.554368	0.259128	0.072	0.72	0.1755	0	293	44	3
2026-02-12	16:07:17.430	73.43	53.585	63.665	1.056764	-0.61854	0.228628	0.0765	0.7425	0.1545	0	293	44	3
2026-02-12	16:07:17.450	40.915	63.525	59.815	0.99308	-0.614392	0.167628	0.078	0.75	0.138	0	293	44	3
2026-02-12	16:07:17.470	19.635	66.255	53.62	0.903288	-0.41602	0.16104	0.0825	0.7605	0.1305	0	293	44	3
2026-02-12	16:07:17.490	-22.015	66.08	51.835	0.79056	-0.559248	0.1159	0.081	0.771	0.1245	0	293	44	3
2026-02-12	16:07:17.510	-24.465	63.49	48.09	0.66856	-0.571448	0.047824	0.0795	0.7755	0.1185	0	293	44	3
2026-02-12	16:07:17.530	0.385	55.965	43.26	0.599264	-0.429928	0.107848	0.09	0.7815	0.105	0	293	44	3
2026-02-12	16:07:17.550	-7.455	47.215	39.935	0.561688	-0.479704	0.160064	0.0945	0.783	0.102	0	293	44	3
2026-02-12	16:07:17.570	-11.27	40.635	34.93	0.55022	-0.471164	0.21594	0.0915	0.7965	0.093	0	293	44	3
2026-02-12	16:07:17.590	-9.555	34.65	25.83	0.534116	-0.506788	0.231556	0.093	0.792	0.093	0	293	44	3
2026-02-12	16:07:17.610	-13.44	29.33	16.87	0.510448	-0.52338	0.22814	0.093	0.792	0.093	0	289	41	3
2026-02-12	16:07:17.630	-19.705	25.13	9.03	0.503128	-0.550708	0.26108	0.0945	0.7965	0.0885	0	289	41	3
2026-02-12	16:07:17.650	-28.63	22.12	2.275	0.463356	-0.520696	0.277184	0.0945	0.8025	0.087	0	289	41	3
2026-02-12	16:07:17.670	-39.27	19.88	-5.32	0.435052	-0.446032	0.311344	0.096	0.8055	0.084	0	289	41	3
2026-02-12	16:07:17.690	-56.35	18.165	-13.23	0.409676	-0.460428	0.336476	0.096	0.807	0.081	0	289	41	3
2026-02-12	16:07:17.710	-76.895	16.45	-20.79	0.387228	-0.554612	0.32696	0.0945	0.8055	0.0825	0	289	41	3
2026-02-12	16:07:17.730	-87.5	16.38	-28.735	0.375516	-0.642696	0.339648	0.096	0.804	0.0855	0	289	41	3
2026-02-12	16:07:17.750	-95.55	15.435	-33.005	0.405772	-0.823256	0.297924	0.0885	0.789	0.093	0	289	41	3
2026-02-12	16:07:17.770	-84.385	12.565	-30.45	0.53924	-0.999912	0.342576	0.093	0.7815	0.1005	0	289	41	3
2026-02-12	16:07:17.790	-59.535	10.675	-17.64	0.732244	-1.285148	0.3355	0.0855	0.78	0.105	0	289	41	3
2026-02-12	16:07:17.810	-21.805	11.97	8.155	0.925736	-1.258552	0.282308	0.0855	0.777	0.1035	0	288	73	3
2026-02-12	16:07:17.830	-37.625	14.805	22.995	0.847656	-1.199992	0.338428	0.084	0.7725	0.105	0	288	73	3
2026-02-12	16:07:17.850	-30.59	26.74	26.39	0.687348	-1.19804	0.440908	0.084	0.7725	0.105	0	288	73	3
2026-02-12	16:07:17.870	6.37	23.24	27.79	0.724924	-1.160464	0.578524	0.081	0.7755	0.105	0	288	73	3
2026-02-12	16:07:17.890	32.97	7.035	27.09	0.877912	-1.032608	0.286212	0.0795	0.777	0.102	0	288	73	3
2026-02-12	16:07:17.910	45.08	-10.885	23.66	0.920124	-0.924272	0.120292	0.09	0.7845	0.0975	0	288	73	3
2026-02-12	16:07:17.930	55.23	-22.96	8.96	1.032364	-0.754448	0.052948	0.099	0.789	0.099	0	288	73	3
2026-02-12	16:07:17.950	62.93	-29.4	-3.185	0.95038	-0.437004	0.014152	0.093	0.786	0.102	0	288	73	3
2026-02-12	16:07:17.970	52.85	-36.33	-18.445	0.726388	-0.260836	0.055388	0.096	0.7875	0.0975	0	288	73	3
2026-02-12	16:07:17.990	28.385	-41.405	-29.05	0.526308	-0.279136	0.049288	0.096	0.7905	0.0975	0	288	73	3
2026-02-12	16:07:18.010	-0.35	-49.315	-34.3	0.36356	-0.34526	-0.088328	0.096	0.7905	0.0975	0	293	118	3
2026-02-12	16:07:18.030	-43.4	-57.12	-33.285	0.383324	-0.421632	-0.0793	0.096	0.7905	0.0975	0	293	118	3
2026-02-12	16:07:18.050	-86.52	-58.905	-33.565	0.476532	-0.690032	-0.137616	0.0915	0.783	0.1095	0	293	118	3
2026-02-12	16:07:18.070	-81.235	-55.195	-29.295	0.593896	-1.097512	-0.231556	0.087	0.7725	0.1275	0	293	118	3
2026-02-12	16:07:18.090	-26.39	-48.79	-21.805	0.731268	-0.862296	-0.215696	0.0885	0.7665	0.138	0	293	118	3
2026-02-12	16:07:18.110	7.595	-41.58	-24.325	0.859124	-0.590724	-0.126392	0.0915	0.7635	0.1455	0	293	118	3
2026-02-12	16:07:18.130	9.485	-34.72	-27.195	0.960628	-0.560712	-0.073932	0.093	0.7635	0.1515	0	293	118	3
2026-02-12	16:07:18.150	1.82	-28.175	-27.125	1.00284	-0.504592	0.047092	0.093	0.7605	0.156	0	293	118	3
2026-02-12	16:07:18.170	-1.645	-21.805	-28.35	0.94062	-0.309392	0.027328	0.0915	0.759	0.159	0	293	118	3
2026-02-12	16:07:18.190	-11.69	-17.22	-28.28	0.756888	-0.379664	0.095648	0.09	0.747	0.165	0	293	118	3
2026-02-12	16:07:18.210	-4.935	-6.335	-28.525	0.732488	-0.480192	0.168848	0.0855	0.744	0.1605	0	302	124	3
2026-02-12	16:07:18.230	16.345	7.14	-31.15	0.659044	-0.609024	0.034404	0.0885	0.744	0.1725	0	302	124	3
2026-02-12	16:07:18.250	33.6	10.535	-29.75	0.62098	-0.698572	-0.084668	0.0885	0.744	0.1725	0	302	124	3
2026-02-12	16:07:18.270	31.115	5.6	-28.035	0.644648	-0.73932	-0.170068	0.0825	0.741	0.165	0	302	124	3
2026-02-12	16:07:18.290	21.07	-0.875	-27.055	0.719556	-0.765184	-0.162016	0.0825	0.735	0.1575	0	302	124	3
2026-02-12	16:07:18.310	-2.485	-9.135	-26.145	0.779336	-0.798124	-0.16226	0.084	0.7305	0.153	0	302	124	3
2026-02-12	16:07:18.330	-2.94	-15.155	-24.5	0.794464	-0.72224	-0.110044	0.0855	0.7245	0.153	0	302	124	3
2026-02-12	16:07:18.350	2.8	-16.03	-25.69	0.774944	-0.598776	-0.047336	0.09	0.7185	0.1575	0	302	124	3
2026-02-12	16:07:18.370	1.225	-15.505	-27.685	0.748836	-0.560468	0.015372	0.0855	0.72	0.156	0	302	124	3
2026-02-12	16:07:18.390	-6.02	-13.405	-29.575	0.737124	-0.591456	0.011956	0.078	0.7185	0.165	0	302	124	3
2026-02-12	16:07:18.410	-9.17	-10.605	-30.765	0.737856	-0.654896	0.005368	0.087	0.714	0.1635	0	311	98	2
2026-02-12	16:07:18.430	-9.905	-8.19	-31.36	0.746396	-0.74176	0.025132	0.075	0.714	0.1635	0	311	98	2
2026-02-12	16:07:18.450	-9.94	-5.46	-27.51	0.772504	-0.813008	0.01952	0.0675	0.705	0.1665	0	311	98	2
2026-02-12	16:07:18.470	-11.34	-2.135	-22.68	0.831796	-0.80032	0.05978	0.069	0.699	0.1695	0	311	98	2
2026-02-12	16:07:18.490	-12.775	1.925	-18.865	0.903532	-0.783484	0.061244	0.0705	0.693	0.1755	0	311	98	2
2026-02-12	16:07:18.510	-10.64	6.265	-16.415	0.918904	-0.7625	-0.00366	0.069	0.693	0.1725	0	311	98	2
2026-02-12	16:07:18.530	-5.285	8.155	-15.435	0.915	-0.757864	-0.018544	0.0675	0.693	0.168	0	311	98	2
2026-02-12	16:07:18.550	-0.84	9.625	-14.28	0.931104	-0.798124	0.0366	0.069	0.693	0.1695	0	311	98	2
2026-02-12	16:07:18.570	3.815	14.35	-11.48	0.951356	-0.83692	0.094184	0.069	0.693	0.171	0	311	98	2
2026-02-12	16:07:18.590	6.3	21.525	-7.105	0.948428	-0.861564	0.062952	0.0645	0.69	0.1635	0	311	98	2
2026-02-12	16:07:18.610	7.14	27.3	-2.45	0.931348	-0.858392	-0.054656	0.0705	0.6915	0.1665	0	314	66	3
2026-02-12	16:07:18.630	7.175	27.79	3.22	0.912072	-0.854976	-0.146644	0.0555	0.684	0.1575	0	314	66	3
2026-02-12	16:07:18.650	8.12	25.935	10.22	0.918904	-0.82838	-0.076372	0.054	0.6855	0.15	0	314	66	3
2026-02-12	16:07:18.670	20.86	27.44	23.625	0.836676	-0.543388	0.018544	0.063	0.6885	0.159	0	314	66	3
2026-02-12	16:07:18.690	28.49	30.345	30.94	0.809348	-0.392352	0.118096	0.0615	0.6945	0.15	0	314	66	3
2026-02-12	16:07:18.710	35.525	34.545	36.61	0.754204	-0.27206	0.115168	0.0585	0.7005	0.141	0	314	66	3
2026-02-12	16:07:18.730	40.46	35.525	41.23	0.766648	-0.2257	0.114192	0.0585	0.708	0.1365	0	314	66	3
2026-02-12	16:07:18.750	28.735	34.09	45.57	0.830088	-0.355752	0.143228	0.0645	0.717	0.126	0	314	66	3
2026-02-12	16:07:18.770	11.235	32.655	50.365	0.93452	-0.539484	0.214476	0.069	0.72	0.1215	0	314	66	3
2026-02-12	16:07:18.790	-0.91	35.42	55.055	0.999424	-0.661728	0.271816	0.066	0.723	0.1245	0	314	66	3
2026-02-12	16:07:18.810	-3.185	40.46	56.84	0.987956	-0.67954	0.240828	0.0735	0.7395	0.1155	0	311	50	3
2026-02-12	16:07:18.830	-2.345	44.555	56.735	0.902556	-0.68076	0.14884	0.069	0.744	0.108	0	311	50	3
2026-02-12	16:07:18.850	-1.12	45.85	55.72	0.81496	-0.709552	0.11834	0.072	0.744	0.105	0	311	50	3
2026-02-12	16:07:18.870	7.21	41.79	55.965	0.693204	-0.68564	0.114924	0.072	0.753	0.1065	0	311	50	3
2026-02-12	16:07:18.890	19.6	35.42	51.835	0.586576	-0.560224	0.14274	0.072	0.753	0.1065	0	311	50	3
2026-02-12	16:07:18.910	22.785	28.84	45.78	0.541436	-0.49654	0.173728	0.0825	0.768	0.0945	0	311	50	3
2026-02-12	16:07:18.930	20.16	22.645	38.255	0.505568	-0.447984	0.20862	0.0885	0.783	0.0765	0	311	50	3
2026-02-12	16:07:18.950	11.795	16.66	29.645	0.492148	-0.465796	0.218624	0.0885	0.789	0.066	0	311	50	3
2026-02-12	16:07:18.970	2.065	11.83	21.77	0.488732	-0.538752	0.20496	0.0945	0.795	0.063	0	311	50	3
2026-02-12	16:07:18.990	-0.35	7.035	15.015	0.480192	-0.565104	0.204716	0.093	0.7965	0.0705	0	311	50	3
2026-02-12	16:07:19.010	-0.315	2.59	8.82	0.46726	-0.510448	0.218136	0.1005	0.792	0.063	0	306	60	3
2026-02-12	16:07:19.030	-6.895	-0.98	1.225	0.448228	-0.417484	0.239608	0.1005	0.798	0.069	0	306	60	3
2026-02-12	16:07:19.050	-23.1	-3.22	-7.455	0.435052	-0.39772	0.29402	0.1065	0.798	0.0735	0	306	60	3
2026-02-12	16:07:19.070	-39.69	-3.36	-15.82	0.41236	-0.459452	0.326472	0.0915	0.7935	0.066	0	306	60	3
2026-02-12	16:07:19.090	-50.925	-4.27	-23.94	0.401868	-0.575108	0.280112	0.108	0.7905	0.075	0	306	60	3
2026-02-12	16:07:19.110	-55.65	-5.495	-29.435	0.434564	-0.688568	0.273524	0.102	0.786	0.081	0	306	60	3
2026-02-12	16:07:19.130	-59.22	-5.88	-30.625	0.509472	-0.752252	0.293776	0.0915	0.78	0.09	0	306	60	3
2026-02-12	16:07:19.150	-60.62	-6.895	-26.425	0.677832	-1.047492	0.372588	0.0825	0.777	0.0945	0	306	60	3
2026-02-12	16:07:19.170	-40.32	-5.635	-11.41	0.836188	-1.274168	0.29524	0.0855	0.777	0.099	0	306	60	3
2026-02-12	16:07:19.190	-11.235	-6.125	4.48	0.998448	-1.260504	0.336964	0.09	0.7755	0.102	0	306	60	3
2026-02-12	16:07:19.210	-18.9	2.03	23.415	0.99918	-1.333704	0.398452	0.09	0.7635	0.102	0	301	96	3
2026-02-12	16:07:19.230	-30.625	13.79	37.31	0.819352	-1.3237	0.414312	0.0915	0.774	0.0945	0	301	96	3
2026-02-12	16:07:19.250	-15.715	21.945	42.245	0.747616	-1.170712	0.484828	0.09	0.774	0.0975	0	301	96	3
2026-02-12	16:07:19.270	2.38	17.64	41.37	0.840092	-1.063596	0.36234	0.09	0.7815	0.1065	0	301	96	3
2026-02-12	16:07:19.290	20.72	12.985	31.465	0.904508	-0.789096	0.198128	0.102	0.783	0.102	0	301	96	3
2026-02-12	16:07:19.310	37.625	9.03	8.295	0.897188	-0.552416	0.096136	0.102	0.795	0.1035	0	301	96	3
2026-02-12	16:07:19.330	31.22	5.46	-3.78	0.7137	-0.22814	-0.004392	0.102	0.7935	0.099	0	301	96	3
2026-02-12	16:07:19.350	5.635	-5.915	-13.755	0.55022	-0.181048	-0.045872	0.1005	0.792	0.09	0	301	96	3
2026-02-12	16:07:19.370	-18.165	-14	-27.615	0.478728	-0.261324	-0.07905599	0.096	0.7905	0.087	0	301	96	3
2026-02-12	16:07:19.390	-22.015	-25.34	-36.82	0.514596	-0.39284	-0.054412	0.0945	0.7875	0.0915	0	301	96	3
2026-02-12	16:07:19.410	-25.445	-33.565	-39.97	0.552172	-0.59536	-0.013176	0.096	0.7815	0.0945	0	303	135	3
2026-02-12	16:07:19.430	-25.62	-39.13	-36.4	0.5978	-0.941352	-0.042944	0.0945	0.78	0.099	0	303	135	3
2026-02-12	16:07:19.450	-4.97	-41.685	-28.175	0.666608	-1.13582	-0.10248	0.0975	0.777	0.111	0	303	135	3
2026-02-12	16:07:19.470	31.325	-44.835	-27.79	0.712724	-0.843264	-0.139568	0.093	0.771	0.1065	0	303	135	3
2026-02-12	16:07:19.490	40.635	-48.93	-37.975	0.811544	-0.539484	-0.093696	0.0945	0.774	0.12	0	303	135	3
2026-02-12	16:07:19.510	12.88	-46.9	-46.235	0.925492	-0.561444	-0.014884	0.0915	0.762	0.1245	0	303	135	3
2026-02-12	16:07:19.530	-0.63	-41.37	-52.395	0.962092	-0.524112	0.030744	0.0915	0.762	0.1245	0	303	135	3
2026-02-12	16:07:19.550	-2.695	-36.05	-55.86	0.8723	-0.493368	-0.007564	0.09	0.759	0.1305	0	303	135	3
2026-02-12	16:07:19.570	-2.345	-35.63	-54.635	0.799832	-0.526308	-0.04392	0.0825	0.747	0.135	0	303	135	3
2026-02-12	16:07:19.590	-1.715	-35.245	-49.805	0.728584	-0.578036	-0.026596	0.081	0.738	0.1395	0	303	135	3
2026-02-12	16:07:19.610	0.49	-32.445	-44.17	0.690276	-0.627812	-0.009516	0.084	0.738	0.144	0	308	135	3
2026-02-12	16:07:19.630	2.94	-27.58	-38.115	0.641964	-0.630984	0.000244	0.084	0.732	0.1515	0	308	135	3
2026-02-12	16:07:19.650	0.455	-21.63	-34.055	0.625372	-0.6283	0.002928	0.075	0.726	0.15	0	308	135	3
2026-02-12	16:07:19.670	-6.16	-16.1	-30.8	0.618052	-0.657336	0	0.084	0.723	0.156	0	308	135	3
2026-02-12	16:07:19.690	-10.255	-10.535	-29.26	0.628544	-0.684176	-0.011468	0.081	0.714	0.1575	0	308	135	3
2026-02-12	16:07:19.710	-10.99	-5.775	-29.05	0.637084	-0.682712	-0.015128	0.075	0.7125	0.1485	0	308	135	3
2026-02-12	16:07:19.730	-11.62	-0.63	-28.735	0.674904	-0.6832	0.0061	0.081	0.7095	0.153	0	308	135	3
2026-02-12	16:07:19.750	-13.02	4.83	-26.6	0.715408	-0.709552	0.016104	0.078	0.702	0.1545	0	308	135	3
2026-02-12	16:07:19.770	-13.16	8.505	-23.135	0.74054	-0.732976	0.003172	0.072	0.696	0.156	0	308	135	3
2026-02-12	16:07:19.790	-12.81	9.52	-19.32	0.78934	-0.742248	-0.014396	0.0675	0.693	0.153	0	308	135	3
2026-02-12	16:07:19.810	-14.77	8.785	-14.21	0.876448	-0.766648	0.013664	0.066	0.69	0.1515	0	311	108	2
2026-02-12	16:07:19.830	-17.29	9.835	-9.135	0.94794	-0.750544	0.043188	0.066	0.684	0.1605	0	311	108	2
2026-02-12	16:07:19.850	-15.4	11.165	-5.425	0.97356	-0.740784	0.016836	0.066	0.681	0.162	0	311	108	2
2026-02-12	16:07:19.870	-9.66	11.305	-4.2	0.97112	-0.742736	-0.005856	0.063	0.687	0.144	0	311	108	2
2026-02-12	16:07:19.890	-2.765	10.605	-4.34	0.989908	-0.820084	0.0488	0.06	0.678	0.1455	0	311	108	2
2026-02-12	16:07:19.910	2.765	12.74	-3.78	0.989664	-0.897432	0.048312	0.0675	0.6855	0.159	0	311	108	2
2026-02-12	16:07:19.930	10.815	14.56	-2.87	0.979172	-0.956236	-0.011224	0.0675	0.6885	0.15	0	311	108	2
2026-02-12	16:07:19.950	28.035	11.55	1.645	0.92476	-0.92964	-0.119072	0.069	0.6945	0.153	0	311	108	2
2026-02-12	16:07:19.970	39.095	6.44	7.7	0.933788	-0.776896	-0.049776	0.066	0.6915	0.1485	0	311	108	2
2026-02-12	16:07:19.990	48.51	3.71	15.47	0.899628	-0.563396	-0.0122	0.069	0.6915	0.1455	0	311	108	2
2026-02-12	16:07:20.010	58.52	0	24.29	0.886452	-0.370392	0.022936	0.078	0.693	0.147	0	309	78	3
2026-02-12	16:07:20.030	66.64	-1.05	32.725	0.84546	-0.24156	0.079544	0.0795	0.6945	0.1455	0	309	78	3
2026-02-12	16:07:20.050	67.97	1.75	41.195	0.82594	-0.143716	0.105896	0.0675	0.7005	0.138	0	309	78	3
2026-02-12	16:07:20.070	56.21	4.305	50.575	0.853024	-0.18666	0.11712	0.0705	0.7065	0.1305	0	309	78	3
2026-02-12	16:07:20.090	37.17	9.66	57.645	0.919636	-0.326472	0.140788	0.0765	0.726	0.132	0	309	78	3
2026-02-12	16:07:20.110	24.15	17.22	62.02	0.988688	-0.473848	0.178852	0.0795	0.726	0.126	0	309	78	3
2026-02-12	16:07:20.130	15.61	27.545	64.19	1.003572	-0.577304	0.206912	0.0945	0.7365	0.1185	0	309	78	3
2026-02-12	16:07:20.150	-0.77	42.7	63.28	0.936472	-0.65758	0.15738	0.0915	0.7545	0.1155	0	309	78	3
2026-02-12	16:07:20.170	-17.22	54.565	61.075	0.783484	-0.701988	0.090524	0.0915	0.7545	0.1155	0	309	78	3
2026-02-12	16:07:20.190	-26.915	58.765	58.345	0.663436	-0.720044	0.105408	0.093	0.765	0.111	0	309	78	3
2026-02-12	16:07:20.210	-25.76	59.745	55.965	0.576816	-0.734928	0.125416	0.1005	0.777	0.102	0	306	64	3
2026-02-12	16:07:20.230	-13.685	58.835	52.465	0.539972	-0.65148	0.172752	0.1065	0.78	0.096	0	306	64	3
2026-02-12	16:07:20.250	-2.555	55.825	47.53	0.539728	-0.563152	0.177632	0.1065	0.786	0.084	0	306	64	3
2026-02-12	16:07:20.270	4.55	52.08	40.425	0.558516	-0.471896	0.203984	0.1125	0.795	0.0855	0	306	64	3
2026-02-12	16:07:20.290	-0.455	48.02	32.935	0.554856	-0.485072	0.227408	0.111	0.795	0.0855	0	306	64	3
2026-02-12	16:07:20.310	-8.96	42	24.5	0.519232	-0.537532	0.217892	0.114	0.7965	0.0705	0	306	64	3
2026-02-12	16:07:20.330	-10.22	33.88	16.31	0.487512	-0.563396	0.215208	0.1125	0.813	0.0675	0	306	64	3
2026-02-12	16:07:20.350	-8.96	24.29	8.12	0.446764	-0.520696	0.224724	0.1125	0.7965	0.066	0	306	64	3
2026-02-12	16:07:20.370	-15.855	12.705	-3.08	0.406748	-0.443104	0.26596	0.12	0.8085	0.0645	0	306	64	3
2026-02-12	16:07:20.390	-32.76	2.38	-15.085	0.377224	-0.443348	0.299876	0.1215	0.8025	0.0585	0	306	64	3
2026-02-12	16:07:20.410	-43.575	-4.34	-23.555	0.373808	-0.532652	0.327692	0.1215	0.8025	0.063	0	301	76	3
2026-02-12	16:07:20.430	-51.625	-8.82	-30.03	0.3904	-0.632204	0.335744	0.1215	0.81	0.0735	0	301	76	3
2026-02-12	16:07:20.450	-56.175	-12.005	-33.495	0.438224	-0.777872	0.336232	0.12	0.792	0.072	0	301	76	3
2026-02-12	16:07:20.470	-53.235	-14.77	-32.935	0.508984	-0.878644	0.324032	0.1125	0.7875	0.081	0	301	76	3
2026-02-12	16:07:20.490	-45.43	-16.38	-26.81	0.650992	-1.165588	0.374052	0.1095	0.783	0.0885	0	301	76	3
2026-02-12	16:07:20.510	-19.18	-15.33	-12.53	0.729072	-1.277096	0.305732	0.114	0.783	0.09	0	301	76	3
2026-02-12	16:07:20.530	4.2	-16.24	-0.14	0.837652	-1.0858	0.267668	0.1005	0.78	0.09	0	301	76	3
2026-02-12	16:07:20.550	-19.915	-9.205	14.945	0.789828	-1.196576	0.390156	0.1065	0.786	0.0945	0	301	76	3
2026-02-12	16:07:20.570	-36.19	2.73	26.53	0.6649	-1.28954	0.446276	0.1155	0.7725	0.096	0	301	76	3
2026-02-12	16:07:20.590	-17.605	13.265	31.71	0.562176	-1.044564	0.358436	0.111	0.786	0.0975	0	301	76	3
2026-02-12	16:07:20.610	-5.495	5.11	29.225	0.701256	-0.97234	0.220088	0.117	0.789	0.1005	0	300	115	3
2026-02-12	16:07:20.630	17.605	-4.655	20.65	0.943548	-0.953308	0.20618	0.123	0.7935	0.102	0	300	115	3
2026-02-12	16:07:20.650	38.675	-3.92	10.955	1.135088	-0.966972	0.201544	0.1245	0.7965	0.102	0	300	115	3
2026-02-12	16:07:20.670	66.955	-1.68	5.04	1.070672	-0.578768	0.044164	0.1275	0.795	0.108	0	300	115	3
2026-02-12	16:07:20.690	59.5	-11.585	-2.485	0.841556	-0.153476	-0.119072	0.1275	0.7965	0.1035	0	300	115	3
2026-02-12	16:07:20.710	17.85	-25.305	-13.79	0.64172	-0.130052	-0.137128	0.1305	0.804	0.093	0	300	115	3
2026-02-12	16:07:20.730	-8.96	-40.25	-26.215	0.577792	-0.281088	-0.10126	0.1125	0.801	0.096	0	300	115	3
2026-02-12	16:07:20.750	-17.325	-52.5	-34.79	0.562908	-0.463356	-0.029524	0.1245	0.801	0.102	0	300	115	3
2026-02-12	16:07:20.770	-24.71	-58.905	-36.12	0.549732	-0.773236	-0.003172	0.1305	0.795	0.1065	0	300	115	3
2026-02-12	16:07:20.790	-16.275	-59.745	-30.905	0.549	-1.011624	-0.020496	0.12	0.789	0.123	0	300	115	3
2026-02-12	16:07:20.810	27.405	-54.985	-28.35	0.526796	-0.817644	-0.080764	0.12	0.789	0.123	0	304	142	3
2026-02-12	16:07:20.830	34.09	-54.74	-33.425	0.62342	-0.608292	-0.07564	0.12	0.7785	0.129	0	304	142	3
2026-02-12	16:07:20.850	19.495	-50.89	-38.57	0.738832	-0.532164	-0.020496	0.12	0.7695	0.1365	0	304	142	3
2026-02-12	16:07:20.870	5.425	-43.995	-43.26	0.842044	-0.512156	0.020252	0.1305	0.7755	0.141	0	304	142	3
2026-02-12	16:07:20.890	0.07	-36.26	-46.795	0.900848	-0.528504	-0.004392	0.129	0.7665	0.1455	0	304	142	3
2026-02-12	16:07:20.910	-1.855	-30.485	-46.305	0.895968	-0.579744	-0.060024	0.1215	0.762	0.153	0	304	142	3
2026-02-12	16:07:20.930	0.525	-27.3	-42.91	0.8479	-0.610732	-0.09467199	0.1155	0.7605	0.147	0	304	142	3
2026-02-12	16:07:20.950	2.345	-24.64	-39.235	0.781288	-0.641964	-0.07198	0.126	0.756	0.15	0	304	142	3
2026-02-12	16:07:20.970	3.71	-22.26	-35.945	0.710284	-0.643184	-0.031476	0.126	0.7395	0.159	0	304	142	3
2026-02-12	16:07:20.990	0.805	-18.585	-33.495	0.663192	-0.641964	0.002928	0.1245	0.7455	0.1575	0	304	142	3
2026-02-12	16:07:21.010	-5.18	-12.915	-31.745	0.621224	-0.663192	0.022692	0.123	0.744	0.156	0	310	129	2
2026-02-12	16:07:21.030	-9.345	-7.7	-30.24	0.595848	-0.698572	0.02928	0.12	0.7395	0.1605	0	310	129	2
2026-02-12	16:07:21.050	-10.36	-3.675	-29.155	0.596336	-0.700768	0.043432	0.117	0.7365	0.1665	0	310	129	2
2026-02-12	16:07:21.070	-10.78	-0.525	-28.35	0.60634	-0.704184	0.055632	0.1125	0.735	0.1695	0	310	129	2
2026-02-12	16:07:21.090	-9.765	1.89	-26.88	0.64172	-0.723948	0.052704	0.1155	0.7335	0.171	0	310	129	2
2026-02-12	16:07:21.110	-8.47	4.06	-23.975	0.676856	-0.772504	0	0.099	0.729	0.1635	0	310	129	2
2026-02-12	16:07:21.130	-4.935	3.535	-20.16	0.726144	-0.792024	-0.06954	0.108	0.7155	0.168	0	310	129	2
2026-02-12	16:07:21.150	-8.715	1.505	-17.29	0.807152	-0.795928	-0.062708	0.1095	0.723	0.168	0	310	129	2
2026-02-12	16:07:21.170	-14.455	-1.575	-17.01	0.901336	-0.800076	-0.032208	0.1125	0.72	0.171	0	310	129	2
2026-02-12	16:07:21.190	-3.08	-6.37	-17.605	0.945988	-0.777384	-0.026596	0.105	0.723	0.1665	0	310	129	2
2026-02-12	16:07:21.210	14.63	-11.9	-17.22	0.941108	-0.7747	-0.02318	0.1035	0.72	0.1635	0	311	98	3
2026-02-12	16:07:21.230	25.655	-12.775	-10.22	0.990152	-0.83204	0.135176	0.111	0.7155	0.1695	0	311	98	3
2026-02-12	16:07:21.250	27.755	-6.09	-4.305	0.953552	-0.771528	0.09394	0.1065	0.711	0.171	0	311	98	3
2026-02-12	16:07:21.270	23.17	-1.05	1.12	0.932812	-0.816912	-0.01708	0.102	0.7065	0.174	0	311	98	3
2026-02-12	16:07:21.290	18.865	3.255	6.265	0.911096	-0.913536	-0.090524	0.114	0.7155	0.162	0	311	98	3
2026-02-12	16:07:21.310	23.835	7.28	12.705	0.900604	-0.911096	-0.108336	0.1125	0.7215	0.168	0	311	98	3
2026-02-12	16:07:21.330	29.435	12.88	22.575	0.892308	-0.780068	-0.0732	0.117	0.7185	0.159	0	311	98	3
2026-02-12	16:07:21.350	31.815	17.64	33.18	0.856684	-0.565104	-0.072712	0.111	0.726	0.1635	0	311	98	3
2026-02-12	16:07:21.370	32.69	21.07	44.17	0.839848	-0.408456	0.014396	0.114	0.7365	0.1575	0	311	98	3
2026-02-12	16:07:21.390	34.335	27.44	52.71	0.832284	-0.22814	0.072712	0.1095	0.735	0.1515	0	311	98	3
2026-02-12	16:07:21.410	30.17	33.04	60.13	0.870592	-0.187392	0.101992	0.1185	0.753	0.1515	0	308	69	3
2026-02-12	16:07:21.430	21	41.125	65.24	0.942328	-0.29402	0.141032	0.1245	0.7635	0.141	0	308	69	3
2026-02-12	16:07:21.450	1.89	52.57	66.57	1.016016	-0.543144	0.238632	0.1245	0.7635	0.141	0	308	69	3
2026-02-12	16:07:21.470	-15.225	58.555	65.66	0.951844	-0.62708	0.276452	0.1305	0.768	0.138	0	308	69	3
2026-02-12	16:07:21.490	-34.195	62.965	61.635	0.86254	-0.758108	0.244732	0.123	0.771	0.1245	0	308	69	3
2026-02-12	16:07:21.510	-33.775	63.56	55.125	0.737856	-0.801296	0.166652	0.138	0.7935	0.1275	0	308	69	3
2026-02-12	16:07:21.530	-23.8	58.38	50.015	0.649528	-0.84546	0.143716	0.144	0.792	0.1155	0	308	69	3
2026-02-12	16:07:21.550	-1.61	49.875	47.845	0.569008	-0.776652	0.16714	0.1395	0.798	0.111	0	308	69	3
2026-02-12	16:07:21.570	21.14	37.765	45.115	0.538996	-0.62342	0.17568	0.141	0.8025	0.114	0	308	69	3
2026-02-12	16:07:21.590	32.305	26.495	40.005	0.510936	-0.500932	0.17202	0.1455	0.8175	0.105	0	308	69	3
2026-02-12	16:07:21.610	28.49	15.435	34.3	0.503372	-0.416264	0.172508	0.1515	0.8205	0.096	0	304	62	3
2026-02-12	16:07:21.630	13.825	7.875	26.53	0.494344	-0.416752	0.190076	0.1545	0.8235	0.0975	0	304	62	3
2026-02-12	16:07:21.650	-1.47	2.59	17.15	0.498736	-0.514108	0.2013	0.156	0.8235	0.087	0	304	62	3
2026-02-12	16:07:21.670	-8.225	0.63	8.68	0.483608	-0.579012	0.202276	0.156	0.8235	0.087	0	304	62	3
2026-02-12	16:07:21.690	-9.03	-0.385	1.12	0.46238	-0.549732	0.2013	0.162	0.828	0.0945	0	304	62	3
2026-02-12	16:07:21.710	-12.74	-0.7	-7.875	0.43798	-0.472628	0.255224	0.1605	0.825	0.093	0	304	62	3
2026-02-12	16:07:21.730	-24.01	0.315	-17.465	0.423584	-0.455548	0.292312	0.1605	0.825	0.096	0	304	62	3
2026-02-12	16:07:21.750	-39.83	2.66	-26.11	0.409676	-0.516304	0.305488	0.159	0.831	0.099	0	304	62	3
2026-02-12	16:07:21.770	-54.425	6.055	-33.11	0.418704	-0.654896	0.30378	0.159	0.8295	0.1035	0	304	62	3
2026-02-12	16:07:21.790	-61.565	8.435	-37.135	0.447008	-0.805688	0.250344	0.1575	0.8145	0.1035	0	304	62	3
2026-02-12	16:07:21.810	-60.935	7.805	-36.26	0.530944	-0.959164	0.266936	0.1485	0.813	0.1035	0	300	84	3
2026-02-12	16:07:21.830	-54.25	7.56	-26.845	0.704672	-1.265628	0.395036	0.1485	0.81	0.108	0	300	84	3
2026-02-12	16:07:21.850	-33.845	10.5	-8.855	0.788852	-1.317112	0.364048	0.1425	0.8085	0.1125	0	300	84	3
2026-02-12	16:07:21.870	-17.57	12.6	16.38	0.80032	-1.15778	0.334768	0.144	0.8025	0.1125	0	300	84	3
2026-02-12	16:07:21.890	-35.035	19.88	28.7	0.719556	-1.2261	0.405772	0.141	0.7965	0.1185	0	300	84	3
2026-02-12	16:07:21.910	-30.485	20.685	36.225	0.76372	-1.33712	0.360388	0.1485	0.807	0.12	0	300	84	3
2026-02-12	16:07:21.930	5.18	15.855	38.325	0.917196	-1.163636	0.29646	0.144	0.804	0.1215	0	300	84	3
2026-02-12	16:07:21.950	29.785	16.38	31.71	0.981124	-0.995276	0.287432	0.1485	0.8055	0.117	0	300	84	3
2026-02-12	16:07:21.970	50.96	13.545	20.685	0.96624	-0.784216	0.104188	0.1575	0.813	0.111	0	300	84	3
2026-02-12	16:07:21.990	59.115	11.445	7.28	0.813496	-0.291336	-0.06954	0.1575	0.8175	0.1035	0	300	84	3
2026-02-12	16:07:22.010	23.03	-7.525	-11.48	0.564128	-0.021716	-0.120536	0.1575	0.8175	0.1035	0	301	122	3
2026-02-12	16:07:22.030	-3.045	-19.25	-22.4	0.49044	-0.1159	-0.08784	0.1635	0.825	0.1035	0	301	122	3
2026-02-12	16:07:22.050	-22.75	-30.1	-34.615	0.475556	-0.285968	-0.023424	0.1635	0.8205	0.0915	0	301	122	3
2026-02-12	16:07:22.070	-33.775	-37.31	-40.11	0.511912	-0.559492	0.023668	0.156	0.819	0.1065	0	301	122	3
2026-02-12	16:07:22.090	-35.91	-43.05	-30.31	0.59292	-1.073356	-0.014884	0.156	0.822	0.117	0	301	122	3
2026-02-12	16:07:22.110	-6.335	-44.415	-20.65	0.628056	-1.140944	-0.077104	0.1515	0.807	0.1215	0	301	122	3
2026-02-12	16:07:22.130	30.695	-48.615	-24.36	0.67954	-0.810568	-0.121024	0.1605	0.804	0.1215	0	301	122	3
2026-02-12	16:07:22.150	30.17	-50.33	-32.725	0.77104	-0.615856	-0.09076799	0.1455	0.801	0.129	0	301	122	3
2026-02-12	16:07:22.170	11.27	-47.25	-38.115	0.846436	-0.605852	-0.042944	0.156	0.81	0.132	0	301	122	3
2026-02-12	16:07:22.190	3.255	-41.685	-42.315	0.900604	-0.568764	-0.018788	0.1485	0.8115	0.126	0	301	122	3
2026-02-12	16:07:22.210	-4.41	-35.35	-44.03	0.872056	-0.560224	-0.032696	0.1455	0.801	0.126	0	308	132	3
2026-02-12	16:07:22.230	-6.755	-31.29	-42.42	0.798856	-0.587552	-0.067588	0.1455	0.798	0.1425	0	308	132	3
2026-02-12	16:07:22.250	-3.64	-29.645	-38.885	0.733464	-0.621956	-0.052216	0.135	0.7875	0.144	0	308	132	3
2026-02-12	16:07:22.270	-0.525	-28	-35.14	0.658068	-0.644648	-0.026352	0.1395	0.789	0.1455	0	308	132	3
2026-02-12	16:07:22.290	2.66	-24.85	-32.235	0.61122	-0.6344	0.00854	0.135	0.7815	0.147	0	308	132	3
2026-02-12	16:07:22.310	-1.68	-20.3	-31.71	0.598776	-0.63684	0.035624	0.141	0.78	0.1545	0	308	132	3
2026-02-12	16:07:22.330	-10.255	-16.065	-32.235	0.6161	-0.677832	0.010248	0.135	0.777	0.1575	0	308	132	3
2026-02-12	16:07:22.350	-13.125	-12.81	-33.46	0.651724	-0.700768	-0.018544	0.144	0.774	0.1665	0	308	132	3
2026-02-12	16:07:22.370	-10.955	-10.605	-34.65	0.68564	-0.703208	-0.017568	0.1335	0.765	0.153	0	308	132	3
2026-02-12	16:07:22.390	-7.91	-8.68	-34.825	0.723704	-0.703696	0.012444	0.1275	0.771	0.162	0	308	132	3
2026-02-12	16:07:22.410	-5.915	-5.74	-32.83	0.744932	-0.739564	0.033428	0.132	0.762	0.1575	0	314	110	2
2026-02-12	16:07:22.430	-1.75	-3.535	-29.68	0.73688	-0.749812	0.024156	0.129	0.756	0.159	0	314	110	2
2026-02-12	16:07:22.450	1.645	-2.94	-26.215	0.73078	-0.73688	-0.000976	0.132	0.756	0.165	0	314	110	2
2026-02-12	16:07:22.470	1.68	-4.13	-22.12	0.75396	-0.746152	0.010248	0.126	0.7485	0.1665	0	314	110	2
2026-02-12	16:07:22.490	-2.38	-4.235	-16.905	0.81496	-0.768844	0.034648	0.123	0.7365	0.1665	0	314	110	2
2026-02-12	16:07:22.510	-2.625	-2.38	-11.06	0.877668	-0.812276	-0.040504	0.1185	0.747	0.1635	0	314	110	2
2026-02-12	16:07:22.530	6.405	-0.98	-9.415	0.877424	-0.794708	-0.071004	0.1185	0.747	0.1635	0	314	110	2
2026-02-12	16:07:22.550	13.125	0.455	-7.35	0.895968	-0.82228	-0.00366	0.1215	0.744	0.1575	0	314	110	2
2026-02-12	16:07:22.570	15.54	4.725	-4.62	0.91988	-0.843508	0.058316	0.123	0.738	0.153	0	314	110	2
2026-02-12	16:07:22.590	14.07	11.9	-1.4	0.91256	-0.88694	0.024156	0.1035	0.744	0.159	0	314	110	2
2026-02-12	16:07:22.610	13.825	16.8	2.065	0.898164	-0.88816	-0.065148	0.1215	0.7395	0.1605	0	313	80	3
2026-02-12	16:07:22.630	18.375	16.975	5.635	0.895968	-0.856196	-0.11468	0.117	0.741	0.153	0	313	80	3
2026-02-12	16:07:22.650	21.84	15.995	11.025	0.914268	-0.753472	-0.051484	0.105	0.7545	0.1515	0	313	80	3
2026-02-12	16:07:22.670	24.99	16.66	18.62	0.87352	-0.599508	-0.024644	0.114	0.756	0.15	0	313	80	3
2026-02-12	16:07:22.690	29.015	14.77	28.105	0.83448	-0.471164	-0.023424	0.1185	0.7575	0.1485	0	313	80	3
2026-02-12	16:07:22.710	36.33	14.14	35.42	0.787388	-0.394792	0.064416	0.126	0.7635	0.141	0	313	80	3
2026-02-12	16:07:22.730	54.565	16.275	46.025	0.7869	-0.310612	0.16592	0.126	0.7635	0.141	0	313	80	3
2026-02-12	16:07:22.750	53.41	19.845	49.455	0.851804	-0.322324	0.178852	0.1275	0.7785	0.1305	0	313	80	3
2026-02-12	16:07:22.770	40.81	23.31	50.365	0.935008	-0.462624	0.181048	0.1275	0.774	0.1215	0	313	80	3
2026-02-12	16:07:22.790	26.32	29.26	50.505	0.989908	-0.61244	0.187636	0.1245	0.786	0.1185	0	313	80	3
2026-02-12	16:07:22.810	14.14	37.66	51.03	0.986736	-0.641964	0.228384	0.123	0.7905	0.111	0	308	58	3
2026-02-12	16:07:22.830	-1.575	47.53	50.435	0.943304	-0.640988	0.224968	0.1335	0.798	0.1125	0	308	58	3
2026-02-12	16:07:22.850	-18.095	54.705	49.35	0.86498	-0.666852	0.184952	0.135	0.81	0.102	0	308	58	3
2026-02-12	16:07:22.870	-22.61	58.03	46.27	0.768844	-0.682224	0.12566	0.141	0.807	0.0975	0	308	58	3
2026-02-12	16:07:22.890	-17.92	57.505	43.435	0.68564	-0.681736	0.127612	0.141	0.819	0.0945	0	308	58	3
2026-02-12	16:07:22.910	-12.145	54.425	40.39	0.599752	-0.647332	0.165676	0.1455	0.822	0.087	0	308	58	3
2026-02-12	16:07:22.930	-5.075	48.195	33.005	0.54534	-0.548756	0.21472	0.1485	0.8175	0.0885	0	308	58	3
2026-02-12	16:07:22.950	-4.13	41.3	24.325	0.489952	-0.47824	0.225212	0.1485	0.8175	0.0885	0	308	58	3
2026-02-12	16:07:22.970	-12.6	35.14	16.905	0.462868	-0.522648	0.215696	0.15	0.8295	0.075	0	308	58	3
2026-02-12	16:07:22.990	-18.235	27.44	11.13	0.451156	-0.603656	0.214476	0.147	0.8355	0.078	0	308	58	3
2026-02-12	16:07:23.010	-16.31	19.705	5.67	0.444568	-0.642696	0.218624	0.1545	0.8265	0.0735	0	300	64	3
2026-02-12	16:07:23.030	-10.255	11.655	-0.105	0.433832	-0.570472	0.237656	0.1575	0.822	0.0645	0	300	64	3
2026-02-12	16:07:23.050	-12.215	4.865	-7.56	0.41968	-0.464088	0.286944	0.162	0.828	0.0735	0	300	64	3
2026-02-12	16:07:23.070	-23.73	-0.315	-15.82	0.422364	-0.488244	0.30012	0.1545	0.834	0.0705	0	300	64	3
2026-02-12	16:07:23.090	-34.58	-4.62	-23.8	0.425536	-0.525332	0.28914	0.153	0.8325	0.0765	0	300	64	3
2026-02-12	16:07:23.110	-42.245	-6.755	-30.1	0.435296	-0.606584	0.302804	0.1515	0.819	0.0765	0	300	64	3
2026-02-12	16:07:23.130	-45.745	-7.945	-33.635	0.477264	-0.715652	0.358924	0.1455	0.8205	0.081	0	300	64	3
2026-02-12	16:07:23.150	-44.765	-8.155	-32.795	0.565592	-0.861564	0.33184	0.1455	0.8205	0.081	0	300	64	3
2026-02-12	16:07:23.170	-44.1	-8.365	-26.46	0.676612	-1.091412	0.368684	0.1455	0.8205	0.081	0	300	64	3
2026-02-12	16:07:23.190	-29.26	-7.49	-13.125	0.756888	-1.169004	0.343796	0.1425	0.81	0.093	0	300	64	3
2026-02-12	16:07:23.210	-6.195	-6.685	-0.42	0.845948	-1.116056	0.30622	0.141	0.8055	0.1035	0	293	99	3
2026-02-12	16:07:23.230	-10.815	-0.84	14.56	0.850584	-1.149484	0.388692	0.135	0.8055	0.108	0	293	99	3
2026-02-12	16:07:23.250	-22.575	7.98	26.11	0.824232	-1.214388	0.453108	0.1425	0.8085	0.1035	0	293	99	3
2026-02-12	16:07:23.270	-11.515	16.31	33.04	0.815936	-1.214144	0.431148	0.1455	0.81	0.093	0	293	99	3
2026-02-12	16:07:23.290	11.27	19.6	32.655	0.885232	-1.056764	0.303536	0.144	0.813	0.1035	0	293	99	3
2026-02-12	16:07:23.310	18.76	20.23	24.64	0.914512	-0.85156	0.220088	0.147	0.8175	0.0975	0	293	99	3
2026-02-12	16:07:23.330	23.205	17.08	11.305	0.9333	-0.721264	0.073688	0.1425	0.822	0.099	0	293	99	3
2026-02-12	16:07:23.350	26.565	13.72	-0.665	0.82106	-0.378444	0.013908	0.1515	0.8235	0.1005	0	293	99	3
2026-02-12	16:07:23.370	4.095	0.56	-17.745	0.555588	-0.135664	0.024644	0.1605	0.8265	0.102	0	293	99	3
2026-02-12	16:07:23.390	-18.62	-6.545	-31.465	0.481656	-0.210084	0.042212	0.1515	0.8235	0.0825	0	293	99	3
2026-02-12	16:07:23.410	-33.67	-13.79	-40.845	0.496052	-0.33916	0.027328	0.1425	0.8145	0.0885	0	292	141	3
2026-02-12	16:07:23.430	-46.76	-21.105	-41.58	0.556808	-0.571692	0.023668	0.1455	0.813	0.099	0	292	141	3
2026-02-12	16:07:23.450	-53.9	-27.93	-33.635	0.625372	-0.85766	-0.003416	0.1305	0.813	0.102	0	292	141	3
2026-02-12	16:07:23.470	-41.895	-31.115	-24.29	0.66368	-1.078968	-0.033916	0.132	0.8085	0.1095	0	292	141	3
2026-02-12	16:07:23.490	-9.555	-35	-21.56	0.631228	-0.925736	-0.106872	0.135	0.7905	0.105	0	292	141	3
2026-02-12	16:07:23.510	11.83	-41.09	-27.86	0.66856	-0.717604	-0.119072	0.126	0.8025	0.1155	0	292	141	3
2026-02-12	16:07:23.530	7.84	-43.05	-34.055	0.76128	-0.681248	-0.043676	0.1305	0.792	0.1275	0	292	141	3
2026-02-12	16:07:23.550	6.72	-40.425	-39.795	0.8174	-0.62708	0.008052	0.132	0.7905	0.1275	0	292	141	3
2026-02-12	16:07:23.570	0.42	-35.735	-45.675	0.893528	-0.597312	-0.008784	0.1365	0.7845	0.126	0	292	141	3
2026-02-12	16:07:23.590	-4.48	-29.54	-47.425	0.875716	-0.582916	-0.07124799	0.141	0.7785	0.126	0	292	141	3
2026-02-12	16:07:23.610	-2.1	-27.72	-44.135	0.8357	-0.579012	-0.115656	0.129	0.777	0.138	0	295	148	3
2026-02-12	16:07:23.630	0.98	-26.88	-38.535	0.781776	-0.620004	-0.090524	0.123	0.7665	0.141	0	295	148	3
2026-02-12	16:07:23.650	3.85	-23.905	-32.27	0.724192	-0.642452	-0.042212	0.1125	0.765	0.141	0	295	148	3
2026-02-12	16:07:23.670	6.09	-18.76	-27.965	0.687836	-0.625128	-0.012932	0.1245	0.7635	0.144	0	295	148	3
2026-02-12	16:07:23.690	2.275	-12.39	-25.725	0.667828	-0.587552	0.003416	0.1215	0.7545	0.1485	0	295	148	3
2026-02-12	16:07:23.710	-6.895	-5.775	-25.445	0.658068	-0.578524	0.019032	0.1155	0.7455	0.1515	0	295	148	3
2026-02-12	16:07:23.730	-18.025	0.875	-25.69	0.646356	-0.629764	0.005124	0.117	0.7485	0.1455	0	295	148	3
2026-02-12	16:07:23.750	-24.815	6.51	-25.27	0.64904	-0.69174	0.00488	0.108	0.747	0.1545	0	295	148	3
2026-02-12	16:07:23.770	-26.88	11.2	-23.625	0.649284	-0.75274	0.021716	0.108	0.744	0.1545	0	295	148	3
2026-02-12	16:07:23.790	-24.675	15.75	-19.705	0.652212	-0.780068	0.0427	0.1095	0.7425	0.156	0	295	148	3
2026-02-12	16:07:23.810	-22.505	18.48	-14.84	0.681492	-0.776164	0.035624	0.1095	0.7425	0.156	0	297	121	2
2026-02-12	16:07:23.830	-22.785	18.2	-10.57	0.731756	-0.771528	0.034892	0.102	0.7335	0.1485	0	297	121	2
2026-02-12	16:07:23.850	-23.38	16.45	-7.245	0.817644	-0.731512	0.058072	0.096	0.729	0.1515	0	297	121	2
2026-02-12	16:07:23.870	-23.59	15.505	-5.355	0.90402	-0.731024	0.06466	0.096	0.729	0.1575	0	297	121	2
2026-02-12	16:07:23.890	-18.41	15.015	-4.83	0.941352	-0.76494	0.025864	0.105	0.7275	0.1455	0	297	121	2
2026-02-12	16:07:23.910	-8.085	12.88	-5.705	0.93696	-0.78324	-0.007808	0.102	0.717	0.1395	0	297	121	2
2026-02-12	16:07:23.930	0.07	11.13	-6.965	0.926712	-0.836188	0.038308	0.096	0.7215	0.1545	0	297	121	2
2026-02-12	16:07:23.950	7.385	11.725	-7.595	0.931836	-0.89182	0.078324	0.0975	0.7215	0.147	0	297	121	2
2026-02-12	16:07:23.970	13.685	13.545	-8.225	0.944524	-0.919636	0.033184	0.0945	0.7215	0.1515	0	297	121	2
2026-02-12	16:07:23.990	17.885	14.21	-7.21	0.94916	-0.951356	-0.039284	0.096	0.723	0.15	0	297	121	2
2026-02-12	16:07:24.010	25.445	10.325	1.12	0.969656	-0.922076	-0.085888	0.099	0.7245	0.15	0	294	89	3
2026-02-12	16:07:24.030	35.14	9.695	11.585	0.92964	-0.754204	-0.025132	0.0855	0.717	0.135	0	294	89	3
2026-02-12	16:07:24.050	48.125	8.82	25.585	0.837896	-0.518988	-0.022448	0.0885	0.726	0.132	0	294	89	3
2026-02-12	16:07:24.070	59.535	7.77	37.275	0.766648	-0.319884	0.025376	0.093	0.729	0.1305	0	294	89	3
2026-02-12	16:07:24.090	65.415	11.305	46.55	0.732976	-0.198616	0.11224	0.0945	0.7395	0.129	0	294	89	3
2026-02-12	16:07:24.110	62.335	17.115	54.39	0.739808	-0.191784	0.126148	0.093	0.744	0.117	0	294	89	3
2026-02-12	16:07:24.130	52.955	24.815	58.03	0.846436	-0.25254	0.136152	0.105	0.7515	0.117	0	294	89	3
2026-02-12	16:07:24.150	34.195	32.83	58.66	0.954528	-0.421388	0.166896	0.111	0.768	0.1125	0	294	89	3
2026-02-12	16:07:24.170	11.62	42.35	56.63	1.02968	-0.575352	0.21228	0.1095	0.7665	0.099	0	294	89	3
2026-02-12	16:07:24.190	-9.765	52.745	52.955	0.995764	-0.654408	0.228628	0.1125	0.774	0.099	0	294	89	3
2026-02-12	16:07:24.210	-35.49	65.345	47.915	0.892552	-0.738588	0.20618	0.1155	0.783	0.093	0	290	71	3
2026-02-12	16:07:24.230	-39.865	72.03	44.975	0.769332	-0.792024	0.180072	0.117	0.783	0.0885	0	290	71	3
2026-02-12	16:07:24.250	-25.9	71.68	43.89	0.660508	-0.77714	0.166164	0.12	0.7935	0.087	0	290	71	3
2026-02-12	16:07:24.270	-8.19	66.185	44.31	0.578768	-0.735172	0.179828	0.1215	0.792	0.0795	0	290	71	3
2026-02-12	16:07:24.290	8.47	57.75	42.49	0.535824	-0.604632	0.213012	0.12	0.7965	0.0675	0	290	71	3
2026-02-12	16:07:24.310	14.07	49.84	37.065	0.495076	-0.473848	0.244976	0.1245	0.807	0.0675	0	290	71	3
2026-02-12	16:07:24.330	6.685	40.845	30.065	0.456524	-0.439688	0.232288	0.1245	0.816	0.057	0	290	71	3
2026-02-12	16:07:24.350	-3.115	30.555	21.91	0.4453	-0.497516	0.220576	0.135	0.8115	0.0555	0	290	71	3
2026-02-12	16:07:24.370	-8.26	20.93	15.54	0.441884	-0.569984	0.227896	0.135	0.8145	0.0465	0	290	71	3
2026-02-12	16:07:24.390	-6.51	12.53	8.96	0.425292	-0.5795	0.235704	0.132	0.8145	0.048	0	290	71	3
2026-02-12	16:07:24.410	-5.74	5.425	1.68	0.41114	-0.521184	0.234972	0.1305	0.819	0.051	0	287	81	3
2026-02-12	16:07:24.430	-15.05	-1.05	-8.925	0.398452	-0.479704	0.275964	0.132	0.825	0.0525	0	287	81	3
2026-02-12	16:07:24.450	-29.96	-5.74	-19.845	0.391132	-0.51484	0.308416	0.132	0.825	0.0525	0	287	81	3
2026-02-12	16:07:24.470	-39.13	-7.175	-27.755	0.398208	-0.587552	0.308172	0.1305	0.816	0.057	0	287	81	3
2026-02-12	16:07:24.490	-41.965	-7.28	-34.405	0.42822	-0.674416	0.303536	0.141	0.8145	0.06	0	287	81	3
2026-02-12	16:07:24.510	-50.68	-6.405	-38.08	0.479216	-0.776652	0.356972	0.123	0.8115	0.06	0	287	81	3
2026-02-12	16:07:24.530	-53.62	-5.145	-38.115	0.527772	-0.817888	0.377956	0.1215	0.807	0.069	0	287	81	3
2026-02-12	16:07:24.550	-55.93	-3.71	-31.745	0.657092	-1.098732	0.399428	0.117	0.7995	0.069	0	287	81	3
2026-02-12	16:07:24.570	-43.05	-1.645	-16.485	0.716628	-1.239276	0.339648	0.117	0.7875	0.075	0	287	81	3
2026-02-12	16:07:24.590	-21.84	-3.535	-1.225	0.767624	-1.10898	0.332328	0.111	0.789	0.081	0	287	81	3
2026-02-12	16:07:24.610	-31.43	0.98	13.965	0.75518	-1.220244	0.427	0.1095	0.792	0.0825	0	286	118	3
2026-02-12	16:07:24.630	-38.36	9.45	26.67	0.624884	-1.289784	0.455304	0.111	0.7935	0.087	0	286	118	3
2026-02-12	16:07:24.650	-13.44	16.17	31.01	0.507032	-1.024312	0.396256	0.114	0.7935	0.0915	0	286	118	3
2026-02-12	16:07:24.670	-2.555	11.13	27.125	0.596336	-0.88938	0.313296	0.123	0.801	0.0855	0	286	118	3
2026-02-12	16:07:24.690	5.95	0.42	16.66	0.869128	-0.968192	0.233996	0.1215	0.795	0.084	0	286	118	3
2026-02-12	16:07:24.710	32.795	-0.945	5.67	1.06628	-1.114104	0.2928	0.1305	0.7995	0.093	0	286	118	3
2026-02-12	16:07:24.730	72.625	1.365	4.27	1.05774	-0.659776	0.09638	0.1245	0.8025	0.0825	0	286	118	3
2026-02-12	16:07:24.750	69.16	-7.21	-0.91	0.86132	-0.172264	-0.104188	0.1305	0.8025	0.078	0	286	118	3
2026-02-12	16:07:24.770	25.795	-18.9	-11.375	0.659532	-0.058804	-0.127856	0.1245	0.8025	0.072	0	286	118	3
2026-02-12	16:07:24.790	-7.91	-32.585	-21.21	0.569496	-0.147864	-0.072224	0.1275	0.801	0.081	0	286	118	3
2026-02-12	16:07:24.810	-31.01	-42.84	-30.415	0.579744	-0.346724	0.038064	0.126	0.804	0.0765	0	290	158	3
2026-02-12	16:07:24.830	-49.14	-48.23	-31.78	0.562176	-0.696376	0.049532	0.12	0.801	0.0765	0	290	158	3
2026-02-12	16:07:24.850	-30.135	-50.12	-28.42	0.557052	-1.030168	-0.00488	0.1155	0.7935	0.09	0	290	158	3
2026-02-12	16:07:24.870	15.505	-52.395	-30.625	0.5856	-0.878156	-0.070272	0.117	0.7935	0.099	0	290	158	3
2026-02-12	16:07:24.890	27.09	-54.67	-39.9	0.709796	-0.654896	-0.048068	0.12	0.792	0.111	0	290	158	3
2026-02-12	16:07:24.910	7.665	-51.17	-45.78	0.83326	-0.617076	-0.033428	0.1215	0.7785	0.1155	0	290	158	3
2026-02-12	16:07:24.930	-5.565	-45.605	-50.26	0.934032	-0.593652	-0.040504	0.1125	0.774	0.1275	0	290	158	3
2026-02-12	16:07:24.950	-10.78	-38.395	-51.38	0.967704	-0.578524	-0.048312	0.117	0.762	0.1365	0	290	158	3
2026-02-12	16:07:24.970	-8.61	-33.25	-48.685	0.91378	-0.569252	-0.086132	0.1155	0.7695	0.135	0	290	158	3
2026-02-12	16:07:24.990	-2.17	-30.03	-44.31	0.849608	-0.566324	-0.08686399	0.114	0.75	0.1395	0	290	158	3
2026-02-12	16:07:25.010	1.26	-28.28	-38.395	0.766648	-0.604632	-0.053924	0.111	0.7515	0.1395	0	297	158	3
2026-02-12	16:07:25.030	3.99	-25.27	-32.13	0.688568	-0.61488	-0.008052	0.1095	0.7545	0.1455	0	297	158	3
2026-02-12	16:07:25.050	2.94	-21.245	-28.21	0.62342	-0.621468	0.016348	0.108	0.75	0.144	0	297	158	3
2026-02-12	16:07:25.070	-3.115	-14.42	-26.46	0.57462	-0.643916	0.050264	0.1065	0.744	0.1395	0	297	158	3
2026-02-12	16:07:25.090	-11.865	-7.035	-26.67	0.573644	-0.678564	0.082228	0.1065	0.744	0.1395	0	297	158	3
2026-02-12	16:07:25.110	-18.97	-1.435	-27.44	0.591944	-0.711504	0.095892	0.096	0.732	0.15	0	297	158	3
2026-02-12	16:07:25.130	-21.805	3.115	-28.21	0.616832	-0.733464	0.079788	0.102	0.7275	0.1515	0	297	158	3
2026-02-12	16:07:25.150	-19.11	5.95	-29.155	0.641964	-0.73444	0.063196	0.102	0.72	0.156	0	297	158	3
2026-02-12	16:07:25.170	-15.295	7.14	-29.155	0.681004	-0.75274	0.050996	0.096	0.723	0.159	0	297	158	3
2026-02-12	16:07:25.190	-8.995	6.86	-27.265	0.71004	-0.767136	0.018788	0.0885	0.7185	0.147	0	297	158	3
2026-02-12	16:07:25.210	-4.27	3.92	-23.345	0.772016	-0.759572	0.020008	0.0885	0.702	0.15	0	303	131	3
2026-02-12	16:07:25.230	-4.445	1.225	-18.865	0.866444	-0.746884	0.08174	0.0885	0.699	0.1515	0	303	131	3
2026-02-12	16:07:25.250	-6.545	0.7	-14.49	0.920124	-0.738344	0.057828	0.09	0.699	0.1515	0	303	131	3
2026-02-12	16:07:25.270	-3.115	0.525	-12.25	0.921344	-0.7381	-0.018544	0.09	0.699	0.15	0	303	131	3
2026-02-12	16:07:25.290	6.02	-3.605	-10.71	0.921588	-0.845948	0.006832	0.0885	0.696	0.15	0	303	131	3
2026-02-12	16:07:25.310	15.855	-2.835	-9.1	0.967948	-0.905484	0.105652	0.084	0.6975	0.1515	0	303	131	3
2026-02-12	16:07:25.330	22.54	2.52	-7.56	0.965264	-0.901336	0.061244	0.0885	0.7035	0.15	0	303	131	3
2026-02-12	16:07:25.350	26.635	6.195	-5.845	0.95038	-0.89426	-0.018544	0.087	0.7005	0.15	0	303	131	3
2026-02-12	16:07:25.370	30.275	6.37	-2.03	0.947208	-0.890356	-0.103944	0.087	0.696	0.1455	0	303	131	3
2026-02-12	16:07:25.390	34.58	5.285	5.985	0.959652	-0.825208	-0.108336	0.09	0.696	0.15	0	303	131	3
2026-02-12	16:07:25.410	39.48	6.09	16.52	0.957944	-0.672952	-0.032208	0.0825	0.702	0.1425	0	304	100	3
2026-02-12	16:07:25.430	48.475	9.345	27.51	0.883768	-0.435784	-0.033428	0.084	0.702	0.141	0	304	100	3
2026-02-12	16:07:25.450	55.195	12.81	35.56	0.84546	-0.257176	0.014152	0.0855	0.7035	0.1395	0	304	100	3
2026-02-12	16:07:25.470	51.38	20.265	42.91	0.805688	-0.20252	0.082228	0.0855	0.711	0.1365	0	304	100	3
2026-02-12	16:07:25.490	38.64	29.155	49.735	0.895724	-0.189588	0.10004	0.0885	0.7215	0.132	0	304	100	3
2026-02-12	16:07:25.510	15.785	37.73	52.71	1.0004	-0.383568	0.103944	0.093	0.726	0.1305	0	304	100	3
2026-02-12	16:07:25.530	0.98	44.835	53.935	1.055788	-0.549244	0.142984	0.102	0.7365	0.1185	0	304	100	3
2026-02-12	16:07:25.550	-6.86	54.425	53.97	1.026996	-0.615368	0.218624	0.0975	0.747	0.1185	0	304	100	3
2026-02-12	16:07:25.570	-21.42	65.38	54.075	0.941596	-0.608292	0.300364	0.096	0.7575	0.108	0	304	100	3
2026-02-12	16:07:25.590	-41.65	73.08	57.295	0.814228	-0.717604	0.254248	0.099	0.762	0.099	0	304	100	3
2026-02-12	16:07:25.610	-35.665	73.15	54.95	0.715896	-0.741516	0.148596	0.0975	0.765	0.099	0	301	80	3
2026-02-12	16:07:25.630	-16.31	65.765	53.165	0.599996	-0.681004	0.089304	0.111	0.777	0.093	0	301	80	3
2026-02-12	16:07:25.650	-7	55.37	47.81	0.538996	-0.58682	0.177876	0.1095	0.7785	0.0885	0	301	80	3
2026-02-12	16:07:25.670	-5.775	45.885	40.285	0.518256	-0.530456	0.280112	0.1095	0.783	0.087	0	301	80	3
2026-02-12	16:07:25.690	-4.935	39.2	32.2	0.492392	-0.535824	0.288408	0.111	0.7845	0.0795	0	301	80	3
2026-02-12	16:07:25.710	-3.185	29.05	23.38	0.474092	-0.55632	0.200568	0.111	0.783	0.0705	0	301	80	3
2026-02-12	16:07:25.730	-2.66	18.41	15.82	0.448228	-0.561932	0.155184	0.111	0.783	0.0705	0	301	80	3
2026-02-12	16:07:25.750	-3.325	10.43	10.255	0.420656	-0.500444	0.204228	0.1125	0.804	0.066	0	301	80	3
2026-02-12	16:07:25.770	-8.4	3.395	2.485	0.416752	-0.423584	0.263764	0.126	0.792	0.0615	0	301	80	3
2026-02-12	16:07:25.790	-20.16	-0.91	-7.14	0.415532	-0.426756	0.277672	0.1215	0.798	0.066	0	301	80	3
2026-02-12	16:07:25.810	-31.325	-2.66	-17.15	0.417484	-0.448472	0.280112	0.1215	0.7905	0.078	0	299	89	2
2026-02-12	16:07:25.830	-40.915	-3.185	-26.215	0.426268	-0.50142	0.2928	0.12	0.792	0.0735	0	299	89	2
2026-02-12	16:07:25.850	-49	-1.925	-33.32	0.446276	-0.613904	0.304512	0.117	0.792	0.075	0	299	89	2
2026-02-12	16:07:25.870	-58.59	0.56	-37.485	0.472384	-0.714188	0.33062	0.117	0.7875	0.0765	0	299	89	2
2026-02-12	16:07:25.890	-64.015	3.78	-38.15	0.503616	-0.857416	0.312076	0.111	0.7815	0.0825	0	299	89	2
2026-02-12	16:07:25.910	-61.285	3.99	-33.705	0.61366	-1.132648	0.334036	0.102	0.774	0.0885	0	299	89	2
2026-02-12	16:07:25.930	-30.555	6.02	-11.865	0.80276	-1.27368	0.338672	0.105	0.768	0.09	0	299	89	2
2026-02-12	16:07:25.950	-19.39	7.105	6.055	0.948916	-1.281732	0.3843	0.105	0.768	0.09	0	299	89	2
2026-02-12	16:07:25.970	-26.145	18.095	25.41	0.908168	-1.308572	0.421876	0.1095	0.765	0.1005	0	299	89	2
2026-02-12	16:07:25.990	-27.93	29.47	36.995	0.835944	-1.247816	0.496296	0.102	0.7725	0.09	0	299	89	2
2026-02-12	16:07:26.010	-8.645	34.02	41.51	0.907436	-1.157292	0.50508	0.108	0.768	0.0885	0	299	125	3
2026-02-12	16:07:26.030	14.21	33.67	36.89	0.978928	-0.99918	0.305244	0.108	0.7755	0.0915	0	299	125	3
2026-02-12	16:07:26.050	28.875	29.715	19.285	0.905972	-0.693448	0.06588	0.108	0.7785	0.087	0	299	125	3
2026-02-12	16:07:26.070	34.16	21.035	2.695	0.871568	-0.431636	0.034648	0.111	0.7815	0.081	0	299	125	3
2026-02-12	16:07:26.090	22.505	8.68	-6.755	0.641964	-0.1952	0.035868	0.1095	0.7845	0.0765	0	299	125	3
2026-02-12	16:07:26.110	1.645	-1.33	-18.865	0.478728	-0.170312	0.02074	0.1095	0.7875	0.072	0	299	125	3
2026-02-12	16:07:26.130	-12.005	-12.985	-36.68	0.426268	-0.244976	-0.016348	0.1095	0.783	0.0675	0	299	125	3
2026-02-12	16:07:26.150	-20.58	-22.855	-46.83	0.497516	-0.449448	0.012444	0.108	0.7785	0.069	0	299	125	3
2026-02-12	16:07:26.170	-31.115	-31.045	-43.4	0.58682	-0.718092	0.013908	0.1065	0.768	0.075	0	299	125	3
2026-02-12	16:07:26.190	-28.28	-37.695	-34.265	0.68808	-0.996496	0.025376	0.0975	0.7665	0.081	0	299	125	3
2026-02-12	16:07:26.210	-6.475	-41.895	-28.07	0.755668	-0.996496	-0.029768	0.102	0.762	0.093	0	305	156	3
2026-02-12	16:07:26.230	18.795	-47.46	-35.49	0.774944	-0.687348	-0.103456	0.093	0.7575	0.096	0	305	156	3
2026-02-12	16:07:26.250	13.79	-51.87	-45.045	0.87718	-0.62586	-0.10614	0.096	0.753	0.0975	0	305	156	3
2026-02-12	16:07:26.270	5.845	-49.63	-50.435	0.949404	-0.64904	-0.08052	0.099	0.747	0.1005	0	305	156	3
2026-02-12	16:07:26.290	7.035	-47.075	-52.92	0.934276	-0.638548	-0.074664	0.093	0.744	0.108	0	305	156	3
2026-02-12	16:07:26.310	8.89	-45.5	-52.15	0.871812	-0.625372	-0.081984	0.093	0.738	0.1155	0	305	156	3
2026-02-12	16:07:26.330	13.23	-44.24	-48.265	0.779336	-0.62586	-0.072956	0.0945	0.735	0.1215	0	305	156	3
2026-02-12	16:07:26.350	17.815	-42.735	-39.2	0.684664	-0.623664	-0.039284	0.09	0.738	0.1245	0	305	156	3
2026-02-12	16:07:26.370	17.955	-38.99	-31.115	0.613904	-0.58804	0.004392	0.09	0.738	0.1245	0	305	156	3
2026-02-12	16:07:26.390	10.71	-33.145	-28.105	0.59536	-0.577792	0.053192	0.0945	0.72	0.1305	0	305	156	3
2026-02-12	16:07:26.410	0.63	-26.53	-26.075	0.609268	-0.604144	0.072468	0.0765	0.714	0.138	0	312	146	3
2026-02-12	16:07:26.430	-8.995	-19.705	-24.78	0.624396	-0.626104	0.052704	0.0765	0.7125	0.1335	0	312	146	3
2026-02-12	16:07:26.450	-15.855	-14.665	-23.66	0.6588	-0.674172	0.02684	0.0795	0.7035	0.147	0	312	146	3
2026-02-12	16:07:26.470	-15.015	-11.06	-23.205	0.682712	-0.677832	0.013908	0.0795	0.7065	0.144	0	312	146	3
2026-02-12	16:07:26.490	-10.92	-8.33	-23.38	0.70394	-0.664656	0.0244	0.0795	0.708	0.147	0	312	146	3
2026-02-12	16:07:26.510	-7.84	-5.635	-23.66	0.721264	-0.669048	0.040992	0.0735	0.6975	0.15	0	312	146	3
2026-02-12	16:07:26.530	-5.215	-3.465	-23.065	0.721996	-0.701256	0.031232	0.075	0.693	0.1455	0	312	146	3
2026-02-12	16:07:26.550	-1.435	-2.065	-21.42	0.711504	-0.720288	-0.003416	0.0765	0.6945	0.1425	0	312	146	3
2026-02-12	16:07:26.570	1.26	-5.145	-16.625	0.767624	-0.747616	-0.037332	0.072	0.6915	0.1425	0	312	146	3
2026-02-12	16:07:26.590	0.945	-7.07	-11.865	0.848388	-0.75396	0.046116	0.0705	0.69	0.147	0	312	146	3
2026-02-12	16:07:26.610	-2.625	-5.145	-6.58	0.928908	-0.723948	0.086376	0.0675	0.6825	0.147	0	315	116	3
2026-02-12	16:07:26.630	-2.695	-1.89	-4.2	0.967704	-0.68442	0.067832	0.069	0.681	0.144	0	315	116	3
2026-02-12	16:07:26.650	2.135	-0.245	-5.495	0.9455	-0.672708	-0.013176	0.0705	0.6855	0.1425	0	315	116	3
2026-02-12	16:07:26.670	6.825	-0.21	-7.805	0.941352	-0.748348	-0.008784	0.0675	0.6825	0.1425	0	315	116	3
2026-02-12	16:07:26.690	10.815	2.17	-8.645	0.957456	-0.874984	0.053192	0.0645	0.681	0.1425	0	315	116	3
2026-02-12	16:07:26.710	17.815	7.735	-7.98	0.94184	-0.900116	0.020252	0.066	0.6795	0.1455	0	315	116	3
2026-02-12	16:07:26.730	22.33	11.83	-4.62	0.945012	-0.899872	-0.057096	0.0645	0.678	0.144	0	315	116	3
2026-02-12	16:07:26.750	27.44	12.285	0.77	0.9882	-0.902312	-0.129564	0.0645	0.681	0.1395	0	315	116	3
2026-02-12	16:07:26.770	33.565	12.845	9.31	1.027972	-0.835456	-0.129564	0.0645	0.6855	0.1395	0	315	116	3
2026-02-12	16:07:26.790	47.53	15.085	27.02	0.967704	-0.53924	-0.04148	0.063	0.687	0.141	0	315	116	3
2026-02-12	16:07:26.810	55.51	15.925	40.18	0.880108	-0.368684	0.038064	0.0585	0.69	0.1335	0	312	86	3
2026-02-12	16:07:26.830	60.69	19.425	50.4	0.785192	-0.254004	0.108092	0.075	0.696	0.117	0	312	86	3
2026-02-12	16:07:26.850	55.965	24.255	57.785	0.80154	-0.207888	0.1281	0.072	0.705	0.111	0	312	86	3
2026-02-12	16:07:26.870	41.16	30.765	60.865	0.809104	-0.272548	0.11468	0.0705	0.7125	0.1095	0	312	86	3
2026-02-12	16:07:26.890	22.015	35.245	60.515	0.894016	-0.413824	0.16226	0.069	0.7215	0.1065	0	312	86	3
2026-02-12	16:07:26.910	3.955	40.81	58.415	0.91866	-0.507276	0.265472	0.069	0.7275	0.102	0	312	86	3
2026-02-12	16:07:26.930	-13.685	46.97	53.76	0.92842	-0.578768	0.27938	0.072	0.738	0.096	0	312	86	3
2026-02-12	16:07:26.950	-25.76	53.41	48.685	0.893284	-0.691496	0.188368	0.0765	0.747	0.0885	0	312	86	3
2026-02-12	16:07:26.970	-23.275	56.665	44.66	0.825452	-0.739076	0.129564	0.0765	0.7545	0.0855	0	312	86	3
2026-02-12	16:07:26.990	-15.295	53.9	45.045	0.728096	-0.800808	0.123952	0.081	0.762	0.0855	0	312	86	3
2026-02-12	16:07:27.010	3.815	46.48	46.655	0.628056	-0.749568	0.137372	0.0855	0.7665	0.084	0	306	72	3
2026-02-12	16:07:27.030	16.94	37.835	45.745	0.567788	-0.627568	0.183	0.0825	0.771	0.063	0	306	72	3
2026-02-12	16:07:27.050	22.295	28.595	41.125	0.53192	-0.535336	0.213744	0.0825	0.7755	0.06	0	306	72	3
2026-02-12	16:07:27.070	20.16	20.195	34.58	0.493856	-0.48434	0.214232	0.0885	0.792	0.0555	0	306	72	3
2026-02-12	16:07:27.090	14.595	11.795	26.775	0.463356	-0.482144	0.220576	0.0915	0.792	0.054	0	306	72	3
2026-02-12	16:07:27.110	10.185	4.69	18.41	0.438468	-0.499956	0.222284	0.0975	0.792	0.054	0	306	72	3
2026-02-12	16:07:27.130	5.6	-1.295	10.99	0.440664	-0.532164	0.2257	0.0975	0.795	0.054	0	306	72	3
2026-02-12	16:07:27.150	1.575	-5.635	3.325	0.42822	-0.495076	0.226676	0.096	0.7995	0.0495	0	306	72	3
2026-02-12	16:07:27.170	-7.945	-9.59	-5.6	0.410408	-0.439932	0.252784	0.099	0.795	0.048	0	306	72	3
2026-02-12	16:07:27.190	-23.94	-12.075	-14.49	0.406504	-0.463356	0.28792	0.0975	0.798	0.0525	0	306	72	3
2026-02-12	16:07:27.210	-41.685	-13.405	-26.565	0.403576	-0.585844	0.294508	0.0945	0.8025	0.054	0	300	86	3
2026-02-12	16:07:27.230	-46.165	-12.81	-32.83	0.41236	-0.644648	0.330864	0.0945	0.8025	0.054	0	300	86	3
2026-02-12	16:07:27.250	-46.69	-11.48	-37.03	0.454816	-0.737124	0.341356	0.087	0.7845	0.0675	0	300	86	3
2026-02-12	16:07:27.270	-43.19	-12.25	-37.45	0.551928	-0.83448	0.31476	0.084	0.786	0.066	0	300	86	3
2026-02-12	16:07:27.290	-39.025	-12.915	-29.19	0.741028	-1.201212	0.377956	0.078	0.78	0.072	0	300	86	3
2026-02-12	16:07:27.310	-7.35	-13.02	-11.935	0.87474	-1.237568	0.285236	0.0735	0.7785	0.078	0	300	86	3
2026-02-12	16:07:27.330	12.215	-13.44	5.775	0.992836	-1.109956	0.335012	0.072	0.7785	0.075	0	300	86	3
2026-02-12	16:07:27.350	-12.075	-4.235	24.78	0.899872	-1.224148	0.379908	0.072	0.7695	0.078	0	300	86	3
2026-02-12	16:07:27.370	-25.305	7.28	39.06	0.762012	-1.274168	0.477752	0.075	0.768	0.0795	0	300	86	3
2026-02-12	16:07:27.390	-6.825	12.635	44.835	0.75396	-1.168272	0.447008	0.0765	0.7785	0.078	0	300	86	3
2026-02-12	16:07:27.410	20.02	8.54	42.525	0.855464	-0.972828	0.347944	0.0765	0.786	0.0795	0	298	125	3
2026-02-12	16:07:27.430	41.895	7.875	20.125	0.938912	-0.747128	0.123952	0.078	0.789	0.0795	0	298	125	3
2026-02-12	16:07:27.450	50.505	6.895	6.755	0.935984	-0.506056	0.015616	0.0825	0.7965	0.075	0	298	125	3
2026-02-12	16:07:27.470	34.615	-3.115	-2.87	0.719556	-0.20496	-0.033916	0.0885	0.789	0.0615	0	298	125	3
2026-02-12	16:07:27.490	7.14	-13.545	-14.7	0.564372	-0.201788	-0.021716	0.09	0.7995	0.069	0	298	125	3
2026-02-12	16:07:27.510	-9.205	-23.1	-25.865	0.467992	-0.240584	-0.003416	0.0885	0.798	0.069	0	298	125	3
2026-02-12	16:07:27.530	-18.585	-32.445	-33.67	0.47336	-0.382836	-0.009516	0.0795	0.7905	0.069	0	298	125	3
2026-02-12	16:07:27.550	-27.65	-40.915	-32.655	0.531432	-0.624884	0.001708	0.075	0.7875	0.072	0	298	125	3
2026-02-12	16:07:27.570	-31.325	-48.055	-24.85	0.603656	-0.951112	0.00244	0.081	0.789	0.075	0	298	125	3
2026-02-12	16:07:27.590	-11.48	-51.59	-15.68	0.650992	-1.137528	-0.033916	0.081	0.774	0.081	0	298	125	3
2026-02-12	16:07:27.610	29.715	-56.035	-18.2	0.638792	-0.86254	-0.100528	0.0765	0.7725	0.093	0	301	151	3
2026-02-12	16:07:27.630	38.815	-61.425	-32.2	0.7076	-0.593652	-0.087352	0.078	0.7785	0.1035	0	301	151	3
2026-02-12	16:07:27.650	21	-61.215	-43.015	0.796416	-0.570472	-0.011956	0.078	0.7755	0.1095	0	301	151	3
2026-02-12	16:07:27.670	9.415	-57.225	-48.475	0.881816	-0.60268	0.0061	0.075	0.7605	0.1095	0	301	151	3
2026-02-12	16:07:27.690	4.935	-51.975	-50.715	0.883768	-0.608292	-0.02074	0.063	0.762	0.117	0	301	151	3
2026-02-12	16:07:27.710	8.89	-48.37	-49.14	0.839604	-0.593164	-0.055144	0.069	0.759	0.123	0	301	151	3
2026-02-12	16:07:27.730	13.72	-47.25	-44.87	0.790316	-0.557296	-0.05856	0.069	0.7515	0.132	0	301	151	3
2026-02-12	16:07:27.750	14.385	-46.27	-40.18	0.728584	-0.571692	-0.02074	0.0615	0.747	0.135	0	301	151	3
2026-02-12	16:07:27.770	13.44	-43.54	-36.085	0.691252	-0.59414	0.015372	0.0645	0.7425	0.1395	0	301	151	3
2026-02-12	16:07:27.790	9.625	-38.815	-33.32	0.6649	-0.61122	0.027572	0.066	0.735	0.1455	0	301	151	3
2026-02-12	16:07:27.810	5.285	-32.515	-33.145	0.64416	-0.626104	0.011956	0.063	0.7305	0.1485	0	307	139	2
2026-02-12	16:07:27.830	0	-26.495	-33.11	0.639036	-0.644648	0	0.06	0.726	0.15	0	307	139	2
2026-02-12	16:07:27.850	-6.23	-17.71	-32.34	0.648796	-0.6771	0.015128	0.0555	0.726	0.15	0	307	139	2
2026-02-12	16:07:27.870	-6.545	-12.39	-31.045	0.662216	-0.693204	0.019276	0.0555	0.726	0.15	0	307	139	2
2026-02-12	16:07:27.890	-4.2	-7.7	-29.12	0.673928	-0.712724	0.02806	0.06	0.72	0.162	0	307	139	2
2026-02-12	16:07:27.910	-0.63	-3.57	-26.495	0.689788	-0.729072	0.020984	0.0585	0.717	0.159	0	307	139	2
2026-02-12	16:07:27.930	0.245	-1.19	-22.855	0.743468	-0.749324	0.012444	0.0585	0.7095	0.1605	0	307	139	2
2026-02-12	16:07:27.950	-4.235	0.35	-16.905	0.855952	-0.772504	0.051972	0.06	0.7065	0.165	0	307	139	2
2026-02-12	16:07:27.970	-10.01	3.85	-10.78	0.94428	-0.738588	0.047092	0.057	0.708	0.165	0	307	139	2
2026-02-12	16:07:27.990	-9.73	7.21	-8.715	0.992348	-0.672464	-0.00732	0.054	0.7065	0.1635	0	307	139	2
2026-02-12	16:07:28.010	-5.88	8.015	-9.31	0.992348	-0.669536	-0.061488	0.054	0.702	0.1605	0	308	109	3
2026-02-12	16:07:28.030	0.21	7.595	-9.31	0.98698	-0.765916	-0.031232	0.0555	0.702	0.1605	0	308	109	3
2026-02-12	16:07:28.050	6.23	9.94	-6.965	1.007232	-0.892552	0.068808	0.0555	0.7005	0.1605	0	308	109	3
2026-02-12	16:07:28.070	14.35	19.46	-0.49	0.957212	-0.929396	0.026596	0.057	0.6975	0.159	0	308	109	3
2026-02-12	16:07:28.090	18.41	23.31	4.06	0.92598	-0.898652	-0.04148	0.0555	0.6975	0.1425	0	308	109	3
2026-02-12	16:07:28.110	22.015	23.555	10.255	0.927688	-0.870348	-0.099308	0.0525	0.7065	0.1365	0	308	109	3
2026-02-12	16:07:28.130	29.26	22.19	19.845	0.92964	-0.775432	-0.079544	0.0525	0.7035	0.138	0	308	109	3
2026-02-12	16:07:28.150	37.835	21.56	30.31	0.896212	-0.58194	-0.0427	0.057	0.7005	0.1395	0	308	109	3
2026-02-12	16:07:28.170	48.335	19.215	41.545	0.843508	-0.399672	-0.0183	0.0585	0.7035	0.132	0	308	109	3
2026-02-12	16:07:28.190	63.945	17.815	50.12	0.814228	-0.25376	0.069052	0.057	0.714	0.123	0	308	109	3
2026-02-12	16:07:28.210	68.425	21.21	57.785	0.825696	-0.164944	0.109556	0.06	0.723	0.117	0	305	78	3
2026-02-12	16:07:28.230	53.025	23.87	63.49	0.9333	-0.229116	0.119316	0.066	0.726	0.1095	0	305	78	3
2026-02-12	16:07:28.250	30.73	29.365	67.55	1.04432	-0.415532	0.146888	0.0645	0.7365	0.102	0	305	78	3
2026-02-12	16:07:28.270	15.4	39.935	68.845	1.062376	-0.552172	0.205936	0.0645	0.753	0.102	0	305	78	3
2026-02-12	16:07:28.290	-0.42	53.865	64.785	0.973804	-0.64538	0.212036	0.069	0.759	0.1095	0	305	78	3
2026-02-12	16:07:28.310	-15.505	63.315	60.585	0.833748	-0.620492	0.202032	0.0855	0.7635	0.09	0	305	78	3
2026-02-12	16:07:28.330	-37.905	67.55	58.24	0.690764	-0.709064	0.175436	0.084	0.7725	0.087	0	305	78	3
2026-02-12	16:07:28.350	-39.655	68.88	53.97	0.567056	-0.719312	0.162992	0.0855	0.78	0.0765	0	305	78	3
2026-02-12	16:07:28.370	-26.46	66.15	48.965	0.489708	-0.721264	0.15006	0.087	0.7785	0.069	0	305	78	3
2026-02-12	16:07:28.390	-7.175	58.94	45.99	0.451888	-0.664656	0.187148	0.0915	0.786	0.0645	0	305	78	3
2026-02-12	16:07:28.410	7.28	50.505	39.69	0.471652	-0.540216	0.216672	0.099	0.7905	0.057	0	301	68	3
2026-02-12	16:07:28.430	9.66	42.385	32.2	0.477752	-0.4575	0.243756	0.099	0.7935	0.0495	0	301	68	3
2026-02-12	16:07:28.450	-0.63	34.44	24.15	0.480436	-0.507276	0.244	0.1035	0.801	0.0495	0	301	68	3
2026-02-12	16:07:28.470	-8.12	25.795	16.275	0.476776	-0.58194	0.247904	0.105	0.8055	0.0465	0	301	68	3
2026-02-12	16:07:28.490	-4.69	13.93	6.51	0.442372	-0.563884	0.2562	0.102	0.8055	0.0405	0	301	68	3
2026-02-12	16:07:28.510	-7.49	2.66	-5.18	0.409432	-0.44042	0.28792	0.102	0.8055	0.0405	0	301	68	3
2026-02-12	16:07:28.530	-23.345	-4.13	-14.875	0.38796	-0.451644	0.316468	0.1125	0.8025	0.042	0	301	68	3
2026-02-12	16:07:28.550	-38.64	-9.31	-24.185	0.390888	-0.5612	0.307928	0.1095	0.8055	0.0405	0	301	68	3
2026-02-12	16:07:28.570	-46.69	-13.16	-31.955	0.402112	-0.640012	0.307196	0.1065	0.804	0.045	0	301	68	3
2026-02-12	16:07:28.590	-46.83	-14.735	-37.45	0.430172	-0.77226	0.324276	0.102	0.798	0.0495	0	301	68	3
2026-02-12	16:07:28.610	-41.195	-16.065	-38.815	0.488976	-0.817644	0.323544	0.0975	0.7875	0.0555	0	298	90	3
2026-02-12	16:07:28.630	-36.645	-17.815	-35.245	0.559248	-0.948428	0.300608	0.093	0.783	0.0645	0	298	90	3
2026-02-12	16:07:28.650	-30.205	-18.55	-23.87	0.703696	-1.22976	0.375028	0.096	0.78	0.0705	0	298	90	3
2026-02-12	16:07:28.670	-2.31	-17.325	-8.365	0.7869	-1.19804	0.315248	0.0975	0.7695	0.0705	0	298	90	3
2026-02-12	16:07:28.690	19.845	-14.875	3.885	0.870592	-0.992836	0.38308	0.0945	0.768	0.066	0	298	90	3
2026-02-12	16:07:28.710	-25.2	0.84	23.135	0.759084	-1.197552	0.45262	0.0945	0.7695	0.0645	0	298	90	3
2026-02-12	16:07:28.730	-16.45	10.115	27.475	0.699304	-1.097024	0.44896	0.0915	0.765	0.0735	0	298	90	3
2026-02-12	16:07:28.750	1.435	10.08	27.65	0.728828	-1.037976	0.2867	0.0975	0.7725	0.0705	0	298	90	3
2026-02-12	16:07:28.770	20.055	8.61	17.5	0.844728	-0.893528	0.302316	0.1035	0.777	0.0705	0	298	90	3
2026-02-12	16:07:28.790	36.4	7.7	8.575	0.997228	-0.958188	0.238388	0.1035	0.774	0.0705	0	298	90	3
2026-02-12	16:07:28.810	52.745	7.315	-1.54	0.959896	-0.542412	0.081008	0.1035	0.7725	0.066	0	298	134	3
2026-02-12	16:07:28.830	34.825	-0.385	-10.325	0.780312	-0.262056	-0.058804	0.102	0.774	0.0615	0	298	134	3
2026-02-12	16:07:28.850	9.24	-14.525	-19.74	0.604876	-0.249612	-0.07198	0.102	0.7755	0.0585	0	298	134	3
2026-02-12	16:07:28.870	-1.085	-26.67	-28.665	0.512888	-0.25742	-0.030256	0.108	0.7725	0.063	0	298	134	3
2026-02-12	16:07:28.890	-9.87	-36.785	-37.45	0.487024	-0.312808	0.015372	0.111	0.7695	0.069	0	298	134	3
2026-02-12	16:07:28.910	-28.14	-47.39	-35.455	0.538996	-0.690032	0.036844	0.1065	0.7665	0.0735	0	298	134	3
2026-02-12	16:07:28.930	-23.135	-51.205	-26.145	0.585356	-1.015284	0.018544	0.1035	0.762	0.0765	0	298	134	3
2026-02-12	16:07:28.950	7.28	-54.46	-23.135	0.628544	-0.95526	-0.03416	0.102	0.756	0.081	0	298	134	3
2026-02-12	16:07:28.970	28.49	-59.465	-29.365	0.70882	-0.731268	-0.039528	0.1005	0.7485	0.0915	0	298	134	3
2026-02-12	16:07:28.990	20.615	-61.18	-37.765	0.808128	-0.638548	-0.007076	0.102	0.7485	0.1005	0	298	134	3
2026-02-12	16:07:29.010	8.82	-60.165	-44.87	0.900604	-0.628544	-0.008052	0.1035	0.7425	0.1065	0	302	155	3
2026-02-12	16:07:29.030	4.55	-56.875	-50.435	0.957944	-0.58316	-0.008784	0.099	0.729	0.1155	0	302	155	3
2026-02-12	16:07:29.050	3.36	-51.73	-52.535	0.908656	-0.589992	-0.058072	0.1005	0.7245	0.1215	0	302	155	3
2026-02-12	16:07:29.070	10.22	-49.42	-50.015	0.832284	-0.605608	-0.086132	0.1005	0.7185	0.126	0	302	155	3
2026-02-12	16:07:29.090	19.355	-48.195	-45.71	0.748104	-0.594628	-0.07124799	0.0975	0.7125	0.1305	0	302	155	3
2026-02-12	16:07:29.110	23.835	-46.095	-38.815	0.669292	-0.601704	-0.02196	0.102	0.7095	0.1365	0	302	155	3
2026-02-12	16:07:29.130	23.52	-39.235	-32.445	0.62586	-0.578036	0.0488	0.1065	0.7065	0.141	0	302	155	3
2026-02-12	16:07:29.150	14.21	-29.995	-29.19	0.603168	-0.584136	0.079544	0.102	0.7035	0.144	0	302	155	3
2026-02-12	16:07:29.170	3.99	-21.665	-28.35	0.61488	-0.634888	0.078568	0.102	0.702	0.153	0	302	155	3
2026-02-12	16:07:29.190	-3.885	-13.3	-28.175	0.62952	-0.659044	0.071492	0.102	0.6975	0.153	0	302	155	3
2026-02-12	16:07:29.210	-10.745	-6.545	-27.825	0.66002	-0.685884	0.055632	0.0975	0.69	0.1515	0	307	139	2
2026-02-12	16:07:29.230	-12.495	-0.735	-27.335	0.671976	-0.686128	0.05246	0.099	0.684	0.156	0	307	139	2
2026-02-12	16:07:29.250	-11.06	3.99	-26.495	0.684176	-0.679296	0.057828	0.099	0.681	0.159	0	307	139	2
2026-02-12	16:07:29.270	-9.695	7.56	-25.76	0.695644	-0.67588	0.032452	0.099	0.6795	0.1575	0	307	139	2
2026-02-12	16:07:29.290	-10.22	8.47	-24.045	0.751032	-0.693448	0.008296	0.099	0.6735	0.1545	0	307	139	2
2026-02-12	16:07:29.310	-15.33	7.49	-20.44	0.86742	-0.748104	0.029524	0.096	0.6675	0.15	0	307	139	2
2026-02-12	16:07:29.330	-19.495	6.685	-15.785	0.955992	-0.772992	0.02074	0.0945	0.669	0.1515	0	307	139	2
2026-02-12	16:07:29.350	-10.78	3.36	-12.635	0.98454	-0.697352	-0.060268	0.093	0.672	0.156	0	307	139	2
2026-02-12	16:07:29.370	-0.7	-1.4	-12.18	0.984052	-0.709064	-0.016592	0.096	0.666	0.153	0	307	139	2
2026-02-12	16:07:29.390	5.95	-3.57	-10.185	1.02236	-0.778116	0.09394	0.099	0.6615	0.15	0	307	139	2
2026-02-12	16:07:29.410	12.25	-1.19	-7.665	1.01382	-0.798612	0.112972	0.096	0.6585	0.1485	0	306	111	3
2026-02-12	16:07:29.430	17.57	0.035	-5.11	0.999424	-0.824232	0.028792	0.0975	0.657	0.1515	0	306	111	3
2026-02-12	16:07:29.450	20.65	-0.7	-3.01	1.008208	-0.85278	-0.03416	0.099	0.6585	0.1515	0	306	111	3
2026-02-12	16:07:29.470	26.495	-1.085	1.995	0.993324	-0.845704	-0.085644	0.096	0.6585	0.147	0	306	111	3
2026-02-12	16:07:29.490	35.665	-1.12	12.075	0.960628	-0.781532	-0.11346	0.0945	0.66	0.15	0	306	111	3
2026-02-12	16:07:29.510	49.77	-0.035	24.605	0.890844	-0.633424	-0.099308	0.0975	0.663	0.15	0	306	111	3
2026-02-12	16:07:29.530	63.49	1.19	38.85	0.820572	-0.48922	-0.060024	0.096	0.6735	0.1485	0	306	111	3
2026-02-12	16:07:29.550	80.71	6.3	53.48	0.768356	-0.3111	0.033184	0.096	0.6825	0.1455	0	306	111	3
2026-02-12	16:07:29.570	81.795	14.035	63.035	0.815936	-0.201056	0.081252	0.099	0.6885	0.1395	0	306	111	3
2026-02-12	16:07:29.590	58.38	21.875	67.06	0.937204	-0.285968	0.1098	0.099	0.6945	0.1365	0	306	111	3
2026-02-12	16:07:29.610	30.205	29.925	70.14	1.045784	-0.422852	0.141764	0.1065	0.7035	0.1275	0	301	83	3
2026-02-12	16:07:29.630	-1.4	40.67	69.335	1.082872	-0.555344	0.182024	0.1155	0.7185	0.12	0	301	83	3
2026-02-12	16:07:29.650	-26.81	50.89	64.995	1.079456	-0.59292	0.204472	0.1185	0.735	0.117	0	301	83	3
2026-02-12	16:07:29.670	-42.21	59.955	59.675	0.971852	-0.64172	0.153964	0.1185	0.7455	0.111	0	301	83	3
2026-02-12	16:07:29.690	-48.265	64.54	55.125	0.811788	-0.696376	0.105896	0.1185	0.7455	0.1065	0	301	83	3
2026-02-12	16:07:29.710	-40.005	63.735	52.15	0.678564	-0.747372	0.102724	0.123	0.7485	0.1065	0	301	83	3
2026-02-12	16:07:29.730	-24.57	61.18	50.4	0.545584	-0.632448	0.158844	0.1245	0.7575	0.1005	0	301	83	3
2026-02-12	16:07:29.750	-23.45	57.61	47.985	0.478972	-0.624396	0.203252	0.123	0.7635	0.096	0	301	83	3
2026-02-12	16:07:29.770	-13.405	53.095	41.405	0.410896	-0.49776	0.210572	0.1275	0.765	0.09	0	301	83	3
2026-02-12	16:07:29.790	-12.88	46.69	33.075	0.37698	-0.446276	0.20618	0.132	0.7725	0.081	0	301	83	3
2026-02-12	16:07:29.810	-19.495	39.655	26.25	0.384056	-0.47458	0.217892	0.1305	0.7785	0.078	0	296	74	3
2026-02-12	16:07:29.830	-23.87	32.2	19.46	0.39284	-0.5429	0.21594	0.1335	0.78	0.0765	0	296	74	3
2026-02-12	16:07:29.850	-22.435	24.43	11.9	0.412604	-0.563884	0.2135	0.1335	0.78	0.075	0	296	74	3
2026-02-12	16:07:29.870	-22.19	16.94	2.625	0.437492	-0.566324	0.224724	0.129	0.78	0.072	0	296	74	3
2026-02-12	16:07:29.890	-25.585	11.69	-7.245	0.4453	-0.531188	0.257176	0.132	0.7785	0.075	0	296	74	3
2026-02-12	16:07:29.910	-33.67	7.49	-16.835	0.440908	-0.554612	0.269132	0.132	0.7755	0.075	0	296	74	3
2026-02-12	16:07:29.930	-44.03	4.235	-25.305	0.451156	-0.621224	0.256932	0.1305	0.774	0.0705	0	296	74	3
2026-02-12	16:07:29.950	-52.01	2.695	-32.97	0.464576	-0.710528	0.272792	0.1245	0.774	0.0735	0	296	74	3
2026-02-12	16:07:29.970	-54.18	2.275	-37.17	0.498736	-0.787876	0.336476	0.1215	0.771	0.0795	0	296	74	3
2026-02-12	16:07:29.990	-49.84	2.24	-38.395	0.576084	-0.923784	0.312076	0.123	0.768	0.084	0	296	74	3
2026-02-12	16:07:30.010	-35.35	3.255	-28.7	0.720776	-1.281976	0.294508	0.1185	0.762	0.081	0	293	94	3
2026-02-12	16:07:30.030	11.41	5.215	-14.77	0.743468	-1.043832	0.20374	0.1125	0.7545	0.0825	0	293	94	3
2026-02-12	16:07:30.050	-2.555	1.96	-1.155	0.7808	-1.003084	0.255468	0.1095	0.7515	0.084	0	293	94	3
2026-02-12	16:07:30.070	-45.08	4.865	15.015	0.718092	-1.330288	0.355264	0.1065	0.7515	0.081	0	293	94	3
2026-02-12	16:07:30.090	-50.365	14.21	29.015	0.622688	-1.418128	0.412116	0.1095	0.7515	0.081	0	293	94	3
2026-02-12	16:07:30.110	-21.175	18.97	33.565	0.519476	-1.182668	0.301584	0.1125	0.756	0.0825	0	293	94	3
2026-02-12	16:07:30.130	7.42	13.125	29.645	0.586332	-1.076284	0.18178	0.114	0.7605	0.087	0	293	94	3
2026-02-12	16:07:30.150	31.22	7.84	18.025	0.790072	-0.86132	0.243756	0.1185	0.756	0.0855	0	293	94	3
2026-02-12	16:07:30.170	47.005	12.74	6.965	1.00772	-0.981612	0.317444	0.12	0.762	0.0765	0	293	94	3
2026-02-12	16:07:30.190	56.91	9.835	2.135	0.982344	-0.395036	0.088328	0.117	0.7665	0.069	0	293	94	3
2026-02-12	16:07:30.210	22.89	-8.925	-7.7	0.768844	-0.166652	-0.14884	0.12	0.7665	0.066	0	294	129	3
2026-02-12	16:07:30.230	9.415	-27.615	-17.92	0.66246	-0.135664	-0.165188	0.117	0.771	0.0645	0	294	129	3
2026-02-12	16:07:30.250	-1.47	-42.945	-25.69	0.634644	-0.188612	-0.021472	0.108	0.774	0.0675	0	294	129	3
2026-02-12	16:07:30.270	-25.865	-54.25	-28.735	0.634888	-0.546072	0.081252	0.108	0.777	0.0735	0	294	129	3
2026-02-12	16:07:30.290	-30.205	-55.65	-24.255	0.595848	-0.917196	0.076372	0.1125	0.771	0.0795	0	294	129	3
2026-02-12	16:07:30.310	0.28	-54.075	-22.505	0.562908	-0.985272	0.00488	0.1125	0.7635	0.087	0	294	129	3
2026-02-12	16:07:30.330	34.23	-55.51	-31.15	0.620492	-0.790316	-0.057584	0.111	0.7605	0.093	0	294	129	3
2026-02-12	16:07:30.350	30.45	-53.935	-39.34	0.71492	-0.695644	-0.069784	0.111	0.7575	0.0945	0	294	129	3
2026-02-12	16:07:30.370	14.175	-50.365	-45.08	0.819108	-0.6527	-0.038064	0.1095	0.753	0.099	0	294	129	3
2026-02-12	16:07:30.390	2.73	-43.75	-49.28	0.888648	-0.624152	-0.029524	0.1065	0.7455	0.1035	0	294	129	3
2026-02-12	16:07:30.410	-3.465	-33.915	-49.49	0.901336	-0.551928	-0.042212	0.108	0.7425	0.1065	0	300	139	3
2026-02-12	16:07:30.430	-3.43	-24.885	-45.955	0.828136	-0.499468	-0.07564	0.1035	0.7365	0.1125	0	300	139	3
2026-02-12	16:07:30.450	-6.02	-21.35	-41.825	0.787388	-0.521916	-0.058804	0.099	0.7275	0.12	0	300	139	3
2026-02-12	16:07:30.470	-8.12	-16.695	-36.085	0.728584	-0.59658	-0.016592	0.1005	0.72	0.12	0	300	139	3
2026-02-12	16:07:30.490	-7.385	-11.655	-30.835	0.689056	-0.642452	0.019764	0.099	0.717	0.12	0	300	139	3
2026-02-12	16:07:30.510	-9.38	-5.495	-26.39	0.655384	-0.670512	0.032208	0.093	0.7125	0.1245	0	300	139	3
2026-02-12	16:07:30.530	-14.525	-0.525	-23.555	0.628056	-0.691008	0.022936	0.09	0.708	0.123	0	300	139	3
2026-02-12	16:07:30.550	-20.125	3.185	-22.085	0.6161	-0.719068	0.02074	0.09	0.705	0.123	0	300	139	3
2026-02-12	16:07:30.570	-21.455	5.74	-21.07	0.615124	-0.747372	0.029768	0.09	0.702	0.126	0	300	139	3
2026-02-12	16:07:30.590	-18.795	7.07	-20.58	0.609024	-0.756156	0.0488	0.0885	0.7005	0.1215	0	300	139	3
2026-02-12	16:07:30.610	-14.525	7.84	-20.615	0.6039	-0.752496	0.078324	0.087	0.6945	0.1215	0	304	120	2
2026-02-12	16:07:30.630	-10.57	7.595	-21.245	0.607316	-0.735904	0.11956	0.087	0.69	0.126	0	304	120	2
2026-02-12	16:07:30.650	-9.66	5.775	-22.015	0.634888	-0.71004	0.105652	0.081	0.6915	0.123	0	304	120	2
2026-02-12	16:07:30.670	-8.505	2.205	-22.505	0.718092	-0.677588	0.09882	0.078	0.69	0.12	0	304	120	2
2026-02-12	16:07:30.690	-8.47	-2.17	-23.415	0.833504	-0.692228	0.09857599	0.084	0.69	0.1215	0	304	120	2
2026-02-12	16:07:30.710	-10.605	-5.565	-23.905	0.946232	-0.762744	0.07124799	0.081	0.687	0.123	0	304	120	2
2026-02-12	16:07:30.730	-3.675	-7.595	-23.24	0.985028	-0.845948	0.007808	0.075	0.681	0.12	0	304	120	2
2026-02-12	16:07:30.750	9.1	-10.22	-20.545	0.957944	-0.8845	-0.020984	0.0795	0.6795	0.1155	0	304	120	2
2026-02-12	16:07:30.770	25.865	-13.93	-18.305	0.964044	-0.868884	0.047824	0.0795	0.6765	0.1185	0	304	120	2
2026-02-12	16:07:30.790	34.335	-11.865	-15.855	0.973316	-0.84424	0.122976	0.0765	0.672	0.123	0	304	120	2
2026-02-12	16:07:30.810	37.975	-6.51	-13.265	0.941352	-0.855464	0.07442	0.0765	0.666	0.123	0	303	96	3
2026-02-12	16:07:30.830	39.62	-3.045	-8.085	0.935496	-0.877912	-0.011712	0.0765	0.666	0.1245	0	303	96	3
2026-02-12	16:07:30.850	44.94	-3.5	6.335	0.930372	-0.903532	-0.162504	0.0765	0.666	0.1245	0	303	96	3
2026-02-12	16:07:30.870	56.385	-6.125	19.11	0.93818	-0.795684	-0.121268	0.0735	0.669	0.1185	0	303	96	3
2026-02-12	16:07:30.890	76.72	-5.95	32.34	0.890356	-0.566324	-0.071004	0.075	0.6735	0.111	0	303	96	3
2026-02-12	16:07:30.910	93.345	-3.815	44.8	0.855708	-0.357948	0.00854	0.0825	0.675	0.111	0	303	96	3
2026-02-12	16:07:30.930	96.495	2.03	55.195	0.832284	-0.197152	0.088084	0.0825	0.6795	0.1095	0	303	96	3
2026-02-12	16:07:30.950	84	9.065	60.76	0.891088	-0.126148	0.092964	0.084	0.6885	0.105	0	303	96	3
2026-02-12	16:07:30.970	56.035	18.025	63.945	0.998448	-0.228384	0.098332	0.087	0.7005	0.1035	0	303	96	3
2026-02-12	16:07:30.990	27.335	27.895	66.99	1.0797	-0.42456	0.148352	0.093	0.7125	0.1005	0	303	96	3
