yyyy-MM-dd	HH:mm:ss.fff	gyrX	gyrY	gyrZ	accX	accY	accZ	magX	magY	magZ	Marker	Energy	Angle	Classification
2026-02-12	15:29:11.210	1.26	-0.56	0.245	-0.012932	0.09882	1.008696	-1.677	1.6905	-1.0305	0	135	1014	1
2026-02-12	15:29:11.230	1.26	-0.56	0.21	-0.009028	0.09882	1.009916	-1.6785	1.674	-1.0425	0	135	1014	1
2026-02-12	15:29:11.250	1.295	-0.63	0.245	-0.01342	0.101016	1.007232	-1.686	1.6725	-1.044	0	135	1014	1
2026-02-12	15:29:11.270	1.295	-0.63	0.28	-0.011468	0.094916	1.009184	-1.686	1.6725	-1.044	0	135	1014	1
2026-02-12	15:29:11.290	1.295	-0.56	0.245	-0.010004	0.099796	1.010648	-1.686	1.6725	-1.044	0	135	1014	1
2026-02-12	15:29:11.310	1.26	-0.56	0.28	-0.00854	0.100284	1.007964	-1.686	1.6725	-1.044	0	135	1014	1
2026-02-12	15:29:11.330	1.295	-0.595	0.245	-0.009272	0.099064	1.009916	-1.683	1.7115	-1.0275	0	135	1014	1
2026-02-12	15:29:11.350	1.295	-0.56	0.28	-0.010248	0.099308	1.01138	-1.686	1.689	-1.047	0	135	1014	1
2026-02-12	15:29:11.370	1.26	-0.595	0.245	-0.009272	0.0976	1.008208	-1.6905	1.6845	-1.044	0	135	1014	1
2026-02-12	15:29:11.390	1.295	-0.63	0.245	-0.013908	0.094916	1.00894	-1.683	1.71	-1.0575	0	135	1014	1
2026-02-12	15:29:11.410	1.26	-0.63	0.245	-0.011224	0.098088	1.007232	-1.6785	1.7205	-1.0485	0	113	1019	1
2026-02-12	15:29:11.430	1.26	-0.595	0.21	-0.009516	0.09882	1.009672	-1.665	1.71	-1.047	0	113	1019	1
2026-02-12	15:29:11.450	1.295	-0.595	0.28	-0.012688	0.097844	1.006256	-1.68	1.68	-1.0365	0	113	1019	1
2026-02-12	15:29:11.470	1.295	-0.595	0.245	-0.010492	0.09882	1.01138	-1.68	1.68	-1.0365	0	113	1019	1
2026-02-12	15:29:11.490	1.26	-0.63	0.245	-0.01098	0.097844	1.009428	-1.674	1.71	-1.044	0	113	1019	1
2026-02-12	15:29:11.510	1.295	-0.63	0.245	-0.010492	0.099064	1.008208	-1.674	1.71	-1.044	0	113	1019	1
2026-02-12	15:29:11.530	1.33	-0.63	0.245	-0.011956	0.097356	1.012356	-1.6755	1.707	-1.0395	0	113	1019	1
2026-02-12	15:29:11.550	1.26	-0.595	0.245	-0.010004	0.103212	1.012112	-1.6785	1.698	-1.035	0	113	1019	1
2026-02-12	15:29:11.570	1.295	-0.56	0.28	-0.011224	0.09638	1.007476	-1.683	1.695	-1.041	0	113	1019	1
2026-02-12	15:29:11.590	1.295	-0.595	0.245	-0.008784	0.099064	1.009672	-1.683	1.6995	-1.0425	0	113	1019	1
2026-02-12	15:29:11.610	1.295	-0.63	0.245	-0.011712	0.099064	1.00772	-1.677	1.701	-1.044	0	96	1022	1
2026-02-12	15:29:11.630	1.33	-0.63	0.28	-0.008296	0.099796	1.007964	-1.6725	1.7055	-1.0455	0	96	1022	1
2026-02-12	15:29:11.650	1.295	-0.56	0.245	-0.011956	0.10248	1.01016	-1.6785	1.704	-1.0365	0	96	1022	1
2026-02-12	15:29:11.670	1.295	-0.595	0.245	-0.010004	0.095892	1.00894	-1.6815	1.6995	-1.0365	0	96	1022	1
2026-02-12	15:29:11.690	1.295	-0.595	0.245	-0.014152	0.098332	1.009184	-1.677	1.71	-1.0365	0	96	1022	1
2026-02-12	15:29:11.710	1.26	-0.56	0.245	-0.012932	0.098088	1.008208	-1.6785	1.71	-1.035	0	96	1022	1
2026-02-12	15:29:11.730	1.33	-0.63	0.245	-0.010736	0.099796	1.009184	-1.68	1.6995	-1.0365	0	96	1022	1
2026-02-12	15:29:11.750	1.295	-0.595	0.245	-0.009272	0.0976	1.011868	-1.683	1.6995	-1.038	0	96	1022	1
2026-02-12	15:29:11.770	1.33	-0.63	0.28	-0.009516	0.100284	1.009916	-1.6845	1.695	-1.041	0	96	1022	1
2026-02-12	15:29:11.790	1.33	-0.595	0.28	-0.009028	0.095648	1.008208	-1.6785	1.7055	-1.044	0	96	1022	1
2026-02-12	15:29:11.810	1.295	-0.56	0.28	-0.010248	0.095892	1.008696	-1.671	1.7235	-1.038	0	81	1024	1
2026-02-12	15:29:11.830	1.26	-0.595	0.28	-0.010736	0.100528	1.008452	-1.674	1.719	-1.0395	0	81	1024	1
2026-02-12	15:29:11.850	1.295	-0.595	0.245	-0.011468	0.100772	1.010648	-1.6785	1.7115	-1.0455	0	81	1024	1
2026-02-12	15:29:11.870	1.33	-0.595	0.245	-0.010492	0.100284	1.006744	-1.6785	1.71	-1.0485	0	81	1024	1
2026-02-12	15:29:11.890	1.33	-0.595	0.245	-0.011224	0.099796	1.007964	-1.677	1.71	-1.0425	0	81	1024	1
2026-02-12	15:29:11.910	1.26	-0.595	0.245	-0.009272	0.100284	1.008208	-1.6725	1.7055	-1.032	0	81	1024	1
2026-02-12	15:29:11.930	1.295	-0.595	0.28	-0.011224	0.099064	1.009184	-1.674	1.7055	-1.0395	0	81	1024	1
2026-02-12	15:29:11.950	1.26	-0.56	0.28	-0.010248	0.102236	1.010892	-1.677	1.707	-1.044	0	81	1024	1
2026-02-12	15:29:11.970	1.26	-0.63	0.245	-0.012688	0.101504	1.010648	-1.68	1.698	-1.0365	0	81	1024	1
2026-02-12	15:29:11.990	1.295	-0.63	0.28	-0.011956	0.100528	1.010892	-1.6845	1.704	-1.0335	0	81	1024	1
2026-02-12	15:29:12.010	1.33	-0.595	0.28	-0.010492	0.100772	1.012356	-1.6785	1.7115	-1.0395	0	69	1026	1
2026-02-12	15:29:12.030	1.33	-0.595	0.28	-0.011468	0.095404	1.00894	-1.6725	1.7145	-1.0425	0	69	1026	1
2026-02-12	15:29:12.050	1.33	-0.595	0.245	-0.012444	0.101016	1.011624	-1.6725	1.722	-1.041	0	69	1026	1
2026-02-12	15:29:12.070	1.33	-0.63	0.28	-0.009516	0.10126	1.007964	-1.6785	1.7145	-1.056	0	69	1026	1
2026-02-12	15:29:12.090	1.4	-0.665	0.245	-0.00854	0.102236	1.01016	-1.686	1.71	-1.056	0	69	1026	1
2026-02-12	15:29:12.110	1.54	-0.665	0.28	-0.011224	0.096624	1.006988	-1.683	1.704	-1.0515	0	69	1026	1
2026-02-12	15:29:12.130	1.575	-0.7	0.315	-0.010004	0.097844	1.007476	-1.6815	1.6995	-1.0515	0	69	1026	1
2026-02-12	15:29:12.150	1.715	-0.84	0.28	0.002928	0.105408	1.021628	-1.683	1.701	-1.0425	0	69	1026	1
2026-02-12	15:29:12.170	1.435	-0.665	0.245	-0.018788	0.123952	0.994788	-1.683	1.695	-1.047	0	69	1026	1
2026-02-12	15:29:12.190	1.05	-0.77	0.245	-0.010248	0.101748	1.023336	-1.683	1.6935	-1.035	0	69	1026	1
2026-02-12	15:29:10.210	1.26	-0.56	0.245	-0.012932	0.095892	1.01016	-1.671	1.6965	-1.029	0	311	949	1
2026-02-12	15:29:10.230	1.295	-0.595	0.28	-0.008052	0.100772	1.00894	-1.674	1.7085	-1.0365	0	311	949	1
2026-02-12	15:29:10.250	1.26	-0.595	0.28	-0.00976	0.10004	1.0065	-1.68	1.698	-1.032	0	311	949	1
2026-02-12	15:29:10.270	1.295	-0.63	0.245	-0.010492	0.098088	1.009184	-1.677	1.692	-1.029	0	311	949	1
2026-02-12	15:29:10.290	1.26	-0.595	0.28	-0.011468	0.09882	1.01016	-1.6755	1.704	-1.05	0	311	949	1
2026-02-12	15:29:10.310	1.26	-0.595	0.28	-0.01342	0.095648	1.009672	-1.6785	1.713	-1.0365	0	311	949	1
2026-02-12	15:29:10.330	1.26	-0.63	0.21	-0.012444	0.099308	1.009916	-1.6845	1.6995	-1.0425	0	311	949	1
2026-02-12	15:29:10.350	1.33	-0.595	0.245	-0.0122	0.095648	1.008208	-1.6815	1.71	-1.032	0	311	949	1
2026-02-12	15:29:10.370	1.295	-0.56	0.245	-0.01098	0.0976	1.009428	-1.689	1.6815	-1.023	0	311	949	1
2026-02-12	15:29:10.390	1.295	-0.56	0.245	-0.011468	0.100528	1.00894	-1.677	1.737	-1.0365	0	311	949	1
2026-02-12	15:29:10.410	1.295	-0.595	0.245	-0.013176	0.098088	1.012112	-1.6755	1.725	-1.038	0	270	972	1
2026-02-12	15:29:10.430	1.26	-0.595	0.245	-0.013176	0.098332	1.0065	-1.674	1.7115	-1.041	0	270	972	1
2026-02-12	15:29:10.450	1.26	-0.595	0.245	-0.008784	0.100528	1.01016	-1.674	1.7085	-1.0425	0	270	972	1
2026-02-12	15:29:10.470	1.26	-0.595	0.28	-0.010736	0.09467199	1.009184	-1.677	1.701	-1.0365	0	270	972	1
2026-02-12	15:29:10.490	1.26	-0.595	0.21	-0.00976	0.099308	1.009428	-1.6875	1.6785	-1.0335	0	270	972	1
2026-02-12	15:29:10.510	1.295	-0.56	0.21	-0.011712	0.09857599	1.009916	-1.6815	1.689	-1.0365	0	270	972	1
2026-02-12	15:29:10.530	1.26	-0.595	0.28	-0.014396	0.09882	1.003572	-1.6725	1.713	-1.0335	0	270	972	1
2026-02-12	15:29:10.550	1.26	-0.595	0.245	-0.00854	0.100772	1.00894	-1.677	1.7085	-1.035	0	270	972	1
2026-02-12	15:29:10.570	1.26	-0.56	0.28	-0.00976	0.101992	1.009428	-1.6815	1.71	-1.0365	0	270	972	1
2026-02-12	15:29:10.590	1.295	-0.595	0.245	-0.009272	0.097112	1.00772	-1.68	1.704	-1.035	0	270	972	1
2026-02-12	15:29:20.610	1.05	-0.315	0.21	-0.008296	0.093208	1.011868	-1.6815	1.6995	-1.035	0	25	52	2
2026-02-12	15:29:20.630	0.91	-0.105	0.245	-0.033184	0.109312	1.028948	-1.68	1.7025	-1.0515	0	25	52	2
2026-02-12	15:29:20.650	0.665	-0.14	0.28	0.007808	0.127124	0.986248	-1.6875	1.6965	-1.0485	0	25	52	2
2026-02-12	15:29:20.670	0.98	-0.525	0.315	-0.017812	0.13664	0.981368	-1.686	1.6905	-1.0395	0	25	52	2
2026-02-12	15:29:20.690	1.365	-0.7	0.175	-0.008784	0.094184	1.019432	-1.6815	1.701	-1.041	0	25	52	2
2026-02-12	15:29:20.710	1.54	-0.665	0.28	-0.011224	0.096624	1.006988	-1.683	1.704	-1.0515	0	25	52	2
2026-02-12	15:29:20.730	1.575	-0.7	0.315	-0.010004	0.097844	1.007476	-1.6815	1.6995	-1.0515	0	25	52	2
2026-02-12	15:29:20.750	-7.175	-6.79	5.355	-0.096624	-0.12444	0.972584	-1.68	1.689	-1.0365	0	25	52	2
2026-02-12	15:29:20.770	-10.255	-5.075	7.28	-0.081496	-0.124196	0.966972	-2.3895	1.017	-0.858	0	25	52	2
2026-02-12	15:29:20.790	-9.065	-4.97	10.885	-0.078812	-0.12444	0.987468	-3.102	0.339	-0.678	0	25	52	2
2026-02-12	15:29:20.810	-7.665	-5.775	12.775	-0.071492	-0.125172	0.989176	-3.105	0.3315	-0.6765	0	114	224	2
2026-02-12	15:29:20.830	-2.485	-7.63	12.88	-0.073932	-0.11102	0.959896	-3.1035	0.336	-0.6735	0	114	224	2
2026-02-12	15:29:20.850	2.695	-11.55	10.92	-0.063928	-0.06344	0.958676	-3.105	0.3435	-0.6765	0	114	224	2
2026-02-12	15:29:20.870	9.73	-12.425	8.4	-0.075396	0.000976	0.930616	-3.108	0.3465	-0.6825	0	114	224	2
2026-02-12	15:29:20.890	6.825	-12.25	6.58	-0.074908	0.019764	1.030412	-3.1125	0.348	-0.681	0	114	224	2
2026-02-12	15:29:20.910	8.295	-8.575	2.835	-0.06222	-0.004392	1.081408	-3.1095	0.3495	-0.6825	0	114	224	2
2026-02-12	15:29:20.930	5.845	-5.81	-1.68	-0.06466	-0.06734399	1.115324	-3.111	0.3435	-0.6825	0	114	224	2
2026-02-12	15:29:20.950	7.385	-4.62	-6.3	-0.062952	-0.0671	1.093852	-3.1155	0.3405	-0.6855	0	114	224	2
2026-02-12	15:29:20.970	2.905	-4.025	-8.155	-0.054656	-0.068808	1.065792	-3.117	0.327	-0.6885	0	114	224	2
2026-02-12	15:29:20.990	-2.135	-1.505	-7.385	-0.046604	-0.068808	1.022604	-3.1155	0.3315	-0.6825	0	114	224	2
2026-02-12	15:29:21.010	-6.86	2.765	-4.305	-0.003904	-0.091988	1.04432	-3.108	0.348	-0.6825	0	231	436	3
2026-02-12	15:29:21.030	-9.94	7.735	-0.315	0.026596	-0.11224	1.036756	-3.105	0.348	-0.684	0	231	436	3
2026-02-12	15:29:21.050	-11.305	10.99	3.395	0.026596	-0.124684	1.041636	-3.1035	0.351	-0.684	0	231	436	3
2026-02-12	15:29:21.070	-4.55	12.18	5.635	-0.045872	-0.09467199	0.96258	-3.1005	0.3555	-0.681	0	231	436	3
2026-02-12	15:29:21.090	-5.67	11.27	6.055	-0.058316	-0.1403	0.962092	-3.1005	0.3555	-0.6765	0	231	436	3
2026-02-12	15:29:21.110	-1.085	10.745	3.85	-0.058072	-0.144204	0.938912	-3.1005	0.357	-0.6825	0	231	436	3
2026-02-12	15:29:21.130	1.68	7.315	1.855	-0.069296	-0.182024	0.939156	-3.099	0.3555	-0.681	0	231	436	3
2026-02-12	15:29:21.150	9.03	5.565	0.35	-0.071492	-0.177876	0.917928	-3.096	0.354	-0.6795	0	231	436	3
2026-02-12	15:29:21.170	12.845	2.765	-0.56	-0.05246	-0.16104	0.95404	-3.093	0.3615	-0.6915	0	231	436	3
2026-02-12	15:29:21.190	13.265	1.33	-0.77	-0.041968	-0.149084	0.981612	-3.0975	0.366	-0.7035	0	231	436	3
2026-02-12	15:29:21.210	10.815	-0.945	-1.05	-0.022936	-0.166164	0.980148	-3.1095	0.321	-0.7005	0	316	594	1
2026-02-12	15:29:21.230	12.11	-4.06	-1.505	-0.005124	-0.158844	0.99064	-3.105	0.3195	-0.699	0	316	594	1
2026-02-12	15:29:21.250	15.61	-6.65	-1.33	-0.004392	-0.136884	1.013332	-3.0915	0.36	-0.7035	0	316	594	1
2026-02-12	15:29:21.270	16.835	-7.63	-0.49	0.000976	-0.11468	1.031632	-3.093	0.354	-0.708	0	316	594	1
2026-02-12	15:29:21.290	13.545	-6.755	0.665	0.011956	-0.100284	1.037488	-3.0945	0.351	-0.7155	0	316	594	1
2026-02-12	15:29:21.310	9.17	-5.075	2.275	0.01342	-0.102236	1.038952	-3.096	0.3525	-0.7095	0	316	594	1
2026-02-12	15:29:21.330	6.755	-3.045	4.13	0.017324	-0.11956	1.030412	-3.09	0.351	-0.693	0	316	594	1
2026-02-12	15:29:21.350	7.42	-1.12	5.6	0.018056	-0.107848	1.035292	-3.09	0.36	-0.6975	0	316	594	1
2026-02-12	15:29:21.370	7.49	0.63	7.14	0.027816	-0.099064	1.0431	-3.099	0.3525	-0.705	0	316	594	1
2026-02-12	15:29:21.390	5.915	2.59	9.1	0.024644	-0.09638	1.022604	-3.0975	0.3435	-0.696	0	316	594	1
2026-02-12	15:29:21.410	5.18	5.355	11.305	0.016348	-0.079788	0.997472	-3.0945	0.345	-0.693	0	367	710	1
2026-02-12	15:29:21.430	3.71	6.615	13.545	0.020252	-0.076372	0.99552	-3.096	0.3405	-0.693	0	367	710	1
2026-02-12	15:29:21.450	4.725	7.665	15.33	0.01586	-0.061	0.99186	-3.093	0.336	-0.6825	0	367	710	1
2026-02-12	15:29:21.470	3.115	6.965	16.66	0.017812	-0.07905599	1.01138	-3.09	0.324	-0.6795	0	367	710	1
2026-02-12	15:29:21.490	3.36	6.09	17.745	0.012688	-0.07808	1.004548	-3.0885	0.3285	-0.681	0	367	710	1
2026-02-12	15:29:21.510	4.305	4.095	19.145	-0.003416	-0.06832	0.999424	-3.084	0.33	-0.681	0	367	710	1
2026-02-12	15:29:21.530	5.18	1.435	20.265	-0.004392	-0.061	1.00528	-3.078	0.33	-0.684	0	367	710	1
2026-02-12	15:29:21.550	5.985	-0.455	21	0.001464	-0.047824	0.994544	-3.081	0.3375	-0.681	0	367	710	1
2026-02-12	15:29:21.570	3.675	-3.255	21.84	0.00366	-0.053436	1.014308	-3.081	0.3315	-0.6825	0	367	710	1
2026-02-12	15:29:21.590	2.73	-4.865	22.96	0.00244	-0.050264	1.024068	-3.0765	0.3285	-0.6825	0	367	710	1
2026-02-12	15:29:21.610	1.225	-6.3	24.325	-0.015128	-0.059292	1.026264	-3.0765	0.3345	-0.7005	0	386	797	1
2026-02-12	15:29:21.630	-1.05	-6.72	25.83	-0.023912	-0.09882	1.070916	-3.078	0.3405	-0.7125	0	386	797	1
2026-02-12	15:29:21.650	-0.455	-6.51	26.32	-0.039284	-0.131516	1.048468	-3.081	0.3345	-0.7065	0	386	797	1
2026-02-12	15:29:21.670	2.45	-5.565	25.97	-0.038308	-0.100284	1.010892	-3.0825	0.3315	-0.6945	0	386	797	1
2026-02-12	15:29:21.690	4.095	-3.885	25.235	-0.036356	-0.070272	0.970632	-3.0795	0.3375	-0.6795	0	386	797	1
2026-02-12	15:29:21.710	3.99	-2.275	24.115	-0.030744	-0.058804	0.95648	-3.0825	0.33	-0.6825	0	386	797	1
2026-02-12	15:29:21.730	5.985	-0.455	22.82	-0.008296	-0.062464	0.968192	-3.081	0.3225	-0.687	0	386	797	1
2026-02-12	15:29:21.750	7.595	0	22.61	-0.006588	-0.062708	0.996252	-3.072	0.321	-0.6795	0	386	797	1
2026-02-12	15:29:21.770	9.87	0.035	23.38	-0.011956	-0.057584	1.012356	-3.069	0.3225	-0.672	0	386	797	1
2026-02-12	15:29:21.790	13.23	-0.175	24.255	-0.017568	-0.039772	1.008452	-3.069	0.3225	-0.672	0	386	797	1
2026-02-12	15:29:21.810	12.6	-2.205	24.955	-0.008296	-0.037088	1.070672	-3.0645	0.318	-0.6855	0	379	861	1
2026-02-12	15:29:21.830	11.655	-2.87	25.41	-0.021472	-0.026352	1.027484	-3.0645	0.318	-0.6855	0	379	861	1
2026-02-12	15:29:21.850	6.44	-5.25	25.48	-0.030744	-0.038552	1.042856	-3.0735	0.3045	-0.681	0	379	861	1
2026-02-12	15:29:21.870	1.925	-5.67	25.2	-0.0427	-0.050752	1.025288	-3.0645	0.288	-0.681	0	379	861	1
2026-02-12	15:29:21.890	-0.42	-3.955	25.62	-0.060756	-0.04636	1.000156	-3.0645	0.3015	-0.6765	0	379	861	1
2026-02-12	15:29:21.910	-2.1	-0.07	26.95	-0.06466	-0.041724	0.998936	-3.0705	0.2895	-0.6795	0	379	861	1
2026-02-12	15:29:21.930	-3.99	4.2	27.44	-0.075396	-0.038064	0.982832	-3.0675	0.2895	-0.684	0	379	861	1
2026-02-12	15:29:21.950	-6.93	6.825	27.44	-0.097112	-0.035868	0.983076	-3.0735	0.294	-0.6795	0	379	861	1
2026-02-12	15:29:21.970	-9.625	8.4	27.51	-0.104188	-0.061244	0.9699	-3.0735	0.294	-0.6795	0	379	861	1
2026-02-12	15:29:21.990	-7.595	7.77	27.09	-0.099308	-0.06466	0.962092	-3.0735	0.294	-0.6795	0	379	861	1
2026-02-12	15:29:22.010	-5.215	3.605	26.425	-0.107848	-0.073688	1.005768	-3.072	0.279	-0.672	0	355	907	1
2026-02-12	15:29:22.030	-3.99	0.14	25.585	-0.101992	-0.0671	1.01382	-3.0675	0.267	-0.6705	0	355	907	1
2026-02-12	15:29:22.050	-1.89	-5.145	24.605	-0.08906	-0.053924	1.006744	-3.06	0.276	-0.6765	0	355	907	1
2026-02-12	15:29:22.070	-1.085	-10.885	24.045	-0.07076	-0.056852	1.019432	-3.0585	0.282	-0.6705	0	355	907	1
2026-02-12	15:29:22.090	-0.105	-14.7	24.01	-0.068808	-0.04392	1.02724	-3.0585	0.291	-0.6735	0	355	907	1
2026-02-12	15:29:22.110	0.035	-16.835	24.15	-0.051484	-0.040992	1.02114	-3.057	0.306	-0.6825	0	355	907	1
2026-02-12	15:29:22.130	1.155	-17.535	24.745	-0.048068	-0.024156	1.032364	-3.0585	0.303	-0.6825	0	355	907	1
2026-02-12	15:29:22.150	1.575	-16.87	25.445	-0.049044	-0.018056	1.0553	-3.0615	0.2895	-0.6825	0	355	907	1
2026-02-12	15:29:22.170	1.96	-15.54	25.55	-0.047336	-0.021472	1.042856	-3.0585	0.2895	-0.6855	0	355	907	1
2026-02-12	15:29:22.190	1.225	-14.245	25.305	-0.036112	-0.033672	1.056276	-3.06	0.2865	-0.687	0	355	907	1
2026-02-12	15:29:22.210	2.03	-13.23	24.57	-0.032452	-0.046848	1.044076	-3.066	0.2655	-0.6855	0	321	941	1
2026-02-12	15:29:22.230	3.22	-12.635	22.925	-0.046604	-0.041968	1.020408	-3.0675	0.276	-0.684	0	321	941	1
2026-02-12	15:29:22.250	3.92	-11.97	20.72	-0.047824	-0.038308	0.999912	-3.0645	0.291	-0.687	0	321	941	1
2026-02-12	15:29:22.270	4.025	-12.25	18.165	-0.038796	-0.04636	0.999424	-3.066	0.2865	-0.69	0	321	941	1
2026-02-12	15:29:22.290	6.265	-11.76	15.12	-0.030988	-0.044164	0.977952	-3.0705	0.285	-0.687	0	321	941	1
2026-02-12	15:29:22.310	7.7	-12.075	12.285	-0.02318	-0.040504	0.97966	-3.069	0.2745	-0.6825	0	321	941	1
2026-02-12	15:29:22.330	10.92	-10.325	10.395	-0.00976	-0.025132	0.971608	-3.0675	0.2625	-0.681	0	321	941	1
2026-02-12	15:29:22.350	11.375	-8.225	9.905	-0.003172	-0.015372	0.989908	-3.075	0.2505	-0.6975	0	321	941	1
2026-02-12	15:29:22.370	12.11	-4.585	9.975	0.003172	-0.0061	0.99064	-3.0765	0.261	-0.7155	0	321	941	1
2026-02-12	15:29:22.390	11.2	-1.19	10.115	0.002684	-0.019276	0.995764	-3.072	0.2865	-0.714	0	321	941	1
2026-02-12	15:29:22.410	11.725	2.485	10.045	-0.000976	-0.005124	0.996008	-3.0705	0.282	-0.702	0	284	966	1
2026-02-12	15:29:22.430	11.095	5.95	9.8	-0.00488	0.000732	1.006256	-3.0705	0.276	-0.6945	0	284	966	1
2026-02-12	15:29:22.450	7.455	8.19	9.31	-0.0061	-0.007808	1.034072	-3.072	0.279	-0.6975	0	284	966	1
2026-02-12	15:29:22.470	5.67	10.885	8.47	-0.012688	-0.001952	1.011136	-3.0645	0.273	-0.6945	0	284	966	1
2026-02-12	15:29:22.490	2.31	10.675	8.155	-0.020008	-0.004392	1.02968	-3.0585	0.2805	-0.6945	0	284	966	1
2026-02-12	15:29:22.510	1.855	10.5	7.98	-0.022448	-0.004636	1.013332	-3.063	0.2805	-0.6945	0	284	966	1
2026-02-12	15:29:22.530	0.56	8.225	7.665	-0.022448	-0.005856	1.006744	-3.06	0.27	-0.69	0	284	966	1
2026-02-12	15:29:22.550	0.525	6.51	7.175	-0.021228	0.001708	0.9943	-3.057	0.2595	-0.687	0	284	966	1
2026-02-12	15:29:22.570	-1.085	3.745	7.07	-0.019032	-0.005856	1.0065	-3.063	0.252	-0.6765	0	284	966	1
2026-02-12	15:29:22.590	-0.315	2.555	7.245	-0.018788	-0.000488	0.992836	-3.06	0.267	-0.6735	0	284	966	1
2026-02-12	15:29:22.610	-1.26	0.665	7.385	-0.025376	-0.005124	1.017968	-3.057	0.279	-0.6825	0	247	984	1
2026-02-12	15:29:22.630	-1.61	0.49	7.035	-0.030988	-0.019764	1.0187	-3.0585	0.264	-0.6855	0	247	984	1
2026-02-12	15:29:22.650	0.49	1.33	6.79	-0.032452	-0.013176	1.006988	-3.0585	0.255	-0.6855	0	247	984	1
2026-02-12	15:29:22.670	2.87	2.1	7.35	-0.024156	-0.000976	1.033828	-3.0615	0.255	-0.681	0	247	984	1
2026-02-12	15:29:22.690	5.285	3.99	8.365	-0.02806	0.01342	1.04066	-3.066	0.2565	-0.6765	0	247	984	1
2026-02-12	15:29:22.710	6.335	5.215	9.1	-0.052704	0.015128	1.027484	-3.066	0.258	-0.6825	0	247	984	1
2026-02-12	15:29:22.730	5.705	6.93	9.485	-0.140544	-0.01586	1.040904	-3.0645	0.2385	-0.69	0	247	984	1
2026-02-12	15:29:22.750	7.42	8.645	9.625	-0.088084	-0.000488	0.989664	-3.0645	0.231	-0.687	0	247	984	1
2026-02-12	15:29:22.770	5.635	7.805	9.205	-0.055144	0.065392	0.922808	-3.06	0.246	-0.681	0	247	984	1
2026-02-12	15:29:22.790	0.07	2.975	8.085	-0.040504	0.067832	0.941108	-3.0585	0.2475	-0.678	0	247	984	1
2026-02-12	15:29:22.810	-3.85	3.43	7.28	-0.037332	0.066124	0.919392	-3.063	0.246	-0.675	0	214	996	1
2026-02-12	15:29:22.830	-15.19	4.795	8.05	0.00366	0.064172	1.069208	-3.063	0.24	-0.6735	0	214	996	1
2026-02-12	15:29:22.850	-12.32	10.57	7.245	0.054412	0.059292	1.109224	-3.0615	0.234	-0.675	0	214	996	1
2026-02-12	15:29:22.870	-8.925	13.58	3.605	0.005368	0.064904	1.061156	-3.051	0.2535	-0.6855	0	214	996	1
2026-02-12	15:29:22.890	-11.095	15.54	2.485	-0.04514	0.049532	1.030656	-3.051	0.2535	-0.6855	0	214	996	1
2026-02-12	15:29:22.910	-30.38	19.39	3.36	-0.097356	-0.069052	0.992836	-3.054	0.261	-0.6825	0	214	996	1
2026-02-12	15:29:22.930	-39.55	21.91	5.95	-0.111264	-0.1708	0.951112	-3.0465	0.2625	-0.6765	0	214	996	1
2026-02-12	15:29:22.950	-42.525	17.885	8.12	-0.086376	-0.156648	0.961848	-3.0465	0.255	-0.6705	0	214	996	1
2026-02-12	15:29:22.970	-37.66	12.005	10.22	-0.084668	-0.178852	0.90768	-3.045	0.2535	-0.663	0	214	996	1
2026-02-12	15:29:22.990	-30.8	0	11.2	-0.118828	-0.161528	0.94062	-3.0495	0.255	-0.69	0	214	996	1
2026-02-12	15:29:23.010	-22.225	-10.5	10.745	-0.125172	-0.10248	0.954528	-3.0405	0.306	-0.687	0	186	1004	1
2026-02-12	15:29:23.030	-21.56	-20.335	10.045	-0.128344	-0.09076799	0.972584	-3.039	0.3075	-0.687	0	186	1004	1
2026-02-12	15:29:23.050	-22.645	-29.4	8.54	-0.067588	-0.171776	0.987956	-3.0345	0.3045	-0.666	0	186	1004	1
2026-02-12	15:29:23.070	-13.615	-31.57	6.965	-0.058804	-0.09272	1.008696	-3.0405	0.3075	-0.666	0	186	1004	1
2026-02-12	15:29:23.090	-14.805	-31.92	5.915	-0.050752	-0.073444	1.124596	-3.033	0.294	-0.6705	0	186	1004	1
2026-02-12	15:29:23.110	-15.47	-29.925	5.95	-0.022448	-0.049044	1.1468	-3.048	0.3	-0.6825	0	186	1004	1
2026-02-12	15:29:23.130	-17.57	-26.74	7.63	-0.004392	-0.045872	1.086776	-3.042	0.318	-0.681	0	186	1004	1
2026-02-12	15:29:23.150	-15.015	-22.015	9.765	-0.000732	-0.050264	1.04676	-3.0495	0.2955	-0.678	0	186	1004	1
2026-02-12	15:29:23.170	-11.725	-16.31	11.585	-0.008784	-0.065148	1.010404	-3.048	0.294	-0.6765	0	186	1004	1
2026-02-12	15:29:23.190	-9.975	-10.885	12.635	0.005612	-0.083936	0.995764	-3.054	0.3045	-0.687	0	186	1004	1
2026-02-12	15:29:23.210	-11.165	-5.775	13.72	0.028792	-0.110532	0.984296	-3.0435	0.3135	-0.669	0	166	1010	1
2026-02-12	15:29:23.230	-12.18	-1.75	15.015	0.041968	-0.164944	0.982832	-3.063	0.24	-0.678	0	166	1010	1
2026-02-12	15:29:23.250	-7.525	2.135	15.54	0.033916	-0.196908	0.985272	-3.0495	0.321	-0.6675	0	166	1010	1
2026-02-12	15:29:23.270	-2.66	4.795	14.875	0.019764	-0.195688	1.007232	-3.0615	0.3255	-0.711	0	166	1010	1
2026-02-12	15:29:23.290	0.28	6.405	12.6	-0.045628	-0.19642	1.006744	-3.048	0.327	-0.708	0	166	1010	1
2026-02-12	15:29:23.310	2.275	6.3	8.295	-0.116388	-0.1708	0.957944	-3.0585	0.3195	-0.699	0	166	1010	1
2026-02-12	15:29:23.330	6.475	7.35	1.715	-0.004636	-0.179096	0.939888	-3.042	0.3075	-0.6765	0	166	1010	1
2026-02-12	15:29:23.350	4.025	8.26	-2.17	0.06466	-0.186904	1.016504	-3.042	0.3075	-0.6765	0	166	1010	1
2026-02-12	15:29:23.370	-0.455	8.89	1.54	0.035868	-0.17324	1.038952	-3.042	0.3075	-0.6765	0	166	1010	1
2026-02-12	15:29:23.390	4.34	8.995	2.555	-0.012688	-0.217892	0.979904	-3.0285	0.3165	-0.6705	0	166	1010	1
2026-02-12	15:29:23.410	2.485	5.215	3.395	-0.063684	-0.115168	1.014064	-3.018	0.33	-0.6645	0	151	1015	1
2026-02-12	15:29:23.430	2.905	2.87	-0.105	-0.094428	-0.132248	1.010648	-3.0195	0.339	-0.6615	0	151	1015	1
2026-02-12	15:29:23.450	3.78	0.49	-4.515	-0.073932	-0.136152	0.990396	-3.018	0.339	-0.657	0	151	1015	1
2026-02-12	15:29:23.470	4.34	-2.45	-6.93	-0.026352	-0.140056	1.004548	-3.0195	0.333	-0.6555	0	151	1015	1
2026-02-12	15:29:23.490	5.32	-3.115	-5.495	-0.006344	-0.129076	1.003572	-3.0165	0.3315	-0.6585	0	151	1015	1
2026-02-12	15:29:23.510	3.85	-2.695	-1.575	-0.004392	-0.122976	0.994788	-3.0135	0.3405	-0.6585	0	151	1015	1
2026-02-12	15:29:23.530	2.975	-1.225	2.66	-0.02196	-0.12566	0.98698	-3.015	0.3435	-0.6585	0	151	1015	1
2026-02-12	15:29:23.550	3.815	-0.105	5.53	-0.048312	-0.124196	0.985272	-3.0165	0.336	-0.6675	0	151	1015	1
2026-02-12	15:29:23.570	5.6	0.7	5.95	-0.062464	-0.120292	0.979904	-3.0195	0.336	-0.666	0	151	1015	1
2026-02-12	15:29:23.590	9.485	1.12	4.76	-0.077592	-0.107116	0.934276	-3.018	0.3435	-0.6555	0	151	1015	1
2026-02-12	15:29:23.610	1.505	-1.47	3.255	-0.027328	-0.153964	1.028948	-3.015	0.339	-0.657	0	141	1018	1
2026-02-12	15:29:23.630	8.015	2.205	4.2	-0.014152	-0.09882	0.959164	-3.015	0.3315	-0.657	0	141	1018	1
2026-02-12	15:29:23.650	-2.59	-0.07	5.46	-0.027328	-0.167872	1.012112	-3.009	0.3375	-0.657	0	141	1018	1
2026-02-12	15:29:23.670	4.095	2.38	5.11	-0.036356	-0.129076	1.024312	-3.009	0.3375	-0.666	0	141	1018	1
2026-02-12	15:29:23.690	-0.56	0.07	3.955	-0.02318	-0.137372	1.011868	-3.0105	0.336	-0.66	0	141	1018	1
2026-02-12	15:29:23.710	0.945	-0.805	3.15	-0.013908	-0.12932	0.972584	-3.0165	0.3315	-0.6615	0	141	1018	1
2026-02-12	15:29:23.730	0.385	-2.94	2.765	-0.0183	-0.13054	0.980636	-3.0225	0.3255	-0.663	0	141	1018	1
2026-02-12	15:29:23.750	0.455	-4.13	2.38	-0.023424	-0.14274	0.996984	-3.021	0.3255	-0.657	0	141	1018	1
2026-02-12	15:29:23.770	1.54	-3.675	1.715	-0.025376	-0.14884	0.987956	-3.0165	0.3375	-0.6555	0	141	1018	1
2026-02-12	15:29:23.790	1.225	-3.325	1.015	-0.028792	-0.147132	1.003816	-3.015	0.3405	-0.657	0	141	1018	1
2026-02-12	15:29:23.810	2.625	-1.61	0.175	-0.026108	-0.135176	1.004548	-3.012	0.3345	-0.663	0	131	1018	1
2026-02-12	15:29:23.830	2.1	-0.525	-0.49	-0.021228	-0.132492	1.017236	-3.015	0.3345	-0.6645	0	131	1018	1
2026-02-12	15:29:23.850	2.345	1.085	-0.91	-0.027816	-0.129808	1.013576	-3.018	0.3285	-0.6645	0	131	1018	1
2026-02-12	15:29:23.870	2.52	1.89	-1.015	-0.028304	-0.122	1.00528	-3.0165	0.3255	-0.663	0	131	1018	1
2026-02-12	15:29:23.890	2.38	1.785	-1.19	-0.029768	-0.117608	1.004792	-3.0225	0.3285	-0.6615	0	131	1018	1
2026-02-12	15:29:23.910	2.345	1.19	-1.33	-0.027816	-0.119316	1.000644	-3.0225	0.3285	-0.6615	0	131	1018	1
2026-02-12	15:29:23.930	2.205	0.35	-1.47	-0.03294	-0.119804	0.99674	-3.027	0.327	-0.66	0	131	1018	1
2026-02-12	15:29:23.950	2.03	-0.07	-1.575	-0.033672	-0.121268	0.992348	-3.027	0.327	-0.66	0	131	1018	1
2026-02-12	15:29:23.970	1.365	-0.56	-1.89	-0.0366	-0.12932	0.99918	-3.0405	0.264	-0.6705	0	131	1018	1
2026-02-12	15:29:23.990	1.085	-0.7	-2.24	-0.03538	-0.14152	1.00284	-3.0135	0.327	-0.663	0	131	1018	1
2026-02-12	15:29:24.010	1.33	-0.7	-2.555	-0.03538	-0.13664	1.007476	-3.024	0.336	-0.663	0	122	1018	1
2026-02-12	15:29:24.030	0.98	-0.35	-2.555	-0.032452	-0.127856	0.992348	-3.0165	0.339	-0.663	0	122	1018	1
2026-02-12	15:29:24.050	0.14	-0.385	-2.415	-0.035624	-0.1342	0.993324	-3.0135	0.333	-0.6675	0	122	1018	1
2026-02-12	15:29:24.070	0.42	0.035	-2.38	-0.034648	-0.13298	1.000644	-3.0165	0.309	-0.678	0	122	1018	1
2026-02-12	15:29:24.090	0.21	0.315	-2.45	-0.03538	-0.130296	1.005524	-3.021	0.33	-0.6885	0	122	1018	1
2026-02-12	15:29:24.110	0.875	1.19	-2.38	-0.035136	-0.124684	0.992104	-3.024	0.345	-0.687	0	122	1018	1
2026-02-12	15:29:24.130	0.875	0.735	-2.345	-0.038064	-0.132736	1.003084	-3.0255	0.336	-0.672	0	122	1018	1
2026-02-12	15:29:24.150	2.135	1.05	-2.555	-0.03416	-0.134932	1.004792	-3.015	0.3255	-0.678	0	122	1018	1
2026-02-12	15:29:24.170	2.695	1.26	-2.59	-0.027816	-0.130296	0.998936	-3.027	0.3195	-0.6675	0	122	1018	1
2026-02-12	15:29:24.190	3.43	1.295	-2.275	-0.029036	-0.129564	1.002108	-3.0135	0.3345	-0.666	0	122	1018	1
2026-02-12	15:29:24.210	4.515	1.155	-2.1	-0.032208	-0.120536	0.995764	-3.015	0.324	-0.6705	0	111	1019	1
2026-02-12	15:29:24.230	4.865	0.14	-2.275	-0.052704	-0.11102	0.95648	-3.015	0.3315	-0.66	0	111	1019	1
2026-02-12	15:29:24.250	5.04	0	-2.87	-0.034648	-0.10492	1.0004	-3.021	0.324	-0.663	0	111	1019	1
2026-02-12	15:29:24.270	4.48	-0.14	-3.255	-0.033184	-0.10614	1.014064	-3.0135	0.3075	-0.666	0	111	1019	1
2026-02-12	15:29:24.290	2.73	0.105	-3.36	-0.022448	-0.102968	1.045296	-3.027	0.291	-0.681	0	111	1019	1
2026-02-12	15:29:24.310	0	1.155	-2.765	-0.02806	-0.106872	1.041636	-3.0105	0.333	-0.66	0	111	1019	1
2026-02-12	15:29:24.330	-0.385	3.465	-2.065	-0.055388	-0.115412	0.987712	-3.015	0.3315	-0.663	0	111	1019	1
2026-02-12	15:29:24.350	3.115	8.19	-1.785	-0.05734	-0.095648	0.948184	-3.0225	0.336	-0.6915	0	111	1019	1
2026-02-12	15:29:24.370	3.675	12.32	-1.505	-0.058316	-0.116876	0.985028	-3.027	0.315	-0.6885	0	111	1019	1
2026-02-12	15:29:24.390	0.98	15.925	-1.715	-0.04758	-0.135908	1.002352	-3.0315	0.33	-0.69	0	111	1019	1
2026-02-12	15:29:24.410	-1.855	16.695	-1.925	-0.035868	-0.1586	0.984784	-3.0225	0.3405	-0.693	0	101	1020	1
2026-02-12	15:29:24.430	-2.66	14.14	-1.75	-0.045872	-0.162504	0.993568	-3.012	0.333	-0.672	0	101	1020	1
2026-02-12	15:29:24.450	-0.875	9.835	-1.925	-0.066856	-0.157136	1.00894	-3.021	0.327	-0.678	0	101	1020	1
2026-02-12	15:29:24.470	1.19	5.355	-3.01	-0.08174	-0.127368	1.002108	-3.015	0.3195	-0.651	0	101	1020	1
2026-02-12	15:29:24.490	1.085	1.4	-4.62	-0.088816	-0.099552	0.994544	-3.0105	0.3285	-0.6585	0	101	1020	1
2026-02-12	15:29:24.510	-0.245	-0.49	-5.425	-0.082228	-0.100528	0.992836	-3.0045	0.3285	-0.6585	0	101	1020	1
2026-02-12	15:29:24.530	-1.68	-0.595	-4.935	-0.0854	-0.103212	0.995276	-3.009	0.324	-0.6585	0	101	1020	1
2026-02-12	15:29:24.550	-2.8	-0.21	-4.025	-0.088816	-0.118584	1.002596	-3.009	0.3285	-0.648	0	101	1020	1
2026-02-12	15:29:24.570	-2.38	0.14	-3.045	-0.09467199	-0.122244	1.005768	-3.003	0.327	-0.6615	0	101	1020	1
2026-02-12	15:29:24.590	-2.485	-0.385	-2.31	-0.092476	-0.121512	1.00772	-3.003	0.33	-0.6555	0	101	1020	1
2026-02-12	15:29:24.610	-2.87	-1.015	-1.54	-0.092964	-0.12566	1.004304	-3.0135	0.342	-0.6705	0	91	1020	1
2026-02-12	15:29:24.630	-2.975	-1.54	-0.21	-0.0915	-0.121512	0.998692	-3.021	0.339	-0.675	0	91	1020	1
2026-02-12	15:29:24.650	-2.415	-1.295	1.435	-0.090524	-0.112728	0.993324	-3.0135	0.357	-0.69	0	91	1020	1
2026-02-12	15:29:24.670	-2.555	-0.665	3.36	-0.086376	-0.11468	0.998692	-3.0165	0.342	-0.6555	0	91	1020	1
2026-02-12	15:29:24.690	-1.96	0.175	5.495	-0.077592	-0.119804	1.00406	-3.0075	0.3285	-0.66	0	91	1020	1
2026-02-12	15:29:24.710	-0.315	0.735	7.49	-0.077836	-0.128344	1.012112	-3.0105	0.3525	-0.6675	0	91	1020	1
2026-02-12	15:29:24.730	0.91	0.735	9.065	-0.077104	-0.12932	1.01748	-3.0105	0.3525	-0.6675	0	91	1020	1
2026-02-12	15:29:24.750	2.135	0.385	9.73	-0.082228	-0.131028	1.014552	-3.009	0.3315	-0.666	0	91	1020	1
2026-02-12	15:29:24.770	3.045	-0.315	9.73	-0.07808	-0.13786	1.00772	-3.0075	0.309	-0.6585	0	91	1020	1
2026-02-12	15:29:24.790	4.585	-1.575	9.345	-0.070516	-0.139812	1.00772	-3.012	0.3165	-0.663	0	91	1020	1
2026-02-12	15:29:24.810	6.58	-2.8	8.54	-0.071736	-0.140544	1.004304	-3.015	0.3165	-0.6555	0	82	1021	1
2026-02-12	15:29:24.830	8.12	-3.885	7.245	-0.07076	-0.131516	1.002352	-3.015	0.291	-0.648	0	82	1021	1
2026-02-12	15:29:24.850	8.575	-4.62	5.46	-0.06832	-0.137372	1.005768	-3.009	0.2955	-0.654	0	82	1021	1
2026-02-12	15:29:24.870	10.01	-4.69	3.675	-0.061244	-0.140056	1.002108	-3.003	0.3165	-0.651	0	82	1021	1
2026-02-12	15:29:24.890	10.955	-4.655	2.065	-0.055876	-0.132492	1.0126	-3.003	0.336	-0.6555	0	82	1021	1
2026-02-12	15:29:24.910	11.725	-3.78	0.7	-0.04758	-0.119316	1.001376	-3.0015	0.3405	-0.6615	0	82	1021	1
2026-02-12	15:29:24.930	11.165	-3.29	-0.595	-0.044408	-0.111996	0.996008	-3.0075	0.333	-0.6615	0	82	1021	1
2026-02-12	15:29:24.950	10.955	-2.66	-1.68	-0.043676	-0.106872	0.989908	-3.0135	0.3405	-0.663	0	82	1021	1
2026-02-12	15:29:24.970	10.535	-2.205	-2.8	-0.04758	-0.102724	0.99796	-3.009	0.318	-0.66	0	82	1021	1
2026-02-12	15:29:24.990	9.8	-1.785	-3.92	-0.05368	-0.10126	0.998204	-3.009	0.3105	-0.651	0	82	1021	1
2026-02-12	15:29:25.010	9.52	-1.4	-4.55	-0.058072	-0.100528	0.996984	-3.009	0.3105	-0.651	0	73	1022	1
2026-02-12	15:29:25.030	8.365	-0.91	-5.81	-0.058072	-0.099064	1.0004	-3.0015	0.3315	-0.66	0	73	1022	1
2026-02-12	15:29:25.050	7.735	0.07	-6.895	-0.060756	-0.092476	0.994544	-3.003	0.327	-0.66	0	73	1022	1
2026-02-12	15:29:25.070	5.81	0.665	-7.56	-0.056852	-0.097844	0.99918	-3.0045	0.327	-0.66	0	73	1022	1
2026-02-12	15:29:25.090	5.04	1.82	-7.805	-0.061976	-0.095404	0.998448	-3	0.3285	-0.6525	0	73	1022	1
2026-02-12	15:29:25.110	3.5	2.695	-7.98	-0.060512	-0.096624	0.993568	-3.0015	0.351	-0.651	0	73	1022	1
2026-02-12	15:29:25.130	2.065	3.36	-8.05	-0.06734399	-0.10492	0.995276	-3.0015	0.3255	-0.6645	0	73	1022	1
2026-02-12	15:29:25.150	2.135	3.99	-8.19	-0.071004	-0.107116	0.992836	-3	0.3285	-0.654	0	73	1022	1
2026-02-12	15:29:25.170	1.61	4.2	-8.295	-0.068564	-0.11102	0.99674	-3.003	0.3255	-0.657	0	73	1022	1
2026-02-12	15:29:25.190	1.61	4.55	-8.26	-0.069052	-0.118096	0.999668	-3.021	0.309	-0.6525	0	73	1022	1
2026-02-12	15:29:25.210	1.4	4.2	-7.84	-0.074664	-0.116388	0.998936	-3.021	0.309	-0.6525	0	66	1023	1
2026-02-12	15:29:25.230	1.4	3.885	-7.525	-0.073688	-0.121268	1.000644	-3.021	0.309	-0.6525	0	66	1023	1
2026-02-12	15:29:25.250	1.75	3.15	-7.175	-0.07515199	-0.118828	1.006988	-2.994	0.348	-0.6555	0	66	1023	1
2026-02-12	15:29:25.270	2.8	2.31	-7.14	-0.079788	-0.112728	1.003084	-3.003	0.336	-0.6645	0	66	1023	1
2026-02-12	15:29:25.290	3.22	1.155	-7.21	-0.0793	-0.114436	1.009428	-3.003	0.3225	-0.663	0	66	1023	1
2026-02-12	15:29:25.310	3.85	0.49	-6.965	-0.077104	-0.103944	1.013576	-2.994	0.348	-0.6585	0	66	1023	1
2026-02-12	15:29:25.330	4.9	0.21	-6.23	-0.074664	-0.0915	1.012112	-3.006	0.333	-0.66	0	66	1023	1
2026-02-12	15:29:25.350	5.355	-0.105	-5.25	-0.077348	-0.095404	1.013576	-3.0075	0.3555	-0.6585	0	66	1023	1
2026-02-12	15:29:25.370	6.65	-0.175	-4.13	-0.076128	-0.094428	1.009916	-3.003	0.33	-0.66	0	66	1023	1
2026-02-12	15:29:25.390	7.91	-0.42	-2.975	-0.081496	-0.084424	1.009672	-2.9955	0.3195	-0.6525	0	66	1023	1
2026-02-12	15:29:25.410	8.855	-0.875	-1.89	-0.077348	-0.085156	1.01016	-3.006	0.3105	-0.6405	0	59	1023	1
2026-02-12	15:29:25.430	9.975	-1.575	-0.455	-0.079788	-0.088816	1.016016	-3	0.318	-0.6435	0	59	1023	1
2026-02-12	15:29:25.450	11.515	-2.38	1.26	-0.081252	-0.090524	1.013576	-3	0.321	-0.651	0	59	1023	1
2026-02-12	15:29:25.470	12.81	-3.255	3.15	-0.082228	-0.086376	1.014796	-2.997	0.2895	-0.633	0	59	1023	1
2026-02-12	15:29:25.490	13.16	-4.27	4.9	-0.084668	-0.08052	1.01626	-3.003	0.297	-0.6375	0	59	1023	1
2026-02-12	15:29:25.510	13.755	-5.46	6.405	-0.083692	-0.06832	1.013088	-3.0015	0.3135	-0.6645	0	59	1023	1
2026-02-12	15:29:25.530	13.195	-6.72	7.315	-0.085156	-0.06222	1.017236	-3.0045	0.2985	-0.6705	0	59	1023	1
2026-02-12	15:29:25.550	12.67	-7.385	7.63	-0.081496	-0.057584	1.011136	-3.03	0.276	-0.6705	0	59	1023	1
2026-02-12	15:29:25.570	11.305	-7.49	7.42	-0.072712	-0.04636	0.9943	-3.012	0.297	-0.663	0	59	1023	1
2026-02-12	15:29:25.590	9.8	-7.14	6.895	-0.066612	-0.038796	0.97234	-3.0045	0.3015	-0.672	0	59	1023	1
2026-02-12	15:29:25.610	8.47	-6.93	6.23	-0.049044	-0.035868	0.945256	-3.015	0.294	-0.654	0	54	1023	1
2026-02-12	15:29:25.630	6.23	-7	5.39	-0.035868	-0.031232	0.918416	-3.003	0.3045	-0.6495	0	54	1023	1
2026-02-12	15:29:25.650	2.66	-7.7	3.99	-0.033428	-0.047336	0.916464	-3.0105	0.315	-0.672	0	54	1023	1
2026-02-12	15:29:25.670	-0.91	-8.785	2.24	-0.027816	-0.088816	0.941352	-3.012	0.3195	-0.66	0	54	1023	1
2026-02-12	15:29:25.690	-3.01	-9.1	0.63	-0.024156	-0.114924	0.979172	-3.0075	0.315	-0.6615	0	54	1023	1
2026-02-12	15:29:25.710	-6.09	-8.89	-0.7	-0.019276	-0.132004	1.025288	-3.015	0.3165	-0.7005	0	54	1023	1
2026-02-12	15:29:25.730	-10.255	-8.015	-1.645	-0.008296	-0.12322	1.03578	-3.021	0.2985	-0.696	0	54	1023	1
2026-02-12	15:29:25.750	-15.33	-7.455	-1.995	0.009516	-0.116144	1.021872	-3.012	0.339	-0.7005	0	54	1023	1
2026-02-12	15:29:25.770	-17.57	-6.65	-1.96	0.009272	-0.109312	0.995764	-3.0045	0.318	-0.6765	0	54	1023	1
2026-02-12	15:29:25.790	-17.29	-6.09	-1.96	0.002684	-0.080032	0.996984	-3.0045	0.3345	-0.666	0	54	1023	1
2026-02-12	15:29:25.810	-16.765	-4.83	-2.275	-0.004636	-0.060512	1.008696	-3.015	0.318	-0.6765	0	50	1022	1
2026-02-12	15:29:25.830	-16.17	-2.94	-3.185	-0.013664	-0.044652	1.019188	-3.012	0.3135	-0.6645	0	50	1022	1
2026-02-12	15:29:25.850	-15.505	-0.665	-4.515	-0.00854	-0.03782	1.031876	-3.0045	0.342	-0.666	0	50	1022	1
2026-02-12	15:29:25.870	-13.965	2.24	-5.88	0.001708	-0.036112	1.042368	-3.015	0.333	-0.669	0	50	1022	1
2026-02-12	15:29:25.890	-12.635	5.46	-6.825	0.023912	-0.040748	1.051152	-3.0075	0.327	-0.678	0	50	1022	1
2026-02-12	15:29:25.910	-11.97	8.365	-6.895	0.038064	-0.053192	1.04676	-3.0105	0.33	-0.6645	0	50	1022	1
2026-02-12	15:29:25.930	-11.69	10.57	-6.545	0.04514	-0.087108	1.022116	-3.0135	0.3285	-0.66	0	50	1022	1
2026-02-12	15:29:25.950	-9.73	11.935	-6.195	0.0427	-0.116388	1.009672	-3.0135	0.3405	-0.6645	0	50	1022	1
2026-02-12	15:29:25.970	-8.61	11.97	-6.09	0.032696	-0.153232	1.016016	-3.0075	0.333	-0.669	0	50	1022	1
2026-02-12	15:29:25.990	-6.02	11.69	-6.615	0.011224	-0.16836	1.007232	-3.006	0.351	-0.66	0	50	1022	1
2026-02-12	15:29:26.010	-4.935	10.045	-7.665	-0.012932	-0.185196	1.01016	-3.003	0.36	-0.6435	0	48	1023	1
2026-02-12	15:29:26.030	-2.31	7.455	-9.52	-0.040504	-0.188856	1.010892	-3.003	0.36	-0.6435	0	48	1023	1
2026-02-12	15:29:26.050	-0.385	3.465	-11.69	-0.058804	-0.190808	1.025532	-3.0075	0.345	-0.669	0	48	1023	1
2026-02-12	15:29:26.070	1.155	1.225	-12.81	-0.0671	-0.191784	1.02358	-3.0075	0.345	-0.669	0	48	1023	1
2026-02-12	15:29:26.090	4.515	-3.43	-14.805	-0.074176	-0.156648	1.031144	-3.0015	0.3615	-0.6495	0	48	1023	1
2026-02-12	15:29:26.110	7.595	-8.05	-16.135	-0.06734399	-0.09394	1.036024	-3.0045	0.366	-0.6585	0	48	1023	1
2026-02-12	15:29:26.130	7.875	-12.495	-16.31	-0.046604	-0.066612	1.049688	-3.006	0.357	-0.6525	0	48	1023	1
2026-02-12	15:29:26.150	9.66	-16.485	-14.735	-0.0305	-0.073444	1.03212	-3.003	0.348	-0.6675	0	48	1023	1
2026-02-12	15:29:26.170	14.42	-19.53	-12.18	-0.016104	-0.07198	1.021384	-3.006	0.348	-0.66	0	48	1023	1
2026-02-12	15:29:26.190	18.935	-22.12	-9.52	-0.007076	-0.0671	1.036512	-3.018	0.3255	-0.6525	0	48	1023	1
2026-02-12	15:29:26.210	20.65	-24.29	-7.315	0.003416	-0.077836	1.039196	-3.0165	0.3555	-0.6645	0	48	1027	1
2026-02-12	15:29:26.230	19.565	-26.53	-5.845	0.008052	-0.092476	1.027972	-3.021	0.3645	-0.6615	0	48	1027	1
2026-02-12	15:29:26.250	17.5	-28.455	-5.74	0.00366	-0.132004	1.040416	-3.0285	0.3405	-0.6675	0	48	1027	1
2026-02-12	15:29:26.270	18.27	-28.98	-6.79	-0.003172	-0.15128	1.033828	-3.027	0.321	-0.6735	0	48	1027	1
2026-02-12	15:29:26.290	19.46	-28.175	-8.785	0.006588	-0.131272	1.026752	-3.027	0.36	-0.6705	0	48	1027	1
2026-02-12	15:29:26.310	20.72	-26.075	-11.06	0.017568	-0.083448	0.996008	-3.03	0.3405	-0.669	0	48	1027	1
2026-02-12	15:29:26.330	19.18	-24.185	-13.16	0.035624	-0.059536	0.9638	-3.033	0.3465	-0.6855	0	48	1027	1
2026-02-12	15:29:26.350	20.405	-20.86	-14.77	0.040992	-0.07442	0.903044	-3.045	0.336	-0.678	0	48	1027	1
2026-02-12	15:29:26.370	24.815	-18.865	-16.415	0.06466	-0.07198	0.934032	-3.051	0.3315	-0.675	0	48	1027	1
2026-02-12	15:29:26.390	29.26	-16.24	-18.375	0.08295999	-0.074908	0.968924	-3.0495	0.324	-0.684	0	48	1027	1
2026-02-12	15:29:26.410	29.435	-13.37	-19.67	0.088328	-0.086376	0.983808	-3.0555	0.327	-0.678	0	50	1030	1
2026-02-12	15:29:26.430	28.49	-9.59	-20.23	0.09272	-0.094428	0.999912	-3.0615	0.321	-0.684	0	50	1030	1
2026-02-12	15:29:26.450	26.495	-4.375	-19.775	0.097844	-0.082716	1.020896	-3.06	0.321	-0.6975	0	50	1030	1
2026-02-12	15:29:26.470	24.29	2.1	-18.2	0.105896	-0.050508	1.023336	-3.057	0.294	-0.6735	0	50	1030	1
2026-02-12	15:29:26.490	23.1	8.47	-15.96	0.109068	0.009028	0.98942	-3.0495	0.3165	-0.687	0	50	1030	1
2026-02-12	15:29:26.510	21.07	12.635	-13.37	0.112728	0.083448	0.979172	-3.048	0.3255	-0.6825	0	50	1030	1
2026-02-12	15:29:26.530	18.235	15.435	-10.22	0.091256	0.122976	0.97966	-3.0495	0.321	-0.6915	0	50	1030	1
2026-02-12	15:29:26.550	14.63	17.01	-8.19	0.081984	0.096136	0.988688	-3.042	0.324	-0.681	0	50	1030	1
2026-02-12	15:29:26.570	15.225	17.885	-7.21	0.095404	0.072468	1.001864	-3.048	0.3015	-0.6885	0	50	1030	1
2026-02-12	15:29:26.590	16.03	17.815	-7.035	0.103212	0.062464	1.002596	-3.0375	0.306	-0.687	0	50	1030	1
2026-02-12	15:29:26.610	15.645	16.485	-8.19	0.087108	0.061488	0.978196	-3.0375	0.297	-0.675	0	52	1029	1
2026-02-12	15:29:26.630	11.55	12.88	-11.2	0.080032	0.040504	0.956236	-3.0465	0.3195	-0.687	0	52	1029	1
2026-02-12	15:29:26.650	8.225	9.625	-15.575	0.078812	0.023668	0.9455	-3.0375	0.3195	-0.6705	0	52	1029	1
2026-02-12	15:29:26.670	5.565	6.825	-20.125	0.07076	-0.00122	0.939644	-3.033	0.327	-0.678	0	52	1029	1
2026-02-12	15:29:26.690	3.15	5.53	-23.835	0.06832	0.000976	0.962092	-3.039	0.3015	-0.693	0	52	1029	1
2026-02-12	15:29:26.710	0.175	6.37	-26.25	0.070028	0.013908	0.970144	-3.036	0.285	-0.6735	0	52	1029	1
2026-02-12	15:29:26.730	-6.37	6.72	-27.405	0.061488	0.02562	1.009184	-3.0345	0.3	-0.678	0	52	1029	1
2026-02-12	15:29:26.750	-11.025	8.68	-27.51	0.048556	0.049776	0.992348	-3.0405	0.321	-0.6645	0	52	1029	1
2026-02-12	15:29:26.770	-16.765	7.91	-26.985	0.024156	0.086132	1.017236	-3.0345	0.3195	-0.687	0	52	1029	1
2026-02-12	15:29:26.790	-20.02	8.155	-26.39	-0.003904	0.121512	1.009672	-3.0375	0.3285	-0.7095	0	52	1029	1
2026-02-12	15:29:26.810	-25.27	6.65	-25.27	-0.014884	0.088816	1.030412	-3.0345	0.3015	-0.7005	0	57	1024	1
2026-02-12	15:29:26.830	-26.565	5.81	-23.625	-0.032696	0.067588	1.030656	-3.0345	0.3165	-0.7035	0	57	1024	1
2026-02-12	15:29:26.850	-26.74	4.69	-21.56	-0.036356	0.050508	1.035048	-3.0375	0.3495	-0.684	0	57	1024	1
2026-02-12	15:29:26.870	-27.23	2.66	-18.795	-0.0366	0.033672	1.03456	-3.036	0.3525	-0.6825	0	57	1024	1
2026-02-12	15:29:26.890	-27.755	-0.105	-15.995	-0.051972	-0.0122	1.015772	-3.033	0.348	-0.6945	0	57	1024	1
2026-02-12	15:29:26.910	-26.145	-2.52	-13.545	-0.071004	-0.057828	0.993324	-3.042	0.3285	-0.6735	0	57	1024	1
2026-02-12	15:29:26.930	-23.065	-4.375	-10.99	-0.071004	-0.082716	0.995032	-3.0405	0.3285	-0.6825	0	57	1024	1
2026-02-12	15:29:26.950	-17.71	-4.655	-8.225	-0.07808	-0.089792	0.9821	-3.042	0.324	-0.675	0	57	1024	1
2026-02-12	15:29:26.970	-12.425	-4.69	-5.565	-0.086376	-0.08686399	0.976732	-3.054	0.318	-0.687	0	57	1024	1
2026-02-12	15:29:26.990	-6.335	-3.465	-3.605	-0.109068	-0.084668	0.9638	-3.0615	0.291	-0.681	0	57	1024	1
2026-02-12	15:29:27.010	-2.03	-2.135	-2.45	-0.123952	-0.059292	0.992836	-3.0615	0.3195	-0.684	0	62	1023	1
2026-02-12	15:29:27.030	-3.885	-0.525	-1.925	-0.1403	-0.049532	1.079944	-3.0555	0.3165	-0.678	0	62	1023	1
2026-02-12	15:29:27.050	-6.055	2.59	-1.785	-0.143472	-0.067588	1.126304	-3.057	0.318	-0.684	0	62	1023	1
2026-02-12	15:29:27.070	-9.87	6.615	-0.77	-0.1342	-0.08418	1.151924	-3.072	0.321	-0.7065	0	62	1023	1
2026-02-12	15:29:27.090	-10.64	10.885	2.03	-0.114436	-0.057584	1.135332	-3.072	0.321	-0.7065	0	62	1023	1
2026-02-12	15:29:27.110	-9.485	14.105	6.335	-0.102724	-0.006588	1.07726	-3.075	0.306	-0.705	0	62	1023	1
2026-02-12	15:29:27.130	-7.84	15.05	10.15	-0.088328	0.04514	1.038708	-3.0795	0.291	-0.7035	0	62	1023	1
2026-02-12	15:29:27.150	-8.05	15.435	14	-0.084424	0.074176	0.985272	-3.0645	0.2985	-0.693	0	62	1023	1
2026-02-12	15:29:27.170	-7.84	14.07	19.355	-0.083936	0.077348	0.95282	-3.0495	0.312	-0.6795	0	62	1023	1
2026-02-12	15:29:27.190	-6.37	11.83	23.835	-0.083692	0.050752	0.968192	-3.051	0.3165	-0.6765	0	62	1023	1
2026-02-12	15:29:27.210	-3.64	9.45	26.565	-0.083692	0.030256	0.996252	-3.048	0.2985	-0.6765	0	67	1027	1
2026-02-12	15:29:27.230	0.315	7.49	26.915	-0.082716	0.02928	1.012112	-3.0465	0.291	-0.672	0	67	1027	1
2026-02-12	15:29:27.250	1.61	4.795	25.445	-0.077104	0.01708	1.022604	-3.045	0.3045	-0.672	0	67	1027	1
2026-02-12	15:29:27.270	1.75	2.065	22.68	-0.074176	0.007808	1.042856	-3.0375	0.3045	-0.6735	0	67	1027	1
2026-02-12	15:29:27.290	1.785	-0.945	18.935	-0.06734399	0.027816	1.029924	-3.0375	0.309	-0.6675	0	67	1027	1
2026-02-12	15:29:27.310	-0.7	-4.585	14.595	-0.055876	0.016104	1.033096	-3.033	0.318	-0.666	0	67	1027	1
2026-02-12	15:29:27.330	-2.59	-7.35	10.36	-0.049776	-0.000976	1.02358	-3.03	0.3135	-0.6675	0	67	1027	1
2026-02-12	15:29:27.350	-2.555	-9.275	6.475	-0.045384	0.004392	1.007232	-3.0345	0.303	-0.6675	0	67	1027	1
2026-02-12	15:29:27.370	-1.96	-10.22	3.08	-0.044164	0.030012	0.995764	-3.036	0.3	-0.672	0	67	1027	1
2026-02-12	15:29:27.390	-1.225	-10.045	0.525	-0.038308	0.037576	0.972828	-3.036	0.3	-0.672	0	67	1027	1
2026-02-12	15:29:27.410	0.665	-8.68	-1.015	-0.042944	0.057584	0.95526	-3.036	0.3	-0.672	0	72	1032	1
2026-02-12	15:29:27.430	3.29	-6.405	-1.995	-0.0488	0.082716	0.96746	-3.036	0.3	-0.672	0	72	1032	1
2026-02-12	15:29:27.450	4.655	-4.375	-2.555	-0.058072	0.073932	1.011624	-3.045	0.312	-0.6675	0	72	1032	1
2026-02-12	15:29:27.470	7.105	-2.135	-3.36	-0.076616	0.040016	1.038464	-3.051	0.2955	-0.6795	0	72	1032	1
2026-02-12	15:29:27.490	10.15	-1.47	-5.075	-0.093452	0.013908	1.057496	-3.0285	0.3285	-0.6615	0	72	1032	1
2026-02-12	15:29:27.510	15.12	-2.52	-8.085	-0.103944	0.016592	1.070184	-3.0315	0.324	-0.6765	0	72	1032	1
2026-02-12	15:29:27.530	17.745	-4.34	-11.725	-0.11102	0.006832	1.075796	-3.051	0.2955	-0.6675	0	72	1032	1
2026-02-12	15:29:27.550	20.44	-5.915	-15.295	-0.109068	0.029524	1.066036	-3.057	0.2775	-0.675	0	72	1032	1
2026-02-12	15:29:27.570	21.315	-6.475	-18.025	-0.089304	0.067832	1.082384	-3.051	0.306	-0.6735	0	72	1032	1
2026-02-12	15:29:27.590	20.685	-5.845	-18.935	-0.053192	0.078812	1.108492	-3.048	0.3075	-0.678	0	72	1032	1
2026-02-12	15:29:27.610	18.9	-4.55	-17.885	-0.031476	0.049776	1.15656	-3.033	0.3435	-0.675	0	75	1037	1
2026-02-12	15:29:27.630	17.5	-3.185	-16.03	-0.02562	0.036112	1.175592	-3.021	0.366	-0.6735	0	75	1037	1
2026-02-12	15:29:27.650	14.14	-2.87	-14.945	-0.031232	-0.016836	1.169492	-3.027	0.3615	-0.669	0	75	1037	1
2026-02-12	15:29:27.670	9.835	-3.43	-14.595	-0.032452	-0.066124	1.179496	-3.0315	0.357	-0.678	0	75	1037	1
2026-02-12	15:29:27.690	6.23	-4.375	-14.42	-0.03904	-0.097356	1.108004	-3.03	0.345	-0.6615	0	75	1037	1
2026-02-12	15:29:27.710	8.12	-4.97	-14.665	-0.043432	-0.105896	0.997472	-3.03	0.3585	-0.678	0	75	1037	1
2026-02-12	15:29:27.730	10.99	-4.515	-16.065	-0.041724	-0.090524	0.904508	-3.0345	0.336	-0.669	0	75	1037	1
2026-02-12	15:29:27.750	13.3	-5.32	-17.64	-0.028304	-0.078324	0.863272	-3.036	0.3465	-0.675	0	75	1037	1
2026-02-12	15:29:27.770	16.38	-4.725	-18.515	0.00854	-0.114924	0.8601	-3.048	0.3315	-0.6705	0	75	1037	1
2026-02-12	15:29:27.790	21.805	-3.43	-18.13	0.047092	-0.135664	0.890844	-3.0525	0.33	-0.66	0	75	1037	1
2026-02-12	15:29:27.810	26.845	-1.785	-16.975	0.066856	-0.152256	0.936228	-3.0495	0.336	-0.6705	0	78	1045	1
2026-02-12	15:29:27.830	29.785	-0.49	-15.785	0.07515199	-0.155428	0.97112	-3.0405	0.3315	-0.678	0	78	1045	1
2026-02-12	15:29:27.850	29.855	-1.505	-15.26	0.087352	-0.138104	0.99308	-3.0315	0.3555	-0.6705	0	78	1045	1
2026-02-12	15:29:27.870	28.91	-3.29	-15.015	0.09028	-0.11102	1.001864	-3.036	0.3525	-0.6795	0	78	1045	1
2026-02-12	15:29:27.890	23.1	-6.72	-14.525	0.103944	-0.083448	1.041148	-3.0405	0.333	-0.678	0	78	1045	1
2026-02-12	15:29:27.910	17.745	-8.61	-13.265	0.106628	-0.085156	1.035292	-3.045	0.2925	-0.6825	0	78	1045	1
2026-02-12	15:29:27.930	12.46	-9.905	-11.515	0.103944	-0.080032	1.012112	-3.036	0.3255	-0.6855	0	78	1045	1
2026-02-12	15:29:27.950	8.26	-9.87	-9.135	0.087108	-0.022936	0.967704	-3.042	0.336	-0.6795	0	78	1045	1
2026-02-12	15:29:27.970	5.04	-9.485	-6.93	0.095892	0.041724	0.919392	-3.0495	0.3195	-0.678	0	78	1045	1
2026-02-12	15:29:27.990	4.235	-10.185	-5.67	0.09467199	0.119804	0.880352	-3.045	0.303	-0.684	0	78	1045	1
2026-02-12	15:29:28.010	0.14	-10.185	-6.055	0.083448	0.143472	0.885476	-3.042	0.3075	-0.681	0	82	1042	1
2026-02-12	15:29:28.030	-2.205	-7.805	-6.755	0.085888	0.11956	0.898652	-3.051	0.333	-0.681	0	82	1042	1
2026-02-12	15:29:28.050	-5.215	-3.5	-7	0.10004	0.137372	0.918904	-3.0495	0.324	-0.684	0	82	1042	1
2026-02-12	15:29:28.070	-8.05	1.75	-6.125	0.114192	0.111752	0.964288	-3.0435	0.3315	-0.6765	0	82	1042	1
2026-02-12	15:29:28.090	-9.275	4.9	-3.92	0.117608	0.128588	1.001864	-3.0495	0.3195	-0.6885	0	82	1042	1
2026-02-12	15:29:28.110	-12.285	7	-4.375	0.130296	0.089548	1.03578	-3.0285	0.315	-0.6855	0	82	1042	1
2026-02-12	15:29:28.130	-13.16	9.135	-4.865	0.094184	0.064904	1.042124	-3.0195	0.3045	-0.675	0	82	1042	1
2026-02-12	15:29:28.150	-15.61	9.1	-4.865	0.07076	0.054656	1.023092	-3.0195	0.3045	-0.675	0	82	1042	1
2026-02-12	15:29:28.170	-15.785	8.645	-6.09	0.058804	0.070516	0.989664	-3.015	0.3075	-0.672	0	82	1042	1
2026-02-12	15:29:28.190	-16.8	7.245	-7.28	0.061488	0.080032	0.974292	-3.0105	0.3105	-0.669	0	82	1042	1
2026-02-12	15:29:28.210	-15.365	6.86	-8.61	0.0549	0.099308	0.943304	-3.0105	0.3105	-0.669	0	87	1032	1
2026-02-12	15:29:28.230	-14.77	6.58	-8.575	0.072956	0.10248	0.941352	-3.0135	0.309	-0.6645	0	87	1032	1
2026-02-12	15:29:28.250	-12.845	7.14	-7.56	0.076372	0.113948	0.959164	-3.018	0.3225	-0.666	0	87	1032	1
2026-02-12	15:29:28.270	-9.66	8.295	-5.74	0.067832	0.113704	0.980636	-3.0165	0.3345	-0.669	0	87	1032	1
2026-02-12	15:29:28.290	-6.37	9.24	-4.025	0.056852	0.109312	1.002596	-3.0135	0.3285	-0.6705	0	87	1032	1
2026-02-12	15:29:28.310	-2.695	9.905	-2.52	0.046604	0.105164	1.010892	-3.015	0.324	-0.6765	0	87	1032	1
2026-02-12	15:29:28.330	-0.175	8.575	-1.68	0.04026	0.092476	1.027728	-3.0135	0.3285	-0.672	0	87	1032	1
2026-02-12	15:29:28.350	2.1	6.265	-1.575	0.022692	0.081252	1.048468	-3.009	0.3315	-0.666	0	87	1032	1
2026-02-12	15:29:28.370	1.68	3.5	-1.925	0.00854	0.055632	1.079456	-3.006	0.327	-0.6645	0	87	1032	1
2026-02-12	15:29:28.390	0.98	0.945	-2.87	-0.013664	0.026352	1.120448	-3.0045	0.324	-0.6645	0	87	1032	1
2026-02-12	15:29:28.410	1.47	-0.91	-4.655	-0.043432	0.0061	1.153876	-3.006	0.3315	-0.663	0	92	1026	1
2026-02-12	15:29:28.430	1.085	-2.03	-6.825	-0.066856	0.00976	1.182912	-3.0135	0.33	-0.6765	0	92	1026	1
2026-02-12	15:29:28.450	-1.68	-1.715	-8.12	-0.0671	0.00122	1.204872	-3.015	0.327	-0.69	0	92	1026	1
2026-02-12	15:29:28.470	-5.11	0.455	-6.685	-0.043432	-0.009028	1.220488	-3.018	0.33	-0.693	0	92	1026	1
2026-02-12	15:29:28.490	-8.995	3.71	-2.135	-0.020008	-0.056852	1.20536	-3.0195	0.3375	-0.6855	0	92	1026	1
2026-02-12	15:29:28.510	-9.8	6.895	3.745	-0.011712	-0.1159	1.1407	-3.0135	0.3465	-0.6795	0	92	1026	1
2026-02-12	15:29:28.530	-5.53	8.785	8.68	-0.002684	-0.139812	1.069208	-3.012	0.3495	-0.6825	0	92	1026	1
2026-02-12	15:29:28.550	0.735	8.82	11.445	-0.001708	-0.141276	0.99308	-3.0135	0.342	-0.69	0	92	1026	1
2026-02-12	15:29:28.570	4.935	6.405	12.95	-0.001708	-0.140788	0.914268	-3.0135	0.3375	-0.687	0	92	1026	1
2026-02-12	15:29:28.590	6.825	0.84	13.615	-0.019764	-0.146156	0.897676	-3.0105	0.339	-0.678	0	92	1026	1
2026-02-12	15:29:28.610	9.975	-4.725	13.86	-0.027084	-0.141276	0.938424	-3.015	0.3375	-0.684	0	96	1035	1
2026-02-12	15:29:28.630	11.06	-9.03	14.175	-0.040748	-0.126636	1.001132	-3.015	0.3405	-0.6855	0	96	1035	1
2026-02-12	15:29:28.650	10.325	-10.5	14.91	-0.058316	-0.0976	1.049444	-3.0135	0.339	-0.687	0	96	1035	1
2026-02-12	15:29:28.670	8.96	-10.78	15.26	-0.078324	-0.054412	1.056764	-3.009	0.327	-0.678	0	96	1035	1
2026-02-12	15:29:28.690	7.525	-10.535	14.245	-0.109556	-0.00732	1.037244	-3.006	0.3255	-0.672	0	96	1035	1
2026-02-12	15:29:28.710	6.16	-8.295	11.9	-0.121512	0.040992	0.987224	-3.0135	0.33	-0.687	0	96	1035	1
2026-02-12	15:29:28.730	4.55	-4.935	9.065	-0.12078	0.071004	0.94062	-3.0195	0.33	-0.6915	0	96	1035	1
2026-02-12	15:29:28.750	2.03	-0.875	6.72	-0.108824	0.072224	0.915488	-3.018	0.336	-0.69	0	96	1035	1
2026-02-12	15:29:28.770	-0.56	3.885	5.39	-0.078568	0.045628	0.914512	-3.018	0.336	-0.69	0	96	1035	1
2026-02-12	15:29:28.790	-1.47	8.015	5.215	-0.053192	0.020496	0.926468	-3.018	0.336	-0.69	0	96	1035	1
2026-02-12	15:29:28.810	-2.205	10.22	6.125	-0.0427	-0.003416	0.956968	-3.0105	0.33	-0.696	0	101	1040	1
2026-02-12	15:29:28.830	-2.065	11.9	7.49	-0.046848	-0.016592	0.964288	-3.012	0.303	-0.675	0	101	1040	1
2026-02-12	15:29:28.850	-2.1	11.2	8.575	-0.052704	-0.009516	0.966484	-3.006	0.327	-0.672	0	101	1040	1
2026-02-12	15:29:28.870	-2.45	9.59	9.065	-0.060024	0.009028	0.96746	-3.021	0.2895	-0.6765	0	101	1040	1
2026-02-12	15:29:28.890	-4.2	7.42	9.065	-0.063684	0.0244	0.97112	-3.003	0.3315	-0.6825	0	101	1040	1
2026-02-12	15:29:28.910	-6.09	5.18	8.82	-0.07076	0.03904	0.972584	-3.015	0.3285	-0.6915	0	101	1040	1
2026-02-12	15:29:28.930	-6.615	3.99	8.19	-0.071736	0.062464	0.971852	-3.0105	0.3225	-0.687	0	101	1040	1
2026-02-12	15:29:28.950	-7.525	2.415	7.175	-0.073444	0.081496	0.980148	-3.0135	0.303	-0.6705	0	101	1040	1
2026-02-12	15:29:28.970	-6.545	1.505	5.845	-0.071492	0.101504	0.966484	-3.006	0.303	-0.669	0	101	1040	1
2026-02-12	15:29:28.990	-6.37	-0.07	4.305	-0.082472	0.114436	0.970876	-3.006	0.2925	-0.657	0	101	1040	1
2026-02-12	15:29:29.010	-5.39	-1.19	2.695	-0.082228	0.117852	0.973316	-2.9985	0.3165	-0.6675	0	105	1036	1
2026-02-12	15:29:29.030	-3.01	-2.205	0.875	-0.086376	0.105408	0.983808	-2.9985	0.3135	-0.651	0	105	1036	1
2026-02-12	15:29:29.050	-0.77	-3.675	-1.015	-0.083204	0.082472	1.00406	-3	0.3225	-0.657	0	105	1036	1
2026-02-12	15:29:29.070	1.855	-4.97	-3.22	-0.088816	0.05246	1.019676	-2.997	0.306	-0.6585	0	105	1036	1
2026-02-12	15:29:29.090	3.675	-6.685	-5.845	-0.091256	0.01708	1.048712	-3.009	0.3105	-0.6705	0	105	1036	1
2026-02-12	15:29:29.110	8.015	-7.665	-8.75	-0.096136	-0.019276	1.053836	-3.0015	0.3225	-0.66	0	105	1036	1
2026-02-12	15:29:29.130	10.955	-8.645	-11.865	-0.10492	-0.02074	1.07604	-3	0.318	-0.6435	0	105	1036	1
2026-02-12	15:29:29.150	11.55	-9.835	-15.12	-0.088572	0.020984	1.110688	-2.9985	0.3225	-0.654	0	105	1036	1
2026-02-12	15:29:29.170	8.19	-11.97	-17.99	-0.077104	0.04026	1.155828	-3.0045	0.3165	-0.66	0	105	1036	1
2026-02-12	15:29:29.190	3.115	-14.595	-19.25	-0.052216	0.029036	1.211948	-3.0045	0.3075	-0.651	0	105	1036	1
2026-02-12	15:29:29.210	-1.715	-17.08	-18.69	-0.032208	-0.01464	1.253916	-3.0045	0.3075	-0.651	0	107	1033	1
2026-02-12	15:29:29.230	-5.635	-19.11	-17.325	-0.038796	-0.05734	1.235372	-3.0105	0.3105	-0.6525	0	107	1033	1
2026-02-12	15:29:29.250	-6.23	-19.775	-16.555	-0.044896	-0.097112	1.135332	-3.0165	0.3135	-0.654	0	107	1033	1
2026-02-12	15:29:29.270	-3.15	-18.83	-16.555	-0.059292	-0.086376	1.067744	-3.015	0.324	-0.66	0	107	1033	1
2026-02-12	15:29:29.290	3.605	-15.4	-18.13	-0.057828	-0.029036	0.956724	-3.0165	0.3345	-0.6585	0	107	1033	1
2026-02-12	15:29:29.310	0.875	-12.25	-20.37	-0.04148	-0.051972	0.858636	-3.024	0.33	-0.654	0	107	1033	1
2026-02-12	15:29:29.330	0.315	-8.68	-22.085	-0.012688	-0.088084	0.807884	-3.0315	0.3195	-0.6585	0	107	1033	1
2026-02-12	15:29:29.350	4.62	-3.64	-22.435	0.029524	-0.140056	0.813008	-3.033	0.3195	-0.6585	0	107	1033	1
2026-02-12	15:29:29.370	14.245	2.975	-21.21	0.081984	-0.143716	0.864248	-3.0315	0.33	-0.654	0	107	1033	1
2026-02-12	15:29:29.390	19.32	9.205	-17.885	0.125416	-0.12932	0.9699	-3.0255	0.3345	-0.6555	0	107	1033	1
2026-02-12	15:29:29.410	18.27	16.17	-12.635	0.142984	-0.121512	1.022848	-3.024	0.33	-0.6585	0	109	1038	1
2026-02-12	15:29:29.430	14.07	20.615	-7.455	0.12322	-0.106628	1.019676	-3.0255	0.3225	-0.6585	0	109	1038	1
2026-02-12	15:29:29.450	9.1	21.525	-4.27	0.087596	-0.081496	1.030412	-3.021	0.318	-0.66	0	109	1038	1
2026-02-12	15:29:29.470	4.48	19.81	-3.43	0.056364	-0.06588	1.047736	-3.0225	0.306	-0.654	0	109	1038	1
2026-02-12	15:29:29.490	0.175	16.485	-4.445	0.017568	-0.058316	1.032852	-3.0165	0.3075	-0.6555	0	109	1038	1
2026-02-12	15:29:29.510	-3.885	12.775	-6.685	-0.000244	-0.054168	1.01504	-3.0075	0.327	-0.66	0	109	1038	1
2026-02-12	15:29:29.530	-5.145	9.415	-9.205	0.000488	-0.039284	0.969656	-3.0105	0.33	-0.654	0	109	1038	1
2026-02-12	15:29:29.550	-5.81	6.055	-10.99	0.023912	-0.0122	0.938424	-3.009	0.321	-0.648	0	109	1038	1
2026-02-12	15:29:29.570	-6.195	3.85	-11.165	0.035136	0.026352	0.910608	-3.0045	0.3285	-0.6465	0	109	1038	1
2026-02-12	15:29:29.590	-5.985	2.765	-10.08	0.038064	0.060268	0.904996	-3.006	0.336	-0.648	0	109	1038	1
2026-02-12	15:29:29.610	-6.265	2.765	-8.33	0.033916	0.080764	0.921588	-3.0105	0.345	-0.666	0	111	1035	1
2026-02-12	15:29:29.630	-6.685	3.745	-6.755	0.03416	0.08174	0.95038	-3.012	0.345	-0.681	0	111	1035	1
2026-02-12	15:29:29.650	-7.63	5.11	-5.39	0.031232	0.083936	0.9699	-3.012	0.3405	-0.675	0	111	1035	1
2026-02-12	15:29:29.670	-9.59	5.635	-4.34	0.025132	0.081008	0.982832	-3.012	0.327	-0.6555	0	111	1035	1
2026-02-12	15:29:29.690	-11.305	5.11	-3.535	0.01342	0.077592	0.98454	-3.0075	0.315	-0.6495	0	111	1035	1
2026-02-12	15:29:29.710	-13.58	3.57	-3.08	-0.00244	0.08418	0.976	-3.0045	0.3195	-0.657	0	111	1035	1
2026-02-12	15:29:29.730	-15.54	2.17	-2.275	0.002684	0.08784	0.963068	-3.009	0.321	-0.6525	0	111	1035	1
2026-02-12	15:29:29.750	-17.115	0.525	-0.665	0	0.092964	0.962092	-3.0105	0.3315	-0.648	0	111	1035	1
2026-02-12	15:29:29.770	-17.465	-0.455	1.75	0.00854	0.1037	0.959652	-3.003	0.333	-0.645	0	111	1035	1
2026-02-12	15:29:29.790	-16.8	-1.155	4.655	0.012932	0.11102	0.965508	-3.006	0.3405	-0.6525	0	111	1035	1
2026-02-12	15:29:29.810	-15.61	-2.24	7.665	0.026352	0.10004	1.001132	-3.0045	0.36	-0.672	0	113	1028	1
2026-02-12	15:29:29.830	-12.39	-3.605	10.325	0.036112	0.070028	1.0553	-3.003	0.369	-0.6765	0	113	1028	1
2026-02-12	15:29:29.850	-5.11	-5.18	11.62	0.035136	0.040016	1.079456	-3.0045	0.3675	-0.669	0	113	1028	1
2026-02-12	15:29:29.870	0.42	-7.07	11.725	0.037088	-0.007808	1.10776	-3.0045	0.3525	-0.657	0	113	1028	1
2026-02-12	15:29:29.890	5.11	-8.61	10.885	0.030012	-0.04636	1.13094	-3.0045	0.3495	-0.6495	0	113	1028	1
2026-02-12	15:29:29.910	8.015	-9.87	8.785	0.017568	-0.095892	1.146556	-3	0.363	-0.648	0	113	1028	1
2026-02-12	15:29:29.930	9.695	-11.76	5.11	-0.002684	-0.131028	1.160464	-3.0045	0.369	-0.645	0	113	1028	1
2026-02-12	15:29:29.950	9.8	-14.035	0.07	-0.0122	-0.147864	1.217804	-3.009	0.3615	-0.6495	0	113	1028	1
2026-02-12	15:29:29.970	6.195	-17.15	-5.145	-0.02196	-0.160796	1.328824	-3.0075	0.3435	-0.654	0	113	1028	1
2026-02-12	15:29:29.990	-3.605	-20.51	-8.995	-0.016836	-0.21106	1.348588	-3.006	0.348	-0.654	0	113	1028	1
2026-02-12	15:29:30.010	-10.815	-21.42	-10.01	0.011468	-0.256688	1.20902	-3.003	0.363	-0.657	0	114	1031	1
2026-02-12	15:29:30.030	-6.44	-19.565	-9.24	0.023912	-0.21838	1.086044	-3.009	0.3615	-0.654	0	114	1031	1
2026-02-12	15:29:30.050	4.06	-15.645	-7.945	0.02928	-0.133712	0.94306	-3.012	0.3555	-0.6465	0	114	1031	1
2026-02-12	15:29:30.070	9.695	-10.815	-6.16	0.024888	-0.055144	0.781288	-3.0105	0.3495	-0.6465	0	114	1031	1
2026-02-12	15:29:30.090	8.365	-9.065	-3.255	0.040992	-0.057584	0.732732	-3.0105	0.3495	-0.6465	0	114	1031	1
2026-02-12	15:29:30.110	13.86	-4.9	1.015	0.035136	-0.084912	0.778116	-3.0105	0.3495	-0.6465	0	114	1031	1
2026-02-12	15:29:30.130	16.205	-0.805	6.055	0.021716	-0.120536	0.918904	-3.0105	0.3495	-0.6465	0	114	1031	1
2026-02-12	15:29:30.150	17.115	6.09	10.57	-0.00732	-0.149084	1.015284	-3.0135	0.357	-0.6495	0	114	1031	1
2026-02-12	15:29:30.170	13.685	9.45	14.07	-0.040016	-0.15372	1.067744	-3.021	0.3525	-0.66	0	114	1031	1
2026-02-12	15:29:30.190	7.035	10.185	15.68	-0.071004	-0.14396	1.113372	-3.0165	0.3465	-0.6555	0	114	1031	1
2026-02-12	15:29:30.210	-0.805	8.19	14.98	-0.110288	-0.128588	1.063596	-3.0105	0.3465	-0.666	0	118	1039	1
2026-02-12	15:29:30.230	-4.27	6.195	12.075	-0.12322	-0.093696	0.994056	-3.012	0.3585	-0.6525	0	118	1039	1
2026-02-12	15:29:30.250	-5.67	4.76	8.365	-0.112972	-0.049288	0.930128	-3.009	0.345	-0.651	0	118	1039	1
2026-02-12	15:29:30.270	-7.035	4.34	5.46	-0.087352	-0.01464	0.898896	-3.009	0.345	-0.651	0	118	1039	1
2026-02-12	15:29:30.290	-7.525	6.23	4.025	-0.054168	-0.0061	0.891088	-3.015	0.336	-0.651	0	118	1039	1
2026-02-12	15:29:30.310	-6.405	8.785	4.13	-0.024644	0.001708	0.893772	-3.021	0.3285	-0.6525	0	118	1039	1
2026-02-12	15:29:30.330	-4.83	11.305	5.39	-0.005856	-0.001464	0.923296	-3.012	0.3405	-0.651	0	118	1039	1
2026-02-12	15:29:30.350	-2.94	14.98	7.91	-0.001464	-0.006832	0.969168	-3.009	0.342	-0.6435	0	118	1039	1
2026-02-12	15:29:30.370	-1.295	18.27	10.22	-0.01952	0	0.995764	-3.009	0.3345	-0.642	0	118	1039	1
2026-02-12	15:29:30.390	0.245	20.72	11.13	-0.04148	0.016836	0.989176	-3.006	0.3375	-0.645	0	118	1039	1
2026-02-12	15:29:30.410	-0.175	21.385	10.78	-0.055632	0.025864	0.985516	-2.9985	0.3315	-0.6405	0	122	1037	1
2026-02-12	15:29:30.430	-0.07	21.63	9.625	-0.072712	0.042212	0.969656	-2.988	0.336	-0.639	0	122	1037	1
2026-02-12	15:29:30.450	0.315	21	7.875	-0.085156	0.060024	0.946232	-2.9895	0.336	-0.642	0	122	1037	1
2026-02-12	15:29:30.470	1.19	19.39	6.195	-0.08906	0.06832	0.950136	-2.997	0.3	-0.6405	0	122	1037	1
2026-02-12	15:29:30.490	3.955	17.535	4.305	-0.090524	0.078324	0.951112	-2.994	0.297	-0.6405	0	122	1037	1
2026-02-12	15:29:30.510	7.35	14.875	2.31	-0.09638	0.097844	0.949404	-2.9865	0.3225	-0.6375	0	122	1037	1
2026-02-12	15:29:30.530	10.22	11.34	0.315	-0.083692	0.110288	0.963312	-2.988	0.3285	-0.6285	0	122	1037	1
2026-02-12	15:29:30.550	12.6	6.72	-1.12	-0.066368	0.12566	0.98088	-2.985	0.3285	-0.6315	0	122	1037	1
2026-02-12	15:29:30.570	12.495	0.175	-2.975	-0.076616	0.0915	1.021628	-2.982	0.3345	-0.63	0	122	1037	1
2026-02-12	15:29:30.590	14.245	-5.53	-7.035	-0.110532	0.036112	1.04798	-2.982	0.3405	-0.627	0	122	1037	1
2026-02-12	15:29:30.610	15.855	-10.745	-13.895	-0.1281	0.012688	1.101172	-2.9835	0.3345	-0.636	0	126	1029	1
2026-02-12	15:29:30.630	15.015	-15.54	-22.365	-0.119316	-0.004148	1.150948	-2.9835	0.3315	-0.642	0	126	1029	1
2026-02-12	15:29:30.650	12.075	-19.495	-29.925	-0.091012	-0.018544	1.191696	-2.9835	0.3285	-0.6375	0	126	1029	1
2026-02-12	15:29:30.670	4.69	-21.91	-34.405	-0.052704	-0.024156	1.23342	-2.982	0.327	-0.639	0	126	1029	1
2026-02-12	15:29:30.690	-3.465	-22.33	-34.615	-0.014884	-0.043188	1.266116	-2.985	0.3375	-0.648	0	126	1029	1
2026-02-12	15:29:30.710	-10.045	-21.14	-31.43	0.00122	-0.069296	1.294664	-2.9895	0.3435	-0.648	0	126	1029	1
2026-02-12	15:29:30.730	-14.105	-18.725	-27.055	-0.003416	-0.118584	1.233176	-2.997	0.3375	-0.645	0	126	1029	1
2026-02-12	15:29:30.750	-11.83	-14.77	-23.275	-0.027328	-0.13298	1.100684	-2.9985	0.3285	-0.639	0	126	1029	1
2026-02-12	15:29:30.770	-0.875	-8.925	-22.645	-0.04636	-0.088084	0.96136	-3	0.3345	-0.639	0	126	1029	1
2026-02-12	15:29:30.790	5.075	-2.59	-24.71	-0.03904	-0.048556	0.814228	-3.009	0.336	-0.642	0	126	1029	1
2026-02-12	15:29:30.810	9.17	0.77	-27.825	-0.0061	-0.070272	0.746884	-3.009	0.342	-0.642	0	129	1034	1
2026-02-12	15:29:30.830	18.445	5.425	-31.01	0.042944	-0.102724	0.79422	-3.0105	0.3465	-0.642	0	129	1034	1
2026-02-12	15:29:30.850	27.755	10.255	-33.145	0.079788	-0.127856	0.915488	-3.0105	0.3435	-0.6375	0	129	1034	1
2026-02-12	15:29:30.870	28.21	15.82	-33.565	0.094428	-0.166896	1.038952	-3.0015	0.3405	-0.645	0	129	1034	1
2026-02-12	15:29:30.890	27.09	21.91	-32.62	0.10736	-0.15616	1.077748	-2.9955	0.3375	-0.651	0	129	1034	1
2026-02-12	15:29:30.910	19.985	24.395	-31.43	0.104188	-0.155184	1.057496	-2.9925	0.3495	-0.648	0	129	1034	1
2026-02-12	15:29:30.930	14.455	24.29	-29.855	0.0854	-0.118096	1.036512	-2.9895	0.348	-0.654	0	129	1034	1
2026-02-12	15:29:30.950	10.08	21.945	-29.12	0.060756	-0.088328	0.972096	-2.991	0.33	-0.648	0	129	1034	1
2026-02-12	15:29:30.970	6.3	17.22	-29.575	0.045384	-0.058072	0.9211	-2.9925	0.321	-0.645	0	129	1034	1
2026-02-12	15:29:30.990	3.57	10.99	-30.345	0.040748	-0.021472	0.878888	-2.9895	0.3225	-0.645	0	129	1034	1
2026-02-12	15:29:31.010	2.345	4.55	-31.15	0.038796	0.023912	0.865224	-2.988	0.3315	-0.639	0	133	1036	1
2026-02-12	15:29:31.030	-0.315	-0.98	-31.57	0.038064	0.050996	0.88572	-2.991	0.348	-0.6375	0	133	1036	1
2026-02-12	15:29:31.050	-0.98	-4.305	-31.885	0.030988	0.07515199	0.915976	-2.994	0.342	-0.6375	0	133	1036	1
2026-02-12	15:29:31.070	-1.925	-5.285	-31.815	0.027084	0.11224	0.935252	-2.997	0.327	-0.639	0	133	1036	1
2026-02-12	15:29:31.090	-3.745	-4.27	-30.87	0.028548	0.132736	0.954528	-2.9985	0.324	-0.6375	0	133	1036	1
2026-02-12	15:29:31.110	-4.935	-1.435	-28.945	0.021716	0.138104	0.960384	-2.9985	0.3405	-0.6435	0	133	1036	1
2026-02-12	15:29:31.130	-4.62	1.855	-26.32	0.013908	0.14152	0.963312	-2.997	0.351	-0.645	0	133	1036	1
2026-02-12	15:29:31.150	-4.55	4.13	-23.345	-0.004392	0.125416	0.980148	-3	0.348	-0.657	0	133	1036	1
2026-02-12	15:29:31.170	-2.975	4.83	-20.86	-0.026352	0.096868	0.996984	-3.003	0.3555	-0.6705	0	133	1036	1
2026-02-12	15:29:31.190	0.49	4.34	-18.62	-0.040992	0.073932	1.023824	-3	0.357	-0.6705	0	133	1036	1
2026-02-12	15:29:31.210	3.955	3.535	-16.24	-0.049532	0.026352	1.077992	-2.9985	0.357	-0.66	0	136	1030	1
2026-02-12	15:29:31.230	7.945	2.66	-13.58	-0.061732	-0.020496	1.13216	-3.0015	0.3555	-0.6465	0	136	1030	1
2026-02-12	15:29:31.250	12.32	1.505	-11.095	-0.07198	-0.01952	1.166808	-3	0.345	-0.645	0	136	1030	1
2026-02-12	15:29:31.270	11.83	-0.42	-8.33	-0.069784	-0.006344	1.2444	-2.997	0.348	-0.6435	0	136	1030	1
2026-02-12	15:29:31.290	5.355	-3.57	-4.655	-0.097356	-0.052704	1.27856	-2.994	0.3675	-0.639	0	136	1030	1
2026-02-12	15:29:31.310	-0.665	-5.67	-0.735	-0.133712	-0.112972	1.27612	-2.9955	0.3585	-0.6405	0	136	1030	1
2026-02-12	15:29:31.330	-4.445	-7.035	1.05	-0.14518	-0.111508	1.285148	-3	0.3405	-0.645	0	136	1030	1
2026-02-12	15:29:31.350	-11.27	-8.75	1.12	-0.12078	-0.147132	1.205604	-3	0.3405	-0.645	0	136	1030	1
2026-02-12	15:29:31.370	-14.7	-9.24	1.435	-0.09394	-0.17568	1.098	-2.994	0.3525	-0.636	0	136	1030	1
2026-02-12	15:29:31.390	-12.32	-8.19	2.485	-0.073444	-0.173972	1.008696	-2.994	0.3525	-0.636	0	136	1030	1
2026-02-12	15:29:31.410	-2.905	-4.305	4.48	-0.063928	-0.154208	0.863028	-3	0.348	-0.6465	0	140	1035	1
2026-02-12	15:29:31.430	0	-4.48	6.58	-0.061	-0.134444	0.770064	-3.0015	0.3615	-0.63	0	140	1035	1
2026-02-12	15:29:31.450	7.07	-2.625	7.98	-0.056364	-0.120048	0.72102	-3.0015	0.3615	-0.63	0	140	1035	1
2026-02-12	15:29:31.470	11.515	-4.97	9.205	-0.046848	-0.11224	0.827404	-3.0015	0.3615	-0.63	0	140	1035	1
2026-02-12	15:29:31.490	15.05	-4.62	10.395	-0.055632	-0.104676	0.960628	-3.006	0.342	-0.633	0	140	1035	1
2026-02-12	15:29:31.510	12.565	-4.935	12.145	-0.079544	-0.105408	1.090924	-3.003	0.339	-0.6405	0	140	1035	1
2026-02-12	15:29:31.530	10.815	-5.11	13.3	-0.120048	-0.085156	1.140456	-2.991	0.3585	-0.6405	0	140	1035	1
2026-02-12	15:29:31.550	6.02	-7.21	11.9	-0.160064	-0.06832	1.09678	-2.9925	0.348	-0.645	0	140	1035	1
2026-02-12	15:29:31.570	7.28	-8.155	8.085	-0.182024	-0.022936	1.034072	-3	0.3345	-0.645	0	140	1035	1
2026-02-12	15:29:31.590	8.155	-6.3	3.29	-0.183732	0.02928	0.971608	-3.0015	0.3345	-0.645	0	140	1035	1
2026-02-12	15:29:31.610	6.685	-2.275	0.07	-0.154696	0.072956	0.909876	-3.009	0.336	-0.648	0	145	1040	1
2026-02-12	15:29:31.630	2.38	2.24	-1.61	-0.11102	0.056608	0.88206	-3.0105	0.342	-0.642	0	145	1040	1
2026-02-12	15:29:31.650	3.43	8.155	-1.225	-0.073444	0.032452	0.897432	-3.0075	0.3375	-0.639	0	145	1040	1
2026-02-12	15:29:31.670	6.3	13.51	1.295	-0.047092	0.024888	0.947208	-3.006	0.3285	-0.6435	0	145	1040	1
2026-02-12	15:29:31.690	9.975	18.06	4.025	-0.058072	0.02806	0.969168	-2.9985	0.339	-0.6495	0	145	1040	1
2026-02-12	15:29:31.710	10.99	19.215	5.425	-0.081008	0.04026	0.97722	-2.9985	0.3345	-0.6495	0	145	1040	1
2026-02-12	15:29:31.730	12.705	18.795	5.32	-0.101748	0.073444	0.947696	-3	0.315	-0.642	0	145	1040	1
2026-02-12	15:29:31.750	11.55	15.75	4.06	-0.105164	0.116876	0.932812	-2.9955	0.3135	-0.6405	0	145	1040	1
2026-02-12	15:29:31.770	9.555	12.32	2.485	-0.105164	0.152256	0.922076	-2.994	0.3195	-0.6405	0	145	1040	1
2026-02-12	15:29:31.790	6.72	8.715	1.19	-0.102236	0.167628	0.928176	-2.991	0.3195	-0.639	0	145	1040	1
2026-02-12	15:29:31.810	4.83	5.95	0.28	-0.096624	0.1891	0.942084	-2.988	0.312	-0.636	0	149	1034	1
2026-02-12	15:29:31.830	4.76	4.13	-0.315	-0.093208	0.204716	0.967948	-2.991	0.3105	-0.6345	0	149	1034	1
2026-02-12	15:29:31.850	5.915	3.255	-0.315	-0.0854	0.211792	0.978196	-2.9925	0.3045	-0.63	0	149	1034	1
2026-02-12	15:29:31.870	7	1.435	-0.035	-0.08418	0.21472	0.987468	-2.9895	0.303	-0.6285	0	149	1034	1
2026-02-12	15:29:31.890	8.505	-1.4	-0.665	-0.095404	0.18666	1.0126	-2.988	0.3135	-0.636	0	149	1034	1
2026-02-12	15:29:31.910	9.38	-4.83	-3.255	-0.118096	0.156892	1.031632	-2.9865	0.312	-0.639	0	149	1034	1
2026-02-12	15:29:31.930	10.85	-9.31	-8.19	-0.14274	0.113948	1.05286	-2.988	0.3105	-0.642	0	149	1034	1
2026-02-12	15:29:31.950	10.885	-13.44	-14.735	-0.151524	0.098088	1.09922	-2.991	0.3	-0.6405	0	149	1034	1
2026-02-12	15:29:31.970	8.96	-16.94	-21.245	-0.126392	0.105896	1.154364	-2.9925	0.2955	-0.639	0	149	1034	1
2026-02-12	15:29:31.990	3.5	-18.655	-24.78	-0.09638	0.106384	1.211704	-2.9925	0.3015	-0.648	0	149	1034	1
2026-02-12	15:29:32.010	-1.225	-19.495	-23.975	-0.064172	0.130052	1.247084	-2.9925	0.3135	-0.6495	0	151	1029	1
2026-02-12	15:29:32.030	-7.91	-20.615	-20.335	-0.054168	0.134444	1.248548	-3	0.318	-0.6465	0	151	1029	1
2026-02-12	15:29:32.050	-14.455	-22.155	-16.59	-0.06466	0.075396	1.225124	-3.006	0.3075	-0.654	0	151	1029	1
2026-02-12	15:29:32.070	-17.255	-22.505	-14.91	-0.07905599	-0.029524	1.145092	-3.012	0.3075	-0.654	0	151	1029	1
2026-02-12	15:29:32.090	-13.055	-20.23	-15.365	-0.081984	-0.073444	1.050176	-3.0105	0.318	-0.6525	0	151	1029	1
2026-02-12	15:29:32.110	-8.645	-13.86	-17.955	-0.077592	-0.071492	0.902068	-3.009	0.33	-0.657	0	151	1029	1
2026-02-12	15:29:32.130	-11.2	-8.96	-20.93	-0.042212	-0.097112	0.822768	-3.0165	0.33	-0.657	0	151	1029	1
2026-02-12	15:29:32.150	-9.835	-2.24	-23.345	-0.009028	-0.153232	0.77714	-3.0225	0.321	-0.6495	0	151	1029	1
2026-02-12	15:29:32.170	-3.57	3.15	-25.235	0.0061	-0.172264	0.798612	-3.0225	0.33	-0.651	0	151	1029	1
2026-02-12	15:29:32.190	4.27	7.91	-27.125	0.021472	-0.168604	0.892796	-3.021	0.3285	-0.651	0	151	1029	1
2026-02-12	15:29:32.210	6.23	13.405	-29.365	0.045384	-0.210572	1.004792	-3.0195	0.3255	-0.6525	0	154	1033	1
2026-02-12	15:29:32.230	3.535	18.76	-28.525	0.055632	-0.206668	1.048712	-3.0075	0.3315	-0.651	0	154	1033	1
2026-02-12	15:29:32.250	-1.19	21.77	-27.02	0.050264	-0.147376	1.040416	-2.9985	0.339	-0.6435	0	154	1033	1
2026-02-12	15:29:32.270	-5.845	21.35	-26.11	0.026352	-0.07564	1.054568	-2.994	0.348	-0.642	0	154	1033	1
2026-02-12	15:29:32.290	-10.745	17.29	-26.075	0.002684	-0.020984	1.003816	-2.9895	0.354	-0.6405	0	154	1033	1
2026-02-12	15:29:32.310	-10.325	12.635	-26.95	-0.027816	0.03538	0.92842	-2.991	0.36	-0.6435	0	154	1033	1
2026-02-12	15:29:32.330	-11.375	5.285	-27.65	-0.035624	0.086376	0.912804	-2.9955	0.3585	-0.6405	0	154	1033	1
2026-02-12	15:29:32.350	-9.415	0.07	-27.965	-0.036356	0.116388	0.900604	-2.9955	0.357	-0.642	0	154	1033	1
2026-02-12	15:29:32.370	-10.64	-4.62	-27.405	-0.035624	0.108824	0.926712	-3.0015	0.348	-0.639	0	154	1033	1
2026-02-12	15:29:32.390	-10.605	-6.265	-26.075	-0.019764	0.089548	0.96258	-3.0075	0.336	-0.633	0	154	1033	1
2026-02-12	15:29:32.410	-9.905	-5.46	-23.695	-0.00732	0.076372	0.985272	-3.0075	0.336	-0.633	0	157	1031	1
2026-02-12	15:29:32.430	-9.625	-3.92	-21.175	-0.003172	0.062708	1.002108	-3.006	0.3675	-0.6345	0	157	1031	1
2026-02-12	15:29:32.450	-9.1	-1.33	-18.13	0.005612	0.057584	0.993324	-3.006	0.3675	-0.6345	0	157	1031	1
2026-02-12	15:29:32.470	-7.735	2.135	-13.895	0.004392	0.052948	0.973804	-3.009	0.351	-0.6405	0	157	1031	1
2026-02-12	15:29:32.490	-5.25	4.34	-10.325	-0.005856	0.051728	0.968436	-3.0195	0.3315	-0.645	0	157	1031	1
2026-02-12	15:29:32.510	-2.17	5.145	-8.12	-0.021472	0.04758	0.961116	-3.0075	0.378	-0.642	0	157	1031	1
2026-02-12	15:29:32.530	0.98	4.515	-7.49	-0.029768	0.027572	0.97112	-3.0045	0.39	-0.66	0	157	1031	1
2026-02-12	15:29:32.550	5.53	3.185	-7.525	-0.025132	0.0061	1.00406	-3.021	0.384	-0.66	0	157	1031	1
2026-02-12	15:29:32.570	8.54	1.575	-7.77	-0.008784	-0.02806	1.05774	-3.0105	0.3975	-0.675	0	157	1031	1
2026-02-12	15:29:32.590	13.44	-0.735	-8.33	0.000488	-0.037088	1.086044	-2.9955	0.366	-0.6435	0	157	1031	1
2026-02-12	15:29:32.610	15.435	-4.55	-10.01	0	-0.024888	1.101416	-3.0045	0.3825	-0.654	0	157	1027	1
2026-02-12	15:29:32.630	13.93	-8.75	-12.845	-0.021472	-0.01952	1.153632	-3.0015	0.369	-0.654	0	157	1027	1
2026-02-12	15:29:32.650	10.22	-12.39	-16.415	-0.033184	-0.025864	1.23464	-3.0075	0.363	-0.645	0	157	1027	1
2026-02-12	15:29:32.670	1.225	-14.56	-19.145	-0.043188	-0.053192	1.301984	-3.0105	0.3705	-0.645	0	157	1027	1
2026-02-12	15:29:32.690	-8.225	-14.945	-19.635	-0.03172	-0.098088	1.294908	-3.012	0.3765	-0.6465	0	157	1027	1
2026-02-12	15:29:32.710	-14.07	-14.315	-17.71	-0.019276	-0.128832	1.21146	-3.018	0.3645	-0.6525	0	157	1027	1
2026-02-12	15:29:32.730	-15.295	-12.67	-13.93	-0.014884	-0.152012	1.100196	-3.0195	0.348	-0.6525	0	157	1027	1
2026-02-12	15:29:32.750	-10.185	-9.275	-9.625	-0.027328	-0.146888	0.984784	-3.012	0.3645	-0.651	0	157	1027	1
2026-02-12	15:29:32.770	-3.85	-3.99	-6.86	-0.058072	-0.12932	0.837164	-3.018	0.3945	-0.6405	0	157	1027	1
2026-02-12	15:29:32.790	-0.735	-2.45	-5.81	-0.072468	-0.126148	0.754936	-3.03	0.3915	-0.648	0	157	1027	1
2026-02-12	15:29:32.810	7.175	2.03	-5.075	-0.066856	-0.13054	0.754204	-3.03	0.3915	-0.648	0	157	1034	1
2026-02-12	15:29:32.830	10.815	3.36	-3.71	-0.07515199	-0.132736	0.901824	-3.03	0.3915	-0.648	0	157	1034	1
2026-02-12	15:29:32.850	10.465	5.74	-2.31	-0.091256	-0.122732	1.048956	-3.03	0.3915	-0.648	0	157	1034	1
2026-02-12	15:29:32.870	5.285	7.21	-0.56	-0.117608	-0.122	1.1163	-3.0255	0.39	-0.645	0	157	1034	1
2026-02-12	15:29:32.890	-0.175	4.48	1.365	-0.133712	-0.160064	1.11874	-3.024	0.3765	-0.645	0	157	1034	1
2026-02-12	15:29:32.910	-4.025	0.385	2.66	-0.155428	-0.11834	1.087752	-3.0255	0.369	-0.6495	0	157	1034	1
2026-02-12	15:29:32.930	-3.64	-3.08	3.395	-0.178852	-0.062952	1.01016	-3.0255	0.3705	-0.648	0	157	1034	1
2026-02-12	15:29:32.950	-6.86	-4.27	3.535	-0.198372	-0.021472	0.92598	-3.0285	0.3675	-0.6435	0	157	1034	1
2026-02-12	15:29:32.970	-9.135	-4.585	2.59	-0.197152	0.002684	0.863272	-3.03	0.366	-0.6435	0	157	1034	1
2026-02-12	15:29:32.990	-10.43	-2.45	1.47	-0.174704	-0.00244	0.848388	-3.0375	0.375	-0.6495	0	157	1034	1
2026-02-12	15:29:33.010	-8.05	0.315	1.575	-0.12566	-0.003416	0.889868	-3.042	0.3765	-0.6465	0	156	1037	1
2026-02-12	15:29:33.030	-3.605	4.97	2.695	-0.093696	-0.007808	0.94184	-3.0375	0.372	-0.6435	0	156	1037	1
2026-02-12	15:29:33.050	-0.595	9.66	4.865	-0.07686	0.000244	0.968924	-3.0345	0.3705	-0.645	0	156	1037	1
2026-02-12	15:29:33.070	2.17	12.425	7.035	-0.074664	0.01586	0.98332	-3.0315	0.3645	-0.642	0	156	1037	1
2026-02-12	15:29:33.090	3.08	12.53	8.47	-0.084912	0.039284	0.986492	-3.03	0.375	-0.6465	0	156	1037	1
2026-02-12	15:29:33.110	2.24	10.605	9.1	-0.09882	0.045628	0.991372	-3.027	0.3885	-0.651	0	156	1037	1
2026-02-12	15:29:33.130	1.33	7.42	8.82	-0.11712	0.05246	0.989176	-3.0225	0.3855	-0.651	0	156	1037	1
2026-02-12	15:29:33.150	1.295	3.465	7.945	-0.129564	0.060756	0.986736	-3.0315	0.3735	-0.651	0	156	1037	1
2026-02-12	15:29:33.170	3.29	-0.21	6.65	-0.135908	0.074908	0.990884	-3.0315	0.3795	-0.651	0	156	1037	1
2026-02-12	15:29:33.190	5.25	-3.955	5.25	-0.135664	0.072712	1.021872	-3.024	0.3855	-0.6495	0	156	1037	1
2026-02-12	15:29:33.210	10.5	-5.53	4.025	-0.130784	0.078812	1.021628	-3.021	0.372	-0.6525	0	155	1032	1
2026-02-12	15:29:33.230	15.96	-6.16	3.15	-0.11712	0.088816	1.034316	-3.027	0.3675	-0.6615	0	155	1032	1
2026-02-12	15:29:33.250	21.385	-5.845	2.24	-0.11468	0.081252	1.047736	-3.0285	0.3675	-0.6585	0	155	1032	1
2026-02-12	15:29:33.270	25.55	-4.97	0.28	-0.128588	0.0549	1.075552	-3.0285	0.375	-0.6525	0	155	1032	1
2026-02-12	15:29:33.290	27.79	-4.095	-3.29	-0.138348	0.02196	1.115324	-3.0285	0.369	-0.6555	0	155	1032	1
2026-02-12	15:29:33.310	28.07	-3.605	-7.63	-0.12566	0.020252	1.155584	-3.027	0.366	-0.6585	0	155	1032	1
2026-02-12	15:29:33.330	25.235	-4.655	-11.235	-0.104676	0.03294	1.183888	-3.0315	0.3645	-0.663	0	155	1032	1
2026-02-12	15:29:33.350	19.18	-7.56	-12.985	-0.085644	0.049044	1.212192	-3.0345	0.3525	-0.6615	0	155	1032	1
2026-02-12	15:29:33.370	11.655	-11.795	-12.985	-0.088328	0.053436	1.23464	-3.033	0.3615	-0.6615	0	155	1032	1
2026-02-12	15:29:33.390	4.27	-16.135	-12.565	-0.09272	0.022204	1.218292	-3.033	0.3675	-0.663	0	155	1032	1
2026-02-12	15:29:33.410	0.77	-18.445	-12.81	-0.089792	-0.035868	1.12606	-3.0375	0.351	-0.6585	0	153	1034	1
2026-02-12	15:29:33.430	5.565	-16.94	-13.51	-0.078324	-0.03782	1.013332	-3.042	0.3495	-0.66	0	153	1034	1
2026-02-12	15:29:33.450	10.71	-11.515	-14.805	-0.064172	-0.021472	0.871812	-3.042	0.357	-0.663	0	153	1034	1
2026-02-12	15:29:33.470	10.15	-7.455	-16.275	-0.033672	-0.038308	0.779336	-3.042	0.357	-0.663	0	153	1034	1
2026-02-12	15:29:33.490	12.285	-2.94	-17.325	-0.00122	-0.048068	0.739808	-3.0555	0.348	-0.66	0	153	1034	1
2026-02-12	15:29:33.510	13.125	2.765	-18.2	0.033916	-0.066856	0.774456	-3.0555	0.348	-0.66	0	153	1034	1
2026-02-12	15:29:33.530	10.605	9.345	-17.675	0.081252	-0.113948	0.885232	-3.045	0.3585	-0.6555	0	153	1034	1
2026-02-12	15:29:33.550	11.62	16.975	-16.135	0.092476	-0.141764	0.97112	-3.036	0.339	-0.645	0	153	1034	1
2026-02-12	15:29:33.570	8.47	22.82	-14.63	0.089548	-0.121024	1.045784	-3.036	0.363	-0.669	0	153	1034	1
2026-02-12	15:29:33.590	1.26	25.55	-13.16	0.076616	-0.084424	1.064572	-3.0285	0.3465	-0.672	0	153	1034	1
2026-02-12	15:29:33.610	-11.06	24.325	-12.04	0.04148	-0.073444	1.055788	-3.036	0.3375	-0.657	0	151	1036	1
2026-02-12	15:29:33.630	-20.405	20.965	-11.725	0.009028	-0.057584	1.001864	-3.0255	0.357	-0.651	0	151	1036	1
2026-02-12	15:29:33.650	-27.58	15.855	-12.67	-0.019276	-0.061244	0.9516	-3.0225	0.348	-0.663	0	151	1036	1
2026-02-12	15:29:33.670	-29.855	10.57	-14.245	-0.02684	-0.035136	0.879376	-3.0225	0.3735	-0.66	0	151	1036	1
2026-02-12	15:29:33.690	-32.76	4.725	-15.505	-0.023912	0.005368	0.84668	-3.033	0.3645	-0.6465	0	151	1036	1
2026-02-12	15:29:33.710	-32.095	0.98	-15.96	-0.02196	0.051728	0.821792	-3.024	0.3585	-0.6525	0	151	1036	1
2026-02-12	15:29:33.730	-32.83	-3.045	-15.54	-0.01708	0.072468	0.861076	-3.039	0.348	-0.6465	0	151	1036	1
2026-02-12	15:29:33.750	-29.015	-4.375	-14.42	-0.019764	0.08295999	0.910608	-3.0345	0.3825	-0.657	0	151	1036	1
2026-02-12	15:29:33.770	-25.725	-5.075	-12.565	-0.021228	0.091988	0.96746	-3.033	0.3675	-0.6495	0	151	1036	1
2026-02-12	15:29:33.790	-21.875	-3.64	-10.255	-0.018056	0.09516	0.992104	-3.0375	0.372	-0.654	0	151	1036	1
2026-02-12	15:29:33.810	-19.285	-1.855	-7.49	-0.011224	0.08906	1.008696	-3.036	0.3795	-0.654	0	150	1027	1
2026-02-12	15:29:33.830	-16.765	-0.175	-4.76	-0.016348	0.073688	1.022848	-3.0255	0.3765	-0.6405	0	150	1027	1
2026-02-12	15:29:33.850	-13.51	1.505	-2.415	-0.021472	0.049776	1.02602	-3.039	0.396	-0.654	0	150	1027	1
2026-02-12	15:29:33.870	-11.165	2.205	-0.595	-0.029768	0.017568	1.042124	-3.027	0.417	-0.651	0	150	1027	1
2026-02-12	15:29:33.890	-6.44	1.96	0.665	-0.023912	-0.012444	1.045052	-3.033	0.417	-0.6675	0	150	1027	1
2026-02-12	15:29:33.910	-1.26	1.05	1.995	-0.018788	-0.072712	1.061156	-3.0315	0.414	-0.6795	0	150	1027	1
2026-02-12	15:29:33.930	6.58	-0.035	3.22	-0.027572	-0.134688	1.085068	-3.036	0.396	-0.6615	0	150	1027	1
2026-02-12	15:29:33.950	16.24	-1.715	3.15	-0.032452	-0.151524	1.12484	-3.027	0.4125	-0.6465	0	150	1027	1
2026-02-12	15:29:33.970	19.04	-4.935	1.925	-0.03172	-0.142008	1.150948	-3.0345	0.3975	-0.6405	0	150	1027	1
2026-02-12	15:29:33.990	17.745	-9.45	0.21	-0.041236	-0.138104	1.175348	-3.021	0.4005	-0.657	0	150	1027	1
2026-02-12	15:29:34.010	14.455	-14.35	-1.4	-0.040992	-0.097844	1.25416	-3.0345	0.3885	-0.651	0	149	1024	1
2026-02-12	15:29:34.030	5.39	-19.32	-1.785	-0.042944	-0.05856	1.338096	-3.0315	0.3675	-0.6345	0	149	1024	1
2026-02-12	15:29:34.050	-7.945	-23.66	0.595	-0.035868	-0.084912	1.32004	-3.0285	0.4035	-0.651	0	149	1024	1
2026-02-12	15:29:34.070	-14.665	-26.005	6.02	-0.020984	-0.105896	1.218048	-3.033	0.3945	-0.648	0	149	1024	1
2026-02-12	15:29:34.090	-10.92	-25.55	13.265	-0.018056	-0.099308	1.08214	-3.042	0.405	-0.6645	0	149	1024	1
2026-02-12	15:29:34.110	1.505	-21.525	20.195	-0.033184	-0.050264	0.920612	-3.0405	0.384	-0.6495	0	149	1024	1
2026-02-12	15:29:34.130	7.035	-17.325	24.92	-0.063196	-0.036356	0.7381	-3.045	0.3765	-0.657	0	149	1024	1
2026-02-12	15:29:34.150	7.875	-17.43	26.705	-0.08662	-0.08784	0.670512	-3.0585	0.375	-0.651	0	149	1024	1
2026-02-12	15:29:34.170	11.165	-14.735	26.25	-0.076616	-0.162992	0.721508	-3.0555	0.396	-0.6435	0	149	1024	1
2026-02-12	15:29:34.190	15.82	-13.125	25.235	-0.053192	-0.203496	0.8723	-3.051	0.396	-0.6465	0	149	1024	1
2026-02-12	15:29:34.210	16.52	-9.87	25.235	-0.047824	-0.249124	1.076284	-3.051	0.396	-0.6465	0	149	1034	1
2026-02-12	15:29:34.230	14.245	-4.76	26.565	-0.075396	-0.212768	1.181448	-3.051	0.396	-0.6465	0	149	1034	1
2026-02-12	15:29:34.250	4.69	-2.87	28.035	-0.092964	-0.24888	1.170956	-3.045	0.3975	-0.6525	0	149	1034	1
2026-02-12	15:29:34.270	-2.975	-2.94	27.93	-0.112728	-0.1952	1.102636	-3.042	0.3945	-0.66	0	149	1034	1
2026-02-12	15:29:34.290	-6.335	-4.55	25.97	-0.141276	-0.122	1.026996	-3.0375	0.396	-0.66	0	149	1034	1
2026-02-12	15:29:34.310	-7.245	-5.39	22.505	-0.1525	-0.056608	0.92476	-3.0435	0.39	-0.6555	0	149	1034	1
2026-02-12	15:29:34.330	-10.535	-6.93	18.375	-0.138592	-0.001708	0.845216	-3.057	0.378	-0.654	0	149	1034	1
2026-02-12	15:29:34.350	-11.655	-6.44	15.05	-0.102968	-0.006344	0.823012	-3.0555	0.369	-0.6525	0	149	1034	1
2026-02-12	15:29:34.370	-5.145	-3.71	12.88	-0.068808	0.01098	0.840092	-3.0555	0.375	-0.663	0	149	1034	1
2026-02-12	15:29:34.390	2.625	1.12	12.005	-0.033428	0.05246	0.881084	-3.057	0.3945	-0.6795	0	149	1034	1
2026-02-12	15:29:34.410	5.705	5.74	12.46	-0.011468	0.065392	0.933544	-3.054	0.396	-0.6855	0	151	1035	1
2026-02-12	15:29:34.430	7.525	10.115	13.72	-0.001952	0.06588	0.953064	-3.0465	0.3885	-0.678	0	151	1035	1
2026-02-12	15:29:34.450	8.085	12.32	14.91	-0.011224	0.081008	0.973804	-3.039	0.3795	-0.6675	0	151	1035	1
2026-02-12	15:29:34.470	8.015	12.915	15.05	-0.03538	0.079788	0.998448	-3.039	0.3735	-0.666	0	151	1035	1
2026-02-12	15:29:34.490	7.42	12.215	13.86	-0.057828	0.076372	1.022116	-3.042	0.3705	-0.663	0	151	1035	1
2026-02-12	15:29:34.510	8.855	10.535	11.13	-0.077348	0.10614	1.034804	-3.0345	0.3765	-0.66	0	151	1035	1
2026-02-12	15:29:34.530	9.45	8.015	7.245	-0.077348	0.108336	1.0614	-3.0255	0.3855	-0.66	0	151	1035	1
2026-02-12	15:29:34.550	12.32	6.09	3.92	-0.085156	0.093208	1.081408	-3.021	0.39	-0.66	0	151	1035	1
2026-02-12	15:29:34.570	18.76	3.71	0.525	-0.095648	0.074176	1.083116	-3.021	0.39	-0.66	0	151	1035	1
2026-02-12	15:29:34.590	26.11	1.61	-4.2	-0.100528	0.081008	1.092876	-3.0285	0.366	-0.66	0	151	1035	1
2026-02-12	15:29:34.610	33.81	-2.24	-9.415	-0.09882	0.097844	1.11752	-3.0315	0.3735	-0.6495	0	154	1031	1
2026-02-12	15:29:34.630	37.485	-6.44	-14.315	-0.07198	0.068076	1.158512	-3.0255	0.3735	-0.666	0	154	1031	1
2026-02-12	15:29:34.650	38.605	-9.345	-17.255	-0.048068	0.011956	1.21024	-3.0315	0.36	-0.6615	0	154	1031	1
2026-02-12	15:29:34.670	36.855	-10.85	-17.605	-0.032696	-0.007076	1.252452	-3.0345	0.3555	-0.669	0	154	1031	1
2026-02-12	15:29:34.690	31.885	-10.92	-15.575	-0.014152	-0.008784	1.26026	-3.0465	0.3495	-0.666	0	154	1031	1
2026-02-12	15:29:34.710	25.83	-10.815	-13.265	-0.026596	0.000244	1.238056	-3.0345	0.3375	-0.6615	0	154	1031	1
2026-02-12	15:29:34.730	18.9	-11.375	-12.53	-0.03904	0.015616	1.197796	-3.0375	0.3555	-0.6675	0	154	1031	1
2026-02-12	15:29:34.750	13.58	-12.46	-14.07	-0.047092	-0.00976	1.080676	-3.039	0.363	-0.6735	0	154	1031	1
2026-02-12	15:29:34.770	17.01	-12.95	-17.64	-0.03416	-0.02928	0.964532	-3.0405	0.3615	-0.6795	0	154	1031	1
2026-02-12	15:29:34.790	22.855	-12.18	-22.855	-0.022448	-0.011224	0.853024	-3.045	0.339	-0.666	0	154	1031	1
2026-02-12	15:29:34.810	24.045	-12.145	-28.21	0.01098	0.006588	0.78812	-3.045	0.3345	-0.663	0	157	1040	1
2026-02-12	15:29:34.830	20.65	-10.115	-33.215	0.045628	0.011956	0.790804	-3.0465	0.315	-0.6675	0	157	1040	1
2026-02-12	15:29:34.850	12.11	-6.65	-38.255	0.091012	-0.024156	0.86864	-3.048	0.327	-0.6705	0	157	1040	1
2026-02-12	15:29:34.870	6.93	-0.175	-42.665	0.123708	-0.080032	0.97356	-3.051	0.33	-0.678	0	157	1040	1
2026-02-12	15:29:34.890	3.325	7.77	-45.255	0.135176	-0.088572	1.038464	-3.048	0.3345	-0.6735	0	157	1040	1
2026-02-12	15:29:34.910	0.35	15.4	-44.59	0.116876	-0.027328	1.032852	-3.042	0.3375	-0.6795	0	157	1040	1
2026-02-12	15:29:34.930	-5.915	17.465	-42.77	0.082716	0.035624	1.003572	-3.0435	0.3285	-0.6825	0	157	1040	1
2026-02-12	15:29:34.950	-11.97	15.645	-41.79	0.03782	0.052704	0.964532	-3.042	0.3585	-0.6795	0	157	1040	1
2026-02-12	15:29:34.970	-15.925	10.815	-41.685	0.014884	0.016836	0.93086	-3.0465	0.339	-0.6735	0	157	1040	1
2026-02-12	15:29:34.990	-14.525	5.355	-42.105	0.014396	-0.007808	0.901824	-3.042	0.366	-0.6675	0	157	1040	1
2026-02-12	15:29:35.010	-9.8	0.035	-42.7	0.01342	0.000244	0.880596	-3.0375	0.351	-0.672	0	159	1042	1
2026-02-12	15:29:35.030	-6.51	-4.585	-43.12	0.020496	-0.063928	0.858148	-3.039	0.3345	-0.6585	0	159	1042	1
2026-02-12	15:29:35.050	-6.51	-7.56	-41.965	0.030744	0.000732	0.876692	-3.042	0.384	-0.669	0	159	1042	1
2026-02-12	15:29:35.070	-2.45	-7.42	-39.83	0.016592	0.104432	0.864004	-3.045	0.3675	-0.666	0	159	1042	1
2026-02-12	15:29:35.090	-3.15	-7.385	-36.925	0.014884	0.157624	0.87352	-3.054	0.3525	-0.6675	0	159	1042	1
2026-02-12	15:29:35.110	-1.925	-5.355	-34.44	0.00854	0.199348	0.917928	-3.045	0.3795	-0.6705	0	159	1042	1
2026-02-12	15:29:35.130	-3.29	-1.925	-32.445	0.00732	0.153964	0.957944	-3.0645	0.36	-0.6705	0	159	1042	1
2026-02-12	15:29:35.150	-1.645	1.085	-22.785	0.023912	0.13176	1.002596	-3.0525	0.3645	-0.672	0	159	1042	1
2026-02-12	15:29:35.170	-1.295	1.75	-15.715	0.040016	0.166164	1.031144	-3.054	0.3555	-0.6795	0	159	1042	1
2026-02-12	15:29:35.190	8.505	4.725	-14.07	0.010736	0.184952	1.070184	-3.0735	0.2985	-0.6795	0	159	1042	1
2026-02-12	15:29:35.210	10.36	5.145	-11.13	-0.022204	0.269132	1.061156	-3.0765	0.234	-0.69	0	160	1031	1
2026-02-12	15:29:35.230	14.07	6.16	-12.18	0.009028	-0.039284	1.120204	-3.0975	0.156	-0.7035	0	160	1031	1
2026-02-12	15:29:35.250	20.195	5.11	-9.345	-0.017568	-0.018544	1.132892	-3.081	0.1995	-0.723	0	160	1031	1
2026-02-12	15:29:35.270	20.09	4.34	-6.51	-0.025864	0.003172	1.1529	-3.0975	0.2115	-0.726	0	160	1031	1
2026-02-12	15:29:35.290	15.575	2.345	-3.605	-0.01342	0.032696	1.204872	-3.087	0.21	-0.729	0	160	1031	1
2026-02-12	15:29:35.310	7.42	-1.505	-0.105	-0.00732	0.072468	1.276608	-3.078	0.1875	-0.6975	0	160	1031	1
2026-02-12	15:29:35.330	-2.38	-6.3	4.83	-0.01098	0.082472	1.335412	-3.093	0.177	-0.7095	0	160	1031	1
2026-02-12	15:29:35.350	-10.465	-11.83	11.235	-0.041724	0.036844	1.302716	-3.084	0.192	-0.708	0	160	1031	1
2026-02-12	15:29:35.370	-11.9	-15.645	17.85	-0.066856	-0.041968	1.212924	-3.0885	0.1875	-0.6855	0	160	1031	1
2026-02-12	15:29:35.390	-3.57	-16.625	22.89	-0.089792	-0.070272	1.084092	-3.0765	0.1965	-0.7005	0	160	1031	1
2026-02-12	15:29:35.410	10.5	-15.75	24.675	-0.11468	-0.044408	0.945988	-3.087	0.1755	-0.705	0	161	1034	1
2026-02-12	15:29:35.430	23.275	-13.79	23.415	-0.119804	-0.00976	0.787632	-3.0825	0.2055	-0.6945	0	161	1034	1
2026-02-12	15:29:35.450	27.755	-15.96	20.93	-0.105164	0.041968	0.76738	-3.1035	0.18	-0.6975	0	161	1034	1
2026-02-12	15:29:35.470	21.245	-18.69	21.21	-0.05612	0.016836	0.881328	-3.0945	0.165	-0.7035	0	161	1034	1
2026-02-12	15:29:35.490	14.56	-18.025	23.695	-0.032452	-0.074664	0.99796	-3.1095	0.18	-0.7005	0	161	1034	1
2026-02-12	15:29:35.510	13.825	-16.625	27.16	-0.01708	-0.119804	1.136796	-3.102	0.1695	-0.7035	0	161	1034	1
2026-02-12	15:29:35.530	10.92	-16.66	30.24	-0.006588	-0.08784	1.15168	-3.096	0.177	-0.711	0	161	1034	1
2026-02-12	15:29:35.550	7.315	-17.36	32.06	0	-0.047824	1.13338	-3.0975	0.189	-0.7065	0	161	1034	1
2026-02-12	15:29:35.570	5.215	-19.04	31.99	-0.011956	0.024644	1.02114	-3.099	0.1695	-0.7125	0	161	1034	1
2026-02-12	15:29:35.590	5.145	-18.48	29.47	-0.043676	0.097844	0.912072	-3.099	0.1695	-0.7125	0	161	1034	1
2026-02-12	15:29:35.610	-0.105	-18.41	24.85	-0.076128	0.135908	0.826184	-3.102	0.1605	-0.702	0	162	1041	1
2026-02-12	15:29:35.630	-0.91	-16.555	21.875	-0.086132	0.148596	0.763232	-3.105	0.1515	-0.693	0	162	1041	1
2026-02-12	15:29:35.650	-0.35	-12.985	15.05	-0.085156	0.172752	0.728828	-3.105	0.1515	-0.693	0	162	1041	1
2026-02-12	15:29:35.670	-0.28	-6.65	9.03	-0.043676	0.172264	0.765916	-3.105	0.1515	-0.693	0	162	1041	1
2026-02-12	15:29:35.690	5.39	1.365	5.67	0.025376	0.1525	0.839604	-3.1125	0.156	-0.69	0	162	1041	1
2026-02-12	15:29:35.710	8.47	7.77	6.23	0.055144	0.132736	0.936472	-3.114	0.1155	-0.6885	0	162	1041	1
2026-02-12	15:29:35.730	7.84	12.355	9.975	0.055144	0.199104	0.936228	-3.1035	0.132	-0.7005	0	162	1041	1
2026-02-12	15:29:35.750	4.55	12.285	13.405	0.014884	0.24522	0.9638	-3.108	0.1455	-0.702	0	162	1041	1
2026-02-12	15:29:35.770	3.57	7.7	12.81	-0.013908	0.249368	1.009428	-3.1065	0.126	-0.7065	0	162	1041	1
2026-02-12	15:29:35.790	3.745	2.205	9.275	-0.038308	0.252052	1.0187	-3.1095	0.123	-0.708	0	162	1041	1
2026-02-12	15:29:35.810	3.92	-2.94	5.495	-0.052216	0.238388	1.001376	-3.1095	0.135	-0.714	0	165	1033	1
2026-02-12	15:29:35.830	5.74	-6.825	3.745	-0.041968	0.233996	1.031388	-3.0915	0.1455	-0.72	0	165	1033	1
2026-02-12	15:29:35.850	9.8	-7.35	2.87	-0.056364	0.223504	1.050176	-3.102	0.1305	-0.72	0	165	1033	1
2026-02-12	15:29:35.870	13.79	-6.335	0.98	-0.073444	0.206424	1.084336	-3.111	0.126	-0.723	0	165	1033	1
2026-02-12	15:29:35.890	15.61	-3.92	-2.275	-0.063196	0.161772	1.120204	-3.12	0.096	-0.711	0	165	1033	1
2026-02-12	15:29:35.910	14.77	-0.595	-5.11	-0.026108	0.137616	1.170712	-3.099	0.126	-0.7215	0	165	1033	1
2026-02-12	15:29:35.930	10.885	2.555	-5.355	0.008784	0.132492	1.210484	-3.0975	0.159	-0.717	0	165	1033	1
2026-02-12	15:29:35.950	4.725	4.9	-1.855	0.022204	0.15616	1.226832	-3.0975	0.1515	-0.72	0	165	1033	1
2026-02-12	15:29:35.970	-2.52	4.55	2.73	0.001708	0.173728	1.234152	-3.0975	0.144	-0.717	0	165	1033	1
2026-02-12	15:29:35.990	-9.835	1.89	5.285	-0.031964	0.181292	1.231712	-3.105	0.153	-0.717	0	165	1033	1
2026-02-12	15:29:36.010	-14.91	-1.19	4.585	-0.05734	0.13298	1.15778	-3.0915	0.138	-0.7155	0	167	1031	1
2026-02-12	15:29:36.030	-11.865	-1.96	0.665	-0.042944	0.041724	1.065548	-3.093	0.1815	-0.711	0	167	1031	1
2026-02-12	15:29:36.050	-0.28	1.05	-3.815	-0.007808	-0.015372	0.963068	-3.0915	0.1725	-0.72	0	167	1031	1
2026-02-12	15:29:36.070	10.675	6.3	-7.21	0.048312	-0.010004	0.842532	-3.0915	0.1815	-0.7095	0	167	1031	1
2026-02-12	15:29:36.090	15.68	9.03	-8.75	0.074908	-0.00732	0.790072	-3.105	0.1725	-0.705	0	167	1031	1
2026-02-12	15:29:36.110	14.105	11.13	-11.41	0.112484	-0.01586	0.810324	-3.0975	0.153	-0.7095	0	167	1031	1
2026-02-12	15:29:36.130	10.5	12.46	-13.195	0.148352	-0.05368	0.885232	-3.09	0.162	-0.708	0	167	1031	1
2026-02-12	15:29:36.150	7.14	15.715	-14	0.19032	-0.054412	1.029924	-3.0855	0.1725	-0.711	0	167	1031	1
2026-02-12	15:29:36.170	3.22	21.595	-11.795	0.194468	-0.048556	1.08458	-3.078	0.1605	-0.708	0	167	1031	1
2026-02-12	15:29:36.190	-3.22	24.99	-7.91	0.132004	-0.022936	1.088728	-3.069	0.156	-0.708	0	167	1031	1
2026-02-12	15:29:36.210	-7.63	25.27	-5.95	0.066612	0.051484	1.068964	-3.0735	0.1515	-0.7125	0	169	1035	1
2026-02-12	15:29:36.230	-9.45	22.54	-5.95	0.013176	0.11956	1.016504	-3.0765	0.153	-0.7215	0	169	1035	1
2026-02-12	15:29:36.250	-9.94	17.99	-6.825	-0.010736	0.17324	0.91866	-3.0585	0.153	-0.708	0	169	1035	1
2026-02-12	15:29:36.270	-8.26	11.655	-7.49	-0.0366	0.210328	0.837164	-3.0705	0.1545	-0.711	0	169	1035	1
2026-02-12	15:29:36.290	-7.7	7.63	-7.07	-0.040016	0.208132	0.799832	-3.0705	0.153	-0.7125	0	169	1035	1
2026-02-12	15:29:36.310	-6.685	4.9	-6.055	-0.027816	0.179096	0.835212	-3.0705	0.156	-0.7065	0	169	1035	1
2026-02-12	15:29:36.330	-3.43	5.88	-5.075	-0.011224	0.161772	0.867908	-3.075	0.147	-0.717	0	169	1035	1
2026-02-12	15:29:36.350	-1.505	8.33	-3.745	0.018056	0.146644	0.910608	-3.0735	0.183	-0.735	0	169	1035	1
2026-02-12	15:29:36.370	-1.4	10.815	-1.89	0.041968	0.13176	0.953308	-3.066	0.1545	-0.7305	0	169	1035	1
2026-02-12	15:29:36.390	-1.4	12.985	0.07	0.04514	0.129564	0.972584	-3.0705	0.168	-0.735	0	169	1035	1
2026-02-12	15:29:36.410	-3.43	12.6	1.435	0.039772	0.12932	0.986248	-3.0675	0.1665	-0.714	0	171	1029	1
2026-02-12	15:29:36.430	-5.04	10.605	1.54	0.03172	0.127856	0.983564	-3.069	0.1545	-0.7125	0	171	1029	1
2026-02-12	15:29:36.450	-5.81	7.595	0.91	0.017568	0.128344	0.966972	-3.0555	0.1515	-0.7185	0	171	1029	1
2026-02-12	15:29:36.470	-5.67	4.585	0.49	0.017812	0.121268	0.962336	-3.0585	0.1425	-0.69	0	171	1029	1
2026-02-12	15:29:36.490	-3.36	1.4	0.525	0.02074	0.108336	0.994544	-3.0525	0.168	-0.702	0	171	1029	1
2026-02-12	15:29:36.510	-0.21	-2.485	0.42	-0.008784	0.096136	1.025532	-3.051	0.174	-0.702	0	171	1029	1
2026-02-12	15:29:36.530	2.66	-5.39	0.455	-0.023912	0.085644	1.05896	-3.0555	0.18	-0.696	0	171	1029	1
2026-02-12	15:29:36.550	2.45	-6.125	1.89	-0.006588	0.088328	1.114348	-3.048	0.1785	-0.699	0	171	1029	1
2026-02-12	15:29:36.570	2.1	-6.125	4.62	0.006344	0.107848	1.168516	-3.048	0.1755	-0.7065	0	171	1029	1
2026-02-12	15:29:36.590	0.175	-6.93	7.98	-0.00854	0.160796	1.194868	-3.057	0.171	-0.7035	0	171	1029	1
2026-02-12	15:29:36.610	-4.095	-8.61	11.235	-0.04514	0.1952	1.230492	-3.057	0.186	-0.732	0	170	1024	1
2026-02-12	15:29:36.630	-8.96	-11.165	14.735	-0.076128	0.181048	1.251232	-3.0615	0.189	-0.7365	0	170	1024	1
2026-02-12	15:29:36.650	-14.595	-13.615	18.515	-0.105164	0.127856	1.234884	-3.0615	0.189	-0.7365	0	170	1024	1
2026-02-12	15:29:36.670	-18.27	-14.07	22.015	-0.11712	0.02806	1.18218	-3.06	0.1845	-0.723	0	170	1024	1
2026-02-12	15:29:36.690	-17.15	-13.335	23.415	-0.119804	-0.023912	1.133624	-3.06	0.18	-0.711	0	170	1024	1
2026-02-12	15:29:36.710	-8.75	-10.08	25.725	-0.121268	-0.090524	1.006744	-3.063	0.1785	-0.7095	0	170	1024	1
2026-02-12	15:29:36.730	6.335	-3.36	26.495	-0.127124	-0.077348	0.849608	-3.0615	0.186	-0.7065	0	170	1024	1
2026-02-12	15:29:36.750	12.775	-0.7	24.675	-0.115656	-0.050752	0.795928	-3.0615	0.186	-0.702	0	170	1024	1
2026-02-12	15:29:36.770	12.565	0.98	23.03	-0.074664	-0.041968	0.83814	-3.0705	0.1725	-0.699	0	170	1024	1
2026-02-12	15:29:36.790	6.825	1.82	22.75	-0.04758	-0.09516	0.955748	-3.0735	0.159	-0.7005	0	170	1024	1
2026-02-12	15:29:36.810	2.52	5.95	24.64	-0.040504	-0.15616	1.132892	-3.0705	0.1695	-0.7005	0	168	1032	1
2026-02-12	15:29:36.830	0.175	9.94	27.58	-0.04392	-0.121756	1.164368	-3.0645	0.1755	-0.702	0	168	1032	1
2026-02-12	15:29:36.850	-3.99	10.115	30.205	-0.058316	-0.071736	1.124108	-3.06	0.168	-0.7005	0	168	1032	1
2026-02-12	15:29:36.870	-5.915	6.65	31.255	-0.0732	0.011468	1.071404	-3.0585	0.171	-0.7005	0	168	1032	1
2026-02-12	15:29:36.890	-7	1.505	30.73	-0.080764	0.095404	0.963068	-3.06	0.153	-0.702	0	168	1032	1
2026-02-12	15:29:36.910	-10.395	-3.22	29.645	-0.08052	0.146644	0.86498	-3.06	0.1515	-0.702	0	168	1032	1
2026-02-12	15:29:36.930	-13.79	-6.125	29.05	-0.070028	0.168604	0.793976	-3.0585	0.1665	-0.7035	0	168	1032	1
2026-02-12	15:29:36.950	-16.31	-7.875	28.665	-0.063928	0.151768	0.797636	-3.057	0.1695	-0.7035	0	168	1032	1
2026-02-12	15:29:36.970	-13.335	-5.95	27.615	-0.058072	0.149572	0.82228	-3.06	0.1635	-0.699	0	168	1032	1
2026-02-12	15:29:36.990	-12.32	-3.78	25.76	-0.056852	0.14762	0.88572	-3.06	0.15	-0.702	0	168	1032	1
2026-02-12	15:29:37.010	-10.815	-0.7	22.82	-0.05246	0.1281	0.928664	-3.0585	0.1575	-0.708	0	167	1035	1
2026-02-12	15:29:37.030	-9.835	0.525	19.215	-0.058072	0.12566	0.967948	-3.06	0.168	-0.708	0	167	1035	1
2026-02-12	15:29:37.050	-9.87	0.21	15.61	-0.05368	0.127368	0.992836	-3.06	0.168	-0.708	0	167	1035	1
2026-02-12	15:29:37.070	-10.92	-1.155	12.39	-0.057096	0.1342	1.005524	-3.06	0.168	-0.708	0	167	1035	1
2026-02-12	15:29:37.090	-11.27	-2.8	10.045	-0.061732	0.136884	1.013088	-3.051	0.177	-0.7005	0	167	1035	1
2026-02-12	15:29:37.110	-9.765	-3.36	9.03	-0.054412	0.152256	1.014796	-3.06	0.171	-0.7035	0	167	1035	1
2026-02-12	15:29:37.130	-6.475	-3.325	9.31	-0.043188	0.170312	1.009184	-3.0465	0.1755	-0.696	0	167	1035	1
2026-02-12	15:29:37.150	-0.77	-3.255	10.185	-0.050996	0.180072	1.01748	-3.0525	0.189	-0.699	0	167	1035	1
2026-02-12	15:29:37.170	5.285	-3.395	10.5	-0.065148	0.167872	1.054324	-3.06	0.174	-0.72	0	167	1035	1
2026-02-12	15:29:37.190	10.57	-3.815	8.47	-0.0854	0.13908	1.101172	-3.048	0.168	-0.7155	0	167	1035	1
2026-02-12	15:29:37.210	14.875	-5.425	3.57	-0.08906	0.109068	1.141676	-3.0525	0.177	-0.717	0	165	1030	1
2026-02-12	15:29:37.230	16.24	-6.72	-1.785	-0.061732	0.087108	1.198772	-3.063	0.135	-0.723	0	165	1030	1
2026-02-12	15:29:37.250	12.11	-7.875	-4.655	-0.032452	0.095648	1.230492	-3.048	0.1845	-0.7185	0	165	1030	1
2026-02-12	15:29:37.270	5.39	-8.68	-4.095	-0.02074	0.112484	1.238788	-3.06	0.1905	-0.711	0	165	1030	1
2026-02-12	15:29:37.290	-1.015	-9.205	-1.82	-0.023912	0.112728	1.24196	-3.0555	0.171	-0.717	0	165	1030	1
2026-02-12	15:29:37.310	-5.495	-9.66	0.105	-0.029524	0.082716	1.225368	-3.063	0.168	-0.72	0	165	1030	1
2026-02-12	15:29:37.330	-6.86	-10.115	0.28	-0.038552	0.016592	1.15656	-3.0555	0.1755	-0.726	0	165	1030	1
2026-02-12	15:29:37.350	-2.695	-9.695	-2.03	-0.039528	-0.052216	1.05774	-3.0555	0.1875	-0.7155	0	165	1030	1
2026-02-12	15:29:37.370	5.6	-6.965	-6.405	-0.0305	-0.087352	0.970388	-3.066	0.162	-0.7065	0	165	1030	1
2026-02-12	15:29:37.390	14	-2.555	-11.865	-0.004148	-0.096868	0.86742	-3.0585	0.174	-0.7125	0	165	1030	1
2026-02-12	15:29:37.410	18.025	0.21	-16.345	0.028548	-0.098332	0.831064	-3.0735	0.168	-0.705	0	164	1038	1
2026-02-12	15:29:37.430	19.67	4.06	-19.04	0.080276	-0.10126	0.859856	-3.0705	0.1725	-0.708	0	164	1038	1
2026-02-12	15:29:37.450	20.23	8.4	-19.985	0.095648	-0.129808	0.93086	-3.06	0.186	-0.7035	0	164	1038	1
2026-02-12	15:29:37.470	20.965	14.42	-20.755	0.095892	-0.145912	1.020896	-3.06	0.1695	-0.708	0	164	1038	1
2026-02-12	15:29:37.490	21.35	20.405	-21.105	0.078324	-0.111752	1.042612	-3.06	0.174	-0.711	0	164	1038	1
2026-02-12	15:29:37.510	18.62	22.295	-22.26	0.056852	-0.060268	1.030168	-3.054	0.192	-0.72	0	164	1038	1
2026-02-12	15:29:37.530	14.525	20.72	-24.675	0.025132	0.001708	0.989908	-3.048	0.165	-0.708	0	164	1038	1
2026-02-12	15:29:37.550	8.085	15.4	-27.195	0.011468	0.040992	0.960628	-3.0465	0.1725	-0.7155	0	164	1038	1
2026-02-12	15:29:37.570	2.8	10.36	-29.05	-0.001708	0.067588	0.931104	-3.0495	0.174	-0.7005	0	164	1038	1
2026-02-12	15:29:37.590	-1.82	5.565	-29.54	0.003172	0.08174	0.914756	-3.06	0.1575	-0.7155	0	164	1038	1
2026-02-12	15:29:37.610	-4.795	2.485	-28.945	0.005856	0.103456	0.9089	-3.0495	0.1545	-0.7215	0	162	1041	1
2026-02-12	15:29:37.630	-6.93	1.12	-27.23	0.006344	0.119072	0.8967	-3.045	0.1545	-0.7125	0	162	1041	1
2026-02-12	15:29:37.650	-7.63	1.225	-25.165	0.001952	0.131272	0.8845	-3.048	0.1635	-0.7065	0	162	1041	1
2026-02-12	15:29:37.670	-8.68	2.205	-22.925	-0.004148	0.148596	0.882304	-3.042	0.1755	-0.7035	0	162	1041	1
2026-02-12	15:29:37.690	-8.96	3.395	-20.72	-0.004148	0.15738	0.8906	-3.0465	0.18	-0.7125	0	162	1041	1
2026-02-12	15:29:37.710	-9.765	4.235	-18.725	-0.007564	0.162992	0.903044	-3.0465	0.18	-0.7125	0	162	1041	1
2026-02-12	15:29:37.730	-10.29	4.34	-17.08	-0.01098	0.16104	0.919636	-3.0495	0.177	-0.7155	0	162	1041	1
2026-02-12	15:29:37.750	-10.5	4.095	-16.31	-0.009516	0.161528	0.932324	-3.0525	0.1755	-0.72	0	162	1041	1
2026-02-12	15:29:37.770	-10.535	3.745	-14.77	-0.012444	0.160796	0.94916	-3.054	0.1725	-0.705	0	162	1041	1
2026-02-12	15:29:37.790	-10.675	2.835	-13.405	-0.012444	0.156648	0.9821	-3.051	0.183	-0.699	0	162	1041	1
2026-02-12	15:29:37.810	-9.94	2.66	-12.285	-0.010736	0.1403	1.006988	-3.045	0.1995	-0.705	0	161	1031	1
2026-02-12	15:29:37.830	-8.47	2.835	-10.955	-0.01586	0.106384	1.02968	-3.0465	0.1965	-0.708	0	161	1031	1
2026-02-12	15:29:37.850	-5.075	3.255	-9.135	-0.013176	0.067832	1.039928	-3.0495	0.189	-0.7125	0	161	1031	1
2026-02-12	15:29:37.870	-0.315	3.325	-6.86	-0.015372	0.041724	1.059204	-3.0495	0.1905	-0.7065	0	161	1031	1
2026-02-12	15:29:37.890	3.08	2.94	-4.585	-0.022692	0.02928	1.087508	-3.045	0.1935	-0.7065	0	161	1031	1
2026-02-12	15:29:37.910	4.025	0.84	-2.625	-0.025376	0.042944	1.122644	-3.045	0.1995	-0.7065	0	161	1031	1
2026-02-12	15:29:37.930	0.7	-3.71	-0.84	-0.031476	0.075396	1.175836	-3.0465	0.207	-0.708	0	161	1031	1
2026-02-12	15:29:37.950	-3.815	-10.01	0.595	-0.052948	0.115168	1.276364	-3.048	0.204	-0.7125	0	161	1031	1
2026-02-12	15:29:37.970	-10.885	-16.695	2.345	-0.077836	0.130296	1.36152	-3.054	0.204	-0.7275	0	161	1031	1
2026-02-12	15:29:37.990	-17.815	-23.135	4.9	-0.075884	0.048556	1.354444	-3.06	0.207	-0.738	0	161	1031	1
2026-02-12	15:29:38.010	-15.12	-26.635	8.085	-0.05856	-0.043432	1.256112	-3.054	0.219	-0.7335	0	159	1028	1
2026-02-12	15:29:38.030	-2.975	-27.195	11.83	-0.04392	-0.063684	1.094096	-3.048	0.222	-0.7245	0	159	1028	1
2026-02-12	15:29:38.050	10.36	-24.745	15.435	-0.049532	-0.070516	0.93696	-3.0555	0.213	-0.7185	0	159	1028	1
2026-02-12	15:29:38.070	22.085	-19.81	17.255	-0.078324	-0.091012	0.769332	-3.063	0.21	-0.7185	0	159	1028	1
2026-02-12	15:29:38.090	22.12	-19.39	17.5	-0.074176	-0.111508	0.779824	-3.069	0.201	-0.714	0	159	1028	1
2026-02-12	15:29:38.110	18.83	-14.77	17.815	-0.048556	-0.151524	0.870836	-3.072	0.198	-0.7095	0	159	1028	1
2026-02-12	15:29:38.130	11.55	-8.295	19.635	-0.044408	-0.22082	1.041392	-3.0675	0.201	-0.711	0	159	1028	1
2026-02-12	15:29:38.150	11.48	3.99	22.12	-0.096136	-0.217648	1.093364	-3.063	0.204	-0.7185	0	159	1028	1
2026-02-12	15:29:38.170	6.86	12.425	22.785	-0.121024	-0.131516	1.118984	-3.063	0.201	-0.7245	0	159	1028	1
2026-02-12	15:29:38.190	2.24	16.415	21	-0.128588	-0.026352	1.065304	-3.0615	0.192	-0.726	0	159	1028	1
2026-02-12	15:29:38.210	-1.4	15.47	18.935	-0.120292	0.0488	1.007232	-3.0585	0.1905	-0.726	0	159	1037	1
2026-02-12	15:29:38.230	-3.78	12.04	18.34	-0.099796	0.115656	0.914024	-3.0585	0.189	-0.723	0	159	1037	1
2026-02-12	15:29:38.250	-7.91	6.195	19.915	-0.07515199	0.125172	0.877668	-3.0585	0.1965	-0.72	0	159	1037	1
2026-02-12	15:29:38.270	-6.58	1.995	22.61	-0.05734	0.138836	0.843752	-3.0555	0.1965	-0.7155	0	159	1037	1
2026-02-12	15:29:38.290	-5.495	-1.54	25.62	-0.046116	0.133468	0.857904	-3.0555	0.1875	-0.711	0	159	1037	1
2026-02-12	15:29:38.310	-2.975	-2.45	28.175	-0.035136	0.131516	0.878156	-3.0555	0.1935	-0.717	0	159	1037	1
2026-02-12	15:29:38.330	-0.805	-2.345	29.61	-0.024644	0.137616	0.898652	-3.0525	0.1995	-0.72	0	159	1037	1
2026-02-12	15:29:38.350	-0.14	-1.89	29.4	-0.03782	0.141764	0.93696	-3.0495	0.1995	-0.7155	0	159	1037	1
2026-02-12	15:29:38.370	-0.315	0.035	27.405	-0.049776	0.142496	0.953796	-3.051	0.195	-0.72	0	159	1037	1
2026-02-12	15:29:38.390	-1.085	1.96	23.695	-0.05612	0.148596	0.975756	-3.054	0.186	-0.723	0	159	1037	1
2026-02-12	15:29:38.410	-1.225	3.955	19.075	-0.054656	0.170556	0.994056	-3.0495	0.1845	-0.72	0	159	1035	1
2026-02-12	15:29:38.430	-0.91	5.88	14.595	-0.05002	0.173972	1.005524	-3.0465	0.1935	-0.7215	0	159	1035	1
2026-02-12	15:29:38.450	1.365	7.035	11.235	-0.035136	0.181048	1.001376	-3.045	0.201	-0.7245	0	159	1035	1
2026-02-12	15:29:38.470	5.845	7	9.17	-0.033428	0.199836	1.004792	-3.045	0.201	-0.7245	0	159	1035	1
2026-02-12	15:29:38.490	10.605	5.285	8.12	-0.034892	0.1891	1.044564	-3.045	0.201	-0.7245	0	159	1035	1
2026-02-12	15:29:38.510	15.365	2.975	6.685	-0.054412	0.157136	1.072868	-3.045	0.201	-0.7245	0	159	1035	1
2026-02-12	15:29:38.530	19.565	-0.77	2.94	-0.069296	0.125904	1.111176	-3.0315	0.198	-0.7305	0	159	1035	1
2026-02-12	15:29:38.550	22.435	-4.445	-2.94	-0.076616	0.089548	1.155584	-3.033	0.1905	-0.714	0	159	1035	1
2026-02-12	15:29:38.570	20.93	-7.455	-8.995	-0.058804	0.08418	1.203164	-3.033	0.1935	-0.732	0	159	1035	1
2026-02-12	15:29:38.590	13.685	-9.485	-12.81	-0.026108	0.099796	1.233908	-3.027	0.2055	-0.723	0	159	1035	1
2026-02-12	15:29:38.610	4.34	-10.5	-13.65	-0.012688	0.11468	1.244888	-3.0435	0.1905	-0.7275	0	160	1033	1
2026-02-12	15:29:38.630	-3.99	-10.885	-13.16	-0.021472	0.12444	1.247816	-3.0435	0.183	-0.729	0	160	1033	1
2026-02-12	15:29:38.650	-9.73	-11.025	-12.845	-0.025864	0.096136	1.207312	-3.045	0.198	-0.7215	0	160	1033	1
2026-02-12	15:29:38.670	-10.43	-11.2	-14.105	-0.042944	0.040016	1.09556	-3.051	0.189	-0.735	0	160	1033	1
2026-02-12	15:29:38.690	-4.06	-10.325	-17.5	-0.037576	-0.008052	0.998204	-3.0525	0.1935	-0.729	0	160	1033	1
2026-02-12	15:29:38.710	3.115	-7.175	-22.435	-0.02806	-0.018788	0.866444	-3.0555	0.186	-0.744	0	160	1033	1
2026-02-12	15:29:38.730	7.035	-6.16	-28.035	0.000732	-0.050508	0.7808	-3.06	0.168	-0.7245	0	160	1033	1
2026-02-12	15:29:38.750	10.08	-4.515	-33.74	0.037332	-0.069296	0.773236	-3.0615	0.1785	-0.7185	0	160	1033	1
2026-02-12	15:29:38.770	9.065	-0.63	-38.045	0.073932	-0.101748	0.814716	-3.063	0.183	-0.7245	0	160	1033	1
2026-02-12	15:29:38.790	8.75	7.42	-41.3	0.108092	-0.130784	0.904508	-3.066	0.183	-0.726	0	160	1033	1
2026-02-12	15:29:38.810	8.12	11.55	-41.72	0.12566	-0.117364	0.9455	-3.066	0.18	-0.7215	0	161	1038	1
2026-02-12	15:29:38.830	5.425	19.67	-40.81	0.149572	-0.071492	0.99552	-3.06	0.186	-0.726	0	161	1038	1
2026-02-12	15:29:38.850	-2.52	22.33	-37.38	0.12322	-0.03172	1.036512	-3.06	0.2055	-0.7425	0	161	1038	1
2026-02-12	15:29:38.870	-11.515	20.02	-34.545	0.077592	-0.013908	1.042124	-3.0675	0.2085	-0.7545	0	161	1038	1
2026-02-12	15:29:38.890	-19.985	12.32	-33.565	0.035136	0.001464	1.035292	-3.063	0.2055	-0.744	0	161	1038	1
2026-02-12	15:29:38.910	-25.655	2.87	-34.545	0.001952	0.009272	1.004792	-3.0555	0.2235	-0.735	0	161	1038	1
2026-02-12	15:29:38.930	-27.545	-5.25	-36.085	-0.005612	0.026596	0.973316	-3.057	0.2265	-0.7305	0	161	1038	1
2026-02-12	15:29:38.950	-27.09	-9.94	-36.75	-0.009028	0.060512	0.929884	-3.0645	0.2235	-0.726	0	161	1038	1
2026-02-12	15:29:38.970	-25.97	-11.2	-35.945	-0.007564	0.073444	0.88938	-3.069	0.231	-0.7305	0	161	1038	1
2026-02-12	15:29:38.990	-22.47	-9.625	-33.915	-0.001464	0.08784	0.882548	-3.069	0.2325	-0.7305	0	161	1038	1
2026-02-12	15:29:39.010	-17.15	-5.705	-31.465	-0.001464	0.088572	0.894504	-3.0735	0.231	-0.72	0	162	1035	1
2026-02-12	15:29:39.030	-11.2	0	-28.77	-0.005368	0.091988	0.919392	-3.0765	0.243	-0.7155	0	162	1035	1
2026-02-12	15:29:39.050	-5.565	6.16	-26.005	-0.008052	0.11102	0.937448	-3.0765	0.2445	-0.7245	0	162	1035	1
2026-02-12	15:29:39.070	-1.68	10.325	-23.31	-0.007564	0.116144	0.970876	-3.0795	0.234	-0.7245	0	162	1035	1
2026-02-12	15:29:39.090	1.19	12.53	-20.86	-0.002928	0.104188	1.010892	-3.0795	0.24	-0.723	0	162	1035	1
2026-02-12	15:29:39.110	3.535	13.16	-18.27	-0.004148	0.091256	1.0431	-3.078	0.2505	-0.7245	0	162	1035	1
2026-02-12	15:29:39.130	5.74	12.11	-15.575	-0.006832	0.078812	1.06872	-3.0825	0.261	-0.72	0	162	1035	1
2026-02-12	15:29:39.150	8.05	9.59	-13.055	-0.01708	0.063196	1.075308	-3.09	0.258	-0.72	0	162	1035	1
2026-02-12	15:29:39.170	11.34	7.14	-10.29	-0.015616	0.031964	1.074332	-3.084	0.252	-0.723	0	162	1035	1
2026-02-12	15:29:39.190	16.03	5.845	-6.79	-0.008784	-0.001708	1.0797	-3.081	0.2475	-0.723	0	162	1035	1
2026-02-12	15:29:39.210	19.985	5.6	-3.08	-0.010004	-0.006344	1.115812	-3.084	0.2445	-0.7275	0	160	1028	1
2026-02-12	15:29:39.230	18.9	5.495	0.63	-0.003904	0.006832	1.147044	-3.078	0.243	-0.7275	0	160	1028	1
2026-02-12	15:29:39.250	14.315	4.165	4.55	-0.012444	0.034648	1.16876	-3.081	0.2385	-0.7245	0	160	1028	1
2026-02-12	15:29:39.270	9.45	1.4	8.715	-0.032696	0.065148	1.199016	-3.084	0.2325	-0.7245	0	160	1028	1
2026-02-12	15:29:39.290	4.795	-1.715	13.895	-0.074664	0.085156	1.233664	-3.0825	0.228	-0.72	0	160	1028	1
2026-02-12	15:29:39.310	0.035	-4.48	20.65	-0.121024	0.093452	1.241716	-3.081	0.2265	-0.723	0	160	1028	1
2026-02-12	15:29:39.330	-4.585	-7.035	29.19	-0.153232	0.065148	1.192428	-3.081	0.2415	-0.7365	0	160	1028	1
2026-02-12	15:29:39.350	-5.355	-9.135	38.5	-0.167628	-0.01342	1.090436	-3.09	0.252	-0.744	0	160	1028	1
2026-02-12	15:29:39.370	-0.77	-10.465	46.06	-0.169824	-0.073688	0.99186	-3.09	0.2475	-0.7485	0	160	1028	1
2026-02-12	15:29:39.390	6.37	-9.59	50.365	-0.17202	-0.101748	0.872056	-3.087	0.237	-0.741	0	160	1028	1
2026-02-12	15:29:39.410	10.36	-10.395	51.31	-0.15982	-0.131516	0.808616	-3.084	0.2295	-0.729	0	158	1035	1
2026-02-12	15:29:39.430	13.58	-10.325	50.19	-0.116632	-0.127368	0.803004	-3.0855	0.2265	-0.7185	0	158	1035	1
2026-02-12	15:29:39.450	11.76	-10.395	47.04	-0.07905599	-0.170556	0.873764	-3.0855	0.225	-0.717	0	158	1035	1
2026-02-12	15:29:39.470	7.84	-9.24	48.58	-0.065148	-0.194956	1.038952	-3.087	0.213	-0.7215	0	158	1035	1
2026-02-12	15:29:39.490	5.67	-5.67	48.79	-0.040748	-0.15128	1.06628	-3.096	0.2235	-0.7275	0	158	1035	1
2026-02-12	15:29:39.510	-2.38	-3.71	47.985	-0.021472	-0.137128	1.087508	-3.09	0.2385	-0.7335	0	158	1035	1
2026-02-12	15:29:39.530	-7.035	-4.025	47.705	-0.02928	-0.066368	1.038708	-3.0795	0.2445	-0.72	0	158	1035	1
2026-02-12	15:29:39.550	-9.205	-5.565	46.55	-0.036112	0.001952	0.980148	-3.0825	0.2415	-0.72	0	158	1035	1
2026-02-12	15:29:39.570	-10.745	-7.525	45.115	-0.047824	0.061244	0.899872	-3.0795	0.2355	-0.723	0	158	1035	1
2026-02-12	15:29:39.590	-15.505	-10.185	43.12	-0.063196	0.094916	0.846924	-3.0855	0.249	-0.7185	0	158	1035	1
2026-02-12	15:29:39.610	-17.29	-11.69	40.74	-0.062708	0.104432	0.83692	-3.09	0.2415	-0.7185	0	157	1039	1
2026-02-12	15:29:39.630	-14.735	-11.41	37.765	-0.058804	0.109556	0.870836	-3.093	0.2325	-0.729	0	157	1039	1
2026-02-12	15:29:39.650	-10.08	-8.715	34.23	-0.053192	0.12688	0.914756	-3.093	0.2265	-0.7425	0	157	1039	1
2026-02-12	15:29:39.670	-8.085	-5.145	30.275	-0.040016	0.125904	0.956236	-3.0885	0.2385	-0.744	0	157	1039	1
2026-02-12	15:29:39.690	-5.95	-0.245	25.9	-0.037332	0.121024	0.959408	-3.084	0.2445	-0.735	0	157	1039	1
2026-02-12	15:29:39.710	-5.075	2.975	21.35	-0.026352	0.104676	0.973072	-3.0795	0.228	-0.726	0	157	1039	1
2026-02-12	15:29:39.730	-2.31	5.81	17.08	-0.010248	0.121756	0.966728	-3.0825	0.2265	-0.72	0	157	1039	1
2026-02-12	15:29:39.750	-3.045	6.79	14.175	0.00244	0.127368	0.97722	-3.0825	0.2235	-0.717	0	157	1039	1
2026-02-12	15:29:39.770	-3.92	8.54	12.88	0.00976	0.121024	0.996252	-3.0765	0.225	-0.7155	0	157	1039	1
2026-02-12	15:29:39.790	-3.325	12.11	13.44	0.001952	0.106384	1.016504	-3.0735	0.243	-0.7185	0	157	1039	1
2026-02-12	15:29:39.810	0.07	17.465	15.015	-0.007808	0.105164	1.030656	-3.075	0.255	-0.7185	0	156	1031	1
2026-02-12	15:29:39.830	5.495	22.995	16.135	-0.031476	0.124684	1.025532	-3.0735	0.2355	-0.7065	0	156	1031	1
2026-02-12	15:29:39.850	9.73	25.375	15.4	-0.044652	0.128344	1.036024	-3.0735	0.228	-0.72	0	156	1031	1
2026-02-12	15:29:39.870	11.2	25.305	14.105	-0.052948	0.121756	1.056764	-3.0735	0.228	-0.72	0	156	1031	1
2026-02-12	15:29:39.890	12.005	23.17	9.835	-0.05978	0.100284	1.105808	-3.0735	0.228	-0.72	0	156	1031	1
2026-02-12	15:29:39.910	13.335	17.71	4.13	-0.04148	0.066612	1.145824	-3.0735	0.228	-0.72	0	156	1031	1
2026-02-12	15:29:39.930	13.37	10.57	-1.89	-0.025376	0.078812	1.186328	-3.063	0.2265	-0.714	0	156	1031	1
2026-02-12	15:29:39.950	9.625	3.01	-7.07	-0.010492	0.10004	1.223904	-3.048	0.213	-0.7035	0	156	1031	1
2026-02-12	15:29:39.970	3.325	-4.27	-10.71	0.002928	0.11712	1.231712	-3.051	0.2085	-0.6975	0	156	1031	1
2026-02-12	15:29:39.990	-2.975	-11.34	-13.44	0.003172	0.121756	1.228052	-3.051	0.228	-0.705	0	156	1031	1
2026-02-12	15:29:40.010	-7.63	-18.025	-16.59	-0.026596	0.076128	1.201944	-3.0465	0.2295	-0.7035	0	154	1032	1
2026-02-12	15:29:40.030	-8.925	-23.135	-21.805	-0.066368	-0.00366	1.126792	-3.0585	0.2235	-0.705	0	154	1032	1
2026-02-12	15:29:40.050	-5.6	-25.27	-29.33	-0.07124799	-0.06954	1.03456	-3.066	0.2235	-0.708	0	154	1032	1
2026-02-12	15:29:40.070	1.715	-22.89	-37.31	-0.056852	-0.096624	0.93818	-3.066	0.2325	-0.7035	0	154	1032	1
2026-02-12	15:29:40.090	7.63	-18.48	-43.33	-0.037332	-0.101504	0.872056	-3.0645	0.2445	-0.705	0	154	1032	1
2026-02-12	15:29:40.110	9.17	-12.495	-47.145	0.001464	-0.111752	0.882304	-3.075	0.2505	-0.702	0	154	1032	1
2026-02-12	15:29:40.130	9.275	-5.355	-49.105	0.028304	-0.15006	0.915732	-3.0855	0.2505	-0.7095	0	154	1032	1
2026-02-12	15:29:40.150	12.04	2.695	-50.26	0.043188	-0.171776	0.966484	-3.081	0.24	-0.708	0	154	1032	1
2026-02-12	15:29:40.170	16.73	10.78	-50.75	0.039528	-0.14884	1.021384	-3.078	0.2445	-0.699	0	154	1032	1
2026-02-12	15:29:40.190	17.78	16.905	-51.135	0.033428	-0.080032	1.02114	-3.078	0.2475	-0.705	0	154	1032	1
2026-02-12	15:29:40.210	16.52	19.355	-51.555	0.02074	-0.010004	0.973072	-3.0825	0.246	-0.708	0	153	1040	1
2026-02-12	15:29:40.230	14.63	17.395	-51.94	0.00244	0.047092	0.931104	-3.0885	0.2415	-0.708	0	153	1040	1
2026-02-12	15:29:40.250	11.48	12.635	-52.01	-0.010004	0.065392	0.922808	-3.09	0.231	-0.699	0	153	1040	1
2026-02-12	15:29:40.270	7.875	7.42	-51.73	-0.012688	0.066612	0.938424	-3.093	0.2325	-0.6975	0	153	1040	1
2026-02-12	15:29:40.290	4.795	2.94	-51.24	-0.00366	0.055388	0.945256	-3.09	0.2475	-0.702	0	153	1040	1
2026-02-12	15:29:40.310	1.155	-0.875	-50.75	0.00244	0.034648	0.951844	-3.09	0.246	-0.705	0	153	1040	1
2026-02-12	15:29:40.330	-1.47	-2.765	-50.435	0.007564	0.024156	0.94428	-3.0915	0.249	-0.7065	0	153	1040	1
2026-02-12	15:29:40.350	-3.57	-2.73	-50.015	0.013664	0.027816	0.909876	-3.0975	0.2565	-0.693	0	153	1040	1
2026-02-12	15:29:40.370	-5.075	-1.015	-48.965	0.019764	0.035624	0.870348	-3.1035	0.243	-0.6915	0	153	1040	1
2026-02-12	15:29:40.390	-6.685	1.225	-47.145	0.018056	0.046116	0.864004	-3.105	0.2445	-0.696	0	153	1040	1
2026-02-12	15:29:40.410	-6.79	3.395	-45.395	-0.003904	0.056852	0.878644	-3.1095	0.2565	-0.6915	0	151	1036	1
2026-02-12	15:29:40.430	-5.6	4.935	-44.065	-0.027084	0.06222	0.902556	-3.1095	0.2535	-0.6945	0	151	1036	1
2026-02-12	15:29:40.450	-3.535	5.6	-42.7	-0.029768	0.093452	0.936472	-3.1125	0.243	-0.6975	0	151	1036	1
2026-02-12	15:29:40.470	-1.505	4.165	-40.67	-0.03294	0.107604	0.981612	-3.129	0.2205	-0.7005	0	151	1036	1
2026-02-12	15:29:40.490	1.505	1.645	-37.345	-0.037332	0.102236	1.015772	-3.126	0.2325	-0.702	0	151	1036	1
2026-02-12	15:29:40.510	5.74	-0.77	-32.97	-0.044896	0.076616	1.04798	-3.1155	0.2655	-0.69	0	151	1036	1
2026-02-12	15:29:40.530	11.27	-1.995	-28.035	-0.051728	0.05124	1.08946	-3.1155	0.2655	-0.681	0	151	1036	1
2026-02-12	15:29:40.550	14.805	-1.785	-22.47	-0.05124	0.031232	1.13582	-3.12	0.2775	-0.7005	0	151	1036	1
2026-02-12	15:29:40.570	14.28	-1.435	-15.96	-0.047824	0.032208	1.159244	-3.129	0.2925	-0.72	0	151	1036	1
2026-02-12	15:29:40.590	11.2	-2.31	-8.82	-0.068076	0.03904	1.189256	-3.1305	0.273	-0.708	0	151	1036	1
2026-02-12	15:29:40.610	7.805	-4.935	-1.995	-0.10004	0.072224	1.22732	-3.1305	0.249	-0.7005	0	149	1029	1
2026-02-12	15:29:40.630	3.395	-8.47	4.48	-0.13298	0.107848	1.272948	-3.1335	0.246	-0.702	0	149	1029	1
2026-02-12	15:29:40.650	-2.94	-12.6	11.62	-0.166164	0.092964	1.285392	-3.135	0.2565	-0.7035	0	149	1029	1
2026-02-12	15:29:40.670	-7.875	-15.715	19.04	-0.182756	0.023668	1.258064	-3.135	0.2655	-0.705	0	149	1029	1
2026-02-12	15:29:40.690	-6.72	-15.89	25.34	-0.173728	-0.082472	1.191452	-3.141	0.267	-0.711	0	149	1029	1
2026-02-12	15:29:40.710	2.17	-12.915	30.1	-0.153232	-0.13908	1.07116	-3.147	0.267	-0.7245	0	149	1029	1
2026-02-12	15:29:40.730	13.09	-6.16	32.795	-0.14518	-0.126636	0.922808	-3.1425	0.261	-0.7245	0	149	1029	1
2026-02-12	15:29:40.750	23.905	0.84	33.635	-0.139324	-0.103456	0.748836	-3.1395	0.2535	-0.708	0	149	1029	1
2026-02-12	15:29:40.770	23.275	1.715	32.97	-0.113704	-0.096868	0.749568	-3.1425	0.252	-0.6945	0	149	1029	1
2026-02-12	15:29:40.790	22.68	4.2	33.11	-0.079788	-0.117364	0.841312	-3.1395	0.252	-0.6975	0	149	1029	1
2026-02-12	15:29:40.810	18.305	4.585	35.07	-0.0488	-0.158844	1.043832	-3.1335	0.2475	-0.699	0	148	1037	1
2026-02-12	15:29:40.830	16.94	8.575	38.255	-0.058316	-0.159088	1.13216	-3.1275	0.2415	-0.702	0	148	1037	1
2026-02-12	15:29:40.850	7.42	8.19	41.125	-0.054412	-0.14274	1.19072	-3.12	0.2475	-0.7005	0	148	1037	1
2026-02-12	15:29:40.870	-1.155	4.13	42.77	-0.055876	-0.080764	1.108248	-3.1215	0.249	-0.7035	0	148	1037	1
2026-02-12	15:29:40.890	-5.145	-2.87	42.945	-0.060268	0.005856	1.007232	-3.1245	0.24	-0.711	0	148	1037	1
2026-02-12	15:29:40.910	-4.41	-8.61	42.105	-0.073688	0.097112	0.884988	-3.126	0.2445	-0.702	0	148	1037	1
2026-02-12	15:29:40.930	-8.365	-13.615	41.195	-0.0793	0.125904	0.826184	-3.12	0.2175	-0.6975	0	148	1037	1
2026-02-12	15:29:40.950	-14.525	-17.29	40.075	-0.078324	0.133712	0.784948	-3.12	0.2175	-0.6975	0	148	1037	1
2026-02-12	15:29:40.970	-14.245	-18.69	37.87	-0.07686	0.147132	0.753716	-3.132	0.2415	-0.6945	0	148	1037	1
2026-02-12	15:29:40.990	-12.53	-17.465	35.77	-0.06734399	0.153232	0.805444	-3.123	0.2265	-0.6885	0	148	1037	1
2026-02-12	15:29:41.010	-7.945	-12.6	33.425	-0.055632	0.184708	0.878888	-3.1215	0.2325	-0.6945	0	149	1038	1
2026-02-12	15:29:41.030	-6.475	-6.685	30.73	-0.05368	0.192272	0.933056	-3.1215	0.2385	-0.696	0	149	1038	1
2026-02-12	15:29:41.050	-6.72	-1.995	27.475	-0.054412	0.184464	0.973804	-3.1245	0.2265	-0.699	0	149	1038	1
2026-02-12	15:29:41.070	-5.495	1.295	23.765	-0.0549	0.188612	0.996252	-3.1185	0.24	-0.699	0	149	1038	1
2026-02-12	15:29:41.090	-4.795	2.205	20.44	-0.060512	0.184708	1.01504	-3.1125	0.2415	-0.6915	0	149	1038	1
2026-02-12	15:29:41.110	-3.92	1.645	17.78	-0.061732	0.183732	1.023336	-3.117	0.24	-0.705	0	149	1038	1
2026-02-12	15:29:41.130	-1.505	0.63	15.995	-0.054168	0.187636	1.012844	-3.111	0.231	-0.69	0	149	1038	1
2026-02-12	15:29:41.150	2.625	-0.84	15.295	-0.039284	0.187636	1.006256	-3.1125	0.2235	-0.7005	0	149	1038	1
2026-02-12	15:29:41.170	9.1	-2.275	14.56	-0.042456	0.179828	1.010404	-3.111	0.246	-0.693	0	149	1038	1
2026-02-12	15:29:41.190	16.45	-3.08	12.67	-0.056852	0.169092	1.033096	-3.117	0.2475	-0.6975	0	149	1038	1
2026-02-12	15:29:41.210	21.42	-3.535	8.61	-0.056852	0.152012	1.078236	-3.1245	0.2595	-0.7185	0	152	1029	1
2026-02-12	15:29:41.230	24.64	-3.78	2.765	-0.03904	0.124196	1.128012	-3.117	0.252	-0.7215	0	152	1029	1
2026-02-12	15:29:41.250	26.25	-2.94	-2.905	-0.01586	0.103212	1.192672	-3.117	0.252	-0.7215	0	152	1029	1
2026-02-12	15:29:41.270	22.365	-1.33	-6.405	-0.006832	0.12322	1.236348	-3.117	0.252	-0.7215	0	152	1029	1
2026-02-12	15:29:41.290	15.995	0.035	-7.385	0.001952	0.142008	1.241472	-3.117	0.252	-0.7215	0	152	1029	1
2026-02-12	15:29:41.310	10.395	0.035	-7.14	0.004636	0.181048	1.250012	-3.114	0.24	-0.7065	0	152	1029	1
2026-02-12	15:29:41.330	4.935	-2.485	-7.245	0.00732	0.17446	1.236836	-3.111	0.2355	-0.6945	0	152	1029	1
2026-02-12	15:29:41.350	2.065	-7	-8.785	-0.009516	0.113216	1.168516	-3.1125	0.231	-0.7005	0	152	1029	1
2026-02-12	15:29:41.370	5.67	-11.025	-12.6	-0.026108	0.026108	1.074088	-3.117	0.225	-0.702	0	152	1029	1
2026-02-12	15:29:41.390	13.79	-10.955	-17.64	-0.02562	-0.026108	0.991128	-3.1215	0.2265	-0.7035	0	152	1029	1
2026-02-12	15:29:41.410	22.96	-6.23	-22.785	-0.009272	-0.054412	0.863516	-3.126	0.2205	-0.702	0	155	1034	1
2026-02-12	15:29:41.430	26.285	-2.87	-27.825	0.029036	-0.031964	0.82838	-3.126	0.219	-0.7005	0	155	1034	1
2026-02-12	15:29:41.450	25.2	2.345	-31.535	0.067832	-0.021716	0.854	-3.129	0.2145	-0.702	0	155	1034	1
2026-02-12	15:29:41.470	20.335	5.425	-34.055	0.092476	-0.031232	0.926956	-3.1305	0.2055	-0.705	0	155	1034	1
2026-02-12	15:29:41.490	16.695	9.695	-35.7	0.088084	0.002928	1.01626	-3.1275	0.204	-0.7065	0	155	1034	1
2026-02-12	15:29:41.510	13.86	13.265	-36.4	0.058072	0.040992	1.036512	-3.1245	0.2085	-0.705	0	155	1034	1
2026-02-12	15:29:41.530	11.235	14.7	-37.065	0.01952	0.096624	1.01016	-3.1215	0.21	-0.7005	0	155	1034	1
2026-02-12	15:29:41.550	10.15	13.65	-37.59	0.003904	0.166896	0.9638	-3.1245	0.219	-0.699	0	155	1034	1
2026-02-12	15:29:41.570	8.015	10.745	-36.96	-0.005612	0.207644	0.907192	-3.1275	0.219	-0.7005	0	155	1034	1
2026-02-12	15:29:41.590	2.45	7.035	-34.965	-0.00488	0.20374	0.872056	-3.1245	0.2145	-0.6945	0	155	1034	1
2026-02-12	15:29:41.610	-3.08	3.43	-33.04	-0.006832	0.176168	0.859124	-3.1245	0.222	-0.69	0	158	1038	1
2026-02-12	15:29:41.630	-7.56	0.735	-32.34	-0.00732	0.133224	0.859124	-3.129	0.222	-0.6975	0	158	1038	1
2026-02-12	15:29:41.650	-10.22	-0.805	-32.515	-0.00122	0.096868	0.879376	-3.129	0.228	-0.699	0	158	1038	1
2026-02-12	15:29:41.670	-10.85	-1.05	-33.04	0.013908	0.080276	0.901824	-3.135	0.2325	-0.7005	0	158	1038	1
2026-02-12	15:29:41.690	-10.185	-0.28	-33.075	0.027816	0.108824	0.90402	-3.1425	0.222	-0.702	0	158	1038	1
2026-02-12	15:29:41.710	-10.535	0.42	-32.095	0.036356	0.139324	0.896944	-3.1425	0.2175	-0.6975	0	158	1038	1
2026-02-12	15:29:41.730	-10.71	0.56	-30.24	0.027328	0.172508	0.899628	-3.1395	0.2145	-0.696	0	158	1038	1
2026-02-12	15:29:41.750	-9.73	-0.665	-28.56	0.012444	0.206668	0.917196	-3.1425	0.225	-0.6945	0	158	1038	1
2026-02-12	15:29:41.770	-7.315	-2.52	-28.175	-0.003172	0.227408	0.944768	-3.1455	0.2355	-0.693	0	158	1038	1
2026-02-12	15:29:41.790	-3.885	-4.375	-29.33	-0.020496	0.217892	0.987468	-3.147	0.231	-0.696	0	158	1038	1
2026-02-12	15:29:41.810	0.91	-4.34	-31.185	-0.03416	0.1952	1.019188	-3.1515	0.231	-0.699	0	159	1027	1
2026-02-12	15:29:41.830	6.79	-2.555	-31.99	-0.02684	0.16714	1.047004	-3.1515	0.237	-0.696	0	159	1027	1
2026-02-12	15:29:41.850	10.745	0.35	-30.765	-0.016104	0.11346	1.085556	-3.1425	0.2505	-0.696	0	159	1027	1
2026-02-12	15:29:41.870	13.02	3.08	-27.895	-0.022204	0.08784	1.136552	-3.1425	0.2565	-0.6975	0	159	1027	1
2026-02-12	15:29:41.890	11.41	4.655	-24.185	-0.036356	0.08174	1.177788	-3.15	0.252	-0.6975	0	159	1027	1
2026-02-12	15:29:41.910	5.845	3.675	-19.88	-0.059048	0.0793	1.195356	-3.153	0.228	-0.693	0	159	1027	1
2026-02-12	15:29:41.930	0.21	0.525	-15.12	-0.093452	0.105896	1.24928	-3.1545	0.225	-0.6915	0	159	1027	1
2026-02-12	15:29:41.950	-7.595	-3.675	-9.275	-0.127612	0.116388	1.304912	-3.159	0.2415	-0.6945	0	159	1027	1
2026-02-12	15:29:41.970	-16.8	-8.19	-1.645	-0.1403	0.083692	1.297836	-3.159	0.2415	-0.6945	0	159	1027	1
2026-02-12	15:29:41.990	-21	-9.73	4.97	-0.147376	0.025132	1.245132	-3.1695	0.21	-0.693	0	159	1027	1
2026-02-12	15:29:42.010	-18.34	-8.575	14.175	-0.134932	-0.007808	1.110932	-3.1695	0.21	-0.693	0	159	1027	1
2026-02-12	15:29:42.030	-11.34	-6.125	20.3	-0.133956	-0.029036	1.007964	-3.1635	0.222	-0.687	0	159	1027	1
2026-02-12	15:29:42.050	4.2	-0.49	26.39	-0.148596	-0.01952	0.820572	-3.165	0.243	-0.6975	0	159	1027	1
2026-02-12	15:29:42.070	12.495	-0.42	29.575	-0.158844	-0.004148	0.7503	-3.1725	0.231	-0.711	0	159	1027	1
2026-02-12	15:29:42.090	14.28	-1.295	32.095	-0.143716	-0.00244	0.7686	-3.177	0.2445	-0.7065	0	159	1027	1
2026-02-12	15:29:42.110	7.84	-5.39	35.455	-0.120048	-0.031964	0.913292	-3.171	0.2565	-0.7245	0	159	1027	1
2026-02-12	15:29:42.130	2.31	-7.105	39.55	-0.108824	-0.072956	1.043588	-3.1755	0.1965	-0.6975	0	159	1027	1
2026-02-12	15:29:42.150	0.245	-5.635	44.065	-0.092964	-0.123464	1.192428	-3.162	0.2415	-0.693	0	159	1027	1
2026-02-12	15:29:42.170	-6.79	-6.72	47.88	-0.091744	-0.083692	1.190476	-3.1515	0.2385	-0.702	0	159	1027	1
