yyyy-MM-dd	HH:mm:ss.fff	gyrX	gyrY	gyrZ	accX	accY	accZ	magX	magY	magZ	Marker	Energy	Angle	Classification
2026-02-12	15:28:59.210	-63.35	-101.36	-259.42	1.796572	-0.311588	0.457256	0.177	0.492	-0.276	0	373	386	3
2026-02-12	15:28:59.230	-49.07	-97.055	-257.46	1.71898	-0.339892	0.501908	0.162	0.4575	-0.2625	0	373	386	3
2026-02-12	15:28:59.250	-31.255	-90.44	-250.39	1.643096	-0.383812	0.547048	0.1605	0.4365	-0.252	0	373	386	3
2026-02-12	15:28:59.270	-10.675	-81.025	-237.79	1.527196	-0.426756	0.580232	0.1635	0.4215	-0.246	0	373	386	3
2026-02-12	15:28:59.290	11.76	-68.775	-220.465	1.390312	-0.458476	0.599752	0.1755	0.396	-0.2385	0	373	386	3
2026-02-12	15:28:59.310	33.46	-54.495	-199.92	1.338096	-0.449448	0.582184	0.1875	0.3735	-0.234	0	373	386	3
2026-02-12	15:28:59.330	63.91	-23.345	-176.645	1.22854	-0.483852	0.560956	0.1965	0.351	-0.2265	0	373	386	3
2026-02-12	15:28:59.350	129.99	-16.765	-144.655	1.045052	-0.60024	0.548268	0.2055	0.3285	-0.216	0	373	386	3
2026-02-12	15:28:59.370	182.665	-41.405	-95.55	0.69662	-0.46604	0.638792	0.2175	0.312	-0.1995	0	373	386	3
2026-02-12	15:28:59.390	150.605	-56.385	-54.81	0.584136	-0.226188	0.687836	0.228	0.2955	-0.1845	0	373	386	3
2026-02-12	15:28:59.410	30.17	-37.835	-18.41	0.589016	-0.159088	0.730536	0.2295	0.285	-0.18	0	380	389	3
2026-02-12	15:28:59.430	-34.02	-17.08	3.92	0.546072	-0.097112	0.715652	0.2295	0.285	-0.18	0	380	389	3
2026-02-12	15:28:59.450	-91.21	-1.785	22.085	0.52582	-0.055632	0.661728	0.2235	0.2625	-0.1575	0	380	389	3
2026-02-12	15:28:59.470	-142.52	13.755	36.33	0.498492	-0.19886	0.589992	0.225	0.276	-0.171	0	380	389	3
2026-02-12	15:28:59.490	-162.225	21.07	53.83	0.49776	-0.3355	0.56242	0.222	0.279	-0.177	0	380	389	3
2026-02-12	15:28:59.510	-151.34	22.61	73.745	0.55266	-0.424316	0.550952	0.2205	0.2925	-0.1905	0	380	389	3
2026-02-12	15:28:59.530	-117.915	22.085	95.165	0.65148	-0.4514	0.561932	0.216	0.306	-0.207	0	380	389	3
2026-02-12	15:28:59.550	-67.62	25.585	114.345	0.786412	-0.460428	0.595848	0.213	0.327	-0.2235	0	380	389	3
2026-02-12	15:28:59.570	-8.61	32.9	134.505	0.886696	-0.438956	0.649528	0.204	0.3495	-0.234	0	380	389	3
2026-02-12	15:28:59.590	52.15	41.825	156.87	1.003816	-0.411628	0.673928	0.1935	0.363	-0.234	0	380	389	3
2026-02-12	15:28:59.610	108.185	51.45	177.03	1.1529	-0.32818	0.690764	0.186	0.3675	-0.234	0	392	428	3
2026-02-12	15:28:59.630	168.175	69.965	200.025	1.337852	-0.1586	0.645868	0.177	0.369	-0.237	0	392	428	3
2026-02-12	15:28:59.650	190.19	82.425	209.965	1.438868	-0.075884	0.59658	0.174	0.3885	-0.2265	0	392	428	3
2026-02-12	15:28:59.670	197.4	94.605	213.08	1.503772	-0.02074	0.548756	0.1695	0.3915	-0.2235	0	392	428	3
2026-02-12	15:28:59.690	190.26	106.12	207.865	1.56892	-0.007076	0.531676	0.159	0.3885	-0.234	0	392	428	3
2026-02-12	15:28:59.710	173.985	117.67	194.18	1.64334	-0.001464	0.558272	0.156	0.396	-0.225	0	392	428	3
2026-02-12	15:28:59.730	154	131.6	177.205	1.690432	-0.017568	0.618052	0.1545	0.408	-0.219	0	392	428	3
2026-02-12	15:28:59.750	135.555	147.035	162.75	1.692628	-0.017324	0.63562	0.1545	0.411	-0.228	0	392	428	3
2026-02-12	15:28:59.770	119.735	158.41	147.7	1.741428	-0.0061	0.64294	0.1545	0.417	-0.2385	0	392	428	3
2026-02-12	15:28:59.790	100.94	169.085	131.215	1.762168	-0.003416	0.665388	0.1635	0.423	-0.2475	0	392	428	3
2026-02-12	15:28:59.810	77.35	179.69	119.07	1.713856	-0.017812	0.65758	0.18	0.4245	-0.258	0	404	477	3
2026-02-12	15:28:59.830	47.53	187.32	110.705	1.618696	0.016348	0.585844	0.198	0.4305	-0.276	0	404	477	3
2026-02-12	15:28:59.850	12.67	189.805	104.125	1.54818	0.05124	0.51728	0.2055	0.435	-0.288	0	404	477	3
2026-02-12	15:28:59.870	-20.16	189.35	100.485	1.484252	0.052704	0.48556	0.243	0.447	-0.3165	0	404	477	3
2026-02-12	15:28:59.890	-49.875	187.04	99.855	1.39324	0.032696	0.448716	0.255	0.45	-0.3315	0	404	477	3
2026-02-12	15:28:59.910	-79.975	179.585	103.53	1.286856	0.027572	0.399428	0.2865	0.456	-0.342	0	404	477	3
2026-02-12	15:28:59.930	-116.97	167.79	110.215	1.230004	-0.005368	0.355508	0.294	0.468	-0.351	0	404	477	3
2026-02-12	15:28:59.950	-140.84	166.075	119	1.17364	-0.10858	0.334768	0.3135	0.492	-0.3645	0	404	477	3
2026-02-12	15:28:59.970	-124.95	165.2	128.52	1.060424	-0.16348	0.305732	0.342	0.5145	-0.369	0	404	477	3
2026-02-12	15:28:59.990	-72.205	151.13	131.95	0.878156	0.010492	0.19886	0.3705	0.5385	-0.375	0	404	477	3
2026-02-12	15:29:12.010	-7.105	-40.81	-36.085	0.49532	-0.46482	0.392352	0.222	0.723	-0.2715	0	324	337	3
2026-02-12	15:29:12.030	-30.065	-45.115	-40.53	0.491172	-0.426268	0.365756	0.2205	0.714	-0.2715	0	324	337	3
2026-02-12	15:29:12.050	-49.035	-48.58	-45.815	0.484828	-0.423096	0.353556	0.2115	0.7095	-0.27	0	324	337	3
2026-02-12	15:29:12.070	-47.81	-50.295	-53.76	0.4697	-0.397476	0.35624	0.204	0.7155	-0.2685	0	324	337	3
2026-02-12	15:29:12.090	-33.74	-50.855	-65.065	0.474336	-0.337452	0.370636	0.1995	0.7155	-0.264	0	324	337	3
2026-02-12	15:29:12.110	-19.985	-48.405	-80.78	0.477752	-0.286456	0.35502	0.1905	0.7125	-0.2565	0	324	337	3
2026-02-12	15:29:12.130	-8.785	-46.515	-98.7	0.511424	-0.287188	0.315492	0.186	0.7125	-0.255	0	324	337	3
2026-02-12	15:29:12.150	7.77	-46.48	-118.755	0.563152	-0.242292	0.264984	0.171	0.705	-0.2355	0	324	337	3
2026-02-12	15:29:12.170	46.305	-46.165	-139.265	0.63562	-0.246196	0.281088	0.1635	0.681	-0.2475	0	324	337	3
2026-02-12	15:29:12.190	102.13	-44.065	-148.295	0.782264	-0.40016	0.377956	0.1545	0.678	-0.2415	0	324	337	3
2026-02-12	15:29:00.210	19.53	-104.475	-101.43	0.956724	0.123708	0.297192	0.39	0.519	-0.384	0	425	479	3
2026-02-12	15:29:00.230	1.4	-117.565	-112.035	1.039196	0.104432	0.316712	0.3735	0.513	-0.378	0	425	479	3
2026-02-12	15:29:00.250	-24.255	-131.46	-122.325	1.128256	0.102968	0.343796	0.3585	0.5115	-0.372	0	425	479	3
2026-02-12	15:29:00.270	-67.48	-147.105	-142.205	1.2932	0.05002	0.376736	0.3525	0.513	-0.3705	0	425	479	3
2026-02-12	15:29:00.290	-94.535	-154.805	-157.78	1.381528	0.01342	0.372344	0.312	0.51	-0.36	0	425	479	3
2026-02-12	15:29:00.310	-122.325	-161.91	-175.35	1.474736	-0.046848	0.363804	0.3	0.51	-0.354	0	425	479	3
2026-02-12	15:29:00.330	-143.885	-166.565	-193.13	1.582828	-0.14152	0.368928	0.2775	0.5175	-0.3525	0	425	479	3
2026-02-12	15:29:00.350	-151.375	-168.595	-211.155	1.713368	-0.217892	0.385032	0.252	0.5295	-0.336	0	425	479	3
2026-02-12	15:29:00.370	-150.535	-166.32	-229.495	1.824876	-0.266936	0.413336	0.2385	0.528	-0.3285	0	425	479	3
2026-02-12	15:29:00.390	-144.445	-160.265	-246.365	1.906128	-0.314516	0.441884	0.2235	0.5295	-0.318	0	425	479	3
2026-02-12	15:29:00.410	-132.195	-150.885	-259.875	1.891488	-0.349164	0.459208	0.2055	0.528	-0.309	0	434	440	3
2026-02-12	15:29:00.430	-110.075	-141.47	-269.045	1.842932	-0.397964	0.459208	0.1845	0.5145	-0.2925	0	434	440	3
2026-02-12	15:29:00.450	-72.8	-133.63	-271.985	1.843908	-0.412604	0.54778	0.177	0.4965	-0.2775	0	434	440	3
2026-02-12	15:29:00.470	-22.855	-120.47	-265.195	1.753384	-0.4026	0.615124	0.171	0.4785	-0.264	0	434	440	3
2026-02-12	15:29:00.490	22.575	-104.405	-248.045	1.657736	-0.427	0.649772	0.1665	0.468	-0.2535	0	434	440	3
2026-02-12	15:29:00.510	55.65	-89.6	-225.645	1.568432	-0.47946	0.71736	0.162	0.42	-0.2475	0	434	440	3
2026-02-12	15:29:00.530	79.38	-73.5	-194.74	1.429596	-0.41846	0.73444	0.171	0.3915	-0.228	0	434	440	3
2026-02-12	15:29:00.550	73.465	-70.7	-160.58	1.210972	-0.226676	0.69418	0.18	0.3645	-0.21	0	434	440	3
2026-02-12	15:29:00.570	32.165	-74.375	-129.885	1.008208	-0.242048	0.718092	0.183	0.339	-0.2115	0	434	440	3
2026-02-12	15:29:00.590	4.305	-74.935	-98.805	0.823256	-0.30012	0.750544	0.186	0.3285	-0.2025	0	434	440	3
2026-02-12	15:29:00.610	3.045	-73.99	-71.295	0.721996	-0.192516	0.79666	0.1905	0.318	-0.186	0	444	435	3
2026-02-12	15:29:00.630	-11.62	-63.63	-51.905	0.681248	-0.123952	0.787876	0.1875	0.312	-0.18	0	444	435	3
2026-02-12	15:29:00.650	-38.255	-48.16	-36.645	0.639036	-0.13298	0.735172	0.1875	0.306	-0.177	0	444	435	3
2026-02-12	15:29:00.670	-63.315	-32.83	-21.49	0.620004	-0.21716	0.686616	0.195	0.3045	-0.18	0	444	435	3
2026-02-12	15:29:00.690	-87.045	-11.41	2.135	0.624152	-0.323056	0.637328	0.1995	0.303	-0.1845	0	444	435	3
2026-02-12	15:29:00.710	-87.325	2.275	20.93	0.660508	-0.425048	0.582672	0.1995	0.303	-0.1845	0	444	435	3
2026-02-12	15:29:00.730	-65.205	15.505	43.365	0.699304	-0.491416	0.549	0.1935	0.3285	-0.183	0	444	435	3
2026-02-12	15:29:00.750	-27.44	27.23	68.355	0.753228	-0.489708	0.513864	0.1845	0.3405	-0.2055	0	444	435	3
2026-02-12	15:29:00.770	17.71	37.765	92.26	0.829356	-0.442372	0.489952	0.183	0.3465	-0.1995	0	444	435	3
2026-02-12	15:29:00.790	60.865	48.37	113.12	0.915732	-0.366	0.506544	0.1815	0.3525	-0.2055	0	444	435	3
2026-02-12	15:29:00.810	98.56	62.685	131.145	1.00528	-0.294264	0.52338	0.177	0.3525	-0.2055	0	453	469	3
2026-02-12	15:29:00.830	129.5	77.385	145.635	1.103856	-0.180072	0.542656	0.168	0.3555	-0.207	0	453	469	3
2026-02-12	15:29:00.850	144.06	91.63	155.085	1.206092	-0.087108	0.58194	0.1635	0.3645	-0.2055	0	453	469	3
2026-02-12	15:29:00.870	145.39	108.85	160.825	1.352248	-0.0427	0.718336	0.1605	0.3705	-0.204	0	453	469	3
2026-02-12	15:29:00.890	143.815	132.44	169.26	1.466684	0.044652	0.8296	0.159	0.3765	-0.2055	0	453	469	3
2026-02-12	15:29:00.910	102.2	157.045	183.645	1.560624	0.237656	0.786656	0.162	0.384	-0.204	0	453	469	3
2026-02-12	15:29:00.930	39.62	167.02	187.46	1.632604	0.235704	0.71736	0.165	0.39	-0.222	0	453	469	3
2026-02-12	15:29:00.950	-22.33	169.33	189.875	1.65554	0.174704	0.684664	0.168	0.408	-0.237	0	453	469	3
2026-02-12	15:29:00.970	-66.745	167.265	191.345	1.59698	0.097844	0.635132	0.18	0.4305	-0.261	0	453	469	3
2026-02-12	15:29:00.990	-97.545	155.82	190.19	1.52622	0.013664	0.546804	0.1845	0.4515	-0.279	0	453	469	3
2026-02-12	15:29:01.010	-121.555	138.04	185.78	1.46522	-0.0854	0.482876	0.1995	0.486	-0.2895	0	459	513	3
2026-02-12	15:29:01.030	-132.72	120.995	180.04	1.38958	-0.17324	0.476044	0.2025	0.4965	-0.2985	0	459	513	3
2026-02-12	15:29:01.050	-129.36	104.79	171.325	1.331752	-0.221796	0.445056	0.2175	0.5265	-0.315	0	459	513	3
2026-02-12	15:29:01.070	-129.85	91.735	160.72	1.29442	-0.220576	0.416996	0.234	0.558	-0.327	0	459	513	3
2026-02-12	15:29:01.090	-129.395	86.765	147.875	1.213412	-0.278648	0.407724	0.246	0.585	-0.3315	0	459	513	3
2026-02-12	15:29:01.110	-102.06	79.87	133	1.116788	-0.327936	0.389668	0.2505	0.6	-0.3315	0	459	513	3
2026-02-12	15:29:01.130	-65.555	71.715	118.72	1.055056	-0.329156	0.32696	0.2505	0.6	-0.3315	0	459	513	3
2026-02-12	15:29:01.150	-42.175	67.445	107.38	1.017236	-0.345504	0.293776	0.2925	0.6675	-0.3345	0	459	513	3
2026-02-12	15:29:01.170	-15.435	64.75	98.595	0.971364	-0.382592	0.326472	0.315	0.681	-0.345	0	459	513	3
2026-02-12	15:29:01.190	17.71	64.61	94.535	0.927444	-0.389912	0.391864	0.333	0.687	-0.3465	0	459	513	3
2026-02-12	15:28:59.210	-63.35	-101.36	-259.42	1.796572	-0.311588	0.457256	0.177	0.492	-0.276	0	373	386	3
2026-02-12	15:28:59.230	-49.07	-97.055	-257.46	1.71898	-0.339892	0.501908	0.162	0.4575	-0.2625	0	373	386	3
2026-02-12	15:28:59.250	-31.255	-90.44	-250.39	1.643096	-0.383812	0.547048	0.1605	0.4365	-0.252	0	373	386	3
2026-02-12	15:28:59.270	-10.675	-81.025	-237.79	1.527196	-0.426756	0.580232	0.1635	0.4215	-0.246	0	373	386	3
2026-02-12	15:28:59.290	11.76	-68.775	-220.465	1.390312	-0.458476	0.599752	0.1755	0.396	-0.2385	0	373	386	3
2026-02-12	15:28:59.310	33.46	-54.495	-199.92	1.338096	-0.449448	0.582184	0.1875	0.3735	-0.234	0	373	386	3
2026-02-12	15:28:59.330	63.91	-23.345	-176.645	1.22854	-0.483852	0.560956	0.1965	0.351	-0.2265	0	373	386	3
2026-02-12	15:28:59.350	129.99	-16.765	-144.655	1.045052	-0.60024	0.548268	0.2055	0.3285	-0.216	0	373	386	3
2026-02-12	15:28:59.370	182.665	-41.405	-95.55	0.69662	-0.46604	0.638792	0.2175	0.312	-0.1995	0	373	386	3
2026-02-12	15:28:59.390	150.605	-56.385	-54.81	0.584136	-0.226188	0.687836	0.228	0.2955	-0.1845	0	373	386	3
2026-02-12	15:28:59.410	30.17	-37.835	-18.41	0.589016	-0.159088	0.730536	0.2295	0.285	-0.18	0	380	389	3
2026-02-12	15:28:59.430	-34.02	-17.08	3.92	0.546072	-0.097112	0.715652	0.2295	0.285	-0.18	0	380	389	3
2026-02-12	15:28:59.450	-91.21	-1.785	22.085	0.52582	-0.055632	0.661728	0.2235	0.2625	-0.1575	0	380	389	3
2026-02-12	15:28:59.470	-142.52	13.755	36.33	0.498492	-0.19886	0.589992	0.225	0.276	-0.171	0	380	389	3
2026-02-12	15:28:59.490	-162.225	21.07	53.83	0.49776	-0.3355	0.56242	0.222	0.279	-0.177	0	380	389	3
2026-02-12	15:28:59.510	-151.34	22.61	73.745	0.55266	-0.424316	0.550952	0.2205	0.2925	-0.1905	0	380	389	3
2026-02-12	15:28:59.530	-117.915	22.085	95.165	0.65148	-0.4514	0.561932	0.216	0.306	-0.207	0	380	389	3
2026-02-12	15:28:59.550	-67.62	25.585	114.345	0.786412	-0.460428	0.595848	0.213	0.327	-0.2235	0	380	389	3
2026-02-12	15:28:59.570	-8.61	32.9	134.505	0.886696	-0.438956	0.649528	0.204	0.3495	-0.234	0	380	389	3
2026-02-12	15:28:59.590	52.15	41.825	156.87	1.003816	-0.411628	0.673928	0.1935	0.363	-0.234	0	380	389	3
2026-02-12	15:28:59.610	108.185	51.45	177.03	1.1529	-0.32818	0.690764	0.186	0.3675	-0.234	0	392	428	3
2026-02-12	15:28:59.630	168.175	69.965	200.025	1.337852	-0.1586	0.645868	0.177	0.369	-0.237	0	392	428	3
2026-02-12	15:28:59.650	190.19	82.425	209.965	1.438868	-0.075884	0.59658	0.174	0.3885	-0.2265	0	392	428	3
2026-02-12	15:28:59.670	197.4	94.605	213.08	1.503772	-0.02074	0.548756	0.1695	0.3915	-0.2235	0	392	428	3
2026-02-12	15:28:59.690	190.26	106.12	207.865	1.56892	-0.007076	0.531676	0.159	0.3885	-0.234	0	392	428	3
2026-02-12	15:28:59.710	173.985	117.67	194.18	1.64334	-0.001464	0.558272	0.156	0.396	-0.225	0	392	428	3
2026-02-12	15:28:59.730	154	131.6	177.205	1.690432	-0.017568	0.618052	0.1545	0.408	-0.219	0	392	428	3
2026-02-12	15:28:59.750	135.555	147.035	162.75	1.692628	-0.017324	0.63562	0.1545	0.411	-0.228	0	392	428	3
2026-02-12	15:28:59.770	119.735	158.41	147.7	1.741428	-0.0061	0.64294	0.1545	0.417	-0.2385	0	392	428	3
2026-02-12	15:28:59.790	100.94	169.085	131.215	1.762168	-0.003416	0.665388	0.1635	0.423	-0.2475	0	392	428	3
2026-02-12	15:28:59.810	77.35	179.69	119.07	1.713856	-0.017812	0.65758	0.18	0.4245	-0.258	0	404	477	3
2026-02-12	15:28:59.830	47.53	187.32	110.705	1.618696	0.016348	0.585844	0.198	0.4305	-0.276	0	404	477	3
2026-02-12	15:28:59.850	12.67	189.805	104.125	1.54818	0.05124	0.51728	0.2055	0.435	-0.288	0	404	477	3
2026-02-12	15:28:59.870	-20.16	189.35	100.485	1.484252	0.052704	0.48556	0.243	0.447	-0.3165	0	404	477	3
2026-02-12	15:28:59.890	-49.875	187.04	99.855	1.39324	0.032696	0.448716	0.255	0.45	-0.3315	0	404	477	3
2026-02-12	15:28:59.910	-79.975	179.585	103.53	1.286856	0.027572	0.399428	0.2865	0.456	-0.342	0	404	477	3
2026-02-12	15:28:59.930	-116.97	167.79	110.215	1.230004	-0.005368	0.355508	0.294	0.468	-0.351	0	404	477	3
2026-02-12	15:28:59.950	-140.84	166.075	119	1.17364	-0.10858	0.334768	0.3135	0.492	-0.3645	0	404	477	3
2026-02-12	15:28:59.970	-124.95	165.2	128.52	1.060424	-0.16348	0.305732	0.342	0.5145	-0.369	0	404	477	3
2026-02-12	15:28:59.990	-72.205	151.13	131.95	0.878156	0.010492	0.19886	0.3705	0.5385	-0.375	0	404	477	3
2026-02-12	15:29:12.010	-7.105	-40.81	-36.085	0.49532	-0.46482	0.392352	0.222	0.723	-0.2715	0	324	337	3
2026-02-12	15:29:12.030	-30.065	-45.115	-40.53	0.491172	-0.426268	0.365756	0.2205	0.714	-0.2715	0	324	337	3
2026-02-12	15:29:12.050	-49.035	-48.58	-45.815	0.484828	-0.423096	0.353556	0.2115	0.7095	-0.27	0	324	337	3
2026-02-12	15:29:12.070	-47.81	-50.295	-53.76	0.4697	-0.397476	0.35624	0.204	0.7155	-0.2685	0	324	337	3
2026-02-12	15:29:12.090	-33.74	-50.855	-65.065	0.474336	-0.337452	0.370636	0.1995	0.7155	-0.264	0	324	337	3
2026-02-12	15:29:12.110	-19.985	-48.405	-80.78	0.477752	-0.286456	0.35502	0.1905	0.7125	-0.2565	0	324	337	3
2026-02-12	15:29:12.130	-8.785	-46.515	-98.7	0.511424	-0.287188	0.315492	0.186	0.7125	-0.255	0	324	337	3
2026-02-12	15:29:12.150	7.77	-46.48	-118.755	0.563152	-0.242292	0.264984	0.171	0.705	-0.2355	0	324	337	3
2026-02-12	15:29:12.170	46.305	-46.165	-139.265	0.63562	-0.246196	0.281088	0.1635	0.681	-0.2475	0	324	337	3
2026-02-12	15:29:12.190	102.13	-44.065	-148.295	0.782264	-0.40016	0.377956	0.1545	0.678	-0.2415	0	324	337	3
2026-02-12	15:29:00.210	19.53	-104.475	-101.43	0.956724	0.123708	0.297192	0.39	0.519	-0.384	0	425	479	3
2026-02-12	15:29:00.230	1.4	-117.565	-112.035	1.039196	0.104432	0.316712	0.3735	0.513	-0.378	0	425	479	3
2026-02-12	15:29:00.250	-24.255	-131.46	-122.325	1.128256	0.102968	0.343796	0.3585	0.5115	-0.372	0	425	479	3
2026-02-12	15:29:00.270	-67.48	-147.105	-142.205	1.2932	0.05002	0.376736	0.3525	0.513	-0.3705	0	425	479	3
2026-02-12	15:29:00.290	-94.535	-154.805	-157.78	1.381528	0.01342	0.372344	0.312	0.51	-0.36	0	425	479	3
2026-02-12	15:29:00.310	-122.325	-161.91	-175.35	1.474736	-0.046848	0.363804	0.3	0.51	-0.354	0	425	479	3
2026-02-12	15:29:00.330	-143.885	-166.565	-193.13	1.582828	-0.14152	0.368928	0.2775	0.5175	-0.3525	0	425	479	3
2026-02-12	15:29:00.350	-151.375	-168.595	-211.155	1.713368	-0.217892	0.385032	0.252	0.5295	-0.336	0	425	479	3
2026-02-12	15:29:00.370	-150.535	-166.32	-229.495	1.824876	-0.266936	0.413336	0.2385	0.528	-0.3285	0	425	479	3
2026-02-12	15:29:00.390	-144.445	-160.265	-246.365	1.906128	-0.314516	0.441884	0.2235	0.5295	-0.318	0	425	479	3
2026-02-12	15:29:00.410	-132.195	-150.885	-259.875	1.891488	-0.349164	0.459208	0.2055	0.528	-0.309	0	434	440	3
2026-02-12	15:29:00.430	-110.075	-141.47	-269.045	1.842932	-0.397964	0.459208	0.1845	0.5145	-0.2925	0	434	440	3
2026-02-12	15:29:00.450	-72.8	-133.63	-271.985	1.843908	-0.412604	0.54778	0.177	0.4965	-0.2775	0	434	440	3
2026-02-12	15:29:00.470	-22.855	-120.47	-265.195	1.753384	-0.4026	0.615124	0.171	0.4785	-0.264	0	434	440	3
2026-02-12	15:29:00.490	22.575	-104.405	-248.045	1.657736	-0.427	0.649772	0.1665	0.468	-0.2535	0	434	440	3
2026-02-12	15:29:00.510	55.65	-89.6	-225.645	1.568432	-0.47946	0.71736	0.162	0.42	-0.2475	0	434	440	3
2026-02-12	15:29:00.530	79.38	-73.5	-194.74	1.429596	-0.41846	0.73444	0.171	0.3915	-0.228	0	434	440	3
2026-02-12	15:29:00.550	73.465	-70.7	-160.58	1.210972	-0.226676	0.69418	0.18	0.3645	-0.21	0	434	440	3
2026-02-12	15:29:00.570	32.165	-74.375	-129.885	1.008208	-0.242048	0.718092	0.183	0.339	-0.2115	0	434	440	3
2026-02-12	15:29:00.590	4.305	-74.935	-98.805	0.823256	-0.30012	0.750544	0.186	0.3285	-0.2025	0	434	440	3
2026-02-12	15:29:00.610	3.045	-73.99	-71.295	0.721996	-0.192516	0.79666	0.1905	0.318	-0.186	0	444	435	3
2026-02-12	15:29:00.630	-11.62	-63.63	-51.905	0.681248	-0.123952	0.787876	0.1875	0.312	-0.18	0	444	435	3
2026-02-12	15:29:00.650	-38.255	-48.16	-36.645	0.639036	-0.13298	0.735172	0.1875	0.306	-0.177	0	444	435	3
2026-02-12	15:29:00.670	-63.315	-32.83	-21.49	0.620004	-0.21716	0.686616	0.195	0.3045	-0.18	0	444	435	3
2026-02-12	15:29:00.690	-87.045	-11.41	2.135	0.624152	-0.323056	0.637328	0.1995	0.303	-0.1845	0	444	435	3
2026-02-12	15:29:00.710	-87.325	2.275	20.93	0.660508	-0.425048	0.582672	0.1995	0.303	-0.1845	0	444	435	3
2026-02-12	15:29:00.730	-65.205	15.505	43.365	0.699304	-0.491416	0.549	0.1935	0.3285	-0.183	0	444	435	3
2026-02-12	15:29:00.750	-27.44	27.23	68.355	0.753228	-0.489708	0.513864	0.1845	0.3405	-0.2055	0	444	435	3
2026-02-12	15:29:00.770	17.71	37.765	92.26	0.829356	-0.442372	0.489952	0.183	0.3465	-0.1995	0	444	435	3
2026-02-12	15:29:00.790	60.865	48.37	113.12	0.915732	-0.366	0.506544	0.1815	0.3525	-0.2055	0	444	435	3
2026-02-12	15:29:00.810	98.56	62.685	131.145	1.00528	-0.294264	0.52338	0.177	0.3525	-0.2055	0	453	469	3
2026-02-12	15:29:00.830	129.5	77.385	145.635	1.103856	-0.180072	0.542656	0.168	0.3555	-0.207	0	453	469	3
2026-02-12	15:29:00.850	144.06	91.63	155.085	1.206092	-0.087108	0.58194	0.1635	0.3645	-0.2055	0	453	469	3
2026-02-12	15:29:00.870	145.39	108.85	160.825	1.352248	-0.0427	0.718336	0.1605	0.3705	-0.204	0	453	469	3
2026-02-12	15:29:00.890	143.815	132.44	169.26	1.466684	0.044652	0.8296	0.159	0.3765	-0.2055	0	453	469	3
2026-02-12	15:29:00.910	102.2	157.045	183.645	1.560624	0.237656	0.786656	0.162	0.384	-0.204	0	453	469	3
2026-02-12	15:29:00.930	39.62	167.02	187.46	1.632604	0.235704	0.71736	0.165	0.39	-0.222	0	453	469	3
2026-02-12	15:29:00.950	-22.33	169.33	189.875	1.65554	0.174704	0.684664	0.168	0.408	-0.237	0	453	469	3
2026-02-12	15:29:00.970	-66.745	167.265	191.345	1.59698	0.097844	0.635132	0.18	0.4305	-0.261	0	453	469	3
2026-02-12	15:29:00.990	-97.545	155.82	190.19	1.52622	0.013664	0.546804	0.1845	0.4515	-0.279	0	453	469	3
2026-02-12	15:29:01.010	-121.555	138.04	185.78	1.46522	-0.0854	0.482876	0.1995	0.486	-0.2895	0	459	513	3
2026-02-12	15:29:01.030	-132.72	120.995	180.04	1.38958	-0.17324	0.476044	0.2025	0.4965	-0.2985	0	459	513	3
2026-02-12	15:29:01.050	-129.36	104.79	171.325	1.331752	-0.221796	0.445056	0.2175	0.5265	-0.315	0	459	513	3
2026-02-12	15:29:01.070	-129.85	91.735	160.72	1.29442	-0.220576	0.416996	0.234	0.558	-0.327	0	459	513	3
2026-02-12	15:29:01.090	-129.395	86.765	147.875	1.213412	-0.278648	0.407724	0.246	0.585	-0.3315	0	459	513	3
2026-02-12	15:29:01.110	-102.06	79.87	133	1.116788	-0.327936	0.389668	0.2505	0.6	-0.3315	0	459	513	3
2026-02-12	15:29:01.130	-65.555	71.715	118.72	1.055056	-0.329156	0.32696	0.2505	0.6	-0.3315	0	459	513	3
2026-02-12	15:29:01.150	-42.175	67.445	107.38	1.017236	-0.345504	0.293776	0.2925	0.6675	-0.3345	0	459	513	3
2026-02-12	15:29:01.170	-15.435	64.75	98.595	0.971364	-0.382592	0.326472	0.315	0.681	-0.345	0	459	513	3
2026-02-12	15:29:01.190	17.71	64.61	94.535	0.927444	-0.389912	0.391864	0.333	0.687	-0.3465	0	459	513	3
2026-02-12	15:28:59.210	-63.35	-101.36	-259.42	1.796572	-0.311588	0.457256	0.177	0.492	-0.276	0	373	386	3
2026-02-12	15:28:59.230	-49.07	-97.055	-257.46	1.71898	-0.339892	0.501908	0.162	0.4575	-0.2625	0	373	386	3
2026-02-12	15:28:59.250	-31.255	-90.44	-250.39	1.643096	-0.383812	0.547048	0.1605	0.4365	-0.252	0	373	386	3
2026-02-12	15:28:59.270	-10.675	-81.025	-237.79	1.527196	-0.426756	0.580232	0.1635	0.4215	-0.246	0	373	386	3
2026-02-12	15:28:59.290	11.76	-68.775	-220.465	1.390312	-0.458476	0.599752	0.1755	0.396	-0.2385	0	373	386	3
2026-02-12	15:28:59.310	33.46	-54.495	-199.92	1.338096	-0.449448	0.582184	0.1875	0.3735	-0.234	0	373	386	3
2026-02-12	15:28:59.330	63.91	-23.345	-176.645	1.22854	-0.483852	0.560956	0.1965	0.351	-0.2265	0	373	386	3
2026-02-12	15:28:59.350	129.99	-16.765	-144.655	1.045052	-0.60024	0.548268	0.2055	0.3285	-0.216	0	373	386	3
2026-02-12	15:28:59.370	182.665	-41.405	-95.55	0.69662	-0.46604	0.638792	0.2175	0.312	-0.1995	0	373	386	3
2026-02-12	15:28:59.390	150.605	-56.385	-54.81	0.584136	-0.226188	0.687836	0.228	0.2955	-0.1845	0	373	386	3
2026-02-12	15:28:59.410	30.17	-37.835	-18.41	0.589016	-0.159088	0.730536	0.2295	0.285	-0.18	0	380	389	3
2026-02-12	15:28:59.430	-34.02	-17.08	3.92	0.546072	-0.097112	0.715652	0.2295	0.285	-0.18	0	380	389	3
2026-02-12	15:28:59.450	-91.21	-1.785	22.085	0.52582	-0.055632	0.661728	0.2235	0.2625	-0.1575	0	380	389	3
2026-02-12	15:28:59.470	-142.52	13.755	36.33	0.498492	-0.19886	0.589992	0.225	0.276	-0.171	0	380	389	3
2026-02-12	15:28:59.490	-162.225	21.07	53.83	0.49776	-0.3355	0.56242	0.222	0.279	-0.177	0	380	389	3
2026-02-12	15:28:59.510	-151.34	22.61	73.745	0.55266	-0.424316	0.550952	0.2205	0.2925	-0.1905	0	380	389	3
2026-02-12	15:28:59.530	-117.915	22.085	95.165	0.65148	-0.4514	0.561932	0.216	0.306	-0.207	0	380	389	3
2026-02-12	15:28:59.550	-67.62	25.585	114.345	0.786412	-0.460428	0.595848	0.213	0.327	-0.2235	0	380	389	3
2026-02-12	15:28:59.570	-8.61	32.9	134.505	0.886696	-0.438956	0.649528	0.204	0.3495	-0.234	0	380	389	3
2026-02-12	15:28:59.590	52.15	41.825	156.87	1.003816	-0.411628	0.673928	0.1935	0.363	-0.234	0	380	389	3
2026-02-12	15:28:59.610	108.185	51.45	177.03	1.1529	-0.32818	0.690764	0.186	0.3675	-0.234	0	392	428	3
2026-02-12	15:28:59.630	168.175	69.965	200.025	1.337852	-0.1586	0.645868	0.177	0.369	-0.237	0	392	428	3
2026-02-12	15:28:59.650	190.19	82.425	209.965	1.438868	-0.075884	0.59658	0.174	0.3885	-0.2265	0	392	428	3
2026-02-12	15:28:59.670	197.4	94.605	213.08	1.503772	-0.02074	0.548756	0.1695	0.3915	-0.2235	0	392	428	3
2026-02-12	15:28:59.690	190.26	106.12	207.865	1.56892	-0.007076	0.531676	0.159	0.3885	-0.234	0	392	428	3
2026-02-12	15:28:59.710	173.985	117.67	194.18	1.64334	-0.001464	0.558272	0.156	0.396	-0.225	0	392	428	3
2026-02-12	15:28:59.730	154	131.6	177.205	1.690432	-0.017568	0.618052	0.1545	0.408	-0.219	0	392	428	3
2026-02-12	15:28:59.750	135.555	147.035	162.75	1.692628	-0.017324	0.63562	0.1545	0.411	-0.228	0	392	428	3
2026-02-12	15:28:59.770	119.735	158.41	147.7	1.741428	-0.0061	0.64294	0.1545	0.417	-0.2385	0	392	428	3
2026-02-12	15:28:59.790	100.94	169.085	131.215	1.762168	-0.003416	0.665388	0.1635	0.423	-0.2475	0	392	428	3
2026-02-12	15:28:59.810	77.35	179.69	119.07	1.713856	-0.017812	0.65758	0.18	0.4245	-0.258	0	404	477	3
2026-02-12	15:28:59.830	47.53	187.32	110.705	1.618696	0.016348	0.585844	0.198	0.4305	-0.276	0	404	477	3
2026-02-12	15:28:59.850	12.67	189.805	104.125	1.54818	0.05124	0.51728	0.2055	0.435	-0.288	0	404	477	3
2026-02-12	15:28:59.870	-20.16	189.35	100.485	1.484252	0.052704	0.48556	0.243	0.447	-0.3165	0	404	477	3
2026-02-12	15:28:59.890	-49.875	187.04	99.855	1.39324	0.032696	0.448716	0.255	0.45	-0.3315	0	404	477	3
2026-02-12	15:28:59.910	-79.975	179.585	103.53	1.286856	0.027572	0.399428	0.2865	0.456	-0.342	0	404	477	3
2026-02-12	15:28:59.930	-116.97	167.79	110.215	1.230004	-0.005368	0.355508	0.294	0.468	-0.351	0	404	477	3
2026-02-12	15:28:59.950	-140.84	166.075	119	1.17364	-0.10858	0.334768	0.3135	0.492	-0.3645	0	404	477	3
2026-02-12	15:28:59.970	-124.95	165.2	128.52	1.060424	-0.16348	0.305732	0.342	0.5145	-0.369	0	404	477	3
2026-02-12	15:28:59.990	-72.205	151.13	131.95	0.878156	0.010492	0.19886	0.3705	0.5385	-0.375	0	404	477	3
2026-02-12	15:29:12.010	-7.105	-40.81	-36.085	0.49532	-0.46482	0.392352	0.222	0.723	-0.2715	0	324	337	3
2026-02-12	15:29:12.030	-30.065	-45.115	-40.53	0.491172	-0.426268	0.365756	0.2205	0.714	-0.2715	0	324	337	3
2026-02-12	15:29:12.050	-49.035	-48.58	-45.815	0.484828	-0.423096	0.353556	0.2115	0.7095	-0.27	0	324	337	3
2026-02-12	15:29:12.070	-47.81	-50.295	-53.76	0.4697	-0.397476	0.35624	0.204	0.7155	-0.2685	0	324	337	3
2026-02-12	15:29:12.090	-33.74	-50.855	-65.065	0.474336	-0.337452	0.370636	0.1995	0.7155	-0.264	0	324	337	3
2026-02-12	15:29:12.110	-19.985	-48.405	-80.78	0.477752	-0.286456	0.35502	0.1905	0.7125	-0.2565	0	324	337	3
2026-02-12	15:29:12.130	-8.785	-46.515	-98.7	0.511424	-0.287188	0.315492	0.186	0.7125	-0.255	0	324	337	3
2026-02-12	15:29:12.150	7.77	-46.48	-118.755	0.563152	-0.242292	0.264984	0.171	0.705	-0.2355	0	324	337	3
2026-02-12	15:29:12.170	46.305	-46.165	-139.265	0.63562	-0.246196	0.281088	0.1635	0.681	-0.2475	0	324	337	3
2026-02-12	15:29:12.190	102.13	-44.065	-148.295	0.782264	-0.40016	0.377956	0.1545	0.678	-0.2415	0	324	337	3
2026-02-12	15:29:00.210	19.53	-104.475	-101.43	0.956724	0.123708	0.297192	0.39	0.519	-0.384	0	425	479	3
2026-02-12	15:29:00.230	1.4	-117.565	-112.035	1.039196	0.104432	0.316712	0.3735	0.513	-0.378	0	425	479	3
2026-02-12	15:29:00.250	-24.255	-131.46	-122.325	1.128256	0.102968	0.343796	0.3585	0.5115	-0.372	0	425	479	3
2026-02-12	15:29:00.270	-67.48	-147.105	-142.205	1.2932	0.05002	0.376736	0.3525	0.513	-0.3705	0	425	479	3
2026-02-12	15:29:00.290	-94.535	-154.805	-157.78	1.381528	0.01342	0.372344	0.312	0.51	-0.36	0	425	479	3
2026-02-12	15:29:00.310	-122.325	-161.91	-175.35	1.474736	-0.046848	0.363804	0.3	0.51	-0.354	0	425	479	3
2026-02-12	15:29:00.330	-143.885	-166.565	-193.13	1.582828	-0.14152	0.368928	0.2775	0.5175	-0.3525	0	425	479	3
2026-02-12	15:29:00.350	-151.375	-168.595	-211.155	1.713368	-0.217892	0.385032	0.252	0.5295	-0.336	0	425	479	3
2026-02-12	15:29:00.370	-150.535	-166.32	-229.495	1.824876	-0.266936	0.413336	0.2385	0.528	-0.3285	0	425	479	3
2026-02-12	15:29:00.390	-144.445	-160.265	-246.365	1.906128	-0.314516	0.441884	0.2235	0.5295	-0.318	0	425	479	3
2026-02-12	15:29:00.410	-132.195	-150.885	-259.875	1.891488	-0.349164	0.459208	0.2055	0.528	-0.309	0	434	440	3
2026-02-12	15:29:00.430	-110.075	-141.47	-269.045	1.842932	-0.397964	0.459208	0.1845	0.5145	-0.2925	0	434	440	3
2026-02-12	15:29:00.450	-72.8	-133.63	-271.985	1.843908	-0.412604	0.54778	0.177	0.4965	-0.2775	0	434	440	3
2026-02-12	15:29:00.470	-22.855	-120.47	-265.195	1.753384	-0.4026	0.615124	0.171	0.4785	-0.264	0	434	440	3
2026-02-12	15:29:00.490	22.575	-104.405	-248.045	1.657736	-0.427	0.649772	0.1665	0.468	-0.2535	0	434	440	3
2026-02-12	15:29:00.510	55.65	-89.6	-225.645	1.568432	-0.47946	0.71736	0.162	0.42	-0.2475	0	434	440	3
2026-02-12	15:29:00.530	79.38	-73.5	-194.74	1.429596	-0.41846	0.73444	0.171	0.3915	-0.228	0	434	440	3
2026-02-12	15:29:00.550	73.465	-70.7	-160.58	1.210972	-0.226676	0.69418	0.18	0.3645	-0.21	0	434	440	3
2026-02-12	15:29:00.570	32.165	-74.375	-129.885	1.008208	-0.242048	0.718092	0.183	0.339	-0.2115	0	434	440	3
2026-02-12	15:29:00.590	4.305	-74.935	-98.805	0.823256	-0.30012	0.750544	0.186	0.3285	-0.2025	0	434	440	3
2026-02-12	15:29:00.610	3.045	-73.99	-71.295	0.721996	-0.192516	0.79666	0.1905	0.318	-0.186	0	444	435	3
2026-02-12	15:29:00.630	-11.62	-63.63	-51.905	0.681248	-0.123952	0.787876	0.1875	0.312	-0.18	0	444	435	3
2026-02-12	15:29:00.650	-38.255	-48.16	-36.645	0.639036	-0.13298	0.735172	0.1875	0.306	-0.177	0	444	435	3
2026-02-12	15:29:00.670	-63.315	-32.83	-21.49	0.620004	-0.21716	0.686616	0.195	0.3045	-0.18	0	444	435	3
2026-02-12	15:29:00.690	-87.045	-11.41	2.135	0.624152	-0.323056	0.637328	0.1995	0.303	-0.1845	0	444	435	3
2026-02-12	15:29:00.710	-87.325	2.275	20.93	0.660508	-0.425048	0.582672	0.1995	0.303	-0.1845	0	444	435	3
2026-02-12	15:29:00.730	-65.205	15.505	43.365	0.699304	-0.491416	0.549	0.1935	0.3285	-0.183	0	444	435	3
2026-02-12	15:29:00.750	-27.44	27.23	68.355	0.753228	-0.489708	0.513864	0.1845	0.3405	-0.2055	0	444	435	3
2026-02-12	15:29:00.770	17.71	37.765	92.26	0.829356	-0.442372	0.489952	0.183	0.3465	-0.1995	0	444	435	3
2026-02-12	15:29:00.790	60.865	48.37	113.12	0.915732	-0.366	0.506544	0.1815	0.3525	-0.2055	0	444	435	3
2026-02-12	15:29:00.810	98.56	62.685	131.145	1.00528	-0.294264	0.52338	0.177	0.3525	-0.2055	0	453	469	3
2026-02-12	15:29:00.830	129.5	77.385	145.635	1.103856	-0.180072	0.542656	0.168	0.3555	-0.207	0	453	469	3
2026-02-12	15:29:00.850	144.06	91.63	155.085	1.206092	-0.087108	0.58194	0.1635	0.3645	-0.2055	0	453	469	3
2026-02-12	15:29:00.870	145.39	108.85	160.825	1.352248	-0.0427	0.718336	0.1605	0.3705	-0.204	0	453	469	3
2026-02-12	15:29:00.890	143.815	132.44	169.26	1.466684	0.044652	0.8296	0.159	0.3765	-0.2055	0	453	469	3
2026-02-12	15:29:00.910	102.2	157.045	183.645	1.560624	0.237656	0.786656	0.162	0.384	-0.204	0	453	469	3
2026-02-12	15:29:00.930	39.62	167.02	187.46	1.632604	0.235704	0.71736	0.165	0.39	-0.222	0	453	469	3
2026-02-12	15:29:00.950	-22.33	169.33	189.875	1.65554	0.174704	0.684664	0.168	0.408	-0.237	0	453	469	3
2026-02-12	15:29:00.970	-66.745	167.265	191.345	1.59698	0.097844	0.635132	0.18	0.4305	-0.261	0	453	469	3
2026-02-12	15:29:00.990	-97.545	155.82	190.19	1.52622	0.013664	0.546804	0.1845	0.4515	-0.279	0	453	469	3
2026-02-12	15:29:01.010	-121.555	138.04	185.78	1.46522	-0.0854	0.482876	0.1995	0.486	-0.2895	0	459	513	3
2026-02-12	15:29:01.030	-132.72	120.995	180.04	1.38958	-0.17324	0.476044	0.2025	0.4965	-0.2985	0	459	513	3
2026-02-12	15:29:01.050	-129.36	104.79	171.325	1.331752	-0.221796	0.445056	0.2175	0.5265	-0.315	0	459	513	3
2026-02-12	15:29:01.070	-129.85	91.735	160.72	1.29442	-0.220576	0.416996	0.234	0.558	-0.327	0	459	513	3
2026-02-12	15:29:01.090	-129.395	86.765	147.875	1.213412	-0.278648	0.407724	0.246	0.585	-0.3315	0	459	513	3
2026-02-12	15:29:01.110	-102.06	79.87	133	1.116788	-0.327936	0.389668	0.2505	0.6	-0.3315	0	459	513	3
2026-02-12	15:29:01.130	-65.555	71.715	118.72	1.055056	-0.329156	0.32696	0.2505	0.6	-0.3315	0	459	513	3
2026-02-12	15:29:01.150	-42.175	67.445	107.38	1.017236	-0.345504	0.293776	0.2925	0.6675	-0.3345	0	459	513	3
2026-02-12	15:29:01.170	-15.435	64.75	98.595	0.971364	-0.382592	0.326472	0.315	0.681	-0.345	0	459	513	3
2026-02-12	15:29:01.190	17.71	64.61	94.535	0.927444	-0.389912	0.391864	0.333	0.687	-0.3465	0	459	513	3
2026-02-12	15:28:59.210	-63.35	-101.36	-259.42	1.796572	-0.311588	0.457256	0.177	0.492	-0.276	0	373	386	3
2026-02-12	15:28:59.230	-49.07	-97.055	-257.46	1.71898	-0.339892	0.501908	0.162	0.4575	-0.2625	0	373	386	3
2026-02-12	15:28:59.250	-31.255	-90.44	-250.39	1.643096	-0.383812	0.547048	0.1605	0.4365	-0.252	0	373	386	3
2026-02-12	15:28:59.270	-10.675	-81.025	-237.79	1.527196	-0.426756	0.580232	0.1635	0.4215	-0.246	0	373	386	3
2026-02-12	15:28:59.290	11.76	-68.775	-220.465	1.390312	-0.458476	0.599752	0.1755	0.396	-0.2385	0	373	386	3
2026-02-12	15:28:59.310	33.46	-54.495	-199.92	1.338096	-0.449448	0.582184	0.1875	0.3735	-0.234	0	373	386	3
2026-02-12	15:28:59.330	63.91	-23.345	-176.645	1.22854	-0.483852	0.560956	0.1965	0.351	-0.2265	0	373	386	3
2026-02-12	15:28:59.350	129.99	-16.765	-144.655	1.045052	-0.60024	0.548268	0.2055	0.3285	-0.216	0	373	386	3
2026-02-12	15:28:59.370	182.665	-41.405	-95.55	0.69662	-0.46604	0.638792	0.2175	0.312	-0.1995	0	373	386	3
2026-02-12	15:28:59.390	150.605	-56.385	-54.81	0.584136	-0.226188	0.687836	0.228	0.2955	-0.1845	0	373	386	3
2026-02-12	15:28:59.410	30.17	-37.835	-18.41	0.589016	-0.159088	0.730536	0.2295	0.285	-0.18	0	380	389	3
2026-02-12	15:28:59.430	-34.02	-17.08	3.92	0.546072	-0.097112	0.715652	0.2295	0.285	-0.18	0	380	389	3
2026-02-12	15:28:59.450	-91.21	-1.785	22.085	0.52582	-0.055632	0.661728	0.2235	0.2625	-0.1575	0	380	389	3
2026-02-12	15:28:59.470	-142.52	13.755	36.33	0.498492	-0.19886	0.589992	0.225	0.276	-0.171	0	380	389	3
2026-02-12	15:28:59.490	-162.225	21.07	53.83	0.49776	-0.3355	0.56242	0.222	0.279	-0.177	0	380	389	3
2026-02-12	15:28:59.510	-151.34	22.61	73.745	0.55266	-0.424316	0.550952	0.2205	0.2925	-0.1905	0	380	389	3
2026-02-12	15:28:59.530	-117.915	22.085	95.165	0.65148	-0.4514	0.561932	0.216	0.306	-0.207	0	380	389	3
2026-02-12	15:28:59.550	-67.62	25.585	114.345	0.786412	-0.460428	0.595848	0.213	0.327	-0.2235	0	380	389	3
2026-02-12	15:28:59.570	-8.61	32.9	134.505	0.886696	-0.438956	0.649528	0.204	0.3495	-0.234	0	380	389	3
2026-02-12	15:28:59.590	52.15	41.825	156.87	1.003816	-0.411628	0.673928	0.1935	0.363	-0.234	0	380	389	3
2026-02-12	15:28:59.610	108.185	51.45	177.03	1.1529	-0.32818	0.690764	0.186	0.3675	-0.234	0	392	428	3
2026-02-12	15:28:59.630	168.175	69.965	200.025	1.337852	-0.1586	0.645868	0.177	0.369	-0.237	0	392	428	3
2026-02-12	15:28:59.650	190.19	82.425	209.965	1.438868	-0.075884	0.59658	0.174	0.3885	-0.2265	0	392	428	3
2026-02-12	15:28:59.670	197.4	94.605	213.08	1.503772	-0.02074	0.548756	0.1695	0.3915	-0.2235	0	392	428	3
2026-02-12	15:28:59.690	190.26	106.12	207.865	1.56892	-0.007076	0.531676	0.159	0.3885	-0.234	0	392	428	3
2026-02-12	15:28:59.710	173.985	117.67	194.18	1.64334	-0.001464	0.558272	0.156	0.396	-0.225	0	392	428	3
2026-02-12	15:28:59.730	154	131.6	177.205	1.690432	-0.017568	0.618052	0.1545	0.408	-0.219	0	392	428	3
2026-02-12	15:28:59.750	135.555	147.035	162.75	1.692628	-0.017324	0.63562	0.1545	0.411	-0.228	0	392	428	3
2026-02-12	15:28:59.770	119.735	158.41	147.7	1.741428	-0.0061	0.64294	0.1545	0.417	-0.2385	0	392	428	3
2026-02-12	15:28:59.790	100.94	169.085	131.215	1.762168	-0.003416	0.665388	0.1635	0.423	-0.2475	0	392	428	3
2026-02-12	15:28:59.810	77.35	179.69	119.07	1.713856	-0.017812	0.65758	0.18	0.4245	-0.258	0	404	477	3
2026-02-12	15:28:59.830	47.53	187.32	110.705	1.618696	0.016348	0.585844	0.198	0.4305	-0.276	0	404	477	3
2026-02-12	15:28:59.850	12.67	189.805	104.125	1.54818	0.05124	0.51728	0.2055	0.435	-0.288	0	404	477	3
2026-02-12	15:28:59.870	-20.16	189.35	100.485	1.484252	0.052704	0.48556	0.243	0.447	-0.3165	0	404	477	3
2026-02-12	15:28:59.890	-49.875	187.04	99.855	1.39324	0.032696	0.448716	0.255	0.45	-0.3315	0	404	477	3
2026-02-12	15:28:59.910	-79.975	179.585	103.53	1.286856	0.027572	0.399428	0.2865	0.456	-0.342	0	404	477	3
2026-02-12	15:28:59.930	-116.97	167.79	110.215	1.230004	-0.005368	0.355508	0.294	0.468	-0.351	0	404	477	3
2026-02-12	15:28:59.950	-140.84	166.075	119	1.17364	-0.10858	0.334768	0.3135	0.492	-0.3645	0	404	477	3
2026-02-12	15:28:59.970	-124.95	165.2	128.52	1.060424	-0.16348	0.305732	0.342	0.5145	-0.369	0	404	477	3
2026-02-12	15:28:59.990	-72.205	151.13	131.95	0.878156	0.010492	0.19886	0.3705	0.5385	-0.375	0	404	477	3
2026-02-12	15:29:12.010	-7.105	-40.81	-36.085	0.49532	-0.46482	0.392352	0.222	0.723	-0.2715	0	324	337	3
2026-02-12	15:29:12.030	-30.065	-45.115	-40.53	0.491172	-0.426268	0.365756	0.2205	0.714	-0.2715	0	324	337	3
2026-02-12	15:29:12.050	-49.035	-48.58	-45.815	0.484828	-0.423096	0.353556	0.2115	0.7095	-0.27	0	324	337	3
2026-02-12	15:29:12.070	-47.81	-50.295	-53.76	0.4697	-0.397476	0.35624	0.204	0.7155	-0.2685	0	324	337	3
2026-02-12	15:29:12.090	-33.74	-50.855	-65.065	0.474336	-0.337452	0.370636	0.1995	0.7155	-0.264	0	324	337	3
2026-02-12	15:29:12.110	-19.985	-48.405	-80.78	0.477752	-0.286456	0.35502	0.1905	0.7125	-0.2565	0	324	337	3
2026-02-12	15:29:12.130	-8.785	-46.515	-98.7	0.511424	-0.287188	0.315492	0.186	0.7125	-0.255	0	324	337	3
2026-02-12	15:29:12.150	7.77	-46.48	-118.755	0.563152	-0.242292	0.264984	0.171	0.705	-0.2355	0	324	337	3
2026-02-12	15:29:12.170	46.305	-46.165	-139.265	0.63562	-0.246196	0.281088	0.1635	0.681	-0.2475	0	324	337	3
2026-02-12	15:29:12.190	102.13	-44.065	-148.295	0.782264	-0.40016	0.377956	0.1545	0.678	-0.2415	0	324	337	3
2026-02-12	15:29:00.210	19.53	-104.475	-101.43	0.956724	0.123708	0.297192	0.39	0.519	-0.384	0	425	479	3
2026-02-12	15:29:00.230	1.4	-117.565	-112.035	1.039196	0.104432	0.316712	0.3735	0.513	-0.378	0	425	479	3
2026-02-12	15:29:00.250	-24.255	-131.46	-122.325	1.128256	0.102968	0.343796	0.3585	0.5115	-0.372	0	425	479	3
2026-02-12	15:29:00.270	-67.48	-147.105	-142.205	1.2932	0.05002	0.376736	0.3525	0.513	-0.3705	0	425	479	3
2026-02-12	15:29:00.290	-94.535	-154.805	-157.78	1.381528	0.01342	0.372344	0.312	0.51	-0.36	0	425	479	3
2026-02-12	15:29:00.310	-122.325	-161.91	-175.35	1.474736	-0.046848	0.363804	0.3	0.51	-0.354	0	425	479	3
2026-02-12	15:29:00.330	-143.885	-166.565	-193.13	1.582828	-0.14152	0.368928	0.2775	0.5175	-0.3525	0	425	479	3
2026-02-12	15:29:00.350	-151.375	-168.595	-211.155	1.713368	-0.217892	0.385032	0.252	0.5295	-0.336	0	425	479	3
2026-02-12	15:29:00.370	-150.535	-166.32	-229.495	1.824876	-0.266936	0.413336	0.2385	0.528	-0.3285	0	425	479	3
2026-02-12	15:29:00.390	-144.445	-160.265	-246.365	1.906128	-0.314516	0.441884	0.2235	0.5295	-0.318	0	425	479	3
2026-02-12	15:29:00.410	-132.195	-150.885	-259.875	1.891488	-0.349164	0.459208	0.2055	0.528	-0.309	0	434	440	3
2026-02-12	15:29:00.430	-110.075	-141.47	-269.045	1.842932	-0.397964	0.459208	0.1845	0.5145	-0.2925	0	434	440	3
2026-02-12	15:29:00.450	-72.8	-133.63	-271.985	1.843908	-0.412604	0.54778	0.177	0.4965	-0.2775	0	434	440	3
2026-02-12	15:29:00.470	-22.855	-120.47	-265.195	1.753384	-0.4026	0.615124	0.171	0.4785	-0.264	0	434	440	3
2026-02-12	15:29:00.490	22.575	-104.405	-248.045	1.657736	-0.427	0.649772	0.1665	0.468	-0.2535	0	434	440	3
2026-02-12	15:29:00.510	55.65	-89.6	-225.645	1.568432	-0.47946	0.71736	0.162	0.42	-0.2475	0	434	440	3
2026-02-12	15:29:00.530	79.38	-73.5	-194.74	1.429596	-0.41846	0.73444	0.171	0.3915	-0.228	0	434	440	3
2026-02-12	15:29:00.550	73.465	-70.7	-160.58	1.210972	-0.226676	0.69418	0.18	0.3645	-0.21	0	434	440	3
2026-02-12	15:29:00.570	32.165	-74.375	-129.885	1.008208	-0.242048	0.718092	0.183	0.339	-0.2115	0	434	440	3
2026-02-12	15:29:00.590	4.305	-74.935	-98.805	0.823256	-0.30012	0.750544	0.186	0.3285	-0.2025	0	434	440	3
2026-02-12	15:29:00.610	3.045	-73.99	-71.295	0.721996	-0.192516	0.79666	0.1905	0.318	-0.186	0	444	435	3
2026-02-12	15:29:00.630	-11.62	-63.63	-51.905	0.681248	-0.123952	0.787876	0.1875	0.312	-0.18	0	444	435	3
2026-02-12	15:29:00.650	-38.255	-48.16	-36.645	0.639036	-0.13298	0.735172	0.1875	0.306	-0.177	0	444	435	3
2026-02-12	15:29:00.670	-63.315	-32.83	-21.49	0.620004	-0.21716	0.686616	0.195	0.3045	-0.18	0	444	435	3
2026-02-12	15:29:00.690	-87.045	-11.41	2.135	0.624152	-0.323056	0.637328	0.1995	0.303	-0.1845	0	444	435	3
2026-02-12	15:29:00.710	-87.325	2.275	20.93	0.660508	-0.425048	0.582672	0.1995	0.303	-0.1845	0	444	435	3
2026-02-12	15:29:00.730	-65.205	15.505	43.365	0.699304	-0.491416	0.549	0.1935	0.3285	-0.183	0	444	435	3
2026-02-12	15:29:00.750	-27.44	27.23	68.355	0.753228	-0.489708	0.513864	0.1845	0.3405	-0.2055	0	444	435	3
2026-02-12	15:29:00.770	17.71	37.765	92.26	0.829356	-0.442372	0.489952	0.183	0.3465	-0.1995	0	444	435	3
2026-02-12	15:29:00.790	60.865	48.37	113.12	0.915732	-0.366	0.506544	0.1815	0.3525	-0.2055	0	444	435	3
2026-02-12	15:29:00.810	98.56	62.685	131.145	1.00528	-0.294264	0.52338	0.177	0.3525	-0.2055	0	453	469	3
2026-02-12	15:29:00.830	129.5	77.385	145.635	1.103856	-0.180072	0.542656	0.168	0.3555	-0.207	0	453	469	3
2026-02-12	15:29:00.850	144.06	91.63	155.085	1.206092	-0.087108	0.58194	0.1635	0.3645	-0.2055	0	453	469	3
2026-02-12	15:29:00.870	145.39	108.85	160.825	1.352248	-0.0427	0.718336	0.1605	0.3705	-0.204	0	453	469	3
2026-02-12	15:29:00.890	143.815	132.44	169.26	1.466684	0.044652	0.8296	0.159	0.3765	-0.2055	0	453	469	3
2026-02-12	15:29:00.910	102.2	157.045	183.645	1.560624	0.237656	0.786656	0.162	0.384	-0.204	0	453	469	3
2026-02-12	15:29:00.930	39.62	167.02	187.46	1.632604	0.235704	0.71736	0.165	0.39	-0.222	0	453	469	3
2026-02-12	15:29:00.950	-22.33	169.33	189.875	1.65554	0.174704	0.684664	0.168	0.408	-0.237	0	453	469	3
2026-02-12	15:29:00.970	-66.745	167.265	191.345	1.59698	0.097844	0.635132	0.18	0.4305	-0.261	0	453	469	3
2026-02-12	15:29:00.990	-97.545	155.82	190.19	1.52622	0.013664	0.546804	0.1845	0.4515	-0.279	0	453	469	3
2026-02-12	15:29:27.010	77.735	-30.94	24.675	1.209508	-0.498492	0.406992	0.057	0.426	0.051	0	390	281	2
2026-02-12	15:29:27.030	105.665	-22.96	31.185	1.34932	-0.45262	0.3477	0.051	0.4335	0.0555	0	390	281	2
2026-02-12	15:29:27.050	116.235	-15.05	33.46	1.466684	-0.3904	0.314272	0.051	0.438	0.06	0	390	281	2
2026-02-12	15:29:27.070	104.825	-2.8	36.4	1.44814	-0.37332	0.283528	0.0525	0.441	0.0675	0	390	281	2
2026-02-12	15:29:27.090	88.06	8.925	42.21	1.303936	-0.34892	0.247416	0.051	0.453	0.0765	0	390	281	2
2026-02-12	15:29:27.110	64.925	16.205	53.865	1.139236	-0.287676	0.24034	0.0495	0.462	0.0795	0	390	281	2
2026-02-12	15:29:27.130	49.98	17.325	63.665	1.035292	-0.269376	0.220332	0.0495	0.4695	0.078	0	390	281	2
2026-02-12	15:29:27.150	38.78	14.175	74.34	0.944036	-0.256932	0.200568	0.0465	0.4815	0.078	0	390	281	2
2026-02-12	15:29:27.170	30.065	8.33	86.45	0.847412	-0.254492	0.159332	0.042	0.4875	0.072	0	390	281	2
2026-02-12	15:29:27.190	27.02	1.54	97.51	0.813496	-0.242048	0.122976	0.0405	0.5025	0.0705	0	390	281	2
2026-02-12	15:29:27.210	29.33	-2.31	104.44	0.881572	-0.241804	0.095648	0.042	0.519	0.0765	0	372	306	3
2026-02-12	15:29:27.230	32.55	-4.305	107.87	0.97234	-0.226676	0.078324	0.045	0.5295	0.0795	0	372	306	3
2026-02-12	15:29:27.250	32.515	-2.415	110.005	0.9699	-0.217892	0.072224	0.0435	0.543	0.0795	0	372	306	3
2026-02-12	15:29:27.270	34.335	0.105	108.71	0.931348	-0.216184	0.056608	0.042	0.561	0.0795	0	372	306	3
2026-02-12	15:29:27.290	40.11	1.05	102.34	0.91866	-0.231068	0.045872	0.0435	0.582	0.078	0	372	306	3
2026-02-12	15:29:27.310	47.39	3.01	92.96	0.932568	-0.258396	0.0488	0.048	0.6	0.0795	0	372	306	3
2026-02-12	15:29:27.330	55.265	9.52	78.715	0.903532	-0.243512	0.050508	0.051	0.6105	0.084	0	372	306	3
2026-02-12	15:29:27.350	57.015	12.565	67.48	0.953308	-0.215208	0.035136	0.051	0.618	0.081	0	372	306	3
2026-02-12	15:29:27.370	54.845	13.44	54.04	1.017968	-0.179828	0.018544	0.057	0.633	0.081	0	372	306	3
2026-02-12	15:29:27.390	50.575	12.74	38.605	1.07726	-0.182756	0.02074	0.0645	0.6435	0.0765	0	372	306	3
2026-02-12	15:29:27.410	48.37	11.305	23.065	1.136308	-0.202764	0.037332	0.063	0.648	0.0705	0	350	287	3
2026-02-12	15:29:27.430	48.93	9.625	7.77	1.228296	-0.21472	0.073444	0.063	0.6525	0.0735	0	350	287	3
2026-02-12	15:29:27.450	49.455	9.45	-5.075	1.308572	-0.215696	0.108336	0.063	0.657	0.072	0	350	287	3
2026-02-12	15:29:27.470	47.775	10.64	-14	1.281732	-0.187148	0.106628	0.063	0.6585	0.063	0	350	287	3
2026-02-12	15:29:27.490	41.37	8.995	-23.17	1.256112	-0.1464	0.083692	0.0615	0.6555	0.06	0	350	287	3
2026-02-12	15:29:27.510	31.01	4.62	-32.305	1.171932	-0.110288	0.102724	0.06	0.654	0.0645	0	350	287	3
2026-02-12	15:29:27.530	20.86	-1.085	-37.205	0.999424	-0.1098	0.202276	0.0645	0.657	0.0675	0	350	287	3
2026-02-12	15:29:27.550	19.95	-5.215	-35.175	0.870836	-0.08174	0.26962	0.063	0.651	0.063	0	350	287	3
2026-02-12	15:29:27.570	22.295	-8.61	-30.275	0.815448	-0.04636	0.287676	0.06	0.639	0.06	0	350	287	3
2026-02-12	15:29:27.590	27.65	-11.795	-25.62	0.887428	-0.046848	0.305244	0.0585	0.633	0.0585	0	350	287	3
2026-02-12	15:29:27.610	36.295	-9.975	-21.735	0.96868	-0.065636	0.322568	0.0585	0.6315	0.0615	0	329	248	3
2026-02-12	15:29:27.630	45.85	-5.11	-15.785	1.00528	-0.07905599	0.302316	0.0555	0.627	0.0675	0	329	248	3
2026-02-12	15:29:27.650	50.19	-1.75	-9.59	1.018212	-0.034404	0.27694	0.0585	0.6285	0.0645	0	329	248	3
2026-02-12	15:29:27.670	46.655	2.24	-7.63	1.016504	0.019276	0.26352	0.0615	0.6285	0.066	0	329	248	3
2026-02-12	15:29:27.690	41.79	6.79	-9.59	0.97478	0.071492	0.270352	0.0615	0.6285	0.066	0	329	248	3
2026-02-12	15:29:27.710	21.56	8.26	-10.36	0.922808	0.05734	0.290848	0.0645	0.6285	0.0585	0	329	248	3
2026-02-12	15:29:27.730	-14.315	5.74	-11.62	0.924516	-0.029524	0.305244	0.063	0.6255	0.06	0	329	248	3
2026-02-12	15:29:27.750	-52.85	-0.385	-16.205	0.965508	-0.149328	0.345748	0.0615	0.624	0.063	0	329	248	3
2026-02-12	15:29:27.770	-55.125	-2.52	-18.9	0.88938	-0.15738	0.381372	0.06	0.621	0.0615	0	329	248	3
2026-02-12	15:29:27.790	-49.42	-2.975	-20.545	0.837164	-0.188368	0.39528	0.0585	0.621	0.0585	0	329	248	3
2026-02-12	15:29:27.810	-35.7	-1.225	-20.965	0.807884	-0.200324	0.409676	0.057	0.6195	0.0645	0	311	231	3
2026-02-12	15:29:27.830	-22.82	2.555	-20.895	0.782264	-0.168848	0.391132	0.057	0.6105	0.0705	0	311	231	3
2026-02-12	15:29:27.850	-16.905	6.02	-22.05	0.776164	-0.137616	0.340136	0.0585	0.6045	0.066	0	311	231	3
2026-02-12	15:29:27.870	-16.485	8.365	-23.555	0.776408	-0.124928	0.303048	0.0585	0.6	0.0645	0	311	231	3
2026-02-12	15:29:27.890	-23.17	8.575	-25.34	0.773968	-0.12078	0.279868	0.06	0.5955	0.0645	0	311	231	3
2026-02-12	15:29:27.910	-35.63	6.93	-28.455	0.793488	-0.131028	0.288164	0.057	0.5925	0.0645	0	311	231	3
2026-02-12	15:29:27.930	-48.825	5.705	-31.92	0.811788	-0.16714	0.322568	0.0555	0.591	0.0615	0	311	231	3
2026-02-12	15:29:27.950	-60.34	3.745	-34.65	0.804468	-0.18666	0.339404	0.0585	0.591	0.06	0	311	231	3
2026-02-12	15:29:27.970	-70.525	-0.28	-39.445	0.781532	-0.239364	0.352092	0.0585	0.591	0.06	0	311	231	3
2026-02-12	15:29:27.990	-73.045	-1.19	-41.79	0.768356	-0.344284	0.39406	0.0555	0.5835	0.0615	0	311	231	3
2026-02-12	15:29:28.010	-65.59	3.85	-37.45	0.685396	-0.418704	0.461892	0.051	0.57	0.063	0	294	243	3
2026-02-12	15:29:28.030	-50.33	11.585	-27.615	0.586576	-0.42334	0.467504	0.054	0.5625	0.0645	0	294	243	3
2026-02-12	15:29:28.050	-41.545	12.95	-17.045	0.535092	-0.387472	0.3843	0.0585	0.5595	0.0675	0	294	243	3
2026-02-12	15:29:28.070	-45.5	8.155	-10.71	0.541436	-0.389912	0.316468	0.06	0.549	0.066	0	294	243	3
2026-02-12	15:29:28.090	-48.265	0.595	-8.82	0.593896	-0.401868	0.27816	0.0645	0.546	0.0645	0	294	243	3
2026-02-12	15:29:28.110	-34.51	-8.89	-9.45	0.706624	-0.43188	0.275232	0.057	0.5475	0.06	0	294	243	3
2026-02-12	15:29:28.130	-12.6	-21.735	-16.87	0.94306	-0.472628	0.32818	0.054	0.543	0.057	0	294	243	3
2026-02-12	15:29:28.150	15.12	-31.57	-33.355	1.254892	-0.5917	0.498004	0.06	0.54	0.0705	0	294	243	3
2026-02-12	15:29:28.170	42.945	-31.815	-42.105	1.516704	-0.667828	0.654164	0.0615	0.5385	0.0825	0	294	243	3
2026-02-12	15:29:28.190	40.25	-19.88	-37.24	1.377868	-0.607316	0.592432	0.0615	0.531	0.084	0	294	243	3
2026-02-12	15:29:28.210	24.115	-9.135	-28.665	1.18218	-0.515328	0.459696	0.066	0.5265	0.084	0	282	272	3
2026-02-12	15:29:28.230	14.805	-5.775	-13.65	1.089948	-0.48312	0.385276	0.069	0.5325	0.0855	0	282	272	3
2026-02-12	15:29:28.250	22.12	-6.265	2.905	1.047004	-0.457256	0.369172	0.0675	0.531	0.0855	0	282	272	3
2026-02-12	15:29:28.270	35.7	-8.89	19.25	1.01992	-0.438468	0.373564	0.066	0.5295	0.0855	0	282	272	3
2026-02-12	15:29:28.290	50.015	-12.18	32.62	1.013576	-0.410408	0.387228	0.069	0.534	0.09	0	282	272	3
2026-02-12	15:29:28.310	56.28	-12.95	43.855	0.977708	-0.393816	0.369904	0.0705	0.5355	0.096	0	282	272	3
2026-02-12	15:29:28.330	54.95	-12.705	54.985	0.901824	-0.364536	0.309392	0.066	0.54	0.096	0	282	272	3
2026-02-12	15:29:28.350	53.41	-13.16	63.91	0.850828	-0.350384	0.251808	0.0675	0.5535	0.096	0	282	272	3
2026-02-12	15:29:28.370	58.31	-13.265	70.14	0.826916	-0.344284	0.22448	0.069	0.5625	0.099	0	282	272	3
2026-02-12	15:29:28.390	77.875	-12.81	75.425	0.891332	-0.351848	0.22082	0.072	0.5655	0.1035	0	282	272	3
2026-02-12	15:29:28.410	94.535	-10.64	75.355	0.97356	-0.342576	0.221064	0.078	0.585	0.1065	0	275	303	3
2026-02-12	15:29:28.430	109.76	-5.95	72.485	1.036512	-0.310856	0.218136	0.0795	0.6075	0.114	0	275	303	3
2026-02-12	15:29:28.450	114.38	0.875	67.865	1.024312	-0.261812	0.201788	0.0855	0.6195	0.1125	0	275	303	3
2026-02-12	15:29:28.470	106.995	7.385	61.285	0.987468	-0.225456	0.191296	0.0915	0.6375	0.1065	0	275	303	3
2026-02-12	15:29:28.490	94.5	12.985	53.165	1.007232	-0.205936	0.194224	0.084	0.651	0.1065	0	275	303	3
2026-02-12	15:29:28.510	75.67	20.3	46.445	0.944768	-0.154208	0.19398	0.087	0.6585	0.1035	0	275	303	3
2026-02-12	15:29:28.530	47.425	26.285	41.86	0.861564	-0.120292	0.17324	0.096	0.666	0.0975	0	275	303	3
2026-02-12	15:29:28.550	17.255	27.51	36.4	0.875228	-0.11834	0.150304	0.096	0.6735	0.093	0	275	303	3
2026-02-12	15:29:28.570	-6.125	26.18	28.84	0.948184	-0.163236	0.149572	0.093	0.6795	0.09	0	275	303	3
2026-02-12	15:29:28.590	-19.25	24.22	22.61	0.95404	-0.201544	0.16592	0.096	0.6825	0.087	0	275	303	3
2026-02-12	15:29:28.610	-25.655	19.25	16.065	1.009672	-0.219112	0.153232	0.096	0.6825	0.087	0	269	309	3
2026-02-12	15:29:28.630	-22.295	14.84	10.605	1.071892	-0.234484	0.15738	0.0975	0.69	0.0855	0	269	309	3
2026-02-12	15:29:28.650	-12.25	9.485	3.395	1.189256	-0.259616	0.177388	0.1005	0.696	0.0825	0	269	309	3
2026-02-12	15:29:28.670	1.785	6.615	-4.69	1.30296	-0.25498	0.210328	0.1005	0.693	0.0795	0	269	309	3
2026-02-12	15:29:28.690	9.24	5.775	-12.005	1.339804	-0.21838	0.241072	0.0975	0.6975	0.072	0	269	309	3
2026-02-12	15:29:28.710	7.7	5.985	-17.99	1.275632	-0.214476	0.249612	0.099	0.6975	0.069	0	269	309	3
2026-02-12	15:29:28.730	7.735	3.22	-22.4	1.192184	-0.201788	0.259616	0.096	0.693	0.072	0	269	309	3
2026-02-12	15:29:28.750	10.325	-0.035	-23.17	1.054812	-0.186172	0.316224	0.0945	0.69	0.066	0	269	309	3
2026-02-12	15:29:28.770	14.7	-1.785	-19.32	0.913292	-0.15738	0.369172	0.096	0.69	0.0615	0	269	309	3
2026-02-12	15:29:28.790	20.475	-3.57	-12.985	0.804468	-0.111508	0.382836	0.0915	0.6885	0.063	0	269	309	3
2026-02-12	15:29:28.810	25.095	-7.56	-8.225	0.780556	-0.05734	0.371124	0.0885	0.6885	0.0675	0	264	295	3
2026-02-12	15:29:28.830	25.795	-11.515	-9.205	0.846436	-0.017568	0.361364	0.0915	0.69	0.063	0	264	295	3
2026-02-12	15:29:28.850	17.255	-11.655	-13.09	0.895968	-0.019032	0.33916	0.0915	0.687	0.0615	0	264	295	3
2026-02-12	15:29:28.870	4.2	-9.905	-17.43	0.921344	-0.026596	0.307928	0.087	0.69	0.063	0	264	295	3
2026-02-12	15:29:28.890	-8.505	-8.26	-22.26	0.916708	-0.00854	0.286456	0.09	0.6945	0.063	0	264	295	3
2026-02-12	15:29:28.910	-19.705	-6.16	-28.63	0.909144	-0.01098	0.315004	0.09	0.69	0.0615	0	264	295	3
2026-02-12	15:29:28.930	-24.955	-3.15	-34.335	0.899872	-0.05368	0.366	0.09	0.681	0.0585	0	264	295	3
2026-02-12	15:29:28.950	-24.29	-1.155	-37.765	0.885964	-0.087596	0.413092	0.09	0.6795	0.057	0	264	295	3
2026-02-12	15:29:28.970	-22.54	-0.14	-38.815	0.874252	-0.1159	0.416752	0.084	0.6705	0.0615	0	264	295	3
2026-02-12	15:29:28.990	-17.745	-0.595	-38.675	0.869372	-0.138348	0.39772	0.0825	0.6645	0.0645	0	264	295	3
2026-02-12	15:29:29.010	-9.695	-2.31	-37.94	0.868884	-0.145668	0.374296	0.087	0.6705	0.063	0	258	291	3
2026-02-12	15:29:29.030	4.235	-5.425	-36.12	0.877912	-0.127856	0.367952	0.084	0.672	0.0675	0	258	291	3
2026-02-12	15:29:29.050	9.1	-6.37	-34.65	0.84668	-0.122244	0.366488	0.0795	0.66	0.063	0	258	291	3
2026-02-12	15:29:29.070	9.275	-8.505	-33.775	0.82594	-0.123952	0.360388	0.075	0.6465	0.0615	0	258	291	3
2026-02-12	15:29:29.090	5.11	-11.76	-34.125	0.8357	-0.121756	0.372588	0.0735	0.645	0.069	0	258	291	3
2026-02-12	15:29:29.110	-0.385	-14.315	-36.015	0.85156	-0.127368	0.383324	0.0735	0.642	0.069	0	258	291	3
2026-02-12	15:29:29.130	-7.245	-15.925	-37.625	0.842288	-0.132736	0.378688	0.081	0.6375	0.063	0	258	291	3
2026-02-12	15:29:29.150	-12.075	-17.57	-39.165	0.855952	-0.15616	0.366976	0.084	0.6345	0.0645	0	258	291	3
2026-02-12	15:29:29.170	-11.165	-18.27	-40.74	0.869128	-0.177388	0.39406	0.078	0.63	0.069	0	258	291	3
2026-02-12	15:29:29.190	-9.135	-16.765	-40.565	0.861564	-0.20374	0.418948	0.0795	0.624	0.0735	0	258	291	3
2026-02-12	15:29:29.210	-11.025	-15.505	-38.5	0.823988	-0.194224	0.421388	0.075	0.618	0.0765	0	251	303	3
2026-02-12	15:29:29.230	-16.31	-15.12	-36.855	0.799832	-0.18544	0.417728	0.066	0.615	0.078	0	251	303	3
2026-02-12	15:29:29.250	-26.495	-15.015	-35.98	0.760792	-0.189588	0.415532	0.0705	0.609	0.0735	0	251	303	3
2026-02-12	15:29:29.270	-33.6	-14.875	-36.085	0.742004	-0.205692	0.395036	0.0705	0.606	0.078	0	251	303	3
2026-02-12	15:29:29.290	-39.795	-14.805	-35.805	0.728096	-0.216916	0.376492	0.069	0.5955	0.0855	0	251	303	3
2026-02-12	15:29:29.310	-47.67	-14.91	-35.28	0.703696	-0.23302	0.347212	0.0735	0.588	0.0855	0	251	303	3
2026-02-12	15:29:29.330	-55.055	-15.4	-33.88	0.681004	-0.252052	0.328912	0.0765	0.585	0.0825	0	251	303	3
2026-02-12	15:29:29.350	-57.995	-17.29	-31.185	0.67222	-0.2745	0.313052	0.0705	0.5775	0.084	0	251	303	3
2026-02-12	15:29:29.370	-56.875	-20.475	-26.565	0.681004	-0.310856	0.301828	0.069	0.57	0.087	0	251	303	3
2026-02-12	15:29:29.390	-48.02	-25.13	-19.845	0.740296	-0.355264	0.302804	0.069	0.567	0.0885	0	251	303	3
2026-02-12	15:29:29.410	-26.145	-33.67	-17.045	0.965996	-0.417972	0.380152	0.069	0.5655	0.0915	0	242	323	3
2026-02-12	15:29:29.430	22.82	-35.7	-22.19	1.37982	-0.616344	0.648796	0.069	0.5655	0.0945	0	242	323	3
2026-02-12	15:29:29.450	78.61	-17.045	-9.1	1.628944	-0.556076	0.731268	0.0675	0.552	0.0945	0	242	323	3
2026-02-12	15:29:29.470	73.815	5.04	16.66	1.509872	-0.368928	0.486292	0.0675	0.555	0.0975	0	242	323	3
2026-02-12	15:29:29.490	40.145	16.555	31.745	1.374452	-0.299632	0.35136	0.063	0.5625	0.1005	0	242	323	3
2026-02-12	15:29:29.510	16.625	20.86	48.02	1.28954	-0.275232	0.341356	0.06	0.5685	0.093	0	242	323	3
2026-02-12	15:29:29.530	4.55	20.86	65.52	1.217316	-0.277916	0.376736	0.063	0.573	0.09	0	242	323	3
2026-02-12	15:29:29.550	1.82	19.355	83.51	1.118252	-0.254248	0.399916	0.063	0.582	0.087	0	242	323	3
2026-02-12	15:29:29.570	0.385	15.785	98.595	1.029192	-0.212036	0.393328	0.063	0.5925	0.0825	0	242	323	3
2026-02-12	15:29:29.590	-7.7	12.53	109.235	0.959896	-0.215208	0.364292	0.066	0.6075	0.078	0	242	323	3
2026-02-12	15:29:29.610	-13.475	9.31	117.11	0.908168	-0.248148	0.327692	0.066	0.624	0.0765	0	236	345	3
2026-02-12	15:29:29.630	-9.765	6.93	122.255	0.914024	-0.26962	0.300608	0.066	0.636	0.078	0	236	345	3
2026-02-12	15:29:29.650	1.225	6.23	123.97	0.920856	-0.25742	0.279136	0.0705	0.642	0.075	0	236	345	3
2026-02-12	15:29:29.670	16.52	8.26	120.47	0.854732	-0.22448	0.214476	0.084	0.6675	0.078	0	236	345	3
2026-02-12	15:29:29.690	23.03	8.995	114.38	0.803004	-0.214232	0.172264	0.0825	0.681	0.072	0	236	345	3
2026-02-12	15:29:29.710	29.33	9.24	105.42	0.779824	-0.208132	0.149572	0.084	0.7035	0.069	0	236	345	3
2026-02-12	15:29:29.730	36.89	10.15	94.325	0.773724	-0.208376	0.144448	0.0915	0.717	0.063	0	236	345	3
2026-02-12	15:29:29.750	44.66	12.6	83.405	0.755668	-0.193492	0.150304	0.093	0.732	0.054	0	236	345	3
2026-02-12	15:29:29.770	47.6	14.98	73.465	0.736148	-0.161284	0.151036	0.099	0.747	0.057	0	236	345	3
2026-02-12	15:29:29.790	45.15	15.4	61.215	0.8052	-0.151524	0.158844	0.105	0.7545	0.0555	0	236	345	3
2026-02-12	15:29:29.810	42.455	15.505	45.955	0.91988	-0.159088	0.183732	0.108	0.7605	0.048	0	233	348	3
2026-02-12	15:29:29.830	36.785	16.135	31.465	1.009672	-0.1464	0.190808	0.114	0.7605	0.0405	0	233	348	3
2026-02-12	15:29:29.850	26.18	14.175	18.41	1.105076	-0.121512	0.193248	0.114	0.7665	0.033	0	233	348	3
2026-02-12	15:29:29.870	11.165	10.85	3.955	1.169492	-0.110532	0.187392	0.114	0.771	0.0315	0	233	348	3
2026-02-12	15:29:29.890	-6.195	3.57	-25.34	1.352004	-0.153232	0.216672	0.114	0.771	0.0315	0	233	348	3
2026-02-12	15:29:29.910	-15.435	1.995	-42.805	1.351272	-0.188368	0.241316	0.1095	0.7695	0.0285	0	233	348	3
2026-02-12	15:29:29.930	-17.675	0.21	-55.475	1.271972	-0.213988	0.251076	0.105	0.7665	0.0315	0	233	348	3
2026-02-12	15:29:29.950	-15.925	-1.4	-59.57	1.133136	-0.204228	0.287676	0.102	0.759	0.0315	0	233	348	3
2026-02-12	15:29:29.970	-10.15	-0.98	-55.405	1.00162	-0.187148	0.349408	0.102	0.7545	0.027	0	233	348	3
2026-02-12	15:29:29.990	-4.2	-1.19	-48.44	0.900848	-0.05246	0.332816	0.0975	0.7455	0.024	0	233	348	3
2026-02-12	15:29:30.010	-11.76	-8.505	-43.715	0.855464	0.019764	0.311344	0.093	0.7365	0.0225	0	231	329	3
2026-02-12	15:29:30.030	-16.625	-12.32	-42.07	0.895724	-0.035624	0.33306	0.087	0.7305	0.027	0	231	329	3
2026-02-12	15:29:30.050	-16.38	-14.665	-42.245	0.988688	-0.061488	0.37332	0.0885	0.726	0.033	0	231	329	3
2026-02-12	15:29:30.070	-18.48	-9.59	-44.59	1.027728	-0.05124	0.375272	0.0945	0.726	0.033	0	231	329	3
2026-02-12	15:29:30.090	-37.03	0.595	-49.77	1.007232	-0.05002	0.288652	0.084	0.7185	0.036	0	231	329	3
2026-02-12	15:29:30.110	-54.25	9.8	-55.895	0.994544	-0.073688	0.222284	0.0795	0.7125	0.0345	0	231	329	3
2026-02-12	15:29:30.130	-60.865	15.015	-59.85	0.995276	-0.085644	0.203252	0.0735	0.7035	0.0345	0	231	329	3
2026-02-12	15:29:30.150	-65.555	17.99	-62.65	0.998204	-0.106872	0.219356	0.069	0.7005	0.036	0	231	329	3
2026-02-12	15:29:30.170	-71.785	18.9	-63.7	0.990884	-0.148352	0.241316	0.0645	0.6915	0.0375	0	231	329	3
2026-02-12	15:29:30.190	-72.73	17.78	-62.825	0.98576	-0.178608	0.274744	0.0615	0.678	0.0375	0	231	329	3
2026-02-12	15:29:30.210	-67.2	16.135	-60.76	0.963556	-0.1708	0.292556	0.0615	0.672	0.039	0	229	312	3
2026-02-12	15:29:30.230	-62.615	14.35	-59.325	0.946476	-0.155916	0.300364	0.0585	0.663	0.036	0	229	312	3
2026-02-12	15:29:30.250	-62.3	12.425	-59.71	0.915732	-0.154452	0.3172	0.054	0.654	0.039	0	229	312	3
2026-02-12	15:29:30.270	-64.33	10.815	-61.11	0.889624	-0.177632	0.327692	0.051	0.645	0.0435	0	229	312	3
2026-02-12	15:29:30.290	-66.115	8.785	-62.72	0.864492	-0.192028	0.317932	0.0525	0.639	0.0435	0	229	312	3
2026-02-12	15:29:30.310	-68.985	5.075	-65.835	0.831552	-0.225456	0.289384	0.054	0.627	0.0495	0	229	312	3
2026-02-12	15:29:30.330	-66.85	1.295	-68.25	0.832284	-0.247904	0.29768	0.0465	0.6195	0.0465	0	229	312	3
2026-02-12	15:29:30.350	-61.985	-1.575	-70.525	0.84058	-0.27694	0.330132	0.042	0.606	0.0435	0	229	312	3
2026-02-12	15:29:30.370	-57.33	-2.59	-71.225	0.831552	-0.28792	0.34892	0.0435	0.594	0.042	0	229	312	3
2026-02-12	15:29:30.390	-53.095	-2.59	-69.79	0.798124	-0.279624	0.358924	0.042	0.5865	0.042	0	229	312	3
2026-02-12	15:29:30.410	-50.855	-2.975	-67.235	0.766404	-0.275232	0.355996	0.0495	0.5805	0.045	0	225	303	3
2026-02-12	15:29:30.430	-52.29	-3.92	-65.345	0.755668	-0.277428	0.343552	0.054	0.567	0.045	0	225	303	3
2026-02-12	15:29:30.450	-55.335	-5.46	-63.98	0.762256	-0.290848	0.348676	0.048	0.5565	0.045	0	225	303	3
2026-02-12	15:29:30.470	-58.38	-7.105	-61.355	0.780068	-0.324764	0.370392	0.042	0.5505	0.042	0	225	303	3
2026-02-12	15:29:30.490	-60.76	-8.505	-55.685	0.773968	-0.327692	0.379664	0.042	0.5445	0.042	0	225	303	3
2026-02-12	15:29:30.510	-60.06	-9.415	-46.76	0.750544	-0.341844	0.37942	0.045	0.537	0.0465	0	225	303	3
2026-02-12	15:29:30.530	-58.31	-13.195	-29.015	0.721264	-0.34282	0.33916	0.045	0.537	0.0465	0	225	303	3
2026-02-12	15:29:30.550	-59.71	-21.07	-18.9	0.775432	-0.335988	0.29524	0.0465	0.5295	0.0465	0	225	303	3
2026-02-12	15:29:30.570	-56.84	-33.11	-14.84	0.966972	-0.396012	0.323056	0.051	0.5145	0.048	0	225	303	3
2026-02-12	15:29:30.590	-37.835	-41.895	-15.995	1.211948	-0.509472	0.452864	0.048	0.513	0.0525	0	225	303	3
2026-02-12	15:29:30.610	-0.525	-39.34	-15.995	1.345416	-0.608048	0.577548	0.048	0.516	0.0585	0	219	309	3
2026-02-12	15:29:30.630	42.35	-30.135	-9.065	1.329556	-0.608292	0.579744	0.051	0.51	0.0645	0	219	309	3
2026-02-12	15:29:30.650	79.065	-18.69	0.28	1.253916	-0.5429	0.475312	0.0465	0.5085	0.0675	0	219	309	3
2026-02-12	15:29:30.670	103.075	-8.785	11.55	1.20414	-0.422608	0.373076	0.048	0.5085	0.072	0	219	309	3
2026-02-12	15:29:30.690	112.35	-0.105	23.38	1.177788	-0.358436	0.343308	0.0525	0.5115	0.0735	0	219	309	3
2026-02-12	15:29:30.710	110.74	8.26	36.89	1.12484	-0.307684	0.35136	0.051	0.519	0.0735	0	219	309	3
2026-02-12	15:29:30.730	87.15	16.45	55.23	1.002352	-0.215696	0.346968	0.051	0.5265	0.0765	0	219	309	3
2026-02-12	15:29:30.750	46.865	19.6	71.19	0.915244	-0.144448	0.319396	0.048	0.534	0.078	0	219	309	3
2026-02-12	15:29:30.770	11.305	19.635	80.605	0.908168	-0.158112	0.293776	0.0465	0.5475	0.0765	0	219	309	3
2026-02-12	15:29:30.790	-15.05	17.605	87.29	0.947452	-0.167384	0.280844	0.051	0.558	0.072	0	219	309	3
2026-02-12	15:29:30.810	-35.07	15.645	91.49	0.941352	-0.184708	0.266936	0.0465	0.573	0.0675	0	215	324	3
2026-02-12	15:29:30.830	-47.845	14.49	93.695	0.914512	-0.210328	0.23546	0.0465	0.588	0.066	0	215	324	3
2026-02-12	15:29:30.850	-50.33	12.845	93.205	0.93452	-0.233996	0.205936	0.0495	0.594	0.0675	0	215	324	3
2026-02-12	15:29:30.870	-45.255	10.465	90.405	0.93696	-0.242536	0.183	0.0465	0.606	0.0615	0	215	324	3
2026-02-12	15:29:30.890	-34.825	9.03	85.575	0.914268	-0.252052	0.16592	0.0495	0.624	0.06	0	215	324	3
2026-02-12	15:29:30.910	-19.04	7.7	77.875	0.937692	-0.261812	0.162504	0.0555	0.639	0.0645	0	215	324	3
2026-02-12	15:29:30.930	0	8.225	68.25	0.963068	-0.262788	0.16348	0.0555	0.6465	0.066	0	215	324	3
2026-02-12	15:29:30.950	27.335	11.585	55.02	0.898652	-0.24644	0.16226	0.06	0.645	0.0585	0	215	324	3
2026-02-12	15:29:30.970	42.91	11.515	44.94	0.95404	-0.220576	0.16348	0.063	0.657	0.063	0	215	324	3
2026-02-12	15:29:30.990	52.43	12.915	33.845	1.025776	-0.21472	0.166408	0.063	0.669	0.066	0	215	324	3
2026-02-12	15:29:31.010	56.735	14.245	24.71	1.074576	-0.179828	0.164944	0.0585	0.672	0.06	0	213	323	3
2026-02-12	15:29:31.030	50.995	14.07	16.485	1.10166	-0.141032	0.151768	0.0615	0.6765	0.0525	0	213	323	3
2026-02-12	15:29:31.050	38.29	12.005	7.28	1.144116	-0.128588	0.147376	0.066	0.6795	0.045	0	213	323	3
2026-02-12	15:29:31.070	24.08	9.03	-3.465	1.22366	-0.136396	0.160064	0.0675	0.6825	0.0435	0	213	323	3
2026-02-12	15:29:31.090	8.925	8.19	-13.65	1.23952	-0.142496	0.175436	0.0675	0.684	0.0435	0	213	323	3
2026-02-12	15:29:31.110	-3.92	5.285	-21.63	1.283196	-0.147864	0.17934	0.0615	0.6795	0.0405	0	213	323	3
2026-02-12	15:29:31.130	-12.04	1.26	-29.89	1.27978	-0.16226	0.208864	0.06	0.6795	0.0375	0	213	323	3
2026-02-12	15:29:31.150	-15.75	-0.175	-32.375	1.083604	-0.212768	0.233264	0.057	0.6765	0.0435	0	213	323	3
2026-02-12	15:29:31.170	1.505	-7.875	-25.69	0.883036	-0.22692	0.288896	0.057	0.6765	0.0435	0	213	323	3
2026-02-12	15:29:31.190	21.875	-9.905	-18.13	0.839604	-0.228872	0.345992	0.0585	0.6705	0.0435	0	213	323	3
2026-02-12	15:29:31.210	47.495	-7.525	-10.395	0.844484	-0.1891	0.382104	0.06	0.663	0.0435	0	210	303	3
2026-02-12	15:29:31.230	66.85	-3.5	-4.9	0.864248	-0.123708	0.357948	0.0555	0.6645	0.042	0	210	303	3
2026-02-12	15:29:31.250	72.415	-0.105	-3.605	0.908168	-0.082228	0.318908	0.051	0.666	0.0405	0	210	303	3
2026-02-12	15:29:31.270	60.97	3.605	-7.21	0.963556	-0.056364	0.303292	0.054	0.6615	0.0375	0	210	303	3
2026-02-12	15:29:31.290	36.995	8.05	-13.545	0.984784	-0.031232	0.285968	0.057	0.6615	0.0345	0	210	303	3
2026-02-12	15:29:31.310	4.41	11.445	-20.51	0.984784	-0.0061	0.26474	0.0555	0.6555	0.033	0	210	303	3
2026-02-12	15:29:31.330	-30.275	14.945	-26.775	0.974292	-0.026352	0.27572	0.0525	0.6465	0.033	0	210	303	3
2026-02-12	15:29:31.350	-54.18	18.445	-29.995	0.93208	-0.064416	0.317688	0.048	0.6465	0.0345	0	210	303	3
2026-02-12	15:29:31.370	-69.86	19.18	-30.555	0.89792	-0.106384	0.333792	0.051	0.6465	0.03	0	210	303	3
2026-02-12	15:29:31.390	-71.995	17.64	-29.05	0.879376	-0.152744	0.33062	0.0495	0.645	0.03	0	210	303	3
2026-02-12	15:29:31.410	-62.37	15.82	-27.265	0.874008	-0.16226	0.319884	0.0495	0.6435	0.0285	0	208	290	3
2026-02-12	15:29:31.430	-51.03	14.07	-26.18	0.879376	-0.161284	0.304756	0.051	0.639	0.024	0	208	290	3
2026-02-12	15:29:31.450	-43.785	12.495	-26.46	0.883768	-0.152012	0.288408	0.051	0.63	0.021	0	208	290	3
2026-02-12	15:29:31.470	-42.455	10.85	-28.56	0.87108	-0.14396	0.288896	0.0465	0.627	0.024	0	208	290	3
2026-02-12	15:29:31.490	-44.275	8.295	-32.2	0.869128	-0.148352	0.290848	0.0465	0.624	0.0255	0	208	290	3
2026-02-12	15:29:31.510	-46.235	5.32	-36.47	0.885232	-0.167628	0.309392	0.045	0.6195	0.024	0	208	290	3
2026-02-12	15:29:31.530	-46.375	2.835	-39.97	0.874984	-0.180804	0.308904	0.0405	0.612	0.0225	0	208	290	3
2026-02-12	15:29:31.550	-44.205	0	-42.035	0.846924	-0.197396	0.310368	0.042	0.609	0.024	0	208	290	3
2026-02-12	15:29:31.570	-41.3	-3.43	-43.54	0.826428	-0.213744	0.31354	0.051	0.6075	0.0285	0	208	290	3
2026-02-12	15:29:31.590	-35.98	-9.065	-46.06	0.811788	-0.227896	0.338428	0.048	0.597	0.0225	0	208	290	3
2026-02-12	15:29:31.610	-33.215	-11.795	-47.845	0.787144	-0.216916	0.344284	0.0435	0.594	0.027	0	204	288	3
2026-02-12	15:29:31.630	-32.585	-13.93	-50.015	0.777628	-0.221308	0.339648	0.0375	0.5865	0.0315	0	204	288	3
2026-02-12	15:29:31.650	-32.9	-15.435	-52.325	0.766892	-0.219844	0.336232	0.0405	0.5775	0.027	0	204	288	3
2026-02-12	15:29:31.670	-34.23	-16.17	-54.11	0.74176	-0.2379	0.338672	0.042	0.5655	0.0285	0	204	288	3
2026-02-12	15:29:31.690	-34.755	-16.975	-54.915	0.723216	-0.27084	0.349652	0.0435	0.558	0.039	0	204	288	3
2026-02-12	15:29:31.710	-33.95	-17.325	-53.83	0.695644	-0.310856	0.361608	0.0435	0.5535	0.0405	0	204	288	3
2026-02-12	15:29:31.730	-31.15	-17.675	-51.17	0.688812	-0.331596	0.374296	0.0405	0.543	0.0405	0	204	288	3
2026-02-12	15:29:31.750	-27.44	-18.095	-47.67	0.6954	-0.331108	0.363316	0.042	0.537	0.0405	0	204	288	3
2026-02-12	15:29:31.770	-24.43	-19.88	-42.945	0.7198	-0.347944	0.32574	0.045	0.5385	0.0375	0	204	288	3
2026-02-12	15:29:31.790	-18.935	-25.48	-39.515	0.862784	-0.37088	0.328424	0.042	0.5325	0.0435	0	204	288	3
2026-02-12	15:29:31.810	4.235	-32.375	-41.58	1.21146	-0.474824	0.484828	0.048	0.528	0.0495	0	199	298	3
2026-02-12	15:29:31.830	28.35	-28	-40.565	1.390068	-0.531432	0.615856	0.045	0.5175	0.0495	0	199	298	3
2026-02-12	15:29:31.850	44.135	-16.94	-30.485	1.390556	-0.51118	0.581452	0.045	0.5025	0.054	0	199	298	3
2026-02-12	15:29:31.870	53.095	-4.935	-19.215	1.314428	-0.415532	0.441396	0.0465	0.498	0.06	0	199	298	3
2026-02-12	15:29:31.890	52.78	2.555	-7.91	1.278072	-0.349408	0.358924	0.0465	0.4965	0.0645	0	199	298	3
2026-02-12	15:29:31.910	48.335	8.435	4.48	1.262212	-0.337696	0.359656	0.048	0.495	0.066	0	199	298	3
2026-02-12	15:29:31.930	40.6	12.32	18.27	1.208288	-0.3233	0.388936	0.048	0.498	0.0645	0	199	298	3
2026-02-12	15:29:31.950	28.455	14.035	32.725	1.130696	-0.272304	0.397964	0.045	0.504	0.063	0	199	298	3
2026-02-12	15:29:31.970	10.605	15.085	45.43	1.05896	-0.232776	0.37332	0.042	0.507	0.0615	0	199	298	3
2026-02-12	15:29:31.990	-8.33	16.59	56.525	0.981368	-0.215452	0.335012	0.045	0.516	0.0615	0	199	298	3
2026-02-12	15:29:32.010	-31.78	15.68	71.505	0.873764	-0.23302	0.268644	0.045	0.522	0.0585	0	197	318	3
2026-02-12	15:29:32.030	-34.895	13.58	80.045	0.847412	-0.2562	0.241316	0.0435	0.534	0.057	0	197	318	3
2026-02-12	15:29:32.050	-26.425	13.51	87.43	0.875228	-0.271572	0.244488	0.042	0.543	0.057	0	197	318	3
2026-02-12	15:29:32.070	-11.9	16.345	93.87	0.966728	-0.249124	0.24522	0.0405	0.555	0.054	0	197	318	3
2026-02-12	15:29:32.090	-1.26	21.875	99.225	1.033828	-0.19764	0.20862	0.0405	0.5685	0.048	0	197	318	3
2026-02-12	15:29:32.110	2.065	26.81	102.445	1.096536	-0.1708	0.174216	0.0465	0.579	0.0495	0	197	318	3
2026-02-12	15:29:32.130	1.05	31.57	104.37	1.126304	-0.146156	0.162016	0.051	0.597	0.045	0	197	318	3
2026-02-12	15:29:32.150	-4.83	36.19	104.51	1.148752	-0.11956	0.171044	0.051	0.612	0.0435	0	197	318	3
2026-02-12	15:29:32.170	-15.295	40.005	100.765	1.19438	-0.096624	0.175924	0.0465	0.6225	0.0405	0	197	318	3
2026-02-12	15:29:32.190	-29.61	43.33	93.555	1.226344	-0.09857599	0.19032	0.0435	0.633	0.0345	0	197	318	3
2026-02-12	15:29:32.210	-39.725	47.075	83.93	1.260504	-0.141276	0.228872	0.0555	0.651	0.039	0	197	325	3
2026-02-12	15:29:32.230	-41.86	54.46	69.09	1.268068	-0.155428	0.262544	0.048	0.6585	0.024	0	197	325	3
2026-02-12	15:29:32.250	-41.65	59.325	58.765	1.192916	-0.122244	0.253516	0.0555	0.6675	0.021	0	197	325	3
2026-02-12	15:29:32.270	-41.37	60.865	44.38	1.198284	-0.090524	0.221796	0.06	0.6855	0.015	0	197	325	3
2026-02-12	15:29:32.290	-45.185	61.635	26.705	1.146312	-0.051484	0.205936	0.0615	0.6975	0.0075	0	197	325	3
2026-02-12	15:29:32.310	-51.94	60.97	8.645	1.04188	-0.011224	0.207156	0.066	0.6975	0.0015	0	197	325	3
2026-02-12	15:29:32.330	-59.85	58.87	-8.715	0.96746	-0.022448	0.200812	0.069	0.7005	-0.0045	0	197	325	3
2026-02-12	15:29:32.350	-65.625	55.825	-25.97	0.946232	-0.06466	0.207888	0.0735	0.699	-0.0075	0	197	325	3
2026-02-12	15:29:32.370	-66.325	53.62	-40.88	0.894016	-0.112972	0.213256	0.0735	0.6945	-0.012	0	197	325	3
2026-02-12	15:29:32.390	-60.83	51.38	-51.03	0.81374	-0.128832	0.218624	0.069	0.696	-0.018	0	197	325	3
2026-02-12	15:29:32.410	-49.315	48.72	-58.1	0.75152	-0.102236	0.235704	0.0675	0.687	-0.009	0	199	312	3
2026-02-12	15:29:32.430	-40.425	45.64	-66.605	0.690032	-0.072224	0.243024	0.0615	0.6885	-0.027	0	199	312	3
2026-02-12	15:29:32.450	-46.235	38.255	-82.25	0.715652	-0.12566	0.205204	0.0615	0.6885	-0.027	0	199	312	3
2026-02-12	15:29:32.470	-53.515	34.265	-95.795	0.748592	-0.130784	0.190808	0.0555	0.6705	-0.033	0	199	312	3
2026-02-12	15:29:32.490	-65.03	30.415	-110.145	0.7869	-0.132736	0.184708	0.0495	0.648	-0.042	0	199	312	3
2026-02-12	15:29:32.510	-76.58	26.915	-124.915	0.825696	-0.16226	0.189588	0.048	0.636	-0.042	0	199	312	3
2026-02-12	15:29:32.530	-80.465	24.745	-138.74	0.86376	-0.204716	0.208864	0.048	0.6225	-0.0405	0	199	312	3
2026-02-12	15:29:32.550	-78.505	22.855	-149.135	0.895236	-0.233508	0.228628	0.0525	0.6045	-0.042	0	199	312	3
2026-02-12	15:29:32.570	-75.915	21.735	-155.435	0.911584	-0.253028	0.2562	0.0525	0.5835	-0.0495	0	199	312	3
2026-02-12	15:29:32.590	-72.485	19.985	-158.41	0.927688	-0.260836	0.274744	0.0465	0.5655	-0.0555	0	199	312	3
2026-02-12	15:29:32.610	-66.71	17.185	-157.955	0.95648	-0.280112	0.2806	0.0435	0.5595	-0.0585	0	201	291	3
2026-02-12	15:29:32.630	-58.135	13.23	-154.455	0.982588	-0.278892	0.296704	0.0405	0.534	-0.054	0	201	291	3
2026-02-12	15:29:32.650	-46.62	6.405	-148.855	1.040904	-0.294752	0.336476	0.042	0.516	-0.0615	0	201	291	3
2026-02-12	15:29:32.670	-32.935	1.12	-140.805	1.044564	-0.274256	0.411628	0.051	0.495	-0.069	0	201	291	3
2026-02-12	15:29:32.690	-33.95	-7.7	-133.245	1.029924	-0.263276	0.41114	0.0585	0.465	-0.072	0	201	291	3
2026-02-12	15:29:32.710	-43.54	-15.785	-125.825	1.00894	-0.32086	0.374052	0.0585	0.45	-0.0675	0	201	291	3
2026-02-12	15:29:32.730	-49.105	-22.12	-117.53	0.964776	-0.326472	0.363316	0.063	0.4335	-0.0675	0	201	291	3
2026-02-12	15:29:32.750	-55.475	-28	-109.76	0.93818	-0.324032	0.370148	0.069	0.4185	-0.066	0	201	291	3
2026-02-12	15:29:32.770	-61.425	-32.27	-102.27	0.904508	-0.342576	0.375272	0.078	0.4065	-0.0645	0	201	291	3
2026-02-12	15:29:32.790	-59.395	-37.135	-94.99	0.92842	-0.376004	0.379664	0.081	0.3915	-0.0615	0	201	291	3
2026-02-12	15:29:32.810	-47.775	-41.09	-87.255	0.974048	-0.412604	0.408944	0.087	0.3765	-0.06	0	202	285	3
2026-02-12	15:29:32.830	-35.84	-41.93	-78.12	0.962092	-0.43188	0.452376	0.0915	0.372	-0.0615	0	202	285	3
2026-02-12	15:29:32.850	-28.42	-41.965	-68.18	0.924272	-0.44042	0.494588	0.0915	0.3765	-0.069	0	202	285	3
2026-02-12	15:29:32.870	-19.775	-42.385	-52.57	0.911096	-0.47702	0.529724	0.09	0.366	-0.0525	0	202	285	3
2026-02-12	15:29:32.890	-14.035	-40.145	-39.97	0.8845	-0.477264	0.545584	0.0975	0.36	-0.048	0	202	285	3
2026-02-12	15:29:32.910	-10.64	-36.155	-25.48	0.833504	-0.478972	0.559736	0.102	0.3525	-0.0435	0	202	285	3
2026-02-12	15:29:32.930	-8.295	-30.73	-9.205	0.725656	-0.473848	0.547292	0.0975	0.3465	-0.0345	0	202	285	3
2026-02-12	15:29:32.950	-4.655	-27.755	7.245	0.648308	-0.463356	0.50752	0.1005	0.342	-0.0315	0	202	285	3
2026-02-12	15:29:32.970	-1.015	-26.425	22.785	0.600972	-0.447496	0.453108	0.105	0.3435	-0.0375	0	202	285	3
2026-02-12	15:29:32.990	4.9	-25.585	37.415	0.591212	-0.433588	0.394304	0.102	0.3465	-0.033	0	202	285	3
2026-02-12	15:29:33.010	15.82	-26.67	50.05	0.663436	-0.424316	0.33184	0.0945	0.3555	-0.0285	0	202	306	3
2026-02-12	15:29:33.030	36.19	-31.08	56.875	0.980636	-0.500444	0.3538	0.0945	0.3645	-0.0315	0	202	306	3
2026-02-12	15:29:33.050	84.665	-28.7	56.63	1.387872	-0.598044	0.497028	0.0855	0.363	-0.024	0	202	306	3
2026-02-12	15:29:33.070	124.355	-19.005	60.9	1.730204	-0.488244	0.577304	0.084	0.369	-0.015	0	202	306	3
2026-02-12	15:29:33.090	99.715	9.345	80.92	1.558428	-0.366488	0.399184	0.084	0.369	-0.015	0	202	306	3
2026-02-12	15:29:33.110	80.255	17.885	92.715	1.422276	-0.335744	0.299876	0.075	0.378	-0.0015	0	202	306	3
2026-02-12	15:29:33.130	75.355	21.385	104.545	1.373964	-0.299876	0.28792	0.0675	0.4005	0.009	0	202	306	3
2026-02-12	15:29:33.150	75.04	24.71	116.69	1.32248	-0.265716	0.309148	0.0645	0.4155	0.009	0	202	306	3
2026-02-12	15:29:33.170	75.25	26.635	127.855	1.25904	-0.232044	0.314272	0.06	0.426	0.0135	0	202	306	3
2026-02-12	15:29:33.190	69.79	27.16	137.795	1.209508	-0.186416	0.284504	0.054	0.444	0.0105	0	202	306	3
2026-02-12	15:29:33.210	54.355	27.055	146.265	1.167296	-0.177632	0.239852	0.051	0.459	0.0045	0	207	334	3
2026-02-12	15:29:33.230	35.455	26.005	153.405	1.121424	-0.18422	0.190076	0.0435	0.48	0.0015	0	207	334	3
2026-02-12	15:29:33.250	22.225	23.1	158.13	1.11142	-0.19276	0.149816	0.0345	0.4935	0.0015	0	207	334	3
2026-02-12	15:29:33.270	15.435	20.545	160.02	1.085312	-0.192516	0.107604	0.0405	0.513	0.0045	0	207	334	3
2026-02-12	15:29:33.290	13.895	16.905	158.795	1.082628	-0.18422	0.06222	0.039	0.5295	0.006	0	207	334	3
2026-02-12	15:29:33.310	15.855	14.875	152.355	1.108492	-0.162992	0.048312	0.0405	0.555	0.003	0	207	334	3
2026-02-12	15:29:33.330	14.735	16.8	142.87	1.037	-0.165676	0.055388	0.045	0.588	0	0	207	334	3
2026-02-12	15:29:33.350	15.155	19.075	132.02	0.94428	-0.191052	0.057584	0.0435	0.603	-0.0015	0	207	334	3
2026-02-12	15:29:33.370	19.04	20.825	120.05	0.884256	-0.21838	0.060756	0.045	0.624	0	0	207	334	3
2026-02-12	15:29:33.390	25.445	21.665	105.77	0.869372	-0.213988	0.058072	0.0525	0.645	0	0	207	334	3
2026-02-12	15:29:33.410	29.015	22.645	88.305	0.877668	-0.20252	0.06344	0.0555	0.663	-0.009	0	215	330	3
2026-02-12	15:29:33.430	26.81	23.52	69.405	0.88572	-0.188124	0.0488	0.057	0.672	-0.0105	0	215	330	3
2026-02-12	15:29:33.450	18.83	22.925	51.87	0.849608	-0.164944	0.008052	0.057	0.675	-0.0075	0	215	330	3
2026-02-12	15:29:33.470	11.55	16.485	30.835	0.87474	-0.164212	-0.017568	0.057	0.6765	-0.012	0	215	330	3
2026-02-12	15:29:33.490	8.785	6.265	4.41	0.962824	-0.201544	-0.00732	0.066	0.687	-0.0165	0	215	330	3
2026-02-12	15:29:33.510	13.51	-6.755	-36.26	1.080676	-0.268156	0.057828	0.0645	0.6825	-0.024	0	215	330	3
2026-02-12	15:29:33.530	21.77	-14.98	-56.42	1.109224	-0.287188	0.082716	0.0645	0.684	-0.024	0	215	330	3
2026-02-12	15:29:33.550	37.66	-26.11	-71.75	1.118252	-0.29524	0.13786	0.06	0.681	-0.0255	0	215	330	3
2026-02-12	15:29:33.570	60.2	-35.7	-81.165	1.05042	-0.331108	0.204716	0.0495	0.6645	-0.021	0	215	330	3
2026-02-12	15:29:33.590	95.865	-41.51	-81.515	1.00894	-0.3843	0.334768	0.045	0.645	-0.0135	0	215	330	3
2026-02-12	15:29:33.610	147.175	-39.235	-72.205	0.998204	-0.388448	0.442372	0.0525	0.6375	-0.0165	0	223	292	3
2026-02-12	15:29:33.630	193.445	-33.74	-53.62	0.948916	-0.292068	0.45994	0.0495	0.624	-0.018	0	223	292	3
2026-02-12	15:29:33.650	217.84	-31.185	-32.34	0.915732	-0.173728	0.428464	0.0405	0.615	-0.015	0	223	292	3
2026-02-12	15:29:33.670	218.68	-28.35	-15.12	0.953552	-0.084912	0.410408	0.0405	0.6165	-0.0165	0	223	292	3
2026-02-12	15:29:33.690	190.505	-25.06	-3.92	1.002352	-0.015616	0.433344	0.0435	0.612	-0.012	0	223	292	3
2026-02-12	15:29:33.710	138.88	-22.68	1.085	1.023824	0.036844	0.435052	0.0435	0.6015	-0.012	0	223	292	3
2026-02-12	15:29:33.730	42.42	-24.92	-1.4	1.011624	0.15372	0.399672	0.0435	0.6015	-0.012	0	223	292	3
2026-02-12	15:29:33.750	-16.87	-26.915	-8.82	0.970388	0.105408	0.411872	0.0405	0.5985	-0.009	0	223	292	3
2026-02-12	15:29:33.770	-46.375	-23.555	-15.82	0.924272	0.061732	0.545828	0.036	0.5955	-0.0045	0	223	292	3
2026-02-12	15:29:33.790	-58.555	-17.465	-23.555	0.839116	0.029036	0.599264	0.0315	0.594	-0.0015	0	223	292	3
2026-02-12	15:29:33.810	-70.385	-13.44	-30.73	0.795928	-0.025376	0.573644	0.033	0.5955	0.0015	0	231	275	3
2026-02-12	15:29:33.830	-77.49	-9.695	-37.205	0.793976	-0.1037	0.521184	0.0345	0.5925	0.006	0	231	275	3
2026-02-12	15:29:33.850	-71.26	-6.3	-42.175	0.815204	-0.1525	0.471652	0.033	0.585	0.0045	0	231	275	3
2026-02-12	15:29:33.870	-55.09	-2.31	-45.15	0.806908	-0.167872	0.427732	0.033	0.585	0.0015	0	231	275	3
2026-02-12	15:29:33.890	-39.095	0.525	-46.025	0.786656	-0.157136	0.374784	0.0315	0.573	0.006	0	231	275	3
2026-02-12	15:29:33.910	-28.21	0	-45.78	0.77836	-0.14762	0.337696	0.0375	0.567	0.009	0	231	275	3
2026-02-12	15:29:33.930	-19.32	-4.41	-45.605	0.766404	-0.143716	0.33184	0.036	0.564	0.0105	0	231	275	3
2026-02-12	15:29:33.950	-13.86	-10.535	-46.9	0.76494	-0.136396	0.339648	0.036	0.564	0.0105	0	231	275	3
2026-02-12	15:29:33.970	-12.705	-15.015	-48.615	0.748104	-0.142252	0.357948	0.0345	0.5535	0.009	0	231	275	3
2026-02-12	15:29:33.990	-14	-18.165	-49.875	0.740296	-0.160796	0.38552	0.0345	0.543	0.009	0	231	275	3
2026-02-12	15:29:34.010	-15.61	-19.285	-51.275	0.741272	-0.18788	0.402844	0.0345	0.54	0.0105	0	237	294	3
2026-02-12	15:29:34.030	-18.305	-21.105	-52.85	0.764452	-0.220576	0.377956	0.033	0.528	0.0105	0	237	294	3
2026-02-12	15:29:34.050	-22.085	-25.13	-54.39	0.786412	-0.242292	0.34404	0.0375	0.513	0.0165	0	237	294	3
2026-02-12	15:29:34.070	-26.075	-30.17	-56.105	0.786656	-0.268156	0.330864	0.039	0.4995	0.024	0	237	294	3
2026-02-12	15:29:34.090	-22.75	-36.26	-57.96	0.80886	-0.314516	0.345992	0.0345	0.489	0.027	0	237	294	3
2026-02-12	15:29:34.110	-10.99	-41.44	-60.025	0.838628	-0.353068	0.3782	0.039	0.489	0.0315	0	237	294	3
2026-02-12	15:29:34.130	1.785	-44.66	-60.27	0.859368	-0.362096	0.391376	0.033	0.492	0.0345	0	237	294	3
2026-02-12	15:29:34.150	15.435	-50.785	-59.255	0.930128	-0.336476	0.374296	0.033	0.4815	0.027	0	237	294	3
2026-02-12	15:29:34.170	22.12	-56.28	-59.185	1.016016	-0.334524	0.344772	0.036	0.4725	0.042	0	237	294	3
2026-02-12	15:29:34.190	38.675	-63.315	-61.46	1.202188	-0.386008	0.422364	0.0405	0.4605	0.06	0	237	294	3
2026-02-12	15:29:34.210	68.67	-59.745	-62.265	1.410564	-0.50386	0.626592	0.0465	0.453	0.066	0	240	322	3
2026-02-12	15:29:34.230	100.17	-43.19	-50.75	1.34688	-0.495808	0.629276	0.0525	0.4425	0.075	0	240	322	3
2026-02-12	15:29:34.250	113.89	-29.4	-30.24	1.197552	-0.421144	0.488976	0.0525	0.4365	0.0855	0	240	322	3
2026-02-12	15:29:34.270	120.33	-18.725	-11.165	1.160464	-0.370148	0.409432	0.0585	0.4395	0.0945	0	240	322	3
2026-02-12	15:29:34.290	130.515	-6.93	7.91	1.16388	-0.37454	0.395524	0.063	0.4425	0.1005	0	240	322	3
2026-02-12	15:29:34.310	142.135	4.69	33.11	1.11996	-0.296216	0.388692	0.06	0.4425	0.108	0	240	322	3
2026-02-12	15:29:34.330	136.64	14.91	57.505	1.077016	-0.195688	0.387228	0.06	0.447	0.117	0	240	322	3
2026-02-12	15:29:34.350	114.065	23.31	74.375	1.0858	-0.080032	0.386252	0.0495	0.4575	0.1215	0	240	322	3
2026-02-12	15:29:34.370	40.88	35.945	88.9	1.069208	-0.03538	0.340624	0.0495	0.4575	0.1215	0	240	322	3
2026-02-12	15:29:34.390	-11.13	40.11	95.515	1.032608	-0.05002	0.301584	0.048	0.4755	0.117	0	240	322	3
2026-02-12	15:29:34.410	-52.99	40.355	100.765	1.016748	-0.105896	0.285724	0.0465	0.5025	0.1095	0	241	348	3
2026-02-12	15:29:34.430	-77.49	38.255	105.21	1.025044	-0.157868	0.277184	0.0405	0.5175	0.1035	0	241	348	3
2026-02-12	15:29:34.450	-90.3	36.19	109.13	1.036512	-0.19642	0.252784	0.0345	0.531	0.099	0	241	348	3
2026-02-12	15:29:34.470	-95.165	36.435	111.93	1.057496	-0.229116	0.22082	0.033	0.543	0.093	0	241	348	3
2026-02-12	15:29:34.490	-93.065	36.855	112.595	1.126548	-0.238388	0.177144	0.033	0.561	0.0825	0	241	348	3
2026-02-12	15:29:34.510	-88.83	37.66	112.35	1.1163	-0.229604	0.134688	0.0315	0.5745	0.0765	0	241	348	3
2026-02-12	15:29:34.530	-83.825	37.52	111.65	1.037244	-0.218624	0.096624	0.033	0.585	0.0795	0	241	348	3
2026-02-12	15:29:34.550	-73.675	34.37	108.71	0.995276	-0.21594	0.078568	0.0315	0.5955	0.0795	0	241	348	3
2026-02-12	15:29:34.570	-55.51	29.05	101.815	0.98454	-0.220088	0.071736	0.033	0.6105	0.072	0	241	348	3
2026-02-12	15:29:34.590	-38.115	24.15	92.015	0.985028	-0.219112	0.072712	0.036	0.627	0.069	0	241	348	3
2026-02-12	15:29:34.610	-24.64	20.755	82.635	0.951356	-0.21472	0.068564	0.033	0.648	0.0645	0	241	347	3
2026-02-12	15:29:34.630	-10.325	17.15	71.82	0.9333	-0.217892	0.068808	0.036	0.66	0.0645	0	241	347	3
2026-02-12	15:29:34.650	4.165	14.21	59.955	0.929396	-0.220088	0.055388	0.0435	0.6765	0.06	0	241	347	3
2026-02-12	15:29:34.670	16.94	10.815	47.915	0.915732	-0.208376	0.052948	0.045	0.6855	0.0525	0	241	347	3
2026-02-12	15:29:34.690	30.31	6.09	34.65	0.914268	-0.211548	0.077104	0.045	0.6855	0.0525	0	241	347	3
2026-02-12	15:29:34.710	44.485	2.66	19.81	0.975512	-0.20984	0.121512	0.0435	0.684	0.0555	0	241	347	3
2026-02-12	15:29:34.730	56.875	1.155	1.995	1.11508	-0.196664	0.131516	0.051	0.699	0.054	0	241	347	3
2026-02-12	15:29:34.750	66.22	0.77	-17.255	1.175348	-0.19886	0.132492	0.0465	0.7005	0.048	0	241	347	3
2026-02-12	15:29:34.770	67.095	-2.065	-32.76	1.111176	-0.155672	0.12444	0.0405	0.693	0.039	0	241	347	3
2026-02-12	15:29:34.790	64.645	-11.27	-50.365	1.002108	-0.136884	0.205936	0.048	0.6855	0.042	0	241	347	3
2026-02-12	15:29:34.810	67.69	-16.52	-57.4	0.94184	-0.12932	0.260104	0.0405	0.684	0.0375	0	238	313	3
2026-02-12	15:29:34.830	71.365	-21.84	-59.92	0.890844	-0.1281	0.27938	0.0375	0.678	0.036	0	238	313	3
2026-02-12	15:29:34.850	75.565	-29.68	-60.935	0.917928	-0.15372	0.2989	0.033	0.6675	0.0375	0	238	313	3
2026-02-12	15:29:34.870	85.995	-35.945	-61.915	0.9821	-0.186416	0.353312	0.0285	0.663	0.0435	0	238	313	3
2026-02-12	15:29:34.890	102.445	-38.465	-62.79	1.00284	-0.14884	0.408456	0.033	0.6495	0.0465	0	238	313	3
2026-02-12	15:29:34.910	113.75	-37.24	-64.435	0.98942	-0.07198	0.41968	0.024	0.6375	0.0435	0	238	313	3
2026-02-12	15:29:34.930	110.32	-34.44	-66.115	0.96746	-0.014396	0.386496	0.0165	0.636	0.048	0	238	313	3
2026-02-12	15:29:34.950	88.97	-31.85	-67.165	0.964044	0.007808	0.346968	0.0345	0.6285	0.051	0	238	313	3
2026-02-12	15:29:34.970	56.07	-28.91	-69.125	0.959652	0.001464	0.3233	0.024	0.6255	0.0465	0	238	313	3
2026-02-12	15:29:34.990	21.42	-25.375	-70.315	0.942328	-0.017812	0.325252	0.018	0.6075	0.0585	0	238	313	3
2026-02-12	15:29:35.010	-17.255	-19.11	-66.85	0.92232	-0.075396	0.308416	0.018	0.6075	0.0585	0	233	284	3
2026-02-12	15:29:35.030	-29.085	-17.395	-61.39	0.92964	-0.09882	0.291824	0.0195	0.5925	0.0615	0	233	284	3
2026-02-12	15:29:35.050	-31.395	-16.625	-56.175	0.956236	-0.128588	0.287432	0.012	0.5775	0.0675	0	233	284	3
2026-02-12	15:29:35.070	-25.06	-15.015	-50.155	0.977952	-0.143472	0.287188	0.0075	0.5715	0.0675	0	233	284	3
2026-02-12	15:29:35.090	-18.9	-13.825	-42.945	0.976488	-0.14274	0.273768	0.0135	0.561	0.0675	0	233	284	3
2026-02-12	15:29:35.110	-15.68	-14.98	-35.84	0.991128	-0.13786	0.269864	0.0165	0.555	0.069	0	233	284	3
2026-02-12	15:29:35.130	-15.89	-16.59	-29.54	0.959164	-0.131028	0.28426	0.0195	0.5505	0.0705	0	233	284	3
2026-02-12	15:29:35.150	-18.97	-18.515	-24.29	0.941108	-0.128832	0.284748	0.0195	0.549	0.072	0	233	284	3
2026-02-12	15:29:35.170	-23.94	-21.07	-20.93	0.95648	-0.14762	0.291336	0.012	0.537	0.075	0	233	284	3
2026-02-12	15:29:35.190	-26.53	-22.155	-17.71	0.98576	-0.175924	0.320372	0.0165	0.5445	0.078	0	233	284	3
2026-02-12	15:29:35.210	-24.885	-20.51	-13.44	0.940864	-0.175436	0.332572	0.009	0.5355	0.087	0	225	277	3
2026-02-12	15:29:35.230	-23.415	-17.99	-9.59	0.8784	-0.1525	0.312076	0.015	0.531	0.0855	0	225	277	3
2026-02-12	15:29:35.250	-24.85	-15.715	-7.105	0.829356	-0.153964	0.303292	0.0195	0.5265	0.0885	0	225	277	3
2026-02-12	15:29:35.270	-27.195	-14	-5.215	0.785436	-0.155184	0.300608	0.015	0.525	0.0945	0	225	277	3
2026-02-12	15:29:35.290	-30.975	-12.285	-4.235	0.727608	-0.140056	0.3172	0.0165	0.522	0.0975	0	225	277	3
2026-02-12	15:29:35.310	-36.68	-8.12	-3.29	0.642208	-0.134688	0.351116	0.021	0.5175	0.096	0	225	277	3
2026-02-12	15:29:35.330	-42.91	-5.18	-3.01	0.56974	-0.105896	0.324764	0.021	0.5175	0.093	0	225	277	3
2026-02-12	15:29:35.350	-49.525	-5.04	-5.11	0.523136	-0.126148	0.29768	0.0195	0.5205	0.093	0	225	277	3
2026-02-12	15:29:35.370	-58.905	-5.32	-5.32	0.473604	-0.15982	0.273036	0.015	0.5205	0.099	0	225	277	3
2026-02-12	15:29:35.390	-72.485	-8.82	-4.305	0.48678	-0.21106	0.242536	0.03	0.513	0.1005	0	225	277	3
2026-02-12	15:29:35.410	-77.28	-16.205	-2.555	0.624152	-0.35014	0.259616	0.009	0.513	0.0975	0	216	283	3
2026-02-12	15:29:35.430	-52.99	-32.97	0.56	0.93086	-0.397964	0.34648	0.021	0.501	0.0975	0	216	283	3
2026-02-12	15:29:35.450	-33.18	-43.435	-8.61	1.324676	-0.555344	0.572424	0.0195	0.5055	0.102	0	216	283	3
2026-02-12	15:29:35.470	10.255	-35.14	-13.755	1.6958	-0.806176	0.750788	0.021	0.507	0.1095	0	216	283	3
2026-02-12	15:29:35.490	50.82	-13.895	-2.765	1.6836	-0.75762	0.607316	0.021	0.5025	0.117	0	216	283	3
2026-02-12	15:29:35.510	74.27	5.67	4.375	1.620648	-0.574864	0.420412	0.0165	0.5025	0.1185	0	216	283	3
2026-02-12	15:29:35.530	71.75	22.61	10.92	1.608692	-0.45262	0.342576	0.0195	0.51	0.117	0	216	283	3
2026-02-12	15:29:35.550	47.81	36.365	24.115	1.461804	-0.391864	0.315736	0.024	0.513	0.117	0	216	283	3
2026-02-12	15:29:35.570	19.565	42.21	43.47	1.244888	-0.339404	0.29402	0.015	0.513	0.1155	0	216	283	3
2026-02-12	15:29:35.590	-1.575	41.16	64.4	1.040416	-0.276452	0.289384	0.012	0.5175	0.111	0	216	283	3
2026-02-12	15:29:35.610	-12.145	33.985	83.51	0.952576	-0.21716	0.264496	0.015	0.525	0.1035	0	214	301	3
2026-02-12	15:29:35.630	-22.19	27.335	99.68	0.890356	-0.188856	0.227896	0.012	0.5355	0.0915	0	214	301	3
2026-02-12	15:29:35.650	-34.79	18.165	120.015	0.808616	-0.20618	0.15128	0.0105	0.5565	0.0915	0	214	301	3
2026-02-12	15:29:35.670	-33.81	11.34	127.61	0.810324	-0.202032	0.115168	0.0075	0.5685	0.0915	0	214	301	3
2026-02-12	15:29:35.690	-29.855	5.915	128.625	0.861076	-0.197396	0.098088	0.006	0.5895	0.0945	0	214	301	3
2026-02-12	15:29:35.710	-27.58	3.325	124.915	0.865956	-0.192028	0.08052	0.0075	0.6135	0.0915	0	214	301	3
2026-02-12	15:29:35.730	-26.005	1.89	118.615	0.81374	-0.205204	0.065636	0.015	0.6315	0.0915	0	214	301	3
2026-02-12	15:29:35.750	-19.355	0.315	109.55	0.805688	-0.217404	0.050996	0.018	0.6435	0.0975	0	214	301	3
2026-02-12	15:29:35.770	-6.93	-0.56	96.32	0.857416	-0.220576	0.055632	0.015	0.654	0.102	0	214	301	3
2026-02-12	15:29:35.790	7.385	1.47	81.025	0.86498	-0.237168	0.056852	0.0195	0.666	0.1005	0	214	301	3
2026-02-12	15:29:35.810	24.535	2.66	65.17	0.91744	-0.266692	0.074908	0.0225	0.6825	0.096	0	219	300	3
2026-02-12	15:29:35.830	43.365	3.29	48.965	1.011868	-0.268156	0.101016	0.0225	0.6945	0.0975	0	219	300	3
2026-02-12	15:29:35.850	62.265	6.44	30.345	1.058716	-0.2196	0.105408	0.0285	0.6975	0.0915	0	219	300	3
2026-02-12	15:29:35.870	69.37	7.525	9.835	1.101904	-0.173972	0.0915	0.0255	0.702	0.087	0	219	300	3
2026-02-12	15:29:35.890	65.625	4.69	-11.48	1.215364	-0.188124	0.13176	0.0195	0.7095	0.0825	0	219	300	3
2026-02-12	15:29:35.910	57.785	4.9	-31.535	1.225368	-0.22448	0.205692	0.0225	0.714	0.075	0	219	300	3
2026-02-12	15:29:35.930	51.8	6.825	-44.345	1.116056	-0.218136	0.244976	0.027	0.711	0.0705	0	219	300	3
2026-02-12	15:29:35.950	48.055	1.925	-56	1.115812	-0.16714	0.2379	0.021	0.7005	0.0705	0	219	300	3
2026-02-12	15:29:35.970	38.255	-1.61	-64.19	1.037732	-0.191296	0.224236	0.0165	0.6945	0.0705	0	219	300	3
2026-02-12	15:29:35.990	35.21	-6.755	-64.61	0.95404	-0.239852	0.28426	0.018	0.693	0.063	0	219	300	3
2026-02-12	15:29:36.010	49.945	-7.77	-56.805	0.974536	-0.253516	0.470188	0.018	0.693	0.063	0	226	278	3
2026-02-12	15:29:36.030	63.035	1.505	-49.595	0.981368	-0.212036	0.471164	0.0045	0.6795	0.06	0	226	278	3
2026-02-12	15:29:36.050	69.3	13.125	-39.97	0.890112	-0.089792	0.367708	0.006	0.6675	0.0615	0	226	278	3
2026-02-12	15:29:36.070	49.175	19.985	-32.97	0.89182	-0.032696	0.278404	0.0045	0.6585	0.063	0	226	278	3
2026-02-12	15:29:36.090	15.05	20.37	-34.3	0.94672	-0.048068	0.248636	0.009	0.651	0.0555	0	226	278	3
2026-02-12	15:29:36.110	-27.195	19.985	-38.045	0.962336	-0.051728	0.22814	0.0075	0.642	0.0435	0	226	278	3
2026-02-12	15:29:36.130	-67.34	20.755	-41.79	0.957212	-0.076128	0.220088	0.003	0.636	0.039	0	226	278	3
2026-02-12	15:29:36.150	-94.15	19.95	-44.03	0.956968	-0.10004	0.246928	0.0015	0.63	0.0405	0	226	278	3
2026-02-12	15:29:36.170	-111.755	16.87	-45.22	0.961604	-0.14762	0.273524	0	0.624	0.039	0	226	278	3
2026-02-12	15:29:36.190	-117.705	14.035	-45.255	0.955992	-0.205936	0.293044	0	0.621	0.0345	0	226	278	3
2026-02-12	15:29:36.210	-109.27	11.515	-44.38	0.94184	-0.2379	0.303536	-0.0075	0.612	0.0345	0	230	263	3
2026-02-12	15:29:36.230	-91.525	9.695	-42.455	0.928664	-0.244244	0.315248	0.0045	0.6	0.03	0	230	263	3
2026-02-12	15:29:36.250	-70.77	8.26	-40.32	0.897188	-0.216916	0.292068	-0.0015	0.5955	0.0285	0	230	263	3
2026-02-12	15:29:36.270	-52.29	6.09	-39.515	0.873764	-0.1891	0.260104	0.003	0.5955	0.03	0	230	263	3
2026-02-12	15:29:36.290	-33.285	1.505	-42.245	0.889136	-0.196908	0.239852	0.003	0.5955	0.03	0	230	263	3
2026-02-12	15:29:36.310	-27.16	-1.54	-45.185	0.89426	-0.211548	0.239852	0.0015	0.582	0.03	0	230	263	3
2026-02-12	15:29:36.330	-23.555	-4.97	-48.44	0.89914	-0.209596	0.255224	-0.0015	0.5685	0.027	0	230	263	3
2026-02-12	15:29:36.350	-23.485	-7.21	-51.66	0.877668	-0.20496	0.274256	-0.006	0.558	0.0285	0	230	263	3
2026-02-12	15:29:36.370	-26.6	-9.975	-54.915	0.86986	-0.210084	0.298168	-0.006	0.5475	0.0285	0	230	263	3
2026-02-12	15:29:36.390	-36.26	-12.635	-57.925	0.887184	-0.218624	0.334768	-0.006	0.546	0.027	0	230	263	3
2026-02-12	15:29:36.410	-52.395	-13.685	-60.165	0.907192	-0.226432	0.3538	-0.0075	0.5325	0.033	0	230	262	3
2026-02-12	15:29:36.430	-69.685	-14.98	-62.02	0.903044	-0.218136	0.359656	-0.006	0.5265	0.0405	0	230	262	3
2026-02-12	15:29:36.450	-87.605	-17.01	-63.35	0.898896	-0.231068	0.35624	-0.0045	0.5205	0.027	0	230	262	3
2026-02-12	15:29:36.470	-101.92	-17.605	-64.89	0.891576	-0.288164	0.346724	0	0.51	0.0345	0	230	262	3
2026-02-12	15:29:36.490	-105.735	-17.01	-64.855	0.863272	-0.368196	0.339648	0.003	0.4935	0.039	0	230	262	3
2026-02-12	15:29:36.510	-98.455	-15.015	-61.6	0.79788	-0.428952	0.340868	0.0015	0.486	0.039	0	230	262	3
2026-02-12	15:29:36.530	-84.77	-13.44	-56.175	0.718336	-0.456524	0.350384	0.0045	0.468	0.036	0	230	262	3
2026-02-12	15:29:36.550	-72.275	-13.72	-50.68	0.685396	-0.448228	0.352336	0.009	0.4545	0.033	0	230	262	3
2026-02-12	15:29:36.570	-63.315	-11.06	-44.52	0.676856	-0.445788	0.34404	0.009	0.447	0.033	0	230	262	3
2026-02-12	15:29:36.590	-63.21	-9.135	-36.61	0.657336	-0.388204	0.260836	0.006	0.441	0.0345	0	230	262	3
2026-02-12	15:29:36.610	-77.35	-13.3	-29.435	0.6588	-0.359412	0.17202	0.0015	0.438	0.0375	0	225	272	3
2026-02-12	15:29:36.630	-90.685	-23.275	-23.275	0.716384	-0.4209	0.166408	0.015	0.4395	0.024	0	225	272	3
2026-02-12	15:29:36.650	-80.78	-35.07	-20.475	0.929152	-0.55754	0.288408	0.0165	0.438	0.024	0	225	272	3
2026-02-12	15:29:36.670	-26.39	-35.245	-24.43	1.322724	-0.773968	0.518012	0.0135	0.4245	0.03	0	225	272	3
2026-02-12	15:29:36.690	52.955	-18.83	-27.685	1.580876	-0.7625	0.600972	0.0195	0.42	0.0255	0	225	272	3
2026-02-12	15:29:36.710	129.535	10.29	-13.755	1.630652	-0.6466	0.347944	0.015	0.417	0.039	0	225	272	3
2026-02-12	15:29:36.730	153.37	21.245	-2.87	1.520852	-0.483852	0.133712	0.0165	0.417	0.039	0	225	272	3
2026-02-12	15:29:36.750	150.605	25.725	13.195	1.394216	-0.421632	0.08295999	0.0195	0.423	0.0375	0	225	272	3
2026-02-12	15:29:36.770	142.45	27.23	33.495	1.233664	-0.357704	0.153232	0.015	0.426	0.039	0	225	272	3
2026-02-12	15:29:36.790	130.655	23.835	59.255	1.057984	-0.269132	0.229848	0.012	0.4305	0.042	0	225	272	3
2026-02-12	15:29:36.810	120.295	17.57	84.595	0.917684	-0.16592	0.290604	0.0135	0.4365	0.0405	0	223	282	3
2026-02-12	15:29:36.830	104.265	10.255	103.565	0.859124	-0.129076	0.325496	0.015	0.4515	0.048	0	223	282	3
2026-02-12	15:29:36.850	89.53	6.335	117.39	0.846192	-0.182756	0.300608	0.0015	0.456	0.0465	0	223	282	3
2026-02-12	15:29:36.870	79.905	3.85	126.735	0.86132	-0.192516	0.25742	0.0015	0.486	0.0585	0	223	282	3
2026-02-12	15:29:36.890	68.285	3.85	131.005	0.94062	-0.205936	0.221064	0.0105	0.5085	0.054	0	223	282	3
2026-02-12	15:29:36.910	52.92	7.14	130.76	0.940376	-0.189832	0.173972	0.0045	0.519	0.054	0	223	282	3
2026-02-12	15:29:36.930	26.04	11.62	123.06	0.870348	-0.201056	0.08686399	0.0045	0.519	0.054	0	223	282	3
2026-02-12	15:29:36.950	14.875	10.99	112.49	0.936228	-0.234728	0.057828	0.0045	0.5475	0.051	0	223	282	3
2026-02-12	15:29:36.970	13.93	11.62	99.05	1.022116	-0.254248	0.070028	0.0045	0.588	0.048	0	223	282	3
2026-02-12	15:29:36.990	16.59	17.08	87.78	0.982344	-0.246928	0.089548	0.0075	0.6075	0.0435	0	223	282	3
2026-02-12	15:29:37.010	23.17	22.785	77.49	0.952576	-0.241316	0.099064	0.009	0.6195	0.0405	0	224	279	3
2026-02-12	15:29:37.030	31.815	26.705	66.36	0.986492	-0.24156	0.122244	0.009	0.624	0.0405	0	224	279	3
2026-02-12	15:29:37.050	43.785	29.855	57.505	1.084336	-0.260348	0.147132	0.0075	0.636	0.0345	0	224	279	3
2026-02-12	15:29:37.070	52.045	33.425	50.715	1.14558	-0.189344	0.126636	0.012	0.651	0.0315	0	224	279	3
2026-02-12	15:29:37.090	41.65	33.46	44.205	1.13094	-0.115412	0.081252	0.0075	0.654	0.027	0	224	279	3
2026-02-12	15:29:37.110	19.775	30.24	35.98	1.152168	-0.124684	0.108092	0.015	0.666	0.0255	0	224	279	3
2026-02-12	15:29:37.130	-0.49	30.38	25.76	1.182424	-0.121512	0.178608	0.015	0.6705	0.0165	0	224	279	3
2026-02-12	15:29:37.150	-24.92	30.135	15.54	1.111176	-0.099552	0.16836	0.021	0.6735	0.015	0	224	279	3
2026-02-12	15:29:37.170	-46.935	22.68	5.53	1.075308	-0.127124	0.153476	0.024	0.6765	0.0045	0	224	279	3
2026-02-12	15:29:37.190	-59.5	13.335	-4.76	0.990884	-0.182268	0.202764	0.0225	0.6735	0.003	0	224	279	3
2026-02-12	15:29:37.210	-58.59	5.495	-13.72	0.878156	-0.154696	0.281332	0.0225	0.678	0.003	0	226	259	3
2026-02-12	15:29:37.230	-49.49	0.21	-21.42	0.770552	-0.148352	0.346724	0.0225	0.681	0.0015	0	226	259	3
2026-02-12	15:29:37.250	-28	-4.2	-25.515	0.71126	-0.186172	0.377468	0.024	0.678	0.006	0	226	259	3
2026-02-12	15:29:37.270	-0.84	-7.77	-27.755	0.704916	-0.203984	0.388448	0.0165	0.6705	0.0105	0	226	259	3
2026-02-12	15:29:37.290	24.01	-8.225	-30.31	0.775432	-0.209596	0.380152	0.024	0.6735	0.015	0	226	259	3
2026-02-12	15:29:37.310	41.44	-5.215	-33.53	0.846436	-0.182268	0.346724	0.021	0.6675	0.012	0	226	259	3
2026-02-12	15:29:37.330	46.375	-1.96	-38.465	0.887672	-0.122732	0.30012	0.0165	0.6645	0.0105	0	226	259	3
2026-02-12	15:29:37.350	37.905	-1.575	-50.47	0.982832	-0.071736	0.241072	0.015	0.651	0.009	0	226	259	3
2026-02-12	15:29:37.370	26.565	-3.605	-59.01	1.026752	-0.056364	0.231312	0.015	0.642	0.006	0	226	259	3
2026-02-12	15:29:37.390	14.105	-2.205	-65.485	1.032852	-0.07515199	0.334524	0.012	0.6315	0.003	0	226	259	3
2026-02-12	15:29:37.410	3.955	5.425	-69.37	1.003328	-0.084424	0.416264	0.009	0.6255	0.003	0	227	249	3
2026-02-12	15:29:37.430	-10.78	7.63	-72.66	0.976488	-0.07198	0.443348	0.012	0.612	0.003	0	227	249	3
2026-02-12	15:29:37.450	-31.01	7.035	-75.53	0.96502	-0.088572	0.42944	0.015	0.6045	0.0045	0	227	249	3
2026-02-12	15:29:37.470	-48.055	3.955	-77.945	0.975024	-0.106872	0.405284	0.009	0.591	-0.0015	0	227	249	3
2026-02-12	15:29:37.490	-58.45	0.945	-80.64	0.99064	-0.141764	0.401624	0.012	0.588	-0.0015	0	227	249	3
2026-02-12	15:29:37.510	-63.28	0.42	-82.075	0.95526	-0.15982	0.39284	0.012	0.576	0.0045	0	227	249	3
2026-02-12	15:29:37.530	-64.575	-0.735	-82.355	0.948672	-0.182268	0.39284	0.0045	0.558	0.0045	0	227	249	3
2026-02-12	15:29:37.550	-60.55	-2.205	-82.845	1.000156	-0.209108	0.40016	0.015	0.5505	0.0045	0	227	249	3
2026-02-12	15:29:37.570	-50.435	-3.15	-82.88	1.006988	-0.224236	0.403576	0.015	0.5505	0.0045	0	227	249	3
2026-02-12	15:29:37.590	-45.395	-3.955	-81.83	0.969656	-0.226676	0.401624	0.0135	0.531	0.0015	0	227	249	3
2026-02-12	15:29:37.610	-41.3	-4.97	-79.695	0.924272	-0.231312	0.386252	0.012	0.51	-0.0045	0	226	263	3
2026-02-12	15:29:37.630	-39.34	-7.035	-77.14	0.882548	-0.219844	0.358192	0.0165	0.4965	-0.006	0	226	263	3
2026-02-12	15:29:37.650	-40.11	-10.01	-76.055	0.86376	-0.214476	0.347212	0.018	0.4785	-0.0015	0	226	263	3
2026-02-12	15:29:37.670	-41.86	-12.845	-75.53	0.837896	-0.24766	0.349896	0.0165	0.4725	-0.0015	0	226	263	3
2026-02-12	15:29:37.690	-42.455	-15.75	-73.43	0.792268	-0.269376	0.349164	0.012	0.4575	-0.009	0	226	263	3
2026-02-12	15:29:37.710	-41.65	-19.18	-70.28	0.749812	-0.289628	0.340136	0.021	0.4575	0.003	0	226	263	3
2026-02-12	15:29:37.730	-39.095	-21.21	-66.885	0.689788	-0.303536	0.351604	0.0255	0.441	0.0105	0	226	263	3
2026-02-12	15:29:37.750	-34.335	-23.205	-63.665	0.653432	-0.33916	0.365756	0.027	0.4365	0.0015	0	226	263	3
2026-02-12	15:29:37.770	-23.765	-26.88	-58.765	0.676368	-0.403088	0.372832	0.03	0.423	0.0105	0	226	263	3
2026-02-12	15:29:37.790	-6.79	-29.715	-49.56	0.70516	-0.452864	0.391132	0.036	0.414	0.0135	0	226	263	3
2026-02-12	15:29:37.810	11.515	-32.305	-37.24	0.737368	-0.4819	0.408944	0.0405	0.4095	0.0165	0	223	290	3
2026-02-12	15:29:37.830	36.82	-35.735	-24.57	0.892308	-0.510692	0.438468	0.039	0.405	0.0165	0	223	290	3
2026-02-12	15:29:37.850	73.885	-38.01	-16.485	1.150704	-0.540948	0.546072	0.042	0.3945	0.024	0	223	290	3
2026-02-12	15:29:37.870	116.235	-33.355	-9.485	1.403976	-0.569252	0.654408	0.045	0.393	0.0315	0	223	290	3
2026-02-12	15:29:37.890	146.65	-19.565	8.855	1.478396	-0.498736	0.674172	0.048	0.387	0.042	0	223	290	3
2026-02-12	15:29:37.910	148.82	-1.225	27.16	1.323212	-0.377468	0.540704	0.0465	0.39	0.0585	0	223	290	3
2026-02-12	15:29:37.930	130.13	11.235	40.915	1.27734	-0.268888	0.423096	0.0465	0.405	0.066	0	223	290	3
2026-02-12	15:29:37.950	99.715	22.19	50.295	1.2383	-0.20496	0.369904	0.0465	0.402	0.0675	0	223	290	3
2026-02-12	15:29:37.970	69.02	29.015	59.36	1.1712	-0.173972	0.35502	0.0405	0.4125	0.0705	0	223	290	3
2026-02-12	15:29:37.990	30.24	32.165	75.495	1.04188	-0.147132	0.354288	0.0345	0.426	0.063	0	223	290	3
2026-02-12	15:29:38.010	5.04	32.095	85.575	0.943304	-0.127124	0.339404	0.0285	0.4365	0.0615	0	222	324	3
2026-02-12	15:29:38.030	-20.755	29.575	94.395	0.90158	-0.142984	0.308172	0.021	0.453	0.0585	0	222	324	3
2026-02-12	15:29:38.050	-36.295	26.425	101.885	0.98454	-0.17324	0.312564	0.018	0.468	0.057	0	222	324	3
2026-02-12	15:29:38.070	-47.25	24.675	110.11	1.025288	-0.156892	0.27206	0.018	0.483	0.0525	0	222	324	3
2026-02-12	15:29:38.090	-61.88	22.68	119.49	0.95892	-0.164944	0.199592	0.0195	0.4905	0.048	0	222	324	3
2026-02-12	15:29:38.110	-68.74	18.13	125.265	0.9394	-0.182512	0.144936	0.015	0.495	0.045	0	222	324	3
2026-02-12	15:29:38.130	-66.5	14.175	125.615	0.996008	-0.208864	0.142984	0.015	0.5235	0.042	0	222	324	3
2026-02-12	15:29:38.150	-55.965	12.775	122.99	1.058472	-0.220088	0.159576	0.015	0.5415	0.033	0	222	324	3
2026-02-12	15:29:38.170	-43.75	14.595	120.155	1.00284	-0.227652	0.162504	0.0075	0.558	0.0345	0	222	324	3
2026-02-12	15:29:38.190	-27.44	15.68	114.135	0.971364	-0.230336	0.156404	0.0195	0.585	0.0375	0	222	324	3
2026-02-12	15:29:38.210	0.21	17.01	97.545	1.060668	-0.233752	0.12322	0.0195	0.585	0.0375	0	222	339	3
2026-02-12	15:29:38.230	12.39	17.465	84.455	1.11386	-0.214476	0.101992	0.018	0.603	0.0315	0	222	339	3
2026-02-12	15:29:38.250	19.25	16.73	72.415	1.098976	-0.191784	0.11102	0.0255	0.6285	0.0255	0	222	339	3
2026-02-12	15:29:38.270	21.595	14.56	62.16	1.01016	-0.161284	0.134444	0.0285	0.639	0.0255	0	222	339	3
2026-02-12	15:29:38.290	22.015	10.08	52.465	0.959652	-0.14884	0.145668	0.027	0.6495	0.0255	0	222	339	3
2026-02-12	15:29:38.310	23.275	4.69	40.95	0.996252	-0.138104	0.15982	0.0315	0.6555	0.0255	0	222	339	3
2026-02-12	15:29:38.330	20.79	1.295	26.6	1.01016	-0.125172	0.150304	0.0285	0.669	0.027	0	222	339	3
2026-02-12	15:29:38.350	15.855	-3.815	8.295	1.060668	-0.153476	0.159332	0.0225	0.6675	0.0075	0	222	339	3
2026-02-12	15:29:38.370	16.38	-8.89	-11.795	1.079944	-0.19642	0.179584	0.0255	0.6645	0.024	0	222	339	3
2026-02-12	15:29:38.390	20.895	-12.075	-29.05	1.021384	-0.237412	0.209352	0.0285	0.6735	0.0195	0	222	339	3
2026-02-12	15:29:38.410	38.185	-12.74	-40.11	0.952088	-0.258884	0.295972	0.03	0.666	0.021	0	221	320	2
2026-02-12	15:29:38.430	66.325	-6.895	-39.55	0.866932	-0.227164	0.357948	0.0285	0.6585	0.021	0	221	320	2
2026-02-12	15:29:38.450	82.635	-3.535	-34.51	0.831552	-0.12566	0.335744	0.027	0.645	0.021	0	221	320	2
2026-02-12	15:29:38.470	82.215	-2.695	-31.15	0.8845	-0.092232	0.330864	0.0225	0.6405	0.0195	0	221	320	2
2026-02-12	15:29:38.490	71.575	0.63	-30.31	0.942084	-0.08052	0.341112	0.0225	0.639	0.0195	0	221	320	2
2026-02-12	15:29:38.510	53.585	3.115	-32.2	0.99064	-0.050508	0.3294	0.027	0.6375	0.021	0	221	320	2
2026-02-12	15:29:38.530	24.22	4.025	-36.645	1.034072	-0.0244	0.30744	0.0195	0.63	0.018	0	221	320	2
2026-02-12	15:29:38.550	-13.37	5.775	-43.435	1.079944	-0.04026	0.299876	0.021	0.624	0.012	0	221	320	2
2026-02-12	15:29:38.570	-45.57	10.5	-49.77	1.075796	-0.08784	0.304756	0.018	0.6255	0.0135	0	221	320	2
2026-02-12	15:29:38.590	-65.975	15.47	-52.85	1.025044	-0.104188	0.31598	0.0255	0.6135	0.0105	0	221	320	2
2026-02-12	15:29:38.610	-79.625	17.85	-53.2	0.976	-0.128344	0.327692	0.018	0.606	0.0015	0	219	299	3
2026-02-12	15:29:38.630	-83.37	17.115	-52.36	0.944768	-0.164944	0.335256	0.0195	0.5925	0.009	0	219	299	3
2026-02-12	15:29:38.650	-77.035	15.925	-52.15	0.928908	-0.17812	0.33916	0.0195	0.5865	0.0015	0	219	299	3
2026-02-12	15:29:38.670	-70.105	16.17	-51.765	0.909632	-0.176168	0.342576	0.021	0.5745	-0.003	0	219	299	3
2026-02-12	15:29:38.690	-64.89	16.24	-51.695	0.890356	-0.167628	0.316224	0.018	0.564	-0.0045	0	219	299	3
2026-02-12	15:29:38.710	-62.79	15.435	-53.55	0.89792	-0.173484	0.310856	0.015	0.5595	-0.006	0	219	299	3
2026-02-12	15:29:38.730	-61.67	15.435	-57.015	0.908656	-0.199592	0.31232	0.0165	0.558	-0.0075	0	219	299	3
2026-02-12	15:29:38.750	-60.76	15.855	-59.92	0.892064	-0.183976	0.305488	0.021	0.5505	-0.006	0	219	299	3
2026-02-12	15:29:38.770	-60.9	14.665	-62.615	0.878888	-0.169336	0.304756	0.018	0.543	-0.0045	0	219	299	3
2026-02-12	15:29:38.790	-64.995	12.005	-65.94	0.92598	-0.227164	0.335988	0.018	0.537	-0.0075	0	219	299	3
2026-02-12	15:29:38.810	-66.115	11.375	-68.075	0.92232	-0.30256	0.366732	0.027	0.525	-0.0225	0	214	293	3
2026-02-12	15:29:38.830	-64.155	10.64	-67.9	0.908412	-0.30256	0.355508	0.0255	0.507	-0.0225	0	214	293	3
2026-02-12	15:29:38.850	-66.22	7.945	-66.29	0.877424	-0.276452	0.320128	0.0255	0.507	-0.0225	0	214	293	3
2026-02-12	15:29:38.870	-76.37	4.865	-66.325	0.84668	-0.268644	0.307684	0.0255	0.4965	-0.0225	0	214	293	3
2026-02-12	15:29:38.890	-89.915	1.19	-66.92	0.807152	-0.277184	0.30744	0.0315	0.486	-0.0225	0	214	293	3
2026-02-12	15:29:38.910	-101.535	-3.955	-67.795	0.772748	-0.294264	0.308904	0.0345	0.477	-0.027	0	214	293	3
2026-02-12	15:29:38.930	-109.48	-8.855	-69.125	0.75274	-0.31598	0.318664	0.0315	0.4695	-0.0315	0	214	293	3
2026-02-12	15:29:38.950	-110.845	-11.725	-70.805	0.725656	-0.341844	0.348188	0.0345	0.4665	-0.036	0	214	293	3
2026-02-12	15:29:38.970	-108.08	-13.44	-71.4	0.712236	-0.405772	0.368196	0.033	0.4575	-0.0375	0	214	293	3
2026-02-12	15:29:38.990	-104.58	-13.93	-68.635	0.723216	-0.487756	0.380884	0.042	0.444	-0.054	0	214	293	3
2026-02-12	15:29:39.010	-94.185	-13.58	-62.23	0.725168	-0.548024	0.366	0.0405	0.438	-0.0435	0	206	300	3
2026-02-12	15:29:39.030	-73.22	-13.44	-53.69	0.762256	-0.587308	0.364048	0.045	0.4335	-0.054	0	206	300	3
2026-02-12	15:29:39.050	-34.825	-15.435	-40.005	0.868396	-0.600728	0.377468	0.048	0.4215	-0.0435	0	206	300	3
2026-02-12	15:29:39.070	3.08	-20.02	-26.635	0.997716	-0.577548	0.392596	0.0495	0.4185	-0.0405	0	206	300	3
2026-02-12	15:29:39.090	34.895	-22.47	-20.965	1.196576	-0.615612	0.476288	0.051	0.414	-0.0375	0	206	300	3
2026-02-12	15:29:39.110	68.67	-18.13	-14.875	1.360544	-0.633912	0.55998	0.0525	0.414	-0.033	0	206	300	3
2026-02-12	15:29:39.130	91.805	-6.09	-2.17	1.32248	-0.534604	0.505568	0.054	0.4125	-0.0315	0	206	300	3
2026-02-12	15:29:39.150	95.83	3.675	14	1.182424	-0.39284	0.374296	0.0555	0.411	-0.0345	0	206	300	3
2026-02-12	15:29:39.170	86.31	9.38	27.615	1.108248	-0.30866	0.301828	0.054	0.408	-0.0255	0	206	300	3
2026-02-12	15:29:39.190	75.565	11.305	37.975	1.111664	-0.279868	0.320372	0.057	0.4035	-0.027	0	206	300	3
2026-02-12	15:29:39.210	59.5	12.215	46.62	1.087508	-0.268156	0.351604	0.054	0.411	-0.0165	0	202	315	3
2026-02-12	15:29:39.230	42.805	11.865	55.09	1.06384	-0.24156	0.350384	0.0525	0.423	-0.0165	0	202	315	3
2026-02-12	15:29:39.250	25.305	12.95	62.755	0.985516	-0.204716	0.304512	0.045	0.4335	-0.024	0	202	315	3
2026-02-12	15:29:39.270	-1.015	12.845	71.89	0.848144	-0.191296	0.22692	0.042	0.4305	-0.021	0	202	315	3
2026-02-12	15:29:39.290	-13.09	9.975	75.88	0.819352	-0.211792	0.204472	0.045	0.441	-0.024	0	202	315	3
2026-02-12	15:29:39.310	-15.61	6.825	77.98	0.88328	-0.21838	0.196908	0.0435	0.459	-0.0225	0	202	315	3
2026-02-12	15:29:39.330	-15.575	5.95	79.03	0.891332	-0.209596	0.175924	0.039	0.471	-0.0225	0	202	315	3
2026-02-12	15:29:39.350	-14.735	4.69	79.31	0.871568	-0.210816	0.138592	0.0405	0.4845	-0.0255	0	202	315	3
2026-02-12	15:29:39.370	-9.485	1.225	77.525	0.851316	-0.225456	0.121024	0.0405	0.4935	-0.024	0	202	315	3
2026-02-12	15:29:39.390	3.29	-3.01	71.82	0.908168	-0.243268	0.132004	0.0345	0.501	-0.0195	0	202	315	3
2026-02-12	15:29:39.410	21.98	-4.585	63.315	0.94794	-0.26596	0.1586	0.0375	0.5145	-0.0255	0	201	322	3
2026-02-12	15:29:39.430	43.47	-2.205	55.16	0.954772	-0.276696	0.174704	0.0315	0.5265	-0.0285	0	201	322	3
2026-02-12	15:29:39.450	64.225	-0.21	47.565	0.998692	-0.249368	0.181536	0.036	0.5325	-0.0345	0	201	322	3
2026-02-12	15:29:39.470	78.68	2.66	39.41	1.039928	-0.227408	0.185684	0.045	0.534	-0.0285	0	201	322	3
2026-02-12	15:29:39.490	90.405	7.35	31.15	1.07482	-0.16714	0.176168	0.045	0.534	-0.0285	0	201	322	3
2026-02-12	15:29:39.510	84.63	8.295	25.655	1.100928	-0.112972	0.166164	0.0435	0.54	-0.0285	0	201	322	3
2026-02-12	15:29:39.530	65.94	7.525	17.22	1.147532	-0.088816	0.174948	0.042	0.543	-0.0255	0	201	322	3
2026-02-12	15:29:39.550	42.98	7.035	7.035	1.145824	-0.099064	0.217404	0.036	0.543	-0.024	0	201	322	3
2026-02-12	15:29:39.570	22.085	4.515	-2.45	1.15412	-0.100772	0.23668	0.0315	0.5445	-0.0255	0	201	322	3
2026-02-12	15:29:39.590	3.885	1.435	-12.845	1.132404	-0.128344	0.232532	0.0465	0.5475	-0.0285	0	201	322	3
2026-02-12	15:29:39.610	-6.755	0.28	-17.535	1.034072	-0.164456	0.267668	0.045	0.543	-0.0345	0	201	306	3
2026-02-12	15:29:39.630	-5.915	-2.135	-16.345	0.972828	-0.1403	0.313784	0.0465	0.54	-0.033	0	201	306	3
2026-02-12	15:29:39.650	-2.485	-5.915	-12.67	0.937692	-0.070272	0.332816	0.0435	0.5385	-0.036	0	201	306	3
2026-02-12	15:29:39.670	0.105	-10.045	-10.045	0.898408	-0.051484	0.35136	0.042	0.5355	-0.033	0	201	306	3
2026-02-12	15:29:39.690	7.07	-12.25	-8.085	0.932812	-0.0549	0.385276	0.036	0.537	-0.0225	0	201	306	3
2026-02-12	15:29:39.710	12.775	-8.435	-8.4	0.964532	-0.043676	0.392352	0.039	0.5385	-0.027	0	201	306	3
2026-02-12	15:29:39.730	11.41	-2.38	-10.255	0.96624	-0.071492	0.366488	0.039	0.534	-0.033	0	201	306	3
2026-02-12	15:29:39.750	10.045	3.08	-12.705	0.976244	-0.110044	0.33672	0.039	0.534	-0.03	0	201	306	3
2026-02-12	15:29:39.770	10.395	7.035	-15.33	0.967704	-0.117852	0.316468	0.045	0.5295	-0.0285	0	201	306	3
2026-02-12	15:29:39.790	11.27	9.03	-17.885	0.945256	-0.11468	0.311832	0.048	0.522	-0.033	0	201	306	3
2026-02-12	15:29:39.810	12.67	9.135	-20.195	0.941108	-0.100528	0.314272	0.0375	0.5175	-0.033	0	200	294	3
2026-02-12	15:29:39.830	9.765	8.645	-21.14	0.905728	-0.088084	0.33062	0.0345	0.516	-0.0375	0	200	294	3
2026-02-12	15:29:39.850	2.87	6.93	-21.315	0.866444	-0.073932	0.348676	0.0405	0.5175	-0.03	0	200	294	3
2026-02-12	15:29:39.870	-6.72	3.255	-22.925	0.871812	-0.080032	0.360632	0.0435	0.5145	-0.0345	0	200	294	3
2026-02-12	15:29:39.890	-17.92	0.315	-26.425	0.891088	-0.105164	0.379664	0.048	0.516	-0.0345	0	200	294	3
2026-02-12	15:29:39.910	-30.905	-0.42	-29.925	0.872056	-0.152012	0.381128	0.0465	0.5055	-0.039	0	200	294	3
2026-02-12	15:29:39.930	-33.495	0.385	-31.605	0.864492	-0.150304	0.368928	0.048	0.5025	-0.0375	0	200	294	3
2026-02-12	15:29:39.950	-34.23	0.385	-34.51	0.8662	-0.165432	0.363316	0.0465	0.4965	-0.033	0	200	294	3
2026-02-12	15:29:39.970	-33.32	-0.595	-37.135	0.861808	-0.180316	0.366244	0.0465	0.489	-0.03	0	200	294	3
2026-02-12	15:29:39.990	-31.745	-3.605	-39.655	0.867908	-0.214964	0.365268	0.0495	0.4845	-0.0375	0	200	294	3
2026-02-12	15:29:40.010	-28.315	-7.385	-42	0.896456	-0.266692	0.389668	0.051	0.4845	-0.0435	0	197	298	3
2026-02-12	15:29:40.030	-22.19	-10.045	-42.42	0.909144	-0.307196	0.42212	0.0465	0.483	-0.036	0	197	298	3
2026-02-12	15:29:40.050	-14.21	-12.915	-40.845	0.899384	-0.302804	0.434808	0.048	0.477	-0.045	0	197	298	3
2026-02-12	15:29:40.070	-8.015	-15.4	-38.01	0.865712	-0.291824	0.427488	0.051	0.465	-0.036	0	197	298	3
2026-02-12	15:29:40.090	-4.165	-18.97	-34.65	0.821304	-0.301096	0.42334	0.054	0.4635	-0.0345	0	197	298	3
2026-02-12	15:29:40.110	-2.17	-23.485	-30.52	0.756644	-0.32086	0.442128	0.066	0.459	-0.0285	0	197	298	3
2026-02-12	15:29:40.130	0.49	-29.925	-23.17	0.705404	-0.365268	0.467748	0.066	0.459	-0.0285	0	197	298	3
2026-02-12	15:29:40.150	5.075	-34.23	-19.775	0.687104	-0.376248	0.459696	0.057	0.45	-0.024	0	197	298	3
2026-02-12	15:29:40.170	10.99	-37.135	-17.01	0.647332	-0.382348	0.44896	0.0525	0.444	-0.0135	0	197	298	3
2026-02-12	15:29:40.190	19.53	-38.15	-14.245	0.588528	-0.39284	0.450668	0.06	0.4425	-0.003	0	197	298	3
2026-02-12	15:29:40.210	29.645	-37.73	-10.15	0.559248	-0.427976	0.459696	0.063	0.4395	0.0015	0	194	318	2
2026-02-12	15:29:40.230	40.005	-34.09	-3.395	0.548268	-0.467504	0.468724	0.054	0.438	-0.0045	0	194	318	2
2026-02-12	15:29:40.250	49.14	-28.245	9.275	0.527528	-0.460916	0.400892	0.054	0.435	0.0045	0	194	318	2
2026-02-12	15:29:40.270	56.49	-31.675	20.3	0.694424	-0.421144	0.268888	0.0645	0.4335	0.0105	0	194	318	2
2026-02-12	15:29:40.290	68.285	-41.86	13.65	1.025288	-0.494832	0.38186	0.0555	0.441	0.0075	0	194	318	2
2026-02-12	15:29:40.310	92.89	-38.92	1.82	1.330776	-0.677832	0.611708	0.0615	0.4455	0.024	0	194	318	2
2026-02-12	15:29:40.330	118.79	-23.94	5.705	1.597956	-0.639768	0.524112	0.0615	0.4425	0.0375	0	194	318	2
2026-02-12	15:29:40.350	108.675	-4.13	11.095	1.595028	-0.50142	0.26108	0.063	0.447	0.0405	0	194	318	2
2026-02-12	15:29:40.370	84.56	12.985	10.71	1.510116	-0.446764	0.177876	0.066	0.4515	0.0465	0	194	318	2
2026-02-12	15:29:40.390	59.08	23.31	19.74	1.364692	-0.434564	0.180316	0.0615	0.4515	0.0465	0	194	318	2
2026-02-12	15:29:40.410	42.455	28.63	36.505	1.152168	-0.38674	0.178852	0.057	0.4515	0.042	0	195	341	3
2026-02-12	15:29:40.430	34.16	29.085	56.77	0.932324	-0.303292	0.187636	0.0585	0.453	0.039	0	195	341	3
2026-02-12	15:29:40.450	28.91	26.25	73.955	0.826916	-0.22448	0.216428	0.066	0.4605	0.048	0	195	341	3
2026-02-12	15:29:40.470	17.36	23.66	86.94	0.811544	-0.199104	0.2013	0.054	0.477	0.045	0	195	341	3
2026-02-12	15:29:40.490	-0.315	21.245	97.44	0.806176	-0.210816	0.151524	0.057	0.4785	0.048	0	195	341	3
2026-02-12	15:29:40.510	-10.78	17.15	104.86	0.835456	-0.22204	0.108092	0.0465	0.492	0.0375	0	195	341	3
2026-02-12	15:29:40.530	-11.13	11.375	107.1	0.920856	-0.22936	0.086376	0.0585	0.504	0.0375	0	195	341	3
2026-02-12	15:29:40.550	-8.75	7.14	99.89	1.072624	-0.22692	0.089792	0.051	0.519	0.045	0	195	341	3
2026-02-12	15:29:40.570	-11.27	9.415	94.045	1.02358	-0.251808	0.09028	0.0495	0.531	0.0405	0	195	341	3
2026-02-12	15:29:40.590	-2.24	9.52	86.205	0.99674	-0.27572	0.099552	0.0495	0.555	0.036	0	195	341	3
2026-02-12	15:29:40.610	19.775	9.485	74.41	1.037732	-0.299144	0.12322	0.0525	0.5685	0.0375	0	202	336	3
2026-02-12	15:29:40.630	45.99	12.88	61.985	1.07848	-0.303292	0.134444	0.0555	0.5715	0.0405	0	202	336	3
2026-02-12	15:29:40.650	64.61	17.465	51.87	1.131916	-0.234972	0.110044	0.0585	0.579	0.0315	0	202	336	3
2026-02-12	15:29:40.670	67.06	21.245	43.68	1.133624	-0.155428	0.06734399	0.054	0.5925	0.042	0	202	336	3
2026-02-12	15:29:40.690	59.325	20.125	34.335	1.137284	-0.11224	0.03782	0.0495	0.5985	0.027	0	202	336	3
2026-02-12	15:29:40.710	50.435	15.225	23.835	1.1407	-0.131272	0.084424	0.0585	0.6045	0.0285	0	202	336	3
2026-02-12	15:29:40.730	46.375	11.41	15.715	1.107272	-0.156892	0.199836	0.063	0.609	0.0345	0	202	336	3
2026-02-12	15:29:40.750	45.92	10.92	10.22	1.101904	-0.136396	0.260592	0.0465	0.6075	0.0195	0	202	336	3
2026-02-12	15:29:40.770	37.765	8.75	-2.135	1.0736	-0.117608	0.247172	0.0465	0.6075	0.0195	0	202	336	3
2026-02-12	15:29:40.790	33.915	5.215	-8.96	1.008208	-0.194712	0.258884	0.048	0.6105	0.021	0	202	336	3
2026-02-12	15:29:40.810	42.35	0.385	-10.22	0.955504	-0.229116	0.301584	0.054	0.612	0.0225	0	210	304	3
2026-02-12	15:29:40.830	52.85	-1.295	-6.44	0.907192	-0.20862	0.347456	0.057	0.609	0.0195	0	210	304	3
2026-02-12	15:29:40.850	60.9	-0.28	-1.295	0.871324	-0.155428	0.357216	0.057	0.6105	0.018	0	210	304	3
2026-02-12	15:29:40.870	63.63	1.015	2.1	0.852048	-0.085156	0.354532	0.0525	0.609	0.0225	0	210	304	3
2026-02-12	15:29:40.890	60.305	1.575	2.065	0.86986	-0.066612	0.341356	0.057	0.6015	0.0195	0	210	304	3
2026-02-12	15:29:40.910	55.405	2.485	0.84	0.876692	-0.061244	0.316224	0.0555	0.609	0.015	0	210	304	3
2026-02-12	15:29:40.930	40.985	1.96	-2.38	0.874984	-0.04758	0.292556	0.057	0.6105	0.0105	0	210	304	3
2026-02-12	15:29:40.950	17.01	0.735	-8.61	0.877424	-0.062952	0.287676	0.054	0.6045	0.0255	0	210	304	3
2026-02-12	15:29:40.970	-10.01	-0.77	-18.48	0.888404	-0.097356	0.308416	0.0525	0.606	0.018	0	210	304	3
2026-02-12	15:29:40.990	-23.625	-2.065	-27.37	0.890112	-0.126636	0.345504	0.0555	0.603	0.0165	0	210	304	3
2026-02-12	15:29:41.010	-25.235	-2.835	-31.43	0.877912	-0.141032	0.370392	0.0555	0.6	0.0135	0	217	282	3
2026-02-12	15:29:41.030	-22.435	-4.76	-34.055	0.86254	-0.133956	0.37698	0.0525	0.5925	0.0135	0	217	282	3
2026-02-12	15:29:41.050	-19.39	-8.365	-37.73	0.868884	-0.142496	0.3782	0.054	0.585	0.0195	0	217	282	3
2026-02-12	15:29:41.070	-16.17	-12.705	-42.28	0.885232	-0.168848	0.38674	0.0555	0.5865	0.0225	0	217	282	3
2026-02-12	15:29:41.090	-11.41	-17.045	-46.305	0.907436	-0.172508	0.397476	0.0615	0.582	0.021	0	217	282	3
2026-02-12	15:29:41.110	-6.825	-20.125	-49.665	0.888892	-0.164456	0.391864	0.0525	0.573	0.021	0	217	282	3
2026-02-12	15:29:41.130	-3.115	-22.47	-52.22	0.883768	-0.174704	0.376248	0.057	0.5655	0.03	0	217	282	3
2026-02-12	15:29:41.150	0.56	-25.025	-53.9	0.899628	-0.205692	0.383568	0.051	0.561	0.0315	0	217	282	3
2026-02-12	15:29:41.170	2.975	-27.055	-54.46	0.911828	-0.220576	0.41358	0.051	0.555	0.024	0	217	282	3
2026-02-12	15:29:41.190	2.415	-28.595	-53.34	0.89914	-0.217404	0.421632	0.0525	0.543	0.0405	0	217	282	3
2026-02-12	15:29:41.210	0.14	-29.855	-52.64	0.90402	-0.221308	0.41358	0.051	0.5355	0.0435	0	219	286	3
2026-02-12	15:29:41.230	-0.175	-29.75	-52.115	0.897188	-0.224968	0.427	0.048	0.525	0.051	0	219	286	3
2026-02-12	15:29:41.250	2.345	-27.615	-50.645	0.884012	-0.223504	0.452376	0.0525	0.5175	0.054	0	219	286	3
2026-02-12	15:29:41.270	2.695	-24.325	-47.95	0.858148	-0.211792	0.448228	0.06	0.5145	0.0525	0	219	286	3
2026-02-12	15:29:41.290	-1.505	-20.755	-44.87	0.840336	-0.209596	0.43066	0.0525	0.504	0.057	0	219	286	3
2026-02-12	15:29:41.310	-8.435	-18.13	-42.525	0.822524	-0.211304	0.424316	0.063	0.4935	0.051	0	219	286	3
2026-02-12	15:29:41.330	-17.22	-16.835	-40.74	0.815204	-0.214232	0.417484	0.057	0.495	0.0645	0	219	286	3
2026-02-12	15:29:41.350	-24.955	-16.59	-38.885	0.795684	-0.223016	0.408212	0.057	0.4875	0.0615	0	219	286	3
2026-02-12	15:29:41.370	-29.12	-16.94	-36.4	0.764696	-0.244732	0.417972	0.066	0.486	0.0675	0	219	286	3
2026-02-12	15:29:41.390	-31.325	-17.815	-32.69	0.7381	-0.272548	0.416752	0.0705	0.48	0.066	0	219	286	3
2026-02-12	15:29:41.410	-31.99	-19.985	-28.805	0.732976	-0.272304	0.380396	0.0705	0.48	0.066	0	216	310	3
2026-02-12	15:29:41.430	-30.73	-24.325	-26.88	0.770796	-0.308172	0.361852	0.066	0.4755	0.069	0	216	310	3
2026-02-12	15:29:41.450	-21	-29.12	-25.34	0.851804	-0.3721	0.389424	0.0645	0.465	0.072	0	216	310	3
2026-02-12	15:29:41.470	-1.295	-33.11	-23.24	0.957212	-0.420168	0.43066	0.072	0.4575	0.0735	0	216	310	3
2026-02-12	15:29:41.490	24.15	-34.685	-20.055	1.038464	-0.455304	0.484096	0.078	0.4575	0.078	0	216	310	3
2026-02-12	15:29:41.510	50.365	-32.76	-14.035	1.057008	-0.454572	0.497516	0.0735	0.45	0.081	0	216	310	3
2026-02-12	15:29:41.530	73.815	-29.925	-5.53	1.071648	-0.418216	0.474092	0.072	0.45	0.0915	0	216	310	3
2026-02-12	15:29:41.550	94.885	-25.515	2.975	1.113372	-0.386008	0.44408	0.0765	0.447	0.0975	0	216	310	3
2026-02-12	15:29:41.570	113.015	-18.375	9.73	1.16388	-0.37942	0.443104	0.075	0.456	0.102	0	216	310	3
2026-02-12	15:29:41.590	124.845	-9.765	15.89	1.22976	-0.356972	0.45018	0.084	0.465	0.111	0	216	310	3
2026-02-12	15:29:41.610	121.275	3.43	21.805	1.259284	-0.299144	0.42944	0.084	0.4635	0.1155	0	211	340	3
2026-02-12	15:29:41.630	100.8	17.185	27.475	1.212924	-0.219356	0.378444	0.0825	0.471	0.117	0	211	340	3
2026-02-12	15:29:41.650	69.545	25.445	34.055	1.12118	-0.180804	0.3355	0.0795	0.486	0.1185	0	211	340	3
2026-02-12	15:29:41.670	33.285	29.505	43.435	1.025288	-0.17324	0.288896	0.0765	0.498	0.1155	0	211	340	3
2026-02-12	15:29:41.690	5.18	29.75	55.265	0.973316	-0.176168	0.25132	0.072	0.504	0.114	0	211	340	3
2026-02-12	15:29:41.710	-14.245	26.04	68.775	0.953064	-0.179584	0.21716	0.069	0.504	0.114	0	211	340	3
2026-02-12	15:29:41.730	-29.365	20.51	82.95	0.933544	-0.18544	0.187392	0.066	0.5205	0.1095	0	211	340	3
2026-02-12	15:29:41.750	-35.035	15.26	95.97	0.972096	-0.193004	0.174704	0.072	0.5205	0.114	0	211	340	3
2026-02-12	15:29:41.770	-34.475	11.41	106.4	1.032852	-0.177144	0.161284	0.063	0.5385	0.1065	0	211	340	3
2026-02-12	15:29:41.790	-35.91	10.675	114.24	1.022848	-0.160552	0.136152	0.0675	0.5475	0.0975	0	211	340	3
2026-02-12	15:29:41.810	-38.115	8.925	117.285	0.996984	-0.179584	0.113948	0.069	0.558	0.1035	0	207	354	3
2026-02-12	15:29:41.830	-29.89	7.105	114.485	0.942328	-0.21228	0.122732	0.069	0.588	0.1005	0	207	354	3
2026-02-12	15:29:41.850	-16.87	7.455	106.54	0.961604	-0.2074	0.136396	0.066	0.603	0.1065	0	207	354	3
2026-02-12	15:29:41.870	-3.57	10.885	93.03	1.045784	-0.225212	0.136152	0.066	0.6195	0.108	0	207	354	3
2026-02-12	15:29:41.890	8.085	15.61	78.82	1.100928	-0.210572	0.110532	0.0735	0.624	0.1005	0	207	354	3
2026-02-12	15:29:41.910	14.805	19.635	66.255	1.116056	-0.175436	0.10248	0.078	0.63	0.1005	0	207	354	3
2026-02-12	15:29:41.930	13.51	23.065	52.64	1.140212	-0.138836	0.100284	0.0765	0.6465	0.099	0	207	354	3
2026-02-12	15:29:41.950	7.07	24.955	35.49	1.183888	-0.118096	0.081008	0.0825	0.6525	0.0975	0	207	354	3
2026-02-12	15:29:41.970	-5.04	24.185	17.5	1.16876	-0.118584	0.07442	0.0795	0.6585	0.093	0	207	354	3
2026-02-12	15:29:41.990	-15.995	19.145	1.785	1.124352	-0.135176	0.10004	0.075	0.666	0.084	0	207	354	3
2026-02-12	15:29:42.010	-18.76	11.9	-10.92	1.032364	-0.180316	0.169824	0.081	0.666	0.0855	0	203	332	3
2026-02-12	15:29:42.030	-9.065	7	-18.305	0.92476	-0.220576	0.259128	0.069	0.654	0.087	0	203	332	3
2026-02-12	15:29:42.050	23.94	2.24	-21.945	0.86132	-0.231068	0.328912	0.069	0.654	0.087	0	203	332	3
2026-02-12	15:29:42.070	50.365	-1.33	-21.315	0.825452	-0.220088	0.339648	0.075	0.657	0.081	0	203	332	3
2026-02-12	15:29:42.090	76.02	-4.445	-20.195	0.832772	-0.175436	0.35502	0.078	0.6585	0.075	0	203	332	3
2026-02-12	15:29:42.110	96.74	-4.865	-20.65	0.896456	-0.139324	0.358924	0.072	0.654	0.078	0	203	332	3
2026-02-12	15:29:42.130	103.425	-1.33	-21.77	0.928664	-0.077104	0.335012	0.069	0.6525	0.081	0	203	332	3
2026-02-12	15:29:42.150	88.83	2.975	-25.095	0.967948	-0.033916	0.310612	0.075	0.648	0.081	0	203	332	3
2026-02-12	15:29:42.170	59.115	7.21	-31.185	1.0065	0.010248	0.298412	0.066	0.6525	0.0705	0	203	332	3
2026-02-12	15:29:42.190	19.04	9.975	-38.185	1.014552	0.04636	0.296704	0.069	0.645	0.075	0	203	332	3
2026-02-12	15:29:42.210	-24.01	11.06	-44.38	1.00284	0.038552	0.302804	0.075	0.6375	0.0555	0	201	303	3
2026-02-12	15:29:42.230	-57.19	11.41	-47.845	0.985028	-0.017812	0.317688	0.0585	0.6315	0.0645	0	201	303	3
