yyyy-MM-dd	HH:mm:ss.fff	gyrX	gyrY	gyrZ	accX	accY	accZ	magX	magY	magZ	Marker	Energy	Angle	Classification
2026-02-12	15:28:59.210	207.305	-167.58	243.285	2.131828	0.156648	0.047092	-0.2895	-0.141	0.231	0	404	173	3
2026-02-12	15:28:59.230	205.45	-155.61	243.88	2.068632	0.1586	-0.003416	-0.303	-0.108	0.267	0	404	173	3
2026-02-12	15:28:59.250	199.535	-144.13	240.905	1.936628	0.208376	-0.012444	-0.3135	-0.075	0.3045	0	404	173	3
2026-02-12	15:28:59.270	150.64	-132.055	231.14	1.801208	0.299144	0.09394	-0.315	-0.039	0.3345	0	404	173	3
2026-02-12	15:28:59.290	99.715	-122.885	220.395	1.60552	0.347212	0.168116	-0.312	-0.0045	0.3555	0	404	173	3
2026-02-12	15:28:59.310	35.98	-118.02	207.025	1.463024	0.347456	0.26474	-0.309	0.0315	0.375	0	404	173	3
2026-02-12	15:28:59.330	-20.405	-112.945	189.63	1.349808	0.316712	0.30134	-0.306	0.0705	0.393	0	404	173	3
2026-02-12	15:28:59.350	-52.325	-104.79	166.845	1.182668	0.327448	0.306952	-0.2955	0.102	0.4095	0	404	173	3
2026-02-12	15:28:59.370	-65.73	-98.07	138.495	1.058472	0.28304	0.311588	-0.282	0.123	0.426	0	404	173	3
2026-02-12	15:28:59.390	-58.94	-87.395	109.13	0.91744	0.216428	0.319152	-0.2655	0.1365	0.4455	0	404	173	3
2026-02-12	15:28:59.410	-36.295	-74.935	82.005	0.772748	0.189588	0.31598	-0.2565	0.15	0.4575	0	413	151	3
2026-02-12	15:28:59.430	-19.81	-64.12	56.735	0.666852	0.2074	0.349408	-0.252	0.162	0.4695	0	413	151	3
2026-02-12	15:28:59.450	-23.45	-54.95	33.46	0.610732	0.217648	0.391132	-0.2415	0.1695	0.4815	0	413	151	3
2026-02-12	15:28:59.470	-39.48	-46.69	11.865	0.615124	0.200568	0.420412	-0.237	0.1725	0.4845	0	413	151	3
2026-02-12	15:28:59.490	-49.91	-37.205	-7.385	0.636596	0.185684	0.418704	-0.237	0.174	0.486	0	413	151	3
2026-02-12	15:28:59.510	-54.74	-25.165	-25.06	0.674416	0.216916	0.473116	-0.231	0.171	0.4965	0	413	151	3
2026-02-12	15:28:59.530	-69.615	-7.175	-41.755	0.74786	0.21106	0.533628	-0.231	0.162	0.5055	0	413	151	3
2026-02-12	15:28:59.550	-92.295	19.845	-65.03	0.86864	0.17202	0.510448	-0.2385	0.1545	0.507	0	413	151	3
2026-02-12	15:28:59.570	-108.85	49.875	-86.415	0.977464	0.072224	0.412116	-0.2415	0.1515	0.5055	0	413	151	3
2026-02-12	15:28:59.590	-111.965	72.415	-100.345	1.118008	0.030744	0.319884	-0.2445	0.1215	0.507	0	413	151	3
2026-02-12	15:28:59.610	-124.775	97.265	-111.335	1.25904	0.003416	0.284748	-0.246	0.102	0.5085	0	424	168	3
2026-02-12	15:28:59.630	-148.505	126.105	-120.47	1.318576	-0.033672	0.208132	-0.264	0.0795	0.4935	0	424	168	3
2026-02-12	15:28:59.650	-174.16	148.645	-125.055	1.328824	-0.161528	0.10126	-0.276	0.0495	0.4815	0	424	168	3
2026-02-12	15:28:59.670	-157.465	164.99	-131.145	1.295884	-0.157624	0.031964	-0.291	0.0255	0.4545	0	424	168	3
2026-02-12	15:28:59.690	-128.835	173.18	-135.415	1.35054	-0.085888	0.112972	-0.2985	0	0.432	0	424	168	3
2026-02-12	15:28:59.710	-109.97	177.94	-136.29	1.602592	-0.054168	0.320616	-0.3015	-0.0345	0.4005	0	424	168	3
2026-02-12	15:28:59.730	-93.835	192.185	-135.8	1.857816	-0.038796	0.419436	-0.315	-0.0525	0.3735	0	424	168	3
2026-02-12	15:28:59.750	-64.05	215.67	-136.71	1.91906	-0.012932	0.395524	-0.3015	-0.072	0.342	0	424	168	3
2026-02-12	15:28:59.770	-30.45	227.99	-140.56	2.27164	0.0122	0.435296	-0.306	-0.09	0.3	0	424	168	3
2026-02-12	15:28:59.790	2.555	243.18	-147.77	2.514908	-0.01342	0.334768	-0.2985	-0.1155	0.2685	0	424	168	3
2026-02-12	15:28:59.810	42.98	267.645	-169.47	2.295064	0.010004	0.126392	-0.2865	-0.129	0.231	0	435	200	3
2026-02-12	15:28:59.830	76.72	268.73	-196.28	2.144272	0.041236	-0.068076	-0.2625	-0.153	0.195	0	435	200	3
2026-02-12	15:28:59.850	86.625	249.095	-222.635	1.91662	0.116144	-0.146156	-0.2355	-0.1875	0.171	0	435	200	3
2026-02-12	15:28:59.870	65.94	218.33	-242.165	1.82024	0.2013	-0.107604	-0.21	-0.2175	0.1485	0	435	200	3
2026-02-12	15:28:59.890	19.11	194.18	-247.8	1.79828	0.199104	0	-0.177	-0.246	0.12	0	435	200	3
2026-02-12	15:28:59.910	-40.355	177.625	-240.59	1.697264	0.155672	0.055144	-0.141	-0.261	0.1125	0	435	200	3
2026-02-12	15:28:59.930	-86.905	168.07	-223.685	1.518656	0.087596	0.066368	-0.1035	-0.282	0.0885	0	435	200	3
2026-02-12	15:28:59.950	-112.315	160.93	-200.375	1.352736	0.034892	0.066612	-0.0645	-0.2895	0.0735	0	435	200	3
2026-02-12	15:28:59.970	-119.665	153.405	-173.705	1.174128	0.031964	0.062464	-0.021	-0.294	0.054	0	435	200	3
2026-02-12	15:28:59.990	-111.055	143.92	-149.52	1.01138	0.045872	0.046848	0.006	-0.2925	0.03	0	435	200	3
2026-02-12	15:29:00.010	-84.595	126.875	-121.59	0.854488	-0.0061	0.051972	0.006	-0.2925	0.03	0	447	205	3
2026-02-12	15:29:00.030	-60.83	116.235	-105.84	0.732	-0.112972	0.001464	0.006	-0.2925	0.03	0	447	205	3
2026-02-12	15:29:00.050	4.97	97.65	-83.335	0.563152	-0.43066	-0.102236	0.093	-0.2715	0.0045	0	447	205	3
2026-02-12	15:29:00.070	98.77	74.69	-62.545	0.388448	-0.426268	-0.08906	0.114	-0.267	0	0	447	205	3
2026-02-12	15:29:00.090	138.215	39.025	-36.89	0.396256	-0.280844	-0.050996	0.123	-0.2775	0.018	0	447	205	3
2026-02-12	15:29:00.110	157.955	8.75	-8.645	0.465064	-0.208132	-0.0244	0.1395	-0.279	0.021	0	447	205	3
2026-02-12	15:29:00.130	173.04	-10.745	24.15	0.48922	-0.230092	-0.024156	0.1335	-0.3075	0.0435	0	447	205	3
2026-02-12	15:29:00.150	162.33	-34.37	81.2	0.567788	-0.152988	0.016836	0.1335	-0.3075	0.0435	0	447	205	3
2026-02-12	15:29:00.170	123.585	-49.385	115.36	0.728584	0.055388	0.037332	0.12	-0.324	0.0675	0	447	205	3
2026-02-12	15:29:00.190	75.81	-59.255	144.235	0.866932	0.158112	0.033428	0.102	-0.3435	0.102	0	447	205	3
2026-02-12	15:29:00.210	29.96	-69.02	167.86	0.976	0.182024	0.020008	0.075	-0.3495	0.1125	0	460	176	3
2026-02-12	15:29:00.230	-0.98	-79.87	186.69	1.084336	0.16226	0.028792	0.0435	-0.3495	0.114	0	460	176	3
2026-02-12	15:29:00.250	-26.25	-92.015	202.965	1.180228	0.151036	0.037576	0.0165	-0.345	0.1155	0	460	176	3
2026-02-12	15:29:00.270	-50.995	-106.015	218.19	1.303936	0.112728	0.054412	-0.0165	-0.3375	0.1155	0	460	176	3
2026-02-12	15:29:00.290	-72.555	-121.24	231.28	1.439112	0.114192	0.076128	-0.0495	-0.324	0.114	0	460	176	3
2026-02-12	15:29:00.310	-92.54	-137.095	240.52	1.561356	0.101016	0.0976	-0.0855	-0.309	0.114	0	460	176	3
2026-02-12	15:29:00.330	-101.78	-153.23	244.685	1.685308	0.074176	0.127124	-0.123	-0.2925	0.1155	0	460	176	3
2026-02-12	15:29:00.350	-96.635	-168.595	244.335	1.789984	0.049288	0.135908	-0.1545	-0.2655	0.114	0	460	176	3
2026-02-12	15:29:00.370	-78.575	-182.91	240.205	1.879776	0.06588	0.150792	-0.183	-0.2355	0.1275	0	460	176	3
2026-02-12	15:29:00.390	-61.355	-195.685	231.805	2.013732	0.076128	0.1769	-0.213	-0.2085	0.147	0	460	176	3
2026-02-12	15:29:00.410	-43.155	-202.405	220.5	2.021052	0.067588	0.15738	-0.246	-0.1815	0.1665	0	473	142	3
2026-02-12	15:29:00.430	-16.94	-207.725	203.805	1.930284	0.06734399	0.131272	-0.261	-0.168	0.18	0	473	142	3
2026-02-12	15:29:00.450	-2.52	-212.1	186.585	1.933456	0.082228	0.174704	-0.261	-0.168	0.18	0	473	142	3
2026-02-12	15:29:00.470	-3.255	-207.41	172.2	1.806332	0.095404	0.236924	-0.285	-0.123	0.2265	0	473	142	3
2026-02-12	15:29:00.490	-13.825	-199.885	156.52	1.687016	0.098332	0.297192	-0.315	-0.0705	0.2865	0	473	142	3
2026-02-12	15:29:00.510	-24.255	-190.505	140.63	1.564284	0.060756	0.326472	-0.3165	-0.0525	0.3195	0	473	142	3
2026-02-12	15:29:00.530	-3.22	-176.33	121.485	1.40666	-0.043676	0.376492	-0.3165	-0.027	0.3495	0	473	142	3
2026-02-12	15:29:00.550	43.995	-159.25	101.185	1.32614	-0.0671	0.40138	-0.3135	-0.0075	0.378	0	473	142	3
2026-02-12	15:29:00.570	87.15	-139.23	85.61	1.253184	-0.006832	0.391864	-0.306	0.0075	0.3975	0	473	142	3
2026-02-12	15:29:00.590	110.215	-117.635	72.8	1.166076	0.08418	0.39894	-0.303	0.0255	0.4185	0	473	142	3
2026-02-12	15:29:00.610	112.42	-96.005	60.62	1.053104	0.09638	0.439932	-0.2985	0.045	0.438	0	482	137	3
2026-02-12	15:29:00.630	107.1	-75.53	47.25	0.953308	0.093696	0.476776	-0.288	0.063	0.45	0	482	137	3
2026-02-12	15:29:00.650	100.59	-57.435	33.25	0.8723	0.11224	0.50386	-0.282	0.075	0.4635	0	482	137	3
2026-02-12	15:29:00.670	89.355	-41.93	19.005	0.813008	0.157868	0.524356	-0.2745	0.087	0.4695	0	482	137	3
2026-02-12	15:29:00.690	69.44	-26.985	4.48	0.774212	0.209596	0.575352	-0.2685	0.0945	0.474	0	482	137	3
2026-02-12	15:29:00.710	35.84	-10.57	-9.73	0.74176	0.222772	0.624396	-0.2685	0.099	0.4725	0	482	137	3
2026-02-12	15:29:00.730	-8.96	16.1	-30.94	0.75518	0.179828	0.572668	-0.2685	0.1035	0.4695	0	482	137	3
2026-02-12	15:29:00.750	-27.685	34.125	-44.59	0.810812	0.163724	0.501176	-0.2685	0.1035	0.4695	0	482	137	3
2026-02-12	15:29:00.770	-46.34	51.73	-56.875	0.899872	0.147864	0.433832	-0.2745	0.0915	0.4725	0	482	137	3
2026-02-12	15:29:00.790	-70.49	68.005	-67.27	0.978684	0.126148	0.374052	-0.2805	0.0795	0.4575	0	482	137	3
2026-02-12	15:29:00.810	-95.725	82.775	-75.88	1.05896	0.071492	0.31232	-0.2805	0.0645	0.465	0	486	180	3
2026-02-12	15:29:00.830	-104.58	96.53	-83.16	1.159732	-0.015372	0.25742	-0.291	0.048	0.4365	0	486	180	3
2026-02-12	15:29:00.850	-79.415	111.79	-94.92	1.288076	-0.040016	0.294752	-0.3045	0.0315	0.438	0	486	180	3
2026-02-12	15:29:00.870	-43.785	133.98	-119.84	1.451556	0.165188	0.402844	-0.2985	0.015	0.417	0	486	180	3
2026-02-12	15:29:00.890	-25.06	158.27	-156.38	1.6592	0.21228	0.36234	-0.315	-0.006	0.3975	0	486	180	3
2026-02-12	15:29:00.910	26.6	178.71	-202.16	1.896124	0.052216	0.211792	-0.318	-0.0375	0.369	0	486	180	3
2026-02-12	15:29:00.930	91.84	187.88	-253.19	2.05204	0.148108	0.0671	-0.3105	-0.0645	0.333	0	486	180	3
2026-02-12	15:29:00.950	118.545	180.81	-299.39	2.182824	0.202276	0.037088	-0.309	-0.102	0.3135	0	486	180	3
2026-02-12	15:29:00.970	122.71	164.955	-339.185	2.176724	0.346968	0.0183	-0.2955	-0.1425	0.2925	0	486	180	3
2026-02-12	15:29:00.990	116.935	142.835	-364.84	2.062532	0.525088	-0.025132	-0.279	-0.177	0.2745	0	486	180	3
2026-02-12	15:29:01.010	93.87	106.05	-384.16	1.976156	0.787388	-0.033184	-0.2445	-0.2295	0.2625	0	488	222	3
2026-02-12	15:29:01.030	30.66	66.22	-394.415	1.870992	1.022604	-0.239852	-0.2445	-0.2295	0.2625	0	488	222	3
2026-02-12	15:29:01.050	-16.17	38.535	-392.56	1.653344	0.756644	-0.546804	-0.162	-0.312	0.252	0	488	222	3
2026-02-12	15:29:01.070	-29.225	5.53	-378.805	1.429108	0.685884	-0.711748	-0.1065	-0.3435	0.243	0	488	222	3
2026-02-12	15:29:01.090	-42.525	-28.245	-361.795	1.392264	0.680272	-0.679296	-0.0585	-0.3645	0.231	0	488	222	3
2026-02-12	15:29:01.110	-64.085	-50.26	-343.735	1.210728	0.798856	-0.514108	-0.003	-0.3915	0.228	0	488	222	3
2026-02-12	15:29:01.130	-119.735	-66.43	-323.995	1.069696	0.818864	-0.47702	0.042	-0.3855	0.216	0	488	222	3
2026-02-12	15:29:01.150	-167.125	-75.845	-307.545	0.98576	0.744688	-0.525576	0.096	-0.387	0.2055	0	488	222	3
2026-02-12	15:29:01.170	-181.475	-84.175	-295.96	0.984052	0.682468	-0.55998	0.132	-0.387	0.177	0	488	222	3
2026-02-12	15:29:01.190	-154.21	-89.775	-285.46	0.956236	0.46482	-0.426268	0.171	-0.381	0.153	0	488	222	3
2026-02-12	15:28:59.210	207.305	-167.58	243.285	2.131828	0.156648	0.047092	-0.2895	-0.141	0.231	0	404	173	3
2026-02-12	15:28:59.230	205.45	-155.61	243.88	2.068632	0.1586	-0.003416	-0.303	-0.108	0.267	0	404	173	3
2026-02-12	15:28:59.250	199.535	-144.13	240.905	1.936628	0.208376	-0.012444	-0.3135	-0.075	0.3045	0	404	173	3
2026-02-12	15:28:59.270	150.64	-132.055	231.14	1.801208	0.299144	0.09394	-0.315	-0.039	0.3345	0	404	173	3
2026-02-12	15:28:59.290	99.715	-122.885	220.395	1.60552	0.347212	0.168116	-0.312	-0.0045	0.3555	0	404	173	3
2026-02-12	15:28:59.310	35.98	-118.02	207.025	1.463024	0.347456	0.26474	-0.309	0.0315	0.375	0	404	173	3
2026-02-12	15:28:59.330	-20.405	-112.945	189.63	1.349808	0.316712	0.30134	-0.306	0.0705	0.393	0	404	173	3
2026-02-12	15:28:59.350	-52.325	-104.79	166.845	1.182668	0.327448	0.306952	-0.2955	0.102	0.4095	0	404	173	3
2026-02-12	15:28:59.370	-65.73	-98.07	138.495	1.058472	0.28304	0.311588	-0.282	0.123	0.426	0	404	173	3
2026-02-12	15:28:59.390	-58.94	-87.395	109.13	0.91744	0.216428	0.319152	-0.2655	0.1365	0.4455	0	404	173	3
2026-02-12	15:28:59.410	-36.295	-74.935	82.005	0.772748	0.189588	0.31598	-0.2565	0.15	0.4575	0	413	151	3
2026-02-12	15:28:59.430	-19.81	-64.12	56.735	0.666852	0.2074	0.349408	-0.252	0.162	0.4695	0	413	151	3
2026-02-12	15:28:59.450	-23.45	-54.95	33.46	0.610732	0.217648	0.391132	-0.2415	0.1695	0.4815	0	413	151	3
2026-02-12	15:28:59.470	-39.48	-46.69	11.865	0.615124	0.200568	0.420412	-0.237	0.1725	0.4845	0	413	151	3
2026-02-12	15:28:59.490	-49.91	-37.205	-7.385	0.636596	0.185684	0.418704	-0.237	0.174	0.486	0	413	151	3
2026-02-12	15:28:59.510	-54.74	-25.165	-25.06	0.674416	0.216916	0.473116	-0.231	0.171	0.4965	0	413	151	3
2026-02-12	15:28:59.530	-69.615	-7.175	-41.755	0.74786	0.21106	0.533628	-0.231	0.162	0.5055	0	413	151	3
2026-02-12	15:28:59.550	-92.295	19.845	-65.03	0.86864	0.17202	0.510448	-0.2385	0.1545	0.507	0	413	151	3
2026-02-12	15:28:59.570	-108.85	49.875	-86.415	0.977464	0.072224	0.412116	-0.2415	0.1515	0.5055	0	413	151	3
2026-02-12	15:28:59.590	-111.965	72.415	-100.345	1.118008	0.030744	0.319884	-0.2445	0.1215	0.507	0	413	151	3
2026-02-12	15:28:59.610	-124.775	97.265	-111.335	1.25904	0.003416	0.284748	-0.246	0.102	0.5085	0	424	168	3
2026-02-12	15:28:59.630	-148.505	126.105	-120.47	1.318576	-0.033672	0.208132	-0.264	0.0795	0.4935	0	424	168	3
2026-02-12	15:28:59.650	-174.16	148.645	-125.055	1.328824	-0.161528	0.10126	-0.276	0.0495	0.4815	0	424	168	3
2026-02-12	15:28:59.670	-157.465	164.99	-131.145	1.295884	-0.157624	0.031964	-0.291	0.0255	0.4545	0	424	168	3
2026-02-12	15:28:59.690	-128.835	173.18	-135.415	1.35054	-0.085888	0.112972	-0.2985	0	0.432	0	424	168	3
2026-02-12	15:28:59.710	-109.97	177.94	-136.29	1.602592	-0.054168	0.320616	-0.3015	-0.0345	0.4005	0	424	168	3
2026-02-12	15:28:59.730	-93.835	192.185	-135.8	1.857816	-0.038796	0.419436	-0.315	-0.0525	0.3735	0	424	168	3
2026-02-12	15:28:59.750	-64.05	215.67	-136.71	1.91906	-0.012932	0.395524	-0.3015	-0.072	0.342	0	424	168	3
2026-02-12	15:28:59.770	-30.45	227.99	-140.56	2.27164	0.0122	0.435296	-0.306	-0.09	0.3	0	424	168	3
2026-02-12	15:28:59.790	2.555	243.18	-147.77	2.514908	-0.01342	0.334768	-0.2985	-0.1155	0.2685	0	424	168	3
2026-02-12	15:28:59.810	42.98	267.645	-169.47	2.295064	0.010004	0.126392	-0.2865	-0.129	0.231	0	435	200	3
2026-02-12	15:28:59.830	76.72	268.73	-196.28	2.144272	0.041236	-0.068076	-0.2625	-0.153	0.195	0	435	200	3
2026-02-12	15:28:59.850	86.625	249.095	-222.635	1.91662	0.116144	-0.146156	-0.2355	-0.1875	0.171	0	435	200	3
2026-02-12	15:28:59.870	65.94	218.33	-242.165	1.82024	0.2013	-0.107604	-0.21	-0.2175	0.1485	0	435	200	3
2026-02-12	15:28:59.890	19.11	194.18	-247.8	1.79828	0.199104	0	-0.177	-0.246	0.12	0	435	200	3
2026-02-12	15:28:59.910	-40.355	177.625	-240.59	1.697264	0.155672	0.055144	-0.141	-0.261	0.1125	0	435	200	3
2026-02-12	15:28:59.930	-86.905	168.07	-223.685	1.518656	0.087596	0.066368	-0.1035	-0.282	0.0885	0	435	200	3
2026-02-12	15:28:59.950	-112.315	160.93	-200.375	1.352736	0.034892	0.066612	-0.0645	-0.2895	0.0735	0	435	200	3
2026-02-12	15:28:59.970	-119.665	153.405	-173.705	1.174128	0.031964	0.062464	-0.021	-0.294	0.054	0	435	200	3
2026-02-12	15:28:59.990	-111.055	143.92	-149.52	1.01138	0.045872	0.046848	0.006	-0.2925	0.03	0	435	200	3
2026-02-12	15:29:00.010	-84.595	126.875	-121.59	0.854488	-0.0061	0.051972	0.006	-0.2925	0.03	0	447	205	3
2026-02-12	15:29:00.030	-60.83	116.235	-105.84	0.732	-0.112972	0.001464	0.006	-0.2925	0.03	0	447	205	3
2026-02-12	15:29:00.050	4.97	97.65	-83.335	0.563152	-0.43066	-0.102236	0.093	-0.2715	0.0045	0	447	205	3
2026-02-12	15:29:00.070	98.77	74.69	-62.545	0.388448	-0.426268	-0.08906	0.114	-0.267	0	0	447	205	3
2026-02-12	15:29:00.090	138.215	39.025	-36.89	0.396256	-0.280844	-0.050996	0.123	-0.2775	0.018	0	447	205	3
2026-02-12	15:29:00.110	157.955	8.75	-8.645	0.465064	-0.208132	-0.0244	0.1395	-0.279	0.021	0	447	205	3
2026-02-12	15:29:00.130	173.04	-10.745	24.15	0.48922	-0.230092	-0.024156	0.1335	-0.3075	0.0435	0	447	205	3
2026-02-12	15:29:00.150	162.33	-34.37	81.2	0.567788	-0.152988	0.016836	0.1335	-0.3075	0.0435	0	447	205	3
2026-02-12	15:29:00.170	123.585	-49.385	115.36	0.728584	0.055388	0.037332	0.12	-0.324	0.0675	0	447	205	3
2026-02-12	15:29:00.190	75.81	-59.255	144.235	0.866932	0.158112	0.033428	0.102	-0.3435	0.102	0	447	205	3
2026-02-12	15:29:00.210	29.96	-69.02	167.86	0.976	0.182024	0.020008	0.075	-0.3495	0.1125	0	460	176	3
2026-02-12	15:29:00.230	-0.98	-79.87	186.69	1.084336	0.16226	0.028792	0.0435	-0.3495	0.114	0	460	176	3
2026-02-12	15:29:00.250	-26.25	-92.015	202.965	1.180228	0.151036	0.037576	0.0165	-0.345	0.1155	0	460	176	3
2026-02-12	15:29:00.270	-50.995	-106.015	218.19	1.303936	0.112728	0.054412	-0.0165	-0.3375	0.1155	0	460	176	3
2026-02-12	15:29:00.290	-72.555	-121.24	231.28	1.439112	0.114192	0.076128	-0.0495	-0.324	0.114	0	460	176	3
2026-02-12	15:29:00.310	-92.54	-137.095	240.52	1.561356	0.101016	0.0976	-0.0855	-0.309	0.114	0	460	176	3
2026-02-12	15:29:00.330	-101.78	-153.23	244.685	1.685308	0.074176	0.127124	-0.123	-0.2925	0.1155	0	460	176	3
2026-02-12	15:29:00.350	-96.635	-168.595	244.335	1.789984	0.049288	0.135908	-0.1545	-0.2655	0.114	0	460	176	3
2026-02-12	15:29:00.370	-78.575	-182.91	240.205	1.879776	0.06588	0.150792	-0.183	-0.2355	0.1275	0	460	176	3
2026-02-12	15:29:00.390	-61.355	-195.685	231.805	2.013732	0.076128	0.1769	-0.213	-0.2085	0.147	0	460	176	3
2026-02-12	15:29:00.410	-43.155	-202.405	220.5	2.021052	0.067588	0.15738	-0.246	-0.1815	0.1665	0	473	142	3
2026-02-12	15:29:00.430	-16.94	-207.725	203.805	1.930284	0.06734399	0.131272	-0.261	-0.168	0.18	0	473	142	3
2026-02-12	15:29:00.450	-2.52	-212.1	186.585	1.933456	0.082228	0.174704	-0.261	-0.168	0.18	0	473	142	3
2026-02-12	15:29:00.470	-3.255	-207.41	172.2	1.806332	0.095404	0.236924	-0.285	-0.123	0.2265	0	473	142	3
2026-02-12	15:29:00.490	-13.825	-199.885	156.52	1.687016	0.098332	0.297192	-0.315	-0.0705	0.2865	0	473	142	3
2026-02-12	15:29:00.510	-24.255	-190.505	140.63	1.564284	0.060756	0.326472	-0.3165	-0.0525	0.3195	0	473	142	3
2026-02-12	15:29:00.530	-3.22	-176.33	121.485	1.40666	-0.043676	0.376492	-0.3165	-0.027	0.3495	0	473	142	3
2026-02-12	15:29:00.550	43.995	-159.25	101.185	1.32614	-0.0671	0.40138	-0.3135	-0.0075	0.378	0	473	142	3
2026-02-12	15:29:00.570	87.15	-139.23	85.61	1.253184	-0.006832	0.391864	-0.306	0.0075	0.3975	0	473	142	3
2026-02-12	15:29:00.590	110.215	-117.635	72.8	1.166076	0.08418	0.39894	-0.303	0.0255	0.4185	0	473	142	3
2026-02-12	15:29:00.610	112.42	-96.005	60.62	1.053104	0.09638	0.439932	-0.2985	0.045	0.438	0	482	137	3
2026-02-12	15:29:00.630	107.1	-75.53	47.25	0.953308	0.093696	0.476776	-0.288	0.063	0.45	0	482	137	3
2026-02-12	15:29:00.650	100.59	-57.435	33.25	0.8723	0.11224	0.50386	-0.282	0.075	0.4635	0	482	137	3
2026-02-12	15:29:00.670	89.355	-41.93	19.005	0.813008	0.157868	0.524356	-0.2745	0.087	0.4695	0	482	137	3
2026-02-12	15:29:00.690	69.44	-26.985	4.48	0.774212	0.209596	0.575352	-0.2685	0.0945	0.474	0	482	137	3
2026-02-12	15:29:00.710	35.84	-10.57	-9.73	0.74176	0.222772	0.624396	-0.2685	0.099	0.4725	0	482	137	3
2026-02-12	15:29:00.730	-8.96	16.1	-30.94	0.75518	0.179828	0.572668	-0.2685	0.1035	0.4695	0	482	137	3
2026-02-12	15:29:00.750	-27.685	34.125	-44.59	0.810812	0.163724	0.501176	-0.2685	0.1035	0.4695	0	482	137	3
2026-02-12	15:29:00.770	-46.34	51.73	-56.875	0.899872	0.147864	0.433832	-0.2745	0.0915	0.4725	0	482	137	3
2026-02-12	15:29:00.790	-70.49	68.005	-67.27	0.978684	0.126148	0.374052	-0.2805	0.0795	0.4575	0	482	137	3
2026-02-12	15:29:00.810	-95.725	82.775	-75.88	1.05896	0.071492	0.31232	-0.2805	0.0645	0.465	0	486	180	3
2026-02-12	15:29:00.830	-104.58	96.53	-83.16	1.159732	-0.015372	0.25742	-0.291	0.048	0.4365	0	486	180	3
2026-02-12	15:29:00.850	-79.415	111.79	-94.92	1.288076	-0.040016	0.294752	-0.3045	0.0315	0.438	0	486	180	3
2026-02-12	15:29:00.870	-43.785	133.98	-119.84	1.451556	0.165188	0.402844	-0.2985	0.015	0.417	0	486	180	3
2026-02-12	15:29:00.890	-25.06	158.27	-156.38	1.6592	0.21228	0.36234	-0.315	-0.006	0.3975	0	486	180	3
2026-02-12	15:29:00.910	26.6	178.71	-202.16	1.896124	0.052216	0.211792	-0.318	-0.0375	0.369	0	486	180	3
2026-02-12	15:29:00.930	91.84	187.88	-253.19	2.05204	0.148108	0.0671	-0.3105	-0.0645	0.333	0	486	180	3
2026-02-12	15:29:00.950	118.545	180.81	-299.39	2.182824	0.202276	0.037088	-0.309	-0.102	0.3135	0	486	180	3
2026-02-12	15:29:00.970	122.71	164.955	-339.185	2.176724	0.346968	0.0183	-0.2955	-0.1425	0.2925	0	486	180	3
2026-02-12	15:29:00.990	116.935	142.835	-364.84	2.062532	0.525088	-0.025132	-0.279	-0.177	0.2745	0	486	180	3
2026-02-12	15:29:01.010	93.87	106.05	-384.16	1.976156	0.787388	-0.033184	-0.2445	-0.2295	0.2625	0	488	222	3
2026-02-12	15:29:01.030	30.66	66.22	-394.415	1.870992	1.022604	-0.239852	-0.2445	-0.2295	0.2625	0	488	222	3
2026-02-12	15:29:01.050	-16.17	38.535	-392.56	1.653344	0.756644	-0.546804	-0.162	-0.312	0.252	0	488	222	3
2026-02-12	15:29:01.070	-29.225	5.53	-378.805	1.429108	0.685884	-0.711748	-0.1065	-0.3435	0.243	0	488	222	3
2026-02-12	15:29:01.090	-42.525	-28.245	-361.795	1.392264	0.680272	-0.679296	-0.0585	-0.3645	0.231	0	488	222	3
2026-02-12	15:29:01.110	-64.085	-50.26	-343.735	1.210728	0.798856	-0.514108	-0.003	-0.3915	0.228	0	488	222	3
2026-02-12	15:29:01.130	-119.735	-66.43	-323.995	1.069696	0.818864	-0.47702	0.042	-0.3855	0.216	0	488	222	3
2026-02-12	15:29:01.150	-167.125	-75.845	-307.545	0.98576	0.744688	-0.525576	0.096	-0.387	0.2055	0	488	222	3
2026-02-12	15:29:01.170	-181.475	-84.175	-295.96	0.984052	0.682468	-0.55998	0.132	-0.387	0.177	0	488	222	3
2026-02-12	15:29:01.190	-154.21	-89.775	-285.46	0.956236	0.46482	-0.426268	0.171	-0.381	0.153	0	488	222	3
2026-02-12	15:29:23.210	76.86	-32.13	25.55	0.845704	-0.032452	0.382104	-0.252	0.009	0.0915	0	414	257	3
2026-02-12	15:29:23.230	66.78	-27.79	24.5	0.840092	-0.02318	0.344284	-0.2595	0.006	0.1005	0	414	257	3
2026-02-12	15:29:23.250	59.115	-24.57	23.66	0.83082	-0.01952	0.308172	-0.258	-0.003	0.1065	0	414	257	3
2026-02-12	15:29:23.270	51.275	-23.485	22.19	0.84058	-0.011712	0.29524	-0.2625	0.003	0.1005	0	414	257	3
2026-02-12	15:29:23.290	41.3	-23.765	19.985	0.885232	-0.023912	0.32818	-0.2595	-0.006	0.1095	0	414	257	3
2026-02-12	15:29:23.310	33.985	-23.415	17.325	0.924516	-0.034648	0.342332	-0.261	-0.0015	0.111	0	414	257	3
2026-02-12	15:29:23.330	31.395	-22.435	14.315	0.958188	-0.040016	0.34526	-0.261	0	0.1155	0	414	257	3
2026-02-12	15:29:23.350	29.925	-18.97	9.485	0.983808	-0.028792	0.332572	-0.273	0	0.1155	0	414	257	3
2026-02-12	15:29:23.370	29.995	-12.11	3.255	0.97234	-0.055144	0.319884	-0.273	0	0.1155	0	414	257	3
2026-02-12	15:29:23.390	34.335	-4.865	-2.205	0.972096	-0.095648	0.32086	-0.27	-0.0015	0.12	0	414	257	3
2026-02-12	15:29:23.410	44.31	4.55	-6.65	1.043588	-0.173972	0.345992	-0.2685	-0.006	0.1275	0	384	271	3
2026-02-12	15:29:23.430	70.84	20.65	-8.295	1.115324	-0.274012	0.315248	-0.27	-0.0105	0.126	0	384	271	3
2026-02-12	15:29:23.450	124.845	41.335	-9.45	1.03456	-0.315492	0.22814	-0.27	-0.015	0.1185	0	384	271	3
2026-02-12	15:29:23.470	188.93	55.545	-12.425	0.970144	-0.244488	0.115656	-0.27	-0.024	0.1185	0	384	271	3
2026-02-12	15:29:23.490	239.645	58.135	-19.005	0.979416	-0.115412	0.028792	-0.264	-0.0375	0.1125	0	384	271	3
2026-02-12	15:29:23.510	271.67	54.18	-27.93	0.987712	-0.009272	0.042212	-0.2595	-0.0555	0.108	0	384	271	3
2026-02-12	15:29:23.530	290.395	45.5	-37.135	1.012844	0.059292	0.108336	-0.2565	-0.078	0.1125	0	384	271	3
2026-02-12	15:29:23.550	303.065	33.6	-43.575	1.089704	0.099308	0.20496	-0.2505	-0.1005	0.117	0	384	271	3
2026-02-12	15:29:23.570	311.92	25.83	-46.025	1.0736	0.183732	0.285236	-0.252	-0.1245	0.126	0	384	271	3
2026-02-12	15:29:23.590	304.99	19.915	-45.08	1.017236	0.260836	0.364048	-0.2475	-0.1455	0.1425	0	384	271	3
2026-02-12	15:29:23.610	276.22	15.365	-39.62	0.984784	0.327692	0.435052	-0.243	-0.159	0.159	0	353	279	3
2026-02-12	15:29:23.630	222.11	13.125	-33.635	0.935008	0.429928	0.443836	-0.2445	-0.177	0.174	0	353	279	3
2026-02-12	15:29:23.650	157.92	10.325	-34.51	0.899384	0.472384	0.418216	-0.246	-0.186	0.1815	0	353	279	3
2026-02-12	15:29:23.670	97.475	7	-38.29	0.889136	0.481412	0.419192	-0.2325	-0.21	0.204	0	353	279	3
2026-02-12	15:29:23.690	31.36	5.11	-43.54	0.927932	0.472628	0.42822	-0.2325	-0.225	0.2175	0	353	279	3
2026-02-12	15:29:23.710	-22.96	5.705	-51.66	1.00894	0.444324	0.413092	-0.2295	-0.2235	0.2145	0	353	279	3
2026-02-12	15:29:23.730	-61.53	8.645	-60.655	1.079212	0.409432	0.369416	-0.2265	-0.2325	0.2085	0	353	279	3
2026-02-12	15:29:23.750	-82.74	13.37	-68.67	1.098488	0.35624	0.31598	-0.2145	-0.2445	0.2055	0	353	279	3
2026-02-12	15:29:23.770	-90.125	18.06	-73.99	1.114592	0.328912	0.311832	-0.213	-0.243	0.1965	0	353	279	3
2026-02-12	15:29:23.790	-94.955	23.66	-77.245	1.168028	0.288652	0.345992	-0.2085	-0.2445	0.1845	0	353	279	3
2026-02-12	15:29:23.810	-93.38	32.55	-79.205	1.146312	0.224236	0.364292	-0.2025	-0.249	0.177	0	326	288	2
2026-02-12	15:29:23.830	-80.99	41.475	-80.08	1.121668	0.189588	0.367952	-0.195	-0.252	0.1635	0	326	288	2
2026-02-12	15:29:23.850	-64.925	48.895	-79.87	1.113372	0.19886	0.38064	-0.183	-0.2565	0.15	0	326	288	2
2026-02-12	15:29:23.870	-56.21	55.265	-78.26	1.193648	0.2501	0.404308	-0.1755	-0.2625	0.1425	0	326	288	2
2026-02-12	15:29:23.890	-54.25	63.315	-77	1.239276	0.323788	0.409432	-0.168	-0.2685	0.1305	0	326	288	2
2026-02-12	15:29:23.910	-62.335	72.73	-76.125	1.219268	0.330864	0.380884	-0.1515	-0.273	0.114	0	326	288	2
2026-02-12	15:29:23.930	-73.255	79.03	-73.325	1.171688	0.309148	0.385276	-0.1425	-0.276	0.105	0	326	288	2
2026-02-12	15:29:23.950	-83.055	83.055	-69.09	1.139968	0.291336	0.39894	-0.1185	-0.2745	0.0855	0	326	288	2
2026-02-12	15:29:23.970	-88.165	86.24	-64.89	1.110688	0.255956	0.379908	-0.105	-0.2715	0.069	0	326	288	2
2026-02-12	15:29:23.990	-83.195	87.15	-59.71	1.081408	0.199348	0.364048	-0.078	-0.2715	0.0525	0	326	288	2
2026-02-12	15:29:24.010	-69.755	86.52	-53.165	1.044076	0.169092	0.371124	-0.0735	-0.267	0.045	0	305	305	3
2026-02-12	15:29:24.030	-55.055	84.385	-46.655	0.986492	0.15128	0.381616	-0.0615	-0.276	0.0255	0	305	305	3
2026-02-12	15:29:24.050	-42.595	81.655	-40.425	0.927688	0.122488	0.3904	-0.0405	-0.261	0.021	0	305	305	3
2026-02-12	15:29:24.070	-27.965	79.485	-34.125	0.85888	0.072224	0.379908	-0.027	-0.258	0.0045	0	305	305	3
2026-02-12	15:29:24.090	-3.5	77.315	-28.91	0.781776	0.027084	0.352092	-0.024	-0.2655	0	0	305	305	3
2026-02-12	15:29:24.110	26.53	73.815	-24.5	0.711992	0.039284	0.303536	-0.0015	-0.2595	0	0	305	305	3
2026-02-12	15:29:24.130	49.525	67.48	-19.6	0.66856	0.07905599	0.260836	0.003	-0.2625	0	0	305	305	3
2026-02-12	15:29:24.150	59.5	58.975	-14.77	0.611464	0.119804	0.233996	0.009	-0.264	0.0015	0	305	305	3
2026-02-12	15:29:24.170	56.84	47.775	-10.08	0.540704	0.163724	0.19642	0.021	-0.273	0.003	0	305	305	3
2026-02-12	15:29:24.190	37.31	26.67	-4.27	0.507764	0.192516	0.179828	0.024	-0.288	0.009	0	305	305	3
2026-02-12	15:29:24.210	2.38	4.445	5.845	0.542168	0.172264	0.265716	0.024	-0.288	0.009	0	288	320	3
2026-02-12	15:29:24.230	-35.805	-5.565	19.74	0.642452	0.192272	0.409188	0.03	-0.288	0.009	0	288	320	3
2026-02-12	15:29:24.250	-73.85	-6.685	34.72	0.728584	0.150792	0.476776	0.0285	-0.285	0.009	0	288	320	3
2026-02-12	15:29:24.270	-88.55	-4.83	49.56	0.754448	0.06344	0.386984	0.021	-0.276	0.0015	0	288	320	3
2026-02-12	15:29:24.290	-61.18	-10.535	65.345	0.864492	-0.00244	0.2135	0.0195	-0.2685	-0.009	0	288	320	3
2026-02-12	15:29:24.310	-8.365	-24.64	86.695	0.980392	0.019764	0.120536	0.0075	-0.261	-0.012	0	288	320	3
2026-02-12	15:29:24.330	40.11	-38.675	112.56	1.06262	0.05124	0.137128	-0.0045	-0.252	-0.0105	0	288	320	3
2026-02-12	15:29:24.350	84.84	-49.49	133.63	1.135088	0.097356	0.213988	-0.0105	-0.2505	-0.0105	0	288	320	3
2026-02-12	15:29:24.370	122.15	-54.985	146.825	1.088728	0.156404	0.289384	-0.024	-0.255	0.006	0	288	320	3
2026-02-12	15:29:24.390	139.3	-60.34	155.155	1.0431	0.205936	0.349164	-0.0525	-0.261	0.018	0	288	320	3
2026-02-12	15:29:24.410	136.815	-64.435	159.81	0.984784	0.247416	0.36844	-0.0675	-0.261	0.036	0	277	323	2
2026-02-12	15:29:24.430	121.765	-69.65	160.895	0.925004	0.274988	0.363072	-0.0975	-0.264	0.057	0	277	323	2
2026-02-12	15:29:24.450	97.685	-78.785	158.55	0.909144	0.291824	0.329888	-0.1155	-0.2655	0.0705	0	277	323	2
2026-02-12	15:29:24.470	70.525	-94.535	152.46	0.9821	0.301828	0.308904	-0.1395	-0.258	0.0855	0	277	323	2
2026-02-12	15:29:24.490	45.675	-108.815	146.93	1.07726	0.269376	0.335744	-0.1575	-0.249	0.102	0	277	323	2
2026-02-12	15:29:24.510	28.385	-114.135	145.565	1.14558	0.188368	0.410896	-0.1845	-0.234	0.123	0	277	323	2
2026-02-12	15:29:24.530	19.845	-112.875	145.6	1.196332	0.157868	0.391864	-0.2055	-0.219	0.1395	0	277	323	2
2026-02-12	15:29:24.550	26.005	-111.02	145.145	1.216096	0.126148	0.2989	-0.228	-0.204	0.1575	0	277	323	2
2026-02-12	15:29:24.570	44.905	-113.225	145.11	1.220976	0.116876	0.21472	-0.2445	-0.1875	0.1695	0	277	323	2
2026-02-12	15:29:24.590	66.78	-117.985	144.865	1.219268	0.13054	0.194956	-0.2565	-0.168	0.1875	0	277	323	2
2026-02-12	15:29:24.610	79.555	-122.045	142.66	1.202432	0.139324	0.261812	-0.2715	-0.1515	0.21	0	268	321	3
2026-02-12	15:29:24.630	81.48	-123.095	137.235	1.167784	0.123708	0.371856	-0.285	-0.1335	0.2325	0	268	321	3
2026-02-12	15:29:24.650	78.75	-121.555	127.435	1.122156	0.122244	0.438712	-0.294	-0.117	0.2535	0	268	321	3
2026-02-12	15:29:24.670	71.575	-118.93	113.855	1.076772	0.130052	0.46726	-0.306	-0.1035	0.276	0	268	321	3
2026-02-12	15:29:24.690	53.62	-114.8	98.98	1.060912	0.121756	0.48678	-0.309	-0.09	0.2985	0	268	321	3
2026-02-12	15:29:24.710	31.535	-107.975	83.37	1.05774	0.101016	0.492392	-0.3135	-0.0735	0.315	0	268	321	3
2026-02-12	15:29:24.730	16.59	-98.21	67.13	1.031876	0.058072	0.485316	-0.318	-0.06	0.3345	0	268	321	3
2026-02-12	15:29:24.750	14.245	-85.715	45.885	0.998936	0.02928	0.441884	-0.3165	-0.054	0.3465	0	268	321	3
2026-02-12	15:29:24.770	18.9	-73.99	24.36	0.976732	0.030988	0.443592	-0.3165	-0.054	0.3465	0	268	321	3
2026-02-12	15:29:24.790	12.18	-62.055	9.345	0.961848	-0.02684	0.464332	-0.3135	-0.0285	0.378	0	268	321	3
2026-02-12	15:29:24.810	15.435	-47.635	-5.39	0.934276	-0.070028	0.432612	-0.312	-0.0405	0.3855	0	261	328	3
2026-02-12	15:29:24.830	29.015	-33.74	-21.14	0.96502	-0.102236	0.382348	-0.312	-0.03	0.39	0	261	328	3
2026-02-12	15:29:24.850	45.64	-20.965	-35.7	1.042612	-0.12444	0.35136	-0.3075	-0.039	0.4005	0	261	328	3
2026-02-12	15:29:24.870	58.765	-6.79	-49.14	1.051152	-0.175192	0.36722	-0.3165	-0.0345	0.4095	0	261	328	3
2026-02-12	15:29:24.890	74.585	7.805	-59.465	1.030168	-0.224236	0.395524	-0.303	-0.0405	0.4035	0	261	328	3
2026-02-12	15:29:24.910	93.765	21.035	-67.2	1.006744	-0.235704	0.427	-0.309	-0.0495	0.4035	0	261	328	3
2026-02-12	15:29:24.930	110.18	31.745	-71.54	1.016016	-0.217648	0.45262	-0.3135	-0.054	0.402	0	261	328	3
2026-02-12	15:29:24.950	119.945	42.175	-74.095	1.080432	-0.173972	0.47458	-0.3105	-0.0555	0.402	0	261	328	3
2026-02-12	15:29:24.970	121.975	53.2	-74.76	1.175592	-0.129564	0.485072	-0.3045	-0.0615	0.4005	0	261	328	3
2026-02-12	15:29:24.990	118.37	65.94	-73.325	1.263188	-0.081252	0.455304	-0.303	-0.072	0.3975	0	261	328	3
2026-02-12	15:29:25.010	114.205	80.57	-72.135	1.308084	-0.048068	0.393328	-0.306	-0.0795	0.3915	0	255	346	3
2026-02-12	15:29:25.030	102.655	100.31	-75.6	1.32858	-0.040748	0.329644	-0.3075	-0.0825	0.387	0	255	346	3
2026-02-12	15:29:25.050	102.305	110.46	-81.41	1.288564	-0.087352	0.303536	-0.3075	-0.0825	0.387	0	255	346	3
2026-02-12	15:29:25.070	121.66	117.145	-89.845	1.215364	-0.127368	0.305488	-0.2925	-0.108	0.3645	0	255	346	3
2026-02-12	15:29:25.090	155.855	119.175	-101.465	1.198528	-0.109068	0.349164	-0.303	-0.117	0.3495	0	255	346	3
2026-02-12	15:29:25.110	183.96	119.98	-113.225	1.225368	-0.050264	0.400892	-0.294	-0.1335	0.333	0	255	346	3
2026-02-12	15:29:25.130	196.665	123.655	-122.885	1.198284	0.04148	0.43066	-0.2895	-0.138	0.3285	0	255	346	3
2026-02-12	15:29:25.150	199.675	125.86	-130.375	1.150216	0.102968	0.391132	-0.279	-0.159	0.3255	0	255	346	3
2026-02-12	15:29:25.170	197.225	122.99	-135.31	1.13094	0.17446	0.33306	-0.276	-0.177	0.33	0	255	346	3
2026-02-12	15:29:25.190	182.945	117.25	-134.715	1.148996	0.256444	0.30256	-0.267	-0.192	0.3225	0	255	346	3
2026-02-12	15:29:25.210	157.36	112.14	-130.725	1.1041	0.320616	0.284748	-0.2625	-0.201	0.315	0	250	362	3
2026-02-12	15:29:25.230	122.745	106.89	-125.93	1.022604	0.370148	0.283284	-0.2535	-0.2235	0.3255	0	250	362	3
2026-02-12	15:29:25.250	81.9	100.275	-118.72	0.95282	0.375028	0.288652	-0.237	-0.24	0.321	0	250	362	3
2026-02-12	15:29:25.270	41.51	93.66	-108.22	0.919148	0.360632	0.300852	-0.225	-0.2445	0.3135	0	250	362	3
2026-02-12	15:29:25.290	8.26	87.115	-95.305	0.884256	0.337696	0.316956	-0.222	-0.2625	0.3	0	250	362	3
2026-02-12	15:29:25.310	-24.43	77.735	-75.425	0.822768	0.299388	0.314516	-0.21	-0.2685	0.2985	0	250	362	3
2026-02-12	15:29:25.330	-35.28	71.995	-62.37	0.773724	0.273036	0.306708	-0.2025	-0.276	0.285	0	250	362	3
2026-02-12	15:29:25.350	-42.245	65.87	-48.65	0.73444	0.239852	0.290604	-0.1905	-0.2835	0.2655	0	250	362	3
2026-02-12	15:29:25.370	-43.4	58.625	-34.405	0.696132	0.212524	0.255224	-0.1815	-0.2895	0.2565	0	250	362	3
2026-02-12	15:29:25.390	-36.89	48.93	-20.09	0.687592	0.195444	0.236924	-0.177	-0.2955	0.243	0	250	362	3
2026-02-12	15:29:25.410	-25.935	38.22	-4.725	0.741028	0.177388	0.246196	-0.1725	-0.294	0.234	0	247	362	3
2026-02-12	15:29:25.430	-12.88	30.765	11.62	0.806908	0.159088	0.248392	-0.1695	-0.2925	0.231	0	247	362	3
2026-02-12	15:29:25.450	8.68	27.16	26.95	0.825208	0.13054	0.222284	-0.1665	-0.2895	0.228	0	247	362	3
2026-02-12	15:29:25.470	38.22	23.765	40.32	0.80764	0.119804	0.152744	-0.1695	-0.288	0.2325	0	247	362	3
2026-02-12	15:29:25.490	74.095	18.34	51.835	0.784216	0.058316	0.08052	-0.18	-0.2865	0.234	0	247	362	3
2026-02-12	15:29:25.510	115.36	10.535	62.405	0.745176	0.08174	0.03294	-0.1875	-0.282	0.2355	0	247	362	3
2026-02-12	15:29:25.530	145.215	0.49	73.045	0.739808	0.19154	0.041236	-0.1905	-0.276	0.2445	0	247	362	3
2026-02-12	15:29:25.550	137.62	-9.415	86.135	0.765428	0.32696	0.14396	-0.1965	-0.273	0.2565	0	247	362	3
2026-02-12	15:29:25.570	94.43	-15.575	101.675	0.804956	0.385764	0.299876	-0.207	-0.276	0.2685	0	247	362	3
2026-02-12	15:29:25.590	23.94	-15.435	120.365	0.845704	0.40626	0.391376	-0.2145	-0.2655	0.2835	0	247	362	3
2026-02-12	15:29:25.610	-26.635	-19.705	131.32	0.964044	0.441396	0.3172	-0.225	-0.249	0.291	0	247	341	3
2026-02-12	15:29:25.630	-83.965	-33.285	147.595	1.206824	0.426024	0.265716	-0.246	-0.225	0.2985	0	247	341	3
2026-02-12	15:29:25.650	-148.26	-42.56	167.09	1.259528	0.466772	0.207888	-0.255	-0.2085	0.294	0	247	341	3
2026-02-12	15:29:25.670	-222.005	-59.71	185.15	1.142896	0.33306	0.12932	-0.2655	-0.186	0.2955	0	247	341	3
2026-02-12	15:29:25.690	-244.475	-94.185	190.61	1.11142	0.07515199	0.105896	-0.279	-0.162	0.291	0	247	341	3
2026-02-12	15:29:25.710	-210.98	-124.67	187.845	1.108492	-0.028548	0.12322	-0.288	-0.1365	0.285	0	247	341	3
2026-02-12	15:29:25.730	-149.38	-150.64	178.08	1.161928	-0.114436	0.184708	-0.2955	-0.1095	0.294	0	247	341	3
2026-02-12	15:29:25.750	-75.215	-167.93	162.54	1.197796	-0.13908	0.236192	-0.303	-0.087	0.312	0	247	341	3
2026-02-12	15:29:25.770	-1.61	-176.12	145.18	1.209264	-0.13054	0.254248	-0.3075	-0.066	0.3315	0	247	341	3
2026-02-12	15:29:25.790	61.95	-179.27	128.38	1.262212	-0.101992	0.244488	-0.3105	-0.042	0.3555	0	247	341	3
2026-02-12	15:29:25.810	115.325	-175.735	116.235	1.272216	-0.087352	0.223016	-0.309	-0.021	0.384	0	249	310	3
2026-02-12	15:29:25.830	162.505	-165.515	109.69	1.271972	-0.0122	0.188612	-0.303	-0.003	0.414	0	249	310	3
2026-02-12	15:29:25.850	190.96	-148.925	106.785	1.216584	0.078812	0.13542	-0.3015	0.0225	0.4335	0	249	310	3
2026-02-12	15:29:25.870	177.24	-117.18	103.005	1.19194	0.267912	0.13786	-0.3015	0.039	0.4395	0	249	310	3
2026-02-12	15:29:25.890	103.32	-91.455	99.575	1.056276	0.41846	0.17324	-0.3015	0.039	0.4395	0	249	310	3
2026-02-12	15:29:25.910	-10.255	-86.31	89.95	1.011868	0.365512	0.148596	-0.273	0.1095	0.492	0	249	310	3
2026-02-12	15:29:25.930	-79.275	-87.885	74.095	1.01748	0.258396	0.183488	-0.264	0.1125	0.4965	0	249	310	3
2026-02-12	15:29:25.950	-128.24	-80.78	56.63	0.999912	0.180804	0.196908	-0.2505	0.1125	0.516	0	249	310	3
2026-02-12	15:29:25.970	-148.085	-79.38	41.825	0.9394	-0.08662	0.082716	-0.246	0.114	0.531	0	249	310	3
2026-02-12	15:29:25.990	-106.225	-82.53	24.185	0.91134	-0.241316	0.072956	-0.2385	0.1155	0.543	0	249	310	3
2026-02-12	15:29:26.010	-32.935	-79.555	-0.175	0.993324	-0.256688	0.125416	-0.2385	0.1155	0.543	0	253	278	3
2026-02-12	15:29:26.030	4.27	-76.125	-10.15	0.993324	-0.343308	0.179096	-0.2385	0.1155	0.543	0	253	278	3
2026-02-12	15:29:26.050	45.43	-69.23	-23.31	0.990152	-0.283528	0.23912	-0.219	0.108	0.582	0	253	278	3
2026-02-12	15:29:26.070	64.575	-63.28	-34.195	1.006988	-0.308172	0.30012	-0.2055	0.1035	0.582	0	253	278	3
2026-02-12	15:29:26.090	69.055	-54.95	-42.98	0.961848	-0.315248	0.361852	-0.21	0.105	0.5835	0	253	278	3
2026-02-12	15:29:26.110	68.355	-46.34	-49.175	0.887672	-0.441884	0.36966	-0.207	0.1065	0.5865	0	253	278	3
2026-02-12	15:29:26.130	71.925	-36.295	-48.825	0.875472	-0.47824	0.401136	-0.204	0.1065	0.591	0	253	278	3
2026-02-12	15:29:26.150	89.6	-14.63	-47.53	0.89182	-0.446276	0.354532	-0.2085	0.1065	0.5955	0	253	278	3
2026-02-12	15:29:26.170	110.425	1.015	-46.025	0.901336	-0.40382	0.249856	-0.198	0.117	0.5925	0	253	278	3
2026-02-12	15:29:26.190	127.82	13.79	-45.045	0.937448	-0.328424	0.155916	-0.2025	0.1125	0.5925	0	253	278	3
2026-02-12	15:29:26.210	137.375	19.495	-47.88	1.016016	-0.28426	0.094916	-0.195	0.1245	0.588	0	259	256	3
2026-02-12	15:29:26.230	148.155	18.445	-54.285	1.11264	-0.288896	0.092964	-0.207	0.135	0.576	0	259	256	3
2026-02-12	15:29:26.250	159.53	18.235	-61.25	1.201456	-0.222772	0.18178	-0.21	0.1425	0.567	0	259	256	3
2026-02-12	15:29:26.270	159.495	24.71	-66.605	1.212924	-0.176656	0.269376	-0.21	0.1485	0.555	0	259	256	3
2026-02-12	15:29:26.290	155.96	32.235	-72.52	1.200724	-0.154208	0.374784	-0.216	0.1575	0.552	0	259	256	3
2026-02-12	15:29:26.310	150.71	43.96	-77.735	1.157292	-0.132492	0.467748	-0.222	0.1575	0.543	0	259	256	3
2026-02-12	15:29:26.330	144.515	58.135	-83.44	1.121424	-0.046848	0.482876	-0.2265	0.1545	0.5355	0	259	256	3
2026-02-12	15:29:26.350	130.34	70.385	-91.315	1.114836	0.017812	0.448472	-0.24	0.1575	0.516	0	259	256	3
2026-02-12	15:29:26.370	104.615	79.835	-98.385	1.095804	0.02806	0.381616	-0.24	0.153	0.504	0	259	256	3
2026-02-12	15:29:26.390	73.01	86.555	-102.76	1.083604	-0.002196	0.343064	-0.252	0.156	0.486	0	259	256	3
2026-02-12	15:29:26.410	42.385	94.08	-105.035	1.14802	-0.0061	0.3538	-0.2685	0.1425	0.4725	0	265	254	3
2026-02-12	15:29:26.430	21.84	102.41	-109.235	1.265628	0.00488	0.327936	-0.2685	0.1425	0.4725	0	265	254	3
2026-02-12	15:29:26.450	15.015	109.06	-111.72	1.315648	-0.007076	0.294508	-0.2805	0.123	0.4515	0	265	254	3
2026-02-12	15:29:26.470	11.9	115.22	-110.285	1.308816	-0.012688	0.27938	-0.294	0.0945	0.4215	0	265	254	3
2026-02-12	15:29:26.490	13.44	118.93	-108.885	1.353224	0.021716	0.315248	-0.3015	0.0825	0.4005	0	265	254	3
2026-02-12	15:29:26.510	10.43	122.675	-108.395	1.401048	0.065636	0.362096	-0.3045	0.0675	0.381	0	265	254	3
2026-02-12	15:29:26.530	3.745	128.695	-107.17	1.347612	0.063928	0.366488	-0.303	0.0495	0.363	0	265	254	3
2026-02-12	15:29:26.550	-0.735	131.46	-105	1.265628	0.056364	0.3355	-0.309	0.0345	0.3405	0	265	254	3
2026-02-12	15:29:26.570	3.5	128.975	-103.39	1.245864	0.087108	0.313052	-0.3135	0.0195	0.3255	0	265	254	3
2026-02-12	15:29:26.590	8.925	123.445	-103.46	1.188524	0.100772	0.323544	-0.3105	0.009	0.3105	0	265	254	3
2026-02-12	15:29:26.610	3.5	116.62	-101.395	1.120204	0.121756	0.363804	-0.3105	-0.0045	0.288	0	269	269	3
2026-02-12	15:29:26.630	-13.37	111.44	-96.88	1.088484	0.219112	0.426268	-0.3105	-0.021	0.2715	0	269	269	3
2026-02-12	15:29:26.650	-40.53	108.08	-91.7	1.087752	0.246684	0.421388	-0.309	-0.0285	0.2655	0	269	269	3
2026-02-12	15:29:26.670	-63.21	104.615	-85.505	1.047492	0.231556	0.388936	-0.3015	-0.0435	0.2505	0	269	269	3
2026-02-12	15:29:26.690	-77.35	99.96	-76.3	0.935252	0.195688	0.321592	-0.2985	-0.054	0.2265	0	269	269	3
2026-02-12	15:29:26.710	-82.285	93.485	-65.45	0.828136	0.170068	0.275476	-0.2985	-0.054	0.2265	0	269	269	3
2026-02-12	15:29:26.730	-80.185	85.855	-54.6	0.804468	0.140788	0.25864	-0.2865	-0.063	0.204	0	269	269	3
2026-02-12	15:29:26.750	-70.56	76.615	-42.56	0.817156	0.131516	0.254004	-0.2745	-0.078	0.1755	0	269	269	3
2026-02-12	15:29:26.770	-56.665	67.235	-29.54	0.83692	0.133468	0.26108	-0.2685	-0.0825	0.165	0	269	269	3
2026-02-12	15:29:26.790	-44.765	58.065	-16.065	0.88694	0.140788	0.264008	-0.261	-0.081	0.153	0	269	269	3
2026-02-12	15:29:26.810	-35.105	50.12	-2.45	0.8662	0.124928	0.25376	-0.2595	-0.081	0.1425	0	271	287	3
2026-02-12	15:29:26.830	-25.305	41.23	11.165	0.8296	0.108336	0.2257	-0.2625	-0.0765	0.1365	0	271	287	3
2026-02-12	15:29:26.850	-12.005	30.415	23.87	0.7747	0.121024	0.18178	-0.258	-0.0735	0.132	0	271	287	3
2026-02-12	15:29:26.870	0.315	15.435	33.95	0.764208	0.158844	0.147864	-0.2505	-0.072	0.129	0	271	287	3
2026-02-12	15:29:26.890	7.665	-1.505	42.21	0.720044	0.162016	0.127856	-0.2505	-0.066	0.126	0	271	287	3
2026-02-12	15:29:26.910	13.44	-19.915	49.385	0.691008	0.155672	0.122	-0.252	-0.06	0.1245	0	271	287	3
2026-02-12	15:29:26.930	16.205	-37.765	57.855	0.726388	0.10736	0.197152	-0.2565	-0.0525	0.1245	0	271	287	3
2026-02-12	15:29:26.950	24.71	-49.315	68.95	0.76616	0.003172	0.277184	-0.261	-0.0465	0.129	0	271	287	3
2026-02-12	15:29:26.970	92.995	-60.62	80.29	0.69418	-0.12688	0.099064	-0.2655	-0.042	0.135	0	271	287	3
2026-02-12	15:29:26.990	228.06	-80.36	90.545	0.620004	-0.356728	-0.132492	-0.27	-0.0375	0.141	0	271	287	3
2026-02-12	15:29:27.010	342.055	-89.845	109.095	0.861076	-0.162992	-0.002928	-0.2835	-0.033	0.165	0	271	286	2
2026-02-12	15:29:27.030	389.69	-81.515	133.49	1.12972	0.20618	0.233996	-0.282	-0.033	0.192	0	271	286	2
2026-02-12	15:29:27.050	343.665	-60.2	159.6	1.249524	0.519964	0.278648	-0.2955	-0.0285	0.207	0	271	286	2
2026-02-12	15:29:27.070	247.38	-47.46	180.74	1.25416	0.533628	0.210572	-0.3	-0.0225	0.2265	0	271	286	2
2026-02-12	15:29:27.090	155.645	-48.72	199.85	1.22488	0.427	0.128344	-0.3075	-0.0045	0.228	0	271	286	2
2026-02-12	15:29:27.110	91.98	-57.085	215.425	1.211216	0.332328	0.077348	-0.3	0.021	0.243	0	271	286	2
2026-02-12	15:29:27.130	71.645	-68.775	220.955	1.227076	0.323056	0.079788	-0.297	0.0375	0.2535	0	271	286	2
2026-02-12	15:29:27.150	77.91	-80.395	214.9	1.188768	0.371856	0.132248	-0.3	0.072	0.2595	0	271	286	2
2026-02-12	15:29:27.170	84.91	-92.05	202.335	1.151924	0.317444	0.219112	-0.2985	0.105	0.2745	0	271	286	2
2026-02-12	15:29:27.190	90.755	-98.245	189.175	1.151192	0.2806	0.290604	-0.288	0.129	0.279	0	271	286	2
2026-02-12	15:29:27.210	90.755	-97.3	173.425	1.18462	0.281088	0.319152	-0.2805	0.1515	0.294	0	273	265	3
2026-02-12	15:29:27.230	77.07	-93.17	157.08	1.22976	0.342088	0.304268	-0.2805	0.1515	0.294	0	273	265	3
2026-02-12	15:29:27.250	45.15	-87.92	143.115	1.216584	0.397232	0.308416	-0.273	0.198	0.309	0	273	265	3
2026-02-12	15:29:27.270	2.975	-81.97	128.135	1.170712	0.388936	0.255956	-0.255	0.219	0.321	0	273	265	3
2026-02-12	15:29:27.290	-28.35	-79.485	111.545	1.0858	0.339404	0.192028	-0.24	0.2415	0.336	0	273	265	3
2026-02-12	15:29:27.310	-33.67	-80.08	92.925	0.995764	0.298412	0.235216	-0.2325	0.2505	0.342	0	273	265	3
2026-02-12	15:29:27.330	-31.22	-80.57	73.15	0.97478	0.30988	0.382836	-0.2235	0.2595	0.36	0	273	265	3
2026-02-12	15:29:27.350	-50.26	-74.9	54.95	1.024068	0.225212	0.545096	-0.2085	0.267	0.363	0	273	265	3
2026-02-12	15:29:27.370	-63.49	-61.845	37.065	1.04676	0.11956	0.50508	-0.2085	0.273	0.3795	0	273	265	3
2026-02-12	15:29:27.390	-64.96	-55.02	22.855	1.15046	0.062464	0.455304	-0.2025	0.279	0.39	0	273	265	3
2026-02-12	15:29:27.410	-54.145	-48.93	11.13	1.241716	0.031476	0.440908	-0.198	0.291	0.405	0	276	255	3
2026-02-12	15:29:27.430	-28.63	-38.92	-2.94	1.298324	0.021716	0.405772	-0.195	0.288	0.4155	0	276	255	3
2026-02-12	15:29:27.450	9.695	-20.265	-20.79	1.258308	0.01342	0.384788	-0.195	0.288	0.4155	0	276	255	3
2026-02-12	15:29:27.470	21.105	-9.45	-29.89	1.22488	0.017812	0.411628	-0.1965	0.285	0.4185	0	276	255	3
2026-02-12	15:29:27.490	21.63	1.155	-38.85	1.242204	-0.00244	0.490196	-0.198	0.2805	0.426	0	276	255	3
2026-02-12	15:29:27.510	17.22	16.835	-45.43	1.185108	-0.069296	0.513864	-0.1995	0.2745	0.4245	0	276	255	3
2026-02-12	15:29:27.530	26.88	33.6	-51.695	1.077748	-0.061976	0.454572	-0.2055	0.2655	0.4155	0	276	255	3
2026-02-12	15:29:27.550	37.94	46.97	-57.785	0.998936	0.016348	0.37942	-0.21	0.261	0.4125	0	276	255	3
2026-02-12	15:29:27.570	37.17	56.77	-64.015	0.971852	0.066124	0.32208	-0.207	0.258	0.408	0	276	255	3
2026-02-12	15:29:27.590	25.27	63.245	-71.505	1.041636	0.114436	0.290116	-0.213	0.252	0.3975	0	276	255	3
2026-02-12	15:29:27.610	4.83	70.28	-78.19	1.136064	0.100284	0.270352	-0.2265	0.2445	0.387	0	276	271	3
2026-02-12	15:29:27.630	-10.815	80.325	-83.09	1.172664	0.069052	0.227896	-0.2295	0.2385	0.3765	0	276	271	3
2026-02-12	15:29:27.650	-17.99	88.9	-87.255	1.201212	0.098332	0.209596	-0.237	0.2295	0.363	0	276	271	3
2026-02-12	15:29:27.670	-29.61	98	-91.315	1.269776	0.106628	0.202032	-0.2475	0.222	0.36	0	276	271	3
2026-02-12	15:29:27.690	-35.49	108.535	-93.905	1.2627	0.109556	0.184952	-0.2475	0.222	0.36	0	276	271	3
2026-02-12	15:29:27.710	-32.375	114.205	-95.69	1.236348	0.090524	0.191296	-0.2595	0.1755	0.321	0	276	271	3
2026-02-12	15:29:27.730	-21.315	118.16	-96.04	1.310524	0.003904	0.271328	-0.276	0.1635	0.309	0	276	271	3
2026-02-12	15:29:27.750	20.23	127.12	-97.16	1.394948	0.000732	0.258152	-0.27	0.159	0.2865	0	276	271	3
2026-02-12	15:29:27.770	81.025	135.31	-101.71	1.278072	0.062464	0.147376	-0.2775	0.1395	0.273	0	276	271	3
2026-02-12	15:29:27.790	127.19	130.935	-108.78	1.174616	0.148596	0.069052	-0.2835	0.123	0.2415	0	276	271	3
2026-02-12	15:29:27.810	149.835	119.385	-116.235	1.114592	0.253516	0.05612	-0.2775	0.108	0.2265	0	274	284	3
2026-02-12	15:29:27.830	150.5	104.02	-123.69	1.086044	0.324032	0.07905599	-0.276	0.0975	0.213	0	274	284	3
2026-02-12	15:29:27.850	132.755	88.06	-128.975	1.037976	0.341844	0.123952	-0.279	0.075	0.192	0	274	284	3
2026-02-12	15:29:27.870	101.29	73.5	-130.865	0.999668	0.35014	0.16714	-0.2835	0.0525	0.1815	0	274	284	3
2026-02-12	15:29:27.890	58.275	61.495	-127.505	1.00284	0.358436	0.193004	-0.279	0.033	0.1695	0	274	284	3
2026-02-12	15:29:27.910	-8.295	50.19	-113.47	1.002596	0.355508	0.183	-0.2745	0.0225	0.162	0	274	284	3
2026-02-12	15:29:27.930	-47.25	45.01	-100.695	0.944524	0.332328	0.14396	-0.2655	-0.0045	0.144	0	274	284	3
2026-02-12	15:29:27.950	-74.515	38.815	-87.115	0.930616	0.29402	0.115168	-0.2625	-0.024	0.1365	0	274	284	3
2026-02-12	15:29:27.970	-90.685	32.69	-73.255	0.960384	0.257664	0.110288	-0.2535	-0.027	0.1305	0	274	284	3
2026-02-12	15:29:27.990	-100.17	29.645	-59.465	0.8662	0.203252	0.08784	-0.2505	-0.0315	0.123	0	274	284	3
2026-02-12	15:29:28.010	-102.795	23.975	-46.34	0.794708	0.1586	0.067588	-0.246	-0.0315	0.114	0	271	271	3
2026-02-12	15:29:28.030	-99.4	15.47	-33.18	0.729072	0.144204	0.05978	-0.2445	-0.0285	0.1185	0	271	271	3
2026-02-12	15:29:28.050	-95.06	5.39	-21.245	0.669536	0.146644	0.079788	-0.2385	-0.0345	0.108	0	271	271	3
2026-02-12	15:29:28.070	-95.165	-5.565	-11.76	0.623908	0.150792	0.101748	-0.2325	-0.0285	0.1035	0	271	271	3
2026-02-12	15:29:28.090	-97.09	-17.885	-4.41	0.600972	0.152988	0.100528	-0.2355	-0.021	0.108	0	271	271	3
2026-02-12	15:29:28.110	-106.47	-33.985	2.205	0.689788	0.14396	0.18666	-0.237	-0.012	0.1065	0	271	271	3
2026-02-12	15:29:28.130	-129.22	-48.125	11.55	0.927444	0.119072	0.264008	-0.24	-0.003	0.1065	0	271	271	3
2026-02-12	15:29:28.150	-142.73	-58.835	28.7	1.079944	0.054656	0.212036	-0.24	0.0045	0.117	0	271	271	3
2026-02-12	15:29:28.170	-130.025	-69.405	43.47	1.145824	-0.033916	0.277428	-0.24	0.0045	0.117	0	271	271	3
2026-02-12	15:29:28.190	-102.97	-73.185	51.73	1.16876	-0.15494	0.345992	-0.249	0.0195	0.1275	0	271	271	3
2026-02-12	15:29:28.210	-61.425	-71.19	57.645	1.025288	-0.166164	0.314272	-0.261	0.045	0.144	0	267	246	2
2026-02-12	15:29:28.230	-22.75	-73.29	61.25	0.934764	-0.153476	0.272548	-0.2625	0.06	0.1575	0	267	246	2
2026-02-12	15:29:28.250	11.025	-78.225	63.35	0.888648	-0.120048	0.234728	-0.261	0.069	0.1695	0	267	246	2
2026-02-12	15:29:28.270	39.445	-86.66	65.485	0.906704	-0.08662	0.243024	-0.261	0.078	0.1755	0	267	246	2
2026-02-12	15:29:28.290	63.07	-95.515	70.315	0.926956	-0.11834	0.361364	-0.2655	0.0795	0.1845	0	267	246	2
2026-02-12	15:29:28.310	83.93	-99.295	77.56	0.871812	-0.065636	0.492148	-0.27	0.087	0.198	0	267	246	2
2026-02-12	15:29:28.330	89.6	-101.57	84.14	0.882548	-0.006344	0.547048	-0.267	0.099	0.21	0	267	246	2
2026-02-12	15:29:28.350	76.65	-99.47	92.645	0.92354	0.043676	0.506056	-0.267	0.105	0.2235	0	267	246	2
2026-02-12	15:29:28.370	62.09	-95.06	101.71	0.977952	0.059292	0.411628	-0.27	0.1185	0.2355	0	267	246	2
2026-02-12	15:29:28.390	59.885	-91.805	108.745	1.008696	0.091256	0.296704	-0.273	0.126	0.237	0	267	246	2
2026-02-12	15:29:28.410	60.2	-93.135	113.75	1.055544	0.122488	0.238144	-0.2745	0.1275	0.246	0	265	240	3
2026-02-12	15:29:28.430	47.25	-99.015	117.6	1.128012	0.17812	0.2684	-0.2655	0.15	0.2625	0	265	240	3
2026-02-12	15:29:28.450	14.28	-101.255	117.67	1.149728	0.229604	0.412116	-0.2595	0.159	0.276	0	265	240	3
2026-02-12	15:29:28.470	-24.64	-96.67	110.88	1.10654	0.184952	0.493612	-0.2535	0.1845	0.2925	0	265	240	3
2026-02-12	15:29:28.490	-51.45	-89.075	97.615	1.033096	0.09028	0.451156	-0.246	0.201	0.303	0	265	240	3
2026-02-12	15:29:28.510	-56.175	-83.965	81.13	0.96624	0.048556	0.394548	-0.24	0.2085	0.315	0	265	240	3
2026-02-12	15:29:28.530	-57.26	-80.5	63.945	0.957944	0.024156	0.420656	-0.24	0.2205	0.3255	0	265	240	3
2026-02-12	15:29:28.550	-63.07	-74.48	47.425	0.98332	-0.017568	0.456768	-0.2385	0.225	0.342	0	265	240	3
2026-02-12	15:29:28.570	-56.77	-65.625	32.375	0.981124	-0.06954	0.449448	-0.2325	0.234	0.36	0	265	240	3
2026-02-12	15:29:28.590	-36.855	-56.35	19.32	0.973804	-0.118096	0.41968	-0.2205	0.2415	0.375	0	265	240	3
2026-02-12	15:29:28.610	-8.19	-48.755	8.155	1.016748	-0.109068	0.382104	-0.2205	0.243	0.3825	0	262	262	3
2026-02-12	15:29:28.630	17.57	-40.95	-0.035	1.064084	-0.068808	0.343552	-0.219	0.243	0.39	0	262	262	3
2026-02-12	15:29:28.650	32.585	-34.125	-6.86	1.146068	-0.047092	0.310856	-0.219	0.2385	0.399	0	262	262	3
2026-02-12	15:29:28.670	40.81	-28.14	-12.74	1.250988	-0.027328	0.284992	-0.222	0.24	0.399	0	262	262	3
2026-02-12	15:29:28.690	44.275	-21.14	-16.835	1.315648	-0.004148	0.286944	-0.216	0.24	0.396	0	262	262	3
2026-02-12	15:29:28.710	42.84	-8.925	-21.91	1.272704	-0.004148	0.327692	-0.2145	0.237	0.3975	0	262	262	3
2026-02-12	15:29:28.730	42.14	-0.385	-24.99	1.210972	-0.001708	0.355508	-0.2145	0.237	0.3975	0	262	262	3
2026-02-12	15:29:28.750	44.135	9.275	-28.945	1.103124	0.011468	0.360632	-0.2175	0.2355	0.378	0	262	262	3
2026-02-12	15:29:28.770	45.815	17.29	-34.965	0.992592	0.031964	0.342088	-0.2205	0.234	0.3915	0	262	262	3
2026-02-12	15:29:28.790	43.505	22.89	-41.37	0.935496	0.034892	0.343064	-0.225	0.225	0.3705	0	262	262	3
2026-02-12	15:29:28.810	39.27	28.315	-46.9	0.94916	0.02684	0.365512	-0.2265	0.2265	0.372	0	257	291	3
2026-02-12	15:29:28.830	41.09	35.7	-52.5	0.970632	0.019764	0.355752	-0.2385	0.2205	0.36	0	257	291	3
2026-02-12	15:29:28.850	54.46	43.54	-58.87	0.980148	0.040748	0.298656	-0.237	0.2145	0.348	0	257	291	3
2026-02-12	15:29:28.870	62.93	49.77	-65.03	1.006744	0.102724	0.273768	-0.246	0.1965	0.345	0	257	291	3
2026-02-12	15:29:28.890	56.315	56.595	-70.49	1.045052	0.165676	0.306464	-0.2445	0.1935	0.3255	0	257	291	3
2026-02-12	15:29:28.910	40.845	66.115	-76.23	1.104832	0.229848	0.321348	-0.252	0.183	0.321	0	257	291	3
2026-02-12	15:29:28.930	26.565	76.895	-83.195	1.10898	0.250588	0.277184	-0.2565	0.186	0.3105	0	257	291	3
2026-02-12	15:29:28.950	21.105	83.86	-90.195	1.120692	0.240828	0.243024	-0.261	0.171	0.2955	0	257	291	3
2026-02-12	15:29:28.970	21.875	87.5	-96.11	1.153632	0.253028	0.253516	-0.2685	0.1515	0.2805	0	257	291	3
2026-02-12	15:29:28.990	19.075	93.555	-100.415	1.22488	0.247172	0.291336	-0.2685	0.1515	0.2805	0	257	291	3
2026-02-12	15:29:29.010	27.755	99.12	-104.405	1.19682	0.25864	0.278892	-0.2685	0.1515	0.2805	0	250	309	3
2026-02-12	15:29:29.030	38.29	100.765	-108.255	1.165588	0.278404	0.267424	-0.276	0.1155	0.2445	0	250	309	3
2026-02-12	15:29:29.050	40.985	99.89	-109.655	1.142652	0.321104	0.271816	-0.2805	0.0945	0.2325	0	250	309	3
2026-02-12	15:29:29.070	32.725	97.545	-109.69	1.142652	0.362828	0.27816	-0.282	0.0855	0.2055	0	250	309	3
2026-02-12	15:29:29.090	17.115	94.08	-109.585	1.157536	0.398452	0.270108	-0.2775	0.06	0.198	0	250	309	3
2026-02-12	15:29:29.110	-3.29	89.95	-107.31	1.13582	0.403332	0.245952	-0.2685	0.051	0.183	0	250	309	3
2026-02-12	15:29:29.130	-25.795	84.7	-102.445	1.092876	0.392108	0.220576	-0.2745	0.039	0.1695	0	250	309	3
2026-02-12	15:29:29.150	-47.67	78.12	-95.41	1.07604	0.36722	0.210572	-0.2655	0.015	0.1425	0	250	309	3
2026-02-12	15:29:29.170	-63	71.645	-86.905	1.05774	0.33672	0.196664	-0.2685	0.0135	0.141	0	250	309	3
2026-02-12	15:29:29.190	-72.66	65.17	-77.63	0.99918	0.315248	0.1708	-0.258	0.003	0.1245	0	250	309	3
2026-02-12	15:29:29.210	-76.685	57.61	-68.39	0.949404	0.291336	0.150304	-0.255	0	0.1245	0	242	308	3
2026-02-12	15:29:29.230	-76.685	48.335	-60.095	0.93086	0.271328	0.132248	-0.2445	-0.009	0.114	0	242	308	3
2026-02-12	15:29:29.250	-73.395	36.4	-51.94	0.86864	0.230092	0.123708	-0.249	-0.0135	0.099	0	242	308	3
2026-02-12	15:29:29.270	-67.725	23.38	-44.625	0.810324	0.201544	0.10248	-0.237	-0.0105	0.1035	0	242	308	3
2026-02-12	15:29:29.290	-61.635	11.585	-38.955	0.794952	0.18422	0.086132	-0.2385	-0.0105	0.093	0	242	308	3
2026-02-12	15:29:29.310	-57.015	0.665	-33.075	0.747616	0.174704	0.087352	-0.2385	-0.012	0.0855	0	242	308	3
2026-02-12	15:29:29.330	-53.515	-9.625	-26.88	0.7076	0.120536	0.116632	-0.2325	-0.0135	0.087	0	242	308	3
2026-02-12	15:29:29.350	-50.925	-18.83	-19.565	0.674172	0.121512	0.136152	-0.2325	-0.018	0.084	0	242	308	3
2026-02-12	15:29:29.370	-52.605	-27.265	-10.745	0.644648	0.103212	0.172752	-0.234	-0.0195	0.084	0	242	308	3
2026-02-12	15:29:29.390	-60.865	-33.18	1.54	0.67954	0.06222	0.284504	-0.237	-0.012	0.087	0	242	308	3
2026-02-12	15:29:29.410	-75.285	-33.04	23.555	0.803492	-0.007808	0.282796	-0.24	-0.003	0.093	0	235	286	2
2026-02-12	15:29:29.430	-62.51	-36.47	51.59	0.838872	-0.002684	0.110776	-0.234	0.0015	0.1005	0	235	286	2
2026-02-12	15:29:29.450	-4.9	-51.66	70.175	0.833504	0.044408	-0.006344	-0.234	0.009	0.1035	0	235	286	2
2026-02-12	15:29:29.470	57.785	-74.55	85.54	0.93086	0.102724	0.01708	-0.2415	0.0195	0.108	0	235	286	2
2026-02-12	15:29:29.490	89.355	-92.365	103.355	0.980636	0.15128	0.15616	-0.249	0.0315	0.114	0	235	286	2
2026-02-12	15:29:29.510	88.305	-104.02	118.195	1.034804	0.120292	0.282796	-0.2655	0.0375	0.126	0	235	286	2
2026-02-12	15:29:29.530	80.85	-115.325	130.515	1.109468	0.102236	0.384056	-0.2745	0.045	0.1425	0	235	286	2
2026-02-12	15:29:29.550	54.845	-126.21	135.975	1.181936	0.148596	0.458964	-0.273	0.0525	0.153	0	235	286	2
2026-02-12	15:29:29.570	9.24	-131.915	134.225	1.1895	0.149328	0.488976	-0.273	0.0645	0.1665	0	235	286	2
2026-02-12	15:29:29.590	-44.8	-134.505	128.765	1.180472	0.17202	0.466284	-0.273	0.087	0.1905	0	235	286	2
2026-02-12	15:29:29.610	-98.14	-132.51	119.105	1.153632	0.15616	0.425048	-0.2715	0.111	0.21	0	232	263	3
2026-02-12	15:29:29.630	-133.805	-127.855	105.945	1.121912	0.092964	0.35502	-0.273	0.1335	0.231	0	232	263	3
2026-02-12	15:29:29.650	-139.02	-122.255	91.07	1.077748	0.025132	0.277672	-0.273	0.1455	0.255	0	232	263	3
2026-02-12	15:29:29.670	-120.4	-117.39	77.28	1.044076	-0.03538	0.243512	-0.273	0.162	0.282	0	232	263	3
2026-02-12	15:29:29.690	-91.91	-111.16	66.465	1.008696	-0.109556	0.260836	-0.2745	0.177	0.3	0	232	263	3
2026-02-12	15:29:29.710	-56.385	-103.88	57.75	0.97722	-0.149328	0.28914	-0.2685	0.1845	0.3165	0	232	263	3
2026-02-12	15:29:29.730	-15.33	-96.6	49.875	0.933056	-0.164212	0.318176	-0.261	0.192	0.342	0	232	263	3
2026-02-12	15:29:29.750	22.785	-88.97	43.295	0.877424	-0.117608	0.34282	-0.258	0.1935	0.36	0	232	263	3
2026-02-12	15:29:29.770	44.8	-81.795	36.96	0.854732	-0.065392	0.360876	-0.255	0.201	0.3675	0	232	263	3
2026-02-12	15:29:29.790	51.835	-75.6	30.94	0.909876	-0.04758	0.37576	-0.2505	0.213	0.3765	0	232	263	3
2026-02-12	15:29:29.810	52.08	-67.585	26.53	1.016504	-0.034648	0.375028	-0.2475	0.216	0.384	0	230	262	3
2026-02-12	15:29:29.830	50.365	-59.675	24.29	1.10654	-0.002196	0.374296	-0.2475	0.216	0.384	0	230	262	3
2026-02-12	15:29:29.850	45.325	-54.005	23.275	1.181204	0.027816	0.372832	-0.234	0.237	0.39	0	230	262	3
2026-02-12	15:29:29.870	34.3	-48.965	22.82	1.302472	0.044164	0.360388	-0.2415	0.231	0.3915	0	230	262	3
2026-02-12	15:29:29.890	22.54	-44.31	22.89	1.46644	0.028304	0.388204	-0.2355	0.237	0.4005	0	230	262	3
2026-02-12	15:29:29.910	21.945	-30.065	20.44	1.440088	0.04392	0.391376	-0.228	0.243	0.4005	0	230	262	3
2026-02-12	15:29:29.930	28.035	-14.49	12.46	1.35054	0.064416	0.375516	-0.2295	0.2445	0.408	0	230	262	3
2026-02-12	15:29:29.950	36.365	0.105	0.77	1.208776	0.039284	0.379176	-0.2295	0.2505	0.4095	0	230	262	3
2026-02-12	15:29:29.970	75.285	16.45	-16.59	1.058472	-0.0366	0.400404	-0.2325	0.249	0.405	0	230	262	3
2026-02-12	15:29:29.990	138.915	32.34	-38.22	1.017724	-0.029036	0.354532	-0.2295	0.2505	0.3945	0	230	262	3
2026-02-12	15:29:30.010	196.875	49.7	-61.32	0.982344	0.034648	0.256688	-0.2295	0.2505	0.3945	0	230	278	3
2026-02-12	15:29:30.030	214.375	56.035	-73.64	0.977708	0.116388	0.222772	-0.2415	0.2415	0.363	0	230	278	3
2026-02-12	15:29:30.050	216.65	60.9	-89.67	1.029924	0.275964	0.193492	-0.243	0.2385	0.333	0	230	278	3
2026-02-12	15:29:30.070	190.855	63.84	-103.915	1.093364	0.415776	0.161284	-0.2565	0.2265	0.3165	0	230	278	3
2026-02-12	15:29:30.090	118.58	66.815	-123.655	1.112396	0.514352	0.119804	-0.261	0.204	0.2955	0	230	278	3
2026-02-12	15:29:30.110	69.58	66.78	-136.36	1.120204	0.527528	0.108824	-0.2715	0.183	0.2745	0	230	278	3
2026-02-12	15:29:30.130	23.135	65.38	-147.455	1.18828	0.498736	0.109556	-0.282	0.159	0.2505	0	230	278	3
2026-02-12	15:29:30.150	-12.74	65.065	-155.925	1.207312	0.432856	0.110288	-0.2835	0.156	0.2475	0	230	278	3
2026-02-12	15:29:30.170	-37.24	63.98	-159.775	1.206336	0.37576	0.125904	-0.294	0.1245	0.24	0	230	278	3
2026-02-12	15:29:30.190	-54.25	63.245	-158.69	1.207312	0.373808	0.164456	-0.294	0.105	0.234	0	230	278	3
2026-02-12	15:29:30.210	-65.52	64.89	-155.295	1.24074	0.377712	0.19154	-0.2985	0.0885	0.216	0	231	284	3
2026-02-12	15:29:30.230	-67.795	69.475	-151.9	1.207312	0.361364	0.216916	-0.2955	0.0585	0.1995	0	231	284	3
2026-02-12	15:29:30.250	-65.205	74.62	-146.93	1.16632	0.33062	0.191784	-0.294	0.0555	0.1995	0	231	284	3
2026-02-12	15:29:30.270	-65.31	78.155	-138.775	1.124352	0.315492	0.172752	-0.2985	0.0225	0.1725	0	231	284	3
2026-02-12	15:29:30.290	-69.055	80.78	-133.07	1.13582	0.437736	0.224236	-0.2955	0.0045	0.171	0	231	284	3
2026-02-12	15:29:30.310	-85.085	84.875	-129.85	1.10288	0.511912	0.215208	-0.2955	-0.0165	0.144	0	231	284	3
2026-02-12	15:29:30.330	-93.415	87.29	-125.825	1.050664	0.564372	0.143716	-0.282	-0.0195	0.135	0	231	284	3
2026-02-12	15:29:30.350	-95.76	83.755	-117.88	1.045784	0.556808	0.101748	-0.2775	-0.027	0.12	0	231	284	3
2026-02-12	15:29:30.370	-105.14	75.775	-99.05	1.069452	0.454572	0.130784	-0.2565	-0.0405	0.105	0	231	284	3
2026-02-12	15:29:30.390	-118.615	72.555	-84.875	0.961604	0.33062	0.123952	-0.246	-0.048	0.093	0	231	284	3
2026-02-12	15:29:30.410	-121.94	68.005	-70.7	0.870592	0.272548	0.116876	-0.234	-0.0555	0.0795	0	233	269	3
2026-02-12	15:29:30.430	-114.66	60.83	-58.835	0.811544	0.26596	0.109068	-0.228	-0.0495	0.066	0	233	269	3
2026-02-12	15:29:30.450	-102.235	50.54	-49.98	0.803736	0.250832	0.109068	-0.222	-0.0435	0.0555	0	233	269	3
2026-02-12	15:29:30.470	-84.98	39.34	-42.42	0.765916	0.230336	0.086132	-0.2175	-0.0375	0.0495	0	233	269	3
2026-02-12	15:29:30.490	-66.5	26.565	-35.945	0.698816	0.21228	0.069052	-0.213	-0.03	0.0375	0	233	269	3
2026-02-12	15:29:30.510	-51.975	10.955	-30.17	0.665388	0.221552	0.073932	-0.2055	-0.03	0.036	0	233	269	3
2026-02-12	15:29:30.530	-49.735	-6.335	-22.995	0.69052	0.2135	0.16226	-0.2085	-0.033	0.036	0	233	269	3
2026-02-12	15:29:30.550	-60.515	-20.72	-13.02	0.791048	0.199836	0.269376	-0.21	-0.0285	0.0345	0	233	269	3
2026-02-12	15:29:30.570	-78.995	-29.085	0.595	0.932324	0.211792	0.30622	-0.2085	-0.0225	0.0375	0	233	269	3
2026-02-12	15:29:30.590	-92.645	-35.875	16.03	0.977952	0.18178	0.2257	-0.207	-0.0165	0.0405	0	233	269	3
2026-02-12	15:29:30.610	-86.135	-49	27.51	0.979904	0.162992	0.164944	-0.21	-0.0045	0.0435	0	236	243	2
2026-02-12	15:29:30.630	-71.645	-67.445	37.45	0.925492	0.11224	0.20618	-0.213	0.0075	0.048	0	236	243	2
2026-02-12	15:29:30.650	-60.41	-82.285	43.19	0.795684	0.04148	0.210572	-0.21	0.0135	0.0525	0	236	243	2
2026-02-12	15:29:30.670	-52.395	-97.58	44.24	0.775432	0.047336	0.211304	-0.2415	0.036	0.0675	0	236	243	2
2026-02-12	15:29:30.690	-46.55	-113.155	44.135	0.851316	0.060268	0.307928	-0.2535	0.039	0.0765	0	236	243	2
2026-02-12	15:29:30.710	-51.835	-120.015	45.115	0.898164	0.060024	0.47458	-0.255	0.054	0.0915	0	236	243	2
2026-02-12	15:29:30.730	-70.91	-116.34	46.62	0.858148	0.054412	0.499712	-0.2505	0.057	0.099	0	236	243	2
2026-02-12	15:29:30.750	-76.3	-111.65	45.36	0.772504	-0.020984	0.39894	-0.255	0.0675	0.1155	0	236	243	2
2026-02-12	15:29:30.770	-52.36	-112.63	43.155	0.75152	-0.0427	0.312808	-0.267	0.0825	0.1335	0	236	243	2
2026-02-12	15:29:30.790	-23.905	-115.745	45.36	0.832528	-0.045872	0.387472	-0.2715	0.09	0.153	0	236	243	2
2026-02-12	15:29:30.810	-14.14	-110.775	52.5	0.900604	-0.067832	0.441884	-0.2745	0.0945	0.1695	0	239	233	2
2026-02-12	15:29:30.830	0.84	-103.18	56.7	0.922076	-0.050752	0.396744	-0.2835	0.1005	0.186	0	239	233	2
2026-02-12	15:29:30.850	32.9	-99.295	55.58	0.945988	-0.07442	0.3294	-0.2895	0.105	0.2055	0	239	233	2
2026-02-12	15:29:30.870	72.1	-99.505	55.79	0.981856	-0.023912	0.30256	-0.2895	0.1125	0.216	0	239	233	2
2026-02-12	15:29:30.890	95.025	-102.445	58.66	1.042124	0.032208	0.362096	-0.2925	0.123	0.2235	0	239	233	2
2026-02-12	15:29:30.910	100.555	-102.165	62.545	1.106052	0.06588	0.472384	-0.294	0.126	0.2385	0	239	233	2
2026-02-12	15:29:30.930	103.495	-97.825	62.86	1.119228	0.101992	0.529236	-0.294	0.126	0.2475	0	239	233	2
2026-02-12	15:29:30.950	101.535	-92.715	59.78	1.073844	0.119804	0.504836	-0.2925	0.138	0.27	0	239	233	2
2026-02-12	15:29:30.970	92.225	-89.845	55.965	1.026264	0.15982	0.505812	-0.2925	0.1515	0.273	0	239	233	2
2026-02-12	15:29:30.990	60.795	-89.18	53.97	1.00894	0.137372	0.551928	-0.3	0.1485	0.2775	0	239	233	2
2026-02-12	15:29:31.010	22.12	-89.635	51.205	1.04554	0.158112	0.593652	-0.288	0.162	0.2955	0	241	256	2
2026-02-12	15:29:31.030	-15.47	-87.605	47.985	1.096536	0.120292	0.624884	-0.285	0.1695	0.3075	0	241	256	2
2026-02-12	15:29:31.050	-42.21	-81.795	45.045	1.120692	0.08662	0.599752	-0.291	0.1755	0.3165	0	241	256	2
2026-02-12	15:29:31.070	-56.77	-75.74	43.19	1.213412	0.053436	0.536312	-0.2835	0.1905	0.3195	0	241	256	2
2026-02-12	15:29:31.090	-54.775	-66.395	42.665	1.248792	0.011956	0.458964	-0.2745	0.1845	0.3495	0	241	256	2
2026-02-12	15:29:31.110	-35.91	-56.7	41.055	1.325896	0	0.379664	-0.2775	0.1965	0.3555	0	241	256	2
2026-02-12	15:29:31.130	-14.42	-47.25	40.04	1.3908	0.004392	0.379176	-0.27	0.1935	0.36	0	241	256	2
2026-02-12	15:29:31.150	5.32	-29.89	35.63	1.229516	0.027572	0.392352	-0.267	0.204	0.378	0	241	256	2
2026-02-12	15:29:31.170	24.465	-12.46	23.485	1.037732	0.10126	0.37088	-0.2655	0.21	0.381	0	241	256	2
2026-02-12	15:29:31.190	31.43	2.205	2.135	0.903776	0.123952	0.33672	-0.2655	0.204	0.3735	0	241	256	2
2026-02-12	15:29:31.210	25.27	11.445	-17.71	0.886696	0.110288	0.329644	-0.2685	0.2085	0.3705	0	242	301	3
2026-02-12	15:29:31.230	18.095	18.025	-31.08	0.927932	0.10736	0.346236	-0.2685	0.213	0.369	0	242	301	3
2026-02-12	15:29:31.250	16.87	26.355	-41.93	0.975512	0.151036	0.350384	-0.2625	0.21	0.369	0	242	301	3
2026-02-12	15:29:31.270	12.6	35.42	-48.86	1.067256	0.19032	0.364048	-0.27	0.2025	0.3645	0	242	301	3
2026-02-12	15:29:31.290	3.465	47.6	-51.73	1.120936	0.20862	0.338428	-0.2805	0.1995	0.36	0	242	301	3
2026-02-12	15:29:31.310	-0.035	60.27	-54.11	1.136796	0.222528	0.266692	-0.2835	0.201	0.36	0	242	301	3
2026-02-12	15:29:31.330	4.515	70.175	-58.38	1.124596	0.248148	0.230336	-0.2835	0.198	0.354	0	242	301	3
2026-02-12	15:29:31.350	7.035	77.455	-64.715	1.13704	0.2684	0.26474	-0.2835	0.183	0.3375	0	242	301	3
2026-02-12	15:29:31.370	4.83	84.665	-71.05	1.156804	0.253272	0.2684	-0.2925	0.1785	0.33	0	242	301	3
2026-02-12	15:29:31.390	6.09	91.315	-77.735	1.17364	0.267668	0.25864	-0.306	0.1605	0.3015	0	242	301	3
2026-02-12	15:29:31.410	8.4	96.005	-84.875	1.195844	0.297192	0.260836	-0.312	0.1545	0.2955	0	242	332	3
2026-02-12	15:29:31.430	7.35	99.435	-91.77	1.195356	0.314516	0.269864	-0.315	0.147	0.2835	0	242	332	3
2026-02-12	15:29:31.450	3.955	101.5	-97.615	1.203408	0.328424	0.27938	-0.312	0.129	0.2685	0	242	332	3
2026-02-12	15:29:31.470	-3.99	103.355	-103.46	1.235372	0.343308	0.282552	-0.3105	0.108	0.255	0	242	332	3
2026-02-12	15:29:31.490	-12.285	103.845	-105.56	1.226832	0.33428	0.27694	-0.3105	0.0945	0.2415	0	242	332	3
2026-02-12	15:29:31.510	-18.865	102.935	-106.645	1.20902	0.313784	0.267668	-0.3075	0.0765	0.2205	0	242	332	3
2026-02-12	15:29:31.530	-22.61	100.31	-106.295	1.173396	0.31598	0.24278	-0.3075	0.0645	0.204	0	242	332	3
2026-02-12	15:29:31.550	-26.285	95.375	-104.475	1.109468	0.305244	0.2135	-0.3075	0.0525	0.1845	0	242	332	3
2026-02-12	15:29:31.570	-30.765	88.095	-100.905	1.05896	0.30378	0.184952	-0.3015	0.042	0.174	0	242	332	3
2026-02-12	15:29:31.590	-35.56	79.31	-96.005	1.004792	0.287432	0.163968	-0.3015	0.0255	0.162	0	242	332	3
2026-02-12	15:29:31.610	-40.635	69.93	-89.705	0.945744	0.273036	0.158356	-0.3	0.0165	0.1485	0	239	334	3
2026-02-12	15:29:31.630	-47.635	61.145	-81.76	0.905728	0.237412	0.186416	-0.297	0.0105	0.144	0	239	334	3
2026-02-12	15:29:31.650	-50.645	54.74	-72.625	0.887184	0.20252	0.206668	-0.2925	-0.0015	0.135	0	239	334	3
2026-02-12	15:29:31.670	-49.14	50.26	-63.245	0.839604	0.20008	0.180804	-0.2805	-0.0105	0.126	0	239	334	3
2026-02-12	15:29:31.690	-45.815	44.205	-54.18	0.769088	0.187392	0.1342	-0.273	-0.0165	0.1215	0	239	334	3
2026-02-12	15:29:31.710	-43.26	35.455	-45.745	0.706624	0.182512	0.10858	-0.2715	-0.018	0.114	0	239	334	3
2026-02-12	15:29:31.730	-43.715	24.395	-38.325	0.706624	0.149816	0.137372	-0.27	-0.018	0.105	0	239	334	3
2026-02-12	15:29:31.750	-56.665	11.06	-26.32	0.723216	0.123464	0.219356	-0.2685	-0.0225	0.102	0	239	334	3
2026-02-12	15:29:31.770	-70.49	6.51	-16.555	0.735172	0.091012	0.208376	-0.2685	-0.0225	0.102	0	239	334	3
2026-02-12	15:29:31.790	-77.525	-1.75	-6.37	0.794952	0.05246	0.164944	-0.2595	-0.0165	0.096	0	239	334	3
2026-02-12	15:29:31.810	-74.305	-16.59	6.3	0.919148	0.013908	0.154696	-0.258	-0.0105	0.1035	0	236	311	3
2026-02-12	15:29:31.830	-60.34	-31.92	22.015	0.977708	0.005612	0.183732	-0.2655	-0.009	0.1005	0	236	311	3
2026-02-12	15:29:31.850	-42.7	-43.855	36.89	0.959652	0.00976	0.200568	-0.261	-0.003	0.1035	0	236	311	3
2026-02-12	15:29:31.870	-23.275	-56.91	48.195	0.942328	-0.028548	0.1952	-0.2625	0.0105	0.108	0	236	311	3
2026-02-12	15:29:31.890	-1.435	-72.73	57.96	0.950868	-0.07564	0.226432	-0.267	0.0135	0.108	0	236	311	3
2026-02-12	15:29:31.910	18.795	-86.975	68.95	0.985516	-0.09394	0.294996	-0.2745	0.0225	0.1185	0	236	311	3
2026-02-12	15:29:31.930	36.785	-98.07	81.235	0.994544	-0.059048	0.310612	-0.279	0.0315	0.135	0	236	311	3
2026-02-12	15:29:31.950	41.615	-108.15	91.63	0.99552	0.023912	0.326472	-0.2835	0.0345	0.147	0	236	311	3
2026-02-12	15:29:31.970	34.055	-115.955	97.965	0.991616	0.038308	0.366488	-0.2925	0.0405	0.162	0	236	311	3
2026-02-12	15:29:31.990	28.21	-119.7	101.57	0.974048	0.034404	0.426512	-0.2955	0.057	0.1785	0	236	311	3
2026-02-12	15:29:32.010	21.28	-118.335	106.12	1.023824	0.010736	0.466772	-0.2925	0.069	0.189	0	233	287	3
2026-02-12	15:29:32.030	18.305	-110.04	107.38	0.930616	0.002684	0.435784	-0.2925	0.069	0.189	0	233	287	3
2026-02-12	15:29:32.050	12.635	-105.595	103.25	0.871324	0.032452	0.412848	-0.2955	0.1005	0.2415	0	233	287	3
2026-02-12	15:29:32.070	-0.665	-106.225	97.195	0.946232	0.093208	0.391132	-0.3	0.117	0.255	0	233	287	3
2026-02-12	15:29:32.090	-12.915	-107.52	92.05	1.022604	0.108092	0.362096	-0.291	0.1245	0.2625	0	233	287	3
2026-02-12	15:29:32.110	-19.215	-108.955	86.45	1.04676	0.10248	0.345992	-0.2955	0.1425	0.291	0	233	287	3
2026-02-12	15:29:32.130	-25.235	-111.825	79.31	1.03334	0.093696	0.351116	-0.2955	0.1545	0.297	0	233	287	3
2026-02-12	15:29:32.150	-37.59	-113.575	72.065	1.009184	0.045384	0.409188	-0.291	0.1665	0.3195	0	233	287	3
2026-02-12	15:29:32.170	-40.285	-115.36	64.26	1.053348	0.014884	0.399916	-0.2895	0.183	0.3375	0	233	287	3
2026-02-12	15:29:32.190	-31.675	-120.505	56.21	1.114836	0.023424	0.426024	-0.2865	0.186	0.351	0	233	287	3
2026-02-12	15:29:32.210	-28.42	-124.11	50.225	1.123864	0.059292	0.495808	-0.2745	0.192	0.378	0	229	289	3
2026-02-12	15:29:32.230	-36.61	-125.265	43.75	1.111176	0.099796	0.533628	-0.273	0.2055	0.3975	0	229	289	3
2026-02-12	15:29:32.250	-61.81	-125.195	39.2	1.1224	0.141764	0.613172	-0.27	0.201	0.405	0	229	289	3
2026-02-12	15:29:32.270	-104.09	-119.595	36.575	1.159	0.113216	0.656848	-0.255	0.2115	0.4275	0	229	289	3
2026-02-12	15:29:32.290	-144.2	-105.63	30.975	1.209996	0.103456	0.613172	-0.2535	0.2115	0.4545	0	229	289	3
2026-02-12	15:29:32.310	-165.445	-84.98	23.275	1.18584	0.08906	0.548024	-0.2445	0.204	0.474	0	229	289	3
2026-02-12	15:29:32.330	-177.94	-66.43	16.765	1.190964	0.086132	0.517036	-0.2385	0.1995	0.489	0	229	289	3
2026-02-12	15:29:32.350	-192.01	-45.78	12.39	1.207068	0.058072	0.494588	-0.2295	0.189	0.516	0	229	289	3
2026-02-12	15:29:32.370	-201.425	-23.03	10.71	1.20048	0.005124	0.49532	-0.2265	0.1755	0.5325	0	229	289	3
2026-02-12	15:29:32.390	-207.445	1.75	13.405	1.22122	-0.03538	0.496296	-0.228	0.1605	0.5475	0	229	289	3
2026-02-12	15:29:32.410	-205.065	27.86	20.055	1.245132	-0.085888	0.445788	-0.231	0.1425	0.5565	0	225	321	3
2026-02-12	15:29:32.430	-188.51	54.215	28.28	1.2383	-0.11712	0.333792	-0.2325	0.129	0.5565	0	225	321	3
2026-02-12	15:29:32.450	-158.9	77	35.805	1.222196	-0.103944	0.209352	-0.234	0.126	0.5595	0	225	321	3
2026-02-12	15:29:32.470	-124.18	94.605	40.915	1.21512	-0.066612	0.119072	-0.2355	0.1215	0.558	0	225	321	3
2026-02-12	15:29:32.490	-84.455	107.695	43.26	1.196088	-0.0488	0.072468	-0.2385	0.1155	0.546	0	225	321	3
2026-02-12	15:29:32.510	-39.48	116.725	40.565	1.192428	-0.000488	0.069296	-0.246	0.108	0.5265	0	225	321	3
2026-02-12	15:29:32.530	8.61	125.58	32.9	1.160952	0.013908	0.10736	-0.2475	0.111	0.516	0	225	321	3
2026-02-12	15:29:32.550	53.97	132.405	19.88	1.141676	0.030744	0.130784	-0.255	0.108	0.501	0	225	321	3
2026-02-12	15:29:32.570	107.485	137.515	-0.665	1.210972	0.06588	0.176168	-0.2625	0.1215	0.489	0	225	321	3
2026-02-12	15:29:32.590	156.695	144.83	-21.455	1.248548	0.131272	0.196176	-0.2625	0.1215	0.489	0	225	321	3
2026-02-12	15:29:32.610	185.605	148.785	-38.64	1.311988	0.224968	0.194712	-0.273	0.1275	0.453	0	222	339	3
2026-02-12	15:29:32.630	187.6	148.085	-53.2	1.503772	0.322568	0.149816	-0.282	0.135	0.402	0	222	339	3
2026-02-12	15:29:32.650	167.79	145.985	-62.965	1.610156	0.339404	0.085644	-0.2835	0.138	0.375	0	222	339	3
2026-02-12	15:29:32.670	140.56	142.975	-68.67	1.54452	0.325984	0.031232	-0.288	0.129	0.357	0	222	339	3
2026-02-12	15:29:32.690	98.42	137.865	-72.31	1.486692	0.341112	0.000244	-0.294	0.1215	0.3345	0	222	339	3
2026-02-12	15:29:32.710	40.705	132.685	-75.075	1.373232	0.33672	-0.032696	-0.3	0.117	0.3075	0	222	339	3
2026-02-12	15:29:32.730	-14.735	126.175	-82.39	1.293932	0.308904	-0.029036	-0.3015	0.1035	0.2925	0	222	339	3
2026-02-12	15:29:32.750	-67.795	117.355	-91.945	1.31394	0.26962	0.003904	-0.303	0.0885	0.2805	0	222	339	3
2026-02-12	15:29:32.770	-109.865	113.295	-99.75	1.3176	0.196664	0.020496	-0.303	0.075	0.2625	0	222	339	3
2026-02-12	15:29:32.790	-128.835	113.12	-107.59	1.327848	0.093696	-0.012444	-0.303	0.066	0.2475	0	222	339	3
2026-02-12	15:29:32.810	-113.54	113.19	-115.08	1.280268	-0.091744	-0.096868	-0.3015	0.0555	0.234	0	223	312	3
2026-02-12	15:29:32.830	-69.335	107.94	-119.665	1.132892	-0.146888	-0.117364	-0.2955	0.045	0.2145	0	223	312	3
2026-02-12	15:29:32.850	-6.93	87.325	-123.48	1.008208	-0.107116	-0.061732	-0.2925	0.03	0.195	0	223	312	3
2026-02-12	15:29:32.870	24.255	72.205	-124.215	0.966728	-0.0366	-0.018056	-0.2925	0.0165	0.1905	0	223	312	3
2026-02-12	15:29:32.890	48.125	57.19	-125.02	0.932812	0.023668	0.013664	-0.285	-0.0105	0.1755	0	223	312	3
2026-02-12	15:29:32.910	57.925	42.175	-123.9	0.879132	0.009028	0.055388	-0.2775	-0.0315	0.171	0	223	312	3
2026-02-12	15:29:32.930	51.415	28.21	-117.32	0.829844	-0.036844	0.095892	-0.279	-0.057	0.1605	0	223	312	3
2026-02-12	15:29:32.950	37.1	17.605	-103.53	0.755668	-0.078812	0.08906	-0.264	-0.072	0.159	0	223	312	3
2026-02-12	15:29:32.970	14.56	6.65	-87.71	0.660752	-0.06466	0.111264	-0.27	-0.0855	0.159	0	223	312	3
2026-02-12	15:29:32.990	-17.535	-5.705	-72.59	0.630252	-0.028304	0.224724	-0.264	-0.0945	0.1605	0	223	312	3
2026-02-12	15:29:33.010	-68.075	-12.495	-55.44	0.663192	0.005368	0.342088	-0.2595	-0.1095	0.147	0	229	254	3
2026-02-12	15:29:33.030	-119.42	-12.32	-35.385	0.7442	-0.034892	0.314272	-0.2535	-0.1005	0.159	0	229	254	3
2026-02-12	15:29:33.050	-133.7	-15.4	-12.985	0.810568	-0.083692	0.190564	-0.2595	-0.1065	0.1545	0	229	254	3
2026-02-12	15:29:33.070	-115.325	-29.015	11.55	0.796172	-0.121512	0.127368	-0.261	-0.1035	0.147	0	229	254	3
2026-02-12	15:29:33.090	-79.8	-48.23	36.05	0.766404	-0.187636	0.122488	-0.261	-0.096	0.144	0	229	254	3
2026-02-12	15:29:33.110	-17.605	-76.125	73.605	0.844484	-0.230336	0.204472	-0.2655	-0.099	0.144	0	229	254	3
2026-02-12	15:29:33.130	24.185	-88.06	98.77	0.894504	-0.18788	0.258396	-0.2655	-0.099	0.144	0	229	254	3
2026-02-12	15:29:33.150	74.795	-98.07	117.075	0.927688	-0.079544	0.31964	-0.279	-0.06	0.168	0	229	254	3
2026-02-12	15:29:33.170	113.575	-107.345	128.45	0.974292	0.08418	0.389668	-0.285	-0.048	0.18	0	229	254	3
2026-02-12	15:29:33.190	132.02	-111.895	135.135	0.940864	0.157868	0.42334	-0.2955	-0.027	0.213	0	229	254	3
2026-02-12	15:29:33.210	143.115	-113.82	139.335	0.9272	0.154208	0.450424	-0.3	-0.027	0.228	0	239	216	2
2026-02-12	15:29:33.230	148.61	-113.155	144.095	0.950868	0.160308	0.444568	-0.306	-0.006	0.246	0	239	216	2
2026-02-12	15:29:33.250	154.7	-112.105	146.65	0.997472	0.170068	0.385032	-0.303	0.006	0.2625	0	239	216	2
2026-02-12	15:29:33.270	169.995	-112.245	148.365	1.03944	0.174948	0.317688	-0.3165	0.036	0.273	0	239	216	2
2026-02-12	15:29:33.290	189.595	-112.735	152.39	1.120936	0.232532	0.270596	-0.3045	0.051	0.291	0	239	216	2
2026-02-12	15:29:33.310	202.23	-112.455	155.96	1.240252	0.361364	0.264496	-0.3135	0.0735	0.309	0	239	216	2
2026-02-12	15:29:33.330	206.885	-109.06	153.93	1.2383	0.445544	0.294508	-0.3	0.099	0.321	0	239	216	2
2026-02-12	15:29:33.350	186.06	-103.67	144.375	1.177788	0.5185	0.398452	-0.297	0.1245	0.339	0	239	216	2
2026-02-12	15:29:33.370	132.44	-97.965	135.135	1.14802	0.539484	0.592432	-0.291	0.144	0.339	0	239	216	2
2026-02-12	15:29:33.390	45.815	-87.36	124.425	1.13216	0.408944	0.660752	-0.279	0.171	0.3465	0	239	216	2
2026-02-12	15:29:33.410	-21.98	-75.635	108.115	1.073356	0.358436	0.529724	-0.267	0.1875	0.3585	0	249	223	3
2026-02-12	15:29:33.430	-66.78	-67.97	89.39	1.018944	0.300852	0.4209	-0.258	0.201	0.3705	0	249	223	3
2026-02-12	15:29:33.450	-83.965	-64.435	70.21	1.045296	0.30378	0.396256	-0.2505	0.2115	0.384	0	249	223	3
2026-02-12	15:29:33.470	-83.055	-61.845	49.7	1.145092	0.241804	0.432612	-0.2445	0.2205	0.3975	0	249	223	3
2026-02-12	15:29:33.490	-65.24	-53.27	30.03	1.2505	0.145424	0.429684	-0.2445	0.228	0.4125	0	249	223	3
2026-02-12	15:29:33.510	-31.955	-40.18	11.41	1.334436	0.084912	0.406016	-0.2385	0.2325	0.423	0	249	223	3
2026-02-12	15:29:33.530	3.92	-24.01	-4.69	1.308328	0.040992	0.40016	-0.2265	0.234	0.429	0	249	223	3
2026-02-12	15:29:33.550	39.725	-7.14	-20.475	1.230492	0.011956	0.443836	-0.2325	0.2295	0.435	0	249	223	3
2026-02-12	15:29:33.570	74.27	8.435	-34.615	1.173396	0.010248	0.444568	-0.2385	0.228	0.4305	0	249	223	3
2026-02-12	15:29:33.590	120.05	27.09	-52.36	1.067256	0.09028	0.400648	-0.2355	0.231	0.426	0	249	223	3
2026-02-12	15:29:33.610	136.92	34.93	-61.985	1.007232	0.152988	0.417972	-0.2415	0.2265	0.414	0	258	262	3
2026-02-12	15:29:33.630	135.905	42.595	-69.685	0.999424	0.195688	0.48434	-0.2535	0.2205	0.3975	0	258	262	3
2026-02-12	15:29:33.650	132.44	52.15	-78.54	1.003816	0.20374	0.47214	-0.2595	0.216	0.387	0	258	262	3
2026-02-12	15:29:33.670	136.045	59.99	-88.865	1.004792	0.233996	0.394792	-0.2595	0.21	0.3675	0	258	262	3
2026-02-12	15:29:33.690	134.995	62.37	-98.77	1.047492	0.304512	0.357216	-0.264	0.204	0.354	0	258	262	3
2026-02-12	15:29:33.710	121.1	62.58	-105.63	1.092388	0.376248	0.378688	-0.2715	0.1965	0.3435	0	258	262	3
2026-02-12	15:29:33.730	89.775	63.35	-110.46	1.170712	0.467992	0.436516	-0.2745	0.1845	0.333	0	258	262	3
2026-02-12	15:29:33.750	51.73	67.55	-115.325	1.199748	0.436272	0.41846	-0.2835	0.1665	0.321	0	258	262	3
2026-02-12	15:29:33.770	30.24	72.52	-120.61	1.173152	0.396988	0.38186	-0.2955	0.1515	0.309	0	258	262	3
2026-02-12	15:29:33.790	17.675	75.25	-124.53	1.169736	0.377956	0.372344	-0.294	0.1395	0.297	0	258	262	3
2026-02-12	15:29:33.810	16.345	77.98	-128.52	1.166076	0.409188	0.352824	-0.2985	0.12	0.288	0	264	306	3
2026-02-12	15:29:33.830	20.055	79.03	-133.84	1.111908	0.411872	0.29402	-0.3075	0.108	0.285	0	264	306	3
2026-02-12	15:29:33.850	16.835	75.775	-135.135	1.071404	0.434076	0.292556	-0.309	0.066	0.255	0	264	306	3
2026-02-12	15:29:33.870	9.975	72.17	-134.96	1.046028	0.454084	0.29646	-0.315	0.048	0.246	0	264	306	3
2026-02-12	15:29:33.890	-4.97	68.95	-131.705	1.017968	0.466528	0.286212	-0.3165	0.03	0.2325	0	264	306	3
2026-02-12	15:29:33.910	-25.865	65.59	-126.245	0.983808	0.4575	0.260104	-0.309	0.003	0.228	0	264	306	3
2026-02-12	15:29:33.930	-47.215	61.81	-118.86	0.94916	0.43188	0.253516	-0.312	-0.015	0.213	0	264	306	3
2026-02-12	15:29:33.950	-63.28	58.625	-109.62	0.924028	0.402844	0.253516	-0.3075	-0.03	0.2025	0	264	306	3
2026-02-12	15:29:33.970	-75.355	56.63	-98.84	0.905484	0.377956	0.245708	-0.306	-0.0495	0.1965	0	264	306	3
2026-02-12	15:29:33.990	-83.23	55.86	-87.955	0.85766	0.33184	0.208864	-0.291	-0.06	0.18	0	264	306	3
2026-02-12	15:29:34.010	-82.74	52.745	-74.725	0.81496	0.287676	0.1525	-0.291	-0.06	0.18	0	265	329	3
2026-02-12	15:29:34.030	-81.13	48.125	-66.57	0.828624	0.27694	0.144936	-0.288	-0.0675	0.1605	0	265	329	3
2026-02-12	15:29:34.050	-80.64	41.86	-54.81	0.832528	0.25742	0.135176	-0.2775	-0.078	0.1485	0	265	329	3
2026-02-12	15:29:34.070	-83.825	30.66	-35.56	0.81374	0.221064	0.111508	-0.2715	-0.075	0.1425	0	265	329	3
2026-02-12	15:29:34.090	-84.42	19.04	-22.225	0.833504	0.197884	0.113704	-0.27	-0.0765	0.1305	0	265	329	3
2026-02-12	15:29:34.110	-84.665	7.315	-8.47	0.867908	0.178608	0.138104	-0.2625	-0.0795	0.1215	0	265	329	3
2026-02-12	15:29:34.130	-84	-1.155	4.48	0.89182	0.149816	0.1525	-0.258	-0.0795	0.126	0	265	329	3
2026-02-12	15:29:34.150	-77.805	-8.505	17.22	0.90768	0.103456	0.135908	-0.264	-0.0735	0.126	0	265	329	3
2026-02-12	15:29:34.170	-62.09	-18.2	30.87	0.9577	0.084424	0.102968	-0.2655	-0.0645	0.1245	0	265	329	3
2026-02-12	15:29:34.190	-40.32	-31.64	45.605	1.055544	0.071004	0.089792	-0.264	-0.0555	0.12	0	265	329	3
2026-02-12	15:29:34.210	-19.285	-46.34	62.195	1.03578	0.091744	0.120048	-0.2655	-0.054	0.1155	0	263	316	3
2026-02-12	15:29:34.230	-3.325	-59.955	73.605	0.911096	0.095892	0.177388	-0.2715	-0.042	0.1245	0	263	316	3
2026-02-12	15:29:34.250	6.02	-72.835	77.665	0.891576	0.06954	0.298168	-0.276	-0.021	0.1335	0	263	316	3
2026-02-12	15:29:34.270	3.605	-79.8	81.55	0.915244	0.04392	0.3782	-0.285	-0.0255	0.135	0	263	316	3
2026-02-12	15:29:34.290	-0.525	-85.295	86.1	0.938912	0.028304	0.35746	-0.282	-0.0075	0.1455	0	263	316	3
2026-02-12	15:29:34.310	-0.91	-91.945	88.97	0.975756	0.05246	0.272792	-0.291	-0.0045	0.1665	0	263	316	3
2026-02-12	15:29:34.330	-2.17	-102.865	89.075	0.996496	0.079788	0.183732	-0.2955	0.0195	0.171	0	263	316	3
2026-02-12	15:29:34.350	-9.38	-116.27	89.005	1.008208	0.078324	0.171532	-0.2955	0.0195	0.171	0	263	316	3
2026-02-12	15:29:34.370	-10.255	-126.245	89.705	1.040172	0.071492	0.209352	-0.303	0.0375	0.1995	0	263	316	3
2026-02-12	15:29:34.390	-8.365	-132.79	91.665	1.094584	0.064416	0.262788	-0.309	0.063	0.234	0	263	316	3
2026-02-12	15:29:34.410	5.95	-134.575	91.84	1.150704	0.016104	0.275964	-0.3075	0.0765	0.2535	0	258	290	2
2026-02-12	15:29:34.430	25.515	-131.32	91.56	1.074332	0.142496	0.260104	-0.306	0.09	0.273	0	258	290	2
2026-02-12	15:29:34.450	3.71	-132.93	94.64	1.080432	0.171288	0.235216	-0.3075	0.1005	0.291	0	258	290	2
2026-02-12	15:29:34.470	-22.61	-135.1	96.355	1.152168	0.17934	0.24888	-0.309	0.114	0.3105	0	258	290	2
2026-02-12	15:29:34.490	-32.165	-134.575	90.475	1.160952	0.116388	0.291336	-0.3015	0.129	0.3315	0	258	290	2
2026-02-12	15:29:34.510	-27.125	-133.035	79.625	1.134112	0.055388	0.337696	-0.294	0.1395	0.3525	0	258	290	2
2026-02-12	15:29:34.530	-17.29	-128.24	68.25	1.099952	0.030012	0.383568	-0.2895	0.1515	0.3765	0	258	290	2
2026-02-12	15:29:34.550	-8.82	-120.96	57.96	1.071404	0.057828	0.39528	-0.2865	0.165	0.3975	0	258	290	2
2026-02-12	15:29:34.570	-8.54	-114.03	48.755	1.063108	0.07564	0.397476	-0.2805	0.1725	0.4185	0	258	290	2
2026-02-12	15:29:34.590	-10.395	-107.31	40.845	1.050664	0.063196	0.415776	-0.273	0.1785	0.4335	0	258	290	2
2026-02-12	15:29:34.610	-9.73	-97.195	34.58	1.05896	0.027572	0.453108	-0.2655	0.1845	0.4395	0	251	277	3
2026-02-12	15:29:34.630	-0.805	-85.33	30.415	1.037732	0.002196	0.432124	-0.264	0.1905	0.447	0	251	277	3
2026-02-12	15:29:34.650	12.95	-76.195	27.195	0.985272	0.00122	0.413092	-0.252	0.192	0.474	0	251	277	3
2026-02-12	15:29:34.670	20.615	-68.46	23.415	0.97478	0.017812	0.41236	-0.2445	0.204	0.486	0	251	277	3
2026-02-12	15:29:34.690	19.215	-61.075	19.67	0.984296	0.0061	0.4087	-0.2325	0.2025	0.483	0	251	277	3
2026-02-12	15:29:34.710	14.77	-54.6	16.17	1.084092	-0.02562	0.377956	-0.2295	0.207	0.495	0	251	277	3
2026-02-12	15:29:34.730	17.465	-48.72	13.72	1.27978	-0.061488	0.353556	-0.225	0.2055	0.4965	0	251	277	3
2026-02-12	15:29:34.750	28.63	-37.03	12.215	1.30052	-0.04636	0.374784	-0.219	0.204	0.5115	0	251	277	3
2026-02-12	15:29:34.770	36.995	-21.665	8.47	1.18096	-0.013664	0.400648	-0.2235	0.219	0.5055	0	251	277	3
2026-02-12	15:29:34.790	39.305	-7.595	1.715	1.082872	0.026596	0.367464	-0.2205	0.2175	0.5025	0	251	277	3
2026-02-12	15:29:34.810	40.005	6.23	-7.49	1.007232	0.030744	0.338916	-0.2175	0.2205	0.501	0	243	287	3
2026-02-12	15:29:34.830	40.285	20.51	-18.375	0.974292	0.023424	0.343064	-0.2205	0.222	0.4995	0	243	287	3
2026-02-12	15:29:34.850	34.72	32.27	-27.755	1.035048	0.009028	0.361608	-0.225	0.2175	0.4965	0	243	287	3
2026-02-12	15:29:34.870	25.97	45.815	-33.6	1.148264	0.009272	0.36112	-0.225	0.2175	0.4905	0	243	287	3
2026-02-12	15:29:34.890	32.865	75.705	-43.05	1.275144	0.071492	0.22692	-0.225	0.2205	0.4845	0	243	287	3
2026-02-12	15:29:34.910	43.33	96.495	-52.955	1.24806	0.114436	0.139324	-0.225	0.2205	0.4845	0	243	287	3
2026-02-12	15:29:34.930	44.905	112.56	-64.225	1.204384	0.114924	0.141276	-0.2475	0.2175	0.45	0	243	287	3
2026-02-12	15:29:34.950	42.28	124.845	-77.385	1.297348	0.088816	0.15006	-0.2655	0.2055	0.423	0	243	287	3
2026-02-12	15:29:34.970	48.72	138.39	-92.89	1.277828	0.12078	0.133468	-0.2745	0.198	0.405	0	243	287	3
2026-02-12	15:29:34.990	52.57	144.865	-109.375	1.220732	0.138592	0.14884	-0.2865	0.186	0.381	0	243	287	3
2026-02-12	15:29:35.010	51.45	143.71	-122.78	1.212924	0.162016	0.192028	-0.2895	0.174	0.3585	0	233	299	3
2026-02-12	15:29:35.030	40.04	140.07	-129.815	1.35054	0.214232	0.263276	-0.294	0.159	0.3315	0	233	299	3
2026-02-12	15:29:35.050	23.975	140.385	-130.27	1.351516	0.236436	0.264496	-0.3075	0.153	0.3135	0	233	299	3
2026-02-12	15:29:35.070	9.24	138.915	-128.275	1.2749	0.231312	0.233508	-0.306	0.132	0.285	0	233	299	3
2026-02-12	15:29:35.090	-5.145	132.79	-123.9	1.213412	0.24522	0.168116	-0.3135	0.1095	0.261	0	233	299	3
2026-02-12	15:29:35.110	-27.72	120.575	-115.08	1.291736	0.234484	0.141032	-0.3075	0.0915	0.2325	0	233	299	3
2026-02-12	15:29:35.130	-46.165	111.615	-104.055	1.240984	0.258884	0.124684	-0.3225	0.0795	0.2145	0	233	299	3
2026-02-12	15:29:35.150	-51.205	102.865	-97.72	1.167784	0.335256	0.131516	-0.315	0.0795	0.1995	0	233	299	3
2026-02-12	15:29:35.170	-53.515	85.4	-89.845	1.192428	0.378932	0.158844	-0.3225	0.057	0.1755	0	233	299	3
2026-02-12	15:29:35.190	-59.43	76.125	-80.535	1.191452	0.344284	0.165676	-0.318	0.054	0.162	0	233	299	3
2026-02-12	15:29:35.210	-65.695	69.51	-69.825	1.076528	0.263032	0.143472	-0.312	0.0495	0.147	0	225	290	3
2026-02-12	15:29:35.230	-66.01	61.39	-59.675	0.965996	0.216672	0.123952	-0.3105	0.042	0.1395	0	225	290	3
2026-02-12	15:29:35.250	-63.455	52.64	-50.365	0.89548	0.219356	0.1159	-0.306	0.042	0.126	0	225	290	3
2026-02-12	15:29:35.270	-59.185	43.89	-41.405	0.865956	0.206424	0.091256	-0.303	0.048	0.1185	0	225	290	3
2026-02-12	15:29:35.290	-49.525	36.015	-33.285	0.791048	0.184464	0.058804	-0.3015	0.045	0.117	0	225	290	3
2026-02-12	15:29:35.310	-36.715	26.915	-25.97	0.730048	0.159332	0.027084	-0.2985	0.042	0.114	0	225	290	3
2026-02-12	15:29:35.330	-20.37	17.605	-19.39	0.699548	0.152744	-0.018056	-0.2985	0.0495	0.1095	0	225	290	3
2026-02-12	15:29:35.350	-6.09	6.86	-13.405	0.717848	0.157136	-0.028304	-0.2985	0.0525	0.1065	0	225	290	3
2026-02-12	15:29:35.370	-4.375	-2.765	-7.875	0.72102	0.151036	0.030256	-0.3	0.051	0.105	0	225	290	3
2026-02-12	15:29:35.390	-17.22	-8.715	-2.835	0.675392	0.134932	0.125904	-0.303	0.051	0.12	0	225	290	3
2026-02-12	15:29:35.410	-35.63	-12.145	-1.61	0.682956	0.09467199	0.21594	-0.309	0.0555	0.114	0	220	259	2
2026-02-12	15:29:35.430	-54.285	-15.645	0.945	0.8906	0.025864	0.20252	-0.3075	0.057	0.1155	0	220	259	2
2026-02-12	15:29:35.450	-43.155	-24.255	15.015	1.057252	0.008784	0.122976	-0.3075	0.057	0.1155	0	220	259	2
2026-02-12	15:29:35.470	-26.775	-33.355	30.065	0.9943	0.048556	0.14762	-0.306	0.063	0.1245	0	220	259	2
2026-02-12	15:29:35.490	-14.315	-45.325	38.08	1.01748	0.002928	0.179828	-0.309	0.066	0.135	0	220	259	2
2026-02-12	15:29:35.510	-2.975	-59.815	48.93	1.073112	-0.010736	0.210816	-0.3165	0.069	0.141	0	220	259	2
2026-02-12	15:29:35.530	16.31	-73.605	63.385	1.047004	-0.046604	0.237168	-0.3195	0.0795	0.1485	0	220	259	2
2026-02-12	15:29:35.550	53.795	-88.375	78.015	0.991616	-0.038796	0.245952	-0.324	0.087	0.156	0	220	259	2
2026-02-12	15:29:35.570	91.105	-104.02	89.355	0.937936	0.031476	0.282552	-0.324	0.0945	0.171	0	220	259	2
2026-02-12	15:29:35.590	114.8	-117.67	95.97	0.950136	0.107604	0.410408	-0.327	0.1095	0.186	0	220	259	2
2026-02-12	15:29:35.610	122.36	-120.505	98.105	0.978684	0.160796	0.544608	-0.336	0.1215	0.201	0	220	231	3
2026-02-12	15:29:35.630	110.495	-114.625	100.275	0.95038	0.172264	0.563884	-0.333	0.129	0.216	0	220	231	3
2026-02-12	15:29:35.650	92.61	-106.96	101.185	0.930616	0.19032	0.49654	-0.333	0.1395	0.2265	0	220	231	3
2026-02-12	15:29:35.670	76.615	-99.925	100.275	0.931592	0.221552	0.418216	-0.333	0.1485	0.24	0	220	231	3
2026-02-12	15:29:35.690	62.93	-94.255	96.915	0.932324	0.230824	0.396988	-0.327	0.1635	0.2535	0	220	231	3
2026-02-12	15:29:35.710	46.095	-87.85	93.485	0.913048	0.198616	0.3477	-0.321	0.1785	0.2655	0	220	231	3
2026-02-12	15:29:35.730	35.455	-85.225	90.72	0.914512	0.170556	0.319396	-0.3165	0.183	0.2715	0	220	231	3
2026-02-12	15:29:35.750	38.29	-82.88	87.01	0.92354	0.188612	0.35136	-0.3105	0.216	0.2955	0	220	231	3
2026-02-12	15:29:35.770	43.05	-79.87	82.075	0.964288	0.198616	0.412604	-0.306	0.2265	0.3015	0	220	231	3
2026-02-12	15:29:35.790	43.05	-75.11	77.805	1.02114	0.182756	0.465064	-0.3015	0.2415	0.3195	0	220	231	3
2026-02-12	15:29:35.810	40.215	-68.775	73.64	1.109712	0.17568	0.471896	-0.2955	0.249	0.321	0	220	238	3
2026-02-12	15:29:35.830	39.585	-60.83	68.67	1.068964	0.168604	0.425048	-0.2895	0.267	0.33	0	220	238	3
2026-02-12	15:29:35.850	36.05	-58.345	63.63	1.094584	0.192272	0.392596	-0.2835	0.276	0.3405	0	220	238	3
2026-02-12	15:29:35.870	21.455	-59.71	59.85	1.270264	0.216672	0.428708	-0.282	0.282	0.3405	0	220	238	3
2026-02-12	15:29:35.890	-3.71	-57.225	56.735	1.453264	0.24034	0.467748	-0.27	0.2985	0.3495	0	220	238	3
2026-02-12	15:29:35.910	-30.555	-45.675	49	1.447164	0.216916	0.482876	-0.261	0.3075	0.3645	0	220	238	3
2026-02-12	15:29:35.930	-47.425	-29.68	34.58	1.268556	0.167384	0.457012	-0.258	0.3135	0.372	0	220	238	3
2026-02-12	15:29:35.950	-52.675	-16.905	15.89	1.217804	0.122488	0.413824	-0.258	0.321	0.3855	0	220	238	3
2026-02-12	15:29:35.970	-50.645	-1.68	-1.645	1.118496	0.072712	0.375028	-0.2565	0.3195	0.39	0	220	238	3
2026-02-12	15:29:35.990	-37.38	20.37	-27.65	0.985028	0.0305	0.305244	-0.2565	0.318	0.3945	0	220	238	3
2026-02-12	15:29:36.010	-25.69	31.745	-43.365	0.976976	0.060268	0.27328	-0.2565	0.318	0.3945	0	220	271	3
2026-02-12	15:29:36.030	-18.095	42.525	-54.985	0.967948	0.110288	0.240584	-0.2715	0.3195	0.408	0	220	271	3
2026-02-12	15:29:36.050	-19.565	51.205	-61.81	1.002352	0.089792	0.251564	-0.273	0.315	0.4155	0	220	271	3
2026-02-12	15:29:36.070	-16.205	61.005	-64.645	1.051396	0.056852	0.248148	-0.2775	0.3045	0.4095	0	220	271	3
2026-02-12	15:29:36.090	-4.865	70.77	-65.38	1.036268	0.08686399	0.233508	-0.2895	0.2925	0.4065	0	220	271	3
2026-02-12	15:29:36.110	1.26	75.95	-66.29	1.05042	0.155672	0.238632	-0.297	0.2775	0.4005	0	220	271	3
2026-02-12	15:29:36.130	-4.76	78.33	-66.99	1.095316	0.207156	0.29402	-0.3135	0.27	0.4005	0	220	271	3
2026-02-12	15:29:36.150	-21.35	82.18	-67.27	1.135576	0.20618	0.331352	-0.3255	0.2565	0.3915	0	220	271	3
2026-02-12	15:29:36.170	-33.075	86.765	-68.355	1.1285	0.175924	0.31842	-0.3285	0.2415	0.39	0	220	271	3
2026-02-12	15:29:36.190	-30.345	88.305	-71.575	1.136308	0.161528	0.30744	-0.336	0.234	0.381	0	220	271	3
2026-02-12	15:29:36.210	-16.52	90.16	-77.98	1.139724	0.18788	0.317932	-0.345	0.207	0.366	0	219	297	3
2026-02-12	15:29:36.230	-3.29	92.68	-85.645	1.153632	0.224968	0.325008	-0.3555	0.198	0.357	0	219	297	3
2026-02-12	15:29:36.250	6.615	95.515	-92.33	1.157536	0.27938	0.3172	-0.369	0.1755	0.3465	0	219	297	3
2026-02-12	15:29:36.270	13.335	97.475	-98.735	1.1285	0.329644	0.280356	-0.3705	0.1545	0.333	0	219	297	3
2026-02-12	15:29:36.290	8.26	95.9	-99.61	1.137772	0.34892	0.288652	-0.378	0.1335	0.3195	0	219	297	3
2026-02-12	15:29:36.310	-8.75	94.255	-98.14	1.13338	0.360632	0.2745	-0.387	0.1005	0.294	0	219	297	3
2026-02-12	15:29:36.330	-30.905	91.455	-95.305	1.104588	0.342088	0.256688	-0.387	0.0765	0.282	0	219	297	3
2026-02-12	15:29:36.350	-51.73	87.535	-89.915	1.053104	0.320372	0.238632	-0.3855	0.0585	0.27	0	219	297	3
2026-02-12	15:29:36.370	-66.5	82.285	-82.67	1.019188	0.261324	0.255468	-0.3855	0.0405	0.2505	0	219	297	3
2026-02-12	15:29:36.390	-74.41	77.35	-74.55	1.00894	0.25254	0.254736	-0.381	0.0195	0.234	0	219	297	3
2026-02-12	15:29:36.410	-79.135	71.61	-66.57	0.965996	0.227164	0.235948	-0.378	0.0015	0.2145	0	215	307	3
2026-02-12	15:29:36.430	-80.465	64.015	-57.575	0.92354	0.216428	0.212036	-0.372	-0.0075	0.1965	0	215	307	3
2026-02-12	15:29:36.450	-79.695	54.53	-47.81	0.901824	0.20496	0.182268	-0.3645	-0.0135	0.186	0	215	307	3
2026-02-12	15:29:36.470	-77.525	43.12	-38.815	0.903532	0.185196	0.168604	-0.3585	-0.0225	0.177	0	215	307	3
2026-02-12	15:29:36.490	-75.075	32.34	-30.45	0.864736	0.153476	0.169824	-0.3555	-0.0285	0.1665	0	215	307	3
2026-02-12	15:29:36.510	-71.925	22.365	-22.225	0.819108	0.13298	0.180316	-0.348	-0.0315	0.156	0	215	307	3
2026-02-12	15:29:36.530	-66.08	12.46	-12.04	0.770796	0.1037	0.19032	-0.345	-0.027	0.1455	0	215	307	3
2026-02-12	15:29:36.550	-58.87	4.935	-2.87	0.749812	0.084668	0.19154	-0.348	-0.024	0.144	0	215	307	3
2026-02-12	15:29:36.570	-53.935	1.365	4.095	0.732	0.056364	0.207156	-0.339	-0.0255	0.141	0	215	307	3
2026-02-12	15:29:36.590	-52.745	-1.785	12.075	0.708332	0.054168	0.233264	-0.3315	-0.0225	0.1395	0	215	307	3
2026-02-12	15:29:36.610	-60.2	-6.58	17.535	0.663436	0.095648	0.25986	-0.3345	-0.0165	0.141	0	210	297	3
2026-02-12	15:29:36.630	-84.07	-16.38	18.095	0.7503	0.089304	0.308416	-0.3375	-0.009	0.141	0	210	297	3
2026-02-12	15:29:36.650	-111.685	-25.935	20.51	0.933056	0.018056	0.276696	-0.3375	-0.0075	0.1395	0	210	297	3
2026-02-12	15:29:36.670	-113.295	-35.385	27.475	1.088484	-0.054412	0.180316	-0.336	0	0.1395	0	210	297	3
2026-02-12	15:29:36.690	-90.405	-45.29	35.42	1.105564	-0.080032	0.151036	-0.3315	0.0165	0.1485	0	210	297	3
2026-02-12	15:29:36.710	-58.45	-55.37	39.62	1.078236	-0.114436	0.11224	-0.336	0.0255	0.15	0	210	297	3
2026-02-12	15:29:36.730	-20.265	-70.385	40.25	1.105564	-0.136396	0.113704	-0.3435	0.036	0.156	0	210	297	3
2026-02-12	15:29:36.750	19.075	-84.7	42.35	1.072136	-0.141032	0.197152	-0.342	0.0465	0.168	0	210	297	3
2026-02-12	15:29:36.770	56.665	-94.885	47.11	1.012844	-0.127124	0.278404	-0.3495	0.0525	0.1785	0	210	297	3
2026-02-12	15:29:36.790	90.335	-101.325	51.135	0.937448	-0.080032	0.314516	-0.357	0.057	0.198	0	210	297	3
2026-02-12	15:29:36.810	119.385	-109.9	54.075	0.865956	-0.021472	0.273524	-0.3555	0.06	0.2145	0	207	280	3
2026-02-12	15:29:36.830	135.94	-121.135	56.7	0.834236	0.030988	0.262056	-0.3525	0.063	0.2175	0	207	280	3
2026-02-12	15:29:36.850	145.005	-127.54	58.24	0.883524	0.088084	0.32696	-0.363	0.0765	0.2535	0	207	280	3
2026-02-12	15:29:36.870	137.865	-125.44	63.455	0.930616	0.107116	0.350384	-0.357	0.0765	0.27	0	207	280	3
2026-02-12	15:29:36.890	125.055	-120.225	68.53	0.945256	0.111508	0.29646	-0.3645	0.09	0.294	0	207	280	3
2026-02-12	15:29:36.910	118.055	-116.34	72.45	0.949648	0.131028	0.238876	-0.36	0.096	0.3135	0	207	280	3
2026-02-12	15:29:36.930	112.42	-114.94	75.74	0.992592	0.18666	0.259372	-0.3555	0.1035	0.321	0	207	280	3
2026-02-12	15:29:36.950	102.795	-113.05	75.565	1.105564	0.31476	0.29646	-0.3585	0.111	0.3375	0	207	280	3
2026-02-12	15:29:36.970	87.395	-110.425	71.995	1.20658	0.355996	0.32086	-0.3525	0.1335	0.3615	0	207	280	3
2026-02-12	15:29:36.990	70.875	-108.08	67.69	1.27246	0.34038	0.329156	-0.348	0.147	0.381	0	207	280	3
2026-02-12	15:29:37.010	56.84	-104.475	60.655	1.227076	0.32086	0.426512	-0.3495	0.1545	0.3855	0	205	271	3
2026-02-12	15:29:37.030	23.765	-99.12	53.06	1.237324	0.263032	0.574376	-0.3345	0.165	0.405	0	205	271	3
2026-02-12	15:29:37.050	-8.54	-87.85	42.35	1.203652	0.156404	0.577304	-0.3315	0.174	0.4155	0	205	271	3
2026-02-12	15:29:37.070	-18.795	-77.105	30.345	1.134844	0.100284	0.564128	-0.3285	0.183	0.4275	0	205	271	3
2026-02-12	15:29:37.090	-20.825	-62.895	15.015	1.1102	0.08906	0.56974	-0.318	0.183	0.435	0	205	271	3
2026-02-12	15:29:37.110	-22.645	-54.81	6.475	1.176812	0.052948	0.547292	-0.318	0.183	0.435	0	205	271	3
2026-02-12	15:29:37.130	-15.435	-43.085	-0.77	1.203408	0.003416	0.498736	-0.3105	0.1845	0.462	0	205	271	3
2026-02-12	15:29:37.150	4.725	-29.365	-5.46	1.203164	-0.029768	0.422852	-0.306	0.189	0.471	0	205	271	3
2026-02-12	15:29:37.170	27.965	-17.5	-7.385	1.213656	-0.000244	0.362828	-0.309	0.1875	0.474	0	205	271	3
2026-02-12	15:29:37.190	36.47	-6.44	-7.14	1.174128	0.039284	0.345504	-0.3075	0.189	0.471	0	205	271	3
2026-02-12	15:29:37.210	32.235	4.34	-8.085	1.1163	0.111996	0.393816	-0.309	0.189	0.4725	0	205	290	3
2026-02-12	15:29:37.230	14.21	17.57	-10.465	1.048468	0.064904	0.417972	-0.309	0.186	0.4635	0	205	290	3
2026-02-12	15:29:37.250	9.8	31.745	-14.28	0.971608	0.0549	0.369172	-0.309	0.1875	0.459	0	205	290	3
2026-02-12	15:29:37.270	10.36	42.91	-20.02	0.889136	0.097356	0.337452	-0.312	0.1875	0.4515	0	205	290	3
2026-02-12	15:29:37.290	0.77	49.455	-27.51	0.903288	0.156892	0.355752	-0.3165	0.1875	0.4395	0	205	290	3
2026-02-12	15:29:37.310	-11.095	54.845	-36.05	1.012112	0.155428	0.392596	-0.306	0.186	0.4365	0	205	290	3
2026-02-12	15:29:37.330	-10.22	63.14	-44.345	1.077748	0.133712	0.37576	-0.315	0.183	0.432	0	205	290	3
2026-02-12	15:29:37.350	2.31	71.47	-51.94	1.126792	0.155184	0.34282	-0.327	0.1815	0.4125	0	205	290	3
2026-02-12	15:29:37.370	21.455	79.52	-63.805	1.131672	0.244732	0.297436	-0.327	0.1815	0.4125	0	205	290	3
2026-02-12	15:29:37.390	6.16	81.725	-68.075	1.144116	0.284016	0.314516	-0.3315	0.168	0.396	0	205	290	3
2026-02-12	15:29:37.410	-12.285	84.91	-71.855	1.165344	0.28426	0.30622	-0.342	0.147	0.369	0	205	318	3
2026-02-12	15:29:37.430	-6.965	89.635	-78.225	1.16388	0.323056	0.287432	-0.348	0.1365	0.3555	0	205	318	3
2026-02-12	15:29:37.450	5.39	92.855	-85.19	1.16388	0.408212	0.265228	-0.354	0.1245	0.3465	0	205	318	3
2026-02-12	15:29:37.470	-3.64	93.45	-91.035	1.240008	0.483608	0.272304	-0.3555	0.111	0.33	0	205	318	3
2026-02-12	15:29:37.490	-28.735	96.075	-94.36	1.272704	0.448228	0.254736	-0.354	0.1005	0.309	0	205	318	3
2026-02-12	15:29:37.510	-43.225	100.415	-96.11	1.235372	0.399672	0.210816	-0.3585	0.0885	0.291	0	205	318	3
2026-02-12	15:29:37.530	-45.57	102.025	-96.53	1.189012	0.379664	0.165188	-0.357	0.078	0.276	0	205	318	3
2026-02-12	15:29:37.550	-47.215	99.015	-95.55	1.180472	0.389424	0.154208	-0.36	0.063	0.261	0	205	318	3
2026-02-12	15:29:37.570	-53.62	95.025	-93.975	1.223416	0.374052	0.193004	-0.3615	0.0525	0.246	0	205	318	3
2026-02-12	15:29:37.590	-56.98	94.22	-91.28	1.185108	0.329156	0.206668	-0.3585	0.042	0.231	0	205	318	3
2026-02-12	15:29:37.610	-56	93.485	-87.36	1.094096	0.305	0.183244	-0.3585	0.0255	0.216	0	205	325	3
2026-02-12	15:29:37.630	-50.26	88.515	-81.9	1.011136	0.288896	0.125416	-0.3525	0.0135	0.2025	0	205	325	3
2026-02-12	15:29:37.650	-42.945	79.31	-76.02	1.007964	0.273036	0.074664	-0.348	0.0075	0.198	0	205	325	3
2026-02-12	15:29:37.670	-37.73	70.805	-69.685	0.943792	0.263032	0.037332	-0.342	-0.009	0.1695	0	205	325	3
2026-02-12	15:29:37.690	-34.65	61.25	-63.28	0.862052	0.253516	0.00244	-0.342	-0.0195	0.15	0	205	325	3
2026-02-12	15:29:37.710	-30.03	50.33	-58.03	0.830088	0.226676	-0.053436	-0.3375	-0.0195	0.147	0	205	325	3
2026-02-12	15:29:37.730	-18.235	38.5	-54.46	0.822524	0.195444	-0.117852	-0.3315	-0.024	0.147	0	205	325	3
2026-02-12	15:29:37.750	-0.175	25.27	-52.5	0.793488	0.158112	-0.133224	-0.327	-0.033	0.1455	0	205	325	3
2026-02-12	15:29:37.770	13.265	11.725	-49.49	0.774456	0.152012	-0.06466	-0.324	-0.0405	0.1395	0	205	325	3
2026-02-12	15:29:37.790	10.5	1.435	-43.33	0.764696	0.172508	0.022204	-0.3225	-0.048	0.1365	0	205	325	3
2026-02-12	15:29:37.810	-6.58	-4.34	-36.61	0.744932	0.185196	0.099064	-0.3195	-0.06	0.1365	0	206	296	3
2026-02-12	15:29:37.830	-30.38	-10.115	-30.765	0.803248	0.1342	0.161528	-0.3225	-0.0645	0.141	0	206	296	3
2026-02-12	15:29:37.850	-45.71	-17.325	-19.215	0.961604	0.081496	0.130784	-0.324	-0.0675	0.141	0	206	296	3
2026-02-12	15:29:37.870	-51.31	-26.145	2.835	0.993568	0.077836	0.108336	-0.318	-0.066	0.1365	0	206	296	3
2026-02-12	15:29:37.890	-45.36	-37.1	23.345	0.977708	0.093696	0.151036	-0.3165	-0.0645	0.141	0	206	296	3
2026-02-12	15:29:37.910	-29.715	-52.64	39.795	1.005524	0.041724	0.243268	-0.321	-0.066	0.1455	0	206	296	3
2026-02-12	15:29:37.930	-15.785	-65.87	55.58	0.96624	0.00976	0.293044	-0.321	-0.066	0.1455	0	206	296	3
2026-02-12	15:29:37.950	-7.28	-75.915	68.18	0.88694	0.005368	0.29646	-0.3345	-0.045	0.1665	0	206	296	3
2026-02-12	15:29:37.970	8.75	-90.79	76.685	0.836676	0.011224	0.293288	-0.3405	-0.0345	0.1755	0	206	296	3
2026-02-12	15:29:37.990	29.155	-106.96	83.79	0.828868	0.064416	0.310124	-0.3405	-0.0225	0.1935	0	206	296	3
2026-02-12	15:29:38.010	47.495	-120.435	89.74	0.846436	0.09638	0.334036	-0.342	-0.0075	0.207	0	209	254	2
2026-02-12	15:29:38.030	57.12	-130.76	96.88	0.892796	0.114924	0.354532	-0.3525	0.0045	0.237	0	209	254	2
2026-02-12	15:29:38.050	54.39	-138.53	106.435	1.06262	0.125416	0.406504	-0.3585	0.021	0.258	0	209	254	2
2026-02-12	15:29:38.070	40.635	-138.32	117.32	1.166564	0.136396	0.40992	-0.3585	0.0285	0.2775	0	209	254	2
2026-02-12	15:29:38.090	28.21	-132.3	125.44	1.085068	0.130296	0.354532	-0.357	0.0495	0.297	0	209	254	2
2026-02-12	15:29:38.110	21.105	-130.69	129.57	1.0614	0.120536	0.2867	-0.3555	0.0795	0.324	0	209	254	2
2026-02-12	15:29:38.130	18.27	-131.81	131.25	1.070916	0.108824	0.231312	-0.351	0.0915	0.3405	0	209	254	2
2026-02-12	15:29:38.150	18.515	-135.31	131.67	1.122644	0.091744	0.214476	-0.3435	0.1155	0.3675	0	209	254	2
2026-02-12	15:29:38.170	20.16	-138.215	130.515	1.117276	0.08295999	0.241804	-0.3435	0.135	0.3795	0	209	254	2
2026-02-12	15:29:38.190	8.645	-139.86	124.04	1.129476	0.107116	0.330376	-0.327	0.147	0.4035	0	209	254	2
2026-02-12	15:29:38.210	-14.14	-137.865	117.005	1.200236	0.129808	0.408456	-0.3135	0.1695	0.426	0	211	240	2
2026-02-12	15:29:38.230	-47.635	-129.885	108.15	1.286124	0.120048	0.475312	-0.297	0.1995	0.4605	0	211	240	2
2026-02-12	15:29:38.250	-76.72	-115.605	97.405	1.277584	0.066856	0.457988	-0.2925	0.2055	0.474	0	211	240	2
2026-02-12	15:29:38.270	-84.315	-100.555	82.635	1.219268	0.032208	0.392108	-0.282	0.2145	0.492	0	211	240	2
2026-02-12	15:29:38.290	-74.095	-86.1	65.45	1.170712	0.005124	0.332328	-0.264	0.216	0.5025	0	211	240	2
2026-02-12	15:29:38.310	-55.895	-73.745	47.6	1.207068	-0.029036	0.279868	-0.2565	0.228	0.516	0	211	240	2
2026-02-12	15:29:38.330	-33.25	-61.425	31.185	1.243912	-0.06466	0.249124	-0.24	0.2325	0.54	0	211	240	2
2026-02-12	15:29:38.350	-9.31	-49.63	15.96	1.304424	-0.094184	0.274012	-0.24	0.2295	0.5505	0	211	240	2
2026-02-12	15:29:38.370	13.265	-34.965	3.01	1.281976	-0.076616	0.346968	-0.231	0.228	0.5565	0	211	240	2
2026-02-12	15:29:38.390	27.65	-16.38	-9.38	1.176812	-0.036844	0.395768	-0.228	0.2355	0.5625	0	211	240	2
2026-02-12	15:29:38.410	38.115	3.85	-20.755	1.043588	0.010004	0.379664	-0.225	0.234	0.5595	0	213	252	3
2026-02-12	15:29:38.430	42	21.42	-30.52	0.944036	0.057584	0.344772	-0.228	0.231	0.5535	0	213	252	3
2026-02-12	15:29:38.450	35.91	35.525	-39.97	0.898408	0.081008	0.320372	-0.231	0.2295	0.5505	0	213	252	3
2026-02-12	15:29:38.470	15.82	52.325	-51.205	1.010648	0.05734	0.274988	-0.231	0.2295	0.5505	0	213	252	3
2026-02-12	15:29:38.490	8.715	63.77	-55.755	1.066036	0.038064	0.236192	-0.243	0.2235	0.5415	0	213	252	3
2026-02-12	15:29:38.510	8.12	73.64	-58.905	1.089948	0.0427	0.203008	-0.2535	0.219	0.525	0	213	252	3
2026-02-12	15:29:38.530	8.925	80.5	-61.915	1.126792	0.061732	0.199836	-0.2625	0.2145	0.5175	0	213	252	3
2026-02-12	15:29:38.550	9.205	86.625	-64.33	1.226344	0.06222	0.225212	-0.27	0.2055	0.51	0	213	252	3
2026-02-12	15:29:38.570	33.215	96.215	-69.72	1.243912	0.025864	0.218868	-0.2745	0.1995	0.501	0	213	252	3
2026-02-12	15:29:38.590	102.55	105.28	-82.74	1.200968	0.01708	0.188124	-0.2865	0.189	0.486	0	213	252	3
2026-02-12	15:29:38.610	181.72	109.935	-100.765	1.14924	0.101016	0.130784	-0.297	0.1785	0.4635	0	213	267	3
2026-02-12	15:29:38.630	224.56	108.045	-118.23	1.186572	0.222772	0.1159	-0.306	0.1725	0.441	0	213	267	3
2026-02-12	15:29:38.650	203.245	105.245	-131.985	1.231224	0.478484	0.115656	-0.315	0.1635	0.414	0	213	267	3
2026-02-12	15:29:38.670	120.365	102.34	-140.7	1.221708	0.523868	0.09394	-0.321	0.147	0.3885	0	213	267	3
2026-02-12	15:29:38.690	38.92	97.93	-145.705	1.207312	0.49898	0.036112	-0.33	0.129	0.3705	0	213	267	3
2026-02-12	15:29:38.710	-20.65	92.295	-148.61	1.271728	0.482632	0.011956	-0.3405	0.108	0.36	0	213	267	3
2026-02-12	15:29:38.730	-62.335	88.515	-150.745	1.256112	0.442128	-0.00122	-0.345	0.084	0.345	0	213	267	3
2026-02-12	15:29:38.750	-83.825	83.895	-149.94	1.194868	0.356728	-0.02196	-0.3465	0.072	0.336	0	213	267	3
2026-02-12	15:29:38.770	-82.215	77.77	-145.95	1.255624	0.258396	-0.00122	-0.345	0.0165	0.312	0	213	267	3
2026-02-12	15:29:38.790	-57.225	73.78	-139.755	1.306132	0.195444	0.009516	-0.3495	-0.0045	0.3	0	213	267	3
2026-02-12	15:29:38.810	-14.105	71.47	-133.105	1.1773	0.166896	-0.001708	-0.345	-0.012	0.2925	0	213	255	3
2026-02-12	15:29:38.830	33.705	63.455	-127.085	1.070916	0.17812	-0.01464	-0.3375	-0.0285	0.2805	0	213	255	3
2026-02-12	15:29:38.850	65.695	52.08	-118.44	1.016748	0.2867	-0.01952	-0.333	-0.0525	0.267	0	213	255	3
2026-02-12	15:29:38.870	63.91	39.795	-106.855	0.98942	0.351848	-0.027084	-0.3315	-0.072	0.261	0	213	255	3
2026-02-12	15:29:38.890	39.62	27.545	-94.115	0.9211	0.374784	-0.029036	-0.33	-0.084	0.261	0	213	255	3
2026-02-12	15:29:38.910	2.17	14.665	-79.905	0.862784	0.365268	-0.012932	-0.327	-0.1035	0.258	0	213	255	3
2026-02-12	15:29:38.930	-39.935	3.395	-64.68	0.80154	0.34648	-0.002684	-0.3195	-0.1185	0.249	0	213	255	3
2026-02-12	15:29:38.950	-78.26	-6.93	-50.435	0.77958	0.310612	0.008784	-0.3075	-0.1245	0.243	0	213	255	3
2026-02-12	15:29:38.970	-112.245	-16.1	-37.94	0.764208	0.273524	0.040748	-0.3075	-0.1275	0.2445	0	213	255	3
2026-02-12	15:29:38.990	-139.58	-21.875	-27.195	0.73078	0.227896	0.092476	-0.312	-0.1305	0.2445	0	213	255	3
2026-02-12	15:29:39.010	-168.875	-25.55	-15.155	0.729316	0.193004	0.17934	-0.309	-0.132	0.243	0	215	214	3
2026-02-12	15:29:39.030	-201.74	-25.095	-5.075	0.772016	0.173728	0.283528	-0.309	-0.132	0.2415	0	215	214	3
2026-02-12	15:29:39.050	-226.66	-20.72	2.135	0.82472	0.115412	0.28548	-0.3045	-0.132	0.234	0	215	214	3
2026-02-12	15:29:39.070	-222.53	-18.935	9.52	0.87108	0.015128	0.137616	-0.3075	-0.12	0.21	0	215	214	3
2026-02-12	15:29:39.090	-167.3	-29.33	16.415	0.96502	-0.03172	0.023912	-0.306	-0.1155	0.21	0	215	214	3
2026-02-12	15:29:39.110	-94.5	-46.76	28.525	1.014552	-0.036112	0.050508	-0.2985	-0.102	0.1995	0	215	214	3
2026-02-12	15:29:39.130	-37.94	-62.615	43.295	0.976	-0.062708	0.099796	-0.3075	-0.099	0.2025	0	215	214	3
2026-02-12	15:29:39.150	-2.275	-78.33	55.72	0.92964	-0.0671	0.171532	-0.312	-0.084	0.2175	0	215	214	3
2026-02-12	15:29:39.170	23.38	-91.77	65.485	0.947208	-0.049288	0.305732	-0.315	-0.084	0.225	0	215	214	3
2026-02-12	15:29:39.190	49.21	-98.805	73.22	1.014796	0.056852	0.483364	-0.318	-0.0735	0.2445	0	215	214	3
2026-02-12	15:29:39.210	67.06	-97.65	79.695	1.002108	0.115656	0.563884	-0.321	-0.0615	0.264	0	220	183	3
2026-02-12	15:29:39.230	93.52	-95.13	80.605	0.945012	0.12322	0.570472	-0.324	-0.0555	0.2775	0	220	183	3
2026-02-12	15:29:39.250	168.385	-85.225	69.685	0.855708	0.260104	0.654408	-0.3255	-0.039	0.285	0	220	183	3
2026-02-12	15:29:39.270	220.78	-63.245	61.32	0.817888	0.40504	0.649284	-0.3285	-0.0315	0.303	0	220	183	3
2026-02-12	15:29:39.290	250.355	-40.95	55.685	0.783484	0.485316	0.463356	-0.3285	-0.0195	0.333	0	220	183	3
2026-02-12	15:29:39.310	267.96	-19.635	53.97	0.757376	0.63684	0.327936	-0.3285	-0.0075	0.351	0	220	183	3
2026-02-12	15:29:39.330	230.86	-8.75	52.675	0.74298	0.80642	0.331596	-0.336	0.003	0.354	0	220	183	3
2026-02-12	15:29:39.350	158.62	-8.575	45.115	0.732976	0.772748	0.342088	-0.339	0.006	0.351	0	220	183	3
2026-02-12	15:29:39.370	105.35	-11.06	36.05	0.737124	0.695888	0.415288	-0.324	0.021	0.3465	0	220	183	3
2026-02-12	15:29:39.390	74.34	-13.16	26.95	0.80276	0.632692	0.541436	-0.3255	0.0315	0.3585	0	220	183	3
2026-02-12	15:29:39.410	54.32	-12.67	14.735	0.843508	0.603412	0.585356	-0.33	0.03	0.3555	0	229	199	3
2026-02-12	15:29:39.430	41.265	-11.13	1.225	0.8357	0.595848	0.511424	-0.333	0.033	0.357	0	229	199	3
2026-02-12	15:29:39.450	29.47	-11.305	-10.675	0.857172	0.596336	0.398696	-0.318	0.0435	0.363	0	229	199	3
2026-02-12	15:29:39.470	14.805	-12.635	-20.58	0.878888	0.601216	0.349652	-0.327	0.0345	0.3525	0	229	199	3
2026-02-12	15:29:39.490	-3.57	-11.41	-30.415	0.963556	0.573156	0.314516	-0.3255	0.033	0.3615	0	229	199	3
2026-02-12	15:29:39.510	-6.755	-7.7	-40.565	1.099952	0.583892	0.26596	-0.3255	0.033	0.3615	0	229	199	3
2026-02-12	15:29:39.530	-0.35	-5.355	-47.6	1.196332	0.610976	0.24034	-0.3255	0.027	0.366	0	229	199	3
2026-02-12	15:29:39.550	4.55	-3.535	-51.94	1.18584	0.621224	0.210816	-0.3255	0.0165	0.3675	0	229	199	3
2026-02-12	15:29:39.570	7.735	-3.43	-56.14	1.144604	0.616832	0.179096	-0.3225	0.006	0.3645	0	229	199	3
2026-02-12	15:29:39.590	6.23	-4.725	-59.815	1.090192	0.624884	0.178608	-0.3255	-0.003	0.363	0	229	199	3
2026-02-12	15:29:39.610	3.5	-4.305	-64.82	1.017236	0.611708	0.184952	-0.327	-0.009	0.3645	0	241	239	3
2026-02-12	15:29:39.630	0.56	-2.8	-70.49	0.969412	0.617076	0.175436	-0.3195	-0.0165	0.3675	0	241	239	3
2026-02-12	15:29:39.650	-10.29	-2.24	-74.83	0.936228	0.618296	0.162016	-0.321	-0.0255	0.369	0	241	239	3
2026-02-12	15:29:39.670	-30.03	-2.905	-77.07	0.935496	0.576572	0.19276	-0.321	-0.0375	0.3705	0	241	239	3
2026-02-12	15:29:39.690	-47.425	0.28	-76.02	0.973072	0.520452	0.2196	-0.3195	-0.0495	0.3645	0	241	239	3
2026-02-12	15:29:39.710	-47.46	8.295	-73.045	0.933056	0.489952	0.143716	-0.3195	-0.06	0.3585	0	241	239	3
2026-02-12	15:29:39.730	-30.66	11.235	-69.65	0.872544	0.489464	0.072224	-0.315	-0.072	0.36	0	241	239	3
2026-02-12	15:29:39.750	-20.335	7.49	-64.085	0.850096	0.4758	0.137616	-0.3135	-0.0795	0.3645	0	241	239	3
2026-02-12	15:29:39.770	-23.905	9.1	-56.595	0.895724	0.505324	0.270108	-0.306	-0.105	0.342	0	241	239	3
2026-02-12	15:29:39.790	-33.075	16.8	-51.31	0.917196	0.541436	0.250344	-0.303	-0.093	0.3495	0	241	239	3
2026-02-12	15:29:39.810	-24.745	22.225	-52.57	0.918416	0.520696	0.168116	-0.3075	-0.111	0.354	0	251	257	3
2026-02-12	15:29:39.830	-11.97	22.785	-52.255	0.88206	0.530456	0.104432	-0.3015	-0.114	0.3405	0	251	257	3
2026-02-12	15:29:39.850	-10.745	19.6	-49.56	0.844484	0.518744	0.149328	-0.3	-0.126	0.3345	0	251	257	3
2026-02-12	15:29:39.870	-17.08	17.045	-45.85	0.847412	0.519232	0.203496	-0.2925	-0.1365	0.339	0	251	257	3
2026-02-12	15:29:39.890	-25.655	15.19	-42.21	0.858636	0.5185	0.214476	-0.294	-0.138	0.3285	0	251	257	3
2026-02-12	15:29:39.910	-34.02	13.09	-38.43	0.856684	0.514108	0.2013	-0.285	-0.138	0.33	0	251	257	3
2026-02-12	15:29:39.930	-45.325	9.8	-33.425	0.868884	0.494344	0.197884	-0.282	-0.1425	0.3285	0	251	257	3
2026-02-12	15:29:39.950	-58.59	6.44	-27.51	0.888892	0.474824	0.198128	-0.2865	-0.147	0.3255	0	251	257	3
2026-02-12	15:29:39.970	-73.5	3.885	-21.14	0.869372	0.429928	0.209108	-0.2835	-0.1485	0.3225	0	251	257	3
2026-02-12	15:29:39.990	-94.955	0.42	-9.73	0.853756	0.356728	0.175436	-0.279	-0.1515	0.318	0	251	257	3
2026-02-12	15:29:40.010	-104.895	-2.625	1.12	0.866688	0.318664	0.157624	-0.2805	-0.159	0.315	0	255	251	3
2026-02-12	15:29:40.030	-111.65	-6.335	13.965	0.889136	0.292068	0.149328	-0.282	-0.1635	0.2985	0	255	251	3
2026-02-12	15:29:40.050	-113.645	-10.115	26.705	0.876692	0.256688	0.121756	-0.285	-0.156	0.297	0	255	251	3
2026-02-12	15:29:40.070	-106.855	-14.91	38.85	0.846192	0.221308	0.087352	-0.2835	-0.147	0.2955	0	255	251	3
2026-02-12	15:29:40.090	-92.12	-21.385	51.345	0.852292	0.189832	0.051484	-0.285	-0.1485	0.2805	0	255	251	3
2026-02-12	15:29:40.110	-72.94	-28.035	63.525	0.913048	0.177632	0.027572	-0.288	-0.1425	0.2895	0	255	251	3
2026-02-12	15:29:40.130	-55.055	-32.515	74.2	0.946476	0.173728	0.00244	-0.288	-0.132	0.2805	0	255	251	3
2026-02-12	15:29:40.150	-39.34	-35.035	83.405	0.909388	0.139812	-0.003904	-0.2925	-0.123	0.2865	0	255	251	3
2026-02-12	15:29:40.170	-22.89	-37.66	91.63	0.86254	0.121268	-0.00122	-0.2955	-0.105	0.2835	0	255	251	3
2026-02-12	15:29:40.190	-6.545	-39.865	99.05	0.824232	0.12566	0.006832	-0.2985	-0.0915	0.2895	0	255	251	3
2026-02-12	15:29:40.210	5.355	-41.545	104.125	0.782508	0.14884	0.032696	-0.3045	-0.084	0.306	0	253	226	3
2026-02-12	15:29:40.230	6.195	-41.475	105.77	0.708088	0.153476	0.108824	-0.312	-0.069	0.2925	0	253	226	3
2026-02-12	15:29:40.250	-6.51	-37.625	102.585	0.630496	0.152012	0.169092	-0.312	-0.06	0.309	0	253	226	3
2026-02-12	15:29:40.270	-9.275	-41.615	97.755	0.947696	0.096136	0.089792	-0.312	-0.0405	0.3165	0	253	226	3
2026-02-12	15:29:40.290	19.53	-55.51	104.16	1.508652	0.083204	0.016836	-0.315	-0.012	0.327	0	253	226	3
2026-02-12	15:29:40.310	54.775	-60.62	119.56	1.534516	0.172264	0.009028	-0.3135	-0.0015	0.3345	0	253	226	3
2026-02-12	15:29:40.330	81.9	-66.85	127.89	1.60918	0.194468	0.04636	-0.3135	0.0105	0.345	0	253	226	3
2026-02-12	15:29:40.350	95.62	-75.32	133.77	1.675304	0.213988	0.034892	-0.3105	0.036	0.3585	0	253	226	3
2026-02-12	15:29:40.370	101.395	-83.93	142.17	1.649196	0.225212	0.13786	-0.3075	0.0585	0.369	0	253	226	3
2026-02-12	15:29:40.390	97.65	-88.69	143.5	1.46156	0.227408	0.326228	-0.3015	0.078	0.375	0	253	226	3
2026-02-12	15:29:40.410	83.125	-86.59	136.955	1.200968	0.20252	0.447008	-0.2985	0.0975	0.3855	0	253	194	3
2026-02-12	15:29:40.430	60.06	-81.585	123.795	0.960384	0.159332	0.421876	-0.294	0.123	0.4005	0	253	194	3
2026-02-12	15:29:40.450	55.825	-79.485	106.82	0.77836	0.094428	0.367708	-0.2865	0.147	0.4125	0	253	194	3
2026-02-12	15:29:40.470	89.95	-75.985	87.815	0.736636	0.077348	0.37454	-0.2865	0.1575	0.4185	0	253	194	3
2026-02-12	15:29:40.490	146.37	-64.715	71.68	0.792512	0.061244	0.336476	-0.288	0.162	0.4215	0	253	194	3
2026-02-12	15:29:40.510	205.59	-47.635	61.845	0.884256	0.073932	0.202764	-0.2685	0.18	0.42	0	253	194	3
2026-02-12	15:29:40.530	273.07	-26.53	53.865	1.071648	0.17812	0.022448	-0.2595	0.1995	0.423	0	253	194	3
2026-02-12	15:29:40.550	297.535	-16.905	50.47	1.079456	0.271328	-0.03538	-0.255	0.2145	0.408	0	253	194	3
2026-02-12	15:29:40.570	301.21	-11.095	45.64	1.108248	0.405528	0.011956	-0.2475	0.237	0.387	0	253	194	3
2026-02-12	15:29:40.590	284.515	-5.845	37.03	1.091168	0.493856	0.054656	-0.243	0.2475	0.3675	0	253	194	3
2026-02-12	15:29:40.610	264.565	-3.08	23.73	0.984296	0.498248	0.061488	-0.2415	0.255	0.3465	0	257	180	3
2026-02-12	15:29:40.630	234.92	-7.945	11.69	0.865224	0.542168	0.153476	-0.237	0.258	0.3255	0	257	180	3
2026-02-12	15:29:40.650	176.645	-16.52	3.57	0.880352	0.596336	0.303048	-0.234	0.261	0.3015	0	257	180	3
2026-02-12	15:29:40.670	98.525	-20.335	-2.24	0.96014	0.620004	0.384056	-0.234	0.261	0.291	0	257	180	3
2026-02-12	15:29:40.690	18.935	-19.95	-7.98	1.006988	0.594628	0.396012	-0.234	0.258	0.2895	0	257	180	3
2026-02-12	15:29:40.710	-55.09	-17.99	-11.55	1.014308	0.433588	0.370392	-0.2355	0.255	0.2895	0	257	180	3
2026-02-12	15:29:40.730	-103.215	-14.49	-14.595	1.028704	0.30866	0.311588	-0.2325	0.2505	0.2955	0	257	180	3
2026-02-12	15:29:40.750	-129.395	-10.675	-18.55	1.098488	0.219112	0.256444	-0.2325	0.255	0.306	0	257	180	3
2026-02-12	15:29:40.770	-134.05	-6.895	-24.675	1.197064	0.132492	0.20862	-0.2385	0.2565	0.315	0	257	180	3
2026-02-12	15:29:40.790	-103.845	-0.455	-35.875	1.181204	0.07564	0.211792	-0.2415	0.249	0.3225	0	257	180	3
2026-02-12	15:29:40.810	-64.82	6.93	-50.19	1.088972	0.072468	0.251808	-0.243	0.246	0.327	0	262	182	3
2026-02-12	15:29:40.830	-39.655	14.28	-64.365	1.065304	0.057828	0.238144	-0.246	0.2445	0.3405	0	262	182	3
2026-02-12	15:29:40.850	-15.54	21.875	-78.26	1.017236	0.061	0.187636	-0.2535	0.2355	0.342	0	262	182	3
2026-02-12	15:29:40.870	2.485	25.235	-89.565	1.00772	0.107604	0.158356	-0.2565	0.2205	0.3375	0	262	182	3
2026-02-12	15:29:40.890	2.31	25.795	-97.195	1.060424	0.142252	0.167384	-0.273	0.2055	0.336	0	262	182	3
2026-02-12	15:29:40.910	-7.665	28.315	-102.97	1.071648	0.155672	0.184952	-0.273	0.1935	0.327	0	262	182	3
2026-02-12	15:29:40.930	-16.975	31.675	-107.765	1.065792	0.166652	0.200568	-0.2745	0.1875	0.3285	0	262	182	3
2026-02-12	15:29:40.950	-21.63	35.42	-110.285	1.057008	0.169092	0.199104	-0.282	0.168	0.324	0	262	182	3
2026-02-12	15:29:40.970	-24.255	37.87	-110.355	1.158512	0.175436	0.20496	-0.2925	0.156	0.315	0	262	182	3
2026-02-12	15:29:40.990	-25.41	43.295	-109.585	1.155584	0.204716	0.190076	-0.2925	0.141	0.312	0	262	182	3
2026-02-12	15:29:41.010	-26.46	47.845	-109.41	1.128256	0.20618	0.183732	-0.291	0.1155	0.3135	0	266	192	3
2026-02-12	15:29:41.030	-15.68	51.1	-110.565	1.093608	0.207156	0.16104	-0.306	0.1155	0.306	0	266	192	3
2026-02-12	15:29:41.050	-3.08	49.175	-111.44	1.166564	0.258152	0.177388	-0.297	0.099	0.2985	0	266	192	3
2026-02-12	15:29:41.070	-4.9	48.195	-111.755	1.218292	0.307684	0.200812	-0.3	0.0855	0.2955	0	266	192	3
2026-02-12	15:29:41.090	-11.62	49.84	-112.665	1.17486	0.324276	0.206912	-0.3045	0.0735	0.2925	0	266	192	3
2026-02-12	15:29:41.110	-14.63	50.225	-112.945	1.109224	0.323788	0.180804	-0.312	0.048	0.2655	0	266	192	3
2026-02-12	15:29:41.130	-19.845	47.18	-110.565	1.075308	0.33794	0.1586	-0.3075	0.0345	0.2655	0	266	192	3
2026-02-12	15:29:41.150	-28.805	42.105	-105.385	1.052128	0.35258	0.172752	-0.3045	0.015	0.261	0	266	192	3
2026-02-12	15:29:41.170	-39.795	37.835	-97.37	1.009672	0.354044	0.177632	-0.303	0.0075	0.252	0	266	192	3
2026-02-12	15:29:41.190	-50.75	34.23	-87.36	0.9699	0.338916	0.178608	-0.309	-0.006	0.249	0	266	192	3
2026-02-12	15:29:41.210	-56.91	30.485	-77.035	0.987712	0.330376	0.177388	-0.303	-0.0165	0.2355	0	264	196	3
2026-02-12	15:29:41.230	-60.9	27.72	-66.78	0.950868	0.310368	0.15738	-0.3045	-0.03	0.228	0	264	196	3
2026-02-12	15:29:41.250	-62.65	24.15	-56.42	0.891088	0.282308	0.136884	-0.3015	-0.036	0.228	0	264	196	3
2026-02-12	15:29:41.270	-62.895	19.53	-45.99	0.827892	0.25864	0.122488	-0.2925	-0.0435	0.216	0	264	196	3
2026-02-12	15:29:41.290	-62.02	13.685	-35.63	0.809104	0.23912	0.108092	-0.297	-0.0525	0.216	0	264	196	3
2026-02-12	15:29:41.310	-60.585	6.825	-24.85	0.819108	0.223504	0.101992	-0.297	-0.0435	0.2055	0	264	196	3
2026-02-12	15:29:41.330	-59.43	0.315	-13.23	0.803492	0.201544	0.08686399	-0.2835	-0.0405	0.2025	0	264	196	3
2026-02-12	15:29:41.350	-55.335	-10.885	5.985	0.767624	0.184952	0.050508	-0.288	-0.048	0.2085	0	264	196	3
2026-02-12	15:29:41.370	-52.36	-19.74	18.655	0.773236	0.18544	0.030744	-0.2925	-0.0435	0.2115	0	264	196	3
2026-02-12	15:29:41.390	-50.015	-28.42	30.59	0.773968	0.175924	0.0366	-0.294	-0.0375	0.213	0	264	196	3
2026-02-12	15:29:41.410	-46.375	-36.47	41.72	0.783972	0.147376	0.112484	-0.2955	-0.0285	0.2115	0	258	190	3
2026-02-12	15:29:41.430	-48.825	-40.25	51.975	0.793488	0.154696	0.194224	-0.2985	-0.024	0.216	0	258	190	3
2026-02-12	15:29:41.450	-59.325	-41.475	62.58	0.827648	0.140788	0.204228	-0.2985	-0.018	0.222	0	258	190	3
2026-02-12	15:29:41.470	-67.97	-44.17	73.885	0.922076	0.110288	0.160796	-0.3	-0.0045	0.228	0	258	190	3
2026-02-12	15:29:41.490	-71.295	-47.88	84.805	1.027972	0.097356	0.177388	-0.294	0.0015	0.2355	0	258	190	3
2026-02-12	15:29:41.510	-71.295	-48.755	95.62	1.046028	0.048068	0.186416	-0.2955	0.015	0.2415	0	258	190	3
2026-02-12	15:29:41.530	-40.355	-49.84	101.115	1.036024	-0.019032	0.140056	-0.3	0.036	0.2475	0	258	190	3
2026-02-12	15:29:41.550	18.2	-54.04	103.53	1.060668	-0.023424	0.091256	-0.297	0.0465	0.2565	0	258	190	3
2026-02-12	15:29:41.570	79.1	-60.865	106.47	1.10166	-0.006344	0.091988	-0.2955	0.057	0.2655	0	258	190	3
2026-02-12	15:29:41.590	127.505	-68.425	110.46	1.15656	0.024888	0.125416	-0.297	0.0765	0.273	0	258	190	3
2026-02-12	15:29:41.610	165.515	-75.075	115.64	1.215364	0.082472	0.176656	-0.2985	0.0945	0.2805	0	249	179	3
2026-02-12	15:29:41.630	194.075	-80.465	124.355	1.244888	0.23424	0.303292	-0.2985	0.102	0.285	0	249	179	3
2026-02-12	15:29:41.650	170.135	-77.7	130.165	1.196576	0.326716	0.430172	-0.294	0.114	0.291	0	249	179	3
2026-02-12	15:29:41.670	109.725	-70.63	134.925	1.09434	0.341356	0.470188	-0.288	0.135	0.3015	0	249	179	3
2026-02-12	15:29:41.690	50.925	-63.84	134.05	0.991372	0.266204	0.379908	-0.2805	0.1485	0.3075	0	249	179	3
2026-02-12	15:29:41.710	22.4	-61.215	127.82	0.91744	0.224236	0.302316	-0.276	0.168	0.3075	0	249	179	3
2026-02-12	15:29:41.730	7.49	-60.655	118.825	0.894748	0.236924	0.297192	-0.267	0.1875	0.312	0	249	179	3
2026-02-12	15:29:41.750	-7.455	-59.815	108.675	0.91866	0.19764	0.27816	-0.2565	0.204	0.3255	0	249	179	3
2026-02-12	15:29:41.770	-8.68	-58.345	97.615	0.964532	0.155428	0.25132	-0.252	0.219	0.336	0	249	179	3
2026-02-12	15:29:41.790	4.76	-56.175	86.625	1.003084	0.132004	0.243512	-0.246	0.2325	0.3375	0	249	179	3
2026-02-12	15:29:41.810	25.83	-52.64	75.425	1.024068	0.148596	0.257908	-0.2325	0.246	0.3435	0	241	183	3
2026-02-12	15:29:41.830	41.685	-48.09	63.28	1.00528	0.166164	0.28914	-0.2235	0.249	0.3525	0	241	183	3
2026-02-12	15:29:41.850	50.505	-44.065	51.065	1.008452	0.149816	0.294264	-0.222	0.2535	0.363	0	241	183	3
2026-02-12	15:29:41.870	58.415	-42.525	39.69	1.07848	0.144204	0.2989	-0.2175	0.264	0.363	0	241	183	3
2026-02-12	15:29:41.890	61.845	-39.69	27.65	1.116788	0.16958	0.34404	-0.2085	0.2715	0.3585	0	241	183	3
2026-02-12	15:29:41.910	50.155	-37.065	16.975	1.153876	0.193004	0.409188	-0.2055	0.273	0.3585	0	241	183	3
2026-02-12	15:29:41.930	28.42	-34.65	10.64	1.226588	0.210084	0.423096	-0.2025	0.291	0.36	0	241	183	3
2026-02-12	15:29:41.950	1.68	-30.87	6.16	1.246352	0.224724	0.41358	-0.201	0.2805	0.3645	0	241	183	3
2026-02-12	15:29:41.970	-30.065	-25.445	1.295	1.235372	0.247904	0.38674	-0.195	0.285	0.3645	0	241	183	3
2026-02-12	15:29:41.990	-69.825	-19.67	-5.565	1.246596	0.250344	0.36722	-0.2085	0.2835	0.3705	0	241	183	3
2026-02-12	15:29:42.010	-104.93	-7.14	-13.335	1.15168	0.168116	0.334524	-0.195	0.2805	0.378	0	233	207	3
2026-02-12	15:29:42.030	-123.305	6.195	-23.275	1.063352	0.09516	0.301828	-0.2025	0.2805	0.384	0	233	207	3
2026-02-12	15:29:42.050	-128.555	19.495	-35.07	1.038708	0.050264	0.256932	-0.2055	0.2745	0.399	0	233	207	3
2026-02-12	15:29:42.070	-120.33	32.795	-46.9	1.013576	-0.018544	0.228872	-0.2085	0.27	0.4035	0	233	207	3
2026-02-12	15:29:42.090	-96.95	45.64	-57.855	0.995032	-0.045872	0.217404	-0.2175	0.255	0.4155	0	233	207	3
