yyyy-MM-dd	HH:mm:ss.fff	gyrX	gyrY	gyrZ	accX	accY	accZ	magX	magY	magZ	Marker	Energy	Angle	Classification
2026-02-19	12:36:16.210	-21.56	40.425	-3.045	0.570716	0.729804	-0.406504	-0.258	-0.5445	0.4035	0	20	553	3
2026-02-19	12:36:16.230	-17.045	35.98	-1.82	0.551196	0.718092	-0.37088	-0.255	-0.549	0.399	0	20	553	3
2026-02-19	12:36:16.250	-11.165	28.105	-0.805	0.516792	0.726388	-0.319884	-0.2535	-0.5445	0.384	0	20	553	3
2026-02-19	12:36:16.270	-2.94	23.415	-2.59	0.477508	0.717116	-0.307684	-0.246	-0.546	0.3795	0	20	553	3
2026-02-19	12:36:16.290	3.605	22.54	-5.215	0.483852	0.728096	-0.320372	-0.2565	-0.5505	0.39	0	20	553	3
2026-02-19	12:36:16.310	8.89	20.545	-6.65	0.47458	0.709064	-0.328424	-0.252	-0.5445	0.381	0	20	553	3
2026-02-19	12:36:16.330	14.98	17.465	-9.275	0.478728	0.687348	-0.3416	-0.2475	-0.546	0.381	0	20	553	3
2026-02-19	12:36:16.350	22.015	16.66	-13.02	0.523868	0.703696	-0.35136	-0.2475	-0.546	0.381	0	20	553	3
2026-02-19	12:36:16.370	25.34	16.415	-16.31	0.575108	0.751276	-0.3843	-0.2475	-0.546	0.381	0	20	553	3
2026-02-19	12:36:16.390	25.27	13.965	-15.61	0.637572	0.835456	-0.391132	-0.2475	-0.549	0.3825	0	20	553	3
2026-02-19	12:36:16.410	24.325	4.165	-6.51	0.57096	0.915	-0.283528	-0.2415	-0.552	0.3885	0	26	521	3
2026-02-19	12:36:16.430	24.325	-1.12	0.875	0.438224	0.809104	-0.26962	-0.24	-0.5505	0.3945	0	26	521	3
2026-02-19	12:36:16.450	36.505	10.22	-9.66	0.473116	0.757376	-0.36356	-0.2415	-0.5535	0.3975	0	26	521	3
2026-02-19	12:36:16.470	28.98	23.17	-13.72	0.559736	0.657092	-0.441152	-0.2385	-0.5535	0.4005	0	26	521	3
2026-02-19	12:36:16.490	24.605	17.675	-9.835	0.584136	0.644404	-0.433832	-0.2355	-0.5535	0.4035	0	26	521	3
2026-02-19	12:36:16.510	26.04	4.095	-3.815	0.61244	0.671244	-0.40504	-0.237	-0.558	0.408	0	26	521	3
2026-02-19	12:36:16.530	17.955	-4.27	6.3	0.639524	0.758108	-0.374784	-0.237	-0.5565	0.414	0	26	521	3
2026-02-19	12:36:16.550	18.62	-4.515	1.995	0.598044	0.807884	-0.368196	-0.2385	-0.558	0.417	0	26	521	3
2026-02-19	12:36:16.570	19.95	2.555	-3.71	0.57584	0.791292	-0.38674	-0.24	-0.561	0.4185	0	26	521	3
2026-02-19	12:36:16.590	19.74	6.405	-9.8	0.57828	0.804956	-0.374052	-0.237	-0.558	0.4185	0	26	521	3
2026-02-19	12:36:16.610	13.86	4.655	-6.79	0.5673	0.828624	-0.334524	-0.237	-0.555	0.4185	0	35	484	3
2026-02-19	12:36:16.630	9.345	8.715	-8.12	0.540948	0.849608	-0.304512	-0.234	-0.5595	0.42	0	35	484	3
2026-02-19	12:36:16.650	7.77	22.155	-13.335	0.55022	0.813008	-0.343552	-0.231	-0.5595	0.423	0	35	484	3
2026-02-19	12:36:16.670	6.055	27.37	-14	0.573888	0.777384	-0.388692	-0.2325	-0.5595	0.4215	0	35	484	3
2026-02-19	12:36:16.690	0.665	20.16	-7.175	0.565104	0.743712	-0.424072	-0.231	-0.564	0.42	0	35	484	3
2026-02-19	12:36:16.710	-5.285	11.55	1.26	0.559736	0.721508	-0.427976	-0.2235	-0.564	0.42	0	35	484	3
2026-02-19	12:36:16.730	-7.945	5.53	6.965	0.545096	0.74908	-0.403332	-0.225	-0.5595	0.417	0	35	484	3
2026-02-19	12:36:16.750	-6.125	4.2	7.315	0.535092	0.768112	-0.366976	-0.2295	-0.561	0.4185	0	35	484	3
2026-02-19	12:36:16.770	-4.06	3.815	5.985	0.536556	0.793976	-0.325984	-0.2265	-0.5625	0.417	0	35	484	3
2026-02-19	12:36:16.790	-4.515	1.715	5.6	0.52948	0.808616	-0.299144	-0.2295	-0.5625	0.414	0	35	484	3
2026-02-19	12:36:16.810	-7.035	1.19	4.13	0.540704	0.803492	-0.279868	-0.2325	-0.5625	0.4155	0	44	453	1
2026-02-19	12:36:16.830	-10.08	-0.945	5.11	0.577304	0.83204	-0.285724	-0.2325	-0.5595	0.4125	0	44	453	1
2026-02-19	12:36:16.850	-14.525	-3.885	10.325	0.594872	0.807152	-0.319396	-0.2355	-0.561	0.411	0	44	453	1
2026-02-19	12:36:16.870	-17.57	-2.03	12.18	0.593896	0.771528	-0.343796	-0.237	-0.5625	0.405	0	44	453	1
2026-02-19	12:36:16.890	-18.83	2.45	11.06	0.594384	0.76616	-0.386252	-0.234	-0.555	0.399	0	44	453	1
2026-02-19	12:36:16.910	-16.975	6.195	7.875	0.601948	0.767624	-0.3599	-0.2415	-0.552	0.4005	0	44	453	1
2026-02-19	12:36:16.930	-14.91	2.45	7.35	0.576816	0.774212	-0.32574	-0.243	-0.5565	0.399	0	44	453	1
2026-02-19	12:36:16.950	-13.685	-0.7	7.14	0.569496	0.761036	-0.341356	-0.2385	-0.555	0.3915	0	44	453	1
2026-02-19	12:36:16.970	-16.03	-1.68	6.685	0.572912	0.783484	-0.323544	-0.2355	-0.555	0.39	0	44	453	1
2026-02-19	12:36:16.990	-16.94	-3.605	5.53	0.54534	0.824476	-0.279136	-0.234	-0.5565	0.3945	0	44	453	1
2026-02-19	12:36:17.010	-11.095	-0.07	-1.505	0.520696	0.825208	-0.268644	-0.2385	-0.5535	0.387	0	51	426	1
2026-02-19	12:36:17.030	-3.43	4.585	-9.94	0.542168	0.765916	-0.302316	-0.237	-0.555	0.3795	0	51	426	1
2026-02-19	12:36:17.050	-2.695	2.555	-11.62	0.546072	0.7137	-0.3477	-0.2385	-0.5535	0.381	0	51	426	1
2026-02-19	12:36:17.070	-8.575	-3.255	-6.79	0.566568	0.672464	-0.364536	-0.24	-0.5505	0.387	0	51	426	1
2026-02-19	12:36:17.090	-15.575	-9.205	1.435	0.568764	0.682468	-0.3477	-0.2325	-0.552	0.381	0	51	426	1
2026-02-19	12:36:17.110	-18.62	-12.285	6.3	0.57096	0.735172	-0.313784	-0.2325	-0.5565	0.384	0	51	426	1
2026-02-19	12:36:17.130	-17.325	-12.6	7.035	0.563396	0.77348	-0.300608	-0.2325	-0.5565	0.384	0	51	426	1
2026-02-19	12:36:17.150	-13.055	-9.275	2.835	0.56364	0.791048	-0.294996	-0.2325	-0.5535	0.369	0	51	426	1
2026-02-19	12:36:17.170	-8.33	-4.55	-2.03	0.545584	0.795928	-0.29402	-0.2445	-0.5445	0.381	0	51	426	1
2026-02-19	12:36:17.190	-4.305	0.315	-4.83	0.551196	0.776164	-0.305976	-0.2385	-0.5595	0.366	0	51	426	1
2026-02-19	12:36:23.210	-3.5	2.52	-3.85	0.560224	0.761524	-0.323788	-0.228	-0.5505	0.3675	0	18	21	2
2026-02-19	12:36:23.230	-5.6	0.42	0.77	0.571448	0.76738	-0.320128	-0.2385	-0.552	0.366	0	18	21	2
2026-02-19	12:36:23.250	-7.315	-3.185	5.215	0.57218	0.801784	-0.288896	-0.234	-0.5535	0.3645	0	18	21	2
2026-02-19	12:36:23.270	-4.935	-3.5	4.41	0.553636	0.816424	-0.258152	-0.234	-0.5445	0.3555	0	18	21	2
2026-02-19	12:36:23.290	1.505	-0.035	-0.98	0.548268	0.797148	-0.268644	-0.234	-0.5505	0.363	0	18	21	2
2026-02-19	12:36:23.310	6.72	3.15	-6.335	0.551684	0.782508	-0.27328	-0.2385	-0.5505	0.3735	0	18	21	2
2026-02-19	12:36:23.330	11.375	4.06	-8.75	0.565104	0.759572	-0.268644	-0.2355	-0.54	0.3615	0	18	21	2
2026-02-19	12:36:23.350	14.665	3.325	-9.135	0.553392	0.73932	-0.260592	-0.2325	-0.546	0.3735	0	18	21	2
2026-02-19	12:36:23.370	-7.105	-3.01	28.35	0.460428	0.717848	-0.52704	-0.1605	-0.534	0.4755	0	18	21	2
2026-02-19	12:36:23.390	-19.075	11.305	22.715	0.427488	0.721508	-0.49898	-0.0975	-0.522	0.5835	0	18	21	2
2026-02-19	12:36:23.410	-21.245	10.395	21.14	0.418948	0.747616	-0.473848	-0.099	-0.5265	0.5835	0	104	109	2
2026-02-19	12:36:23.430	-25.025	4.9	22.47	0.42822	0.807396	-0.468724	-0.105	-0.528	0.5835	0	104	109	2
2026-02-19	12:36:23.450	-31.85	2.45	23.275	0.45262	0.834968	-0.477264	-0.111	-0.531	0.576	0	104	109	2
2026-02-19	12:36:23.470	-43.925	6.37	23.45	0.453108	0.80032	-0.506788	-0.114	-0.5295	0.573	0	104	109	2
2026-02-19	12:36:23.490	-59.115	13.265	23.87	0.483608	0.747616	-0.514352	-0.12	-0.534	0.567	0	104	109	2
2026-02-19	12:36:23.510	-71.575	20.965	22.995	0.50386	0.703696	-0.50508	-0.12	-0.534	0.5505	0	104	109	2
2026-02-19	12:36:23.530	-79.87	25.095	22.505	0.510692	0.69174	-0.474824	-0.1215	-0.5295	0.543	0	104	109	2
2026-02-19	12:36:23.550	-89.74	25.585	25.83	0.51728	0.68442	-0.461648	-0.1215	-0.5295	0.543	0	104	109	2
2026-02-19	12:36:23.570	-96.635	24.325	25.515	0.547292	0.695644	-0.439932	-0.126	-0.5325	0.5205	0	104	109	2
2026-02-19	12:36:23.590	-97.16	23.485	21.63	0.587064	0.727364	-0.412604	-0.1305	-0.5355	0.498	0	104	109	2
2026-02-19	12:36:23.610	-89.6	20.23	10.535	0.621956	0.804712	-0.371124	-0.129	-0.552	0.4845	0	226	221	2
2026-02-19	12:36:23.630	-68.74	20.405	-1.575	0.559004	0.797392	-0.454084	-0.135	-0.537	0.474	0	226	221	2
2026-02-19	12:36:23.650	-46.76	23.03	-14.385	0.546072	0.747128	-0.503616	-0.132	-0.546	0.441	0	226	221	2
2026-02-19	12:36:23.670	-30.765	26.46	-30.45	0.596092	0.77592	-0.485804	-0.135	-0.5415	0.4515	0	226	221	2
2026-02-19	12:36:23.690	-18.235	17.5	-41.755	0.592676	0.750544	-0.464332	-0.1275	-0.5385	0.4395	0	226	221	2
2026-02-19	12:36:23.710	-19.11	0.98	-38.92	0.49532	0.704428	-0.391864	-0.1185	-0.543	0.4305	0	226	221	2
2026-02-19	12:36:23.730	-31.71	-12.215	-25.06	0.46604	0.735172	-0.375272	-0.1125	-0.5355	0.4425	0	226	221	2
2026-02-19	12:36:23.750	-42.07	-23.03	-7.525	0.491416	0.759084	-0.376248	-0.1095	-0.5475	0.432	0	226	221	2
2026-02-19	12:36:23.770	-42.245	-23.87	-1.505	0.594628	0.785436	-0.413336	-0.1065	-0.54	0.417	0	226	221	2
2026-02-19	12:36:23.790	-38.15	-22.82	-7.63	0.610488	0.720532	-0.421144	-0.0975	-0.54	0.4125	0	226	221	2
2026-02-19	12:36:23.810	-38.99	-20.37	-4.83	0.590236	0.706136	-0.356728	-0.102	-0.5415	0.4095	0	316	291	3
2026-02-19	12:36:23.830	-34.615	-12.775	0.945	0.533628	0.688568	-0.29036	-0.102	-0.5325	0.3915	0	316	291	3
2026-02-19	12:36:23.850	-30.905	-2.695	6.195	0.522892	0.70394	-0.278648	-0.1005	-0.54	0.3945	0	316	291	3
2026-02-19	12:36:23.870	-27.965	3.465	9.94	0.533872	0.685152	-0.285236	-0.0975	-0.552	0.3915	0	316	291	3
2026-02-19	12:36:23.890	-24.185	6.755	11.2	0.581696	0.676856	-0.284504	-0.102	-0.537	0.3765	0	316	291	3
2026-02-19	12:36:23.910	-21.21	8.54	11.865	0.664412	0.713212	-0.285724	-0.1005	-0.5355	0.375	0	316	291	3
2026-02-19	12:36:23.930	-11.445	10.01	4.41	0.670756	0.778116	-0.243512	-0.1065	-0.5445	0.378	0	316	291	3
2026-02-19	12:36:23.950	0.315	16.03	-3.36	0.606096	0.823744	-0.195932	-0.0975	-0.534	0.369	0	316	291	3
2026-02-19	12:36:23.970	11.06	19.81	-6.265	0.483364	0.836432	-0.153964	-0.111	-0.5325	0.3675	0	316	291	3
2026-02-19	12:36:23.990	19.67	17.08	-2.695	0.36112	0.822036	-0.15494	-0.108	-0.534	0.372	0	316	291	3
2026-02-19	12:36:24.010	26.81	7.49	0.665	0.274744	0.774456	-0.165676	-0.0945	-0.5385	0.375	0	371	318	2
2026-02-19	12:36:24.030	32.62	-4.655	2.45	0.216428	0.725656	-0.160308	-0.105	-0.5385	0.3825	0	371	318	2
2026-02-19	12:36:24.050	37.59	-16.135	4.165	0.24644	0.756644	-0.146888	-0.1065	-0.543	0.3765	0	371	318	2
2026-02-19	12:36:24.070	40.32	-29.365	4.9	0.27694	0.876204	-0.100772	-0.114	-0.5475	0.3915	0	371	318	2
2026-02-19	12:36:24.090	40.95	-40.81	5.495	0.314272	1.049932	-0.087352	-0.102	-0.5415	0.402	0	371	318	2
2026-02-19	12:36:24.110	37.485	-43.155	1.295	0.380396	1.135332	-0.11468	-0.12	-0.537	0.408	0	371	318	2
2026-02-19	12:36:24.130	28.525	-38.36	-4.445	0.474336	1.084336	-0.147132	-0.102	-0.54	0.4095	0	371	318	2
2026-02-19	12:36:24.150	18.655	-36.33	-5.425	0.535824	0.960384	-0.223748	-0.108	-0.5445	0.4275	0	371	318	2
2026-02-19	12:36:24.170	22.505	-33.075	-2.415	0.683444	0.894504	-0.403088	-0.1065	-0.543	0.426	0	371	318	2
2026-02-19	12:36:24.190	25.095	-24.92	4.76	0.836676	0.892064	-0.52826	-0.1035	-0.537	0.429	0	371	318	2
2026-02-19	12:36:24.210	19.495	-19.04	8.505	0.812276	0.822524	-0.548756	-0.108	-0.54	0.4335	0	397	310	3
2026-02-19	12:36:24.230	21.49	-16.94	4.2	0.576084	0.666608	-0.4392	-0.108	-0.5415	0.444	0	397	310	3
2026-02-19	12:36:24.250	38.955	-7.105	-7.455	0.534116	0.667584	-0.39406	-0.105	-0.5325	0.438	0	397	310	3
2026-02-19	12:36:24.270	38.5	-5.46	-3.815	0.502884	0.661484	-0.36356	-0.1065	-0.5355	0.4485	0	397	310	3
2026-02-19	12:36:24.290	32.305	-9.45	6.685	0.399916	0.644892	-0.3721	-0.1125	-0.537	0.4575	0	397	310	3
2026-02-19	12:36:24.310	33.215	-9.485	11.62	0.392352	0.6832	-0.456524	-0.1065	-0.534	0.4605	0	397	310	3
2026-02-19	12:36:24.330	33.495	-6.265	10.78	0.41968	0.776896	-0.55876	-0.111	-0.54	0.4665	0	397	310	3
2026-02-19	12:36:24.350	30.695	-2.73	5.775	0.454572	0.8601	-0.582672	-0.1125	-0.543	0.477	0	397	310	3
2026-02-19	12:36:24.370	31.78	-3.745	-5.95	0.448472	0.887916	-0.552904	-0.1125	-0.537	0.4695	0	397	310	3
2026-02-19	12:36:24.390	35.07	-4.445	-19.46	0.421876	0.79422	-0.497272	-0.114	-0.54	0.486	0	397	310	3
2026-02-19	12:36:24.410	40.285	-3.115	-24.22	0.468724	0.657824	-0.497272	-0.114	-0.54	0.486	0	402	312	3
2026-02-19	12:36:24.430	37.31	-7.385	-12.81	0.476288	0.608292	-0.522404	-0.114	-0.54	0.486	0	402	312	3
2026-02-19	12:36:24.450	34.86	-10.885	-2.415	0.462136	0.658068	-0.528504	-0.108	-0.537	0.501	0	402	312	3
2026-02-19	12:36:24.470	34.86	-10.99	3.92	0.449936	0.760548	-0.54046	-0.1005	-0.534	0.513	0	402	312	3
2026-02-19	12:36:24.490	35.7	-6.51	1.995	0.467504	0.841068	-0.563396	-0.1005	-0.534	0.513	0	402	312	3
2026-02-19	12:36:24.510	36.995	2.03	-9.765	0.479704	0.837164	-0.556808	-0.108	-0.531	0.519	0	402	312	3
2026-02-19	12:36:24.530	38.675	8.295	-21.315	0.463356	0.786656	-0.54656	-0.111	-0.528	0.525	0	402	312	3
2026-02-19	12:36:24.550	34.58	11.165	-22.155	0.452132	0.747616	-0.568032	-0.108	-0.5265	0.5325	0	402	312	3
2026-02-19	12:36:24.570	28.245	12.11	-18.445	0.397476	0.732244	-0.571936	-0.105	-0.5265	0.537	0	402	312	3
2026-02-19	12:36:24.590	24.255	9.345	-13.02	0.337696	0.747128	-0.566812	-0.099	-0.525	0.5385	0	402	312	3
2026-02-19	12:36:24.610	21.77	6.755	-8.47	0.317444	0.763476	-0.578524	-0.0975	-0.5235	0.5385	0	392	345	3
2026-02-19	12:36:24.630	21.525	6.825	-9.415	0.342332	0.739564	-0.588528	-0.0975	-0.525	0.543	0	392	345	3
2026-02-19	12:36:24.650	21.35	6.37	-10.78	0.360144	0.693204	-0.59292	-0.0975	-0.519	0.549	0	392	345	3
2026-02-19	12:36:24.670	18.515	5.04	-9.625	0.366244	0.661728	-0.580232	-0.0975	-0.519	0.549	0	392	345	3
2026-02-19	12:36:24.690	14.14	2.1	-3.08	0.377468	0.644648	-0.559736	-0.0945	-0.528	0.558	0	392	345	3
2026-02-19	12:36:24.710	4.795	-5.145	12.32	0.321104	0.675636	-0.574864	-0.0945	-0.528	0.5535	0	392	345	3
2026-02-19	12:36:24.730	-12.32	-17.78	32.795	0.405772	0.752252	-0.608536	-0.1005	-0.5235	0.561	0	392	345	3
2026-02-19	12:36:24.750	-18.9	-32.095	34.93	0.447984	0.774212	-0.629032	-0.1035	-0.522	0.567	0	392	345	3
2026-02-19	12:36:24.770	-11.06	-30.695	18.865	0.464332	0.794464	-0.53436	-0.1005	-0.5235	0.555	0	392	345	3
2026-02-19	12:36:24.790	5.145	-21.385	2.66	0.442372	0.824232	-0.49776	-0.1035	-0.519	0.558	0	392	345	3
2026-02-19	12:36:24.810	20.195	-2.24	-15.4	0.447252	0.747372	-0.558516	-0.099	-0.5205	0.561	0	371	397	3
2026-02-19	12:36:24.830	21.42	5.46	-22.225	0.46848	0.671244	-0.581208	-0.099	-0.5205	0.561	0	371	397	3
2026-02-19	12:36:24.850	14.455	6.02	-23.31	0.489464	0.595604	-0.602192	-0.102	-0.5295	0.561	0	371	397	3
2026-02-19	12:36:24.870	1.33	2.205	-13.685	0.486048	0.581696	-0.590236	-0.099	-0.5175	0.5655	0	371	397	3
2026-02-19	12:36:24.890	-13.51	-3.325	5.215	0.439444	0.62708	-0.595848	-0.09	-0.519	0.567	0	371	397	3
2026-02-19	12:36:24.910	-24.5	-11.41	22.89	0.399672	0.671976	-0.599264	-0.0945	-0.5205	0.555	0	371	397	3
2026-02-19	12:36:24.930	-26.705	-19.74	30.205	0.367708	0.748836	-0.561688	-0.096	-0.5265	0.5565	0	371	397	3
2026-02-19	12:36:24.950	-19.985	-23.275	24.605	0.384788	0.793976	-0.518012	-0.0975	-0.5205	0.555	0	371	397	3
2026-02-19	12:36:24.970	-1.96	-8.89	3.15	0.457744	0.755912	-0.515084	-0.1035	-0.5205	0.552	0	371	397	3
2026-02-19	12:36:24.990	11.9	6.51	-13.02	0.424072	0.665876	-0.59658	-0.1065	-0.5205	0.549	0	371	397	3
2026-02-19	12:36:25.010	10.64	4.445	-12.74	0.400892	0.665876	-0.601704	-0.099	-0.522	0.558	0	344	448	3
2026-02-19	12:36:25.030	10.01	-3.115	-8.855	0.443348	0.716628	-0.533872	-0.093	-0.516	0.549	0	344	448	3
2026-02-19	12:36:25.050	9.065	-7.595	-2.205	0.433588	0.75274	-0.51606	-0.1005	-0.5205	0.5565	0	344	448	3
2026-02-19	12:36:25.070	5.425	-0.525	-2.485	0.382104	0.726388	-0.610488	-0.096	-0.5235	0.5625	0	344	448	3
2026-02-19	12:36:25.090	-1.995	7.805	-6.685	0.378688	0.681248	-0.683932	-0.078	-0.525	0.5535	0	344	448	3
2026-02-19	12:36:25.110	-7	3.71	-5.25	0.460428	0.676368	-0.66246	-0.0885	-0.5235	0.5625	0	344	448	3
2026-02-19	12:36:25.130	-4.9	-5.495	1.435	0.495076	0.683688	-0.5734	-0.093	-0.5235	0.5565	0	344	448	3
2026-02-19	12:36:25.150	-5.88	-9.835	10.535	0.436028	0.732976	-0.547048	-0.093	-0.5145	0.5535	0	344	448	3
2026-02-19	12:36:25.170	-8.75	-9.555	15.855	0.415776	0.809348	-0.543632	-0.093	-0.516	0.555	0	344	448	3
2026-02-19	12:36:25.190	-7.385	-14.28	17.115	0.421632	0.856684	-0.513132	-0.09	-0.516	0.555	0	344	448	3
2026-02-19	12:36:25.210	-2.66	-23.52	19.04	0.39528	0.871812	-0.42944	-0.0945	-0.5175	0.5655	0	314	487	3
2026-02-19	12:36:25.230	-1.295	-23.17	20.685	0.3721	0.857904	-0.410896	-0.0975	-0.522	0.5505	0	314	487	3
2026-02-19	12:36:25.250	-0.56	-15.855	16.555	0.39406	0.7991	-0.421876	-0.105	-0.5265	0.5445	0	314	487	3
2026-02-19	12:36:25.270	1.295	-14.42	14.105	0.440664	0.748348	-0.461404	-0.1065	-0.516	0.552	0	314	487	3
2026-02-19	12:36:25.290	0.455	-20.79	18.655	0.42456	0.74298	-0.44774	-0.108	-0.525	0.558	0	314	487	3
2026-02-19	12:36:25.310	-2.66	-26.145	24.885	0.368928	0.77348	-0.40382	-0.1095	-0.513	0.5535	0	314	487	3
2026-02-19	12:36:25.330	-3.22	-25.34	26.04	0.359168	0.791048	-0.387228	-0.1065	-0.5145	0.546	0	314	487	3
2026-02-19	12:36:25.350	-1.925	-16.87	20.23	0.364292	0.793976	-0.416752	-0.1005	-0.516	0.558	0	314	487	3
2026-02-19	12:36:25.370	-4.935	-14.77	19.32	0.37454	0.823012	-0.431636	-0.114	-0.5145	0.555	0	314	487	3
2026-02-19	12:36:25.390	-12.25	-15.54	23.555	0.355752	0.893284	-0.442616	-0.1095	-0.519	0.552	0	314	487	3
2026-02-19	12:36:25.410	-21.07	-7.14	22.68	0.382592	0.954284	-0.471896	-0.114	-0.519	0.5655	0	284	504	3
2026-02-19	12:36:25.430	-28.595	6.125	14.91	0.498004	0.93818	-0.492148	-0.111	-0.516	0.549	0	284	504	3
2026-02-19	12:36:25.450	-39.13	14.455	9.73	0.578768	0.914756	-0.534604	-0.111	-0.5115	0.546	0	284	504	3
2026-02-19	12:36:25.470	-58.24	19.845	11.34	0.598288	0.90768	-0.562176	-0.1245	-0.516	0.5415	0	284	504	3
2026-02-19	12:36:25.490	-81.27	25.41	13.055	0.556076	0.816912	-0.600972	-0.117	-0.5115	0.5325	0	284	504	3
2026-02-19	12:36:25.510	-99.925	32.62	12.635	0.582184	0.6954	-0.60756	-0.1155	-0.507	0.522	0	284	504	3
2026-02-19	12:36:25.530	-110.39	53.41	9.8	0.712968	0.673928	-0.475068	-0.1185	-0.5235	0.5055	0	284	504	3
2026-02-19	12:36:25.550	-96.915	81.095	-8.295	0.75884	0.80398	-0.494344	-0.1185	-0.5235	0.5055	0	284	504	3
2026-02-19	12:36:25.570	-64.365	105.21	-37.87	0.847656	0.831552	-0.5856	-0.1215	-0.5205	0.4845	0	284	504	3
2026-02-19	12:36:25.590	-47.355	88.06	-42	0.708332	0.826916	-0.65758	-0.1215	-0.5175	0.4485	0	284	504	3
2026-02-19	12:36:25.610	-45.465	65.59	-43.54	0.547292	0.950136	-0.591944	-0.1125	-0.513	0.4335	0	259	508	3
2026-02-19	12:36:25.630	-32.165	47.845	-44.87	0.469212	0.8723	-0.613172	-0.1095	-0.5145	0.4275	0	259	508	3
2026-02-19	12:36:25.650	-39.445	18.97	-25.305	0.332572	0.7015	-0.561932	-0.108	-0.5175	0.42	0	259	508	3
2026-02-19	12:36:25.670	-56.595	2.03	-1.4	0.304756	0.62464	-0.396256	-0.1065	-0.516	0.417	0	259	508	3
2026-02-19	12:36:25.690	-70.805	-1.855	13.79	0.343308	0.597312	-0.319884	-0.0975	-0.507	0.396	0	259	508	3
2026-02-19	12:36:25.710	-77.595	-5.355	26.145	0.44652	0.622932	-0.30134	-0.0975	-0.5115	0.3915	0	259	508	3
2026-02-19	12:36:25.730	-77.14	-6.09	29.925	0.509716	0.63928	-0.29158	-0.0975	-0.5115	0.3915	0	259	508	3
2026-02-19	12:36:25.750	-66.675	-7.84	30.38	0.542656	0.64904	-0.264496	-0.1065	-0.507	0.3705	0	259	508	3
2026-02-19	12:36:25.770	-49.315	-8.085	25.48	0.55876	0.64538	-0.251564	-0.108	-0.501	0.363	0	259	508	3
2026-02-19	12:36:25.790	-36.68	-7.385	20.23	0.556076	0.665632	-0.26352	-0.108	-0.501	0.36	0	259	508	3
2026-02-19	12:36:25.810	-25.515	-6.125	16.205	0.556564	0.66978	-0.271328	-0.1245	-0.5025	0.3555	0	241	501	3
2026-02-19	12:36:25.830	-9.45	-3.22	10.15	0.562664	0.65148	-0.21838	-0.111	-0.4965	0.3465	0	241	501	3
2026-02-19	12:36:25.850	3.885	1.365	2.485	0.537044	0.643916	-0.188124	-0.126	-0.4995	0.3435	0	241	501	3
2026-02-19	12:36:25.870	18.935	3.605	-3.08	0.488976	0.653188	-0.136884	-0.12	-0.501	0.3435	0	241	501	3
2026-02-19	12:36:25.890	32.27	2.415	-3.29	0.453108	0.676612	-0.11834	-0.12	-0.495	0.348	0	241	501	3
2026-02-19	12:36:25.910	40.495	-1.715	1.47	0.42334	0.681248	-0.09076799	-0.126	-0.504	0.354	0	241	501	3
2026-02-19	12:36:25.930	48.755	-7.665	8.995	0.4087	0.75396	-0.09028	-0.126	-0.513	0.3585	0	241	501	3
2026-02-19	12:36:25.950	58.905	-16.765	12.355	0.393572	0.843996	-0.109556	-0.1275	-0.4995	0.366	0	241	501	3
2026-02-19	12:36:25.970	70.42	-23.065	9.59	0.4514	0.908412	-0.127856	-0.1305	-0.507	0.3795	0	241	501	3
2026-02-19	12:36:25.990	77.28	-27.545	1.645	0.542412	0.971364	-0.102724	-0.1365	-0.507	0.3885	0	241	501	3
2026-02-19	12:36:26.010	71.295	-25.41	-5.11	0.512156	1.100684	-0.084424	-0.1275	-0.513	0.399	0	230	462	3
2026-02-19	12:36:26.030	58.45	-11.655	-17.85	0.501908	1.23586	-0.208132	-0.1365	-0.513	0.408	0	230	462	3
2026-02-19	12:36:26.050	60.69	8.12	-31.605	0.682468	1.217072	-0.496296	-0.1365	-0.5085	0.42	0	230	462	3
2026-02-19	12:36:26.070	62.86	15.75	-37.275	0.669536	0.91866	-0.548756	-0.1245	-0.507	0.4305	0	230	462	3
2026-02-19	12:36:26.090	42.385	2.695	-33.32	0.491172	0.662948	-0.454084	-0.135	-0.5115	0.444	0	230	462	3
2026-02-19	12:36:26.110	55.51	-2.66	-26.74	0.357216	0.373076	-0.423096	-0.1215	-0.507	0.4485	0	230	462	3
2026-02-19	12:36:26.130	85.015	7.665	-20.195	0.40992	0.445788	-0.41114	-0.1155	-0.513	0.4605	0	230	462	3
2026-02-19	12:36:26.150	87.08	8.33	-4.305	0.524112	0.63196	-0.373564	-0.1215	-0.522	0.471	0	230	462	3
2026-02-19	12:36:26.170	63.56	-11.165	16.415	0.526308	0.76006	-0.334524	-0.1215	-0.5055	0.4845	0	230	462	3
2026-02-19	12:36:26.190	44.555	-22.47	26.145	0.478484	0.847656	-0.417972	-0.1245	-0.5055	0.4875	0	230	462	3
2026-02-19	12:36:26.210	43.68	-15.855	17.71	0.518256	0.918416	-0.606096	-0.129	-0.5085	0.495	0	227	417	3
2026-02-19	12:36:26.230	44.24	-10.08	5.565	0.544852	0.930372	-0.671976	-0.129	-0.507	0.504	0	227	417	3
2026-02-19	12:36:26.250	43.085	-6.615	-6.65	0.561932	0.89548	-0.586576	-0.129	-0.4965	0.51	0	227	417	3
2026-02-19	12:36:26.270	40.495	-2.835	-16.695	0.529724	0.85522	-0.472384	-0.132	-0.495	0.5205	0	227	417	3
2026-02-19	12:36:26.290	33.705	1.855	-21.77	0.50142	0.836188	-0.420656	-0.129	-0.5025	0.5265	0	227	417	3
2026-02-19	12:36:26.310	25.06	6.44	-22.995	0.453596	0.760792	-0.418948	-0.1215	-0.498	0.528	0	227	417	3
2026-02-19	12:36:26.330	21.945	7.14	-20.02	0.421144	0.669292	-0.456524	-0.123	-0.504	0.5325	0	227	417	3
2026-02-19	12:36:26.350	24.465	7.14	-16.31	0.437248	0.592676	-0.513376	-0.129	-0.4965	0.5325	0	227	417	3
2026-02-19	12:36:26.370	25.865	4.305	-10.43	0.452864	0.597556	-0.54534	-0.1155	-0.498	0.5325	0	227	417	3
2026-02-19	12:36:26.390	24.955	0.77	-2.24	0.423584	0.662948	-0.552416	-0.117	-0.4965	0.5445	0	227	417	3
2026-02-19	12:36:26.410	28.56	2.485	-1.085	0.40016	0.74908	-0.593896	-0.1155	-0.4965	0.5445	0	228	407	3
2026-02-19	12:36:26.430	34.65	4.095	-6.44	0.414068	0.79056	-0.62708	-0.126	-0.4935	0.549	0	228	407	3
2026-02-19	12:36:26.450	39.13	1.4	-12.67	0.407236	0.789096	-0.587552	-0.1185	-0.489	0.5445	0	228	407	3
2026-02-19	12:36:26.470	39.095	-1.435	-14.28	0.400648	0.745908	-0.5612	-0.1185	-0.4965	0.558	0	228	407	3
2026-02-19	12:36:26.490	24.605	-7.455	-4.445	0.443348	0.723216	-0.562908	-0.12	-0.489	0.558	0	228	407	3
2026-02-19	12:36:26.510	6.65	-16.38	6.93	0.508496	0.726876	-0.580964	-0.126	-0.4905	0.5715	0	228	407	3
2026-02-19	12:36:26.530	2.31	-14.105	6.51	0.482388	0.697596	-0.549976	-0.1155	-0.4965	0.576	0	228	407	3
2026-02-19	12:36:26.550	3.64	-8.085	6.125	0.415288	0.709064	-0.52216	-0.12	-0.4935	0.5685	0	228	407	3
2026-02-19	12:36:26.570	5.39	-9.1	8.19	0.325496	0.729072	-0.541192	-0.114	-0.489	0.573	0	228	407	3
2026-02-19	12:36:26.590	5.74	-13.51	8.12	0.326472	0.756644	-0.578524	-0.1155	-0.489	0.579	0	228	407	3
2026-02-19	12:36:26.610	9.45	-13.825	-0.245	0.364292	0.684176	-0.6588	-0.123	-0.489	0.5745	0	229	430	3
2026-02-19	12:36:26.630	9.94	-12.6	-7.035	0.474336	0.612928	-0.672708	-0.1185	-0.489	0.567	0	229	430	3
2026-02-19	12:36:26.650	8.19	-13.125	-7.245	0.53924	0.576572	-0.660264	-0.1155	-0.4905	0.5745	0	229	430	3
2026-02-19	12:36:26.670	4.445	-13.545	-0.735	0.548756	0.591456	-0.650016	-0.117	-0.489	0.5775	0	229	430	3
2026-02-19	12:36:26.690	-0.735	-12.845	4.97	0.51606	0.622688	-0.610976	-0.1185	-0.486	0.576	0	229	430	3
2026-02-19	12:36:26.710	-1.295	-8.785	4.69	0.44652	0.620492	-0.599264	-0.1185	-0.486	0.576	0	229	430	3
2026-02-19	12:36:26.730	-1.82	-5.39	4.725	0.416996	0.637816	-0.598288	-0.1185	-0.486	0.576	0	229	430	3
2026-02-19	12:36:26.750	0.035	-2.38	1.05	0.415532	0.66612	-0.626836	-0.1185	-0.486	0.576	0	229	430	3
2026-02-19	12:36:26.770	-0.7	-5.215	-0.455	0.407236	0.7076	-0.6344	-0.1185	-0.486	0.576	0	229	430	3
2026-02-19	12:36:26.790	-8.33	-12.46	2.625	0.388692	0.781532	-0.5429	-0.126	-0.486	0.5775	0	229	430	3
2026-02-19	12:36:26.810	-9.835	-15.085	2.59	0.357216	0.810812	-0.512888	-0.126	-0.486	0.5775	0	227	469	1
2026-02-19	12:36:26.830	-3.99	-14.875	-3.92	0.302072	0.833748	-0.498736	-0.117	-0.4905	0.573	0	227	469	1
2026-02-19	12:36:26.850	7.84	-7.595	-16.205	0.322812	0.80764	-0.526308	-0.1185	-0.4845	0.573	0	227	469	1
2026-02-19	12:36:26.870	15.05	-4.725	-23.135	0.3416	0.704672	-0.574376	-0.111	-0.492	0.573	0	227	469	1
2026-02-19	12:36:26.890	16.59	-8.855	-19.88	0.38918	0.656116	-0.621224	-0.1095	-0.48	0.576	0	227	469	1
2026-02-19	12:36:26.910	12.635	-13.755	-12.005	0.455548	0.656604	-0.579744	-0.1095	-0.4845	0.5775	0	227	469	1
2026-02-19	12:36:26.930	8.785	-13.16	-5.53	0.496052	0.699304	-0.488732	-0.0975	-0.4875	0.5775	0	227	469	1
2026-02-19	12:36:26.950	13.405	-9.765	-2.065	0.450668	0.72956	-0.477264	-0.1095	-0.492	0.582	0	227	469	1
2026-02-19	12:36:26.970	20.02	2.03	-4.69	0.419192	0.737368	-0.523624	-0.1065	-0.4815	0.582	0	227	469	1
2026-02-19	12:36:26.990	24.5	6.475	-2.87	0.430904	0.771528	-0.566324	-0.096	-0.486	0.5895	0	227	469	1
2026-02-19	12:36:27.010	24.5	1.575	6.37	0.449692	0.836676	-0.537288	-0.102	-0.4845	0.5835	0	222	504	1
2026-02-19	12:36:27.030	25.655	-3.605	12.81	0.408456	0.873032	-0.473116	-0.105	-0.4905	0.591	0	222	504	1
2026-02-19	12:36:27.050	25.865	0.28	11.41	0.35014	0.855952	-0.431392	-0.111	-0.4845	0.6	0	222	504	1
2026-02-19	12:36:27.070	20.3	6.93	7.455	0.32818	0.842776	-0.469944	-0.1035	-0.483	0.5985	0	222	504	1
2026-02-19	12:36:27.090	9.695	5.145	11.235	0.299388	0.879864	-0.659532	-0.114	-0.4755	0.603	0	222	504	1
2026-02-19	12:36:27.110	-8.96	1.505	18.48	0.392108	1.013332	-0.894504	-0.12	-0.477	0.6	0	222	504	1
2026-02-19	12:36:27.130	-36.085	-5.6	18.865	0.518012	1.01748	-0.753472	-0.114	-0.477	0.6	0	222	504	1
2026-02-19	12:36:27.150	-49.105	-5.705	13.02	0.567544	0.800076	-0.533872	-0.1155	-0.4875	0.6	0	222	504	1
2026-02-19	12:36:27.170	-65.555	7.56	12.46	0.588772	0.626348	-0.470432	-0.123	-0.4815	0.5955	0	222	504	1
2026-02-19	12:36:27.190	-86.73	27.405	16.59	0.567544	0.596824	-0.506788	-0.126	-0.483	0.579	0	222	504	1
2026-02-19	12:36:27.210	-104.895	59.535	17.85	0.586576	0.636596	-0.500688	-0.12	-0.4905	0.5715	0	216	528	3
2026-02-19	12:36:27.230	-111.685	91.035	12.04	0.604144	0.750788	-0.536556	-0.132	-0.501	0.546	0	216	528	3
2026-02-19	12:36:27.250	-108.605	108.745	-3.92	0.578768	0.827648	-0.54046	-0.138	-0.51	0.5175	0	216	528	3
2026-02-19	12:36:27.270	-96.46	111.965	-22.085	0.489464	0.83448	-0.602436	-0.1425	-0.507	0.5025	0	216	528	3
2026-02-19	12:36:27.290	-78.26	110.74	-35.875	0.430904	0.73322	-0.753716	-0.1395	-0.5055	0.489	0	216	528	3
2026-02-19	12:36:27.310	-64.96	81.165	-26.495	0.477264	0.701256	-0.7869	-0.138	-0.51	0.468	0	216	528	3
2026-02-19	12:36:27.330	-79.66	33.67	0.525	0.4331	0.826916	-0.627812	-0.141	-0.507	0.4545	0	216	528	3
2026-02-19	12:36:27.350	-89.425	15.715	12.075	0.476288	0.837164	-0.500932	-0.138	-0.5175	0.444	0	216	528	3
2026-02-19	12:36:27.370	-92.61	-1.225	17.955	0.516548	0.75152	-0.480192	-0.1365	-0.501	0.4215	0	216	528	3
2026-02-19	12:36:27.390	-104.545	-12.285	26.355	0.547536	0.731024	-0.321836	-0.1395	-0.504	0.408	0	216	528	3
2026-02-19	12:36:27.410	-99.4	-13.86	22.505	0.543876	0.707844	-0.276696	-0.141	-0.5025	0.399	0	209	541	3
2026-02-19	12:36:27.430	-79.975	-15.155	10.5	0.512156	0.659776	-0.216428	-0.138	-0.5025	0.375	0	209	541	3
2026-02-19	12:36:27.450	-58.52	-20.195	4.69	0.496052	0.621712	-0.210816	-0.1395	-0.4965	0.3585	0	209	541	3
2026-02-19	12:36:27.470	-41.86	-23.8	2.59	0.497028	0.626836	-0.219356	-0.147	-0.5025	0.3615	0	209	541	3
2026-02-19	12:36:27.490	-23.905	-26.985	0.07	0.493368	0.611708	-0.199836	-0.1455	-0.5025	0.3465	0	209	541	3
2026-02-19	12:36:27.510	-9.03	-26.915	-3.29	0.49044	0.58072	-0.172752	-0.1545	-0.5025	0.3465	0	209	541	3
2026-02-19	12:36:27.530	12.355	-23.87	-7.175	0.502152	0.556808	-0.13786	-0.1455	-0.4935	0.3435	0	209	541	3
2026-02-19	12:36:27.550	32.06	-21.875	-8.4	0.5002	0.566812	-0.133468	-0.141	-0.4995	0.3525	0	209	541	3
2026-02-19	12:36:27.570	47.635	-22.155	-4.62	0.463844	0.585356	-0.127368	-0.1425	-0.5055	0.3525	0	209	541	3
2026-02-19	12:36:27.590	58.73	-27.72	2.52	0.415044	0.632692	-0.099308	-0.141	-0.507	0.369	0	209	541	3
2026-02-19	12:36:27.610	64.505	-28.7	8.505	0.369904	0.706624	-0.05856	-0.1455	-0.5055	0.3705	0	206	518	3
2026-02-19	12:36:27.630	75.25	-23.415	10.15	0.420168	0.92964	-0.149572	-0.153	-0.504	0.3825	0	206	518	3
2026-02-19	12:36:27.650	88.48	-24.955	2.835	0.559492	1.129476	-0.347212	-0.1605	-0.516	0.393	0	206	518	3
2026-02-19	12:36:27.670	80.85	-17.01	-5.985	0.695156	1.253916	-0.3416	-0.153	-0.5085	0.4035	0	206	518	3
2026-02-19	12:36:27.690	46.445	-8.33	-17.64	0.60634	1.358104	-0.26718	-0.1605	-0.516	0.429	0	206	518	3
2026-02-19	12:36:27.710	30.52	14.245	-34.405	0.5978	1.19316	-0.309148	-0.15	-0.519	0.438	0	206	518	3
2026-02-19	12:36:27.730	20.545	28.385	-42.91	0.578036	0.638792	-0.351848	-0.1485	-0.5115	0.429	0	206	518	3
2026-02-19	12:36:27.750	29.26	9.065	-26.425	0.578768	0.296704	-0.441152	-0.141	-0.5205	0.4425	0	206	518	3
2026-02-19	12:36:27.770	56.7	-14.945	-1.365	0.505568	0.324764	-0.527772	-0.141	-0.5115	0.4425	0	206	518	3
2026-02-19	12:36:27.790	64.68	-12.845	20.23	0.48068	0.560224	-0.49166	-0.1365	-0.5145	0.447	0	206	518	3
2026-02-19	12:36:27.810	60.97	-7.56	27.755	0.488488	0.801052	-0.4148	-0.153	-0.51	0.4545	0	208	468	3
2026-02-19	12:36:27.830	51.31	-16.065	33.53	0.399428	0.91134	-0.474824	-0.1515	-0.51	0.4635	0	208	468	3
2026-02-19	12:36:27.850	41.545	-18.515	21.28	0.37454	0.979416	-0.537532	-0.1515	-0.51	0.474	0	208	468	3
2026-02-19	12:36:27.870	44.835	-10.43	3.92	0.466284	0.947452	-0.5612	-0.1515	-0.5115	0.474	0	208	468	3
2026-02-19	12:36:27.890	48.58	-3.185	-10.185	0.546072	0.873276	-0.606828	-0.1515	-0.5115	0.474	0	208	468	3
2026-02-19	12:36:27.910	39.655	-1.33	-13.16	0.563884	0.852292	-0.567056	-0.1515	-0.5115	0.474	0	208	468	3
2026-02-19	12:36:27.930	24.29	-5.67	-6.86	0.582428	0.854732	-0.502396	-0.1515	-0.5115	0.474	0	208	468	3
2026-02-19	12:36:27.950	16.8	-9.555	-6.755	0.513132	0.804956	-0.410164	-0.1575	-0.51	0.5145	0	208	468	3
2026-02-19	12:36:27.970	14.315	-7.07	-4.06	0.443836	0.785192	-0.395768	-0.1515	-0.51	0.5115	0	208	468	3
2026-02-19	12:36:27.990	18.69	0.875	-4.585	0.367464	0.694424	-0.487268	-0.1545	-0.5055	0.5175	0	208	468	3
2026-02-19	12:36:28.010	27.335	1.4	-6.825	0.393328	0.620248	-0.564372	-0.1545	-0.5055	0.5175	0	214	442	3
2026-02-19	12:36:28.030	23.625	-4.795	-4.375	0.43188	0.648796	-0.538752	-0.1455	-0.501	0.519	0	214	442	3
2026-02-19	12:36:28.050	15.505	-14.665	2.345	0.455792	0.719312	-0.498004	-0.153	-0.504	0.531	0	214	442	3
2026-02-19	12:36:28.070	10.36	-17.465	7.63	0.453596	0.803248	-0.466528	-0.1545	-0.513	0.522	0	214	442	3
2026-02-19	12:36:28.090	9.03	-14	8.505	0.443104	0.818376	-0.51118	-0.153	-0.5085	0.5265	0	214	442	3
2026-02-19	12:36:28.110	7.875	-10.15	6.335	0.434808	0.743468	-0.563884	-0.153	-0.5025	0.5325	0	214	442	3
2026-02-19	12:36:28.130	7.035	-10.5	4.69	0.433832	0.65148	-0.57218	-0.1605	-0.495	0.534	0	214	442	3
2026-02-19	12:36:28.150	4.62	-14.42	7.98	0.449936	0.657824	-0.551684	-0.1545	-0.507	0.528	0	214	442	3
2026-02-19	12:36:28.170	3.115	-15.085	9.52	0.4819	0.731756	-0.548756	-0.159	-0.51	0.531	0	214	442	3
2026-02-19	12:36:28.190	2.905	-11.27	5.075	0.532896	0.772504	-0.56486	-0.156	-0.5085	0.534	0	214	442	3
2026-02-19	12:36:28.210	3.745	-5.075	-4.48	0.536312	0.721264	-0.568764	-0.156	-0.4965	0.5265	0	218	447	3
2026-02-19	12:36:28.230	1.61	-1.575	-10.08	0.518012	0.679784	-0.55876	-0.159	-0.5115	0.54	0	218	447	3
2026-02-19	12:36:28.250	-3.92	-3.92	-6.58	0.470432	0.660264	-0.560956	-0.1515	-0.507	0.534	0	218	447	3
2026-02-19	12:36:28.270	-9.87	-6.895	0.665	0.443104	0.680516	-0.53924	-0.1515	-0.504	0.5295	0	218	447	3
2026-02-19	12:36:28.290	-13.65	-9.1	6.055	0.432612	0.707356	-0.548512	-0.153	-0.513	0.537	0	218	447	3
2026-02-19	12:36:28.310	-14.77	-13.195	8.19	0.432612	0.681004	-0.547292	-0.1545	-0.5145	0.5295	0	218	447	3
2026-02-19	12:36:28.330	-16.17	-16.73	9.835	0.452376	0.68808	-0.508252	-0.147	-0.504	0.5235	0	218	447	3
2026-02-19	12:36:28.350	-12.18	-18.62	9.975	0.446764	0.687592	-0.4758	-0.1605	-0.507	0.531	0	218	447	3
2026-02-19	12:36:28.370	-1.855	-19.565	7.91	0.428952	0.679296	-0.500932	-0.1575	-0.5145	0.528	0	218	447	3
2026-02-19	12:36:28.390	7.105	-24.815	8.47	0.434076	0.68564	-0.537532	-0.1485	-0.5055	0.5235	0	218	447	3
2026-02-19	12:36:28.410	11.095	-29.435	7.49	0.432612	0.72224	-0.549244	-0.15	-0.513	0.534	0	218	468	3
2026-02-19	12:36:28.430	14.14	-28.49	4.515	0.428708	0.762988	-0.512644	-0.1545	-0.5145	0.534	0	218	468	3
2026-02-19	12:36:28.450	19.04	-19.25	-1.47	0.416508	0.773724	-0.5124	-0.15	-0.516	0.5235	0	218	468	3
2026-02-19	12:36:28.470	24.57	-10.43	-7.84	0.391864	0.708332	-0.539972	-0.15	-0.5115	0.5355	0	218	468	3
2026-02-19	12:36:28.490	21.98	-9.065	-8.54	0.427976	0.71004	-0.579256	-0.153	-0.51	0.537	0	218	468	3
2026-02-19	12:36:28.510	19.495	-12.39	-6.86	0.437492	0.726144	-0.571448	-0.147	-0.5085	0.534	0	218	468	3
2026-02-19	12:36:28.530	14.385	-17.43	-3.29	0.42578	0.756644	-0.563152	-0.1455	-0.501	0.54	0	218	468	3
2026-02-19	12:36:28.550	5.25	-16.065	-1.96	0.433344	0.78568	-0.497028	-0.1545	-0.504	0.552	0	218	468	3
2026-02-19	12:36:28.570	4.515	-7.595	-5.915	0.4575	0.804712	-0.482388	-0.1455	-0.5025	0.5475	0	218	468	3
2026-02-19	12:36:28.590	7.14	0.105	-9.17	0.453352	0.774944	-0.508984	-0.1455	-0.51	0.549	0	218	468	3
2026-02-19	12:36:28.610	10.57	5.81	-11.305	0.413336	0.722484	-0.5429	-0.1485	-0.5115	0.543	0	212	491	3
2026-02-19	12:36:28.630	15.19	7.595	-10.185	0.396988	0.679052	-0.572668	-0.15	-0.504	0.5565	0	212	491	3
2026-02-19	12:36:28.650	13.825	0.7	-1.61	0.397964	0.706868	-0.542656	-0.1455	-0.5145	0.5505	0	212	491	3
2026-02-19	12:36:28.670	14.105	-4.9	3.745	0.40992	0.759816	-0.499468	-0.138	-0.51	0.5595	0	212	491	3
2026-02-19	12:36:28.690	15.47	-6.79	4.305	0.384788	0.732	-0.466528	-0.1365	-0.501	0.555	0	212	491	3
2026-02-19	12:36:28.710	15.68	-6.615	4.83	0.357704	0.725168	-0.526308	-0.1455	-0.51	0.5655	0	212	491	3
2026-02-19	12:36:28.730	12.67	0.7	3.36	0.434564	0.723704	-0.551196	-0.15	-0.5145	0.5625	0	212	491	3
2026-02-19	12:36:28.750	9.17	3.57	3.15	0.494588	0.73322	-0.523136	-0.1455	-0.5025	0.558	0	212	491	3
2026-02-19	12:36:28.770	4.06	5.775	2.87	0.500932	0.791292	-0.43676	-0.15	-0.504	0.567	0	212	491	3
2026-02-19	12:36:28.790	3.605	6.09	3.955	0.49288	0.877424	-0.479704	-0.1515	-0.516	0.5685	0	212	491	3
2026-02-19	12:36:28.810	2.45	6.44	8.645	0.473604	1.048956	-0.682468	-0.1395	-0.5055	0.567	0	202	508	3
2026-02-19	12:36:28.830	-4.9	16.485	5.355	0.46116	1.093608	-0.760792	-0.1515	-0.507	0.5595	0	202	508	3
2026-02-19	12:36:28.850	-14.63	25.76	-4.97	0.496784	0.951112	-0.638304	-0.153	-0.5115	0.5715	0	202	508	3
2026-02-19	12:36:28.870	-27.825	28.07	-4.76	0.545096	0.797636	-0.559492	-0.156	-0.504	0.561	0	202	508	3
2026-02-19	12:36:28.890	-53.06	27.72	9.38	0.550952	0.714676	-0.507276	-0.147	-0.5025	0.561	0	202	508	3
2026-02-19	12:36:28.910	-74.41	33.635	17.29	0.519476	0.637816	-0.463844	-0.147	-0.5025	0.561	0	202	508	3
2026-02-19	12:36:28.930	-85.575	53.725	13.055	0.542412	0.585112	-0.476288	-0.15	-0.507	0.549	0	202	508	3
2026-02-19	12:36:28.950	-87.395	67.795	8.33	0.574132	0.58682	-0.506788	-0.153	-0.5115	0.5385	0	202	508	3
2026-02-19	12:36:28.970	-83.86	90.335	-3.045	0.663436	0.681004	-0.567788	-0.156	-0.513	0.5235	0	202	508	3
2026-02-19	12:36:28.990	-81.235	94.99	-12.53	0.655384	0.810324	-0.541436	-0.1635	-0.5175	0.495	0	202	508	3
2026-02-19	12:36:29.010	-71.47	88.06	-20.685	0.568032	0.832772	-0.483608	-0.1635	-0.522	0.4755	0	191	521	3
2026-02-19	12:36:29.030	-54.04	81.235	-29.365	0.46848	0.829356	-0.488732	-0.162	-0.5295	0.4605	0	191	521	3
2026-02-19	12:36:29.050	-37.03	68.11	-29.05	0.402844	0.762988	-0.61366	-0.162	-0.534	0.453	0	191	521	3
2026-02-19	12:36:29.070	-46.06	48.23	-18.69	0.377468	0.809592	-0.559004	-0.162	-0.534	0.453	0	191	521	3
2026-02-19	12:36:29.090	-57.47	32.655	-8.19	0.3782	0.738832	-0.480436	-0.162	-0.534	0.453	0	191	521	3
2026-02-19	12:36:29.110	-66.99	16.24	2.45	0.462624	0.679052	-0.415776	-0.1455	-0.5265	0.4095	0	191	521	3
2026-02-19	12:36:29.130	-72.065	-6.265	17.99	0.541192	0.651968	-0.345748	-0.1455	-0.534	0.396	0	191	521	3
2026-02-19	12:36:29.150	-72.275	-20.16	25.655	0.577304	0.687104	-0.249612	-0.15	-0.5235	0.3825	0	191	521	3
2026-02-19	12:36:29.170	-63.84	-22.19	21.175	0.555832	0.726388	-0.22448	-0.1455	-0.519	0.369	0	191	521	3
2026-02-19	12:36:29.190	-48.405	-21.28	12.46	0.546072	0.742004	-0.189832	-0.156	-0.531	0.366	0	191	521	3
2026-02-19	12:36:29.210	-31.325	-20.65	3.5	0.5246	0.720288	-0.212036	-0.153	-0.5145	0.36	0	182	519	3
2026-02-19	12:36:29.230	-19.705	-18.165	-3.535	0.523136	0.698328	-0.250588	-0.1455	-0.5175	0.3525	0	182	519	3
2026-02-19	12:36:29.250	-12.145	-15.33	-6.02	0.537044	0.687592	-0.221796	-0.1605	-0.528	0.354	0	182	519	3
2026-02-19	12:36:29.270	-6.58	-12.285	-5.39	0.562664	0.70394	-0.221064	-0.153	-0.5175	0.3495	0	182	519	3
2026-02-19	12:36:29.290	0.42	-7.98	-4.9	0.591944	0.712724	-0.199836	-0.153	-0.5175	0.3465	0	182	519	3
2026-02-19	12:36:29.310	6.3	-8.26	-0.945	0.57584	0.727364	-0.16348	-0.1545	-0.525	0.345	0	182	519	3
2026-02-19	12:36:29.330	12.985	-8.75	4.725	0.542168	0.735904	-0.155184	-0.159	-0.522	0.357	0	182	519	3
2026-02-19	12:36:29.350	17.955	-8.855	8.575	0.502396	0.742492	-0.159576	-0.153	-0.519	0.3495	0	182	519	3
2026-02-19	12:36:29.370	22.54	-10.885	8.995	0.451156	0.745176	-0.169336	-0.1545	-0.5205	0.3675	0	182	519	3
2026-02-19	12:36:29.390	30.94	-12.845	6.545	0.432856	0.754448	-0.171044	-0.159	-0.534	0.3675	0	182	519	3
2026-02-19	12:36:29.410	42.21	-14.84	2.17	0.437736	0.769332	-0.157624	-0.162	-0.531	0.3645	0	176	481	1
2026-02-19	12:36:29.430	53.2	-19.25	-2.485	0.43676	0.79788	-0.135908	-0.171	-0.519	0.381	0	176	481	1
2026-02-19	12:36:29.450	63.035	-23.24	-5.81	0.46238	0.870104	-0.121756	-0.162	-0.522	0.3885	0	176	481	1
2026-02-19	12:36:29.470	67.235	-26.88	-7.315	0.465064	0.989908	-0.104432	-0.1605	-0.5325	0.3945	0	176	481	1
2026-02-19	12:36:29.490	63.56	-22.68	-10.71	0.455304	1.111664	-0.087108	-0.1635	-0.531	0.4155	0	176	481	1
2026-02-19	12:36:29.510	54.075	-9.065	-20.475	0.464576	1.118252	-0.116144	-0.162	-0.5355	0.4185	0	176	481	1
2026-02-19	12:36:29.530	46.83	5.145	-28.98	0.596824	0.981124	-0.276696	-0.1575	-0.528	0.4215	0	176	481	1
2026-02-19	12:36:29.550	41.405	6.09	-24.99	0.809348	0.864736	-0.478484	-0.1605	-0.5295	0.435	0	176	481	1
2026-02-19	12:36:29.570	28.28	-5.04	-9.485	0.815448	0.717848	-0.51728	-0.153	-0.5385	0.441	0	176	481	1
2026-02-19	12:36:29.590	17.08	-21.14	8.505	0.62342	0.626836	-0.441884	-0.15	-0.537	0.4455	0	176	481	1
2026-02-19	12:36:29.610	23.765	-22.435	8.855	0.445056	0.653676	-0.427976	-0.15	-0.5295	0.444	0	175	424	3
2026-02-19	12:36:29.630	47.04	-4.9	-2.135	0.448228	0.707356	-0.480192	-0.156	-0.54	0.45	0	175	424	3
2026-02-19	12:36:29.650	56.175	7.21	-14.42	0.525332	0.723948	-0.502884	-0.1455	-0.531	0.4485	0	175	424	3
2026-02-19	12:36:29.670	53.41	6.79	-19.075	0.554856	0.698572	-0.509228	-0.1515	-0.5205	0.4725	0	175	424	3
2026-02-19	12:36:29.690	50.785	2.87	-14.07	0.545584	0.6832	-0.528016	-0.15	-0.531	0.477	0	175	424	3
2026-02-19	12:36:29.710	44.415	-0.42	-3.71	0.549488	0.700524	-0.550464	-0.1485	-0.531	0.486	0	175	424	3
2026-02-19	12:36:29.730	33.81	-2.1	-1.575	0.498248	0.739808	-0.536068	-0.1455	-0.537	0.4875	0	175	424	3
2026-02-19	12:36:29.750	33.285	0	-4.55	0.406016	0.747616	-0.509228	-0.1545	-0.537	0.498	0	175	424	3
2026-02-19	12:36:29.770	37.94	3.64	-3.115	0.354288	0.764452	-0.478972	-0.1485	-0.531	0.498	0	175	424	3
2026-02-19	12:36:29.790	43.05	5.25	-1.785	0.333792	0.778848	-0.48556	-0.144	-0.5355	0.507	0	175	424	3
2026-02-19	12:36:29.810	47.285	5.67	-5.39	0.356728	0.759328	-0.544364	-0.1485	-0.5325	0.5145	0	178	398	3
2026-02-19	12:36:29.830	44.975	-0.21	-8.365	0.405772	0.752008	-0.575108	-0.147	-0.5325	0.5205	0	178	398	3
2026-02-19	12:36:29.850	36.785	-7.91	-7.735	0.43554	0.753472	-0.56852	-0.1515	-0.534	0.528	0	178	398	3
2026-02-19	12:36:29.870	31.745	-9.31	-8.155	0.475312	0.754448	-0.549976	-0.156	-0.537	0.54	0	178	398	3
2026-02-19	12:36:29.890	24.885	-8.82	-3.01	0.482632	0.734928	-0.521672	-0.138	-0.525	0.5355	0	178	398	3
2026-02-19	12:36:29.910	15.12	-5.39	5.215	0.4575	0.727852	-0.5307	-0.153	-0.534	0.5415	0	178	398	3
2026-02-19	12:36:29.930	11.34	-1.085	7.63	0.415044	0.745664	-0.560712	-0.15	-0.5325	0.558	0	178	398	3
2026-02-19	12:36:29.950	12.915	-2.275	5.705	0.383812	0.735416	-0.581452	-0.1485	-0.525	0.543	0	178	398	3
2026-02-19	12:36:29.970	12.075	-7.49	4.095	0.3904	0.740784	-0.576816	-0.1485	-0.525	0.543	0	178	398	3
2026-02-19	12:36:29.990	8.12	-12.74	3.57	0.418216	0.744932	-0.568276	-0.1515	-0.528	0.5505	0	178	398	3
2026-02-19	12:36:30.010	4.935	-17.045	4.025	0.435052	0.727608	-0.575352	-0.1545	-0.531	0.558	0	182	412	3
2026-02-19	12:36:30.030	2.66	-20.51	5.18	0.446276	0.683932	-0.608292	-0.1515	-0.5295	0.555	0	182	412	3
2026-02-19	12:36:30.050	-3.08	-24.15	7.63	0.449936	0.602436	-0.615612	-0.15	-0.528	0.555	0	182	412	3
2026-02-19	12:36:30.070	-7.91	-26.25	11.97	0.507764	0.584136	-0.599264	-0.1485	-0.5265	0.5565	0	182	412	3
2026-02-19	12:36:30.090	-8.715	-26.985	15.26	0.504836	0.655384	-0.554368	-0.147	-0.5265	0.555	0	182	412	3
2026-02-19	12:36:30.110	-4.515	-23.38	16.87	0.503128	0.670024	-0.575108	-0.1485	-0.5265	0.558	0	182	412	3
2026-02-19	12:36:30.130	-3.815	-19.95	16.03	0.501908	0.660508	-0.591456	-0.147	-0.5265	0.5565	0	182	412	3
2026-02-19	12:36:30.150	-0.665	-18.305	12.635	0.500444	0.633912	-0.591944	-0.147	-0.528	0.5505	0	182	412	3
2026-02-19	12:36:30.170	3.64	-15.645	9.45	0.500688	0.64782	-0.576816	-0.1485	-0.528	0.555	0	182	412	3
2026-02-19	12:36:30.190	5.67	-12.88	7.105	0.488488	0.670024	-0.549732	-0.144	-0.522	0.558	0	182	412	3
2026-02-19	12:36:30.210	5.18	-11.34	5.355	0.44408	0.706868	-0.546072	-0.1455	-0.522	0.5565	0	184	450	1
2026-02-19	12:36:30.230	3.325	-10.64	4.69	0.412604	0.732	-0.56486	-0.153	-0.5265	0.5565	0	184	450	1
2026-02-19	12:36:30.250	2.38	-10.99	5.145	0.394792	0.7442	-0.624152	-0.153	-0.5265	0.5565	0	184	450	1
2026-02-19	12:36:30.270	0.63	-10.29	2.555	0.434808	0.762744	-0.632204	-0.153	-0.5265	0.5565	0	184	450	1
2026-02-19	12:36:30.290	-4.69	-14.91	-0.175	0.430904	0.752496	-0.55632	-0.147	-0.5295	0.5685	0	184	450	1
2026-02-19	12:36:30.310	-5.95	-14.175	-2.835	0.406992	0.705404	-0.540216	-0.159	-0.5265	0.5565	0	184	450	1
2026-02-19	12:36:30.330	-5.53	-5.53	-8.645	0.38064	0.699304	-0.527284	-0.159	-0.522	0.5625	0	184	450	1
2026-02-19	12:36:30.350	-7.805	-1.295	-10.43	0.393328	0.718336	-0.48434	-0.1575	-0.525	0.5625	0	184	450	1
2026-02-19	12:36:30.370	-7.875	-2.66	-7.175	0.400648	0.737368	-0.502396	-0.147	-0.528	0.5505	0	184	450	1
2026-02-19	12:36:30.390	-2.59	-3.57	-3.78	0.409676	0.755668	-0.481412	-0.147	-0.531	0.5625	0	184	450	1
2026-02-19	12:36:30.410	-1.505	-2.345	-2.625	0.42212	0.770064	-0.481412	-0.1455	-0.537	0.561	0	183	486	1
2026-02-19	12:36:30.430	7.105	0.175	-2.38	0.409676	0.75396	-0.495564	-0.1395	-0.5325	0.552	0	183	486	1
2026-02-19	12:36:30.450	11.62	-1.505	1.54	0.358192	0.734684	-0.466772	-0.141	-0.54	0.5625	0	183	486	1
2026-02-19	12:36:30.470	16.485	-4.76	7	0.365024	0.779092	-0.459452	-0.147	-0.531	0.5685	0	183	486	1
2026-02-19	12:36:30.490	22.75	-2.835	8.015	0.443836	0.806908	-0.421632	-0.1455	-0.531	0.552	0	183	486	1
2026-02-19	12:36:30.510	29.26	-0.07	7.49	0.501176	0.822768	-0.395036	-0.138	-0.5295	0.57	0	183	486	1
2026-02-19	12:36:30.530	32.025	0.35	6.37	0.5185	0.853024	-0.38308	-0.1455	-0.537	0.5775	0	183	486	1
2026-02-19	12:36:30.550	30.065	1.4	3.5	0.48556	0.875716	-0.438956	-0.1425	-0.5295	0.5625	0	183	486	1
2026-02-19	12:36:30.570	17.15	0.35	7.455	0.423096	0.902312	-0.60268	-0.1515	-0.5265	0.5835	0	183	486	1
2026-02-19	12:36:30.590	-12.74	-1.365	17.64	0.43188	1.147044	-0.876692	-0.1515	-0.5235	0.5805	0	183	486	1
2026-02-19	12:36:30.610	-52.325	-1.75	20.72	0.506544	1.154364	-0.83814	-0.1515	-0.528	0.5745	0	178	506	3
2026-02-19	12:36:30.630	-74.585	2.205	11.445	0.61122	0.874252	-0.541192	-0.147	-0.522	0.567	0	178	506	3
2026-02-19	12:36:30.650	-79.73	20.44	6.51	0.637572	0.61366	-0.436516	-0.156	-0.54	0.555	0	178	506	3
2026-02-19	12:36:30.670	-92.12	51.8	7.98	0.571448	0.538264	-0.43798	-0.1455	-0.531	0.54	0	178	506	3
2026-02-19	12:36:30.690	-99.575	84.175	3.15	0.509472	0.543388	-0.465308	-0.162	-0.5355	0.5235	0	178	506	3
2026-02-19	12:36:30.710	-100.59	95.62	-4.27	0.549	0.624884	-0.51484	-0.1635	-0.5355	0.5055	0	178	506	3
2026-02-19	12:36:30.730	-104.965	86.135	-7.28	0.590236	0.801052	-0.50996	-0.1605	-0.534	0.4815	0	178	506	3
2026-02-19	12:36:30.750	-87.465	76.65	-12.6	0.580964	0.873764	-0.538264	-0.156	-0.546	0.459	0	178	506	3
2026-02-19	12:36:30.770	-58.73	80.29	-28.315	0.589504	0.923784	-0.58804	-0.1545	-0.5415	0.45	0	178	506	3
2026-02-19	12:36:30.790	-37.45	85.33	-41.37	0.60512	0.80764	-0.606828	-0.144	-0.5355	0.4275	0	178	506	3
2026-02-19	12:36:30.810	-35.455	67.025	-32.375	0.542168	0.69418	-0.582428	-0.144	-0.5445	0.417	0	175	517	3
2026-02-19	12:36:30.830	-51.73	32.025	-4.795	0.390156	0.685884	-0.526552	-0.1455	-0.537	0.411	0	175	517	3
2026-02-19	12:36:30.850	-76.09	10.43	19.53	0.393084	0.694668	-0.392108	-0.1335	-0.5445	0.402	0	175	517	3
2026-02-19	12:36:30.870	-77.875	-5.74	29.785	0.43432	0.686372	-0.325252	-0.1275	-0.537	0.381	0	175	517	3
2026-02-19	12:36:30.890	-67.41	-11.62	24.465	0.47336	0.682468	-0.290604	-0.135	-0.5355	0.372	0	175	517	3
2026-02-19	12:36:30.910	-54.425	-11.83	15.82	0.50752	0.634156	-0.311344	-0.1365	-0.537	0.3585	0	175	517	3
2026-02-19	12:36:30.930	-47.6	-19.355	13.685	0.542168	0.612196	-0.30988	-0.1425	-0.5325	0.3555	0	175	517	3
2026-02-19	12:36:30.950	-45.535	-30.24	13.685	0.54656	0.651236	-0.242536	-0.1425	-0.522	0.3495	0	175	517	3
2026-02-19	12:36:30.970	-33.25	-35.42	10.955	0.569008	0.656116	-0.244488	-0.135	-0.525	0.333	0	175	517	3
2026-02-19	12:36:30.990	-19.04	-33.285	7	0.606584	0.659776	-0.237168	-0.138	-0.5325	0.336	0	175	517	3
2026-02-19	12:36:31.010	-7.91	-26.565	3.85	0.636352	0.71004	-0.20252	-0.144	-0.522	0.333	0	174	509	3
2026-02-19	12:36:31.030	-0.315	-20.09	2.45	0.644404	0.779824	-0.178852	-0.1455	-0.5175	0.327	0	174	509	3
2026-02-19	12:36:31.050	5.95	-19.565	2.52	0.602436	0.814472	-0.186416	-0.1455	-0.5175	0.327	0	174	509	3
2026-02-19	12:36:31.070	6.02	-22.19	5.005	0.549732	0.8174	-0.184464	-0.1485	-0.5325	0.3345	0	174	509	3
2026-02-19	12:36:31.090	5.18	-22.435	6.37	0.520208	0.79666	-0.185928	-0.1485	-0.5325	0.3345	0	174	509	3
2026-02-19	12:36:31.110	8.855	-22.995	8.225	0.4758	0.742736	-0.21106	-0.1515	-0.528	0.3345	0	174	509	3
2026-02-19	12:36:31.130	17.185	-24.01	8.505	0.480924	0.703452	-0.24278	-0.1545	-0.5235	0.339	0	174	509	3
2026-02-19	12:36:31.150	26.32	-24.57	5.32	0.484096	0.695156	-0.22692	-0.1545	-0.528	0.345	0	174	509	3
2026-02-19	12:36:31.170	39.06	-23.625	-1.155	0.493856	0.734928	-0.176412	-0.1575	-0.5295	0.351	0	174	509	3
2026-02-19	12:36:31.190	48.16	-22.225	-6.09	0.509228	0.83326	-0.125904	-0.159	-0.534	0.36	0	174	509	3
2026-02-19	12:36:31.210	50.225	-22.4	-10.115	0.51362	0.932568	-0.087352	-0.156	-0.5355	0.366	0	174	466	3
2026-02-19	12:36:31.230	48.58	-20.195	-15.085	0.501908	1.008208	-0.074176	-0.1575	-0.5355	0.369	0	174	466	3
2026-02-19	12:36:31.250	39.795	-15.365	-19.075	0.528748	1.009428	-0.07124799	-0.162	-0.5355	0.3795	0	174	466	3
2026-02-19	12:36:31.270	35.455	-11.76	-19.11	0.5795	0.933056	-0.145912	-0.1545	-0.5355	0.39	0	174	466	3
2026-02-19	12:36:31.290	34.545	-12.285	-12.355	0.615612	0.859856	-0.266448	-0.1485	-0.5385	0.3945	0	174	466	3
2026-02-19	12:36:31.310	35.665	-10.535	-1.085	0.685884	0.835456	-0.383568	-0.153	-0.5385	0.4035	0	174	466	3
2026-02-19	12:36:31.330	34.125	1.12	1.995	0.700524	0.79666	-0.394548	-0.156	-0.5385	0.408	0	174	466	3
2026-02-19	12:36:31.350	37.275	9.695	-3.325	0.590724	0.72712	-0.325984	-0.15	-0.5355	0.4125	0	174	466	3
2026-02-19	12:36:31.370	50.68	13.335	-13.825	0.460916	0.709552	-0.280112	-0.1485	-0.537	0.423	0	174	466	3
2026-02-19	12:36:31.390	62.965	17.5	-20.265	0.459696	0.779824	-0.315736	-0.15	-0.5385	0.4305	0	174	466	3
2026-02-19	12:36:31.410	59.01	17.115	-20.545	0.52948	0.861808	-0.426268	-0.15	-0.5385	0.4305	0	177	410	3
2026-02-19	12:36:31.430	46.585	12.495	-14.98	0.545828	0.848632	-0.497028	-0.15	-0.5385	0.4305	0	177	410	3
2026-02-19	12:36:31.450	38.675	5.81	-10.57	0.517524	0.800076	-0.490928	-0.138	-0.5415	0.4485	0	177	410	3
2026-02-19	12:36:31.470	39.41	2.625	-11.27	0.486048	0.740296	-0.49166	-0.144	-0.54	0.4635	0	177	410	3
2026-02-19	12:36:31.490	46.655	1.19	-12.355	0.435784	0.671732	-0.488976	-0.138	-0.5415	0.4665	0	177	410	3
2026-02-19	12:36:31.510	52.955	0.77	-12.95	0.39284	0.681492	-0.505568	-0.1365	-0.537	0.4785	0	177	410	3
2026-02-19	12:36:31.530	52.045	-2.135	-11.305	0.386984	0.80276	-0.505812	-0.1425	-0.531	0.492	0	177	410	3
2026-02-19	12:36:31.550	48.09	-3.85	-12.425	0.41114	0.8479	-0.511424	-0.1455	-0.534	0.498	0	177	410	3
2026-02-19	12:36:31.570	40.81	-2.73	-15.855	0.407968	0.811544	-0.507032	-0.1335	-0.537	0.5055	0	177	410	3
2026-02-19	12:36:31.590	30.275	-5.39	-9.8	0.350628	0.742248	-0.512888	-0.1305	-0.537	0.513	0	177	410	3
2026-02-19	12:36:31.610	10.57	-10.22	8.925	0.344284	0.701012	-0.594872	-0.135	-0.537	0.5115	0	180	385	3
2026-02-19	12:36:31.630	-16.905	-26.425	30.17	0.69052	0.749812	-0.60878	-0.1335	-0.5235	0.5085	0	180	385	3
2026-02-19	12:36:31.650	-10.255	-36.61	14.525	0.657824	0.664168	-0.503372	-0.1275	-0.5355	0.5115	0	180	385	3
2026-02-19	12:36:31.670	-2.135	-23.975	12.18	0.460916	0.69784	-0.46116	-0.135	-0.5265	0.5175	0	180	385	3
2026-02-19	12:36:31.690	-6.965	-13.825	22.645	0.360876	0.802272	-0.545828	-0.1305	-0.531	0.507	0	180	385	3
2026-02-19	12:36:31.710	-0.07	-7.035	11.585	0.434564	0.866444	-0.540948	-0.138	-0.5355	0.5115	0	180	385	3
2026-02-19	12:36:31.730	23.31	0.14	-20.93	0.542656	0.793732	-0.45506	-0.138	-0.534	0.5235	0	180	385	3
2026-02-19	12:36:31.750	33.425	3.745	-37.45	0.56852	0.642208	-0.420412	-0.129	-0.5295	0.516	0	180	385	3
2026-02-19	12:36:31.770	22.155	3.22	-26.81	0.526308	0.613904	-0.460916	-0.138	-0.54	0.5205	0	180	385	3
2026-02-19	12:36:31.790	6.475	3.185	-7	0.479948	0.698572	-0.523136	-0.129	-0.5265	0.519	0	180	385	3
2026-02-19	12:36:31.810	6.02	3.15	-0.77	0.473848	0.712236	-0.596336	-0.126	-0.5235	0.5265	0	182	399	3
2026-02-19	12:36:31.830	13.265	2.52	-7.455	0.386496	0.697596	-0.562664	-0.1245	-0.5295	0.519	0	182	399	3
2026-02-19	12:36:31.850	19.985	8.47	-13.265	0.38552	0.681248	-0.487512	-0.123	-0.537	0.522	0	182	399	3
2026-02-19	12:36:31.870	15.575	4.76	-6.72	0.320616	0.651724	-0.4636	-0.12	-0.531	0.522	0	182	399	3
2026-02-19	12:36:31.890	5.25	-10.395	13.3	0.327936	0.640744	-0.578768	-0.129	-0.5265	0.5385	0	182	399	3
2026-02-19	12:36:31.910	-6.51	-29.995	31.395	0.382592	0.768844	-0.685152	-0.1335	-0.525	0.5295	0	182	399	3
2026-02-19	12:36:31.930	-10.465	-41.51	30.8	0.418216	0.874252	-0.605608	-0.132	-0.531	0.531	0	182	399	3
2026-02-19	12:36:31.950	3.29	-38.85	12.845	0.427244	0.777628	-0.478972	-0.1365	-0.5265	0.5355	0	182	399	3
2026-02-19	12:36:31.970	13.965	-31.71	1.82	0.460428	0.703452	-0.461404	-0.1335	-0.5265	0.534	0	182	399	3
2026-02-19	12:36:31.990	14.42	-26.565	3.395	0.479948	0.711016	-0.498004	-0.126	-0.5295	0.5355	0	182	399	3
2026-02-19	12:36:32.010	5.74	-23.345	7.735	0.44408	0.734196	-0.511912	-0.1275	-0.528	0.543	0	183	430	3
2026-02-19	12:36:32.030	5.04	-19.18	5.04	0.436516	0.719068	-0.523136	-0.1365	-0.531	0.54	0	183	430	3
2026-02-19	12:36:32.050	7.21	-17.5	5.88	0.437736	0.711504	-0.532896	-0.129	-0.528	0.5385	0	183	430	3
2026-02-19	12:36:32.070	6.615	-15.435	8.785	0.386008	0.726144	-0.556076	-0.135	-0.525	0.5445	0	183	430	3
2026-02-19	12:36:32.090	6.055	-10.885	6.58	0.34892	0.7381	-0.569008	-0.1395	-0.5265	0.549	0	183	430	3
2026-02-19	12:36:32.110	6.195	-8.295	1.785	0.369904	0.72468	-0.576084	-0.123	-0.519	0.546	0	183	430	3
2026-02-19	12:36:32.130	7.07	-9.8	0.525	0.394792	0.729072	-0.5246	-0.1275	-0.525	0.5475	0	183	430	3
2026-02-19	12:36:32.150	11.865	-9.52	-1.435	0.445788	0.714188	-0.454084	-0.132	-0.531	0.549	0	183	430	3
2026-02-19	12:36:32.170	20.65	-3.78	-3.535	0.391132	0.710528	-0.521672	-0.1275	-0.5295	0.543	0	183	430	3
2026-02-19	12:36:32.190	14.28	-4.305	-0.315	0.485072	0.759084	-0.508496	-0.1275	-0.525	0.546	0	183	430	3
2026-02-19	12:36:32.210	26.145	-9.03	-0.525	0.540216	0.677832	-0.465308	-0.1335	-0.525	0.5565	0	181	461	3
2026-02-19	12:36:32.230	25.62	-6.335	6.58	0.505568	0.71248	-0.4392	-0.135	-0.5265	0.561	0	181	461	3
2026-02-19	12:36:32.250	21.35	-1.33	11.725	0.457744	0.79178	-0.423096	-0.1365	-0.5175	0.5655	0	181	461	3
2026-02-19	12:36:32.270	20.335	4.725	10.29	0.468724	0.870592	-0.389668	-0.1365	-0.522	0.573	0	181	461	3
2026-02-19	12:36:32.290	21.595	11.585	3.43	0.462624	0.925004	-0.398452	-0.1365	-0.525	0.5745	0	181	461	3
2026-02-19	12:36:32.310	20.825	18.655	-2.275	0.40382	1.024068	-0.657824	-0.138	-0.516	0.5715	0	181	461	3
2026-02-19	12:36:32.330	-2.625	21.07	-2.45	0.396988	1.195112	-1.006988	-0.1425	-0.513	0.5745	0	181	461	3
2026-02-19	12:36:32.350	-46.655	15.75	-4.935	0.514596	1.166564	-0.943304	-0.1425	-0.5085	0.573	0	181	461	3
2026-02-19	12:36:32.370	-66.15	9.87	-9.45	0.660508	0.872056	-0.60268	-0.135	-0.513	0.5715	0	181	461	3
2026-02-19	12:36:32.390	-77.28	13.965	-1.575	0.69296	0.623664	-0.41602	-0.132	-0.5235	0.567	0	181	461	3
2026-02-19	12:36:32.410	-91.77	39.13	12.11	0.674904	0.590968	-0.321104	-0.129	-0.522	0.5535	0	178	486	3
2026-02-19	12:36:32.430	-89.46	87.115	3.325	0.545828	0.682712	-0.347456	-0.132	-0.525	0.531	0	178	486	3
2026-02-19	12:36:32.450	-74.34	119.945	-16.66	0.416508	0.70516	-0.493856	-0.1365	-0.5325	0.5145	0	178	486	3
2026-02-19	12:36:32.470	-81.585	112.805	-17.115	0.452376	0.72346	-0.53558	-0.135	-0.537	0.498	0	178	486	3
2026-02-19	12:36:32.490	-90.965	64.855	3.99	0.449936	0.75518	-0.537044	-0.135	-0.54	0.483	0	178	486	3
2026-02-19	12:36:32.510	-82.495	40.32	9.17	0.483364	0.813496	-0.471164	-0.138	-0.537	0.465	0	178	486	3
2026-02-19	12:36:32.530	-57.33	41.37	-1.96	0.523624	0.764696	-0.558028	-0.1425	-0.5325	0.447	0	178	486	3
2026-02-19	12:36:32.550	-48.02	36.995	-5.39	0.507276	0.785192	-0.554612	-0.144	-0.5325	0.441	0	178	486	3
2026-02-19	12:36:32.570	-48.615	30.03	-5.25	0.461404	0.756644	-0.505812	-0.144	-0.5325	0.441	0	178	486	3
2026-02-19	12:36:32.590	-53.55	16.765	-1.225	0.478728	0.72834	-0.455792	-0.144	-0.5325	0.441	0	178	486	3
2026-02-19	12:36:32.610	-57.085	-4.305	3.885	0.527284	0.72468	-0.33916	-0.141	-0.5385	0.4125	0	176	501	3
2026-02-19	12:36:32.630	-54.95	-13.685	3.465	0.554612	0.70638	-0.2562	-0.1425	-0.537	0.39	0	176	501	3
2026-02-19	12:36:32.650	-47.005	-16.31	0.35	0.541436	0.697108	-0.238632	-0.1425	-0.531	0.3765	0	176	501	3
2026-02-19	12:36:32.670	-40.18	-15.645	-2.975	0.55144	0.71248	-0.270596	-0.1395	-0.534	0.39	0	176	501	3
2026-02-19	12:36:32.690	-38.185	-17.395	-1.995	0.534848	0.71614	-0.249856	-0.135	-0.5355	0.3765	0	176	501	3
2026-02-19	12:36:32.710	-33.81	-16.275	-1.19	0.556076	0.710772	-0.233752	-0.1395	-0.5355	0.375	0	176	501	3
2026-02-19	12:36:32.730	-28.07	-14.035	0.105	0.589016	0.702232	-0.205936	-0.1395	-0.5385	0.363	0	176	501	3
2026-02-19	12:36:32.750	-22.715	-9.625	2.59	0.614148	0.69052	-0.182268	-0.1425	-0.528	0.357	0	176	501	3
2026-02-19	12:36:32.770	-18.13	-5.11	6.16	0.620004	0.708332	-0.184708	-0.1365	-0.525	0.3495	0	176	501	3
2026-02-19	12:36:32.790	-15.89	-4.97	10.115	0.596824	0.750544	-0.185684	-0.1335	-0.528	0.354	0	176	501	3
2026-02-19	12:36:32.810	-12.95	-8.155	12.635	0.55388	0.799344	-0.172264	-0.141	-0.525	0.348	0	176	485	3
2026-02-19	12:36:32.830	-6.79	-11.62	11.9	0.52338	0.823988	-0.180316	-0.1395	-0.5355	0.333	0	176	485	3
2026-02-19	12:36:32.850	1.715	-13.09	6.475	0.482632	0.813984	-0.178608	-0.1395	-0.525	0.3495	0	176	485	3
2026-02-19	12:36:32.870	9.17	-12.11	2.31	0.461404	0.752984	-0.186172	-0.147	-0.5325	0.354	0	176	485	3
2026-02-19	12:36:32.890	18.83	-12.845	-1.015	0.439932	0.692472	-0.173972	-0.1365	-0.5265	0.3525	0	176	485	3
2026-02-19	12:36:32.910	28.665	-13.16	-3.99	0.424804	0.677344	-0.144204	-0.1485	-0.522	0.3555	0	176	485	3
2026-02-19	12:36:32.930	38.465	-13.125	-6.93	0.412848	0.695156	-0.120536	-0.1485	-0.528	0.3615	0	176	485	3
2026-02-19	12:36:32.950	48.86	-15.225	-8.96	0.419924	0.747128	-0.109068	-0.1455	-0.522	0.3645	0	176	485	3
2026-02-19	12:36:32.970	57.435	-18.48	-10.29	0.444568	0.831308	-0.097356	-0.1455	-0.5355	0.3675	0	176	485	3
2026-02-19	12:36:32.990	63.49	-20.825	-10.955	0.490196	0.936472	-0.078568	-0.1455	-0.543	0.3885	0	176	485	3
2026-02-19	12:36:33.010	59.465	-22.925	-9.485	0.518988	1.052372	-0.065148	-0.147	-0.534	0.3945	0	176	433	1
2026-02-19	12:36:33.030	46.375	-20.615	-7.665	0.518988	1.116544	-0.05002	-0.147	-0.5385	0.408	0	176	433	1
2026-02-19	12:36:33.050	36.19	-12.075	-9.94	0.549	1.113616	-0.124928	-0.144	-0.5355	0.4125	0	176	433	1
2026-02-19	12:36:33.070	42.805	5.145	-15.225	0.758352	1.073112	-0.438468	-0.1425	-0.537	0.4215	0	176	433	1
2026-02-19	12:36:33.090	38.745	20.265	-12.985	0.940132	0.960872	-0.597312	-0.1455	-0.5355	0.4275	0	176	433	1
2026-02-19	12:36:33.110	20.93	18.83	-10.955	0.736392	0.71492	-0.473848	-0.144	-0.5385	0.438	0	176	433	1
2026-02-19	12:36:33.130	21.665	10.5	-12.32	0.480924	0.52704	-0.352092	-0.144	-0.5355	0.4305	0	176	433	1
2026-02-19	12:36:33.150	35.28	4.865	-10.675	0.40138	0.524356	-0.351848	-0.147	-0.54	0.4365	0	176	433	1
2026-02-19	12:36:33.170	37.555	2.625	-2.485	0.45628	0.606584	-0.407968	-0.1395	-0.54	0.4515	0	176	433	1
2026-02-19	12:36:33.190	38.29	-2.135	3.01	0.471896	0.693936	-0.438468	-0.1395	-0.54	0.4515	0	176	433	1
2026-02-19	12:36:33.210	42.63	-4.76	5.355	0.471408	0.835456	-0.47214	-0.1425	-0.5385	0.4575	0	180	381	3
2026-02-19	12:36:33.230	47.985	0	1.295	0.459208	0.893528	-0.500444	-0.147	-0.537	0.4635	0	180	381	3
2026-02-19	12:36:33.250	53.865	3.605	-7.665	0.435296	0.876692	-0.533872	-0.147	-0.5355	0.468	0	180	381	3
2026-02-19	12:36:33.270	58.59	4.375	-21.56	0.404552	0.829844	-0.536312	-0.1485	-0.5355	0.4785	0	180	381	3
2026-02-19	12:36:33.290	64.82	4.235	-29.26	0.357216	0.767136	-0.511424	-0.1425	-0.5355	0.489	0	180	381	3
2026-02-19	12:36:33.310	63.7	1.225	-26.04	0.349652	0.775188	-0.514108	-0.141	-0.5325	0.4995	0	180	381	3
2026-02-19	12:36:33.330	51.485	-7.28	-13.405	0.372832	0.833992	-0.515084	-0.138	-0.531	0.507	0	180	381	3
2026-02-19	12:36:33.350	37.135	-14.21	-5.285	0.431636	0.844972	-0.520696	-0.135	-0.5355	0.5175	0	180	381	3
2026-02-19	12:36:33.370	23.695	-19.04	-2.135	0.506056	0.797636	-0.499712	-0.135	-0.534	0.525	0	180	381	3
2026-02-19	12:36:33.390	13.475	-21.595	1.295	0.549732	0.731268	-0.484096	-0.138	-0.531	0.5265	0	180	381	3
2026-02-19	12:36:33.410	6.09	-20.615	5.005	0.528016	0.701012	-0.483364	-0.1425	-0.5295	0.5265	0	187	370	3
2026-02-19	12:36:33.430	-0.98	-16.135	10.29	0.476288	0.709308	-0.49654	-0.138	-0.528	0.522	0	187	370	3
2026-02-19	12:36:33.450	-2.45	-12.845	12.95	0.427976	0.732976	-0.517036	-0.135	-0.5295	0.5235	0	187	370	3
2026-02-19	12:36:33.470	1.995	-12.74	11.62	0.406748	0.765672	-0.548756	-0.138	-0.5325	0.531	0	187	370	3
2026-02-19	12:36:33.490	5.075	-15.75	9.17	0.393816	0.773968	-0.567056	-0.135	-0.537	0.531	0	187	370	3
2026-02-19	12:36:33.510	5.25	-15.4	4.935	0.461404	0.723216	-0.567056	-0.1335	-0.5355	0.531	0	187	370	3
2026-02-19	12:36:33.530	5.32	-14.14	0.49	0.48678	0.66002	-0.55266	-0.1365	-0.534	0.54	0	187	370	3
2026-02-19	12:36:33.550	5.18	-11.62	1.225	0.473848	0.649772	-0.556076	-0.1365	-0.5325	0.537	0	187	370	3
2026-02-19	12:36:33.570	3.29	-9.345	5.95	0.443104	0.687348	-0.542412	-0.138	-0.528	0.5325	0	187	370	3
2026-02-19	12:36:33.590	2.03	-8.155	7.35	0.427732	0.70638	-0.53314	-0.144	-0.5265	0.5355	0	187	370	3
2026-02-19	12:36:33.610	4.025	-8.82	6.055	0.426756	0.693936	-0.560712	-0.144	-0.531	0.5355	0	192	395	3
2026-02-19	12:36:33.630	7.14	-8.995	4.62	0.428708	0.647088	-0.593164	-0.1425	-0.528	0.537	0	192	395	3
2026-02-19	12:36:33.650	1.295	-14.28	10.15	0.410896	0.648308	-0.59292	-0.144	-0.5295	0.5385	0	192	395	3
2026-02-19	12:36:33.670	-6.23	-21.385	16.03	0.421144	0.726876	-0.560468	-0.1455	-0.5355	0.54	0	192	395	3
2026-02-19	12:36:33.690	3.22	-19.95	9.24	0.433588	0.744444	-0.532408	-0.144	-0.5325	0.54	0	192	395	3
2026-02-19	12:36:33.710	13.44	-13.615	2.03	0.42944	0.70394	-0.531188	-0.1425	-0.5295	0.5415	0	192	395	3
2026-02-19	12:36:33.730	13.545	-12.04	3.745	0.418948	0.7259	-0.553148	-0.1425	-0.5295	0.5415	0	192	395	3
2026-02-19	12:36:33.750	9.485	-12.355	4.585	0.415044	0.743468	-0.53436	-0.1425	-0.5295	0.5415	0	192	395	3
2026-02-19	12:36:33.770	6.93	-12.32	2.8	0.412116	0.802028	-0.502152	-0.1515	-0.534	0.549	0	192	395	3
2026-02-19	12:36:33.790	9.415	-11.27	-1.155	0.419436	0.823744	-0.497516	-0.1545	-0.525	0.555	0	192	395	3
2026-02-19	12:36:33.810	8.75	-11.305	-1.12	0.38918	0.787632	-0.504348	-0.144	-0.5325	0.558	0	194	434	3
2026-02-19	12:36:33.830	3.99	-11.655	1.925	0.365268	0.734196	-0.510448	-0.1485	-0.5355	0.552	0	194	434	3
2026-02-19	12:36:33.850	0.07	-12.53	4.41	0.382104	0.726144	-0.510692	-0.1515	-0.5385	0.561	0	194	434	3
2026-02-19	12:36:33.870	2.695	-13.685	4.655	0.38796	0.732488	-0.510936	-0.144	-0.5265	0.5475	0	194	434	3
2026-02-19	12:36:33.890	6.265	-14.77	4.935	0.393328	0.732976	-0.485316	-0.147	-0.5265	0.552	0	194	434	3
2026-02-19	12:36:33.910	9.1	-14.07	6.16	0.385764	0.7442	-0.449448	-0.1545	-0.528	0.567	0	194	434	3
2026-02-19	12:36:33.930	11.795	-12.11	5.775	0.396012	0.750056	-0.492392	-0.1485	-0.5325	0.564	0	194	434	3
2026-02-19	12:36:33.950	15.05	-11.095	5.705	0.41724	0.73566	-0.457012	-0.153	-0.5295	0.5625	0	194	434	3
2026-02-19	12:36:33.970	16.835	-10.955	7.7	0.424072	0.72102	-0.468724	-0.15	-0.5325	0.5655	0	194	434	3
2026-02-19	12:36:33.990	17.15	-12.32	11.2	0.417728	0.744444	-0.463112	-0.147	-0.5265	0.5595	0	194	434	3
2026-02-19	12:36:34.010	17.395	-11.935	13.23	0.41846	0.7625	-0.4514	-0.1485	-0.5265	0.5745	0	190	465	1
2026-02-19	12:36:34.030	17.29	-10.045	14.7	0.436272	0.793732	-0.446764	-0.1575	-0.528	0.5745	0	190	465	1
2026-02-19	12:36:34.050	15.085	-9.73	16.275	0.455792	0.876448	-0.423584	-0.1545	-0.516	0.5775	0	190	465	1
2026-02-19	12:36:34.070	12.705	-7.84	13.405	0.440176	0.947696	-0.380152	-0.159	-0.525	0.5835	0	190	465	1
2026-02-19	12:36:34.090	9.17	1.61	4.025	0.403332	1.01992	-0.511668	-0.156	-0.5235	0.585	0	190	465	1
2026-02-19	12:36:34.110	-8.365	14.595	-4.305	0.432368	1.085556	-0.783972	-0.159	-0.5175	0.5805	0	190	465	1
2026-02-19	12:36:34.130	-41.335	15.68	-8.89	0.531188	1.059448	-0.730536	-0.1635	-0.531	0.588	0	190	465	1
2026-02-19	12:36:34.150	-55.195	10.605	-10.01	0.698084	0.877912	-0.575352	-0.162	-0.528	0.585	0	190	465	1
2026-02-19	12:36:34.170	-70.805	12.985	6.65	0.758596	0.77592	-0.514108	-0.1575	-0.525	0.5655	0	190	465	1
2026-02-19	12:36:34.190	-90.44	36.925	20.58	0.676368	0.732732	-0.411384	-0.1635	-0.531	0.5565	0	190	465	1
2026-02-19	12:36:34.210	-86.625	80.29	6.3	0.5795	0.654164	-0.4575	-0.1665	-0.543	0.5445	0	184	483	3
2026-02-19	12:36:34.230	-77.56	119.735	-19.005	0.532408	0.649284	-0.5673	-0.1695	-0.543	0.5175	0	184	483	3
2026-02-19	12:36:34.250	-71.855	136.15	-35.525	0.604144	0.661728	-0.635376	-0.1755	-0.54	0.5055	0	184	483	3
2026-02-19	12:36:34.270	-64.785	101.15	-25.13	0.574132	0.757376	-0.594628	-0.171	-0.543	0.4995	0	184	483	3
2026-02-19	12:36:34.290	-51.135	58.03	-10.045	0.502884	0.799588	-0.600728	-0.1665	-0.546	0.477	0	184	483	3
2026-02-19	12:36:34.310	-50.47	46.725	-3.64	0.464576	0.796904	-0.594384	-0.1665	-0.5445	0.4605	0	184	483	3
2026-02-19	12:36:34.330	-57.365	36.75	2.8	0.451156	0.821792	-0.477752	-0.168	-0.5475	0.4575	0	184	483	3
2026-02-19	12:36:34.350	-54.705	35.84	2.905	0.485316	0.707356	-0.448228	-0.165	-0.546	0.4455	0	184	483	3
2026-02-19	12:36:34.370	-56.175	25.725	10.885	0.470432	0.645868	-0.427	-0.165	-0.546	0.4305	0	184	483	3
2026-02-19	12:36:34.390	-62.405	8.33	21.105	0.46116	0.693204	-0.316224	-0.174	-0.552	0.423	0	184	483	3
2026-02-19	12:36:34.410	-56.875	-2.135	19.845	0.476532	0.732976	-0.249368	-0.1725	-0.549	0.417	0	179	495	3
2026-02-19	12:36:34.430	-43.855	-9.065	12.145	0.485804	0.73322	-0.27206	-0.174	-0.546	0.4065	0	179	495	3
2026-02-19	12:36:34.450	-37.065	-15.75	7.35	0.499956	0.713456	-0.25376	-0.1845	-0.5445	0.396	0	179	495	3
2026-02-19	12:36:34.470	-31.675	-21.315	4.445	0.49166	0.664412	-0.274256	-0.1815	-0.543	0.3855	0	179	495	3
2026-02-19	12:36:34.490	-27.3	-26.39	7.525	0.511424	0.664656	-0.27816	-0.177	-0.546	0.381	0	179	495	3
2026-02-19	12:36:34.510	-23.835	-25.27	9.17	0.534848	0.693448	-0.24278	-0.18	-0.5475	0.381	0	179	495	3
2026-02-19	12:36:34.530	-19.285	-20.755	8.715	0.568032	0.71614	-0.20618	-0.177	-0.5445	0.372	0	179	495	3
2026-02-19	12:36:34.550	-13.195	-16.205	7	0.573644	0.7381	-0.212524	-0.177	-0.5475	0.369	0	179	495	3
2026-02-19	12:36:34.570	-6.475	-15.68	5.985	0.566812	0.781532	-0.238144	-0.1875	-0.5475	0.378	0	179	495	3
2026-02-19	12:36:34.590	-1.75	-17.99	5.6	0.56608	0.827892	-0.279136	-0.1845	-0.54	0.375	0	179	495	3
2026-02-19	12:36:34.610	3.15	-20.195	3.78	0.565592	0.826916	-0.300608	-0.186	-0.5385	0.3675	0	175	479	3
2026-02-19	12:36:34.630	7.14	-17.885	1.05	0.559248	0.790316	-0.28792	-0.192	-0.5445	0.3735	0	175	479	3
2026-02-19	12:36:34.650	8.645	-11.97	-2.065	0.566568	0.777384	-0.244488	-0.186	-0.5445	0.378	0	175	479	3
2026-02-19	12:36:34.670	8.995	-5.88	-3.745	0.568764	0.771284	-0.19032	-0.189	-0.546	0.3735	0	175	479	3
2026-02-19	12:36:34.690	12.6	-2.1	-4.795	0.572424	0.782996	-0.183	-0.1935	-0.549	0.375	0	175	479	3
2026-02-19	12:36:34.710	17.115	-2.03	-5.215	0.575108	0.785436	-0.200324	-0.1905	-0.5445	0.378	0	175	479	3
2026-02-19	12:36:34.730	21.105	-4.165	-5.67	0.549976	0.777384	-0.22448	-0.189	-0.5415	0.381	0	175	479	3
2026-02-19	12:36:34.750	22.12	-8.68	-5.005	0.529236	0.7625	-0.22936	-0.1875	-0.5505	0.3915	0	175	479	3
2026-02-19	12:36:34.770	21.21	-13.685	-2.975	0.50142	0.763232	-0.217404	-0.186	-0.5565	0.3915	0	175	479	3
2026-02-19	12:36:34.790	23.45	-17.115	-1.61	0.489952	0.781532	-0.207644	-0.183	-0.549	0.396	0	175	479	3
2026-02-19	12:36:34.810	28.455	-18.025	-2.345	0.495564	0.802516	-0.198616	-0.186	-0.5475	0.405	0	172	436	3
2026-02-19	12:36:34.830	32.935	-17.5	-3.92	0.509472	0.825208	-0.1952	-0.1905	-0.552	0.4065	0	172	436	3
2026-02-19	12:36:34.850	36.19	-16.31	-7.105	0.533628	0.85888	-0.18666	-0.1905	-0.552	0.4065	0	172	436	3
2026-02-19	12:36:34.870	38.43	-16.87	-10.885	0.541436	0.905972	-0.190564	-0.1905	-0.552	0.4065	0	172	436	3
2026-02-19	12:36:34.890	38.43	-17.955	-13.335	0.541436	0.928664	-0.195688	-0.1815	-0.552	0.426	0	172	436	3
2026-02-19	12:36:34.910	36.68	-17.325	-14.49	0.499956	0.942328	-0.19642	-0.1875	-0.5505	0.4395	0	172	436	3
2026-02-19	12:36:34.930	41.3	-10.08	-15.33	0.528992	0.959652	-0.259128	-0.1935	-0.5595	0.4485	0	172	436	3
2026-02-19	12:36:34.950	43.82	2.555	-11.62	0.623664	0.939888	-0.311344	-0.1875	-0.543	0.447	0	172	436	3
2026-02-19	12:36:34.970	35.42	7.945	-3.115	0.652456	0.851316	-0.327448	-0.1935	-0.555	0.45	0	172	436	3
2026-02-19	12:36:34.990	22.61	3.99	0.875	0.532652	0.732	-0.309392	-0.192	-0.561	0.4665	0	172	436	3
2026-02-19	12:36:35.010	19.95	5.845	-4.305	0.479948	0.665144	-0.36478	-0.1875	-0.5565	0.459	0	169	387	3
2026-02-19	12:36:35.030	27.265	11.48	-9.695	0.560224	0.653676	-0.457012	-0.1905	-0.5535	0.4695	0	169	387	3
2026-02-19	12:36:35.050	33.005	11.935	-8.54	0.63684	0.691496	-0.495076	-0.1845	-0.555	0.4665	0	169	387	3
2026-02-19	12:36:35.070	36.12	5.53	-4.76	0.58438	0.742736	-0.453596	-0.183	-0.5595	0.474	0	169	387	3
2026-02-19	12:36:35.090	43.295	1.225	-3.78	0.47458	0.768112	-0.387472	-0.189	-0.552	0.474	0	169	387	3
2026-02-19	12:36:35.110	55.72	2.205	-6.755	0.404064	0.758352	-0.404552	-0.1845	-0.552	0.474	0	169	387	3
2026-02-19	12:36:35.130	60.13	2.52	-8.47	0.35136	0.761768	-0.488976	-0.1845	-0.5535	0.4875	0	169	387	3
2026-02-19	12:36:35.150	62.65	2.03	-12.11	0.335744	0.788364	-0.586576	-0.1875	-0.5535	0.501	0	169	387	3
2026-02-19	12:36:35.170	61.285	-2.31	-12.88	0.427976	0.761524	-0.638792	-0.18	-0.5535	0.5235	0	169	387	3
2026-02-19	12:36:35.190	48.09	-12.39	-12.53	0.460428	0.748836	-0.5795	-0.18	-0.5385	0.522	0	169	387	3
2026-02-19	12:36:35.210	35.525	-19.145	-11.095	0.512156	0.7564	-0.536068	-0.1815	-0.5475	0.5385	0	168	367	3
2026-02-19	12:36:35.230	27.475	-19.635	-7.63	0.578036	0.691496	-0.52582	-0.1875	-0.546	0.5385	0	168	367	3
2026-02-19	12:36:35.250	18.27	-14.595	-2.975	0.580232	0.60756	-0.501664	-0.18	-0.549	0.54	0	168	367	3
2026-02-19	12:36:35.270	11.13	-6.895	3.815	0.553148	0.5978	-0.532408	-0.1785	-0.552	0.5475	0	168	367	3
2026-02-19	12:36:35.290	7	-2.345	9.24	0.519476	0.625128	-0.58194	-0.1815	-0.5505	0.555	0	168	367	3
2026-02-19	12:36:35.310	6.335	-2.17	10.535	0.5185	0.679296	-0.58804	-0.1725	-0.5475	0.5445	0	168	367	3
2026-02-19	12:36:35.330	8.225	-0.77	4.725	0.508008	0.691984	-0.557052	-0.1725	-0.5475	0.5445	0	168	367	3
2026-02-19	12:36:35.350	8.96	-0.49	1.925	0.47336	0.706868	-0.511912	-0.1725	-0.5475	0.5445	0	168	367	3
2026-02-19	12:36:35.370	8.75	0.595	3.255	0.427976	0.698328	-0.51362	-0.1725	-0.5475	0.5445	0	168	367	3
2026-02-19	12:36:35.390	6.79	3.29	5.74	0.39894	0.71614	-0.500444	-0.1785	-0.546	0.5505	0	168	367	3
2026-02-19	12:36:35.410	11.375	3.255	8.26	0.354288	0.7991	-0.521428	-0.186	-0.5445	0.5595	0	168	386	3
2026-02-19	12:36:35.430	20.335	2.31	4.305	0.33794	0.864736	-0.554368	-0.1875	-0.546	0.558	0	168	386	3
2026-02-19	12:36:35.450	24.885	-1.225	-5.285	0.34404	0.880108	-0.51728	-0.1845	-0.5475	0.5625	0	168	386	3
2026-02-19	12:36:35.470	29.33	-3.64	-17.43	0.384056	0.784948	-0.526796	-0.186	-0.5475	0.567	0	168	386	3
2026-02-19	12:36:35.490	25.9	-6.265	-20.755	0.465796	0.696864	-0.548512	-0.183	-0.549	0.5655	0	168	386	3
2026-02-19	12:36:35.510	16.1	-12.25	-12.985	0.510448	0.658068	-0.537288	-0.177	-0.546	0.5715	0	168	386	3
2026-02-19	12:36:35.530	6.93	-16.975	-1.295	0.5246	0.67832	-0.5063	-0.183	-0.5415	0.576	0	168	386	3
2026-02-19	12:36:35.550	6.265	-15.96	1.96	0.47336	0.718824	-0.52216	-0.1815	-0.5415	0.5745	0	168	386	3
2026-02-19	12:36:35.570	9.975	-10.535	0.595	0.422608	0.7137	-0.560712	-0.1755	-0.543	0.5805	0	168	386	3
2026-02-19	12:36:35.590	5.355	-11.375	1.295	0.417484	0.71248	-0.594872	-0.1755	-0.543	0.588	0	168	386	3
2026-02-19	12:36:35.610	-3.08	-14.175	1.12	0.45506	0.729072	-0.589992	-0.1755	-0.543	0.5835	0	167	423	3
2026-02-19	12:36:35.630	-3.395	-15.435	-2.1	0.497028	0.746396	-0.55876	-0.177	-0.54	0.5805	0	167	423	3
2026-02-19	12:36:35.650	-2.905	-12.32	-4.095	0.496784	0.75396	-0.525576	-0.177	-0.5445	0.582	0	167	423	3
2026-02-19	12:36:35.670	-3.92	-4.34	-7.49	0.465796	0.751764	-0.519232	-0.1755	-0.546	0.576	0	167	423	3
2026-02-19	12:36:35.690	-6.895	0.455	-8.4	0.431636	0.735904	-0.531676	-0.1755	-0.543	0.5745	0	167	423	3
2026-02-19	12:36:35.710	-12.355	0	-4.165	0.39162	0.7503	-0.549	-0.171	-0.546	0.5775	0	167	423	3
2026-02-19	12:36:35.730	-15.68	0.315	-2.065	0.361852	0.73444	-0.565348	-0.1725	-0.5475	0.5745	0	167	423	3
2026-02-19	12:36:35.750	-17.01	-1.925	-0.035	0.36478	0.720776	-0.577548	-0.174	-0.5475	0.57	0	167	423	3
2026-02-19	12:36:35.770	-18.095	-8.295	5.32	0.34648	0.75274	-0.56608	-0.1725	-0.5535	0.57	0	167	423	3
2026-02-19	12:36:35.790	-17.5	-12.495	5.915	0.329156	0.772748	-0.539484	-0.1725	-0.552	0.5625	0	167	423	3
2026-02-19	12:36:35.810	-12.145	-11.725	3.64	0.36966	0.743468	-0.548024	-0.1725	-0.5505	0.5595	0	165	460	3
2026-02-19	12:36:35.830	-3.99	-9.03	1.575	0.418948	0.700768	-0.54046	-0.174	-0.558	0.5655	0	165	460	3
2026-02-19	12:36:35.850	1.995	-13.16	5.985	0.415532	0.6832	-0.486536	-0.1755	-0.5595	0.564	0	165	460	3
2026-02-19	12:36:35.870	3.045	-18.515	15.89	0.39894	0.749568	-0.424072	-0.174	-0.5565	0.5685	0	165	460	3
2026-02-19	12:36:35.890	8.75	-17.115	18.165	0.3843	0.779824	-0.388936	-0.177	-0.5535	0.5685	0	165	460	3
2026-02-19	12:36:35.910	15.47	-12.74	15.855	0.41114	0.768844	-0.389668	-0.1815	-0.555	0.5625	0	165	460	3
2026-02-19	12:36:35.930	19.215	-11.06	15.925	0.441884	0.77104	-0.389668	-0.18	-0.558	0.564	0	165	460	3
2026-02-19	12:36:35.950	20.615	-11.725	17.29	0.4392	0.806664	-0.360876	-0.1815	-0.5535	0.5715	0	165	460	3
2026-02-19	12:36:35.970	22.61	-7.875	14.56	0.438224	0.858392	-0.32574	-0.1875	-0.5505	0.5775	0	165	460	3
2026-02-19	12:36:35.990	25.9	0.595	7.63	0.42456	0.862296	-0.334036	-0.1875	-0.5505	0.5775	0	165	460	3
2026-02-19	12:36:36.010	28.735	11.83	0.875	0.385764	0.787876	-0.476288	-0.1875	-0.5505	0.5775	0	161	484	1
2026-02-19	12:36:36.030	21.315	16.73	2.415	0.343064	0.849608	-0.823256	-0.192	-0.549	0.5805	0	161	484	1
2026-02-19	12:36:36.050	-11.515	8.26	8.925	0.375516	1.00162	-1.047004	-0.186	-0.558	0.5955	0	161	484	1
2026-02-19	12:36:36.070	-50.54	-6.825	9.835	0.51606	1.037488	-0.891088	-0.1995	-0.5535	0.594	0	161	484	1
2026-02-19	12:36:36.090	-69.3	-6.93	2.24	0.707844	0.854732	-0.696864	-0.1875	-0.549	0.5775	0	161	484	1
2026-02-19	12:36:36.110	-84.07	17.185	-0.875	0.831308	0.647332	-0.527284	-0.198	-0.5595	0.5655	0	161	484	1
2026-02-19	12:36:36.130	-89.04	58.695	-5.46	0.803492	0.584624	-0.404308	-0.198	-0.5625	0.5565	0	161	484	1
2026-02-19	12:36:36.150	-73.99	105.945	-24.045	0.732488	0.62708	-0.406016	-0.1995	-0.564	0.531	0	161	484	1
2026-02-19	12:36:36.170	-69.615	132.965	-38.64	0.634156	0.748836	-0.430904	-0.198	-0.567	0.5145	0	161	484	1
2026-02-19	12:36:36.190	-76.09	114.135	-34.02	0.403088	0.857416	-0.580232	-0.198	-0.573	0.4935	0	161	484	1
2026-02-19	12:36:36.210	-82.215	79.52	-21.735	0.381372	0.915732	-0.63318	-0.1875	-0.5715	0.468	0	160	501	3
2026-02-19	12:36:36.230	-71.295	58.31	-20.09	0.417484	0.874008	-0.54168	-0.1845	-0.5805	0.453	0	160	501	3
2026-02-19	12:36:36.250	-59.71	48.195	-20.44	0.471652	0.784216	-0.502884	-0.186	-0.5805	0.4395	0	160	501	3
2026-02-19	12:36:36.270	-64.855	33.915	-8.995	0.515084	0.72102	-0.427	-0.174	-0.5715	0.417	0	160	501	3
2026-02-19	12:36:36.290	-81.06	16.765	4.865	0.505568	0.729316	-0.298168	-0.177	-0.5835	0.4035	0	160	501	3
2026-02-19	12:36:36.310	-85.61	4.27	12.285	0.49654	0.739808	-0.27328	-0.1755	-0.582	0.396	0	160	501	3
2026-02-19	12:36:36.330	-83.37	-5.53	13.58	0.502884	0.752496	-0.256932	-0.171	-0.5745	0.3765	0	160	501	3
2026-02-19	12:36:36.350	-73.71	-9.695	6.09	0.465552	0.716872	-0.254248	-0.1695	-0.5685	0.3525	0	160	501	3
2026-02-19	12:36:36.370	-62.72	-13.02	3.045	0.515328	0.700036	-0.221552	-0.18	-0.567	0.351	0	160	501	3
2026-02-19	12:36:36.390	-50.155	-17.955	1.12	0.52582	0.697352	-0.187148	-0.171	-0.57	0.342	0	160	501	3
2026-02-19	12:36:36.410	-39.305	-20.65	-2.31	0.509228	0.669536	-0.1952	-0.171	-0.5655	0.3345	0	161	501	3
2026-02-19	12:36:36.430	-31.885	-23.03	-6.265	0.470432	0.670268	-0.168604	-0.171	-0.567	0.3255	0	161	501	3
2026-02-19	12:36:36.450	-22.435	-23.8	-6.405	0.469944	0.667096	-0.17934	-0.171	-0.5715	0.3255	0	161	501	3
2026-02-19	12:36:36.470	-3.815	-25.655	-3.255	0.47946	0.659044	-0.201544	-0.1695	-0.567	0.321	0	161	501	3
2026-02-19	12:36:36.490	5.075	-26.495	4.48	0.480924	0.65758	-0.170068	-0.1665	-0.5625	0.318	0	161	501	3
2026-02-19	12:36:36.510	15.295	-25.305	6.51	0.396744	0.661728	-0.144204	-0.165	-0.5625	0.318	0	161	501	3
2026-02-19	12:36:36.530	28.56	-20.125	3.57	0.365268	0.660508	-0.14396	-0.168	-0.564	0.321	0	161	501	3
2026-02-19	12:36:36.550	40.88	-14.875	1.085	0.344284	0.666852	-0.129076	-0.174	-0.567	0.3315	0	161	501	3
2026-02-19	12:36:36.570	53.515	-12.39	-0.56	0.360144	0.705648	-0.099064	-0.177	-0.57	0.333	0	161	501	3
2026-02-19	12:36:36.590	65.59	-14.42	0.21	0.389912	0.803248	-0.077348	-0.1785	-0.5685	0.342	0	161	501	3
2026-02-19	12:36:36.610	80.465	-21.35	1.225	0.422852	0.942328	-0.083692	-0.1815	-0.5715	0.3585	0	166	459	3
2026-02-19	12:36:36.630	84.35	-22.225	1.575	0.529724	1.09922	-0.11834	-0.183	-0.5745	0.372	0	166	459	3
2026-02-19	12:36:36.650	64.295	-17.885	-4.27	0.550952	1.277096	-0.12688	-0.189	-0.576	0.3915	0	166	459	3
2026-02-19	12:36:36.670	42.35	-7.42	-19.005	0.493856	1.27978	-0.089792	-0.189	-0.5805	0.4065	0	166	459	3
2026-02-19	12:36:36.690	34.58	2.345	-31.36	0.501908	1.106784	-0.149328	-0.1815	-0.585	0.4095	0	166	459	3
2026-02-19	12:36:36.710	37.415	4.305	-26.075	0.664168	0.947696	-0.35136	-0.1785	-0.5805	0.4125	0	166	459	3
2026-02-19	12:36:36.730	25.655	1.575	-9.135	0.71126	0.7869	-0.362584	-0.177	-0.5775	0.4215	0	166	459	3
2026-02-19	12:36:36.750	17.045	-2.1	8.82	0.743712	0.726388	-0.379664	-0.1755	-0.5835	0.426	0	166	459	3
2026-02-19	12:36:36.770	22.54	-6.93	15.33	0.668072	0.774456	-0.45628	-0.1755	-0.5865	0.429	0	166	459	3
2026-02-19	12:36:36.790	25.13	-6.265	12.215	0.552172	0.840092	-0.406992	-0.1785	-0.585	0.4365	0	166	459	3
2026-02-19	12:36:36.810	18.375	-9.45	9.905	0.481168	0.853512	-0.35746	-0.1845	-0.582	0.4365	0	175	401	3
2026-02-19	12:36:36.830	11.515	-6.3	4.445	0.427732	0.765916	-0.413092	-0.186	-0.579	0.435	0	175	401	3
2026-02-19	12:36:36.850	18.865	5.53	-4.76	0.487756	0.698084	-0.495808	-0.1875	-0.579	0.438	0	175	401	3
2026-02-19	12:36:36.870	30.345	12.285	-10.15	0.526308	0.686372	-0.515572	-0.1845	-0.579	0.4425	0	175	401	3
2026-02-19	12:36:36.890	38.5	12.74	-10.675	0.505568	0.707356	-0.508008	-0.1845	-0.5805	0.4455	0	175	401	3
2026-02-19	12:36:36.910	37.59	7.525	-4.865	0.416996	0.75884	-0.485072	-0.186	-0.5805	0.456	0	175	401	3
2026-02-19	12:36:36.930	33.355	3.71	-2.485	0.330376	0.811788	-0.459452	-0.1815	-0.5805	0.4605	0	175	401	3
2026-02-19	12:36:36.950	31.5	4.13	-5.67	0.3355	0.863272	-0.454084	-0.18	-0.582	0.4605	0	175	401	3
2026-02-19	12:36:36.970	28	3.15	-8.015	0.39528	0.869372	-0.460672	-0.183	-0.585	0.4695	0	175	401	3
2026-02-19	12:36:36.990	26.32	1.015	-8.435	0.468968	0.815936	-0.481168	-0.1815	-0.5835	0.471	0	175	401	3
2026-02-19	12:36:37.010	22.33	-0.665	-8.015	0.508008	0.744444	-0.4636	-0.1785	-0.582	0.474	0	184	374	3
2026-02-19	12:36:37.030	13.965	-5.075	-3.045	0.49166	0.692472	-0.43676	-0.177	-0.5865	0.483	0	184	374	3
2026-02-19	12:36:37.050	7.42	-10.43	6.93	0.46238	0.718824	-0.438956	-0.174	-0.5835	0.4845	0	184	374	3
2026-02-19	12:36:37.070	1.96	-14.455	17.5	0.42578	0.781288	-0.43554	-0.1695	-0.576	0.4845	0	184	374	3
2026-02-19	12:36:37.090	-2.905	-15.995	23.905	0.420656	0.82228	-0.421388	-0.1725	-0.576	0.489	0	184	374	3
2026-02-19	12:36:37.110	-2.415	-15.365	22.12	0.432368	0.807884	-0.404796	-0.1785	-0.5775	0.492	0	184	374	3
2026-02-19	12:36:37.130	2.66	-13.65	15.645	0.440664	0.775432	-0.4026	-0.1785	-0.5775	0.492	0	184	374	3
2026-02-19	12:36:37.150	10.64	-11.62	9.1	0.461404	0.7564	-0.43676	-0.1875	-0.582	0.492	0	184	374	3
2026-02-19	12:36:37.170	18.62	-9.905	4.095	0.473848	0.748592	-0.468968	-0.1845	-0.57	0.4875	0	184	374	3
2026-02-19	12:36:37.190	24.71	-10.29	-0.84	0.477752	0.752984	-0.478484	-0.1935	-0.57	0.504	0	184	374	3
2026-02-19	12:36:37.210	28.35	-11.69	-3.535	0.457256	0.74054	-0.470676	-0.192	-0.576	0.4935	0	190	380	3
2026-02-19	12:36:37.230	28.28	-14.07	-2.1	0.44042	0.713944	-0.469944	-0.186	-0.5775	0.504	0	190	380	3
2026-02-19	12:36:37.250	24.78	-18.515	3.955	0.450424	0.70516	-0.492148	-0.186	-0.576	0.5205	0	190	380	3
2026-02-19	12:36:37.270	20.65	-24.99	11.095	0.470188	0.710528	-0.518988	-0.1965	-0.573	0.519	0	190	380	3
2026-02-19	12:36:37.290	17.745	-28.07	13.755	0.469212	0.7442	-0.525332	-0.1905	-0.576	0.5175	0	190	380	3
2026-02-19	12:36:37.310	17.29	-28.385	13.825	0.454084	0.77226	-0.519476	-0.192	-0.5745	0.5355	0	190	380	3
2026-02-19	12:36:37.330	17.115	-26.18	13.125	0.421632	0.77592	-0.52704	-0.1965	-0.573	0.5295	0	190	380	3
2026-02-19	12:36:37.350	13.58	-22.085	10.395	0.393328	0.717604	-0.567544	-0.1935	-0.5685	0.534	0	190	380	3
2026-02-19	12:36:37.370	14.105	-22.085	10.78	0.408212	0.735904	-0.572424	-0.2025	-0.576	0.5475	0	190	380	3
2026-02-19	12:36:37.390	9.45	-24.92	12.53	0.44774	0.773724	-0.569984	-0.1965	-0.576	0.54	0	190	380	3
2026-02-19	12:36:37.410	3.85	-30.695	14.07	0.459452	0.76616	-0.573156	-0.1965	-0.567	0.546	0	191	405	3
2026-02-19	12:36:37.430	1.855	-34.16	13.09	0.46848	0.767136	-0.540216	-0.198	-0.5715	0.549	0	191	405	3
2026-02-19	12:36:37.450	2.135	-30.52	7.735	0.451644	0.745176	-0.511668	-0.1995	-0.57	0.558	0	191	405	3
2026-02-19	12:36:37.470	4.97	-22.89	2.555	0.457988	0.69418	-0.543632	-0.1995	-0.57	0.558	0	191	405	3
2026-02-19	12:36:37.490	6.965	-18.13	0.63	0.47092	0.67832	-0.574864	-0.1965	-0.5715	0.555	0	191	405	3
2026-02-19	12:36:37.510	9.835	-14.945	-0.21	0.4697	0.691252	-0.574376	-0.1935	-0.573	0.5535	0	191	405	3
2026-02-19	12:36:37.530	8.61	-15.33	1.33	0.436028	0.682956	-0.583648	-0.1965	-0.57	0.5505	0	191	405	3
2026-02-19	12:36:37.550	2.17	-18.48	6.51	0.403088	0.682224	-0.597556	-0.1995	-0.564	0.5535	0	191	405	3
2026-02-19	12:36:37.570	-6.685	-21.84	7.77	0.366488	0.725412	-0.562664	-0.1965	-0.5655	0.5595	0	191	405	3
2026-02-19	12:36:37.590	-1.54	-19.95	-0.28	0.386496	0.765672	-0.538264	-0.1935	-0.567	0.558	0	191	405	3
2026-02-19	12:36:37.610	7.315	-17.78	-7.735	0.408456	0.704184	-0.51606	-0.195	-0.5685	0.5595	0	188	440	3
2026-02-19	12:36:37.630	10.36	-17.955	-7	0.427488	0.642696	-0.585356	-0.1935	-0.57	0.564	0	188	440	3
2026-02-19	12:36:37.650	8.68	-18.305	-2.065	0.443836	0.630008	-0.579744	-0.192	-0.57	0.5595	0	188	440	3
2026-02-19	12:36:37.670	5.53	-18.48	4.025	0.435784	0.684908	-0.51728	-0.1935	-0.567	0.5595	0	188	440	3
2026-02-19	12:36:37.690	7.945	-13.405	3.71	0.424804	0.735172	-0.50386	-0.192	-0.564	0.5715	0	188	440	3
2026-02-19	12:36:37.710	15.365	-6.37	-1.26	0.379176	0.713456	-0.5551	-0.189	-0.5625	0.57	0	188	440	3
2026-02-19	12:36:37.730	19.705	-3.605	-4.375	0.438712	0.69418	-0.599996	-0.189	-0.564	0.567	0	188	440	3
2026-02-19	12:36:37.750	16.275	-4.375	-1.19	0.441396	0.699304	-0.5429	-0.1935	-0.5715	0.5715	0	188	440	3
2026-02-19	12:36:37.770	13.65	-5.915	3.255	0.386252	0.741028	-0.5429	-0.189	-0.57	0.576	0	188	440	3
2026-02-19	12:36:37.790	11.97	-3.465	3.85	0.339892	0.779824	-0.520696	-0.1875	-0.57	0.5835	0	188	440	3
2026-02-19	12:36:37.810	21.595	2.73	-3.57	0.35136	0.7808	-0.501664	-0.1935	-0.573	0.585	0	180	473	3
2026-02-19	12:36:37.830	27.125	2.485	-5.46	0.40016	0.743224	-0.52094	-0.189	-0.5685	0.5835	0	180	473	3
2026-02-19	12:36:37.850	26.075	0.315	-1.995	0.403576	0.733708	-0.516792	-0.183	-0.564	0.5865	0	180	473	3
2026-02-19	12:36:37.870	25.69	0.42	1.855	0.402356	0.760792	-0.529724	-0.186	-0.567	0.594	0	180	473	3
2026-02-19	12:36:37.890	23.8	1.155	4.97	0.422608	0.798856	-0.528504	-0.1905	-0.567	0.5985	0	180	473	3
2026-02-19	12:36:37.910	20.405	1.715	6.58	0.432124	0.837896	-0.487024	-0.1905	-0.558	0.6015	0	180	473	3
2026-02-19	12:36:37.930	16.31	7.56	4.025	0.413336	0.84058	-0.497272	-0.1905	-0.558	0.6045	0	180	473	3
2026-02-19	12:36:37.950	7.875	14.805	2.135	0.396012	0.850096	-0.599996	-0.1905	-0.561	0.603	0	180	473	3
2026-02-19	12:36:37.970	-7.49	14.875	6.055	0.397476	0.928176	-0.725168	-0.195	-0.5595	0.606	0	180	473	3
2026-02-19	12:36:37.990	-26.565	3.29	12.005	0.372832	0.970388	-0.754448	-0.1965	-0.5655	0.612	0	180	473	3
2026-02-19	12:36:38.010	-42.21	-2.1	12.25	0.422364	0.934276	-0.73444	-0.198	-0.5655	0.609	0	171	500	3
2026-02-19	12:36:38.030	-53.655	1.26	9.625	0.563396	0.802516	-0.673928	-0.201	-0.5655	0.5955	0	171	500	3
2026-02-19	12:36:38.050	-66.71	2.275	13.195	0.664412	0.6832	-0.590236	-0.1995	-0.5685	0.591	0	171	500	3
2026-02-19	12:36:38.070	-79.695	13.055	18.13	0.647576	0.65392	-0.50142	-0.204	-0.5685	0.5805	0	171	500	3
2026-02-19	12:36:38.090	-87.815	45.045	16.24	0.60756	0.648796	-0.48068	-0.204	-0.573	0.564	0	171	500	3
2026-02-19	12:36:38.110	-91.665	78.575	8.82	0.556808	0.704428	-0.491172	-0.201	-0.5745	0.5505	0	171	500	3
2026-02-19	12:36:38.130	-92.47	98.14	0.665	0.530456	0.75152	-0.543632	-0.204	-0.576	0.5295	0	171	500	3
2026-02-19	12:36:38.150	-92.12	95.13	-5.145	0.499712	0.754692	-0.5612	-0.2085	-0.582	0.51	0	171	500	3
2026-02-19	12:36:38.170	-91	82.215	-7.875	0.462624	0.730048	-0.57462	-0.2145	-0.5835	0.495	0	171	500	3
2026-02-19	12:36:38.190	-85.12	81.27	-10.115	0.538752	0.768112	-0.549488	-0.2145	-0.5775	0.4695	0	171	500	3
2026-02-19	12:36:38.210	-72.52	82.145	-19.39	0.543632	0.844972	-0.582184	-0.2085	-0.579	0.4515	0	162	523	3
2026-02-19	12:36:38.230	-63.42	62.895	-19.425	0.531676	0.821304	-0.562664	-0.2025	-0.585	0.45	0	162	523	3
2026-02-19	12:36:38.250	-64.015	41.545	-13.825	0.516792	0.824964	-0.447984	-0.2025	-0.585	0.45	0	162	523	3
2026-02-19	12:36:38.270	-65.17	29.68	-11.305	0.554124	0.765184	-0.404552	-0.2025	-0.585	0.45	0	162	523	3
2026-02-19	12:36:38.290	-68.32	9.66	-7.14	0.5063	0.710284	-0.343308	-0.195	-0.5805	0.3795	0	162	523	3
2026-02-19	12:36:38.310	-71.19	-5.985	1.19	0.497516	0.681492	-0.309392	-0.1965	-0.5805	0.366	0	162	523	3
2026-02-19	12:36:38.330	-71.82	-17.745	7.315	0.456524	0.703696	-0.228872	-0.1935	-0.582	0.3435	0	162	523	3
2026-02-19	12:36:38.350	-63.805	-17.57	4.83	0.443104	0.72468	-0.190076	-0.192	-0.5745	0.3405	0	162	523	3
2026-02-19	12:36:38.370	-55.615	-17.395	5.53	0.480192	0.721264	-0.18178	-0.189	-0.5745	0.3225	0	162	523	3
2026-02-19	12:36:38.390	-49.245	-19.18	4.34	0.484828	0.690032	-0.163236	-0.189	-0.5835	0.3165	0	162	523	3
2026-02-19	12:36:38.410	-35.665	-18.34	3.395	0.520208	0.654652	-0.1403	-0.1905	-0.5715	0.3165	0	155	520	3
2026-02-19	12:36:38.430	-22.925	-15.26	2.31	0.545828	0.65514	-0.127612	-0.1905	-0.5745	0.3045	0	155	520	3
2026-02-19	12:36:38.450	-8.33	-11.655	-0.7	0.549976	0.650016	-0.076372	-0.1995	-0.57	0.303	0	155	520	3
2026-02-19	12:36:38.470	8.295	-9.73	-2.73	0.525576	0.674416	-0.052704	-0.1965	-0.5775	0.306	0	155	520	3
2026-02-19	12:36:38.490	25.48	-10.185	-2.52	0.471408	0.720776	-0.06466	-0.1935	-0.5685	0.3	0	155	520	3
2026-02-19	12:36:38.510	35.175	-10.115	-1.61	0.444324	0.744444	-0.051484	-0.183	-0.5775	0.3075	0	155	520	3
2026-02-19	12:36:38.530	43.435	-11.095	-3.57	0.396744	0.724192	-0.035136	-0.1875	-0.576	0.3195	0	155	520	3
2026-02-19	12:36:38.550	52.57	-11.41	-3.78	0.362828	0.725656	-0.03904	-0.1875	-0.576	0.3195	0	155	520	3
2026-02-19	12:36:38.570	60.97	-15.19	0	0.376736	0.796416	-0.09076799	-0.1905	-0.5775	0.333	0	155	520	3
2026-02-19	12:36:38.590	65.345	-18.62	0.7	0.382592	0.854732	-0.110044	-0.1935	-0.579	0.3465	0	155	520	3
2026-02-19	12:36:38.610	75.915	-23.555	-1.085	0.425048	0.95404	-0.152988	-0.195	-0.5835	0.3525	0	155	467	3
2026-02-19	12:36:38.630	81.62	-25.655	-5.74	0.497028	1.054568	-0.18178	-0.1995	-0.5895	0.372	0	155	467	3
2026-02-19	12:36:38.650	77.35	-25.69	-13.65	0.573888	1.156316	-0.144692	-0.2025	-0.588	0.393	0	155	467	3
2026-02-19	12:36:38.670	63.21	-20.265	-24.36	0.578768	1.22854	-0.093452	-0.2025	-0.5895	0.4065	0	155	467	3
2026-02-19	12:36:38.690	45.745	-7.7	-34.3	0.521916	1.168516	-0.073932	-0.1995	-0.591	0.4185	0	155	467	3
2026-02-19	12:36:38.710	36.4	1.995	-36.19	0.585356	0.993812	-0.193492	-0.201	-0.5925	0.4275	0	155	467	3
2026-02-19	12:36:38.730	23.87	-0.175	-14.77	0.699548	0.801784	-0.348432	-0.1935	-0.5955	0.4335	0	155	467	3
2026-02-19	12:36:38.750	-2.835	-6.825	11.41	0.712724	0.685396	-0.36478	-0.1875	-0.594	0.4365	0	155	467	3
2026-02-19	12:36:38.770	-2.03	-12.18	25.725	0.691008	0.69662	-0.471164	-0.1905	-0.5955	0.444	0	155	467	3
2026-02-19	12:36:38.790	9.8	-12.04	27.755	0.60268	0.76128	-0.509716	-0.192	-0.594	0.444	0	155	467	3
2026-02-19	12:36:38.810	15.12	-5.425	23.415	0.553148	0.852536	-0.430172	-0.198	-0.591	0.4425	0	160	398	3
2026-02-19	12:36:38.830	14.875	-1.505	16.065	0.498736	0.828136	-0.371856	-0.201	-0.5955	0.447	0	160	398	3
2026-02-19	12:36:38.850	15.33	3.57	-0.525	0.421388	0.613172	-0.44896	-0.204	-0.5955	0.4515	0	160	398	3
2026-02-19	12:36:38.870	29.54	7.735	-13.37	0.459696	0.597068	-0.477752	-0.2055	-0.5985	0.453	0	160	398	3
2026-02-19	12:36:38.890	46.725	5.985	-12.88	0.44652	0.59048	-0.528016	-0.204	-0.594	0.459	0	160	398	3
2026-02-19	12:36:38.910	53.725	0.455	-1.19	0.392352	0.656604	-0.51972	-0.2025	-0.588	0.4665	0	160	398	3
2026-02-19	12:36:38.930	42	-5.81	16.03	0.41358	0.820816	-0.516548	-0.2055	-0.5895	0.4755	0	160	398	3
2026-02-19	12:36:38.950	30.45	-14.35	15.155	0.51362	0.948916	-0.4819	-0.21	-0.5925	0.4845	0	160	398	3
2026-02-19	12:36:38.970	35.91	-12.635	-11.41	0.539972	0.9211	-0.402112	-0.2115	-0.597	0.4905	0	160	398	3
2026-02-19	12:36:38.990	49.735	-0.945	-30.835	0.513864	0.771284	-0.408944	-0.2115	-0.597	0.5025	0	160	398	3
2026-02-19	12:36:39.010	55.755	5.845	-29.54	0.461648	0.684176	-0.461404	-0.2085	-0.591	0.51	0	169	367	3
2026-02-19	12:36:39.030	54.355	10.465	-24.535	0.423096	0.667828	-0.489708	-0.2055	-0.588	0.5145	0	169	367	3
2026-02-19	12:36:39.050	47.915	6.965	-16.38	0.411872	0.66612	-0.508496	-0.2025	-0.591	0.525	0	169	367	3
2026-02-19	12:36:39.070	34.685	-3.255	-5.985	0.440176	0.69174	-0.519232	-0.201	-0.5925	0.5325	0	169	367	3
2026-02-19	12:36:39.090	23.03	-10.64	2.52	0.447008	0.746396	-0.505812	-0.195	-0.5865	0.54	0	169	367	3
2026-02-19	12:36:39.110	16.1	-13.58	9.1	0.471652	0.817888	-0.485804	-0.1905	-0.5835	0.549	0	169	367	3
2026-02-19	12:36:39.130	18.48	-9.8	5.18	0.486292	0.828624	-0.490196	-0.1935	-0.5835	0.5565	0	169	367	3
2026-02-19	12:36:39.150	26.565	-1.68	-5.18	0.4636	0.785436	-0.532652	-0.195	-0.576	0.5565	0	169	367	3
2026-02-19	12:36:39.170	33.285	4.48	-13.615	0.41602	0.746152	-0.59658	-0.1935	-0.579	0.5595	0	169	367	3
2026-02-19	12:36:39.190	30.45	5.67	-14.665	0.386496	0.743956	-0.593164	-0.195	-0.5835	0.5685	0	169	367	3
2026-02-19	12:36:39.210	18.935	-1.505	-8.155	0.399428	0.787388	-0.541924	-0.192	-0.585	0.567	0	178	379	3
2026-02-19	12:36:39.230	8.47	-6.895	-2.695	0.42456	0.777872	-0.541192	-0.195	-0.582	0.567	0	178	379	3
2026-02-19	12:36:39.250	0.98	-8.75	0	0.446276	0.709064	-0.556076	-0.198	-0.579	0.5745	0	178	379	3
2026-02-19	12:36:39.270	-4.2	-12.705	4.9	0.439688	0.65636	-0.574132	-0.1935	-0.582	0.579	0	178	379	3
2026-02-19	12:36:39.290	-8.47	-17.605	12.67	0.424316	0.649772	-0.587552	-0.192	-0.5865	0.5805	0	178	379	3
2026-02-19	12:36:39.310	-9.905	-19.04	16.73	0.40748	0.675392	-0.58926	-0.1935	-0.5865	0.576	0	178	379	3
2026-02-19	12:36:39.330	-8.085	-19.775	15.47	0.40138	0.7015	-0.587064	-0.1935	-0.5805	0.5715	0	178	379	3
2026-02-19	12:36:39.350	-7.56	-22.68	14.77	0.399184	0.693448	-0.5978	-0.1935	-0.576	0.5745	0	178	379	3
2026-02-19	12:36:39.370	-12.11	-29.26	18.83	0.404552	0.691008	-0.540216	-0.1935	-0.576	0.5745	0	178	379	3
2026-02-19	12:36:39.390	-10.36	-27.895	18.41	0.398696	0.695888	-0.530944	-0.1935	-0.576	0.5745	0	178	379	3
2026-02-19	12:36:39.410	-4.725	-24.605	14.07	0.425536	0.746884	-0.551928	-0.204	-0.5865	0.576	0	184	416	3
2026-02-19	12:36:39.430	1.435	-26.18	9.38	0.42822	0.712724	-0.554124	-0.204	-0.579	0.5775	0	184	416	3
2026-02-19	12:36:39.450	4.935	-30.485	7.595	0.408456	0.659776	-0.561932	-0.1965	-0.5775	0.5745	0	184	416	3
2026-02-19	12:36:39.470	12.67	-26.95	2.765	0.439932	0.609756	-0.573888	-0.201	-0.5805	0.582	0	184	416	3
2026-02-19	12:36:39.490	11.34	-26.32	3.255	0.437492	0.655628	-0.551684	-0.1965	-0.582	0.5835	0	184	416	3
2026-02-19	12:36:39.510	9.695	-30.31	10.01	0.40748	0.709308	-0.54412	-0.195	-0.5775	0.5835	0	184	416	3
2026-02-19	12:36:39.530	10.57	-29.82	11.06	0.38064	0.765184	-0.542656	-0.1935	-0.582	0.597	0	184	416	3
2026-02-19	12:36:39.550	8.085	-24.675	7.21	0.38552	0.772748	-0.535092	-0.2145	-0.5805	0.6	0	184	416	3
2026-02-19	12:36:39.570	10.815	-16.59	-1.435	0.376248	0.772992	-0.5185	-0.2025	-0.5715	0.6	0	184	416	3
2026-02-19	12:36:39.590	12.11	-6.545	-8.19	0.357216	0.752252	-0.567788	-0.198	-0.585	0.603	0	184	416	3
2026-02-19	12:36:39.610	14	-5.355	-9.555	0.40626	0.748104	-0.553392	-0.198	-0.5805	0.6075	0	184	458	3
2026-02-19	12:36:39.630	15.96	-6.405	-6.265	0.443348	0.767868	-0.580964	-0.1935	-0.582	0.606	0	184	458	3
2026-02-19	12:36:39.650	18.55	-8.645	-2.24	0.424072	0.765672	-0.575352	-0.189	-0.5835	0.6045	0	184	458	3
2026-02-19	12:36:39.670	19.67	-11.165	1.12	0.373076	0.748104	-0.526796	-0.192	-0.582	0.615	0	184	458	3
2026-02-19	12:36:39.690	16.66	-9.975	3.22	0.37942	0.738588	-0.487512	-0.195	-0.579	0.618	0	184	458	3
2026-02-19	12:36:39.710	11.9	-6.51	3.465	0.413824	0.749324	-0.50752	-0.1935	-0.5745	0.618	0	184	458	3
2026-02-19	12:36:39.730	14.07	-5.635	3.29	0.45262	0.769332	-0.457012	-0.1935	-0.5745	0.624	0	184	458	3
2026-02-19	12:36:39.750	17.745	-1.61	1.155	0.487512	0.759328	-0.426512	-0.1935	-0.5775	0.6255	0	184	458	3
2026-02-19	12:36:39.770	20.265	6.055	-0.7	0.4941	0.752496	-0.432612	-0.1935	-0.5745	0.633	0	184	458	3
2026-02-19	12:36:39.790	20.335	11.27	-0.28	0.459208	0.783728	-0.438468	-0.1935	-0.5685	0.6375	0	184	458	3
2026-02-19	12:36:39.810	19.705	10.92	1.26	0.391376	0.837408	-0.437248	-0.195	-0.567	0.633	0	180	487	3
2026-02-19	12:36:39.830	18.025	8.75	2.03	0.330376	0.875472	-0.44408	-0.1995	-0.57	0.6345	0	180	487	3
2026-02-19	12:36:39.850	11.305	7.735	3.36	0.29646	0.90646	-0.521916	-0.1995	-0.57	0.639	0	180	487	3
2026-02-19	12:36:39.870	-6.72	7.35	7.315	0.320372	1.048468	-0.69662	-0.1995	-0.564	0.639	0	180	487	3
2026-02-19	12:36:39.890	-35.42	3.5	10.43	0.41846	1.159732	-0.784216	-0.2055	-0.567	0.648	0	180	487	3
2026-02-19	12:36:39.910	-64.33	-1.26	8.855	0.549976	1.073112	-0.676856	-0.213	-0.5685	0.645	0	180	487	3
2026-02-19	12:36:39.930	-82.845	5.565	8.855	0.658312	0.864492	-0.578036	-0.21	-0.5715	0.63	0	180	487	3
2026-02-19	12:36:39.950	-105.035	20.23	18.69	0.649528	0.70028	-0.48922	-0.213	-0.582	0.615	0	180	487	3
2026-02-19	12:36:39.970	-113.225	56.49	15.54	0.632936	0.648308	-0.459452	-0.2205	-0.585	0.6015	0	180	487	3
2026-02-19	12:36:39.990	-108.325	108.99	-4.305	0.619272	0.641964	-0.524356	-0.2175	-0.5895	0.579	0	180	487	3
2026-02-19	12:36:40.010	-86.765	151.76	-34.3	0.663436	0.679784	-0.615368	-0.2175	-0.597	0.5535	0	175	506	3
2026-02-19	12:36:40.030	-72.38	140.07	-45.675	0.701012	0.780556	-0.634644	-0.2235	-0.6045	0.5325	0	175	506	3
2026-02-19	12:36:40.050	-62.125	95.935	-34.37	0.61976	0.798368	-0.554368	-0.216	-0.606	0.507	0	175	506	3
2026-02-19	12:36:40.070	-45.78	62.125	-25.69	0.474092	0.845704	-0.539728	-0.21	-0.609	0.492	0	175	506	3
2026-02-19	12:36:40.090	-38.465	46.865	-22.05	0.34404	0.823988	-0.465308	-0.2085	-0.606	0.483	0	175	506	3
2026-02-19	12:36:40.110	-41.86	45.78	-16.205	0.366	0.772016	-0.459696	-0.2025	-0.603	0.4665	0	175	506	3
2026-02-19	12:36:40.130	-55.65	25.83	3.535	0.419436	0.719312	-0.44774	-0.2025	-0.609	0.4545	0	175	506	3
2026-02-19	12:36:40.150	-70.105	-4.27	22.715	0.387716	0.67222	-0.330376	-0.2025	-0.6105	0.4455	0	175	506	3
2026-02-19	12:36:40.170	-73.255	-15.61	35.98	0.431636	0.664412	-0.249856	-0.204	-0.6105	0.432	0	175	506	3
2026-02-19	12:36:40.190	-66.43	-15.855	35.945	0.4697	0.693204	-0.243756	-0.2085	-0.612	0.4185	0	175	506	3
2026-02-19	12:36:40.210	-58.1	-17.43	30.905	0.490928	0.766892	-0.218136	-0.207	-0.609	0.408	0	172	512	3
2026-02-19	12:36:40.230	-41.79	-22.435	20.195	0.489464	0.786656	-0.239852	-0.213	-0.6045	0.396	0	172	512	3
2026-02-19	12:36:40.250	-31.29	-28.28	9.52	0.478972	0.75274	-0.257908	-0.219	-0.6	0.3855	0	172	512	3
2026-02-19	12:36:40.270	-27.055	-32.025	2.275	0.485316	0.715408	-0.271572	-0.2175	-0.603	0.39	0	172	512	3
2026-02-19	12:36:40.290	-23.17	-29.645	-2.905	0.524844	0.699304	-0.219112	-0.222	-0.609	0.387	0	172	512	3
2026-02-19	12:36:40.310	-16.835	-23.065	-5.95	0.56974	0.725412	-0.178608	-0.225	-0.6075	0.381	0	172	512	3
2026-02-19	12:36:40.330	-11.55	-18.9	-5.53	0.545584	0.754448	-0.162504	-0.222	-0.603	0.3885	0	172	512	3
2026-02-19	12:36:40.350	-4.62	-17.78	-2.485	0.511424	0.778116	-0.162016	-0.219	-0.6	0.384	0	172	512	3
2026-02-19	12:36:40.370	0.175	-16.45	2.065	0.495808	0.79666	-0.170068	-0.2175	-0.6015	0.378	0	172	512	3
2026-02-19	12:36:40.390	5.845	-15.47	1.82	0.462136	0.809104	-0.18544	-0.2175	-0.606	0.3825	0	172	512	3
2026-02-19	12:36:40.410	13.65	-15.54	-0.945	0.454084	0.74298	-0.182756	-0.2205	-0.606	0.381	0	171	482	1
2026-02-19	12:36:40.430	22.33	-16.555	-1.19	0.470432	0.700036	-0.249124	-0.222	-0.606	0.3855	0	171	482	1
2026-02-19	12:36:40.450	31.43	-17.57	-0.98	0.481412	0.688812	-0.177876	-0.2205	-0.6105	0.393	0	171	482	1
2026-02-19	12:36:40.470	38.395	-17.605	-3.01	0.498248	0.755668	-0.156648	-0.219	-0.612	0.3945	0	171	482	1
2026-02-19	12:36:40.490	46.795	-20.265	-7.105	0.522648	0.835944	-0.118584	-0.219	-0.612	0.3945	0	171	482	1
2026-02-19	12:36:40.510	51.8	-29.435	-8.89	0.494344	0.954772	-0.077104	-0.219	-0.612	0.3945	0	171	482	1
2026-02-19	12:36:40.530	46.13	-34.16	-11.165	0.466772	1.076772	-0.052948	-0.2235	-0.6045	0.4305	0	171	482	1
2026-02-19	12:36:40.550	35	-23.485	-18.305	0.454328	1.082384	-0.027328	-0.228	-0.612	0.4395	0	171	482	1
2026-02-19	12:36:40.570	26.95	-9.38	-21.875	0.499956	1.01992	-0.045384	-0.225	-0.612	0.4455	0	171	482	1
2026-02-19	12:36:40.590	19.775	-7.77	-13.3	0.51972	0.937448	-0.133224	-0.2205	-0.609	0.4545	0	171	482	1
2026-02-19	12:36:40.610	10.78	-18.13	4.13	0.538508	0.896456	-0.252296	-0.2145	-0.615	0.4665	0	173	422	3
2026-02-19	12:36:40.630	8.96	-20.895	17.465	0.630496	0.900604	-0.366244	-0.216	-0.6135	0.462	0	173	422	3
2026-02-19	12:36:40.650	12.67	-7	13.965	0.674416	0.85278	-0.407236	-0.2175	-0.615	0.456	0	173	422	3
2026-02-19	12:36:40.670	28.91	5.845	3.815	0.730048	0.783484	-0.468236	-0.222	-0.609	0.471	0	173	422	3
2026-02-19	12:36:40.690	36.505	8.155	-6.335	0.628056	0.796172	-0.413824	-0.222	-0.609	0.471	0	173	422	3
2026-02-19	12:36:40.710	30.03	1.645	-6.755	0.51362	0.865712	-0.332328	-0.222	-0.6075	0.4755	0	173	422	3
2026-02-19	12:36:40.730	30.31	0.385	-8.19	0.437736	0.83692	-0.3843	-0.2235	-0.606	0.48	0	173	422	3
2026-02-19	12:36:40.750	37.065	4.445	-12.74	0.395524	0.717116	-0.464332	-0.2205	-0.6045	0.489	0	173	422	3
2026-02-19	12:36:40.770	51.03	16.905	-20.125	0.395768	0.559736	-0.511912	-0.219	-0.6045	0.4965	0	173	422	3
2026-02-19	12:36:40.790	55.72	25.69	-16.31	0.470676	0.58316	-0.477996	-0.2175	-0.609	0.498	0	173	422	3
2026-02-19	12:36:40.810	61.985	22.015	-5.46	0.492392	0.620492	-0.492392	-0.219	-0.6105	0.507	0	176	374	3
2026-02-19	12:36:40.830	51.625	16.52	-0.385	0.494588	0.746396	-0.482388	-0.2175	-0.6015	0.5145	0	176	374	3
2026-02-19	12:36:40.850	52.675	12.11	-7.35	0.466528	0.867176	-0.447252	-0.2145	-0.6	0.519	0	176	374	3
2026-02-19	12:36:40.870	60.06	10.08	-20.23	0.477508	0.898408	-0.46604	-0.2205	-0.6	0.5295	0	176	374	3
2026-02-19	12:36:40.890	62.37	12.005	-29.435	0.458476	0.829844	-0.465552	-0.219	-0.591	0.5355	0	176	374	3
2026-02-19	12:36:40.910	64.89	14.455	-31.36	0.454816	0.73322	-0.496296	-0.213	-0.591	0.5445	0	176	374	3
2026-02-19	12:36:40.930	58.275	10.57	-21.84	0.447496	0.684908	-0.529968	-0.2085	-0.5955	0.5655	0	176	374	3
2026-02-19	12:36:40.950	43.015	6.335	-8.96	0.433832	0.72224	-0.539484	-0.204	-0.5895	0.573	0	176	374	3
2026-02-19	12:36:40.970	26.635	0.665	1.365	0.392352	0.814472	-0.510448	-0.2025	-0.591	0.573	0	176	374	3
2026-02-19	12:36:40.990	20.545	-4.27	4.2	0.372832	0.843996	-0.525088	-0.204	-0.591	0.582	0	176	374	3
2026-02-19	12:36:41.010	16.625	-6.86	4.41	0.400404	0.813252	-0.542412	-0.204	-0.5865	0.5865	0	180	369	3
2026-02-19	12:36:41.030	9.835	-13.335	4.41	0.442616	0.769332	-0.548268	-0.1995	-0.588	0.5865	0	180	369	3
2026-02-19	12:36:41.050	4.515	-18.06	5.215	0.461648	0.741516	-0.526064	-0.2025	-0.585	0.594	0	180	369	3
2026-02-19	12:36:41.070	3.535	-17.36	6.895	0.432124	0.74786	-0.517524	-0.2055	-0.582	0.5925	0	180	369	3
2026-02-19	12:36:41.090	11.97	-10.045	0.875	0.416752	0.723948	-0.54656	-0.204	-0.585	0.594	0	180	369	3
2026-02-19	12:36:41.110	19.67	-4.515	-8.995	0.442128	0.650748	-0.568032	-0.2055	-0.5865	0.597	0	180	369	3
2026-02-19	12:36:41.130	21.245	-6.93	-12.075	0.486048	0.607316	-0.524112	-0.207	-0.582	0.5955	0	180	369	3
2026-02-19	12:36:41.150	20.79	-10.36	-6.72	0.503128	0.593408	-0.526064	-0.201	-0.5775	0.6	0	180	369	3
2026-02-19	12:36:41.170	16.765	-10.78	1.855	0.501908	0.615856	-0.565348	-0.201	-0.582	0.6075	0	180	369	3
2026-02-19	12:36:41.190	10.85	-10.57	9.8	0.478972	0.660264	-0.591212	-0.201	-0.5805	0.6075	0	180	369	3
2026-02-19	12:36:41.210	4.48	-11.62	14.315	0.446032	0.722728	-0.566324	-0.198	-0.5745	0.6075	0	183	398	3
2026-02-19	12:36:41.230	5.355	-11.305	13.02	0.40382	0.735172	-0.562176	-0.2025	-0.576	0.612	0	183	398	3
2026-02-19	12:36:41.250	10.15	-7.315	8.645	0.407724	0.73932	-0.56242	-0.2025	-0.573	0.6105	0	183	398	3
2026-02-19	12:36:41.270	12.81	-9.695	6.895	0.399184	0.77958	-0.578036	-0.207	-0.5745	0.6135	0	183	398	3
2026-02-19	12:36:41.290	13.265	-13.055	3.325	0.419924	0.814472	-0.569984	-0.2115	-0.5775	0.621	0	183	398	3
2026-02-19	12:36:41.310	14	-10.01	-2.555	0.413336	0.771528	-0.543144	-0.207	-0.576	0.6255	0	183	398	3
2026-02-19	12:36:41.330	10.85	-7.315	-3.36	0.39528	0.725168	-0.550464	-0.2055	-0.5745	0.624	0	183	398	3
2026-02-19	12:36:41.350	6.825	-7.385	-1.085	0.384544	0.725168	-0.588528	-0.2085	-0.57	0.624	0	183	398	3
2026-02-19	12:36:41.370	-3.92	-10.15	3.885	0.377224	0.729072	-0.576816	-0.201	-0.567	0.624	0	183	398	3
2026-02-19	12:36:41.390	-13.23	-16.24	8.96	0.368196	0.74176	-0.562908	-0.195	-0.57	0.6225	0	183	398	3
2026-02-19	12:36:41.410	-16.765	-20.58	9.31	0.39894	0.737856	-0.532896	-0.1935	-0.5715	0.6255	0	183	439	3
2026-02-19	12:36:41.430	-11.095	-18.83	3.745	0.422364	0.730536	-0.513376	-0.1965	-0.57	0.624	0	183	439	3
2026-02-19	12:36:41.450	-2.345	-15.015	-1.33	0.436272	0.67344	-0.524356	-0.201	-0.567	0.618	0	183	439	3
2026-02-19	12:36:41.470	-2.275	-12.775	0.42	0.429684	0.68686	-0.523624	-0.204	-0.57	0.618	0	183	439	3
2026-02-19	12:36:41.490	-0.14	-11.06	2.1	0.423584	0.712968	-0.531676	-0.201	-0.576	0.6195	0	183	439	3
2026-02-19	12:36:41.510	1.19	-10.045	3.29	0.396012	0.742248	-0.511912	-0.1995	-0.5775	0.6225	0	183	439	3
2026-02-19	12:36:41.530	4.865	-5.635	0.805	0.380396	0.738832	-0.523868	-0.198	-0.576	0.6255	0	183	439	3
2026-02-19	12:36:41.550	10.57	1.05	-5.18	0.399672	0.744932	-0.533384	-0.195	-0.573	0.618	0	183	439	3
2026-02-19	12:36:41.570	16.66	1.19	-6.72	0.405284	0.739808	-0.5307	-0.1935	-0.573	0.6165	0	183	439	3
2026-02-19	12:36:41.590	16.94	-1.96	-3.29	0.399916	0.742492	-0.50142	-0.195	-0.5745	0.624	0	183	439	3
2026-02-19	12:36:41.610	14.77	-3.64	1.26	0.387472	0.747616	-0.495076	-0.1965	-0.5715	0.6255	0	179	474	3
2026-02-19	12:36:41.630	12.705	-2.695	3.22	0.366244	0.76006	-0.4697	-0.2025	-0.57	0.6225	0	179	474	3
2026-02-19	12:36:41.650	13.3	-2.135	5.25	0.360632	0.769576	-0.457256	-0.2025	-0.5685	0.633	0	179	474	3
2026-02-19	12:36:41.670	12.53	-3.675	10.36	0.3721	0.81862	-0.437248	-0.1965	-0.5655	0.639	0	179	474	3
2026-02-19	12:36:41.690	9.73	-4.725	15.015	0.381372	0.892796	-0.422852	-0.195	-0.567	0.6375	0	179	474	3
2026-02-19	12:36:41.710	8.225	-5.32	14.98	0.386496	0.959164	-0.416508	-0.195	-0.567	0.6375	0	179	474	3
2026-02-19	12:36:41.730	9.345	-6.02	10.22	0.381128	0.992592	-0.440664	-0.195	-0.567	0.6375	0	179	474	3
2026-02-19	12:36:41.750	10.115	-3.36	2.415	0.406992	1.003328	-0.594384	-0.1995	-0.5655	0.6375	0	179	474	3
2026-02-19	12:36:41.770	2.24	-1.47	-1.05	0.477996	1.052128	-0.81008	-0.204	-0.5655	0.6405	0	179	474	3
2026-02-19	12:36:41.790	-25.305	-7.035	4.865	0.55754	1.061888	-0.742248	-0.2025	-0.567	0.642	0	179	474	3
2026-02-19	12:36:41.810	-37.45	-9.065	8.89	0.584624	1.017724	-0.634644	-0.198	-0.567	0.639	0	172	494	3
2026-02-19	12:36:41.830	-55.37	-0.875	14.98	0.629764	0.870592	-0.458964	-0.204	-0.57	0.6375	0	172	494	3
2026-02-19	12:36:41.850	-73.99	18.165	18.48	0.623176	0.72102	-0.413336	-0.216	-0.5745	0.627	0	172	494	3
2026-02-19	12:36:41.870	-94.22	47.005	15.645	0.586576	0.65514	-0.428464	-0.2205	-0.576	0.609	0	172	494	3
2026-02-19	12:36:41.890	-107.8	81.55	8.54	0.565592	0.62952	-0.458232	-0.216	-0.5805	0.5895	0	172	494	3
2026-02-19	12:36:41.910	-114.52	100.555	3.465	0.574376	0.693692	-0.490196	-0.2175	-0.5865	0.561	0	172	494	3
2026-02-19	12:36:41.930	-116.235	97.44	-1.225	0.55876	0.823988	-0.493124	-0.219	-0.5895	0.531	0	172	494	3
2026-02-19	12:36:41.950	-101.43	90.02	-6.72	0.504592	0.885476	-0.55998	-0.2175	-0.594	0.5085	0	172	494	3
2026-02-19	12:36:41.970	-69.09	86.065	-23.66	0.4941	0.848144	-0.644648	-0.2175	-0.5985	0.4875	0	172	494	3
2026-02-19	12:36:41.990	-55.51	70.245	-26.215	0.510692	0.820816	-0.547292	-0.2175	-0.597	0.4695	0	172	494	3
2026-02-19	12:36:42.010	-54.355	53.13	-18.2	0.520452	0.803248	-0.494344	-0.2175	-0.5955	0.4515	0	167	506	3
2026-02-19	12:36:42.030	-63.175	29.54	-5.53	0.446276	0.757132	-0.451156	-0.2115	-0.594	0.432	0	167	506	3
2026-02-19	12:36:42.050	-78.505	11.935	9.135	0.494588	0.719068	-0.340136	-0.2085	-0.5895	0.4185	0	167	506	3
2026-02-19	12:36:42.070	-78.61	-0.245	13.545	0.5368	0.706624	-0.25498	-0.207	-0.5895	0.4125	0	167	506	3
2026-02-19	12:36:42.090	-69.86	-5.355	10.465	0.512644	0.680028	-0.22814	-0.204	-0.591	0.396	0	167	506	3
2026-02-19	12:36:42.110	-59.43	-5.635	4.76	0.480436	0.67222	-0.269376	-0.204	-0.5925	0.3825	0	167	506	3
2026-02-19	12:36:42.130	-48.195	-12.53	2.555	0.46604	0.668316	-0.257908	-0.207	-0.591	0.3765	0	167	506	3
2026-02-19	12:36:42.150	-39.935	-16.38	1.33	0.490684	0.667828	-0.208864	-0.204	-0.5895	0.3615	0	167	506	3
2026-02-19	12:36:42.170	-31.955	-14.14	0.315	0.515084	0.6527	-0.216916	-0.207	-0.5835	0.3525	0	167	506	3
2026-02-19	12:36:42.190	-23.835	-12.18	1.085	0.534848	0.630252	-0.227652	-0.21	-0.579	0.348	0	167	506	3
2026-02-19	12:36:42.210	-16.24	-10.255	3.78	0.560224	0.630984	-0.173728	-0.204	-0.582	0.3405	0	164	494	3
2026-02-19	12:36:42.230	-6.65	-6.825	4.76	0.589504	0.689056	-0.103456	-0.2025	-0.5835	0.342	0	164	494	3
2026-02-19	12:36:42.250	5.11	-8.225	4.13	0.579012	0.763964	-0.065636	-0.204	-0.5805	0.339	0	164	494	3
2026-02-19	12:36:42.270	18.725	-11.2	3.22	0.544852	0.77836	-0.08686399	-0.2055	-0.579	0.333	0	164	494	3
2026-02-19	12:36:42.290	27.195	-14.21	5.215	0.526064	0.747372	-0.098088	-0.2085	-0.5805	0.3405	0	164	494	3
2026-02-19	12:36:42.310	28.56	-21	10.395	0.412116	0.78324	-0.107848	-0.2085	-0.5805	0.3555	0	164	494	3
2026-02-19	12:36:42.330	37.275	-25.095	7.7	0.40626	0.782996	-0.092476	-0.207	-0.585	0.3615	0	164	494	3
2026-02-19	12:36:42.350	51.065	-32.13	5.74	0.428708	0.81374	-0.107604	-0.21	-0.588	0.363	0	164	494	3
2026-02-19	12:36:42.370	62.825	-40.005	2.17	0.462868	0.89304	-0.104188	-0.216	-0.585	0.375	0	164	494	3
2026-02-19	12:36:42.390	67.13	-42.315	-2.835	0.538264	1.021628	-0.10492	-0.216	-0.5835	0.387	0	164	494	3
2026-02-19	12:36:42.410	57.96	-39.62	-9.52	0.58438	1.140944	-0.081008	-0.216	-0.588	0.3945	0	165	441	3
2026-02-19	12:36:42.430	34.16	-27.265	-18.55	0.587552	1.231712	0.020496	-0.219	-0.5865	0.411	0	165	441	3
2026-02-19	12:36:42.450	16.17	-12.075	-26.635	0.544852	1.09312	0.045384	-0.216	-0.5865	0.4155	0	165	441	3
2026-02-19	12:36:42.470	16.275	-6.16	-20.965	0.588772	0.9089	-0.111752	-0.2085	-0.594	0.414	0	165	441	3
2026-02-19	12:36:42.490	16.975	-5.67	-4.2	0.666852	0.720288	-0.222528	-0.2055	-0.5925	0.42	0	165	441	3
2026-02-19	12:36:42.510	17.22	-1.855	7.49	0.7137	0.644404	-0.327204	-0.2055	-0.5895	0.4245	0	165	441	3
2026-02-19	12:36:42.530	41.16	5.285	10.955	0.679296	0.596092	-0.492148	-0.204	-0.5895	0.423	0	165	441	3
2026-02-19	12:36:42.550	55.335	16.94	3.92	0.53436	0.529236	-0.526064	-0.207	-0.591	0.4305	0	165	441	3
2026-02-19	12:36:42.570	63.84	17.745	3.045	0.490196	0.808128	-0.433832	-0.2085	-0.591	0.438	0	165	441	3
2026-02-19	12:36:42.590	58.905	16.065	0.035	0.355996	0.7686	-0.535092	-0.2085	-0.588	0.441	0	165	441	3
2026-02-19	12:36:42.610	74.83	24.64	-15.155	0.331352	0.723948	-0.670512	-0.213	-0.585	0.453	0	171	381	3
2026-02-19	12:36:42.630	92.155	23.8	-26.25	0.44774	0.748104	-0.715408	-0.2115	-0.5865	0.465	0	171	381	3
2026-02-19	12:36:42.650	83.51	7.595	-23.1	0.501908	0.845216	-0.611952	-0.207	-0.588	0.4755	0	171	381	3
2026-02-19	12:36:42.670	70.805	-1.575	-25.235	0.49044	0.932568	-0.487512	-0.2085	-0.585	0.4935	0	171	381	3
2026-02-19	12:36:42.690	57.365	-2.415	-30.275	0.474336	0.878644	-0.416996	-0.201	-0.585	0.51	0	171	381	3
2026-02-19	12:36:42.710	41.23	4.62	-29.085	0.48434	0.762988	-0.405284	-0.1965	-0.5835	0.519	0	171	381	3
2026-02-19	12:36:42.730	31.465	11.445	-20.3	0.46726	0.696864	-0.494344	-0.195	-0.582	0.5235	0	171	381	3
2026-02-19	12:36:42.750	22.4	8.19	-7.98	0.408944	0.732244	-0.512156	-0.186	-0.5835	0.5265	0	171	381	3
2026-02-19	12:36:42.770	15.47	1.995	0.14	0.38186	0.798368	-0.509472	-0.1815	-0.5805	0.531	0	171	381	3
2026-02-19	12:36:42.790	11.865	-2.31	2.345	0.38796	0.818864	-0.5246	-0.1845	-0.5805	0.531	0	171	381	3
2026-02-19	12:36:42.810	9.66	-4.9	0.77	0.405528	0.783972	-0.514352	-0.1875	-0.5805	0.5295	0	180	366	3
2026-02-19	12:36:42.830	10.605	-5.565	-2.1	0.410896	0.739076	-0.488244	-0.1875	-0.579	0.531	0	180	366	3
2026-02-19	12:36:42.850	14.84	-5.81	-4.48	0.416996	0.72468	-0.487268	-0.1875	-0.579	0.531	0	180	366	3
2026-02-19	12:36:42.870	15.75	-7.245	-3.43	0.417728	0.720776	-0.490196	-0.1815	-0.5895	0.5445	0	180	366	3
2026-02-19	12:36:42.890	12.74	-9.03	-0.49	0.415776	0.73444	-0.486536	-0.1815	-0.5895	0.5445	0	180	366	3
2026-02-19	12:36:42.910	7.63	-13.125	5.32	0.421876	0.732976	-0.51972	-0.171	-0.579	0.546	0	180	366	3
2026-02-19	12:36:42.930	-1.645	-17.08	12.18	0.438224	0.726388	-0.559736	-0.171	-0.579	0.546	0	180	366	3
2026-02-19	12:36:42.950	-16.73	-26.74	23.975	0.537044	0.728584	-0.566568	-0.171	-0.579	0.546	0	180	366	3
2026-02-19	12:36:42.970	-20.79	-34.51	24.36	0.611464	0.73322	-0.472628	-0.1755	-0.579	0.543	0	180	366	3
2026-02-19	12:36:42.990	-2.485	-22.19	9.59	0.557052	0.690276	-0.472384	-0.1785	-0.576	0.537	0	180	366	3
2026-02-19	12:36:43.010	6.86	-10.325	4.41	0.4697	0.737856	-0.502152	-0.1815	-0.5715	0.534	0	187	388	3
2026-02-19	12:36:43.030	13.58	-2.59	0.28	0.41602	0.78812	-0.515816	-0.1875	-0.5745	0.54	0	187	388	3
2026-02-19	12:36:43.050	21.525	-2.975	-7.21	0.408456	0.772016	-0.485316	-0.186	-0.5775	0.546	0	187	388	3
2026-02-19	12:36:43.070	27.405	-0.385	-16.905	0.479948	0.747372	-0.46726	-0.1815	-0.5775	0.549	0	187	388	3
2026-02-19	12:36:43.090	27.475	0.91	-19.775	0.501908	0.712236	-0.479704	-0.1785	-0.579	0.5535	0	187	388	3
2026-02-19	12:36:43.110	23.1	1.855	-15.505	0.440908	0.702964	-0.492392	-0.1755	-0.576	0.5565	0	187	388	3
2026-02-19	12:36:43.130	16.31	2.485	-7.63	0.382592	0.731512	-0.512644	-0.1725	-0.573	0.555	0	187	388	3
2026-02-19	12:36:43.150	9.695	1.155	-0.525	0.344772	0.737612	-0.534604	-0.1755	-0.576	0.561	0	187	388	3
2026-02-19	12:36:43.170	6.51	-4.13	4.095	0.338672	0.706624	-0.560468	-0.171	-0.5745	0.5595	0	187	388	3
2026-02-19	12:36:43.190	3.815	-14.42	8.96	0.360632	0.74664	-0.558516	-0.171	-0.5715	0.5535	0	187	388	3
2026-02-19	12:36:43.210	2.66	-22.05	12.425	0.414312	0.786656	-0.539484	-0.1755	-0.576	0.5595	0	190	421	3
2026-02-19	12:36:43.230	1.19	-24.36	10.885	0.4636	0.806908	-0.493612	-0.1755	-0.5745	0.558	0	190	421	3
2026-02-19	12:36:43.250	3.5	-20.37	4.935	0.483364	0.807884	-0.474824	-0.171	-0.5745	0.5625	0	190	421	3
2026-02-19	12:36:43.270	7.875	-8.645	-3.78	0.472628	0.74786	-0.495076	-0.168	-0.576	0.5625	0	190	421	3
2026-02-19	12:36:43.290	2.345	-7.245	-1.435	0.437004	0.735904	-0.497028	-0.165	-0.567	0.5595	0	190	421	3
2026-02-19	12:36:43.310	-0.455	-8.995	3.955	0.417728	0.754448	-0.502152	-0.1635	-0.567	0.567	0	190	421	3
2026-02-19	12:36:43.330	-4.235	-8.96	6.685	0.406016	0.77836	-0.488488	-0.1665	-0.5745	0.573	0	190	421	3
2026-02-19	12:36:43.350	-3.15	-7.56	3.57	0.397232	0.790804	-0.412848	-0.168	-0.5745	0.5655	0	190	421	3
2026-02-19	12:36:43.370	7.385	-4.27	0.315	0.316468	0.774456	-0.540948	-0.168	-0.5745	0.5595	0	190	421	3
2026-02-19	12:36:43.390	-9.87	-8.61	4.48	0.406748	0.841312	-0.522892	-0.1695	-0.576	0.5625	0	190	421	3
2026-02-19	12:36:43.410	3.745	-6.44	-7	0.439688	0.744444	-0.467504	-0.171	-0.576	0.558	0	188	450	3
2026-02-19	12:36:43.430	7.14	-0.875	-8.05	0.439932	0.712236	-0.452376	-0.1695	-0.5715	0.558	0	188	450	3
2026-02-19	12:36:43.450	7.14	0.49	-3.15	0.40138	0.717604	-0.456768	-0.1695	-0.57	0.5625	0	188	450	3
2026-02-19	12:36:43.470	7.84	0.385	0.175	0.39284	0.734684	-0.444812	-0.165	-0.573	0.5565	0	188	450	3
2026-02-19	12:36:43.490	9.835	-1.05	3.15	0.39162	0.763232	-0.431392	-0.165	-0.5745	0.5595	0	188	450	3
2026-02-19	12:36:43.510	15.995	-2.275	5.355	0.367464	0.764452	-0.44042	-0.165	-0.573	0.567	0	188	450	3
2026-02-19	12:36:43.530	19.565	-4.41	7.175	0.326472	0.777872	-0.430904	-0.1635	-0.573	0.567	0	188	450	3
2026-02-19	12:36:43.550	21.84	-8.155	9.415	0.335744	0.80642	-0.44164	-0.1605	-0.573	0.564	0	188	450	3
2026-02-19	12:36:43.570	26.565	-11.795	10.29	0.384056	0.80764	-0.465796	-0.1635	-0.573	0.5655	0	188	450	3
2026-02-19	12:36:43.590	28.07	-14.21	11.585	0.43676	0.831308	-0.446276	-0.165	-0.567	0.573	0	188	450	3
2026-02-19	12:36:43.610	26.495	-12.495	11.165	0.48068	0.859124	-0.432612	-0.1635	-0.564	0.5805	0	181	466	3
2026-02-19	12:36:43.630	18.025	-7.63	8.68	0.497516	0.889868	-0.403088	-0.1665	-0.5655	0.5835	0	181	466	3
2026-02-19	12:36:43.650	6.58	-3.71	7.42	0.467504	0.951844	-0.470188	-0.171	-0.5595	0.5835	0	181	466	3
2026-02-19	12:36:43.670	-10.08	-1.96	10.255	0.407968	1.0431	-0.621468	-0.1695	-0.5565	0.5835	0	181	466	3
2026-02-19	12:36:43.690	-44.73	-0.945	13.055	0.370636	1.105076	-0.675148	-0.1695	-0.564	0.582	0	181	466	3
2026-02-19	12:36:43.710	-70.84	5.915	8.05	0.547536	1.06262	-0.579744	-0.168	-0.5685	0.5715	0	181	466	3
2026-02-19	12:36:43.730	-82.005	11.095	5.005	0.672464	0.939888	-0.51606	-0.1635	-0.5715	0.5595	0	181	466	3
2026-02-19	12:36:43.750	-94.815	26.46	9.485	0.652456	0.826916	-0.433832	-0.1665	-0.573	0.549	0	181	466	3
2026-02-19	12:36:43.770	-104.51	64.295	2.31	0.576084	0.766404	-0.415532	-0.168	-0.5745	0.525	0	181	466	3
2026-02-19	12:36:43.790	-100.835	101.29	-19.915	0.47824	0.687348	-0.422608	-0.168	-0.579	0.504	0	181	466	3
2026-02-19	12:36:43.810	-98.7	120.295	-30.94	0.549732	0.630252	-0.523624	-0.1665	-0.582	0.486	0	173	475	3
2026-02-19	12:36:43.830	-97.615	96.74	-21.595	0.606584	0.746396	-0.6161	-0.159	-0.582	0.462	0	173	475	3
2026-02-19	12:36:43.850	-97.895	54.11	-4.305	0.631228	0.769088	-0.591944	-0.1515	-0.5775	0.438	0	173	475	3
2026-02-19	12:36:43.870	-85.96	35.49	-2.205	0.551196	0.929396	-0.355508	-0.153	-0.576	0.4215	0	173	475	3
2026-02-19	12:36:43.890	-45.78	45.675	-26.18	0.533872	0.914024	-0.511668	-0.1575	-0.576	0.4155	0	173	475	3
2026-02-19	12:36:43.910	-32.795	35.315	-31.325	0.51118	0.842044	-0.533628	-0.1575	-0.576	0.4155	0	173	475	3
2026-02-19	12:36:43.930	-40.95	6.125	-19.18	0.42456	0.753472	-0.496784	-0.144	-0.5775	0.384	0	173	475	3
2026-02-19	12:36:43.950	-51.485	-7.595	-9.66	0.417484	0.746396	-0.400648	-0.144	-0.5775	0.384	0	173	475	3
2026-02-19	12:36:43.970	-68.005	-20.335	8.295	0.399916	0.671244	-0.273768	-0.129	-0.5715	0.3615	0	173	475	3
2026-02-19	12:36:43.990	-75.46	-22.575	18.795	0.393572	0.664656	-0.22082	-0.123	-0.567	0.36	0	173	475	3
2026-02-19	12:36:44.010	-61.88	-20.545	21.21	0.455304	0.682468	-0.135176	-0.123	-0.567	0.36	0	167	477	3
2026-02-19	12:36:44.030	-49.175	-18.27	19.285	0.469456	0.708332	-0.1708	-0.135	-0.567	0.321	0	167	477	3
2026-02-19	12:36:44.050	-38.01	-18.48	14.595	0.466772	0.732976	-0.198128	-0.135	-0.5595	0.3195	0	167	477	3
2026-02-19	12:36:44.070	-32.48	-21.7	11.025	0.486048	0.717116	-0.23668	-0.129	-0.5655	0.3165	0	167	477	3
2026-02-19	12:36:44.090	-28	-22.995	9.87	0.512644	0.697108	-0.254736	-0.135	-0.555	0.3075	0	167	477	3
2026-02-19	12:36:44.110	-24.745	-22.785	10.43	0.553392	0.70638	-0.185928	-0.132	-0.5565	0.3015	0	167	477	3
2026-02-19	12:36:44.130	-20.405	-20.965	11.41	0.585356	0.765916	-0.139812	-0.141	-0.5595	0.3105	0	167	477	3
2026-02-19	12:36:44.150	-14.735	-21.42	15.225	0.586332	0.83204	-0.121268	-0.138	-0.552	0.2985	0	167	477	3
2026-02-19	12:36:44.170	-7.805	-22.925	15.12	0.562908	0.887428	-0.116388	-0.1395	-0.552	0.303	0	167	477	3
2026-02-19	12:36:44.190	-3.01	-21.945	7.945	0.505812	0.861808	-0.102236	-0.147	-0.5505	0.3	0	167	477	3
2026-02-19	12:36:44.210	3.36	-17.605	3.045	0.449448	0.793244	-0.086376	-0.1515	-0.5505	0.2955	0	165	448	1
2026-02-19	12:36:44.230	14.7	-12.355	-0.07	0.427488	0.740052	-0.112728	-0.1515	-0.5505	0.3015	0	165	448	1
2026-02-19	12:36:44.250	29.295	-12.285	-2.73	0.428708	0.695888	-0.152256	-0.15	-0.546	0.3015	0	165	448	1
2026-02-19	12:36:44.270	39.445	-13.09	-3.185	0.443836	0.68686	-0.137128	-0.147	-0.546	0.3075	0	165	448	1
2026-02-19	12:36:44.290	45.815	-12.04	-2.975	0.455548	0.72224	-0.115656	-0.1485	-0.5505	0.315	0	165	448	1
2026-02-19	12:36:44.310	53.795	-10.535	-5.075	0.48068	0.776164	-0.103456	-0.147	-0.552	0.321	0	165	448	1
2026-02-19	12:36:44.330	58.205	-13.72	-6.51	0.504592	0.86254	-0.058316	-0.147	-0.5535	0.33	0	165	448	1
2026-02-19	12:36:44.350	59.29	-20.16	-7.035	0.528992	0.990396	-0.033428	-0.1485	-0.558	0.336	0	165	448	1
2026-02-19	12:36:44.370	54.285	-25.515	-5.635	0.535824	1.115812	-0.043432	-0.1515	-0.5595	0.348	0	165	448	1
2026-02-19	12:36:44.390	44.73	-22.26	-7.56	0.529968	1.144116	-0.07076	-0.15	-0.5625	0.36	0	165	448	1
2026-02-19	12:36:44.410	30.345	-12.88	-9.73	0.539972	1.094096	-0.08784	-0.1485	-0.5625	0.369	0	166	388	3
2026-02-19	12:36:44.430	23.03	-6.755	-5.425	0.571936	1.04066	-0.2257	-0.1455	-0.5625	0.3735	0	166	388	3
2026-02-19	12:36:44.450	25.025	-2.59	1.295	0.643672	0.948672	-0.358436	-0.1425	-0.564	0.3735	0	166	388	3
2026-02-19	12:36:44.470	23.31	0.14	2.73	0.70394	0.870104	-0.435784	-0.15	-0.561	0.378	0	166	388	3
2026-02-19	12:36:44.490	29.68	-2.45	0.56	0.622688	0.696132	-0.464576	-0.15	-0.558	0.3795	0	166	388	3
2026-02-19	12:36:44.510	39.795	0.35	-11.76	0.4392	0.643184	-0.360632	-0.1455	-0.5625	0.3825	0	166	388	3
2026-02-19	12:36:44.530	49.7	7.28	-18.865	0.418216	0.732976	-0.350628	-0.147	-0.5625	0.396	0	166	388	3
2026-02-19	12:36:44.550	60.2	16.345	-19.075	0.452864	0.702964	-0.44286	-0.1425	-0.5595	0.402	0	166	388	3
2026-02-19	12:36:44.570	63.42	25.9	-15.995	0.50508	0.674904	-0.514352	-0.1365	-0.5595	0.408	0	166	388	3
2026-02-19	12:36:44.590	51.87	29.365	-12.495	0.540948	0.65148	-0.489952	-0.138	-0.561	0.423	0	166	388	3
2026-02-19	12:36:44.610	48.055	17.815	0.84	0.516548	0.704672	-0.503372	-0.1365	-0.5565	0.4305	0	171	341	3
2026-02-19	12:36:44.630	52.85	11.725	-1.015	0.472872	0.804712	-0.447496	-0.135	-0.558	0.435	0	171	341	3
2026-02-19	12:36:44.650	64.75	16.135	-16.38	0.4209	0.914024	-0.400892	-0.135	-0.5595	0.4425	0	171	341	3
2026-02-19	12:36:44.670	76.615	19.495	-32.025	0.423584	0.945012	-0.426024	-0.1305	-0.5565	0.45	0	171	341	3
2026-02-19	12:36:44.690	65.835	16.45	-38.43	0.447252	0.89304	-0.464332	-0.1305	-0.5565	0.459	0	171	341	3
2026-02-19	12:36:44.710	58.52	13.93	-37.205	0.491904	0.756644	-0.496784	-0.1305	-0.5535	0.471	0	171	341	3
2026-02-19	12:36:44.730	43.47	9.1	-24.15	0.47702	0.68808	-0.48312	-0.126	-0.5535	0.4755	0	171	341	3
2026-02-19	12:36:44.750	23.38	-3.71	0.805	0.405284	0.700036	-0.476044	-0.12	-0.5535	0.48	0	171	341	3
2026-02-19	12:36:44.770	8.225	-12.95	19.565	0.368928	0.765916	-0.498492	-0.1185	-0.555	0.492	0	171	341	3
2026-02-19	12:36:44.790	-0.525	-17.43	24.57	0.375272	0.80764	-0.525088	-0.1125	-0.5535	0.4905	0	171	341	3
2026-02-19	12:36:44.810	1.085	-21.315	19.95	0.432368	0.807152	-0.522648	-0.117	-0.5535	0.4875	0	177	337	3
2026-02-19	12:36:44.830	8.225	-24.605	11.305	0.458964	0.778116	-0.483852	-0.1245	-0.552	0.4905	0	177	337	3
2026-02-19	12:36:44.850	13.755	-20.055	5.04	0.446764	0.742736	-0.46604	-0.126	-0.5535	0.4875	0	177	337	3
2026-02-19	12:36:44.870	13.09	-14.805	6.23	0.442128	0.720044	-0.503616	-0.123	-0.5535	0.489	0	177	337	3
2026-02-19	12:36:44.890	10.71	-15.33	10.955	0.426512	0.718092	-0.547536	-0.12	-0.5535	0.4995	0	177	337	3
2026-02-19	12:36:44.910	10.115	-17.675	13.86	0.427976	0.74664	-0.558028	-0.1245	-0.5505	0.5025	0	177	337	3
2026-02-19	12:36:44.930	12.635	-17.92	11.2	0.444324	0.759572	-0.554612	-0.12	-0.546	0.4995	0	177	337	3
2026-02-19	12:36:44.950	17.675	-15.085	3.115	0.445544	0.721996	-0.563396	-0.1185	-0.549	0.5025	0	177	337	3
2026-02-19	12:36:44.970	21.77	-10.01	-4.655	0.437004	0.667584	-0.585112	-0.1215	-0.552	0.504	0	177	337	3
2026-02-19	12:36:44.990	18.48	-10.535	-3.71	0.457256	0.691496	-0.555832	-0.1215	-0.552	0.504	0	177	337	3
2026-02-19	12:36:45.010	16.24	-14.63	-1.505	0.46116	0.709552	-0.50874	-0.1245	-0.5505	0.513	0	182	369	3
2026-02-19	12:36:45.030	18.515	-10.29	-2.87	0.467016	0.695156	-0.523136	-0.1245	-0.5505	0.513	0	182	369	3
2026-02-19	12:36:45.050	18.585	-7.56	-2.835	0.457012	0.676124	-0.55632	-0.1245	-0.5505	0.513	0	182	369	3
2026-02-19	12:36:45.070	16.835	-5.495	-0.245	0.44408	0.669048	-0.58316	-0.1215	-0.552	0.525	0	182	369	3
2026-02-19	12:36:45.090	13.44	-4.9	2.24	0.43432	0.713944	-0.5734	-0.1275	-0.549	0.528	0	182	369	3
2026-02-19	12:36:45.110	13.58	-4.48	3.185	0.410408	0.75274	-0.573156	-0.12	-0.5445	0.5175	0	182	369	3
2026-02-19	12:36:45.130	14.105	-4.305	1.96	0.387716	0.77958	-0.571204	-0.1215	-0.5445	0.5175	0	182	369	3
2026-02-19	12:36:45.150	12.88	-5.985	0.035	0.381128	0.759084	-0.563396	-0.1215	-0.546	0.5325	0	182	369	3
2026-02-19	12:36:45.170	7.77	-9.94	1.4	0.398452	0.743224	-0.54534	-0.1125	-0.5355	0.5295	0	182	369	3
2026-02-19	12:36:45.190	6.335	-11.27	0.315	0.4453	0.721264	-0.559736	-0.1245	-0.546	0.522	0	182	369	3
2026-02-19	12:36:45.210	6.51	-9.835	-3.01	0.493612	0.70882	-0.560224	-0.1215	-0.543	0.5385	0	184	414	3
2026-02-19	12:36:45.230	8.05	-9.1	-5.145	0.50508	0.679296	-0.541192	-0.117	-0.5385	0.5325	0	184	414	3
