yyyy-MM-dd	HH:mm:ss.fff	gyrX	gyrY	gyrZ	accX	accY	accZ	magX	magY	magZ	Marker	Energy	Angle	Classification
2026-02-19	12:36:16.210	-27.02	-24.955	14.42	0.7015	-0.621468	0.495808	-0.0795	0.792	-0.5145	0	115	512	3
2026-02-19	12:36:16.230	-38.815	-27.685	14.21	0.721264	-0.670512	0.460672	-0.078	0.789	-0.5055	0	115	512	3
2026-02-19	12:36:16.250	-44.275	-29.26	12.705	0.730536	-0.67466	0.3843	-0.075	0.792	-0.501	0	115	512	3
2026-02-19	12:36:16.270	-36.33	-27.895	16.52	0.775188	-0.645136	0.271328	-0.0825	0.8085	-0.4995	0	115	512	3
2026-02-19	12:36:16.290	-13.265	-20.125	24.675	0.751032	-0.62342	0.219844	-0.084	0.8025	-0.489	0	115	512	3
2026-02-19	12:36:16.310	2.17	-12.67	35	0.814716	-0.716384	0.255468	-0.0855	0.8145	-0.4905	0	115	512	3
2026-02-19	12:36:16.330	7	-4.655	45.885	0.815936	-0.739808	0.317688	-0.075	0.8145	-0.4845	0	115	512	3
2026-02-19	12:36:16.350	8.295	6.3	52.815	0.74176	-0.617564	0.440664	-0.078	0.8205	-0.4815	0	115	512	3
2026-02-19	12:36:16.370	-2.31	8.47	49.14	0.703208	-0.61244	0.421388	-0.072	0.825	-0.489	0	115	512	3
2026-02-19	12:36:16.390	-6.825	8.855	43.26	0.671488	-0.646844	0.432124	-0.0615	0.8205	-0.489	0	115	512	3
2026-02-19	12:36:16.410	0.91	8.26	37.73	0.619272	-0.655628	0.389424	-0.051	0.8235	-0.486	0	116	497	3
2026-02-19	12:36:16.430	15.855	6.65	34.72	0.550952	-0.594384	0.370392	-0.042	0.8265	-0.489	0	116	497	3
2026-02-19	12:36:16.450	25.27	3.255	34.475	0.521916	-0.562908	0.409676	-0.039	0.8415	-0.492	0	116	497	3
2026-02-19	12:36:16.470	25.025	-1.61	31.57	0.519476	-0.531188	0.42944	-0.036	0.828	-0.4845	0	116	497	3
2026-02-19	12:36:16.490	28.42	-5.81	25.55	0.504592	-0.543632	0.46726	-0.027	0.822	-0.4845	0	116	497	3
2026-02-19	12:36:16.510	32.165	-8.225	21.84	0.516304	-0.53192	0.485316	-0.0375	0.825	-0.4875	0	116	497	3
2026-02-19	12:36:16.530	26.88	-11.935	18.9	0.539484	-0.554124	0.42456	-0.0285	0.819	-0.498	0	116	497	3
2026-02-19	12:36:16.550	18.83	-16.975	13.825	0.543632	-0.631472	0.366244	-0.027	0.8205	-0.501	0	116	497	3
2026-02-19	12:36:16.570	20.895	-20.685	10.955	0.564372	-0.671244	0.373076	-0.0285	0.8205	-0.5025	0	116	497	3
2026-02-19	12:36:16.590	26.915	-23.59	10.92	0.58438	-0.712724	0.366732	-0.0315	0.819	-0.501	0	116	497	3
2026-02-19	12:36:16.610	33.005	-25.48	12.145	0.59536	-0.699304	0.33062	-0.033	0.8175	-0.504	0	118	476	3
2026-02-19	12:36:16.630	35.14	-25.795	13.93	0.603168	-0.715164	0.3172	-0.0315	0.8115	-0.5115	0	118	476	3
2026-02-19	12:36:16.650	36.54	-25.375	15.575	0.598776	-0.68686	0.325252	-0.0285	0.8055	-0.516	0	118	476	3
2026-02-19	12:36:16.670	39.06	-25.34	16.38	0.604632	-0.697352	0.346236	-0.03	0.804	-0.516	0	118	476	3
2026-02-19	12:36:16.690	43.4	-24.955	16.835	0.591944	-0.656848	0.37576	-0.0345	0.798	-0.5175	0	118	476	3
2026-02-19	12:36:16.710	46.095	-23.905	15.155	0.592188	-0.620004	0.419924	-0.0375	0.792	-0.5205	0	118	476	3
2026-02-19	12:36:16.730	43.365	-23.135	12.6	0.598532	-0.624396	0.457012	-0.0375	0.792	-0.5205	0	118	476	3
2026-02-19	12:36:16.750	42.945	-24.08	12.32	0.59414	-0.607072	0.466772	-0.0465	0.777	-0.528	0	118	476	3
2026-02-19	12:36:16.770	42.07	-25.06	10.43	0.582428	-0.549	0.475068	-0.0465	0.7785	-0.5415	0	118	476	3
2026-02-19	12:36:16.790	35.735	-26.81	7.245	0.565836	-0.560468	0.495076	-0.045	0.7725	-0.5415	0	118	476	3
2026-02-19	12:36:16.810	28.175	-28.91	3.5	0.58682	-0.571936	0.490684	-0.06	0.7695	-0.5475	0	121	457	1
2026-02-19	12:36:16.830	21.42	-26.88	4.025	0.611464	-0.614392	0.495564	-0.0495	0.759	-0.546	0	121	457	1
2026-02-19	12:36:16.850	19.565	-21.77	5.04	0.611952	-0.59292	0.489952	-0.0495	0.762	-0.5475	0	121	457	1
2026-02-19	12:36:16.870	15.82	-16.8	5.355	0.62342	-0.618296	0.482144	-0.051	0.7605	-0.5445	0	121	457	1
2026-02-19	12:36:16.890	16.275	-11.795	4.83	0.642696	-0.621956	0.491172	-0.06	0.759	-0.5445	0	121	457	1
2026-02-19	12:36:16.910	18.27	-8.505	2.555	0.657092	-0.619272	0.511668	-0.06	0.759	-0.543	0	121	457	1
2026-02-19	12:36:16.930	13.965	-7.385	0.105	0.682956	-0.617564	0.510204	-0.0615	0.7605	-0.5415	0	121	457	1
2026-02-19	12:36:16.950	10.605	-5.985	-0.98	0.69052	-0.631716	0.503128	-0.06	0.756	-0.5475	0	121	457	1
2026-02-19	12:36:16.970	5.495	-4.725	-0.805	0.69784	-0.653432	0.511912	-0.057	0.7425	-0.5505	0	121	457	1
2026-02-19	12:36:16.990	2.555	-1.925	1.12	0.711504	-0.658556	0.535336	-0.0645	0.7515	-0.552	0	121	457	1
2026-02-19	12:36:17.010	-0.245	2.415	3.325	0.713456	-0.654408	0.532896	-0.063	0.744	-0.549	0	122	453	1
2026-02-19	12:36:17.030	-4.62	7.035	5.565	0.684176	-0.627812	0.524844	-0.069	0.7485	-0.5595	0	122	453	1
2026-02-19	12:36:17.050	-9.52	10.57	7.175	0.664168	-0.632204	0.515572	-0.0645	0.7515	-0.5505	0	122	453	1
2026-02-19	12:36:17.070	-11.83	12.95	7.91	0.6283	-0.61366	0.527772	-0.0615	0.7575	-0.5535	0	122	453	1
2026-02-19	12:36:17.090	-12.565	12.285	8.225	0.603168	-0.626104	0.504348	-0.0615	0.7575	-0.5535	0	122	453	1
2026-02-19	12:36:17.110	-10.78	10.815	8.225	0.592432	-0.624396	0.502396	-0.0555	0.7545	-0.5505	0	122	453	1
2026-02-19	12:36:17.130	-7.91	9.73	8.19	0.592188	-0.635376	0.485072	-0.054	0.7575	-0.5475	0	122	453	1
2026-02-19	12:36:17.150	-2.905	10.395	9.45	0.589016	-0.631228	0.479216	-0.054	0.762	-0.5475	0	122	453	1
2026-02-19	12:36:17.170	1.645	11.515	10.115	0.58438	-0.609024	0.469212	-0.0435	0.7605	-0.5505	0	122	453	1
2026-02-19	12:36:17.190	4.025	12.39	9.38	0.572424	-0.597556	0.470188	-0.042	0.7575	-0.5505	0	122	453	1
2026-02-19	12:36:15.210	-32.795	15.33	-7.84	0.715408	-0.36478	0.667584	-0.126	0.747	-0.537	0	81	519	3
2026-02-19	12:36:15.230	-43.96	4.585	-8.05	0.722728	-0.312564	0.564372	-0.1245	0.747	-0.5415	0	81	519	3
2026-02-19	12:36:15.250	-102.935	3.115	-9.87	0.7564	-0.388448	0.099796	-0.123	0.7515	-0.54	0	81	519	3
2026-02-19	12:36:15.270	-79.765	1.925	2.24	0.842288	-0.637084	0.519964	-0.138	0.7635	-0.5265	0	81	519	3
2026-02-19	12:36:15.290	19.25	-16.765	13.685	0.7747	-0.435784	0.196908	-0.126	0.777	-0.5145	0	81	519	3
2026-02-19	12:36:15.310	67.445	-24.815	15.505	0.824964	-0.546316	0.297924	-0.126	0.783	-0.513	0	81	519	3
2026-02-19	12:36:15.330	81.97	-12.25	10.29	0.777628	-0.266692	0.433588	-0.1305	0.7755	-0.5175	0	81	519	3
2026-02-19	12:36:15.350	42.665	3.045	1.225	0.776652	-0.254736	0.552904	-0.1275	0.753	-0.525	0	81	519	3
2026-02-19	12:36:15.370	4.27	11.305	-5.32	0.765428	-0.302072	0.503128	-0.1185	0.7605	-0.531	0	81	519	3
2026-02-19	12:36:15.390	-27.615	15.785	-10.64	0.771284	-0.347212	0.558516	-0.135	0.7485	-0.528	0	81	519	3
2026-02-19	12:36:15.410	-44.87	16.345	-12.67	0.78568	-0.442128	0.513376	-0.123	0.756	-0.525	0	91	518	3
2026-02-19	12:36:15.430	-39.375	12.81	-7.805	0.77348	-0.378932	0.485804	-0.1305	0.7545	-0.525	0	91	518	3
2026-02-19	12:36:15.450	-25.515	11.13	-2.24	0.770796	-0.399428	0.463112	-0.1305	0.7605	-0.522	0	91	518	3
2026-02-19	12:36:15.470	-9.8	10.15	2.03	0.773968	-0.431636	0.48922	-0.1275	0.768	-0.5205	0	91	518	3
2026-02-19	12:36:15.490	-0.175	8.89	3.92	0.76006	-0.386252	0.537776	-0.1245	0.7695	-0.522	0	91	518	3
2026-02-19	12:36:15.510	0	5.39	3.36	0.762988	-0.396256	0.540948	-0.123	0.7725	-0.522	0	91	518	3
2026-02-19	12:36:15.530	0.105	4.27	3.115	0.76128	-0.426268	0.559004	-0.12	0.7695	-0.525	0	91	518	3
2026-02-19	12:36:15.550	6.65	6.09	3.325	0.746884	-0.354776	0.590724	-0.1185	0.7665	-0.525	0	91	518	3
2026-02-19	12:36:15.570	9.135	7.525	1.785	0.743956	-0.373564	0.59658	-0.117	0.7695	-0.5235	0	91	518	3
2026-02-19	12:36:15.590	14.945	7.665	2.275	0.733952	-0.395524	0.590236	-0.1185	0.7725	-0.525	0	91	518	3
2026-02-19	12:36:15.610	16.31	8.995	3.92	0.740784	-0.362096	0.5917	-0.12	0.7725	-0.5295	0	101	515	3
2026-02-19	12:36:15.630	8.96	12.25	5.425	0.72468	-0.34892	0.614636	-0.12	0.7725	-0.5295	0	101	515	3
2026-02-19	12:36:15.650	1.12	13.86	6.265	0.708088	-0.38308	0.612196	-0.1095	0.7635	-0.531	0	101	515	3
2026-02-19	12:36:15.670	-7.77	7.245	6.79	0.742248	-0.371368	0.528992	-0.117	0.7665	-0.5295	0	101	515	3
2026-02-19	12:36:15.690	-15.295	6.79	6.3	0.771284	-0.406016	0.436516	-0.096	0.774	-0.534	0	101	515	3
2026-02-19	12:36:15.710	-3.885	9.52	11.34	0.738588	-0.43798	0.489952	-0.093	0.7695	-0.5325	0	101	515	3
2026-02-19	12:36:15.730	3.955	7.245	13.195	0.721996	-0.398208	0.55144	-0.096	0.7785	-0.5295	0	101	515	3
2026-02-19	12:36:15.750	4.27	1.89	13.895	0.721508	-0.367708	0.528016	-0.102	0.768	-0.522	0	101	515	3
2026-02-19	12:36:15.770	-5.95	-3.78	14.525	0.714188	-0.344772	0.462624	-0.0945	0.762	-0.5325	0	101	515	3
2026-02-19	12:36:15.790	-19.95	-7.98	14.945	0.726388	-0.387716	0.455548	-0.0945	0.7665	-0.5325	0	101	515	3
2026-02-19	12:36:15.810	-23.415	-8.96	15.995	0.734684	-0.466528	0.476288	-0.096	0.771	-0.5325	0	109	518	3
2026-02-19	12:36:15.830	-13.265	-8.19	16.135	0.753228	-0.429928	0.489708	-0.0915	0.7755	-0.5175	0	109	518	3
2026-02-19	12:36:15.850	-2.94	-7	17.92	0.740052	-0.407724	0.472384	-0.09	0.783	-0.5175	0	109	518	3
2026-02-19	12:36:15.870	-0.875	-6.72	18.06	0.737612	-0.365268	0.468236	-0.0855	0.7815	-0.5175	0	109	518	3
2026-02-19	12:36:15.890	-3.64	-8.225	17.57	0.7442	-0.424804	0.44164	-0.093	0.7875	-0.5205	0	109	518	3
2026-02-19	12:36:15.910	-2.415	-9.205	19.355	0.774456	-0.518256	0.449448	-0.081	0.789	-0.519	0	109	518	3
2026-02-19	12:36:15.930	5.355	-7.07	20.825	0.78202	-0.465796	0.498492	-0.0945	0.7845	-0.5235	0	109	518	3
2026-02-19	12:36:15.950	20.195	-8.365	22.05	0.77714	-0.45262	0.50264	-0.084	0.795	-0.5175	0	109	518	3
2026-02-19	12:36:15.970	30.205	-15.015	24.115	0.766404	-0.500932	0.413824	-0.09	0.7875	-0.513	0	109	518	3
2026-02-19	12:36:15.990	25.55	-20.545	24.36	0.7564	-0.472628	0.455548	-0.0885	0.7875	-0.5145	0	109	518	3
2026-02-19	12:36:16.010	27.51	-18.305	26.145	0.73444	-0.496784	0.51606	-0.084	0.7845	-0.5205	0	113	517	3
2026-02-19	12:36:16.030	30.555	-20.195	27.335	0.744444	-0.49288	0.482144	-0.081	0.78	-0.522	0	113	517	3
2026-02-19	12:36:16.050	28.63	-19.565	29.12	0.720776	-0.483608	0.455792	-0.0825	0.7755	-0.5235	0	113	517	3
2026-02-19	12:36:16.070	21.21	-16.555	30.87	0.677588	-0.460184	0.467748	-0.084	0.7755	-0.525	0	113	517	3
2026-02-19	12:36:16.090	15.47	-16.765	30.275	0.676124	-0.449448	0.482632	-0.078	0.777	-0.525	0	113	517	3
2026-02-19	12:36:16.110	6.825	-17.255	28.525	0.684664	-0.434076	0.533628	-0.0765	0.78	-0.525	0	113	517	3
2026-02-19	12:36:16.130	-10.045	-17.99	23.905	0.671488	-0.491172	0.52338	-0.081	0.783	-0.525	0	113	517	3
2026-02-19	12:36:16.150	-24.395	-15.61	24.22	0.693692	-0.656116	0.489708	-0.081	0.7815	-0.522	0	113	517	3
2026-02-19	12:36:16.170	-18.445	-14.84	20.335	0.687836	-0.515328	0.491416	-0.081	0.78	-0.5175	0	113	517	3
2026-02-19	12:36:16.190	-21.665	-20.475	16.835	0.654652	-0.559248	0.5002	-0.0765	0.792	-0.5145	0	113	517	3
2026-02-19	12:36:16.210	-27.02	-24.955	14.42	0.7015	-0.621468	0.495808	-0.0795	0.792	-0.5145	0	115	512	3
2026-02-19	12:36:16.230	-38.815	-27.685	14.21	0.721264	-0.670512	0.460672	-0.078	0.789	-0.5055	0	115	512	3
2026-02-19	12:36:16.250	-44.275	-29.26	12.705	0.730536	-0.67466	0.3843	-0.075	0.792	-0.501	0	115	512	3
2026-02-19	12:36:16.270	-36.33	-27.895	16.52	0.775188	-0.645136	0.271328	-0.0825	0.8085	-0.4995	0	115	512	3
2026-02-19	12:36:16.290	-13.265	-20.125	24.675	0.751032	-0.62342	0.219844	-0.084	0.8025	-0.489	0	115	512	3
2026-02-19	12:36:16.310	2.17	-12.67	35	0.814716	-0.716384	0.255468	-0.0855	0.8145	-0.4905	0	115	512	3
2026-02-19	12:36:16.330	7	-4.655	45.885	0.815936	-0.739808	0.317688	-0.075	0.8145	-0.4845	0	115	512	3
2026-02-19	12:36:16.350	8.295	6.3	52.815	0.74176	-0.617564	0.440664	-0.078	0.8205	-0.4815	0	115	512	3
2026-02-19	12:36:16.370	-2.31	8.47	49.14	0.703208	-0.61244	0.421388	-0.072	0.825	-0.489	0	115	512	3
2026-02-19	12:36:16.390	-6.825	8.855	43.26	0.671488	-0.646844	0.432124	-0.0615	0.8205	-0.489	0	115	512	3
2026-02-19	12:36:16.410	0.91	8.26	37.73	0.619272	-0.655628	0.389424	-0.051	0.8235	-0.486	0	116	497	3
2026-02-19	12:36:16.430	15.855	6.65	34.72	0.550952	-0.594384	0.370392	-0.042	0.8265	-0.489	0	116	497	3
2026-02-19	12:36:16.450	25.27	3.255	34.475	0.521916	-0.562908	0.409676	-0.039	0.8415	-0.492	0	116	497	3
2026-02-19	12:36:16.470	25.025	-1.61	31.57	0.519476	-0.531188	0.42944	-0.036	0.828	-0.4845	0	116	497	3
2026-02-19	12:36:16.490	28.42	-5.81	25.55	0.504592	-0.543632	0.46726	-0.027	0.822	-0.4845	0	116	497	3
2026-02-19	12:36:16.510	32.165	-8.225	21.84	0.516304	-0.53192	0.485316	-0.0375	0.825	-0.4875	0	116	497	3
2026-02-19	12:36:16.530	26.88	-11.935	18.9	0.539484	-0.554124	0.42456	-0.0285	0.819	-0.498	0	116	497	3
2026-02-19	12:36:16.550	18.83	-16.975	13.825	0.543632	-0.631472	0.366244	-0.027	0.8205	-0.501	0	116	497	3
2026-02-19	12:36:16.570	20.895	-20.685	10.955	0.564372	-0.671244	0.373076	-0.0285	0.8205	-0.5025	0	116	497	3
2026-02-19	12:36:16.590	26.915	-23.59	10.92	0.58438	-0.712724	0.366732	-0.0315	0.819	-0.501	0	116	497	3
2026-02-19	12:36:16.610	33.005	-25.48	12.145	0.59536	-0.699304	0.33062	-0.033	0.8175	-0.504	0	118	476	3
2026-02-19	12:36:16.630	35.14	-25.795	13.93	0.603168	-0.715164	0.3172	-0.0315	0.8115	-0.5115	0	118	476	3
2026-02-19	12:36:16.650	36.54	-25.375	15.575	0.598776	-0.68686	0.325252	-0.0285	0.8055	-0.516	0	118	476	3
2026-02-19	12:36:16.670	39.06	-25.34	16.38	0.604632	-0.697352	0.346236	-0.03	0.804	-0.516	0	118	476	3
2026-02-19	12:36:16.690	43.4	-24.955	16.835	0.591944	-0.656848	0.37576	-0.0345	0.798	-0.5175	0	118	476	3
2026-02-19	12:36:16.710	46.095	-23.905	15.155	0.592188	-0.620004	0.419924	-0.0375	0.792	-0.5205	0	118	476	3
2026-02-19	12:36:16.730	43.365	-23.135	12.6	0.598532	-0.624396	0.457012	-0.0375	0.792	-0.5205	0	118	476	3
2026-02-19	12:36:16.750	42.945	-24.08	12.32	0.59414	-0.607072	0.466772	-0.0465	0.777	-0.528	0	118	476	3
2026-02-19	12:36:16.770	42.07	-25.06	10.43	0.582428	-0.549	0.475068	-0.0465	0.7785	-0.5415	0	118	476	3
2026-02-19	12:36:16.790	35.735	-26.81	7.245	0.565836	-0.560468	0.495076	-0.045	0.7725	-0.5415	0	118	476	3
2026-02-19	12:36:16.810	28.175	-28.91	3.5	0.58682	-0.571936	0.490684	-0.06	0.7695	-0.5475	0	121	457	1
2026-02-19	12:36:16.830	21.42	-26.88	4.025	0.611464	-0.614392	0.495564	-0.0495	0.759	-0.546	0	121	457	1
2026-02-19	12:36:16.850	19.565	-21.77	5.04	0.611952	-0.59292	0.489952	-0.0495	0.762	-0.5475	0	121	457	1
2026-02-19	12:36:16.870	15.82	-16.8	5.355	0.62342	-0.618296	0.482144	-0.051	0.7605	-0.5445	0	121	457	1
2026-02-19	12:36:16.890	16.275	-11.795	4.83	0.642696	-0.621956	0.491172	-0.06	0.759	-0.5445	0	121	457	1
2026-02-19	12:36:16.910	18.27	-8.505	2.555	0.657092	-0.619272	0.511668	-0.06	0.759	-0.543	0	121	457	1
2026-02-19	12:36:16.930	13.965	-7.385	0.105	0.682956	-0.617564	0.510204	-0.0615	0.7605	-0.5415	0	121	457	1
2026-02-19	12:36:16.950	10.605	-5.985	-0.98	0.69052	-0.631716	0.503128	-0.06	0.756	-0.5475	0	121	457	1
2026-02-19	12:36:16.970	5.495	-4.725	-0.805	0.69784	-0.653432	0.511912	-0.057	0.7425	-0.5505	0	121	457	1
2026-02-19	12:36:16.990	2.555	-1.925	1.12	0.711504	-0.658556	0.535336	-0.0645	0.7515	-0.552	0	121	457	1
2026-02-19	12:36:17.010	-0.245	2.415	3.325	0.713456	-0.654408	0.532896	-0.063	0.744	-0.549	0	122	453	1
2026-02-19	12:36:17.030	-4.62	7.035	5.565	0.684176	-0.627812	0.524844	-0.069	0.7485	-0.5595	0	122	453	1
2026-02-19	12:36:17.050	-9.52	10.57	7.175	0.664168	-0.632204	0.515572	-0.0645	0.7515	-0.5505	0	122	453	1
2026-02-19	12:36:17.070	-11.83	12.95	7.91	0.6283	-0.61366	0.527772	-0.0615	0.7575	-0.5535	0	122	453	1
2026-02-19	12:36:17.090	-12.565	12.285	8.225	0.603168	-0.626104	0.504348	-0.0615	0.7575	-0.5535	0	122	453	1
2026-02-19	12:36:17.110	-10.78	10.815	8.225	0.592432	-0.624396	0.502396	-0.0555	0.7545	-0.5505	0	122	453	1
2026-02-19	12:36:17.130	-7.91	9.73	8.19	0.592188	-0.635376	0.485072	-0.054	0.7575	-0.5475	0	122	453	1
2026-02-19	12:36:17.150	-2.905	10.395	9.45	0.589016	-0.631228	0.479216	-0.054	0.762	-0.5475	0	122	453	1
2026-02-19	12:36:17.170	1.645	11.515	10.115	0.58438	-0.609024	0.469212	-0.0435	0.7605	-0.5505	0	122	453	1
2026-02-19	12:36:17.190	4.025	12.39	9.38	0.572424	-0.597556	0.470188	-0.042	0.7575	-0.5505	0	122	453	1
2026-02-19	12:36:25.210	-2.695	0.49	-9.765	0.888648	-0.21106	0.431148	-0.2055	0.5745	-0.504	0	454	342	2
2026-02-19	12:36:25.230	-10.465	2.415	-7.49	0.866444	-0.12688	0.449692	-0.2055	0.5685	-0.4965	0	454	342	2
2026-02-19	12:36:25.250	-20.3	11.935	-6.02	0.884256	-0.1525	0.363316	-0.2055	0.564	-0.489	0	454	342	2
2026-02-19	12:36:25.270	-26.915	17.395	-9.31	0.887916	-0.303536	0.36356	-0.2025	0.564	-0.4905	0	454	342	2
2026-02-19	12:36:25.290	-23.1	18.375	-8.68	0.824232	-0.387716	0.379176	-0.1995	0.564	-0.486	0	454	342	2
2026-02-19	12:36:25.310	-12.425	20.37	1.54	0.826916	-0.432856	0.33916	-0.1935	0.57	-0.4815	0	454	342	2
2026-02-19	12:36:25.330	-3.15	22.75	8.89	0.813008	-0.445544	0.389912	-0.189	0.5745	-0.486	0	454	342	2
2026-02-19	12:36:25.350	-1.785	18.69	15.05	0.77226	-0.592188	0.525088	-0.189	0.5745	-0.489	0	454	342	2
2026-02-19	12:36:25.370	-7.105	11.935	24.43	0.706624	-0.639524	0.649284	-0.1815	0.579	-0.492	0	454	342	2
2026-02-19	12:36:25.390	-21.805	11.515	38.08	0.675148	-0.561688	0.661728	-0.1755	0.5835	-0.495	0	454	342	2
2026-02-19	12:36:25.410	-34.055	7.665	34.02	0.607804	-0.586088	0.686128	-0.168	0.588	-0.4935	0	432	349	2
2026-02-19	12:36:25.430	-54.495	12.425	27.615	0.555832	-0.6344	0.731512	-0.165	0.594	-0.4785	0	432	349	2
2026-02-19	12:36:25.450	-62.51	24.605	28.21	0.614148	-0.634156	0.683444	-0.1665	0.6	-0.4815	0	432	349	2
2026-02-19	12:36:25.470	-55.545	28.56	34.335	0.832772	-0.241316	0.451888	-0.1605	0.609	-0.4815	0	432	349	2
2026-02-19	12:36:25.490	-39.55	32.445	36.155	1.046028	0.190076	0.152256	-0.1515	0.6135	-0.474	0	432	349	2
2026-02-19	12:36:25.510	-26.25	38.57	27.09	1.328092	0.255468	-0.038064	-0.1515	0.6195	-0.4665	0	432	349	2
2026-02-19	12:36:25.530	-29.75	51.94	24.08	1.68482	-0.292068	0.288408	-0.147	0.63	-0.468	0	432	349	2
2026-02-19	12:36:25.550	-19.18	58.31	44.975	1.67506	-0.476044	0.15494	-0.144	0.6345	-0.4695	0	432	349	2
2026-02-19	12:36:25.570	7.245	49.07	77.455	1.478884	-0.384056	0.10004	-0.1455	0.6345	-0.468	0	432	349	2
2026-02-19	12:36:25.590	17.78	36.015	93.38	1.174616	-0.25498	0.128588	-0.1455	0.6345	-0.468	0	432	349	2
2026-02-19	12:36:25.610	12.425	30.835	93.38	0.95038	-0.20252	0.171776	-0.1065	0.6495	-0.465	0	411	361	3
2026-02-19	12:36:25.630	1.26	27.65	86.205	0.754936	-0.1891	0.166408	-0.105	0.651	-0.459	0	411	361	3
2026-02-19	12:36:25.650	-9.275	22.295	73.465	0.60268	-0.202032	0.183732	-0.099	0.66	-0.459	0	411	361	3
2026-02-19	12:36:25.670	-6.195	13.16	59.64	0.487024	-0.25498	0.190076	-0.087	0.663	-0.462	0	411	361	3
2026-02-19	12:36:25.690	-0.35	4.445	48.755	0.40504	-0.361364	0.226676	-0.0795	0.669	-0.4575	0	411	361	3
2026-02-19	12:36:25.710	8.365	-2.065	41.23	0.367464	-0.43554	0.241072	-0.078	0.6705	-0.45	0	411	361	3
2026-02-19	12:36:25.730	15.19	-8.505	34.86	0.351604	-0.474824	0.243268	-0.0855	0.681	-0.459	0	411	361	3
2026-02-19	12:36:25.750	15.225	-18.935	20.405	0.32208	-0.48678	0.333304	-0.078	0.672	-0.4545	0	411	361	3
2026-02-19	12:36:25.770	20.195	-29.925	3.99	0.394548	-0.330376	0.247904	-0.078	0.6735	-0.4545	0	411	361	3
2026-02-19	12:36:25.790	42.595	-29.89	0.455	0.486292	-0.589504	0.221552	-0.081	0.675	-0.4545	0	411	361	3
2026-02-19	12:36:25.810	30.205	-24.36	-3.045	0.597068	-0.461892	0.393816	-0.0825	0.6795	-0.4575	0	397	352	3
2026-02-19	12:36:25.830	16.1	-21.455	-12.6	0.729804	-0.60146	0.45872	-0.0855	0.681	-0.4605	0	397	352	3
2026-02-19	12:36:25.850	16.135	-15.26	-15.715	0.86254	-0.682712	0.511912	-0.09	0.669	-0.462	0	397	352	3
2026-02-19	12:36:25.870	10.85	-11.025	-13.51	0.848144	-0.760304	0.512644	-0.0915	0.6645	-0.4575	0	397	352	3
2026-02-19	12:36:25.890	18.55	-11.235	-7.28	0.857416	-0.740296	0.42578	-0.093	0.666	-0.453	0	397	352	3
2026-02-19	12:36:25.910	22.085	-13.685	-1.855	0.837408	-0.608292	0.416996	-0.096	0.6675	-0.4575	0	397	352	3
2026-02-19	12:36:25.930	12.355	-15.47	-7.105	0.865224	-0.442616	0.3721	-0.096	0.6675	-0.456	0	397	352	3
2026-02-19	12:36:25.950	-3.955	-18.55	-17.395	0.888648	-0.388204	0.3843	-0.093	0.663	-0.456	0	397	352	3
2026-02-19	12:36:25.970	-1.505	-19.355	-24.745	0.86254	-0.385276	0.394792	-0.102	0.6675	-0.4455	0	397	352	3
2026-02-19	12:36:25.990	-0.07	-19.11	-29.75	0.854244	-0.358192	0.410408	-0.1155	0.675	-0.4485	0	397	352	3
2026-02-19	12:36:26.010	-7.14	-18.095	-35.035	0.866444	-0.342332	0.421388	-0.117	0.6675	-0.447	0	388	345	3
2026-02-19	12:36:26.030	-15.995	-15.645	-41.265	0.904996	-0.2806	0.402112	-0.1125	0.666	-0.4455	0	388	345	3
2026-02-19	12:36:26.050	-25.83	-13.265	-50.26	0.958432	-0.249124	0.381616	-0.1125	0.666	-0.447	0	388	345	3
2026-02-19	12:36:26.070	-30.975	-9.415	-58.765	1.6409	0.151036	-0.60634	-0.1215	0.663	-0.447	0	388	345	3
2026-02-19	12:36:26.090	-19.425	8.54	-33.635	0.97722	-1.146068	0.69174	-0.126	0.6615	-0.444	0	388	345	3
2026-02-19	12:36:26.110	-21.245	-15.575	-21.84	0.666608	-0.237412	0.129564	-0.126	0.6645	-0.4395	0	388	345	3
2026-02-19	12:36:26.130	31.22	-22.33	-27.125	0.828624	-0.20862	0.191784	-0.1275	0.6675	-0.435	0	388	345	3
2026-02-19	12:36:26.150	44.17	-27.405	-40.39	0.929152	-0.102724	0.264252	-0.132	0.6615	-0.435	0	388	345	3
2026-02-19	12:36:26.170	39.095	-33.88	-61.775	0.940376	-0.251564	0.430172	-0.141	0.6525	-0.438	0	388	345	3
2026-02-19	12:36:26.190	12.46	-33.425	-74.13	0.844484	-0.442372	0.451644	-0.144	0.6495	-0.4335	0	388	345	3
2026-02-19	12:36:26.210	10.64	-25.76	-64.54	0.760304	-0.520696	0.375516	-0.156	0.636	-0.4335	0	382	339	3
2026-02-19	12:36:26.230	24.78	-18.41	-42.525	0.847168	-0.520208	0.272304	-0.1635	0.63	-0.441	0	382	339	3
2026-02-19	12:36:26.250	29.33	-20.055	-23.66	0.919148	-0.444324	0.227652	-0.1695	0.6315	-0.4365	0	382	339	3
2026-02-19	12:36:26.270	15.155	-22.68	-15.925	0.920612	-0.532896	0.23912	-0.1695	0.621	-0.432	0	382	339	3
2026-02-19	12:36:26.290	0.91	-25.935	-10.535	0.846436	-0.460184	0.154208	-0.1755	0.621	-0.4335	0	382	339	3
2026-02-19	12:36:26.310	3.15	-26.355	-6.02	0.921344	-0.250588	0.126636	-0.1755	0.621	-0.4335	0	382	339	3
2026-02-19	12:36:26.330	1.12	-31.255	-9.975	0.9211	-0.231556	0.208132	-0.1785	0.6195	-0.429	0	382	339	3
2026-02-19	12:36:26.350	1.89	-38.01	-7.56	0.91134	-0.259616	0.27816	-0.183	0.6225	-0.426	0	382	339	3
2026-02-19	12:36:26.370	14.105	-33.425	-0.98	0.898896	-0.05734	0.227896	-0.189	0.624	-0.423	0	382	339	3
2026-02-19	12:36:26.390	18.62	-27.685	-0.77	1.003572	0.07124799	0.248148	-0.1965	0.6225	-0.4215	0	382	339	3
2026-02-19	12:36:26.410	11.48	-28.175	-7.875	1.011624	0.070272	0.365268	-0.198	0.621	-0.423	0	377	331	3
2026-02-19	12:36:26.430	9.625	-29.33	-13.37	0.974048	0.0183	0.573156	-0.1995	0.6195	-0.426	0	377	331	3
2026-02-19	12:36:26.450	15.645	-24.99	-14	0.86864	-0.173972	0.96624	-0.2055	0.6195	-0.423	0	377	331	3
2026-02-19	12:36:26.470	3.255	-5.565	-14.805	0.813496	-0.355752	1.062376	-0.2115	0.6165	-0.417	0	377	331	3
2026-02-19	12:36:26.490	-27.755	21.875	-20.895	0.893528	-0.521428	0.424316	-0.216	0.6165	-0.417	0	377	331	3
2026-02-19	12:36:26.510	-3.465	14.595	-14.07	0.910364	-0.329888	0.172752	-0.2145	0.6165	-0.411	0	377	331	3
2026-02-19	12:36:26.530	13.86	11.165	-7.98	0.900116	-0.23424	0.071492	-0.207	0.6105	-0.426	0	377	331	3
2026-02-19	12:36:26.550	4.865	9.415	-7.175	0.902068	-0.2074	0.015372	-0.2055	0.6135	-0.4245	0	377	331	3
2026-02-19	12:36:26.570	3.255	4.095	-6.895	0.918416	-0.246684	0.044652	-0.2055	0.6165	-0.417	0	377	331	3
2026-02-19	12:36:26.590	5.705	-2.765	-5.075	0.913292	-0.31598	0.15006	-0.207	0.615	-0.42	0	377	331	3
2026-02-19	12:36:26.610	8.715	-6.475	0.385	0.880596	-0.33184	0.224968	-0.207	0.6135	-0.423	0	372	330	3
2026-02-19	12:36:26.630	7.805	-4.375	5.075	0.882792	-0.261324	0.329888	-0.207	0.612	-0.423	0	372	330	3
2026-02-19	12:36:26.650	0.21	-0.84	5.04	0.888892	-0.300852	0.382592	-0.213	0.615	-0.4215	0	372	330	3
2026-02-19	12:36:26.670	-4.62	3.885	7.84	0.881328	-0.27328	0.365512	-0.219	0.6195	-0.4215	0	372	330	3
2026-02-19	12:36:26.690	-3.535	7.945	7.28	0.882304	-0.26352	0.328424	-0.219	0.6195	-0.4215	0	372	330	3
2026-02-19	12:36:26.710	-6.79	7.315	1.68	0.887428	-0.287676	0.375272	-0.2115	0.621	-0.417	0	372	330	3
2026-02-19	12:36:26.730	-17.815	8.33	-2.275	0.855708	-0.313296	0.453352	-0.2115	0.6255	-0.423	0	372	330	3
2026-02-19	12:36:26.750	-20.16	13.3	0.805	0.832528	-0.321348	0.44652	-0.2055	0.6135	-0.429	0	372	330	3
2026-02-19	12:36:26.770	-14.49	18.655	4.48	0.855464	-0.316468	0.473604	-0.2115	0.6255	-0.4245	0	372	330	3
2026-02-19	12:36:26.790	-24.395	22.19	2.205	0.828136	-0.286944	0.472628	-0.207	0.627	-0.4305	0	372	330	3
2026-02-19	12:36:26.810	-36.785	27.44	0.875	0.791292	-0.298412	0.475556	-0.2025	0.624	-0.4305	0	363	332	2
2026-02-19	12:36:26.830	-32.06	31.745	6.195	0.827404	-0.30622	0.42944	-0.1995	0.636	-0.435	0	363	332	2
2026-02-19	12:36:26.850	-26.565	33.95	1.96	0.847656	-0.23668	0.400648	-0.189	0.6435	-0.4335	0	363	332	2
2026-02-19	12:36:26.870	-47.075	33.32	-4.515	0.874252	-0.174948	0.299876	-0.1815	0.6435	-0.4305	0	363	332	2
2026-02-19	12:36:26.890	-47.32	36.785	0.875	0.920368	-0.135176	0.194712	-0.174	0.651	-0.429	0	363	332	2
2026-02-19	12:36:26.910	-21.665	33.005	2.38	1.020652	-0.102968	0.170556	-0.171	0.6555	-0.4275	0	363	332	2
2026-02-19	12:36:26.930	-13.615	20.895	-2.52	0.99674	-0.1159	0.132736	-0.171	0.6585	-0.4275	0	363	332	2
2026-02-19	12:36:26.950	-19.39	14.525	-1.12	0.948184	-0.133224	0.071004	-0.1725	0.6615	-0.426	0	363	332	2
2026-02-19	12:36:26.970	-12.11	10.22	3.325	0.894748	-0.329156	0.159088	-0.174	0.663	-0.4245	0	363	332	2
2026-02-19	12:36:26.990	1.365	1.505	4.48	0.831308	-0.447496	0.323788	-0.1695	0.666	-0.423	0	363	332	2
2026-02-19	12:36:27.010	-0.735	-5.005	2.66	0.772992	-0.524112	0.421388	-0.159	0.663	-0.426	0	350	336	2
2026-02-19	12:36:27.030	-10.22	-6.3	5.32	0.715164	-0.518012	0.417972	-0.1605	0.666	-0.4275	0	350	336	2
2026-02-19	12:36:27.050	0	-8.085	13.475	0.719068	-0.522648	0.508008	-0.1695	0.672	-0.423	0	350	336	2
2026-02-19	12:36:27.070	16.66	-14.105	21.035	0.72468	-0.516792	0.63074	-0.165	0.669	-0.417	0	350	336	2
2026-02-19	12:36:27.090	23.905	-16.205	26.775	0.8967	-0.308172	0.631716	-0.1695	0.675	-0.4275	0	350	336	2
2026-02-19	12:36:27.110	12.74	-10.745	29.82	1.075552	0.189588	0.386496	-0.165	0.6765	-0.4275	0	350	336	2
2026-02-19	12:36:27.130	-5.32	5.04	27.23	1.447164	0.244488	0.127124	-0.171	0.681	-0.423	0	350	336	2
2026-02-19	12:36:27.150	-8.155	30.275	32.41	1.727032	-0.338428	0.432856	-0.165	0.6795	-0.426	0	350	336	2
2026-02-19	12:36:27.170	-0.84	36.75	53.69	1.56526	-0.47824	0.259128	-0.1545	0.681	-0.4215	0	350	336	2
2026-02-19	12:36:27.190	4.515	28.875	73.045	1.270752	-0.556808	0.277428	-0.1545	0.6855	-0.4245	0	350	336	2
2026-02-19	12:36:27.210	9.52	25.025	87.08	1.018212	-0.47092	0.314516	-0.147	0.6915	-0.4305	0	338	339	3
2026-02-19	12:36:27.230	11.655	25.69	94.255	0.717848	-0.352336	0.237656	-0.138	0.693	-0.4335	0	338	339	3
2026-02-19	12:36:27.250	13.79	23.38	89.46	0.572668	-0.331108	0.165676	-0.1275	0.7065	-0.438	0	338	339	3
2026-02-19	12:36:27.270	19.495	15.995	79.135	0.448716	-0.33672	0.148596	-0.1245	0.7125	-0.435	0	338	339	3
2026-02-19	12:36:27.290	26.18	6.86	66.01	0.39162	-0.384056	0.149084	-0.108	0.7185	-0.441	0	338	339	3
2026-02-19	12:36:27.310	30.66	-1.12	52.85	0.400404	-0.453596	0.165432	-0.102	0.717	-0.4395	0	338	339	3
2026-02-19	12:36:27.330	35.945	-5.53	41.825	0.450912	-0.417972	0.217892	-0.108	0.723	-0.441	0	338	339	3
2026-02-19	12:36:27.350	35.455	-11.235	29.575	0.511668	-0.450912	0.235704	-0.0945	0.7185	-0.438	0	338	339	3
2026-02-19	12:36:27.370	36.68	-16.38	15.12	0.53192	-0.393328	0.21716	-0.093	0.717	-0.444	0	338	339	3
2026-02-19	12:36:27.390	27.23	-21.945	-0.35	0.57096	-0.371856	0.300608	-0.0915	0.7245	-0.444	0	338	339	3
2026-02-19	12:36:27.410	27.895	-26.88	-11.025	0.643916	-0.523868	0.41358	-0.102	0.7155	-0.444	0	331	334	3
2026-02-19	12:36:27.430	26.915	-24.85	-9.275	0.711748	-0.522404	0.440908	-0.105	0.7155	-0.4455	0	331	334	3
2026-02-19	12:36:27.450	27.86	-19.215	-7.875	0.772992	-0.448472	0.424072	-0.1095	0.7155	-0.45	0	331	334	3
2026-02-19	12:36:27.470	21.525	-19.145	-12.32	0.787388	-0.494588	0.411384	-0.1065	0.7095	-0.45	0	331	334	3
2026-02-19	12:36:27.490	13.195	-18.06	-17.325	0.799832	-0.447252	0.467504	-0.108	0.7065	-0.4515	0	331	334	3
2026-02-19	12:36:27.510	2.24	-14.77	-20.895	0.799588	-0.47458	0.484584	-0.1125	0.699	-0.456	0	331	334	3
2026-02-19	12:36:27.530	-3.885	-8.575	-24.15	0.821548	-0.410652	0.457012	-0.117	0.693	-0.459	0	331	334	3
2026-02-19	12:36:27.550	-17.57	-5.915	-29.47	0.817888	-0.383812	0.423584	-0.117	0.7005	-0.4575	0	331	334	3
2026-02-19	12:36:27.570	-25.55	-7.735	-37.73	0.784216	-0.374052	0.410896	-0.12	0.705	-0.4545	0	331	334	3
2026-02-19	12:36:27.590	-21.315	-9.38	-43.54	0.817888	-0.409188	0.386984	-0.126	0.7065	-0.4515	0	331	334	3
2026-02-19	12:36:27.610	-17.605	-11.06	-45.045	0.826184	-0.404064	0.393816	-0.126	0.7065	-0.4515	0	328	333	3
2026-02-19	12:36:27.630	-21.875	-10.745	-46.305	0.849852	-0.379664	0.403088	-0.135	0.696	-0.4455	0	328	333	3
2026-02-19	12:36:27.650	-31.045	-8.855	-49.385	0.907192	-0.362828	0.39284	-0.135	0.687	-0.444	0	328	333	3
2026-02-19	12:36:27.670	-28.84	24.36	-38.99	1.931992	-1.313452	0.442128	-0.15	0.693	-0.4395	0	328	333	3
2026-02-19	12:36:27.690	-65.485	15.54	-0.07	1.10166	-0.031964	0.20496	-0.1455	0.696	-0.4425	0	328	333	3
2026-02-19	12:36:27.710	-36.47	-11.865	-4.13	0.640012	-0.183488	0.050752	-0.144	0.705	-0.444	0	328	333	3
2026-02-19	12:36:27.730	11.095	-4.69	-20.16	0.80764	0.074664	-0.026596	-0.1455	0.6975	-0.4395	0	328	333	3
2026-02-19	12:36:27.750	8.75	-7.245	-47.915	1.084824	-0.048312	0.127124	-0.147	0.7005	-0.441	0	328	333	3
2026-02-19	12:36:27.770	10.675	-23.065	-69.615	1.012356	-0.181536	0.243512	-0.15	0.705	-0.444	0	328	333	3
2026-02-19	12:36:27.790	12.145	-40.04	-70.77	0.864492	-0.1281	0.149084	-0.15	0.705	-0.444	0	328	333	3
2026-02-19	12:36:27.810	50.82	-42.385	-56.245	0.998692	-0.152256	0.111752	-0.1545	0.6855	-0.4395	0	327	332	3
2026-02-19	12:36:27.830	56.665	-46.13	-49.105	0.971364	-0.111264	0.056364	-0.1785	0.6705	-0.444	0	327	332	3
2026-02-19	12:36:27.850	44.03	-50.995	-46.41	0.958676	-0.241316	0.05978	-0.1875	0.6675	-0.441	0	327	332	3
2026-02-19	12:36:27.870	19.915	-49.245	-44.66	0.793488	-0.393084	0.48434	-0.1875	0.657	-0.438	0	327	332	3
2026-02-19	12:36:27.890	-17.815	-32.095	-38.15	0.66368	-0.821792	1.358592	-0.2055	0.6465	-0.438	0	327	332	3
2026-02-19	12:36:27.910	-28.77	10.85	-7.7	0.793488	-0.862784	1.141676	-0.2115	0.645	-0.438	0	327	332	3
2026-02-19	12:36:27.930	-9.38	29.155	9.59	0.889136	-0.393084	0.266692	-0.2175	0.6405	-0.429	0	327	332	3
2026-02-19	12:36:27.950	14.42	8.33	-1.715	0.961604	-0.351116	-0.068076	-0.207	0.6435	-0.4365	0	327	332	3
2026-02-19	12:36:27.970	31.955	-10.36	-6.685	0.868884	-0.226188	0.246196	-0.2085	0.642	-0.438	0	327	332	3
2026-02-19	12:36:27.990	36.33	-10.255	-0.21	0.907436	-0.209108	0.431148	-0.21	0.6405	-0.441	0	327	332	3
2026-02-19	12:36:28.010	30.415	-7.98	7.315	0.918172	-0.131028	0.509472	-0.213	0.639	-0.444	0	332	333	3
2026-02-19	12:36:28.030	21.56	-4.375	12.74	0.92232	-0.077104	0.439932	-0.213	0.6405	-0.4455	0	332	333	3
2026-02-19	12:36:28.050	7.84	1.82	9.94	0.935008	-0.011468	0.284016	-0.21	0.6405	-0.447	0	332	333	3
2026-02-19	12:36:28.070	1.435	6.615	-0.77	0.951356	0.069296	0.321592	-0.2115	0.642	-0.4455	0	332	333	3
2026-02-19	12:36:28.090	-11.69	8.19	-13.02	0.952332	-0.053436	0.403088	-0.2145	0.642	-0.441	0	332	333	3
2026-02-19	12:36:28.110	-19.565	7.77	-17.57	0.922808	-0.127612	0.331352	-0.2145	0.6405	-0.444	0	332	333	3
2026-02-19	12:36:28.130	-18.585	4.27	-16.765	0.927444	-0.237168	0.1891	-0.2115	0.6375	-0.444	0	332	333	3
2026-02-19	12:36:28.150	-7.385	-3.465	-13.055	0.90158	-0.476776	0.250344	-0.21	0.633	-0.441	0	332	333	3
2026-02-19	12:36:28.170	8.015	-8.47	-2.87	0.869616	-0.451644	0.305976	-0.216	0.6375	-0.447	0	332	333	3
2026-02-19	12:36:28.190	15.68	-9.415	6.16	0.889624	-0.210572	0.242048	-0.222	0.6405	-0.441	0	332	333	3
2026-02-19	12:36:28.210	13.3	-10.955	4.9	0.937448	-0.136884	0.252296	-0.2205	0.639	-0.4455	0	337	339	3
2026-02-19	12:36:28.230	8.96	-14.455	0.77	0.946964	-0.219844	0.290848	-0.228	0.6345	-0.4485	0	337	339	3
2026-02-19	12:36:28.250	6.86	-14.805	0.945	0.926712	-0.148108	0.25742	-0.219	0.6345	-0.4485	0	337	339	3
2026-02-19	12:36:28.270	1.61	-14.665	1.12	0.928664	-0.088084	0.226432	-0.222	0.6345	-0.4545	0	337	339	3
2026-02-19	12:36:28.290	-4.445	-14.035	-0.77	0.94672	-0.07442	0.266448	-0.2175	0.6255	-0.441	0	337	339	3
2026-02-19	12:36:28.310	-9.73	-11.445	-3.22	0.948428	-0.153232	0.351604	-0.222	0.6285	-0.447	0	337	339	3
2026-02-19	12:36:28.330	-17.535	-3.675	-0.42	0.895236	-0.283284	0.316956	-0.222	0.6285	-0.447	0	337	339	3
2026-02-19	12:36:28.350	-18.655	-0.455	2.695	0.9028	-0.277428	0.244976	-0.2295	0.6405	-0.444	0	337	339	3
2026-02-19	12:36:28.370	-16.59	-1.82	2.38	0.90646	-0.306464	0.316224	-0.2295	0.642	-0.4425	0	337	339	3
2026-02-19	12:36:28.390	-14.21	-1.155	3.15	0.877912	-0.310856	0.372588	-0.234	0.6345	-0.447	0	337	339	3
2026-02-19	12:36:28.410	-8.225	3.57	5.775	0.85644	-0.332328	0.374296	-0.2295	0.6435	-0.4395	0	338	337	2
2026-02-19	12:36:28.430	-8.54	8.61	9.03	0.894504	-0.305976	0.364536	-0.228	0.6435	-0.4425	0	338	337	2
2026-02-19	12:36:28.450	-16.17	13.125	9.345	0.900604	-0.20374	0.332084	-0.237	0.6435	-0.4455	0	338	337	2
2026-02-19	12:36:28.470	-23.31	16.52	6.16	0.914512	-0.156892	0.354776	-0.219	0.651	-0.4395	0	338	337	2
2026-02-19	12:36:28.490	-26.04	14.945	4.095	0.903288	-0.104676	0.35868	-0.225	0.648	-0.4485	0	338	337	2
2026-02-19	12:36:28.510	-24.64	20.405	-0.35	0.947696	-0.003904	0.334768	-0.228	0.654	-0.45	0	338	337	2
2026-02-19	12:36:28.530	-30.555	24.255	-6.44	0.969656	0.0244	0.330132	-0.225	0.657	-0.447	0	338	337	2
2026-02-19	12:36:28.550	-25.41	25.375	-12.53	0.94916	-0.079544	0.3538	-0.222	0.6585	-0.447	0	338	337	2
2026-02-19	12:36:28.570	-9.38	25.76	-15.96	0.960628	-0.156648	0.399916	-0.2205	0.6615	-0.45	0	338	337	2
2026-02-19	12:36:28.590	6.58	24.605	-14.14	0.922076	-0.152988	0.375028	-0.219	0.6615	-0.447	0	338	337	2
2026-02-19	12:36:28.610	8.4	22.295	-16.87	0.91866	-0.10492	0.341112	-0.216	0.654	-0.4515	0	330	335	2
2026-02-19	12:36:28.630	15.925	19.04	-21.525	0.924028	-0.13908	0.353068	-0.21	0.648	-0.4545	0	330	335	2
2026-02-19	12:36:28.650	12.46	12.635	-25.165	0.88572	-0.22814	0.357216	-0.2115	0.6465	-0.4485	0	330	335	2
2026-02-19	12:36:28.670	2.205	11.76	-22.855	0.843996	-0.36234	0.31232	-0.2115	0.6465	-0.45	0	330	335	2
2026-02-19	12:36:28.690	-0.385	11.69	-12.495	0.837408	-0.394548	0.300608	-0.2055	0.645	-0.4515	0	330	335	2
2026-02-19	12:36:28.710	3.71	6.44	-7.735	0.79178	-0.504104	0.381616	-0.2055	0.645	-0.4515	0	330	335	2
2026-02-19	12:36:28.730	-1.925	3.045	-2.415	0.742248	-0.589748	0.47214	-0.2025	0.6435	-0.453	0	330	335	2
2026-02-19	12:36:28.750	-10.955	3.955	5.53	0.669536	-0.517036	0.446276	-0.2055	0.642	-0.456	0	330	335	2
2026-02-19	12:36:28.770	-4.2	6.51	12.67	0.68564	-0.587796	0.67344	-0.204	0.645	-0.4605	0	330	335	2
2026-02-19	12:36:28.790	-3.115	3.15	14.735	0.643184	-0.549976	0.79056	-0.1965	0.6405	-0.4545	0	330	335	2
2026-02-19	12:36:28.810	-16.695	2.52	13.02	0.64172	-0.493124	0.818376	-0.1965	0.645	-0.459	0	318	344	2
2026-02-19	12:36:28.830	-36.96	1.82	11.585	0.6649	-0.425536	0.680516	-0.195	0.6495	-0.4545	0	318	344	2
2026-02-19	12:36:28.850	-55.125	-0.98	13.265	0.819352	-0.266936	0.47458	-0.201	0.6525	-0.4605	0	318	344	2
2026-02-19	12:36:28.870	-46.41	2.59	14.665	1.006988	-0.016348	0.16348	-0.198	0.663	-0.4515	0	318	344	2
2026-02-19	12:36:28.890	-41.055	17.01	7.21	1.322968	-0.013664	-0.048312	-0.198	0.663	-0.4515	0	318	344	2
2026-02-19	12:36:28.910	-42.14	34.825	14.35	1.52134	-0.448472	0.1464	-0.189	0.6765	-0.4455	0	318	344	2
2026-02-19	12:36:28.930	-32.62	41.58	40.88	1.504992	-0.58804	0.24156	-0.1875	0.675	-0.444	0	318	344	2
2026-02-19	12:36:28.950	-9.45	38.5	69.335	1.331508	-0.526552	0.203252	-0.177	0.6885	-0.4455	0	318	344	2
2026-02-19	12:36:28.970	11.41	32.27	88.375	1.16266	-0.423584	0.197884	-0.1695	0.6915	-0.441	0	318	344	2
2026-02-19	12:36:28.990	26.32	28.805	96.915	1.014552	-0.262056	0.221552	-0.162	0.699	-0.4575	0	318	344	2
2026-02-19	12:36:29.010	24.115	28.7	94.85	0.911096	-0.191296	0.238632	-0.1575	0.7155	-0.4545	0	308	356	3
2026-02-19	12:36:29.030	14.875	32.06	88.34	0.7869	-0.207156	0.249368	-0.1395	0.7095	-0.4605	0	308	356	3
2026-02-19	12:36:29.050	3.22	32.515	76.72	0.666364	-0.204228	0.200568	-0.1365	0.717	-0.4665	0	308	356	3
2026-02-19	12:36:29.070	-6.16	27.37	61.495	0.57706	-0.254004	0.176656	-0.1215	0.7275	-0.4695	0	308	356	3
2026-02-19	12:36:29.090	-2.975	17.185	50.96	0.544852	-0.3294	0.169824	-0.108	0.7425	-0.471	0	308	356	3
2026-02-19	12:36:29.110	4.27	6.335	44.73	0.542168	-0.379908	0.202032	-0.1035	0.744	-0.4695	0	308	356	3
2026-02-19	12:36:29.130	9.03	-3.885	38.465	0.531188	-0.391376	0.13542	-0.102	0.744	-0.4665	0	308	356	3
2026-02-19	12:36:29.150	18.27	-12.005	31.325	0.537776	-0.393572	0.229848	-0.096	0.7455	-0.4695	0	308	356	3
2026-02-19	12:36:29.170	25.2	-18.06	23.24	0.571936	-0.4026	0.216184	-0.0885	0.738	-0.474	0	308	356	3
2026-02-19	12:36:29.190	28.595	-23.485	13.265	0.581452	-0.404552	0.285968	-0.09	0.735	-0.4755	0	308	356	3
2026-02-19	12:36:29.210	31.045	-27.405	5.81	0.618784	-0.475068	0.323788	-0.0945	0.7395	-0.4755	0	303	347	3
2026-02-19	12:36:29.230	33.285	-26.355	1.435	0.724436	-0.532408	0.416508	-0.099	0.7395	-0.4755	0	303	347	3
2026-02-19	12:36:29.250	27.265	-20.58	0.035	0.781288	-0.499468	0.45872	-0.102	0.738	-0.4755	0	303	347	3
2026-02-19	12:36:29.270	10.43	-18.235	-2.975	0.768844	-0.452864	0.457256	-0.1005	0.7365	-0.4845	0	303	347	3
2026-02-19	12:36:29.290	2.31	-18.06	-9.415	0.772748	-0.413824	0.414556	-0.1065	0.7365	-0.474	0	303	347	3
2026-02-19	12:36:29.310	4.13	-18.515	-15.995	0.830088	-0.356728	0.414312	-0.1065	0.726	-0.477	0	303	347	3
2026-02-19	12:36:29.330	2.38	-21.77	-23.66	0.877668	-0.34648	0.408456	-0.105	0.7305	-0.4875	0	303	347	3
2026-02-19	12:36:29.350	3.675	-25.41	-29.61	0.857416	-0.36234	0.418948	-0.1155	0.726	-0.477	0	303	347	3
2026-02-19	12:36:29.370	1.365	-27.545	-34.335	0.837896	-0.343064	0.421388	-0.1155	0.7215	-0.477	0	303	347	3
2026-02-19	12:36:29.390	-4.725	-27.51	-38.955	0.835212	-0.305	0.413336	-0.129	0.7275	-0.48	0	303	347	3
2026-02-19	12:36:29.410	-12.32	-25.865	-45.99	0.892064	-0.28304	0.380884	-0.1365	0.72	-0.4725	0	300	342	3
2026-02-19	12:36:29.430	-15.785	-9.59	-54.145	1.878068	-1.201456	1.679696	-0.1365	0.72	-0.4725	0	300	342	3
2026-02-19	12:36:29.450	-14.385	20.335	12.215	0.92842	-0.791048	0.762744	-0.1425	0.717	-0.474	0	300	342	3
2026-02-19	12:36:29.470	-34.93	-20.125	5.635	0.449204	-0.537776	0.29524	-0.1485	0.714	-0.477	0	300	342	3
2026-02-19	12:36:29.490	0.945	-12.18	6.125	0.639768	0.00732	0.028548	-0.147	0.717	-0.465	0	300	342	3
2026-02-19	12:36:29.510	16.625	3.29	-17.43	0.949648	-0.142496	0.120292	-0.1485	0.723	-0.4575	0	300	342	3
2026-02-19	12:36:29.530	2.065	3.01	-47.075	1.073112	-0.240828	0.289872	-0.147	0.7275	-0.4665	0	300	342	3
2026-02-19	12:36:29.550	-10.64	-16.135	-76.93	0.934032	-0.335256	0.185928	-0.1425	0.723	-0.462	0	300	342	3
2026-02-19	12:36:29.570	-7.245	-39.97	-80.57	0.79544	-0.365024	0.16592	-0.1545	0.7155	-0.4755	0	300	342	3
2026-02-19	12:36:29.590	49.84	-49.84	-57.645	0.786412	-0.2928	0.175924	-0.1665	0.696	-0.462	0	300	342	3
2026-02-19	12:36:29.610	55.755	-40.145	-34.09	0.979904	-0.20862	0.169092	-0.183	0.7035	-0.471	0	303	354	3
2026-02-19	12:36:29.630	24.71	-35.875	-33.705	0.97844	-0.41114	0.07905599	-0.1875	0.69	-0.4695	0	303	354	3
2026-02-19	12:36:29.650	26.845	-44.975	-21.63	0.861808	-0.518012	0.178364	-0.195	0.6735	-0.4695	0	303	354	3
2026-02-19	12:36:29.670	19.075	-47.6	-2.52	0.631716	-0.766892	0.894992	-0.1995	0.666	-0.468	0	303	354	3
2026-02-19	12:36:29.690	5.425	-27.405	22.96	0.636108	-0.776164	1.470588	-0.204	0.6675	-0.462	0	303	354	3
2026-02-19	12:36:29.710	6.65	1.645	41.755	0.839604	-0.78812	0.865224	-0.216	0.672	-0.462	0	303	354	3
2026-02-19	12:36:29.730	-24.36	16.38	38.605	0.814228	-0.4697	0.253028	-0.219	0.6735	-0.465	0	303	354	3
2026-02-19	12:36:29.750	-25.445	15.4	31.5	0.840824	-0.336476	-0.078812	-0.2055	0.678	-0.4635	0	303	354	3
2026-02-19	12:36:29.770	-17.745	2.38	21.245	0.92354	-0.277184	-0.039772	-0.1965	0.6885	-0.4605	0	303	354	3
2026-02-19	12:36:29.790	-4.76	-15.785	13.51	0.925736	-0.130784	0.25742	-0.198	0.693	-0.459	0	303	354	3
2026-02-19	12:36:29.810	3.465	-18.165	9.555	0.941352	0.005124	0.41846	-0.198	0.693	-0.459	0	311	367	3
2026-02-19	12:36:29.830	-7.385	-11.865	0.245	1.002596	0.002196	0.430904	-0.1995	0.7005	-0.4605	0	311	367	3
2026-02-19	12:36:29.850	-12.705	-4.55	-6.44	0.986492	-0.085156	0.417484	-0.21	0.696	-0.456	0	311	367	3
2026-02-19	12:36:29.870	-3.045	-0.525	-5.74	0.96014	-0.083936	0.390644	-0.2025	0.6915	-0.459	0	311	367	3
2026-02-19	12:36:29.890	-2.415	3.955	-8.715	0.961116	-0.126392	0.391132	-0.204	0.6915	-0.453	0	311	367	3
2026-02-19	12:36:29.910	-18.34	8.785	-17.675	0.930372	-0.1342	0.353556	-0.1995	0.696	-0.4575	0	311	367	3
2026-02-19	12:36:29.930	-26.845	11.585	-22.75	0.904996	-0.234972	0.346236	-0.1995	0.699	-0.462	0	311	367	3
2026-02-19	12:36:29.950	-19.985	11.025	-19.915	0.894992	-0.330864	0.347456	-0.204	0.6945	-0.465	0	311	367	3
2026-02-19	12:36:29.970	-6.265	12.845	-15.47	0.878644	-0.28914	0.250832	-0.2025	0.702	-0.459	0	311	367	3
2026-02-19	12:36:29.990	-1.47	9.905	-18.725	0.921588	-0.286456	0.216672	-0.2055	0.6975	-0.462	0	311	367	3
2026-02-19	12:36:30.010	-6.72	6.16	-20.055	0.896944	-0.286944	0.236436	-0.2025	0.6945	-0.462	0	321	371	3
2026-02-19	12:36:30.030	-1.085	7.945	-14.175	0.908656	-0.233508	0.164212	-0.1965	0.696	-0.4575	0	321	371	3
2026-02-19	12:36:30.050	11.13	7.315	-10.465	0.945744	-0.232288	0.105896	-0.207	0.6915	-0.465	0	321	371	3
2026-02-19	12:36:30.070	12.145	1.05	-10.78	0.931836	-0.24278	0.129564	-0.2085	0.684	-0.4725	0	321	371	3
2026-02-19	12:36:30.090	4.655	-1.645	-11.62	0.922076	-0.322568	0.163724	-0.207	0.6855	-0.4695	0	321	371	3
2026-02-19	12:36:30.110	7.175	-5.985	-7.175	0.886452	-0.33062	0.2257	-0.2055	0.6885	-0.471	0	321	371	3
2026-02-19	12:36:30.130	7.455	-7.21	-3.71	0.857416	-0.316956	0.320372	-0.2055	0.6795	-0.4665	0	321	371	3
2026-02-19	12:36:30.150	-10.185	-3.395	-5.6	0.839116	-0.33916	0.392108	-0.2085	0.678	-0.468	0	321	371	3
2026-02-19	12:36:30.170	-18.165	2.555	-2.555	0.824232	-0.39162	0.417728	-0.2145	0.675	-0.468	0	321	371	3
2026-02-19	12:36:30.190	-12.775	6.405	2.485	0.8174	-0.423584	0.447984	-0.213	0.6765	-0.4665	0	321	371	3
2026-02-19	12:36:30.210	-14.245	7.875	2.8	0.805932	-0.339648	0.431636	-0.2025	0.681	-0.468	0	325	361	2
2026-02-19	12:36:30.230	-29.61	13.58	-1.575	0.81984	-0.317688	0.44652	-0.201	0.681	-0.4665	0	325	361	2
2026-02-19	12:36:30.250	-36.435	17.5	-4.69	0.837652	-0.33062	0.4575	-0.2025	0.687	-0.4665	0	325	361	2
2026-02-19	12:36:30.270	-32.2	19.88	-6.825	0.851072	-0.260348	0.510692	-0.204	0.6945	-0.474	0	325	361	2
2026-02-19	12:36:30.290	-44.345	26.18	-13.02	0.895968	-0.101748	0.443104	-0.1995	0.6975	-0.4725	0	325	361	2
2026-02-19	12:36:30.310	-52.15	31.71	-16.345	0.928176	-0.07905599	0.375516	-0.192	0.6975	-0.4665	0	325	361	2
2026-02-19	12:36:30.330	-29.4	28.385	-14.7	0.950868	-0.151768	0.340136	-0.1905	0.6975	-0.468	0	325	361	2
2026-02-19	12:36:30.350	-12.88	23.275	-14.7	0.961116	-0.036356	0.272304	-0.1935	0.696	-0.471	0	325	361	2
2026-02-19	12:36:30.370	-19.565	24.605	-19.635	0.950136	-0.091256	0.284748	-0.1875	0.7125	-0.474	0	325	361	2
2026-02-19	12:36:30.390	-13.16	21.14	-23.765	0.921832	-0.299388	0.362828	-0.1785	0.7005	-0.474	0	325	361	2
2026-02-19	12:36:30.410	2.73	14.385	-23.275	0.881084	-0.24522	0.323544	-0.186	0.705	-0.471	0	322	354	2
2026-02-19	12:36:30.430	-5.67	14.105	-22.645	0.887916	-0.144936	0.223016	-0.186	0.702	-0.48	0	322	354	2
2026-02-19	12:36:30.450	-11.025	16.835	-21.21	0.904996	-0.319152	0.244732	-0.1845	0.699	-0.48	0	322	354	2
2026-02-19	12:36:30.470	2.66	12.005	-18.41	0.876204	-0.367708	0.254492	-0.189	0.6855	-0.4755	0	322	354	2
2026-02-19	12:36:30.490	6.755	1.645	-16.275	0.848876	-0.38918	0.262544	-0.177	0.6915	-0.48	0	322	354	2
2026-02-19	12:36:30.510	-0.63	0.595	-9.66	0.760548	-0.43188	0.237656	-0.186	0.687	-0.474	0	322	354	2
2026-02-19	12:36:30.530	14.315	-2.31	2.52	0.737856	-0.528504	0.490684	-0.186	0.687	-0.474	0	322	354	2
2026-02-19	12:36:30.550	12.74	-8.75	-1.435	0.684176	-0.51118	0.595848	-0.1845	0.684	-0.477	0	322	354	2
2026-02-19	12:36:30.570	-3.36	-9.555	-10.045	0.749812	-0.508008	0.60146	-0.186	0.678	-0.483	0	322	354	2
2026-02-19	12:36:30.590	-10.465	-9.205	-16.38	0.842288	-0.438712	0.50142	-0.1905	0.678	-0.483	0	322	354	2
2026-02-19	12:36:30.610	3.36	-22.855	-17.745	0.866444	-0.291824	0.366732	-0.192	0.6825	-0.48	0	313	352	2
2026-02-19	12:36:30.630	16.975	-42.91	-8.12	1.00772	-0.174948	0.31964	-0.1935	0.6825	-0.4815	0	313	352	2
2026-02-19	12:36:30.650	20.16	-30.17	3.885	1.231224	0.09028	0.138592	-0.195	0.678	-0.471	0	313	352	2
2026-02-19	12:36:30.670	-2.555	6.055	14.56	1.43228	-0.069052	0.134688	-0.1965	0.6795	-0.4755	0	313	352	2
2026-02-19	12:36:30.690	-31.36	30.275	36.89	1.442772	-0.3965	0.317688	-0.189	0.6735	-0.477	0	313	352	2
2026-02-19	12:36:30.710	-8.855	27.825	71.855	1.277828	-0.495076	0.32208	-0.192	0.6825	-0.4725	0	313	352	2
2026-02-19	12:36:30.730	5.46	27.51	90.23	1.15656	-0.415776	0.374052	-0.18	0.6855	-0.4755	0	313	352	2
2026-02-19	12:36:30.750	6.545	34.125	95.725	1.037	-0.343552	0.352336	-0.168	0.6945	-0.477	0	313	352	2
2026-02-19	12:36:30.770	-0.175	40.11	93.8	0.944768	-0.310124	0.31232	-0.156	0.7005	-0.4755	0	313	352	2
2026-02-19	12:36:30.790	-3.08	41.37	88.41	0.8662	-0.333792	0.256444	-0.1455	0.7035	-0.4845	0	313	352	2
2026-02-19	12:36:30.810	-2.485	37.66	82.53	0.813984	-0.329888	0.20618	-0.138	0.711	-0.489	0	303	350	3
2026-02-19	12:36:30.830	-1.68	32.76	74.34	0.752984	-0.330132	0.176412	-0.12	0.7155	-0.4905	0	303	350	3
2026-02-19	12:36:30.850	0.315	24.78	65.065	0.647332	-0.366	0.208864	-0.1095	0.717	-0.4875	0	303	350	3
2026-02-19	12:36:30.870	7.84	15.715	59.08	0.595116	-0.429196	0.174704	-0.1035	0.7245	-0.483	0	303	350	3
2026-02-19	12:36:30.890	23.275	6.3	56.14	0.600972	-0.416752	0.218624	-0.099	0.7305	-0.483	0	303	350	3
2026-02-19	12:36:30.910	34.475	-3.885	52.815	0.521184	-0.5002	0.263276	-0.099	0.7305	-0.483	0	303	350	3
2026-02-19	12:36:30.930	48.37	-9.415	51.135	0.506056	-0.480436	0.280844	-0.087	0.7335	-0.495	0	303	350	3
2026-02-19	12:36:30.950	57.96	-12.6	49.315	0.51118	-0.454572	0.33428	-0.075	0.7275	-0.4905	0	303	350	3
2026-02-19	12:36:30.970	56.385	-12.145	43.54	0.552172	-0.38308	0.348432	-0.078	0.726	-0.4995	0	303	350	3
2026-02-19	12:36:30.990	41.685	-11.83	33.32	0.593164	-0.365024	0.354532	-0.0795	0.729	-0.504	0	303	350	3
2026-02-19	12:36:31.010	31.01	-11.13	19.88	0.625372	-0.363072	0.345748	-0.0735	0.72	-0.5085	0	294	340	3
2026-02-19	12:36:31.030	21.945	-11.165	5.005	0.673928	-0.36722	0.377712	-0.0765	0.717	-0.51	0	294	340	3
2026-02-19	12:36:31.050	11.095	-12.565	-7.945	0.737124	-0.385032	0.355996	-0.072	0.714	-0.5145	0	294	340	3
2026-02-19	12:36:31.070	-3.99	-15.12	-18.305	0.763232	-0.399916	0.384056	-0.075	0.714	-0.5115	0	294	340	3
2026-02-19	12:36:31.090	-15.61	-19.355	-27.37	0.77836	-0.434564	0.4148	-0.0765	0.7125	-0.51	0	294	340	3
2026-02-19	12:36:31.110	-6.615	-19.495	-30.1	0.787388	-0.441152	0.421876	-0.081	0.708	-0.5055	0	294	340	3
2026-02-19	12:36:31.130	-4.76	-20.405	-30.94	0.81008	-0.42822	0.422608	-0.0855	0.708	-0.5055	0	294	340	3
2026-02-19	12:36:31.150	-8.05	-21.455	-32.55	0.834968	-0.433588	0.434564	-0.0915	0.7095	-0.507	0	294	340	3
2026-02-19	12:36:31.170	-6.72	-21	-33.005	0.829356	-0.428464	0.448472	-0.0975	0.705	-0.5055	0	294	340	3
2026-02-19	12:36:31.190	-5.145	-19.145	-32.725	0.822524	-0.43554	0.440664	-0.099	0.7035	-0.5055	0	294	340	3
2026-02-19	12:36:31.210	-6.195	-17.01	-32.585	0.823988	-0.40748	0.433588	-0.1035	0.7065	-0.507	0	285	338	3
2026-02-19	12:36:31.230	-11.935	-15.19	-35.455	0.833504	-0.355508	0.39528	-0.111	0.7035	-0.5055	0	285	338	3
2026-02-19	12:36:31.250	-18.655	-15.4	-41.44	0.81862	-0.333304	0.371856	-0.114	0.696	-0.498	0	285	338	3
2026-02-19	12:36:31.270	-19.74	-6.615	-46.515	1.658468	-0.975756	0.921832	-0.12	0.696	-0.4995	0	285	338	3
2026-02-19	12:36:31.290	-18.585	27.895	5.215	0.754936	-0.846924	1.033828	-0.129	0.6975	-0.498	0	285	338	3
2026-02-19	12:36:31.310	-38.92	-12.11	-20.02	0.65758	-0.374784	0.14762	-0.1275	0.6975	-0.495	0	285	338	3
2026-02-19	12:36:31.330	10.815	-11.445	-26.74	0.805688	-0.086132	0.175924	-0.1305	0.6975	-0.492	0	285	338	3
2026-02-19	12:36:31.350	40.74	-11.13	-39.095	0.92476	-0.200568	0.39894	-0.1365	0.696	-0.4905	0	285	338	3
2026-02-19	12:36:31.370	37.52	-25.445	-53.76	0.934276	-0.35136	0.50142	-0.1365	0.687	-0.492	0	285	338	3
2026-02-19	12:36:31.390	29.47	-33.46	-62.86	0.864248	-0.240096	0.447496	-0.1425	0.684	-0.4935	0	285	338	3
2026-02-19	12:36:31.410	27.93	-28.665	-60.025	0.790804	-0.287188	0.315248	-0.15	0.6795	-0.492	0	280	354	3
2026-02-19	12:36:31.430	48.58	-24.185	-37.87	0.902312	-0.11956	0.329888	-0.156	0.6675	-0.4935	0	280	354	3
2026-02-19	12:36:31.450	49.455	-18.41	-31.22	1.038708	-0.107604	0.24522	-0.159	0.663	-0.4965	0	280	354	3
2026-02-19	12:36:31.470	26.18	-21.945	-42.49	1.007232	-0.218624	0.046116	-0.171	0.654	-0.504	0	280	354	3
2026-02-19	12:36:31.490	18.025	-25.48	-43.015	0.979172	-0.278648	-0.13542	-0.1845	0.6375	-0.495	0	280	354	3
2026-02-19	12:36:31.510	19.95	-28.805	-37.695	1.01382	-0.264252	-0.217648	-0.177	0.6255	-0.498	0	280	354	3
2026-02-19	12:36:31.530	24.64	-39.55	-33.53	1.083116	-0.3843	-0.220576	-0.1845	0.6225	-0.5025	0	280	354	3
2026-02-19	12:36:31.550	19.39	-52.045	-29.89	1.013088	-0.472628	-0.290116	-0.1905	0.615	-0.4965	0	280	354	3
2026-02-19	12:36:31.570	-4.165	-62.86	-21.84	0.746884	-0.014884	-0.17324	-0.2025	0.606	-0.4875	0	280	354	3
2026-02-19	12:36:31.590	-93.485	-53.025	-46.655	0.779824	-0.247416	1.058472	-0.2085	0.612	-0.4815	0	280	354	3
2026-02-19	12:36:31.610	-85.295	-40.565	-28.42	0.895968	-0.255712	2.131828	-0.219	0.6135	-0.4755	0	281	355	3
2026-02-19	12:36:31.630	-50.995	25.795	-20.79	0.823012	-0.260592	0.630252	-0.219	0.6135	-0.4755	0	281	355	3
2026-02-19	12:36:31.650	-38.01	21.49	-17.255	0.921588	-0.66002	-0.282552	-0.2205	0.6165	-0.4665	0	281	355	3
2026-02-19	12:36:31.670	-9.975	-1.855	-4.2	0.921588	-0.731268	-0.206668	-0.219	0.6225	-0.462	0	281	355	3
2026-02-19	12:36:31.690	26.635	-10.045	12.67	0.885964	-0.859368	0.141032	-0.216	0.627	-0.4605	0	281	355	3
2026-02-19	12:36:31.710	61.46	-17.395	35.035	0.856196	-0.542656	0.420168	-0.2175	0.6255	-0.462	0	281	355	3
2026-02-19	12:36:31.730	83.265	-22.4	58.52	0.84058	-0.042212	0.510204	-0.2205	0.6225	-0.4665	0	281	355	3
2026-02-19	12:36:31.750	65.87	-22.89	64.19	0.901336	-0.033184	0.58072	-0.2235	0.6165	-0.4635	0	281	355	3
2026-02-19	12:36:31.770	21.105	-10.815	43.89	0.839848	-0.149328	0.313784	-0.2235	0.612	-0.4665	0	281	355	3
2026-02-19	12:36:31.790	-6.965	1.75	28.98	0.963312	-0.255224	0.056364	-0.219	0.618	-0.4635	0	281	355	3
2026-02-19	12:36:31.810	4.9	-10.325	20.72	1.032608	0.081008	0.0305	-0.2235	0.618	-0.474	0	294	346	3
2026-02-19	12:36:31.830	-1.47	-22.12	13.195	1.06872	0.183732	0.295972	-0.222	0.621	-0.4755	0	294	346	3
2026-02-19	12:36:31.850	-21.595	-13.86	3.15	1.049444	0.146644	0.35136	-0.228	0.6285	-0.4665	0	294	346	3
2026-02-19	12:36:31.870	-32.305	0.56	-3.71	0.996496	0.036844	0.189344	-0.2295	0.6285	-0.4575	0	294	346	3
2026-02-19	12:36:31.890	-43.225	2.73	-11.795	0.96258	-0.18056	0.180804	-0.2265	0.624	-0.4605	0	294	346	3
2026-02-19	12:36:31.910	-44.59	-2.8	-12.6	0.920612	-0.429684	0.29036	-0.2265	0.627	-0.4605	0	294	346	3
2026-02-19	12:36:31.930	-36.33	-0.665	-7.21	0.850584	-0.424072	0.303536	-0.228	0.6345	-0.4545	0	294	346	3
2026-02-19	12:36:31.950	-19.25	8.4	-3.64	0.86864	-0.438956	0.28426	-0.231	0.636	-0.456	0	294	346	3
2026-02-19	12:36:31.970	-8.82	8.47	-2.52	0.864492	-0.514108	0.2989	-0.231	0.6345	-0.459	0	294	346	3
2026-02-19	12:36:31.990	-10.99	13.755	-1.575	0.864492	-0.321836	0.321592	-0.234	0.6375	-0.4575	0	294	346	3
2026-02-19	12:36:32.010	-13.685	21.875	-5.81	0.858148	-0.33916	0.355752	-0.234	0.6375	-0.4575	0	310	333	3
2026-02-19	12:36:32.030	-12.145	20.895	-6.37	0.809836	-0.420656	0.36478	-0.234	0.642	-0.456	0	310	333	3
2026-02-19	12:36:32.050	-19.915	19.425	-1.785	0.809592	-0.31964	0.343064	-0.231	0.6375	-0.4515	0	310	333	3
2026-02-19	12:36:32.070	-29.54	25.935	-7.525	0.874984	-0.442128	0.333304	-0.222	0.6405	-0.4515	0	310	333	3
2026-02-19	12:36:32.090	-28.56	20.895	-4.025	1.116788	-0.1403	0.423096	-0.219	0.6345	-0.459	0	310	333	3
2026-02-19	12:36:32.110	-19.88	26.215	-5.25	0.82228	-0.073444	0.452376	-0.2175	0.645	-0.468	0	310	333	3
2026-02-19	12:36:32.130	-52.22	30.66	-8.435	0.765428	-0.286456	0.132492	-0.2175	0.6405	-0.4605	0	310	333	3
2026-02-19	12:36:32.150	-50.575	32.305	-9.31	0.457012	-0.113704	0.2867	-0.213	0.639	-0.4605	0	310	333	3
2026-02-19	12:36:32.170	-38.675	37.415	-7.14	0.941352	-0.57218	0.392108	-0.222	0.645	-0.4605	0	310	333	3
2026-02-19	12:36:32.190	-8.715	13.44	3.71	0.695156	-0.419436	0.457012	-0.2145	0.6495	-0.465	0	310	333	3
2026-02-19	12:36:32.210	-18.83	16.905	2.275	0.698572	-0.412848	0.453352	-0.207	0.654	-0.4695	0	324	328	2
2026-02-19	12:36:32.230	-21.42	17.99	0.56	0.714432	-0.450912	0.47702	-0.204	0.654	-0.4695	0	324	328	2
2026-02-19	12:36:32.250	-9.975	15.435	1.89	0.722484	-0.44042	0.537532	-0.204	0.6615	-0.468	0	324	328	2
2026-02-19	12:36:32.270	15.33	10.325	7.315	0.722728	-0.297192	0.589748	-0.201	0.6675	-0.4695	0	324	328	2
2026-02-19	12:36:32.290	26.425	6.79	12.6	0.802028	-0.05612	0.579744	-0.1965	0.6645	-0.4695	0	324	328	2
2026-02-19	12:36:32.310	18.025	8.75	6.475	1.009184	0.144692	0.552904	-0.198	0.66	-0.468	0	324	328	2
2026-02-19	12:36:32.330	5.53	15.12	-6.79	1.247572	0.278892	0.43676	-0.1965	0.6555	-0.4725	0	324	328	2
2026-02-19	12:36:32.350	-27.44	22.05	-27.055	1.625284	0.1952	0.23058	-0.189	0.6645	-0.471	0	324	328	2
2026-02-19	12:36:32.370	-51.94	38.955	-27.825	1.839272	-0.347212	0.315248	-0.1875	0.6585	-0.4695	0	324	328	2
2026-02-19	12:36:32.390	-45.85	48.09	-0.21	1.658224	-0.603412	0.21472	-0.1875	0.6555	-0.468	0	324	328	2
2026-02-19	12:36:32.410	-36.505	44.135	30.065	1.361276	-0.650016	0.137128	-0.18	0.663	-0.468	0	335	337	3
2026-02-19	12:36:32.430	-19.25	35.21	56.14	1.143872	-0.638304	0.046116	-0.1725	0.6675	-0.4695	0	335	337	3
2026-02-19	12:36:32.450	-1.05	27.02	77.805	1.001376	-0.574864	0.060756	-0.1665	0.672	-0.4695	0	335	337	3
2026-02-19	12:36:32.470	15.33	22.4	95.445	0.926956	-0.40748	0.07808	-0.1605	0.6735	-0.471	0	335	337	3
2026-02-19	12:36:32.490	22.295	18.165	105.35	0.874008	-0.355996	0.130784	-0.1575	0.681	-0.468	0	335	337	3
2026-02-19	12:36:32.510	25.235	18.725	105.7	0.813008	-0.294996	0.177876	-0.144	0.6945	-0.4695	0	335	337	3
2026-02-19	12:36:32.530	17.185	23.17	99.365	0.73078	-0.256932	0.190808	-0.132	0.7035	-0.4755	0	335	337	3
2026-02-19	12:36:32.550	-1.05	27.755	85.05	0.62342	-0.2379	0.182756	-0.1275	0.708	-0.48	0	335	337	3
2026-02-19	12:36:32.570	-5.075	27.615	72.205	0.587064	-0.28304	0.196176	-0.105	0.7185	-0.474	0	335	337	3
2026-02-19	12:36:32.590	-6.125	24.64	56.63	0.543144	-0.288652	0.165676	-0.108	0.7245	-0.4755	0	335	337	3
2026-02-19	12:36:32.610	-11.41	18.41	39.655	0.481656	-0.353312	0.139324	-0.0945	0.7245	-0.48	0	346	329	3
2026-02-19	12:36:32.630	-9.415	8.12	26.04	0.448716	-0.375516	0.139324	-0.087	0.738	-0.4725	0	346	329	3
2026-02-19	12:36:32.650	6.965	-4.935	16.52	0.399428	-0.425048	0.1037	-0.084	0.735	-0.474	0	346	329	3
2026-02-19	12:36:32.670	20.02	-19.705	9.135	0.417972	-0.407724	0.198128	-0.0915	0.729	-0.4755	0	346	329	3
2026-02-19	12:36:32.690	34.685	-30.695	3.36	0.467504	-0.490196	0.284504	-0.0885	0.7395	-0.483	0	346	329	3
2026-02-19	12:36:32.710	52.29	-36.4	3.08	0.506056	-0.511668	0.3843	-0.0885	0.732	-0.4755	0	346	329	3
2026-02-19	12:36:32.730	56.07	-34.825	1.68	0.609268	-0.511668	0.506056	-0.0885	0.732	-0.4755	0	346	329	3
2026-02-19	12:36:32.750	43.925	-31.36	-4.2	0.700036	-0.501664	0.498736	-0.0975	0.7245	-0.4785	0	346	329	3
2026-02-19	12:36:32.770	25.375	-26.635	-10.99	0.76738	-0.462136	0.433588	-0.108	0.717	-0.4845	0	346	329	3
2026-02-19	12:36:32.790	8.505	-23.59	-20.965	0.779824	-0.457744	0.449936	-0.1095	0.714	-0.489	0	346	329	3
2026-02-19	12:36:32.810	-0.21	-22.19	-30.45	0.766892	-0.379664	0.435052	-0.114	0.708	-0.486	0	356	314	3
2026-02-19	12:36:32.830	-2.31	-20.685	-36.645	0.7991	-0.450424	0.454572	-0.123	0.705	-0.4845	0	356	314	3
2026-02-19	12:36:32.850	-0.28	-20.37	-42.07	0.812032	-0.412848	0.40504	-0.129	0.7005	-0.4845	0	356	314	3
2026-02-19	12:36:32.870	-3.395	-19.53	-44.45	0.821304	-0.434808	0.416508	-0.1305	0.7005	-0.486	0	356	314	3
2026-02-19	12:36:32.890	-7.665	-19.215	-46.97	0.863516	-0.395768	0.438956	-0.135	0.699	-0.4845	0	356	314	3
2026-02-19	12:36:32.910	-9.94	-17.43	-49	0.932812	-0.457012	0.483608	-0.1365	0.693	-0.4815	0	356	314	3
2026-02-19	12:36:32.930	-10.465	-15.19	-47.81	0.94672	-0.43188	0.481656	-0.1425	0.6915	-0.477	0	356	314	3
2026-02-19	12:36:32.950	-15.225	-8.89	-42.77	1.827316	0.00732	-0.025864	-0.15	0.69	-0.474	0	356	314	3
2026-02-19	12:36:32.970	-25.48	35.805	-0.245	1.189256	-1.752164	1.035048	-0.156	0.6855	-0.4755	0	356	314	3
2026-02-19	12:36:32.990	-39.515	-2.31	11.095	0.76982	-0.291336	0.332328	-0.159	0.69	-0.474	0	356	314	3
2026-02-19	12:36:33.010	-25.34	-14.98	13.265	0.647576	-0.053436	0.1098	-0.1545	0.6975	-0.468	0	362	318	3
2026-02-19	12:36:33.030	4.83	-4.445	-0.98	0.804468	-0.06954	0.21838	-0.1575	0.699	-0.4665	0	362	318	3
2026-02-19	12:36:33.050	2.59	3.78	-26.39	0.986492	-0.258884	0.434076	-0.1605	0.702	-0.4695	0	362	318	3
2026-02-19	12:36:33.070	-14.35	6.3	-49.63	0.917928	-0.229848	0.441396	-0.162	0.702	-0.468	0	362	318	3
2026-02-19	12:36:33.090	-37.45	3.535	-70.42	0.847656	-0.303536	0.384056	-0.165	0.702	-0.4665	0	362	318	3
2026-02-19	12:36:33.110	-9.94	-0.42	-69.79	0.85278	-0.259372	0.47702	-0.165	0.702	-0.4665	0	362	318	3
2026-02-19	12:36:33.130	25.585	-5.705	-59.325	0.83936	-0.205692	0.47214	-0.1845	0.684	-0.465	0	362	318	3
2026-02-19	12:36:33.150	29.26	-3.36	-50.47	0.885476	-0.274744	0.519232	-0.186	0.6855	-0.468	0	362	318	3
2026-02-19	12:36:33.170	19.845	7	-44.87	0.854976	-0.32208	0.39772	-0.1965	0.672	-0.477	0	362	318	3
2026-02-19	12:36:33.190	11.13	11.83	-37.17	0.86498	-0.330132	0.244732	-0.192	0.669	-0.4725	0	362	318	3
2026-02-19	12:36:33.210	5.075	9.24	-29.925	0.883036	-0.354532	0.169336	-0.183	0.666	-0.4665	0	366	333	3
2026-02-19	12:36:33.230	11.305	5.915	-23.1	0.933544	-0.457744	0.168116	-0.1905	0.66	-0.4725	0	366	333	3
2026-02-19	12:36:33.250	11.76	5.145	-16.17	0.901092	-0.397232	0.043188	-0.198	0.654	-0.4755	0	366	333	3
2026-02-19	12:36:33.270	0.875	-1.575	-12.81	0.944768	-0.346236	-0.049532	-0.201	0.6555	-0.474	0	366	333	3
2026-02-19	12:36:33.290	7.07	-17.92	-8.82	1.007964	-0.337452	0.048068	-0.204	0.6525	-0.4755	0	366	333	3
2026-02-19	12:36:33.310	19.39	-30.415	-2.345	0.939888	-0.22692	0.069784	-0.204	0.648	-0.471	0	366	333	3
2026-02-19	12:36:33.330	18.83	-32.13	2.695	0.960872	-0.099796	0.11712	-0.2055	0.6435	-0.4635	0	366	333	3
2026-02-19	12:36:33.350	15.4	-35	3.36	0.970388	-0.048556	0.235704	-0.207	0.642	-0.4635	0	366	333	3
2026-02-19	12:36:33.370	16.38	-38.92	1.05	0.975512	-0.066368	0.327692	-0.2145	0.6435	-0.465	0	366	333	3
2026-02-19	12:36:33.390	14.315	-40.11	-1.19	0.932324	-0.083936	0.485316	-0.2235	0.645	-0.462	0	366	333	3
2026-02-19	12:36:33.410	0.77	-34.055	-1.61	0.884256	-0.015616	0.489952	-0.225	0.645	-0.462	0	365	332	3
2026-02-19	12:36:33.430	-5.285	-19.635	-4.13	0.933056	0.031476	0.490684	-0.2265	0.6435	-0.4605	0	365	332	3
2026-02-19	12:36:33.450	-29.12	-15.47	-16.485	0.89792	-0.032696	0.660508	-0.228	0.645	-0.4575	0	365	332	3
2026-02-19	12:36:33.470	-37.275	-11.41	-20.615	0.867176	-0.346968	0.796904	-0.231	0.6435	-0.4545	0	365	332	3
2026-02-19	12:36:33.490	-24.745	0.07	-14.595	0.837652	-0.3904	0.602192	-0.234	0.6405	-0.45	0	365	332	3
2026-02-19	12:36:33.510	0.735	11.55	-5.075	0.869372	-0.379664	0.467504	-0.237	0.6405	-0.4455	0	365	332	3
2026-02-19	12:36:33.530	16.8	13.265	0.735	0.84668	-0.391376	0.380884	-0.2385	0.645	-0.4425	0	365	332	3
2026-02-19	12:36:33.550	15.645	13.09	5.145	0.825452	-0.3599	0.378688	-0.2385	0.645	-0.4485	0	365	332	3
2026-02-19	12:36:33.570	2.73	16.52	7.77	0.833992	-0.361608	0.333304	-0.237	0.645	-0.45	0	365	332	3
2026-02-19	12:36:33.590	-1.925	19.075	8.12	0.882792	-0.318664	0.29402	-0.237	0.642	-0.45	0	365	332	3
2026-02-19	12:36:33.610	-9.345	15.82	3.605	0.874008	-0.317688	0.2867	-0.2325	0.6375	-0.4545	0	360	337	3
2026-02-19	12:36:33.630	-13.3	11.62	2.8	0.851804	-0.337696	0.245952	-0.228	0.639	-0.456	0	360	337	3
2026-02-19	12:36:33.650	-0.7	10.22	9.835	0.916708	-0.236436	0.183	-0.228	0.642	-0.456	0	360	337	3
2026-02-19	12:36:33.670	-2.52	5.95	9.695	0.931836	-0.204472	0.15494	-0.219	0.654	-0.459	0	360	337	3
2026-02-19	12:36:33.690	-9.765	2.205	9.975	0.929152	-0.234728	0.244	-0.2295	0.6495	-0.4575	0	360	337	3
2026-02-19	12:36:33.710	-6.685	2.59	12.775	0.913536	-0.222772	0.32086	-0.219	0.651	-0.456	0	360	337	3
2026-02-19	12:36:33.730	-9.065	4.515	14.63	0.912316	-0.109068	0.309636	-0.231	0.6525	-0.465	0	360	337	3
2026-02-19	12:36:33.750	-16.765	9.24	8.61	0.91988	-0.146888	0.359168	-0.222	0.6525	-0.462	0	360	337	3
2026-02-19	12:36:33.770	-17.99	9.31	1.645	0.898652	-0.270352	0.40382	-0.2235	0.6495	-0.462	0	360	337	3
2026-02-19	12:36:33.790	-7.49	6.79	2.135	0.872056	-0.239608	0.40992	-0.2295	0.657	-0.4605	0	360	337	3
2026-02-19	12:36:33.810	-12.145	11.935	1.82	0.861076	-0.183976	0.450912	-0.222	0.663	-0.459	0	350	343	3
2026-02-19	12:36:33.830	-29.645	15.26	-4.13	0.843752	-0.27206	0.509228	-0.222	0.663	-0.459	0	350	343	3
2026-02-19	12:36:33.850	-32.76	16.17	-5.145	0.800076	-0.296216	0.487756	-0.222	0.6645	-0.4635	0	350	343	3
2026-02-19	12:36:33.870	-45.08	18.62	-5.355	0.752008	-0.329888	0.476288	-0.2205	0.6645	-0.4635	0	350	343	3
2026-02-19	12:36:33.890	-41.475	22.435	-3.955	0.758596	-0.41968	0.525332	-0.216	0.669	-0.462	0	350	343	3
2026-02-19	12:36:33.910	-34.965	21.49	-4.06	0.736392	-0.462136	0.552416	-0.2115	0.678	-0.4635	0	350	343	3
2026-02-19	12:36:33.930	-33.95	22.785	-2.835	0.67954	-0.397476	0.496052	-0.21	0.681	-0.462	0	350	343	3
2026-02-19	12:36:33.950	-35.455	26.845	-1.19	0.69418	-0.453352	0.48434	-0.2115	0.684	-0.4635	0	350	343	3
2026-02-19	12:36:33.970	-27.195	26.705	0.63	0.718824	-0.443592	0.470432	-0.2145	0.6885	-0.462	0	350	343	3
2026-02-19	12:36:33.990	-21.735	23.59	0.525	0.730536	-0.380884	0.37332	-0.2085	0.693	-0.4575	0	350	343	3
2026-02-19	12:36:34.010	-22.96	20.545	0.07	0.7198	-0.43798	0.344772	-0.204	0.696	-0.456	0	335	357	3
2026-02-19	12:36:34.030	-12.425	15.75	3.57	0.736392	-0.45994	0.382348	-0.1965	0.699	-0.459	0	335	357	3
2026-02-19	12:36:34.050	-2.59	11.62	7.595	0.716384	-0.393328	0.3538	-0.2025	0.699	-0.462	0	335	357	3
2026-02-19	12:36:34.070	-4.9	8.75	6.265	0.726876	-0.395768	0.406748	-0.2025	0.702	-0.4605	0	335	357	3
2026-02-19	12:36:34.090	-2.73	4.655	3.605	0.754936	-0.463112	0.511912	-0.1965	0.7035	-0.4605	0	335	357	3
2026-02-19	12:36:34.110	9.905	-4.27	-0.77	0.80154	-0.330132	0.493124	-0.201	0.7035	-0.4635	0	335	357	3
2026-02-19	12:36:34.130	24.08	-17.01	-11.06	0.889868	-0.221064	0.48922	-0.207	0.708	-0.462	0	335	357	3
2026-02-19	12:36:34.150	41.825	-31.185	-14.84	1.036512	-0.09028	0.379176	-0.2055	0.7065	-0.459	0	335	357	3
2026-02-19	12:36:34.170	47.285	-38.5	-14.98	1.342732	0.142008	0.173728	-0.2085	0.6975	-0.4575	0	335	357	3
2026-02-19	12:36:34.190	24.325	-11.935	-8.575	1.586976	-0.03904	0.110288	-0.2145	0.693	-0.459	0	335	357	3
2026-02-19	12:36:34.210	-7.105	15.155	15.365	1.64456	-0.473848	0.282064	-0.2145	0.693	-0.459	0	318	372	3
2026-02-19	12:36:34.230	-7.91	17.815	47.775	1.423252	-0.593164	0.192028	-0.216	0.6915	-0.4515	0	318	372	3
2026-02-19	12:36:34.250	10.71	13.265	79.31	1.254892	-0.545096	0.246684	-0.2115	0.6945	-0.4575	0	318	372	3
2026-02-19	12:36:34.270	23.065	13.335	100.205	1.136064	-0.445788	0.328424	-0.207	0.696	-0.462	0	318	372	3
2026-02-19	12:36:34.290	25.515	20.265	109.235	1.01016	-0.34038	0.351848	-0.1995	0.717	-0.459	0	318	372	3
2026-02-19	12:36:34.310	17.85	29.225	109.34	0.882304	-0.269376	0.332328	-0.1875	0.7245	-0.4695	0	318	372	3
2026-02-19	12:36:34.330	3.99	33.845	102.865	0.760548	-0.221308	0.284992	-0.1875	0.723	-0.4695	0	318	372	3
2026-02-19	12:36:34.350	-2.52	31.675	91.805	0.653432	-0.202032	0.255224	-0.171	0.732	-0.474	0	318	372	3
2026-02-19	12:36:34.370	5.6	20.195	77.56	0.568276	-0.25864	0.177144	-0.1605	0.744	-0.483	0	318	372	3
2026-02-19	12:36:34.390	15.925	6.86	64.12	0.518988	-0.342576	0.171532	-0.15	0.7515	-0.4815	0	318	372	3
2026-02-19	12:36:34.410	23.8	-2.765	53.445	0.499956	-0.307928	0.213988	-0.1335	0.7605	-0.4785	0	307	370	3
2026-02-19	12:36:34.430	23.94	-13.265	41.37	0.48678	-0.349408	0.244488	-0.132	0.7635	-0.4785	0	307	370	3
2026-02-19	12:36:34.450	34.79	-22.47	32.725	0.448228	-0.448716	0.256444	-0.1365	0.7605	-0.4785	0	307	370	3
2026-02-19	12:36:34.470	37.66	-24.325	27.825	0.526308	-0.4758	0.299876	-0.129	0.7575	-0.483	0	307	370	3
2026-02-19	12:36:34.490	25.2	-21.91	25.69	0.589016	-0.557296	0.387472	-0.1215	0.7575	-0.489	0	307	370	3
2026-02-19	12:36:34.510	17.675	-19.04	24.675	0.631228	-0.581696	0.466772	-0.1245	0.7545	-0.4875	0	307	370	3
2026-02-19	12:36:34.530	13.825	-14.665	21.945	0.669292	-0.600484	0.504836	-0.1275	0.7515	-0.4875	0	307	370	3
2026-02-19	12:36:34.550	8.96	-6.3	17.36	0.64782	-0.570716	0.491172	-0.1275	0.7575	-0.4875	0	307	370	3
2026-02-19	12:36:34.570	-5.04	-1.645	9.24	0.629764	-0.564616	0.446276	-0.129	0.762	-0.4875	0	307	370	3
2026-02-19	12:36:34.590	-5.845	-2.415	0.21	0.616344	-0.543388	0.412116	-0.1185	0.7605	-0.489	0	307	370	3
2026-02-19	12:36:34.610	-1.225	-3.535	-5.18	0.667096	-0.536556	0.413336	-0.123	0.762	-0.483	0	300	360	3
2026-02-19	12:36:34.630	1.54	-5.565	-11.235	0.714188	-0.49776	0.393572	-0.132	0.765	-0.483	0	300	360	3
2026-02-19	12:36:34.650	-1.82	-8.26	-16.31	0.716872	-0.5063	0.425048	-0.135	0.7635	-0.4905	0	300	360	3
2026-02-19	12:36:34.670	-3.15	-11.655	-21.455	0.726876	-0.48678	0.417972	-0.135	0.762	-0.4875	0	300	360	3
2026-02-19	12:36:34.690	-1.925	-15.155	-25.55	0.743956	-0.476776	0.427	-0.1365	0.762	-0.486	0	300	360	3
2026-02-19	12:36:34.710	0.735	-18.27	-29.54	0.780556	-0.441396	0.411872	-0.138	0.762	-0.4845	0	300	360	3
2026-02-19	12:36:34.730	0.84	-20.405	-32.55	0.794952	-0.455304	0.412116	-0.1425	0.759	-0.486	0	300	360	3
2026-02-19	12:36:34.750	-2.38	-22.575	-32.795	0.791292	-0.434564	0.409188	-0.1455	0.756	-0.489	0	300	360	3
2026-02-19	12:36:34.770	-1.47	-22.855	-33.25	0.786656	-0.384544	0.393084	-0.1575	0.7485	-0.48	0	300	360	3
2026-02-19	12:36:34.790	-1.015	-21.385	-35.7	0.793976	-0.387472	0.391864	-0.159	0.7515	-0.477	0	300	360	3
2026-02-19	12:36:34.810	-7.245	-21.245	-38.675	0.785436	-0.35624	0.390644	-0.171	0.7455	-0.474	0	295	361	3
2026-02-19	12:36:34.830	-11.76	-2.765	-37.765	1.359568	-1.117032	0.487512	-0.171	0.7455	-0.477	0	295	361	3
2026-02-19	12:36:34.850	-54.355	27.195	13.615	0.739076	-0.206668	0.316468	-0.183	0.7395	-0.4695	0	295	361	3
2026-02-19	12:36:34.870	-48.86	3.115	-17.045	0.54778	-0.240584	-0.03172	-0.174	0.7485	-0.4665	0	295	361	3
2026-02-19	12:36:34.890	-22.015	18.865	-43.61	1.011868	-0.326472	0.349408	-0.177	0.756	-0.4605	0	295	361	3
2026-02-19	12:36:34.910	-47.74	6.79	-65.765	0.966484	-0.618296	0.529968	-0.183	0.759	-0.4605	0	295	361	3
2026-02-19	12:36:34.930	-16.31	-25.515	-57.47	0.67832	-0.441396	0.494588	-0.189	0.7515	-0.453	0	295	361	3
2026-02-19	12:36:34.950	6.79	-15.75	-39.27	0.73566	-0.425048	0.52704	-0.1935	0.75	-0.453	0	295	361	3
2026-02-19	12:36:34.970	31.71	-3.5	-27.23	0.803248	-0.255224	0.571936	-0.201	0.7455	-0.4515	0	295	361	3
2026-02-19	12:36:34.990	21.49	4.55	-28	0.840824	-0.3782	0.635376	-0.204	0.7395	-0.4545	0	295	361	3
2026-02-19	12:36:35.010	6.44	13.055	-29.995	0.77714	-0.306952	0.477996	-0.2055	0.738	-0.4605	0	295	369	3
2026-02-19	12:36:35.030	0.98	22.26	-28.035	0.811544	-0.337208	0.355508	-0.213	0.7305	-0.4605	0	295	369	3
2026-02-19	12:36:35.050	6.65	21.875	-26.145	0.871324	-0.357948	0.240584	-0.2115	0.726	-0.462	0	295	369	3
2026-02-19	12:36:35.070	13.195	12.25	-26.81	0.967216	-0.446032	0.187636	-0.2115	0.723	-0.462	0	295	369	3
2026-02-19	12:36:35.090	14.945	2.52	-28.21	0.905484	-0.418216	0.01708	-0.213	0.72	-0.4635	0	295	369	3
2026-02-19	12:36:35.110	12.845	-5.74	-12.635	0.921832	-0.618296	-0.218624	-0.21	0.7215	-0.4665	0	295	369	3
2026-02-19	12:36:35.130	8.75	-14.875	2.17	0.949648	-0.635864	-0.206424	-0.216	0.7155	-0.4695	0	295	369	3
2026-02-19	12:36:35.150	-15.12	-26.88	8.68	0.900116	-0.499956	-0.209596	-0.2235	0.7125	-0.4695	0	295	369	3
2026-02-19	12:36:35.170	-22.26	-32.2	12.32	0.915244	-0.417484	-0.180804	-0.222	0.714	-0.465	0	295	369	3
2026-02-19	12:36:35.190	-23.695	-39.585	11.445	0.91744	-0.463356	0.021716	-0.222	0.717	-0.4605	0	295	369	3
2026-02-19	12:36:35.210	-31.85	-52.465	8.295	0.885964	-0.29036	0.086376	-0.2235	0.7215	-0.4575	0	298	358	3
2026-02-19	12:36:35.230	-28.665	-59.955	9.835	0.876204	-0.270352	0.20496	-0.2235	0.726	-0.4515	0	298	358	3
2026-02-19	12:36:35.250	-4.41	-62.51	11.445	0.91988	-0.268888	0.312808	-0.2295	0.7305	-0.4425	0	298	358	3
2026-02-19	12:36:35.270	3.535	-67.025	8.785	0.864248	-0.260592	0.50264	-0.24	0.738	-0.4365	0	298	358	3
2026-02-19	12:36:35.290	4.62	-58.1	14.455	0.859612	-0.156404	0.74298	-0.2445	0.741	-0.4335	0	298	358	3
2026-02-19	12:36:35.310	17.675	-37.765	17.64	0.955504	-0.164944	0.83082	-0.2445	0.741	-0.4335	0	298	358	3
2026-02-19	12:36:35.330	8.68	-25.725	5.11	0.907436	-0.313052	1.016748	-0.258	0.75	-0.42	0	298	358	3
2026-02-19	12:36:35.350	-15.435	-5.285	-5.075	0.81984	-0.33062	0.99796	-0.261	0.7395	-0.426	0	298	358	3
2026-02-19	12:36:35.370	-25.9	16.03	-4.865	0.838384	-0.409188	0.644648	-0.2505	0.7365	-0.42	0	298	358	3
2026-02-19	12:36:35.390	-20.58	20.37	-4.97	0.862296	-0.40626	0.436516	-0.258	0.7455	-0.4275	0	298	358	3
2026-02-19	12:36:35.410	-10.955	19.565	-6.44	0.86498	-0.450912	0.475312	-0.2595	0.7455	-0.4245	0	303	346	3
2026-02-19	12:36:35.430	-15.12	23.52	-5.88	0.800808	-0.326228	0.423584	-0.243	0.7455	-0.4155	0	303	346	3
2026-02-19	12:36:35.450	-22.575	32.06	-6.125	0.83448	-0.324032	0.328912	-0.246	0.7455	-0.4215	0	303	346	3
2026-02-19	12:36:35.470	-18.655	32.795	-8.435	0.891332	-0.349164	0.27206	-0.246	0.75	-0.426	0	303	346	3
2026-02-19	12:36:35.490	-10.08	30.695	-9.1	0.884012	-0.216184	0.230336	-0.243	0.7515	-0.423	0	303	346	3
2026-02-19	12:36:35.510	-10.115	34.79	-11.41	0.894992	-0.256444	0.156648	-0.24	0.7545	-0.423	0	303	346	3
2026-02-19	12:36:35.530	4.27	30.17	-15.12	0.950868	-0.357704	0.155916	-0.243	0.7485	-0.426	0	303	346	3
2026-02-19	12:36:35.550	6.405	21.35	-18.06	0.906216	-0.254492	0.138836	-0.243	0.7455	-0.4305	0	303	346	3
2026-02-19	12:36:35.570	-2.345	18.48	-16.135	0.88328	-0.312564	0.179584	-0.2415	0.747	-0.4335	0	303	346	3
2026-02-19	12:36:35.590	6.09	17.15	-9.555	0.892308	-0.339648	0.154452	-0.24	0.7485	-0.4305	0	303	346	3
2026-02-19	12:36:35.610	4.27	13.93	-9.135	0.917196	-0.288408	0.202276	-0.24	0.7515	-0.4335	0	308	350	3
2026-02-19	12:36:35.630	-10.675	11.9	-11.795	0.884744	-0.312076	0.22326	-0.2415	0.75	-0.4395	0	308	350	3
2026-02-19	12:36:35.650	-8.82	13.545	-8.75	0.896944	-0.346968	0.224968	-0.243	0.7455	-0.4425	0	308	350	3
2026-02-19	12:36:35.670	6.125	5.39	-7.105	0.912072	-0.325984	0.320616	-0.2445	0.7455	-0.4425	0	308	350	3
2026-02-19	12:36:35.690	-4.865	2.8	-11.62	0.900848	-0.151768	0.25864	-0.234	0.744	-0.438	0	308	350	3
2026-02-19	12:36:35.710	-18.06	9.485	-17.5	0.92842	-0.302804	0.265472	-0.2385	0.747	-0.447	0	308	350	3
2026-02-19	12:36:35.730	-8.015	6.72	-16.695	0.908168	-0.383324	0.289872	-0.2415	0.7455	-0.441	0	308	350	3
2026-02-19	12:36:35.750	7.42	-0.07	-11.165	0.87718	-0.257664	0.257908	-0.2385	0.747	-0.441	0	308	350	3
2026-02-19	12:36:35.770	2.31	1.82	-12.25	0.895968	-0.302072	0.291092	-0.2385	0.7455	-0.444	0	308	350	3
2026-02-19	12:36:35.790	-9.415	1.89	-15.96	0.89548	-0.335012	0.340136	-0.243	0.7425	-0.4455	0	308	350	3
2026-02-19	12:36:35.810	-8.995	-0.35	-16.45	0.87718	-0.313296	0.34404	-0.246	0.744	-0.4455	0	306	342	3
2026-02-19	12:36:35.830	-3.15	-0.14	-15.19	0.87474	-0.291092	0.344284	-0.249	0.744	-0.447	0	306	342	3
2026-02-19	12:36:35.850	2.065	-0.105	-14.84	0.864248	-0.313052	0.335012	-0.2505	0.7425	-0.4455	0	306	342	3
2026-02-19	12:36:35.870	4.375	-2.73	-15.05	0.8418	-0.320616	0.329644	-0.255	0.735	-0.4485	0	306	342	3
2026-02-19	12:36:35.890	6.965	-4.76	-15.47	0.82472	-0.372344	0.439932	-0.261	0.7365	-0.4485	0	306	342	3
2026-02-19	12:36:35.910	4.095	-5.67	-15.715	0.757376	-0.423584	0.498736	-0.2505	0.7335	-0.447	0	306	342	3
2026-02-19	12:36:35.930	-4.165	-1.61	-11.83	0.718092	-0.443104	0.492148	-0.264	0.7245	-0.4425	0	306	342	3
2026-02-19	12:36:35.950	-6.615	4.13	-4.445	0.689788	-0.511424	0.484584	-0.264	0.729	-0.4395	0	306	342	3
2026-02-19	12:36:35.970	2.905	5.95	5.25	0.699548	-0.578036	0.537532	-0.2625	0.732	-0.447	0	306	342	3
2026-02-19	12:36:35.990	11.27	2.1	12.705	0.679296	-0.620248	0.5551	-0.267	0.7215	-0.444	0	306	342	3
2026-02-19	12:36:36.010	13.685	0.77	24.675	0.679052	-0.581208	0.53802	-0.267	0.7215	-0.444	0	298	340	3
2026-02-19	12:36:36.030	21.56	0.42	31.22	0.826428	-0.30866	0.30134	-0.267	0.7215	-0.444	0	298	340	3
2026-02-19	12:36:36.050	32.655	1.155	24.255	1.027484	-0.105652	0.25986	-0.264	0.729	-0.441	0	298	340	3
2026-02-19	12:36:36.070	34.545	4.305	7.14	1.224392	-0.042456	0.249612	-0.258	0.732	-0.4425	0	298	340	3
2026-02-19	12:36:36.090	17.885	11.83	-10.71	1.481568	-0.158112	0.248392	-0.249	0.732	-0.453	0	298	340	3
2026-02-19	12:36:36.110	-13.755	25.095	-10.045	1.525976	-0.501176	0.309636	-0.2445	0.7365	-0.459	0	298	340	3
2026-02-19	12:36:36.130	-31.08	29.61	9.345	1.386652	-0.692228	0.357216	-0.246	0.7395	-0.453	0	298	340	3
2026-02-19	12:36:36.150	-9.31	23.52	35.805	1.144116	-0.6344	0.293044	-0.2445	0.744	-0.456	0	298	340	3
2026-02-19	12:36:36.170	16.59	15.785	60.935	0.955748	-0.526552	0.291336	-0.2385	0.7455	-0.465	0	298	340	3
2026-02-19	12:36:36.190	34.685	10.465	75.95	0.845216	-0.386496	0.3111	-0.2265	0.7485	-0.4665	0	298	340	3
2026-02-19	12:36:36.210	33.775	11.9	78.995	0.740296	-0.340868	0.361608	-0.2205	0.7515	-0.4665	0	290	345	3
2026-02-19	12:36:36.230	31.15	15.05	75.355	0.704672	-0.354288	0.352092	-0.2205	0.7515	-0.4665	0	290	345	3
2026-02-19	12:36:36.250	32.13	16.17	71.435	0.664412	-0.328424	0.30134	-0.207	0.7635	-0.4815	0	290	345	3
2026-02-19	12:36:36.270	26.985	13.825	64.785	0.628056	-0.33184	0.248636	-0.1935	0.7785	-0.4845	0	290	345	3
2026-02-19	12:36:36.290	27.02	9.31	56.455	0.589748	-0.36234	0.209108	-0.177	0.7665	-0.4905	0	290	345	3
2026-02-19	12:36:36.310	31.465	4.655	48.475	0.582672	-0.407236	0.232288	-0.177	0.7755	-0.4875	0	290	345	3
2026-02-19	12:36:36.330	38.675	0.385	41.09	0.556076	-0.333304	0.180804	-0.1725	0.7815	-0.4905	0	290	345	3
2026-02-19	12:36:36.350	40.005	-5.775	34.755	0.554124	-0.37454	0.249368	-0.162	0.7785	-0.4965	0	290	345	3
2026-02-19	12:36:36.370	38.535	-9.135	27.65	0.567056	-0.348432	0.2257	-0.1575	0.783	-0.5025	0	290	345	3
2026-02-19	12:36:36.390	26.915	-11.69	15.435	0.600972	-0.324276	0.2745	-0.1575	0.7845	-0.5085	0	290	345	3
2026-02-19	12:36:36.410	18.375	-14.21	1.54	0.667584	-0.335256	0.294752	-0.1575	0.7845	-0.5085	0	284	343	3
2026-02-19	12:36:36.430	21.455	-15.82	-5.67	0.722972	-0.427	0.320128	-0.165	0.7755	-0.504	0	284	343	3
2026-02-19	12:36:36.450	26.67	-17.43	-8.4	0.750544	-0.41602	0.354288	-0.1575	0.771	-0.516	0	284	343	3
2026-02-19	12:36:36.470	18.095	-18.27	-10.01	0.787144	-0.385032	0.385276	-0.162	0.765	-0.5085	0	284	343	3
2026-02-19	12:36:36.490	12.425	-18.095	-12.915	0.843508	-0.376004	0.382104	-0.165	0.7635	-0.5235	0	284	343	3
2026-02-19	12:36:36.510	5.285	-20.055	-15.47	0.829112	-0.35136	0.37942	-0.1635	0.7605	-0.519	0	284	343	3
2026-02-19	12:36:36.530	3.745	-20.895	-18.515	0.838628	-0.3477	0.407968	-0.1665	0.756	-0.5175	0	284	343	3
2026-02-19	12:36:36.550	11.445	-19.74	-20.93	0.8296	-0.319396	0.407968	-0.174	0.756	-0.5115	0	284	343	3
2026-02-19	12:36:36.570	5.075	-18.515	-26.81	0.835456	-0.271816	0.40748	-0.18	0.756	-0.507	0	284	343	3
2026-02-19	12:36:36.590	-12.53	-16.485	-33.845	0.85034	-0.25742	0.411872	-0.1875	0.753	-0.507	0	284	343	3
2026-02-19	12:36:36.610	-20.475	-14.84	-42	0.880352	-0.284748	0.445788	-0.1935	0.747	-0.51	0	277	339	3
2026-02-19	12:36:36.630	-17.255	-11.41	-48.055	0.907436	-0.286944	0.424804	-0.1965	0.744	-0.5115	0	277	339	3
2026-02-19	12:36:36.650	-20.02	-9.38	-51.52	0.936716	-0.322812	0.35014	-0.1995	0.7425	-0.507	0	277	339	3
2026-02-19	12:36:36.670	-12.67	13.755	-40.25	1.709952	-1.269288	0.546316	-0.201	0.738	-0.5025	0	277	339	3
2026-02-19	12:36:36.690	-55.895	20.44	-5.985	0.95892	-0.257908	0.55876	-0.2055	0.7365	-0.5025	0	277	339	3
2026-02-19	12:36:36.710	-61.18	-12.88	-16.8	0.631472	-0.225456	0.127124	-0.207	0.741	-0.498	0	277	339	3
2026-02-19	12:36:36.730	-17.99	-5.25	-26.04	0.854244	-0.092476	0.236192	-0.213	0.747	-0.495	0	277	339	3
2026-02-19	12:36:36.750	-3.08	-5.32	-44.8	0.960872	-0.123708	0.268644	-0.2175	0.7485	-0.4965	0	277	339	3
2026-02-19	12:36:36.770	2.555	-15.785	-58.45	0.92354	-0.261568	0.386008	-0.2175	0.747	-0.495	0	277	339	3
2026-02-19	12:36:36.790	8.26	-25.97	-56.77	0.876448	-0.303292	0.388448	-0.219	0.7335	-0.4995	0	277	339	3
2026-02-19	12:36:36.810	34.02	-32.48	-40.95	0.885476	-0.161284	0.419436	-0.246	0.723	-0.495	0	273	343	3
2026-02-19	12:36:36.830	44.31	-26.985	-33.46	0.956724	-0.11712	0.430904	-0.24	0.717	-0.498	0	273	343	3
2026-02-19	12:36:36.850	20.405	-18.935	-40.04	0.94672	-0.23302	0.360632	-0.2445	0.72	-0.495	0	273	343	3
2026-02-19	12:36:36.870	5.18	-15.365	-40.11	0.92232	-0.417728	0.321836	-0.261	0.7005	-0.492	0	273	343	3
2026-02-19	12:36:36.890	3.22	-14.595	-30.38	0.858636	-0.443836	0.202032	-0.261	0.699	-0.489	0	273	343	3
2026-02-19	12:36:36.910	4.725	-13.125	-21.665	0.86132	-0.388936	0.061732	-0.2595	0.696	-0.492	0	273	343	3
2026-02-19	12:36:36.930	5.495	-15.61	-18.48	0.899384	-0.42456	0.076372	-0.267	0.6915	-0.492	0	273	343	3
2026-02-19	12:36:36.950	6.44	-25.62	-8.96	0.870348	-0.457744	0.18056	-0.276	0.6885	-0.4875	0	273	343	3
2026-02-19	12:36:36.970	-4.585	-32.235	-3.78	0.843264	-0.471896	0.490928	-0.2715	0.6885	-0.489	0	273	343	3
2026-02-19	12:36:36.990	0.7	-30.835	3.15	0.818376	-0.304024	0.781044	-0.285	0.6825	-0.486	0	273	343	3
2026-02-19	12:36:37.010	17.36	-20.58	12.81	0.84302	-0.118584	0.8967	-0.285	0.675	-0.4755	0	270	349	3
2026-02-19	12:36:37.030	16.1	-4.76	12.775	0.898896	-0.030744	0.731268	-0.291	0.678	-0.477	0	270	349	3
2026-02-19	12:36:37.050	-3.22	6.58	4.55	0.926956	-0.081496	0.506056	-0.2805	0.6825	-0.4815	0	270	349	3
2026-02-19	12:36:37.070	-14.42	10.675	-1.05	0.888648	-0.152988	0.301584	-0.288	0.6885	-0.483	0	270	349	3
2026-02-19	12:36:37.090	-19.81	15.085	-4.795	0.899384	-0.189344	0.10004	-0.288	0.684	-0.48	0	270	349	3
2026-02-19	12:36:37.110	-16.17	13.3	-7.98	0.967948	-0.196908	0.025376	-0.2745	0.6915	-0.483	0	270	349	3
2026-02-19	12:36:37.130	-10.5	-3.71	-8.295	0.962092	-0.251076	0.035624	-0.2745	0.6915	-0.483	0	270	349	3
2026-02-19	12:36:37.150	6.23	-11.48	0.525	0.946964	-0.1342	0.110288	-0.279	0.69	-0.4815	0	270	349	3
2026-02-19	12:36:37.170	6.23	-14.385	3.465	0.969412	0.015372	0.1342	-0.2805	0.687	-0.4785	0	270	349	3
2026-02-19	12:36:37.190	-4.935	-16.8	-3.15	0.990152	-0.010248	0.28792	-0.2775	0.6855	-0.4725	0	270	349	3
2026-02-19	12:36:37.210	-15.47	-16.1	-9.485	0.935496	-0.062708	0.48678	-0.279	0.687	-0.471	0	269	353	3
2026-02-19	12:36:37.230	-19.285	-9.765	-9.59	0.906216	-0.151036	0.568276	-0.2865	0.687	-0.4725	0	269	353	3
2026-02-19	12:36:37.250	-24.22	0.385	-5.915	0.905484	-0.183	0.50142	-0.288	0.6885	-0.471	0	269	353	3
2026-02-19	12:36:37.270	-22.12	9.065	-4.48	0.906948	-0.245464	0.378932	-0.285	0.6915	-0.4695	0	269	353	3
2026-02-19	12:36:37.290	-14.42	12.565	-2.1	0.899384	-0.23424	0.283284	-0.2865	0.6915	-0.4695	0	269	353	3
2026-02-19	12:36:37.310	-4.375	14.49	1.19	0.892796	-0.273768	0.213744	-0.288	0.69	-0.4695	0	269	353	3
2026-02-19	12:36:37.330	0.315	12.95	2.135	0.920856	-0.316712	0.247172	-0.2865	0.687	-0.471	0	269	353	3
2026-02-19	12:36:37.350	-1.855	10.57	2.485	0.87596	-0.244732	0.194468	-0.2865	0.687	-0.4695	0	269	353	3
2026-02-19	12:36:37.370	-4.935	10.605	1.715	0.911096	-0.28182	0.229848	-0.282	0.7005	-0.4695	0	269	353	3
2026-02-19	12:36:37.390	-0.315	6.825	3.01	0.9028	-0.29768	0.258396	-0.288	0.6915	-0.471	0	269	353	3
2026-02-19	12:36:37.410	5.635	3.15	4.48	0.895236	-0.237412	0.289628	-0.285	0.69	-0.4785	0	268	349	3
2026-02-19	12:36:37.430	-5.04	4.445	2.275	0.913536	-0.184952	0.290848	-0.291	0.6885	-0.4785	0	268	349	3
2026-02-19	12:36:37.450	-12.88	4.27	-1.155	0.933544	-0.161284	0.293044	-0.2865	0.69	-0.477	0	268	349	3
2026-02-19	12:36:37.470	-6.86	1.68	-3.78	0.964532	-0.13786	0.304756	-0.279	0.6975	-0.477	0	268	349	3
2026-02-19	12:36:37.490	-12.11	2.695	-9.73	0.966484	-0.063684	0.27206	-0.2775	0.7005	-0.48	0	268	349	3
2026-02-19	12:36:37.510	-13.23	1.015	-12.845	0.960872	-0.1098	0.343796	-0.2805	0.6975	-0.4815	0	268	349	3
2026-02-19	12:36:37.530	-12.39	-1.75	-13.09	0.947696	-0.157136	0.382836	-0.2835	0.6885	-0.48	0	268	349	3
2026-02-19	12:36:37.550	-16.415	2.135	-15.12	0.879376	-0.137128	0.349652	-0.276	0.687	-0.4785	0	268	349	3
2026-02-19	12:36:37.570	-22.75	8.26	-16.38	0.914268	-0.252784	0.355996	-0.2925	0.684	-0.48	0	268	349	3
2026-02-19	12:36:37.590	-15.96	8.05	-16.555	0.91256	-0.317444	0.379176	-0.2805	0.69	-0.48	0	268	349	3
2026-02-19	12:36:37.610	-15.925	8.19	-13.44	0.847168	-0.251564	0.307684	-0.2895	0.696	-0.4785	0	263	340	2
2026-02-19	12:36:37.630	-22.085	10.78	-9.905	0.875228	-0.342332	0.290848	-0.297	0.6855	-0.477	0	263	340	2
2026-02-19	12:36:37.650	-12.285	8.785	-4.655	0.8845	-0.339892	0.300364	-0.2895	0.6945	-0.4785	0	263	340	2
2026-02-19	12:36:37.670	-14.07	5.985	-3.22	0.874252	-0.330376	0.280356	-0.282	0.69	-0.4755	0	263	340	2
2026-02-19	12:36:37.690	-23.695	7.105	-1.225	0.860344	-0.29158	0.26352	-0.2865	0.696	-0.4755	0	263	340	2
2026-02-19	12:36:37.710	-11.69	2.66	1.855	0.87352	-0.311344	0.318176	-0.2895	0.6975	-0.48	0	263	340	2
2026-02-19	12:36:37.730	1.19	-1.05	3.325	0.871568	-0.326716	0.393328	-0.291	0.6915	-0.4815	0	263	340	2
2026-02-19	12:36:37.750	-4.095	2.275	3.43	0.833748	-0.242048	0.382348	-0.291	0.693	-0.4755	0	263	340	2
2026-02-19	12:36:37.770	-11.865	7.21	4.795	0.828136	-0.294752	0.404552	-0.291	0.693	-0.474	0	263	340	2
2026-02-19	12:36:37.790	-9.275	6.195	7.21	0.821792	-0.391864	0.470676	-0.2895	0.6945	-0.4755	0	263	340	2
2026-02-19	12:36:37.810	-4.48	3.955	10.675	0.811544	-0.30378	0.4453	-0.2835	0.6975	-0.4755	0	254	336	2
2026-02-19	12:36:37.830	-9.38	6.545	9.38	0.793	-0.25986	0.434808	-0.285	0.6975	-0.477	0	254	336	2
2026-02-19	12:36:37.850	-9.1	6.475	3.745	0.781532	-0.356728	0.517036	-0.282	0.702	-0.48	0	254	336	2
2026-02-19	12:36:37.870	-3.15	4.025	1.995	0.727608	-0.346236	0.527284	-0.276	0.7095	-0.48	0	254	336	2
2026-02-19	12:36:37.890	-1.96	5.985	3.045	0.719556	-0.370148	0.547292	-0.291	0.7035	-0.4815	0	254	336	2
2026-02-19	12:36:37.910	0.455	5.565	3.15	0.704672	-0.39772	0.607072	-0.2775	0.705	-0.48	0	254	336	2
2026-02-19	12:36:37.930	11.27	1.68	2.59	0.720532	-0.37332	0.65148	-0.288	0.6975	-0.4785	0	254	336	2
2026-02-19	12:36:37.950	17.78	-3.395	1.785	0.76372	-0.216428	0.63562	-0.2805	0.702	-0.4875	0	254	336	2
2026-02-19	12:36:37.970	22.015	-7.14	2.17	0.916708	-0.041968	0.521184	-0.279	0.702	-0.4815	0	254	336	2
2026-02-19	12:36:37.990	8.085	-3.36	-0.175	1.229028	0.207888	0.29158	-0.279	0.708	-0.4905	0	254	336	2
2026-02-19	12:36:38.010	-4.095	13.86	-1.05	1.624552	0.121268	0.015616	-0.279	0.708	-0.4905	0	244	350	3
2026-02-19	12:36:38.030	-6.79	28.77	7.77	1.725324	-0.277672	0.262788	-0.276	0.708	-0.492	0	244	350	3
2026-02-19	12:36:38.050	-18.76	38.185	38.36	1.556476	-0.54412	0.24278	-0.2745	0.7095	-0.495	0	244	350	3
2026-02-19	12:36:38.070	-8.26	34.79	62.16	1.30174	-0.548512	0.235216	-0.2715	0.7125	-0.4935	0	244	350	3
2026-02-19	12:36:38.090	1.47	32.62	79.1	1.105564	-0.504348	0.232776	-0.261	0.7215	-0.4995	0	244	350	3
2026-02-19	12:36:38.110	6.055	34.37	90.195	0.942084	-0.382348	0.205448	-0.246	0.729	-0.5025	0	244	350	3
2026-02-19	12:36:38.130	6.09	34.825	94.815	0.836432	-0.361364	0.21594	-0.237	0.7425	-0.51	0	244	350	3
2026-02-19	12:36:38.150	10.01	34.16	97.16	0.74176	-0.31598	0.188368	-0.231	0.747	-0.513	0	244	350	3
2026-02-19	12:36:38.170	13.3	31.605	94.5	0.632204	-0.277916	0.158112	-0.2145	0.7695	-0.5205	0	244	350	3
2026-02-19	12:36:38.190	15.645	25.235	86.38	0.55998	-0.284992	0.1159	-0.195	0.768	-0.534	0	244	350	3
2026-02-19	12:36:38.210	17.325	17.01	75.495	0.529236	-0.264252	0.144204	-0.1935	0.783	-0.528	0	241	356	3
2026-02-19	12:36:38.230	14.21	5.635	54.04	0.536556	-0.325984	0.1891	-0.177	0.7785	-0.5355	0	241	356	3
2026-02-19	12:36:38.250	7.14	0.28	42.21	0.534848	-0.402356	0.24278	-0.171	0.7815	-0.5385	0	241	356	3
2026-02-19	12:36:38.270	-3.22	-4.76	28.91	0.540216	-0.396988	0.257176	-0.165	0.7905	-0.5415	0	241	356	3
2026-02-19	12:36:38.290	-1.12	-8.645	19.565	0.527772	-0.537044	0.314028	-0.159	0.7995	-0.543	0	241	356	3
2026-02-19	12:36:38.310	8.925	-12.39	15.435	0.557784	-0.563396	0.333548	-0.1605	0.798	-0.543	0	241	356	3
2026-02-19	12:36:38.330	12.18	-15.47	14.245	0.580232	-0.553148	0.376492	-0.1635	0.792	-0.5445	0	241	356	3
2026-02-19	12:36:38.350	15.925	-16.94	14.56	0.584868	-0.56608	0.409432	-0.162	0.789	-0.549	0	241	356	3
2026-02-19	12:36:38.370	19.005	-18.69	14.77	0.609756	-0.50874	0.404064	-0.162	0.792	-0.546	0	241	356	3
2026-02-19	12:36:38.390	21.385	-20.475	12.81	0.6283	-0.489952	0.388936	-0.1605	0.7965	-0.546	0	241	356	3
2026-02-19	12:36:38.410	28.245	-21.875	8.435	0.677588	-0.418704	0.389912	-0.159	0.7965	-0.549	0	244	345	3
2026-02-19	12:36:38.430	33.425	-22.645	1.715	0.712724	-0.389424	0.374296	-0.159	0.7965	-0.549	0	244	345	3
2026-02-19	12:36:38.450	32.83	-23.555	-6.475	0.729072	-0.394304	0.390156	-0.1695	0.7875	-0.5565	0	244	345	3
2026-02-19	12:36:38.470	22.61	-22.96	-14.7	0.768844	-0.401868	0.396256	-0.1785	0.7755	-0.552	0	244	345	3
2026-02-19	12:36:38.490	9.73	-21.245	-22.61	0.835456	-0.429196	0.442128	-0.18	0.774	-0.5595	0	244	345	3
2026-02-19	12:36:38.510	1.26	-18.55	-28.245	0.856684	-0.48922	0.45018	-0.195	0.771	-0.5535	0	244	345	3
2026-02-19	12:36:38.530	1.575	-16.8	-30.45	0.838628	-0.495564	0.439688	-0.186	0.7695	-0.5565	0	244	345	3
2026-02-19	12:36:38.550	2.45	-17.675	-29.82	0.851804	-0.509472	0.451644	-0.204	0.7635	-0.5505	0	244	345	3
2026-02-19	12:36:38.570	4.55	-19.845	-28.665	0.920368	-0.467748	0.446276	-0.207	0.7695	-0.549	0	244	345	3
2026-02-19	12:36:38.590	-4.165	-18.025	-26.705	0.940132	-0.427	0.464576	-0.207	0.7695	-0.549	0	244	345	3
2026-02-19	12:36:38.610	-8.435	-14.875	-26.32	0.892308	-0.371612	0.448228	-0.207	0.7695	-0.549	0	249	345	3
2026-02-19	12:36:38.630	-9.625	-13.825	-28.175	0.862052	-0.297436	0.399428	-0.225	0.759	-0.546	0	249	345	3
2026-02-19	12:36:38.650	-11.55	-6.335	-30.59	1.487912	-0.366488	0.969412	-0.2295	0.7575	-0.5355	0	249	345	3
2026-02-19	12:36:38.670	-15.61	18.48	-0.7	1.026264	-1.16266	1.048712	-0.2355	0.75	-0.5415	0	249	345	3
2026-02-19	12:36:38.690	-24.745	-1.575	-0.665	0.6954	-0.381128	0.309636	-0.2385	0.744	-0.5415	0	249	345	3
2026-02-19	12:36:38.710	-15.435	-8.68	-4.235	0.6893	0.027084	0.021228	-0.237	0.7605	-0.5475	0	249	345	3
2026-02-19	12:36:38.730	3.955	-1.365	-28.105	0.92232	-0.075884	0.20496	-0.2415	0.7545	-0.54	0	249	345	3
2026-02-19	12:36:38.750	-4.865	-3.675	-57.925	1.051396	-0.2318	0.300364	-0.2385	0.759	-0.5445	0	249	345	3
2026-02-19	12:36:38.770	-7	-24.535	-74.69	0.903776	-0.23424	0.223504	-0.2565	0.7455	-0.5415	0	249	345	3
2026-02-19	12:36:38.790	29.12	-41.02	-64.47	0.898408	-0.26108	0.217404	-0.2655	0.7425	-0.54	0	249	345	3
2026-02-19	12:36:38.810	70.105	-46.55	-44.66	0.93574	-0.21228	0.230824	-0.2805	0.7275	-0.5385	0	256	360	3
2026-02-19	12:36:38.830	54.67	-47.04	-36.19	0.962092	-0.060512	0.110776	-0.2865	0.711	-0.543	0	256	360	3
2026-02-19	12:36:38.850	17.5	-36.645	-37.205	1.028948	-0.232044	0.020252	-0.294	0.7005	-0.54	0	256	360	3
2026-02-19	12:36:38.870	-2.765	-33.6	-38.85	0.915488	-0.180804	0.029036	-0.3045	0.693	-0.5325	0	256	360	3
2026-02-19	12:36:38.890	-36.82	-35.56	-46.62	0.806664	-0.366244	0.501908	-0.312	0.6885	-0.5325	0	256	360	3
2026-02-19	12:36:38.910	-66.78	-22.26	-40.215	0.789096	-0.7747	1.01016	-0.3195	0.6885	-0.522	0	256	360	3
2026-02-19	12:36:38.930	-53.235	-3.5	-21.665	0.785192	-0.88328	0.968924	-0.3255	0.6885	-0.51	0	256	360	3
2026-02-19	12:36:38.950	-9.205	7.49	4.445	0.812032	-0.693692	0.352092	-0.33	0.6855	-0.51	0	256	360	3
2026-02-19	12:36:38.970	28.35	-2.835	20.685	0.835212	-0.59048	0.1037	-0.336	0.6855	-0.5115	0	256	360	3
2026-02-19	12:36:38.990	41.615	-15.26	27.44	0.847656	-0.581696	0.247172	-0.333	0.687	-0.513	0	256	360	3
2026-02-19	12:36:39.010	33.565	-17.57	32.235	0.772016	-0.35746	0.420656	-0.336	0.6885	-0.513	0	266	367	3
2026-02-19	12:36:39.030	6.79	-14.07	36.26	0.734928	-0.132736	0.302804	-0.333	0.6885	-0.519	0	266	367	3
2026-02-19	12:36:39.050	0.315	-7	34.265	0.925248	-0.32818	0.328424	-0.339	0.684	-0.51	0	266	367	3
2026-02-19	12:36:39.070	4.025	-5.775	34.02	0.908656	-0.192272	0.263276	-0.333	0.687	-0.516	0	266	367	3
2026-02-19	12:36:39.090	-8.82	-2.87	30.52	0.925248	0.202032	0.169824	-0.3345	0.699	-0.5175	0	266	367	3
2026-02-19	12:36:39.110	-36.925	3.185	17.08	1.035536	-0.0793	0.045872	-0.3345	0.6975	-0.5205	0	266	367	3
2026-02-19	12:36:39.130	-13.475	-4.13	8.96	1.100196	0.061488	0.133712	-0.318	0.708	-0.513	0	266	367	3
2026-02-19	12:36:39.150	9.31	-15.47	-2.73	1.073112	0.142984	0.349652	-0.318	0.708	-0.513	0	266	367	3
2026-02-19	12:36:39.170	-9.905	-7	-11.34	1.023336	0.08784	0.386008	-0.3285	0.7095	-0.5145	0	266	367	3
2026-02-19	12:36:39.190	-27.195	2.66	-15.645	0.995276	-0.040504	0.376736	-0.333	0.705	-0.507	0	266	367	3
2026-02-19	12:36:39.210	-36.82	9.205	-18.655	0.991616	-0.13298	0.35624	-0.3405	0.714	-0.5025	0	278	363	3
2026-02-19	12:36:39.230	-30.87	14.665	-20.72	0.952576	-0.09882	0.226432	-0.348	0.7065	-0.5025	0	278	363	3
2026-02-19	12:36:39.250	-23.52	17.115	-24.15	0.948428	-0.259372	0.290848	-0.3435	0.708	-0.5055	0	278	363	3
2026-02-19	12:36:39.270	-20.37	20.195	-24.71	0.936472	-0.24644	0.289872	-0.3435	0.708	-0.513	0	278	363	3
2026-02-19	12:36:39.290	-24.395	25.2	-22.785	0.912072	-0.115656	0.238144	-0.339	0.7035	-0.507	0	278	363	3
2026-02-19	12:36:39.310	-14	27.195	-23.695	0.926224	-0.278404	0.278404	-0.3435	0.705	-0.5115	0	278	363	3
2026-02-19	12:36:39.330	24.29	20.37	-21.91	0.935984	-0.204472	0.320616	-0.342	0.702	-0.5085	0	278	363	3
2026-02-19	12:36:39.350	23.73	21.595	-22.68	0.913292	-0.178608	0.351604	-0.3435	0.699	-0.516	0	278	363	3
2026-02-19	12:36:39.370	16.94	24.85	-26.18	0.898164	-0.213744	0.39406	-0.342	0.693	-0.528	0	278	363	3
2026-02-19	12:36:39.390	13.545	25.69	-27.545	0.87474	-0.2257	0.428708	-0.3405	0.6825	-0.5325	0	278	363	3
2026-02-19	12:36:39.410	-3.92	28.21	-29.155	0.892552	-0.214232	0.420168	-0.336	0.672	-0.5385	0	286	352	3
2026-02-19	12:36:39.430	-20.265	33.005	-30.835	0.873764	-0.144448	0.294264	-0.33	0.6675	-0.546	0	286	352	3
2026-02-19	12:36:39.450	-22.89	33.81	-31.605	0.907436	-0.272304	0.302072	-0.3375	0.669	-0.5535	0	286	352	3
2026-02-19	12:36:39.470	-11.06	29.54	-29.47	0.908168	-0.292068	0.249856	-0.342	0.6675	-0.555	0	286	352	3
2026-02-19	12:36:39.490	-11.725	21.875	-25.83	0.90402	-0.246196	0.179584	-0.336	0.6645	-0.5565	0	286	352	3
2026-02-19	12:36:39.510	-13.335	18.585	-22.05	0.950868	-0.26718	0.140544	-0.333	0.666	-0.561	0	286	352	3
2026-02-19	12:36:39.530	-6.755	12.6	-17.99	0.936472	-0.379176	0.141032	-0.333	0.666	-0.561	0	286	352	3
2026-02-19	12:36:39.550	1.785	4.48	-11.76	0.904264	-0.40138	0.185684	-0.3465	0.6495	-0.5565	0	286	352	3
2026-02-19	12:36:39.570	0.385	-1.645	-6.16	0.874252	-0.423096	0.249856	-0.3435	0.6585	-0.564	0	286	352	3
2026-02-19	12:36:39.590	-0.805	-4.725	1.575	0.827404	-0.391132	0.312564	-0.3435	0.654	-0.5655	0	286	352	3
2026-02-19	12:36:39.610	2.975	-5.005	7.7	0.824232	-0.36234	0.450668	-0.342	0.645	-0.573	0	287	340	2
2026-02-19	12:36:39.630	1.12	-5.46	9.17	0.800564	-0.277428	0.519232	-0.351	0.6495	-0.5625	0	287	340	2
2026-02-19	12:36:39.650	-5.985	-4.865	7.105	0.792024	-0.2379	0.58194	-0.339	0.6555	-0.5625	0	287	340	2
2026-02-19	12:36:39.670	-10.5	-1.75	6.23	0.766892	-0.181536	0.613416	-0.354	0.651	-0.564	0	287	340	2
2026-02-19	12:36:39.690	-7.98	1.785	4.025	0.769332	-0.111996	0.688324	-0.345	0.651	-0.558	0	287	340	2
2026-02-19	12:36:39.710	-14.63	7.175	-2.87	0.73688	-0.0732	0.74054	-0.3555	0.6555	-0.561	0	287	340	2
2026-02-19	12:36:39.730	-30.485	15.68	-8.715	0.743224	-0.10858	0.726876	-0.3525	0.6465	-0.561	0	287	340	2
2026-02-19	12:36:39.750	-38.99	23.45	-11.935	0.718336	-0.03782	0.624152	-0.351	0.6555	-0.5595	0	287	340	2
2026-02-19	12:36:39.770	-38.22	27.09	-17.01	0.751276	-0.166896	0.70882	-0.3495	0.654	-0.564	0	287	340	2
2026-02-19	12:36:39.790	-39.27	26.425	-24.29	0.711748	-0.177388	0.639768	-0.3495	0.6555	-0.5655	0	287	340	2
2026-02-19	12:36:39.810	-33.775	24.395	-25.83	0.684176	-0.354776	0.555832	-0.3495	0.663	-0.5655	0	284	352	2
2026-02-19	12:36:39.830	-13.615	21.14	-19.425	0.71614	-0.377956	0.442128	-0.354	0.6615	-0.5745	0	284	352	2
2026-02-19	12:36:39.850	2.52	15.33	-15.715	0.714188	-0.410408	0.43188	-0.357	0.666	-0.573	0	284	352	2
2026-02-19	12:36:39.870	3.36	0.56	-21.98	0.852048	-0.385764	0.384056	-0.363	0.657	-0.585	0	284	352	2
2026-02-19	12:36:39.890	-1.715	-17.045	-32.55	0.955504	-0.375516	0.213012	-0.366	0.651	-0.582	0	284	352	2
2026-02-19	12:36:39.910	6.37	-28.7	-35.56	1.114836	-0.326716	0.093208	-0.375	0.642	-0.5805	0	284	352	2
2026-02-19	12:36:39.930	16.1	-33.18	-26.845	1.144848	-0.220332	-0.041724	-0.387	0.636	-0.5745	0	284	352	2
2026-02-19	12:36:39.950	5.95	-22.89	-11.935	1.39568	-0.277916	0.036844	-0.396	0.63	-0.57	0	284	352	2
2026-02-19	12:36:39.970	-20.125	1.75	15.61	1.514996	-0.424804	0.320616	-0.4005	0.624	-0.5715	0	284	352	2
2026-02-19	12:36:39.990	-27.58	21.385	51.975	1.43594	-0.50264	0.278892	-0.402	0.624	-0.567	0	284	352	2
2026-02-19	12:36:40.010	-7.91	25.2	90.72	1.38714	-0.379176	0.315248	-0.402	0.63	-0.5655	0	280	373	3
2026-02-19	12:36:40.030	6.58	31.045	105.84	1.360544	-0.283772	0.453352	-0.3975	0.6435	-0.567	0	280	373	3
2026-02-19	12:36:40.050	17.605	43.82	115.395	1.259772	-0.137372	0.468236	-0.381	0.6585	-0.573	0	280	373	3
2026-02-19	12:36:40.070	3.325	55.895	111.3	1.110444	-0.104432	0.465308	-0.369	0.66	-0.579	0	280	373	3
2026-02-19	12:36:40.090	-11.41	58.905	104.545	1.005768	-0.219844	0.407968	-0.348	0.687	-0.5925	0	280	373	3
2026-02-19	12:36:40.110	-9.52	58.1	104.125	0.886696	-0.231068	0.383568	-0.3285	0.7005	-0.6015	0	280	373	3
2026-02-19	12:36:40.130	-9.625	53.48	101.885	0.77348	-0.26962	0.34038	-0.3075	0.7155	-0.6	0	280	373	3
2026-02-19	12:36:40.150	-10.57	48.02	95.795	0.655628	-0.267668	0.318176	-0.2985	0.7185	-0.6075	0	280	373	3
2026-02-19	12:36:40.170	-9.975	41.09	88.34	0.549244	-0.318664	0.26108	-0.2865	0.738	-0.6135	0	280	373	3
2026-02-19	12:36:40.190	-4.97	30.835	81.025	0.431392	-0.36234	0.205936	-0.2625	0.7515	-0.615	0	280	373	3
2026-02-19	12:36:40.210	-0.035	19.88	72.59	0.355264	-0.343796	0.163724	-0.2535	0.7575	-0.621	0	280	376	3
2026-02-19	12:36:40.230	2.345	8.855	62.265	0.317688	-0.388448	0.171044	-0.2415	0.762	-0.618	0	280	376	3
2026-02-19	12:36:40.250	9.975	-5.285	45.395	0.304756	-0.406992	0.165432	-0.2415	0.762	-0.618	0	280	376	3
2026-02-19	12:36:40.270	18.9	-16.275	34.44	0.303292	-0.387228	0.201544	-0.234	0.7725	-0.615	0	280	376	3
2026-02-19	12:36:40.290	23.765	-29.61	22.12	0.327692	-0.3782	0.23302	-0.2265	0.7845	-0.6135	0	280	376	3
2026-02-19	12:36:40.310	18.795	-38.85	9.03	0.438224	-0.471896	0.21106	-0.2325	0.7725	-0.603	0	280	376	3
2026-02-19	12:36:40.330	14.875	-42.035	-2.625	0.564372	-0.445544	0.332572	-0.2265	0.771	-0.594	0	280	376	3
2026-02-19	12:36:40.350	15.505	-41.79	-11.725	0.630008	-0.526552	0.464576	-0.2265	0.7785	-0.594	0	280	376	3
2026-02-19	12:36:40.370	28	-37.59	-14.56	0.687348	-0.627812	0.4819	-0.24	0.7695	-0.5865	0	280	376	3
2026-02-19	12:36:40.390	27.58	-31.71	-12.775	0.81984	-0.599752	0.530212	-0.2505	0.765	-0.5835	0	280	376	3
2026-02-19	12:36:40.410	14	-26.215	-13.3	0.903776	-0.68442	0.58926	-0.2505	0.7695	-0.5835	0	285	366	3
2026-02-19	12:36:40.430	4.025	-22.19	-12.845	0.86498	-0.599508	0.583648	-0.2565	0.762	-0.5745	0	285	366	3
2026-02-19	12:36:40.450	-0.945	-21.805	-10.15	0.842776	-0.550464	0.549488	-0.258	0.7605	-0.573	0	285	366	3
2026-02-19	12:36:40.470	2.695	-23.975	-10.08	0.83082	-0.475068	0.557784	-0.2565	0.7635	-0.5685	0	285	366	3
2026-02-19	12:36:40.490	7.35	-26.11	-12.18	0.870348	-0.425292	0.549244	-0.252	0.7635	-0.5625	0	285	366	3
2026-02-19	12:36:40.510	5.39	-24.36	-13.265	0.863516	-0.392352	0.54412	-0.2535	0.7575	-0.555	0	285	366	3
2026-02-19	12:36:40.530	-2.45	-22.855	-15.26	0.841312	-0.375272	0.526064	-0.2595	0.7545	-0.552	0	285	366	3
2026-02-19	12:36:40.550	-1.89	-22.295	-17.15	0.836432	-0.371124	0.525332	-0.264	0.7575	-0.546	0	285	366	3
2026-02-19	12:36:40.570	3.15	-21.175	-19.39	0.836188	-0.355508	0.50874	-0.267	0.756	-0.5415	0	285	366	3
2026-02-19	12:36:40.590	1.96	-18.725	-22.295	0.826672	-0.33672	0.46482	-0.27	0.75	-0.543	0	285	366	3
2026-02-19	12:36:40.610	-3.08	-17.115	-31.36	0.81984	-0.326472	0.397232	-0.273	0.7515	-0.543	0	291	373	3
2026-02-19	12:36:40.630	-4.55	-18.76	-39.97	0.796416	-0.282308	0.349652	-0.273	0.7515	-0.543	0	291	373	3
2026-02-19	12:36:40.650	-6.685	-22.925	-51.66	0.76494	-0.182756	0.227896	-0.2805	0.744	-0.5325	0	291	373	3
2026-02-19	12:36:40.670	28.525	-4.025	-57.19	1.630652	-1.020652	0.326472	-0.294	0.7395	-0.5235	0	291	373	3
2026-02-19	12:36:40.690	7.07	-8.015	-38.955	0.925492	0.096624	0.217892	-0.2865	0.738	-0.5295	0	291	373	3
2026-02-19	12:36:40.710	36.715	-29.19	-54.18	0.786412	-0.285724	0.173728	-0.306	0.72	-0.525	0	291	373	3
2026-02-19	12:36:40.730	47.285	-33.635	-55.44	0.816912	-0.316956	0.381372	-0.3135	0.7125	-0.5175	0	291	373	3
2026-02-19	12:36:40.750	33.775	-35.455	-51.765	0.793976	-0.333792	0.426512	-0.309	0.6975	-0.525	0	291	373	3
2026-02-19	12:36:40.770	38.115	-31.675	-39.27	0.870104	-0.256444	0.39772	-0.324	0.687	-0.5205	0	291	373	3
2026-02-19	12:36:40.790	20.545	-20.65	-33.985	0.910608	-0.407236	0.336476	-0.333	0.681	-0.516	0	291	373	3
2026-02-19	12:36:40.810	7.665	-16.765	-21.7	0.841068	-0.381616	0.10736	-0.336	0.675	-0.5145	0	296	381	3
2026-02-19	12:36:40.830	10.08	-16.695	-10.325	0.899384	-0.443836	0.153476	-0.3345	0.663	-0.5085	0	296	381	3
2026-02-19	12:36:40.850	3.85	-18.445	-2.38	0.881572	-0.445788	0.14274	-0.3315	0.657	-0.504	0	296	381	3
2026-02-19	12:36:40.870	-0.455	-21.945	4.585	0.881328	-0.319396	0.126148	-0.345	0.6615	-0.5085	0	296	381	3
2026-02-19	12:36:40.890	-4.83	-23.555	4.76	0.903288	-0.202276	0.124196	-0.3435	0.663	-0.5085	0	296	381	3
2026-02-19	12:36:40.910	-5.25	-29.68	2.695	0.998204	-0.141764	0.172264	-0.342	0.66	-0.504	0	296	381	3
2026-02-19	12:36:40.930	1.19	-36.54	-0.665	0.992836	-0.084668	0.233264	-0.348	0.66	-0.5025	0	296	381	3
2026-02-19	12:36:40.950	4.83	-42.42	-2.975	0.8906	-0.00366	0.404308	-0.3495	0.663	-0.4905	0	296	381	3
2026-02-19	12:36:40.970	0.455	-38.01	-6.51	0.85766	-0.063684	0.993324	-0.36	0.666	-0.4845	0	296	381	3
2026-02-19	12:36:40.990	-21.665	-16.45	-7.91	0.857904	-0.282064	1.069452	-0.3585	0.6615	-0.4815	0	296	381	3
2026-02-19	12:36:41.010	-25.62	3.745	-6.545	0.875716	-0.40626	0.584624	-0.3585	0.66	-0.477	0	299	375	3
2026-02-19	12:36:41.030	-9.765	8.82	-7.21	0.840092	-0.500444	0.213256	-0.363	0.666	-0.474	0	299	375	3
2026-02-19	12:36:41.050	7.42	5.32	-2.205	0.8357	-0.493124	0.121024	-0.363	0.663	-0.4725	0	299	375	3
2026-02-19	12:36:41.070	6.51	5.075	2.905	0.834724	-0.380152	0.076128	-0.363	0.6555	-0.4755	0	299	375	3
2026-02-19	12:36:41.090	5.355	2.87	2.205	0.908168	-0.348432	0.074664	-0.366	0.6585	-0.4755	0	299	375	3
2026-02-19	12:36:41.110	10.325	-3.78	0.49	0.914756	-0.2806	0.134688	-0.3615	0.663	-0.4725	0	299	375	3
2026-02-19	12:36:41.130	9.38	-8.89	1.225	0.903532	-0.134688	0.230092	-0.36	0.6615	-0.4725	0	299	375	3
2026-02-19	12:36:41.150	4.41	-8.61	4.48	0.941596	-0.093452	0.257908	-0.363	0.6585	-0.474	0	299	375	3
2026-02-19	12:36:41.170	-3.115	-6.755	7	0.925248	-0.065636	0.303048	-0.363	0.6585	-0.4725	0	299	375	3
2026-02-19	12:36:41.190	-12.915	-2.135	8.015	0.942816	-0.147864	0.393084	-0.363	0.66	-0.4755	0	299	375	3
2026-02-19	12:36:41.210	-23.625	4.795	7.385	0.924272	-0.113704	0.338184	-0.366	0.6675	-0.4725	0	302	365	3
2026-02-19	12:36:41.230	-20.37	6.37	4.83	0.943548	-0.165432	0.3172	-0.357	0.6615	-0.4785	0	302	365	3
2026-02-19	12:36:41.250	-17.64	6.195	-2.625	0.924272	-0.274744	0.372588	-0.366	0.6675	-0.4755	0	302	365	3
2026-02-19	12:36:41.270	-15.505	6.37	-6.335	0.879132	-0.313052	0.430904	-0.348	0.666	-0.474	0	302	365	3
2026-02-19	12:36:41.290	-12.18	10.22	-4.235	0.86498	-0.321104	0.448228	-0.363	0.678	-0.4785	0	302	365	3
2026-02-19	12:36:41.310	-9.24	16.38	-3.325	0.85766	-0.275232	0.434076	-0.357	0.6735	-0.4785	0	302	365	3
2026-02-19	12:36:41.330	-6.16	20.755	-7.385	0.850584	-0.317688	0.485072	-0.36	0.672	-0.4725	0	302	365	3
2026-02-19	12:36:41.350	-13.37	26.425	-11.83	0.7991	-0.31598	0.487756	-0.36	0.672	-0.4725	0	302	365	3
2026-02-19	12:36:41.370	-22.26	33.04	-13.02	0.806176	-0.313296	0.469212	-0.3525	0.672	-0.4755	0	302	365	3
2026-02-19	12:36:41.390	-26.845	35.77	-14.42	0.828868	-0.33306	0.416508	-0.348	0.6735	-0.48	0	302	365	3
2026-02-19	12:36:41.410	-22.4	33.075	-14.735	0.8479	-0.261568	0.348188	-0.351	0.675	-0.48	0	300	359	2
2026-02-19	12:36:41.430	-24.01	30.345	-16.73	0.885232	-0.205448	0.279868	-0.339	0.681	-0.483	0	300	359	2
2026-02-19	12:36:41.450	-29.26	27.825	-17.92	0.918172	-0.224968	0.22204	-0.3405	0.6735	-0.486	0	300	359	2
2026-02-19	12:36:41.470	-14.875	23.87	-12.845	0.957212	-0.23546	0.122976	-0.3315	0.672	-0.4875	0	300	359	2
2026-02-19	12:36:41.490	-1.47	17.01	-8.435	0.974292	-0.260592	0.124196	-0.324	0.6795	-0.4965	0	300	359	2
2026-02-19	12:36:41.510	-2.415	8.68	-6.37	0.943792	-0.269132	0.157868	-0.333	0.684	-0.4965	0	300	359	2
2026-02-19	12:36:41.530	-2.66	1.155	-3.08	0.917928	-0.294264	0.154208	-0.3345	0.6765	-0.4905	0	300	359	2
2026-02-19	12:36:41.550	-0.175	-3.57	-2.59	0.89792	-0.350872	0.2745	-0.3345	0.681	-0.489	0	300	359	2
2026-02-19	12:36:41.570	-2.485	-8.295	-1.715	0.83814	-0.363072	0.330132	-0.336	0.6795	-0.4905	0	300	359	2
2026-02-19	12:36:41.590	-7.105	-8.015	2.59	0.820328	-0.34038	0.312808	-0.3315	0.678	-0.4935	0	300	359	2
2026-02-19	12:36:41.610	-0.175	-7.07	6.23	0.825452	-0.388692	0.369904	-0.3255	0.681	-0.492	0	293	352	2
2026-02-19	12:36:41.630	10.22	-12.005	7.7	0.802516	-0.365512	0.429684	-0.33	0.6795	-0.486	0	293	352	2
2026-02-19	12:36:41.650	6.195	-13.16	5.95	0.750788	-0.372832	0.49288	-0.336	0.678	-0.489	0	293	352	2
2026-02-19	12:36:41.670	-2.73	-8.12	3.29	0.70272	-0.41968	0.52948	-0.336	0.6735	-0.4905	0	293	352	2
2026-02-19	12:36:41.690	-1.33	-6.195	2.205	0.699304	-0.452864	0.601704	-0.3315	0.675	-0.4905	0	293	352	2
2026-02-19	12:36:41.710	6.055	-8.785	-1.435	0.680028	-0.434564	0.648308	-0.3285	0.678	-0.492	0	293	352	2
2026-02-19	12:36:41.730	11.2	-10.955	-4.865	0.715408	-0.376248	0.66246	-0.3285	0.678	-0.492	0	293	352	2
2026-02-19	12:36:41.750	12.25	-13.475	-7.91	0.789828	-0.292068	0.63806	-0.3375	0.687	-0.4815	0	293	352	2
2026-02-19	12:36:41.770	16.94	-17.36	-9.73	0.909144	-0.12322	0.520696	-0.345	0.669	-0.4725	0	293	352	2
2026-02-19	12:36:41.790	28.665	-19.495	-12.6	1.075552	0.052704	0.38186	-0.342	0.681	-0.4815	0	293	352	2
2026-02-19	12:36:41.810	25.41	-9.73	-18.9	1.225124	0.159088	0.271572	-0.3465	0.675	-0.4845	0	284	357	3
2026-02-19	12:36:41.830	6.02	4.025	-25.9	1.508408	0.07808	0.129076	-0.348	0.669	-0.477	0	284	357	3
2026-02-19	12:36:41.850	-27.72	15.61	-20.44	1.556964	-0.336964	0.277428	-0.3525	0.6615	-0.4725	0	284	357	3
2026-02-19	12:36:41.870	-49.525	21.805	3.01	1.330044	-0.540216	0.284504	-0.342	0.66	-0.4725	0	284	357	3
2026-02-19	12:36:41.890	-29.33	21.14	37.835	1.06872	-0.544364	0.254736	-0.351	0.6735	-0.477	0	284	357	3
2026-02-19	12:36:41.910	0.98	18.41	65.17	0.948428	-0.414312	0.278404	-0.342	0.6765	-0.477	0	284	357	3
2026-02-19	12:36:41.930	9.31	20.825	75.005	0.912072	-0.335256	0.302072	-0.33	0.6885	-0.477	0	284	357	3
2026-02-19	12:36:41.950	4.69	27.16	76.475	0.867908	-0.297436	0.294508	-0.3225	0.7005	-0.4755	0	284	357	3
2026-02-19	12:36:41.970	-3.71	31.78	73.605	0.811788	-0.298168	0.297192	-0.3135	0.711	-0.4785	0	284	357	3
2026-02-19	12:36:41.990	-10.815	32.27	68.355	0.776652	-0.313296	0.299876	-0.3105	0.7185	-0.483	0	284	357	3
2026-02-19	12:36:42.010	-12.425	30.345	63	0.760792	-0.362096	0.312076	-0.3105	0.7185	-0.483	0	277	363	3
2026-02-19	12:36:42.030	-12.145	30.52	60.06	0.754448	-0.376492	0.30988	-0.2955	0.7365	-0.4845	0	277	363	3
2026-02-19	12:36:42.050	-15.295	30.205	54.985	0.720532	-0.438468	0.299632	-0.2775	0.7365	-0.489	0	277	363	3
2026-02-19	12:36:42.070	-18.13	25.795	48.125	0.63684	-0.476532	0.289872	-0.27	0.753	-0.5025	0	277	363	3
2026-02-19	12:36:42.090	-16.1	17.115	41.895	0.567056	-0.47214	0.247416	-0.2655	0.762	-0.4995	0	277	363	3
2026-02-19	12:36:42.110	-5.495	9.17	40.81	0.534116	-0.566812	0.22326	-0.258	0.7725	-0.4965	0	277	363	3
2026-02-19	12:36:42.130	14.105	1.995	41.09	0.493368	-0.490196	0.245708	-0.243	0.7785	-0.492	0	277	363	3
2026-02-19	12:36:42.150	28.14	-3.465	38.29	0.498492	-0.44042	0.276208	-0.2295	0.777	-0.495	0	277	363	3
2026-02-19	12:36:42.170	30.38	-7.735	30.415	0.545584	-0.388448	0.269864	-0.231	0.7815	-0.501	0	277	363	3
2026-02-19	12:36:42.190	25.165	-9.03	20.685	0.59048	-0.409676	0.28914	-0.2295	0.789	-0.498	0	277	363	3
2026-02-19	12:36:42.210	24.36	-8.19	11.55	0.615368	-0.409432	0.303048	-0.225	0.78	-0.4995	0	273	356	3
2026-02-19	12:36:42.230	21.35	-8.61	3.08	0.632692	-0.424072	0.311832	-0.225	0.7785	-0.5085	0	273	356	3
2026-02-19	12:36:42.250	23.625	-9.94	-4.62	0.680028	-0.448228	0.308416	-0.219	0.7845	-0.5055	0	273	356	3
2026-02-19	12:36:42.270	24.78	-13.405	-14.665	0.74664	-0.466528	0.283528	-0.2145	0.786	-0.501	0	273	356	3
2026-02-19	12:36:42.290	19.915	-15.435	-19.74	0.742004	-0.424804	0.333792	-0.222	0.777	-0.513	0	273	356	3
2026-02-19	12:36:42.310	17.78	-18.69	-25.235	0.799588	-0.488732	0.353068	-0.228	0.774	-0.5055	0	273	356	3
2026-02-19	12:36:42.330	23.835	-19.775	-29.225	0.849364	-0.470676	0.382836	-0.225	0.771	-0.4995	0	273	356	3
2026-02-19	12:36:42.350	22.505	-20.195	-32.69	0.865224	-0.484096	0.377468	-0.231	0.768	-0.504	0	273	356	3
2026-02-19	12:36:42.370	20.02	-21	-37.45	0.810324	-0.410896	0.404308	-0.2355	0.765	-0.501	0	273	356	3
2026-02-19	12:36:42.390	17.22	-18.27	-45.745	0.829356	-0.361364	0.44164	-0.2355	0.7545	-0.5085	0	273	356	3
2026-02-19	12:36:42.410	-1.12	-14.035	-55.09	0.90402	-0.327204	0.437492	-0.249	0.75	-0.507	0	270	347	3
2026-02-19	12:36:42.430	-22.085	-10.745	-61.355	0.926224	-0.340868	0.45872	-0.255	0.7425	-0.5055	0	270	347	3
2026-02-19	12:36:42.450	-47.285	-6.16	-63.175	0.998448	-0.284016	0.460428	-0.255	0.7425	-0.5055	0	270	347	3
2026-02-19	12:36:42.470	-60.06	-2.59	-62.09	1.870748	0.59292	-0.600972	-0.2595	0.7395	-0.498	0	270	347	3
2026-02-19	12:36:42.490	-44.695	33.915	-22.19	1.165344	-1.681892	1.142164	-0.267	0.738	-0.492	0	270	347	3
2026-02-19	12:36:42.510	-43.12	5.6	-16.8	0.866688	-0.22814	0.606584	-0.2655	0.738	-0.4935	0	270	347	3
2026-02-19	12:36:42.530	-8.155	-14.14	-5.04	0.71736	-0.156892	0.498004	-0.2625	0.7425	-0.492	0	270	347	3
2026-02-19	12:36:42.550	29.575	-10.395	-9.66	0.798856	-0.115412	0.315248	-0.264	0.7485	-0.4905	0	270	347	3
2026-02-19	12:36:42.570	26.215	-14	-20.3	0.839116	-0.096624	0.3721	-0.2685	0.741	-0.486	0	270	347	3
2026-02-19	12:36:42.590	7.805	-12.32	-36.33	0.860832	-0.122488	0.427488	-0.2715	0.7365	-0.486	0	270	347	3
2026-02-19	12:36:42.610	-5.005	-6.965	-49.665	0.890356	-0.266448	0.39528	-0.276	0.7275	-0.4905	0	270	349	3
2026-02-19	12:36:42.630	5.775	-6.965	-45.22	0.80398	-0.261324	0.347944	-0.2745	0.7215	-0.4875	0	270	349	3
2026-02-19	12:36:42.650	20.895	-7.315	-36.995	0.869616	-0.25742	0.270108	-0.276	0.717	-0.4875	0	270	349	3
2026-02-19	12:36:42.670	32.725	-8.085	-29.085	0.884012	-0.213988	0.243756	-0.285	0.708	-0.4905	0	270	349	3
2026-02-19	12:36:42.690	30.065	-8.05	-26.775	0.901092	-0.205204	0.196664	-0.288	0.7035	-0.495	0	270	349	3
2026-02-19	12:36:42.710	27.58	-7.49	-24.99	0.952332	-0.262788	0.237656	-0.2865	0.6975	-0.498	0	270	349	3
2026-02-19	12:36:42.730	29.61	-12.075	-22.295	0.939156	-0.148596	0.122	-0.2895	0.693	-0.5025	0	270	349	3
2026-02-19	12:36:42.750	35.56	-18.76	-22.015	0.989176	-0.10248	0.094428	-0.2895	0.6915	-0.501	0	270	349	3
2026-02-19	12:36:42.770	40.46	-24.08	-23.695	1.02846	-0.133712	0.162504	-0.2895	0.684	-0.504	0	270	349	3
2026-02-19	12:36:42.790	42.91	-32.76	-21.98	0.985516	-0.112972	0.167872	-0.297	0.675	-0.504	0	270	349	3
2026-02-19	12:36:42.810	26.285	-35.35	-16.66	0.95038	-0.144692	0.158844	-0.3045	0.669	-0.501	0	274	346	3
2026-02-19	12:36:42.830	12.845	-31.815	-10.36	0.95282	-0.148352	0.060756	-0.3045	0.669	-0.501	0	274	346	3
2026-02-19	12:36:42.850	13.3	-34.51	-6.755	0.98698	-0.169092	0.049288	-0.3135	0.6525	-0.495	0	274	346	3
2026-02-19	12:36:42.870	10.325	-40.215	-5.355	0.961604	-0.135664	0.076372	-0.315	0.6495	-0.489	0	274	346	3
2026-02-19	12:36:42.890	-6.16	-45.745	-8.89	0.86986	0.099064	0.314028	-0.3195	0.6495	-0.483	0	274	346	3
2026-02-19	12:36:42.910	-28.7	-47.915	-18.935	0.889136	-0.092232	0.913292	-0.333	0.648	-0.4725	0	274	346	3
2026-02-19	12:36:42.930	-14	-36.785	-14.245	0.932324	-0.315492	1.166808	-0.348	0.6405	-0.4725	0	274	346	3
2026-02-19	12:36:42.950	-19.11	-9.415	-6.615	0.903776	-0.471652	0.946476	-0.351	0.645	-0.4575	0	274	346	3
2026-02-19	12:36:42.970	0.315	8.155	6.825	0.888404	-0.681736	0.429196	-0.339	0.6405	-0.456	0	274	346	3
2026-02-19	12:36:42.990	12.18	6.44	29.995	0.824476	-0.71858	0.2257	-0.351	0.645	-0.4575	0	274	346	3
2026-02-19	12:36:43.010	19.81	8.19	45.885	0.815692	-0.483852	0.264496	-0.3405	0.651	-0.459	0	279	341	3
2026-02-19	12:36:43.030	32.83	5.565	45.115	0.885476	-0.275964	0.367464	-0.3315	0.6555	-0.465	0	279	341	3
2026-02-19	12:36:43.050	42.42	-2.52	46.06	0.922808	-0.160796	0.471652	-0.3315	0.654	-0.4695	0	279	341	3
2026-02-19	12:36:43.070	29.225	-7.245	46.795	0.946476	-0.101016	0.437004	-0.33	0.6555	-0.4725	0	279	341	3
2026-02-19	12:36:43.090	11.69	0.875	38.22	0.93452	0.391376	0.270352	-0.324	0.6585	-0.4725	0	279	341	3
2026-02-19	12:36:43.110	-11.025	3.535	21	1.085068	-0.122244	0.258884	-0.318	0.663	-0.471	0	279	341	3
2026-02-19	12:36:43.130	-19.74	2.94	8.505	1.05164	0.14152	0.255224	-0.321	0.6645	-0.48	0	279	341	3
2026-02-19	12:36:43.150	-22.715	1.295	-0.245	1.029924	-0.03416	0.20984	-0.3195	0.666	-0.48	0	279	341	3
2026-02-19	12:36:43.170	-28.7	-2.17	-4.935	0.923784	-0.08174	0.222772	-0.312	0.669	-0.48	0	279	341	3
2026-02-19	12:36:43.190	-28.77	-5.285	-5.775	0.92598	-0.30988	0.31476	-0.315	0.675	-0.48	0	279	341	3
2026-02-19	12:36:43.210	-20.3	-8.365	-4.69	0.882304	-0.39772	0.4453	-0.3135	0.675	-0.48	0	285	347	3
2026-02-19	12:36:43.230	-10.675	-6.16	2.625	0.813984	-0.425292	0.406992	-0.315	0.6735	-0.4725	0	285	347	3
2026-02-19	12:36:43.250	5.32	5.67	6.755	0.858392	-0.317688	0.392352	-0.3195	0.678	-0.4695	0	285	347	3
2026-02-19	12:36:43.270	-0.35	9.66	3.92	0.846924	-0.34648	0.338184	-0.3165	0.675	-0.471	0	285	347	3
2026-02-19	12:36:43.290	-7.455	10.395	4.41	0.848876	-0.273768	0.361364	-0.315	0.675	-0.4755	0	285	347	3
2026-02-19	12:36:43.310	-8.155	14.315	6.86	0.87718	-0.236436	0.355264	-0.312	0.6795	-0.48	0	285	347	3
2026-02-19	12:36:43.330	2.1	17.71	5.495	0.894748	-0.136396	0.385764	-0.309	0.681	-0.4815	0	285	347	3
2026-02-19	12:36:43.350	-10.535	22.54	-4.62	0.564616	-0.244732	0.42456	-0.3075	0.681	-0.483	0	285	347	3
2026-02-19	12:36:43.370	-37.345	34.3	-6.09	0.964532	-0.06466	0.298412	-0.306	0.6795	-0.486	0	285	347	3
2026-02-19	12:36:43.390	-17.08	24.08	-8.96	1.02236	-0.05856	0.299144	-0.303	0.687	-0.4875	0	285	347	3
2026-02-19	12:36:43.410	-1.645	16.065	-15.96	1.03212	0.055632	0.279868	-0.2985	0.6825	-0.495	0	290	352	3
2026-02-19	12:36:43.430	0.945	12.39	-26.74	1.006744	0.091988	0.329888	-0.2865	0.6885	-0.4875	0	290	352	3
2026-02-19	12:36:43.450	-1.575	13.545	-38.955	1.003572	-0.019032	0.378444	-0.2925	0.6795	-0.501	0	290	352	3
2026-02-19	12:36:43.470	4.025	10.675	-45.22	0.928908	-0.115412	0.425048	-0.2955	0.6885	-0.5025	0	290	352	3
2026-02-19	12:36:43.490	2.45	10.78	-45.255	0.8235	-0.1891	0.461648	-0.285	0.6855	-0.4995	0	290	352	3
2026-02-19	12:36:43.510	-2.31	18.27	-41.475	0.825696	-0.363316	0.456768	-0.2925	0.6795	-0.4995	0	290	352	3
2026-02-19	12:36:43.530	-8.505	20.965	-34.125	0.77226	-0.40504	0.284992	-0.294	0.669	-0.498	0	290	352	3
2026-02-19	12:36:43.550	-8.785	17.29	-25.305	0.766892	-0.619028	0.395768	-0.294	0.669	-0.498	0	290	352	3
2026-02-19	12:36:43.570	-13.965	15.645	-15.96	0.731024	-0.609024	0.40504	-0.2895	0.666	-0.4995	0	290	352	3
2026-02-19	12:36:43.590	-21	17.395	-6.58	0.701256	-0.52094	0.330132	-0.2895	0.666	-0.501	0	290	352	3
2026-02-19	12:36:43.610	-27.335	20.195	-2.555	0.72102	-0.561444	0.448472	-0.288	0.666	-0.504	0	291	358	3
2026-02-19	12:36:43.630	-32.235	17.885	1.085	0.692472	-0.581452	0.505568	-0.285	0.666	-0.51	0	291	358	3
2026-02-19	12:36:43.650	-29.855	12.565	7.35	0.672464	-0.554856	0.53314	-0.285	0.669	-0.5115	0	291	358	3
2026-02-19	12:36:43.670	-24.675	8.89	11.585	0.705892	-0.479704	0.518988	-0.282	0.6735	-0.5085	0	291	358	3
2026-02-19	12:36:43.690	-25.865	3.955	9.73	0.717848	-0.420656	0.429684	-0.282	0.6735	-0.5085	0	291	358	3
2026-02-19	12:36:43.710	-30.31	-6.79	2.66	0.79666	-0.422852	0.398208	-0.279	0.6795	-0.513	0	291	358	3
2026-02-19	12:36:43.730	-28.175	-24.815	0.035	0.87474	-0.293776	0.263032	-0.2805	0.6825	-0.5175	0	291	358	3
2026-02-19	12:36:43.750	-13.79	-32.76	5.145	1.06262	-0.155428	0.15006	-0.2745	0.6825	-0.513	0	291	358	3
2026-02-19	12:36:43.770	3.325	-28.735	10.85	1.228296	-0.081984	0.0488	-0.2715	0.684	-0.5055	0	291	358	3
2026-02-19	12:36:43.790	7.14	-5.005	27.02	1.48596	-0.314028	0.29158	-0.2745	0.687	-0.5025	0	291	358	3
2026-02-19	12:36:43.810	-15.435	20.825	51.135	1.44326	-0.269864	0.377224	-0.273	0.69	-0.5025	0	290	365	3
2026-02-19	12:36:43.830	-26.6	31.92	67.41	1.35176	-0.282308	0.272304	-0.2685	0.6945	-0.507	0	290	365	3
2026-02-19	12:36:43.850	-9.8	33.215	84.315	1.29076	-0.219112	0.285724	-0.261	0.7065	-0.51	0	290	365	3
2026-02-19	12:36:43.870	9.73	30.59	96.215	1.243912	-0.214964	0.308416	-0.2505	0.717	-0.5115	0	290	365	3
2026-02-19	12:36:43.890	18.165	32.655	101.605	1.150216	-0.155184	0.37698	-0.24	0.723	-0.516	0	290	365	3
2026-02-19	12:36:43.910	1.54	37.975	97.02	1.008452	-0.194468	0.361364	-0.2355	0.7275	-0.5175	0	290	365	3
2026-02-19	12:36:43.930	-15.61	39.48	88.795	0.850828	-0.25986	0.320128	-0.2355	0.7275	-0.5175	0	290	365	3
2026-02-19	12:36:43.950	-15.155	35.945	81.515	0.724192	-0.299632	0.307684	-0.189	0.747	-0.5325	0	290	365	3
2026-02-19	12:36:43.970	-8.75	29.75	75.145	0.62098	-0.327692	0.22936	-0.1725	0.7515	-0.5295	0	290	365	3
2026-02-19	12:36:43.990	-0.735	21.98	69.265	0.537044	-0.3721	0.198616	-0.159	0.759	-0.531	0	290	365	3
2026-02-19	12:36:44.010	8.015	9.835	61.005	0.473604	-0.386008	0.241072	-0.159	0.759	-0.531	0	290	360	3
2026-02-19	12:36:44.030	12.005	3.29	55.965	0.466284	-0.418948	0.26474	-0.159	0.759	-0.531	0	290	360	3
2026-02-19	12:36:44.050	19.985	-3.255	49	0.447984	-0.324764	0.18544	-0.1335	0.7695	-0.543	0	290	360	3
2026-02-19	12:36:44.070	31.535	-7.56	41.335	0.453108	-0.475068	0.311588	-0.135	0.7725	-0.5325	0	290	360	3
2026-02-19	12:36:44.090	32.375	-10.15	29.19	0.45872	-0.410652	0.324764	-0.129	0.7755	-0.54	0	290	360	3
2026-02-19	12:36:44.110	22.68	-14.175	16.45	0.502884	-0.393816	0.3538	-0.1245	0.7695	-0.5385	0	290	360	3
2026-02-19	12:36:44.130	19.635	-16.66	7.735	0.533872	-0.436272	0.349408	-0.12	0.765	-0.5415	0	290	360	3
2026-02-19	12:36:44.150	27.37	-18.235	2.905	0.610244	-0.483852	0.331596	-0.1245	0.762	-0.546	0	290	360	3
2026-02-19	12:36:44.170	38.78	-18.27	-2.205	0.72712	-0.445788	0.388936	-0.132	0.756	-0.546	0	290	360	3
2026-02-19	12:36:44.190	26.53	-21.35	-9.66	0.823744	-0.449204	0.426024	-0.1365	0.7545	-0.5415	0	290	360	3
2026-02-19	12:36:44.210	8.26	-24.255	-18.27	0.865712	-0.475068	0.440176	-0.1335	0.7515	-0.537	0	292	350	3
2026-02-19	12:36:44.230	-8.68	-23.03	-27.16	0.868884	-0.524112	0.483608	-0.132	0.75	-0.537	0	292	350	3
2026-02-19	12:36:44.250	-19.495	-19.53	-32.06	0.845704	-0.56364	0.4941	-0.1335	0.753	-0.537	0	292	350	3
2026-02-19	12:36:44.270	-19.845	-13.895	-28.84	0.837164	-0.577792	0.481412	-0.1395	0.7545	-0.534	0	292	350	3
2026-02-19	12:36:44.290	-10.57	-12.005	-24.115	0.840336	-0.565348	0.463356	-0.1425	0.7515	-0.5295	0	292	350	3
2026-02-19	12:36:44.310	-1.015	-12.005	-17.92	0.828868	-0.559492	0.447008	-0.15	0.7515	-0.5265	0	292	350	3
2026-02-19	12:36:44.330	2.485	-14.14	-13.615	0.818376	-0.499224	0.424804	-0.1515	0.7485	-0.5235	0	292	350	3
2026-02-19	12:36:44.350	12.46	-15.365	-12.18	0.799832	-0.453596	0.433588	-0.1485	0.744	-0.5145	0	292	350	3
2026-02-19	12:36:44.370	17.465	-16.765	-14.49	0.798124	-0.396256	0.396012	-0.156	0.744	-0.513	0	292	350	3
2026-02-19	12:36:44.390	12.95	-18.585	-20.265	0.823988	-0.289628	0.358436	-0.1575	0.744	-0.5175	0	292	350	3
2026-02-19	12:36:44.410	11.865	-22.015	-31.675	0.815204	-0.183488	0.305488	-0.159	0.7395	-0.513	0	293	355	3
2026-02-19	12:36:44.430	30.45	-22.68	-47.6	1.907348	-0.332816	0.7991	-0.1665	0.7305	-0.51	0	293	355	3
2026-02-19	12:36:44.450	55.79	23.975	-12.635	1.192428	-1.352736	1.170468	-0.174	0.7305	-0.5175	0	293	355	3
2026-02-19	12:36:44.470	4.97	-35.735	-11.515	0.677344	-0.327936	0.116388	-0.1785	0.7335	-0.525	0	293	355	3
2026-02-19	12:36:44.490	46.27	-40.11	-17.605	0.671244	-0.28792	0.215696	-0.1755	0.7185	-0.5205	0	293	355	3
2026-02-19	12:36:44.510	64.575	-33.285	-24.08	0.7381	-0.407724	0.394548	-0.183	0.72	-0.516	0	293	355	3
2026-02-19	12:36:44.530	65.765	-24.36	-24.045	0.7991	-0.428464	0.579012	-0.1845	0.6975	-0.525	0	293	355	3
2026-02-19	12:36:44.550	21.42	-11.165	-29.085	0.834236	-0.58926	0.613416	-0.1875	0.6885	-0.5175	0	293	355	3
2026-02-19	12:36:44.570	-25.83	-4.27	-30.87	0.727364	-0.423096	0.46848	-0.1935	0.6855	-0.5235	0	293	355	3
2026-02-19	12:36:44.590	-23.275	0.56	-28.665	0.749568	-0.416996	0.294264	-0.195	0.6915	-0.5175	0	293	355	3
2026-02-19	12:36:44.610	-0.105	2.1	-22.575	0.859124	-0.407968	0.349652	-0.1935	0.687	-0.5175	0	295	375	3
2026-02-19	12:36:44.630	-3.745	-3.115	-16.905	0.830576	-0.367708	0.355996	-0.1965	0.687	-0.5265	0	295	375	3
2026-02-19	12:36:44.650	-6.86	0.735	-8.05	0.823256	-0.41968	0.257908	-0.1965	0.687	-0.5265	0	295	375	3
2026-02-19	12:36:44.670	-4.06	3.36	-0.42	0.847656	-0.28304	0.07198	-0.195	0.6825	-0.522	0	295	375	3
2026-02-19	12:36:44.690	-9.8	1.12	2.8	0.938668	-0.257176	0.048556	-0.1905	0.6825	-0.519	0	295	375	3
2026-02-19	12:36:44.710	-10.5	-9.485	4.025	0.958432	-0.285968	0.038552	-0.1845	0.684	-0.5205	0	295	375	3
2026-02-19	12:36:44.730	-0.14	-24.22	10.885	0.951356	-0.27694	0.084668	-0.1875	0.678	-0.516	0	295	375	3
2026-02-19	12:36:44.750	16.17	-30.45	17.675	0.965508	-0.10004	0.173484	-0.1935	0.681	-0.5115	0	295	375	3
2026-02-19	12:36:44.770	12.46	-31.745	13.23	1.0065	0.038064	0.240828	-0.198	0.687	-0.513	0	295	375	3
2026-02-19	12:36:44.790	-0.385	-29.575	1.82	1.058472	-0.009516	0.321836	-0.1995	0.684	-0.516	0	295	375	3
2026-02-19	12:36:44.810	-0.84	-32.69	-4.655	1.003816	-0.05246	0.41358	-0.1995	0.6825	-0.519	0	296	379	2
2026-02-19	12:36:44.830	18.62	-29.505	-3.885	0.963556	-0.003172	0.465796	-0.2025	0.6825	-0.513	0	296	379	2
2026-02-19	12:36:44.850	20.72	-22.47	-9.17	0.959408	-0.030012	0.520208	-0.207	0.6855	-0.5085	0	296	379	2
2026-02-19	12:36:44.870	9.73	-16.695	-18.025	0.910852	-0.155428	0.616588	-0.2115	0.681	-0.5055	0	296	379	2
2026-02-19	12:36:44.890	4.935	-9.135	-22.925	0.832284	-0.215452	0.700768	-0.216	0.6705	-0.507	0	296	379	2
2026-02-19	12:36:44.910	1.085	0.28	-25.83	0.814472	-0.325496	0.669536	-0.2175	0.669	-0.5085	0	296	379	2
2026-02-19	12:36:44.930	-1.155	8.4	-26.565	0.839848	-0.45994	0.563884	-0.219	0.669	-0.5055	0	296	379	2
2026-02-19	12:36:44.950	5.81	9.52	-23.555	0.82594	-0.427	0.546804	-0.2235	0.6645	-0.5055	0	296	379	2
2026-02-19	12:36:44.970	17.36	12.075	-18.83	0.80032	-0.267668	0.4392	-0.2265	0.6615	-0.51	0	296	379	2
2026-02-19	12:36:44.990	7.14	18.585	-20.055	0.8052	-0.227896	0.355752	-0.225	0.663	-0.5115	0	296	379	2
2026-02-19	12:36:45.010	-15.855	24.815	-27.055	0.83448	-0.314028	0.3721	-0.225	0.6675	-0.5115	0	298	381	3
2026-02-19	12:36:45.030	-17.43	23.17	-28	0.85522	-0.490684	0.344528	-0.234	0.6525	-0.5175	0	298	381	3
2026-02-19	12:36:45.050	-7.245	19.215	-18.2	0.80764	-0.44042	0.354288	-0.228	0.648	-0.5175	0	298	381	3
2026-02-19	12:36:45.070	-3.815	21.21	-12.285	0.783484	-0.374784	0.274256	-0.2235	0.66	-0.519	0	298	381	3
2026-02-19	12:36:45.090	-15.785	20.93	-11.515	0.842532	-0.431392	0.32452	-0.225	0.6495	-0.519	0	298	381	3
2026-02-19	12:36:45.110	-28.21	16.52	-10.64	0.826428	-0.466528	0.302072	-0.219	0.6525	-0.5235	0	298	381	3
2026-02-19	12:36:45.130	-16.8	15.54	-1.4	0.807396	-0.3843	0.215452	-0.2145	0.654	-0.525	0	298	381	3
2026-02-19	12:36:45.150	-8.05	14.175	3.85	0.903288	-0.3172	0.260104	-0.213	0.648	-0.519	0	298	381	3
