yyyy-MM-dd	HH:mm:ss.fff	gyrX	gyrY	gyrZ	accX	accY	accZ	magX	magY	magZ	Marker	Energy	Angle	Classification
2026-02-11	16:16:38.010	0.84	30.555	18.41	-0.765428	0.359168	0.21228	0.9285	0.561	-0.036	0	373	49	3
2026-02-11	16:16:38.030	-24.185	43.54	25.83	-0.668804	0.376004	0.168848	0.933	0.5625	-0.0285	0	373	49	3
2026-02-11	16:16:38.050	-55.335	57.365	35.945	-0.600972	0.349896	0.094184	0.9375	0.5625	-0.024	0	373	49	3
2026-02-11	16:16:38.070	-85.26	71.085	45.22	-0.588772	0.395524	0.05124	0.9405	0.5595	-0.018	0	373	49	3
2026-02-11	16:16:38.090	-117.775	85.225	57.26	-0.53558	0.483852	0.06734399	0.942	0.5505	-0.0075	0	373	49	3
2026-02-11	16:16:38.110	-142.31	103.635	69.825	-0.499712	0.395768	0.117364	0.9435	0.5475	-0.0045	0	373	49	3
2026-02-11	16:16:38.130	-114.59	127.26	78.365	-0.470676	0.353556	0.1769	0.9345	0.5505	0.012	0	373	49	3
2026-02-11	16:16:38.150	-37.45	162.225	97.44	-0.37454	0.268888	0.066856	0.9345	0.5505	0.012	0	373	49	3
2026-02-11	16:16:38.170	-11.935	184.275	115.045	-0.33916	0.366488	-0.05124	0.936	0.534	0.0345	0	373	49	3
2026-02-11	16:16:38.190	-19.495	206.08	127.295	-0.282308	0.416996	-0.084668	0.9375	0.513	0.0735	0	373	49	3
2026-02-11	16:16:38.210	-56.91	228.9	142.135	-0.201788	0.467748	-0.11224	0.933	0.501	0.102	0	353	49	3
2026-02-11	16:16:38.230	-105.91	250.705	159.145	-0.136884	0.468724	-0.323544	0.927	0.4845	0.1245	0	353	49	3
2026-02-11	16:16:38.250	-106.645	261.66	169.645	-0.117852	0.546804	-0.589504	0.9105	0.4605	0.1515	0	353	49	3
2026-02-11	16:16:38.270	-111.79	262.29	180.04	-0.15616	0.717116	-0.567056	0.8865	0.438	0.1815	0	353	49	3
2026-02-11	16:16:38.290	-163.87	261.45	198.275	-0.05124	0.651236	-0.38308	0.8655	0.414	0.2025	0	353	49	3
2026-02-11	16:16:38.310	-224.7	264.915	229.74	0.07515199	0.648064	-0.303292	0.8565	0.4035	0.21	0	353	49	3
2026-02-11	16:16:38.330	-276.325	267.645	264.25	0.227652	0.71858	-0.35746	0.819	0.369	0.2175	0	353	49	3
2026-02-11	16:16:38.350	-237.895	258.44	289.275	0.431636	0.760304	-0.432856	0.783	0.3345	0.222	0	353	49	3
2026-02-11	16:16:38.370	-146.44	256.97	304.185	0.626104	1.037732	-0.461892	0.732	0.306	0.216	0	353	49	3
2026-02-11	16:16:38.390	-171.29	253.365	321.755	0.671488	1.324188	-0.589016	0.6525	0.264	0.21	0	353	49	3
2026-02-11	16:16:38.410	-231.28	230.895	337.05	0.794708	1.343708	-0.400404	0.594	0.2445	0.1995	0	344	18	3
2026-02-11	16:16:38.430	-215.74	192.185	334.67	0.989664	1.455948	-0.300364	0.5355	0.234	0.1785	0	344	18	3
2026-02-11	16:16:38.450	-170.87	155.715	324.1	0.915244	1.328824	-0.104676	0.483	0.2295	0.15	0	344	18	3
2026-02-11	16:16:38.470	-128.205	119.98	314.755	0.91866	1.340292	0.056852	0.429	0.237	0.1275	0	344	18	3
2026-02-11	16:16:38.490	-88.48	90.265	297.71	1.004304	1.247328	0.052704	0.3825	0.249	0.114	0	344	18	3
2026-02-11	16:16:38.510	-14.595	63.7	279.055	0.96014	1.005524	-0.036112	0.3645	0.252	0.108	0	344	18	3
2026-02-11	16:16:38.530	92.26	38.57	251.23	0.966972	1.128744	-0.060268	0.33	0.27	0.096	0	344	18	3
2026-02-11	16:16:38.550	157.325	17.78	225.155	0.995276	1.078724	-0.117608	0.2805	0.297	0.105	0	344	18	3
2026-02-11	16:16:38.570	136.395	-8.225	202.37	1.033584	1.3237	-0.122976	0.258	0.3105	0.1245	0	344	18	3
2026-02-11	16:16:38.590	58.31	-24.08	186.585	1.01626	1.29686	-0.020496	0.234	0.3405	0.1425	0	344	18	3
2026-02-11	16:16:38.610	-24.395	-37.73	170.695	0.972096	1.121912	0.078812	0.21	0.3765	0.162	0	361	33	3
2026-02-11	16:16:38.630	-79.38	-45.99	155.89	0.973072	0.91988	0.157136	0.2025	0.396	0.1605	0	361	33	3
2026-02-11	16:16:38.650	-95.27	-48.545	138.985	0.956236	0.776652	0.175436	0.1905	0.4125	0.162	0	361	33	3
2026-02-11	16:16:38.670	-93.695	-47.11	125.72	0.966972	0.702964	0.157868	0.1785	0.4215	0.1605	0	361	33	3
2026-02-11	16:16:38.690	-92.61	-45.045	112.84	0.99552	0.666852	0.14396	0.171	0.429	0.1545	0	361	33	3
2026-02-11	16:16:38.710	-99.085	-43.82	100.905	0.971852	0.615856	0.121268	0.1725	0.441	0.1575	0	361	33	3
2026-02-11	16:16:38.730	-91.98	-43.155	88.55	0.94672	0.555832	0.111508	0.174	0.4515	0.1605	0	361	33	3
2026-02-11	16:16:38.750	-76.3	-41.335	74.025	0.948916	0.587308	0.176168	0.1695	0.4575	0.159	0	361	33	3
2026-02-11	16:16:38.770	-65.065	-34.125	57.19	0.983076	0.609024	0.3111	0.162	0.4635	0.1575	0	361	33	3
2026-02-11	16:16:38.790	-65.135	-10.885	31.255	0.977952	0.62464	0.283772	0.162	0.4635	0.1575	0	361	33	3
2026-02-11	16:16:38.810	-61.425	-3.5	15.785	0.960872	0.47458	0.225944	0.1575	0.4665	0.156	0	395	44	3
2026-02-11	16:16:38.830	-38.815	1.89	1.855	0.980148	0.472628	0.238876	0.153	0.471	0.1515	0	395	44	3
2026-02-11	16:16:38.850	-24.885	7.665	-11.165	0.991128	0.432856	0.292068	0.156	0.468	0.1515	0	395	44	3
2026-02-11	16:16:38.870	-11.655	16.87	-23.835	1.017236	0.416264	0.310856	0.1575	0.4665	0.1545	0	395	44	3
2026-02-11	16:16:38.890	3.92	23.94	-35.14	1.00162	0.317444	0.236436	0.156	0.4665	0.1515	0	395	44	3
2026-02-11	16:16:38.910	18.375	26.95	-44.275	0.98698	0.366244	0.20252	0.1605	0.4635	0.15	0	395	44	3
2026-02-11	16:16:38.930	15.19	26.635	-51.52	1.01992	0.359656	0.26596	0.165	0.4665	0.153	0	395	44	3
2026-02-11	16:16:38.950	6.335	29.295	-56.63	1.030168	0.36478	0.254736	0.153	0.45	0.1425	0	395	44	3
2026-02-11	16:16:38.970	-3.64	31.85	-60.095	1.00772	0.33916	0.211548	0.1605	0.441	0.1545	0	395	44	3
2026-02-11	16:16:38.990	-20.16	30.205	-61.705	1.0065	0.299632	0.17324	0.1515	0.438	0.141	0	395	44	3
2026-02-11	16:16:37.010	308.84	26.04	-39.865	-1.011136	0.42822	-0.064904	0.954	0.54	0.0615	0	451	260	3
2026-02-11	16:16:37.030	237.685	12.74	-36.05	-0.99674	0.370636	-0.179828	0.9495	0.537	0.0765	0	451	260	3
2026-02-11	16:16:37.050	169.575	1.995	-30.485	-0.935008	0.351116	-0.040748	0.9555	0.543	0.0795	0	451	260	3
2026-02-11	16:16:37.070	120.015	-2.275	-25.62	-0.939156	0.304268	-0.137372	0.963	0.552	0.075	0	451	260	3
2026-02-11	16:16:37.090	104.86	-6.44	-27.545	-0.933544	0.34526	-0.241316	0.9615	0.552	0.081	0	451	260	3
2026-02-11	16:16:37.110	85.96	-9.765	-29.015	-0.986004	0.339404	-0.18178	0.9615	0.5535	0.0885	0	451	260	3
2026-02-11	16:16:37.130	62.895	-17.36	-27.685	-0.966728	0.290116	-0.109556	0.963	0.558	0.0915	0	451	260	3
2026-02-11	16:16:37.150	73.85	-19.845	-31.64	-0.96136	0.337696	-0.027572	0.9645	0.5655	0.0915	0	451	260	3
2026-02-11	16:16:37.170	108.255	-17.745	-40.74	-0.981612	0.33184	0.040016	0.966	0.5715	0.0915	0	451	260	3
2026-02-11	16:16:37.190	139.965	-12.18	-50.575	-0.936716	0.396012	-0.04392	0.963	0.5715	0.0855	0	451	260	3
2026-02-11	16:16:37.210	142.485	-14	-53.865	-0.979172	0.36234	-0.170068	0.9615	0.5775	0.0825	0	436	247	3
2026-02-11	16:16:37.230	129.325	-24.15	-50.295	-0.97478	0.258152	-0.190564	0.9645	0.588	0.09	0	436	247	3
2026-02-11	16:16:37.250	136.115	-29.575	-44.59	-0.93208	0.280356	-0.131028	0.966	0.597	0.0885	0	436	247	3
2026-02-11	16:16:37.270	154.42	-30.03	-43.19	-0.939888	0.46116	-0.115656	0.9645	0.5985	0.0855	0	436	247	3
2026-02-11	16:16:37.290	153.72	-38.71	-41.23	-0.879864	0.430904	-0.136396	0.963	0.6075	0.084	0	436	247	3
2026-02-11	16:16:37.310	135.485	-40.53	-35.84	-0.943792	0.396012	-0.1342	0.966	0.6105	0.081	0	436	247	3
2026-02-11	16:16:37.330	129.99	-40.81	-34.72	-0.917684	0.399428	-0.056608	0.9645	0.6165	0.072	0	436	247	3
2026-02-11	16:16:37.350	138.985	-37.975	-32.515	-0.876692	0.420168	0.031232	0.963	0.621	0.063	0	436	247	3
2026-02-11	16:16:37.370	136.64	-33.46	-27.265	-0.930616	0.376248	-0.013664	0.9705	0.624	0.0585	0	436	247	3
2026-02-11	16:16:37.390	125.93	-34.825	-20.825	-0.987468	0.248148	-0.113948	0.969	0.633	0.0495	0	436	247	3
2026-02-11	16:16:37.410	151.62	-39.515	-15.155	-0.944768	0.220332	0.014884	0.966	0.633	0.0405	0	425	191	3
2026-02-11	16:16:37.430	202.79	-38.815	-8.225	-0.941108	0.296948	0.138348	0.966	0.63	0.042	0	425	191	3
2026-02-11	16:16:37.450	230.755	-31.92	-2.975	-0.970388	0.28304	0.112728	0.963	0.627	0.039	0	425	191	3
2026-02-11	16:16:37.470	224.56	-26.95	3.045	-1.044564	0.325984	-0.05856	0.9645	0.621	0.0315	0	425	191	3
2026-02-11	16:16:37.490	160.72	-26.67	9.555	-1.0492	0.461648	-0.13908	0.966	0.6225	0.03	0	425	191	3
2026-02-11	16:16:37.510	47.705	-25.795	11.865	-0.978928	0.291092	-0.153964	0.966	0.6225	0.03	0	425	191	3
2026-02-11	16:16:37.530	43.995	-26.67	7.35	-0.996008	0.149572	-0.209352	0.9645	0.615	0.027	0	425	191	3
2026-02-11	16:16:37.550	73.78	-35.28	4.83	-0.960872	0.222772	-0.236436	0.9585	0.606	0.024	0	425	191	3
2026-02-11	16:16:37.570	69.3	-45.115	5.985	-0.91988	0.270108	-0.269132	0.957	0.6015	0.021	0	425	191	3
2026-02-11	16:16:37.590	36.295	-54.285	4.41	-0.899384	0.310856	-0.33062	0.9585	0.6	0.012	0	425	191	3
2026-02-11	16:16:37.610	0.14	-61.005	0.42	-0.876204	0.374784	-0.193248	0.9525	0.6015	0.0015	0	411	123	3
2026-02-11	16:16:37.630	-13.16	-57.54	-7.14	-0.792268	0.194224	0.0061	0.954	0.6015	-0.009	0	411	123	3
2026-02-11	16:16:37.650	18.235	-51.975	-8.295	-0.766404	0.197884	0.054168	0.954	0.6015	-0.015	0	411	123	3
2026-02-11	16:16:37.670	39.375	-46.2	-6.93	-0.779092	0.260836	0.003904	0.9495	0.603	-0.021	0	411	123	3
2026-02-11	16:16:37.690	36.26	-39.13	-5.46	-0.790804	0.288652	0.027328	0.951	0.6015	-0.027	0	411	123	3
2026-02-11	16:16:37.710	29.715	-30.1	-0.455	-0.776408	0.263276	0.045384	0.954	0.5955	-0.033	0	411	123	3
2026-02-11	16:16:37.730	44.415	-21.385	2.485	-0.793488	0.268156	0.1281	0.948	0.591	-0.033	0	411	123	3
2026-02-11	16:16:37.750	49.035	-13.23	7.175	-0.819596	0.283284	0.14518	0.939	0.591	-0.0375	0	411	123	3
2026-02-11	16:16:37.770	45.71	-4.27	9.66	-0.8906	0.302316	0.123464	0.939	0.5985	-0.042	0	411	123	3
2026-02-11	16:16:37.790	39.235	0.455	9.38	-0.965996	0.342088	0.08052	0.9465	0.5955	-0.0435	0	411	123	3
2026-02-11	16:16:37.810	26.425	2.135	10.675	-0.976244	0.294508	0.054412	0.942	0.5865	-0.039	0	394	68	3
2026-02-11	16:16:37.830	22.925	1.89	10.15	-0.984296	0.26474	0.073932	0.933	0.585	-0.0405	0	394	68	3
2026-02-11	16:16:37.850	23.555	1.19	10.01	-0.979904	0.282796	0.115168	0.9315	0.5805	-0.0405	0	394	68	3
2026-02-11	16:16:37.870	22.05	1.365	11.725	-0.984296	0.24644	0.082472	0.9315	0.5775	-0.036	0	394	68	3
2026-02-11	16:16:37.890	20.44	-0.49	14.42	-0.995032	0.263764	0.022204	0.933	0.579	-0.036	0	394	68	3
2026-02-11	16:16:37.910	8.82	-3.045	16.1	-1.004548	0.274012	0.020984	0.9435	0.573	-0.0375	0	394	68	3
2026-02-11	16:16:37.930	6.02	-3.15	17.71	-0.917684	0.267668	0.08052	0.9315	0.5775	-0.036	0	394	68	3
2026-02-11	16:16:37.950	26.495	0.735	14.98	-0.861808	0.351848	0.144204	0.9315	0.5745	-0.036	0	394	68	3
2026-02-11	16:16:37.970	26.46	7.91	14.735	-0.834236	0.371368	0.18544	0.9345	0.5685	-0.033	0	394	68	3
2026-02-11	16:16:37.990	16.73	18.305	15.365	-0.811788	0.356484	0.208376	0.9315	0.564	-0.0345	0	394	68	3
2026-02-11	16:16:38.010	0.84	30.555	18.41	-0.765428	0.359168	0.21228	0.9285	0.561	-0.036	0	373	49	3
2026-02-11	16:16:38.030	-24.185	43.54	25.83	-0.668804	0.376004	0.168848	0.933	0.5625	-0.0285	0	373	49	3
2026-02-11	16:16:38.050	-55.335	57.365	35.945	-0.600972	0.349896	0.094184	0.9375	0.5625	-0.024	0	373	49	3
2026-02-11	16:16:38.070	-85.26	71.085	45.22	-0.588772	0.395524	0.05124	0.9405	0.5595	-0.018	0	373	49	3
2026-02-11	16:16:38.090	-117.775	85.225	57.26	-0.53558	0.483852	0.06734399	0.942	0.5505	-0.0075	0	373	49	3
2026-02-11	16:16:38.110	-142.31	103.635	69.825	-0.499712	0.395768	0.117364	0.9435	0.5475	-0.0045	0	373	49	3
2026-02-11	16:16:38.130	-114.59	127.26	78.365	-0.470676	0.353556	0.1769	0.9345	0.5505	0.012	0	373	49	3
2026-02-11	16:16:38.150	-37.45	162.225	97.44	-0.37454	0.268888	0.066856	0.9345	0.5505	0.012	0	373	49	3
2026-02-11	16:16:38.170	-11.935	184.275	115.045	-0.33916	0.366488	-0.05124	0.936	0.534	0.0345	0	373	49	3
2026-02-11	16:16:38.190	-19.495	206.08	127.295	-0.282308	0.416996	-0.084668	0.9375	0.513	0.0735	0	373	49	3
2026-02-11	16:16:38.210	-56.91	228.9	142.135	-0.201788	0.467748	-0.11224	0.933	0.501	0.102	0	353	49	3
2026-02-11	16:16:38.230	-105.91	250.705	159.145	-0.136884	0.468724	-0.323544	0.927	0.4845	0.1245	0	353	49	3
2026-02-11	16:16:38.250	-106.645	261.66	169.645	-0.117852	0.546804	-0.589504	0.9105	0.4605	0.1515	0	353	49	3
2026-02-11	16:16:38.270	-111.79	262.29	180.04	-0.15616	0.717116	-0.567056	0.8865	0.438	0.1815	0	353	49	3
2026-02-11	16:16:38.290	-163.87	261.45	198.275	-0.05124	0.651236	-0.38308	0.8655	0.414	0.2025	0	353	49	3
2026-02-11	16:16:38.310	-224.7	264.915	229.74	0.07515199	0.648064	-0.303292	0.8565	0.4035	0.21	0	353	49	3
2026-02-11	16:16:38.330	-276.325	267.645	264.25	0.227652	0.71858	-0.35746	0.819	0.369	0.2175	0	353	49	3
2026-02-11	16:16:38.350	-237.895	258.44	289.275	0.431636	0.760304	-0.432856	0.783	0.3345	0.222	0	353	49	3
2026-02-11	16:16:38.370	-146.44	256.97	304.185	0.626104	1.037732	-0.461892	0.732	0.306	0.216	0	353	49	3
2026-02-11	16:16:38.390	-171.29	253.365	321.755	0.671488	1.324188	-0.589016	0.6525	0.264	0.21	0	353	49	3
2026-02-11	16:17:10.010	-39.795	68.145	-98.385	1.231224	0.113216	0.259372	0.0855	0.573	-0.141	0	403	237	3
2026-02-11	16:17:10.030	-49	67.83	-95.55	1.250256	0.128344	0.257664	0.096	0.549	-0.162	0	403	237	3
2026-02-11	16:17:10.050	-69.195	67.06	-89.635	1.262456	0.148108	0.2501	0.099	0.5445	-0.168	0	403	237	3
2026-02-11	16:17:10.070	-94.185	67.48	-80.955	1.255624	0.121268	0.243268	0.111	0.537	-0.1815	0	403	237	3
2026-02-11	16:17:10.090	-105.175	71.015	-69.265	1.171444	0.06832	0.208132	0.1185	0.534	-0.1875	0	403	237	3
2026-02-11	16:17:10.110	-94.255	73.605	-63.91	1.097024	0.060024	0.1708	0.1425	0.5415	-0.2055	0	403	237	3
2026-02-11	16:17:10.130	-79.03	75.25	-61.11	1.049444	0.073444	0.1403	0.1515	0.5355	-0.213	0	403	237	3
2026-02-11	16:17:10.150	-69.09	75.845	-58.975	1.022116	0.07076	0.12688	0.171	0.5415	-0.225	0	403	237	3
2026-02-11	16:17:10.170	-61.705	75.95	-58.03	0.997716	0.07076	0.112484	0.1785	0.5505	-0.237	0	403	237	3
2026-02-11	16:17:10.190	-51.52	76.65	-58.94	0.961848	0.07808	0.091256	0.18	0.5355	-0.249	0	403	237	3
2026-02-11	16:17:10.210	-41.93	77.42	-60.935	0.924028	0.072956	0.064904	0.192	0.5385	-0.261	0	379	257	3
2026-02-11	16:17:10.230	-32.2	76.755	-63.28	0.881572	0.073444	0.045384	0.2055	0.534	-0.264	0	379	257	3
2026-02-11	16:17:10.250	-22.155	73.815	-64.505	0.860588	0.061976	0.038308	0.219	0.537	-0.273	0	379	257	3
2026-02-11	16:17:10.270	-9.835	70.35	-64.82	0.86376	0.073688	0.028792	0.225	0.54	-0.276	0	379	257	3
2026-02-11	16:17:10.290	2.345	64.295	-63.665	0.88938	0.093452	0.020496	0.2325	0.5325	-0.285	0	379	257	3
2026-02-11	16:17:10.310	10.64	56.49	-60.62	0.923296	0.087596	0.021716	0.234	0.5235	-0.291	0	379	257	3
2026-02-11	16:17:10.330	20.125	49.525	-56.7	0.92598	0.084668	0.021716	0.267	0.51	-0.315	0	379	257	3
2026-02-11	16:17:10.350	32.41	40.005	-51.38	0.9943	0.083448	0.007808	0.279	0.5115	-0.309	0	379	257	3
2026-02-11	16:17:10.370	46.83	27.825	-44.73	1.022848	0.104432	0.018788	0.2835	0.504	-0.3045	0	379	257	3
2026-02-11	16:17:10.390	54.67	15.015	-36.995	0.992836	0.104188	0.089792	0.2865	0.486	-0.321	0	379	257	3
2026-02-11	16:17:10.410	56.14	2.135	-28.14	1.026996	0.080032	0.151036	0.2985	0.483	-0.309	0	351	239	3
2026-02-11	16:17:10.430	54.88	-8.96	-16.24	1.061888	0.11956	0.177632	0.2865	0.468	-0.306	0	351	239	3
2026-02-11	16:17:10.450	45.29	-23.975	0.56	1.078236	0.115656	0.167872	0.294	0.4635	-0.2925	0	351	239	3
2026-02-11	16:17:10.470	38.955	-42.98	21.735	1.090436	0.124684	0.142008	0.294	0.456	-0.2925	0	351	239	3
2026-02-11	16:17:10.490	32.83	-64.82	45.885	1.076528	0.144448	0.154696	0.285	0.453	-0.2925	0	351	239	3
2026-02-11	16:17:10.510	7.805	-93.695	81.445	0.987712	0.138104	0.30378	0.2775	0.459	-0.294	0	351	239	3
2026-02-11	16:17:10.530	-16.03	-104.72	101.395	0.90524	0.116144	0.319884	0.2775	0.459	-0.294	0	351	239	3
2026-02-11	16:17:10.550	-32.97	-113.54	114.87	0.837408	0.123952	0.265228	0.2355	0.4725	-0.2625	0	351	239	3
2026-02-11	16:17:10.570	-45.43	-124.635	121.135	0.829112	0.15494	0.239852	0.2145	0.492	-0.2505	0	351	239	3
2026-02-11	16:17:10.590	-70.42	-135.66	119.91	0.904752	0.17568	0.35624	0.201	0.4965	-0.24	0	351	239	3
2026-02-11	16:17:10.610	-120.54	-138.39	115.535	0.984296	0.195688	0.474824	0.1755	0.528	-0.225	0	324	214	3
2026-02-11	16:17:10.630	-180.915	-135.03	106.33	1.052616	0.197884	0.486292	0.159	0.546	-0.2175	0	324	214	3
2026-02-11	16:17:10.650	-229.04	-127.645	90.3	1.126548	0.09882	0.408944	0.1485	0.5835	-0.198	0	324	214	3
2026-02-11	16:17:10.670	-237.02	-116.235	71.995	1.211948	0.003904	0.297436	0.1185	0.6075	-0.183	0	324	214	3
2026-02-11	16:17:10.690	-209.86	-102.55	53.69	1.25538	-0.08784	0.205692	0.117	0.621	-0.1725	0	324	214	3
2026-02-11	16:17:10.710	-160.475	-92.785	34.23	1.275632	-0.164944	0.160064	0.114	0.6465	-0.1605	0	324	214	3
2026-02-11	16:17:10.730	-78.75	-75.005	20.37	1.170468	-0.251564	0.179584	0.1125	0.6585	-0.1605	0	324	214	3
2026-02-11	16:17:10.750	-11.83	-64.96	13.615	1.061888	-0.25742	0.216428	0.093	0.6915	-0.132	0	324	214	3
2026-02-11	16:17:10.770	49.63	-58.66	4.9	0.991616	-0.194712	0.247416	0.0975	0.7005	-0.114	0	324	214	3
2026-02-11	16:17:10.790	94.255	-53.48	-1.785	0.931836	-0.1037	0.2989	0.0825	0.6975	-0.1125	0	324	214	3
2026-02-11	16:17:10.810	113.82	-47.705	-7.14	0.877668	-0.005368	0.381616	0.0885	0.6885	-0.102	0	300	213	3
2026-02-11	16:17:10.830	112.735	-41.195	-11.76	0.874984	0.036356	0.4453	0.0795	0.693	-0.087	0	300	213	3
2026-02-11	16:17:10.850	108.815	-31.57	-14.84	0.837408	0.091256	0.440908	0.075	0.678	-0.0945	0	300	213	3
2026-02-11	16:17:10.870	94.36	-24.64	-16.065	0.856928	0.152256	0.418948	0.0765	0.666	-0.084	0	300	213	3
2026-02-11	16:17:10.890	60.48	-19.95	-15.855	0.934764	0.151036	0.416752	0.075	0.6615	-0.0885	0	300	213	3
2026-02-11	16:17:10.910	22.19	-12.88	-14.7	0.9028	0.084424	0.40138	0.072	0.6555	-0.0915	0	300	213	3
2026-02-11	16:17:10.930	-4.69	-6.16	-13.79	0.8784	0.042456	0.370392	0.072	0.6495	-0.0855	0	300	213	3
2026-02-11	16:17:10.950	-26.425	-1.47	-12.88	0.932324	0.04148	0.37942	0.0735	0.645	-0.081	0	300	213	3
2026-02-11	16:17:10.970	-47.985	4.76	-12.915	0.955748	0.015372	0.380396	0.0585	0.651	-0.0795	0	300	213	3
2026-02-11	16:17:10.990	-62.09	12.285	-14.875	1.009428	-0.024888	0.3477	0.075	0.6525	-0.0795	0	300	213	3
2026-02-11	16:16:37.010	308.84	26.04	-39.865	-1.011136	0.42822	-0.064904	0.954	0.54	0.0615	0	451	260	3
2026-02-11	16:16:37.030	237.685	12.74	-36.05	-0.99674	0.370636	-0.179828	0.9495	0.537	0.0765	0	451	260	3
2026-02-11	16:16:37.050	169.575	1.995	-30.485	-0.935008	0.351116	-0.040748	0.9555	0.543	0.0795	0	451	260	3
2026-02-11	16:16:37.070	120.015	-2.275	-25.62	-0.939156	0.304268	-0.137372	0.963	0.552	0.075	0	451	260	3
2026-02-11	16:16:37.090	104.86	-6.44	-27.545	-0.933544	0.34526	-0.241316	0.9615	0.552	0.081	0	451	260	3
2026-02-11	16:16:37.110	85.96	-9.765	-29.015	-0.986004	0.339404	-0.18178	0.9615	0.5535	0.0885	0	451	260	3
2026-02-11	16:16:37.130	62.895	-17.36	-27.685	-0.966728	0.290116	-0.109556	0.963	0.558	0.0915	0	451	260	3
2026-02-11	16:16:37.150	73.85	-19.845	-31.64	-0.96136	0.337696	-0.027572	0.9645	0.5655	0.0915	0	451	260	3
2026-02-11	16:16:37.170	108.255	-17.745	-40.74	-0.981612	0.33184	0.040016	0.966	0.5715	0.0915	0	451	260	3
2026-02-11	16:16:37.190	139.965	-12.18	-50.575	-0.936716	0.396012	-0.04392	0.963	0.5715	0.0855	0	451	260	3
2026-02-11	16:17:09.210	7.35	-1.26	-1.75	1.024312	0.12444	0.113704	0.2775	0.384	-0.2745	0	331	76	2
2026-02-11	16:17:09.230	-4.235	-17.325	22.26	1.009672	0.145912	0.230824	0.2775	0.384	-0.2745	0	331	76	2
2026-02-11	16:17:09.250	-21.28	-24.885	37.065	1.019432	0.144204	0.262788	0.2775	0.384	-0.2745	0	331	76	2
2026-02-11	16:17:09.270	-38.045	-34.02	51.135	1.044076	0.12444	0.247172	0.276	0.3945	-0.276	0	331	76	2
2026-02-11	16:17:09.290	-48.685	-45.465	63.945	1.076772	0.099552	0.233996	0.2595	0.402	-0.2745	0	331	76	2
2026-02-11	16:17:09.310	-52.85	-57.19	75.215	1.063352	0.07905599	0.248148	0.2535	0.4095	-0.2715	0	331	76	2
2026-02-11	16:17:09.330	-56.35	-67.06	83.895	0.993812	0.057828	0.278648	0.249	0.429	-0.2655	0	331	76	2
2026-02-11	16:17:09.350	-60.34	-75.53	88.725	0.948916	0.038308	0.293532	0.2325	0.4335	-0.2715	0	331	76	2
2026-02-11	16:17:09.370	-63.875	-83.09	91.385	0.964044	0.0305	0.321104	0.219	0.447	-0.261	0	331	76	2
2026-02-11	16:17:09.390	-71.085	-86.905	93.45	0.975756	0.013908	0.364536	0.2025	0.4725	-0.2565	0	331	76	2
2026-02-11	16:17:09.410	-76.51	-87.85	93.065	0.991372	0.003416	0.375516	0.1845	0.4875	-0.249	0	392	97	2
2026-02-11	16:17:09.430	-76.405	-88.095	89.495	1.020164	-0.022936	0.349408	0.1755	0.4965	-0.24	0	392	97	2
2026-02-11	16:17:09.450	-56	-86.38	80.465	1.033828	-0.08662	0.301584	0.1665	0.5055	-0.2325	0	392	97	2
2026-02-11	16:17:09.470	-26.18	-82.705	73.815	1.035292	-0.074176	0.278892	0.147	0.5415	-0.2205	0	392	97	2
2026-02-11	16:17:09.490	-2.695	-77.595	68.845	1.028704	-0.075396	0.273036	0.138	0.5565	-0.21	0	392	97	2
2026-02-11	16:17:09.510	13.02	-72.24	64.995	1.016992	-0.068808	0.27694	0.123	0.5625	-0.1935	0	392	97	2
2026-02-11	16:17:09.530	30.625	-66.01	60.795	0.985516	-0.049044	0.266448	0.111	0.5745	-0.1965	0	392	97	2
2026-02-11	16:17:09.550	48.02	-61.67	56.07	0.946232	-0.027084	0.274744	0.1125	0.57	-0.1815	0	392	97	2
2026-02-11	16:17:09.570	65.73	-58.975	52.745	0.922808	-0.032452	0.313784	0.1065	0.5805	-0.177	0	392	97	2
2026-02-11	16:17:09.590	84.035	-55.895	51.24	0.91622	-0.007076	0.343796	0.0885	0.5895	-0.1575	0	392	97	2
2026-02-11	16:17:09.610	96.215	-52.885	51.24	0.91134	0.030256	0.367952	0.093	0.585	-0.153	0	418	134	3
2026-02-11	16:17:09.630	102.34	-50.19	51.415	0.913048	0.079788	0.388936	0.09	0.594	-0.1395	0	418	134	3
2026-02-11	16:17:09.650	95.55	-46.62	52.01	0.89792	0.09882	0.41114	0.0825	0.588	-0.1365	0	418	134	3
2026-02-11	16:17:09.670	82.6	-42.735	52.535	0.852536	0.123464	0.418948	0.075	0.5835	-0.135	0	418	134	3
2026-02-11	16:17:09.690	67.585	-40.11	51.17	0.82838	0.152256	0.431392	0.066	0.5925	-0.117	0	418	134	3
2026-02-11	16:17:09.710	44.1	-38.885	49.035	0.8967	0.181536	0.437492	0.06	0.585	-0.117	0	418	134	3
2026-02-11	16:17:09.730	12.88	-37.415	47.18	0.98454	0.196908	0.467992	0.06	0.5925	-0.108	0	418	134	3
2026-02-11	16:17:09.750	-16.695	-33.425	43.82	1.05286	0.184952	0.508984	0.054	0.597	-0.093	0	418	134	3
2026-02-11	16:17:09.770	-39.13	-24.745	37.31	1.1102	0.178364	0.501176	0.054	0.606	-0.096	0	418	134	3
2026-02-11	16:17:09.790	-56.91	-14.875	27.405	1.2322	0.210328	0.46116	0.057	0.621	-0.0915	0	418	134	3
2026-02-11	16:17:09.810	-72.485	-4.795	14.49	1.343464	0.188124	0.424804	0.0525	0.627	-0.084	0	418	187	3
2026-02-11	16:17:09.830	-77.07	8.015	-1.54	1.35176	0.138348	0.389912	0.051	0.6255	-0.087	0	418	187	3
2026-02-11	16:17:09.850	-74.13	19.88	-19.145	1.326628	0.081984	0.335012	0.0525	0.6315	-0.0915	0	418	187	3
2026-02-11	16:17:09.870	-56.77	35.035	-43.47	1.203896	0.004148	0.307196	0.0555	0.639	-0.096	0	418	187	3
2026-02-11	16:17:09.890	-30.555	46.445	-58.73	1.047492	-0.043188	0.301828	0.0555	0.639	-0.096	0	418	187	3
2026-02-11	16:17:09.910	-3.535	56.21	-71.995	0.922564	-0.014884	0.286456	0.057	0.63	-0.102	0	418	187	3
2026-02-11	16:17:09.930	14.91	62.965	-82.95	0.897432	0.044408	0.26596	0.0675	0.6195	-0.1035	0	418	187	3
2026-02-11	16:17:09.950	18.165	65.975	-91.49	0.966728	0.100284	0.249124	0.063	0.6	-0.1125	0	418	187	3
2026-02-11	16:17:09.970	6.16	65.765	-97.65	1.073356	0.125416	0.26596	0.078	0.5955	-0.1275	0	418	187	3
2026-02-11	16:17:09.990	-16.415	66.675	-99.855	1.170468	0.131028	0.28182	0.0855	0.573	-0.141	0	418	187	3
2026-02-11	16:17:10.010	-39.795	68.145	-98.385	1.231224	0.113216	0.259372	0.0855	0.573	-0.141	0	403	237	3
2026-02-11	16:17:10.030	-49	67.83	-95.55	1.250256	0.128344	0.257664	0.096	0.549	-0.162	0	403	237	3
2026-02-11	16:17:10.050	-69.195	67.06	-89.635	1.262456	0.148108	0.2501	0.099	0.5445	-0.168	0	403	237	3
2026-02-11	16:17:10.070	-94.185	67.48	-80.955	1.255624	0.121268	0.243268	0.111	0.537	-0.1815	0	403	237	3
2026-02-11	16:17:10.090	-105.175	71.015	-69.265	1.171444	0.06832	0.208132	0.1185	0.534	-0.1875	0	403	237	3
2026-02-11	16:17:10.110	-94.255	73.605	-63.91	1.097024	0.060024	0.1708	0.1425	0.5415	-0.2055	0	403	237	3
2026-02-11	16:17:10.130	-79.03	75.25	-61.11	1.049444	0.073444	0.1403	0.1515	0.5355	-0.213	0	403	237	3
2026-02-11	16:17:10.150	-69.09	75.845	-58.975	1.022116	0.07076	0.12688	0.171	0.5415	-0.225	0	403	237	3
2026-02-11	16:17:10.170	-61.705	75.95	-58.03	0.997716	0.07076	0.112484	0.1785	0.5505	-0.237	0	403	237	3
2026-02-11	16:17:10.190	-51.52	76.65	-58.94	0.961848	0.07808	0.091256	0.18	0.5355	-0.249	0	403	237	3
2026-02-11	16:17:10.210	-41.93	77.42	-60.935	0.924028	0.072956	0.064904	0.192	0.5385	-0.261	0	379	257	3
2026-02-11	16:17:10.230	-32.2	76.755	-63.28	0.881572	0.073444	0.045384	0.2055	0.534	-0.264	0	379	257	3
2026-02-11	16:17:10.250	-22.155	73.815	-64.505	0.860588	0.061976	0.038308	0.219	0.537	-0.273	0	379	257	3
2026-02-11	16:17:10.270	-9.835	70.35	-64.82	0.86376	0.073688	0.028792	0.225	0.54	-0.276	0	379	257	3
2026-02-11	16:17:10.290	2.345	64.295	-63.665	0.88938	0.093452	0.020496	0.2325	0.5325	-0.285	0	379	257	3
2026-02-11	16:17:10.310	10.64	56.49	-60.62	0.923296	0.087596	0.021716	0.234	0.5235	-0.291	0	379	257	3
2026-02-11	16:17:10.330	20.125	49.525	-56.7	0.92598	0.084668	0.021716	0.267	0.51	-0.315	0	379	257	3
2026-02-11	16:17:10.350	32.41	40.005	-51.38	0.9943	0.083448	0.007808	0.279	0.5115	-0.309	0	379	257	3
2026-02-11	16:17:10.370	46.83	27.825	-44.73	1.022848	0.104432	0.018788	0.2835	0.504	-0.3045	0	379	257	3
2026-02-11	16:17:10.390	54.67	15.015	-36.995	0.992836	0.104188	0.089792	0.2865	0.486	-0.321	0	379	257	3
2026-02-11	16:17:10.410	56.14	2.135	-28.14	1.026996	0.080032	0.151036	0.2985	0.483	-0.309	0	351	239	3
2026-02-11	16:17:10.430	54.88	-8.96	-16.24	1.061888	0.11956	0.177632	0.2865	0.468	-0.306	0	351	239	3
2026-02-11	16:17:10.450	45.29	-23.975	0.56	1.078236	0.115656	0.167872	0.294	0.4635	-0.2925	0	351	239	3
2026-02-11	16:17:10.470	38.955	-42.98	21.735	1.090436	0.124684	0.142008	0.294	0.456	-0.2925	0	351	239	3
2026-02-11	16:17:10.490	32.83	-64.82	45.885	1.076528	0.144448	0.154696	0.285	0.453	-0.2925	0	351	239	3
2026-02-11	16:17:10.510	7.805	-93.695	81.445	0.987712	0.138104	0.30378	0.2775	0.459	-0.294	0	351	239	3
2026-02-11	16:17:10.530	-16.03	-104.72	101.395	0.90524	0.116144	0.319884	0.2775	0.459	-0.294	0	351	239	3
2026-02-11	16:17:10.550	-32.97	-113.54	114.87	0.837408	0.123952	0.265228	0.2355	0.4725	-0.2625	0	351	239	3
2026-02-11	16:17:10.570	-45.43	-124.635	121.135	0.829112	0.15494	0.239852	0.2145	0.492	-0.2505	0	351	239	3
2026-02-11	16:17:10.590	-70.42	-135.66	119.91	0.904752	0.17568	0.35624	0.201	0.4965	-0.24	0	351	239	3
2026-02-11	16:17:10.610	-120.54	-138.39	115.535	0.984296	0.195688	0.474824	0.1755	0.528	-0.225	0	324	214	3
2026-02-11	16:17:10.630	-180.915	-135.03	106.33	1.052616	0.197884	0.486292	0.159	0.546	-0.2175	0	324	214	3
2026-02-11	16:17:10.650	-229.04	-127.645	90.3	1.126548	0.09882	0.408944	0.1485	0.5835	-0.198	0	324	214	3
2026-02-11	16:17:10.670	-237.02	-116.235	71.995	1.211948	0.003904	0.297436	0.1185	0.6075	-0.183	0	324	214	3
2026-02-11	16:17:10.690	-209.86	-102.55	53.69	1.25538	-0.08784	0.205692	0.117	0.621	-0.1725	0	324	214	3
2026-02-11	16:17:10.710	-160.475	-92.785	34.23	1.275632	-0.164944	0.160064	0.114	0.6465	-0.1605	0	324	214	3
2026-02-11	16:17:10.730	-78.75	-75.005	20.37	1.170468	-0.251564	0.179584	0.1125	0.6585	-0.1605	0	324	214	3
2026-02-11	16:17:10.750	-11.83	-64.96	13.615	1.061888	-0.25742	0.216428	0.093	0.6915	-0.132	0	324	214	3
2026-02-11	16:17:10.770	49.63	-58.66	4.9	0.991616	-0.194712	0.247416	0.0975	0.7005	-0.114	0	324	214	3
2026-02-11	16:17:10.790	94.255	-53.48	-1.785	0.931836	-0.1037	0.2989	0.0825	0.6975	-0.1125	0	324	214	3
2026-02-11	16:17:10.810	113.82	-47.705	-7.14	0.877668	-0.005368	0.381616	0.0885	0.6885	-0.102	0	300	213	3
2026-02-11	16:17:10.830	112.735	-41.195	-11.76	0.874984	0.036356	0.4453	0.0795	0.693	-0.087	0	300	213	3
2026-02-11	16:17:10.850	108.815	-31.57	-14.84	0.837408	0.091256	0.440908	0.075	0.678	-0.0945	0	300	213	3
2026-02-11	16:17:10.870	94.36	-24.64	-16.065	0.856928	0.152256	0.418948	0.0765	0.666	-0.084	0	300	213	3
2026-02-11	16:17:10.890	60.48	-19.95	-15.855	0.934764	0.151036	0.416752	0.075	0.6615	-0.0885	0	300	213	3
2026-02-11	16:17:10.910	22.19	-12.88	-14.7	0.9028	0.084424	0.40138	0.072	0.6555	-0.0915	0	300	213	3
2026-02-11	16:17:10.930	-4.69	-6.16	-13.79	0.8784	0.042456	0.370392	0.072	0.6495	-0.0855	0	300	213	3
2026-02-11	16:17:10.950	-26.425	-1.47	-12.88	0.932324	0.04148	0.37942	0.0735	0.645	-0.081	0	300	213	3
2026-02-11	16:17:10.970	-47.985	4.76	-12.915	0.955748	0.015372	0.380396	0.0585	0.651	-0.0795	0	300	213	3
2026-02-11	16:17:10.990	-62.09	12.285	-14.875	1.009428	-0.024888	0.3477	0.075	0.6525	-0.0795	0	300	213	3
2026-02-11	16:16:37.010	308.84	26.04	-39.865	-1.011136	0.42822	-0.064904	0.954	0.54	0.0615	0	451	260	3
2026-02-11	16:16:37.030	237.685	12.74	-36.05	-0.99674	0.370636	-0.179828	0.9495	0.537	0.0765	0	451	260	3
2026-02-11	16:16:37.050	169.575	1.995	-30.485	-0.935008	0.351116	-0.040748	0.9555	0.543	0.0795	0	451	260	3
2026-02-11	16:16:37.070	120.015	-2.275	-25.62	-0.939156	0.304268	-0.137372	0.963	0.552	0.075	0	451	260	3
2026-02-11	16:16:37.090	104.86	-6.44	-27.545	-0.933544	0.34526	-0.241316	0.9615	0.552	0.081	0	451	260	3
2026-02-11	16:16:37.110	85.96	-9.765	-29.015	-0.986004	0.339404	-0.18178	0.9615	0.5535	0.0885	0	451	260	3
2026-02-11	16:16:37.130	62.895	-17.36	-27.685	-0.966728	0.290116	-0.109556	0.963	0.558	0.0915	0	451	260	3
2026-02-11	16:16:37.150	73.85	-19.845	-31.64	-0.96136	0.337696	-0.027572	0.9645	0.5655	0.0915	0	451	260	3
2026-02-11	16:16:37.170	108.255	-17.745	-40.74	-0.981612	0.33184	0.040016	0.966	0.5715	0.0915	0	451	260	3
2026-02-11	16:16:37.190	139.965	-12.18	-50.575	-0.936716	0.396012	-0.04392	0.963	0.5715	0.0855	0	451	260	3
2026-02-11	16:17:09.210	7.35	-1.26	-1.75	1.024312	0.12444	0.113704	0.2775	0.384	-0.2745	0	331	76	2
2026-02-11	16:17:09.230	-4.235	-17.325	22.26	1.009672	0.145912	0.230824	0.2775	0.384	-0.2745	0	331	76	2
2026-02-11	16:17:09.250	-21.28	-24.885	37.065	1.019432	0.144204	0.262788	0.2775	0.384	-0.2745	0	331	76	2
2026-02-11	16:17:09.270	-38.045	-34.02	51.135	1.044076	0.12444	0.247172	0.276	0.3945	-0.276	0	331	76	2
2026-02-11	16:17:09.290	-48.685	-45.465	63.945	1.076772	0.099552	0.233996	0.2595	0.402	-0.2745	0	331	76	2
2026-02-11	16:17:09.310	-52.85	-57.19	75.215	1.063352	0.07905599	0.248148	0.2535	0.4095	-0.2715	0	331	76	2
2026-02-11	16:17:09.330	-56.35	-67.06	83.895	0.993812	0.057828	0.278648	0.249	0.429	-0.2655	0	331	76	2
2026-02-11	16:17:09.350	-60.34	-75.53	88.725	0.948916	0.038308	0.293532	0.2325	0.4335	-0.2715	0	331	76	2
2026-02-11	16:17:09.370	-63.875	-83.09	91.385	0.964044	0.0305	0.321104	0.219	0.447	-0.261	0	331	76	2
2026-02-11	16:17:09.390	-71.085	-86.905	93.45	0.975756	0.013908	0.364536	0.2025	0.4725	-0.2565	0	331	76	2
2026-02-11	16:17:09.410	-76.51	-87.85	93.065	0.991372	0.003416	0.375516	0.1845	0.4875	-0.249	0	392	97	2
2026-02-11	16:17:09.430	-76.405	-88.095	89.495	1.020164	-0.022936	0.349408	0.1755	0.4965	-0.24	0	392	97	2
2026-02-11	16:17:09.450	-56	-86.38	80.465	1.033828	-0.08662	0.301584	0.1665	0.5055	-0.2325	0	392	97	2
2026-02-11	16:17:09.470	-26.18	-82.705	73.815	1.035292	-0.074176	0.278892	0.147	0.5415	-0.2205	0	392	97	2
2026-02-11	16:17:09.490	-2.695	-77.595	68.845	1.028704	-0.075396	0.273036	0.138	0.5565	-0.21	0	392	97	2
2026-02-11	16:17:09.510	13.02	-72.24	64.995	1.016992	-0.068808	0.27694	0.123	0.5625	-0.1935	0	392	97	2
2026-02-11	16:17:09.530	30.625	-66.01	60.795	0.985516	-0.049044	0.266448	0.111	0.5745	-0.1965	0	392	97	2
2026-02-11	16:17:09.550	48.02	-61.67	56.07	0.946232	-0.027084	0.274744	0.1125	0.57	-0.1815	0	392	97	2
2026-02-11	16:17:09.570	65.73	-58.975	52.745	0.922808	-0.032452	0.313784	0.1065	0.5805	-0.177	0	392	97	2
2026-02-11	16:17:09.590	84.035	-55.895	51.24	0.91622	-0.007076	0.343796	0.0885	0.5895	-0.1575	0	392	97	2
2026-02-11	16:17:09.610	96.215	-52.885	51.24	0.91134	0.030256	0.367952	0.093	0.585	-0.153	0	418	134	3
2026-02-11	16:17:09.630	102.34	-50.19	51.415	0.913048	0.079788	0.388936	0.09	0.594	-0.1395	0	418	134	3
2026-02-11	16:17:09.650	95.55	-46.62	52.01	0.89792	0.09882	0.41114	0.0825	0.588	-0.1365	0	418	134	3
2026-02-11	16:17:09.670	82.6	-42.735	52.535	0.852536	0.123464	0.418948	0.075	0.5835	-0.135	0	418	134	3
2026-02-11	16:17:09.690	67.585	-40.11	51.17	0.82838	0.152256	0.431392	0.066	0.5925	-0.117	0	418	134	3
2026-02-11	16:17:09.710	44.1	-38.885	49.035	0.8967	0.181536	0.437492	0.06	0.585	-0.117	0	418	134	3
2026-02-11	16:17:09.730	12.88	-37.415	47.18	0.98454	0.196908	0.467992	0.06	0.5925	-0.108	0	418	134	3
2026-02-11	16:17:09.750	-16.695	-33.425	43.82	1.05286	0.184952	0.508984	0.054	0.597	-0.093	0	418	134	3
2026-02-11	16:17:09.770	-39.13	-24.745	37.31	1.1102	0.178364	0.501176	0.054	0.606	-0.096	0	418	134	3
2026-02-11	16:17:09.790	-56.91	-14.875	27.405	1.2322	0.210328	0.46116	0.057	0.621	-0.0915	0	418	134	3
2026-02-11	16:17:09.810	-72.485	-4.795	14.49	1.343464	0.188124	0.424804	0.0525	0.627	-0.084	0	418	187	3
2026-02-11	16:17:09.830	-77.07	8.015	-1.54	1.35176	0.138348	0.389912	0.051	0.6255	-0.087	0	418	187	3
2026-02-11	16:17:09.850	-74.13	19.88	-19.145	1.326628	0.081984	0.335012	0.0525	0.6315	-0.0915	0	418	187	3
2026-02-11	16:17:09.870	-56.77	35.035	-43.47	1.203896	0.004148	0.307196	0.0555	0.639	-0.096	0	418	187	3
2026-02-11	16:17:09.890	-30.555	46.445	-58.73	1.047492	-0.043188	0.301828	0.0555	0.639	-0.096	0	418	187	3
2026-02-11	16:17:09.910	-3.535	56.21	-71.995	0.922564	-0.014884	0.286456	0.057	0.63	-0.102	0	418	187	3
2026-02-11	16:17:09.930	14.91	62.965	-82.95	0.897432	0.044408	0.26596	0.0675	0.6195	-0.1035	0	418	187	3
2026-02-11	16:17:09.950	18.165	65.975	-91.49	0.966728	0.100284	0.249124	0.063	0.6	-0.1125	0	418	187	3
2026-02-11	16:17:09.970	6.16	65.765	-97.65	1.073356	0.125416	0.26596	0.078	0.5955	-0.1275	0	418	187	3
2026-02-11	16:17:09.990	-16.415	66.675	-99.855	1.170468	0.131028	0.28182	0.0855	0.573	-0.141	0	418	187	3
2026-02-11	16:17:10.010	-39.795	68.145	-98.385	1.231224	0.113216	0.259372	0.0855	0.573	-0.141	0	403	237	3
2026-02-11	16:17:10.030	-49	67.83	-95.55	1.250256	0.128344	0.257664	0.096	0.549	-0.162	0	403	237	3
2026-02-11	16:17:10.050	-69.195	67.06	-89.635	1.262456	0.148108	0.2501	0.099	0.5445	-0.168	0	403	237	3
2026-02-11	16:17:10.070	-94.185	67.48	-80.955	1.255624	0.121268	0.243268	0.111	0.537	-0.1815	0	403	237	3
2026-02-11	16:17:10.090	-105.175	71.015	-69.265	1.171444	0.06832	0.208132	0.1185	0.534	-0.1875	0	403	237	3
2026-02-11	16:17:10.110	-94.255	73.605	-63.91	1.097024	0.060024	0.1708	0.1425	0.5415	-0.2055	0	403	237	3
2026-02-11	16:17:10.130	-79.03	75.25	-61.11	1.049444	0.073444	0.1403	0.1515	0.5355	-0.213	0	403	237	3
2026-02-11	16:17:10.150	-69.09	75.845	-58.975	1.022116	0.07076	0.12688	0.171	0.5415	-0.225	0	403	237	3
2026-02-11	16:17:10.170	-61.705	75.95	-58.03	0.997716	0.07076	0.112484	0.1785	0.5505	-0.237	0	403	237	3
2026-02-11	16:17:10.190	-51.52	76.65	-58.94	0.961848	0.07808	0.091256	0.18	0.5355	-0.249	0	403	237	3
2026-02-11	16:17:10.210	-41.93	77.42	-60.935	0.924028	0.072956	0.064904	0.192	0.5385	-0.261	0	379	257	3
2026-02-11	16:17:10.230	-32.2	76.755	-63.28	0.881572	0.073444	0.045384	0.2055	0.534	-0.264	0	379	257	3
2026-02-11	16:17:10.250	-22.155	73.815	-64.505	0.860588	0.061976	0.038308	0.219	0.537	-0.273	0	379	257	3
2026-02-11	16:17:10.270	-9.835	70.35	-64.82	0.86376	0.073688	0.028792	0.225	0.54	-0.276	0	379	257	3
2026-02-11	16:17:10.290	2.345	64.295	-63.665	0.88938	0.093452	0.020496	0.2325	0.5325	-0.285	0	379	257	3
2026-02-11	16:17:10.310	10.64	56.49	-60.62	0.923296	0.087596	0.021716	0.234	0.5235	-0.291	0	379	257	3
2026-02-11	16:17:10.330	20.125	49.525	-56.7	0.92598	0.084668	0.021716	0.267	0.51	-0.315	0	379	257	3
2026-02-11	16:17:10.350	32.41	40.005	-51.38	0.9943	0.083448	0.007808	0.279	0.5115	-0.309	0	379	257	3
2026-02-11	16:17:10.370	46.83	27.825	-44.73	1.022848	0.104432	0.018788	0.2835	0.504	-0.3045	0	379	257	3
2026-02-11	16:17:10.390	54.67	15.015	-36.995	0.992836	0.104188	0.089792	0.2865	0.486	-0.321	0	379	257	3
2026-02-11	16:17:10.410	56.14	2.135	-28.14	1.026996	0.080032	0.151036	0.2985	0.483	-0.309	0	351	239	3
2026-02-11	16:17:10.430	54.88	-8.96	-16.24	1.061888	0.11956	0.177632	0.2865	0.468	-0.306	0	351	239	3
2026-02-11	16:17:10.450	45.29	-23.975	0.56	1.078236	0.115656	0.167872	0.294	0.4635	-0.2925	0	351	239	3
2026-02-11	16:17:10.470	38.955	-42.98	21.735	1.090436	0.124684	0.142008	0.294	0.456	-0.2925	0	351	239	3
2026-02-11	16:17:10.490	32.83	-64.82	45.885	1.076528	0.144448	0.154696	0.285	0.453	-0.2925	0	351	239	3
2026-02-11	16:17:10.510	7.805	-93.695	81.445	0.987712	0.138104	0.30378	0.2775	0.459	-0.294	0	351	239	3
2026-02-11	16:17:10.530	-16.03	-104.72	101.395	0.90524	0.116144	0.319884	0.2775	0.459	-0.294	0	351	239	3
2026-02-11	16:17:10.550	-32.97	-113.54	114.87	0.837408	0.123952	0.265228	0.2355	0.4725	-0.2625	0	351	239	3
2026-02-11	16:17:10.570	-45.43	-124.635	121.135	0.829112	0.15494	0.239852	0.2145	0.492	-0.2505	0	351	239	3
2026-02-11	16:17:10.590	-70.42	-135.66	119.91	0.904752	0.17568	0.35624	0.201	0.4965	-0.24	0	351	239	3
2026-02-11	16:17:10.610	-120.54	-138.39	115.535	0.984296	0.195688	0.474824	0.1755	0.528	-0.225	0	324	214	3
2026-02-11	16:17:10.630	-180.915	-135.03	106.33	1.052616	0.197884	0.486292	0.159	0.546	-0.2175	0	324	214	3
2026-02-11	16:17:10.650	-229.04	-127.645	90.3	1.126548	0.09882	0.408944	0.1485	0.5835	-0.198	0	324	214	3
2026-02-11	16:17:10.670	-237.02	-116.235	71.995	1.211948	0.003904	0.297436	0.1185	0.6075	-0.183	0	324	214	3
2026-02-11	16:17:10.690	-209.86	-102.55	53.69	1.25538	-0.08784	0.205692	0.117	0.621	-0.1725	0	324	214	3
2026-02-11	16:17:10.710	-160.475	-92.785	34.23	1.275632	-0.164944	0.160064	0.114	0.6465	-0.1605	0	324	214	3
2026-02-11	16:17:10.730	-78.75	-75.005	20.37	1.170468	-0.251564	0.179584	0.1125	0.6585	-0.1605	0	324	214	3
2026-02-11	16:17:10.750	-11.83	-64.96	13.615	1.061888	-0.25742	0.216428	0.093	0.6915	-0.132	0	324	214	3
2026-02-11	16:17:10.770	49.63	-58.66	4.9	0.991616	-0.194712	0.247416	0.0975	0.7005	-0.114	0	324	214	3
2026-02-11	16:17:10.790	94.255	-53.48	-1.785	0.931836	-0.1037	0.2989	0.0825	0.6975	-0.1125	0	324	214	3
2026-02-11	16:17:10.810	113.82	-47.705	-7.14	0.877668	-0.005368	0.381616	0.0885	0.6885	-0.102	0	300	213	3
2026-02-11	16:17:10.830	112.735	-41.195	-11.76	0.874984	0.036356	0.4453	0.0795	0.693	-0.087	0	300	213	3
2026-02-11	16:17:10.850	108.815	-31.57	-14.84	0.837408	0.091256	0.440908	0.075	0.678	-0.0945	0	300	213	3
2026-02-11	16:17:10.870	94.36	-24.64	-16.065	0.856928	0.152256	0.418948	0.0765	0.666	-0.084	0	300	213	3
2026-02-11	16:17:10.890	60.48	-19.95	-15.855	0.934764	0.151036	0.416752	0.075	0.6615	-0.0885	0	300	213	3
2026-02-11	16:17:10.910	22.19	-12.88	-14.7	0.9028	0.084424	0.40138	0.072	0.6555	-0.0915	0	300	213	3
2026-02-11	16:17:10.930	-4.69	-6.16	-13.79	0.8784	0.042456	0.370392	0.072	0.6495	-0.0855	0	300	213	3
2026-02-11	16:17:10.950	-26.425	-1.47	-12.88	0.932324	0.04148	0.37942	0.0735	0.645	-0.081	0	300	213	3
2026-02-11	16:17:10.970	-47.985	4.76	-12.915	0.955748	0.015372	0.380396	0.0585	0.651	-0.0795	0	300	213	3
2026-02-11	16:17:10.990	-62.09	12.285	-14.875	1.009428	-0.024888	0.3477	0.075	0.6525	-0.0795	0	300	213	3
2026-02-11	16:16:37.010	308.84	26.04	-39.865	-1.011136	0.42822	-0.064904	0.954	0.54	0.0615	0	451	260	3
2026-02-11	16:16:37.030	237.685	12.74	-36.05	-0.99674	0.370636	-0.179828	0.9495	0.537	0.0765	0	451	260	3
2026-02-11	16:16:37.050	169.575	1.995	-30.485	-0.935008	0.351116	-0.040748	0.9555	0.543	0.0795	0	451	260	3
2026-02-11	16:16:37.070	120.015	-2.275	-25.62	-0.939156	0.304268	-0.137372	0.963	0.552	0.075	0	451	260	3
2026-02-11	16:16:37.090	104.86	-6.44	-27.545	-0.933544	0.34526	-0.241316	0.9615	0.552	0.081	0	451	260	3
2026-02-11	16:16:37.110	85.96	-9.765	-29.015	-0.986004	0.339404	-0.18178	0.9615	0.5535	0.0885	0	451	260	3
2026-02-11	16:16:37.130	62.895	-17.36	-27.685	-0.966728	0.290116	-0.109556	0.963	0.558	0.0915	0	451	260	3
2026-02-11	16:16:37.150	73.85	-19.845	-31.64	-0.96136	0.337696	-0.027572	0.9645	0.5655	0.0915	0	451	260	3
2026-02-11	16:16:37.170	108.255	-17.745	-40.74	-0.981612	0.33184	0.040016	0.966	0.5715	0.0915	0	451	260	3
2026-02-11	16:16:37.190	139.965	-12.18	-50.575	-0.936716	0.396012	-0.04392	0.963	0.5715	0.0855	0	451	260	3
2026-02-11	16:17:09.210	7.35	-1.26	-1.75	1.024312	0.12444	0.113704	0.2775	0.384	-0.2745	0	331	76	2
2026-02-11	16:17:09.230	-4.235	-17.325	22.26	1.009672	0.145912	0.230824	0.2775	0.384	-0.2745	0	331	76	2
2026-02-11	16:17:09.250	-21.28	-24.885	37.065	1.019432	0.144204	0.262788	0.2775	0.384	-0.2745	0	331	76	2
2026-02-11	16:17:09.270	-38.045	-34.02	51.135	1.044076	0.12444	0.247172	0.276	0.3945	-0.276	0	331	76	2
2026-02-11	16:17:09.290	-48.685	-45.465	63.945	1.076772	0.099552	0.233996	0.2595	0.402	-0.2745	0	331	76	2
2026-02-11	16:17:09.310	-52.85	-57.19	75.215	1.063352	0.07905599	0.248148	0.2535	0.4095	-0.2715	0	331	76	2
2026-02-11	16:17:09.330	-56.35	-67.06	83.895	0.993812	0.057828	0.278648	0.249	0.429	-0.2655	0	331	76	2
2026-02-11	16:17:09.350	-60.34	-75.53	88.725	0.948916	0.038308	0.293532	0.2325	0.4335	-0.2715	0	331	76	2
2026-02-11	16:17:09.370	-63.875	-83.09	91.385	0.964044	0.0305	0.321104	0.219	0.447	-0.261	0	331	76	2
2026-02-11	16:17:09.390	-71.085	-86.905	93.45	0.975756	0.013908	0.364536	0.2025	0.4725	-0.2565	0	331	76	2
2026-02-11	16:17:09.410	-76.51	-87.85	93.065	0.991372	0.003416	0.375516	0.1845	0.4875	-0.249	0	392	97	2
2026-02-11	16:17:09.430	-76.405	-88.095	89.495	1.020164	-0.022936	0.349408	0.1755	0.4965	-0.24	0	392	97	2
2026-02-11	16:17:09.450	-56	-86.38	80.465	1.033828	-0.08662	0.301584	0.1665	0.5055	-0.2325	0	392	97	2
2026-02-11	16:17:09.470	-26.18	-82.705	73.815	1.035292	-0.074176	0.278892	0.147	0.5415	-0.2205	0	392	97	2
2026-02-11	16:17:09.490	-2.695	-77.595	68.845	1.028704	-0.075396	0.273036	0.138	0.5565	-0.21	0	392	97	2
2026-02-11	16:17:09.510	13.02	-72.24	64.995	1.016992	-0.068808	0.27694	0.123	0.5625	-0.1935	0	392	97	2
2026-02-11	16:17:09.530	30.625	-66.01	60.795	0.985516	-0.049044	0.266448	0.111	0.5745	-0.1965	0	392	97	2
2026-02-11	16:17:09.550	48.02	-61.67	56.07	0.946232	-0.027084	0.274744	0.1125	0.57	-0.1815	0	392	97	2
2026-02-11	16:17:09.570	65.73	-58.975	52.745	0.922808	-0.032452	0.313784	0.1065	0.5805	-0.177	0	392	97	2
2026-02-11	16:17:09.590	84.035	-55.895	51.24	0.91622	-0.007076	0.343796	0.0885	0.5895	-0.1575	0	392	97	2
2026-02-11	16:17:09.610	96.215	-52.885	51.24	0.91134	0.030256	0.367952	0.093	0.585	-0.153	0	418	134	3
2026-02-11	16:17:09.630	102.34	-50.19	51.415	0.913048	0.079788	0.388936	0.09	0.594	-0.1395	0	418	134	3
2026-02-11	16:17:09.650	95.55	-46.62	52.01	0.89792	0.09882	0.41114	0.0825	0.588	-0.1365	0	418	134	3
2026-02-11	16:17:09.670	82.6	-42.735	52.535	0.852536	0.123464	0.418948	0.075	0.5835	-0.135	0	418	134	3
2026-02-11	16:17:09.690	67.585	-40.11	51.17	0.82838	0.152256	0.431392	0.066	0.5925	-0.117	0	418	134	3
2026-02-11	16:17:09.710	44.1	-38.885	49.035	0.8967	0.181536	0.437492	0.06	0.585	-0.117	0	418	134	3
2026-02-11	16:17:09.730	12.88	-37.415	47.18	0.98454	0.196908	0.467992	0.06	0.5925	-0.108	0	418	134	3
2026-02-11	16:17:09.750	-16.695	-33.425	43.82	1.05286	0.184952	0.508984	0.054	0.597	-0.093	0	418	134	3
2026-02-11	16:17:09.770	-39.13	-24.745	37.31	1.1102	0.178364	0.501176	0.054	0.606	-0.096	0	418	134	3
2026-02-11	16:17:09.790	-56.91	-14.875	27.405	1.2322	0.210328	0.46116	0.057	0.621	-0.0915	0	418	134	3
2026-02-11	16:17:09.810	-72.485	-4.795	14.49	1.343464	0.188124	0.424804	0.0525	0.627	-0.084	0	418	187	3
2026-02-11	16:17:09.830	-77.07	8.015	-1.54	1.35176	0.138348	0.389912	0.051	0.6255	-0.087	0	418	187	3
2026-02-11	16:17:09.850	-74.13	19.88	-19.145	1.326628	0.081984	0.335012	0.0525	0.6315	-0.0915	0	418	187	3
2026-02-11	16:17:09.870	-56.77	35.035	-43.47	1.203896	0.004148	0.307196	0.0555	0.639	-0.096	0	418	187	3
2026-02-11	16:17:09.890	-30.555	46.445	-58.73	1.047492	-0.043188	0.301828	0.0555	0.639	-0.096	0	418	187	3
2026-02-11	16:17:09.910	-3.535	56.21	-71.995	0.922564	-0.014884	0.286456	0.057	0.63	-0.102	0	418	187	3
2026-02-11	16:17:09.930	14.91	62.965	-82.95	0.897432	0.044408	0.26596	0.0675	0.6195	-0.1035	0	418	187	3
2026-02-11	16:17:09.950	18.165	65.975	-91.49	0.966728	0.100284	0.249124	0.063	0.6	-0.1125	0	418	187	3
2026-02-11	16:17:09.970	6.16	65.765	-97.65	1.073356	0.125416	0.26596	0.078	0.5955	-0.1275	0	418	187	3
2026-02-11	16:17:09.990	-16.415	66.675	-99.855	1.170468	0.131028	0.28182	0.0855	0.573	-0.141	0	418	187	3
2026-02-11	16:17:10.010	-39.795	68.145	-98.385	1.231224	0.113216	0.259372	0.0855	0.573	-0.141	0	403	237	3
2026-02-11	16:17:10.030	-49	67.83	-95.55	1.250256	0.128344	0.257664	0.096	0.549	-0.162	0	403	237	3
2026-02-11	16:17:10.050	-69.195	67.06	-89.635	1.262456	0.148108	0.2501	0.099	0.5445	-0.168	0	403	237	3
2026-02-11	16:17:10.070	-94.185	67.48	-80.955	1.255624	0.121268	0.243268	0.111	0.537	-0.1815	0	403	237	3
2026-02-11	16:17:10.090	-105.175	71.015	-69.265	1.171444	0.06832	0.208132	0.1185	0.534	-0.1875	0	403	237	3
2026-02-11	16:17:10.110	-94.255	73.605	-63.91	1.097024	0.060024	0.1708	0.1425	0.5415	-0.2055	0	403	237	3
2026-02-11	16:17:10.130	-79.03	75.25	-61.11	1.049444	0.073444	0.1403	0.1515	0.5355	-0.213	0	403	237	3
2026-02-11	16:17:10.150	-69.09	75.845	-58.975	1.022116	0.07076	0.12688	0.171	0.5415	-0.225	0	403	237	3
2026-02-11	16:17:10.170	-61.705	75.95	-58.03	0.997716	0.07076	0.112484	0.1785	0.5505	-0.237	0	403	237	3
2026-02-11	16:17:10.190	-51.52	76.65	-58.94	0.961848	0.07808	0.091256	0.18	0.5355	-0.249	0	403	237	3
2026-02-11	16:17:10.210	-41.93	77.42	-60.935	0.924028	0.072956	0.064904	0.192	0.5385	-0.261	0	379	257	3
2026-02-11	16:17:10.230	-32.2	76.755	-63.28	0.881572	0.073444	0.045384	0.2055	0.534	-0.264	0	379	257	3
2026-02-11	16:17:10.250	-22.155	73.815	-64.505	0.860588	0.061976	0.038308	0.219	0.537	-0.273	0	379	257	3
2026-02-11	16:17:10.270	-9.835	70.35	-64.82	0.86376	0.073688	0.028792	0.225	0.54	-0.276	0	379	257	3
2026-02-11	16:17:10.290	2.345	64.295	-63.665	0.88938	0.093452	0.020496	0.2325	0.5325	-0.285	0	379	257	3
2026-02-11	16:17:10.310	10.64	56.49	-60.62	0.923296	0.087596	0.021716	0.234	0.5235	-0.291	0	379	257	3
2026-02-11	16:17:10.330	20.125	49.525	-56.7	0.92598	0.084668	0.021716	0.267	0.51	-0.315	0	379	257	3
2026-02-11	16:17:10.350	32.41	40.005	-51.38	0.9943	0.083448	0.007808	0.279	0.5115	-0.309	0	379	257	3
2026-02-11	16:17:10.370	46.83	27.825	-44.73	1.022848	0.104432	0.018788	0.2835	0.504	-0.3045	0	379	257	3
2026-02-11	16:17:10.390	54.67	15.015	-36.995	0.992836	0.104188	0.089792	0.2865	0.486	-0.321	0	379	257	3
2026-02-11	16:17:10.410	56.14	2.135	-28.14	1.026996	0.080032	0.151036	0.2985	0.483	-0.309	0	351	239	3
2026-02-11	16:17:10.430	54.88	-8.96	-16.24	1.061888	0.11956	0.177632	0.2865	0.468	-0.306	0	351	239	3
2026-02-11	16:17:10.450	45.29	-23.975	0.56	1.078236	0.115656	0.167872	0.294	0.4635	-0.2925	0	351	239	3
2026-02-11	16:17:10.470	38.955	-42.98	21.735	1.090436	0.124684	0.142008	0.294	0.456	-0.2925	0	351	239	3
2026-02-11	16:17:10.490	32.83	-64.82	45.885	1.076528	0.144448	0.154696	0.285	0.453	-0.2925	0	351	239	3
2026-02-11	16:17:10.510	7.805	-93.695	81.445	0.987712	0.138104	0.30378	0.2775	0.459	-0.294	0	351	239	3
2026-02-11	16:17:10.530	-16.03	-104.72	101.395	0.90524	0.116144	0.319884	0.2775	0.459	-0.294	0	351	239	3
2026-02-11	16:17:10.550	-32.97	-113.54	114.87	0.837408	0.123952	0.265228	0.2355	0.4725	-0.2625	0	351	239	3
2026-02-11	16:17:10.570	-45.43	-124.635	121.135	0.829112	0.15494	0.239852	0.2145	0.492	-0.2505	0	351	239	3
2026-02-11	16:17:10.590	-70.42	-135.66	119.91	0.904752	0.17568	0.35624	0.201	0.4965	-0.24	0	351	239	3
2026-02-11	16:17:10.610	-120.54	-138.39	115.535	0.984296	0.195688	0.474824	0.1755	0.528	-0.225	0	324	214	3
2026-02-11	16:17:10.630	-180.915	-135.03	106.33	1.052616	0.197884	0.486292	0.159	0.546	-0.2175	0	324	214	3
2026-02-11	16:17:10.650	-229.04	-127.645	90.3	1.126548	0.09882	0.408944	0.1485	0.5835	-0.198	0	324	214	3
2026-02-11	16:17:10.670	-237.02	-116.235	71.995	1.211948	0.003904	0.297436	0.1185	0.6075	-0.183	0	324	214	3
2026-02-11	16:17:10.690	-209.86	-102.55	53.69	1.25538	-0.08784	0.205692	0.117	0.621	-0.1725	0	324	214	3
2026-02-11	16:17:10.710	-160.475	-92.785	34.23	1.275632	-0.164944	0.160064	0.114	0.6465	-0.1605	0	324	214	3
2026-02-11	16:17:10.730	-78.75	-75.005	20.37	1.170468	-0.251564	0.179584	0.1125	0.6585	-0.1605	0	324	214	3
2026-02-11	16:17:10.750	-11.83	-64.96	13.615	1.061888	-0.25742	0.216428	0.093	0.6915	-0.132	0	324	214	3
2026-02-11	16:17:10.770	49.63	-58.66	4.9	0.991616	-0.194712	0.247416	0.0975	0.7005	-0.114	0	324	214	3
2026-02-11	16:17:10.790	94.255	-53.48	-1.785	0.931836	-0.1037	0.2989	0.0825	0.6975	-0.1125	0	324	214	3
2026-02-11	16:17:10.810	113.82	-47.705	-7.14	0.877668	-0.005368	0.381616	0.0885	0.6885	-0.102	0	300	213	3
2026-02-11	16:17:10.830	112.735	-41.195	-11.76	0.874984	0.036356	0.4453	0.0795	0.693	-0.087	0	300	213	3
2026-02-11	16:17:10.850	108.815	-31.57	-14.84	0.837408	0.091256	0.440908	0.075	0.678	-0.0945	0	300	213	3
2026-02-11	16:17:10.870	94.36	-24.64	-16.065	0.856928	0.152256	0.418948	0.0765	0.666	-0.084	0	300	213	3
2026-02-11	16:17:10.890	60.48	-19.95	-15.855	0.934764	0.151036	0.416752	0.075	0.6615	-0.0885	0	300	213	3
2026-02-11	16:17:10.910	22.19	-12.88	-14.7	0.9028	0.084424	0.40138	0.072	0.6555	-0.0915	0	300	213	3
2026-02-11	16:17:10.930	-4.69	-6.16	-13.79	0.8784	0.042456	0.370392	0.072	0.6495	-0.0855	0	300	213	3
2026-02-11	16:17:10.950	-26.425	-1.47	-12.88	0.932324	0.04148	0.37942	0.0735	0.645	-0.081	0	300	213	3
2026-02-11	16:17:10.970	-47.985	4.76	-12.915	0.955748	0.015372	0.380396	0.0585	0.651	-0.0795	0	300	213	3
2026-02-11	16:17:10.990	-62.09	12.285	-14.875	1.009428	-0.024888	0.3477	0.075	0.6525	-0.0795	0	300	213	3
2026-02-11	16:16:37.010	308.84	26.04	-39.865	-1.011136	0.42822	-0.064904	0.954	0.54	0.0615	0	451	260	3
2026-02-11	16:16:37.030	237.685	12.74	-36.05	-0.99674	0.370636	-0.179828	0.9495	0.537	0.0765	0	451	260	3
2026-02-11	16:16:37.050	169.575	1.995	-30.485	-0.935008	0.351116	-0.040748	0.9555	0.543	0.0795	0	451	260	3
2026-02-11	16:16:37.070	120.015	-2.275	-25.62	-0.939156	0.304268	-0.137372	0.963	0.552	0.075	0	451	260	3
2026-02-11	16:16:37.090	104.86	-6.44	-27.545	-0.933544	0.34526	-0.241316	0.9615	0.552	0.081	0	451	260	3
2026-02-11	16:16:37.110	85.96	-9.765	-29.015	-0.986004	0.339404	-0.18178	0.9615	0.5535	0.0885	0	451	260	3
2026-02-11	16:16:37.130	62.895	-17.36	-27.685	-0.966728	0.290116	-0.109556	0.963	0.558	0.0915	0	451	260	3
2026-02-11	16:16:37.150	73.85	-19.845	-31.64	-0.96136	0.337696	-0.027572	0.9645	0.5655	0.0915	0	451	260	3
2026-02-11	16:16:37.170	108.255	-17.745	-40.74	-0.981612	0.33184	0.040016	0.966	0.5715	0.0915	0	451	260	3
2026-02-11	16:16:37.190	139.965	-12.18	-50.575	-0.936716	0.396012	-0.04392	0.963	0.5715	0.0855	0	451	260	3
2026-02-11	16:17:09.210	7.35	-1.26	-1.75	1.024312	0.12444	0.113704	0.2775	0.384	-0.2745	0	331	76	2
2026-02-11	16:17:09.230	-4.235	-17.325	22.26	1.009672	0.145912	0.230824	0.2775	0.384	-0.2745	0	331	76	2
2026-02-11	16:17:09.250	-21.28	-24.885	37.065	1.019432	0.144204	0.262788	0.2775	0.384	-0.2745	0	331	76	2
2026-02-11	16:17:09.270	-38.045	-34.02	51.135	1.044076	0.12444	0.247172	0.276	0.3945	-0.276	0	331	76	2
2026-02-11	16:17:09.290	-48.685	-45.465	63.945	1.076772	0.099552	0.233996	0.2595	0.402	-0.2745	0	331	76	2
2026-02-11	16:17:09.310	-52.85	-57.19	75.215	1.063352	0.07905599	0.248148	0.2535	0.4095	-0.2715	0	331	76	2
2026-02-11	16:17:09.330	-56.35	-67.06	83.895	0.993812	0.057828	0.278648	0.249	0.429	-0.2655	0	331	76	2
2026-02-11	16:17:09.350	-60.34	-75.53	88.725	0.948916	0.038308	0.293532	0.2325	0.4335	-0.2715	0	331	76	2
2026-02-11	16:17:09.370	-63.875	-83.09	91.385	0.964044	0.0305	0.321104	0.219	0.447	-0.261	0	331	76	2
2026-02-11	16:17:09.390	-71.085	-86.905	93.45	0.975756	0.013908	0.364536	0.2025	0.4725	-0.2565	0	331	76	2
2026-02-11	16:17:09.410	-76.51	-87.85	93.065	0.991372	0.003416	0.375516	0.1845	0.4875	-0.249	0	392	97	2
2026-02-11	16:17:09.430	-76.405	-88.095	89.495	1.020164	-0.022936	0.349408	0.1755	0.4965	-0.24	0	392	97	2
2026-02-11	16:17:09.450	-56	-86.38	80.465	1.033828	-0.08662	0.301584	0.1665	0.5055	-0.2325	0	392	97	2
2026-02-11	16:17:09.470	-26.18	-82.705	73.815	1.035292	-0.074176	0.278892	0.147	0.5415	-0.2205	0	392	97	2
2026-02-11	16:17:09.490	-2.695	-77.595	68.845	1.028704	-0.075396	0.273036	0.138	0.5565	-0.21	0	392	97	2
2026-02-11	16:17:09.510	13.02	-72.24	64.995	1.016992	-0.068808	0.27694	0.123	0.5625	-0.1935	0	392	97	2
2026-02-11	16:17:09.530	30.625	-66.01	60.795	0.985516	-0.049044	0.266448	0.111	0.5745	-0.1965	0	392	97	2
2026-02-11	16:17:09.550	48.02	-61.67	56.07	0.946232	-0.027084	0.274744	0.1125	0.57	-0.1815	0	392	97	2
2026-02-11	16:17:09.570	65.73	-58.975	52.745	0.922808	-0.032452	0.313784	0.1065	0.5805	-0.177	0	392	97	2
2026-02-11	16:17:09.590	84.035	-55.895	51.24	0.91622	-0.007076	0.343796	0.0885	0.5895	-0.1575	0	392	97	2
2026-02-11	16:17:21.610	-67.06	53.795	-28.315	1.05652	0.08052	0.42456	0.147	0.516	-0.225	0	434	303	3
2026-02-11	16:17:21.630	-61.39	61.075	-27.65	0.981612	0.05002	0.364048	0.1545	0.5205	-0.231	0	434	303	3
2026-02-11	16:17:21.650	-54.39	65.31	-29.19	0.932568	0.023424	0.315248	0.1575	0.528	-0.234	0	434	303	3
2026-02-11	16:17:21.670	-41.72	67.585	-33.495	0.926468	-0.02196	0.297192	0.171	0.5265	-0.246	0	434	303	3
2026-02-11	16:17:21.690	-22.61	70.035	-39.025	0.900604	-0.03904	0.282552	0.186	0.5325	-0.2535	0	434	303	3
2026-02-11	16:17:21.710	-3.815	70.35	-42.49	0.91744	-0.017568	0.257664	0.1905	0.5265	-0.2595	0	434	303	3
2026-02-11	16:17:21.730	7.595	69.93	-43.085	0.918416	0.031964	0.248636	0.198	0.5295	-0.276	0	434	303	3
2026-02-11	16:17:21.750	6.93	70.28	-41.825	0.88938	0.044164	0.254736	0.198	0.5295	-0.276	0	434	303	3
2026-02-11	16:17:21.770	4.62	69.825	-40.32	0.853512	0.028304	0.240096	0.2145	0.516	-0.288	0	434	303	3
2026-02-11	16:17:21.790	3.08	67.2	-35.7	0.861564	0.011468	0.2318	0.2385	0.501	-0.3	0	434	303	3
2026-02-11	16:17:21.810	5.04	63.35	-25.76	0.8601	0.0122	0.218624	0.2535	0.4965	-0.306	0	412	329	3
2026-02-11	16:17:21.830	10.36	57.19	-13.545	0.875228	0.01708	0.201544	0.267	0.4965	-0.3105	0	412	329	3
2026-02-11	16:17:21.850	16.905	48.825	0.105	0.90402	0.018544	0.187636	0.2745	0.492	-0.3135	0	412	329	3
2026-02-11	16:17:21.870	24.465	39.025	14.21	0.899628	0.047092	0.175436	0.276	0.486	-0.3165	0	412	329	3
2026-02-11	16:17:21.890	30.905	27.3	27.79	0.87474	0.054656	0.150792	0.2805	0.492	-0.327	0	412	329	3
2026-02-11	16:17:21.910	38.01	12.985	40.53	0.898408	0.084668	0.126392	0.294	0.489	-0.3165	0	412	329	3
2026-02-11	16:17:21.930	43.26	-3.99	53.34	0.993324	0.104188	0.144692	0.2925	0.483	-0.3195	0	412	329	3
2026-02-11	16:17:21.950	41.965	-23.94	71.19	1.146312	0.102724	0.220576	0.2805	0.477	-0.3195	0	412	329	3
2026-02-11	16:17:21.970	41.65	-38.185	90.055	1.240984	0.078568	0.238388	0.2745	0.477	-0.315	0	412	329	3
2026-02-11	16:17:21.990	50.925	-47.46	104.055	1.266116	0.084912	0.222528	0.2685	0.48	-0.3075	0	412	329	3
2026-02-11	16:17:22.010	56.805	-57.435	118.125	1.290028	0.088572	0.228628	0.2535	0.483	-0.3	0	385	324	3
2026-02-11	16:17:22.030	59.465	-63.385	128.065	1.2078	0.116876	0.270596	0.2325	0.4905	-0.2925	0	385	324	3
2026-02-11	16:17:22.050	48.265	-64.05	132.02	1.105808	0.09467199	0.343796	0.2205	0.498	-0.2835	0	385	324	3
2026-02-11	16:17:22.070	32.725	-57.645	132.09	1.04676	0.039528	0.36844	0.216	0.4995	-0.2805	0	385	324	3
2026-02-11	16:17:22.090	29.085	-49.105	128.835	0.99308	-0.000732	0.2989	0.201	0.516	-0.2715	0	385	324	3
2026-02-11	16:17:22.110	43.82	-44.66	122.78	0.969412	-0.049776	0.211548	0.192	0.5175	-0.2655	0	385	324	3
2026-02-11	16:17:22.130	76.93	-42.735	115.85	0.998448	-0.07515199	0.160064	0.1905	0.5325	-0.261	0	385	324	3
2026-02-11	16:17:22.150	115.71	-40.705	110.635	1.023336	-0.081008	0.133224	0.183	0.5385	-0.252	0	385	324	3
2026-02-11	16:17:22.170	167.615	-35.525	104.58	1.030168	-0.027328	0.09467199	0.1695	0.5265	-0.24	0	385	324	3
2026-02-11	16:17:22.190	191.835	-32.41	102.27	1.028216	0.015128	0.09467199	0.1605	0.525	-0.2325	0	385	324	3
2026-02-11	16:17:22.210	217.665	-29.015	98.665	1.009672	0.065636	0.10492	0.1455	0.519	-0.219	0	357	302	3
2026-02-11	16:17:22.230	241.185	-24.78	95.585	0.999668	0.089304	0.127612	0.135	0.5085	-0.2055	0	357	302	3
2026-02-11	16:17:22.250	263.025	-17.955	92.54	0.961116	0.146156	0.122976	0.132	0.498	-0.1935	0	357	302	3
2026-02-11	16:17:22.270	276.64	-13.23	88.445	0.925736	0.186416	0.108824	0.1335	0.4935	-0.1875	0	357	302	3
2026-02-11	16:17:22.290	280.735	-10.22	85.365	0.923052	0.196176	0.123952	0.12	0.4845	-0.1815	0	357	302	3
2026-02-11	16:17:22.310	278.075	-7	85.05	0.928664	0.20496	0.121268	0.1215	0.471	-0.1665	0	357	302	3
2026-02-11	16:17:22.330	275.73	-5.46	86.31	0.923296	0.23668	0.09028	0.111	0.462	-0.144	0	357	302	3
2026-02-11	16:17:22.350	269.605	-7.525	88.585	0.932324	0.257908	0.08174	0.1065	0.4485	-0.132	0	357	302	3
2026-02-11	16:17:22.370	247.87	-11.375	94.57	0.965508	0.265228	0.105896	0.1065	0.4395	-0.1065	0	357	302	3
2026-02-11	16:17:22.390	223.02	-15.68	102.445	0.97234	0.261812	0.109068	0.1065	0.4395	-0.1065	0	357	302	3
2026-02-11	16:17:22.410	213.71	-20.895	108.535	0.977464	0.268888	0.100772	0.0885	0.441	-0.0885	0	330	269	2
2026-02-11	16:17:22.430	203.595	-27.02	115.43	1.001864	0.271572	0.142252	0.0735	0.45	-0.0555	0	330	269	2
2026-02-11	16:17:22.450	193.34	-33.145	123.69	1.034072	0.29402	0.202764	0.0675	0.4635	-0.039	0	330	269	2
2026-02-11	16:17:22.470	183.4	-39.025	131.075	1.066036	0.334524	0.25254	0.0585	0.468	-0.0285	0	330	269	2
2026-02-11	16:17:22.490	176.575	-44.205	136.15	1.080676	0.365512	0.300364	0.057	0.468	-0.0195	0	330	269	2
2026-02-11	16:17:22.510	170.485	-45.605	137.55	1.106052	0.4514	0.3843	0.045	0.4815	0.0045	0	330	269	2
2026-02-11	16:17:22.530	144.27	-43.365	136.43	1.148264	0.54656	0.413824	0.036	0.5085	0.009	0	330	269	2
2026-02-11	16:17:22.550	103.915	-40.67	129.185	1.134112	0.624152	0.391376	0.0315	0.525	0.0195	0	330	269	2
2026-02-11	16:17:22.570	48.37	-39.725	113.75	1.1468	0.71736	0.371368	0.036	0.5415	0.0285	0	330	269	2
2026-02-11	16:17:22.590	-51.52	-41.72	86.695	1.222196	0.714432	0.415288	0.0225	0.567	0.0405	0	330	269	2
2026-02-11	16:17:22.610	-132.685	-36.645	52.15	1.070672	0.567788	0.433832	0.021	0.5775	0.0465	0	307	247	3
2026-02-11	16:17:22.630	-159.32	-34.825	21.385	1.021628	0.531188	0.44896	0.024	0.5955	0.0555	0	307	247	3
2026-02-11	16:17:22.650	-180.985	-35.21	-4.83	0.981124	0.403332	0.493612	0.024	0.6015	0.063	0	307	247	3
2026-02-11	16:17:22.670	-178.955	-22.575	-31.605	0.91744	0.295728	0.49776	0.0255	0.5955	0.069	0	307	247	3
2026-02-11	16:17:22.690	-162.68	-8.785	-55.125	0.972828	0.205448	0.445056	0.0285	0.5925	0.0705	0	307	247	3
2026-02-11	16:17:22.710	-144.9	2.73	-72.59	1.119472	0.181536	0.38308	0.024	0.591	0.069	0	307	247	3
2026-02-11	16:17:22.730	-132.615	12.775	-86.1	1.29808	0.210572	0.361364	0.018	0.5775	0.072	0	307	247	3
2026-02-11	16:17:22.750	-131.74	21.245	-99.715	1.404952	0.197152	0.410896	0.021	0.564	0.072	0	307	247	3
2026-02-11	16:17:22.770	-138.81	30.835	-111.58	1.464732	0.136884	0.45384	0.0225	0.5535	0.063	0	307	247	3
2026-02-11	16:17:22.790	-144.865	43.68	-122.57	1.41764	0.094184	0.467748	0.021	0.5355	0.054	0	307	247	3
2026-02-11	16:17:10.810	113.82	-47.705	-7.14	0.877668	-0.005368	0.381616	0.0885	0.6885	-0.102	0	300	213	3
2026-02-11	16:17:10.830	112.735	-41.195	-11.76	0.874984	0.036356	0.4453	0.0795	0.693	-0.087	0	300	213	3
2026-02-11	16:17:10.850	108.815	-31.57	-14.84	0.837408	0.091256	0.440908	0.075	0.678	-0.0945	0	300	213	3
2026-02-11	16:17:10.870	94.36	-24.64	-16.065	0.856928	0.152256	0.418948	0.0765	0.666	-0.084	0	300	213	3
2026-02-11	16:17:10.890	60.48	-19.95	-15.855	0.934764	0.151036	0.416752	0.075	0.6615	-0.0885	0	300	213	3
2026-02-11	16:17:10.910	22.19	-12.88	-14.7	0.9028	0.084424	0.40138	0.072	0.6555	-0.0915	0	300	213	3
2026-02-11	16:17:10.930	-4.69	-6.16	-13.79	0.8784	0.042456	0.370392	0.072	0.6495	-0.0855	0	300	213	3
2026-02-11	16:17:10.950	-26.425	-1.47	-12.88	0.932324	0.04148	0.37942	0.0735	0.645	-0.081	0	300	213	3
2026-02-11	16:17:10.970	-47.985	4.76	-12.915	0.955748	0.015372	0.380396	0.0585	0.651	-0.0795	0	300	213	3
2026-02-11	16:17:10.990	-62.09	12.285	-14.875	1.009428	-0.024888	0.3477	0.075	0.6525	-0.0795	0	300	213	3
2026-02-11	16:16:37.010	308.84	26.04	-39.865	-1.011136	0.42822	-0.064904	0.954	0.54	0.0615	0	451	260	3
2026-02-11	16:16:37.030	237.685	12.74	-36.05	-0.99674	0.370636	-0.179828	0.9495	0.537	0.0765	0	451	260	3
2026-02-11	16:16:37.050	169.575	1.995	-30.485	-0.935008	0.351116	-0.040748	0.9555	0.543	0.0795	0	451	260	3
2026-02-11	16:16:37.070	120.015	-2.275	-25.62	-0.939156	0.304268	-0.137372	0.963	0.552	0.075	0	451	260	3
2026-02-11	16:16:37.090	104.86	-6.44	-27.545	-0.933544	0.34526	-0.241316	0.9615	0.552	0.081	0	451	260	3
2026-02-11	16:16:37.110	85.96	-9.765	-29.015	-0.986004	0.339404	-0.18178	0.9615	0.5535	0.0885	0	451	260	3
2026-02-11	16:16:37.130	62.895	-17.36	-27.685	-0.966728	0.290116	-0.109556	0.963	0.558	0.0915	0	451	260	3
2026-02-11	16:16:37.150	73.85	-19.845	-31.64	-0.96136	0.337696	-0.027572	0.9645	0.5655	0.0915	0	451	260	3
2026-02-11	16:16:37.170	108.255	-17.745	-40.74	-0.981612	0.33184	0.040016	0.966	0.5715	0.0915	0	451	260	3
2026-02-11	16:16:37.190	139.965	-12.18	-50.575	-0.936716	0.396012	-0.04392	0.963	0.5715	0.0855	0	451	260	3
2026-02-11	16:17:09.210	7.35	-1.26	-1.75	1.024312	0.12444	0.113704	0.2775	0.384	-0.2745	0	331	76	2
2026-02-11	16:17:09.230	-4.235	-17.325	22.26	1.009672	0.145912	0.230824	0.2775	0.384	-0.2745	0	331	76	2
2026-02-11	16:17:09.250	-21.28	-24.885	37.065	1.019432	0.144204	0.262788	0.2775	0.384	-0.2745	0	331	76	2
2026-02-11	16:17:09.270	-38.045	-34.02	51.135	1.044076	0.12444	0.247172	0.276	0.3945	-0.276	0	331	76	2
2026-02-11	16:17:09.290	-48.685	-45.465	63.945	1.076772	0.099552	0.233996	0.2595	0.402	-0.2745	0	331	76	2
2026-02-11	16:17:09.310	-52.85	-57.19	75.215	1.063352	0.07905599	0.248148	0.2535	0.4095	-0.2715	0	331	76	2
2026-02-11	16:17:09.330	-56.35	-67.06	83.895	0.993812	0.057828	0.278648	0.249	0.429	-0.2655	0	331	76	2
2026-02-11	16:17:09.350	-60.34	-75.53	88.725	0.948916	0.038308	0.293532	0.2325	0.4335	-0.2715	0	331	76	2
2026-02-11	16:17:09.370	-63.875	-83.09	91.385	0.964044	0.0305	0.321104	0.219	0.447	-0.261	0	331	76	2
2026-02-11	16:17:09.390	-71.085	-86.905	93.45	0.975756	0.013908	0.364536	0.2025	0.4725	-0.2565	0	331	76	2
2026-02-11	16:17:09.410	-76.51	-87.85	93.065	0.991372	0.003416	0.375516	0.1845	0.4875	-0.249	0	392	97	2
2026-02-11	16:17:09.430	-76.405	-88.095	89.495	1.020164	-0.022936	0.349408	0.1755	0.4965	-0.24	0	392	97	2
2026-02-11	16:17:09.450	-56	-86.38	80.465	1.033828	-0.08662	0.301584	0.1665	0.5055	-0.2325	0	392	97	2
2026-02-11	16:17:09.470	-26.18	-82.705	73.815	1.035292	-0.074176	0.278892	0.147	0.5415	-0.2205	0	392	97	2
2026-02-11	16:17:09.490	-2.695	-77.595	68.845	1.028704	-0.075396	0.273036	0.138	0.5565	-0.21	0	392	97	2
2026-02-11	16:17:09.510	13.02	-72.24	64.995	1.016992	-0.068808	0.27694	0.123	0.5625	-0.1935	0	392	97	2
2026-02-11	16:17:09.530	30.625	-66.01	60.795	0.985516	-0.049044	0.266448	0.111	0.5745	-0.1965	0	392	97	2
2026-02-11	16:17:09.550	48.02	-61.67	56.07	0.946232	-0.027084	0.274744	0.1125	0.57	-0.1815	0	392	97	2
2026-02-11	16:17:09.570	65.73	-58.975	52.745	0.922808	-0.032452	0.313784	0.1065	0.5805	-0.177	0	392	97	2
2026-02-11	16:17:09.590	84.035	-55.895	51.24	0.91622	-0.007076	0.343796	0.0885	0.5895	-0.1575	0	392	97	2
2026-02-11	16:17:21.610	-67.06	53.795	-28.315	1.05652	0.08052	0.42456	0.147	0.516	-0.225	0	434	303	3
2026-02-11	16:17:21.630	-61.39	61.075	-27.65	0.981612	0.05002	0.364048	0.1545	0.5205	-0.231	0	434	303	3
2026-02-11	16:17:21.650	-54.39	65.31	-29.19	0.932568	0.023424	0.315248	0.1575	0.528	-0.234	0	434	303	3
2026-02-11	16:17:21.670	-41.72	67.585	-33.495	0.926468	-0.02196	0.297192	0.171	0.5265	-0.246	0	434	303	3
2026-02-11	16:17:21.690	-22.61	70.035	-39.025	0.900604	-0.03904	0.282552	0.186	0.5325	-0.2535	0	434	303	3
2026-02-11	16:17:21.710	-3.815	70.35	-42.49	0.91744	-0.017568	0.257664	0.1905	0.5265	-0.2595	0	434	303	3
2026-02-11	16:17:21.730	7.595	69.93	-43.085	0.918416	0.031964	0.248636	0.198	0.5295	-0.276	0	434	303	3
2026-02-11	16:17:21.750	6.93	70.28	-41.825	0.88938	0.044164	0.254736	0.198	0.5295	-0.276	0	434	303	3
2026-02-11	16:17:21.770	4.62	69.825	-40.32	0.853512	0.028304	0.240096	0.2145	0.516	-0.288	0	434	303	3
2026-02-11	16:17:21.790	3.08	67.2	-35.7	0.861564	0.011468	0.2318	0.2385	0.501	-0.3	0	434	303	3
2026-02-11	16:17:21.810	5.04	63.35	-25.76	0.8601	0.0122	0.218624	0.2535	0.4965	-0.306	0	412	329	3
2026-02-11	16:17:21.830	10.36	57.19	-13.545	0.875228	0.01708	0.201544	0.267	0.4965	-0.3105	0	412	329	3
2026-02-11	16:17:21.850	16.905	48.825	0.105	0.90402	0.018544	0.187636	0.2745	0.492	-0.3135	0	412	329	3
2026-02-11	16:17:21.870	24.465	39.025	14.21	0.899628	0.047092	0.175436	0.276	0.486	-0.3165	0	412	329	3
2026-02-11	16:17:21.890	30.905	27.3	27.79	0.87474	0.054656	0.150792	0.2805	0.492	-0.327	0	412	329	3
2026-02-11	16:17:21.910	38.01	12.985	40.53	0.898408	0.084668	0.126392	0.294	0.489	-0.3165	0	412	329	3
2026-02-11	16:17:21.930	43.26	-3.99	53.34	0.993324	0.104188	0.144692	0.2925	0.483	-0.3195	0	412	329	3
2026-02-11	16:17:21.950	41.965	-23.94	71.19	1.146312	0.102724	0.220576	0.2805	0.477	-0.3195	0	412	329	3
2026-02-11	16:17:21.970	41.65	-38.185	90.055	1.240984	0.078568	0.238388	0.2745	0.477	-0.315	0	412	329	3
2026-02-11	16:17:21.990	50.925	-47.46	104.055	1.266116	0.084912	0.222528	0.2685	0.48	-0.3075	0	412	329	3
2026-02-11	16:17:22.010	56.805	-57.435	118.125	1.290028	0.088572	0.228628	0.2535	0.483	-0.3	0	385	324	3
2026-02-11	16:17:22.030	59.465	-63.385	128.065	1.2078	0.116876	0.270596	0.2325	0.4905	-0.2925	0	385	324	3
2026-02-11	16:17:22.050	48.265	-64.05	132.02	1.105808	0.09467199	0.343796	0.2205	0.498	-0.2835	0	385	324	3
2026-02-11	16:17:22.070	32.725	-57.645	132.09	1.04676	0.039528	0.36844	0.216	0.4995	-0.2805	0	385	324	3
2026-02-11	16:17:22.090	29.085	-49.105	128.835	0.99308	-0.000732	0.2989	0.201	0.516	-0.2715	0	385	324	3
2026-02-11	16:17:22.110	43.82	-44.66	122.78	0.969412	-0.049776	0.211548	0.192	0.5175	-0.2655	0	385	324	3
2026-02-11	16:17:22.130	76.93	-42.735	115.85	0.998448	-0.07515199	0.160064	0.1905	0.5325	-0.261	0	385	324	3
2026-02-11	16:17:22.150	115.71	-40.705	110.635	1.023336	-0.081008	0.133224	0.183	0.5385	-0.252	0	385	324	3
2026-02-11	16:17:22.170	167.615	-35.525	104.58	1.030168	-0.027328	0.09467199	0.1695	0.5265	-0.24	0	385	324	3
2026-02-11	16:17:22.190	191.835	-32.41	102.27	1.028216	0.015128	0.09467199	0.1605	0.525	-0.2325	0	385	324	3
2026-02-11	16:17:22.210	217.665	-29.015	98.665	1.009672	0.065636	0.10492	0.1455	0.519	-0.219	0	357	302	3
2026-02-11	16:17:22.230	241.185	-24.78	95.585	0.999668	0.089304	0.127612	0.135	0.5085	-0.2055	0	357	302	3
2026-02-11	16:17:22.250	263.025	-17.955	92.54	0.961116	0.146156	0.122976	0.132	0.498	-0.1935	0	357	302	3
2026-02-11	16:17:22.270	276.64	-13.23	88.445	0.925736	0.186416	0.108824	0.1335	0.4935	-0.1875	0	357	302	3
2026-02-11	16:17:22.290	280.735	-10.22	85.365	0.923052	0.196176	0.123952	0.12	0.4845	-0.1815	0	357	302	3
2026-02-11	16:17:22.310	278.075	-7	85.05	0.928664	0.20496	0.121268	0.1215	0.471	-0.1665	0	357	302	3
2026-02-11	16:17:22.330	275.73	-5.46	86.31	0.923296	0.23668	0.09028	0.111	0.462	-0.144	0	357	302	3
2026-02-11	16:17:22.350	269.605	-7.525	88.585	0.932324	0.257908	0.08174	0.1065	0.4485	-0.132	0	357	302	3
2026-02-11	16:17:22.370	247.87	-11.375	94.57	0.965508	0.265228	0.105896	0.1065	0.4395	-0.1065	0	357	302	3
2026-02-11	16:17:22.390	223.02	-15.68	102.445	0.97234	0.261812	0.109068	0.1065	0.4395	-0.1065	0	357	302	3
2026-02-11	16:17:22.410	213.71	-20.895	108.535	0.977464	0.268888	0.100772	0.0885	0.441	-0.0885	0	330	269	2
2026-02-11	16:17:22.430	203.595	-27.02	115.43	1.001864	0.271572	0.142252	0.0735	0.45	-0.0555	0	330	269	2
2026-02-11	16:17:22.450	193.34	-33.145	123.69	1.034072	0.29402	0.202764	0.0675	0.4635	-0.039	0	330	269	2
2026-02-11	16:17:22.470	183.4	-39.025	131.075	1.066036	0.334524	0.25254	0.0585	0.468	-0.0285	0	330	269	2
2026-02-11	16:17:22.490	176.575	-44.205	136.15	1.080676	0.365512	0.300364	0.057	0.468	-0.0195	0	330	269	2
2026-02-11	16:17:22.510	170.485	-45.605	137.55	1.106052	0.4514	0.3843	0.045	0.4815	0.0045	0	330	269	2
2026-02-11	16:17:22.530	144.27	-43.365	136.43	1.148264	0.54656	0.413824	0.036	0.5085	0.009	0	330	269	2
2026-02-11	16:17:22.550	103.915	-40.67	129.185	1.134112	0.624152	0.391376	0.0315	0.525	0.0195	0	330	269	2
2026-02-11	16:17:22.570	48.37	-39.725	113.75	1.1468	0.71736	0.371368	0.036	0.5415	0.0285	0	330	269	2
2026-02-11	16:17:22.590	-51.52	-41.72	86.695	1.222196	0.714432	0.415288	0.0225	0.567	0.0405	0	330	269	2
2026-02-11	16:17:22.610	-132.685	-36.645	52.15	1.070672	0.567788	0.433832	0.021	0.5775	0.0465	0	307	247	3
2026-02-11	16:17:22.630	-159.32	-34.825	21.385	1.021628	0.531188	0.44896	0.024	0.5955	0.0555	0	307	247	3
2026-02-11	16:17:22.650	-180.985	-35.21	-4.83	0.981124	0.403332	0.493612	0.024	0.6015	0.063	0	307	247	3
2026-02-11	16:17:22.670	-178.955	-22.575	-31.605	0.91744	0.295728	0.49776	0.0255	0.5955	0.069	0	307	247	3
2026-02-11	16:17:22.690	-162.68	-8.785	-55.125	0.972828	0.205448	0.445056	0.0285	0.5925	0.0705	0	307	247	3
2026-02-11	16:17:22.710	-144.9	2.73	-72.59	1.119472	0.181536	0.38308	0.024	0.591	0.069	0	307	247	3
2026-02-11	16:17:22.730	-132.615	12.775	-86.1	1.29808	0.210572	0.361364	0.018	0.5775	0.072	0	307	247	3
2026-02-11	16:17:22.750	-131.74	21.245	-99.715	1.404952	0.197152	0.410896	0.021	0.564	0.072	0	307	247	3
2026-02-11	16:17:22.770	-138.81	30.835	-111.58	1.464732	0.136884	0.45384	0.0225	0.5535	0.063	0	307	247	3
2026-02-11	16:17:22.790	-144.865	43.68	-122.57	1.41764	0.094184	0.467748	0.021	0.5355	0.054	0	307	247	3
2026-02-11	16:17:10.810	113.82	-47.705	-7.14	0.877668	-0.005368	0.381616	0.0885	0.6885	-0.102	0	300	213	3
2026-02-11	16:17:10.830	112.735	-41.195	-11.76	0.874984	0.036356	0.4453	0.0795	0.693	-0.087	0	300	213	3
2026-02-11	16:17:10.850	108.815	-31.57	-14.84	0.837408	0.091256	0.440908	0.075	0.678	-0.0945	0	300	213	3
2026-02-11	16:17:10.870	94.36	-24.64	-16.065	0.856928	0.152256	0.418948	0.0765	0.666	-0.084	0	300	213	3
2026-02-11	16:17:10.890	60.48	-19.95	-15.855	0.934764	0.151036	0.416752	0.075	0.6615	-0.0885	0	300	213	3
2026-02-11	16:17:10.910	22.19	-12.88	-14.7	0.9028	0.084424	0.40138	0.072	0.6555	-0.0915	0	300	213	3
2026-02-11	16:17:10.930	-4.69	-6.16	-13.79	0.8784	0.042456	0.370392	0.072	0.6495	-0.0855	0	300	213	3
2026-02-11	16:17:10.950	-26.425	-1.47	-12.88	0.932324	0.04148	0.37942	0.0735	0.645	-0.081	0	300	213	3
2026-02-11	16:17:10.970	-47.985	4.76	-12.915	0.955748	0.015372	0.380396	0.0585	0.651	-0.0795	0	300	213	3
2026-02-11	16:17:10.990	-62.09	12.285	-14.875	1.009428	-0.024888	0.3477	0.075	0.6525	-0.0795	0	300	213	3
2026-02-11	16:16:37.010	308.84	26.04	-39.865	-1.011136	0.42822	-0.064904	0.954	0.54	0.0615	0	451	260	3
2026-02-11	16:16:37.030	237.685	12.74	-36.05	-0.99674	0.370636	-0.179828	0.9495	0.537	0.0765	0	451	260	3
2026-02-11	16:16:37.050	169.575	1.995	-30.485	-0.935008	0.351116	-0.040748	0.9555	0.543	0.0795	0	451	260	3
2026-02-11	16:16:37.070	120.015	-2.275	-25.62	-0.939156	0.304268	-0.137372	0.963	0.552	0.075	0	451	260	3
2026-02-11	16:16:37.090	104.86	-6.44	-27.545	-0.933544	0.34526	-0.241316	0.9615	0.552	0.081	0	451	260	3
2026-02-11	16:16:37.110	85.96	-9.765	-29.015	-0.986004	0.339404	-0.18178	0.9615	0.5535	0.0885	0	451	260	3
2026-02-11	16:16:37.130	62.895	-17.36	-27.685	-0.966728	0.290116	-0.109556	0.963	0.558	0.0915	0	451	260	3
2026-02-11	16:16:37.150	73.85	-19.845	-31.64	-0.96136	0.337696	-0.027572	0.9645	0.5655	0.0915	0	451	260	3
2026-02-11	16:16:37.170	108.255	-17.745	-40.74	-0.981612	0.33184	0.040016	0.966	0.5715	0.0915	0	451	260	3
2026-02-11	16:16:37.190	139.965	-12.18	-50.575	-0.936716	0.396012	-0.04392	0.963	0.5715	0.0855	0	451	260	3
2026-02-11	16:17:09.210	7.35	-1.26	-1.75	1.024312	0.12444	0.113704	0.2775	0.384	-0.2745	0	331	76	2
2026-02-11	16:17:09.230	-4.235	-17.325	22.26	1.009672	0.145912	0.230824	0.2775	0.384	-0.2745	0	331	76	2
2026-02-11	16:17:09.250	-21.28	-24.885	37.065	1.019432	0.144204	0.262788	0.2775	0.384	-0.2745	0	331	76	2
2026-02-11	16:17:09.270	-38.045	-34.02	51.135	1.044076	0.12444	0.247172	0.276	0.3945	-0.276	0	331	76	2
2026-02-11	16:17:09.290	-48.685	-45.465	63.945	1.076772	0.099552	0.233996	0.2595	0.402	-0.2745	0	331	76	2
2026-02-11	16:17:09.310	-52.85	-57.19	75.215	1.063352	0.07905599	0.248148	0.2535	0.4095	-0.2715	0	331	76	2
2026-02-11	16:17:09.330	-56.35	-67.06	83.895	0.993812	0.057828	0.278648	0.249	0.429	-0.2655	0	331	76	2
2026-02-11	16:17:09.350	-60.34	-75.53	88.725	0.948916	0.038308	0.293532	0.2325	0.4335	-0.2715	0	331	76	2
2026-02-11	16:17:09.370	-63.875	-83.09	91.385	0.964044	0.0305	0.321104	0.219	0.447	-0.261	0	331	76	2
2026-02-11	16:17:09.390	-71.085	-86.905	93.45	0.975756	0.013908	0.364536	0.2025	0.4725	-0.2565	0	331	76	2
2026-02-11	16:17:09.410	-76.51	-87.85	93.065	0.991372	0.003416	0.375516	0.1845	0.4875	-0.249	0	392	97	2
2026-02-11	16:17:09.430	-76.405	-88.095	89.495	1.020164	-0.022936	0.349408	0.1755	0.4965	-0.24	0	392	97	2
2026-02-11	16:17:09.450	-56	-86.38	80.465	1.033828	-0.08662	0.301584	0.1665	0.5055	-0.2325	0	392	97	2
2026-02-11	16:17:09.470	-26.18	-82.705	73.815	1.035292	-0.074176	0.278892	0.147	0.5415	-0.2205	0	392	97	2
2026-02-11	16:17:09.490	-2.695	-77.595	68.845	1.028704	-0.075396	0.273036	0.138	0.5565	-0.21	0	392	97	2
2026-02-11	16:17:09.510	13.02	-72.24	64.995	1.016992	-0.068808	0.27694	0.123	0.5625	-0.1935	0	392	97	2
2026-02-11	16:17:09.530	30.625	-66.01	60.795	0.985516	-0.049044	0.266448	0.111	0.5745	-0.1965	0	392	97	2
2026-02-11	16:17:09.550	48.02	-61.67	56.07	0.946232	-0.027084	0.274744	0.1125	0.57	-0.1815	0	392	97	2
2026-02-11	16:17:09.570	65.73	-58.975	52.745	0.922808	-0.032452	0.313784	0.1065	0.5805	-0.177	0	392	97	2
2026-02-11	16:17:09.590	84.035	-55.895	51.24	0.91622	-0.007076	0.343796	0.0885	0.5895	-0.1575	0	392	97	2
2026-02-11	16:17:21.610	-67.06	53.795	-28.315	1.05652	0.08052	0.42456	0.147	0.516	-0.225	0	434	303	3
2026-02-11	16:17:21.630	-61.39	61.075	-27.65	0.981612	0.05002	0.364048	0.1545	0.5205	-0.231	0	434	303	3
2026-02-11	16:17:21.650	-54.39	65.31	-29.19	0.932568	0.023424	0.315248	0.1575	0.528	-0.234	0	434	303	3
2026-02-11	16:17:21.670	-41.72	67.585	-33.495	0.926468	-0.02196	0.297192	0.171	0.5265	-0.246	0	434	303	3
2026-02-11	16:17:21.690	-22.61	70.035	-39.025	0.900604	-0.03904	0.282552	0.186	0.5325	-0.2535	0	434	303	3
2026-02-11	16:17:21.710	-3.815	70.35	-42.49	0.91744	-0.017568	0.257664	0.1905	0.5265	-0.2595	0	434	303	3
2026-02-11	16:17:21.730	7.595	69.93	-43.085	0.918416	0.031964	0.248636	0.198	0.5295	-0.276	0	434	303	3
2026-02-11	16:17:21.750	6.93	70.28	-41.825	0.88938	0.044164	0.254736	0.198	0.5295	-0.276	0	434	303	3
2026-02-11	16:17:21.770	4.62	69.825	-40.32	0.853512	0.028304	0.240096	0.2145	0.516	-0.288	0	434	303	3
2026-02-11	16:17:21.790	3.08	67.2	-35.7	0.861564	0.011468	0.2318	0.2385	0.501	-0.3	0	434	303	3
2026-02-11	16:17:21.810	5.04	63.35	-25.76	0.8601	0.0122	0.218624	0.2535	0.4965	-0.306	0	412	329	3
2026-02-11	16:17:21.830	10.36	57.19	-13.545	0.875228	0.01708	0.201544	0.267	0.4965	-0.3105	0	412	329	3
2026-02-11	16:17:21.850	16.905	48.825	0.105	0.90402	0.018544	0.187636	0.2745	0.492	-0.3135	0	412	329	3
2026-02-11	16:17:21.870	24.465	39.025	14.21	0.899628	0.047092	0.175436	0.276	0.486	-0.3165	0	412	329	3
2026-02-11	16:17:21.890	30.905	27.3	27.79	0.87474	0.054656	0.150792	0.2805	0.492	-0.327	0	412	329	3
2026-02-11	16:17:21.910	38.01	12.985	40.53	0.898408	0.084668	0.126392	0.294	0.489	-0.3165	0	412	329	3
2026-02-11	16:17:21.930	43.26	-3.99	53.34	0.993324	0.104188	0.144692	0.2925	0.483	-0.3195	0	412	329	3
2026-02-11	16:17:21.950	41.965	-23.94	71.19	1.146312	0.102724	0.220576	0.2805	0.477	-0.3195	0	412	329	3
2026-02-11	16:17:21.970	41.65	-38.185	90.055	1.240984	0.078568	0.238388	0.2745	0.477	-0.315	0	412	329	3
2026-02-11	16:17:21.990	50.925	-47.46	104.055	1.266116	0.084912	0.222528	0.2685	0.48	-0.3075	0	412	329	3
2026-02-11	16:17:22.010	56.805	-57.435	118.125	1.290028	0.088572	0.228628	0.2535	0.483	-0.3	0	385	324	3
2026-02-11	16:17:22.030	59.465	-63.385	128.065	1.2078	0.116876	0.270596	0.2325	0.4905	-0.2925	0	385	324	3
2026-02-11	16:17:22.050	48.265	-64.05	132.02	1.105808	0.09467199	0.343796	0.2205	0.498	-0.2835	0	385	324	3
2026-02-11	16:17:22.070	32.725	-57.645	132.09	1.04676	0.039528	0.36844	0.216	0.4995	-0.2805	0	385	324	3
2026-02-11	16:17:22.090	29.085	-49.105	128.835	0.99308	-0.000732	0.2989	0.201	0.516	-0.2715	0	385	324	3
2026-02-11	16:17:22.110	43.82	-44.66	122.78	0.969412	-0.049776	0.211548	0.192	0.5175	-0.2655	0	385	324	3
2026-02-11	16:17:22.130	76.93	-42.735	115.85	0.998448	-0.07515199	0.160064	0.1905	0.5325	-0.261	0	385	324	3
2026-02-11	16:17:22.150	115.71	-40.705	110.635	1.023336	-0.081008	0.133224	0.183	0.5385	-0.252	0	385	324	3
2026-02-11	16:17:22.170	167.615	-35.525	104.58	1.030168	-0.027328	0.09467199	0.1695	0.5265	-0.24	0	385	324	3
2026-02-11	16:17:22.190	191.835	-32.41	102.27	1.028216	0.015128	0.09467199	0.1605	0.525	-0.2325	0	385	324	3
2026-02-11	16:17:22.210	217.665	-29.015	98.665	1.009672	0.065636	0.10492	0.1455	0.519	-0.219	0	357	302	3
2026-02-11	16:17:22.230	241.185	-24.78	95.585	0.999668	0.089304	0.127612	0.135	0.5085	-0.2055	0	357	302	3
2026-02-11	16:17:22.250	263.025	-17.955	92.54	0.961116	0.146156	0.122976	0.132	0.498	-0.1935	0	357	302	3
2026-02-11	16:17:22.270	276.64	-13.23	88.445	0.925736	0.186416	0.108824	0.1335	0.4935	-0.1875	0	357	302	3
2026-02-11	16:17:22.290	280.735	-10.22	85.365	0.923052	0.196176	0.123952	0.12	0.4845	-0.1815	0	357	302	3
2026-02-11	16:17:22.310	278.075	-7	85.05	0.928664	0.20496	0.121268	0.1215	0.471	-0.1665	0	357	302	3
2026-02-11	16:17:22.330	275.73	-5.46	86.31	0.923296	0.23668	0.09028	0.111	0.462	-0.144	0	357	302	3
2026-02-11	16:17:22.350	269.605	-7.525	88.585	0.932324	0.257908	0.08174	0.1065	0.4485	-0.132	0	357	302	3
2026-02-11	16:17:22.370	247.87	-11.375	94.57	0.965508	0.265228	0.105896	0.1065	0.4395	-0.1065	0	357	302	3
2026-02-11	16:17:22.390	223.02	-15.68	102.445	0.97234	0.261812	0.109068	0.1065	0.4395	-0.1065	0	357	302	3
2026-02-11	16:17:22.410	213.71	-20.895	108.535	0.977464	0.268888	0.100772	0.0885	0.441	-0.0885	0	330	269	2
2026-02-11	16:17:22.430	203.595	-27.02	115.43	1.001864	0.271572	0.142252	0.0735	0.45	-0.0555	0	330	269	2
2026-02-11	16:17:22.450	193.34	-33.145	123.69	1.034072	0.29402	0.202764	0.0675	0.4635	-0.039	0	330	269	2
2026-02-11	16:17:22.470	183.4	-39.025	131.075	1.066036	0.334524	0.25254	0.0585	0.468	-0.0285	0	330	269	2
2026-02-11	16:17:22.490	176.575	-44.205	136.15	1.080676	0.365512	0.300364	0.057	0.468	-0.0195	0	330	269	2
2026-02-11	16:17:22.510	170.485	-45.605	137.55	1.106052	0.4514	0.3843	0.045	0.4815	0.0045	0	330	269	2
2026-02-11	16:17:22.530	144.27	-43.365	136.43	1.148264	0.54656	0.413824	0.036	0.5085	0.009	0	330	269	2
2026-02-11	16:17:22.550	103.915	-40.67	129.185	1.134112	0.624152	0.391376	0.0315	0.525	0.0195	0	330	269	2
2026-02-11	16:17:22.570	48.37	-39.725	113.75	1.1468	0.71736	0.371368	0.036	0.5415	0.0285	0	330	269	2
2026-02-11	16:17:22.590	-51.52	-41.72	86.695	1.222196	0.714432	0.415288	0.0225	0.567	0.0405	0	330	269	2
2026-02-11	16:17:22.610	-132.685	-36.645	52.15	1.070672	0.567788	0.433832	0.021	0.5775	0.0465	0	307	247	3
2026-02-11	16:17:22.630	-159.32	-34.825	21.385	1.021628	0.531188	0.44896	0.024	0.5955	0.0555	0	307	247	3
2026-02-11	16:17:22.650	-180.985	-35.21	-4.83	0.981124	0.403332	0.493612	0.024	0.6015	0.063	0	307	247	3
2026-02-11	16:17:22.670	-178.955	-22.575	-31.605	0.91744	0.295728	0.49776	0.0255	0.5955	0.069	0	307	247	3
2026-02-11	16:17:22.690	-162.68	-8.785	-55.125	0.972828	0.205448	0.445056	0.0285	0.5925	0.0705	0	307	247	3
2026-02-11	16:17:22.710	-144.9	2.73	-72.59	1.119472	0.181536	0.38308	0.024	0.591	0.069	0	307	247	3
2026-02-11	16:17:22.730	-132.615	12.775	-86.1	1.29808	0.210572	0.361364	0.018	0.5775	0.072	0	307	247	3
2026-02-11	16:17:22.750	-131.74	21.245	-99.715	1.404952	0.197152	0.410896	0.021	0.564	0.072	0	307	247	3
2026-02-11	16:17:22.770	-138.81	30.835	-111.58	1.464732	0.136884	0.45384	0.0225	0.5535	0.063	0	307	247	3
2026-02-11	16:17:22.790	-144.865	43.68	-122.57	1.41764	0.094184	0.467748	0.021	0.5355	0.054	0	307	247	3
2026-02-11	16:17:10.810	113.82	-47.705	-7.14	0.877668	-0.005368	0.381616	0.0885	0.6885	-0.102	0	300	213	3
2026-02-11	16:17:10.830	112.735	-41.195	-11.76	0.874984	0.036356	0.4453	0.0795	0.693	-0.087	0	300	213	3
2026-02-11	16:17:10.850	108.815	-31.57	-14.84	0.837408	0.091256	0.440908	0.075	0.678	-0.0945	0	300	213	3
2026-02-11	16:17:10.870	94.36	-24.64	-16.065	0.856928	0.152256	0.418948	0.0765	0.666	-0.084	0	300	213	3
2026-02-11	16:17:10.890	60.48	-19.95	-15.855	0.934764	0.151036	0.416752	0.075	0.6615	-0.0885	0	300	213	3
2026-02-11	16:17:10.910	22.19	-12.88	-14.7	0.9028	0.084424	0.40138	0.072	0.6555	-0.0915	0	300	213	3
2026-02-11	16:17:10.930	-4.69	-6.16	-13.79	0.8784	0.042456	0.370392	0.072	0.6495	-0.0855	0	300	213	3
2026-02-11	16:17:10.950	-26.425	-1.47	-12.88	0.932324	0.04148	0.37942	0.0735	0.645	-0.081	0	300	213	3
2026-02-11	16:17:10.970	-47.985	4.76	-12.915	0.955748	0.015372	0.380396	0.0585	0.651	-0.0795	0	300	213	3
2026-02-11	16:17:10.990	-62.09	12.285	-14.875	1.009428	-0.024888	0.3477	0.075	0.6525	-0.0795	0	300	213	3
2026-02-11	16:16:37.010	308.84	26.04	-39.865	-1.011136	0.42822	-0.064904	0.954	0.54	0.0615	0	451	260	3
2026-02-11	16:16:37.030	237.685	12.74	-36.05	-0.99674	0.370636	-0.179828	0.9495	0.537	0.0765	0	451	260	3
2026-02-11	16:16:37.050	169.575	1.995	-30.485	-0.935008	0.351116	-0.040748	0.9555	0.543	0.0795	0	451	260	3
2026-02-11	16:16:37.070	120.015	-2.275	-25.62	-0.939156	0.304268	-0.137372	0.963	0.552	0.075	0	451	260	3
2026-02-11	16:16:37.090	104.86	-6.44	-27.545	-0.933544	0.34526	-0.241316	0.9615	0.552	0.081	0	451	260	3
2026-02-11	16:16:37.110	85.96	-9.765	-29.015	-0.986004	0.339404	-0.18178	0.9615	0.5535	0.0885	0	451	260	3
2026-02-11	16:16:37.130	62.895	-17.36	-27.685	-0.966728	0.290116	-0.109556	0.963	0.558	0.0915	0	451	260	3
2026-02-11	16:16:37.150	73.85	-19.845	-31.64	-0.96136	0.337696	-0.027572	0.9645	0.5655	0.0915	0	451	260	3
2026-02-11	16:16:37.170	108.255	-17.745	-40.74	-0.981612	0.33184	0.040016	0.966	0.5715	0.0915	0	451	260	3
2026-02-11	16:16:37.190	139.965	-12.18	-50.575	-0.936716	0.396012	-0.04392	0.963	0.5715	0.0855	0	451	260	3
2026-02-11	16:17:09.210	7.35	-1.26	-1.75	1.024312	0.12444	0.113704	0.2775	0.384	-0.2745	0	331	76	2
2026-02-11	16:17:09.230	-4.235	-17.325	22.26	1.009672	0.145912	0.230824	0.2775	0.384	-0.2745	0	331	76	2
2026-02-11	16:17:09.250	-21.28	-24.885	37.065	1.019432	0.144204	0.262788	0.2775	0.384	-0.2745	0	331	76	2
2026-02-11	16:17:09.270	-38.045	-34.02	51.135	1.044076	0.12444	0.247172	0.276	0.3945	-0.276	0	331	76	2
2026-02-11	16:17:09.290	-48.685	-45.465	63.945	1.076772	0.099552	0.233996	0.2595	0.402	-0.2745	0	331	76	2
2026-02-11	16:17:09.310	-52.85	-57.19	75.215	1.063352	0.07905599	0.248148	0.2535	0.4095	-0.2715	0	331	76	2
2026-02-11	16:17:09.330	-56.35	-67.06	83.895	0.993812	0.057828	0.278648	0.249	0.429	-0.2655	0	331	76	2
2026-02-11	16:17:09.350	-60.34	-75.53	88.725	0.948916	0.038308	0.293532	0.2325	0.4335	-0.2715	0	331	76	2
2026-02-11	16:17:09.370	-63.875	-83.09	91.385	0.964044	0.0305	0.321104	0.219	0.447	-0.261	0	331	76	2
2026-02-11	16:17:09.390	-71.085	-86.905	93.45	0.975756	0.013908	0.364536	0.2025	0.4725	-0.2565	0	331	76	2
2026-02-11	16:17:09.410	-76.51	-87.85	93.065	0.991372	0.003416	0.375516	0.1845	0.4875	-0.249	0	392	97	2
2026-02-11	16:17:09.430	-76.405	-88.095	89.495	1.020164	-0.022936	0.349408	0.1755	0.4965	-0.24	0	392	97	2
2026-02-11	16:17:09.450	-56	-86.38	80.465	1.033828	-0.08662	0.301584	0.1665	0.5055	-0.2325	0	392	97	2
2026-02-11	16:17:09.470	-26.18	-82.705	73.815	1.035292	-0.074176	0.278892	0.147	0.5415	-0.2205	0	392	97	2
2026-02-11	16:17:09.490	-2.695	-77.595	68.845	1.028704	-0.075396	0.273036	0.138	0.5565	-0.21	0	392	97	2
2026-02-11	16:17:09.510	13.02	-72.24	64.995	1.016992	-0.068808	0.27694	0.123	0.5625	-0.1935	0	392	97	2
2026-02-11	16:17:09.530	30.625	-66.01	60.795	0.985516	-0.049044	0.266448	0.111	0.5745	-0.1965	0	392	97	2
2026-02-11	16:17:09.550	48.02	-61.67	56.07	0.946232	-0.027084	0.274744	0.1125	0.57	-0.1815	0	392	97	2
2026-02-11	16:17:09.570	65.73	-58.975	52.745	0.922808	-0.032452	0.313784	0.1065	0.5805	-0.177	0	392	97	2
2026-02-11	16:17:09.590	84.035	-55.895	51.24	0.91622	-0.007076	0.343796	0.0885	0.5895	-0.1575	0	392	97	2
2026-02-11	16:17:21.610	-67.06	53.795	-28.315	1.05652	0.08052	0.42456	0.147	0.516	-0.225	0	434	303	3
2026-02-11	16:17:21.630	-61.39	61.075	-27.65	0.981612	0.05002	0.364048	0.1545	0.5205	-0.231	0	434	303	3
2026-02-11	16:17:21.650	-54.39	65.31	-29.19	0.932568	0.023424	0.315248	0.1575	0.528	-0.234	0	434	303	3
2026-02-11	16:17:21.670	-41.72	67.585	-33.495	0.926468	-0.02196	0.297192	0.171	0.5265	-0.246	0	434	303	3
2026-02-11	16:17:21.690	-22.61	70.035	-39.025	0.900604	-0.03904	0.282552	0.186	0.5325	-0.2535	0	434	303	3
2026-02-11	16:17:21.710	-3.815	70.35	-42.49	0.91744	-0.017568	0.257664	0.1905	0.5265	-0.2595	0	434	303	3
2026-02-11	16:17:21.730	7.595	69.93	-43.085	0.918416	0.031964	0.248636	0.198	0.5295	-0.276	0	434	303	3
2026-02-11	16:17:21.750	6.93	70.28	-41.825	0.88938	0.044164	0.254736	0.198	0.5295	-0.276	0	434	303	3
2026-02-11	16:17:21.770	4.62	69.825	-40.32	0.853512	0.028304	0.240096	0.2145	0.516	-0.288	0	434	303	3
2026-02-11	16:17:21.790	3.08	67.2	-35.7	0.861564	0.011468	0.2318	0.2385	0.501	-0.3	0	434	303	3
2026-02-11	16:17:21.810	5.04	63.35	-25.76	0.8601	0.0122	0.218624	0.2535	0.4965	-0.306	0	412	329	3
2026-02-11	16:17:21.830	10.36	57.19	-13.545	0.875228	0.01708	0.201544	0.267	0.4965	-0.3105	0	412	329	3
2026-02-11	16:17:21.850	16.905	48.825	0.105	0.90402	0.018544	0.187636	0.2745	0.492	-0.3135	0	412	329	3
2026-02-11	16:17:21.870	24.465	39.025	14.21	0.899628	0.047092	0.175436	0.276	0.486	-0.3165	0	412	329	3
2026-02-11	16:17:21.890	30.905	27.3	27.79	0.87474	0.054656	0.150792	0.2805	0.492	-0.327	0	412	329	3
2026-02-11	16:17:21.910	38.01	12.985	40.53	0.898408	0.084668	0.126392	0.294	0.489	-0.3165	0	412	329	3
2026-02-11	16:17:21.930	43.26	-3.99	53.34	0.993324	0.104188	0.144692	0.2925	0.483	-0.3195	0	412	329	3
2026-02-11	16:17:21.950	41.965	-23.94	71.19	1.146312	0.102724	0.220576	0.2805	0.477	-0.3195	0	412	329	3
2026-02-11	16:17:21.970	41.65	-38.185	90.055	1.240984	0.078568	0.238388	0.2745	0.477	-0.315	0	412	329	3
2026-02-11	16:17:21.990	50.925	-47.46	104.055	1.266116	0.084912	0.222528	0.2685	0.48	-0.3075	0	412	329	3
2026-02-11	16:17:22.010	56.805	-57.435	118.125	1.290028	0.088572	0.228628	0.2535	0.483	-0.3	0	385	324	3
2026-02-11	16:17:22.030	59.465	-63.385	128.065	1.2078	0.116876	0.270596	0.2325	0.4905	-0.2925	0	385	324	3
2026-02-11	16:17:22.050	48.265	-64.05	132.02	1.105808	0.09467199	0.343796	0.2205	0.498	-0.2835	0	385	324	3
2026-02-11	16:17:22.070	32.725	-57.645	132.09	1.04676	0.039528	0.36844	0.216	0.4995	-0.2805	0	385	324	3
2026-02-11	16:17:22.090	29.085	-49.105	128.835	0.99308	-0.000732	0.2989	0.201	0.516	-0.2715	0	385	324	3
2026-02-11	16:17:22.110	43.82	-44.66	122.78	0.969412	-0.049776	0.211548	0.192	0.5175	-0.2655	0	385	324	3
2026-02-11	16:17:22.130	76.93	-42.735	115.85	0.998448	-0.07515199	0.160064	0.1905	0.5325	-0.261	0	385	324	3
2026-02-11	16:17:22.150	115.71	-40.705	110.635	1.023336	-0.081008	0.133224	0.183	0.5385	-0.252	0	385	324	3
2026-02-11	16:17:22.170	167.615	-35.525	104.58	1.030168	-0.027328	0.09467199	0.1695	0.5265	-0.24	0	385	324	3
2026-02-11	16:17:22.190	191.835	-32.41	102.27	1.028216	0.015128	0.09467199	0.1605	0.525	-0.2325	0	385	324	3
2026-02-11	16:17:22.210	217.665	-29.015	98.665	1.009672	0.065636	0.10492	0.1455	0.519	-0.219	0	357	302	3
2026-02-11	16:17:22.230	241.185	-24.78	95.585	0.999668	0.089304	0.127612	0.135	0.5085	-0.2055	0	357	302	3
2026-02-11	16:17:22.250	263.025	-17.955	92.54	0.961116	0.146156	0.122976	0.132	0.498	-0.1935	0	357	302	3
2026-02-11	16:17:22.270	276.64	-13.23	88.445	0.925736	0.186416	0.108824	0.1335	0.4935	-0.1875	0	357	302	3
2026-02-11	16:17:22.290	280.735	-10.22	85.365	0.923052	0.196176	0.123952	0.12	0.4845	-0.1815	0	357	302	3
2026-02-11	16:17:22.310	278.075	-7	85.05	0.928664	0.20496	0.121268	0.1215	0.471	-0.1665	0	357	302	3
2026-02-11	16:17:22.330	275.73	-5.46	86.31	0.923296	0.23668	0.09028	0.111	0.462	-0.144	0	357	302	3
2026-02-11	16:17:22.350	269.605	-7.525	88.585	0.932324	0.257908	0.08174	0.1065	0.4485	-0.132	0	357	302	3
2026-02-11	16:17:22.370	247.87	-11.375	94.57	0.965508	0.265228	0.105896	0.1065	0.4395	-0.1065	0	357	302	3
2026-02-11	16:17:22.390	223.02	-15.68	102.445	0.97234	0.261812	0.109068	0.1065	0.4395	-0.1065	0	357	302	3
2026-02-11	16:17:22.410	213.71	-20.895	108.535	0.977464	0.268888	0.100772	0.0885	0.441	-0.0885	0	330	269	2
2026-02-11	16:17:22.430	203.595	-27.02	115.43	1.001864	0.271572	0.142252	0.0735	0.45	-0.0555	0	330	269	2
2026-02-11	16:17:22.450	193.34	-33.145	123.69	1.034072	0.29402	0.202764	0.0675	0.4635	-0.039	0	330	269	2
2026-02-11	16:17:22.470	183.4	-39.025	131.075	1.066036	0.334524	0.25254	0.0585	0.468	-0.0285	0	330	269	2
2026-02-11	16:17:22.490	176.575	-44.205	136.15	1.080676	0.365512	0.300364	0.057	0.468	-0.0195	0	330	269	2
2026-02-11	16:17:22.510	170.485	-45.605	137.55	1.106052	0.4514	0.3843	0.045	0.4815	0.0045	0	330	269	2
2026-02-11	16:17:22.530	144.27	-43.365	136.43	1.148264	0.54656	0.413824	0.036	0.5085	0.009	0	330	269	2
2026-02-11	16:17:22.550	103.915	-40.67	129.185	1.134112	0.624152	0.391376	0.0315	0.525	0.0195	0	330	269	2
2026-02-11	16:17:22.570	48.37	-39.725	113.75	1.1468	0.71736	0.371368	0.036	0.5415	0.0285	0	330	269	2
2026-02-11	16:17:22.590	-51.52	-41.72	86.695	1.222196	0.714432	0.415288	0.0225	0.567	0.0405	0	330	269	2
2026-02-11	16:17:22.610	-132.685	-36.645	52.15	1.070672	0.567788	0.433832	0.021	0.5775	0.0465	0	307	247	3
2026-02-11	16:17:22.630	-159.32	-34.825	21.385	1.021628	0.531188	0.44896	0.024	0.5955	0.0555	0	307	247	3
2026-02-11	16:17:22.650	-180.985	-35.21	-4.83	0.981124	0.403332	0.493612	0.024	0.6015	0.063	0	307	247	3
2026-02-11	16:17:22.670	-178.955	-22.575	-31.605	0.91744	0.295728	0.49776	0.0255	0.5955	0.069	0	307	247	3
2026-02-11	16:17:22.690	-162.68	-8.785	-55.125	0.972828	0.205448	0.445056	0.0285	0.5925	0.0705	0	307	247	3
2026-02-11	16:17:22.710	-144.9	2.73	-72.59	1.119472	0.181536	0.38308	0.024	0.591	0.069	0	307	247	3
2026-02-11	16:17:22.730	-132.615	12.775	-86.1	1.29808	0.210572	0.361364	0.018	0.5775	0.072	0	307	247	3
2026-02-11	16:17:22.750	-131.74	21.245	-99.715	1.404952	0.197152	0.410896	0.021	0.564	0.072	0	307	247	3
2026-02-11	16:17:22.770	-138.81	30.835	-111.58	1.464732	0.136884	0.45384	0.0225	0.5535	0.063	0	307	247	3
2026-02-11	16:17:22.790	-144.865	43.68	-122.57	1.41764	0.094184	0.467748	0.021	0.5355	0.054	0	307	247	3
2026-02-11	16:17:10.810	113.82	-47.705	-7.14	0.877668	-0.005368	0.381616	0.0885	0.6885	-0.102	0	300	213	3
2026-02-11	16:17:10.830	112.735	-41.195	-11.76	0.874984	0.036356	0.4453	0.0795	0.693	-0.087	0	300	213	3
2026-02-11	16:17:10.850	108.815	-31.57	-14.84	0.837408	0.091256	0.440908	0.075	0.678	-0.0945	0	300	213	3
2026-02-11	16:17:10.870	94.36	-24.64	-16.065	0.856928	0.152256	0.418948	0.0765	0.666	-0.084	0	300	213	3
2026-02-11	16:17:10.890	60.48	-19.95	-15.855	0.934764	0.151036	0.416752	0.075	0.6615	-0.0885	0	300	213	3
2026-02-11	16:17:10.910	22.19	-12.88	-14.7	0.9028	0.084424	0.40138	0.072	0.6555	-0.0915	0	300	213	3
2026-02-11	16:17:10.930	-4.69	-6.16	-13.79	0.8784	0.042456	0.370392	0.072	0.6495	-0.0855	0	300	213	3
2026-02-11	16:17:10.950	-26.425	-1.47	-12.88	0.932324	0.04148	0.37942	0.0735	0.645	-0.081	0	300	213	3
2026-02-11	16:17:10.970	-47.985	4.76	-12.915	0.955748	0.015372	0.380396	0.0585	0.651	-0.0795	0	300	213	3
2026-02-11	16:17:10.990	-62.09	12.285	-14.875	1.009428	-0.024888	0.3477	0.075	0.6525	-0.0795	0	300	213	3
2026-02-11	16:16:37.010	308.84	26.04	-39.865	-1.011136	0.42822	-0.064904	0.954	0.54	0.0615	0	451	260	3
2026-02-11	16:16:37.030	237.685	12.74	-36.05	-0.99674	0.370636	-0.179828	0.9495	0.537	0.0765	0	451	260	3
2026-02-11	16:16:37.050	169.575	1.995	-30.485	-0.935008	0.351116	-0.040748	0.9555	0.543	0.0795	0	451	260	3
2026-02-11	16:16:37.070	120.015	-2.275	-25.62	-0.939156	0.304268	-0.137372	0.963	0.552	0.075	0	451	260	3
2026-02-11	16:16:37.090	104.86	-6.44	-27.545	-0.933544	0.34526	-0.241316	0.9615	0.552	0.081	0	451	260	3
2026-02-11	16:16:37.110	85.96	-9.765	-29.015	-0.986004	0.339404	-0.18178	0.9615	0.5535	0.0885	0	451	260	3
2026-02-11	16:16:37.130	62.895	-17.36	-27.685	-0.966728	0.290116	-0.109556	0.963	0.558	0.0915	0	451	260	3
2026-02-11	16:16:37.150	73.85	-19.845	-31.64	-0.96136	0.337696	-0.027572	0.9645	0.5655	0.0915	0	451	260	3
2026-02-11	16:16:37.170	108.255	-17.745	-40.74	-0.981612	0.33184	0.040016	0.966	0.5715	0.0915	0	451	260	3
2026-02-11	16:16:37.190	139.965	-12.18	-50.575	-0.936716	0.396012	-0.04392	0.963	0.5715	0.0855	0	451	260	3
2026-02-11	16:17:09.210	7.35	-1.26	-1.75	1.024312	0.12444	0.113704	0.2775	0.384	-0.2745	0	331	76	2
2026-02-11	16:17:09.230	-4.235	-17.325	22.26	1.009672	0.145912	0.230824	0.2775	0.384	-0.2745	0	331	76	2
2026-02-11	16:17:09.250	-21.28	-24.885	37.065	1.019432	0.144204	0.262788	0.2775	0.384	-0.2745	0	331	76	2
2026-02-11	16:17:09.270	-38.045	-34.02	51.135	1.044076	0.12444	0.247172	0.276	0.3945	-0.276	0	331	76	2
2026-02-11	16:17:09.290	-48.685	-45.465	63.945	1.076772	0.099552	0.233996	0.2595	0.402	-0.2745	0	331	76	2
2026-02-11	16:17:09.310	-52.85	-57.19	75.215	1.063352	0.07905599	0.248148	0.2535	0.4095	-0.2715	0	331	76	2
2026-02-11	16:17:09.330	-56.35	-67.06	83.895	0.993812	0.057828	0.278648	0.249	0.429	-0.2655	0	331	76	2
2026-02-11	16:17:09.350	-60.34	-75.53	88.725	0.948916	0.038308	0.293532	0.2325	0.4335	-0.2715	0	331	76	2
2026-02-11	16:17:09.370	-63.875	-83.09	91.385	0.964044	0.0305	0.321104	0.219	0.447	-0.261	0	331	76	2
2026-02-11	16:17:09.390	-71.085	-86.905	93.45	0.975756	0.013908	0.364536	0.2025	0.4725	-0.2565	0	331	76	2
2026-02-11	16:17:09.410	-76.51	-87.85	93.065	0.991372	0.003416	0.375516	0.1845	0.4875	-0.249	0	392	97	2
2026-02-11	16:17:09.430	-76.405	-88.095	89.495	1.020164	-0.022936	0.349408	0.1755	0.4965	-0.24	0	392	97	2
2026-02-11	16:17:09.450	-56	-86.38	80.465	1.033828	-0.08662	0.301584	0.1665	0.5055	-0.2325	0	392	97	2
2026-02-11	16:17:09.470	-26.18	-82.705	73.815	1.035292	-0.074176	0.278892	0.147	0.5415	-0.2205	0	392	97	2
2026-02-11	16:17:09.490	-2.695	-77.595	68.845	1.028704	-0.075396	0.273036	0.138	0.5565	-0.21	0	392	97	2
2026-02-11	16:17:09.510	13.02	-72.24	64.995	1.016992	-0.068808	0.27694	0.123	0.5625	-0.1935	0	392	97	2
2026-02-11	16:17:09.530	30.625	-66.01	60.795	0.985516	-0.049044	0.266448	0.111	0.5745	-0.1965	0	392	97	2
2026-02-11	16:17:09.550	48.02	-61.67	56.07	0.946232	-0.027084	0.274744	0.1125	0.57	-0.1815	0	392	97	2
2026-02-11	16:17:09.570	65.73	-58.975	52.745	0.922808	-0.032452	0.313784	0.1065	0.5805	-0.177	0	392	97	2
2026-02-11	16:17:09.590	84.035	-55.895	51.24	0.91622	-0.007076	0.343796	0.0885	0.5895	-0.1575	0	392	97	2
2026-02-11	16:17:21.610	-67.06	53.795	-28.315	1.05652	0.08052	0.42456	0.147	0.516	-0.225	0	434	303	3
2026-02-11	16:17:21.630	-61.39	61.075	-27.65	0.981612	0.05002	0.364048	0.1545	0.5205	-0.231	0	434	303	3
2026-02-11	16:17:21.650	-54.39	65.31	-29.19	0.932568	0.023424	0.315248	0.1575	0.528	-0.234	0	434	303	3
2026-02-11	16:17:21.670	-41.72	67.585	-33.495	0.926468	-0.02196	0.297192	0.171	0.5265	-0.246	0	434	303	3
2026-02-11	16:17:21.690	-22.61	70.035	-39.025	0.900604	-0.03904	0.282552	0.186	0.5325	-0.2535	0	434	303	3
2026-02-11	16:17:21.710	-3.815	70.35	-42.49	0.91744	-0.017568	0.257664	0.1905	0.5265	-0.2595	0	434	303	3
2026-02-11	16:17:21.730	7.595	69.93	-43.085	0.918416	0.031964	0.248636	0.198	0.5295	-0.276	0	434	303	3
2026-02-11	16:17:21.750	6.93	70.28	-41.825	0.88938	0.044164	0.254736	0.198	0.5295	-0.276	0	434	303	3
2026-02-11	16:17:21.770	4.62	69.825	-40.32	0.853512	0.028304	0.240096	0.2145	0.516	-0.288	0	434	303	3
2026-02-11	16:17:21.790	3.08	67.2	-35.7	0.861564	0.011468	0.2318	0.2385	0.501	-0.3	0	434	303	3
2026-02-11	16:17:21.810	5.04	63.35	-25.76	0.8601	0.0122	0.218624	0.2535	0.4965	-0.306	0	412	329	3
2026-02-11	16:17:21.830	10.36	57.19	-13.545	0.875228	0.01708	0.201544	0.267	0.4965	-0.3105	0	412	329	3
2026-02-11	16:17:21.850	16.905	48.825	0.105	0.90402	0.018544	0.187636	0.2745	0.492	-0.3135	0	412	329	3
2026-02-11	16:17:21.870	24.465	39.025	14.21	0.899628	0.047092	0.175436	0.276	0.486	-0.3165	0	412	329	3
2026-02-11	16:17:21.890	30.905	27.3	27.79	0.87474	0.054656	0.150792	0.2805	0.492	-0.327	0	412	329	3
2026-02-11	16:17:21.910	38.01	12.985	40.53	0.898408	0.084668	0.126392	0.294	0.489	-0.3165	0	412	329	3
2026-02-11	16:17:21.930	43.26	-3.99	53.34	0.993324	0.104188	0.144692	0.2925	0.483	-0.3195	0	412	329	3
2026-02-11	16:17:21.950	41.965	-23.94	71.19	1.146312	0.102724	0.220576	0.2805	0.477	-0.3195	0	412	329	3
2026-02-11	16:17:21.970	41.65	-38.185	90.055	1.240984	0.078568	0.238388	0.2745	0.477	-0.315	0	412	329	3
2026-02-11	16:17:21.990	50.925	-47.46	104.055	1.266116	0.084912	0.222528	0.2685	0.48	-0.3075	0	412	329	3
2026-02-11	16:17:22.010	56.805	-57.435	118.125	1.290028	0.088572	0.228628	0.2535	0.483	-0.3	0	385	324	3
2026-02-11	16:17:22.030	59.465	-63.385	128.065	1.2078	0.116876	0.270596	0.2325	0.4905	-0.2925	0	385	324	3
2026-02-11	16:17:22.050	48.265	-64.05	132.02	1.105808	0.09467199	0.343796	0.2205	0.498	-0.2835	0	385	324	3
2026-02-11	16:17:22.070	32.725	-57.645	132.09	1.04676	0.039528	0.36844	0.216	0.4995	-0.2805	0	385	324	3
2026-02-11	16:17:22.090	29.085	-49.105	128.835	0.99308	-0.000732	0.2989	0.201	0.516	-0.2715	0	385	324	3
2026-02-11	16:17:22.110	43.82	-44.66	122.78	0.969412	-0.049776	0.211548	0.192	0.5175	-0.2655	0	385	324	3
2026-02-11	16:17:22.130	76.93	-42.735	115.85	0.998448	-0.07515199	0.160064	0.1905	0.5325	-0.261	0	385	324	3
2026-02-11	16:17:22.150	115.71	-40.705	110.635	1.023336	-0.081008	0.133224	0.183	0.5385	-0.252	0	385	324	3
2026-02-11	16:17:22.170	167.615	-35.525	104.58	1.030168	-0.027328	0.09467199	0.1695	0.5265	-0.24	0	385	324	3
2026-02-11	16:17:22.190	191.835	-32.41	102.27	1.028216	0.015128	0.09467199	0.1605	0.525	-0.2325	0	385	324	3
2026-02-11	16:17:22.210	217.665	-29.015	98.665	1.009672	0.065636	0.10492	0.1455	0.519	-0.219	0	357	302	3
2026-02-11	16:17:22.230	241.185	-24.78	95.585	0.999668	0.089304	0.127612	0.135	0.5085	-0.2055	0	357	302	3
2026-02-11	16:17:22.250	263.025	-17.955	92.54	0.961116	0.146156	0.122976	0.132	0.498	-0.1935	0	357	302	3
2026-02-11	16:17:22.270	276.64	-13.23	88.445	0.925736	0.186416	0.108824	0.1335	0.4935	-0.1875	0	357	302	3
2026-02-11	16:17:22.290	280.735	-10.22	85.365	0.923052	0.196176	0.123952	0.12	0.4845	-0.1815	0	357	302	3
2026-02-11	16:17:22.310	278.075	-7	85.05	0.928664	0.20496	0.121268	0.1215	0.471	-0.1665	0	357	302	3
2026-02-11	16:17:22.330	275.73	-5.46	86.31	0.923296	0.23668	0.09028	0.111	0.462	-0.144	0	357	302	3
2026-02-11	16:17:22.350	269.605	-7.525	88.585	0.932324	0.257908	0.08174	0.1065	0.4485	-0.132	0	357	302	3
2026-02-11	16:17:22.370	247.87	-11.375	94.57	0.965508	0.265228	0.105896	0.1065	0.4395	-0.1065	0	357	302	3
2026-02-11	16:17:22.390	223.02	-15.68	102.445	0.97234	0.261812	0.109068	0.1065	0.4395	-0.1065	0	357	302	3
2026-02-11	16:17:22.410	213.71	-20.895	108.535	0.977464	0.268888	0.100772	0.0885	0.441	-0.0885	0	330	269	2
2026-02-11	16:17:22.430	203.595	-27.02	115.43	1.001864	0.271572	0.142252	0.0735	0.45	-0.0555	0	330	269	2
2026-02-11	16:17:22.450	193.34	-33.145	123.69	1.034072	0.29402	0.202764	0.0675	0.4635	-0.039	0	330	269	2
2026-02-11	16:17:22.470	183.4	-39.025	131.075	1.066036	0.334524	0.25254	0.0585	0.468	-0.0285	0	330	269	2
2026-02-11	16:17:22.490	176.575	-44.205	136.15	1.080676	0.365512	0.300364	0.057	0.468	-0.0195	0	330	269	2
2026-02-11	16:17:22.510	170.485	-45.605	137.55	1.106052	0.4514	0.3843	0.045	0.4815	0.0045	0	330	269	2
2026-02-11	16:17:22.530	144.27	-43.365	136.43	1.148264	0.54656	0.413824	0.036	0.5085	0.009	0	330	269	2
2026-02-11	16:17:22.550	103.915	-40.67	129.185	1.134112	0.624152	0.391376	0.0315	0.525	0.0195	0	330	269	2
2026-02-11	16:17:22.570	48.37	-39.725	113.75	1.1468	0.71736	0.371368	0.036	0.5415	0.0285	0	330	269	2
2026-02-11	16:17:22.590	-51.52	-41.72	86.695	1.222196	0.714432	0.415288	0.0225	0.567	0.0405	0	330	269	2
2026-02-11	16:17:22.610	-132.685	-36.645	52.15	1.070672	0.567788	0.433832	0.021	0.5775	0.0465	0	307	247	3
2026-02-11	16:17:22.630	-159.32	-34.825	21.385	1.021628	0.531188	0.44896	0.024	0.5955	0.0555	0	307	247	3
2026-02-11	16:17:22.650	-180.985	-35.21	-4.83	0.981124	0.403332	0.493612	0.024	0.6015	0.063	0	307	247	3
2026-02-11	16:17:22.670	-178.955	-22.575	-31.605	0.91744	0.295728	0.49776	0.0255	0.5955	0.069	0	307	247	3
2026-02-11	16:17:22.690	-162.68	-8.785	-55.125	0.972828	0.205448	0.445056	0.0285	0.5925	0.0705	0	307	247	3
2026-02-11	16:17:22.710	-144.9	2.73	-72.59	1.119472	0.181536	0.38308	0.024	0.591	0.069	0	307	247	3
2026-02-11	16:17:22.730	-132.615	12.775	-86.1	1.29808	0.210572	0.361364	0.018	0.5775	0.072	0	307	247	3
2026-02-11	16:17:22.750	-131.74	21.245	-99.715	1.404952	0.197152	0.410896	0.021	0.564	0.072	0	307	247	3
2026-02-11	16:17:22.770	-138.81	30.835	-111.58	1.464732	0.136884	0.45384	0.0225	0.5535	0.063	0	307	247	3
2026-02-11	16:17:22.790	-144.865	43.68	-122.57	1.41764	0.094184	0.467748	0.021	0.5355	0.054	0	307	247	3
2026-02-11	16:17:10.810	113.82	-47.705	-7.14	0.877668	-0.005368	0.381616	0.0885	0.6885	-0.102	0	300	213	3
2026-02-11	16:17:10.830	112.735	-41.195	-11.76	0.874984	0.036356	0.4453	0.0795	0.693	-0.087	0	300	213	3
2026-02-11	16:17:10.850	108.815	-31.57	-14.84	0.837408	0.091256	0.440908	0.075	0.678	-0.0945	0	300	213	3
2026-02-11	16:17:10.870	94.36	-24.64	-16.065	0.856928	0.152256	0.418948	0.0765	0.666	-0.084	0	300	213	3
2026-02-11	16:17:10.890	60.48	-19.95	-15.855	0.934764	0.151036	0.416752	0.075	0.6615	-0.0885	0	300	213	3
2026-02-11	16:17:10.910	22.19	-12.88	-14.7	0.9028	0.084424	0.40138	0.072	0.6555	-0.0915	0	300	213	3
2026-02-11	16:17:10.930	-4.69	-6.16	-13.79	0.8784	0.042456	0.370392	0.072	0.6495	-0.0855	0	300	213	3
2026-02-11	16:17:10.950	-26.425	-1.47	-12.88	0.932324	0.04148	0.37942	0.0735	0.645	-0.081	0	300	213	3
2026-02-11	16:17:10.970	-47.985	4.76	-12.915	0.955748	0.015372	0.380396	0.0585	0.651	-0.0795	0	300	213	3
2026-02-11	16:17:10.990	-62.09	12.285	-14.875	1.009428	-0.024888	0.3477	0.075	0.6525	-0.0795	0	300	213	3
2026-02-11	16:16:37.010	308.84	26.04	-39.865	-1.011136	0.42822	-0.064904	0.954	0.54	0.0615	0	451	260	3
2026-02-11	16:16:37.030	237.685	12.74	-36.05	-0.99674	0.370636	-0.179828	0.9495	0.537	0.0765	0	451	260	3
2026-02-11	16:16:37.050	169.575	1.995	-30.485	-0.935008	0.351116	-0.040748	0.9555	0.543	0.0795	0	451	260	3
2026-02-11	16:16:37.070	120.015	-2.275	-25.62	-0.939156	0.304268	-0.137372	0.963	0.552	0.075	0	451	260	3
2026-02-11	16:16:37.090	104.86	-6.44	-27.545	-0.933544	0.34526	-0.241316	0.9615	0.552	0.081	0	451	260	3
2026-02-11	16:16:37.110	85.96	-9.765	-29.015	-0.986004	0.339404	-0.18178	0.9615	0.5535	0.0885	0	451	260	3
2026-02-11	16:16:37.130	62.895	-17.36	-27.685	-0.966728	0.290116	-0.109556	0.963	0.558	0.0915	0	451	260	3
2026-02-11	16:16:37.150	73.85	-19.845	-31.64	-0.96136	0.337696	-0.027572	0.9645	0.5655	0.0915	0	451	260	3
2026-02-11	16:16:37.170	108.255	-17.745	-40.74	-0.981612	0.33184	0.040016	0.966	0.5715	0.0915	0	451	260	3
2026-02-11	16:16:37.190	139.965	-12.18	-50.575	-0.936716	0.396012	-0.04392	0.963	0.5715	0.0855	0	451	260	3
2026-02-11	16:17:09.210	7.35	-1.26	-1.75	1.024312	0.12444	0.113704	0.2775	0.384	-0.2745	0	331	76	2
2026-02-11	16:17:09.230	-4.235	-17.325	22.26	1.009672	0.145912	0.230824	0.2775	0.384	-0.2745	0	331	76	2
2026-02-11	16:17:09.250	-21.28	-24.885	37.065	1.019432	0.144204	0.262788	0.2775	0.384	-0.2745	0	331	76	2
2026-02-11	16:17:09.270	-38.045	-34.02	51.135	1.044076	0.12444	0.247172	0.276	0.3945	-0.276	0	331	76	2
2026-02-11	16:17:09.290	-48.685	-45.465	63.945	1.076772	0.099552	0.233996	0.2595	0.402	-0.2745	0	331	76	2
2026-02-11	16:17:09.310	-52.85	-57.19	75.215	1.063352	0.07905599	0.248148	0.2535	0.4095	-0.2715	0	331	76	2
2026-02-11	16:17:09.330	-56.35	-67.06	83.895	0.993812	0.057828	0.278648	0.249	0.429	-0.2655	0	331	76	2
2026-02-11	16:17:09.350	-60.34	-75.53	88.725	0.948916	0.038308	0.293532	0.2325	0.4335	-0.2715	0	331	76	2
2026-02-11	16:17:09.370	-63.875	-83.09	91.385	0.964044	0.0305	0.321104	0.219	0.447	-0.261	0	331	76	2
2026-02-11	16:17:09.390	-71.085	-86.905	93.45	0.975756	0.013908	0.364536	0.2025	0.4725	-0.2565	0	331	76	2
2026-02-11	16:17:09.410	-76.51	-87.85	93.065	0.991372	0.003416	0.375516	0.1845	0.4875	-0.249	0	392	97	2
2026-02-11	16:17:09.430	-76.405	-88.095	89.495	1.020164	-0.022936	0.349408	0.1755	0.4965	-0.24	0	392	97	2
2026-02-11	16:17:09.450	-56	-86.38	80.465	1.033828	-0.08662	0.301584	0.1665	0.5055	-0.2325	0	392	97	2
2026-02-11	16:17:09.470	-26.18	-82.705	73.815	1.035292	-0.074176	0.278892	0.147	0.5415	-0.2205	0	392	97	2
2026-02-11	16:17:09.490	-2.695	-77.595	68.845	1.028704	-0.075396	0.273036	0.138	0.5565	-0.21	0	392	97	2
2026-02-11	16:17:09.510	13.02	-72.24	64.995	1.016992	-0.068808	0.27694	0.123	0.5625	-0.1935	0	392	97	2
2026-02-11	16:17:09.530	30.625	-66.01	60.795	0.985516	-0.049044	0.266448	0.111	0.5745	-0.1965	0	392	97	2
2026-02-11	16:17:09.550	48.02	-61.67	56.07	0.946232	-0.027084	0.274744	0.1125	0.57	-0.1815	0	392	97	2
2026-02-11	16:17:09.570	65.73	-58.975	52.745	0.922808	-0.032452	0.313784	0.1065	0.5805	-0.177	0	392	97	2
2026-02-11	16:17:09.590	84.035	-55.895	51.24	0.91622	-0.007076	0.343796	0.0885	0.5895	-0.1575	0	392	97	2
2026-02-11	16:17:21.610	-67.06	53.795	-28.315	1.05652	0.08052	0.42456	0.147	0.516	-0.225	0	434	303	3
2026-02-11	16:17:21.630	-61.39	61.075	-27.65	0.981612	0.05002	0.364048	0.1545	0.5205	-0.231	0	434	303	3
2026-02-11	16:17:21.650	-54.39	65.31	-29.19	0.932568	0.023424	0.315248	0.1575	0.528	-0.234	0	434	303	3
2026-02-11	16:17:21.670	-41.72	67.585	-33.495	0.926468	-0.02196	0.297192	0.171	0.5265	-0.246	0	434	303	3
2026-02-11	16:17:21.690	-22.61	70.035	-39.025	0.900604	-0.03904	0.282552	0.186	0.5325	-0.2535	0	434	303	3
2026-02-11	16:17:21.710	-3.815	70.35	-42.49	0.91744	-0.017568	0.257664	0.1905	0.5265	-0.2595	0	434	303	3
2026-02-11	16:17:21.730	7.595	69.93	-43.085	0.918416	0.031964	0.248636	0.198	0.5295	-0.276	0	434	303	3
2026-02-11	16:17:21.750	6.93	70.28	-41.825	0.88938	0.044164	0.254736	0.198	0.5295	-0.276	0	434	303	3
2026-02-11	16:17:21.770	4.62	69.825	-40.32	0.853512	0.028304	0.240096	0.2145	0.516	-0.288	0	434	303	3
2026-02-11	16:17:21.790	3.08	67.2	-35.7	0.861564	0.011468	0.2318	0.2385	0.501	-0.3	0	434	303	3
2026-02-11	16:17:21.810	5.04	63.35	-25.76	0.8601	0.0122	0.218624	0.2535	0.4965	-0.306	0	412	329	3
2026-02-11	16:17:21.830	10.36	57.19	-13.545	0.875228	0.01708	0.201544	0.267	0.4965	-0.3105	0	412	329	3
2026-02-11	16:17:21.850	16.905	48.825	0.105	0.90402	0.018544	0.187636	0.2745	0.492	-0.3135	0	412	329	3
2026-02-11	16:17:21.870	24.465	39.025	14.21	0.899628	0.047092	0.175436	0.276	0.486	-0.3165	0	412	329	3
2026-02-11	16:17:21.890	30.905	27.3	27.79	0.87474	0.054656	0.150792	0.2805	0.492	-0.327	0	412	329	3
2026-02-11	16:17:21.910	38.01	12.985	40.53	0.898408	0.084668	0.126392	0.294	0.489	-0.3165	0	412	329	3
2026-02-11	16:17:21.930	43.26	-3.99	53.34	0.993324	0.104188	0.144692	0.2925	0.483	-0.3195	0	412	329	3
2026-02-11	16:17:21.950	41.965	-23.94	71.19	1.146312	0.102724	0.220576	0.2805	0.477	-0.3195	0	412	329	3
2026-02-11	16:17:21.970	41.65	-38.185	90.055	1.240984	0.078568	0.238388	0.2745	0.477	-0.315	0	412	329	3
2026-02-11	16:17:21.990	50.925	-47.46	104.055	1.266116	0.084912	0.222528	0.2685	0.48	-0.3075	0	412	329	3
2026-02-11	16:17:22.010	56.805	-57.435	118.125	1.290028	0.088572	0.228628	0.2535	0.483	-0.3	0	385	324	3
2026-02-11	16:17:22.030	59.465	-63.385	128.065	1.2078	0.116876	0.270596	0.2325	0.4905	-0.2925	0	385	324	3
2026-02-11	16:17:22.050	48.265	-64.05	132.02	1.105808	0.09467199	0.343796	0.2205	0.498	-0.2835	0	385	324	3
2026-02-11	16:17:22.070	32.725	-57.645	132.09	1.04676	0.039528	0.36844	0.216	0.4995	-0.2805	0	385	324	3
2026-02-11	16:17:22.090	29.085	-49.105	128.835	0.99308	-0.000732	0.2989	0.201	0.516	-0.2715	0	385	324	3
2026-02-11	16:17:22.110	43.82	-44.66	122.78	0.969412	-0.049776	0.211548	0.192	0.5175	-0.2655	0	385	324	3
2026-02-11	16:17:22.130	76.93	-42.735	115.85	0.998448	-0.07515199	0.160064	0.1905	0.5325	-0.261	0	385	324	3
2026-02-11	16:17:22.150	115.71	-40.705	110.635	1.023336	-0.081008	0.133224	0.183	0.5385	-0.252	0	385	324	3
2026-02-11	16:17:22.170	167.615	-35.525	104.58	1.030168	-0.027328	0.09467199	0.1695	0.5265	-0.24	0	385	324	3
2026-02-11	16:17:22.190	191.835	-32.41	102.27	1.028216	0.015128	0.09467199	0.1605	0.525	-0.2325	0	385	324	3
2026-02-11	16:17:22.210	217.665	-29.015	98.665	1.009672	0.065636	0.10492	0.1455	0.519	-0.219	0	357	302	3
2026-02-11	16:17:22.230	241.185	-24.78	95.585	0.999668	0.089304	0.127612	0.135	0.5085	-0.2055	0	357	302	3
2026-02-11	16:17:22.250	263.025	-17.955	92.54	0.961116	0.146156	0.122976	0.132	0.498	-0.1935	0	357	302	3
2026-02-11	16:17:22.270	276.64	-13.23	88.445	0.925736	0.186416	0.108824	0.1335	0.4935	-0.1875	0	357	302	3
2026-02-11	16:17:22.290	280.735	-10.22	85.365	0.923052	0.196176	0.123952	0.12	0.4845	-0.1815	0	357	302	3
2026-02-11	16:17:22.310	278.075	-7	85.05	0.928664	0.20496	0.121268	0.1215	0.471	-0.1665	0	357	302	3
2026-02-11	16:17:22.330	275.73	-5.46	86.31	0.923296	0.23668	0.09028	0.111	0.462	-0.144	0	357	302	3
2026-02-11	16:17:22.350	269.605	-7.525	88.585	0.932324	0.257908	0.08174	0.1065	0.4485	-0.132	0	357	302	3
2026-02-11	16:17:22.370	247.87	-11.375	94.57	0.965508	0.265228	0.105896	0.1065	0.4395	-0.1065	0	357	302	3
2026-02-11	16:17:22.390	223.02	-15.68	102.445	0.97234	0.261812	0.109068	0.1065	0.4395	-0.1065	0	357	302	3
2026-02-11	16:17:22.410	213.71	-20.895	108.535	0.977464	0.268888	0.100772	0.0885	0.441	-0.0885	0	330	269	2
2026-02-11	16:17:22.430	203.595	-27.02	115.43	1.001864	0.271572	0.142252	0.0735	0.45	-0.0555	0	330	269	2
2026-02-11	16:17:22.450	193.34	-33.145	123.69	1.034072	0.29402	0.202764	0.0675	0.4635	-0.039	0	330	269	2
2026-02-11	16:17:22.470	183.4	-39.025	131.075	1.066036	0.334524	0.25254	0.0585	0.468	-0.0285	0	330	269	2
2026-02-11	16:17:22.490	176.575	-44.205	136.15	1.080676	0.365512	0.300364	0.057	0.468	-0.0195	0	330	269	2
2026-02-11	16:17:22.510	170.485	-45.605	137.55	1.106052	0.4514	0.3843	0.045	0.4815	0.0045	0	330	269	2
2026-02-11	16:17:22.530	144.27	-43.365	136.43	1.148264	0.54656	0.413824	0.036	0.5085	0.009	0	330	269	2
2026-02-11	16:17:22.550	103.915	-40.67	129.185	1.134112	0.624152	0.391376	0.0315	0.525	0.0195	0	330	269	2
2026-02-11	16:17:22.570	48.37	-39.725	113.75	1.1468	0.71736	0.371368	0.036	0.5415	0.0285	0	330	269	2
2026-02-11	16:17:22.590	-51.52	-41.72	86.695	1.222196	0.714432	0.415288	0.0225	0.567	0.0405	0	330	269	2
2026-02-11	16:17:22.610	-132.685	-36.645	52.15	1.070672	0.567788	0.433832	0.021	0.5775	0.0465	0	307	247	3
2026-02-11	16:17:22.630	-159.32	-34.825	21.385	1.021628	0.531188	0.44896	0.024	0.5955	0.0555	0	307	247	3
2026-02-11	16:17:22.650	-180.985	-35.21	-4.83	0.981124	0.403332	0.493612	0.024	0.6015	0.063	0	307	247	3
2026-02-11	16:17:22.670	-178.955	-22.575	-31.605	0.91744	0.295728	0.49776	0.0255	0.5955	0.069	0	307	247	3
2026-02-11	16:17:22.690	-162.68	-8.785	-55.125	0.972828	0.205448	0.445056	0.0285	0.5925	0.0705	0	307	247	3
2026-02-11	16:17:22.710	-144.9	2.73	-72.59	1.119472	0.181536	0.38308	0.024	0.591	0.069	0	307	247	3
2026-02-11	16:17:22.730	-132.615	12.775	-86.1	1.29808	0.210572	0.361364	0.018	0.5775	0.072	0	307	247	3
2026-02-11	16:17:22.750	-131.74	21.245	-99.715	1.404952	0.197152	0.410896	0.021	0.564	0.072	0	307	247	3
2026-02-11	16:17:22.770	-138.81	30.835	-111.58	1.464732	0.136884	0.45384	0.0225	0.5535	0.063	0	307	247	3
2026-02-11	16:17:22.790	-144.865	43.68	-122.57	1.41764	0.094184	0.467748	0.021	0.5355	0.054	0	307	247	3
2026-02-11	16:17:10.810	113.82	-47.705	-7.14	0.877668	-0.005368	0.381616	0.0885	0.6885	-0.102	0	300	213	3
2026-02-11	16:17:10.830	112.735	-41.195	-11.76	0.874984	0.036356	0.4453	0.0795	0.693	-0.087	0	300	213	3
2026-02-11	16:17:10.850	108.815	-31.57	-14.84	0.837408	0.091256	0.440908	0.075	0.678	-0.0945	0	300	213	3
2026-02-11	16:17:10.870	94.36	-24.64	-16.065	0.856928	0.152256	0.418948	0.0765	0.666	-0.084	0	300	213	3
2026-02-11	16:17:10.890	60.48	-19.95	-15.855	0.934764	0.151036	0.416752	0.075	0.6615	-0.0885	0	300	213	3
2026-02-11	16:17:10.910	22.19	-12.88	-14.7	0.9028	0.084424	0.40138	0.072	0.6555	-0.0915	0	300	213	3
2026-02-11	16:17:10.930	-4.69	-6.16	-13.79	0.8784	0.042456	0.370392	0.072	0.6495	-0.0855	0	300	213	3
2026-02-11	16:17:10.950	-26.425	-1.47	-12.88	0.932324	0.04148	0.37942	0.0735	0.645	-0.081	0	300	213	3
2026-02-11	16:17:10.970	-47.985	4.76	-12.915	0.955748	0.015372	0.380396	0.0585	0.651	-0.0795	0	300	213	3
2026-02-11	16:17:10.990	-62.09	12.285	-14.875	1.009428	-0.024888	0.3477	0.075	0.6525	-0.0795	0	300	213	3
2026-02-11	16:16:37.010	308.84	26.04	-39.865	-1.011136	0.42822	-0.064904	0.954	0.54	0.0615	0	451	260	3
2026-02-11	16:16:37.030	237.685	12.74	-36.05	-0.99674	0.370636	-0.179828	0.9495	0.537	0.0765	0	451	260	3
2026-02-11	16:16:37.050	169.575	1.995	-30.485	-0.935008	0.351116	-0.040748	0.9555	0.543	0.0795	0	451	260	3
2026-02-11	16:16:37.070	120.015	-2.275	-25.62	-0.939156	0.304268	-0.137372	0.963	0.552	0.075	0	451	260	3
2026-02-11	16:16:37.090	104.86	-6.44	-27.545	-0.933544	0.34526	-0.241316	0.9615	0.552	0.081	0	451	260	3
2026-02-11	16:16:37.110	85.96	-9.765	-29.015	-0.986004	0.339404	-0.18178	0.9615	0.5535	0.0885	0	451	260	3
2026-02-11	16:16:37.130	62.895	-17.36	-27.685	-0.966728	0.290116	-0.109556	0.963	0.558	0.0915	0	451	260	3
2026-02-11	16:16:37.150	73.85	-19.845	-31.64	-0.96136	0.337696	-0.027572	0.9645	0.5655	0.0915	0	451	260	3
2026-02-11	16:16:37.170	108.255	-17.745	-40.74	-0.981612	0.33184	0.040016	0.966	0.5715	0.0915	0	451	260	3
2026-02-11	16:16:37.190	139.965	-12.18	-50.575	-0.936716	0.396012	-0.04392	0.963	0.5715	0.0855	0	451	260	3
2026-02-11	16:17:09.210	7.35	-1.26	-1.75	1.024312	0.12444	0.113704	0.2775	0.384	-0.2745	0	331	76	2
2026-02-11	16:17:09.230	-4.235	-17.325	22.26	1.009672	0.145912	0.230824	0.2775	0.384	-0.2745	0	331	76	2
2026-02-11	16:17:09.250	-21.28	-24.885	37.065	1.019432	0.144204	0.262788	0.2775	0.384	-0.2745	0	331	76	2
2026-02-11	16:17:09.270	-38.045	-34.02	51.135	1.044076	0.12444	0.247172	0.276	0.3945	-0.276	0	331	76	2
2026-02-11	16:17:09.290	-48.685	-45.465	63.945	1.076772	0.099552	0.233996	0.2595	0.402	-0.2745	0	331	76	2
2026-02-11	16:17:09.310	-52.85	-57.19	75.215	1.063352	0.07905599	0.248148	0.2535	0.4095	-0.2715	0	331	76	2
2026-02-11	16:17:09.330	-56.35	-67.06	83.895	0.993812	0.057828	0.278648	0.249	0.429	-0.2655	0	331	76	2
2026-02-11	16:17:09.350	-60.34	-75.53	88.725	0.948916	0.038308	0.293532	0.2325	0.4335	-0.2715	0	331	76	2
2026-02-11	16:17:09.370	-63.875	-83.09	91.385	0.964044	0.0305	0.321104	0.219	0.447	-0.261	0	331	76	2
2026-02-11	16:17:09.390	-71.085	-86.905	93.45	0.975756	0.013908	0.364536	0.2025	0.4725	-0.2565	0	331	76	2
2026-02-11	16:17:09.410	-76.51	-87.85	93.065	0.991372	0.003416	0.375516	0.1845	0.4875	-0.249	0	392	97	2
2026-02-11	16:17:09.430	-76.405	-88.095	89.495	1.020164	-0.022936	0.349408	0.1755	0.4965	-0.24	0	392	97	2
2026-02-11	16:17:09.450	-56	-86.38	80.465	1.033828	-0.08662	0.301584	0.1665	0.5055	-0.2325	0	392	97	2
2026-02-11	16:17:09.470	-26.18	-82.705	73.815	1.035292	-0.074176	0.278892	0.147	0.5415	-0.2205	0	392	97	2
2026-02-11	16:17:09.490	-2.695	-77.595	68.845	1.028704	-0.075396	0.273036	0.138	0.5565	-0.21	0	392	97	2
2026-02-11	16:17:09.510	13.02	-72.24	64.995	1.016992	-0.068808	0.27694	0.123	0.5625	-0.1935	0	392	97	2
2026-02-11	16:17:09.530	30.625	-66.01	60.795	0.985516	-0.049044	0.266448	0.111	0.5745	-0.1965	0	392	97	2
2026-02-11	16:17:09.550	48.02	-61.67	56.07	0.946232	-0.027084	0.274744	0.1125	0.57	-0.1815	0	392	97	2
2026-02-11	16:17:09.570	65.73	-58.975	52.745	0.922808	-0.032452	0.313784	0.1065	0.5805	-0.177	0	392	97	2
2026-02-11	16:17:09.590	84.035	-55.895	51.24	0.91622	-0.007076	0.343796	0.0885	0.5895	-0.1575	0	392	97	2
2026-02-11	16:17:21.610	-67.06	53.795	-28.315	1.05652	0.08052	0.42456	0.147	0.516	-0.225	0	434	303	3
2026-02-11	16:17:21.630	-61.39	61.075	-27.65	0.981612	0.05002	0.364048	0.1545	0.5205	-0.231	0	434	303	3
2026-02-11	16:17:21.650	-54.39	65.31	-29.19	0.932568	0.023424	0.315248	0.1575	0.528	-0.234	0	434	303	3
2026-02-11	16:17:21.670	-41.72	67.585	-33.495	0.926468	-0.02196	0.297192	0.171	0.5265	-0.246	0	434	303	3
2026-02-11	16:17:21.690	-22.61	70.035	-39.025	0.900604	-0.03904	0.282552	0.186	0.5325	-0.2535	0	434	303	3
2026-02-11	16:17:21.710	-3.815	70.35	-42.49	0.91744	-0.017568	0.257664	0.1905	0.5265	-0.2595	0	434	303	3
2026-02-11	16:17:21.730	7.595	69.93	-43.085	0.918416	0.031964	0.248636	0.198	0.5295	-0.276	0	434	303	3
2026-02-11	16:17:21.750	6.93	70.28	-41.825	0.88938	0.044164	0.254736	0.198	0.5295	-0.276	0	434	303	3
2026-02-11	16:17:21.770	4.62	69.825	-40.32	0.853512	0.028304	0.240096	0.2145	0.516	-0.288	0	434	303	3
2026-02-11	16:17:21.790	3.08	67.2	-35.7	0.861564	0.011468	0.2318	0.2385	0.501	-0.3	0	434	303	3
2026-02-11	16:17:21.810	5.04	63.35	-25.76	0.8601	0.0122	0.218624	0.2535	0.4965	-0.306	0	412	329	3
2026-02-11	16:17:21.830	10.36	57.19	-13.545	0.875228	0.01708	0.201544	0.267	0.4965	-0.3105	0	412	329	3
2026-02-11	16:17:21.850	16.905	48.825	0.105	0.90402	0.018544	0.187636	0.2745	0.492	-0.3135	0	412	329	3
2026-02-11	16:17:21.870	24.465	39.025	14.21	0.899628	0.047092	0.175436	0.276	0.486	-0.3165	0	412	329	3
2026-02-11	16:17:21.890	30.905	27.3	27.79	0.87474	0.054656	0.150792	0.2805	0.492	-0.327	0	412	329	3
2026-02-11	16:17:21.910	38.01	12.985	40.53	0.898408	0.084668	0.126392	0.294	0.489	-0.3165	0	412	329	3
2026-02-11	16:17:21.930	43.26	-3.99	53.34	0.993324	0.104188	0.144692	0.2925	0.483	-0.3195	0	412	329	3
2026-02-11	16:17:21.950	41.965	-23.94	71.19	1.146312	0.102724	0.220576	0.2805	0.477	-0.3195	0	412	329	3
2026-02-11	16:17:21.970	41.65	-38.185	90.055	1.240984	0.078568	0.238388	0.2745	0.477	-0.315	0	412	329	3
2026-02-11	16:17:21.990	50.925	-47.46	104.055	1.266116	0.084912	0.222528	0.2685	0.48	-0.3075	0	412	329	3
2026-02-11	16:17:22.010	56.805	-57.435	118.125	1.290028	0.088572	0.228628	0.2535	0.483	-0.3	0	385	324	3
2026-02-11	16:17:22.030	59.465	-63.385	128.065	1.2078	0.116876	0.270596	0.2325	0.4905	-0.2925	0	385	324	3
2026-02-11	16:17:22.050	48.265	-64.05	132.02	1.105808	0.09467199	0.343796	0.2205	0.498	-0.2835	0	385	324	3
2026-02-11	16:17:22.070	32.725	-57.645	132.09	1.04676	0.039528	0.36844	0.216	0.4995	-0.2805	0	385	324	3
2026-02-11	16:17:22.090	29.085	-49.105	128.835	0.99308	-0.000732	0.2989	0.201	0.516	-0.2715	0	385	324	3
2026-02-11	16:17:22.110	43.82	-44.66	122.78	0.969412	-0.049776	0.211548	0.192	0.5175	-0.2655	0	385	324	3
2026-02-11	16:17:22.130	76.93	-42.735	115.85	0.998448	-0.07515199	0.160064	0.1905	0.5325	-0.261	0	385	324	3
2026-02-11	16:17:22.150	115.71	-40.705	110.635	1.023336	-0.081008	0.133224	0.183	0.5385	-0.252	0	385	324	3
2026-02-11	16:17:22.170	167.615	-35.525	104.58	1.030168	-0.027328	0.09467199	0.1695	0.5265	-0.24	0	385	324	3
2026-02-11	16:17:22.190	191.835	-32.41	102.27	1.028216	0.015128	0.09467199	0.1605	0.525	-0.2325	0	385	324	3
2026-02-11	16:17:22.210	217.665	-29.015	98.665	1.009672	0.065636	0.10492	0.1455	0.519	-0.219	0	357	302	3
2026-02-11	16:17:22.230	241.185	-24.78	95.585	0.999668	0.089304	0.127612	0.135	0.5085	-0.2055	0	357	302	3
2026-02-11	16:17:22.250	263.025	-17.955	92.54	0.961116	0.146156	0.122976	0.132	0.498	-0.1935	0	357	302	3
2026-02-11	16:17:22.270	276.64	-13.23	88.445	0.925736	0.186416	0.108824	0.1335	0.4935	-0.1875	0	357	302	3
2026-02-11	16:17:22.290	280.735	-10.22	85.365	0.923052	0.196176	0.123952	0.12	0.4845	-0.1815	0	357	302	3
2026-02-11	16:17:22.310	278.075	-7	85.05	0.928664	0.20496	0.121268	0.1215	0.471	-0.1665	0	357	302	3
2026-02-11	16:17:22.330	275.73	-5.46	86.31	0.923296	0.23668	0.09028	0.111	0.462	-0.144	0	357	302	3
2026-02-11	16:17:22.350	269.605	-7.525	88.585	0.932324	0.257908	0.08174	0.1065	0.4485	-0.132	0	357	302	3
2026-02-11	16:17:22.370	247.87	-11.375	94.57	0.965508	0.265228	0.105896	0.1065	0.4395	-0.1065	0	357	302	3
2026-02-11	16:17:22.390	223.02	-15.68	102.445	0.97234	0.261812	0.109068	0.1065	0.4395	-0.1065	0	357	302	3
2026-02-11	16:17:22.410	213.71	-20.895	108.535	0.977464	0.268888	0.100772	0.0885	0.441	-0.0885	0	330	269	2
2026-02-11	16:17:22.430	203.595	-27.02	115.43	1.001864	0.271572	0.142252	0.0735	0.45	-0.0555	0	330	269	2
2026-02-11	16:17:22.450	193.34	-33.145	123.69	1.034072	0.29402	0.202764	0.0675	0.4635	-0.039	0	330	269	2
2026-02-11	16:17:22.470	183.4	-39.025	131.075	1.066036	0.334524	0.25254	0.0585	0.468	-0.0285	0	330	269	2
2026-02-11	16:17:22.490	176.575	-44.205	136.15	1.080676	0.365512	0.300364	0.057	0.468	-0.0195	0	330	269	2
2026-02-11	16:17:22.510	170.485	-45.605	137.55	1.106052	0.4514	0.3843	0.045	0.4815	0.0045	0	330	269	2
2026-02-11	16:17:22.530	144.27	-43.365	136.43	1.148264	0.54656	0.413824	0.036	0.5085	0.009	0	330	269	2
2026-02-11	16:17:22.550	103.915	-40.67	129.185	1.134112	0.624152	0.391376	0.0315	0.525	0.0195	0	330	269	2
2026-02-11	16:17:22.570	48.37	-39.725	113.75	1.1468	0.71736	0.371368	0.036	0.5415	0.0285	0	330	269	2
2026-02-11	16:17:22.590	-51.52	-41.72	86.695	1.222196	0.714432	0.415288	0.0225	0.567	0.0405	0	330	269	2
2026-02-11	16:17:22.610	-132.685	-36.645	52.15	1.070672	0.567788	0.433832	0.021	0.5775	0.0465	0	307	247	3
2026-02-11	16:17:22.630	-159.32	-34.825	21.385	1.021628	0.531188	0.44896	0.024	0.5955	0.0555	0	307	247	3
