yyyy-MM-dd	HH:mm:ss.fff	gyrX	gyrY	gyrZ	accX	accY	accZ	magX	magY	magZ	Marker	Energy	Angle	Classification
2026-02-11	16:16:38.010	-0.14	0.105	-0.455	0.00732	-0.011468	1.009184	1.4025	1.125	0.453	0	23	1030	1
2026-02-11	16:16:38.030	-0.105	0.14	-0.49	0.01098	-0.010492	1.010892	1.4055	1.131	0.4515	0	23	1030	1
2026-02-11	16:16:38.050	-0.105	0.14	-0.455	0.00854	-0.00976	1.006988	1.4055	1.1325	0.4485	0	23	1030	1
2026-02-11	16:16:38.070	-0.07	0.14	-0.455	0.009272	-0.010736	1.005036	1.4025	1.128	0.447	0	23	1030	1
2026-02-11	16:16:38.090	-0.105	0.105	-0.455	0.008784	-0.00976	1.006256	1.401	1.128	0.4515	0	23	1030	1
2026-02-11	16:16:38.110	-0.175	0.14	-0.49	0.011956	-0.013176	1.014308	1.4085	1.128	0.4485	0	23	1030	1
2026-02-11	16:16:38.130	-0.105	0.14	-0.455	0.009516	-0.011712	1.012844	1.4055	1.1295	0.4575	0	23	1030	1
2026-02-11	16:16:38.150	-0.07	0.105	-0.455	0.00976	-0.007808	1.00284	1.4025	1.1265	0.456	0	23	1030	1
2026-02-11	16:16:38.170	-0.14	0.14	-0.455	0.012932	-0.011468	1.006988	1.4085	1.1325	0.4545	0	23	1030	1
2026-02-11	16:16:38.190	-0.14	0.14	-0.455	0.012932	-0.007564	1.010404	1.4055	1.125	0.459	0	23	1030	1
2026-02-11	16:16:38.210	-0.105	0.105	-0.455	0.00854	-0.00854	1.002352	1.4025	1.1325	0.4515	0	20	1030	1
2026-02-11	16:16:38.230	-0.175	0.105	-0.49	0.011468	-0.011956	1.010892	1.4025	1.125	0.453	0	20	1030	1
2026-02-11	16:16:38.250	-0.14	0.175	-0.455	0.010248	-0.014396	1.012844	1.4055	1.1295	0.4545	0	20	1030	1
2026-02-11	16:16:38.270	-0.07	0.14	-0.455	0.01098	-0.00854	1.006744	1.401	1.134	0.459	0	20	1030	1
2026-02-11	16:16:38.290	-0.105	0.105	-0.455	0.011712	-0.008052	1.006744	1.401	1.134	0.456	0	20	1030	1
2026-02-11	16:16:38.310	-0.14	0.105	-0.455	0.01098	-0.00854	1.008452	1.4025	1.128	0.45	0	20	1030	1
2026-02-11	16:16:38.330	-0.14	0.14	-0.49	0.009516	-0.010736	1.010404	1.404	1.1235	0.4485	0	20	1030	1
2026-02-11	16:16:38.350	-0.105	0.105	-0.455	0.012932	-0.011712	1.013332	1.404	1.1235	0.4485	0	20	1030	1
2026-02-11	16:16:38.370	-0.07	0.105	-0.49	0.011712	-0.008784	1.005524	1.4055	1.1265	0.456	0	20	1030	1
2026-02-11	16:16:38.390	-0.105	0.14	-0.455	0.011468	-0.009516	1.003084	1.4055	1.128	0.4515	0	20	1030	1
2026-02-11	16:16:38.410	-0.14	0.105	-0.455	0.011468	-0.009028	1.01138	1.404	1.131	0.453	0	17	1030	1
2026-02-11	16:16:38.430	-0.105	0.105	-0.455	0.01098	-0.009516	1.01138	1.404	1.1235	0.4545	0	17	1030	1
2026-02-11	16:16:38.450	-0.105	0.14	-0.455	0.00732	-0.008296	1.005036	1.4055	1.1265	0.4545	0	17	1030	1
2026-02-11	16:16:38.470	-0.14	0.14	-0.49	0.013176	-0.010492	1.006744	1.41	1.125	0.4515	0	17	1030	1
2026-02-11	16:16:38.490	-0.14	0.105	-0.455	0.008052	-0.008052	1.009916	1.3995	1.1265	0.456	0	17	1030	1
2026-02-11	16:16:38.510	-0.14	0.07	-0.455	0.010248	-0.010004	1.01016	1.4085	1.1325	0.4515	0	17	1030	1
2026-02-11	16:16:38.530	-0.105	0.14	-0.455	0.012932	-0.009516	1.00894	1.3965	1.131	0.447	0	17	1030	1
2026-02-11	16:16:38.550	-0.14	0.14	-0.455	0.007564	-0.00976	1.00284	1.4025	1.1175	0.456	0	17	1030	1
2026-02-11	16:16:38.570	-0.105	0.14	-0.455	0.010248	-0.00854	1.0065	1.41	1.1385	0.45	0	17	1030	1
2026-02-11	16:16:38.590	-0.105	0.14	-0.455	0.007564	-0.009272	1.007476	1.404	1.131	0.456	0	17	1030	1
2026-02-11	16:16:38.610	-0.14	0.14	-0.42	0.01098	-0.011468	1.005768	1.404	1.131	0.456	0	15	1031	1
2026-02-11	16:16:38.630	-0.14	0.14	-0.455	0.014884	-0.009516	1.013332	1.404	1.1265	0.459	0	15	1031	1
2026-02-11	16:16:38.650	-0.105	0.14	-0.455	0.01098	-0.010492	1.005524	1.404	1.125	0.459	0	15	1031	1
2026-02-11	16:16:38.670	-0.105	0.105	-0.49	0.011712	-0.011468	1.007232	1.407	1.1265	0.4515	0	15	1031	1
2026-02-11	16:16:38.690	-0.175	0.14	-0.455	0.007808	-0.011468	1.007232	1.407	1.1265	0.45	0	15	1031	1
2026-02-11	16:16:38.710	-0.14	0.105	-0.49	0.008296	-0.00976	1.009428	1.4025	1.1295	0.456	0	15	1031	1
2026-02-11	16:16:38.730	-0.105	0.105	-0.455	0.011468	-0.009272	1.00528	1.404	1.1295	0.4575	0	15	1031	1
2026-02-11	16:16:38.750	-0.105	0.105	-0.455	0.012444	-0.011712	1.008696	1.4025	1.125	0.4575	0	15	1031	1
2026-02-11	16:16:38.770	-0.14	0.14	-0.42	0.010004	-0.008296	1.006988	1.404	1.128	0.4605	0	15	1031	1
2026-02-11	16:16:38.790	-0.105	0.14	-0.455	0.00976	-0.012444	1.01138	1.4115	1.1325	0.4575	0	15	1031	1
2026-02-11	16:16:38.810	-0.105	0.105	-0.42	0.010248	-0.007076	1.004792	1.41	1.1295	0.4515	0	13	1031	1
2026-02-11	16:16:38.830	-0.14	0.105	-0.455	0.011468	-0.012932	1.008208	1.401	1.125	0.4545	0	13	1031	1
2026-02-11	16:16:38.850	-0.105	0.14	-0.455	0.009516	-0.010248	1.006988	1.4025	1.1265	0.4575	0	13	1031	1
2026-02-11	16:16:38.870	-0.105	0.14	-0.455	0.009272	-0.009028	1.008208	1.4055	1.1325	0.4545	0	13	1031	1
2026-02-11	16:16:38.890	-0.14	0.14	-0.49	0.011468	-0.009272	1.009428	1.4025	1.1265	0.462	0	13	1031	1
2026-02-11	16:16:38.910	-0.14	0.14	-0.455	0.012444	-0.011956	1.012844	1.401	1.1235	0.456	0	13	1031	1
2026-02-11	16:16:38.930	-0.105	0.14	-0.455	0.010736	-0.011224	1.002596	1.401	1.122	0.4605	0	13	1031	1
2026-02-11	16:16:38.950	-0.14	0.105	-0.455	0.010736	-0.010004	1.003084	1.3995	1.1205	0.4605	0	13	1031	1
2026-02-11	16:16:38.970	-0.175	0.14	-0.455	0.010248	-0.008784	1.011624	1.398	1.1235	0.4605	0	13	1031	1
2026-02-11	16:16:38.990	-0.14	0.105	-0.49	0.010004	-0.010248	1.009428	1.404	1.122	0.462	0	13	1031	1
2026-02-11	16:16:37.010	-0.105	0.105	-0.455	0.011956	-0.011956	1.007964	1.4025	1.1265	0.4545	0	47	1028	1
2026-02-11	16:16:37.030	-0.105	0.14	-0.455	0.01098	-0.00976	1.008696	1.3995	1.131	0.4545	0	47	1028	1
2026-02-11	16:16:37.050	-0.105	0.14	-0.42	0.01098	-0.011224	1.009916	1.401	1.131	0.456	0	47	1028	1
2026-02-11	16:16:37.070	-0.105	0.14	-0.455	0.010004	-0.010248	1.008696	1.404	1.125	0.45	0	47	1028	1
2026-02-11	16:16:37.090	-0.07	0.14	-0.455	0.01342	-0.007564	1.005768	1.4115	1.1205	0.4485	0	47	1028	1
2026-02-11	16:16:37.110	-0.14	0.105	-0.49	0.009516	-0.006832	1.00772	1.41	1.125	0.4485	0	47	1028	1
2026-02-11	16:16:37.130	-0.14	0.105	-0.455	0.009028	-0.010248	1.007232	1.4055	1.1295	0.4515	0	47	1028	1
2026-02-11	16:16:37.150	-0.105	0.14	-0.455	0.00976	-0.009516	1.007964	1.4085	1.128	0.453	0	47	1028	1
2026-02-11	16:16:37.170	-0.105	0.105	-0.455	0.00976	-0.010492	1.006012	1.4085	1.1235	0.4485	0	47	1028	1
2026-02-11	16:16:37.190	-0.105	0.14	-0.455	0.010004	-0.010248	1.008696	1.4055	1.1235	0.444	0	47	1028	1
2026-02-11	16:16:37.210	-0.105	0.105	-0.455	0.00976	-0.011468	1.011136	1.407	1.125	0.4485	0	40	1029	1
2026-02-11	16:16:37.230	-0.14	0.105	-0.49	0.010248	-0.009028	1.009916	1.407	1.1265	0.453	0	40	1029	1
2026-02-11	16:16:37.250	-0.07	0.105	-0.49	0.009516	-0.01098	1.01016	1.4055	1.1295	0.45	0	40	1029	1
2026-02-11	16:16:37.270	-0.14	0.105	-0.455	0.010248	-0.011956	1.01016	1.404	1.131	0.447	0	40	1029	1
2026-02-11	16:16:37.290	-0.14	0.105	-0.455	0.012932	-0.009028	1.004304	1.404	1.1265	0.4455	0	40	1029	1
2026-02-11	16:16:37.310	-0.14	0.105	-0.49	0.011956	-0.008784	1.009184	1.4025	1.1295	0.45	0	40	1029	1
2026-02-11	16:16:37.330	-0.105	0.14	-0.455	0.012932	-0.010004	1.01138	1.4055	1.1295	0.456	0	40	1029	1
2026-02-11	16:16:37.350	-0.105	0.175	-0.525	0.011468	-0.01098	1.008452	1.4055	1.134	0.45	0	40	1029	1
2026-02-11	16:16:37.370	-0.105	0.14	-0.42	0.009516	-0.010248	1.008208	1.401	1.1355	0.4455	0	40	1029	1
2026-02-11	16:16:37.390	-0.105	0.14	-0.455	0.012688	-0.007808	1.004792	1.413	1.1235	0.45	0	40	1029	1
2026-02-11	16:16:37.410	-0.14	0.14	-0.455	0.010492	-0.00976	1.009428	1.4085	1.1265	0.453	0	35	1029	1
2026-02-11	16:16:37.430	-0.14	0.105	-0.455	0.009028	-0.01098	1.009672	1.4055	1.1265	0.4425	0	35	1029	1
2026-02-11	16:16:37.450	-0.14	0.105	-0.455	0.011468	-0.012444	1.005524	1.41	1.1325	0.4575	0	35	1029	1
2026-02-11	16:16:37.470	-0.14	0.14	-0.455	0.010736	-0.010736	1.009428	1.404	1.122	0.4425	0	35	1029	1
2026-02-11	16:16:37.490	-0.105	0.14	-0.455	0.010248	-0.005856	1.00772	1.398	1.122	0.45	0	35	1029	1
2026-02-11	16:16:37.510	-0.14	0.105	-0.455	0.011468	-0.01342	1.006744	1.4025	1.131	0.453	0	35	1029	1
2026-02-11	16:16:37.530	-0.14	0.105	-0.455	0.008784	-0.010004	1.006256	1.4025	1.131	0.453	0	35	1029	1
2026-02-11	16:16:37.550	-0.105	0.105	-0.455	0.011468	-0.009272	1.00894	1.404	1.131	0.45	0	35	1029	1
2026-02-11	16:16:37.570	-0.105	0.105	-0.455	0.013908	-0.011224	1.006256	1.404	1.1295	0.4485	0	35	1029	1
2026-02-11	16:16:37.590	-0.14	0.14	-0.42	0.010736	-0.011468	1.006256	1.407	1.128	0.4485	0	35	1029	1
2026-02-11	16:16:37.610	-0.105	0.105	-0.455	0.01098	-0.012932	1.007476	1.4085	1.131	0.4455	0	30	1030	1
2026-02-11	16:16:37.630	-0.105	0.14	-0.455	0.009028	-0.008296	1.009184	1.4085	1.1325	0.4455	0	30	1030	1
2026-02-11	16:16:37.650	-0.105	0.105	-0.455	0.010004	-0.013664	1.007964	1.4145	1.131	0.456	0	30	1030	1
2026-02-11	16:16:37.670	-0.14	0.14	-0.49	0.011712	-0.007076	1.008208	1.413	1.1265	0.4545	0	30	1030	1
2026-02-11	16:16:37.690	-0.14	0.14	-0.42	0.00854	-0.011712	1.009672	1.3995	1.1295	0.4515	0	30	1030	1
2026-02-11	16:16:37.710	-0.105	0.14	-0.455	0.0122	-0.010736	1.005768	1.4025	1.125	0.447	0	30	1030	1
2026-02-11	16:16:37.730	-0.105	0.14	-0.455	0.006588	-0.010248	1.00528	1.401	1.1325	0.447	0	30	1030	1
2026-02-11	16:16:37.750	-0.14	0.105	-0.455	0.010248	-0.01098	1.008452	1.41	1.131	0.456	0	30	1030	1
2026-02-11	16:16:37.770	-0.14	0.14	-0.455	0.011468	-0.01098	1.007964	1.4055	1.1295	0.444	0	30	1030	1
2026-02-11	16:16:37.790	-0.105	0.14	-0.42	0.011468	-0.008296	1.009916	1.4055	1.1325	0.4515	0	30	1030	1
2026-02-11	16:16:37.810	-0.105	0.14	-0.49	0.009516	-0.01464	1.007476	1.401	1.1295	0.4545	0	26	1030	1
2026-02-11	16:16:37.830	-0.105	0.14	-0.455	0.011956	-0.013176	1.006012	1.404	1.1265	0.456	0	26	1030	1
2026-02-11	16:16:37.850	-0.14	0.14	-0.455	0.009028	-0.009028	1.006012	1.4055	1.1295	0.456	0	26	1030	1
2026-02-11	16:16:37.870	-0.14	0.105	-0.455	0.010492	-0.010004	1.011136	1.4025	1.1295	0.453	0	26	1030	1
2026-02-11	16:16:37.890	-0.14	0.105	-0.455	0.0061	-0.01342	1.009672	1.401	1.1265	0.4485	0	26	1030	1
2026-02-11	16:16:37.910	-0.14	0.14	-0.385	0.010736	-0.010492	1.008696	1.404	1.125	0.45	0	26	1030	1
2026-02-11	16:16:37.930	-0.105	0.105	-0.42	0.0122	-0.00854	1.005768	1.4025	1.125	0.4545	0	26	1030	1
2026-02-11	16:16:37.950	-0.105	0.14	-0.455	0.007808	-0.008052	1.009672	1.3995	1.125	0.459	0	26	1030	1
2026-02-11	16:16:37.970	-0.105	0.105	-0.42	0.006344	-0.008784	1.003084	1.4025	1.1265	0.453	0	26	1030	1
2026-02-11	16:16:37.990	-0.105	0.105	-0.455	0.012444	-0.010492	1.00772	1.4025	1.125	0.45	0	26	1030	1
2026-02-11	16:16:38.010	-0.14	0.105	-0.455	0.00732	-0.011468	1.009184	1.4025	1.125	0.453	0	23	1030	1
2026-02-11	16:16:38.030	-0.105	0.14	-0.49	0.01098	-0.010492	1.010892	1.4055	1.131	0.4515	0	23	1030	1
2026-02-11	16:16:38.050	-0.105	0.14	-0.455	0.00854	-0.00976	1.006988	1.4055	1.1325	0.4485	0	23	1030	1
2026-02-11	16:16:38.070	-0.07	0.14	-0.455	0.009272	-0.010736	1.005036	1.4025	1.128	0.447	0	23	1030	1
2026-02-11	16:16:38.090	-0.105	0.105	-0.455	0.008784	-0.00976	1.006256	1.401	1.128	0.4515	0	23	1030	1
2026-02-11	16:16:38.110	-0.175	0.14	-0.49	0.011956	-0.013176	1.014308	1.4085	1.128	0.4485	0	23	1030	1
2026-02-11	16:16:38.130	-0.105	0.14	-0.455	0.009516	-0.011712	1.012844	1.4055	1.1295	0.4575	0	23	1030	1
2026-02-11	16:16:38.150	-0.07	0.105	-0.455	0.00976	-0.007808	1.00284	1.4025	1.1265	0.456	0	23	1030	1
2026-02-11	16:16:38.170	-0.14	0.14	-0.455	0.012932	-0.011468	1.006988	1.4085	1.1325	0.4545	0	23	1030	1
2026-02-11	16:16:38.190	-0.14	0.14	-0.455	0.012932	-0.007564	1.010404	1.4055	1.125	0.459	0	23	1030	1
2026-02-11	16:16:38.210	-0.105	0.105	-0.455	0.00854	-0.00854	1.002352	1.4025	1.1325	0.4515	0	20	1030	1
2026-02-11	16:16:38.230	-0.175	0.105	-0.49	0.011468	-0.011956	1.010892	1.4025	1.125	0.453	0	20	1030	1
2026-02-11	16:16:38.250	-0.14	0.175	-0.455	0.010248	-0.014396	1.012844	1.4055	1.1295	0.4545	0	20	1030	1
2026-02-11	16:16:38.270	-0.07	0.14	-0.455	0.01098	-0.00854	1.006744	1.401	1.134	0.459	0	20	1030	1
2026-02-11	16:16:38.290	-0.105	0.105	-0.455	0.011712	-0.008052	1.006744	1.401	1.134	0.456	0	20	1030	1
2026-02-11	16:16:38.310	-0.14	0.105	-0.455	0.01098	-0.00854	1.008452	1.4025	1.128	0.45	0	20	1030	1
2026-02-11	16:16:38.330	-0.14	0.14	-0.49	0.009516	-0.010736	1.010404	1.404	1.1235	0.4485	0	20	1030	1
2026-02-11	16:16:38.350	-0.105	0.105	-0.455	0.012932	-0.011712	1.013332	1.404	1.1235	0.4485	0	20	1030	1
2026-02-11	16:16:38.370	-0.07	0.105	-0.49	0.011712	-0.008784	1.005524	1.4055	1.1265	0.456	0	20	1030	1
2026-02-11	16:16:38.390	-0.105	0.14	-0.455	0.011468	-0.009516	1.003084	1.4055	1.128	0.4515	0	20	1030	1
2026-02-11	16:17:10.010	1.225	3.85	-1.645	0.288408	-0.010736	0.97966	-0.6255	-1.7055	-3.7395	0	174	970	1
2026-02-11	16:17:10.030	1.085	4.27	-1.575	0.286212	-0.013908	0.987468	-0.627	-1.713	-3.7305	0	174	970	1
2026-02-11	16:17:10.050	-0.035	5.565	-0.875	0.272548	-0.024644	0.987712	-0.621	-1.71	-3.738	0	174	970	1
2026-02-11	16:17:10.070	-1.68	6.3	-0.735	0.266936	-0.034648	0.977952	-0.6135	-1.701	-3.729	0	174	970	1
2026-02-11	16:17:10.090	-1.96	4.83	-1.365	0.269132	-0.034648	0.97356	-0.6135	-1.701	-3.729	0	174	970	1
2026-02-11	16:17:10.110	-0.665	4.305	-1.925	0.280844	-0.031964	0.973316	-0.6135	-1.704	-3.7305	0	174	970	1
2026-02-11	16:17:10.130	0.56	4.97	-1.47	0.281576	-0.030012	0.974292	-0.6105	-1.7085	-3.7335	0	174	970	1
2026-02-11	16:17:10.150	1.05	5.11	-0.28	0.2684	-0.026108	0.964288	-0.6075	-1.7085	-3.7365	0	174	970	1
2026-02-11	16:17:10.170	0.665	4.2	0.525	0.254248	-0.021716	0.956236	-0.609	-1.707	-3.7335	0	174	970	1
2026-02-11	16:17:10.190	0.175	3.43	0.665	0.255956	-0.018544	0.95892	-0.612	-1.707	-3.7305	0	174	970	1
2026-02-11	16:17:10.210	0.245	2.835	0.035	0.260348	-0.017568	0.963312	-0.612	-1.7055	-3.7305	0	151	978	1
2026-02-11	16:17:10.230	0.665	2.38	-1.015	0.260348	-0.013908	0.976	-0.609	-1.71	-3.7305	0	151	978	1
2026-02-11	16:17:10.250	0.91	2.275	-2.065	0.26108	-0.019276	0.979172	-0.606	-1.71	-3.732	0	151	978	1
2026-02-11	16:17:10.270	0.595	1.925	-2.52	0.257664	-0.025376	0.98698	-0.6075	-1.707	-3.7275	0	151	978	1
2026-02-11	16:17:10.290	-0.525	1.645	-2.275	0.255956	-0.02562	0.98698	-0.6075	-1.707	-3.7275	0	151	978	1
2026-02-11	16:17:10.310	-2.415	1.995	-1.89	0.253516	-0.027816	0.973316	-0.609	-1.704	-3.7305	0	151	978	1
2026-02-11	16:17:10.330	-3.465	0.875	-2.345	0.264008	-0.022692	0.965264	-0.6105	-1.707	-3.7305	0	151	978	1
2026-02-11	16:17:10.350	-2.17	-0.735	-3.43	0.279624	-0.017812	0.958676	-0.609	-1.71	-3.735	0	151	978	1
2026-02-11	16:17:10.370	-0.245	-0.63	-3.325	0.268888	-0.020496	0.966484	-0.609	-1.71	-3.735	0	151	978	1
2026-02-11	16:17:10.390	0.98	0.035	-2.87	0.26352	-0.028792	0.979904	-0.612	-1.707	-3.732	0	151	978	1
2026-02-11	16:17:10.410	0.7	0.735	-2.59	0.252784	-0.03782	0.986492	-0.615	-1.707	-3.729	0	132	983	1
2026-02-11	16:17:10.430	-0.98	1.54	-2.38	0.254492	-0.036356	0.986492	-0.6165	-1.7055	-3.732	0	132	983	1
2026-02-11	16:17:10.450	-3.01	2.45	-2.1	0.258396	-0.034648	0.970876	-0.615	-1.707	-3.735	0	132	983	1
2026-02-11	16:17:10.470	-3.57	1.015	-2.485	0.263032	-0.031476	0.976732	-0.612	-1.707	-3.732	0	132	983	1
2026-02-11	16:17:10.490	-2.87	0.35	-2.765	0.273036	-0.033184	0.978684	-0.6105	-1.7055	-3.735	0	132	983	1
2026-02-11	16:17:10.510	-1.855	0.56	-2.8	0.27084	-0.03904	0.975024	-0.609	-1.707	-3.738	0	132	983	1
2026-02-11	16:17:10.530	-0.945	0.735	-2.345	0.25986	-0.0427	0.973072	-0.603	-1.7085	-3.7365	0	132	983	1
2026-02-11	16:17:10.550	-0.49	0.455	-1.96	0.253272	-0.040748	0.967704	-0.606	-1.7085	-3.738	0	132	983	1
2026-02-11	16:17:10.570	-0.525	0.525	-1.575	0.256932	-0.03538	0.965996	-0.6135	-1.704	-3.7395	0	132	983	1
2026-02-11	16:17:10.590	-0.665	0.7	-1.19	0.262056	-0.031476	0.972584	-0.615	-1.7055	-3.735	0	132	983	1
2026-02-11	16:17:10.610	-0.63	0.77	-1.12	0.263276	-0.028304	0.975024	-0.6135	-1.707	-3.732	0	115	986	1
2026-02-11	16:17:10.630	-0.28	0.455	-1.715	0.258152	-0.022936	0.982588	-0.6105	-1.707	-3.735	0	115	986	1
2026-02-11	16:17:10.650	-0.21	0.315	-2.275	0.251808	-0.027084	0.984296	-0.603	-1.7025	-3.732	0	115	986	1
2026-02-11	16:17:10.670	-0.49	-0.175	-2.52	0.244976	-0.029768	0.979172	-0.6105	-1.704	-3.732	0	115	986	1
2026-02-11	16:17:10.690	-0.91	-0.63	-2.59	0.241316	-0.030256	0.975268	-0.6135	-1.7025	-3.735	0	115	986	1
2026-02-11	16:17:10.710	-1.225	-0.875	-2.765	0.250832	-0.027084	0.980636	-0.6135	-1.704	-3.7395	0	115	986	1
2026-02-11	16:17:10.730	-1.47	-0.7	-3.15	0.251808	-0.029768	0.980148	-0.606	-1.698	-3.738	0	115	986	1
2026-02-11	16:17:10.750	-1.365	-0.7	-3.57	0.254492	-0.026596	0.977464	-0.6075	-1.701	-3.7305	0	115	986	1
2026-02-11	16:17:10.770	-1.015	-0.84	-3.85	0.255956	-0.033428	0.975268	-0.6105	-1.707	-3.735	0	115	986	1
2026-02-11	16:17:10.790	-0.735	-0.7	-3.99	0.252052	-0.037088	0.979904	-0.6075	-1.7025	-3.7335	0	115	986	1
2026-02-11	16:17:10.810	-0.77	-0.735	-4.06	0.254492	-0.04148	0.978684	-0.594	-1.6995	-3.741	0	100	989	1
2026-02-11	16:17:10.830	-0.945	-0.665	-3.64	0.265228	-0.04636	0.986004	-0.6075	-1.6995	-3.729	0	100	989	1
2026-02-11	16:17:10.850	-0.84	-0.315	-3.15	0.25498	-0.04636	0.983076	-0.6045	-1.6995	-3.729	0	100	989	1
2026-02-11	16:17:10.870	-0.525	0.14	-2.905	0.257908	-0.038796	0.975268	-0.6075	-1.701	-3.735	0	100	989	1
2026-02-11	16:17:10.890	0.105	0.315	-2.59	0.266936	-0.0366	0.977464	-0.615	-1.7055	-3.726	0	100	989	1
2026-02-11	16:17:10.910	0.63	0.49	-2.345	0.26474	-0.034404	0.974048	-0.615	-1.7025	-3.7305	0	100	989	1
2026-02-11	16:17:10.930	0.98	0.595	-2.345	0.257664	-0.032452	0.972584	-0.615	-1.698	-3.735	0	100	989	1
2026-02-11	16:17:10.950	1.085	0.77	-2.485	0.2623	-0.032208	0.980392	-0.612	-1.704	-3.738	0	100	989	1
2026-02-11	16:17:10.970	0.665	1.82	-2.59	0.26474	-0.022692	0.979172	-0.615	-1.704	-3.741	0	100	989	1
2026-02-11	16:17:10.990	0.105	3.325	-3.08	0.269132	-0.008052	0.96868	-0.6165	-1.701	-3.7365	0	100	989	1
2026-02-11	16:17:09.010	-10.535	-8.19	-45.395	0.410652	0.017812	0.938668	-0.576	-1.7295	-3.735	0	312	899	1
2026-02-11	16:17:09.030	-8.26	-11.655	-43.96	0.410164	-0.000488	0.948184	-0.588	-1.725	-3.7395	0	312	899	1
2026-02-11	16:17:09.050	-7.455	-13.265	-41.72	0.389912	-0.000244	0.932568	-0.5865	-1.7145	-3.738	0	312	899	1
2026-02-11	16:17:09.070	-6.615	-13.51	-39.41	0.350628	-0.002196	0.921832	-0.585	-1.7115	-3.7275	0	312	899	1
2026-02-11	16:17:09.090	-5.25	-12.81	-38.15	0.321348	0.000732	0.919636	-0.591	-1.7175	-3.7245	0	312	899	1
2026-02-11	16:17:09.110	-3.815	-10.325	-37.38	0.303536	0.004636	0.936228	-0.591	-1.7115	-3.7335	0	312	899	1
2026-02-11	16:17:09.130	-2.765	-7.875	-36.925	0.302072	-0.002928	0.967948	-0.6015	-1.719	-3.741	0	312	899	1
2026-02-11	16:17:09.150	-3.01	-6.405	-35.56	0.317444	-0.008052	1.002108	-0.5955	-1.71	-3.7365	0	312	899	1
2026-02-11	16:17:09.170	-4.655	-5.53	-32.97	0.336232	-0.008052	1.021384	-0.6045	-1.707	-3.7275	0	312	899	1
2026-02-11	16:17:09.190	-6.265	-5.425	-28.595	0.350384	-0.012932	1.023092	-0.6015	-1.7175	-3.735	0	312	899	1
2026-02-11	16:17:09.210	-7.525	-5.705	-24.255	0.356484	-0.010736	1.009184	-0.6135	-1.7115	-3.7335	0	285	919	1
2026-02-11	16:17:09.230	-7.175	-5.25	-20.79	0.34648	-0.014884	0.9699	-0.6105	-1.7145	-3.7305	0	285	919	1
2026-02-11	16:17:09.250	-5.285	-4.865	-18.305	0.328668	-0.00732	0.936228	-0.609	-1.713	-3.729	0	285	919	1
2026-02-11	16:17:09.270	-1.015	-4.06	-16.52	0.324032	-0.014152	0.937936	-0.6105	-1.7145	-3.7305	0	285	919	1
2026-02-11	16:17:09.290	2.87	-2.66	-15.995	0.334524	-0.023912	0.972828	-0.612	-1.707	-3.7305	0	285	919	1
2026-02-11	16:17:09.310	4.375	-1.295	-15.82	0.3416	-0.033672	1.010892	-0.6165	-1.701	-3.7305	0	285	919	1
2026-02-11	16:17:09.330	4.025	-0.28	-15.54	0.335256	-0.052948	1.029436	-0.6225	-1.707	-3.732	0	285	919	1
2026-02-11	16:17:09.350	1.855	0.735	-14.595	0.329888	-0.057828	1.031632	-0.6285	-1.71	-3.7335	0	285	919	1
2026-02-11	16:17:09.370	-1.295	2.065	-13.265	0.297192	-0.0671	1.007964	-0.6255	-1.707	-3.729	0	285	919	1
2026-02-11	16:17:09.390	-4.06	2.835	-11.69	0.292312	-0.05002	0.978196	-0.621	-1.7085	-3.7305	0	285	919	1
2026-02-11	16:17:09.410	-5.635	3.955	-9.625	0.294508	-0.036356	0.965264	-0.6225	-1.7025	-3.7305	0	256	936	1
2026-02-11	16:17:09.430	-5.46	5.11	-7.735	0.30744	-0.017568	0.947452	-0.627	-1.701	-3.729	0	256	936	1
2026-02-11	16:17:09.450	-3.5	5.915	-5.915	0.313784	-0.006588	0.941352	-0.627	-1.707	-3.7335	0	256	936	1
2026-02-11	16:17:09.470	-0.595	6.09	-4.655	0.316712	0.002684	0.933056	-0.624	-1.7055	-3.7395	0	256	936	1
2026-02-11	16:17:09.490	2.45	5.635	-4.165	0.297436	-0.00122	0.924028	-0.6195	-1.704	-3.7425	0	256	936	1
2026-02-11	16:17:09.510	5.18	4.725	-4.655	0.287432	0.001952	0.928176	-0.6195	-1.7085	-3.738	0	256	936	1
2026-02-11	16:17:09.530	6.965	3.71	-5.635	0.288652	-0.004148	0.940864	-0.621	-1.716	-3.7365	0	256	936	1
2026-02-11	16:17:09.550	6.58	3.045	-6.475	0.303536	-0.016592	0.979172	-0.621	-1.7205	-3.7365	0	256	936	1
2026-02-11	16:17:09.570	4.375	2.695	-6.16	0.297924	-0.017324	0.988444	-0.621	-1.707	-3.7335	0	256	936	1
2026-02-11	16:17:09.590	1.715	2.17	-5.67	0.286944	-0.019276	0.992104	-0.624	-1.7175	-3.7305	0	256	936	1
2026-02-11	16:17:09.610	-1.085	1.75	-5.25	0.28182	-0.020984	0.991372	-0.618	-1.7115	-3.738	0	227	950	1
2026-02-11	16:17:09.630	-3.36	1.155	-5.005	0.287676	-0.021228	0.998204	-0.6225	-1.707	-3.735	0	227	950	1
2026-02-11	16:17:09.650	-5.005	1.54	-4.725	0.28548	-0.027572	0.975512	-0.627	-1.719	-3.732	0	227	950	1
2026-02-11	16:17:09.670	-6.055	0.98	-4.585	0.285968	-0.032696	0.962336	-0.6225	-1.716	-3.735	0	227	950	1
2026-02-11	16:17:09.690	-6.02	-0.35	-4.025	0.290116	-0.0366	0.954772	-0.621	-1.71	-3.7305	0	227	950	1
2026-02-11	16:17:09.710	-5.39	-0.805	-3.01	0.300608	-0.038796	0.964532	-0.618	-1.704	-3.729	0	227	950	1
2026-02-11	16:17:09.730	-4.27	-0.7	-1.75	0.301096	-0.043188	0.965508	-0.6195	-1.7025	-3.7335	0	227	950	1
2026-02-11	16:17:09.750	-2.73	-0.63	-0.63	0.295972	-0.042944	0.9699	-0.624	-1.7025	-3.7335	0	227	950	1
2026-02-11	16:17:09.770	-0.945	-0.315	0.21	0.282064	-0.040504	0.959408	-0.627	-1.7025	-3.735	0	227	950	1
2026-02-11	16:17:09.790	0.91	0.455	0.98	0.27206	-0.036356	0.955016	-0.627	-1.701	-3.7335	0	227	950	1
2026-02-11	16:17:09.810	3.01	1.19	2.065	0.27328	-0.029768	0.971852	-0.624	-1.701	-3.7335	0	199	961	1
2026-02-11	16:17:09.830	3.535	1.365	2.695	0.274988	-0.029524	0.98698	-0.624	-1.701	-3.7335	0	199	961	1
2026-02-11	16:17:09.850	3.29	1.75	2.73	0.270108	-0.020496	0.990884	-0.621	-1.707	-3.735	0	199	961	1
2026-02-11	16:17:09.870	2.8	1.89	2.31	0.26596	-0.019276	0.994544	-0.6195	-1.6965	-3.7305	0	199	961	1
2026-02-11	16:17:09.890	2.1	1.855	1.89	0.275964	-0.01708	0.996008	-0.621	-1.7085	-3.7395	0	199	961	1
2026-02-11	16:17:09.910	0.805	2.485	2.03	0.275476	-0.013176	0.982344	-0.612	-1.707	-3.7395	0	199	961	1
2026-02-11	16:17:09.930	-0.385	2.695	2.31	0.274988	-0.008296	0.970632	-0.6135	-1.704	-3.7365	0	199	961	1
2026-02-11	16:17:09.950	-0.63	1.995	1.61	0.275476	-0.005612	0.969168	-0.612	-1.71	-3.7335	0	199	961	1
2026-02-11	16:17:09.970	-0.14	1.715	0.35	0.27938	-0.0061	0.972096	-0.6165	-1.7085	-3.7335	0	199	961	1
2026-02-11	16:17:09.990	0.56	2.555	-0.77	0.278404	-0.00366	0.978196	-0.6255	-1.7055	-3.7395	0	199	961	1
2026-02-11	16:17:10.010	1.225	3.85	-1.645	0.288408	-0.010736	0.97966	-0.6255	-1.7055	-3.7395	0	174	970	1
2026-02-11	16:17:10.030	1.085	4.27	-1.575	0.286212	-0.013908	0.987468	-0.627	-1.713	-3.7305	0	174	970	1
2026-02-11	16:17:10.050	-0.035	5.565	-0.875	0.272548	-0.024644	0.987712	-0.621	-1.71	-3.738	0	174	970	1
2026-02-11	16:17:10.070	-1.68	6.3	-0.735	0.266936	-0.034648	0.977952	-0.6135	-1.701	-3.729	0	174	970	1
2026-02-11	16:17:10.090	-1.96	4.83	-1.365	0.269132	-0.034648	0.97356	-0.6135	-1.701	-3.729	0	174	970	1
2026-02-11	16:17:10.110	-0.665	4.305	-1.925	0.280844	-0.031964	0.973316	-0.6135	-1.704	-3.7305	0	174	970	1
2026-02-11	16:17:10.130	0.56	4.97	-1.47	0.281576	-0.030012	0.974292	-0.6105	-1.7085	-3.7335	0	174	970	1
2026-02-11	16:17:10.150	1.05	5.11	-0.28	0.2684	-0.026108	0.964288	-0.6075	-1.7085	-3.7365	0	174	970	1
2026-02-11	16:17:10.170	0.665	4.2	0.525	0.254248	-0.021716	0.956236	-0.609	-1.707	-3.7335	0	174	970	1
2026-02-11	16:17:10.190	0.175	3.43	0.665	0.255956	-0.018544	0.95892	-0.612	-1.707	-3.7305	0	174	970	1
2026-02-11	16:17:10.210	0.245	2.835	0.035	0.260348	-0.017568	0.963312	-0.612	-1.7055	-3.7305	0	151	978	1
2026-02-11	16:17:10.230	0.665	2.38	-1.015	0.260348	-0.013908	0.976	-0.609	-1.71	-3.7305	0	151	978	1
2026-02-11	16:17:10.250	0.91	2.275	-2.065	0.26108	-0.019276	0.979172	-0.606	-1.71	-3.732	0	151	978	1
2026-02-11	16:17:10.270	0.595	1.925	-2.52	0.257664	-0.025376	0.98698	-0.6075	-1.707	-3.7275	0	151	978	1
2026-02-11	16:17:10.290	-0.525	1.645	-2.275	0.255956	-0.02562	0.98698	-0.6075	-1.707	-3.7275	0	151	978	1
2026-02-11	16:17:10.310	-2.415	1.995	-1.89	0.253516	-0.027816	0.973316	-0.609	-1.704	-3.7305	0	151	978	1
2026-02-11	16:17:10.330	-3.465	0.875	-2.345	0.264008	-0.022692	0.965264	-0.6105	-1.707	-3.7305	0	151	978	1
2026-02-11	16:17:10.350	-2.17	-0.735	-3.43	0.279624	-0.017812	0.958676	-0.609	-1.71	-3.735	0	151	978	1
2026-02-11	16:17:10.370	-0.245	-0.63	-3.325	0.268888	-0.020496	0.966484	-0.609	-1.71	-3.735	0	151	978	1
2026-02-11	16:17:10.390	0.98	0.035	-2.87	0.26352	-0.028792	0.979904	-0.612	-1.707	-3.732	0	151	978	1
2026-02-11	16:17:10.410	0.7	0.735	-2.59	0.252784	-0.03782	0.986492	-0.615	-1.707	-3.729	0	132	983	1
2026-02-11	16:17:10.430	-0.98	1.54	-2.38	0.254492	-0.036356	0.986492	-0.6165	-1.7055	-3.732	0	132	983	1
2026-02-11	16:17:10.450	-3.01	2.45	-2.1	0.258396	-0.034648	0.970876	-0.615	-1.707	-3.735	0	132	983	1
2026-02-11	16:17:10.470	-3.57	1.015	-2.485	0.263032	-0.031476	0.976732	-0.612	-1.707	-3.732	0	132	983	1
2026-02-11	16:17:10.490	-2.87	0.35	-2.765	0.273036	-0.033184	0.978684	-0.6105	-1.7055	-3.735	0	132	983	1
2026-02-11	16:17:10.510	-1.855	0.56	-2.8	0.27084	-0.03904	0.975024	-0.609	-1.707	-3.738	0	132	983	1
2026-02-11	16:17:10.530	-0.945	0.735	-2.345	0.25986	-0.0427	0.973072	-0.603	-1.7085	-3.7365	0	132	983	1
2026-02-11	16:17:10.550	-0.49	0.455	-1.96	0.253272	-0.040748	0.967704	-0.606	-1.7085	-3.738	0	132	983	1
2026-02-11	16:17:10.570	-0.525	0.525	-1.575	0.256932	-0.03538	0.965996	-0.6135	-1.704	-3.7395	0	132	983	1
2026-02-11	16:17:10.590	-0.665	0.7	-1.19	0.262056	-0.031476	0.972584	-0.615	-1.7055	-3.735	0	132	983	1
2026-02-11	16:17:10.610	-0.63	0.77	-1.12	0.263276	-0.028304	0.975024	-0.6135	-1.707	-3.732	0	115	986	1
2026-02-11	16:17:10.630	-0.28	0.455	-1.715	0.258152	-0.022936	0.982588	-0.6105	-1.707	-3.735	0	115	986	1
2026-02-11	16:17:10.650	-0.21	0.315	-2.275	0.251808	-0.027084	0.984296	-0.603	-1.7025	-3.732	0	115	986	1
2026-02-11	16:17:10.670	-0.49	-0.175	-2.52	0.244976	-0.029768	0.979172	-0.6105	-1.704	-3.732	0	115	986	1
2026-02-11	16:17:10.690	-0.91	-0.63	-2.59	0.241316	-0.030256	0.975268	-0.6135	-1.7025	-3.735	0	115	986	1
2026-02-11	16:17:10.710	-1.225	-0.875	-2.765	0.250832	-0.027084	0.980636	-0.6135	-1.704	-3.7395	0	115	986	1
2026-02-11	16:17:10.730	-1.47	-0.7	-3.15	0.251808	-0.029768	0.980148	-0.606	-1.698	-3.738	0	115	986	1
2026-02-11	16:17:10.750	-1.365	-0.7	-3.57	0.254492	-0.026596	0.977464	-0.6075	-1.701	-3.7305	0	115	986	1
2026-02-11	16:17:10.770	-1.015	-0.84	-3.85	0.255956	-0.033428	0.975268	-0.6105	-1.707	-3.735	0	115	986	1
2026-02-11	16:17:10.790	-0.735	-0.7	-3.99	0.252052	-0.037088	0.979904	-0.6075	-1.7025	-3.7335	0	115	986	1
2026-02-11	16:17:10.810	-0.77	-0.735	-4.06	0.254492	-0.04148	0.978684	-0.594	-1.6995	-3.741	0	100	989	1
2026-02-11	16:17:10.830	-0.945	-0.665	-3.64	0.265228	-0.04636	0.986004	-0.6075	-1.6995	-3.729	0	100	989	1
2026-02-11	16:17:10.850	-0.84	-0.315	-3.15	0.25498	-0.04636	0.983076	-0.6045	-1.6995	-3.729	0	100	989	1
2026-02-11	16:17:10.870	-0.525	0.14	-2.905	0.257908	-0.038796	0.975268	-0.6075	-1.701	-3.735	0	100	989	1
2026-02-11	16:17:10.890	0.105	0.315	-2.59	0.266936	-0.0366	0.977464	-0.615	-1.7055	-3.726	0	100	989	1
2026-02-11	16:17:10.910	0.63	0.49	-2.345	0.26474	-0.034404	0.974048	-0.615	-1.7025	-3.7305	0	100	989	1
2026-02-11	16:17:10.930	0.98	0.595	-2.345	0.257664	-0.032452	0.972584	-0.615	-1.698	-3.735	0	100	989	1
2026-02-11	16:17:10.950	1.085	0.77	-2.485	0.2623	-0.032208	0.980392	-0.612	-1.704	-3.738	0	100	989	1
2026-02-11	16:17:10.970	0.665	1.82	-2.59	0.26474	-0.022692	0.979172	-0.615	-1.704	-3.741	0	100	989	1
2026-02-11	16:17:10.990	0.105	3.325	-3.08	0.269132	-0.008052	0.96868	-0.6165	-1.701	-3.7365	0	100	989	1
2026-02-11	16:17:09.010	-10.535	-8.19	-45.395	0.410652	0.017812	0.938668	-0.576	-1.7295	-3.735	0	312	899	1
2026-02-11	16:17:09.030	-8.26	-11.655	-43.96	0.410164	-0.000488	0.948184	-0.588	-1.725	-3.7395	0	312	899	1
2026-02-11	16:17:09.050	-7.455	-13.265	-41.72	0.389912	-0.000244	0.932568	-0.5865	-1.7145	-3.738	0	312	899	1
2026-02-11	16:17:09.070	-6.615	-13.51	-39.41	0.350628	-0.002196	0.921832	-0.585	-1.7115	-3.7275	0	312	899	1
2026-02-11	16:17:09.090	-5.25	-12.81	-38.15	0.321348	0.000732	0.919636	-0.591	-1.7175	-3.7245	0	312	899	1
2026-02-11	16:17:09.110	-3.815	-10.325	-37.38	0.303536	0.004636	0.936228	-0.591	-1.7115	-3.7335	0	312	899	1
2026-02-11	16:17:09.130	-2.765	-7.875	-36.925	0.302072	-0.002928	0.967948	-0.6015	-1.719	-3.741	0	312	899	1
2026-02-11	16:17:09.150	-3.01	-6.405	-35.56	0.317444	-0.008052	1.002108	-0.5955	-1.71	-3.7365	0	312	899	1
2026-02-11	16:17:09.170	-4.655	-5.53	-32.97	0.336232	-0.008052	1.021384	-0.6045	-1.707	-3.7275	0	312	899	1
2026-02-11	16:17:09.190	-6.265	-5.425	-28.595	0.350384	-0.012932	1.023092	-0.6015	-1.7175	-3.735	0	312	899	1
2026-02-11	16:17:09.210	-7.525	-5.705	-24.255	0.356484	-0.010736	1.009184	-0.6135	-1.7115	-3.7335	0	285	919	1
2026-02-11	16:17:09.230	-7.175	-5.25	-20.79	0.34648	-0.014884	0.9699	-0.6105	-1.7145	-3.7305	0	285	919	1
2026-02-11	16:17:09.250	-5.285	-4.865	-18.305	0.328668	-0.00732	0.936228	-0.609	-1.713	-3.729	0	285	919	1
2026-02-11	16:17:09.270	-1.015	-4.06	-16.52	0.324032	-0.014152	0.937936	-0.6105	-1.7145	-3.7305	0	285	919	1
2026-02-11	16:17:09.290	2.87	-2.66	-15.995	0.334524	-0.023912	0.972828	-0.612	-1.707	-3.7305	0	285	919	1
2026-02-11	16:17:09.310	4.375	-1.295	-15.82	0.3416	-0.033672	1.010892	-0.6165	-1.701	-3.7305	0	285	919	1
2026-02-11	16:17:09.330	4.025	-0.28	-15.54	0.335256	-0.052948	1.029436	-0.6225	-1.707	-3.732	0	285	919	1
2026-02-11	16:17:09.350	1.855	0.735	-14.595	0.329888	-0.057828	1.031632	-0.6285	-1.71	-3.7335	0	285	919	1
2026-02-11	16:17:09.370	-1.295	2.065	-13.265	0.297192	-0.0671	1.007964	-0.6255	-1.707	-3.729	0	285	919	1
2026-02-11	16:17:09.390	-4.06	2.835	-11.69	0.292312	-0.05002	0.978196	-0.621	-1.7085	-3.7305	0	285	919	1
2026-02-11	16:17:09.410	-5.635	3.955	-9.625	0.294508	-0.036356	0.965264	-0.6225	-1.7025	-3.7305	0	256	936	1
2026-02-11	16:17:09.430	-5.46	5.11	-7.735	0.30744	-0.017568	0.947452	-0.627	-1.701	-3.729	0	256	936	1
2026-02-11	16:17:09.450	-3.5	5.915	-5.915	0.313784	-0.006588	0.941352	-0.627	-1.707	-3.7335	0	256	936	1
2026-02-11	16:17:09.470	-0.595	6.09	-4.655	0.316712	0.002684	0.933056	-0.624	-1.7055	-3.7395	0	256	936	1
2026-02-11	16:17:09.490	2.45	5.635	-4.165	0.297436	-0.00122	0.924028	-0.6195	-1.704	-3.7425	0	256	936	1
2026-02-11	16:17:09.510	5.18	4.725	-4.655	0.287432	0.001952	0.928176	-0.6195	-1.7085	-3.738	0	256	936	1
2026-02-11	16:17:09.530	6.965	3.71	-5.635	0.288652	-0.004148	0.940864	-0.621	-1.716	-3.7365	0	256	936	1
2026-02-11	16:17:09.550	6.58	3.045	-6.475	0.303536	-0.016592	0.979172	-0.621	-1.7205	-3.7365	0	256	936	1
2026-02-11	16:17:09.570	4.375	2.695	-6.16	0.297924	-0.017324	0.988444	-0.621	-1.707	-3.7335	0	256	936	1
2026-02-11	16:17:09.590	1.715	2.17	-5.67	0.286944	-0.019276	0.992104	-0.624	-1.7175	-3.7305	0	256	936	1
2026-02-11	16:17:09.610	-1.085	1.75	-5.25	0.28182	-0.020984	0.991372	-0.618	-1.7115	-3.738	0	227	950	1
2026-02-11	16:17:09.630	-3.36	1.155	-5.005	0.287676	-0.021228	0.998204	-0.6225	-1.707	-3.735	0	227	950	1
2026-02-11	16:17:09.650	-5.005	1.54	-4.725	0.28548	-0.027572	0.975512	-0.627	-1.719	-3.732	0	227	950	1
2026-02-11	16:17:09.670	-6.055	0.98	-4.585	0.285968	-0.032696	0.962336	-0.6225	-1.716	-3.735	0	227	950	1
2026-02-11	16:17:09.690	-6.02	-0.35	-4.025	0.290116	-0.0366	0.954772	-0.621	-1.71	-3.7305	0	227	950	1
2026-02-11	16:17:09.710	-5.39	-0.805	-3.01	0.300608	-0.038796	0.964532	-0.618	-1.704	-3.729	0	227	950	1
2026-02-11	16:17:09.730	-4.27	-0.7	-1.75	0.301096	-0.043188	0.965508	-0.6195	-1.7025	-3.7335	0	227	950	1
2026-02-11	16:17:09.750	-2.73	-0.63	-0.63	0.295972	-0.042944	0.9699	-0.624	-1.7025	-3.7335	0	227	950	1
2026-02-11	16:17:09.770	-0.945	-0.315	0.21	0.282064	-0.040504	0.959408	-0.627	-1.7025	-3.735	0	227	950	1
2026-02-11	16:17:09.790	0.91	0.455	0.98	0.27206	-0.036356	0.955016	-0.627	-1.701	-3.7335	0	227	950	1
2026-02-11	16:17:09.810	3.01	1.19	2.065	0.27328	-0.029768	0.971852	-0.624	-1.701	-3.7335	0	199	961	1
2026-02-11	16:17:09.830	3.535	1.365	2.695	0.274988	-0.029524	0.98698	-0.624	-1.701	-3.7335	0	199	961	1
2026-02-11	16:17:09.850	3.29	1.75	2.73	0.270108	-0.020496	0.990884	-0.621	-1.707	-3.735	0	199	961	1
2026-02-11	16:17:09.870	2.8	1.89	2.31	0.26596	-0.019276	0.994544	-0.6195	-1.6965	-3.7305	0	199	961	1
2026-02-11	16:17:09.890	2.1	1.855	1.89	0.275964	-0.01708	0.996008	-0.621	-1.7085	-3.7395	0	199	961	1
2026-02-11	16:17:09.910	0.805	2.485	2.03	0.275476	-0.013176	0.982344	-0.612	-1.707	-3.7395	0	199	961	1
2026-02-11	16:17:09.930	-0.385	2.695	2.31	0.274988	-0.008296	0.970632	-0.6135	-1.704	-3.7365	0	199	961	1
2026-02-11	16:17:09.950	-0.63	1.995	1.61	0.275476	-0.005612	0.969168	-0.612	-1.71	-3.7335	0	199	961	1
2026-02-11	16:17:09.970	-0.14	1.715	0.35	0.27938	-0.0061	0.972096	-0.6165	-1.7085	-3.7335	0	199	961	1
2026-02-11	16:17:09.990	0.56	2.555	-0.77	0.278404	-0.00366	0.978196	-0.6255	-1.7055	-3.7395	0	199	961	1
2026-02-11	16:17:10.010	1.225	3.85	-1.645	0.288408	-0.010736	0.97966	-0.6255	-1.7055	-3.7395	0	174	970	1
2026-02-11	16:17:10.030	1.085	4.27	-1.575	0.286212	-0.013908	0.987468	-0.627	-1.713	-3.7305	0	174	970	1
2026-02-11	16:17:10.050	-0.035	5.565	-0.875	0.272548	-0.024644	0.987712	-0.621	-1.71	-3.738	0	174	970	1
2026-02-11	16:17:10.070	-1.68	6.3	-0.735	0.266936	-0.034648	0.977952	-0.6135	-1.701	-3.729	0	174	970	1
2026-02-11	16:17:10.090	-1.96	4.83	-1.365	0.269132	-0.034648	0.97356	-0.6135	-1.701	-3.729	0	174	970	1
2026-02-11	16:17:10.110	-0.665	4.305	-1.925	0.280844	-0.031964	0.973316	-0.6135	-1.704	-3.7305	0	174	970	1
2026-02-11	16:17:10.130	0.56	4.97	-1.47	0.281576	-0.030012	0.974292	-0.6105	-1.7085	-3.7335	0	174	970	1
2026-02-11	16:17:10.150	1.05	5.11	-0.28	0.2684	-0.026108	0.964288	-0.6075	-1.7085	-3.7365	0	174	970	1
2026-02-11	16:17:10.170	0.665	4.2	0.525	0.254248	-0.021716	0.956236	-0.609	-1.707	-3.7335	0	174	970	1
2026-02-11	16:17:10.190	0.175	3.43	0.665	0.255956	-0.018544	0.95892	-0.612	-1.707	-3.7305	0	174	970	1
2026-02-11	16:17:10.210	0.245	2.835	0.035	0.260348	-0.017568	0.963312	-0.612	-1.7055	-3.7305	0	151	978	1
2026-02-11	16:17:10.230	0.665	2.38	-1.015	0.260348	-0.013908	0.976	-0.609	-1.71	-3.7305	0	151	978	1
2026-02-11	16:17:10.250	0.91	2.275	-2.065	0.26108	-0.019276	0.979172	-0.606	-1.71	-3.732	0	151	978	1
2026-02-11	16:17:10.270	0.595	1.925	-2.52	0.257664	-0.025376	0.98698	-0.6075	-1.707	-3.7275	0	151	978	1
2026-02-11	16:17:10.290	-0.525	1.645	-2.275	0.255956	-0.02562	0.98698	-0.6075	-1.707	-3.7275	0	151	978	1
2026-02-11	16:17:10.310	-2.415	1.995	-1.89	0.253516	-0.027816	0.973316	-0.609	-1.704	-3.7305	0	151	978	1
2026-02-11	16:17:10.330	-3.465	0.875	-2.345	0.264008	-0.022692	0.965264	-0.6105	-1.707	-3.7305	0	151	978	1
2026-02-11	16:17:10.350	-2.17	-0.735	-3.43	0.279624	-0.017812	0.958676	-0.609	-1.71	-3.735	0	151	978	1
2026-02-11	16:17:10.370	-0.245	-0.63	-3.325	0.268888	-0.020496	0.966484	-0.609	-1.71	-3.735	0	151	978	1
2026-02-11	16:17:10.390	0.98	0.035	-2.87	0.26352	-0.028792	0.979904	-0.612	-1.707	-3.732	0	151	978	1
2026-02-11	16:17:10.410	0.7	0.735	-2.59	0.252784	-0.03782	0.986492	-0.615	-1.707	-3.729	0	132	983	1
2026-02-11	16:17:10.430	-0.98	1.54	-2.38	0.254492	-0.036356	0.986492	-0.6165	-1.7055	-3.732	0	132	983	1
2026-02-11	16:17:10.450	-3.01	2.45	-2.1	0.258396	-0.034648	0.970876	-0.615	-1.707	-3.735	0	132	983	1
2026-02-11	16:17:10.470	-3.57	1.015	-2.485	0.263032	-0.031476	0.976732	-0.612	-1.707	-3.732	0	132	983	1
2026-02-11	16:17:10.490	-2.87	0.35	-2.765	0.273036	-0.033184	0.978684	-0.6105	-1.7055	-3.735	0	132	983	1
2026-02-11	16:17:10.510	-1.855	0.56	-2.8	0.27084	-0.03904	0.975024	-0.609	-1.707	-3.738	0	132	983	1
2026-02-11	16:17:10.530	-0.945	0.735	-2.345	0.25986	-0.0427	0.973072	-0.603	-1.7085	-3.7365	0	132	983	1
2026-02-11	16:17:10.550	-0.49	0.455	-1.96	0.253272	-0.040748	0.967704	-0.606	-1.7085	-3.738	0	132	983	1
2026-02-11	16:17:10.570	-0.525	0.525	-1.575	0.256932	-0.03538	0.965996	-0.6135	-1.704	-3.7395	0	132	983	1
2026-02-11	16:17:10.590	-0.665	0.7	-1.19	0.262056	-0.031476	0.972584	-0.615	-1.7055	-3.735	0	132	983	1
2026-02-11	16:17:10.610	-0.63	0.77	-1.12	0.263276	-0.028304	0.975024	-0.6135	-1.707	-3.732	0	115	986	1
2026-02-11	16:17:10.630	-0.28	0.455	-1.715	0.258152	-0.022936	0.982588	-0.6105	-1.707	-3.735	0	115	986	1
2026-02-11	16:17:10.650	-0.21	0.315	-2.275	0.251808	-0.027084	0.984296	-0.603	-1.7025	-3.732	0	115	986	1
2026-02-11	16:17:10.670	-0.49	-0.175	-2.52	0.244976	-0.029768	0.979172	-0.6105	-1.704	-3.732	0	115	986	1
2026-02-11	16:17:10.690	-0.91	-0.63	-2.59	0.241316	-0.030256	0.975268	-0.6135	-1.7025	-3.735	0	115	986	1
2026-02-11	16:17:10.710	-1.225	-0.875	-2.765	0.250832	-0.027084	0.980636	-0.6135	-1.704	-3.7395	0	115	986	1
2026-02-11	16:17:10.730	-1.47	-0.7	-3.15	0.251808	-0.029768	0.980148	-0.606	-1.698	-3.738	0	115	986	1
2026-02-11	16:17:10.750	-1.365	-0.7	-3.57	0.254492	-0.026596	0.977464	-0.6075	-1.701	-3.7305	0	115	986	1
2026-02-11	16:17:10.770	-1.015	-0.84	-3.85	0.255956	-0.033428	0.975268	-0.6105	-1.707	-3.735	0	115	986	1
2026-02-11	16:17:10.790	-0.735	-0.7	-3.99	0.252052	-0.037088	0.979904	-0.6075	-1.7025	-3.7335	0	115	986	1
2026-02-11	16:17:10.810	-0.77	-0.735	-4.06	0.254492	-0.04148	0.978684	-0.594	-1.6995	-3.741	0	100	989	1
2026-02-11	16:17:10.830	-0.945	-0.665	-3.64	0.265228	-0.04636	0.986004	-0.6075	-1.6995	-3.729	0	100	989	1
2026-02-11	16:17:10.850	-0.84	-0.315	-3.15	0.25498	-0.04636	0.983076	-0.6045	-1.6995	-3.729	0	100	989	1
2026-02-11	16:17:10.870	-0.525	0.14	-2.905	0.257908	-0.038796	0.975268	-0.6075	-1.701	-3.735	0	100	989	1
2026-02-11	16:17:10.890	0.105	0.315	-2.59	0.266936	-0.0366	0.977464	-0.615	-1.7055	-3.726	0	100	989	1
2026-02-11	16:17:10.910	0.63	0.49	-2.345	0.26474	-0.034404	0.974048	-0.615	-1.7025	-3.7305	0	100	989	1
2026-02-11	16:17:10.930	0.98	0.595	-2.345	0.257664	-0.032452	0.972584	-0.615	-1.698	-3.735	0	100	989	1
2026-02-11	16:17:10.950	1.085	0.77	-2.485	0.2623	-0.032208	0.980392	-0.612	-1.704	-3.738	0	100	989	1
2026-02-11	16:17:10.970	0.665	1.82	-2.59	0.26474	-0.022692	0.979172	-0.615	-1.704	-3.741	0	100	989	1
2026-02-11	16:17:10.990	0.105	3.325	-3.08	0.269132	-0.008052	0.96868	-0.6165	-1.701	-3.7365	0	100	989	1
2026-02-11	16:17:09.010	-10.535	-8.19	-45.395	0.410652	0.017812	0.938668	-0.576	-1.7295	-3.735	0	312	899	1
2026-02-11	16:17:09.030	-8.26	-11.655	-43.96	0.410164	-0.000488	0.948184	-0.588	-1.725	-3.7395	0	312	899	1
2026-02-11	16:17:09.050	-7.455	-13.265	-41.72	0.389912	-0.000244	0.932568	-0.5865	-1.7145	-3.738	0	312	899	1
2026-02-11	16:17:09.070	-6.615	-13.51	-39.41	0.350628	-0.002196	0.921832	-0.585	-1.7115	-3.7275	0	312	899	1
2026-02-11	16:17:09.090	-5.25	-12.81	-38.15	0.321348	0.000732	0.919636	-0.591	-1.7175	-3.7245	0	312	899	1
2026-02-11	16:17:09.110	-3.815	-10.325	-37.38	0.303536	0.004636	0.936228	-0.591	-1.7115	-3.7335	0	312	899	1
2026-02-11	16:17:09.130	-2.765	-7.875	-36.925	0.302072	-0.002928	0.967948	-0.6015	-1.719	-3.741	0	312	899	1
2026-02-11	16:17:09.150	-3.01	-6.405	-35.56	0.317444	-0.008052	1.002108	-0.5955	-1.71	-3.7365	0	312	899	1
2026-02-11	16:17:09.170	-4.655	-5.53	-32.97	0.336232	-0.008052	1.021384	-0.6045	-1.707	-3.7275	0	312	899	1
2026-02-11	16:17:09.190	-6.265	-5.425	-28.595	0.350384	-0.012932	1.023092	-0.6015	-1.7175	-3.735	0	312	899	1
2026-02-11	16:17:09.210	-7.525	-5.705	-24.255	0.356484	-0.010736	1.009184	-0.6135	-1.7115	-3.7335	0	285	919	1
2026-02-11	16:17:09.230	-7.175	-5.25	-20.79	0.34648	-0.014884	0.9699	-0.6105	-1.7145	-3.7305	0	285	919	1
2026-02-11	16:17:09.250	-5.285	-4.865	-18.305	0.328668	-0.00732	0.936228	-0.609	-1.713	-3.729	0	285	919	1
2026-02-11	16:17:09.270	-1.015	-4.06	-16.52	0.324032	-0.014152	0.937936	-0.6105	-1.7145	-3.7305	0	285	919	1
2026-02-11	16:17:09.290	2.87	-2.66	-15.995	0.334524	-0.023912	0.972828	-0.612	-1.707	-3.7305	0	285	919	1
2026-02-11	16:17:09.310	4.375	-1.295	-15.82	0.3416	-0.033672	1.010892	-0.6165	-1.701	-3.7305	0	285	919	1
2026-02-11	16:17:09.330	4.025	-0.28	-15.54	0.335256	-0.052948	1.029436	-0.6225	-1.707	-3.732	0	285	919	1
2026-02-11	16:17:09.350	1.855	0.735	-14.595	0.329888	-0.057828	1.031632	-0.6285	-1.71	-3.7335	0	285	919	1
2026-02-11	16:17:09.370	-1.295	2.065	-13.265	0.297192	-0.0671	1.007964	-0.6255	-1.707	-3.729	0	285	919	1
2026-02-11	16:17:09.390	-4.06	2.835	-11.69	0.292312	-0.05002	0.978196	-0.621	-1.7085	-3.7305	0	285	919	1
2026-02-11	16:17:19.410	4.62	-0.42	11.76	0.259616	-0.040016	0.975268	-0.5715	-1.665	-3.684	0	125	992	1
2026-02-11	16:17:19.430	3.99	-0.945	10.99	0.25986	-0.036844	0.975756	-0.5715	-1.6785	-3.6705	0	125	992	1
2026-02-11	16:17:19.450	2.975	-1.54	10.465	0.246928	-0.045628	0.973316	-0.567	-1.6665	-3.6735	0	125	992	1
2026-02-11	16:17:19.470	1.995	-2.24	9.695	0.230092	-0.049288	0.968192	-0.573	-1.674	-3.6795	0	125	992	1
2026-02-11	16:17:19.490	1.54	-2.66	8.33	0.234484	-0.065392	0.989664	-0.573	-1.6695	-3.6765	0	125	992	1
2026-02-11	16:17:19.510	0.91	-1.995	7.035	0.224968	-0.083448	0.981368	-0.5775	-1.6695	-3.6705	0	125	992	1
2026-02-11	16:17:19.530	0.63	-1.575	6.055	0.200568	-0.104432	0.972584	-0.5745	-1.6605	-3.6795	0	125	992	1
2026-02-11	16:17:19.550	0.665	-2.03	5.11	0.170556	-0.119316	0.972828	-0.57	-1.668	-3.6825	0	125	992	1
2026-02-11	16:17:19.570	-0.105	-3.815	4.795	0.18422	-0.13542	1.026508	-0.5685	-1.68	-3.6795	0	125	992	1
2026-02-11	16:17:19.590	-3.22	-5.495	4.9	0.18666	-0.140544	1.054324	-0.5745	-1.6725	-3.6825	0	125	992	1
2026-02-11	16:17:19.610	-6.37	-7.21	4.55	0.203008	-0.129808	1.0553	-0.582	-1.671	-3.6855	0	115	992	1
2026-02-11	16:17:19.630	-8.54	-8.68	4.83	0.200324	-0.111264	1.025044	-0.5835	-1.6725	-3.6825	0	115	992	1
2026-02-11	16:17:19.650	-9.73	-9.555	5.425	0.18056	-0.0976	0.983076	-0.585	-1.6695	-3.6795	0	115	992	1
2026-02-11	16:17:19.670	-7.455	-9.065	6.195	0.16714	-0.086132	0.950136	-0.579	-1.6695	-3.6825	0	115	992	1
2026-02-11	16:17:19.690	-4.34	-7.98	6.3	0.160064	-0.07564	0.938912	-0.576	-1.6635	-3.6825	0	115	992	1
2026-02-11	16:17:19.710	-2.87	-5.95	5.32	0.160796	-0.07124799	0.95526	-0.579	-1.665	-3.678	0	115	992	1
2026-02-11	16:17:19.730	-1.89	-4.305	3.605	0.1586	-0.064904	0.973316	-0.582	-1.6605	-3.672	0	115	992	1
2026-02-11	16:17:19.750	-1.26	-3.745	3.43	0.149572	-0.080032	0.988688	-0.5835	-1.6665	-3.6735	0	115	992	1
2026-02-11	16:17:19.770	-0.98	-4.025	1.33	0.142496	-0.066612	1.00284	-0.5805	-1.665	-3.675	0	115	992	1
2026-02-11	16:17:19.790	-1.82	-5.355	-0.98	0.148108	-0.062952	1.022604	-0.591	-1.662	-3.6885	0	115	992	1
2026-02-11	16:17:19.810	-2.975	-6.44	-2.555	0.157624	-0.066368	1.033096	-0.597	-1.6605	-3.6735	0	106	995	1
2026-02-11	16:17:19.830	-3.885	-6.86	-4.41	0.16226	-0.070516	1.026752	-0.5745	-1.6575	-3.6825	0	106	995	1
2026-02-11	16:17:19.850	-3.395	-5.915	-6.44	0.170312	-0.065392	1.007476	-0.5805	-1.659	-3.681	0	106	995	1
2026-02-11	16:17:19.870	-3.36	-1.61	-8.155	0.176656	-0.063684	1.001864	-0.591	-1.662	-3.678	0	106	995	1
2026-02-11	16:17:19.890	-2.94	1.715	-10.36	0.183976	-0.059536	0.984784	-0.5925	-1.659	-3.6735	0	106	995	1
2026-02-11	16:17:19.910	-2.345	3.955	-12.74	0.204472	-0.057096	0.991128	-0.591	-1.6575	-3.6795	0	106	995	1
2026-02-11	16:17:19.930	-1.96	5.67	-14.7	0.20252	-0.05124	1.00528	-0.5895	-1.659	-3.6825	0	106	995	1
2026-02-11	16:17:19.950	-1.96	7.175	-15.96	0.199104	-0.050752	1.02602	-0.585	-1.659	-3.675	0	106	995	1
2026-02-11	16:17:19.970	-0.07	3.08	-15.89	0.243024	-0.057096	1.071404	-0.585	-1.6575	-3.672	0	106	995	1
2026-02-11	16:17:19.990	-0.63	-0.35	-14.035	0.25132	-0.061976	1.073112	-0.591	-1.659	-3.675	0	106	995	1
2026-02-11	16:17:20.010	-1.19	-4.445	-13.055	0.257176	-0.053924	1.065792	-0.5985	-1.662	-3.681	0	99	1001	1
2026-02-11	16:17:20.030	-2.485	-7	-12.81	0.25376	-0.066124	1.058472	-0.603	-1.6605	-3.6765	0	99	1001	1
2026-02-11	16:17:20.050	0.315	-5.25	-13.125	0.251564	-0.079544	1.027484	-0.6015	-1.659	-3.6735	0	99	1001	1
2026-02-11	16:17:20.070	-0.42	-0.14	-14.315	0.22448	-0.08052	0.987956	-0.603	-1.656	-3.672	0	99	1001	1
2026-02-11	16:17:20.090	-2.905	2.59	-16.24	0.270596	-0.070516	0.97234	-0.603	-1.6575	-3.669	0	99	1001	1
2026-02-11	16:17:20.110	-8.19	8.715	-16.1	0.347212	-0.04026	0.955748	-0.6	-1.659	-3.6705	0	99	1001	1
2026-02-11	16:17:20.130	-9.555	11.095	-16.59	0.381372	-0.023912	0.95526	-0.6	-1.6515	-3.6705	0	99	1001	1
2026-02-11	16:17:20.150	-7.805	8.96	-15.4	0.371124	-0.017812	0.9455	-0.5985	-1.659	-3.6675	0	99	1001	1
2026-02-11	16:17:20.170	-4.445	7.49	-14.98	0.335988	-0.02562	0.926468	-0.606	-1.6575	-3.681	0	99	1001	1
2026-02-11	16:17:20.190	-1.54	5.95	-14.91	0.318176	-0.038308	0.920124	-0.5985	-1.6455	-3.675	0	99	1001	1
2026-02-11	16:17:20.210	-0.21	3.5	-14.49	0.33062	-0.05246	0.930128	-0.597	-1.653	-3.6735	0	93	1008	1
2026-02-11	16:17:20.230	-1.155	3.01	-13.055	0.357704	-0.040748	0.9394	-0.5955	-1.653	-3.669	0	93	1008	1
2026-02-11	16:17:20.250	-3.43	3.255	-10.255	0.366976	-0.040992	0.94794	-0.5895	-1.656	-3.663	0	93	1008	1
2026-02-11	16:17:20.270	-5.67	3.255	-6.055	0.360388	-0.029768	0.931592	-0.5955	-1.6515	-3.6555	0	93	1008	1
2026-02-11	16:17:20.290	-6.895	4.13	-3.5	0.328912	-0.008296	0.915	-0.5955	-1.6575	-3.663	0	93	1008	1
2026-02-11	16:17:20.310	-7.035	5.775	-2.205	0.327448	0.009272	0.910608	-0.588	-1.6545	-3.66	0	93	1008	1
2026-02-11	16:17:20.330	-6.405	7.245	-1.26	0.304024	0.03172	0.88938	-0.585	-1.6485	-3.6645	0	93	1008	1
2026-02-11	16:17:20.350	-5.32	6.93	-0.28	0.297924	0.044652	0.9028	-0.588	-1.644	-3.6675	0	93	1008	1
2026-02-11	16:17:20.370	-3.01	3.5	1.26	0.289628	0.051484	0.92232	-0.588	-1.644	-3.6645	0	93	1008	1
2026-02-11	16:17:20.390	0.315	-1.33	2.24	0.291092	0.044652	0.95282	-0.588	-1.644	-3.6645	0	93	1008	1
2026-02-11	16:17:20.410	1.96	-5.18	2.1	0.291336	0.038552	0.967704	-0.5895	-1.65	-3.6765	0	90	1005	1
2026-02-11	16:17:20.430	4.06	-8.295	1.855	0.291092	0.016348	0.980148	-0.6015	-1.6545	-3.663	0	90	1005	1
2026-02-11	16:17:20.450	5.6	-10.045	1.365	0.305732	0.007808	0.976488	-0.5925	-1.641	-3.6615	0	90	1005	1
2026-02-11	16:17:20.470	5.39	-9.17	1.47	0.306464	0.009272	0.970388	-0.582	-1.653	-3.663	0	90	1005	1
2026-02-11	16:17:20.490	4.55	-7.525	4.06	0.29768	0.014396	0.967704	-0.5775	-1.644	-3.6615	0	90	1005	1
2026-02-11	16:17:20.510	3.675	-5.285	6.685	0.283772	0.019764	0.981856	-0.5775	-1.6515	-3.6615	0	90	1005	1
2026-02-11	16:17:20.530	2.765	-2.135	7.98	0.272548	0.02318	1.003816	-0.5865	-1.653	-3.6585	0	90	1005	1
2026-02-11	16:17:20.550	1.995	0	8.715	0.265472	0.025376	1.020164	-0.5835	-1.653	-3.663	0	90	1005	1
2026-02-11	16:17:20.570	1.82	0.77	9.135	0.260592	0.02806	1.026508	-0.588	-1.6605	-3.666	0	90	1005	1
2026-02-11	16:17:20.590	2.065	1.26	9.555	0.25742	0.025864	1.012356	-0.5865	-1.6485	-3.6675	0	90	1005	1
2026-02-11	16:17:20.610	2.555	1.61	10.185	0.254492	0.01464	0.99796	-0.585	-1.653	-3.663	0	87	999	1
2026-02-11	16:17:20.630	3.535	2.45	11.55	0.240096	0.009516	0.96746	-0.591	-1.65	-3.669	0	87	999	1
2026-02-11	16:17:20.650	5.04	2.52	13.09	0.256932	0.006588	0.965752	-0.591	-1.65	-3.669	0	87	999	1
2026-02-11	16:17:20.670	5.81	2.205	14.84	0.287432	-0.001708	0.98942	-0.591	-1.6515	-3.669	0	87	999	1
2026-02-11	16:17:20.690	5.845	1.68	17.01	0.307928	-0.005856	0.997228	-0.588	-1.6545	-3.669	0	87	999	1
2026-02-11	16:17:20.710	6.09	0.735	18.515	0.3233	-0.004148	0.999424	-0.579	-1.6575	-3.669	0	87	999	1
2026-02-11	16:17:20.730	6.685	-0.07	19.495	0.304024	-0.003416	0.972096	-0.5775	-1.665	-3.6675	0	87	999	1
2026-02-11	16:17:20.750	7.735	-0.945	19.635	0.290848	0.009516	0.945256	-0.582	-1.665	-3.6705	0	87	999	1
2026-02-11	16:17:20.770	9.03	-0.56	19.32	0.28182	0.016592	0.93086	-0.5775	-1.662	-3.672	0	87	999	1
2026-02-11	16:17:20.790	10.605	0.49	18.62	0.271328	0.020984	0.940376	-0.57	-1.668	-3.6675	0	87	999	1
2026-02-11	16:17:20.810	11.235	2.17	17.71	0.263764	0.01708	0.958432	-0.5715	-1.668	-3.6675	0	85	997	1
2026-02-11	16:17:20.830	10.57	3.85	16.765	0.251076	0.010492	0.97966	-0.5745	-1.6695	-3.672	0	85	997	1
2026-02-11	16:17:20.850	9.345	4.515	15.925	0.237412	0.006832	0.99186	-0.579	-1.6695	-3.6765	0	85	997	1
2026-02-11	16:17:20.870	7.63	4.41	14.28	0.22936	-0.008784	1.012844	-0.576	-1.662	-3.6795	0	85	997	1
2026-02-11	16:17:20.890	5.32	3.745	11.9	0.248148	-0.022936	1.016748	-0.57	-1.6605	-3.681	0	85	997	1
2026-02-11	16:17:20.910	1.995	2.8	9.1	0.268888	-0.03782	0.98698	-0.573	-1.6635	-3.6825	0	85	997	1
2026-02-11	16:17:20.930	0.63	2.765	7.84	0.276696	-0.044408	0.96624	-0.567	-1.668	-3.6825	0	85	997	1
2026-02-11	16:17:20.950	0.455	2.94	7.49	0.291092	-0.03538	0.936472	-0.564	-1.6755	-3.681	0	85	997	1
2026-02-11	16:17:20.970	1.575	3.885	7.77	0.290116	-0.029036	0.924272	-0.5685	-1.6755	-3.6795	0	85	997	1
2026-02-11	16:17:20.990	3.78	4.27	7.84	0.28182	-0.029768	0.925736	-0.5715	-1.671	-3.6735	0	85	997	1
2026-02-11	16:17:21.010	5.915	3.745	8.12	0.269132	-0.026352	0.952088	-0.57	-1.6695	-3.675	0	82	996	1
2026-02-11	16:17:21.030	6.965	3.045	9.065	0.26474	-0.044652	0.979172	-0.5655	-1.674	-3.6795	0	82	996	1
2026-02-11	16:17:21.050	5.74	3.15	9.135	0.2501	-0.038796	1.034804	-0.5655	-1.677	-3.6795	0	82	996	1
2026-02-11	16:17:21.070	1.435	4.55	8.995	0.241072	-0.03294	1.02358	-0.5685	-1.677	-3.681	0	82	996	1
2026-02-11	16:17:21.090	-2.695	4.235	7.805	0.25132	-0.032208	0.98576	-0.564	-1.6785	-3.684	0	82	996	1
2026-02-11	16:17:21.110	-3.99	2.275	6.265	0.264496	-0.028548	0.963556	-0.5595	-1.6815	-3.681	0	82	996	1
2026-02-11	16:17:21.130	-5.18	1.365	5.075	0.275964	-0.023424	0.940132	-0.5625	-1.683	-3.675	0	82	996	1
2026-02-11	16:17:21.150	-4.655	-0.07	4.445	0.270108	-0.021716	0.923296	-0.5655	-1.677	-3.6735	0	82	996	1
2026-02-11	16:17:21.170	-1.995	-0.805	3.92	0.263032	-0.03172	0.92842	-0.5655	-1.674	-3.6735	0	82	996	1
2026-02-11	16:17:21.190	1.225	-0.665	2.905	0.24156	-0.037576	0.946476	-0.564	-1.6755	-3.6765	0	82	996	1
2026-02-11	16:17:21.210	3.15	-0.385	1.995	0.23302	-0.051728	0.976732	-0.573	-1.6665	-3.678	0	78	995	1
2026-02-11	16:17:21.230	3.605	-0.105	1.715	0.229116	-0.059292	0.998204	-0.573	-1.6755	-3.678	0	78	995	1
2026-02-11	16:17:21.250	2.415	-0.14	1.96	0.23302	-0.059536	1.001132	-0.57	-1.6785	-3.681	0	78	995	1
2026-02-11	16:17:21.270	0.875	-0.84	2.205	0.238144	-0.0549	0.996252	-0.5715	-1.6815	-3.684	0	78	995	1
2026-02-11	16:17:21.290	-0.385	-1.015	2.24	0.245464	-0.05002	0.992348	-0.5775	-1.677	-3.675	0	78	995	1
2026-02-11	16:17:21.310	-1.295	-1.365	1.89	0.2562	-0.040748	0.990396	-0.579	-1.674	-3.681	0	78	995	1
2026-02-11	16:17:21.330	-1.435	-1.645	1.54	0.263764	-0.037088	0.98698	-0.576	-1.671	-3.669	0	78	995	1
2026-02-11	16:17:21.350	-1.575	-1.505	1.4	0.261324	-0.036112	0.979904	-0.5715	-1.671	-3.681	0	78	995	1
2026-02-11	16:17:21.370	-1.61	-1.19	1.295	0.262788	-0.037088	0.971852	-0.573	-1.677	-3.678	0	78	995	1
2026-02-11	16:17:21.390	-1.225	-0.875	1.12	0.255468	-0.031232	0.970388	-0.5685	-1.6755	-3.672	0	78	995	1
2026-02-11	16:17:21.410	-0.91	-0.525	0.735	0.25132	-0.030988	0.976244	-0.576	-1.6755	-3.678	0	74	995	1
2026-02-11	16:17:21.430	-0.84	-0.245	0.175	0.250344	-0.029524	0.984784	-0.5685	-1.68	-3.6795	0	74	995	1
2026-02-11	16:17:21.450	-1.785	-0.665	-0.98	0.246196	-0.031232	0.988932	-0.576	-1.6695	-3.681	0	74	995	1
2026-02-11	16:17:21.470	-2.45	-1.05	-1.82	0.24522	-0.033428	0.989664	-0.576	-1.668	-3.681	0	74	995	1
2026-02-11	16:17:21.490	-3.29	-1.365	-2.52	0.250832	-0.032208	0.985272	-0.579	-1.6665	-3.678	0	74	995	1
2026-02-11	16:17:21.510	-4.165	-1.855	-3.08	0.245464	-0.040016	0.985028	-0.5835	-1.6695	-3.675	0	74	995	1
2026-02-11	16:17:21.530	-4.585	-1.995	-3.08	0.257176	-0.04026	0.981612	-0.582	-1.6725	-3.6765	0	74	995	1
2026-02-11	16:17:21.550	-4.655	-2.03	-2.765	0.254004	-0.042456	0.983808	-0.579	-1.6725	-3.6765	0	74	995	1
2026-02-11	16:17:21.570	-4.515	-1.82	-2.73	0.25376	-0.045872	0.97844	-0.582	-1.6725	-3.6765	0	74	995	1
2026-02-11	16:17:21.590	-4.13	-1.365	-3.045	0.251076	-0.044652	0.977464	-0.582	-1.668	-3.6855	0	74	995	1
2026-02-11	16:17:21.610	-3.71	-0.84	-3.22	0.250832	-0.045384	0.97722	-0.5835	-1.671	-3.6795	0	69	996	1
2026-02-11	16:17:21.630	-3.325	-0.525	-3.255	0.258396	-0.04392	0.982588	-0.5895	-1.674	-3.6825	0	69	996	1
2026-02-11	16:17:21.650	-2.975	-0.175	-3.115	0.266448	-0.044164	0.988688	-0.597	-1.6695	-3.6795	0	69	996	1
2026-02-11	16:17:21.670	-2.73	0.385	-2.8	0.255468	-0.048556	0.987468	-0.5895	-1.662	-3.6795	0	69	996	1
2026-02-11	16:17:21.690	-2.555	0.735	-2.59	0.251076	-0.040992	0.984052	-0.579	-1.671	-3.6795	0	69	996	1
2026-02-11	16:17:21.710	-2.45	1.12	-2.415	0.25376	-0.046116	0.987468	-0.5835	-1.668	-3.678	0	69	996	1
2026-02-11	16:17:21.730	-2.45	1.75	-2.065	0.254492	-0.04636	0.983076	-0.5835	-1.668	-3.678	0	69	996	1
2026-02-11	16:17:21.750	-2.17	2.24	-2.03	0.257176	-0.047092	0.983808	-0.5865	-1.6695	-3.678	0	69	996	1
2026-02-11	16:17:21.770	-1.925	2.8	-2.065	0.252052	-0.045384	0.980636	-0.585	-1.6695	-3.6735	0	69	996	1
2026-02-11	16:17:21.790	-1.75	3.15	-2.1	0.24888	-0.038552	0.975024	-0.582	-1.665	-3.6705	0	69	996	1
2026-02-11	16:17:21.810	-1.61	3.01	-2.065	0.247416	-0.039528	0.977708	-0.585	-1.6695	-3.6795	0	63	998	1
2026-02-11	16:17:21.830	-1.47	3.045	-1.89	0.258396	-0.039528	0.976976	-0.5865	-1.6725	-3.684	0	63	998	1
2026-02-11	16:17:21.850	-1.19	2.975	-1.785	0.248636	-0.039528	0.97112	-0.582	-1.665	-3.684	0	63	998	1
2026-02-11	16:17:21.870	-0.98	2.52	-1.575	0.248636	-0.041968	0.970144	-0.582	-1.662	-3.681	0	63	998	1
2026-02-11	16:17:21.890	-0.7	2.59	-1.26	0.252296	-0.04636	0.968436	-0.585	-1.6605	-3.678	0	63	998	1
2026-02-11	16:17:21.910	-0.455	2.555	-1.085	0.251808	-0.0366	0.964288	-0.5835	-1.662	-3.6795	0	63	998	1
2026-02-11	16:17:21.930	0.175	2.065	-0.91	0.248392	-0.038308	0.963556	-0.585	-1.665	-3.681	0	63	998	1
2026-02-11	16:17:21.950	0.91	1.68	-0.665	0.255712	-0.0366	0.973804	-0.5865	-1.668	-3.6855	0	63	998	1
2026-02-11	16:17:21.970	1.225	1.68	-0.385	0.2501	-0.037576	0.97478	-0.591	-1.6665	-3.684	0	63	998	1
2026-02-11	16:17:21.990	0.945	1.715	-0.525	0.250588	-0.030988	0.982832	-0.5985	-1.662	-3.6825	0	63	998	1
2026-02-11	16:17:22.010	1.05	1.925	-0.49	0.247172	-0.032452	0.981124	-0.585	-1.6635	-3.6795	0	57	999	1
2026-02-11	16:17:22.030	0.875	2.205	-0.35	0.239852	-0.032208	0.979172	-0.5775	-1.662	-3.6765	0	57	999	1
2026-02-11	16:17:22.050	0.665	2.38	-0.35	0.235704	-0.031232	0.977708	-0.585	-1.665	-3.675	0	57	999	1
2026-02-11	16:17:22.070	0.735	2.345	-0.49	0.2379	-0.027084	0.981856	-0.5835	-1.6725	-3.6795	0	57	999	1
2026-02-11	16:17:22.090	0.63	2.45	-0.525	0.236192	-0.027816	0.98942	-0.588	-1.665	-3.6825	0	57	999	1
2026-02-11	16:17:22.110	0.28	2.485	-0.665	0.234484	-0.031476	0.991128	-0.582	-1.668	-3.684	0	57	999	1
2026-02-11	16:17:22.130	-0.14	2.205	-0.805	0.233752	-0.034648	0.988444	-0.5775	-1.6725	-3.69	0	57	999	1
2026-02-11	16:17:22.150	-0.7	1.89	-0.7	0.229604	-0.031476	0.983564	-0.585	-1.668	-3.684	0	57	999	1
2026-02-11	16:17:22.170	-0.945	1.715	-0.56	0.234728	-0.029768	0.982588	-0.5805	-1.656	-3.687	0	57	999	1
2026-02-11	16:17:22.190	-1.015	1.68	-0.42	0.23912	-0.033672	0.983564	-0.582	-1.662	-3.6795	0	57	999	1
2026-02-11	16:17:22.210	-1.085	1.715	-0.245	0.235704	-0.030256	0.972096	-0.5835	-1.665	-3.678	0	51	1000	1
2026-02-11	16:17:22.230	-0.84	1.68	-0.245	0.231068	-0.026596	0.971852	-0.5835	-1.6635	-3.6825	0	51	1000	1
2026-02-11	16:17:22.250	-0.315	1.365	-0.525	0.234484	-0.02928	0.976976	-0.5835	-1.665	-3.681	0	51	1000	1
2026-02-11	16:17:22.270	-0.105	1.12	-0.63	0.236192	-0.029768	0.979172	-0.5835	-1.665	-3.681	0	51	1000	1
2026-02-11	16:17:22.290	-0.07	0.91	-0.77	0.235948	-0.030256	0.981368	-0.582	-1.6695	-3.684	0	51	1000	1
2026-02-11	16:17:22.310	-0.245	0.735	-0.805	0.233264	-0.027572	0.980636	-0.5715	-1.668	-3.681	0	51	1000	1
2026-02-11	16:17:22.330	-0.49	0.455	-0.875	0.223504	-0.02806	0.978684	-0.5775	-1.665	-3.6765	0	51	1000	1
2026-02-11	16:17:22.350	-0.665	0.07	-1.05	0.227164	-0.0305	0.978684	-0.576	-1.671	-3.678	0	51	1000	1
2026-02-11	16:17:22.370	-0.77	-0.14	-1.12	0.229116	-0.02318	0.982832	-0.585	-1.6695	-3.687	0	51	1000	1
2026-02-11	16:17:22.390	-0.665	-0.07	-1.19	0.22204	-0.022936	0.97844	-0.5895	-1.665	-3.678	0	51	1000	1
2026-02-11	16:17:22.410	-0.49	-0.245	-1.4	0.222772	-0.029036	0.986492	-0.579	-1.6635	-3.6855	0	45	1000	1
2026-02-11	16:17:22.430	-0.42	-0.28	-1.47	0.226676	-0.027572	0.987712	-0.5835	-1.668	-3.684	0	45	1000	1
2026-02-11	16:17:22.450	-0.455	-0.245	-1.505	0.222528	-0.032208	0.989908	-0.585	-1.659	-3.675	0	45	1000	1
2026-02-11	16:17:22.470	-0.525	-0.21	-1.645	0.225212	-0.031232	0.991616	-0.585	-1.671	-3.681	0	45	1000	1
2026-02-11	16:17:22.490	-0.525	0.035	-1.715	0.230824	-0.033184	0.989176	-0.573	-1.671	-3.675	0	45	1000	1
2026-02-11	16:17:22.510	-0.42	0.35	-1.75	0.22326	-0.033428	0.987956	-0.5775	-1.6695	-3.684	0	45	1000	1
2026-02-11	16:17:22.530	0	0.805	-1.785	0.232532	-0.0305	0.992592	-0.5775	-1.6695	-3.684	0	45	1000	1
2026-02-11	16:17:22.550	0.105	1.155	-1.645	0.23302	-0.032208	0.992592	-0.579	-1.6665	-3.681	0	45	1000	1
2026-02-11	16:17:22.570	0.315	1.505	-1.54	0.226676	-0.032208	0.986248	-0.5805	-1.6665	-3.6765	0	45	1000	1
2026-02-11	16:17:22.590	0.77	1.575	-1.505	0.235216	-0.026596	0.987956	-0.5805	-1.6665	-3.6795	0	45	1000	1
2026-02-11	16:17:22.610	1.155	1.96	-1.47	0.23424	-0.030744	0.987468	-0.5805	-1.6635	-3.6825	0	40	1001	1
2026-02-11	16:17:22.630	1.26	2.345	-1.4	0.22692	-0.02928	0.984052	-0.579	-1.6665	-3.6795	0	40	1001	1
2026-02-11	16:17:22.650	1.225	2.345	-1.47	0.224236	-0.029524	0.985516	-0.576	-1.6695	-3.675	0	40	1001	1
2026-02-11	16:17:22.670	0.735	2.485	-1.575	0.22936	-0.026352	0.99308	-0.576	-1.6665	-3.675	0	40	1001	1
2026-02-11	16:17:22.690	0	2.835	-1.505	0.220088	-0.023912	0.98698	-0.579	-1.668	-3.6765	0	40	1001	1
2026-02-11	16:17:22.710	-0.315	2.695	-1.575	0.220088	-0.02196	0.984784	-0.5775	-1.6725	-3.6735	0	40	1001	1
2026-02-11	16:17:22.730	-0.28	2.415	-1.82	0.218624	-0.023668	0.979904	-0.5745	-1.6695	-3.681	0	40	1001	1
2026-02-11	16:17:22.750	-0.21	2.345	-2.38	0.21716	-0.024888	0.978196	-0.5775	-1.671	-3.684	0	40	1001	1
2026-02-11	16:17:22.770	-0.28	2.31	-2.87	0.208864	-0.023912	0.975756	-0.582	-1.6725	-3.6765	0	40	1001	1
2026-02-11	16:17:22.790	-0.35	1.89	-3.22	0.216672	-0.027328	0.985516	-0.5835	-1.6695	-3.6735	0	40	1001	1
2026-02-11	16:17:22.810	-0.42	1.54	-3.325	0.221796	-0.032208	0.988688	-0.5835	-1.6695	-3.6735	0	36	1003	1
2026-02-11	16:17:22.830	-0.735	1.33	-3.36	0.216184	-0.031476	0.98088	-0.5775	-1.6725	-3.69	0	36	1003	1
2026-02-11	16:17:22.850	-0.805	1.05	-3.43	0.212768	-0.028792	0.97722	-0.5745	-1.6695	-3.6855	0	36	1003	1
2026-02-11	16:17:22.870	-0.175	0.455	-3.675	0.221064	-0.029524	0.984784	-0.576	-1.668	-3.684	0	36	1003	1
2026-02-11	16:17:22.890	0.7	0.14	-4.445	0.21594	-0.036356	0.985272	-0.5775	-1.671	-3.684	0	36	1003	1
2026-02-11	16:17:22.910	0.945	0.14	-5.495	0.208132	-0.034404	0.9943	-0.576	-1.671	-3.681	0	36	1003	1
2026-02-11	16:17:22.930	0.945	0.665	-6.125	0.215452	-0.041724	1.005768	-0.5775	-1.668	-3.6795	0	36	1003	1
2026-02-11	16:17:22.950	0.035	0.805	-5.985	0.218624	-0.033672	1.007232	-0.5745	-1.665	-3.6825	0	36	1003	1
2026-02-11	16:17:22.970	-0.735	0.77	-5.11	0.22204	-0.020496	1.014308	-0.5715	-1.662	-3.6825	0	36	1003	1
2026-02-11	16:17:22.990	-1.295	1.365	-4.2	0.21472	-0.003416	1.015528	-0.576	-1.662	-3.6795	0	36	1003	1
2026-02-11	16:17:23.010	-1.4	2.59	-4.48	0.185196	0.000976	1.005524	-0.579	-1.6635	-3.681	0	32	1005	1
2026-02-11	16:17:23.030	-1.19	2.87	-6.23	0.192272	0.005124	1.008208	-0.5775	-1.6635	-3.6825	0	32	1005	1
2026-02-11	16:17:23.050	-1.05	2.87	-9.03	0.206912	0.003172	1.018944	-0.5805	-1.665	-3.681	0	32	1005	1
2026-02-11	16:17:23.070	-1.435	2.765	-11.76	0.210328	0.000976	1.01626	-0.588	-1.6665	-3.681	0	32	1005	1
2026-02-11	16:17:23.090	-0.945	3.36	-13.72	0.210328	-0.00122	1.011624	-0.588	-1.668	-3.6885	0	32	1005	1
2026-02-11	16:17:23.110	-0.105	4.69	-15.54	0.215208	-0.005368	1.01992	-0.5895	-1.662	-3.6885	0	32	1005	1
2026-02-11	16:17:23.130	0.07	6.405	-17.15	0.232044	-0.0122	1.026996	-0.5835	-1.6635	-3.6795	0	32	1005	1
2026-02-11	16:17:23.150	-0.14	8.33	-18.165	0.226676	-0.011712	1.01626	-0.582	-1.6665	-3.6765	0	32	1005	1
2026-02-11	16:17:23.170	-0.175	10.325	-18.795	0.224968	-0.014884	1.013576	-0.585	-1.6695	-3.675	0	32	1005	1
2026-02-11	16:17:23.190	-0.42	12.25	-19.04	0.22204	-0.010736	1.00528	-0.585	-1.6665	-3.6825	0	32	1005	1
2026-02-11	16:17:23.210	-0.35	13.72	-18.9	0.2135	-0.016592	0.99552	-0.5835	-1.6635	-3.6825	0	29	1009	1
2026-02-11	16:17:23.230	-0.49	14.455	-18.41	0.192272	-0.023424	0.990396	-0.576	-1.662	-3.687	0	29	1009	1
2026-02-11	16:17:23.250	-1.085	14.21	-18.165	0.191052	-0.017812	0.987224	-0.588	-1.662	-3.6825	0	29	1009	1
2026-02-11	16:17:23.270	-2.03	13.44	-17.36	0.18544	-0.024156	0.98576	-0.5805	-1.6605	-3.6885	0	29	1009	1
2026-02-11	16:17:23.290	-2.66	11.655	-16.03	0.19154	-0.02806	0.97844	-0.5835	-1.662	-3.675	0	29	1009	1
2026-02-11	16:17:23.310	-2.485	8.715	-14.035	0.191052	-0.040748	0.953308	-0.5805	-1.6725	-3.6825	0	29	1009	1
2026-02-11	16:17:23.330	-0.49	4.83	-10.115	0.153476	-0.038796	0.926224	-0.579	-1.659	-3.6855	0	29	1009	1
2026-02-11	16:17:23.350	1.995	3.395	-8.015	0.142008	-0.050752	0.898408	-0.5805	-1.6665	-3.684	0	29	1009	1
2026-02-11	16:17:23.370	5.18	1.19	-6.195	0.123464	-0.056852	0.90402	-0.582	-1.6695	-3.684	0	29	1009	1
2026-02-11	16:17:23.390	8.47	-0.21	-4.9	0.13054	-0.055144	0.921588	-0.5805	-1.6695	-3.684	0	29	1009	1
2026-02-11	16:17:23.410	10.71	-0.7	-3.78	0.12566	-0.053436	0.944036	-0.5775	-1.6755	-3.6795	0	28	1010	1
2026-02-11	16:17:23.430	10.955	-0.7	-2.975	0.131272	-0.043432	0.970876	-0.5775	-1.674	-3.6825	0	28	1010	1
2026-02-11	16:17:23.450	9.275	-1.155	-1.995	0.142496	-0.031476	0.9882	-0.5775	-1.674	-3.687	0	28	1010	1
2026-02-11	16:17:23.470	8.19	-3.15	-0.42	0.168848	-0.02562	1.00528	-0.582	-1.6725	-3.6855	0	28	1010	1
2026-02-11	16:17:23.490	6.3	-6.44	0.805	0.212036	-0.036844	1.05286	-0.5865	-1.668	-3.687	0	28	1010	1
2026-02-11	16:17:23.510	2.31	-6.895	1.505	0.259372	-0.042456	1.06384	-0.594	-1.6725	-3.6825	0	28	1010	1
2026-02-11	16:17:23.530	0	-4.725	3.5	0.24888	-0.039528	1.032852	-0.585	-1.671	-3.6825	0	28	1010	1
2026-02-11	16:17:23.550	-0.805	-2.38	5.88	0.224724	-0.026596	0.97112	-0.582	-1.6785	-3.6795	0	28	1010	1
2026-02-11	16:17:23.570	-0.28	-1.47	7.665	0.193736	-0.020496	0.942816	-0.5835	-1.677	-3.681	0	28	1010	1
2026-02-11	16:17:23.590	2.835	1.96	9.485	0.186416	-0.007808	0.974048	-0.576	-1.68	-3.681	0	28	1010	1
2026-02-11	16:17:23.610	6.23	6.3	9.345	0.18544	0.00122	1.022604	-0.576	-1.68	-3.681	0	28	1010	1
2026-02-11	16:17:23.630	8.05	7.455	8.645	0.177388	0.011712	1.033096	-0.579	-1.6785	-3.6825	0	28	1010	1
2026-02-11	16:17:23.650	9.345	6.65	8.015	0.15738	0.02806	1.029436	-0.5865	-1.68	-3.687	0	28	1010	1
2026-02-11	16:17:23.670	10.185	6.335	7.385	0.140544	0.03416	1.01748	-0.5895	-1.686	-3.6885	0	28	1010	1
2026-02-11	16:17:23.690	9.485	6.93	6.51	0.132492	0.025864	1.009184	-0.5895	-1.6905	-3.6945	0	28	1010	1
2026-02-11	16:17:23.710	9.03	7.56	5.6	0.116144	0.032696	0.988688	-0.5925	-1.686	-3.696	0	28	1010	1
2026-02-11	16:17:23.730	8.54	7.42	4.445	0.126392	0.048068	0.988688	-0.588	-1.683	-3.6975	0	28	1010	1
2026-02-11	16:17:23.750	5.88	6.72	3.08	0.154696	0.062464	1.009672	-0.579	-1.6845	-3.699	0	28	1010	1
2026-02-11	16:17:23.770	3.115	6.265	2.31	0.186416	0.064904	1.035292	-0.579	-1.6845	-3.7005	0	28	1010	1
2026-02-11	16:17:23.790	-0.91	5.81	1.715	0.191296	0.058804	1.035292	-0.5805	-1.6875	-3.6975	0	28	1010	1
2026-02-11	16:17:23.810	-5.18	5.355	0.77	0.169336	0.062952	1.01016	-0.5775	-1.689	-3.6945	0	30	1011	1
2026-02-11	16:17:23.830	-7.385	4.865	-0.735	0.155916	0.06344	0.977952	-0.579	-1.6845	-3.6945	0	30	1011	1
2026-02-11	16:17:23.850	-8.645	4.235	-2.415	0.15006	0.048556	0.961116	-0.579	-1.6815	-3.69	0	30	1011	1
2026-02-11	16:17:23.870	-9.45	2.52	-5.005	0.144204	0.033428	0.9699	-0.576	-1.6815	-3.687	0	30	1011	1
2026-02-11	16:17:23.890	-8.925	1.33	-6.265	0.152012	0.02684	0.998448	-0.576	-1.6815	-3.687	0	30	1011	1
2026-02-11	16:17:23.910	-9.38	0.665	-6.93	0.152256	0.01586	1.01626	-0.576	-1.686	-3.6945	0	30	1011	1
2026-02-11	16:17:23.930	-10.115	-0.07	-6.72	0.144692	0.010736	1.018456	-0.576	-1.6755	-3.684	0	30	1011	1
2026-02-11	16:17:23.950	-10.885	-1.015	-5.775	0.13908	-0.005612	1.008696	-0.582	-1.686	-3.696	0	30	1011	1
2026-02-11	16:17:23.970	-11.41	-2.1	-4.27	0.144448	-0.017568	1.00284	-0.579	-1.6755	-3.69	0	30	1011	1
2026-02-11	16:17:23.990	-11.41	-2.31	-2.38	0.146156	-0.020008	0.994544	-0.5745	-1.6755	-3.6825	0	30	1011	1
2026-02-11	16:17:24.010	-10.71	-1.715	-0.7	0.158112	-0.010736	0.991128	-0.573	-1.6695	-3.687	0	33	1013	1
2026-02-11	16:17:24.030	-9.45	-1.12	0.385	0.164212	-0.011224	0.986248	-0.576	-1.674	-3.6825	0	33	1013	1
2026-02-11	16:17:24.050	-7.28	-0.665	1.05	0.170556	-0.016592	0.984296	-0.582	-1.668	-3.6825	0	33	1013	1
2026-02-11	16:17:24.070	-5.53	-0.49	1.295	0.17934	-0.013176	0.991128	-0.582	-1.665	-3.681	0	33	1013	1
2026-02-11	16:17:24.090	-4.095	0.42	1.225	0.16592	-0.009272	0.98454	-0.582	-1.6665	-3.684	0	33	1013	1
2026-02-11	16:17:24.110	-2.555	1.26	0.735	0.158112	-0.00732	0.980636	-0.582	-1.6785	-3.693	0	33	1013	1
2026-02-11	16:17:24.130	-0.875	1.54	-0.105	0.166896	-0.012688	0.99552	-0.5775	-1.677	-3.6825	0	33	1013	1
2026-02-11	16:17:24.150	-0.315	1.925	-0.595	0.167384	-0.015372	1.00894	-0.5775	-1.668	-3.6855	0	33	1013	1
2026-02-11	16:17:24.170	-0.49	2.275	-0.665	0.160796	-0.016104	1.003084	-0.5745	-1.6635	-3.681	0	33	1013	1
2026-02-11	16:17:24.190	-0.63	2.03	-0.805	0.148352	-0.018056	0.996984	-0.576	-1.668	-3.678	0	33	1013	1
2026-02-11	16:17:24.210	-0.77	1.505	-1.085	0.157136	-0.017812	1.009428	-0.579	-1.665	-3.678	0	35	1015	1
2026-02-11	16:17:24.230	-1.4	1.645	-1.295	0.165676	-0.01952	1.01748	-0.573	-1.668	-3.6855	0	35	1015	1
2026-02-11	16:17:24.250	-2.1	2.345	-1.33	0.167384	-0.017324	1.008696	-0.579	-1.671	-3.684	0	35	1015	1
2026-02-11	16:17:24.270	-2.065	2.87	-1.68	0.149816	-0.017324	0.988444	-0.576	-1.668	-3.6945	0	35	1015	1
2026-02-11	16:17:24.290	-0.98	2.38	-2.45	0.1525	-0.020984	0.987224	-0.585	-1.6665	-3.6795	0	35	1015	1
2026-02-11	16:17:24.310	0.21	1.96	-3.255	0.158112	-0.017568	0.990396	-0.582	-1.6665	-3.6855	0	35	1015	1
2026-02-11	16:17:24.330	0.84	1.645	-3.85	0.163968	-0.019276	1.000644	-0.5685	-1.662	-3.687	0	35	1015	1
2026-02-11	16:17:24.350	1.4	2.1	-4.165	0.158112	-0.018788	0.99308	-0.579	-1.671	-3.69	0	35	1015	1
2026-02-11	16:17:24.370	2.1	2.065	-4.305	0.151036	-0.02318	0.9821	-0.576	-1.6605	-3.6855	0	35	1015	1
2026-02-11	16:17:24.390	3.045	1.26	-4.13	0.146644	-0.026596	0.994788	-0.5805	-1.671	-3.687	0	35	1015	1
2026-02-11	16:17:24.410	3.64	1.4	-3.465	0.138592	-0.0427	0.99674	-0.5775	-1.6665	-3.684	0	37	1017	1
2026-02-11	16:17:24.430	3.955	2.135	-2.625	0.144692	-0.044408	0.987468	-0.5775	-1.6695	-3.6855	0	37	1017	1
2026-02-11	16:17:24.450	4.97	2.135	-1.365	0.141764	-0.040992	0.972584	-0.576	-1.668	-3.687	0	37	1017	1
2026-02-11	16:17:24.470	6.65	1.155	0.07	0.143472	-0.035136	0.97966	-0.57	-1.668	-3.687	0	37	1017	1
2026-02-11	16:17:24.490	8.05	0.595	1.295	0.133712	-0.028304	0.986736	-0.57	-1.671	-3.6825	0	37	1017	1
2026-02-11	16:17:24.510	8.4	0.105	2.065	0.149328	-0.0305	1.00894	-0.5745	-1.6725	-3.6825	0	37	1017	1
2026-02-11	16:17:24.530	7.56	0.14	2.87	0.15494	-0.023912	1.01382	-0.5715	-1.677	-3.6825	0	37	1017	1
2026-02-11	16:17:24.550	6.335	0.07	3.675	0.133224	-0.013664	1.007232	-0.573	-1.677	-3.6855	0	37	1017	1
2026-02-11	16:17:24.570	4.9	0.595	4.34	0.132492	-0.00732	1.00406	-0.576	-1.6755	-3.693	0	37	1017	1
2026-02-11	16:17:24.590	3.325	1.82	4.9	0.128344	-0.008296	1.003328	-0.573	-1.674	-3.693	0	37	1017	1
2026-02-11	16:17:24.610	0.7	2.975	5.25	0.147864	0.006832	1.008452	-0.576	-1.674	-3.6915	0	37	1017	1
2026-02-11	16:17:24.630	-1.26	4.865	5.95	0.142252	0.02196	1.00528	-0.576	-1.677	-3.693	0	37	1017	1
2026-02-11	16:17:24.650	-2.66	5.775	6.16	0.136884	0.021472	1.004304	-0.5775	-1.68	-3.6915	0	37	1017	1
2026-02-11	16:17:24.670	-4.76	6.58	4.83	0.13542	0.013908	1.008208	-0.5805	-1.68	-3.69	0	37	1017	1
2026-02-11	16:17:24.690	-7.28	7.315	2.975	0.123952	0.014152	1.0004	-0.5805	-1.68	-3.69	0	37	1017	1
2026-02-11	16:17:24.710	-8.47	6.79	1.68	0.1159	0.009028	0.996008	-0.567	-1.6815	-3.6825	0	37	1017	1
2026-02-11	16:17:24.730	-9.17	4.83	0.735	0.130296	0.005856	1.014796	-0.5655	-1.6725	-3.687	0	37	1017	1
2026-02-11	16:17:24.750	-9.975	3.115	0.175	0.144204	0	1.024068	-0.5625	-1.674	-3.675	0	37	1017	1
2026-02-11	16:17:24.770	-10.64	2.59	-0.35	0.119072	-0.00122	1.004792	-0.57	-1.68	-3.6855	0	37	1017	1
2026-02-11	16:17:24.790	-10.255	2.275	-1.085	0.096624	-0.000732	0.98332	-0.5655	-1.674	-3.6825	0	37	1017	1
2026-02-11	16:17:24.810	-8.47	1.89	-1.96	0.095892	-0.007808	0.972584	-0.5625	-1.668	-3.6795	0	37	1018	1
2026-02-11	16:17:24.830	-6.195	1.61	-2.52	0.107604	-0.022204	0.97966	-0.561	-1.6635	-3.678	0	37	1018	1
2026-02-11	16:17:24.850	-4.025	1.47	-2.52	0.11468	-0.034892	0.979172	-0.5595	-1.6635	-3.681	0	37	1018	1
2026-02-11	16:17:24.870	-2.275	1.505	-2.24	0.110776	-0.039772	0.98698	-0.564	-1.662	-3.6795	0	37	1018	1
2026-02-11	16:17:24.890	-1.225	1.75	-2.24	0.119316	-0.042212	0.990152	-0.5655	-1.6635	-3.6765	0	37	1018	1
2026-02-11	16:17:24.910	-0.595	1.645	-2.065	0.128588	-0.048556	0.989664	-0.564	-1.6635	-3.681	0	37	1018	1
2026-02-11	16:17:24.930	-0.595	0.91	-1.4	0.144448	-0.059292	1.005524	-0.5595	-1.662	-3.684	0	37	1018	1
2026-02-11	16:17:24.950	-2.38	0.56	0.07	0.137372	-0.054412	1.000888	-0.5535	-1.665	-3.687	0	37	1018	1
2026-02-11	16:17:24.970	-3.045	0.595	1.12	0.124684	-0.044652	0.985516	-0.5565	-1.665	-3.672	0	37	1018	1
2026-02-11	16:17:24.990	-3.36	0.875	1.575	0.1281	-0.046848	0.991128	-0.561	-1.6635	-3.681	0	37	1018	1
2026-02-11	16:17:25.010	-3.885	1.47	1.575	0.136152	-0.042456	0.997472	-0.555	-1.6635	-3.681	0	36	1018	1
2026-02-11	16:17:25.030	-4.585	1.47	1.82	0.132004	-0.035624	0.991616	-0.5655	-1.665	-3.6795	0	36	1018	1
2026-02-11	16:17:25.050	-4.865	0.525	2.415	0.126392	-0.021716	0.995764	-0.567	-1.6575	-3.681	0	36	1018	1
2026-02-11	16:17:25.070	-4.69	-0.175	2.87	0.124684	-0.02684	1.004548	-0.5565	-1.6575	-3.672	0	36	1018	1
2026-02-11	16:17:25.090	-4.655	-0.525	2.975	0.124928	-0.029768	1.003572	-0.567	-1.653	-3.675	0	36	1018	1
2026-02-11	16:17:25.110	-4.375	-0.735	2.905	0.116144	-0.03904	0.991128	-0.564	-1.6545	-3.678	0	36	1018	1
2026-02-11	16:17:25.130	-3.465	-1.085	2.625	0.10004	-0.041968	0.987224	-0.564	-1.659	-3.6825	0	36	1018	1
2026-02-11	16:17:25.150	-2.1	-1.4	1.96	0.100284	-0.0366	0.995276	-0.558	-1.653	-3.6795	0	36	1018	1
2026-02-11	16:17:25.170	-1.26	-1.645	1.12	0.122732	-0.038308	1.013088	-0.555	-1.659	-3.6855	0	36	1018	1
2026-02-11	16:17:25.190	-1.33	-1.715	0.945	0.141764	-0.044896	1.026264	-0.561	-1.6515	-3.6765	0	36	1018	1
2026-02-11	16:17:25.210	-1.61	-1.155	1.4	0.13298	-0.038308	1.010892	-0.5685	-1.6575	-3.681	0	35	1018	1
2026-02-11	16:17:25.230	-0.875	-0.56	1.33	0.122244	-0.043188	1.004792	-0.564	-1.656	-3.678	0	35	1018	1
2026-02-11	16:17:25.250	-0.035	-0.21	1.12	0.132248	-0.04636	0.998936	-0.5595	-1.6545	-3.6765	0	35	1018	1
2026-02-11	16:17:25.270	0.035	-0.14	1.295	0.1342	-0.044164	1.001132	-0.5595	-1.653	-3.6825	0	35	1018	1
2026-02-11	16:17:25.290	0.525	0.175	1.89	0.127124	-0.038308	1.001132	-0.564	-1.6575	-3.684	0	35	1018	1
2026-02-11	16:17:25.310	0.385	0.49	2.135	0.118584	-0.030988	1.001864	-0.5625	-1.659	-3.684	0	35	1018	1
2026-02-11	16:17:25.330	0.21	0.63	1.61	0.114436	-0.027572	1.009672	-0.561	-1.656	-3.681	0	35	1018	1
2026-02-11	16:17:25.350	0.035	0.315	0.875	0.129564	-0.02928	1.01382	-0.561	-1.6545	-3.675	0	35	1018	1
2026-02-11	16:17:25.370	0.035	-0.49	0.245	0.131028	-0.038796	1.00162	-0.5565	-1.6515	-3.669	0	35	1018	1
2026-02-11	16:17:25.390	0.21	-1.75	-0.175	0.1281	-0.040016	0.986736	-0.561	-1.653	-3.6675	0	35	1018	1
2026-02-11	16:17:25.410	1.015	-2.415	-0.595	0.130052	-0.043432	0.987956	-0.5625	-1.6545	-3.6705	0	33	1019	1
2026-02-11	16:17:25.430	2.345	-2.24	-1.085	0.147864	-0.040504	0.993568	-0.5655	-1.6545	-3.678	0	33	1019	1
2026-02-11	16:17:25.450	4.095	-2.45	-0.98	0.15738	-0.045872	0.98698	-0.5715	-1.6575	-3.6855	0	33	1019	1
2026-02-11	16:17:25.470	6.405	-3.465	-0.56	0.144204	-0.03782	0.99064	-0.5655	-1.659	-3.681	0	33	1019	1
2026-02-11	16:17:25.490	8.68	-3.78	-0.84	0.137616	-0.0305	0.994544	-0.5655	-1.659	-3.681	0	33	1019	1
2026-02-11	16:17:25.510	10.22	-3.395	-1.33	0.133468	-0.026596	0.996008	-0.5655	-1.665	-3.6795	0	33	1019	1
2026-02-11	16:17:25.530	11.305	-3.15	-1.505	0.12078	-0.025376	0.9882	-0.567	-1.671	-3.6795	0	33	1019	1
2026-02-11	16:17:25.550	11.97	-3.36	-1.33	0.126148	-0.0183	0.996252	-0.5655	-1.671	-3.678	0	33	1019	1
2026-02-11	16:17:25.570	11.795	-3.64	-0.805	0.137128	-0.018544	1.020164	-0.57	-1.6725	-3.6795	0	33	1019	1
2026-02-11	16:17:25.590	9.87	-2.73	-0.175	0.141032	-0.008784	1.027728	-0.5715	-1.674	-3.684	0	33	1019	1
2026-02-11	16:17:25.610	7.035	-1.12	0	0.129808	-0.011468	1.0248	-0.567	-1.6725	-3.6795	0	32	1020	1
2026-02-11	16:17:25.630	4.165	-0.63	-0.14	0.140056	-0.01464	1.017968	-0.567	-1.671	-3.6795	0	32	1020	1
2026-02-11	16:17:25.650	1.435	-0.455	-0.035	0.15616	-0.013908	1.006012	-0.5655	-1.671	-3.684	0	32	1020	1
2026-02-11	16:17:25.670	-0.77	0.455	0.14	0.149328	-0.008296	0.992104	-0.5685	-1.6725	-3.684	0	32	1020	1
2026-02-11	16:17:25.690	-1.785	1.89	0.14	0.1342	0.000976	0.968436	-0.5715	-1.671	-3.6855	0	32	1020	1
2026-02-11	16:17:25.710	-1.26	1.61	-0.175	0.133956	-0.002196	0.963068	-0.567	-1.674	-3.6855	0	32	1020	1
2026-02-11	16:17:25.730	-0.315	0.525	-1.085	0.135908	-0.00244	0.979172	-0.564	-1.674	-3.6855	0	32	1020	1
2026-02-11	16:17:25.750	-1.05	-0.035	-3.185	0.133956	-0.01952	1.001376	-0.5655	-1.671	-3.684	0	32	1020	1
2026-02-11	16:17:25.770	-2.87	-0.385	-3.605	0.133224	-0.019764	0.993324	-0.5655	-1.671	-3.684	0	32	1020	1
2026-02-11	16:17:25.790	-4.375	-1.61	-2.8	0.130296	-0.016592	0.977464	-0.561	-1.677	-3.687	0	32	1020	1
2026-02-11	16:17:25.810	-4.62	-3.36	-1.925	0.11834	-0.022448	0.975024	-0.5625	-1.671	-3.6855	0	30	1020	1
2026-02-11	16:17:25.830	-4.34	-3.85	-1.82	0.117608	-0.018788	0.987224	-0.5625	-1.6755	-3.69	0	30	1020	1
2026-02-11	16:17:25.850	-3.92	-3.675	-2.205	0.121268	-0.02562	0.997472	-0.5685	-1.671	-3.6795	0	30	1020	1
2026-02-11	16:17:25.870	-3.36	-3.57	-2.485	0.130296	-0.030012	0.998936	-0.5745	-1.668	-3.69	0	30	1020	1
2026-02-11	16:17:25.890	-2.66	-4.025	-2.8	0.12688	-0.033428	0.994544	-0.567	-1.6695	-3.69	0	30	1020	1
2026-02-11	16:17:25.910	-1.785	-4.34	-3.045	0.13542	-0.027328	0.998936	-0.576	-1.6635	-3.684	0	30	1020	1
2026-02-11	16:17:25.930	-0.77	-3.885	-2.94	0.144692	-0.036112	1.008208	-0.579	-1.6635	-3.681	0	30	1020	1
2026-02-11	16:17:25.950	-0.21	-3.185	-2.66	0.145912	-0.043676	1.007232	-0.5775	-1.662	-3.6885	0	30	1020	1
2026-02-11	16:17:25.970	0	-2.625	-2.24	0.142496	-0.047092	1.007232	-0.57	-1.671	-3.6855	0	30	1020	1
2026-02-11	16:17:25.990	-0.42	-2.275	-2.065	0.145424	-0.04636	1.013088	-0.5805	-1.662	-3.6885	0	30	1020	1
2026-02-11	16:17:26.010	-1.575	-2.625	-1.82	0.145912	-0.043676	1.007964	-0.576	-1.6605	-3.687	0	29	1020	1
2026-02-11	16:17:26.030	-2.52	-3.465	-1.4	0.142984	-0.044164	1.004792	-0.573	-1.6605	-3.6855	0	29	1020	1
2026-02-11	16:17:26.050	-3.745	-4.55	-1.12	0.144692	-0.038308	1.012356	-0.573	-1.662	-3.681	0	29	1020	1
2026-02-11	16:17:26.070	-5.25	-5.355	-0.805	0.143716	-0.034404	1.014308	-0.576	-1.6665	-3.678	0	29	1020	1
2026-02-11	16:17:26.090	-6.615	-6.09	-0.385	0.13908	-0.027816	1.00406	-0.579	-1.668	-3.681	0	29	1020	1
2026-02-11	16:17:26.110	-7.07	-6.895	0.035	0.137616	-0.02684	0.989908	-0.5805	-1.6665	-3.684	0	29	1020	1
2026-02-11	16:17:26.130	-6.475	-7.245	0.595	0.136884	-0.025376	0.981856	-0.5715	-1.662	-3.6855	0	29	1020	1
2026-02-11	16:17:26.150	-5.04	-6.86	0.805	0.145424	-0.025132	0.990396	-0.576	-1.665	-3.675	0	29	1020	1
2026-02-11	16:17:26.170	-3.255	-6.16	0.56	0.154452	-0.033428	0.998936	-0.576	-1.6575	-3.678	0	29	1020	1
2026-02-11	16:17:26.190	-1.435	-5.495	0.105	0.165676	-0.049776	1.009672	-0.579	-1.6575	-3.6795	0	29	1020	1
2026-02-11	16:17:26.210	-0.35	-5.005	-0.035	0.16958	-0.051972	1.020652	-0.5775	-1.6545	-3.6795	0	27	1020	1
2026-02-11	16:17:26.230	0.28	-3.78	0.105	0.172996	-0.057096	1.020408	-0.5805	-1.6635	-3.6825	0	27	1020	1
2026-02-11	16:17:26.250	0.7	-2.135	0.7	0.172508	-0.057584	1.017968	-0.573	-1.656	-3.681	0	27	1020	1
2026-02-11	16:17:26.270	0.735	-0.77	1.54	0.17202	-0.049776	1.02236	-0.5745	-1.6575	-3.681	0	27	1020	1
2026-02-11	16:17:26.290	0.42	0.91	3.185	0.175924	-0.037332	1.031876	-0.5805	-1.6575	-3.681	0	27	1020	1
2026-02-11	16:17:26.310	0.56	2.065	3.675	0.172508	-0.033428	1.025776	-0.5805	-1.662	-3.6825	0	27	1020	1
2026-02-11	16:17:26.330	0.49	3.08	3.43	0.163724	-0.029768	1.00894	-0.5805	-1.662	-3.684	0	27	1020	1
2026-02-11	16:17:26.350	0.805	3.465	3.045	0.161284	-0.024644	0.98454	-0.5835	-1.656	-3.684	0	27	1020	1
2026-02-11	16:17:26.370	1.995	3.57	2.905	0.160552	-0.016836	0.978928	-0.582	-1.659	-3.684	0	27	1020	1
2026-02-11	16:17:26.390	3.395	3.85	2.94	0.166896	-0.023668	0.985272	-0.5805	-1.6575	-3.684	0	27	1020	1
2026-02-11	16:17:26.410	4.13	4.375	2.695	0.15738	-0.027084	0.98576	-0.582	-1.6545	-3.69	0	26	1021	1
2026-02-11	16:17:26.430	4.48	4.235	2.31	0.157868	-0.02684	0.981124	-0.5835	-1.6605	-3.69	0	26	1021	1
2026-02-11	16:17:26.450	4.305	3.325	2.17	0.160796	-0.027328	0.988444	-0.579	-1.662	-3.6885	0	26	1021	1
2026-02-11	16:17:26.470	3.465	2.625	2.31	0.169824	-0.024156	0.999424	-0.576	-1.6635	-3.6855	0	26	1021	1
2026-02-11	16:17:26.490	2.31	2.31	2.66	0.173972	-0.022692	0.998936	-0.5715	-1.6665	-3.681	0	26	1021	1
2026-02-11	16:17:26.510	1.68	1.96	2.87	0.156892	-0.014152	0.980636	-0.57	-1.665	-3.6855	0	26	1021	1
2026-02-11	16:17:26.530	2.24	1.19	2.59	0.153476	-0.012688	0.977952	-0.5745	-1.6635	-3.6855	0	26	1021	1
2026-02-11	16:17:26.550	3.535	0.42	1.96	0.1647	-0.017812	0.989176	-0.573	-1.6635	-3.6855	0	26	1021	1
2026-02-11	16:17:26.570	4.06	0.315	1.47	0.172752	-0.019032	0.996008	-0.573	-1.662	-3.687	0	26	1021	1
2026-02-11	16:17:26.590	3.85	0.49	1.225	0.167872	-0.01586	0.996984	-0.576	-1.668	-3.6795	0	26	1021	1
2026-02-11	16:17:26.610	3.71	0.525	1.26	0.160308	-0.011224	0.99064	-0.567	-1.668	-3.678	0	25	1022	1
2026-02-11	16:17:26.630	3.885	0.385	1.505	0.156892	-0.005368	0.99552	-0.57	-1.6545	-3.6825	0	25	1022	1
2026-02-11	16:17:26.650	3.99	0.175	1.715	0.155916	-0.005368	1.00284	-0.5745	-1.6635	-3.687	0	25	1022	1
2026-02-11	16:17:26.670	3.535	0.035	1.645	0.147376	-0.005856	1.009184	-0.576	-1.671	-3.6795	0	25	1022	1
2026-02-11	16:17:26.690	2.555	0.105	1.295	0.148352	-0.008296	1.010892	-0.576	-1.68	-3.6855	0	25	1022	1
2026-02-11	16:17:26.710	1.26	0.315	1.05	0.149328	-0.010248	1.006256	-0.5745	-1.6725	-3.687	0	25	1022	1
2026-02-11	16:17:26.730	0.28	0.42	1.05	0.150548	-0.006344	0.99674	-0.5805	-1.6725	-3.684	0	25	1022	1
2026-02-11	16:17:26.750	0.245	0.28	1.225	0.155672	-0.007076	0.9882	-0.5805	-1.671	-3.684	0	25	1022	1
2026-02-11	16:17:26.770	0.525	0.14	1.295	0.158356	-0.00488	0.987712	-0.5745	-1.671	-3.684	0	25	1022	1
2026-02-11	16:17:26.790	0.7	-0.07	1.05	0.15982	-0.000732	0.995764	-0.5745	-1.671	-3.684	0	25	1022	1
2026-02-11	16:17:26.810	0.525	-0.105	0.42	0.166408	-0.001464	1.00406	-0.573	-1.6755	-3.687	0	25	1021	1
2026-02-11	16:17:26.830	-0.105	0.21	-0.525	0.166896	-0.004392	1.001376	-0.573	-1.68	-3.69	0	25	1021	1
2026-02-11	16:17:26.850	-0.56	0.77	-1.26	0.164456	-0.008784	0.995032	-0.5865	-1.6725	-3.6825	0	25	1021	1
2026-02-11	16:17:26.870	-0.56	1.645	-1.785	0.16958	-0.01342	0.987224	-0.5805	-1.668	-3.696	0	25	1021	1
2026-02-11	16:17:26.890	-0.21	2.45	-2.065	0.166652	-0.020984	0.98454	-0.585	-1.6815	-3.696	0	25	1021	1
2026-02-11	16:17:26.910	0.385	2.835	-2.135	0.169336	-0.025864	0.985028	-0.573	-1.662	-3.69	0	25	1021	1
2026-02-11	16:17:26.930	1.05	2.835	-2.03	0.166652	-0.02928	0.992836	-0.5865	-1.677	-3.6855	0	25	1021	1
2026-02-11	16:17:26.950	1.295	2.73	-1.645	0.162016	-0.027328	0.999912	-0.5655	-1.6665	-3.678	0	25	1021	1
2026-02-11	16:17:26.970	1.26	2.555	-1.225	0.15494	-0.034404	0.992592	-0.5715	-1.6755	-3.6855	0	25	1021	1
2026-02-11	16:17:26.990	1.26	2.31	-0.805	0.148596	-0.027084	0.986248	-0.5775	-1.6755	-3.6855	0	25	1021	1
2026-02-11	16:17:27.010	1.715	1.75	-0.315	0.145424	-0.017568	0.977464	-0.57	-1.6755	-3.687	0	24	1020	1
2026-02-11	16:17:27.030	2.205	0.875	0	0.151036	-0.01342	0.981368	-0.57	-1.6755	-3.6855	0	24	1020	1
2026-02-11	16:17:27.050	2.485	0.07	0.175	0.150304	-0.005124	0.98454	-0.582	-1.674	-3.684	0	24	1020	1
2026-02-11	16:17:27.070	2.59	-0.77	0.07	0.149572	-0.003416	0.99308	-0.573	-1.6665	-3.6855	0	24	1020	1
2026-02-11	16:17:27.090	2.03	-1.155	-0.77	0.156892	-0.004636	1.000644	-0.564	-1.671	-3.6885	0	24	1020	1
2026-02-11	16:17:27.110	1.19	-1.085	-1.435	0.163968	-0.005368	0.995764	-0.567	-1.674	-3.6885	0	24	1020	1
2026-02-11	16:17:27.130	1.26	-0.91	-1.47	0.157868	-0.005368	0.983808	-0.5715	-1.6755	-3.6855	0	24	1020	1
2026-02-11	16:17:27.150	1.96	-0.665	-1.155	0.15982	-0.004392	0.977952	-0.57	-1.6755	-3.6825	0	24	1020	1
2026-02-11	16:17:27.170	2.835	-0.525	-1.015	0.160308	-0.00366	0.997228	-0.5685	-1.677	-3.681	0	24	1020	1
2026-02-11	16:17:27.190	3.15	-0.63	-1.295	0.152012	-0.009516	1.01748	-0.573	-1.674	-3.684	0	24	1020	1
2026-02-11	16:17:27.210	2.275	-0.665	-2.03	0.15738	-0.010004	1.024068	-0.5775	-1.6725	-3.687	0	23	1019	1
2026-02-11	16:17:27.230	0.7	-0.42	-2.415	0.158844	-0.004148	1.016748	-0.5745	-1.6785	-3.687	0	23	1019	1
2026-02-11	16:17:27.250	-0.21	-0.315	-2.1	0.155672	0.000732	0.999912	-0.5745	-1.6785	-3.6825	0	23	1019	1
2026-02-11	16:17:27.270	0.14	-0.245	-1.575	0.154452	0.000488	1.00162	-0.573	-1.6725	-3.6825	0	23	1019	1
2026-02-11	16:17:27.290	1.05	0.21	-1.26	0.166164	-0.006344	1.005036	-0.573	-1.671	-3.687	0	23	1019	1
2026-02-11	16:17:27.310	1.89	0.735	-1.19	0.173728	-0.01586	0.997228	-0.5805	-1.6695	-3.6885	0	23	1019	1
2026-02-11	16:17:27.330	2.45	0.98	-1.05	0.169336	-0.01464	0.992592	-0.579	-1.6755	-3.6915	0	23	1019	1
2026-02-11	16:17:27.350	2.765	0.91	-0.49	0.165188	-0.013664	0.99308	-0.573	-1.677	-3.6885	0	23	1019	1
2026-02-11	16:17:27.370	2.485	0.35	0.805	0.15738	-0.002684	1.002108	-0.57	-1.674	-3.6855	0	23	1019	1
2026-02-11	16:17:27.390	1.4	-0.315	2.03	0.145668	0.010492	1.0126	-0.579	-1.6785	-3.681	0	23	1019	1
2026-02-11	16:17:27.410	-0.105	-0.56	2.625	0.141032	0.022692	1.021872	-0.57	-1.686	-3.6915	0	22	1019	1
2026-02-11	16:17:27.430	-1.645	-0.7	2.205	0.14152	0.023912	1.01992	-0.573	-1.6845	-3.687	0	22	1019	1
2026-02-11	16:17:27.450	-3.395	-0.875	0.84	0.143472	0.017812	1.012356	-0.5745	-1.683	-3.684	0	22	1019	1
2026-02-11	16:17:27.470	-4.585	-0.63	-0.735	0.158844	0.02196	0.99918	-0.573	-1.6815	-3.687	0	22	1019	1
2026-02-11	16:17:27.490	-4.375	-0.35	-1.645	0.17324	0.0122	0.988688	-0.5745	-1.6785	-3.687	0	22	1019	1
2026-02-11	16:17:27.510	-4.9	-0.035	-1.89	0.179584	0.010248	0.98576	-0.5745	-1.6755	-3.6825	0	22	1019	1
2026-02-11	16:17:27.530	-5.565	0.49	-1.715	0.176656	0.0061	0.983076	-0.573	-1.674	-3.684	0	22	1019	1
2026-02-11	16:17:27.550	-4.935	0.7	-1.785	0.16714	0.013664	0.980392	-0.5745	-1.6695	-3.6885	0	22	1019	1
2026-02-11	16:17:27.570	-3.325	0.105	-2.87	0.142984	0.007564	0.984296	-0.5745	-1.6725	-3.687	0	22	1019	1
2026-02-11	16:17:27.590	-2.03	-0.49	-4.97	0.152256	-0.001464	0.996496	-0.576	-1.6785	-3.687	0	22	1019	1
2026-02-11	16:17:27.610	-1.26	-0.98	-6.755	0.162016	-0.014884	0.996984	-0.579	-1.6785	-3.6885	0	22	1019	1
2026-02-11	16:17:27.630	-0.98	-1.61	-6.72	0.166896	-0.02806	0.984296	-0.5775	-1.68	-3.6885	0	22	1019	1
2026-02-11	16:17:27.650	-0.175	-1.33	-5.075	0.16348	-0.03416	0.976976	-0.5775	-1.68	-3.6885	0	22	1019	1
2026-02-11	16:17:27.670	0.595	-1.12	-3.185	0.173728	-0.040748	0.991128	-0.5775	-1.671	-3.6855	0	22	1019	1
2026-02-11	16:17:27.690	0.525	-0.49	-1.61	0.170312	-0.040992	1.008696	-0.5775	-1.677	-3.69	0	22	1019	1
2026-02-11	16:17:27.710	-0.07	0.7	-0.455	0.172752	-0.037088	1.01382	-0.582	-1.6755	-3.6855	0	22	1019	1
2026-02-11	16:17:27.730	-1.19	1.47	0.28	0.170068	-0.024156	1.009184	-0.573	-1.6695	-3.6825	0	22	1019	1
2026-02-11	16:17:27.750	-1.96	1.715	1.05	0.165188	-0.012688	0.995276	-0.576	-1.6755	-3.6885	0	22	1019	1
2026-02-11	16:17:27.770	-1.925	1.75	1.47	0.15982	-0.003904	0.992104	-0.567	-1.677	-3.687	0	22	1019	1
2026-02-11	16:17:27.790	-1.26	1.68	1.295	0.16104	0.00122	0.994056	-0.5715	-1.674	-3.684	0	22	1019	1
2026-02-11	16:17:27.810	-0.63	1.68	0.525	0.15982	-0.001464	1.000644	-0.5745	-1.6665	-3.681	0	21	1020	1
2026-02-11	16:17:27.830	-0.14	1.715	-0.49	0.148352	-0.005612	0.995032	-0.5775	-1.6695	-3.6855	0	21	1020	1
2026-02-11	16:17:27.850	0.35	1.4	-1.4	0.145912	-0.007564	0.991128	-0.576	-1.674	-3.693	0	21	1020	1
2026-02-11	16:17:27.870	0.63	1.155	-1.82	0.154696	-0.012444	1.001376	-0.5715	-1.668	-3.6885	0	21	1020	1
2026-02-11	16:17:27.890	-0.21	1.435	-1.505	0.156648	-0.012444	1.009672	-0.5805	-1.671	-3.693	0	21	1020	1
2026-02-11	16:17:27.910	-1.61	1.61	-1.12	0.152988	-0.011468	1.0065	-0.5805	-1.671	-3.693	0	21	1020	1
2026-02-11	16:17:27.930	-2.45	1.365	-1.19	0.151524	-0.011224	0.997716	-0.5775	-1.6725	-3.6885	0	21	1020	1
2026-02-11	16:17:27.950	-2.73	0.91	-1.295	0.153964	-0.005124	0.99308	-0.5715	-1.674	-3.6825	0	21	1020	1
2026-02-11	16:17:27.970	-2.52	0.525	-1.19	0.149084	-0.007076	0.99064	-0.5685	-1.671	-3.6855	0	21	1020	1
2026-02-11	16:17:27.990	-1.995	0.385	-1.05	0.155428	-0.00854	0.99186	-0.5715	-1.671	-3.6855	0	21	1020	1
2026-02-11	16:17:28.010	-1.4	0.14	-0.945	0.158356	-0.012444	0.988932	-0.5745	-1.6695	-3.684	0	21	1020	1
2026-02-11	16:17:28.030	-0.455	-0.665	-0.91	0.156404	-0.009028	0.991128	-0.573	-1.6695	-3.69	0	21	1020	1
2026-02-11	16:17:28.050	0.63	-1.4	-0.91	0.15616	-0.006832	0.994788	-0.57	-1.6695	-3.6855	0	21	1020	1
2026-02-11	16:17:28.070	1.365	-1.19	-1.365	0.156404	-0.012932	1.00528	-0.5715	-1.6695	-3.6795	0	21	1020	1
2026-02-11	16:17:28.090	2.03	-0.63	-1.82	0.159332	-0.021716	1.008452	-0.5805	-1.677	-3.6855	0	21	1020	1
2026-02-11	16:17:28.110	1.4	-0.175	-1.785	0.161528	-0.017324	1.012844	-0.5715	-1.683	-3.6765	0	21	1020	1
2026-02-11	16:17:28.130	0.21	0.63	-1.4	0.15982	-0.01586	1.021384	-0.5775	-1.6785	-3.6825	0	21	1020	1
2026-02-11	16:17:28.150	-1.19	1.75	-1.155	0.166652	-0.020008	1.020408	-0.5745	-1.665	-3.6855	0	21	1020	1
2026-02-11	16:17:28.170	-3.325	2.73	-1.12	0.16104	-0.018056	1.012844	-0.567	-1.6665	-3.681	0	21	1020	1
2026-02-11	16:17:28.190	-3.675	3.115	-1.085	0.155672	-0.013176	1.001376	-0.567	-1.6665	-3.6855	0	21	1020	1
2026-02-11	16:17:28.210	-2.94	3.43	-1.015	0.157136	-0.020496	0.994544	-0.5715	-1.665	-3.687	0	20	1020	1
2026-02-11	16:17:28.230	-2.065	3.78	-0.735	0.160064	-0.0244	0.991372	-0.576	-1.665	-3.684	0	20	1020	1
2026-02-11	16:17:28.250	-1.155	4.165	-0.315	0.152988	-0.030744	0.985272	-0.5745	-1.665	-3.6885	0	20	1020	1
2026-02-11	16:17:28.270	-0.245	4.27	0.07	0.139324	-0.026596	0.97844	-0.573	-1.662	-3.687	0	20	1020	1
2026-02-11	16:17:28.290	0.77	4.095	0.14	0.13908	-0.024644	0.982832	-0.57	-1.665	-3.684	0	20	1020	1
2026-02-11	16:17:28.310	1.995	3.85	0.245	0.150792	-0.025864	0.99918	-0.5655	-1.6665	-3.6885	0	20	1020	1
2026-02-11	16:17:28.330	2.59	3.64	0.525	0.156404	-0.028304	1.002108	-0.564	-1.6665	-3.6825	0	20	1020	1
2026-02-11	16:17:28.350	2.94	3.15	0.735	0.164212	-0.029524	1.00406	-0.567	-1.6695	-3.678	0	20	1020	1
2026-02-11	16:17:28.370	3.395	2.73	1.12	0.155428	-0.024888	1.000888	-0.5685	-1.671	-3.6795	0	20	1020	1
2026-02-11	16:17:28.390	3.36	2.87	1.435	0.147376	-0.019032	0.995032	-0.57	-1.6725	-3.6795	0	20	1020	1
2026-02-11	16:17:28.410	2.765	3.29	1.89	0.140056	-0.016104	0.995276	-0.5685	-1.6695	-3.6825	0	20	1020	1
2026-02-11	16:17:28.430	1.33	3.29	2.45	0.1342	0.000244	0.998692	-0.567	-1.6665	-3.6825	0	20	1020	1
2026-02-11	16:17:28.450	-0.035	2.87	2.31	0.128832	0.01098	1.010404	-0.5685	-1.668	-3.6795	0	20	1020	1
2026-02-11	16:17:28.470	-1.33	2.52	1.435	0.128832	0.016836	1.010892	-0.561	-1.677	-3.684	0	20	1020	1
2026-02-11	16:17:28.490	-2.485	1.785	0.21	0.134444	0.013176	0.995276	-0.5625	-1.6695	-3.6885	0	20	1020	1
2026-02-11	16:17:28.510	-2.73	0.315	-0.595	0.138104	0.011956	0.974292	-0.5595	-1.668	-3.681	0	20	1020	1
2026-02-11	16:17:28.530	-1.785	-0.98	-1.05	0.139812	-0.001464	0.968192	-0.5715	-1.668	-3.6855	0	20	1020	1
2026-02-11	16:17:28.550	-0.63	-2.205	-1.365	0.13542	-0.008052	0.969168	-0.57	-1.6695	-3.6915	0	20	1020	1
2026-02-11	16:17:28.570	0.105	-3.29	-1.715	0.125172	-0.01586	0.981124	-0.567	-1.6755	-3.681	0	20	1020	1
2026-02-11	16:17:28.590	0	-3.57	-2.1	0.13298	-0.018788	1.004548	-0.567	-1.671	-3.69	0	20	1020	1
2026-02-11	16:17:28.610	-1.155	-3.5	-2.17	0.138836	-0.015128	1.013332	-0.5595	-1.6605	-3.6885	0	19	1020	1
2026-02-11	16:17:28.630	-2.555	-3.605	-1.855	0.138104	-0.005612	1.011136	-0.5655	-1.674	-3.687	0	19	1020	1
2026-02-11	16:17:28.650	-3.535	-3.815	-1.715	0.139812	-0.006344	1.000888	-0.5685	-1.6695	-3.6855	0	19	1020	1
2026-02-11	16:17:28.670	-3.815	-3.92	-1.82	0.149328	0.00244	0.998936	-0.5655	-1.668	-3.6855	0	19	1020	1
2026-02-11	16:17:28.690	-3.57	-3.78	-2.065	0.141276	-0.003904	0.990152	-0.5625	-1.6695	-3.69	0	19	1020	1
2026-02-11	16:17:28.710	-2.73	-3.43	-2.87	0.14396	-0.010248	0.986004	-0.573	-1.6755	-3.678	0	19	1020	1
2026-02-11	16:17:28.730	-1.785	-3.185	-3.57	0.143472	-0.00976	0.988444	-0.5715	-1.662	-3.69	0	19	1020	1
2026-02-11	16:17:28.750	-0.7	-3.08	-4.095	0.144204	-0.011224	1.008696	-0.57	-1.668	-3.6795	0	19	1020	1
2026-02-11	16:17:28.770	-0.315	-2.8	-4.27	0.152988	-0.020496	1.02358	-0.573	-1.6665	-3.684	0	19	1020	1
2026-02-11	16:17:28.790	-0.875	-2.17	-4.025	0.14762	-0.027328	1.027484	-0.576	-1.6695	-3.6825	0	19	1020	1
2026-02-11	16:17:28.810	-1.75	-1.68	-3.78	0.141276	-0.035136	1.01382	-0.57	-1.6605	-3.6855	0	19	1020	1
2026-02-11	16:17:28.830	-2.24	-1.085	-3.535	0.147376	-0.036112	1.00894	-0.5715	-1.6635	-3.6915	0	19	1020	1
2026-02-11	16:17:28.850	-2.38	-0.175	-3.045	0.15128	-0.03416	1.005524	-0.573	-1.6665	-3.684	0	19	1020	1
2026-02-11	16:17:28.870	-2.135	0.56	-2.415	0.159576	-0.042212	0.995764	-0.5745	-1.6605	-3.684	0	19	1020	1
2026-02-11	16:17:28.890	-1.435	0.875	-1.715	0.166652	-0.038552	0.997472	-0.567	-1.662	-3.69	0	19	1020	1
2026-02-11	16:17:28.910	-0.7	1.155	-0.875	0.158112	-0.040748	0.996008	-0.573	-1.668	-3.6825	0	19	1020	1
2026-02-11	16:17:28.930	-0.35	1.4	-0.105	0.147376	-0.03538	1.000888	-0.5685	-1.6635	-3.6825	0	19	1020	1
2026-02-11	16:17:28.950	-0.56	1.54	0.35	0.149328	-0.033916	1.002596	-0.567	-1.6635	-3.6795	0	19	1020	1
2026-02-11	16:17:28.970	-0.77	1.435	0.91	0.145912	-0.027084	0.996252	-0.576	-1.6635	-3.687	0	19	1020	1
2026-02-11	16:17:28.990	-0.7	1.365	1.61	0.148596	-0.02562	0.995276	-0.576	-1.6635	-3.687	0	19	1020	1
2026-02-11	16:17:29.010	-0.595	1.225	2.275	0.149572	-0.025376	0.99308	-0.5715	-1.665	-3.684	0	19	1020	1
2026-02-11	16:17:29.030	-0.385	1.05	2.485	0.142252	-0.018056	0.99308	-0.567	-1.668	-3.6825	0	19	1020	1
2026-02-11	16:17:29.050	0.14	0.91	2.135	0.143228	-0.019764	0.990152	-0.5685	-1.668	-3.681	0	19	1020	1
2026-02-11	16:17:29.070	0.455	0.735	1.715	0.147864	-0.021228	0.994056	-0.57	-1.6665	-3.681	0	19	1020	1
2026-02-11	16:17:29.090	0.49	0.595	1.61	0.149816	-0.026108	0.99308	-0.5685	-1.6665	-3.684	0	19	1020	1
2026-02-11	16:17:29.110	0.28	0.63	1.575	0.148108	-0.02074	0.999424	-0.567	-1.665	-3.684	0	19	1020	1
2026-02-11	16:17:29.130	0	0.595	1.61	0.148108	-0.0244	1.001376	-0.57	-1.665	-3.684	0	19	1020	1
2026-02-11	16:17:29.150	-0.035	0.63	1.505	0.141764	-0.022448	1.001376	-0.567	-1.665	-3.6825	0	19	1020	1
2026-02-11	16:17:29.170	0.245	0.7	1.26	0.138836	-0.025376	0.997716	-0.567	-1.665	-3.681	0	19	1020	1
2026-02-11	16:17:29.190	0.455	0.525	1.155	0.141032	-0.021472	1.00406	-0.576	-1.6635	-3.6765	0	19	1020	1
2026-02-11	16:17:29.210	0.49	0.42	1.19	0.142984	-0.021228	1.003572	-0.573	-1.665	-3.678	0	19	1021	1
2026-02-11	16:17:29.230	0.42	0.35	1.19	0.137616	-0.018788	1.002108	-0.5685	-1.671	-3.6825	0	19	1021	1
2026-02-11	16:17:29.250	0.21	0.28	1.05	0.147132	-0.017568	1.001132	-0.5715	-1.671	-3.681	0	19	1021	1
2026-02-11	16:17:29.270	0.175	0.35	1.085	0.137372	-0.023912	0.993324	-0.567	-1.659	-3.6885	0	19	1021	1
2026-02-11	16:17:29.290	0.315	0.21	0.805	0.128344	-0.020008	0.9882	-0.573	-1.665	-3.687	0	19	1021	1
2026-02-11	16:17:29.310	0.28	-0.28	0.245	0.140788	-0.024644	0.99552	-0.5655	-1.662	-3.684	0	19	1021	1
2026-02-11	16:17:29.330	-0.035	-0.35	0.07	0.143472	-0.027572	1.000156	-0.5655	-1.6605	-3.687	0	19	1021	1
2026-02-11	16:17:29.350	-0.455	-0.175	0.14	0.136152	-0.026108	0.995764	-0.561	-1.6665	-3.681	0	19	1021	1
2026-02-11	16:17:29.370	-0.7	-0.7	0.105	0.138104	-0.021472	0.993568	-0.57	-1.6635	-3.6825	0	19	1021	1
2026-02-11	16:17:29.390	-0.77	-1.225	0.175	0.151036	-0.024888	0.994544	-0.57	-1.6635	-3.6855	0	19	1021	1
2026-02-11	16:17:29.410	-0.805	-1.54	0.28	0.145424	-0.022204	0.990884	-0.5715	-1.6635	-3.6855	0	18	1021	1
2026-02-11	16:17:29.430	-0.63	-1.75	0.385	0.149084	-0.025132	0.987224	-0.573	-1.6635	-3.684	0	18	1021	1
2026-02-11	16:17:29.450	-0.245	-1.925	0.315	0.145668	-0.026352	0.991372	-0.5715	-1.6635	-3.681	0	18	1021	1
2026-02-11	16:17:29.470	0.14	-1.995	0.21	0.15006	-0.024156	0.999668	-0.5715	-1.668	-3.6825	0	18	1021	1
2026-02-11	16:17:29.490	0.28	-1.995	0	0.144204	-0.027328	1.0004	-0.5745	-1.668	-3.687	0	18	1021	1
2026-02-11	16:17:29.510	0.175	-1.925	-0.28	0.14518	-0.032696	1.004792	-0.576	-1.665	-3.687	0	18	1021	1
2026-02-11	16:17:29.530	0.105	-1.575	0	0.142008	-0.03904	1.00406	-0.576	-1.665	-3.687	0	18	1021	1
2026-02-11	16:17:29.550	0.14	-1.19	0.455	0.132248	-0.033916	0.996008	-0.5715	-1.6665	-3.672	0	18	1021	1
2026-02-11	16:17:29.570	0.49	-1.05	0.805	0.136884	-0.034648	1.000888	-0.579	-1.6635	-3.6765	0	18	1021	1
2026-02-11	16:17:29.590	0.805	-0.805	1.085	0.140544	-0.0366	1.005768	-0.5655	-1.6665	-3.6885	0	18	1021	1
2026-02-11	16:17:29.610	0.875	-0.56	1.085	0.13786	-0.035136	0.997472	-0.57	-1.6635	-3.6825	0	17	1020	1
2026-02-11	16:17:29.630	1.05	-0.525	1.085	0.137616	-0.032696	0.995276	-0.5715	-1.6695	-3.6885	0	17	1020	1
2026-02-11	16:17:29.650	1.505	-0.805	1.33	0.149328	-0.027816	0.99796	-0.5745	-1.668	-3.684	0	17	1020	1
2026-02-11	16:17:29.670	1.89	-1.015	1.855	0.15494	-0.028792	0.998448	-0.573	-1.668	-3.6765	0	17	1020	1
2026-02-11	16:17:29.690	2.1	-0.98	2.17	0.14518	-0.022692	0.996984	-0.573	-1.6635	-3.681	0	17	1020	1
2026-02-11	16:17:29.710	2.065	-0.735	1.925	0.144204	-0.022936	0.99552	-0.576	-1.665	-3.684	0	17	1020	1
2026-02-11	16:17:29.730	1.82	-0.84	1.365	0.153476	-0.023912	0.994788	-0.573	-1.677	-3.684	0	17	1020	1
2026-02-11	16:17:29.750	1.47	-1.085	1.12	0.163724	-0.02074	1.0004	-0.5655	-1.668	-3.687	0	17	1020	1
2026-02-11	16:17:29.770	0.91	-1.085	1.225	0.170556	-0.020252	1.011868	-0.576	-1.6695	-3.6855	0	17	1020	1
2026-02-11	16:17:29.790	0.105	-0.63	1.645	0.163236	-0.013664	0.996008	-0.576	-1.6695	-3.6855	0	17	1020	1
2026-02-11	16:17:29.810	-0.07	-0.665	1.575	0.155672	-0.012688	0.994056	-0.573	-1.6695	-3.684	0	16	1020	1
2026-02-11	16:17:29.830	0	-0.77	0.98	0.145668	-0.014396	0.996252	-0.5715	-1.668	-3.684	0	16	1020	1
2026-02-11	16:17:29.850	-0.035	-0.455	0.035	0.15494	-0.017812	1.008696	-0.5715	-1.668	-3.6855	0	16	1020	1
2026-02-11	16:17:29.870	-0.49	0.105	-0.49	0.155916	-0.02562	1.007476	-0.5745	-1.6725	-3.6825	0	16	1020	1
2026-02-11	16:17:29.890	-0.84	0.525	-0.385	0.152988	-0.017812	0.994788	-0.576	-1.6725	-3.6795	0	16	1020	1
2026-02-11	16:17:29.910	-0.56	0.875	0.175	0.144204	-0.01952	0.989176	-0.573	-1.6725	-3.681	0	16	1020	1
2026-02-11	16:17:29.930	0.455	1.225	0.98	0.145912	-0.020252	0.987956	-0.5715	-1.674	-3.681	0	16	1020	1
2026-02-11	16:17:29.950	1.855	1.645	1.68	0.147864	-0.017324	0.990396	-0.5685	-1.674	-3.6795	0	16	1020	1
2026-02-11	16:17:29.970	2.975	1.68	1.925	0.140056	-0.011956	0.992836	-0.567	-1.6695	-3.6825	0	16	1020	1
2026-02-11	16:17:29.990	3.85	1.295	1.575	0.146156	-0.013176	0.999668	-0.567	-1.665	-3.6855	0	16	1020	1
2026-02-11	16:17:30.010	4.795	1.505	1.4	0.155916	-0.023424	1.003572	-0.5655	-1.6665	-3.6855	0	15	1020	1
2026-02-11	16:17:30.030	4.795	1.785	1.575	0.155672	-0.016348	1.00162	-0.573	-1.671	-3.69	0	15	1020	1
2026-02-11	16:17:30.050	4.69	1.96	1.855	0.147864	-0.00976	1.008452	-0.57	-1.668	-3.687	0	15	1020	1
2026-02-11	16:17:30.070	4.41	2.8	1.75	0.163236	-0.017568	1.008452	-0.57	-1.6695	-3.687	0	15	1020	1
2026-02-11	16:17:30.090	3.85	4.025	1.855	0.159332	-0.013664	0.999424	-0.5745	-1.671	-3.6915	0	15	1020	1
2026-02-11	16:17:30.110	3.5	4.76	2.205	0.152744	-0.003416	0.9882	-0.5715	-1.674	-3.6915	0	15	1020	1
2026-02-11	16:17:30.130	3.29	4.585	2.66	0.15738	-0.005368	0.998448	-0.5655	-1.6785	-3.6885	0	15	1020	1
2026-02-11	16:17:30.150	3.22	4.655	3.08	0.16104	-0.008784	1.002596	-0.567	-1.677	-3.6885	0	15	1020	1
2026-02-11	16:17:30.170	3.15	5.565	3.43	0.161284	-0.015372	0.988688	-0.5655	-1.6755	-3.69	0	15	1020	1
2026-02-11	16:17:30.190	3.255	5.495	3.815	0.150548	-0.012688	0.968924	-0.564	-1.6755	-3.6885	0	15	1020	1
2026-02-11	16:17:30.210	3.43	3.85	4.34	0.141764	-0.005124	0.969656	-0.5685	-1.674	-3.6885	0	15	1020	1
2026-02-11	16:17:30.230	3.43	1.715	4.515	0.13054	-0.01098	0.99674	-0.5655	-1.6725	-3.684	0	15	1020	1
2026-02-11	16:17:30.250	2.94	0.945	4.48	0.138592	-0.014396	1.012112	-0.561	-1.6785	-3.684	0	15	1020	1
2026-02-11	16:17:30.270	1.365	1.155	4.9	0.1403	-0.011224	0.99918	-0.5655	-1.6845	-3.693	0	15	1020	1
2026-02-11	16:17:30.290	0.595	0.21	5.67	0.123708	-0.007076	0.989176	-0.564	-1.6875	-3.6885	0	15	1020	1
2026-02-11	16:17:30.310	0.105	-1.96	6.195	0.114436	-0.008784	0.99918	-0.558	-1.6875	-3.6855	0	15	1020	1
2026-02-11	16:17:30.330	-0.385	-2.52	6.37	0.117852	-0.005612	1.01382	-0.5565	-1.686	-3.6885	0	15	1020	1
2026-02-11	16:17:30.350	-0.77	-1.26	6.755	0.118096	-0.003172	1.003572	-0.5655	-1.68	-3.6885	0	15	1020	1
2026-02-11	16:17:30.370	-0.28	-0.21	7.07	0.118584	0.003416	0.98332	-0.5625	-1.6875	-3.696	0	15	1020	1
2026-02-11	16:17:30.390	1.33	0.175	6.93	0.11956	0.003416	0.975756	-0.57	-1.6785	-3.6855	0	15	1020	1
2026-02-11	16:17:30.410	3.57	0.385	6.44	0.1342	-0.004636	0.992348	-0.558	-1.68	-3.681	0	14	1020	1
2026-02-11	16:17:30.430	5.145	0.875	5.39	0.133468	-0.012932	0.999668	-0.561	-1.6815	-3.684	0	14	1020	1
2026-02-11	16:17:30.450	6.335	1.4	4.305	0.120048	-0.016592	1.004548	-0.5595	-1.6815	-3.687	0	14	1020	1
2026-02-11	16:17:30.470	6.825	1.89	3.325	0.132004	-0.020008	1.015528	-0.5595	-1.6845	-3.6885	0	14	1020	1
2026-02-11	16:17:30.490	6.545	2.695	2.87	0.13054	-0.028304	1.015772	-0.5655	-1.683	-3.6885	0	14	1020	1
2026-02-11	16:17:30.510	5.53	3.22	2.695	0.131028	-0.026596	1.014308	-0.5595	-1.683	-3.696	0	14	1020	1
2026-02-11	16:17:30.530	4.095	3.185	2.625	0.123708	-0.024888	1.009672	-0.5625	-1.689	-3.693	0	14	1020	1
2026-02-11	16:17:30.550	2.38	1.995	2.66	0.132492	-0.014396	1.008208	-0.5655	-1.6845	-3.69	0	14	1020	1
2026-02-11	16:17:30.570	0.42	0.42	2.835	0.13664	-0.003904	1.01626	-0.5505	-1.686	-3.6855	0	14	1020	1
2026-02-11	16:17:30.590	-2.52	-1.015	2.1	0.130296	-0.0061	1.010892	-0.567	-1.6935	-3.693	0	14	1020	1
2026-02-11	16:17:30.610	-4.305	-1.505	0.735	0.128344	-0.004392	0.994544	-0.561	-1.692	-3.6945	0	14	1020	1
2026-02-11	16:17:30.630	-5.425	-2.205	-0.805	0.124196	0.000732	0.973804	-0.555	-1.6905	-3.696	0	14	1020	1
2026-02-11	16:17:30.650	-5.495	-3.115	-2.205	0.129808	-0.000488	0.966728	-0.5535	-1.68	-3.6825	0	14	1020	1
2026-02-11	16:17:30.670	-5.04	-3.92	-3.255	0.13664	-0.00244	0.975512	-0.567	-1.683	-3.6825	0	14	1020	1
2026-02-11	16:17:30.690	-4.375	-4.2	-4.165	0.134932	0.000244	0.992348	-0.561	-1.686	-3.69	0	14	1020	1
2026-02-11	16:17:30.710	-4.06	-3.57	-5.635	0.124684	-0.002196	0.997716	-0.552	-1.6815	-3.6975	0	14	1020	1
2026-02-11	16:17:30.730	-4.025	-3.185	-7.7	0.128588	-0.005612	0.996496	-0.5595	-1.68	-3.69	0	14	1020	1
2026-02-11	16:17:30.750	-4.06	-3.43	-9.59	0.136396	-0.00366	0.999912	-0.5655	-1.68	-3.6795	0	14	1020	1
2026-02-11	16:17:30.770	-4.13	-3.43	-10.955	0.142008	0.00244	0.99796	-0.567	-1.686	-3.69	0	14	1020	1
2026-02-11	16:17:30.790	-4.445	-3.5	-12.005	0.136152	-0.002684	0.998936	-0.5565	-1.683	-3.693	0	14	1020	1
2026-02-11	16:17:30.810	-5.04	-3.955	-12.985	0.15006	0.000488	0.998692	-0.5625	-1.6815	-3.6795	0	15	1020	1
2026-02-11	16:17:30.830	-5.985	-3.78	-13.79	0.16348	0.002928	1.003572	-0.57	-1.6815	-3.687	0	15	1020	1
2026-02-11	16:17:30.850	-7.42	-2.94	-14.455	0.164944	0.006832	0.995276	-0.564	-1.683	-3.6945	0	15	1020	1
2026-02-11	16:17:30.870	-8.75	0.035	-14.595	0.15982	0.015372	0.976	-0.564	-1.683	-3.6945	0	15	1020	1
2026-02-11	16:17:30.890	-8.82	-1.12	-14.21	0.16104	0.021472	0.963556	-0.5655	-1.6755	-3.684	0	15	1020	1
2026-02-11	16:17:30.910	-8.05	-3.255	-13.055	0.163724	0.028304	0.969168	-0.57	-1.6695	-3.678	0	15	1020	1
2026-02-11	16:17:30.930	-7.14	-2.45	-11.27	0.158356	0.034892	0.971608	-0.57	-1.6725	-3.6825	0	15	1020	1
2026-02-11	16:17:30.950	-5.39	-3.955	-9.45	0.154452	0.037332	0.974536	-0.57	-1.674	-3.684	0	15	1020	1
2026-02-11	16:17:30.970	-3.08	-5.215	-7.805	0.103456	0.050264	0.9455	-0.576	-1.671	-3.684	0	15	1020	1
2026-02-11	16:17:30.990	0.14	-8.365	-6.79	0.074664	0.053436	0.939644	-0.5775	-1.6695	-3.6855	0	15	1020	1
2026-02-11	16:17:31.010	3.465	-12.215	-6.02	0.069784	0.05734	0.954772	-0.576	-1.6695	-3.6855	0	15	1018	1
2026-02-11	16:17:31.030	6.37	-15.365	-4.935	0.083448	0.05734	0.98454	-0.576	-1.6695	-3.6855	0	15	1018	1
2026-02-11	16:17:31.050	8.4	-17.465	-3.78	0.09857599	0.061	1.012112	-0.582	-1.671	-3.6885	0	15	1018	1
2026-02-11	16:17:31.070	9.31	-18.76	-3.01	0.110776	0.059292	1.031144	-0.585	-1.671	-3.69	0	15	1018	1
2026-02-11	16:17:31.090	8.435	-16.66	-2.59	0.108824	0.060024	1.020896	-0.585	-1.6755	-3.69	0	15	1018	1
2026-02-11	16:17:31.110	6.965	-14.7	-2.24	0.118096	0.0671	1.001376	-0.582	-1.677	-3.681	0	15	1018	1
2026-02-11	16:17:31.130	5.04	-12.075	-1.4	0.132736	0.080032	0.993324	-0.5775	-1.6755	-3.675	0	15	1018	1
2026-02-11	16:17:31.150	3.885	-10.465	-0.875	0.152256	0.088328	1.018944	-0.5775	-1.6755	-3.675	0	15	1018	1
2026-02-11	16:17:31.170	2.17	-10.185	-0.665	0.170312	0.085888	1.052616	-0.5925	-1.677	-3.684	0	15	1018	1
2026-02-11	16:17:31.190	-1.015	-4.83	-0.385	0.146888	0.089548	1.05164	-0.594	-1.683	-3.687	0	15	1018	1
2026-02-11	16:17:31.210	-3.5	-4.97	-0.665	0.14762	0.083448	1.054812	-0.594	-1.677	-3.684	0	17	1017	1
2026-02-11	16:17:31.230	-5.81	-4.585	-0.945	0.141276	0.068808	1.0553	-0.6	-1.674	-3.6945	0	17	1017	1
2026-02-11	16:17:31.250	-7.91	-3.675	-0.595	0.13542	0.05246	1.05286	-0.5955	-1.6815	-3.69	0	17	1017	1
2026-02-11	16:17:31.270	-9.52	-1.925	0.455	0.136396	0.039772	1.048468	-0.597	-1.6815	-3.6945	0	17	1017	1
2026-02-11	16:17:31.290	-10.85	0.385	2.1	0.152012	0.027572	1.052372	-0.6015	-1.6725	-3.6885	0	17	1017	1
2026-02-11	16:17:31.310	-11.97	3.29	4.165	0.152012	0.028792	1.03456	-0.5985	-1.671	-3.6855	0	17	1017	1
2026-02-11	16:17:31.330	-12.18	5.845	6.475	0.150548	0.031476	1.021384	-0.5925	-1.665	-3.687	0	17	1017	1
2026-02-11	16:17:31.350	-11.515	7.49	8.68	0.156404	0.030744	1.023336	-0.594	-1.6635	-3.6825	0	17	1017	1
2026-02-11	16:17:31.370	-10.185	8.015	10.185	0.138592	0.029524	1.020896	-0.597	-1.6695	-3.678	0	17	1017	1
2026-02-11	16:17:31.390	-7.875	7.56	10.08	0.147376	0.020984	1.038952	-0.5985	-1.6635	-3.681	0	17	1017	1
2026-02-11	16:17:31.410	-4.235	1.12	8.19	0.160552	0.016104	1.059692	-0.6015	-1.653	-3.6795	0	20	1022	1
2026-02-11	16:17:31.430	-1.61	-4.48	5.81	0.188612	0.01342	1.07116	-0.5835	-1.656	-3.6825	0	20	1022	1
2026-02-11	16:17:31.450	0.245	-9.8	3.955	0.222772	0.017812	1.075552	-0.5955	-1.6575	-3.684	0	20	1022	1
2026-02-11	16:17:31.470	1.61	-12.6	3.22	0.223748	0.039528	1.034316	-0.6	-1.662	-3.6825	0	20	1022	1
2026-02-11	16:17:31.490	3.29	-11.41	3.115	0.19886	0.053436	0.97356	-0.5955	-1.6605	-3.678	0	20	1022	1
2026-02-11	16:17:31.510	6.125	-7.56	4.655	0.193492	0.067832	0.921832	-0.5985	-1.662	-3.678	0	20	1022	1
2026-02-11	16:17:31.530	9.38	-3.395	5.705	0.208132	0.065636	0.926224	-0.588	-1.662	-3.6795	0	20	1022	1
2026-02-11	16:17:31.550	11.795	1.995	6.51	0.22814	0.050264	0.962336	-0.591	-1.6605	-3.6705	0	20	1022	1
2026-02-11	16:17:31.570	12.635	6.37	6.86	0.231068	0.04026	0.973316	-0.582	-1.665	-3.669	0	20	1022	1
2026-02-11	16:17:31.590	12.355	7.525	6.58	0.220088	0.02928	0.979416	-0.585	-1.665	-3.672	0	20	1022	1
2026-02-11	16:17:31.610	11.34	6.895	5.215	0.216672	0.009516	0.980392	-0.588	-1.671	-3.6915	0	23	1027	1
2026-02-11	16:17:31.630	9.8	5.705	2.8	0.231556	-0.007564	0.986492	-0.588	-1.668	-3.6795	0	23	1027	1
2026-02-11	16:17:31.650	7.385	4.165	0.105	0.244244	-0.02562	0.976488	-0.582	-1.6755	-3.6825	0	23	1027	1
2026-02-11	16:17:31.670	2.485	4.83	-7.525	0.267424	-0.05978	0.946232	-0.585	-1.68	-3.678	0	23	1027	1
2026-02-11	16:17:31.690	-0.735	5.32	-9.73	0.292556	-0.052216	0.956724	-0.576	-1.677	-3.6795	0	23	1027	1
2026-02-11	16:17:31.710	-3.57	4.97	-4.48	0.33916	-0.052216	0.972584	-0.5685	-1.674	-3.6765	0	23	1027	1
2026-02-11	16:17:31.730	-6.195	5.985	-3.99	0.323544	-0.069784	0.953796	-0.5625	-1.6725	-3.672	0	23	1027	1
2026-02-11	16:17:31.750	-8.47	7.14	-3.535	0.312076	-0.07515199	0.95282	-0.5565	-1.671	-3.672	0	23	1027	1
2026-02-11	16:17:31.770	-9.625	6.3	-3.43	0.282308	-0.082716	0.945744	-0.5595	-1.668	-3.669	0	23	1027	1
2026-02-11	16:17:31.790	-9.415	3.22	-3.15	0.26474	-0.096624	0.967704	-0.561	-1.668	-3.672	0	23	1027	1
2026-02-11	16:17:31.810	-8.435	-0.14	-4.13	0.254248	-0.103944	0.988444	-0.5625	-1.668	-3.675	0	28	1025	1
2026-02-11	16:17:31.830	-8.54	-3.255	-5.95	0.226676	-0.116144	0.992592	-0.5685	-1.6695	-3.6765	0	28	1025	1
2026-02-11	16:17:31.850	-8.54	-6.545	-8.015	0.216672	-0.114192	0.979172	-0.567	-1.6695	-3.6765	0	28	1025	1
2026-02-11	16:17:31.870	-8.54	-8.785	-8.855	0.21106	-0.10858	0.981612	-0.564	-1.668	-3.6735	0	28	1025	1
2026-02-11	16:17:31.890	-7.42	-9.17	-8.085	0.217892	-0.099796	0.977952	-0.5685	-1.6665	-3.6765	0	28	1025	1
2026-02-11	16:17:31.910	-5.95	-8.225	-6.335	0.211548	-0.095404	0.962336	-0.5685	-1.6635	-3.6735	0	28	1025	1
2026-02-11	16:17:31.930	-5.355	-5.95	-4.41	0.197884	-0.080032	0.956236	-0.564	-1.665	-3.6675	0	28	1025	1
2026-02-11	16:17:31.950	-5.04	-3.185	-3.22	0.199836	-0.07124799	0.975512	-0.564	-1.665	-3.6675	0	28	1025	1
2026-02-11	16:17:31.970	-4.62	-1.4	-2.695	0.20984	-0.062464	0.984052	-0.57	-1.659	-3.666	0	28	1025	1
2026-02-11	16:17:31.990	-4.305	0.175	-2.275	0.195932	-0.050752	0.981124	-0.5775	-1.653	-3.6645	0	28	1025	1
2026-02-11	16:17:32.010	-3.92	1.12	-3.185	0.193248	-0.044896	0.970388	-0.576	-1.653	-3.6645	0	34	1018	1
2026-02-11	16:17:32.030	-3.745	1.155	-4.48	0.196664	-0.028548	0.966728	-0.5745	-1.653	-3.666	0	34	1018	1
2026-02-11	16:17:32.050	-2.66	0.245	-5.775	0.204472	-0.02928	0.971364	-0.579	-1.6545	-3.6675	0	34	1018	1
2026-02-11	16:17:32.070	-1.365	-1.015	-6.93	0.211548	-0.024888	0.9821	-0.5805	-1.653	-3.666	0	34	1018	1
2026-02-11	16:17:32.090	-0.805	-2.345	-7.98	0.215696	-0.01952	0.990152	-0.585	-1.656	-3.6675	0	34	1018	1
2026-02-11	16:17:32.110	0.14	-3.325	-9.24	0.216916	-0.015616	0.98332	-0.5925	-1.6605	-3.669	0	34	1018	1
2026-02-11	16:17:32.130	0.7	-4.375	-10.815	0.206668	-0.0183	0.967216	-0.5925	-1.6545	-3.6705	0	34	1018	1
2026-02-11	16:17:32.150	1.33	-5.285	-12.25	0.178852	-0.015616	0.961848	-0.5955	-1.6515	-3.672	0	34	1018	1
2026-02-11	16:17:32.170	2.45	-6.09	-13.79	0.169336	-0.011712	0.973072	-0.6075	-1.653	-3.6735	0	34	1018	1
2026-02-11	16:17:32.190	2.8	-6.125	-15.015	0.161528	-0.025376	0.990884	-0.612	-1.6575	-3.669	0	34	1018	1
2026-02-11	16:17:32.210	2.45	-4.34	-16.8	0.156892	-0.02318	1.011624	-0.609	-1.6635	-3.663	0	40	1012	1
2026-02-11	16:17:32.230	0.735	-2.94	-17.885	0.13298	-0.0244	1.018212	-0.624	-1.653	-3.672	0	40	1012	1
2026-02-11	16:17:32.250	-0.77	-1.855	-18.655	0.133468	-0.03538	1.024312	-0.621	-1.6545	-3.6795	0	40	1012	1
2026-02-11	16:17:32.270	-2.52	-0.665	-19.25	0.147864	-0.045628	1.012112	-0.6285	-1.653	-3.675	0	40	1012	1
2026-02-11	16:17:32.290	-3.78	0.805	-19.88	0.160796	-0.049288	1.003084	-0.6345	-1.6515	-3.6705	0	40	1012	1
2026-02-11	16:17:32.310	-3.78	1.82	-20.09	0.163724	-0.048556	0.981856	-0.633	-1.6545	-3.6675	0	40	1012	1
2026-02-11	16:17:32.330	-3.045	1.82	-20.195	0.18056	-0.05368	0.994056	-0.6195	-1.6605	-3.678	0	40	1012	1
2026-02-11	16:17:32.350	-2.03	2.205	-19.985	0.188612	-0.062952	0.995764	-0.6315	-1.653	-3.6675	0	40	1012	1
2026-02-11	16:17:32.370	-0.945	2.625	-19.355	0.181292	-0.06344	0.994544	-0.627	-1.653	-3.6705	0	40	1012	1
2026-02-11	16:17:32.390	-0.07	2.94	-18.69	0.165676	-0.06954	0.9882	-0.6345	-1.641	-3.6735	0	40	1012	1
2026-02-11	16:17:32.410	0.7	3.535	-18.235	0.150548	-0.066368	0.989664	-0.6345	-1.6455	-3.666	0	44	1010	1
2026-02-11	16:17:32.430	1.33	4.305	-18.025	0.13176	-0.07076	0.994788	-0.6315	-1.65	-3.663	0	44	1010	1
2026-02-11	16:17:32.450	1.715	4.655	-17.675	0.128344	-0.066368	1.013088	-0.6345	-1.653	-3.6675	0	44	1010	1
2026-02-11	16:17:32.470	0.875	4.97	-16.94	0.131272	-0.066368	1.034804	-0.6405	-1.653	-3.6825	0	44	1010	1
2026-02-11	16:17:32.490	-0.21	5.145	-15.855	0.131028	-0.065636	1.046272	-0.6375	-1.6485	-3.6795	0	44	1010	1
2026-02-11	16:17:32.510	-0.875	5.285	-14.84	0.130052	-0.07442	1.04432	-0.6375	-1.647	-3.6735	0	44	1010	1
2026-02-11	16:17:32.530	-0.42	5.39	-13.93	0.125904	-0.076128	1.03822	-0.636	-1.65	-3.6705	0	44	1010	1
2026-02-11	16:17:32.550	0.21	4.83	-12.775	0.1525	-0.077592	1.054324	-0.6315	-1.6515	-3.6675	0	44	1010	1
2026-02-11	16:17:32.570	0.84	4.305	-10.57	0.202032	-0.08052	1.068964	-0.6315	-1.647	-3.6705	0	44	1010	1
2026-02-11	16:17:32.590	1.54	4.865	-8.155	0.217404	-0.07515199	1.051152	-0.6345	-1.6455	-3.6765	0	44	1010	1
2026-02-11	16:17:32.610	2.835	5.705	-6.335	0.192516	-0.078324	1.032608	-0.6345	-1.6455	-3.6765	0	46	1014	1
2026-02-11	16:17:32.630	4.095	6.37	-5.705	0.176412	-0.084668	1.025288	-0.633	-1.647	-3.6675	0	46	1014	1
2026-02-11	16:17:32.650	4.69	6.65	-6.335	0.171288	-0.093208	1.046272	-0.6375	-1.65	-3.675	0	46	1014	1
2026-02-11	16:17:32.670	4.13	6.65	-7.525	0.18422	-0.10126	1.079456	-0.627	-1.6515	-3.6765	0	46	1014	1
2026-02-11	16:17:32.690	1.995	6.51	-8.365	0.20496	-0.104676	1.087264	-0.6345	-1.6545	-3.6765	0	46	1014	1
2026-02-11	16:17:32.710	-1.225	6.755	-7.84	0.215452	-0.105164	1.068964	-0.6345	-1.653	-3.669	0	46	1014	1
2026-02-11	16:17:32.730	-4.62	6.965	-5.32	0.210572	-0.0976	1.01504	-0.6225	-1.6545	-3.6735	0	46	1014	1
2026-02-11	16:17:32.750	-6.23	6.93	-1.925	0.214476	-0.088084	0.98088	-0.6225	-1.6545	-3.6735	0	46	1014	1
2026-02-11	16:17:32.770	-5.915	7.14	0.805	0.22082	-0.0793	0.960628	-0.6255	-1.653	-3.675	0	46	1014	1
2026-02-11	16:17:32.790	-3.99	7.035	3.115	0.20984	-0.073444	0.936472	-0.6285	-1.6515	-3.675	0	46	1014	1
2026-02-11	16:17:32.810	-1.015	6.51	4.725	0.199836	-0.071492	0.920368	-0.627	-1.65	-3.6735	0	48	1022	1
2026-02-11	16:17:32.830	2.1	5.425	5.32	0.198128	-0.060268	0.918172	-0.621	-1.647	-3.675	0	48	1022	1
2026-02-11	16:17:32.850	4.655	4.305	5.355	0.200812	-0.04514	0.934276	-0.6195	-1.65	-3.675	0	48	1022	1
2026-02-11	16:17:32.870	6.02	3.465	5.565	0.221796	-0.02928	0.949404	-0.621	-1.656	-3.672	0	48	1022	1
2026-02-11	16:17:32.890	5.74	4.55	6.615	0.244244	-0.020008	0.958432	-0.627	-1.659	-3.6705	0	48	1022	1
2026-02-11	16:17:32.910	3.99	6.3	8.19	0.25742	0.000732	0.96868	-0.624	-1.659	-3.669	0	48	1022	1
2026-02-11	16:17:32.930	1.4	7.91	9.765	0.245952	0.016592	0.953308	-0.6165	-1.656	-3.6705	0	48	1022	1
2026-02-11	16:17:32.950	-1.47	10.045	11.025	0.240096	0.037088	0.921832	-0.6135	-1.6575	-3.666	0	48	1022	1
2026-02-11	16:17:32.970	-3.92	12.32	-3.115	0.223748	0.063684	0.924028	-0.606	-1.6575	-3.6615	0	48	1022	1
2026-02-11	16:17:32.990	-7.315	21.525	-10.675	0.234972	0.030012	0.908656	-0.576	-1.6575	-3.651	0	48	1022	1
2026-02-11	16:17:33.010	-5.6	7.665	14.945	0.197884	0.069784	0.946476	-0.5535	-1.662	-3.642	0	50	1021	1
2026-02-11	16:17:33.030	-4.585	2.17	14.805	0.191296	0.06344	0.964776	-0.5535	-1.662	-3.642	0	50	1021	1
2026-02-11	16:17:33.050	-2.73	-4.83	14.28	0.19032	0.050996	0.981612	-0.5295	-1.6485	-3.645	0	50	1021	1
2026-02-11	16:17:33.070	-0.21	-11.83	13.405	0.179096	0.045872	0.99186	-0.5325	-1.656	-3.6495	0	50	1021	1
2026-02-11	16:17:33.090	2.835	-17.43	12.005	0.166652	0.039284	0.971852	-0.531	-1.6545	-3.654	0	50	1021	1
2026-02-11	16:17:33.110	5.67	-19.11	10.605	0.1464	0.0366	0.938912	-0.5325	-1.653	-3.6495	0	50	1021	1
2026-02-11	16:17:33.130	7.385	-17.92	9.065	0.120048	0.037576	0.909388	-0.5445	-1.647	-3.6525	0	50	1021	1
2026-02-11	16:17:33.150	7.805	-15.26	7.91	0.117608	0.042212	0.943792	-0.537	-1.6605	-3.648	0	50	1021	1
2026-02-11	16:17:33.170	7.14	-11.795	7.7	0.136396	0.045872	0.974292	-0.537	-1.6575	-3.6465	0	50	1021	1
2026-02-11	16:17:33.190	5.32	-7.035	8.12	0.129808	0.047092	1.013332	-0.5415	-1.6605	-3.648	0	50	1021	1
2026-02-11	16:17:33.210	1.96	-3.57	8.785	0.10248	0.049044	1.00894	-0.54	-1.659	-3.6495	0	52	1014	1
2026-02-11	16:17:33.230	-1.855	-2.415	9.065	0.093696	0.056852	0.996008	-0.5445	-1.656	-3.648	0	52	1014	1
2026-02-11	16:17:33.250	-4.62	-2.555	8.68	0.073932	0.049288	0.98332	-0.549	-1.6545	-3.6495	0	52	1014	1
2026-02-11	16:17:33.270	-6.125	-3.92	7.56	0.065392	0.042944	0.970876	-0.5475	-1.656	-3.651	0	52	1014	1
2026-02-11	16:17:33.290	-6.16	-6.195	6.475	0.074176	0.032208	0.97112	-0.5445	-1.6575	-3.6495	0	52	1014	1
2026-02-11	16:17:33.310	-5.39	-7.735	5.775	0.07198	0.026596	0.980148	-0.5475	-1.659	-3.6495	0	52	1014	1
2026-02-11	16:17:33.330	-4.305	-8.575	5.18	0.067588	0.027084	0.988688	-0.552	-1.6515	-3.6435	0	52	1014	1
2026-02-11	16:17:33.350	-3.325	-8.61	5.32	0.077836	0.02806	1.002108	-0.552	-1.656	-3.6495	0	52	1014	1
2026-02-11	16:17:33.370	-2.555	-8.05	6.335	0.085888	0.026352	1.011136	-0.5415	-1.662	-3.657	0	52	1014	1
2026-02-11	16:17:33.390	-2.24	-6.685	7.98	0.088328	0.025376	1.011868	-0.54	-1.6605	-3.6555	0	52	1014	1
2026-02-11	16:17:33.410	-2.135	-5.425	9.66	0.07515199	0.014396	1.010892	-0.546	-1.65	-3.6435	0	56	1008	1
2026-02-11	16:17:33.430	-2.17	-4.2	11.165	0.088816	0.018788	1.025532	-0.552	-1.6515	-3.648	0	56	1008	1
2026-02-11	16:17:33.450	-1.96	-3.115	12.565	0.111752	0.015128	1.058472	-0.549	-1.6515	-3.645	0	56	1008	1
2026-02-11	16:17:33.470	-2.765	-0.805	13.58	0.137128	0.003416	1.084092	-0.5475	-1.6455	-3.648	0	56	1008	1
2026-02-11	16:17:33.490	-4.2	2.1	14.28	0.12566	0.005368	1.068476	-0.555	-1.65	-3.642	0	56	1008	1
2026-02-11	16:17:33.510	-4.62	4.655	14.77	0.124684	0.009028	1.046028	-0.555	-1.653	-3.6405	0	56	1008	1
2026-02-11	16:17:33.530	-3.955	6.335	15.365	0.128588	0.004148	1.03822	-0.5475	-1.644	-3.642	0	56	1008	1
2026-02-11	16:17:33.550	-2.135	7.315	16.66	0.140788	-0.009516	1.067012	-0.5445	-1.647	-3.6315	0	56	1008	1
2026-02-11	16:17:33.570	-0.63	8.785	17.36	0.114924	-0.009272	1.065792	-0.54	-1.653	-3.6345	0	56	1008	1
2026-02-11	16:17:33.590	1.365	9.45	17.535	0.099308	-0.020252	1.069696	-0.5385	-1.659	-3.6345	0	56	1008	1
2026-02-11	16:17:33.610	3.675	6.405	18.06	0.14518	-0.030256	1.108004	-0.537	-1.656	-3.6345	0	59	1012	1
2026-02-11	16:17:33.630	6.37	-0.315	19.565	0.193736	-0.038552	1.131672	-0.5355	-1.6515	-3.6375	0	59	1012	1
2026-02-11	16:17:33.650	8.365	-7.91	21.315	0.232044	-0.052216	1.13826	-0.5355	-1.65	-3.6375	0	59	1012	1
2026-02-11	16:17:33.670	9.94	-15.4	22.505	0.258884	-0.052704	1.128256	-0.537	-1.6515	-3.6375	0	59	1012	1
2026-02-11	16:17:33.690	10.325	-18.795	21.84	0.264008	-0.045872	1.087264	-0.5385	-1.656	-3.6405	0	59	1012	1
2026-02-11	16:17:33.710	9.87	-9.94	19.95	0.215452	-0.039528	1.006256	-0.5355	-1.6575	-3.6375	0	59	1012	1
2026-02-11	16:17:33.730	11.83	-8.12	15.505	0.223504	-0.031964	0.935984	-0.534	-1.6545	-3.63	0	59	1012	1
2026-02-11	16:17:33.750	15.295	-2.695	11.41	0.25132	-0.018788	0.893284	-0.531	-1.656	-3.627	0	59	1012	1
2026-02-11	16:17:33.770	19.95	3.43	8.855	0.285968	-0.009272	0.896212	-0.525	-1.6545	-3.63	0	59	1012	1
2026-02-11	16:17:33.790	23.94	10.99	6.02	0.304756	-0.013664	0.935496	-0.5265	-1.659	-3.636	0	59	1012	1
2026-02-11	16:17:33.810	23.975	24.885	14.28	0.314272	0.012444	1.006744	-0.5205	-1.668	-3.636	0	62	1023	1
2026-02-11	16:17:33.830	19.6	20.86	37.065	0.357704	-0.08906	0.937692	-0.5115	-1.6725	-3.636	0	62	1023	1
2026-02-11	16:17:33.850	12.845	14.7	24.325	0.32574	-0.055632	0.982832	-0.4905	-1.665	-3.6225	0	62	1023	1
2026-02-11	16:17:33.870	5.32	7.63	25.655	0.289872	-0.0671	0.977708	-0.4905	-1.6665	-3.621	0	62	1023	1
2026-02-11	16:17:33.890	-1.715	3.535	26.565	0.252296	-0.071004	0.956724	-0.486	-1.6725	-3.6195	0	62	1023	1
2026-02-11	16:17:33.910	-7.385	1.12	25.55	0.211304	-0.071492	0.912804	-0.4815	-1.671	-3.621	0	62	1023	1
2026-02-11	16:17:33.930	-8.82	-1.54	23.1	0.174216	-0.078324	0.870104	-0.48	-1.6665	-3.6195	0	62	1023	1
2026-02-11	16:17:33.950	-8.75	-4.865	19.74	0.1647	-0.07442	0.852048	-0.4785	-1.6665	-3.618	0	62	1023	1
2026-02-11	16:17:33.970	-7.63	-7.07	15.54	0.175924	-0.075884	0.860832	-0.477	-1.6695	-3.621	0	62	1023	1
2026-02-11	16:17:33.990	-5.32	-7.105	11.06	0.173728	-0.07076	0.873764	-0.4785	-1.665	-3.6225	0	62	1023	1
2026-02-11	16:17:34.010	-3.185	-6.545	6.16	0.173728	-0.072712	0.879132	-0.483	-1.6605	-3.627	0	67	1022	1
2026-02-11	16:17:34.030	-1.645	-7	4.515	0.179584	-0.070028	0.8723	-0.4815	-1.6635	-3.6255	0	67	1022	1
2026-02-11	16:17:34.050	-0.28	-8.785	3.64	0.175436	-0.064172	0.874984	-0.483	-1.659	-3.624	0	67	1022	1
2026-02-11	16:17:34.070	1.015	-10.675	4.06	0.181536	-0.046116	0.903044	-0.483	-1.6575	-3.6225	0	67	1022	1
2026-02-11	16:17:34.090	2.695	-12.285	6.16	0.188124	-0.040016	0.927444	-0.48	-1.662	-3.624	0	67	1022	1
2026-02-11	16:17:34.110	3.36	-13.615	8.12	0.158356	-0.03172	0.937936	-0.4905	-1.662	-3.621	0	67	1022	1
2026-02-11	16:17:34.130	3.71	-14.84	9.625	0.142252	-0.030988	0.948428	-0.486	-1.665	-3.627	0	67	1022	1
2026-02-11	16:17:34.150	3.955	-15.855	10.605	0.147864	-0.026596	0.96258	-0.492	-1.668	-3.6225	0	67	1022	1
2026-02-11	16:17:34.170	4.06	-16.275	11.095	0.133468	-0.026108	0.980636	-0.4815	-1.656	-3.6195	0	67	1022	1
2026-02-11	16:17:34.190	4.235	-15.855	10.465	0.119316	-0.02074	0.995764	-0.492	-1.668	-3.624	0	67	1022	1
2026-02-11	16:17:34.210	4.445	-14.21	9.17	0.101992	-0.02318	1.013576	-0.4965	-1.665	-3.615	0	72	1009	1
2026-02-11	16:17:34.230	4.69	-11.305	7.245	0.103456	-0.023912	1.030168	-0.4905	-1.6725	-3.6105	0	72	1009	1
2026-02-11	16:17:34.250	5.145	-7.84	5.075	0.102724	-0.015372	1.055056	-0.4965	-1.665	-3.6105	0	72	1009	1
2026-02-11	16:17:34.270	4.935	-4.13	2.66	0.105408	-0.018788	1.087996	-0.507	-1.665	-3.6195	0	72	1009	1
2026-02-11	16:17:34.290	3.675	-1.05	0.035	0.10492	-0.01464	1.123864	-0.4995	-1.6635	-3.615	0	72	1009	1
2026-02-11	16:17:34.310	1.365	1.54	-3.045	0.11102	-0.011712	1.15412	-0.498	-1.6725	-3.615	0	72	1009	1
2026-02-11	16:17:34.330	-1.435	4.095	-5.985	0.147132	-0.01464	1.160464	-0.498	-1.665	-3.6135	0	72	1009	1
2026-02-11	16:17:34.350	-4.9	6.72	-8.715	0.164212	-0.011956	1.131916	-0.492	-1.668	-3.615	0	72	1009	1
2026-02-11	16:17:34.370	-7.14	9.485	-11.06	0.17446	-0.005856	1.085068	-0.4935	-1.665	-3.6135	0	72	1009	1
2026-02-11	16:17:34.390	-6.895	11.13	-13.685	0.159576	0.011956	1.06262	-0.492	-1.6605	-3.6135	0	72	1009	1
2026-02-11	16:17:34.410	-6.37	10.92	-17.08	0.200568	0.00488	1.084336	-0.492	-1.6605	-3.615	0	77	1008	1
2026-02-11	16:17:34.430	-8.26	7.175	-19.635	0.261812	0.00854	1.132892	-0.492	-1.662	-3.6105	0	77	1008	1
2026-02-11	16:17:34.450	-12.565	0.91	-19.67	0.337452	0.000976	1.178764	-0.486	-1.659	-3.609	0	77	1008	1
2026-02-11	16:17:34.470	-17.29	-5.495	-20.3	0.374296	-0.006588	1.167296	-0.4875	-1.656	-3.612	0	77	1008	1
2026-02-11	16:17:34.490	-21.21	-7.07	-19.25	0.350872	-0.020496	1.105808	-0.4935	-1.653	-3.6045	0	77	1008	1
2026-02-11	16:17:34.510	-23.485	-8.47	-18.725	0.325008	-0.03538	1.030412	-0.4935	-1.6515	-3.597	0	77	1008	1
2026-02-11	16:17:34.530	-23.59	-10.5	-19.74	0.326716	-0.03538	0.949648	-0.4875	-1.641	-3.6015	0	77	1008	1
2026-02-11	16:17:34.550	-20.055	-10.395	-20.58	0.316468	-0.03538	0.88816	-0.4995	-1.635	-3.588	0	77	1008	1
2026-02-11	16:17:34.570	-14.105	-5.32	-21.245	0.307684	-0.020984	0.874496	-0.4935	-1.6335	-3.5865	0	77	1008	1
2026-02-11	16:17:34.590	-8.33	3.115	-22.19	0.333548	-0.016836	0.90524	-0.498	-1.635	-3.597	0	77	1008	1
2026-02-11	16:17:34.610	-2.625	10.64	-22.785	0.324032	-0.026352	0.93696	-0.501	-1.6305	-3.5985	0	82	1020	1
2026-02-11	16:17:34.630	-2.59	11.305	-17.885	0.391376	-0.026108	0.977464	-0.501	-1.6305	-3.5985	0	82	1020	1
2026-02-11	16:17:34.650	-6.51	7.63	-12.6	0.400892	-0.021472	0.996496	-0.4965	-1.629	-3.594	0	82	1020	1
2026-02-11	16:17:34.670	-10.395	4.2	-7.455	0.381616	-0.026352	0.996008	-0.4965	-1.6245	-3.594	0	82	1020	1
2026-02-11	16:17:34.690	-12.88	3.115	-3.955	0.339892	-0.028548	0.958188	-0.5025	-1.626	-3.594	0	82	1020	1
2026-02-11	16:17:34.710	-13.545	2.975	-1.295	0.2867	-0.030012	0.884988	-0.5025	-1.626	-3.591	0	82	1020	1
2026-02-11	16:17:34.730	-11.83	1.33	-0.28	0.240584	-0.02318	0.837652	-0.501	-1.62	-3.588	0	82	1020	1
2026-02-11	16:17:34.750	-8.61	1.365	-1.12	0.2257	-0.024644	0.839116	-0.501	-1.6155	-3.582	0	82	1020	1
2026-02-11	16:17:34.770	-4.27	3.955	-3.045	0.2257	-0.021472	0.879132	-0.501	-1.614	-3.5775	0	82	1020	1
