yyyy-MM-dd	HH:mm:ss.fff	gyrX	gyrY	gyrZ	accX	accY	accZ	magX	magY	magZ	Marker	Energy	Angle	Classification
2026-02-11	16:16:38.010	-0.07	-0.14	-0.105	-0.003904	0.010004	1.017724	0.5175	0.468	-0.249	0	11	1036	1
2026-02-11	16:16:38.030	0	-0.105	-0.105	-0.002196	0.005368	1.013332	0.5205	0.471	-0.2505	0	11	1036	1
2026-02-11	16:16:38.050	-0.035	-0.14	-0.105	-0.000732	0.011956	1.014552	0.5175	0.4695	-0.252	0	11	1036	1
2026-02-11	16:16:38.070	-0.035	-0.105	-0.105	-0.001708	0.010248	1.010892	0.516	0.465	-0.2535	0	11	1036	1
2026-02-11	16:16:38.090	-0.07	-0.14	-0.07	-0.002684	0.009028	1.008696	0.516	0.4635	-0.246	0	11	1036	1
2026-02-11	16:16:38.110	-0.105	-0.105	-0.07	-0.00488	0.006588	1.014552	0.5145	0.4635	-0.2445	0	11	1036	1
2026-02-11	16:16:38.130	-0.035	-0.105	-0.105	-0.003172	0.006344	1.019432	0.5205	0.4635	-0.2505	0	11	1036	1
2026-02-11	16:16:38.150	0	-0.14	-0.07	0	0.005124	1.007476	0.5235	0.4635	-0.2475	0	11	1036	1
2026-02-11	16:16:38.170	-0.035	-0.105	-0.105	-0.001708	0.006344	1.01138	0.5205	0.462	-0.249	0	11	1036	1
2026-02-11	16:16:38.190	-0.07	-0.14	-0.105	-0.00488	0.006588	1.013576	0.5205	0.4635	-0.2535	0	11	1036	1
2026-02-11	16:16:38.210	-0.07	-0.14	-0.105	-0.000732	0.00854	1.009672	0.522	0.4665	-0.252	0	10	1036	1
2026-02-11	16:16:38.230	-0.07	-0.105	-0.105	-0.003904	0.003904	1.015772	0.519	0.4605	-0.2505	0	10	1036	1
2026-02-11	16:16:38.250	-0.07	-0.07	-0.105	-0.00366	0.008784	1.018456	0.513	0.4635	-0.2445	0	10	1036	1
2026-02-11	16:16:38.270	0	-0.105	-0.07	-0.00244	0.008784	1.010404	0.513	0.4665	-0.2505	0	10	1036	1
2026-02-11	16:16:38.290	0	-0.105	-0.07	-0.00122	0.012688	1.009428	0.5205	0.465	-0.2385	0	10	1036	1
2026-02-11	16:16:38.310	-0.105	-0.14	-0.07	-0.004636	0.00854	1.012844	0.519	0.4755	-0.2445	0	10	1036	1
2026-02-11	16:16:38.330	-0.105	-0.105	-0.07	-0.003904	0.003172	1.0126	0.519	0.4665	-0.243	0	10	1036	1
2026-02-11	16:16:38.350	-0.07	-0.105	-0.07	-0.005124	0.008052	1.014064	0.5235	0.4665	-0.2475	0	10	1036	1
2026-02-11	16:16:38.370	0	-0.14	-0.105	-0.003904	0.007076	1.007232	0.5235	0.4665	-0.2475	0	10	1036	1
2026-02-11	16:16:38.390	-0.07	-0.105	-0.105	-0.002684	0.011956	1.01016	0.519	0.4695	-0.249	0	10	1036	1
2026-02-11	16:16:38.410	-0.105	-0.105	-0.105	-0.004148	0.010248	1.015284	0.5145	0.468	-0.249	0	9	1036	1
2026-02-11	16:16:38.430	-0.07	-0.105	-0.07	-0.003904	0.004636	1.016016	0.5175	0.4665	-0.249	0	9	1036	1
2026-02-11	16:16:38.450	-0.035	-0.14	-0.105	-0.004636	0.0061	1.009428	0.5205	0.468	-0.2475	0	9	1036	1
2026-02-11	16:16:38.470	-0.035	-0.105	-0.07	-0.002684	0.012444	1.009428	0.5175	0.4665	-0.246	0	9	1036	1
2026-02-11	16:16:38.490	-0.07	-0.105	-0.07	-0.003904	0.008296	1.014308	0.519	0.465	-0.246	0	9	1036	1
2026-02-11	16:16:38.510	-0.07	-0.105	-0.105	-0.006344	0.009272	1.012356	0.5205	0.462	-0.246	0	9	1036	1
2026-02-11	16:16:38.530	-0.035	-0.14	-0.07	-0.00122	0.006588	1.012112	0.5175	0.465	-0.2445	0	9	1036	1
2026-02-11	16:16:38.550	-0.035	-0.105	-0.105	-0.00244	0.008052	1.013088	0.519	0.468	-0.2445	0	9	1036	1
2026-02-11	16:16:38.570	-0.07	-0.14	-0.035	-0.00366	0.010492	1.01626	0.5145	0.462	-0.243	0	9	1036	1
2026-02-11	16:16:38.590	-0.035	-0.14	-0.105	-0.009028	0.010248	1.010892	0.5115	0.465	-0.2445	0	9	1036	1
2026-02-11	16:16:38.610	-0.07	-0.14	-0.105	0.000732	0.006344	1.011868	0.5175	0.471	-0.252	0	8	1036	1
2026-02-11	16:16:38.630	-0.035	-0.105	-0.105	-0.008052	0.006344	1.018944	0.5175	0.471	-0.2475	0	8	1036	1
2026-02-11	16:16:38.650	0	-0.105	-0.105	-0.001952	0.010004	1.012112	0.516	0.4695	-0.246	0	8	1036	1
2026-02-11	16:16:38.670	-0.035	-0.105	-0.105	-0.008784	0.007076	1.010404	0.516	0.465	-0.243	0	8	1036	1
2026-02-11	16:16:38.690	-0.07	-0.105	-0.07	0.000488	0.006588	1.011868	0.5175	0.4635	-0.2415	0	8	1036	1
2026-02-11	16:16:38.710	-0.035	-0.105	-0.07	-0.002928	0.005368	1.014796	0.5175	0.4635	-0.243	0	8	1036	1
2026-02-11	16:16:38.730	-0.07	-0.14	-0.07	-0.003416	0.010492	1.013576	0.5175	0.459	-0.2445	0	8	1036	1
2026-02-11	16:16:38.750	-0.07	-0.105	-0.105	-0.00488	0.00976	1.012844	0.5205	0.4635	-0.246	0	8	1036	1
2026-02-11	16:16:38.770	-0.035	-0.105	-0.07	-0.00366	0.007808	1.01504	0.5115	0.4635	-0.246	0	8	1036	1
2026-02-11	16:16:38.790	0	-0.105	-0.105	-0.001708	0.008296	1.016016	0.519	0.4635	-0.2475	0	8	1036	1
2026-02-11	16:16:38.810	-0.035	-0.14	-0.07	-0.00366	0.007808	1.012844	0.513	0.4725	-0.246	0	7	1036	1
2026-02-11	16:16:38.830	-0.035	-0.14	-0.105	-0.000732	0.006588	1.011868	0.5145	0.462	-0.2445	0	7	1036	1
2026-02-11	16:16:38.850	-0.07	-0.14	-0.105	-0.00366	0.010492	1.013576	0.5175	0.462	-0.252	0	7	1036	1
2026-02-11	16:16:38.870	-0.07	-0.105	-0.105	-0.003172	0.00732	1.013088	0.5175	0.465	-0.246	0	7	1036	1
2026-02-11	16:16:38.890	-0.07	-0.14	-0.07	-0.005368	0.003172	1.0126	0.5175	0.4635	-0.246	0	7	1036	1
2026-02-11	16:16:38.910	-0.035	-0.105	-0.105	-0.003416	0.008784	1.016992	0.516	0.4605	-0.246	0	7	1036	1
2026-02-11	16:16:38.930	-0.035	-0.07	-0.07	-0.001952	0.008784	1.010404	0.513	0.4665	-0.2475	0	7	1036	1
2026-02-11	16:16:38.950	-0.07	-0.105	-0.105	-0.005856	0.006832	1.006744	0.5145	0.465	-0.246	0	7	1036	1
2026-02-11	16:16:38.970	-0.07	-0.105	-0.105	-0.002928	0.009272	1.016992	0.5175	0.4605	-0.243	0	7	1036	1
2026-02-11	16:16:38.990	-0.035	-0.105	-0.07	-0.0061	0.009516	1.013576	0.516	0.4605	-0.2415	0	7	1036	1
2026-02-11	16:16:37.010	-0.07	-0.07	-0.105	-0.006832	0.008296	1.013332	0.513	0.468	-0.2475	0	23	1035	1
2026-02-11	16:16:37.030	-0.035	-0.105	-0.105	-0.002928	0.007564	1.013576	0.5175	0.4695	-0.249	0	23	1035	1
2026-02-11	16:16:37.050	-0.035	-0.14	-0.07	-0.00122	0.005856	1.009916	0.5175	0.4665	-0.2475	0	23	1035	1
2026-02-11	16:16:37.070	-0.035	-0.14	-0.105	-0.002684	0.00976	1.012112	0.516	0.4665	-0.2475	0	23	1035	1
2026-02-11	16:16:37.090	-0.07	-0.14	-0.105	-0.00366	0.006344	1.012112	0.516	0.468	-0.249	0	23	1035	1
2026-02-11	16:16:37.110	-0.07	-0.105	-0.07	-0.003416	0.00976	1.012356	0.51	0.465	-0.2475	0	23	1035	1
2026-02-11	16:16:37.130	-0.07	-0.105	-0.105	-0.005124	0.010736	1.016748	0.513	0.4695	-0.2535	0	23	1035	1
2026-02-11	16:16:37.150	-0.035	-0.105	-0.105	-0.003904	0.008296	1.012112	0.516	0.474	-0.252	0	23	1035	1
2026-02-11	16:16:37.170	-0.035	-0.105	-0.07	-0.003904	0.007808	1.013088	0.516	0.4605	-0.2475	0	23	1035	1
2026-02-11	16:16:37.190	-0.035	-0.105	-0.07	-0.003172	0.006588	1.014552	0.5115	0.468	-0.2565	0	23	1035	1
2026-02-11	16:16:37.210	-0.07	-0.105	-0.105	-0.005124	0.0061	1.012356	0.5145	0.4725	-0.2535	0	20	1035	1
2026-02-11	16:16:37.230	-0.035	-0.105	-0.105	-0.003172	0.006344	1.014796	0.51	0.4665	-0.2565	0	20	1035	1
2026-02-11	16:16:37.250	-0.035	-0.105	-0.105	-0.002928	0.007076	1.011868	0.5145	0.4605	-0.2505	0	20	1035	1
2026-02-11	16:16:37.270	-0.07	-0.105	-0.105	-0.00122	0.00732	1.014552	0.5145	0.4605	-0.2505	0	20	1035	1
2026-02-11	16:16:37.290	-0.035	-0.105	-0.07	-0.003172	0.009272	1.016504	0.5175	0.4605	-0.249	0	20	1035	1
2026-02-11	16:16:37.310	-0.035	-0.105	-0.105	-0.00244	0.00854	1.010892	0.522	0.468	-0.2505	0	20	1035	1
2026-02-11	16:16:37.330	-0.035	-0.105	-0.105	-0.004636	0.011224	1.016748	0.5235	0.468	-0.255	0	20	1035	1
2026-02-11	16:16:37.350	-0.07	-0.105	-0.14	-0.004392	0.009272	1.01626	0.5235	0.462	-0.258	0	20	1035	1
2026-02-11	16:16:37.370	0	-0.105	-0.105	-0.003904	0.006588	1.014552	0.519	0.4695	-0.246	0	20	1035	1
2026-02-11	16:16:37.390	-0.035	-0.105	-0.105	0	0.006832	1.013332	0.522	0.4605	-0.2535	0	20	1035	1
2026-02-11	16:16:37.410	-0.07	-0.105	-0.105	-0.001952	0.005856	1.01504	0.516	0.4755	-0.249	0	17	1035	1
2026-02-11	16:16:37.430	-0.07	-0.14	-0.07	-0.002928	0.009516	1.01504	0.519	0.4635	-0.2415	0	17	1035	1
2026-02-11	16:16:37.450	-0.035	-0.105	-0.105	-0.007076	0.008784	1.011868	0.519	0.4635	-0.2415	0	17	1035	1
2026-02-11	16:16:37.470	-0.035	-0.105	-0.07	-0.000488	0.008296	1.013332	0.519	0.4635	-0.2415	0	17	1035	1
2026-02-11	16:16:37.490	-0.035	-0.105	-0.105	-0.001464	0.008784	1.010404	0.519	0.465	-0.243	0	17	1035	1
2026-02-11	16:16:37.510	-0.07	-0.14	-0.105	-0.00244	0.008296	1.014308	0.516	0.468	-0.2445	0	17	1035	1
2026-02-11	16:16:37.530	-0.07	-0.14	-0.105	-0.003172	0.004392	1.014796	0.5145	0.468	-0.2475	0	17	1035	1
2026-02-11	16:16:37.550	-0.07	-0.14	-0.105	-0.0061	0.007076	1.016992	0.516	0.4635	-0.2475	0	17	1035	1
2026-02-11	16:16:37.570	-0.035	-0.14	-0.105	0.00122	0.009516	1.010648	0.516	0.4665	-0.2445	0	17	1035	1
2026-02-11	16:16:37.590	-0.035	-0.105	-0.105	-0.005124	0.007808	1.014064	0.5205	0.468	-0.2475	0	17	1035	1
2026-02-11	16:16:37.610	-0.035	-0.105	-0.105	-0.000976	0.007808	1.015284	0.5205	0.471	-0.246	0	15	1036	1
2026-02-11	16:16:37.630	-0.035	-0.07	-0.07	-0.001952	0.006344	1.0126	0.5145	0.474	-0.243	0	15	1036	1
2026-02-11	16:16:37.650	-0.035	-0.105	-0.07	-0.002684	0.006832	1.01382	0.5235	0.4665	-0.252	0	15	1036	1
2026-02-11	16:16:37.670	-0.035	-0.105	-0.07	-0.003904	0.006588	1.012844	0.519	0.4665	-0.249	0	15	1036	1
2026-02-11	16:16:37.690	-0.07	-0.105	-0.07	-0.00122	0.007564	1.012356	0.522	0.471	-0.2475	0	15	1036	1
2026-02-11	16:16:37.710	-0.035	-0.105	-0.07	-0.004392	0.009028	1.014308	0.519	0.4635	-0.2505	0	15	1036	1
2026-02-11	16:16:37.730	-0.07	-0.105	-0.105	-0.003172	0.009272	1.009916	0.5175	0.4665	-0.246	0	15	1036	1
2026-02-11	16:16:37.750	-0.07	-0.105	-0.14	-0.003416	0.006344	1.012844	0.5175	0.4665	-0.258	0	15	1036	1
2026-02-11	16:16:37.770	-0.035	-0.14	-0.105	-0.004148	0.007076	1.014064	0.522	0.4695	-0.2535	0	15	1036	1
2026-02-11	16:16:37.790	-0.035	-0.105	-0.105	-0.003904	0.010492	1.014308	0.5115	0.468	-0.2475	0	15	1036	1
2026-02-11	16:16:37.810	-0.035	-0.105	-0.105	-0.003416	0.007076	1.010892	0.5175	0.4605	-0.252	0	13	1036	1
2026-02-11	16:16:37.830	-0.035	-0.105	-0.07	-0.00488	0.011712	1.011136	0.516	0.462	-0.246	0	13	1036	1
2026-02-11	16:16:37.850	-0.07	-0.105	-0.105	-0.003904	0.007564	1.01016	0.519	0.4665	-0.246	0	13	1036	1
2026-02-11	16:16:37.870	-0.07	-0.105	-0.14	-0.004392	0.010736	1.007964	0.5205	0.468	-0.2475	0	13	1036	1
2026-02-11	16:16:37.890	-0.07	-0.14	-0.07	-0.003904	0.010004	1.016016	0.519	0.4665	-0.249	0	13	1036	1
2026-02-11	16:16:37.910	-0.07	-0.14	-0.105	-0.002928	0.010248	1.013332	0.519	0.4695	-0.2505	0	13	1036	1
2026-02-11	16:16:37.930	-0.07	-0.105	-0.105	-0.003416	0.008784	1.01626	0.519	0.471	-0.246	0	13	1036	1
2026-02-11	16:16:37.950	-0.035	-0.105	-0.07	-0.003416	0.007564	1.013088	0.516	0.4695	-0.246	0	13	1036	1
2026-02-11	16:16:37.970	-0.035	-0.14	-0.105	-0.00366	0.008296	1.009184	0.516	0.468	-0.2475	0	13	1036	1
2026-02-11	16:16:37.990	-0.07	-0.14	-0.105	-0.000732	0.00732	1.011868	0.5175	0.4665	-0.2475	0	13	1036	1
2026-02-11	16:16:38.010	-0.07	-0.14	-0.105	-0.003904	0.010004	1.017724	0.5175	0.468	-0.249	0	11	1036	1
2026-02-11	16:16:38.030	0	-0.105	-0.105	-0.002196	0.005368	1.013332	0.5205	0.471	-0.2505	0	11	1036	1
2026-02-11	16:16:38.050	-0.035	-0.14	-0.105	-0.000732	0.011956	1.014552	0.5175	0.4695	-0.252	0	11	1036	1
2026-02-11	16:16:38.070	-0.035	-0.105	-0.105	-0.001708	0.010248	1.010892	0.516	0.465	-0.2535	0	11	1036	1
2026-02-11	16:16:38.090	-0.07	-0.14	-0.07	-0.002684	0.009028	1.008696	0.516	0.4635	-0.246	0	11	1036	1
2026-02-11	16:16:38.110	-0.105	-0.105	-0.07	-0.00488	0.006588	1.014552	0.5145	0.4635	-0.2445	0	11	1036	1
2026-02-11	16:16:38.130	-0.035	-0.105	-0.105	-0.003172	0.006344	1.019432	0.5205	0.4635	-0.2505	0	11	1036	1
2026-02-11	16:16:38.150	0	-0.14	-0.07	0	0.005124	1.007476	0.5235	0.4635	-0.2475	0	11	1036	1
2026-02-11	16:16:38.170	-0.035	-0.105	-0.105	-0.001708	0.006344	1.01138	0.5205	0.462	-0.249	0	11	1036	1
2026-02-11	16:16:38.190	-0.07	-0.14	-0.105	-0.00488	0.006588	1.013576	0.5205	0.4635	-0.2535	0	11	1036	1
2026-02-11	16:16:38.210	-0.07	-0.14	-0.105	-0.000732	0.00854	1.009672	0.522	0.4665	-0.252	0	10	1036	1
2026-02-11	16:16:38.230	-0.07	-0.105	-0.105	-0.003904	0.003904	1.015772	0.519	0.4605	-0.2505	0	10	1036	1
2026-02-11	16:16:38.250	-0.07	-0.07	-0.105	-0.00366	0.008784	1.018456	0.513	0.4635	-0.2445	0	10	1036	1
2026-02-11	16:16:38.270	0	-0.105	-0.07	-0.00244	0.008784	1.010404	0.513	0.4665	-0.2505	0	10	1036	1
2026-02-11	16:16:38.290	0	-0.105	-0.07	-0.00122	0.012688	1.009428	0.5205	0.465	-0.2385	0	10	1036	1
2026-02-11	16:16:38.310	-0.105	-0.14	-0.07	-0.004636	0.00854	1.012844	0.519	0.4755	-0.2445	0	10	1036	1
2026-02-11	16:16:38.330	-0.105	-0.105	-0.07	-0.003904	0.003172	1.0126	0.519	0.4665	-0.243	0	10	1036	1
2026-02-11	16:16:38.350	-0.07	-0.105	-0.07	-0.005124	0.008052	1.014064	0.5235	0.4665	-0.2475	0	10	1036	1
2026-02-11	16:16:38.370	0	-0.14	-0.105	-0.003904	0.007076	1.007232	0.5235	0.4665	-0.2475	0	10	1036	1
2026-02-11	16:16:38.390	-0.07	-0.105	-0.105	-0.002684	0.011956	1.01016	0.519	0.4695	-0.249	0	10	1036	1
2026-02-11	16:17:10.010	-2.275	3.43	-1.12	0.164944	0.2196	0.986492	4.2105	2.9625	-4.272	0	219	968	1
2026-02-11	16:17:10.030	-3.08	3.78	-0.7	0.165188	0.213012	0.99796	4.2165	2.9625	-4.266	0	219	968	1
2026-02-11	16:17:10.050	-4.69	3.5	-0.245	0.173972	0.19154	0.992104	4.2135	2.9655	-4.2705	0	219	968	1
2026-02-11	16:17:10.070	-5.635	2.555	-0.245	0.173484	0.180316	0.989908	4.218	2.967	-4.278	0	219	968	1
2026-02-11	16:17:10.090	-4.445	1.19	-1.645	0.174948	0.18544	0.980636	4.209	2.9685	-4.272	0	219	968	1
2026-02-11	16:17:10.110	-3.29	1.75	-2.135	0.176656	0.20374	0.98088	4.2045	2.9745	-4.2765	0	219	968	1
2026-02-11	16:17:10.130	-3.395	3.745	-0.945	0.171532	0.20252	0.979416	4.206	2.9655	-4.2705	0	219	968	1
2026-02-11	16:17:10.150	-3.71	4.41	0.455	0.164944	0.194224	0.976	4.2105	2.958	-4.269	0	219	968	1
2026-02-11	16:17:10.170	-3.045	3.325	1.26	0.15738	0.18788	0.967216	4.2135	2.9655	-4.272	0	219	968	1
2026-02-11	16:17:10.190	-2.135	2.065	1.12	0.156404	0.192028	0.968924	4.2105	2.976	-4.2765	0	219	968	1
2026-02-11	16:17:10.210	-1.505	1.68	0.245	0.15982	0.19276	0.975268	4.2105	2.985	-4.2795	0	188	978	1
2026-02-11	16:17:10.230	-0.91	1.715	-1.015	0.160064	0.189588	0.979904	4.227	2.991	-4.2795	0	188	978	1
2026-02-11	16:17:10.250	-0.945	2.135	-1.645	0.156648	0.191052	0.987956	4.2465	2.991	-4.281	0	188	978	1
2026-02-11	16:17:10.270	-0.98	1.785	-2.065	0.16592	0.19032	0.990396	4.245	2.994	-4.2855	0	188	978	1
2026-02-11	16:17:10.290	-2.135	0.525	-1.575	0.162016	0.187392	0.991616	4.2315	2.994	-4.2855	0	188	978	1
2026-02-11	16:17:10.310	-3.01	-1.33	-1.54	0.163236	0.183488	0.98088	4.2255	2.9925	-4.281	0	188	978	1
2026-02-11	16:17:10.330	-1.925	-2.73	-2.345	0.166408	0.19764	0.971364	4.2345	2.9925	-4.2855	0	188	978	1
2026-02-11	16:17:10.350	-0.595	-2.485	-3.15	0.1647	0.200324	0.967948	4.227	2.9745	-4.2765	0	188	978	1
2026-02-11	16:17:10.370	0.28	-0.77	-2.975	0.1647	0.199348	0.970388	4.2165	2.967	-4.275	0	188	978	1
2026-02-11	16:17:10.390	0.28	0.98	-2.415	0.169824	0.191296	0.982344	4.2195	2.967	-4.2735	0	188	978	1
2026-02-11	16:17:10.410	-0.665	1.47	-1.855	0.169336	0.177388	0.992104	4.2195	2.9745	-4.2735	0	162	985	1
2026-02-11	16:17:10.430	-1.785	0.525	-1.89	0.170312	0.17934	0.988688	4.221	2.9685	-4.2705	0	162	985	1
2026-02-11	16:17:10.450	-3.08	-0.735	-1.75	0.168848	0.179828	0.984296	4.215	2.9775	-4.269	0	162	985	1
2026-02-11	16:17:10.470	-2.415	-2.45	-2.1	0.1708	0.177632	0.982832	4.2165	2.973	-4.2705	0	162	985	1
2026-02-11	16:17:10.490	-1.54	-1.995	-3.01	0.176656	0.193492	0.98332	4.2135	2.9685	-4.2675	0	162	985	1
2026-02-11	16:17:10.510	-1.575	-0.7	-2.345	0.173728	0.185928	0.98332	4.2135	2.9685	-4.2675	0	162	985	1
2026-02-11	16:17:10.530	-1.365	0.105	-1.68	0.166652	0.17324	0.975024	4.218	2.976	-4.275	0	162	985	1
2026-02-11	16:17:10.550	-1.05	0.14	-1.085	0.168116	0.174948	0.974048	4.2105	2.976	-4.2705	0	162	985	1
2026-02-11	16:17:10.570	-0.735	-0.105	-1.015	0.166652	0.180804	0.976976	4.218	2.9715	-4.2765	0	162	985	1
2026-02-11	16:17:10.590	-0.595	-0.28	-0.77	0.171288	0.188368	0.977708	4.2465	3.0015	-4.281	0	162	985	1
2026-02-11	16:17:10.610	-0.665	-0.28	-0.735	0.165676	0.184464	0.981612	4.2495	2.985	-4.2645	0	139	990	1
2026-02-11	16:17:10.630	-0.455	-0.105	-1.19	0.16226	0.183488	0.987468	4.257	2.976	-4.2765	0	139	990	1
2026-02-11	16:17:10.650	-0.35	0.07	-1.715	0.16104	0.183732	0.990152	4.248	2.988	-4.2735	0	139	990	1
2026-02-11	16:17:10.670	-0.07	-0.56	-2.1	0.15616	0.174216	0.987956	4.2495	2.9895	-4.2735	0	139	990	1
2026-02-11	16:17:10.690	0.07	-1.26	-2.205	0.152744	0.171532	0.98332	4.2315	2.991	-4.278	0	139	990	1
2026-02-11	16:17:10.710	0	-1.54	-2.52	0.157136	0.17568	0.98942	4.221	2.991	-4.278	0	139	990	1
2026-02-11	16:17:10.730	-0.315	-1.61	-2.905	0.162992	0.179828	0.986736	4.221	2.985	-4.272	0	139	990	1
2026-02-11	16:17:10.750	-0.315	-1.435	-3.185	0.160064	0.178608	0.985028	4.2105	2.979	-4.275	0	139	990	1
2026-02-11	16:17:10.770	0	-1.26	-3.465	0.164456	0.177388	0.984784	4.227	2.988	-4.2795	0	139	990	1
2026-02-11	16:17:10.790	0.07	-0.945	-3.605	0.164456	0.178608	0.984784	4.251	2.9925	-4.272	0	139	990	1
2026-02-11	16:17:10.810	0.035	-0.945	-3.675	0.171776	0.173484	0.986492	4.2465	2.9865	-4.269	0	120	993	1
2026-02-11	16:17:10.830	0.315	-1.4	-3.99	0.177144	0.175192	0.990884	4.2285	2.9895	-4.281	0	120	993	1
2026-02-11	16:17:10.850	-0.21	-0.7	-3.15	0.171776	0.17568	0.986248	4.2195	2.9895	-4.2885	0	120	993	1
2026-02-11	16:17:10.870	-0.21	-0.14	-2.555	0.171776	0.177144	0.984296	4.2195	2.9895	-4.2885	0	120	993	1
2026-02-11	16:17:10.890	-0.105	0.245	-2.24	0.17202	0.184464	0.979416	4.206	2.9655	-4.266	0	120	993	1
2026-02-11	16:17:10.910	0.035	0.805	-1.925	0.17446	0.184708	0.981612	4.2075	2.9745	-4.2675	0	120	993	1
2026-02-11	16:17:10.930	0.175	1.19	-1.925	0.163724	0.182024	0.976488	4.2	2.964	-4.2705	0	120	993	1
2026-02-11	16:17:10.950	0.14	1.365	-1.995	0.169824	0.184464	0.984784	4.2045	2.97	-4.266	0	120	993	1
2026-02-11	16:17:10.970	-0.735	1.61	-2.135	0.167628	0.193736	0.98454	4.2105	2.9715	-4.2675	0	120	993	1
2026-02-11	16:17:10.990	-2.52	2.31	-2.555	0.15738	0.193248	0.964044	4.2015	2.9625	-4.2675	0	120	993	1
2026-02-11	16:17:09.010	-2.24	-12.67	-46.025	0.210816	0.33062	0.952576	4.296	2.9715	-4.269	0	386	864	1
2026-02-11	16:17:09.030	2.59	-12.775	-47.005	0.236436	0.323544	0.965264	4.299	2.976	-4.272	0	386	864	1
2026-02-11	16:17:09.050	4.725	-13.335	-43.575	0.218868	0.305244	0.944036	4.302	2.9835	-4.272	0	386	864	1
2026-02-11	16:17:09.070	6.23	-13.37	-39.375	0.19764	0.273036	0.929396	4.3035	2.9895	-4.266	0	386	864	1
2026-02-11	16:17:09.090	6.475	-11.935	-37.94	0.182024	0.2501	0.921588	4.296	2.9895	-4.266	0	386	864	1
2026-02-11	16:17:09.110	6.51	-9.87	-38.57	0.165676	0.239364	0.935008	4.2885	2.9835	-4.266	0	386	864	1
2026-02-11	16:17:09.130	5.495	-7.63	-38.71	0.172508	0.239852	0.969168	4.2765	2.9775	-4.2645	0	386	864	1
2026-02-11	16:17:09.150	3.675	-6.44	-36.715	0.177876	0.246928	1.00406	4.2615	2.97	-4.266	0	386	864	1
2026-02-11	16:17:09.170	1.785	-6.895	-33.53	0.186416	0.256932	1.028704	4.2525	2.967	-4.2675	0	386	864	1
2026-02-11	16:17:09.190	0.385	-8.05	-29.085	0.199836	0.271084	1.03578	4.242	2.9625	-4.275	0	386	864	1
2026-02-11	16:17:09.210	-0.77	-8.785	-22.645	0.209596	0.272548	1.001376	4.239	2.958	-4.2795	0	361	896	1
2026-02-11	16:17:09.230	-0.315	-8.015	-19.67	0.200812	0.264496	0.966972	4.251	2.9595	-4.2705	0	361	896	1
2026-02-11	16:17:09.250	0.98	-6.055	-17.5	0.192272	0.250588	0.935496	4.266	2.967	-4.26	0	361	896	1
2026-02-11	16:17:09.270	2.59	-3.08	-16.065	0.19032	0.244244	0.9394	4.254	2.9715	-4.266	0	361	896	1
2026-02-11	16:17:09.290	4.025	-0.07	-16.485	0.203252	0.24644	0.969168	4.242	2.9685	-4.272	0	361	896	1
2026-02-11	16:17:09.310	4.375	1.96	-16.415	0.220332	0.24644	1.006744	4.2375	2.9625	-4.2735	0	361	896	1
2026-02-11	16:17:09.330	3.325	3.01	-15.54	0.227164	0.233508	1.030412	4.2225	2.958	-4.2765	0	361	896	1
2026-02-11	16:17:09.350	1.365	2.415	-14.525	0.231556	0.221064	1.037244	4.215	2.955	-4.2735	0	361	896	1
2026-02-11	16:17:09.370	-1.575	0.91	-13.265	0.216428	0.201056	1.016748	4.212	2.952	-4.2645	0	361	896	1
2026-02-11	16:17:09.390	-5.005	-1.575	-11.06	0.19642	0.202276	0.977708	4.2105	2.9505	-4.26	0	361	896	1
2026-02-11	16:17:09.410	-6.265	-2.03	-9.835	0.189344	0.213988	0.959896	4.215	2.9505	-4.269	0	327	921	1
2026-02-11	16:17:09.430	-6.825	-0.91	-7.385	0.178852	0.232044	0.953796	4.206	2.9445	-4.263	0	327	921	1
2026-02-11	16:17:09.450	-6.195	1.26	-5.425	0.179096	0.247172	0.948184	4.2045	2.9505	-4.269	0	327	921	1
2026-02-11	16:17:09.470	-4.41	3.71	-4.13	0.173972	0.245464	0.940376	4.206	2.949	-4.2705	0	327	921	1
2026-02-11	16:17:09.490	-2.24	5.985	-3.85	0.168848	0.233752	0.936472	4.2	2.946	-4.2645	0	327	921	1
2026-02-11	16:17:09.510	-0.28	7.455	-4.165	0.162748	0.223992	0.935008	4.209	2.958	-4.2645	0	327	921	1
2026-02-11	16:17:09.530	1.47	7.945	-4.935	0.1647	0.2196	0.950868	4.2165	2.9505	-4.2645	0	327	921	1
2026-02-11	16:17:09.550	2.135	7.525	-5.74	0.180316	0.226432	0.980636	4.2225	2.9595	-4.2705	0	327	921	1
2026-02-11	16:17:09.570	0.98	4.76	-5.67	0.181536	0.221308	0.998936	4.23	2.9505	-4.2735	0	327	921	1
2026-02-11	16:17:09.590	-0.35	2.45	-5.18	0.177876	0.21106	1.00528	4.227	2.958	-4.2705	0	327	921	1
2026-02-11	16:17:09.610	-1.82	0.07	-4.9	0.171776	0.203984	0.998204	4.2225	2.9595	-4.272	0	290	941	1
2026-02-11	16:17:09.630	-2.975	-1.89	-4.76	0.177144	0.211304	1.005768	4.2195	2.9565	-4.2735	0	290	941	1
2026-02-11	16:17:09.650	-4.515	-2.765	-4.515	0.183732	0.2074	0.981368	4.2165	2.9625	-4.272	0	290	941	1
2026-02-11	16:17:09.670	-4.69	-3.92	-4.305	0.185684	0.201788	0.970876	4.2165	2.961	-4.272	0	290	941	1
2026-02-11	16:17:09.690	-3.605	-4.935	-4.095	0.187392	0.207156	0.965508	4.221	2.9595	-4.2735	0	290	941	1
2026-02-11	16:17:09.710	-2.66	-4.865	-3.29	0.19642	0.209596	0.964532	4.218	2.961	-4.272	0	290	941	1
2026-02-11	16:17:09.730	-2.065	-3.955	-1.995	0.202764	0.212524	0.970388	4.215	2.9595	-4.2705	0	290	941	1
2026-02-11	16:17:09.750	-1.015	-2.24	-0.455	0.196908	0.202764	0.9699	4.2195	2.9595	-4.2735	0	290	941	1
2026-02-11	16:17:09.770	-0.105	-0.105	0.84	0.184708	0.194712	0.964288	4.2195	2.9595	-4.2735	0	290	941	1
2026-02-11	16:17:09.790	0.455	1.645	1.715	0.177388	0.190564	0.9638	4.2105	2.9595	-4.2675	0	290	941	1
2026-02-11	16:17:09.810	1.085	2.835	2.485	0.17446	0.196176	0.976732	4.212	2.9595	-4.266	0	253	956	1
2026-02-11	16:17:09.830	1.505	3.395	3.01	0.174704	0.195688	0.992348	4.1985	2.9595	-4.2645	0	253	956	1
2026-02-11	16:17:09.850	1.225	3.43	2.975	0.172752	0.195444	0.99918	4.209	2.9535	-4.266	0	253	956	1
2026-02-11	16:17:09.870	0.63	3.29	2.87	0.162992	0.195688	0.996984	4.209	2.955	-4.266	0	253	956	1
2026-02-11	16:17:09.890	0.175	2.835	2.45	0.163724	0.20252	1.001376	4.2105	2.955	-4.2675	0	253	956	1
2026-02-11	16:17:09.910	-1.05	2.45	2.52	0.165676	0.210084	0.993812	4.215	2.9565	-4.2675	0	253	956	1
2026-02-11	16:17:09.930	-2.17	1.47	2.765	0.161772	0.208864	0.981856	4.218	2.9565	-4.266	0	253	956	1
2026-02-11	16:17:09.950	-1.435	0.49	1.75	0.16104	0.214476	0.97478	4.218	2.9565	-4.266	0	253	956	1
2026-02-11	16:17:09.970	-1.085	0.98	0.49	0.161528	0.215208	0.975756	4.206	2.97	-4.275	0	253	956	1
2026-02-11	16:17:09.990	-1.61	2.31	-0.56	0.164212	0.215452	0.980148	4.212	2.958	-4.263	0	253	956	1
2026-02-11	16:17:10.010	-2.275	3.43	-1.12	0.164944	0.2196	0.986492	4.2105	2.9625	-4.272	0	219	968	1
2026-02-11	16:17:10.030	-3.08	3.78	-0.7	0.165188	0.213012	0.99796	4.2165	2.9625	-4.266	0	219	968	1
2026-02-11	16:17:10.050	-4.69	3.5	-0.245	0.173972	0.19154	0.992104	4.2135	2.9655	-4.2705	0	219	968	1
2026-02-11	16:17:10.070	-5.635	2.555	-0.245	0.173484	0.180316	0.989908	4.218	2.967	-4.278	0	219	968	1
2026-02-11	16:17:10.090	-4.445	1.19	-1.645	0.174948	0.18544	0.980636	4.209	2.9685	-4.272	0	219	968	1
2026-02-11	16:17:10.110	-3.29	1.75	-2.135	0.176656	0.20374	0.98088	4.2045	2.9745	-4.2765	0	219	968	1
2026-02-11	16:17:10.130	-3.395	3.745	-0.945	0.171532	0.20252	0.979416	4.206	2.9655	-4.2705	0	219	968	1
2026-02-11	16:17:10.150	-3.71	4.41	0.455	0.164944	0.194224	0.976	4.2105	2.958	-4.269	0	219	968	1
2026-02-11	16:17:10.170	-3.045	3.325	1.26	0.15738	0.18788	0.967216	4.2135	2.9655	-4.272	0	219	968	1
2026-02-11	16:17:10.190	-2.135	2.065	1.12	0.156404	0.192028	0.968924	4.2105	2.976	-4.2765	0	219	968	1
2026-02-11	16:17:10.210	-1.505	1.68	0.245	0.15982	0.19276	0.975268	4.2105	2.985	-4.2795	0	188	978	1
2026-02-11	16:17:10.230	-0.91	1.715	-1.015	0.160064	0.189588	0.979904	4.227	2.991	-4.2795	0	188	978	1
2026-02-11	16:17:10.250	-0.945	2.135	-1.645	0.156648	0.191052	0.987956	4.2465	2.991	-4.281	0	188	978	1
2026-02-11	16:17:10.270	-0.98	1.785	-2.065	0.16592	0.19032	0.990396	4.245	2.994	-4.2855	0	188	978	1
2026-02-11	16:17:10.290	-2.135	0.525	-1.575	0.162016	0.187392	0.991616	4.2315	2.994	-4.2855	0	188	978	1
2026-02-11	16:17:10.310	-3.01	-1.33	-1.54	0.163236	0.183488	0.98088	4.2255	2.9925	-4.281	0	188	978	1
2026-02-11	16:17:10.330	-1.925	-2.73	-2.345	0.166408	0.19764	0.971364	4.2345	2.9925	-4.2855	0	188	978	1
2026-02-11	16:17:10.350	-0.595	-2.485	-3.15	0.1647	0.200324	0.967948	4.227	2.9745	-4.2765	0	188	978	1
2026-02-11	16:17:10.370	0.28	-0.77	-2.975	0.1647	0.199348	0.970388	4.2165	2.967	-4.275	0	188	978	1
2026-02-11	16:17:10.390	0.28	0.98	-2.415	0.169824	0.191296	0.982344	4.2195	2.967	-4.2735	0	188	978	1
2026-02-11	16:17:10.410	-0.665	1.47	-1.855	0.169336	0.177388	0.992104	4.2195	2.9745	-4.2735	0	162	985	1
2026-02-11	16:17:10.430	-1.785	0.525	-1.89	0.170312	0.17934	0.988688	4.221	2.9685	-4.2705	0	162	985	1
2026-02-11	16:17:10.450	-3.08	-0.735	-1.75	0.168848	0.179828	0.984296	4.215	2.9775	-4.269	0	162	985	1
2026-02-11	16:17:10.470	-2.415	-2.45	-2.1	0.1708	0.177632	0.982832	4.2165	2.973	-4.2705	0	162	985	1
2026-02-11	16:17:10.490	-1.54	-1.995	-3.01	0.176656	0.193492	0.98332	4.2135	2.9685	-4.2675	0	162	985	1
2026-02-11	16:17:10.510	-1.575	-0.7	-2.345	0.173728	0.185928	0.98332	4.2135	2.9685	-4.2675	0	162	985	1
2026-02-11	16:17:10.530	-1.365	0.105	-1.68	0.166652	0.17324	0.975024	4.218	2.976	-4.275	0	162	985	1
2026-02-11	16:17:10.550	-1.05	0.14	-1.085	0.168116	0.174948	0.974048	4.2105	2.976	-4.2705	0	162	985	1
2026-02-11	16:17:10.570	-0.735	-0.105	-1.015	0.166652	0.180804	0.976976	4.218	2.9715	-4.2765	0	162	985	1
2026-02-11	16:17:10.590	-0.595	-0.28	-0.77	0.171288	0.188368	0.977708	4.2465	3.0015	-4.281	0	162	985	1
2026-02-11	16:17:10.610	-0.665	-0.28	-0.735	0.165676	0.184464	0.981612	4.2495	2.985	-4.2645	0	139	990	1
2026-02-11	16:17:10.630	-0.455	-0.105	-1.19	0.16226	0.183488	0.987468	4.257	2.976	-4.2765	0	139	990	1
2026-02-11	16:17:10.650	-0.35	0.07	-1.715	0.16104	0.183732	0.990152	4.248	2.988	-4.2735	0	139	990	1
2026-02-11	16:17:10.670	-0.07	-0.56	-2.1	0.15616	0.174216	0.987956	4.2495	2.9895	-4.2735	0	139	990	1
2026-02-11	16:17:10.690	0.07	-1.26	-2.205	0.152744	0.171532	0.98332	4.2315	2.991	-4.278	0	139	990	1
2026-02-11	16:17:10.710	0	-1.54	-2.52	0.157136	0.17568	0.98942	4.221	2.991	-4.278	0	139	990	1
2026-02-11	16:17:10.730	-0.315	-1.61	-2.905	0.162992	0.179828	0.986736	4.221	2.985	-4.272	0	139	990	1
2026-02-11	16:17:10.750	-0.315	-1.435	-3.185	0.160064	0.178608	0.985028	4.2105	2.979	-4.275	0	139	990	1
2026-02-11	16:17:10.770	0	-1.26	-3.465	0.164456	0.177388	0.984784	4.227	2.988	-4.2795	0	139	990	1
2026-02-11	16:17:10.790	0.07	-0.945	-3.605	0.164456	0.178608	0.984784	4.251	2.9925	-4.272	0	139	990	1
2026-02-11	16:17:10.810	0.035	-0.945	-3.675	0.171776	0.173484	0.986492	4.2465	2.9865	-4.269	0	120	993	1
2026-02-11	16:17:10.830	0.315	-1.4	-3.99	0.177144	0.175192	0.990884	4.2285	2.9895	-4.281	0	120	993	1
2026-02-11	16:17:10.850	-0.21	-0.7	-3.15	0.171776	0.17568	0.986248	4.2195	2.9895	-4.2885	0	120	993	1
2026-02-11	16:17:10.870	-0.21	-0.14	-2.555	0.171776	0.177144	0.984296	4.2195	2.9895	-4.2885	0	120	993	1
2026-02-11	16:17:10.890	-0.105	0.245	-2.24	0.17202	0.184464	0.979416	4.206	2.9655	-4.266	0	120	993	1
2026-02-11	16:17:10.910	0.035	0.805	-1.925	0.17446	0.184708	0.981612	4.2075	2.9745	-4.2675	0	120	993	1
2026-02-11	16:17:10.930	0.175	1.19	-1.925	0.163724	0.182024	0.976488	4.2	2.964	-4.2705	0	120	993	1
2026-02-11	16:17:10.950	0.14	1.365	-1.995	0.169824	0.184464	0.984784	4.2045	2.97	-4.266	0	120	993	1
2026-02-11	16:17:10.970	-0.735	1.61	-2.135	0.167628	0.193736	0.98454	4.2105	2.9715	-4.2675	0	120	993	1
2026-02-11	16:17:10.990	-2.52	2.31	-2.555	0.15738	0.193248	0.964044	4.2015	2.9625	-4.2675	0	120	993	1
2026-02-11	16:17:09.010	-2.24	-12.67	-46.025	0.210816	0.33062	0.952576	4.296	2.9715	-4.269	0	386	864	1
2026-02-11	16:17:09.030	2.59	-12.775	-47.005	0.236436	0.323544	0.965264	4.299	2.976	-4.272	0	386	864	1
2026-02-11	16:17:09.050	4.725	-13.335	-43.575	0.218868	0.305244	0.944036	4.302	2.9835	-4.272	0	386	864	1
2026-02-11	16:17:09.070	6.23	-13.37	-39.375	0.19764	0.273036	0.929396	4.3035	2.9895	-4.266	0	386	864	1
2026-02-11	16:17:09.090	6.475	-11.935	-37.94	0.182024	0.2501	0.921588	4.296	2.9895	-4.266	0	386	864	1
2026-02-11	16:17:09.110	6.51	-9.87	-38.57	0.165676	0.239364	0.935008	4.2885	2.9835	-4.266	0	386	864	1
2026-02-11	16:17:09.130	5.495	-7.63	-38.71	0.172508	0.239852	0.969168	4.2765	2.9775	-4.2645	0	386	864	1
2026-02-11	16:17:09.150	3.675	-6.44	-36.715	0.177876	0.246928	1.00406	4.2615	2.97	-4.266	0	386	864	1
2026-02-11	16:17:09.170	1.785	-6.895	-33.53	0.186416	0.256932	1.028704	4.2525	2.967	-4.2675	0	386	864	1
2026-02-11	16:17:09.190	0.385	-8.05	-29.085	0.199836	0.271084	1.03578	4.242	2.9625	-4.275	0	386	864	1
2026-02-11	16:17:09.210	-0.77	-8.785	-22.645	0.209596	0.272548	1.001376	4.239	2.958	-4.2795	0	361	896	1
2026-02-11	16:17:09.230	-0.315	-8.015	-19.67	0.200812	0.264496	0.966972	4.251	2.9595	-4.2705	0	361	896	1
2026-02-11	16:17:09.250	0.98	-6.055	-17.5	0.192272	0.250588	0.935496	4.266	2.967	-4.26	0	361	896	1
2026-02-11	16:17:09.270	2.59	-3.08	-16.065	0.19032	0.244244	0.9394	4.254	2.9715	-4.266	0	361	896	1
2026-02-11	16:17:09.290	4.025	-0.07	-16.485	0.203252	0.24644	0.969168	4.242	2.9685	-4.272	0	361	896	1
2026-02-11	16:17:09.310	4.375	1.96	-16.415	0.220332	0.24644	1.006744	4.2375	2.9625	-4.2735	0	361	896	1
2026-02-11	16:17:09.330	3.325	3.01	-15.54	0.227164	0.233508	1.030412	4.2225	2.958	-4.2765	0	361	896	1
2026-02-11	16:17:09.350	1.365	2.415	-14.525	0.231556	0.221064	1.037244	4.215	2.955	-4.2735	0	361	896	1
2026-02-11	16:17:09.370	-1.575	0.91	-13.265	0.216428	0.201056	1.016748	4.212	2.952	-4.2645	0	361	896	1
2026-02-11	16:17:09.390	-5.005	-1.575	-11.06	0.19642	0.202276	0.977708	4.2105	2.9505	-4.26	0	361	896	1
2026-02-11	16:17:09.410	-6.265	-2.03	-9.835	0.189344	0.213988	0.959896	4.215	2.9505	-4.269	0	327	921	1
2026-02-11	16:17:09.430	-6.825	-0.91	-7.385	0.178852	0.232044	0.953796	4.206	2.9445	-4.263	0	327	921	1
2026-02-11	16:17:09.450	-6.195	1.26	-5.425	0.179096	0.247172	0.948184	4.2045	2.9505	-4.269	0	327	921	1
2026-02-11	16:17:09.470	-4.41	3.71	-4.13	0.173972	0.245464	0.940376	4.206	2.949	-4.2705	0	327	921	1
2026-02-11	16:17:09.490	-2.24	5.985	-3.85	0.168848	0.233752	0.936472	4.2	2.946	-4.2645	0	327	921	1
2026-02-11	16:17:09.510	-0.28	7.455	-4.165	0.162748	0.223992	0.935008	4.209	2.958	-4.2645	0	327	921	1
2026-02-11	16:17:09.530	1.47	7.945	-4.935	0.1647	0.2196	0.950868	4.2165	2.9505	-4.2645	0	327	921	1
2026-02-11	16:17:09.550	2.135	7.525	-5.74	0.180316	0.226432	0.980636	4.2225	2.9595	-4.2705	0	327	921	1
2026-02-11	16:17:09.570	0.98	4.76	-5.67	0.181536	0.221308	0.998936	4.23	2.9505	-4.2735	0	327	921	1
2026-02-11	16:17:09.590	-0.35	2.45	-5.18	0.177876	0.21106	1.00528	4.227	2.958	-4.2705	0	327	921	1
2026-02-11	16:17:09.610	-1.82	0.07	-4.9	0.171776	0.203984	0.998204	4.2225	2.9595	-4.272	0	290	941	1
2026-02-11	16:17:09.630	-2.975	-1.89	-4.76	0.177144	0.211304	1.005768	4.2195	2.9565	-4.2735	0	290	941	1
2026-02-11	16:17:09.650	-4.515	-2.765	-4.515	0.183732	0.2074	0.981368	4.2165	2.9625	-4.272	0	290	941	1
2026-02-11	16:17:09.670	-4.69	-3.92	-4.305	0.185684	0.201788	0.970876	4.2165	2.961	-4.272	0	290	941	1
2026-02-11	16:17:09.690	-3.605	-4.935	-4.095	0.187392	0.207156	0.965508	4.221	2.9595	-4.2735	0	290	941	1
2026-02-11	16:17:09.710	-2.66	-4.865	-3.29	0.19642	0.209596	0.964532	4.218	2.961	-4.272	0	290	941	1
2026-02-11	16:17:09.730	-2.065	-3.955	-1.995	0.202764	0.212524	0.970388	4.215	2.9595	-4.2705	0	290	941	1
2026-02-11	16:17:09.750	-1.015	-2.24	-0.455	0.196908	0.202764	0.9699	4.2195	2.9595	-4.2735	0	290	941	1
2026-02-11	16:17:09.770	-0.105	-0.105	0.84	0.184708	0.194712	0.964288	4.2195	2.9595	-4.2735	0	290	941	1
2026-02-11	16:17:09.790	0.455	1.645	1.715	0.177388	0.190564	0.9638	4.2105	2.9595	-4.2675	0	290	941	1
2026-02-11	16:17:09.810	1.085	2.835	2.485	0.17446	0.196176	0.976732	4.212	2.9595	-4.266	0	253	956	1
2026-02-11	16:17:09.830	1.505	3.395	3.01	0.174704	0.195688	0.992348	4.1985	2.9595	-4.2645	0	253	956	1
2026-02-11	16:17:09.850	1.225	3.43	2.975	0.172752	0.195444	0.99918	4.209	2.9535	-4.266	0	253	956	1
2026-02-11	16:17:09.870	0.63	3.29	2.87	0.162992	0.195688	0.996984	4.209	2.955	-4.266	0	253	956	1
2026-02-11	16:17:09.890	0.175	2.835	2.45	0.163724	0.20252	1.001376	4.2105	2.955	-4.2675	0	253	956	1
2026-02-11	16:17:09.910	-1.05	2.45	2.52	0.165676	0.210084	0.993812	4.215	2.9565	-4.2675	0	253	956	1
2026-02-11	16:17:09.930	-2.17	1.47	2.765	0.161772	0.208864	0.981856	4.218	2.9565	-4.266	0	253	956	1
2026-02-11	16:17:09.950	-1.435	0.49	1.75	0.16104	0.214476	0.97478	4.218	2.9565	-4.266	0	253	956	1
2026-02-11	16:17:09.970	-1.085	0.98	0.49	0.161528	0.215208	0.975756	4.206	2.97	-4.275	0	253	956	1
2026-02-11	16:17:09.990	-1.61	2.31	-0.56	0.164212	0.215452	0.980148	4.212	2.958	-4.263	0	253	956	1
2026-02-11	16:17:10.010	-2.275	3.43	-1.12	0.164944	0.2196	0.986492	4.2105	2.9625	-4.272	0	219	968	1
2026-02-11	16:17:10.030	-3.08	3.78	-0.7	0.165188	0.213012	0.99796	4.2165	2.9625	-4.266	0	219	968	1
2026-02-11	16:17:10.050	-4.69	3.5	-0.245	0.173972	0.19154	0.992104	4.2135	2.9655	-4.2705	0	219	968	1
2026-02-11	16:17:10.070	-5.635	2.555	-0.245	0.173484	0.180316	0.989908	4.218	2.967	-4.278	0	219	968	1
2026-02-11	16:17:10.090	-4.445	1.19	-1.645	0.174948	0.18544	0.980636	4.209	2.9685	-4.272	0	219	968	1
2026-02-11	16:17:10.110	-3.29	1.75	-2.135	0.176656	0.20374	0.98088	4.2045	2.9745	-4.2765	0	219	968	1
2026-02-11	16:17:10.130	-3.395	3.745	-0.945	0.171532	0.20252	0.979416	4.206	2.9655	-4.2705	0	219	968	1
2026-02-11	16:17:10.150	-3.71	4.41	0.455	0.164944	0.194224	0.976	4.2105	2.958	-4.269	0	219	968	1
2026-02-11	16:17:10.170	-3.045	3.325	1.26	0.15738	0.18788	0.967216	4.2135	2.9655	-4.272	0	219	968	1
2026-02-11	16:17:10.190	-2.135	2.065	1.12	0.156404	0.192028	0.968924	4.2105	2.976	-4.2765	0	219	968	1
2026-02-11	16:17:10.210	-1.505	1.68	0.245	0.15982	0.19276	0.975268	4.2105	2.985	-4.2795	0	188	978	1
2026-02-11	16:17:10.230	-0.91	1.715	-1.015	0.160064	0.189588	0.979904	4.227	2.991	-4.2795	0	188	978	1
2026-02-11	16:17:10.250	-0.945	2.135	-1.645	0.156648	0.191052	0.987956	4.2465	2.991	-4.281	0	188	978	1
2026-02-11	16:17:10.270	-0.98	1.785	-2.065	0.16592	0.19032	0.990396	4.245	2.994	-4.2855	0	188	978	1
2026-02-11	16:17:10.290	-2.135	0.525	-1.575	0.162016	0.187392	0.991616	4.2315	2.994	-4.2855	0	188	978	1
2026-02-11	16:17:10.310	-3.01	-1.33	-1.54	0.163236	0.183488	0.98088	4.2255	2.9925	-4.281	0	188	978	1
2026-02-11	16:17:10.330	-1.925	-2.73	-2.345	0.166408	0.19764	0.971364	4.2345	2.9925	-4.2855	0	188	978	1
2026-02-11	16:17:10.350	-0.595	-2.485	-3.15	0.1647	0.200324	0.967948	4.227	2.9745	-4.2765	0	188	978	1
2026-02-11	16:17:10.370	0.28	-0.77	-2.975	0.1647	0.199348	0.970388	4.2165	2.967	-4.275	0	188	978	1
2026-02-11	16:17:10.390	0.28	0.98	-2.415	0.169824	0.191296	0.982344	4.2195	2.967	-4.2735	0	188	978	1
2026-02-11	16:17:10.410	-0.665	1.47	-1.855	0.169336	0.177388	0.992104	4.2195	2.9745	-4.2735	0	162	985	1
2026-02-11	16:17:10.430	-1.785	0.525	-1.89	0.170312	0.17934	0.988688	4.221	2.9685	-4.2705	0	162	985	1
2026-02-11	16:17:10.450	-3.08	-0.735	-1.75	0.168848	0.179828	0.984296	4.215	2.9775	-4.269	0	162	985	1
2026-02-11	16:17:10.470	-2.415	-2.45	-2.1	0.1708	0.177632	0.982832	4.2165	2.973	-4.2705	0	162	985	1
2026-02-11	16:17:10.490	-1.54	-1.995	-3.01	0.176656	0.193492	0.98332	4.2135	2.9685	-4.2675	0	162	985	1
2026-02-11	16:17:10.510	-1.575	-0.7	-2.345	0.173728	0.185928	0.98332	4.2135	2.9685	-4.2675	0	162	985	1
2026-02-11	16:17:10.530	-1.365	0.105	-1.68	0.166652	0.17324	0.975024	4.218	2.976	-4.275	0	162	985	1
2026-02-11	16:17:10.550	-1.05	0.14	-1.085	0.168116	0.174948	0.974048	4.2105	2.976	-4.2705	0	162	985	1
2026-02-11	16:17:10.570	-0.735	-0.105	-1.015	0.166652	0.180804	0.976976	4.218	2.9715	-4.2765	0	162	985	1
2026-02-11	16:17:10.590	-0.595	-0.28	-0.77	0.171288	0.188368	0.977708	4.2465	3.0015	-4.281	0	162	985	1
2026-02-11	16:17:10.610	-0.665	-0.28	-0.735	0.165676	0.184464	0.981612	4.2495	2.985	-4.2645	0	139	990	1
2026-02-11	16:17:10.630	-0.455	-0.105	-1.19	0.16226	0.183488	0.987468	4.257	2.976	-4.2765	0	139	990	1
2026-02-11	16:17:10.650	-0.35	0.07	-1.715	0.16104	0.183732	0.990152	4.248	2.988	-4.2735	0	139	990	1
2026-02-11	16:17:10.670	-0.07	-0.56	-2.1	0.15616	0.174216	0.987956	4.2495	2.9895	-4.2735	0	139	990	1
2026-02-11	16:17:10.690	0.07	-1.26	-2.205	0.152744	0.171532	0.98332	4.2315	2.991	-4.278	0	139	990	1
2026-02-11	16:17:10.710	0	-1.54	-2.52	0.157136	0.17568	0.98942	4.221	2.991	-4.278	0	139	990	1
2026-02-11	16:17:10.730	-0.315	-1.61	-2.905	0.162992	0.179828	0.986736	4.221	2.985	-4.272	0	139	990	1
2026-02-11	16:17:10.750	-0.315	-1.435	-3.185	0.160064	0.178608	0.985028	4.2105	2.979	-4.275	0	139	990	1
2026-02-11	16:17:10.770	0	-1.26	-3.465	0.164456	0.177388	0.984784	4.227	2.988	-4.2795	0	139	990	1
2026-02-11	16:17:10.790	0.07	-0.945	-3.605	0.164456	0.178608	0.984784	4.251	2.9925	-4.272	0	139	990	1
2026-02-11	16:17:10.810	0.035	-0.945	-3.675	0.171776	0.173484	0.986492	4.2465	2.9865	-4.269	0	120	993	1
2026-02-11	16:17:10.830	0.315	-1.4	-3.99	0.177144	0.175192	0.990884	4.2285	2.9895	-4.281	0	120	993	1
2026-02-11	16:17:10.850	-0.21	-0.7	-3.15	0.171776	0.17568	0.986248	4.2195	2.9895	-4.2885	0	120	993	1
2026-02-11	16:17:10.870	-0.21	-0.14	-2.555	0.171776	0.177144	0.984296	4.2195	2.9895	-4.2885	0	120	993	1
2026-02-11	16:17:10.890	-0.105	0.245	-2.24	0.17202	0.184464	0.979416	4.206	2.9655	-4.266	0	120	993	1
2026-02-11	16:17:10.910	0.035	0.805	-1.925	0.17446	0.184708	0.981612	4.2075	2.9745	-4.2675	0	120	993	1
2026-02-11	16:17:10.930	0.175	1.19	-1.925	0.163724	0.182024	0.976488	4.2	2.964	-4.2705	0	120	993	1
2026-02-11	16:17:10.950	0.14	1.365	-1.995	0.169824	0.184464	0.984784	4.2045	2.97	-4.266	0	120	993	1
2026-02-11	16:17:10.970	-0.735	1.61	-2.135	0.167628	0.193736	0.98454	4.2105	2.9715	-4.2675	0	120	993	1
2026-02-11	16:17:10.990	-2.52	2.31	-2.555	0.15738	0.193248	0.964044	4.2015	2.9625	-4.2675	0	120	993	1
2026-02-11	16:17:09.010	-2.24	-12.67	-46.025	0.210816	0.33062	0.952576	4.296	2.9715	-4.269	0	386	864	1
2026-02-11	16:17:09.030	2.59	-12.775	-47.005	0.236436	0.323544	0.965264	4.299	2.976	-4.272	0	386	864	1
2026-02-11	16:17:09.050	4.725	-13.335	-43.575	0.218868	0.305244	0.944036	4.302	2.9835	-4.272	0	386	864	1
2026-02-11	16:17:09.070	6.23	-13.37	-39.375	0.19764	0.273036	0.929396	4.3035	2.9895	-4.266	0	386	864	1
2026-02-11	16:17:09.090	6.475	-11.935	-37.94	0.182024	0.2501	0.921588	4.296	2.9895	-4.266	0	386	864	1
2026-02-11	16:17:09.110	6.51	-9.87	-38.57	0.165676	0.239364	0.935008	4.2885	2.9835	-4.266	0	386	864	1
2026-02-11	16:17:09.130	5.495	-7.63	-38.71	0.172508	0.239852	0.969168	4.2765	2.9775	-4.2645	0	386	864	1
2026-02-11	16:17:09.150	3.675	-6.44	-36.715	0.177876	0.246928	1.00406	4.2615	2.97	-4.266	0	386	864	1
2026-02-11	16:17:09.170	1.785	-6.895	-33.53	0.186416	0.256932	1.028704	4.2525	2.967	-4.2675	0	386	864	1
2026-02-11	16:17:09.190	0.385	-8.05	-29.085	0.199836	0.271084	1.03578	4.242	2.9625	-4.275	0	386	864	1
2026-02-11	16:17:09.210	-0.77	-8.785	-22.645	0.209596	0.272548	1.001376	4.239	2.958	-4.2795	0	361	896	1
2026-02-11	16:17:09.230	-0.315	-8.015	-19.67	0.200812	0.264496	0.966972	4.251	2.9595	-4.2705	0	361	896	1
2026-02-11	16:17:09.250	0.98	-6.055	-17.5	0.192272	0.250588	0.935496	4.266	2.967	-4.26	0	361	896	1
2026-02-11	16:17:09.270	2.59	-3.08	-16.065	0.19032	0.244244	0.9394	4.254	2.9715	-4.266	0	361	896	1
2026-02-11	16:17:09.290	4.025	-0.07	-16.485	0.203252	0.24644	0.969168	4.242	2.9685	-4.272	0	361	896	1
2026-02-11	16:17:09.310	4.375	1.96	-16.415	0.220332	0.24644	1.006744	4.2375	2.9625	-4.2735	0	361	896	1
2026-02-11	16:17:09.330	3.325	3.01	-15.54	0.227164	0.233508	1.030412	4.2225	2.958	-4.2765	0	361	896	1
2026-02-11	16:17:09.350	1.365	2.415	-14.525	0.231556	0.221064	1.037244	4.215	2.955	-4.2735	0	361	896	1
2026-02-11	16:17:09.370	-1.575	0.91	-13.265	0.216428	0.201056	1.016748	4.212	2.952	-4.2645	0	361	896	1
2026-02-11	16:17:09.390	-5.005	-1.575	-11.06	0.19642	0.202276	0.977708	4.2105	2.9505	-4.26	0	361	896	1
2026-02-11	16:17:09.410	-6.265	-2.03	-9.835	0.189344	0.213988	0.959896	4.215	2.9505	-4.269	0	327	921	1
2026-02-11	16:17:09.430	-6.825	-0.91	-7.385	0.178852	0.232044	0.953796	4.206	2.9445	-4.263	0	327	921	1
2026-02-11	16:17:09.450	-6.195	1.26	-5.425	0.179096	0.247172	0.948184	4.2045	2.9505	-4.269	0	327	921	1
2026-02-11	16:17:09.470	-4.41	3.71	-4.13	0.173972	0.245464	0.940376	4.206	2.949	-4.2705	0	327	921	1
2026-02-11	16:17:09.490	-2.24	5.985	-3.85	0.168848	0.233752	0.936472	4.2	2.946	-4.2645	0	327	921	1
2026-02-11	16:17:09.510	-0.28	7.455	-4.165	0.162748	0.223992	0.935008	4.209	2.958	-4.2645	0	327	921	1
2026-02-11	16:17:09.530	1.47	7.945	-4.935	0.1647	0.2196	0.950868	4.2165	2.9505	-4.2645	0	327	921	1
2026-02-11	16:17:09.550	2.135	7.525	-5.74	0.180316	0.226432	0.980636	4.2225	2.9595	-4.2705	0	327	921	1
2026-02-11	16:17:09.570	0.98	4.76	-5.67	0.181536	0.221308	0.998936	4.23	2.9505	-4.2735	0	327	921	1
2026-02-11	16:17:09.590	-0.35	2.45	-5.18	0.177876	0.21106	1.00528	4.227	2.958	-4.2705	0	327	921	1
2026-02-11	16:17:09.610	-1.82	0.07	-4.9	0.171776	0.203984	0.998204	4.2225	2.9595	-4.272	0	290	941	1
2026-02-11	16:17:09.630	-2.975	-1.89	-4.76	0.177144	0.211304	1.005768	4.2195	2.9565	-4.2735	0	290	941	1
2026-02-11	16:17:09.650	-4.515	-2.765	-4.515	0.183732	0.2074	0.981368	4.2165	2.9625	-4.272	0	290	941	1
2026-02-11	16:17:09.670	-4.69	-3.92	-4.305	0.185684	0.201788	0.970876	4.2165	2.961	-4.272	0	290	941	1
2026-02-11	16:17:09.690	-3.605	-4.935	-4.095	0.187392	0.207156	0.965508	4.221	2.9595	-4.2735	0	290	941	1
2026-02-11	16:17:09.710	-2.66	-4.865	-3.29	0.19642	0.209596	0.964532	4.218	2.961	-4.272	0	290	941	1
2026-02-11	16:17:09.730	-2.065	-3.955	-1.995	0.202764	0.212524	0.970388	4.215	2.9595	-4.2705	0	290	941	1
2026-02-11	16:17:09.750	-1.015	-2.24	-0.455	0.196908	0.202764	0.9699	4.2195	2.9595	-4.2735	0	290	941	1
2026-02-11	16:17:09.770	-0.105	-0.105	0.84	0.184708	0.194712	0.964288	4.2195	2.9595	-4.2735	0	290	941	1
2026-02-11	16:17:09.790	0.455	1.645	1.715	0.177388	0.190564	0.9638	4.2105	2.9595	-4.2675	0	290	941	1
2026-02-11	16:17:09.810	1.085	2.835	2.485	0.17446	0.196176	0.976732	4.212	2.9595	-4.266	0	253	956	1
2026-02-11	16:17:09.830	1.505	3.395	3.01	0.174704	0.195688	0.992348	4.1985	2.9595	-4.2645	0	253	956	1
2026-02-11	16:17:09.850	1.225	3.43	2.975	0.172752	0.195444	0.99918	4.209	2.9535	-4.266	0	253	956	1
2026-02-11	16:17:09.870	0.63	3.29	2.87	0.162992	0.195688	0.996984	4.209	2.955	-4.266	0	253	956	1
2026-02-11	16:17:09.890	0.175	2.835	2.45	0.163724	0.20252	1.001376	4.2105	2.955	-4.2675	0	253	956	1
2026-02-11	16:17:09.910	-1.05	2.45	2.52	0.165676	0.210084	0.993812	4.215	2.9565	-4.2675	0	253	956	1
2026-02-11	16:17:09.930	-2.17	1.47	2.765	0.161772	0.208864	0.981856	4.218	2.9565	-4.266	0	253	956	1
2026-02-11	16:17:09.950	-1.435	0.49	1.75	0.16104	0.214476	0.97478	4.218	2.9565	-4.266	0	253	956	1
2026-02-11	16:17:09.970	-1.085	0.98	0.49	0.161528	0.215208	0.975756	4.206	2.97	-4.275	0	253	956	1
2026-02-11	16:17:09.990	-1.61	2.31	-0.56	0.164212	0.215452	0.980148	4.212	2.958	-4.263	0	253	956	1
2026-02-11	16:17:20.010	3.15	-3.955	-12.88	0.182268	0.166896	1.0736	4.368	3.36	-4.3275	0	125	1004	1
2026-02-11	16:17:20.030	3.36	-2.87	-12.39	0.196176	0.1647	1.04798	4.3425	3.3495	-4.341	0	125	1004	1
2026-02-11	16:17:20.050	0.42	-0.21	-12.25	0.202276	0.14152	1.011136	4.344	3.351	-4.3365	0	125	1004	1
2026-02-11	16:17:20.070	-3.255	0.98	-15.225	0.188856	0.135908	0.98332	4.35	3.3525	-4.3245	0	125	1004	1
2026-02-11	16:17:20.090	-6.895	0.49	-19.67	0.23424	0.160796	0.939888	4.359	3.372	-4.32	0	125	1004	1
2026-02-11	16:17:20.110	-9.415	-1.33	-19.04	0.235216	0.233752	0.966484	4.377	3.3945	-4.335	0	125	1004	1
2026-02-11	16:17:20.130	-10.78	-1.75	-20.405	0.218136	0.2684	0.95648	4.3875	3.414	-4.335	0	125	1004	1
2026-02-11	16:17:20.150	-9.73	-2.17	-18.725	0.22082	0.29158	0.959164	4.374	3.4005	-4.3395	0	125	1004	1
2026-02-11	16:17:20.170	-7.84	0.35	-15.33	0.2074	0.2623	0.938668	4.3695	3.414	-4.3335	0	125	1004	1
2026-02-11	16:17:20.190	-6.685	3.92	-13.405	0.198372	0.226432	0.936228	4.3545	3.417	-4.341	0	125	1004	1
2026-02-11	16:17:20.210	-5.11	3.22	-13.37	0.221552	0.227896	0.95038	4.3455	3.4215	-4.3425	0	116	1011	1
2026-02-11	16:17:20.230	-4.235	1.225	-14.42	0.22326	0.260348	0.948428	4.368	3.4275	-4.3395	0	116	1011	1
2026-02-11	16:17:20.250	-4.41	-1.19	-11.06	0.232044	0.257176	0.952332	4.398	3.4485	-4.338	0	116	1011	1
2026-02-11	16:17:20.270	-6.055	-2.59	-5.39	0.21472	0.27206	0.933544	4.3995	3.471	-4.344	0	116	1011	1
2026-02-11	16:17:20.290	-7.315	-2.94	-3.15	0.18422	0.259128	0.91622	4.389	3.4725	-4.356	0	116	1011	1
2026-02-11	16:17:20.310	-8.505	-2.135	-1.925	0.164456	0.269132	0.912072	4.3935	3.4695	-4.356	0	116	1011	1
2026-02-11	16:17:20.330	-8.995	-0.805	-1.05	0.137616	0.263032	0.901824	4.3875	3.4695	-4.3515	0	116	1011	1
2026-02-11	16:17:20.350	-6.405	-0.455	-0.07	0.120048	0.2684	0.917684	4.377	3.4665	-4.344	0	116	1011	1
2026-02-11	16:17:20.370	-1.925	-1.505	0.56	0.108336	0.262544	0.946476	4.3725	3.465	-4.3395	0	116	1011	1
2026-02-11	16:17:20.390	1.54	-1.295	1.715	0.118584	0.261812	0.970388	4.3695	3.459	-4.344	0	116	1011	1
2026-02-11	16:17:20.410	5.635	-1.75	2.45	0.131516	0.252784	0.987468	4.4025	3.465	-4.3455	0	109	1008	1
2026-02-11	16:17:20.430	7.56	-1.085	2.73	0.135176	0.23424	0.988688	4.3905	3.4815	-4.341	0	109	1008	1
2026-02-11	16:17:20.450	8.575	-0.77	4.235	0.148352	0.250588	0.981124	4.3935	3.468	-4.3455	0	109	1008	1
2026-02-11	16:17:20.470	8.925	-1.015	4.69	0.144692	0.243268	0.97234	4.3845	3.4875	-4.359	0	109	1008	1
2026-02-11	16:17:20.490	8.225	-0.98	3.01	0.153476	0.253028	0.968192	4.3995	3.486	-4.3575	0	109	1008	1
2026-02-11	16:17:20.510	6.895	-0.735	6.965	0.132492	0.240584	0.981368	4.4175	3.501	-4.3515	0	109	1008	1
2026-02-11	16:17:20.530	4.97	0.315	7.595	0.127368	0.240096	1.013332	4.44	3.492	-4.3425	0	109	1008	1
2026-02-11	16:17:20.550	3.535	0.455	8.365	0.11834	0.228872	1.029924	4.44	3.492	-4.3425	0	109	1008	1
2026-02-11	16:17:20.570	1.855	1.015	8.575	0.114924	0.224968	1.026752	4.4265	3.486	-4.344	0	109	1008	1
2026-02-11	16:17:20.590	0.63	2.31	9.87	0.11102	0.220332	1.014064	4.4145	3.4815	-4.347	0	109	1008	1
2026-02-11	16:17:20.610	0	3.43	10.955	0.116388	0.21472	0.995032	4.4115	3.471	-4.341	0	104	1003	1
2026-02-11	16:17:20.630	0.14	4.27	12.11	0.11346	0.200568	0.971852	4.41	3.4665	-4.335	0	104	1003	1
2026-02-11	16:17:20.650	0.945	5.145	13.335	0.11956	0.206424	0.97112	4.407	3.4785	-4.338	0	104	1003	1
2026-02-11	16:17:20.670	1.75	5.705	14.98	0.146888	0.225944	0.988932	4.413	3.48	-4.335	0	104	1003	1
2026-02-11	16:17:20.690	2.38	5.39	17.01	0.163724	0.241804	1.004548	4.4115	3.486	-4.344	0	104	1003	1
2026-02-11	16:17:20.710	3.255	4.9	18.655	0.179096	0.250344	1.012356	4.422	3.4785	-4.3365	0	104	1003	1
2026-02-11	16:17:20.730	3.815	5.18	20.475	0.167628	0.241316	0.981124	4.4145	3.4785	-4.338	0	104	1003	1
2026-02-11	16:17:20.750	4.83	5.565	21.07	0.151768	0.234484	0.9516	4.41	3.4815	-4.3395	0	104	1003	1
2026-02-11	16:17:20.770	5.74	6.79	20.51	0.132736	0.229604	0.937936	4.41	3.48	-4.347	0	104	1003	1
2026-02-11	16:17:20.790	6.16	8.54	19.425	0.1281	0.227652	0.9455	4.413	3.477	-4.3455	0	104	1003	1
2026-02-11	16:17:20.810	5.705	9.87	18.34	0.12688	0.217404	0.967216	4.4235	3.48	-4.335	0	100	1002	1
2026-02-11	16:17:20.830	4.585	10.115	17.185	0.122488	0.20496	0.984296	4.44	3.483	-4.332	0	100	1002	1
2026-02-11	16:17:20.850	3.64	8.995	15.225	0.116388	0.17934	1.000644	4.431	3.483	-4.3425	0	100	1002	1
2026-02-11	16:17:20.870	1.89	8.015	13.685	0.133224	0.172508	1.018456	4.4145	3.4815	-4.35	0	100	1002	1
2026-02-11	16:17:20.890	0.49	6.16	12.075	0.152988	0.179584	1.025288	4.407	3.477	-4.35	0	100	1002	1
2026-02-11	16:17:20.910	-1.295	3.57	9.52	0.167628	0.200324	0.980392	4.404	3.4725	-4.3515	0	100	1002	1
2026-02-11	16:17:20.930	-1.89	2.24	8.4	0.18666	0.194224	0.973072	4.404	3.4725	-4.3515	0	100	1002	1
2026-02-11	16:17:20.950	-2.065	2.1	8.015	0.183976	0.203496	0.945988	4.4055	3.471	-4.347	0	100	1002	1
2026-02-11	16:17:20.970	-1.925	3.395	8.225	0.183	0.220088	0.928664	4.3995	3.4695	-4.3395	0	100	1002	1
2026-02-11	16:17:20.990	-0.91	5.32	8.435	0.171288	0.20984	0.934764	4.3965	3.4845	-4.3515	0	100	1002	1
2026-02-11	16:17:21.010	1.05	6.545	7.805	0.160064	0.199348	0.96136	4.4325	3.498	-4.3485	0	94	1002	1
2026-02-11	16:17:21.030	2.73	6.23	7	0.16226	0.181048	1.004304	4.4175	3.4875	-4.344	0	94	1002	1
2026-02-11	16:17:21.050	1.365	5.635	8.225	0.147376	0.202276	1.04676	4.413	3.4875	-4.35	0	94	1002	1
2026-02-11	16:17:21.070	-1.89	3.92	9.31	0.162992	0.169824	1.031144	4.3875	3.483	-4.3635	0	94	1002	1
2026-02-11	16:17:21.090	-4.725	1.05	8.085	0.16348	0.179584	0.997716	4.383	3.483	-4.3605	0	94	1002	1
2026-02-11	16:17:21.110	-4.62	-2.1	6.195	0.16592	0.198372	0.96746	4.392	3.483	-4.356	0	94	1002	1
2026-02-11	16:17:21.130	-3.815	-3.605	5.11	0.163236	0.203252	0.943792	4.404	3.4845	-4.35	0	94	1002	1
2026-02-11	16:17:21.150	-2.31	-3.71	4.2	0.162504	0.19642	0.932812	4.4115	3.4815	-4.347	0	94	1002	1
2026-02-11	16:17:21.170	-0.35	-2.835	2.38	0.167384	0.190076	0.935984	4.41	3.4845	-4.347	0	94	1002	1
2026-02-11	16:17:21.190	1.61	-0.875	1.435	0.160552	0.172508	0.951356	4.4025	3.48	-4.3455	0	94	1002	1
2026-02-11	16:17:21.210	2.52	1.54	1.4	0.158844	0.156892	0.974048	4.3935	3.477	-4.3485	0	89	1002	1
2026-02-11	16:17:21.230	2.415	2.765	1.89	0.162016	0.153964	0.998448	4.386	3.48	-4.353	0	89	1002	1
2026-02-11	16:17:21.250	1.785	2.205	2.31	0.168848	0.14518	1.009916	4.3845	3.4785	-4.3515	0	89	1002	1
2026-02-11	16:17:21.270	1.225	0.455	2.625	0.170556	0.15616	1.004304	4.389	3.483	-4.3455	0	89	1002	1
2026-02-11	16:17:21.290	0.455	-0.875	2.59	0.169336	0.167384	0.999668	4.38	3.48	-4.3485	0	89	1002	1
2026-02-11	16:17:21.310	0.315	-1.61	2.275	0.167872	0.180072	0.99796	4.377	3.4755	-4.3485	0	89	1002	1
2026-02-11	16:17:21.330	0.455	-1.995	1.89	0.171044	0.18544	0.991372	4.377	3.474	-4.3425	0	89	1002	1
2026-02-11	16:17:21.350	0.21	-2.1	1.75	0.168848	0.186904	0.981368	4.365	3.474	-4.344	0	89	1002	1
2026-02-11	16:17:21.370	-0.14	-2.03	1.645	0.164944	0.190076	0.975756	4.368	3.4755	-4.347	0	89	1002	1
2026-02-11	16:17:21.390	0	-1.645	1.19	0.160552	0.183244	0.975512	4.3785	3.4785	-4.3455	0	89	1002	1
2026-02-11	16:17:21.410	0.175	-1.33	0.385	0.154452	0.179828	0.981856	4.3635	3.474	-4.35	0	84	1002	1
2026-02-11	16:17:21.430	0	-1.12	-0.28	0.156892	0.172996	0.99186	4.3605	3.4755	-4.353	0	84	1002	1
2026-02-11	16:17:21.450	-0.315	-1.89	-1.05	0.15738	0.174704	0.99674	4.3665	3.4755	-4.3545	0	84	1002	1
2026-02-11	16:17:21.470	-0.63	-2.66	-1.715	0.156404	0.175924	0.996252	4.3635	3.4695	-4.356	0	84	1002	1
2026-02-11	16:17:21.490	-0.945	-3.325	-2.275	0.158844	0.171776	0.996496	4.356	3.483	-4.35	0	84	1002	1
2026-02-11	16:17:21.510	-1.085	-4.13	-2.765	0.1586	0.17446	0.993324	4.359	3.4905	-4.353	0	84	1002	1
2026-02-11	16:17:21.530	-1.26	-4.69	-2.87	0.164944	0.181292	0.993568	4.3605	3.4695	-4.353	0	84	1002	1
2026-02-11	16:17:21.550	-1.295	-4.97	-2.765	0.168116	0.1769	0.992104	4.3335	3.4785	-4.359	0	84	1002	1
2026-02-11	16:17:21.570	-1.26	-4.795	-2.695	0.166408	0.172752	0.986248	4.3335	3.4665	-4.353	0	84	1002	1
2026-02-11	16:17:21.590	-1.4	-4.2	-2.87	0.168604	0.16836	0.982588	4.344	3.462	-4.3455	0	84	1002	1
2026-02-11	16:17:21.610	-1.54	-3.535	-2.975	0.169092	0.170312	0.985516	4.341	3.4545	-4.3485	0	77	1003	1
2026-02-11	16:17:21.630	-1.47	-3.115	-3.15	0.166896	0.178852	0.987468	4.329	3.447	-4.3335	0	77	1003	1
2026-02-11	16:17:21.650	-1.68	-2.31	-2.835	0.173972	0.186172	0.993812	4.329	3.447	-4.3335	0	77	1003	1
2026-02-11	16:17:21.670	-1.96	-1.785	-2.415	0.169092	0.177876	0.991372	4.3305	3.444	-4.3335	0	77	1003	1
2026-02-11	16:17:21.690	-2.1	-1.435	-2.205	0.16592	0.172996	0.992348	4.3275	3.4455	-4.3365	0	77	1003	1
2026-02-11	16:17:21.710	-2.38	-1.26	-2.17	0.172996	0.175924	0.996496	4.326	3.4455	-4.3395	0	77	1003	1
2026-02-11	16:17:21.730	-2.625	-1.12	-1.995	0.166652	0.173972	0.989664	4.3305	3.444	-4.341	0	77	1003	1
2026-02-11	16:17:21.750	-2.905	-0.525	-1.785	0.167384	0.176168	0.989664	4.3305	3.444	-4.338	0	77	1003	1
2026-02-11	16:17:21.770	-3.185	0.07	-1.75	0.170312	0.175924	0.98698	4.347	3.45	-4.3425	0	77	1003	1
2026-02-11	16:17:21.790	-3.465	0.42	-1.75	0.161528	0.170556	0.983808	4.3575	3.459	-4.341	0	77	1003	1
2026-02-11	16:17:21.810	-3.325	0.49	-1.82	0.1586	0.169092	0.981856	4.353	3.456	-4.3305	0	71	1005	1
2026-02-11	16:17:21.830	-3.115	0.595	-1.785	0.171776	0.179584	0.98698	4.356	3.453	-4.3305	0	71	1005	1
2026-02-11	16:17:21.850	-2.835	0.63	-1.575	0.165432	0.172752	0.980148	4.3575	3.453	-4.3335	0	71	1005	1
2026-02-11	16:17:21.870	-2.345	0.7	-1.4	0.165188	0.172752	0.979904	4.3545	3.4515	-4.3335	0	71	1005	1
2026-02-11	16:17:21.890	-2.31	0.945	-0.98	0.167872	0.172264	0.974292	4.35	3.4515	-4.3365	0	71	1005	1
2026-02-11	16:17:21.910	-1.995	1.225	-0.665	0.16104	0.17568	0.973072	4.3455	3.4545	-4.341	0	71	1005	1
2026-02-11	16:17:21.930	-1.12	1.435	-0.455	0.158112	0.175924	0.970144	4.3485	3.459	-4.3395	0	71	1005	1
2026-02-11	16:17:21.950	-0.595	1.75	-0.14	0.16348	0.180804	0.981124	4.353	3.4605	-4.3395	0	71	1005	1
2026-02-11	16:17:21.970	-0.385	1.995	0.035	0.160796	0.17812	0.982588	4.347	3.456	-4.3365	0	71	1005	1
2026-02-11	16:17:21.990	-0.385	2.17	0	0.159088	0.175436	0.984296	4.344	3.4545	-4.335	0	71	1005	1
2026-02-11	16:17:22.010	-0.77	2.1	0	0.154452	0.1769	0.98698	4.347	3.456	-4.3395	0	64	1006	1
2026-02-11	16:17:22.030	-1.05	1.96	0.07	0.148596	0.176412	0.984296	4.35	3.4605	-4.3425	0	64	1006	1
2026-02-11	16:17:22.050	-1.295	1.89	0.105	0.144936	0.169824	0.98332	4.3545	3.4755	-4.3335	0	64	1006	1
2026-02-11	16:17:22.070	-1.33	1.82	0	0.14518	0.171044	0.990884	4.3245	3.456	-4.347	0	64	1006	1
2026-02-11	16:17:22.090	-1.47	1.75	-0.14	0.149816	0.173484	0.99674	4.3485	3.4515	-4.3335	0	64	1006	1
2026-02-11	16:17:22.110	-1.61	1.61	-0.21	0.14152	0.163236	0.99918	4.3485	3.453	-4.3395	0	64	1006	1
2026-02-11	16:17:22.130	-1.645	1.155	-0.315	0.146644	0.16226	0.993812	4.353	3.4605	-4.338	0	64	1006	1
2026-02-11	16:17:22.150	-1.645	0.595	-0.28	0.14518	0.160552	0.993568	4.329	3.459	-4.3515	0	64	1006	1
2026-02-11	16:17:22.170	-1.715	0.28	-0.175	0.148596	0.167384	0.987468	4.329	3.462	-4.347	0	64	1006	1
2026-02-11	16:17:22.190	-1.785	0.175	0	0.147132	0.16836	0.9882	4.3335	3.4575	-4.347	0	64	1006	1
2026-02-11	16:17:22.210	-1.82	0.245	0.175	0.145668	0.165676	0.981368	4.326	3.456	-4.3425	0	57	1007	1
2026-02-11	16:17:22.230	-1.54	0.42	0.105	0.14518	0.168116	0.97966	4.323	3.453	-4.3365	0	57	1007	1
2026-02-11	16:17:22.250	-1.015	0.525	-0.105	0.147864	0.175192	0.98332	4.3245	3.453	-4.3395	0	57	1007	1
2026-02-11	16:17:22.270	-0.805	0.525	-0.245	0.147132	0.172264	0.98698	4.3215	3.456	-4.341	0	57	1007	1
2026-02-11	16:17:22.290	-0.665	0.455	-0.315	0.14518	0.168848	0.988932	4.3185	3.456	-4.338	0	57	1007	1
2026-02-11	16:17:22.310	-0.63	0.245	-0.42	0.142252	0.170068	0.99064	4.311	3.453	-4.3395	0	57	1007	1
2026-02-11	16:17:22.330	-0.525	-0.035	-0.455	0.141764	0.161772	0.985272	4.317	3.4485	-4.338	0	57	1007	1
2026-02-11	16:17:22.350	-0.315	-0.49	-0.595	0.13786	0.160064	0.985272	4.3275	3.444	-4.338	0	57	1007	1
2026-02-11	16:17:22.370	-0.175	-0.805	-0.735	0.137372	0.164944	0.987468	4.3275	3.4455	-4.3365	0	57	1007	1
2026-02-11	16:17:22.390	-0.14	-0.665	-0.84	0.13664	0.162504	0.988688	4.326	3.4485	-4.3335	0	57	1007	1
2026-02-11	16:17:22.410	0.035	-0.595	-1.015	0.138104	0.164456	0.991616	4.3185	3.4425	-4.335	0	50	1007	1
2026-02-11	16:17:22.430	0.035	-0.49	-1.085	0.14152	0.161528	0.994788	4.3245	3.4515	-4.3455	0	50	1007	1
2026-02-11	16:17:22.450	-0.035	-0.49	-1.155	0.141276	0.160796	0.995764	4.3245	3.45	-4.3395	0	50	1007	1
2026-02-11	16:17:22.470	-0.14	-0.525	-1.26	0.139812	0.160796	0.999424	4.3245	3.444	-4.3335	0	50	1007	1
2026-02-11	16:17:22.490	-0.28	-0.455	-1.295	0.144692	0.161528	0.996496	4.317	3.4455	-4.338	0	50	1007	1
2026-02-11	16:17:22.510	-0.385	-0.14	-1.33	0.135908	0.157624	0.991372	4.3215	3.447	-4.338	0	50	1007	1
2026-02-11	16:17:22.530	-0.455	0.28	-1.4	0.14518	0.164944	0.995276	4.35	3.462	-4.35	0	50	1007	1
2026-02-11	16:17:22.550	-0.665	0.665	-1.26	0.147132	0.162748	0.9943	4.3695	3.4665	-4.35	0	50	1007	1
2026-02-11	16:17:22.570	-0.77	1.085	-1.155	0.140544	0.162748	0.987712	4.365	3.459	-4.338	0	50	1007	1
2026-02-11	16:17:22.590	-0.665	1.61	-1.05	0.14274	0.167628	0.993568	4.362	3.459	-4.344	0	50	1007	1
2026-02-11	16:17:22.610	-0.735	2.1	-0.945	0.143472	0.168604	0.993324	4.3545	3.4575	-4.3455	0	44	1008	1
2026-02-11	16:17:22.630	-0.98	2.38	-0.875	0.138836	0.163724	0.987712	4.365	3.4635	-4.341	0	44	1008	1
2026-02-11	16:17:22.650	-0.875	2.31	-1.015	0.138836	0.15738	0.99186	4.3635	3.4605	-4.3365	0	44	1008	1
2026-02-11	16:17:22.670	-1.19	2.03	-1.12	0.13908	0.162992	0.998936	4.359	3.4605	-4.3365	0	44	1008	1
2026-02-11	16:17:22.690	-1.96	1.61	-1.12	0.133224	0.163724	0.9943	4.3515	3.462	-4.338	0	44	1008	1
2026-02-11	16:17:22.710	-2.1	1.26	-1.12	0.132736	0.16592	0.992348	4.362	3.4605	-4.335	0	44	1008	1
2026-02-11	16:17:22.730	-1.855	1.19	-1.54	0.132736	0.161772	0.992104	4.3635	3.4575	-4.3305	0	44	1008	1
2026-02-11	16:17:22.750	-1.89	1.19	-2.17	0.127124	0.153476	0.983564	4.3635	3.4575	-4.3305	0	44	1008	1
2026-02-11	16:17:22.770	-1.75	1.05	-2.66	0.127856	0.15372	0.982344	4.362	3.465	-4.3305	0	44	1008	1
2026-02-11	16:17:22.790	-1.435	0.77	-2.87	0.134444	0.159576	0.994056	4.3635	3.4695	-4.335	0	44	1008	1
2026-02-11	16:17:22.810	-1.4	0.455	-2.87	0.13664	0.154208	0.993568	4.353	3.4665	-4.3425	0	39	1009	1
2026-02-11	16:17:22.830	-1.435	0.14	-2.905	0.13786	0.153964	0.990396	4.3395	3.462	-4.344	0	39	1009	1
2026-02-11	16:17:22.850	-1.26	0	-2.975	0.132736	0.150304	0.98576	4.341	3.4605	-4.3425	0	39	1009	1
2026-02-11	16:17:22.870	-0.49	0.035	-3.15	0.134444	0.155916	0.992592	4.3515	3.465	-4.3425	0	39	1009	1
2026-02-11	16:17:22.890	0.14	0.49	-3.78	0.140056	0.150304	0.99308	4.356	3.468	-4.347	0	39	1009	1
2026-02-11	16:17:22.910	0.63	0.98	-4.795	0.145668	0.146644	0.993812	4.356	3.468	-4.3455	0	39	1009	1
2026-02-11	16:17:22.930	-0.14	1.225	-5.705	0.142252	0.147864	1.012844	4.362	3.4665	-4.341	0	39	1009	1
2026-02-11	16:17:22.950	-0.595	0.28	-5.425	0.135176	0.156404	1.020896	4.3335	3.4545	-4.344	0	39	1009	1
2026-02-11	16:17:22.970	-1.505	-0.42	-4.655	0.128832	0.16348	1.022848	4.3335	3.4605	-4.3485	0	39	1009	1
2026-02-11	16:17:22.990	-1.82	-0.665	-4.725	0.112484	0.158844	1.015284	4.3275	3.447	-4.3425	0	39	1009	1
2026-02-11	16:17:23.010	-2.695	0.14	-5.39	0.086376	0.142496	1.018456	4.317	3.4485	-4.3395	0	35	1011	1
2026-02-11	16:17:23.030	-2.835	0.84	-6.51	0.097356	0.160796	1.01748	4.3005	3.4455	-4.335	0	35	1011	1
2026-02-11	16:17:23.050	-2.8	1.26	-8.54	0.106384	0.163968	1.025776	4.3065	3.45	-4.3425	0	35	1011	1
2026-02-11	16:17:23.070	-2.73	1.155	-10.57	0.112728	0.167872	1.022848	4.3065	3.441	-4.3365	0	35	1011	1
2026-02-11	16:17:23.090	-2.905	1.575	-12.53	0.113704	0.165676	1.018944	4.308	3.4395	-4.341	0	35	1011	1
2026-02-11	16:17:23.110	-3.885	3.185	-15.26	0.121268	0.164944	1.021872	4.3185	3.441	-4.338	0	35	1011	1
2026-02-11	16:17:23.130	-5.075	4.235	-16.73	0.133956	0.1708	1.023336	4.3125	3.4395	-4.3425	0	35	1011	1
2026-02-11	16:17:23.150	-6.58	5.145	-17.78	0.124196	0.168848	1.024068	4.3125	3.453	-4.3425	0	35	1011	1
2026-02-11	16:17:23.170	-8.12	6.3	-18.55	0.122	0.167628	1.013332	4.314	3.444	-4.3365	0	35	1011	1
2026-02-11	16:17:23.190	-9.345	7.105	-19.18	0.121024	0.168604	1.010648	4.308	3.4425	-4.3395	0	35	1011	1
2026-02-11	16:17:23.210	-10.5	7.735	-19.04	0.121512	0.16104	0.999912	4.3035	3.4395	-4.3425	0	32	1016	1
2026-02-11	16:17:23.230	-10.955	7.735	-18.76	0.118584	0.143716	0.99674	4.302	3.441	-4.338	0	32	1016	1
2026-02-11	16:17:23.250	-11.27	7.14	-18.025	0.108092	0.144936	0.99186	4.305	3.441	-4.3425	0	32	1016	1
2026-02-11	16:17:23.270	-11.235	6.055	-17.15	0.106628	0.140544	0.994056	4.3035	3.4395	-4.344	0	32	1016	1
2026-02-11	16:17:23.290	-9.415	3.815	-14.91	0.113216	0.137616	0.99064	4.347	3.4725	-4.3605	0	32	1016	1
2026-02-11	16:17:23.310	-7.035	2.38	-12.845	0.112972	0.126636	0.960872	4.341	3.459	-4.35	0	32	1016	1
2026-02-11	16:17:23.330	-3.71	1.715	-11.34	0.101504	0.104432	0.937936	4.3335	3.45	-4.3395	0	32	1016	1
2026-02-11	16:17:23.350	-1.68	3.045	-8.75	0.091012	0.092964	0.924028	4.326	3.456	-4.3395	0	32	1016	1
2026-02-11	16:17:23.370	1.855	4.305	-6.825	0.095892	0.07076	0.91744	4.323	3.456	-4.341	0	32	1016	1
2026-02-11	16:17:23.390	5.215	5.95	-5.04	0.099796	0.0732	0.92964	4.32	3.4545	-4.3425	0	32	1016	1
2026-02-11	16:17:23.410	7.07	7.7	-3.5	0.09638	0.06832	0.9455	4.3185	3.4515	-4.344	0	30	1017	1
2026-02-11	16:17:23.430	7.7	8.61	-2.45	0.088816	0.071492	0.97112	4.317	3.4455	-4.344	0	30	1017	1
2026-02-11	16:17:23.450	7.14	7.98	-1.435	0.086132	0.099796	0.996008	4.317	3.447	-4.344	0	30	1017	1
2026-02-11	16:17:23.470	7.84	4.69	0.245	0.104188	0.123464	1.027728	4.323	3.453	-4.344	0	30	1017	1
2026-02-11	16:17:23.490	8.89	0.63	1.61	0.147132	0.161528	1.06018	4.323	3.453	-4.344	0	30	1017	1
2026-02-11	16:17:23.510	5.985	-0.84	2.625	0.16836	0.187148	1.057252	4.3215	3.4425	-4.35	0	30	1017	1
2026-02-11	16:17:23.530	1.68	-1.05	4.865	0.149572	0.176656	1.020408	4.3155	3.4515	-4.3515	0	30	1017	1
2026-02-11	16:17:23.550	0.945	-1.855	6.58	0.126392	0.160308	0.965996	4.3065	3.4545	-4.3485	0	30	1017	1
2026-02-11	16:17:23.570	0.7	-0.735	8.085	0.104432	0.1464	0.944036	4.311	3.447	-4.3425	0	30	1017	1
2026-02-11	16:17:23.590	1.12	1.75	7.14	0.09882	0.14518	0.971852	4.305	3.453	-4.35	0	30	1017	1
2026-02-11	16:17:23.610	-0.385	5.95	7.735	0.096136	0.149816	1.008696	4.3095	3.4455	-4.3425	0	30	1016	1
2026-02-11	16:17:23.630	-0.665	8.54	8.12	0.085156	0.1525	1.04188	4.3035	3.4275	-4.3365	0	30	1016	1
2026-02-11	16:17:23.650	0.665	10.325	8.225	0.054168	0.142984	1.041636	4.2615	3.4425	-4.3575	0	30	1016	1
2026-02-11	16:17:23.670	1.995	12.075	8.085	0.04514	0.132004	1.022116	4.2795	3.435	-4.3515	0	30	1016	1
2026-02-11	16:17:23.690	1.12	13.51	7.525	0.033672	0.124684	1.012844	4.305	3.4305	-4.3455	0	30	1016	1
2026-02-11	16:17:23.710	-0.49	13.475	6.65	0.027084	0.113948	0.996496	4.296	3.4395	-4.3515	0	30	1016	1
2026-02-11	16:17:23.730	-0.805	11.235	5.11	0.0183	0.128344	0.994056	4.2855	3.4485	-4.356	0	30	1016	1
2026-02-11	16:17:23.750	-0.945	8.12	3.605	0.026352	0.161528	1.016992	4.2885	3.45	-4.3575	0	30	1016	1
2026-02-11	16:17:23.770	-2.625	5.39	2.73	0.040748	0.189344	1.039928	4.2975	3.4455	-4.3665	0	30	1016	1
2026-02-11	16:17:23.790	-4.935	2.52	2.1	0.045628	0.191296	1.042368	4.2885	3.45	-4.3665	0	30	1016	1
2026-02-11	16:17:23.810	-7.35	-0.28	1.19	0.036112	0.171288	1.01626	4.2765	3.4425	-4.3545	0	31	1017	1
2026-02-11	16:17:23.830	-9.1	-2.555	-0.7	0.030256	0.154208	0.98576	4.278	3.438	-4.3605	0	31	1017	1
2026-02-11	16:17:23.850	-8.54	-4.795	-2.975	0.035624	0.143472	0.969656	4.2765	3.4455	-4.356	0	31	1017	1
2026-02-11	16:17:23.870	-7.035	-6.44	-4.725	0.045384	0.137616	0.976244	4.2735	3.45	-4.353	0	31	1017	1
2026-02-11	16:17:23.890	-6.3	-7.175	-6.125	0.052704	0.138104	1.004304	4.275	3.444	-4.353	0	31	1017	1
2026-02-11	16:17:23.910	-6.125	-7.7	-6.895	0.054656	0.133956	1.0248	4.281	3.438	-4.3485	0	31	1017	1
2026-02-11	16:17:23.930	-6.23	-8.12	-6.755	0.0549	0.128588	1.026264	4.2855	3.4365	-4.344	0	31	1017	1
2026-02-11	16:17:23.950	-5.88	-8.82	-5.845	0.065148	0.111996	1.019676	4.278	3.4395	-4.344	0	31	1017	1
2026-02-11	16:17:23.970	-5.39	-9.87	-4.375	0.072956	0.110532	1.011136	4.287	3.441	-4.3455	0	31	1017	1
2026-02-11	16:17:23.990	-5.39	-10.29	-2.59	0.08052	0.109312	1.003084	4.3095	3.4575	-4.35	0	31	1017	1
2026-02-11	16:17:24.010	-5.425	-9.345	-0.525	0.077104	0.12566	0.993324	4.32	3.4725	-4.356	0	34	1019	1
2026-02-11	16:17:24.030	-4.41	-7.315	0.84	0.08686399	0.132248	0.99186	4.32	3.4725	-4.356	0	34	1019	1
2026-02-11	16:17:24.050	-3.64	-5.705	1.4	0.097356	0.131272	0.992592	4.2975	3.4485	-4.3545	0	34	1019	1
2026-02-11	16:17:24.070	-3.255	-4.445	1.505	0.096868	0.131272	0.995276	4.311	3.45	-4.341	0	34	1019	1
2026-02-11	16:17:24.090	-3.115	-2.765	1.365	0.08906	0.122976	0.982832	4.3065	3.456	-4.3395	0	34	1019	1
2026-02-11	16:17:24.110	-2.38	-1.12	0.805	0.082716	0.121756	0.987956	4.2975	3.4485	-4.3365	0	34	1019	1
2026-02-11	16:17:24.130	-1.575	0.07	0.245	0.090524	0.126392	1.00162	4.3035	3.45	-4.3365	0	34	1019	1
2026-02-11	16:17:24.150	-1.365	0.665	-0.14	0.094184	0.126392	1.014308	4.293	3.4515	-4.3305	0	34	1019	1
2026-02-11	16:17:24.170	-1.68	0.805	-0.245	0.094428	0.122244	1.00894	4.3005	3.4515	-4.3365	0	34	1019	1
2026-02-11	16:17:24.190	-1.89	0.7	-0.35	0.083448	0.106872	1.003816	4.299	3.45	-4.3365	0	34	1019	1
2026-02-11	16:17:24.210	-1.645	0.07	-0.77	0.093208	0.116144	1.013576	4.299	3.45	-4.3365	0	36	1021	1
2026-02-11	16:17:24.230	-1.995	-0.175	-0.91	0.097112	0.123464	1.022848	4.302	3.4545	-4.3365	0	36	1021	1
2026-02-11	16:17:24.250	-2.87	0.07	-0.945	0.09394	0.12322	1.014308	4.3035	3.4605	-4.3365	0	36	1021	1
2026-02-11	16:17:24.270	-3.115	0.595	-1.26	0.081984	0.111996	0.994544	4.302	3.456	-4.335	0	36	1021	1
2026-02-11	16:17:24.290	-2.24	0.91	-2.065	0.090036	0.109556	0.99552	4.2885	3.453	-4.341	0	36	1021	1
2026-02-11	16:17:24.310	-1.155	0.945	-2.94	0.096868	0.113216	0.998692	4.278	3.456	-4.3455	0	36	1021	1
2026-02-11	16:17:24.330	-0.595	1.085	-3.535	0.093208	0.12566	1.002108	4.278	3.4545	-4.3425	0	36	1021	1
2026-02-11	16:17:24.350	-0.665	2.03	-3.78	0.089792	0.113704	1.004792	4.275	3.453	-4.347	0	36	1021	1
2026-02-11	16:17:24.370	-0.175	2.87	-3.85	0.087596	0.109556	0.989908	4.2735	3.447	-4.3485	0	36	1021	1
2026-02-11	16:17:24.390	1.33	3.22	-3.395	0.090036	0.096868	1.003084	4.2705	3.4395	-4.3485	0	36	1021	1
2026-02-11	16:17:24.410	1.26	3.64	-2.94	0.090036	0.093696	1.002108	4.2675	3.444	-4.341	0	37	1023	1
2026-02-11	16:17:24.430	0.875	4.305	-2.17	0.093452	0.097844	0.987712	4.284	3.4485	-4.335	0	37	1023	1
2026-02-11	16:17:24.450	1.4	5.04	-0.945	0.095648	0.0976	0.986248	4.3005	3.453	-4.3395	0	37	1023	1
2026-02-11	16:17:24.470	3.115	5.53	0.455	0.09076799	0.09467199	0.981856	4.3035	3.45	-4.3455	0	37	1023	1
2026-02-11	16:17:24.490	4.41	6.335	1.68	0.082472	0.096624	0.993812	4.2945	3.4485	-4.3455	0	37	1023	1
2026-02-11	16:17:24.510	5.425	6.755	2.66	0.092232	0.094916	1.013088	4.281	3.4575	-4.347	0	37	1023	1
2026-02-11	16:17:24.530	5.145	6.475	3.395	0.089792	0.113704	1.01992	4.2765	3.4545	-4.341	0	37	1023	1
2026-02-11	16:17:24.550	4.235	5.81	4.235	0.071736	0.09882	1.015284	4.275	3.444	-4.3335	0	37	1023	1
2026-02-11	16:17:24.570	1.96	4.69	5.18	0.06734399	0.10248	1.004548	4.278	3.4395	-4.335	0	37	1023	1
2026-02-11	16:17:24.590	-0.07	3.255	5.46	0.060268	0.1098	1.003816	4.2765	3.4395	-4.338	0	37	1023	1
2026-02-11	16:17:24.610	-2.38	1.82	5.81	0.055144	0.129564	1.004792	4.2765	3.441	-4.3425	0	37	1023	1
2026-02-11	16:17:24.630	-4.935	1.295	6.405	0.04636	0.132492	1.00772	4.2705	3.4365	-4.3425	0	37	1023	1
2026-02-11	16:17:24.650	-6.405	0.735	6.3	0.049044	0.118096	1.012112	4.2795	3.4455	-4.344	0	37	1023	1
2026-02-11	16:17:24.670	-8.015	0.07	5.215	0.052704	0.110776	1.013576	4.287	3.4395	-4.3395	0	37	1023	1
2026-02-11	16:17:24.690	-9.8	-0.84	3.675	0.053192	0.107116	1.011868	4.284	3.438	-4.344	0	37	1023	1
2026-02-11	16:17:24.710	-10.605	-2.135	2.345	0.041724	0.105408	1.007476	4.2825	3.4485	-4.3365	0	37	1023	1
2026-02-11	16:17:24.730	-9.765	-4.2	1.155	0.0488	0.106384	1.020164	4.278	3.4455	-4.335	0	37	1023	1
2026-02-11	16:17:24.750	-8.925	-6.405	0.245	0.062708	0.114924	1.025776	4.332	3.4695	-4.353	0	37	1023	1
2026-02-11	16:17:24.770	-8.61	-7.07	-0.35	0.052704	0.095648	1.007476	4.3215	3.4635	-4.3425	0	37	1023	1
2026-02-11	16:17:24.790	-7.7	-6.405	-0.98	0.040504	0.077592	0.990152	4.308	3.4605	-4.335	0	37	1023	1
2026-02-11	16:17:24.810	-6.3	-5.11	-1.785	0.046604	0.07198	0.9821	4.305	3.462	-4.335	0	36	1024	1
2026-02-11	16:17:24.830	-4.76	-3.78	-2.275	0.06222	0.072956	0.98454	4.3095	3.4605	-4.335	0	36	1024	1
2026-02-11	16:17:24.850	-3.5	-2.52	-2.205	0.075884	0.075884	0.985272	4.3065	3.465	-4.3365	0	36	1024	1
2026-02-11	16:17:24.870	-2.52	-1.12	-1.96	0.079788	0.065392	0.99064	4.305	3.465	-4.338	0	36	1024	1
2026-02-11	16:17:24.890	-1.75	0.105	-1.855	0.081008	0.07124799	0.992104	4.3095	3.4665	-4.341	0	36	1024	1
2026-02-11	16:17:24.910	-1.26	0.805	-1.575	0.09394	0.082472	0.996496	4.308	3.4665	-4.3335	0	36	1024	1
2026-02-11	16:17:24.930	-1.12	0.35	-0.665	0.110776	0.085644	1.015284	4.3125	3.462	-4.326	0	36	1024	1
2026-02-11	16:17:24.950	-1.785	-1.015	0.49	0.100772	0.07808	1.005768	4.317	3.4635	-4.3275	0	36	1024	1
2026-02-11	16:17:24.970	-2.24	-2.03	1.435	0.088084	0.077104	0.993812	4.314	3.462	-4.332	0	36	1024	1
2026-02-11	16:17:24.990	-2.52	-2.345	1.855	0.09467199	0.077104	0.991372	4.3155	3.465	-4.3335	0	36	1024	1
2026-02-11	16:17:25.010	-3.36	-2.485	1.89	0.098088	0.083692	1.002108	4.2795	3.471	-4.3395	0	35	1024	1
2026-02-11	16:17:25.030	-3.85	-3.08	2.03	0.0854	0.090524	1.00162	4.2795	3.471	-4.3395	0	35	1024	1
2026-02-11	16:17:25.050	-3.325	-3.92	2.59	0.07515199	0.091012	1.00284	4.2945	3.465	-4.332	0	35	1024	1
2026-02-11	16:17:25.070	-2.66	-4.2	3.045	0.07905599	0.0854	1.009916	4.308	3.4695	-4.329	0	35	1024	1
2026-02-11	16:17:25.090	-2.38	-4.095	3.22	0.080276	0.084424	1.011624	4.3065	3.4725	-4.3305	0	35	1024	1
2026-02-11	16:17:25.110	-1.96	-3.745	3.185	0.078568	0.070516	0.997228	4.2945	3.4665	-4.335	0	35	1024	1
2026-02-11	16:17:25.130	-0.84	-3.045	2.835	0.073444	0.060024	0.991616	4.284	3.468	-4.3425	0	35	1024	1
2026-02-11	16:17:25.150	0.175	-2.38	1.995	0.07515199	0.064416	1.00528	4.2795	3.471	-4.3365	0	35	1024	1
2026-02-11	16:17:25.170	0.77	-2.17	1.33	0.089792	0.07905599	1.026264	4.2735	3.462	-4.3305	0	35	1024	1
2026-02-11	16:17:25.190	0.63	-2.205	1.365	0.10004	0.088084	1.030168	4.2645	3.4725	-4.335	0	35	1024	1
2026-02-11	16:17:25.210	0.07	-1.75	1.75	0.093452	0.085888	1.021872	4.275	3.456	-4.335	0	34	1024	1
2026-02-11	16:17:25.230	-0.175	-0.875	1.82	0.08295999	0.07515199	1.009916	4.2705	3.459	-4.3305	0	34	1024	1
2026-02-11	16:17:25.250	-0.07	-0.14	1.575	0.088084	0.076128	1.007232	4.272	3.4665	-4.3275	0	34	1024	1
2026-02-11	16:17:25.270	0.455	-0.315	1.61	0.09638	0.081496	1.004792	4.272	3.459	-4.3275	0	34	1024	1
2026-02-11	16:17:25.290	0.525	-0.455	2.03	0.09076799	0.080276	1.006012	4.2675	3.453	-4.3275	0	34	1024	1
2026-02-11	16:17:25.310	0.07	-0.105	2.38	0.073932	0.07564	1.009428	4.2675	3.453	-4.3275	0	34	1024	1
2026-02-11	16:17:25.330	-0.14	0.245	1.925	0.078324	0.082716	1.015528	4.2705	3.456	-4.3275	0	34	1024	1
2026-02-11	16:17:25.350	-0.035	0.385	1.225	0.0854	0.085644	1.021384	4.296	3.4695	-4.338	0	34	1024	1
2026-02-11	16:17:25.370	0.595	-0.07	0.63	0.09516	0.079544	1.014064	4.3125	3.4725	-4.338	0	34	1024	1
2026-02-11	16:17:25.390	1.715	-0.7	0.21	0.090036	0.082472	0.996008	4.305	3.4695	-4.329	0	34	1024	1
2026-02-11	16:17:25.410	2.695	-0.35	-0.175	0.091988	0.085156	0.991128	4.3035	3.4755	-4.329	0	33	1025	1
2026-02-11	16:17:25.430	3.395	0.77	-0.595	0.100528	0.095892	0.996984	4.3035	3.4755	-4.329	0	33	1025	1
2026-02-11	16:17:25.450	4.69	1.575	-0.455	0.106872	0.098332	0.996496	4.3065	3.4725	-4.332	0	33	1025	1
2026-02-11	16:17:25.470	6.545	2.03	-0.105	0.097844	0.094428	0.99308	4.3065	3.4695	-4.3305	0	33	1025	1
2026-02-11	16:17:25.490	8.435	4.235	-0.315	0.089304	0.091744	0.994788	4.302	3.468	-4.326	0	33	1025	1
2026-02-11	16:17:25.510	9.205	5.95	-0.665	0.084912	0.09272	1.002108	4.302	3.4725	-4.332	0	33	1025	1
2026-02-11	16:17:25.530	9.695	6.965	-0.84	0.07124799	0.085888	1.0004	4.311	3.465	-4.332	0	33	1025	1
2026-02-11	16:17:25.550	10.255	7.21	-0.7	0.06734399	0.092476	1.004304	4.3095	3.462	-4.332	0	33	1025	1
2026-02-11	16:17:25.570	10.255	6.79	-0.21	0.0732	0.097356	1.021872	4.317	3.459	-4.341	0	33	1025	1
2026-02-11	16:17:25.590	8.645	6.055	0.385	0.070516	0.109312	1.026508	4.3095	3.459	-4.3335	0	33	1025	1
2026-02-11	16:17:25.610	5.775	5.355	0.665	0.069784	0.101504	1.02358	4.308	3.4665	-4.3335	0	31	1026	1
2026-02-11	16:17:25.630	3.36	3.78	0.455	0.0732	0.104188	1.023092	4.2795	3.4635	-4.3485	0	31	1026	1
2026-02-11	16:17:25.650	1.68	1.33	0.385	0.085644	0.115656	1.011868	4.3005	3.4665	-4.332	0	31	1026	1
2026-02-11	16:17:25.670	-1.505	-0.56	0.49	0.069784	0.115168	0.982588	4.3005	3.4665	-4.332	0	31	1026	1
2026-02-11	16:17:25.690	-2.485	-0.56	0.455	0.063928	0.109556	0.973804	4.314	3.453	-4.3305	0	31	1026	1
2026-02-11	16:17:25.710	-1.365	-0.805	-0.105	0.06954	0.108824	0.97966	4.2975	3.4575	-4.344	0	31	1026	1
2026-02-11	16:17:25.730	-0.245	-0.665	-1.19	0.072712	0.103456	0.990884	4.2945	3.4635	-4.347	0	31	1026	1
2026-02-11	16:17:25.750	-0.175	-0.665	-2.555	0.075396	0.097844	1.0065	4.287	3.462	-4.347	0	31	1026	1
2026-02-11	16:17:25.770	-1.12	-1.645	-3.22	0.073932	0.095648	1.004304	4.302	3.4635	-4.338	0	31	1026	1
2026-02-11	16:17:25.790	-1.54	-3.71	-2.765	0.074176	0.09394	0.992592	4.311	3.456	-4.329	0	31	1026	1
2026-02-11	16:17:25.810	-0.385	-5.81	-1.82	0.068076	0.087352	0.985516	4.29	3.4605	-4.344	0	30	1026	1
2026-02-11	16:17:25.830	0.42	-6.23	-1.575	0.0732	0.083448	0.989176	4.284	3.4635	-4.347	0	30	1026	1
2026-02-11	16:17:25.850	0.525	-5.355	-1.925	0.076616	0.084668	1.00284	4.284	3.4605	-4.3455	0	30	1026	1
2026-02-11	16:17:25.870	0.91	-4.41	-2.205	0.083448	0.083448	1.005768	4.281	3.456	-4.344	0	30	1026	1
2026-02-11	16:17:25.890	1.715	-4.13	-2.45	0.081984	0.085644	0.998936	4.278	3.4515	-4.335	0	30	1026	1
2026-02-11	16:17:25.910	2.52	-3.57	-2.66	0.08906	0.091256	1.003572	4.2765	3.4485	-4.329	0	30	1026	1
2026-02-11	16:17:25.930	2.66	-2.625	-2.52	0.097112	0.09467199	1.012356	4.2735	3.447	-4.335	0	30	1026	1
2026-02-11	16:17:25.950	2.38	-1.925	-2.205	0.102236	0.095404	1.013088	4.2705	3.4425	-4.3365	0	30	1026	1
2026-02-11	16:17:25.970	1.96	-1.575	-1.855	0.099796	0.089304	1.009184	4.2915	3.4455	-4.3335	0	30	1026	1
2026-02-11	16:17:25.990	1.61	-1.82	-1.68	0.103944	0.091988	1.019188	4.308	3.453	-4.3335	0	30	1026	1
2026-02-11	16:17:26.010	1.4	-3.01	-1.54	0.104432	0.089304	1.01626	4.305	3.453	-4.335	0	28	1026	1
2026-02-11	16:17:26.030	1.365	-4.41	-1.225	0.098088	0.093452	1.01504	4.3065	3.4545	-4.3305	0	28	1026	1
2026-02-11	16:17:26.050	1.4	-6.055	-0.84	0.09272	0.091744	1.017968	4.3095	3.4575	-4.3275	0	28	1026	1
2026-02-11	16:17:26.070	1.05	-7.455	-0.56	0.089304	0.09882	1.021872	4.3035	3.456	-4.3425	0	28	1026	1
2026-02-11	16:17:26.090	0.735	-8.715	-0.14	0.085644	0.096136	1.014552	4.3065	3.4485	-4.3305	0	28	1026	1
2026-02-11	16:17:26.110	1.05	-9.555	0.28	0.082716	0.0915	0.995032	4.3035	3.4485	-4.3305	0	28	1026	1
2026-02-11	16:17:26.130	1.75	-9.59	0.77	0.08418	0.097356	0.988444	4.2885	3.453	-4.3245	0	28	1026	1
2026-02-11	16:17:26.150	2.345	-8.295	1.015	0.085644	0.100528	0.99186	4.2915	3.4605	-4.3305	0	28	1026	1
2026-02-11	16:17:26.170	2.765	-6.3	0.875	0.095404	0.100284	1.00284	4.275	3.447	-4.3395	0	28	1026	1
2026-02-11	16:17:26.190	3.15	-4.48	0.525	0.114192	0.102968	1.012112	4.266	3.45	-4.335	0	28	1026	1
2026-02-11	16:17:26.210	3.325	-3.08	0.385	0.12444	0.104432	1.017968	4.275	3.4455	-4.3305	0	27	1026	1
2026-02-11	16:17:26.230	2.52	-1.4	0.7	0.126148	0.108824	1.022604	4.284	3.4455	-4.3275	0	27	1026	1
2026-02-11	16:17:26.250	1.645	-0.35	1.365	0.123708	0.1037	1.020652	4.2915	3.45	-4.326	0	27	1026	1
2026-02-11	16:17:26.270	1.085	0	2.275	0.120048	0.113216	1.028704	4.2825	3.4545	-4.332	0	27	1026	1
2026-02-11	16:17:26.290	0.385	0.315	3.395	0.110776	0.118828	1.035292	4.2735	3.4545	-4.338	0	27	1026	1
2026-02-11	16:17:26.310	-0.735	1.155	4.06	0.1098	0.115412	1.034316	4.275	3.453	-4.3395	0	27	1026	1
2026-02-11	16:17:26.330	-1.75	1.925	3.955	0.10858	0.113704	1.019188	4.2765	3.4425	-4.3395	0	27	1026	1
2026-02-11	16:17:26.350	-2.1	2.52	3.57	0.096624	0.11346	0.995032	4.272	3.4515	-4.335	0	27	1026	1
2026-02-11	16:17:26.370	-1.575	3.325	3.36	0.086376	0.119316	0.983076	4.263	3.4395	-4.3335	0	27	1026	1
2026-02-11	16:17:26.390	-0.84	4.445	3.43	0.0915	0.119316	0.987468	4.26	3.4545	-4.3305	0	27	1026	1
2026-02-11	16:17:26.410	-0.665	5.81	3.15	0.095892	0.113948	0.991616	4.26	3.4545	-4.3305	0	25	1027	1
2026-02-11	16:17:26.430	-0.245	5.74	2.8	0.091012	0.111752	0.99186	4.26	3.444	-4.329	0	25	1027	1
2026-02-11	16:17:26.450	0.315	4.935	2.695	0.099308	0.116632	0.997228	4.263	3.438	-4.329	0	25	1027	1
2026-02-11	16:17:26.470	0.21	3.99	2.87	0.105896	0.126148	1.005036	4.2705	3.4455	-4.329	0	25	1027	1
2026-02-11	16:17:26.490	-0.315	3.115	3.255	0.099308	0.124928	1.001864	4.287	3.4515	-4.3365	0	25	1027	1
2026-02-11	16:17:26.510	-0.35	2.59	3.43	0.085156	0.11712	0.988444	4.3035	3.456	-4.3395	0	25	1027	1
2026-02-11	16:17:26.530	0.665	2.625	3.045	0.084668	0.1159	0.984296	4.3065	3.456	-4.332	0	25	1027	1
2026-02-11	16:17:26.550	1.89	2.975	2.555	0.089548	0.122488	0.992348	4.305	3.453	-4.332	0	25	1027	1
2026-02-11	16:17:26.570	2.415	3.29	2.1	0.095892	0.126636	1.003084	4.3035	3.45	-4.3335	0	25	1027	1
2026-02-11	16:17:26.590	2.065	3.36	1.715	0.089304	0.121756	1.000888	4.302	3.45	-4.332	0	25	1027	1
2026-02-11	16:17:26.610	1.995	3.185	1.75	0.082472	0.125904	0.99552	4.3065	3.4575	-4.347	0	24	1028	1
2026-02-11	16:17:26.630	2.31	2.905	1.995	0.075396	0.123708	1.00406	4.293	3.468	-4.3395	0	24	1028	1
2026-02-11	16:17:26.650	2.31	2.8	2.17	0.0793	0.12322	1.00772	4.3125	3.456	-4.3335	0	24	1028	1
2026-02-11	16:17:26.670	1.995	2.485	2.065	0.07808	0.114924	1.014064	4.32	3.4455	-4.335	0	24	1028	1
2026-02-11	16:17:26.690	1.435	1.96	1.75	0.08052	0.115168	1.014308	4.308	3.4425	-4.338	0	24	1028	1
2026-02-11	16:17:26.710	0.735	1.26	1.505	0.081984	0.117608	1.010648	4.29	3.4665	-4.3395	0	24	1028	1
2026-02-11	16:17:26.730	0.175	0.665	1.47	0.074664	0.116876	1.00162	4.272	3.456	-4.3485	0	24	1028	1
2026-02-11	16:17:26.750	0.035	0.35	1.61	0.0793	0.12566	0.995276	4.2705	3.4605	-4.347	0	24	1028	1
2026-02-11	16:17:26.770	0.28	0.42	1.715	0.081252	0.124928	0.997716	4.287	3.4455	-4.3365	0	24	1028	1
2026-02-11	16:17:26.790	0.595	0.35	1.225	0.080276	0.131028	1.01016	4.299	3.4485	-4.335	0	24	1028	1
2026-02-11	16:17:26.810	0.63	0.245	0.63	0.08174	0.13664	1.013332	4.3125	3.4485	-4.335	0	24	1027	1
2026-02-11	16:17:26.830	0.105	0.175	0	0.084424	0.134444	1.0065	4.3095	3.4455	-4.332	0	24	1027	1
2026-02-11	16:17:26.850	-0.595	0.245	-0.7	0.083204	0.124928	1.002108	4.296	3.4425	-4.3365	0	24	1027	1
2026-02-11	16:17:26.870	-1.365	0.63	-1.26	0.088084	0.126148	0.991616	4.2825	3.4425	-4.344	0	24	1027	1
2026-02-11	16:17:26.890	-1.995	1.155	-1.54	0.093208	0.123464	0.988932	4.2855	3.447	-4.344	0	24	1027	1
2026-02-11	16:17:26.910	-2.03	1.575	-1.715	0.094428	0.12322	0.992104	4.2885	3.4545	-4.341	0	24	1027	1
2026-02-11	16:17:26.930	-1.785	1.995	-1.715	0.09882	0.120292	0.99918	4.287	3.4575	-4.3395	0	24	1027	1
2026-02-11	16:17:26.950	-1.54	2.205	-1.365	0.09882	0.113216	0.999912	4.317	3.4575	-4.3365	0	24	1027	1
2026-02-11	16:17:26.970	-1.19	2.205	-0.84	0.09857599	0.104188	0.997228	4.314	3.453	-4.335	0	24	1027	1
2026-02-11	16:17:26.990	-0.805	2.24	-0.315	0.088084	0.10614	0.990152	4.2975	3.4485	-4.3365	0	24	1027	1
2026-02-11	16:17:27.010	0.21	2.24	0.175	0.082472	0.107848	0.986004	4.287	3.447	-4.341	0	23	1026	1
2026-02-11	16:17:27.030	1.295	2.24	0.525	0.0793	0.113704	0.988444	4.2885	3.45	-4.3425	0	23	1026	1
2026-02-11	16:17:27.050	2.1	2.03	0.735	0.073932	0.119804	0.990884	4.293	3.453	-4.3455	0	23	1026	1
2026-02-11	16:17:27.070	2.52	1.61	0.525	0.0732	0.117364	1.00284	4.3035	3.453	-4.3395	0	23	1026	1
2026-02-11	16:17:27.090	2.415	1.19	-0.175	0.08174	0.121756	1.00894	4.3125	3.4515	-4.335	0	23	1026	1
2026-02-11	16:17:27.110	1.89	0.84	-0.805	0.08686399	0.127612	1.005524	4.314	3.447	-4.3335	0	23	1026	1
2026-02-11	16:17:27.130	1.645	0.525	-0.945	0.08052	0.129076	0.991616	4.3125	3.45	-4.3305	0	23	1026	1
2026-02-11	16:17:27.150	1.925	0.875	-0.77	0.078812	0.125416	0.985028	4.3125	3.45	-4.3305	0	23	1026	1
2026-02-11	16:17:27.170	2.205	1.54	-0.63	0.081252	0.125904	1.00528	4.311	3.4485	-4.3335	0	23	1026	1
2026-02-11	16:17:27.190	2.345	1.75	-0.875	0.08052	0.122488	1.023092	4.32	3.4425	-4.332	0	23	1026	1
2026-02-11	16:17:27.210	2.1	1.26	-1.645	0.088816	0.117364	1.030656	4.308	3.453	-4.3335	0	22	1025	1
2026-02-11	16:17:27.230	1.085	0.42	-1.995	0.081008	0.126148	1.02236	4.317	3.4545	-4.3365	0	22	1025	1
2026-02-11	16:17:27.250	0.315	-0.245	-1.645	0.072956	0.126148	1.006988	4.311	3.456	-4.338	0	22	1025	1
2026-02-11	16:17:27.270	0.35	-0.035	-1.12	0.070272	0.126148	1.004548	4.3155	3.4635	-4.3455	0	22	1025	1
2026-02-11	16:17:27.290	0.49	0.91	-0.875	0.08418	0.13298	1.005524	4.32	3.441	-4.332	0	22	1025	1
2026-02-11	16:17:27.310	0.665	1.96	-0.7	0.097356	0.130296	1.000888	4.3155	3.444	-4.3245	0	22	1025	1
2026-02-11	16:17:27.330	0.98	2.59	-0.455	0.091988	0.128344	1.000156	4.299	3.45	-4.3335	0	22	1025	1
2026-02-11	16:17:27.350	1.225	2.625	0.035	0.085156	0.126392	1.001376	4.29	3.456	-4.341	0	22	1025	1
2026-02-11	16:17:27.370	1.33	1.785	1.015	0.070272	0.130296	1.007476	4.3065	3.4545	-4.3395	0	22	1025	1
2026-02-11	16:17:27.390	1.05	0.35	2.205	0.059048	0.126392	1.016748	4.314	3.4515	-4.3395	0	22	1025	1
2026-02-11	16:17:27.410	0.49	-0.735	2.905	0.046604	0.129808	1.025532	4.2975	3.456	-4.3455	0	21	1025	1
2026-02-11	16:17:27.430	-0.035	-1.61	2.73	0.048312	0.126148	1.029192	4.2825	3.4575	-4.353	0	21	1025	1
2026-02-11	16:17:27.450	-0.7	-2.415	1.575	0.057584	0.127368	1.020896	4.284	3.453	-4.353	0	21	1025	1
2026-02-11	16:17:27.470	-1.925	-2.835	0.07	0.063928	0.13908	1.006256	4.284	3.456	-4.35	0	21	1025	1
2026-02-11	16:17:27.490	-2.905	-2.975	-1.085	0.071736	0.145912	0.994788	4.2825	3.456	-4.344	0	21	1025	1
2026-02-11	16:17:27.510	-3.185	-3.92	-1.575	0.081252	0.148596	0.987468	4.284	3.4515	-4.3395	0	21	1025	1
2026-02-11	16:17:27.530	-3.15	-4.48	-1.47	0.07808	0.14762	0.984052	4.281	3.459	-4.353	0	21	1025	1
2026-02-11	16:17:27.550	-2.905	-4.375	-1.785	0.066612	0.128832	0.985272	4.284	3.4425	-4.3485	0	21	1025	1
2026-02-11	16:17:27.570	-2.135	-3.43	-3.15	0.06466	0.118584	0.997228	4.281	3.447	-4.347	0	21	1025	1
2026-02-11	16:17:27.590	-0.735	-2.205	-5.215	0.08295999	0.120048	1.010404	4.296	3.4605	-4.344	0	21	1025	1
2026-02-11	16:17:27.610	0.665	-1.33	-6.51	0.09394	0.116876	1.006256	4.3095	3.465	-4.3425	0	21	1026	1
2026-02-11	16:17:27.630	0.98	-0.875	-6.475	0.10004	0.114924	0.994788	4.305	3.4635	-4.3425	0	21	1026	1
2026-02-11	16:17:27.650	0.84	-0.455	-5.25	0.09857599	0.113948	0.986736	4.2945	3.4575	-4.3425	0	21	1026	1
2026-02-11	16:17:27.670	1.12	-0.245	-3.43	0.100772	0.116144	0.991128	4.3005	3.4485	-4.338	0	21	1026	1
2026-02-11	16:17:27.690	0.875	-0.035	-1.05	0.113216	0.117608	1.013332	4.314	3.4515	-4.335	0	21	1026	1
2026-02-11	16:17:27.710	-0.63	0.035	-0.035	0.111752	0.117608	1.019188	4.3185	3.4425	-4.35	0	21	1026	1
2026-02-11	16:17:27.730	-1.785	-0.315	0.665	0.100772	0.125904	1.014552	4.32	3.447	-4.335	0	21	1026	1
2026-02-11	16:17:27.750	-2.38	-0.665	1.365	0.085644	0.125416	1.003816	4.3095	3.4485	-4.332	0	21	1026	1
2026-02-11	16:17:27.770	-2.38	-0.595	1.785	0.078324	0.129808	0.999424	4.308	3.447	-4.3335	0	21	1026	1
2026-02-11	16:17:27.790	-1.96	-0.14	1.61	0.07905599	0.125904	0.998692	4.308	3.444	-4.3305	0	21	1026	1
2026-02-11	16:17:27.810	-1.61	0.525	0.945	0.081252	0.12688	1.00406	4.3065	3.4455	-4.338	0	20	1026	1
2026-02-11	16:17:27.830	-1.365	1.05	-0.035	0.077348	0.119072	1.001132	4.3065	3.4515	-4.3305	0	20	1026	1
2026-02-11	16:17:27.850	-0.735	1.155	-0.945	0.073444	0.110776	0.99796	4.3065	3.4425	-4.3365	0	20	1026	1
2026-02-11	16:17:27.870	-0.455	0.805	-1.4	0.087352	0.119804	1.013576	4.302	3.4665	-4.332	0	20	1026	1
2026-02-11	16:17:27.890	-1.26	0.42	-0.98	0.08906	0.11956	1.021872	4.3035	3.459	-4.3305	0	20	1026	1
2026-02-11	16:17:27.910	-2.065	-0.21	-0.735	0.08174	0.114924	1.014796	4.311	3.4515	-4.329	0	20	1026	1
2026-02-11	16:17:27.930	-2.45	-1.015	-0.805	0.078568	0.117852	1.006988	4.3155	3.4515	-4.3305	0	20	1026	1
2026-02-11	16:17:27.950	-2.31	-1.61	-0.98	0.07686	0.1159	1.001132	4.314	3.453	-4.3335	0	20	1026	1
2026-02-11	16:17:27.970	-1.89	-1.82	-0.91	0.07686	0.119316	0.996008	4.317	3.4515	-4.3335	0	20	1026	1
2026-02-11	16:17:27.990	-1.47	-1.575	-0.77	0.082228	0.121756	0.997716	4.3155	3.45	-4.329	0	20	1026	1
2026-02-11	16:17:28.010	-0.805	-1.085	-0.63	0.081984	0.12322	0.998204	4.3125	3.45	-4.3275	0	20	1026	1
2026-02-11	16:17:28.030	0.105	-0.875	-0.525	0.082716	0.124196	0.996252	4.302	3.45	-4.3365	0	20	1026	1
2026-02-11	16:17:28.050	1.75	-0.105	-0.56	0.081252	0.12444	1.007964	4.293	3.45	-4.3455	0	20	1026	1
2026-02-11	16:17:28.070	1.575	1.12	-0.91	0.081496	0.114924	1.008452	4.293	3.45	-4.3455	0	20	1026	1
2026-02-11	16:17:28.090	0.665	1.82	-1.19	0.095892	0.117364	1.016504	4.314	3.447	-4.335	0	20	1026	1
2026-02-11	16:17:28.110	0.14	1.26	-1.155	0.091012	0.1159	1.015772	4.3155	3.4455	-4.3335	0	20	1026	1
2026-02-11	16:17:28.130	-0.945	0.56	-0.875	0.092476	0.118584	1.024556	4.29	3.4455	-4.341	0	20	1026	1
2026-02-11	16:17:28.150	-2.31	-0.105	-0.735	0.095648	0.119316	1.026752	4.296	3.4515	-4.338	0	20	1026	1
2026-02-11	16:17:28.170	-3.325	-1.085	-0.805	0.09028	0.12078	1.019432	4.2885	3.4425	-4.3425	0	20	1026	1
2026-02-11	16:17:28.190	-3.99	-1.47	-0.84	0.085644	0.122	1.007476	4.2795	3.444	-4.335	0	20	1026	1
2026-02-11	16:17:28.210	-4.165	-0.77	-0.805	0.085888	0.115412	1.003084	4.278	3.4455	-4.3335	0	19	1027	1
2026-02-11	16:17:28.230	-3.99	0.455	-0.42	0.095648	0.110044	0.999912	4.278	3.447	-4.3335	0	19	1027	1
2026-02-11	16:17:28.250	-3.85	1.715	0.175	0.093452	0.108824	0.9882	4.278	3.447	-4.3335	0	19	1027	1
2026-02-11	16:17:28.270	-3.29	2.345	0.49	0.086376	0.098088	0.983808	4.2765	3.4485	-4.332	0	19	1027	1
2026-02-11	16:17:28.290	-2.31	3.01	0.595	0.083936	0.10126	0.987956	4.323	3.4545	-4.3335	0	19	1027	1
2026-02-11	16:17:28.310	-1.505	3.675	0.735	0.094184	0.110532	1.00284	4.3065	3.45	-4.3305	0	19	1027	1
2026-02-11	16:17:28.330	-1.085	4.165	0.98	0.098088	0.115656	1.011624	4.32	3.4485	-4.3335	0	19	1027	1
2026-02-11	16:17:28.350	-0.63	4.445	1.295	0.09516	0.117364	1.010648	4.32	3.444	-4.332	0	19	1027	1
2026-02-11	16:17:28.370	-0.35	4.515	1.68	0.0915	0.111508	1.004792	4.305	3.468	-4.3245	0	19	1027	1
2026-02-11	16:17:28.390	-0.665	4.655	1.995	0.083692	0.104676	0.999668	4.317	3.45	-4.338	0	19	1027	1
2026-02-11	16:17:28.410	-0.945	3.85	2.485	0.068076	0.103456	0.99918	4.3125	3.444	-4.3305	0	19	1027	1
2026-02-11	16:17:28.430	-0.945	2.205	2.975	0.051972	0.109068	1.007232	4.314	3.453	-4.332	0	19	1027	1
2026-02-11	16:17:28.450	-1.54	1.12	2.73	0.049776	0.1098	1.01626	4.317	3.459	-4.338	0	19	1027	1
2026-02-11	16:17:28.470	-2.52	0.14	1.89	0.04636	0.112728	1.020652	4.314	3.456	-4.341	0	19	1027	1
2026-02-11	16:17:28.490	-2.765	-0.805	0.7	0.053436	0.119804	1.008208	4.3155	3.459	-4.3365	0	19	1027	1
2026-02-11	16:17:28.510	-1.96	-1.61	-0.105	0.055632	0.114192	0.986492	4.317	3.462	-4.3365	0	19	1027	1
2026-02-11	16:17:28.530	-0.7	-1.68	-0.595	0.063928	0.113948	0.979172	4.317	3.459	-4.3365	0	19	1027	1
2026-02-11	16:17:28.550	0.91	-1.645	-0.91	0.0671	0.106384	0.977952	4.317	3.4545	-4.335	0	19	1027	1
2026-02-11	16:17:28.570	2.59	-1.925	-1.26	0.066612	0.09638	0.98454	4.308	3.4575	-4.338	0	19	1027	1
2026-02-11	16:17:28.590	3.01	-2.415	-1.75	0.074908	0.09516	1.00772	4.2975	3.4635	-4.344	0	19	1027	1
2026-02-11	16:17:28.610	2.03	-3.535	-1.75	0.072712	0.108824	1.020652	4.296	3.4665	-4.3455	0	18	1027	1
2026-02-11	16:17:28.630	1.155	-4.585	-1.47	0.068076	0.107604	1.01382	4.293	3.45	-4.3335	0	18	1027	1
2026-02-11	16:17:28.650	0.63	-5.11	-1.365	0.06588	0.113948	1.006012	4.2885	3.444	-4.323	0	18	1027	1
2026-02-11	16:17:28.670	0.525	-5.215	-1.505	0.069784	0.11834	1.000156	4.317	3.45	-4.3275	0	18	1027	1
2026-02-11	16:17:28.690	0.7	-4.935	-1.82	0.073932	0.11224	0.997472	4.3185	3.45	-4.3305	0	18	1027	1
2026-02-11	16:17:28.710	1.05	-4.445	-2.345	0.077348	0.108092	0.993324	4.2915	3.4545	-4.3395	0	18	1027	1
2026-02-11	16:17:28.730	1.68	-3.815	-3.01	0.073688	0.110776	0.992592	4.2885	3.4575	-4.3305	0	18	1027	1
2026-02-11	16:17:28.750	2.345	-2.975	-3.605	0.078324	0.1098	1.00772	4.2855	3.453	-4.335	0	18	1027	1
2026-02-11	16:17:28.770	2.38	-2.205	-3.885	0.088084	0.111508	1.028216	4.2885	3.4485	-4.3425	0	18	1027	1
2026-02-11	16:17:28.790	0.98	-2.065	-3.64	0.093208	0.10248	1.027728	4.2885	3.4485	-4.3425	0	18	1027	1
2026-02-11	16:17:28.810	0.035	-2.345	-3.43	0.087108	0.09272	1.016016	4.281	3.447	-4.338	0	18	1027	1
2026-02-11	16:17:28.830	-0.595	-2.38	-3.185	0.094428	0.097112	1.009184	4.275	3.4455	-4.3335	0	18	1027	1
2026-02-11	16:17:28.850	-1.26	-1.96	-2.66	0.101992	0.104676	1.012112	4.275	3.444	-4.332	0	18	1027	1
2026-02-11	16:17:28.870	-1.505	-1.4	-1.995	0.108824	0.106628	1.001864	4.275	3.4365	-4.3275	0	18	1027	1
2026-02-11	16:17:28.890	-1.295	-0.63	-1.225	0.110776	0.107848	1.00162	4.2675	3.438	-4.3365	0	18	1027	1
2026-02-11	16:17:28.910	-1.12	0.105	-0.455	0.102236	0.101992	1.002352	4.3125	3.459	-4.335	0	18	1027	1
2026-02-11	16:17:28.930	-1.12	0.42	0.28	0.097844	0.097844	1.005768	4.311	3.4515	-4.332	0	18	1027	1
2026-02-11	16:17:28.950	-1.365	0.385	0.77	0.098332	0.097112	1.007476	4.308	3.456	-4.332	0	18	1027	1
2026-02-11	16:17:28.970	-1.435	0	1.365	0.087352	0.099796	1.002108	4.311	3.4515	-4.329	0	18	1027	1
2026-02-11	16:17:28.990	-1.365	0.14	1.96	0.089304	0.105896	0.999912	4.3065	3.453	-4.332	0	18	1027	1
2026-02-11	16:17:29.010	-1.225	0.21	2.66	0.089792	0.102968	0.999668	4.3095	3.4575	-4.3335	0	18	1027	1
2026-02-11	16:17:29.030	-0.98	0.385	2.905	0.082472	0.10126	0.997716	4.314	3.453	-4.3335	0	18	1027	1
2026-02-11	16:17:29.050	-0.805	0.7	2.625	0.083448	0.104432	0.996496	4.311	3.45	-4.332	0	18	1027	1
2026-02-11	16:17:29.070	-0.455	0.875	2.17	0.08662	0.105408	0.998448	4.311	3.45	-4.326	0	18	1027	1
2026-02-11	16:17:29.090	-0.14	0.7	2.03	0.087108	0.105408	1.001376	4.3065	3.4515	-4.3275	0	18	1027	1
2026-02-11	16:17:29.110	-0.14	0.525	2.03	0.086376	0.102724	1.006256	4.3065	3.456	-4.332	0	18	1027	1
2026-02-11	16:17:29.130	-0.14	0.175	2.03	0.09028	0.107116	1.009672	4.3095	3.4545	-4.335	0	18	1027	1
2026-02-11	16:17:29.150	-0.245	0.245	1.855	0.084912	0.098332	1.009184	4.311	3.453	-4.338	0	18	1027	1
2026-02-11	16:17:29.170	-0.21	0.525	1.645	0.079788	0.099308	1.009672	4.3125	3.459	-4.332	0	18	1027	1
2026-02-11	16:17:29.190	0	0.595	1.61	0.082716	0.099308	1.012844	4.2825	3.4575	-4.3365	0	18	1027	1
2026-02-11	16:17:29.210	0.035	0.525	1.575	0.078324	0.100772	1.011624	4.2765	3.453	-4.3425	0	18	1027	1
2026-02-11	16:17:29.230	0	0.49	1.54	0.07686	0.099552	1.007964	4.2825	3.4755	-4.341	0	18	1027	1
2026-02-11	16:17:29.250	0	0.245	1.47	0.082472	0.105896	1.004304	4.281	3.4635	-4.3335	0	18	1027	1
2026-02-11	16:17:29.270	-0.035	0.315	1.505	0.082716	0.097356	1.000644	4.314	3.453	-4.323	0	18	1027	1
2026-02-11	16:17:29.290	0.035	0.315	1.295	0.079544	0.0915	0.994788	4.308	3.4635	-4.3275	0	18	1027	1
2026-02-11	16:17:29.310	0.63	0	0.84	0.08052	0.091744	1.003572	4.2885	3.4545	-4.3395	0	18	1027	1
2026-02-11	16:17:29.330	0.525	-0.35	0.525	0.087108	0.09857599	1.003328	4.281	3.4575	-4.3425	0	18	1027	1
2026-02-11	16:17:29.350	-0.07	-0.595	0.525	0.07905599	0.096136	0.99796	4.287	3.456	-4.341	0	18	1027	1
2026-02-11	16:17:29.370	0.245	-1.12	0.525	0.084424	0.099796	1.00162	4.2855	3.4485	-4.3365	0	18	1027	1
2026-02-11	16:17:29.390	0.665	-1.47	0.56	0.085644	0.107848	0.999912	4.275	3.4425	-4.335	0	18	1027	1
2026-02-11	16:17:29.410	0.77	-1.61	0.7	0.08662	0.105896	0.999424	4.272	3.441	-4.335	0	17	1027	1
2026-02-11	16:17:29.430	0.945	-1.54	0.77	0.08784	0.103456	0.995032	4.2915	3.447	-4.332	0	17	1027	1
2026-02-11	16:17:29.450	1.26	-1.33	0.735	0.0854	0.10736	0.996252	4.3095	3.4515	-4.335	0	17	1027	1
2026-02-11	16:17:29.470	1.61	-1.085	0.63	0.091744	0.106628	1.004792	4.3095	3.4485	-4.3395	0	17	1027	1
2026-02-11	16:17:29.490	1.82	-1.085	0.385	0.089304	0.099796	1.00406	4.3095	3.4485	-4.3395	0	17	1027	1
2026-02-11	16:17:29.510	1.89	-1.19	0.14	0.092476	0.099796	1.011624	4.287	3.4575	-4.3425	0	17	1027	1
2026-02-11	16:17:29.530	1.505	-1.015	0.42	0.093452	0.093696	1.008452	4.2855	3.456	-4.341	0	17	1027	1
2026-02-11	16:17:29.550	1.295	-0.735	0.875	0.087108	0.089792	1.003328	4.284	3.4515	-4.338	0	17	1027	1
2026-02-11	16:17:29.570	1.33	-0.455	1.225	0.09028	0.08784	1.006256	4.2795	3.441	-4.338	0	17	1027	1
2026-02-11	16:17:29.590	1.295	-0.14	1.505	0.091988	0.088816	1.009184	4.272	3.4395	-4.341	0	17	1027	1
2026-02-11	16:17:29.610	1.155	0.245	1.54	0.0915	0.088816	1.003328	4.272	3.4455	-4.341	0	16	1027	1
2026-02-11	16:17:29.630	1.155	0.525	1.54	0.082228	0.093452	1.00162	4.293	3.4485	-4.332	0	16	1027	1
2026-02-11	16:17:29.650	1.575	0.7	1.785	0.088816	0.099064	1.00284	4.3125	3.456	-4.3305	0	16	1027	1
2026-02-11	16:17:29.670	2.03	0.77	2.24	0.091988	0.109312	1.005768	4.3095	3.4515	-4.3365	0	16	1027	1
2026-02-11	16:17:29.690	2.03	1.05	2.555	0.09272	0.101504	1.00284	4.308	3.45	-4.332	0	16	1027	1
2026-02-11	16:17:29.710	1.715	1.12	2.205	0.085156	0.103212	1.002108	4.3125	3.4545	-4.3275	0	16	1027	1
2026-02-11	16:17:29.730	1.855	0.7	1.715	0.09028	0.111996	1.005524	4.314	3.4605	-4.3365	0	16	1027	1
2026-02-11	16:17:29.750	1.785	0.28	1.575	0.09394	0.115412	1.012112	4.32	3.444	-4.3305	0	16	1027	1
2026-02-11	16:17:29.770	1.225	0	1.715	0.097844	0.12932	1.015528	4.311	3.45	-4.3245	0	16	1027	1
2026-02-11	16:17:29.790	0.595	-0.21	2.03	0.089304	0.121512	1.012112	4.3125	3.4485	-4.3395	0	16	1027	1
2026-02-11	16:17:29.810	0.49	-0.49	2.065	0.082228	0.117608	1.001132	4.3065	3.4515	-4.3245	0	16	1027	1
2026-02-11	16:17:29.830	0.84	-0.665	1.575	0.076616	0.108824	1.000888	4.3095	3.453	-4.332	0	16	1027	1
2026-02-11	16:17:29.850	0.77	-0.49	0.665	0.088084	0.11102	1.012844	4.3125	3.4485	-4.3455	0	16	1027	1
2026-02-11	16:17:29.870	0	-0.385	0	0.093452	0.113704	1.011624	4.287	3.4545	-4.35	0	16	1027	1
2026-02-11	16:17:29.890	-0.77	-0.385	0.035	0.084912	0.109312	0.99918	4.287	3.4545	-4.35	0	16	1027	1
2026-02-11	16:17:29.910	-0.56	0	0.735	0.080276	0.107116	0.991372	4.299	3.453	-4.3395	0	16	1027	1
2026-02-11	16:17:29.930	-0.21	1.015	1.47	0.078568	0.108092	0.991128	4.3125	3.4515	-4.3305	0	16	1027	1
2026-02-11	16:17:29.950	0.07	2.345	2.205	0.084424	0.108336	0.999424	4.305	3.4485	-4.335	0	16	1027	1
2026-02-11	16:17:29.970	0.77	3.36	2.38	0.077348	0.104676	1.002596	4.29	3.456	-4.3395	0	16	1027	1
2026-02-11	16:17:29.990	1.505	4.025	2.1	0.08174	0.109312	1.0065	4.2915	3.4605	-4.3425	0	16	1027	1
2026-02-11	16:17:30.010	1.225	5.005	1.995	0.087108	0.113948	1.009916	4.3005	3.4545	-4.344	0	15	1027	1
2026-02-11	16:17:30.030	0.98	5.145	2.17	0.088328	0.116144	1.00894	4.2915	3.4455	-4.3395	0	15	1027	1
2026-02-11	16:17:30.050	1.225	4.865	2.38	0.073688	0.110532	1.006988	4.2825	3.4425	-4.335	0	15	1027	1
2026-02-11	16:17:30.070	0.63	5.11	2.275	0.093452	0.120536	1.01138	4.284	3.4485	-4.335	0	15	1027	1
2026-02-11	16:17:30.090	-0.7	5.46	2.415	0.08662	0.122976	1.003816	4.281	3.4395	-4.3335	0	15	1027	1
2026-02-11	16:17:30.110	-1.365	5.53	2.73	0.073688	0.121512	1.000156	4.272	3.447	-4.3425	0	15	1027	1
2026-02-11	16:17:30.130	-0.875	5.04	3.115	0.078324	0.127124	1.004792	4.281	3.447	-4.3395	0	15	1027	1
2026-02-11	16:17:30.150	-1.12	5.075	3.535	0.081008	0.125172	1.007476	4.29	3.4455	-4.341	0	15	1027	1
2026-02-11	16:17:30.170	-2.24	5.74	3.955	0.091012	0.126636	0.99552	4.287	3.441	-4.338	0	15	1027	1
2026-02-11	16:17:30.190	-2.59	6.055	4.41	0.081252	0.11468	0.976	4.2915	3.4395	-4.3335	0	15	1027	1
2026-02-11	16:17:30.210	-0.805	4.97	4.83	0.070272	0.113948	0.982588	4.293	3.4425	-4.341	0	14	1027	1
2026-02-11	16:17:30.230	1.505	3.325	4.97	0.062952	0.099796	1.001132	4.293	3.45	-4.3395	0	14	1027	1
2026-02-11	16:17:30.250	0.91	2.17	5.04	0.081252	0.110044	1.013332	4.296	3.456	-4.3305	0	14	1027	1
2026-02-11	16:17:30.270	-0.21	1.505	5.67	0.069784	0.10248	1.004304	4.329	3.4575	-4.335	0	14	1027	1
2026-02-11	16:17:30.290	0.385	0.14	6.335	0.057584	0.09516	0.998692	4.332	3.45	-4.3305	0	14	1027	1
2026-02-11	16:17:30.310	1.96	-1.47	6.65	0.052704	0.084668	1.00528	4.329	3.456	-4.338	0	14	1027	1
2026-02-11	16:17:30.330	2.135	-2.065	6.72	0.051972	0.090524	1.01748	4.323	3.447	-4.332	0	14	1027	1
2026-02-11	16:17:30.350	0.665	-1.54	7.07	0.055144	0.095404	1.009672	4.323	3.462	-4.332	0	14	1027	1
2026-02-11	16:17:30.370	-0.35	-0.56	7.49	0.045384	0.095648	0.996984	4.332	3.4545	-4.3335	0	14	1027	1
2026-02-11	16:17:30.390	0.035	0.805	7.525	0.045872	0.101504	0.983076	4.323	3.459	-4.338	0	14	1027	1
2026-02-11	16:17:30.410	1.4	2.52	7.14	0.05978	0.106628	0.995032	4.3215	3.4635	-4.326	0	14	1026	1
2026-02-11	16:17:30.430	2.45	4.865	5.775	0.0671	0.098332	1.004792	4.326	3.4575	-4.338	0	14	1026	1
2026-02-11	16:17:30.450	2.59	6.02	4.655	0.06832	0.08662	1.009916	4.314	3.459	-4.341	0	14	1026	1
2026-02-11	16:17:30.470	2.45	6.65	3.78	0.072956	0.092964	1.02114	4.3065	3.4575	-4.344	0	14	1026	1
2026-02-11	16:17:30.490	1.785	6.72	3.465	0.082228	0.08784	1.021628	4.3125	3.4545	-4.3425	0	14	1026	1
2026-02-11	16:17:30.510	0.84	6.09	3.29	0.0793	0.085644	1.019432	4.3125	3.456	-4.338	0	14	1026	1
2026-02-11	16:17:30.530	0.14	4.83	3.15	0.074908	0.083692	1.017724	4.3095	3.447	-4.332	0	14	1026	1
2026-02-11	16:17:30.550	0.07	2.66	3.185	0.073688	0.098332	1.024312	4.32	3.4455	-4.3305	0	14	1026	1
2026-02-11	16:17:30.570	0.105	0.21	3.255	0.06954	0.102968	1.023824	4.335	3.453	-4.3305	0	14	1026	1
2026-02-11	16:17:30.590	-0.385	-1.855	2.87	0.068808	0.101748	1.025044	4.3365	3.453	-4.3335	0	14	1026	1
2026-02-11	16:17:30.610	-1.33	-3.99	1.295	0.06832	0.097112	1.00772	4.338	3.453	-4.338	0	14	1026	1
2026-02-11	16:17:30.630	-1.61	-5.635	-0.63	0.060512	0.096136	0.982588	4.338	3.453	-4.338	0	14	1026	1
2026-02-11	16:17:30.650	-0.91	-6.23	-1.995	0.06222	0.105408	0.975024	4.335	3.453	-4.3365	0	14	1026	1
2026-02-11	16:17:30.670	0.07	-6.405	-3.01	0.062952	0.108824	0.978684	4.332	3.4485	-4.332	0	14	1026	1
2026-02-11	16:17:30.690	0.735	-6.055	-3.955	0.061488	0.109556	0.994788	4.338	3.4515	-4.344	0	14	1026	1
2026-02-11	16:17:30.710	0.49	-5.39	-5.32	0.06344	0.094428	1.003572	4.302	3.4545	-4.344	0	14	1026	1
2026-02-11	16:17:30.730	0.175	-5.075	-7.315	0.06344	0.096868	1.0065	4.311	3.4545	-4.3455	0	14	1026	1
2026-02-11	16:17:30.750	0.245	-5.25	-9.24	0.064904	0.10248	1.004792	4.29	3.4605	-4.3515	0	14	1026	1
2026-02-11	16:17:30.770	0.175	-5.25	-10.64	0.067832	0.112728	1.006256	4.2915	3.4515	-4.344	0	14	1026	1
2026-02-11	16:17:30.790	0.07	-5.74	-11.865	0.068808	0.113216	1.005036	4.2945	3.438	-4.3365	0	14	1026	1
2026-02-11	16:17:30.810	-0.21	-6.51	-13.055	0.070028	0.121756	1.009428	4.296	3.435	-4.3365	0	14	1027	1
2026-02-11	16:17:30.830	-1.33	-7	-13.825	0.076616	0.135176	1.006256	4.2915	3.4425	-4.332	0	14	1027	1
2026-02-11	16:17:30.850	-3.115	-7.105	-14.35	0.07564	0.140056	0.995764	4.278	3.4365	-4.338	0	14	1027	1
2026-02-11	16:17:30.870	-4.41	-7.21	-14.49	0.065148	0.138592	0.98698	4.2885	3.444	-4.335	0	14	1027	1
2026-02-11	16:17:30.890	-4.445	-7.525	-14.245	0.055876	0.144936	0.976	4.2885	3.435	-4.338	0	14	1027	1
2026-02-11	16:17:30.910	-3.325	-7.7	-13.16	0.049532	0.14884	0.975268	4.329	3.459	-4.3365	0	14	1027	1
2026-02-11	16:17:30.930	-1.47	-7.805	-11.515	0.04392	0.155916	0.97966	4.3215	3.4515	-4.329	0	14	1027	1
2026-02-11	16:17:30.950	0.42	-7.35	-9.695	0.031476	0.148352	0.98454	4.3185	3.4455	-4.329	0	14	1027	1
2026-02-11	16:17:30.970	3.57	-6.09	-7.665	-0.003416	0.118096	0.961848	4.308	3.4485	-4.332	0	14	1027	1
2026-02-11	16:17:30.990	8.785	-5.285	-6.335	-0.0244	0.096624	0.959896	4.3065	3.45	-4.3305	0	14	1027	1
2026-02-11	16:17:31.010	13.545	-4.97	-5.425	-0.027084	0.10004	0.97478	4.3065	3.453	-4.329	0	15	1025	1
2026-02-11	16:17:31.030	17.045	-4.375	-4.235	-0.017324	0.110532	0.99796	4.308	3.4515	-4.3275	0	15	1025	1
2026-02-11	16:17:31.050	18.62	-3.64	-3.08	-0.010492	0.116632	1.02114	4.305	3.4485	-4.329	0	15	1025	1
2026-02-11	16:17:31.070	18.76	-3.325	-2.31	-0.002684	0.119072	1.030168	4.3065	3.4485	-4.3335	0	15	1025	1
2026-02-11	16:17:31.090	17.255	-3.185	-1.995	-0.002928	0.126148	1.0187	4.3065	3.4485	-4.338	0	15	1025	1
2026-02-11	16:17:31.110	15.05	-3.22	-1.68	-0.004636	0.140056	1.000644	4.3035	3.4425	-4.335	0	15	1025	1
2026-02-11	16:17:31.130	13.195	-3.29	-1.19	-0.00732	0.155428	0.991372	4.29	3.435	-4.335	0	15	1025	1
2026-02-11	16:17:31.150	11.34	-3.22	-0.63	-0.002196	0.1708	1.01016	4.2795	3.432	-4.335	0	15	1025	1
2026-02-11	16:17:31.170	7.595	-3.71	0.07	0.015372	0.181292	1.041148	4.284	3.4335	-4.332	0	15	1025	1
2026-02-11	16:17:31.190	4.445	-4.69	0.07	-0.000488	0.172752	1.05896	4.2705	3.417	-4.3365	0	15	1025	1
2026-02-11	16:17:31.210	1.96	-6.02	-0.42	-0.0061	0.159332	1.057984	4.3035	3.4365	-4.332	0	17	1024	1
2026-02-11	16:17:31.230	0	-7.42	-0.7	0.005368	0.152988	1.053592	4.3065	3.4245	-4.332	0	17	1024	1
2026-02-11	16:17:31.250	-2.03	-8.505	-0.42	0.016592	0.146156	1.048956	4.302	3.4245	-4.3425	0	17	1024	1
2026-02-11	16:17:31.270	-4.48	-8.68	0.595	0.02684	0.138104	1.047004	4.281	3.429	-4.338	0	17	1024	1
2026-02-11	16:17:31.290	-7.175	-8.295	2.17	0.03294	0.142252	1.04676	4.278	3.42	-4.341	0	17	1024	1
2026-02-11	16:17:31.310	-9.94	-7.525	4.2	0.04026	0.139324	1.035536	4.275	3.429	-4.3425	0	17	1024	1
2026-02-11	16:17:31.330	-12.04	-6.265	6.475	0.03782	0.14396	1.027728	4.2705	3.429	-4.347	0	17	1024	1
2026-02-11	16:17:31.350	-12.67	-4.2	9.625	0.043188	0.147864	1.03456	4.2705	3.429	-4.347	0	17	1024	1
2026-02-11	16:17:31.370	-11.41	-3.045	10.64	0.038796	0.13298	1.046272	4.2645	3.429	-4.335	0	17	1024	1
2026-02-11	16:17:31.390	-8.12	-2.59	10.29	0.050996	0.130052	1.061156	4.26	3.4305	-4.329	0	17	1024	1
2026-02-11	16:17:31.410	-2.835	-3.325	8.715	0.066124	0.1342	1.0797	4.2615	3.432	-4.3335	0	20	1028	1
2026-02-11	16:17:31.430	1.96	-4.025	6.475	0.081496	0.152256	1.095072	4.263	3.429	-4.3365	0	20	1028	1
2026-02-11	16:17:31.450	5.845	-4.97	4.655	0.096136	0.186904	1.093364	4.26	3.4245	-4.3335	0	20	1028	1
2026-02-11	16:17:31.470	8.19	-5.46	4.165	0.089304	0.201056	1.053592	4.2555	3.4395	-4.329	0	20	1028	1
2026-02-11	16:17:31.490	8.505	-3.745	4.585	0.053924	0.194712	0.98698	4.26	3.426	-4.3305	0	20	1028	1
2026-02-11	16:17:31.510	8.785	-0.35	5.285	0.0366	0.193736	0.935984	4.2615	3.429	-4.329	0	20	1028	1
2026-02-11	16:17:31.530	9.17	5.88	6.72	0.053192	0.208864	0.928664	4.269	3.4305	-4.3275	0	20	1028	1
2026-02-11	16:17:31.550	7.21	10.36	8.26	0.080276	0.218868	0.964776	4.278	3.438	-4.3365	0	20	1028	1
2026-02-11	16:17:31.570	4.55	13.16	9.975	0.086376	0.209108	0.986004	4.3005	3.4455	-4.341	0	20	1028	1
2026-02-11	16:17:31.590	2.73	13.58	7.21	0.096136	0.190808	0.985272	4.3155	3.4485	-4.326	0	20	1028	1
2026-02-11	16:17:31.610	1.96	12.565	5.565	0.109556	0.175436	0.988444	4.3245	3.4485	-4.3245	0	23	1034	1
2026-02-11	16:17:31.630	0.77	10.99	3.115	0.137128	0.180316	0.9943	4.329	3.4425	-4.3305	0	23	1034	1
2026-02-11	16:17:31.650	-0.63	8.68	0.7	0.159332	0.17812	0.98088	4.3275	3.441	-4.326	0	23	1034	1
2026-02-11	16:17:31.670	-1.96	5.88	-1.47	0.17934	0.181536	0.967948	4.329	3.4455	-4.3245	0	23	1034	1
2026-02-11	16:17:31.690	-3.535	3.36	-2.94	0.19398	0.185684	0.96136	4.338	3.4485	-4.3305	0	23	1034	1
2026-02-11	16:17:31.710	-5.705	0.525	-2.695	0.195932	0.19642	0.935008	4.3425	3.4455	-4.3365	0	23	1034	1
2026-02-11	16:17:31.730	-8.365	-1.47	-3.85	0.232044	0.215452	0.963556	4.3425	3.4455	-4.3365	0	23	1034	1
2026-02-11	16:17:31.750	-9.695	-2.695	-3.36	0.23058	0.201544	0.962092	4.38	3.477	-4.32	0	23	1034	1
2026-02-11	16:17:31.770	-8.995	-4.62	-3.535	0.216184	0.169092	0.966728	4.374	3.468	-4.323	0	23	1034	1
2026-02-11	16:17:31.790	-5.845	-6.65	-5.775	0.220332	0.149328	0.981612	4.3695	3.474	-4.3245	0	23	1034	1
2026-02-11	16:17:31.810	-4.55	-8.085	-6.685	0.219356	0.133712	1.005768	4.3455	3.477	-4.335	0	28	1032	1
2026-02-11	16:17:31.830	-2.66	-9.52	-7.49	0.212036	0.102968	1.008696	4.335	3.4815	-4.332	0	28	1032	1
2026-02-11	16:17:31.850	-0.105	-10.71	-8.05	0.201544	0.10126	1.0004	4.3215	3.48	-4.338	0	28	1032	1
2026-02-11	16:17:31.870	1.89	-11.095	-8.61	0.195688	0.102724	0.994056	4.3335	3.48	-4.3275	0	28	1032	1
2026-02-11	16:17:31.890	2.1	-10.115	-7.525	0.183244	0.111752	0.980636	4.305	3.465	-4.3335	0	28	1032	1
2026-02-11	16:17:31.910	1.715	-8.785	-5.355	0.171776	0.112484	0.95648	4.329	3.4695	-4.3305	0	28	1032	1
2026-02-11	16:17:31.930	1.155	-7.63	-3.885	0.155672	0.112728	0.955748	4.3485	3.4695	-4.329	0	28	1032	1
2026-02-11	16:17:31.950	0.42	-6.44	-3.08	0.15494	0.115656	0.971364	4.3395	3.474	-4.332	0	28	1032	1
2026-02-11	16:17:31.970	-1.33	-5.005	-2.835	0.152744	0.122976	0.988932	4.3275	3.4785	-4.335	0	28	1032	1
2026-02-11	16:17:31.990	-2.555	-3.92	-3.955	0.144692	0.133712	0.975512	4.3185	3.471	-4.335	0	28	1032	1
2026-02-11	16:17:32.010	-3.57	-2.59	-4.445	0.13054	0.119804	0.98698	4.32	3.4665	-4.332	0	35	1026	1
2026-02-11	16:17:32.030	-3.36	-2.03	-5.6	0.132736	0.133224	0.980392	4.305	3.4635	-4.335	0	35	1026	1
2026-02-11	16:17:32.050	-2.31	-1.82	-7	0.124928	0.1464	0.980392	4.2915	3.4605	-4.3395	0	35	1026	1
2026-02-11	16:17:32.070	-0.175	-1.89	-8.47	0.12566	0.156404	0.990152	4.3065	3.456	-4.323	0	35	1026	1
2026-02-11	16:17:32.090	1.505	-2.17	-10.045	0.132248	0.16348	0.99796	4.2825	3.453	-4.3305	0	35	1026	1
2026-02-11	16:17:32.110	2.555	-2.135	-11.34	0.12566	0.15006	0.989176	4.2585	3.441	-4.338	0	35	1026	1
2026-02-11	16:17:32.130	3.955	-2.275	-12.67	0.113704	0.146888	0.980392	4.2465	3.4365	-4.335	0	35	1026	1
2026-02-11	16:17:32.150	5.705	-2.205	-14.84	0.10736	0.130052	0.969412	4.227	3.432	-4.329	0	35	1026	1
2026-02-11	16:17:32.170	6.615	-1.855	-16.52	0.09467199	0.122	0.9821	4.212	3.4215	-4.3275	0	35	1026	1
2026-02-11	16:17:32.190	7.14	-1.4	-18.375	0.095648	0.117364	0.999424	4.221	3.4215	-4.3425	0	35	1026	1
2026-02-11	16:17:32.210	5.285	-0.665	-18.235	0.096868	0.105408	1.019188	4.2165	3.423	-4.3365	0	40	1020	1
2026-02-11	16:17:32.230	3.745	-0.595	-18.83	0.085156	0.093208	1.0187	4.191	3.4125	-4.3215	0	40	1020	1
2026-02-11	16:17:32.250	1.785	-0.875	-19.075	0.08295999	0.086132	1.020408	4.1835	3.408	-4.323	0	40	1020	1
2026-02-11	16:17:32.270	-1.015	-2.03	-19.635	0.109312	0.089792	1.014796	4.1805	3.4095	-4.3245	0	40	1020	1
2026-02-11	16:17:32.290	-3.045	-2.065	-19.635	0.116388	0.096868	1.006744	4.167	3.396	-4.3245	0	40	1020	1
2026-02-11	16:17:32.310	-3.745	-1.645	-19.95	0.120292	0.103456	0.983808	4.17	3.3855	-4.3305	0	40	1020	1
2026-02-11	16:17:32.330	-3.01	-0.98	-19.915	0.133712	0.112972	0.998448	4.164	3.393	-4.3335	0	40	1020	1
2026-02-11	16:17:32.350	-2.59	-0.035	-19.635	0.138592	0.1159	1.003084	4.176	3.399	-4.338	0	40	1020	1
2026-02-11	16:17:32.370	-2.415	1.015	-19.005	0.140788	0.11224	0.998204	4.158	3.3825	-4.332	0	40	1020	1
2026-02-11	16:17:32.390	-2.03	1.89	-18.305	0.132492	0.091012	0.991372	4.161	3.3945	-4.326	0	40	1020	1
2026-02-11	16:17:32.410	-1.925	2.87	-17.78	0.120292	0.081496	0.992836	4.1715	3.3945	-4.3275	0	44	1018	1
2026-02-11	16:17:32.430	-2.135	3.78	-17.535	0.111264	0.06344	1.001132	4.1565	3.39	-4.3305	0	44	1018	1
2026-02-11	16:17:32.450	-2.625	3.92	-17.045	0.106872	0.068808	1.02602	4.143	3.3945	-4.341	0	44	1018	1
2026-02-11	16:17:32.470	-3.15	3.675	-16.345	0.109068	0.067588	1.042612	4.149	3.39	-4.3365	0	44	1018	1
2026-02-11	16:17:32.490	-3.71	3.15	-15.435	0.111508	0.067588	1.052128	4.1625	3.3855	-4.3305	0	44	1018	1
2026-02-11	16:17:32.510	-4.55	3.08	-14.49	0.11346	0.058804	1.054324	4.1595	3.387	-4.3335	0	44	1018	1
2026-02-11	16:17:32.530	-5.145	3.43	-13.615	0.111508	0.057828	1.04554	4.1445	3.387	-4.3425	0	44	1018	1
2026-02-11	16:17:32.550	-4.585	3.78	-12.67	0.121268	0.074908	1.057984	4.1415	3.3855	-4.341	0	44	1018	1
2026-02-11	16:17:32.570	-3.15	3.885	-10.71	0.153964	0.111264	1.07238	4.14	3.3945	-4.338	0	44	1018	1
2026-02-11	16:17:32.590	-3.605	4.585	-7.98	0.157136	0.128588	1.061156	4.1385	3.3945	-4.338	0	44	1018	1
2026-02-11	16:17:32.610	-4.025	6.195	-6.055	0.155428	0.110532	1.04432	4.1385	3.3825	-4.332	0	46	1021	1
2026-02-11	16:17:32.630	-2.59	7.56	-5.18	0.155428	0.079788	1.040416	4.1385	3.3825	-4.3305	0	46	1021	1
2026-02-11	16:17:32.650	-1.575	7.42	-6.09	0.165188	0.07808	1.05896	4.1445	3.3855	-4.3215	0	46	1021	1
2026-02-11	16:17:32.670	-2.065	6.545	-7.28	0.175192	0.088328	1.087752	4.134	3.3885	-4.3305	0	46	1021	1
2026-02-11	16:17:32.690	-4.34	5.005	-7.84	0.188124	0.101504	1.091656	4.1505	3.381	-4.332	0	46	1021	1
2026-02-11	16:17:32.710	-7.175	2.94	-7.105	0.185928	0.109068	1.064084	4.149	3.384	-4.332	0	46	1021	1
2026-02-11	16:17:32.730	-8.96	0.875	-5.145	0.172752	0.109068	1.0248	4.1475	3.3885	-4.3305	0	46	1021	1
2026-02-11	16:17:32.750	-9.38	-0.42	-2.52	0.16348	0.11834	0.99064	4.146	3.384	-4.326	0	46	1021	1
2026-02-11	16:17:32.770	-8.785	-0.84	0.175	0.168848	0.124928	0.975756	4.1475	3.387	-4.3275	0	46	1021	1
2026-02-11	16:17:32.790	-7.84	0.14	2.695	0.16592	0.127368	0.949648	4.1475	3.3915	-4.329	0	46	1021	1
2026-02-11	16:17:32.810	-5.915	2.835	4.935	0.152012	0.119072	0.932812	4.146	3.3885	-4.326	0	48	1029	1
2026-02-11	16:17:32.830	-3.325	5.46	5.88	0.142984	0.120536	0.931348	4.146	3.3885	-4.326	0	48	1029	1
2026-02-11	16:17:32.850	-1.575	6.93	5.985	0.137128	0.1403	0.947696	4.1565	3.39	-4.317	0	48	1029	1
2026-02-11	16:17:32.870	-0.875	7.77	6.265	0.13054	0.16348	0.959164	4.194	3.411	-4.326	0	48	1029	1
2026-02-11	16:17:32.890	-1.155	7.595	7.245	0.132492	0.185684	0.970876	4.1895	3.408	-4.3215	0	48	1029	1
2026-02-11	16:17:32.910	-2.66	6.72	8.89	0.130296	0.201788	0.96136	4.1865	3.408	-4.3335	0	48	1029	1
2026-02-11	16:17:32.930	-5.53	5.635	11.62	0.107604	0.196908	0.961848	4.191	3.405	-4.329	0	48	1029	1
2026-02-11	16:17:32.950	-7.98	4.2	16.31	0.088084	0.204228	1.014064	4.1835	3.411	-4.3215	0	48	1029	1
2026-02-11	16:17:32.970	-10.325	3.395	13.23	0.0732	0.224968	0.926956	4.2315	3.438	-4.323	0	48	1029	1
2026-02-11	16:17:32.990	-9.975	1.54	14.455	0.068076	0.21716	0.948184	4.2465	3.4365	-4.3245	0	48	1029	1
2026-02-11	16:17:33.010	-6.825	-1.085	15.05	0.04636	0.207156	0.973804	4.245	3.4365	-4.326	0	49	1030	1
2026-02-11	16:17:33.030	-2.52	-3.43	14.98	0.048312	0.196908	0.993568	4.2465	3.4365	-4.3305	0	49	1030	1
2026-02-11	16:17:33.050	2.66	-5.635	14.63	0.054656	0.189344	1.019676	4.248	3.441	-4.3335	0	49	1030	1
2026-02-11	16:17:33.070	7.805	-7	13.86	0.057096	0.18178	1.006012	4.2465	3.447	-4.3305	0	49	1030	1
2026-02-11	16:17:33.090	11.9	-7.035	12.39	0.052948	0.157624	0.988444	4.248	3.441	-4.3245	0	49	1030	1
2026-02-11	16:17:33.110	13.93	-5.705	10.85	0.045872	0.139568	0.949648	4.236	3.4305	-4.326	0	49	1030	1
2026-02-11	16:17:33.130	15.295	-4.375	9.555	0.02318	0.113948	0.909632	4.2225	3.429	-4.332	0	49	1030	1
2026-02-11	16:17:33.150	16.24	-3.36	8.61	0.013664	0.114924	0.9211	4.2195	3.4305	-4.3335	0	49	1030	1
2026-02-11	16:17:33.170	14.49	-2.205	8.26	0.02318	0.138348	0.964776	4.2165	3.4275	-4.3305	0	49	1030	1
2026-02-11	16:17:33.190	8.925	-0.84	8.855	0.017568	0.137128	1.005768	4.2165	3.4245	-4.3305	0	49	1030	1
2026-02-11	16:17:33.210	3.99	-1.785	9.345	-0.004148	0.114924	1.007232	4.233	3.429	-4.3305	0	52	1024	1
2026-02-11	16:17:33.230	0.98	-4.06	9.345	-0.012688	0.104676	0.998692	4.2435	3.423	-4.326	0	52	1024	1
2026-02-11	16:17:33.250	-0.91	-5.81	8.785	-0.016592	0.089548	0.988444	4.2135	3.4305	-4.335	0	52	1024	1
2026-02-11	16:17:33.270	-0.98	-7.245	7.805	-0.015372	0.081252	0.978928	4.239	3.4305	-4.335	0	52	1024	1
2026-02-11	16:17:33.290	0.665	-8.61	6.895	-0.001952	0.082716	0.978928	4.2375	3.441	-4.326	0	52	1024	1
2026-02-11	16:17:33.310	2.1	-9.1	6.195	0.003172	0.083448	0.989176	4.2105	3.432	-4.3395	0	52	1024	1
2026-02-11	16:17:33.330	2.59	-8.365	5.565	-0.001464	0.07198	0.982832	4.206	3.429	-4.3365	0	52	1024	1
2026-02-11	16:17:33.350	3.675	-7.77	5.635	0.005368	0.078324	1.0004	4.2045	3.4305	-4.335	0	52	1024	1
2026-02-11	16:17:33.370	3.71	-6.72	6.86	0.006588	0.091012	1.006744	4.2045	3.4335	-4.335	0	52	1024	1
2026-02-11	16:17:33.390	2.695	-5.53	8.575	0.007076	0.083936	1.013576	4.2015	3.4125	-4.329	0	52	1024	1
2026-02-11	16:17:33.410	1.89	-4.725	10.22	0.00854	0.078324	1.020164	4.1985	3.426	-4.3335	0	55	1018	1
2026-02-11	16:17:33.430	1.96	-4.515	11.69	0.016348	0.08784	1.025044	4.203	3.417	-4.3305	0	55	1018	1
2026-02-11	16:17:33.450	0.595	-3.5	13.09	0.0366	0.105896	1.067256	4.194	3.417	-4.3305	0	55	1018	1
2026-02-11	16:17:33.470	-1.925	-2.66	14.07	0.058316	0.107848	1.081652	4.197	3.4095	-4.3275	0	55	1018	1
2026-02-11	16:17:33.490	-4.76	-1.995	14.63	0.04758	0.101992	1.063108	4.1955	3.417	-4.3305	0	55	1018	1
2026-02-11	16:17:33.510	-6.755	-0.805	15.155	0.046604	0.10004	1.047736	4.1895	3.4245	-4.329	0	55	1018	1
2026-02-11	16:17:33.530	-7.525	0.63	15.785	0.049044	0.10492	1.044076	4.197	3.4125	-4.326	0	55	1018	1
2026-02-11	16:17:33.550	-6.965	2.59	17.115	0.070516	0.105652	1.068476	4.197	3.4125	-4.326	0	55	1018	1
2026-02-11	16:17:33.570	-6.825	4.515	17.885	0.059048	0.081496	1.075796	4.2135	3.423	-4.32	0	55	1018	1
2026-02-11	16:17:33.590	-4.76	6.02	18.095	0.048068	0.0793	1.09312	4.233	3.432	-4.3155	0	55	1018	1
2026-02-11	16:17:33.610	0.735	5.32	18.48	0.085156	0.101748	1.1346	4.242	3.432	-4.3155	0	58	1021	1
2026-02-11	16:17:33.630	5.95	3.85	19.915	0.121024	0.131028	1.153876	4.2435	3.4365	-4.317	0	58	1021	1
2026-02-11	16:17:33.650	10.43	1.855	21.77	0.150304	0.154208	1.163636	4.239	3.4395	-4.3215	0	58	1021	1
2026-02-11	16:17:33.670	14.035	-0.49	23.03	0.180804	0.170312	1.139968	4.2405	3.441	-4.3245	0	58	1021	1
2026-02-11	16:17:33.690	15.4	-1.155	23.205	0.181536	0.169336	1.092876	4.2405	3.4425	-4.3215	0	58	1021	1
2026-02-11	16:17:33.710	14.525	0.665	21.105	0.159088	0.144204	1.016504	4.236	3.4395	-4.314	0	58	1021	1
2026-02-11	16:17:33.730	12.74	6.23	14.665	0.149328	0.157868	0.909144	4.2375	3.435	-4.308	0	58	1021	1
2026-02-11	16:17:33.750	11.095	12.46	11.235	0.155428	0.195444	0.878644	4.242	3.4275	-4.314	0	58	1021	1
2026-02-11	16:17:33.770	8.96	19.985	9.695	0.158112	0.22082	0.887916	4.2405	3.4335	-4.311	0	58	1021	1
2026-02-11	16:17:33.790	4.9	27.545	7.245	0.114192	0.152744	0.84668	4.2525	3.4245	-4.317	0	58	1021	1
2026-02-11	16:17:33.810	0.56	30.45	-7.35	0.196176	0.274988	0.827648	4.2795	3.483	-4.3395	0	62	1031	1
2026-02-11	16:17:33.830	-3.71	28.805	-29.05	0.243512	0.294996	1.011868	4.5375	3.75	-4.3605	0	62	1031	1
2026-02-11	16:17:33.850	-4.235	21.105	5.88	0.200568	0.25254	1.004548	4.596	3.9375	-4.383	0	62	1031	1
2026-02-11	16:17:33.870	-2.555	9.87	24.325	0.200568	0.20984	1.001376	4.629	4.005	-4.392	0	62	1031	1
2026-02-11	16:17:33.890	-2.835	1.785	26.075	0.195688	0.177388	0.973316	4.629	3.993	-4.386	0	62	1031	1
2026-02-11	16:17:33.910	-5.11	-4.76	25.585	0.169824	0.121268	0.91744	4.626	4.002	-4.3875	0	62	1031	1
2026-02-11	16:17:33.930	-4.515	-7.805	23.065	0.154452	0.0915	0.881572	4.6125	4.011	-4.392	0	62	1031	1
2026-02-11	16:17:33.950	-0.875	-10.36	19.355	0.147132	0.083448	0.866688	4.6005	4.014	-4.392	0	62	1031	1
2026-02-11	16:17:33.970	2.205	-10.78	15.015	0.155428	0.095648	0.87108	4.596	3.996	-4.3875	0	62	1031	1
2026-02-11	16:17:33.990	2.905	-8.75	10.745	0.1525	0.095404	0.879132	4.5915	3.9855	-4.3905	0	62	1031	1
2026-02-11	16:17:34.010	3.43	-5.95	6.265	0.142008	0.104432	0.890844	4.5915	3.9855	-4.3905	0	67	1027	1
2026-02-11	16:17:34.030	4.375	-5.32	4.69	0.144448	0.105896	0.88572	4.5975	3.99	-4.386	0	67	1027	1
2026-02-11	16:17:34.050	7	-5.53	3.99	0.129076	0.110532	0.890356	4.593	3.99	-4.3905	0	67	1027	1
2026-02-11	16:17:34.070	9.765	-5.775	4.375	0.120536	0.12078	0.910852	4.584	3.999	-4.3875	0	67	1027	1
2026-02-11	16:17:34.090	11.515	-5.39	6.16	0.11834	0.133712	0.929884	4.593	3.987	-4.3905	0	67	1027	1
2026-02-11	16:17:34.110	12.6	-5.25	8.54	0.098088	0.113948	0.945988	4.5915	3.987	-4.389	0	67	1027	1
2026-02-11	16:17:34.130	13.405	-5.635	10.115	0.08418	0.09857599	0.95526	4.5855	3.987	-4.3875	0	67	1027	1
2026-02-11	16:17:34.150	14.28	-6.125	11.13	0.08418	0.105896	0.970876	4.581	3.99	-4.3845	0	67	1027	1
2026-02-11	16:17:34.170	14.525	-6.195	11.725	0.08052	0.092964	0.982832	4.6035	3.999	-4.389	0	67	1027	1
2026-02-11	16:17:34.190	14.14	-5.705	11.27	0.07515199	0.082228	0.99552	4.617	4.002	-4.389	0	67	1027	1
2026-02-11	16:17:34.210	12.915	-4.515	9.87	0.06466	0.0671	1.006988	4.608	3.996	-4.3815	0	73	1013	1
2026-02-11	16:17:34.230	11.095	-2.695	7.98	0.061976	0.068076	1.027972	4.6065	3.9915	-4.383	0	73	1013	1
2026-02-11	16:17:34.250	8.645	-0.28	5.845	0.060756	0.069784	1.048956	4.605	3.996	-4.3875	0	73	1013	1
2026-02-11	16:17:34.270	5.075	2.03	3.08	0.064172	0.061732	1.093608	4.6065	4.002	-4.389	0	73	1013	1
2026-02-11	16:17:34.290	1.995	2.24	-0.525	0.05612	0.063928	1.133868	4.6065	4.002	-4.389	0	73	1013	1
2026-02-11	16:17:34.310	-1.435	1.785	-3.675	0.065392	0.082228	1.150948	4.6035	3.9885	-4.395	0	73	1013	1
2026-02-11	16:17:34.330	-5.285	1.085	-6.37	0.08662	0.114436	1.156316	4.599	3.984	-4.3875	0	73	1013	1
2026-02-11	16:17:34.350	-9.065	0.315	-8.365	0.09028	0.122976	1.131184	4.6035	3.9885	-4.389	0	73	1013	1
2026-02-11	16:17:34.370	-11.865	0.14	-10.15	0.092964	0.128832	1.098244	4.608	3.9915	-4.395	0	73	1013	1
2026-02-11	16:17:34.390	-13.16	1.015	-12.565	0.074664	0.128588	1.070184	4.6065	3.996	-4.3845	0	73	1013	1
2026-02-11	16:17:34.410	-12.25	1.505	-15.96	0.086376	0.145912	1.10044	4.6035	3.9885	-4.3845	0	78	1011	1
2026-02-11	16:17:34.430	-9.17	-1.855	-18.97	0.1159	0.20008	1.147288	4.581	3.99	-4.3935	0	78	1011	1
2026-02-11	16:17:34.450	-5.46	-10.465	-20.37	0.169336	0.272304	1.194624	4.5765	4.005	-4.3965	0	78	1011	1
2026-02-11	16:17:34.470	-5.215	-18.34	-19.67	0.203984	0.301096	1.170224	4.5885	4.0035	-4.3875	0	78	1011	1
2026-02-11	16:17:34.490	-7.245	-21.525	-18.725	0.199592	0.261568	1.107272	4.596	4.002	-4.383	0	78	1011	1
2026-02-11	16:17:34.510	-7.035	-24.01	-19.075	0.199836	0.23912	1.038708	4.5795	4.0005	-4.386	0	78	1011	1
2026-02-11	16:17:34.530	-4.935	-25.025	-19.985	0.203984	0.239608	0.94306	4.569	3.9975	-4.3875	0	78	1011	1
2026-02-11	16:17:34.550	-3.885	-21.385	-20.72	0.190564	0.234972	0.88084	4.563	3.996	-4.3875	0	78	1011	1
2026-02-11	16:17:34.570	-4.305	-13.65	-21.665	0.177388	0.243268	0.858636	4.551	3.9915	-4.386	0	78	1011	1
2026-02-11	16:17:34.590	-7.455	-3.08	-21.91	0.190564	0.266204	0.895724	4.5405	3.987	-4.38	0	78	1011	1
2026-02-11	16:17:34.610	-11.795	5.425	-21.945	0.214232	0.28792	0.942084	4.536	3.993	-4.377	0	84	1024	1
2026-02-11	16:17:34.630	-12.67	7.245	-25.2	0.211548	0.299876	0.991372	4.536	3.9975	-4.3785	0	84	1024	1
2026-02-11	16:17:34.650	-8.68	-1.68	-14	0.218624	0.318908	1.017236	4.536	3.9975	-4.3785	0	84	1024	1
2026-02-11	16:17:34.670	-7.875	-6.79	-8.89	0.216184	0.299632	1.001132	4.554	4.0245	-4.3845	0	84	1024	1
2026-02-11	16:17:34.690	-10.115	-8.54	-4.025	0.195932	0.264984	0.96136	4.5675	4.056	-4.3905	0	84	1024	1
2026-02-11	16:17:34.710	-11.62	-8.68	-1.995	0.170312	0.220088	0.897676	4.56	4.0605	-4.386	0	84	1024	1
2026-02-11	16:17:34.730	-9.94	-8.085	-1.4	0.14518	0.179096	0.855464	4.56	4.065	-4.383	0	84	1024	1
2026-02-11	16:17:34.750	-6.265	-6.335	-0.875	0.1342	0.167628	0.84546	4.593	4.0875	-4.386	0	84	1024	1
2026-02-11	16:17:34.770	-4.34	-2.135	-2.66	0.13542	0.172264	0.871324	4.614	4.098	-4.386	0	84	1024	1
2026-02-11	16:17:34.790	-5.285	3.36	-4.83	0.137372	0.17934	0.908168	4.6035	4.092	-4.3875	0	84	1024	1
2026-02-11	16:17:34.810	-6.545	7.035	-6.475	0.131516	0.175924	0.928908	4.599	4.0935	-4.3905	0	89	1026	1
2026-02-11	16:17:34.830	-4.445	6.02	-7.42	0.123952	0.180072	0.942572	4.599	4.095	-4.3875	0	89	1026	1
2026-02-11	16:17:34.850	-2.275	3.675	-7.28	0.126392	0.1891	0.95892	4.5975	4.0935	-4.383	0	89	1026	1
2026-02-11	16:17:34.870	-1.61	2.135	-5.775	0.130784	0.200324	0.963556	4.5945	4.089	-4.3875	0	89	1026	1
2026-02-11	16:17:34.890	-2.38	1.575	-3.92	0.12444	0.183244	0.958432	4.593	4.0905	-4.38	0	89	1026	1
2026-02-11	16:17:34.910	-2.31	0.63	-1.995	0.12444	0.182024	0.95526	4.593	4.0875	-4.386	0	89	1026	1
2026-02-11	16:17:34.930	-1.155	-0.945	0.07	0.129808	0.181292	0.958188	4.596	4.092	-4.395	0	89	1026	1
2026-02-11	16:17:34.950	-0.105	-2.065	2.03	0.129808	0.167628	0.959164	4.581	4.095	-4.386	0	89	1026	1
2026-02-11	16:17:34.970	0.245	-2.1	3.29	0.126392	0.162992	0.970144	4.599	4.089	-4.389	0	89	1026	1
2026-02-11	16:17:34.990	0.35	-2.03	4.13	0.121024	0.15982	0.99186	4.5945	4.0905	-4.398	0	89	1026	1
2026-02-11	16:17:35.010	0.945	-3.29	5.04	0.104188	0.149816	1.01504	4.5765	4.0935	-4.3965	0	94	1016	1
2026-02-11	16:17:35.030	0.945	-3.99	5.46	0.08295999	0.138348	1.01382	4.569	4.092	-4.395	0	94	1016	1
2026-02-11	16:17:35.050	0.315	-3.255	5.74	0.065392	0.131028	1.005768	4.5765	4.092	-4.3905	0	94	1016	1
2026-02-11	16:17:35.070	0.21	-1.855	5.67	0.04514	0.118096	1.003816	4.59	4.092	-4.3875	0	94	1016	1
2026-02-11	16:17:35.090	0.84	-0.595	5.145	0.042944	0.110288	1.011868	4.593	4.0875	-4.386	0	94	1016	1
2026-02-11	16:17:35.110	1.33	0.665	4.34	0.035624	0.102236	1.015772	4.5915	4.0875	-4.386	0	94	1016	1
2026-02-11	16:17:35.130	1.435	2.135	3.15	0.032696	0.09857599	1.03212	4.593	4.0905	-4.386	0	94	1016	1
2026-02-11	16:17:35.150	1.085	3.43	2.065	0.02806	0.102724	1.036756	4.596	4.0935	-4.386	0	94	1016	1
2026-02-11	16:17:35.170	0.63	4.305	1.645	0.031476	0.108824	1.053592	4.581	4.092	-4.392	0	94	1016	1
2026-02-11	16:17:35.190	-0.21	4.97	2.52	0.034648	0.11102	1.049932	4.569	4.0905	-4.398	0	94	1016	1
2026-02-11	16:17:35.210	-0.385	4.935	3.78	0.025132	0.106384	1.062132	4.569	4.0905	-4.398	0	96	1011	1
2026-02-11	16:17:35.230	0.77	3.395	4.725	0.045628	0.139324	1.093608	4.5645	4.077	-4.3845	0	96	1011	1
2026-02-11	16:17:35.250	2.625	0.315	6.09	0.055144	0.157868	1.116788	4.5765	4.0755	-4.389	0	96	1011	1
2026-02-11	16:17:35.270	3.675	-2.205	6.755	0.044652	0.1464	1.088484	4.5675	4.074	-4.389	0	96	1011	1
