yyyy-MM-dd	HH:mm:ss.fff	gyrX	gyrY	gyrZ	accX	accY	accZ	magX	magY	magZ	Marker	Energy	Angle	Classification
2026-02-23	16:53:40.210	1.4	-0.63	0.245	0.094428	0.080764	1.00162	-0.108	-0.177	0.0555	0	8	1032	1
2026-02-23	16:53:40.230	0.875	-0.525	0.245	0.095404	0.078568	1.012356	-0.117	-0.177	0.0585	0	8	1032	1
2026-02-23	16:53:40.250	1.155	-0.595	0.28	0.095404	0.079788	1.01138	-0.114	-0.174	0.057	0	8	1032	1
2026-02-23	16:53:40.270	1.4	-0.455	0.28	0.09394	0.082228	1.007476	-0.1095	-0.1725	0.054	0	8	1032	1
2026-02-23	16:53:40.290	1.19	-0.49	0.245	0.095892	0.083692	1.005524	-0.111	-0.1785	0.0585	0	8	1032	1
2026-02-23	16:53:40.310	1.155	-0.7	0.28	0.096624	0.079788	1.009428	-0.111	-0.1695	0.063	0	8	1032	1
2026-02-23	16:53:40.330	0.945	-0.42	0.28	0.096624	0.080276	1.0126	-0.1125	-0.165	0.0555	0	8	1032	1
2026-02-23	16:53:40.350	1.435	-0.595	0.245	0.097844	0.083204	1.005768	-0.1125	-0.177	0.0585	0	8	1032	1
2026-02-23	16:53:40.370	1.12	-0.42	0.245	0.09516	0.08052	1.008452	-0.1095	-0.1755	0.0525	0	8	1032	1
2026-02-23	16:53:40.390	1.225	-0.63	0.245	0.093696	0.081252	1.004304	-0.114	-0.1755	0.0555	0	8	1032	1
2026-02-23	16:53:40.410	0.875	-0.49	0.245	0.094428	0.08052	1.010892	-0.1155	-0.1725	0.0465	0	7	1032	1
2026-02-23	16:53:40.430	1.4	-0.63	0.28	0.097844	0.080764	1.007232	-0.114	-0.177	0.0585	0	7	1032	1
2026-02-23	16:53:40.450	1.12	-0.35	0.245	0.094916	0.08295999	1.009184	-0.1125	-0.1725	0.048	0	7	1032	1
2026-02-23	16:53:40.470	1.295	-0.7	0.21	0.097356	0.07905599	1.009184	-0.1155	-0.177	0.051	0	7	1032	1
2026-02-23	16:53:40.490	0.84	-0.315	0.21	0.094428	0.07905599	1.010648	-0.1155	-0.177	0.051	0	7	1032	1
2026-02-23	16:53:40.510	1.505	-0.7	0.245	0.094916	0.081252	1.00772	-0.1155	-0.1755	0.051	0	7	1032	1
2026-02-23	16:53:40.530	1.12	-0.455	0.245	0.097356	0.081984	1.006012	-0.1155	-0.174	0.0525	0	7	1032	1
2026-02-23	16:53:40.550	1.26	-0.63	0.245	0.097112	0.082472	1.009672	-0.1155	-0.1755	0.054	0	7	1032	1
2026-02-23	16:53:40.570	1.05	-0.42	0.28	0.09272	0.077592	1.009672	-0.1155	-0.177	0.0555	0	7	1032	1
2026-02-23	16:53:40.590	1.33	-0.595	0.245	0.095404	0.0854	1.009428	-0.1125	-0.174	0.0525	0	7	1032	1
2026-02-23	16:53:54.610	1.155	-0.525	0.28	0.09516	0.084424	1.006988	-0.1155	-0.177	0.0585	0	48	98	2
2026-02-23	16:53:54.630	1.295	-0.56	0.245	0.098088	0.08174	1.009184	-0.1155	-0.174	0.051	0	48	98	2
2026-02-23	16:53:54.650	1.61	-0.735	0.21	0.093208	0.080032	1.003572	-0.1185	-0.1785	0.0495	0	48	98	2
2026-02-23	16:53:54.670	0.805	-0.385	0.28	0.096868	0.081496	1.009428	-0.111	-0.174	0.0585	0	48	98	2
2026-02-23	16:53:54.690	11.41	-10.045	5.285	0.09394	0.085888	1.005036	-0.117	-0.174	0.051	0	48	98	2
2026-02-23	16:53:54.710	1.05	-0.49	0.245	0.09638	0.083692	1.007232	-0.114	-0.1725	0.048	0	48	98	2
2026-02-23	16:53:54.730	1.19	-0.56	0.28	0.09394	0.081008	1.00406	-0.111	-0.1725	0.0495	0	48	98	2
2026-02-23	16:53:54.750	1.155	-0.49	0.245	0.099064	0.08784	1.005768	-0.111	-0.1755	0.054	0	48	98	2
2026-02-23	16:53:54.770	1.155	-0.525	0.21	0.096136	0.08174	1.005036	-0.114	-0.1785	0.054	0	48	98	2
2026-02-23	16:53:54.790	1.225	-0.525	0.245	0.095404	0.082716	1.00772	-0.117	-0.183	0.054	0	48	98	2
2026-02-23	16:53:54.810	1.12	-0.49	0.245	0.098332	0.08295999	1.005524	-0.117	-0.183	0.054	0	157	303	2
2026-02-23	16:53:54.830	1.225	-0.525	0.28	0.096136	0.0854	1.00528	-0.1125	-0.177	0.054	0	157	303	2
2026-02-23	16:53:54.850	1.155	-0.49	0.245	0.097356	0.083448	1.00772	-0.1125	-0.177	0.054	0	157	303	2
2026-02-23	16:53:54.870	1.155	-0.49	0.245	0.0976	0.08295999	1.006012	-0.1095	-0.1755	0.051	0	157	303	2
2026-02-23	16:53:54.890	1.19	-0.525	0.245	0.095404	0.085888	1.0065	-0.108	-0.1755	0.048	0	157	303	2
2026-02-23	16:53:54.910	1.12	-0.525	0.245	0.09516	0.083692	1.008208	-0.111	-0.186	0.051	0	157	303	2
2026-02-23	16:53:54.930	1.155	-0.49	0.245	0.094428	0.088084	1.006988	-0.1155	-0.1815	0.051	0	157	303	2
2026-02-23	16:53:54.950	1.12	-0.49	0.245	0.095648	0.083448	1.008696	-0.108	-0.18	0.054	0	157	303	2
2026-02-23	16:53:54.970	1.155	-0.525	0.245	0.095648	0.082716	1.005036	-0.114	-0.18	0.051	0	157	303	2
2026-02-23	16:53:54.990	1.12	-0.49	0.21	0.095404	0.083936	1.007232	-0.1095	-0.171	0.054	0	157	303	2
2026-02-23	16:53:55.010	1.225	-0.525	0.245	0.095404	0.083692	1.006744	-0.12	-0.1785	0.048	0	267	499	1
2026-02-23	16:53:55.030	1.085	-0.455	0.28	0.09394	0.08174	1.008208	-0.114	-0.177	0.0525	0	267	499	1
2026-02-23	16:53:55.050	1.295	-0.56	0.21	0.097844	0.083204	1.008452	-0.117	-0.1815	0.0465	0	267	499	1
2026-02-23	16:53:55.070	1.12	-0.455	0.28	0.092232	0.085644	1.006256	-0.1095	-0.1785	0.051	0	267	499	1
2026-02-23	16:53:55.090	1.12	-0.56	0.245	0.095648	0.08174	1.0065	-0.1095	-0.177	0.054	0	267	499	1
2026-02-23	16:53:55.110	1.12	-0.56	0.28	0.095648	0.085644	1.007476	-0.117	-0.1845	0.0525	0	267	499	1
2026-02-23	16:53:55.130	1.12	-0.49	0.28	0.096624	0.083936	1.00772	-0.108	-0.186	0.0555	0	267	499	1
2026-02-23	16:53:55.150	1.19	-0.49	0.28	0.095648	0.084912	1.0065	-0.114	-0.18	0.0585	0	267	499	1
2026-02-23	16:53:55.170	1.155	-0.525	0.245	0.095404	0.085888	1.00894	-0.114	-0.18	0.0525	0	267	499	1
2026-02-23	16:53:55.190	1.19	-0.525	0.245	0.096868	0.082228	1.009672	-0.099	-0.1755	0.0495	0	267	499	1
2026-02-23	16:53:55.210	1.225	-0.49	0.245	0.097844	0.0854	1.010648	-0.1095	-0.177	0.0495	0	343	642	1
2026-02-23	16:53:55.230	1.19	-0.49	0.21	0.098088	0.086132	1.004548	-0.111	-0.183	0.0615	0	343	642	1
2026-02-23	16:53:55.250	1.12	-0.525	0.245	0.09638	0.085644	1.006744	-0.114	-0.18	0.0495	0	343	642	1
2026-02-23	16:53:55.270	1.12	-0.525	0.28	0.096624	0.08686399	1.008208	-0.1155	-0.174	0.0555	0	343	642	1
2026-02-23	16:53:55.290	1.12	-0.49	0.21	0.095892	0.0854	1.007232	-0.1035	-0.1665	0.0465	0	343	642	1
2026-02-23	16:53:55.310	1.19	-0.56	0.28	0.097112	0.084912	1.004548	-0.1125	-0.18	0.057	0	343	642	1
2026-02-23	16:53:55.330	1.12	-0.49	0.28	0.09516	0.083692	1.007964	-0.111	-0.1695	0.0465	0	343	642	1
2026-02-23	16:53:55.350	1.085	-0.49	0.28	0.096136	0.084668	1.007964	-0.114	-0.1785	0.051	0	343	642	1
2026-02-23	16:53:55.370	1.225	-0.56	0.21	0.095404	0.087596	1.008452	-0.1125	-0.183	0.0525	0	343	642	1
2026-02-23	16:53:55.390	1.05	-0.385	0.28	0.09638	0.08295999	1.006988	-0.1185	-0.1755	0.051	0	343	642	1
2026-02-23	16:53:55.410	1.295	-0.63	0.245	0.094428	0.083448	1.006256	-0.1065	-0.171	0.0465	0	383	747	1
2026-02-23	16:53:55.430	1.015	-0.42	0.245	0.09394	0.084668	1.009184	-0.1065	-0.1785	0.0555	0	383	747	1
2026-02-23	16:53:55.450	1.225	-0.595	0.21	0.095648	0.085156	1.007232	-0.1155	-0.174	0.0525	0	383	747	1
2026-02-23	16:53:55.470	1.05	-0.385	0.245	0.096136	0.085888	1.007476	-0.1185	-0.183	0.0495	0	383	747	1
2026-02-23	16:53:55.490	1.26	-0.56	0.21	0.095404	0.083936	1.004548	-0.1155	-0.1755	0.0495	0	383	747	1
2026-02-23	16:53:55.510	1.085	-0.525	0.245	0.094916	0.082472	1.006012	-0.117	-0.18	0.054	0	383	747	1
2026-02-23	16:53:55.530	1.12	-0.525	0.21	0.100772	0.08418	1.007964	-0.1185	-0.1695	0.0525	0	383	747	1
2026-02-23	16:53:55.550	1.19	-0.56	0.21	0.09882	0.08784	1.007476	-0.1035	-0.177	0.0615	0	383	747	1
2026-02-23	16:53:55.570	1.12	-0.455	0.21	0.09467199	0.08174	1.007232	-0.1155	-0.177	0.0525	0	383	747	1
2026-02-23	16:53:55.590	1.295	-0.595	0.245	0.095892	0.08418	1.0065	-0.117	-0.174	0.0555	0	383	747	1
2026-02-23	16:53:55.610	1.05	-0.455	0.245	0.093452	0.081496	1.00772	-0.1125	-0.1755	0.0615	0	393	823	1
2026-02-23	16:53:55.630	1.26	-0.595	0.245	0.0976	0.083936	1.008208	-0.1215	-0.1785	0.051	0	393	823	1
2026-02-23	16:53:55.650	1.12	-0.49	0.28	0.097356	0.083692	1.005768	-0.1215	-0.1785	0.051	0	393	823	1
2026-02-23	16:53:55.670	1.26	-0.56	0.245	0.096624	0.084912	1.006988	-0.1185	-0.1785	0.0495	0	393	823	1
2026-02-23	16:53:55.690	1.05	-0.49	0.245	0.095648	0.0854	1.007232	-0.1155	-0.1815	0.051	0	393	823	1
2026-02-23	16:53:55.710	1.26	-0.595	0.245	0.098332	0.083204	1.008696	-0.117	-0.1815	0.057	0	393	823	1
2026-02-23	16:53:55.730	1.085	-0.49	0.245	0.09882	0.080276	1.007964	-0.114	-0.177	0.0555	0	393	823	1
2026-02-23	16:53:55.750	1.19	-0.49	0.245	0.097356	0.08418	1.008452	-0.1125	-0.18	0.054	0	393	823	1
2026-02-23	16:53:55.770	1.12	-0.525	0.245	0.09638	0.08052	1.007476	-0.114	-0.186	0.0555	0	393	823	1
2026-02-23	16:53:55.790	1.155	-0.49	0.245	0.093452	0.083448	1.00772	-0.114	-0.1815	0.051	0	393	823	1
2026-02-23	16:53:55.810	1.26	-0.525	0.245	0.097356	0.0854	1.007964	-0.1125	-0.1785	0.051	0	378	879	1
2026-02-23	16:53:55.830	1.19	-0.49	0.21	0.099064	0.084912	1.007964	-0.114	-0.1815	0.0555	0	378	879	1
2026-02-23	16:53:55.850	1.12	-0.49	0.28	0.098088	0.081984	1.00894	-0.1155	-0.1815	0.054	0	378	879	1
2026-02-23	16:53:55.870	1.19	-0.56	0.28	0.094916	0.082228	1.008208	-0.1125	-0.1755	0.048	0	378	879	1
2026-02-23	16:53:55.890	1.085	-0.525	0.21	0.093452	0.087108	1.008452	-0.1095	-0.1695	0.0435	0	378	879	1
2026-02-23	16:53:55.910	1.155	-0.525	0.245	0.097112	0.083448	1.007476	-0.1185	-0.1785	0.054	0	378	879	1
2026-02-23	16:53:55.930	1.365	-0.525	0.21	0.091744	0.08686399	1.005768	-0.1185	-0.183	0.0435	0	378	879	1
2026-02-23	16:53:55.950	1.085	-0.49	0.245	0.094184	0.082472	1.008208	-0.1185	-0.183	0.0435	0	378	879	1
2026-02-23	16:53:55.970	1.225	-0.56	0.245	0.094916	0.084668	1.007232	-0.1095	-0.183	0.06	0	378	879	1
2026-02-23	16:53:55.990	1.12	-0.49	0.245	0.09638	0.083936	1.009184	-0.111	-0.18	0.0555	0	378	879	1
2026-02-23	16:53:56.010	1.225	-0.525	0.28	0.09857599	0.0854	1.006744	-0.1185	-0.1755	0.054	0	347	920	1
2026-02-23	16:53:56.030	1.12	-0.455	0.245	0.093452	0.085644	1.007964	-0.114	-0.1755	0.0525	0	347	920	1
2026-02-23	16:53:56.050	1.225	-0.525	0.245	0.095648	0.08418	1.009672	-0.1155	-0.177	0.048	0	347	920	1
2026-02-23	16:53:56.070	1.12	-0.525	0.245	0.096136	0.08295999	1.009672	-0.1155	-0.177	0.0525	0	347	920	1
2026-02-23	16:53:56.090	1.155	-0.525	0.245	0.094916	0.084668	1.007232	-0.1215	-0.1695	0.0525	0	347	920	1
2026-02-23	16:53:56.110	1.155	-0.525	0.245	0.097356	0.0854	1.0065	-0.1125	-0.1695	0.0495	0	347	920	1
2026-02-23	16:53:56.130	1.155	-0.49	0.245	0.098088	0.084912	1.009672	-0.12	-0.1755	0.0495	0	347	920	1
2026-02-23	16:53:56.150	1.19	-0.56	0.28	0.097844	0.08662	1.00894	-0.12	-0.183	0.0555	0	347	920	1
2026-02-23	16:53:56.170	1.085	-0.49	0.245	0.097356	0.085644	1.009428	-0.111	-0.177	0.0555	0	347	920	1
2026-02-23	16:53:56.190	1.19	-0.525	0.245	0.095648	0.083936	1.007476	-0.105	-0.18	0.054	0	347	920	1
2026-02-23	16:53:56.210	1.12	-0.455	0.28	0.096868	0.083692	1.009672	-0.1065	-0.1725	0.0555	0	309	950	1
2026-02-23	16:53:56.230	1.155	-0.525	0.28	0.093452	0.086376	1.005768	-0.114	-0.1845	0.0645	0	309	950	1
2026-02-23	16:53:56.250	1.12	-0.49	0.245	0.097112	0.084912	1.01016	-0.111	-0.1785	0.0495	0	309	950	1
2026-02-23	16:53:56.270	1.225	-0.56	0.245	0.095648	0.084424	1.008208	-0.1155	-0.1815	0.054	0	309	950	1
2026-02-23	16:53:56.290	1.085	-0.49	0.21	0.096624	0.083692	1.0065	-0.1125	-0.186	0.051	0	309	950	1
2026-02-23	16:53:56.310	1.19	-0.525	0.21	0.095404	0.083448	1.009672	-0.114	-0.183	0.0495	0	309	950	1
2026-02-23	16:53:56.330	1.155	-0.525	0.245	0.096624	0.081252	1.006256	-0.1095	-0.177	0.0585	0	309	950	1
2026-02-23	16:53:56.350	1.19	-0.56	0.245	0.09638	0.081984	1.01138	-0.114	-0.1725	0.045	0	309	950	1
2026-02-23	16:53:56.370	1.085	-0.49	0.245	0.0976	0.083936	1.007964	-0.117	-0.174	0.0495	0	309	950	1
2026-02-23	16:53:56.390	1.26	-0.595	0.245	0.097112	0.084424	1.009184	-0.1185	-0.177	0.048	0	309	950	1
2026-02-23	16:53:56.410	1.085	-0.525	0.245	0.093208	0.083448	1.00772	-0.1065	-0.1845	0.054	0	267	972	1
2026-02-23	16:53:56.430	1.225	-0.56	0.245	0.09857599	0.087596	1.009184	-0.1125	-0.1755	0.0555	0	267	972	1
2026-02-23	16:53:56.450	1.19	-0.49	0.28	0.094916	0.084912	1.00772	-0.1155	-0.1845	0.0525	0	267	972	1
2026-02-23	16:53:56.470	1.155	-0.49	0.245	0.097356	0.084424	1.006988	-0.1125	-0.177	0.045	0	267	972	1
2026-02-23	16:53:56.490	1.295	-0.56	0.245	0.095892	0.087108	1.014796	-0.12	-0.189	0.051	0	267	972	1
2026-02-23	16:53:56.510	0.805	-0.42	0.28	0.095892	0.088816	1.01992	-0.1155	-0.189	0.0525	0	267	972	1
2026-02-23	16:53:56.530	1.435	-0.595	0.21	0.100284	0.077592	0.99186	-0.1185	-0.1785	0.054	0	267	972	1
2026-02-23	16:53:56.550	1.365	-0.56	0.28	0.092476	0.07905599	0.996984	-0.1125	-0.1755	0.051	0	267	972	1
2026-02-23	16:53:56.570	0.805	-0.385	0.21	0.092232	0.08295999	1.003084	-0.111	-0.1785	0.048	0	267	972	1
2026-02-23	16:53:56.590	0.91	-0.49	0.245	0.099064	0.090036	1.023336	-0.1155	-0.1755	0.0435	0	267	972	1
2026-02-23	16:53:56.610	1.575	-0.56	0.245	0.098332	0.091012	1.022604	-0.1155	-0.174	0.048	0	228	987	1
2026-02-23	16:53:56.630	1.785	-0.63	0.245	0.093452	0.083448	0.996496	-0.114	-0.1845	0.054	0	228	987	1
2026-02-23	16:53:56.650	0.525	-0.385	0.245	0.089548	0.081496	0.997716	-0.1125	-0.1845	0.0585	0	228	987	1
2026-02-23	16:53:56.670	1.33	-0.805	0.21	0.097844	0.082472	1.006012	-0.1125	-0.1845	0.0585	0	228	987	1
2026-02-23	16:53:56.690	1.12	-0.42	0.21	0.09394	0.093696	1.006744	-0.1125	-0.1845	0.0585	0	228	987	1
2026-02-23	16:53:56.710	1.085	-0.525	0.245	0.105896	0.080764	1.01748	-0.111	-0.177	0.054	0	228	987	1
2026-02-23	16:53:56.730	0.945	-0.63	0.315	0.09857599	0.087352	1.010892	-0.1095	-0.174	0.051	0	228	987	1
2026-02-23	16:53:56.750	0.805	-0.28	0.28	0.100772	0.071492	0.999424	-0.108	-0.1815	0.0495	0	228	987	1
2026-02-23	16:53:56.770	2.485	-0.77	0.21	0.096624	0.090036	1.002108	-0.108	-0.177	0.054	0	228	987	1
2026-02-23	16:53:56.790	1.295	-0.49	0.245	0.098088	0.09076799	1.020652	-0.1125	-0.171	0.057	0	228	987	1
2026-02-23	16:53:56.810	0.245	-0.21	0.245	0.101748	0.08052	0.997472	-0.1125	-0.174	0.0555	0	192	999	1
2026-02-23	16:53:56.830	1.4	-0.84	0.245	0.094916	0.078568	1.006988	-0.108	-0.1725	0.0525	0	192	999	1
2026-02-23	16:53:56.850	1.085	-0.42	0.245	0.099064	0.082228	1.014308	-0.1095	-0.171	0.048	0	192	999	1
2026-02-23	16:53:56.870	1.155	-0.525	0.28	0.09516	0.086132	1.002108	-0.1035	-0.1725	0.0495	0	192	999	1
2026-02-23	16:53:56.890	0.875	-0.42	0.315	0.094428	0.089792	1.011136	-0.1035	-0.1755	0.0495	0	192	999	1
2026-02-23	16:53:56.910	1.82	-0.7	0.21	0.101992	0.079544	1.010648	-0.105	-0.1755	0.0495	0	192	999	1
2026-02-23	16:53:56.930	1.05	-0.42	0.245	0.099308	0.092964	1.007476	-0.105	-0.1755	0.0495	0	192	999	1
2026-02-23	16:53:56.950	0.945	-0.49	0.245	0.103212	0.082472	1.014796	-0.1095	-0.18	0.051	0	192	999	1
2026-02-23	16:53:56.970	1.155	-0.525	0.245	0.09272	0.08784	1.009428	-0.1095	-0.18	0.0555	0	192	999	1
2026-02-23	16:53:56.990	1.155	-0.56	0.21	0.097356	0.082228	1.009428	-0.1095	-0.18	0.0555	0	192	999	1
2026-02-23	16:53:57.010	1.19	-0.315	0.245	0.102236	0.077592	1.00284	-0.111	-0.171	0.0525	0	162	1007	1
2026-02-23	16:53:57.030	1.225	-0.56	0.245	0.098332	0.0793	1.014796	-0.111	-0.171	0.0525	0	162	1007	1
2026-02-23	16:53:57.050	1.015	-0.49	0.21	0.09638	0.088572	1.010404	-0.1125	-0.177	0.0525	0	162	1007	1
2026-02-23	16:53:57.070	1.19	-0.525	0.28	0.100284	0.086376	1.005524	-0.111	-0.1815	0.054	0	162	1007	1
2026-02-23	16:53:57.090	1.085	-0.56	0.245	0.09516	0.087596	1.00406	-0.111	-0.1755	0.0525	0	162	1007	1
2026-02-23	16:53:57.110	1.05	-0.49	0.245	0.093452	0.075884	1.007964	-0.117	-0.1725	0.0525	0	162	1007	1
2026-02-23	16:53:57.130	1.26	-0.56	0.28	0.09467199	0.078568	1.0065	-0.1065	-0.177	0.045	0	162	1007	1
2026-02-23	16:53:57.150	1.365	-0.525	0.28	0.093696	0.085156	1.007964	-0.1125	-0.1845	0.0585	0	162	1007	1
2026-02-23	16:53:57.170	1.155	-0.49	0.28	0.101504	0.082228	1.007476	-0.111	-0.1785	0.0525	0	162	1007	1
2026-02-23	16:53:57.190	0.77	-0.385	0.245	0.087352	0.078812	1.007476	-0.1185	-0.1845	0.054	0	162	1007	1
2026-02-23	16:53:57.210	1.33	-0.49	0.245	0.09516	0.074908	1.006012	-0.1185	-0.1845	0.054	0	137	1013	1
2026-02-23	16:53:57.230	0.77	-0.315	0.28	0.09076799	0.087596	1.007476	-0.1095	-0.1785	0.045	0	137	1013	1
2026-02-23	16:53:57.250	1.365	-0.7	0.21	0.107116	0.08052	1.00162	-0.114	-0.174	0.048	0	137	1013	1
2026-02-23	16:53:57.270	1.155	-0.455	0.245	0.093452	0.086376	1.011624	-0.114	-0.18	0.0555	0	137	1013	1
2026-02-23	16:53:57.290	0.98	-0.56	0.245	0.096624	0.084912	0.999912	-0.1125	-0.177	0.057	0	137	1013	1
2026-02-23	16:53:57.310	1.015	-0.49	0.21	0.083692	0.083204	1.011868	-0.1125	-0.1725	0.0555	0	137	1013	1
2026-02-23	16:53:57.330	1.435	-0.595	0.245	0.101016	0.083204	1.002596	-0.1125	-0.177	0.054	0	137	1013	1
2026-02-23	16:53:57.350	1.225	-0.49	0.245	0.09467199	0.082716	1.013088	-0.1185	-0.177	0.057	0	137	1013	1
2026-02-23	16:53:57.370	1.085	-0.385	0.28	0.087352	0.0915	1.009672	-0.117	-0.174	0.0525	0	137	1013	1
2026-02-23	16:53:57.390	1.4	-0.7	0.21	0.100284	0.077104	0.998448	-0.1095	-0.18	0.054	0	137	1013	1
2026-02-23	16:53:57.410	0.63	-0.315	0.245	0.092476	0.079788	1.006988	-0.114	-0.177	0.0465	0	116	1018	1
2026-02-23	16:53:57.430	1.365	-0.7	0.245	0.09028	0.087352	1.00894	-0.1065	-0.1845	0.051	0	116	1018	1
2026-02-23	16:53:57.450	1.05	-0.385	0.245	0.096624	0.081252	1.004304	-0.1065	-0.1755	0.054	0	116	1018	1
2026-02-23	16:53:57.470	1.47	-0.7	0.28	0.093208	0.087108	1.003816	-0.1065	-0.174	0.0525	0	116	1018	1
2026-02-23	16:53:57.490	0.77	-0.35	0.245	0.103944	0.079544	1.007232	-0.114	-0.1785	0.051	0	116	1018	1
2026-02-23	16:53:57.510	1.33	-0.63	0.245	0.082472	0.08662	1.013088	-0.1125	-0.1725	0.0585	0	116	1018	1
2026-02-23	16:53:57.530	1.085	-0.49	0.245	0.095404	0.08295999	1.006744	-0.1185	-0.183	0.0585	0	116	1018	1
2026-02-23	16:53:57.550	1.12	-0.525	0.245	0.096624	0.083936	1.016016	-0.117	-0.177	0.048	0	116	1018	1
2026-02-23	16:53:57.570	1.435	-0.665	0.28	0.08906	0.08052	1.004304	-0.117	-0.1785	0.051	0	116	1018	1
2026-02-23	16:53:57.590	0.91	-0.315	0.28	0.091012	0.087352	1.0004	-0.1065	-0.177	0.0495	0	116	1018	1
2026-02-23	16:53:57.610	1.155	-0.595	0.28	0.091256	0.089792	1.015528	-0.1125	-0.18	0.0555	0	99	1021	1
2026-02-23	16:53:57.630	1.155	-0.525	0.245	0.100528	0.082472	1.014308	-0.114	-0.18	0.0615	0	99	1021	1
2026-02-23	16:53:57.650	1.4	-0.525	0.245	0.092232	0.08686399	1.01016	-0.114	-0.18	0.051	0	99	1021	1
2026-02-23	16:53:57.670	1.015	-0.42	0.28	0.09882	0.087596	1.014308	-0.111	-0.177	0.0555	0	99	1021	1
2026-02-23	16:53:57.690	0.91	-0.525	0.28	0.092476	0.085644	1.006744	-0.1065	-0.177	0.0555	0	99	1021	1
2026-02-23	16:53:57.710	1.365	-0.525	0.21	0.0915	0.088816	1.009672	-0.1095	-0.1845	0.048	0	99	1021	1
2026-02-23	16:53:57.730	1.05	-0.35	0.28	0.096624	0.090036	1.018456	-0.1095	-0.1845	0.048	0	99	1021	1
2026-02-23	16:53:57.750	1.68	-0.77	0.21	0.098088	0.089304	1.010648	-0.1095	-0.1845	0.048	0	99	1021	1
2026-02-23	16:53:57.770	0.21	-0.035	0.28	0.094916	0.088328	1.006988	-0.1155	-0.18	0.048	0	99	1021	1
2026-02-23	16:53:57.790	1.82	-0.91	0.245	0.101748	0.08295999	1.014552	-0.1185	-0.1755	0.0495	0	99	1021	1
2026-02-23	16:53:57.810	0.805	-0.28	0.28	0.09516	0.090036	1.019676	-0.1155	-0.1785	0.0525	0	85	1024	1
2026-02-23	16:53:57.830	1.26	-0.63	0.28	0.095648	0.08906	0.99674	-0.1095	-0.1785	0.0525	0	85	1024	1
2026-02-23	16:53:57.850	1.12	-0.42	0.245	0.096868	0.0854	1.008696	-0.1125	-0.1785	0.0525	0	85	1024	1
2026-02-23	16:53:57.870	1.225	-0.455	0.245	0.092964	0.090524	1.018456	-0.1155	-0.18	0.054	0	85	1024	1
2026-02-23	16:53:57.890	1.75	-0.77	0.21	0.097356	0.083204	1.012844	-0.111	-0.1755	0.048	0	85	1024	1
2026-02-23	16:53:57.910	0.105	-0.07	0.28	0.092964	0.0915	1.008696	-0.1125	-0.1755	0.048	0	85	1024	1
2026-02-23	16:53:57.930	1.785	-0.945	0.245	0.089792	0.089304	1.013576	-0.114	-0.177	0.054	0	85	1024	1
2026-02-23	16:53:57.950	0.42	-0.14	0.245	0.108092	0.083692	1.005036	-0.1185	-0.1785	0.051	0	85	1024	1
2026-02-23	16:53:57.970	1.715	-0.84	0.245	0.094916	0.07686	1.003328	-0.114	-0.1785	0.051	0	85	1024	1
2026-02-23	16:53:57.990	1.05	-0.28	0.21	0.092232	0.08052	1.00894	-0.1065	-0.177	0.048	0	85	1024	1
2026-02-23	16:53:58.010	1.435	-0.63	0.245	0.097112	0.087352	1.00894	-0.108	-0.177	0.0435	0	74	1026	1
2026-02-23	16:53:58.030	0.91	-0.42	0.245	0.09882	0.079788	1.024068	-0.114	-0.18	0.051	0	74	1026	1
2026-02-23	16:53:58.050	1.4	-0.63	0.245	0.096624	0.09076799	1.010404	-0.1155	-0.1845	0.0555	0	74	1026	1
2026-02-23	16:53:58.070	0.84	-0.385	0.21	0.0976	0.076372	0.997228	-0.1155	-0.1845	0.0555	0	74	1026	1
2026-02-23	16:53:58.090	1.54	-0.525	0.28	0.102724	0.094428	1.023824	-0.108	-0.1755	0.06	0	74	1026	1
2026-02-23	16:53:58.110	1.015	-0.525	0.245	0.099308	0.075396	1.007476	-0.108	-0.1755	0.06	0	74	1026	1
2026-02-23	16:53:58.130	1.505	-0.595	0.245	0.09394	0.085888	1.004792	-0.1125	-0.1725	0.0465	0	74	1026	1
2026-02-23	16:53:58.150	0.91	-0.455	0.245	0.09857599	0.071492	1.008452	-0.1095	-0.177	0.0495	0	74	1026	1
2026-02-23	16:53:58.170	1.19	-0.595	0.21	0.097844	0.072956	1.012112	-0.1155	-0.171	0.045	0	74	1026	1
2026-02-23	16:53:58.190	1.19	-0.42	0.28	0.101504	0.081008	1.010892	-0.1125	-0.1845	0.0435	0	74	1026	1
2026-02-23	16:53:58.210	1.645	-0.7	0.245	0.107116	0.083204	1.003328	-0.1155	-0.177	0.045	0	65	1028	1
2026-02-23	16:53:58.230	0.525	-0.28	0.28	0.087596	0.092232	1.017968	-0.1095	-0.18	0.0525	0	65	1028	1
2026-02-23	16:53:58.250	1.295	-0.735	0.245	0.102724	0.079544	0.9882	-0.114	-0.1755	0.054	0	65	1028	1
2026-02-23	16:53:58.270	1.015	-0.385	0.21	0.082472	0.085888	1.01504	-0.1125	-0.1755	0.054	0	65	1028	1
2026-02-23	16:53:58.290	1.435	-0.63	0.245	0.101016	0.086376	0.99674	-0.102	-0.1755	0.0525	0	65	1028	1
2026-02-23	16:53:58.310	1.05	-0.42	0.245	0.088328	0.089548	1.011624	-0.1125	-0.186	0.0555	0	65	1028	1
2026-02-23	16:53:58.330	1.435	-0.525	0.28	0.105896	0.07905599	0.997472	-0.1095	-0.18	0.0585	0	65	1028	1
2026-02-23	16:53:58.350	1.4	-0.63	0.245	0.087108	0.09516	1.0065	-0.1155	-0.189	0.0585	0	65	1028	1
2026-02-23	16:53:58.370	0	-0.245	0.315	0.092964	0.07198	1.012844	-0.1065	-0.1815	0.057	0	65	1028	1
2026-02-23	16:53:58.390	2.1	-0.945	0.21	0.093696	0.078812	1.00406	-0.108	-0.18	0.057	0	65	1028	1
2026-02-23	16:53:58.410	1.575	-0.385	0.245	0.09394	0.0854	0.998204	-0.102	-0.1785	0.045	0	57	1029	1
2026-02-23	16:53:58.430	1.015	-0.63	0.245	0.099796	0.072224	0.993812	-0.114	-0.183	0.051	0	57	1029	1
2026-02-23	16:53:58.450	0.455	-0.385	0.245	0.10004	0.079544	1.014552	-0.1125	-0.177	0.0585	0	57	1029	1
2026-02-23	16:53:58.470	2.1	-0.875	0.21	0.08295999	0.093452	1.014552	-0.1185	-0.18	0.0555	0	57	1029	1
2026-02-23	16:53:58.490	0.595	-0.175	0.21	0.09516	0.085888	0.999668	-0.1215	-0.1815	0.0525	0	57	1029	1
2026-02-23	16:53:58.510	1.505	-0.77	0.245	0.091744	0.083204	1.002108	-0.1125	-0.186	0.051	0	57	1029	1
2026-02-23	16:53:58.530	1.26	-0.525	0.21	0.093452	0.08784	0.998936	-0.111	-0.171	0.0495	0	57	1029	1
2026-02-23	16:53:58.550	0.98	-0.35	0.245	0.09028	0.082472	1.008452	-0.114	-0.177	0.0525	0	57	1029	1
2026-02-23	16:53:58.570	1.89	-0.805	0.245	0.097112	0.080276	0.999424	-0.111	-0.183	0.054	0	57	1029	1
2026-02-23	16:53:58.590	0.455	-0.105	0.28	0.095648	0.089792	1.013332	-0.1035	-0.192	0.0525	0	57	1029	1
2026-02-23	16:53:58.610	1.82	-1.05	0.28	0.100528	0.084912	1.004304	-0.117	-0.1845	0.0585	0	51	1029	1
2026-02-23	16:53:58.630	-0.035	-0.035	0.245	0.093696	0.074176	1.015284	-0.1185	-0.1725	0.063	0	51	1029	1
2026-02-23	16:53:58.650	2.275	-0.945	0.21	0.093208	0.093452	1.001864	-0.114	-0.177	0.0435	0	51	1029	1
2026-02-23	16:53:58.670	0.805	-0.315	0.28	0.094428	0.088816	1.010404	-0.111	-0.1755	0.048	0	51	1029	1
2026-02-23	16:53:58.690	1.295	-0.665	0.245	0.089792	0.08686399	1.007964	-0.1155	-0.177	0.054	0	51	1029	1
2026-02-23	16:53:58.710	0.665	-0.35	0.28	0.091012	0.08052	1.00284	-0.123	-0.171	0.054	0	51	1029	1
2026-02-23	16:53:58.730	1.575	-0.7	0.21	0.095648	0.091012	1.005524	-0.1125	-0.1755	0.0495	0	51	1029	1
2026-02-23	16:53:58.750	1.225	-0.455	0.21	0.090524	0.090524	1.01992	-0.114	-0.1785	0.057	0	51	1029	1
2026-02-23	16:53:58.770	1.12	-0.525	0.28	0.105164	0.086132	1.00284	-0.114	-0.1785	0.057	0	51	1029	1
2026-02-23	16:53:58.790	0.595	-0.315	0.245	0.096136	0.075396	1.014308	-0.114	-0.1785	0.054	0	51	1029	1
2026-02-23	16:53:58.810	2.17	-0.91	0.245	0.09076799	0.090524	1.02114	-0.1125	-0.177	0.0555	0	46	1029	1
2026-02-23	16:53:58.830	0.945	-0.35	0.245	0.111996	0.086132	1.00162	-0.108	-0.1815	0.0525	0	46	1029	1
2026-02-23	16:53:58.850	0.455	-0.385	0.28	0.093452	0.076616	1.0187	-0.1125	-0.1845	0.048	0	46	1029	1
2026-02-23	16:53:58.870	1.54	-0.805	0.21	0.114436	0.07686	1.003084	-0.114	-0.183	0.045	0	46	1029	1
2026-02-23	16:53:58.890	0.63	-0.175	0.21	0.092232	0.084424	1.020164	-0.114	-0.174	0.051	0	46	1029	1
2026-02-23	16:53:58.910	2.1	-0.805	0.175	0.10004	0.080032	1.012844	-0.1125	-0.171	0.0555	0	46	1029	1
2026-02-23	16:53:58.930	0.735	-0.28	0.28	0.096868	0.088572	1.006012	-0.108	-0.1755	0.0525	0	46	1029	1
2026-02-23	16:53:58.950	1.015	-0.49	0.245	0.08686399	0.096136	1.010648	-0.1125	-0.1815	0.0525	0	46	1029	1
2026-02-23	16:53:58.970	1.47	-0.595	0.21	0.1098	0.081496	1.01626	-0.117	-0.186	0.054	0	46	1029	1
2026-02-23	16:53:58.990	1.4	-0.595	0.245	0.090036	0.09272	1.01626	-0.114	-0.183	0.051	0	46	1029	1
2026-02-23	16:53:59.010	0.42	-0.245	0.28	0.094184	0.087596	1.009428	-0.1125	-0.18	0.048	0	41	1029	1
2026-02-23	16:53:59.030	1.645	-0.875	0.21	0.10492	0.092232	1.009916	-0.1155	-0.1755	0.048	0	41	1029	1
2026-02-23	16:53:59.050	0.7	-0.245	0.245	0.09394	0.084912	1.013088	-0.1185	-0.1785	0.051	0	41	1029	1
2026-02-23	16:53:59.070	1.47	-0.63	0.245	0.100772	0.081984	1.003572	-0.1185	-0.1815	0.0555	0	41	1029	1
2026-02-23	16:53:59.090	1.365	-0.49	0.245	0.092964	0.090036	1.024312	-0.1095	-0.1815	0.0555	0	41	1029	1
2026-02-23	16:53:59.110	1.295	-0.56	0.245	0.09857599	0.088816	1.01016	-0.1095	-0.183	0.0555	0	41	1029	1
2026-02-23	16:53:59.130	0.805	-0.455	0.28	0.097844	0.094428	1.006256	-0.1155	-0.1815	0.0555	0	41	1029	1
2026-02-23	16:53:59.150	1.295	-0.595	0.245	0.103456	0.083936	0.993324	-0.1155	-0.1815	0.0555	0	41	1029	1
2026-02-23	16:53:59.170	1.505	-0.49	0.21	0.10126	0.097112	1.037732	-0.1155	-0.18	0.045	0	41	1029	1
2026-02-23	16:53:59.190	1.12	-0.525	0.28	0.081984	0.08174	1.000888	-0.1155	-0.18	0.045	0	41	1029	1
2026-02-23	16:53:59.210	0.595	-0.42	0.28	0.09076799	0.083692	1.004548	-0.111	-0.1905	0.051	0	37	1030	1
2026-02-23	16:53:59.230	1.75	-0.77	0.245	0.099796	0.090036	1.000888	-0.111	-0.1785	0.045	0	37	1030	1
2026-02-23	16:53:59.250	0.945	-0.42	0.245	0.0976	0.077836	1.016504	-0.117	-0.18	0.048	0	37	1030	1
2026-02-23	16:53:59.270	0.665	-0.35	0.28	0.093452	0.081008	0.996984	-0.1185	-0.189	0.0495	0	37	1030	1
2026-02-23	16:53:59.290	2.065	-0.84	0.21	0.100528	0.075884	0.99552	-0.1185	-0.1815	0.0435	0	37	1030	1
2026-02-23	16:53:59.310	0.42	-0.105	0.28	0.091744	0.078812	1.006744	-0.117	-0.189	0.051	0	37	1030	1
2026-02-23	16:53:59.330	1.435	-0.665	0.245	0.100772	0.08295999	1.008452	-0.111	-0.1785	0.0555	0	37	1030	1
2026-02-23	16:53:59.350	1.365	-0.49	0.28	0.093696	0.090036	1.012844	-0.1215	-0.1785	0.054	0	37	1030	1
2026-02-23	16:53:59.370	0.84	-0.35	0.28	0.09882	0.086132	0.997228	-0.114	-0.174	0.0525	0	37	1030	1
2026-02-23	16:53:59.390	1.085	-0.56	0.28	0.093208	0.094916	1.006744	-0.1155	-0.1845	0.0465	0	37	1030	1
2026-02-23	16:53:59.410	0.21	-0.245	0.28	0.105896	0.080764	0.994788	-0.1125	-0.1845	0.0585	0	34	1031	1
2026-02-23	16:53:59.430	1.33	-0.595	0.245	0.086132	0.0915	1.019432	-0.1185	-0.1755	0.0555	0	34	1031	1
2026-02-23	16:53:59.450	1.645	-0.49	0.245	0.09028	0.081984	1.000644	-0.1065	-0.1845	0.0615	0	34	1031	1
2026-02-23	16:53:59.470	0.98	-0.42	0.245	0.085644	0.077348	0.993812	-0.1185	-0.1785	0.0495	0	34	1031	1
2026-02-23	16:53:59.490	0.35	-0.28	0.28	0.096136	0.069052	1.009184	-0.1185	-0.18	0.0555	0	34	1031	1
2026-02-23	16:53:59.510	1.855	-0.91	0.21	0.081984	0.098332	0.99918	-0.117	-0.1815	0.057	0	34	1031	1
2026-02-23	16:53:59.530	0.875	-0.175	0.245	0.084668	0.092964	1.003328	-0.117	-0.174	0.051	0	34	1031	1
2026-02-23	16:53:59.550	1.715	-0.77	0.28	0.081252	0.092964	0.998448	-0.117	-0.1785	0.0525	0	34	1031	1
2026-02-23	16:53:59.570	0.595	-0.35	0.245	0.089792	0.078568	0.995276	-0.1125	-0.177	0.051	0	34	1031	1
2026-02-23	16:53:59.590	1.12	-0.56	0.245	0.08686399	0.091988	1.014308	-0.1125	-0.1875	0.051	0	34	1031	1
2026-02-23	16:53:59.610	1.365	-0.56	0.21	0.099796	0.087596	1.01016	-0.1155	-0.18	0.0525	0	31	1030	1
2026-02-23	16:53:59.630	1.015	-0.385	0.28	0.08906	0.084912	1.008696	-0.126	-0.183	0.051	0	31	1030	1
2026-02-23	16:53:59.650	1.47	-0.805	0.245	0.097356	0.083936	0.988444	-0.1095	-0.1785	0.0435	0	31	1030	1
2026-02-23	16:53:59.670	0.98	-0.35	0.21	0.0915	0.07442	1.017236	-0.1185	-0.1815	0.0465	0	31	1030	1
2026-02-23	16:53:59.690	1.33	-0.595	0.245	0.075396	0.101992	1.001864	-0.1155	-0.18	0.0555	0	31	1030	1
2026-02-23	16:53:59.710	0.91	-0.455	0.245	0.088816	0.084912	1.003328	-0.117	-0.1845	0.0495	0	31	1030	1
2026-02-23	16:53:59.730	1.33	-0.665	0.28	0.09882	0.082228	1.001376	-0.117	-0.1815	0.0525	0	31	1030	1
2026-02-23	16:53:59.750	0.7	-0.35	0.28	0.092964	0.084424	1.005036	-0.1155	-0.18	0.051	0	31	1030	1
2026-02-23	16:53:59.770	1.155	-0.455	0.245	0.087352	0.083448	1.015772	-0.1185	-0.174	0.0465	0	31	1030	1
2026-02-23	16:53:59.790	2.1	-0.805	0.175	0.10614	0.088328	1.00406	-0.117	-0.1755	0.0555	0	31	1030	1
2026-02-23	16:53:59.810	0.07	-0.035	0.28	0.10492	0.075396	1.013576	-0.117	-0.1755	0.0555	0	28	1030	1
2026-02-23	16:53:59.830	1.575	-0.875	0.245	0.096868	0.084668	1.016504	-0.117	-0.1755	0.0555	0	28	1030	1
2026-02-23	16:53:59.850	1.435	-0.455	0.245	0.103456	0.089548	1.015772	-0.117	-0.1755	0.054	0	28	1030	1
2026-02-23	16:53:59.870	1.015	-0.455	0.245	0.092476	0.08662	1.008208	-0.1185	-0.18	0.0525	0	28	1030	1
2026-02-23	16:53:59.890	1.26	-0.595	0.245	0.09467199	0.082472	1.013576	-0.1155	-0.186	0.0525	0	28	1030	1
2026-02-23	16:53:59.910	1.4	-0.665	0.245	0.104188	0.089304	1.008452	-0.12	-0.1845	0.0525	0	28	1030	1
2026-02-23	16:53:59.930	0.525	-0.315	0.28	0.100528	0.076372	1.011624	-0.1215	-0.18	0.051	0	28	1030	1
2026-02-23	16:53:59.950	1.505	-0.665	0.245	0.091012	0.087352	1.013576	-0.1155	-0.177	0.051	0	28	1030	1
2026-02-23	16:53:59.970	1.015	-0.525	0.245	0.0915	0.089792	1.009916	-0.1125	-0.1785	0.051	0	28	1030	1
2026-02-23	16:53:59.990	0.805	-0.385	0.28	0.087108	0.093452	1.012844	-0.1155	-0.18	0.0495	0	28	1030	1
2026-02-23	16:54:00.010	2.03	-0.735	0.21	0.099796	0.088328	1.013576	-0.117	-0.1785	0.0495	0	26	1030	1
2026-02-23	16:54:00.030	0.77	-0.28	0.245	0.103944	0.08784	1.012844	-0.117	-0.1815	0.054	0	26	1030	1
2026-02-23	16:54:00.050	1.155	-0.63	0.245	0.095648	0.09076799	1.013332	-0.12	-0.183	0.051	0	26	1030	1
2026-02-23	16:54:00.070	1.085	-0.42	0.28	0.097356	0.091988	1.01382	-0.1185	-0.1785	0.048	0	26	1030	1
2026-02-23	16:54:00.090	1.19	-0.595	0.28	0.108336	0.077592	1.012112	-0.117	-0.18	0.051	0	26	1030	1
2026-02-23	16:54:00.110	0.665	-0.385	0.28	0.082228	0.088328	1.009428	-0.1185	-0.183	0.0525	0	26	1030	1
2026-02-23	16:54:00.130	1.225	-0.525	0.28	0.09882	0.084668	1.009184	-0.1185	-0.1815	0.051	0	26	1030	1
2026-02-23	16:54:00.150	1.715	-0.7	0.245	0.094916	0.09638	1.004304	-0.114	-0.1845	0.0525	0	26	1030	1
2026-02-23	16:54:00.170	0.595	-0.21	0.245	0.103212	0.074176	1.010892	-0.1095	-0.183	0.0525	0	26	1030	1
2026-02-23	16:54:00.190	1.575	-0.7	0.175	0.09394	0.08662	1.017968	-0.1125	-0.1785	0.0525	0	26	1030	1
2026-02-23	16:54:00.210	1.4	-0.56	0.245	0.105408	0.085644	1.010892	-0.1185	-0.1785	0.0555	0	24	1030	1
2026-02-23	16:54:00.230	0.595	-0.28	0.245	0.099064	0.085156	1.020652	-0.1185	-0.1785	0.0555	0	24	1030	1
2026-02-23	16:54:00.250	1.715	-0.875	0.245	0.11346	0.077836	1.0126	-0.1215	-0.1875	0.06	0	24	1030	1
2026-02-23	16:54:00.270	0.805	-0.42	0.245	0.100772	0.078812	1.02236	-0.1215	-0.1875	0.06	0	24	1030	1
2026-02-23	16:54:00.290	1.715	-0.7	0.245	0.105164	0.090036	1.008452	-0.117	-0.177	0.057	0	24	1030	1
2026-02-23	16:54:00.310	1.015	-0.35	0.28	0.096868	0.079788	1.013088	-0.1215	-0.18	0.0495	0	24	1030	1
2026-02-23	16:54:00.330	1.225	-0.665	0.245	0.090524	0.08052	1.003572	-0.1185	-0.1815	0.045	0	24	1030	1
2026-02-23	16:54:00.350	0.91	-0.35	0.21	0.098088	0.081008	1.015772	-0.1125	-0.1785	0.054	0	24	1030	1
2026-02-23	16:54:00.370	1.435	-0.7	0.245	0.095892	0.08662	1.003816	-0.123	-0.177	0.054	0	24	1030	1
2026-02-23	16:54:00.390	0.77	-0.315	0.21	0.083936	0.086376	1.009672	-0.114	-0.18	0.057	0	24	1030	1
2026-02-23	16:54:00.410	1.89	-0.805	0.21	0.093696	0.085888	1.003328	-0.1125	-0.1755	0.0525	0	23	1031	1
2026-02-23	16:54:00.430	0.56	-0.245	0.245	0.109068	0.089304	1.01016	-0.1185	-0.1845	0.048	0	23	1031	1
2026-02-23	16:54:00.450	1.61	-0.805	0.245	0.105164	0.080276	1.015528	-0.114	-0.174	0.048	0	23	1031	1
2026-02-23	16:54:00.470	1.33	-0.56	0.28	0.0915	0.087352	1.004792	-0.12	-0.18	0.0495	0	23	1031	1
2026-02-23	16:54:00.490	1.33	-0.56	0.21	0.100772	0.080764	1.005036	-0.1095	-0.1815	0.051	0	23	1031	1
2026-02-23	16:54:00.510	1.155	-0.595	0.245	0.094428	0.088328	0.99796	-0.111	-0.177	0.0525	0	23	1031	1
2026-02-23	16:54:00.530	1.05	-0.595	0.245	0.092476	0.081008	1.011624	-0.1185	-0.177	0.048	0	23	1031	1
2026-02-23	16:54:00.550	1.225	-0.63	0.245	0.094916	0.077836	0.999668	-0.1155	-0.1695	0.0435	0	23	1031	1
2026-02-23	16:54:00.570	0.84	-0.28	0.245	0.093208	0.08784	1.002596	-0.1185	-0.174	0.054	0	23	1031	1
2026-02-23	16:54:00.590	1.82	-0.805	0.21	0.10126	0.08662	0.998448	-0.111	-0.1815	0.0495	0	23	1031	1
2026-02-23	16:54:00.610	0.7	-0.315	0.245	0.10248	0.073444	1.00772	-0.1125	-0.1755	0.0525	0	21	1032	1
2026-02-23	16:54:00.630	1.365	-0.63	0.245	0.100284	0.091256	1.001864	-0.1155	-0.177	0.0525	0	21	1032	1
2026-02-23	16:54:00.650	1.085	-0.42	0.245	0.092232	0.081252	0.997472	-0.117	-0.1845	0.057	0	21	1032	1
2026-02-23	16:54:00.670	0.945	-0.455	0.245	0.096624	0.087352	1.005036	-0.1215	-0.18	0.051	0	21	1032	1
2026-02-23	16:54:00.690	1.47	-0.7	0.245	0.08784	0.0793	1.013576	-0.1155	-0.1755	0.063	0	21	1032	1
2026-02-23	16:54:00.710	0.42	-0.245	0.245	0.09467199	0.0793	1.000888	-0.1185	-0.1725	0.057	0	21	1032	1
2026-02-23	16:54:00.730	1.785	-0.805	0.21	0.091012	0.08295999	1.0004	-0.1095	-0.1755	0.0465	0	21	1032	1
2026-02-23	16:54:00.750	1.225	-0.455	0.28	0.0976	0.08686399	1.001864	-0.114	-0.192	0.054	0	21	1032	1
2026-02-23	16:54:00.770	0.63	-0.28	0.28	0.087352	0.069784	0.99918	-0.114	-0.18	0.051	0	21	1032	1
2026-02-23	16:54:00.790	1.75	-0.77	0.245	0.095892	0.09638	1.023824	-0.111	-0.1785	0.0525	0	21	1032	1
2026-02-23	16:54:00.810	0.945	-0.35	0.28	0.084912	0.074176	0.999912	-0.117	-0.1815	0.048	0	20	1031	1
2026-02-23	16:54:00.830	0.91	-0.525	0.21	0.083448	0.073444	0.998204	-0.12	-0.1845	0.0465	0	20	1031	1
2026-02-23	16:54:00.850	1.085	-0.455	0.28	0.098088	0.086132	1.003816	-0.12	-0.1845	0.0465	0	20	1031	1
2026-02-23	16:54:00.870	1.68	-0.7	0.245	0.100772	0.088572	1.014552	-0.12	-0.1845	0.0465	0	20	1031	1
2026-02-23	16:54:00.890	0.105	-0.175	0.315	0.08052	0.080764	1.013088	-0.117	-0.1815	0.0495	0	20	1031	1
2026-02-23	16:54:00.910	1.785	-0.735	0.245	0.1037	0.080276	0.997716	-0.117	-0.1785	0.0555	0	20	1031	1
2026-02-23	16:54:00.930	1.785	-0.63	0.245	0.094916	0.083204	1.019188	-0.1185	-0.1785	0.054	0	20	1031	1
2026-02-23	16:54:00.950	0.42	-0.245	0.245	0.092232	0.076616	1.013576	-0.1155	-0.1755	0.051	0	20	1031	1
2026-02-23	16:54:00.970	1.19	-0.63	0.245	0.098088	0.089304	0.996252	-0.1125	-0.1725	0.051	0	20	1031	1
2026-02-23	16:54:00.990	1.33	-0.525	0.245	0.094428	0.092476	1.021872	-0.114	-0.177	0.0465	0	20	1031	1
2026-02-23	16:54:01.010	1.19	-0.49	0.245	0.09516	0.097844	1.014064	-0.114	-0.18	0.051	0	19	1031	1
2026-02-23	16:54:01.030	1.19	-0.49	0.245	0.093452	0.08662	1.010404	-0.1125	-0.1815	0.057	0	19	1031	1
2026-02-23	16:54:01.050	1.155	-0.49	0.245	0.099552	0.088084	1.006744	-0.1155	-0.1815	0.0495	0	19	1031	1
2026-02-23	16:54:01.070	1.33	-0.735	0.245	0.101504	0.0793	1.010648	-0.1155	-0.177	0.051	0	19	1031	1
2026-02-23	16:54:01.090	0.28	-0.175	0.245	0.096868	0.087108	1.019188	-0.1125	-0.177	0.0555	0	19	1031	1
2026-02-23	16:54:01.110	2.135	-0.945	0.21	0.094184	0.091012	1.0126	-0.111	-0.18	0.0555	0	19	1031	1
2026-02-23	16:54:01.130	0.77	-0.21	0.28	0.105408	0.088084	1.009184	-0.114	-0.177	0.051	0	19	1031	1
2026-02-23	16:54:01.150	1.75	-0.735	0.28	0.0854	0.089548	1.011868	-0.1155	-0.1755	0.0495	0	19	1031	1
2026-02-23	16:54:01.170	0.665	-0.385	0.245	0.096624	0.081496	0.996252	-0.117	-0.1755	0.0525	0	19	1031	1
2026-02-23	16:54:01.190	0.735	-0.455	0.245	0.093696	0.089548	1.026264	-0.1155	-0.1785	0.0555	0	19	1031	1
2026-02-23	16:54:01.210	2.415	-0.98	0.245	0.103456	0.098088	1.012356	-0.114	-0.1755	0.054	0	18	1031	1
2026-02-23	16:54:01.230	-0.42	0.14	0.28	0.100528	0.077104	1.012112	-0.1155	-0.1725	0.0495	0	18	1031	1
2026-02-23	16:54:01.250	2.205	-1.015	0.245	0.105896	0.084668	1.010404	-0.1185	-0.18	0.051	0	18	1031	1
2026-02-23	16:54:01.270	0.805	-0.28	0.245	0.093696	0.083936	1.016992	-0.1185	-0.183	0.0525	0	18	1031	1
2026-02-23	16:54:01.290	1.05	-0.49	0.245	0.09467199	0.077348	1.012844	-0.1185	-0.18	0.051	0	18	1031	1
2026-02-23	16:54:01.310	1.47	-0.595	0.245	0.104188	0.080032	1.008452	-0.1185	-0.18	0.051	0	18	1031	1
2026-02-23	16:54:01.330	1.295	-0.525	0.245	0.094184	0.095892	1.01626	-0.117	-0.177	0.0585	0	18	1031	1
2026-02-23	16:54:01.350	1.4	-0.665	0.21	0.093696	0.0915	1.016016	-0.117	-0.177	0.0585	0	18	1031	1
2026-02-23	16:54:01.370	1.26	-0.455	0.245	0.105408	0.08295999	1.00406	-0.1125	-0.183	0.063	0	18	1031	1
2026-02-23	16:54:01.390	1.085	-0.455	0.245	0.105164	0.09028	1.01016	-0.114	-0.177	0.051	0	18	1031	1
2026-02-23	16:54:01.410	1.085	-0.49	0.245	0.108336	0.082472	1.016016	-0.1185	-0.18	0.0615	0	18	1031	1
2026-02-23	16:54:01.430	1.82	-0.77	0.28	0.09516	0.08906	1.00894	-0.117	-0.1815	0.051	0	18	1031	1
2026-02-23	16:54:01.450	0.245	-0.105	0.28	0.104188	0.084424	1.010892	-0.1245	-0.1815	0.051	0	18	1031	1
2026-02-23	16:54:01.470	1.54	-0.77	0.21	0.101748	0.0854	0.998692	-0.1125	-0.183	0.057	0	18	1031	1
2026-02-23	16:54:01.490	1.155	-0.455	0.245	0.09882	0.084912	1.016992	-0.1185	-0.1785	0.0555	0	18	1031	1
2026-02-23	16:54:01.510	1.295	-0.56	0.245	0.100284	0.08686399	1.003816	-0.1185	-0.1785	0.0555	0	18	1031	1
2026-02-23	16:54:01.530	1.295	-0.525	0.245	0.095892	0.078568	1.014552	-0.117	-0.1725	0.06	0	18	1031	1
2026-02-23	16:54:01.550	1.19	-0.525	0.28	0.09467199	0.086132	0.995764	-0.114	-0.1815	0.051	0	18	1031	1
2026-02-23	16:54:01.570	0.84	-0.49	0.245	0.10126	0.081008	1.008452	-0.1215	-0.1785	0.051	0	18	1031	1
2026-02-23	16:54:01.590	1.12	-0.525	0.245	0.088328	0.090524	1.007964	-0.111	-0.1785	0.0525	0	18	1031	1
2026-02-23	16:54:01.610	1.26	-0.595	0.245	0.0915	0.088328	1.007232	-0.114	-0.186	0.0555	0	17	1032	1
2026-02-23	16:54:01.630	0.665	-0.245	0.245	0.096136	0.083448	1.01138	-0.1155	-0.177	0.06	0	17	1032	1
2026-02-23	16:54:01.650	2.205	-0.91	0.245	0.107604	0.077348	1.0004	-0.117	-0.1755	0.057	0	17	1032	1
2026-02-23	16:54:01.670	0.35	-0.105	0.28	0.09272	0.077836	1.005036	-0.1245	-0.1845	0.0615	0	17	1032	1
2026-02-23	16:54:01.690	1.505	-0.735	0.245	0.088084	0.091256	0.996252	-0.126	-0.1815	0.0465	0	17	1032	1
2026-02-23	16:54:01.710	1.505	-0.56	0.21	0.103456	0.07198	1.015528	-0.117	-0.1815	0.0525	0	17	1032	1
2026-02-23	16:54:01.730	0.525	-0.385	0.245	0.089792	0.085888	0.996984	-0.1215	-0.18	0.0555	0	17	1032	1
2026-02-23	16:54:01.750	0.91	-0.525	0.245	0.093208	0.081496	1.002108	-0.111	-0.1755	0.054	0	17	1032	1
2026-02-23	16:54:01.770	1.75	-0.665	0.21	0.087108	0.089792	1.005036	-0.12	-0.1785	0.054	0	17	1032	1
2026-02-23	16:54:01.790	0.735	-0.245	0.21	0.09076799	0.077592	1.003572	-0.1155	-0.1785	0.0585	0	17	1032	1
2026-02-23	16:54:01.810	1.295	-0.595	0.28	0.102724	0.07808	1.006012	-0.114	-0.174	0.06	0	17	1031	1
2026-02-23	16:54:01.830	1.82	-0.665	0.245	0.092232	0.072468	1.00528	-0.1185	-0.186	0.054	0	17	1031	1
2026-02-23	16:54:01.850	0.49	-0.245	0.245	0.094184	0.07515199	0.999912	-0.1185	-0.177	0.045	0	17	1031	1
2026-02-23	16:54:01.870	1.645	-0.77	0.245	0.087352	0.09857599	1.00894	-0.1155	-0.1785	0.0525	0	17	1031	1
2026-02-23	16:54:01.890	0.98	-0.42	0.245	0.099552	0.08295999	1.010892	-0.1155	-0.1785	0.0525	0	17	1031	1
2026-02-23	16:54:01.910	0.91	-0.56	0.245	0.099064	0.080276	0.998936	-0.1155	-0.1785	0.0525	0	17	1031	1
2026-02-23	16:54:01.930	1.26	-0.56	0.245	0.089548	0.07515199	1.011136	-0.1155	-0.1755	0.0525	0	17	1031	1
2026-02-23	16:54:01.950	1.26	-0.455	0.245	0.099552	0.08418	1.008452	-0.117	-0.174	0.054	0	17	1031	1
2026-02-23	16:54:01.970	1.19	-0.56	0.245	0.079544	0.094184	1.008696	-0.1185	-0.1755	0.057	0	17	1031	1
2026-02-23	16:54:01.990	0.875	-0.35	0.28	0.092476	0.079544	1.0004	-0.1215	-0.177	0.057	0	17	1031	1
2026-02-23	16:54:02.010	1.645	-0.7	0.21	0.098332	0.089548	1.006988	-0.1215	-0.1785	0.054	0	16	1031	1
2026-02-23	16:54:02.030	1.155	-0.42	0.28	0.086132	0.09394	1.015528	-0.1185	-0.177	0.0525	0	16	1031	1
2026-02-23	16:54:02.050	0.945	-0.49	0.28	0.095892	0.077592	1.003328	-0.1155	-0.18	0.057	0	16	1031	1
2026-02-23	16:54:02.070	1.54	-0.735	0.245	0.084424	0.087108	1.012844	-0.114	-0.183	0.057	0	16	1031	1
2026-02-23	16:54:02.090	0.42	-0.175	0.21	0.093696	0.088328	1.002108	-0.114	-0.1785	0.054	0	16	1031	1
2026-02-23	16:54:02.110	1.855	-0.84	0.21	0.098088	0.083692	1.006988	-0.1155	-0.174	0.057	0	16	1031	1
2026-02-23	16:54:02.130	0.665	-0.245	0.245	0.092232	0.085156	1.022604	-0.117	-0.1755	0.054	0	16	1031	1
2026-02-23	16:54:02.150	1.47	-0.7	0.245	0.092232	0.087352	1.000644	-0.12	-0.1815	0.0525	0	16	1031	1
2026-02-23	16:54:02.170	0.805	-0.35	0.245	0.08418	0.089304	1.0187	-0.12	-0.18	0.0555	0	16	1031	1
2026-02-23	16:54:02.190	1.365	-0.56	0.175	0.094428	0.088572	1.015528	-0.123	-0.1755	0.0555	0	16	1031	1
2026-02-23	16:54:02.210	1.33	-0.595	0.28	0.099796	0.091744	1.011868	-0.1215	-0.177	0.051	0	16	1031	1
2026-02-23	16:54:02.230	1.015	-0.42	0.245	0.106628	0.083448	1.015528	-0.1185	-0.18	0.054	0	16	1031	1
2026-02-23	16:54:02.250	1.12	-0.595	0.245	0.108336	0.08418	1.009672	-0.117	-0.1785	0.0585	0	16	1031	1
2026-02-23	16:54:02.270	0.98	-0.455	0.245	0.09882	0.08784	1.014552	-0.1155	-0.177	0.0585	0	16	1031	1
2026-02-23	16:54:02.290	1.435	-0.63	0.245	0.092232	0.076616	1.019676	-0.117	-0.1755	0.057	0	16	1031	1
2026-02-23	16:54:02.310	0.91	-0.385	0.21	0.108824	0.080276	0.998448	-0.1185	-0.183	0.057	0	16	1031	1
2026-02-23	16:54:02.330	1.435	-0.56	0.21	0.099064	0.07808	1.018212	-0.117	-0.1815	0.057	0	16	1031	1
2026-02-23	16:54:02.350	1.435	-0.595	0.21	0.096136	0.083448	1.014064	-0.117	-0.1755	0.054	0	16	1031	1
2026-02-23	16:54:02.370	0.665	-0.35	0.245	0.105408	0.082716	1.007476	-0.117	-0.1785	0.0525	0	16	1031	1
2026-02-23	16:54:02.390	1.19	-0.63	0.245	0.100772	0.093452	1.024556	-0.117	-0.1785	0.0525	0	16	1031	1
2026-02-23	16:54:02.410	1.47	-0.665	0.245	0.099552	0.088328	1.008696	-0.1185	-0.1845	0.0555	0	15	1031	1
2026-02-23	16:54:02.430	1.155	-0.525	0.245	0.1037	0.09076799	1.013088	-0.1185	-0.1845	0.0555	0	15	1031	1
2026-02-23	16:54:02.450	0.875	-0.385	0.245	0.096868	0.095404	1.0126	-0.123	-0.189	0.054	0	15	1031	1
2026-02-23	16:54:02.470	1.365	-0.63	0.245	0.096624	0.082228	1.009428	-0.1125	-0.183	0.0585	0	15	1031	1
2026-02-23	16:54:02.490	1.26	-0.49	0.245	0.092964	0.085156	1.005036	-0.1155	-0.1755	0.0555	0	15	1031	1
2026-02-23	16:54:02.510	1.47	-0.595	0.245	0.093696	0.089548	1.018212	-0.1155	-0.177	0.057	0	15	1031	1
2026-02-23	16:54:02.530	0.805	-0.35	0.245	0.111508	0.081252	1.025532	-0.114	-0.1815	0.054	0	15	1031	1
2026-02-23	16:54:02.550	1.61	-0.805	0.28	0.102968	0.09076799	1.002352	-0.117	-0.1815	0.0525	0	15	1031	1
2026-02-23	16:54:02.570	0.455	-0.245	0.245	0.089792	0.081008	1.004304	-0.12	-0.1815	0.0495	0	15	1031	1
2026-02-23	16:54:02.590	1.54	-0.7	0.245	0.08784	0.08662	1.00406	-0.1215	-0.174	0.063	0	15	1031	1
2026-02-23	16:54:02.610	0.98	-0.35	0.21	0.111752	0.083936	1.0065	-0.1155	-0.171	0.06	0	15	1032	1
2026-02-23	16:54:02.630	1.505	-0.665	0.245	0.094916	0.084668	1.009672	-0.105	-0.174	0.0525	0	15	1032	1
2026-02-23	16:54:02.650	1.225	-0.525	0.245	0.084912	0.092476	1.013576	-0.1095	-0.174	0.0615	0	15	1032	1
2026-02-23	16:54:02.670	0.805	-0.49	0.28	0.097112	0.089548	1.001376	-0.1215	-0.1785	0.0585	0	15	1032	1
2026-02-23	16:54:02.690	1.015	-0.525	0.21	0.093696	0.078812	0.996984	-0.1125	-0.168	0.057	0	15	1032	1
2026-02-23	16:54:02.710	1.225	-0.595	0.28	0.0915	0.083204	1.012844	-0.117	-0.174	0.057	0	15	1032	1
2026-02-23	16:54:02.730	1.295	-0.665	0.245	0.103212	0.085888	0.99674	-0.1155	-0.186	0.0555	0	15	1032	1
2026-02-23	16:54:02.750	0.42	-0.07	0.245	0.085644	0.081984	1.00528	-0.114	-0.1755	0.06	0	15	1032	1
2026-02-23	16:54:02.770	2.66	-1.015	0.21	0.100284	0.084668	0.99674	-0.1185	-0.18	0.057	0	15	1032	1
2026-02-23	16:54:02.790	0.245	-0.105	0.21	0.103212	0.07515199	1.0126	-0.1155	-0.18	0.0615	0	15	1032	1
2026-02-23	16:54:02.810	1.575	-0.84	0.21	0.09076799	0.088572	1.001376	-0.12	-0.1875	0.054	0	15	1032	1
2026-02-23	16:54:02.830	0.455	-0.21	0.28	0.097356	0.07124799	1.00528	-0.1155	-0.183	0.0615	0	15	1032	1
2026-02-23	16:54:02.850	1.82	-0.875	0.245	0.09882	0.07564	1.008208	-0.111	-0.1815	0.0615	0	15	1032	1
2026-02-23	16:54:02.870	0.945	-0.245	0.245	0.084912	0.091256	0.999668	-0.111	-0.1785	0.0615	0	15	1032	1
2026-02-23	16:54:02.890	1.505	-0.735	0.21	0.08686399	0.083692	1.00162	-0.114	-0.1815	0.054	0	15	1032	1
2026-02-23	16:54:02.910	0.805	-0.35	0.28	0.093452	0.0915	1.009916	-0.12	-0.18	0.0495	0	15	1032	1
2026-02-23	16:54:02.930	1.33	-0.56	0.245	0.09272	0.092232	1.003084	-0.114	-0.1785	0.054	0	15	1032	1
2026-02-23	16:54:02.950	1.05	-0.56	0.245	0.091256	0.085644	1.00528	-0.114	-0.1785	0.054	0	15	1032	1
2026-02-23	16:54:02.970	0.735	-0.35	0.245	0.092476	0.081984	1.008208	-0.114	-0.1785	0.054	0	15	1032	1
2026-02-23	16:54:02.990	1.54	-0.7	0.245	0.095404	0.087596	1.015772	-0.1185	-0.18	0.0525	0	15	1032	1
2026-02-23	16:54:03.010	0.98	-0.35	0.245	0.0976	0.074664	1.004548	-0.117	-0.183	0.0495	0	15	1031	1
2026-02-23	16:54:03.030	1.435	-0.525	0.245	0.095648	0.081496	1.0004	-0.1125	-0.18	0.057	0	15	1031	1
2026-02-23	16:54:03.050	1.225	-0.525	0.28	0.098088	0.081008	1.008452	-0.117	-0.1755	0.0615	0	15	1031	1
2026-02-23	16:54:03.070	1.12	-0.525	0.245	0.089792	0.091744	1.01382	-0.12	-0.1755	0.057	0	15	1031	1
2026-02-23	16:54:03.090	1.155	-0.455	0.245	0.106384	0.07808	1.000156	-0.117	-0.1785	0.0645	0	15	1031	1
2026-02-23	16:54:03.110	0.98	-0.595	0.245	0.097112	0.08662	1.01138	-0.1155	-0.18	0.0645	0	15	1031	1
2026-02-23	16:54:03.130	0.77	-0.385	0.245	0.09028	0.091988	1.021384	-0.1155	-0.1755	0.0585	0	15	1031	1
2026-02-23	16:54:03.150	1.68	-0.7	0.245	0.095892	0.083936	1.006744	-0.117	-0.1785	0.057	0	15	1031	1
2026-02-23	16:54:03.170	0.77	-0.245	0.245	0.104676	0.08174	1.010648	-0.114	-0.18	0.0585	0	15	1031	1
2026-02-23	16:54:03.190	1.225	-0.63	0.315	0.089548	0.09028	1.015284	-0.117	-0.18	0.0585	0	15	1031	1
2026-02-23	16:54:03.210	1.68	-0.63	0.245	0.09516	0.085156	1.021628	-0.1215	-0.18	0.0585	0	15	1031	1
2026-02-23	16:54:03.230	0.455	-0.14	0.28	0.09272	0.083204	1.003328	-0.12	-0.177	0.054	0	15	1031	1
2026-02-23	16:54:03.250	1.925	-0.945	0.21	0.096868	0.076372	1.007232	-0.12	-0.177	0.0495	0	15	1031	1
2026-02-23	16:54:03.270	0.595	-0.175	0.28	0.100284	0.07905599	1.024312	-0.117	-0.1785	0.0555	0	15	1031	1
2026-02-23	16:54:03.290	1.225	-0.77	0.245	0.096136	0.091744	1.009672	-0.1155	-0.1815	0.0555	0	15	1031	1
2026-02-23	16:54:03.310	0.525	-0.315	0.245	0.106384	0.071492	1.009184	-0.114	-0.18	0.0525	0	15	1031	1
2026-02-23	16:54:03.330	1.995	-0.77	0.245	0.091256	0.094428	1.01626	-0.1155	-0.174	0.057	0	15	1031	1
2026-02-23	16:54:03.350	1.26	-0.455	0.21	0.101992	0.08295999	1.015772	-0.1155	-0.174	0.0645	0	15	1031	1
2026-02-23	16:54:03.370	0.595	-0.21	0.28	0.10858	0.08174	1.006256	-0.1155	-0.1725	0.063	0	15	1031	1
2026-02-23	16:54:03.390	2.1	-0.945	0.245	0.09638	0.089548	1.017236	-0.1185	-0.1755	0.057	0	15	1031	1
2026-02-23	16:54:03.410	-0.07	-0.105	0.28	0.102724	0.075884	1.014308	-0.12	-0.1785	0.054	0	14	1031	1
2026-02-23	16:54:03.430	1.925	-0.91	0.21	0.091256	0.082472	1.016748	-0.117	-0.174	0.054	0	14	1031	1
2026-02-23	16:54:03.450	0.665	-0.175	0.28	0.102724	0.089792	1.009672	-0.114	-0.1695	0.0555	0	14	1031	1
2026-02-23	16:54:03.470	1.855	-0.84	0.245	0.110776	0.081252	1.005524	-0.114	-0.1695	0.0555	0	14	1031	1
2026-02-23	16:54:03.490	0.595	-0.175	0.28	0.094428	0.083448	1.020408	-0.1095	-0.1755	0.0525	0	14	1031	1
2026-02-23	16:54:03.510	1.12	-0.455	0.245	0.098088	0.08052	1.019432	-0.1095	-0.1755	0.0525	0	14	1031	1
2026-02-23	16:54:03.530	1.4	-0.595	0.245	0.099552	0.083692	1.004548	-0.1155	-0.18	0.06	0	14	1031	1
2026-02-23	16:54:03.550	1.05	-0.42	0.28	0.100528	0.087596	1.010648	-0.117	-0.1785	0.06	0	14	1031	1
2026-02-23	16:54:03.570	0.63	-0.385	0.245	0.108336	0.081008	1.004548	-0.1185	-0.1755	0.0525	0	14	1031	1
2026-02-23	16:54:03.590	1.89	-0.665	0.21	0.097356	0.087596	1.014552	-0.108	-0.18	0.0585	0	14	1031	1
2026-02-23	16:54:03.610	1.26	-0.455	0.28	0.101748	0.08662	1.01504	-0.111	-0.1815	0.0585	0	14	1032	1
2026-02-23	16:54:03.630	0.77	-0.455	0.245	0.113704	0.07905599	0.996252	-0.1095	-0.1845	0.066	0	14	1032	1
2026-02-23	16:54:03.650	0.595	-0.315	0.315	0.088328	0.088572	1.01992	-0.1125	-0.1815	0.0615	0	14	1032	1
2026-02-23	16:54:03.670	1.89	-0.805	0.21	0.109068	0.085644	1.006012	-0.1155	-0.1845	0.06	0	14	1032	1
2026-02-23	16:54:03.690	0.91	-0.35	0.28	0.099308	0.083936	1.004548	-0.1215	-0.186	0.0615	0	14	1032	1
2026-02-23	16:54:03.710	1.225	-0.49	0.245	0.093208	0.086132	1.017236	-0.114	-0.18	0.063	0	14	1032	1
2026-02-23	16:54:03.730	1.54	-0.63	0.315	0.101016	0.080764	0.996496	-0.117	-0.1785	0.057	0	14	1032	1
2026-02-23	16:54:03.750	0.875	-0.42	0.245	0.094428	0.091012	1.016016	-0.117	-0.1815	0.0645	0	14	1032	1
2026-02-23	16:54:03.770	0.945	-0.525	0.28	0.097112	0.087352	0.99918	-0.117	-0.1785	0.054	0	14	1032	1
2026-02-23	16:54:03.790	1.4	-0.665	0.245	0.088084	0.08295999	1.002352	-0.1155	-0.177	0.0585	0	14	1032	1
2026-02-23	16:54:03.810	1.085	-0.42	0.245	0.10248	0.07442	1.000888	-0.1215	-0.18	0.057	0	14	1032	1
2026-02-23	16:54:03.830	1.225	-0.525	0.28	0.088328	0.083936	1.003328	-0.114	-0.177	0.054	0	14	1032	1
2026-02-23	16:54:03.850	1.33	-0.49	0.245	0.094184	0.083448	1.002108	-0.12	-0.183	0.054	0	14	1032	1
2026-02-23	16:54:03.870	1.225	-0.525	0.245	0.093208	0.09076799	1.007964	-0.1185	-0.1785	0.0585	0	14	1032	1
2026-02-23	16:54:03.890	0.665	-0.385	0.245	0.10126	0.073444	1.000156	-0.1125	-0.1725	0.0525	0	14	1032	1
2026-02-23	16:54:03.910	1.61	-0.77	0.21	0.08784	0.076372	1.0065	-0.114	-0.1815	0.0585	0	14	1032	1
2026-02-23	16:54:03.930	1.12	-0.49	0.245	0.09076799	0.077836	0.999424	-0.1125	-0.186	0.054	0	14	1032	1
2026-02-23	16:54:03.950	0.84	-0.385	0.21	0.0976	0.089304	0.994544	-0.111	-0.1725	0.054	0	14	1032	1
2026-02-23	16:54:03.970	1.47	-0.7	0.245	0.09516	0.077348	1.00772	-0.111	-0.18	0.06	0	14	1032	1
2026-02-23	16:54:03.990	1.015	-0.385	0.21	0.098332	0.08052	1.010892	-0.111	-0.18	0.06	0	14	1032	1
2026-02-23	16:54:04.010	1.4	-0.595	0.245	0.09516	0.078324	1.006988	-0.111	-0.18	0.06	0	14	1031	1
2026-02-23	16:54:04.030	1.365	-0.595	0.28	0.088572	0.089304	1.007476	-0.111	-0.177	0.0585	0	14	1031	1
2026-02-23	16:54:04.050	0.455	-0.315	0.245	0.095892	0.083204	1.01504	-0.117	-0.174	0.06	0	14	1031	1
2026-02-23	16:54:04.070	1.54	-0.7	0.21	0.109556	0.089304	0.99186	-0.12	-0.177	0.06	0	14	1031	1
2026-02-23	16:54:04.090	1.435	-0.525	0.21	0.095648	0.0854	1.014552	-0.1185	-0.18	0.057	0	14	1031	1
2026-02-23	16:54:04.110	0.735	-0.42	0.245	0.086376	0.092476	1.017724	-0.1185	-0.1785	0.0555	0	14	1031	1
2026-02-23	16:54:04.130	1.225	-0.56	0.21	0.105652	0.078812	1.002596	-0.1185	-0.18	0.0555	0	14	1031	1
2026-02-23	16:54:04.150	1.4	-0.525	0.245	0.099796	0.08418	0.998936	-0.1155	-0.177	0.057	0	14	1031	1
2026-02-23	16:54:04.170	1.015	-0.56	0.245	0.095404	0.076128	1.007232	-0.108	-0.177	0.057	0	14	1031	1
2026-02-23	16:54:04.190	1.26	-0.56	0.245	0.091988	0.091744	1.014796	-0.1095	-0.1815	0.051	0	14	1031	1
2026-02-23	16:54:04.210	1.26	-0.595	0.21	0.102236	0.07905599	1.007232	-0.1125	-0.1785	0.051	0	14	1031	1
2026-02-23	16:54:04.230	1.12	-0.42	0.28	0.083204	0.087352	1.005768	-0.111	-0.1755	0.0495	0	14	1031	1
2026-02-23	16:54:04.250	1.085	-0.595	0.315	0.087108	0.082472	1.005036	-0.114	-0.1785	0.048	0	14	1031	1
2026-02-23	16:54:04.270	0.595	-0.385	0.21	0.09272	0.08906	1.013088	-0.117	-0.183	0.051	0	14	1031	1
2026-02-23	16:54:04.290	1.89	-0.7	0.245	0.085644	0.081252	1.018944	-0.114	-0.186	0.057	0	14	1031	1
2026-02-23	16:54:04.310	0.945	-0.35	0.245	0.096136	0.081984	0.996496	-0.1125	-0.1845	0.0555	0	14	1031	1
2026-02-23	16:54:04.330	1.26	-0.455	0.245	0.094916	0.087108	1.022604	-0.1125	-0.1785	0.054	0	14	1031	1
2026-02-23	16:54:04.350	1.96	-0.805	0.21	0.108824	0.091988	1.00406	-0.1155	-0.1725	0.057	0	14	1031	1
2026-02-23	16:54:04.370	0.175	-0.21	0.28	0.09272	0.092476	1.020652	-0.117	-0.1695	0.06	0	14	1031	1
2026-02-23	16:54:04.390	1.365	-0.77	0.28	0.091988	0.085644	1.02114	-0.1185	-0.1785	0.0615	0	14	1031	1
2026-02-23	16:54:04.410	1.225	-0.49	0.245	0.101504	0.082472	1.003084	-0.117	-0.1815	0.0585	0	14	1031	1
2026-02-23	16:54:04.430	1.365	-0.595	0.245	0.101748	0.088328	1.00894	-0.111	-0.174	0.06	0	14	1031	1
2026-02-23	16:54:04.450	1.26	-0.525	0.28	0.088328	0.09467199	1.022604	-0.1125	-0.1755	0.0585	0	14	1031	1
2026-02-23	16:54:04.470	0.56	-0.315	0.245	0.099064	0.087596	1.011868	-0.1125	-0.18	0.0555	0	14	1031	1
2026-02-23	16:54:04.490	1.82	-0.805	0.21	0.093696	0.092232	1.018944	-0.1095	-0.1755	0.051	0	14	1031	1
2026-02-23	16:54:04.510	0.98	-0.315	0.245	0.107604	0.0854	1.010892	-0.1155	-0.171	0.0525	0	14	1031	1
2026-02-23	16:54:04.530	1.05	-0.63	0.245	0.092964	0.095648	1.011136	-0.12	-0.1695	0.0585	0	14	1031	1
2026-02-23	16:54:04.550	1.295	-0.56	0.245	0.106628	0.08174	1.014064	-0.12	-0.1695	0.0585	0	14	1031	1
2026-02-23	16:54:04.570	1.19	-0.525	0.28	0.094916	0.101504	1.021384	-0.114	-0.1725	0.0555	0	14	1031	1
2026-02-23	16:54:04.590	2.205	-0.98	0.245	0.101016	0.09467199	1.007964	-0.114	-0.1725	0.0555	0	14	1031	1
2026-02-23	16:54:04.610	1.26	-0.385	0.21	0.103212	0.09638	0.998448	-0.114	-0.1725	0.0555	0	14	1031	1
2026-02-23	16:54:04.630	1.33	-0.665	0.245	0.108824	0.08662	1.012844	-0.1095	-0.1695	0.0585	0	14	1031	1
2026-02-23	16:54:04.650	1.085	-0.525	0.245	0.090036	0.08662	1.01504	-0.1155	-0.1815	0.051	0	14	1031	1
2026-02-23	16:54:04.670	1.12	-0.525	0.21	0.094916	0.082228	1.01138	-0.1155	-0.18	0.054	0	14	1031	1
2026-02-23	16:54:04.690	0.945	-0.42	0.245	0.10248	0.08295999	1.003328	-0.1155	-0.1815	0.051	0	14	1031	1
2026-02-23	16:54:04.710	1.47	-0.665	0.21	0.089792	0.087596	1.011136	-0.117	-0.1755	0.0585	0	14	1031	1
2026-02-23	16:54:04.730	0.77	-0.385	0.245	0.10248	0.078324	1.01504	-0.1125	-0.1695	0.054	0	14	1031	1
2026-02-23	16:54:04.750	1.435	-0.56	0.245	0.100284	0.081496	1.010648	-0.1125	-0.18	0.0525	0	14	1031	1
2026-02-23	16:54:04.770	1.365	-0.525	0.245	0.092232	0.09028	1.003572	-0.1155	-0.1755	0.0525	0	14	1031	1
2026-02-23	16:54:04.790	0.805	-0.42	0.28	0.089792	0.083204	1.005768	-0.108	-0.177	0.0615	0	14	1031	1
2026-02-23	16:54:04.810	1.155	-0.56	0.245	0.101016	0.083204	1.011136	-0.111	-0.1815	0.057	0	14	1032	1
2026-02-23	16:54:04.830	1.33	-0.56	0.21	0.088816	0.10004	1.011624	-0.1185	-0.1755	0.063	0	14	1032	1
2026-02-23	16:54:04.850	1.365	-0.56	0.245	0.108336	0.078324	1.007232	-0.1185	-0.177	0.063	0	14	1032	1
2026-02-23	16:54:04.870	0.945	-0.385	0.28	0.112972	0.084424	1.002108	-0.1215	-0.1755	0.0525	0	14	1032	1
2026-02-23	16:54:04.890	1.155	-0.595	0.245	0.087108	0.09467199	1.022116	-0.114	-0.177	0.051	0	14	1032	1
2026-02-23	16:54:04.910	1.12	-0.49	0.245	0.099552	0.084668	0.997472	-0.114	-0.177	0.054	0	14	1032	1
2026-02-23	16:54:04.930	1.54	-0.7	0.28	0.09638	0.09076799	1.005768	-0.117	-0.1755	0.0525	0	14	1032	1
2026-02-23	16:54:04.950	0.385	-0.175	0.245	0.094184	0.078324	1.009672	-0.111	-0.18	0.054	0	14	1032	1
2026-02-23	16:54:04.970	1.96	-0.805	0.245	0.101016	0.081984	0.996984	-0.1065	-0.18	0.066	0	14	1032	1
2026-02-23	16:54:04.990	0.665	-0.21	0.315	0.08418	0.083448	1.005524	-0.108	-0.18	0.0585	0	14	1032	1
2026-02-23	16:54:05.010	1.015	-0.525	0.245	0.095892	0.08052	0.989664	-0.111	-0.1815	0.051	0	14	1032	1
2026-02-23	16:54:05.030	1.925	-0.665	0.21	0.099796	0.089304	1.006988	-0.1125	-0.183	0.0495	0	14	1032	1
2026-02-23	16:54:05.050	0.7	-0.28	0.28	0.085156	0.09076799	1.009428	-0.111	-0.183	0.0525	0	14	1032	1
2026-02-23	16:54:05.070	1.505	-0.77	0.245	0.105164	0.075396	0.997228	-0.1095	-0.1785	0.057	0	14	1032	1
2026-02-23	16:54:05.090	0.63	-0.28	0.245	0.085888	0.077592	1.0126	-0.1125	-0.1785	0.054	0	14	1032	1
2026-02-23	16:54:05.110	1.54	-0.805	0.245	0.101992	0.082228	0.995764	-0.114	-0.18	0.0525	0	14	1032	1
2026-02-23	16:54:05.130	0.805	-0.28	0.28	0.091256	0.082228	1.00528	-0.114	-0.174	0.0525	0	14	1032	1
2026-02-23	16:54:05.150	1.61	-0.735	0.21	0.088084	0.08295999	1.010892	-0.111	-0.1695	0.051	0	14	1032	1
2026-02-23	16:54:05.170	0.875	-0.385	0.245	0.09394	0.089304	1.003328	-0.117	-0.1755	0.051	0	14	1032	1
2026-02-23	16:54:05.190	0.735	-0.385	0.245	0.095404	0.081984	1.00162	-0.1185	-0.177	0.0525	0	14	1032	1
2026-02-23	16:54:05.210	1.505	-0.665	0.245	0.100772	0.083204	0.995276	-0.111	-0.1755	0.054	0	14	1031	1
2026-02-23	16:54:05.230	1.155	-0.315	0.21	0.100772	0.0732	1.014308	-0.114	-0.1725	0.054	0	14	1031	1
2026-02-23	16:54:05.250	2.03	-0.805	0.245	0.083204	0.084424	1.008452	-0.1125	-0.177	0.051	0	14	1031	1
2026-02-23	16:54:05.270	0.49	-0.21	0.28	0.089792	0.081252	1.01016	-0.111	-0.1785	0.054	0	14	1031	1
2026-02-23	16:54:05.290	1.19	-0.63	0.245	0.101016	0.07905599	1.006256	-0.1095	-0.174	0.0525	0	14	1031	1
2026-02-23	16:54:05.310	1.365	-0.665	0.315	0.089304	0.083204	1.01382	-0.114	-0.1785	0.051	0	14	1031	1
2026-02-23	16:54:05.330	0.315	-0.28	0.245	0.100528	0.075884	1.00406	-0.117	-0.1815	0.054	0	14	1031	1
2026-02-23	16:54:05.350	2.1	-0.805	0.21	0.093208	0.079544	1.013332	-0.1125	-0.177	0.057	0	14	1031	1
2026-02-23	16:54:05.370	1.085	-0.385	0.28	0.095648	0.09272	1.016992	-0.114	-0.1785	0.057	0	14	1031	1
2026-02-23	16:54:05.390	0.735	-0.49	0.28	0.093452	0.08662	0.999668	-0.117	-0.1815	0.0525	0	14	1031	1
2026-02-23	16:54:05.410	1.4	-0.525	0.28	0.09076799	0.081984	1.017236	-0.117	-0.18	0.051	0	13	1031	1
2026-02-23	16:54:05.430	1.365	-0.525	0.245	0.09467199	0.093696	1.013088	-0.117	-0.177	0.0495	0	13	1031	1
2026-02-23	16:54:05.450	0.455	-0.42	0.28	0.101992	0.079544	1.009916	-0.114	-0.177	0.0525	0	13	1031	1
2026-02-23	16:54:05.470	1.19	-0.49	0.28	0.087596	0.081496	1.016504	-0.1125	-0.1785	0.054	0	13	1031	1
2026-02-23	16:54:05.490	1.68	-0.665	0.21	0.099552	0.086376	1.004548	-0.114	-0.18	0.0525	0	13	1031	1
2026-02-23	16:54:05.510	1.015	-0.315	0.245	0.080276	0.09467199	1.016504	-0.114	-0.1815	0.0525	0	13	1031	1
2026-02-23	16:54:05.530	1.4	-0.63	0.245	0.099552	0.091256	0.999912	-0.1155	-0.18	0.054	0	13	1031	1
2026-02-23	16:54:05.550	0.875	-0.455	0.28	0.0793	0.088572	1.01748	-0.114	-0.1785	0.0525	0	13	1031	1
2026-02-23	16:54:05.570	1.26	-0.525	0.28	0.086376	0.09076799	1.014796	-0.111	-0.177	0.0525	0	13	1031	1
2026-02-23	16:54:05.590	0.98	-0.42	0.245	0.102724	0.09272	1.020408	-0.111	-0.171	0.051	0	13	1031	1
2026-02-23	16:54:05.610	1.4	-0.63	0.245	0.111996	0.091744	1.010404	-0.1125	-0.168	0.051	0	13	1031	1
2026-02-23	16:54:05.630	1.19	-0.525	0.245	0.1037	0.079544	1.019432	-0.117	-0.174	0.045	0	13	1031	1
2026-02-23	16:54:05.650	1.12	-0.49	0.245	0.11468	0.08662	1.01138	-0.117	-0.1755	0.0495	0	13	1031	1
2026-02-23	16:54:05.670	1.19	-0.385	0.21	0.106872	0.08052	1.017724	-0.117	-0.1755	0.0495	0	13	1031	1
2026-02-23	16:54:05.690	1.68	-0.665	0.245	0.100284	0.081008	1.009428	-0.117	-0.1815	0.057	0	13	1031	1
2026-02-23	16:54:05.710	0.7	-0.35	0.245	0.094184	0.090036	1.022604	-0.111	-0.174	0.0495	0	13	1031	1
2026-02-23	16:54:05.730	0.77	-0.455	0.28	0.10614	0.08418	1.002596	-0.1155	-0.1665	0.054	0	13	1031	1
2026-02-23	16:54:05.750	1.82	-0.77	0.245	0.103944	0.094184	1.02236	-0.1185	-0.1785	0.0525	0	13	1031	1
2026-02-23	16:54:05.770	0.945	-0.385	0.245	0.089548	0.096624	1.020408	-0.111	-0.1785	0.054	0	13	1031	1
2026-02-23	16:54:05.790	0.84	-0.49	0.28	0.101992	0.088572	0.998936	-0.111	-0.168	0.051	0	13	1031	1
2026-02-23	16:54:05.810	1.12	-0.525	0.245	0.092476	0.07905599	1.017968	-0.117	-0.174	0.0525	0	13	1031	1
2026-02-23	16:54:05.830	1.26	-0.525	0.21	0.090036	0.089548	1.008208	-0.1185	-0.1755	0.0555	0	13	1031	1
2026-02-23	16:54:05.850	1.225	-0.455	0.245	0.10126	0.072956	1.001376	-0.111	-0.177	0.042	0	13	1031	1
2026-02-23	16:54:05.870	1.26	-0.525	0.245	0.110044	0.087108	1.018212	-0.117	-0.18	0.06	0	13	1031	1
2026-02-23	16:54:05.890	1.365	-0.56	0.28	0.098088	0.077104	1.016504	-0.1125	-0.1785	0.054	0	13	1031	1
2026-02-23	16:54:05.910	0.98	-0.455	0.245	0.101748	0.081008	1.005524	-0.117	-0.18	0.0525	0	13	1031	1
2026-02-23	16:54:05.930	1.155	-0.56	0.21	0.113216	0.077836	1.009428	-0.1125	-0.183	0.0495	0	13	1031	1
2026-02-23	16:54:05.950	1.47	-0.665	0.28	0.095648	0.086376	1.006012	-0.1125	-0.177	0.0555	0	13	1031	1
2026-02-23	16:54:05.970	0.7	-0.385	0.245	0.102236	0.082228	1.006988	-0.1185	-0.1725	0.051	0	13	1031	1
2026-02-23	16:54:05.990	1.015	-0.49	0.28	0.09882	0.074908	1.008696	-0.1095	-0.18	0.0615	0	13	1031	1
2026-02-23	16:54:06.010	1.715	-0.735	0.28	0.093696	0.084912	1.015528	-0.1125	-0.1755	0.0555	0	13	1032	1
2026-02-23	16:54:06.030	1.015	-0.385	0.245	0.099552	0.09076799	0.994544	-0.114	-0.1755	0.051	0	13	1032	1
2026-02-23	16:54:06.050	1.015	-0.49	0.21	0.101504	0.083448	1.01504	-0.114	-0.1785	0.0495	0	13	1032	1
2026-02-23	16:54:06.070	1.19	-0.49	0.245	0.085888	0.08784	1.005524	-0.114	-0.18	0.0555	0	13	1032	1
2026-02-23	16:54:06.090	1.225	-0.525	0.245	0.093696	0.087352	0.996252	-0.1125	-0.1815	0.057	0	13	1032	1
2026-02-23	16:54:06.110	1.33	-0.49	0.245	0.101504	0.08686399	1.004548	-0.1125	-0.1785	0.0585	0	13	1032	1
2026-02-23	16:54:06.130	1.295	-0.525	0.245	0.097356	0.09076799	1.013332	-0.1155	-0.177	0.0555	0	13	1032	1
2026-02-23	16:54:06.150	0.7	-0.42	0.28	0.109068	0.079788	1.003084	-0.114	-0.174	0.051	0	13	1032	1
2026-02-23	16:54:06.170	1.225	-0.525	0.245	0.09467199	0.076616	1.004548	-0.111	-0.171	0.054	0	13	1032	1
2026-02-23	16:54:06.190	1.4	-0.525	0.175	0.09638	0.0854	0.994056	-0.1125	-0.177	0.057	0	13	1032	1
2026-02-23	16:54:06.210	0.945	-0.455	0.28	0.078568	0.09028	1.003816	-0.1095	-0.18	0.0585	0	13	1032	1
2026-02-23	16:54:06.230	1.155	-0.525	0.175	0.096136	0.081984	1.008696	-0.108	-0.1755	0.057	0	13	1032	1
2026-02-23	16:54:06.250	1.575	-0.665	0.245	0.09076799	0.081984	1.00528	-0.111	-0.174	0.054	0	13	1032	1
2026-02-23	16:54:06.270	0.595	-0.28	0.245	0.098088	0.07076	0.992348	-0.1065	-0.177	0.0525	0	13	1032	1
2026-02-23	16:54:06.290	1.33	-0.665	0.21	0.098332	0.069784	1.013332	-0.1125	-0.1785	0.054	0	13	1032	1
2026-02-23	16:54:06.310	1.4	-0.595	0.245	0.092476	0.089548	1.000156	-0.1215	-0.18	0.0525	0	13	1032	1
2026-02-23	16:54:06.330	0.735	-0.28	0.245	0.075884	0.087108	1.016992	-0.1185	-0.1785	0.054	0	13	1032	1
2026-02-23	16:54:06.350	1.645	-0.7	0.21	0.099552	0.092964	0.997472	-0.114	-0.177	0.054	0	13	1032	1
2026-02-23	16:54:06.370	0.49	-0.21	0.28	0.084424	0.078812	1.005036	-0.1125	-0.1785	0.0525	0	13	1032	1
2026-02-23	16:54:06.390	1.925	-0.84	0.175	0.088816	0.08906	0.999912	-0.1125	-0.1785	0.0525	0	13	1032	1
2026-02-23	16:54:06.410	0.91	-0.245	0.245	0.094916	0.086376	1.013576	-0.114	-0.1755	0.054	0	13	1031	1
2026-02-23	16:54:06.430	1.505	-0.77	0.245	0.097844	0.077348	0.99796	-0.114	-0.177	0.0555	0	13	1031	1
2026-02-23	16:54:06.450	0.63	-0.28	0.28	0.087352	0.084424	1.00284	-0.114	-0.1785	0.0555	0	13	1031	1
2026-02-23	16:54:06.470	1.82	-0.84	0.21	0.09028	0.081984	1.00528	-0.117	-0.1785	0.0525	0	13	1031	1
2026-02-23	16:54:06.490	0.84	-0.385	0.245	0.08295999	0.091012	1.01016	-0.1155	-0.1755	0.0525	0	13	1031	1
2026-02-23	16:54:06.510	0.98	-0.455	0.21	0.088328	0.074176	0.998936	-0.1125	-0.1755	0.051	0	13	1031	1
2026-02-23	16:54:06.530	1.435	-0.595	0.21	0.09394	0.09076799	1.006744	-0.1125	-0.177	0.0465	0	13	1031	1
2026-02-23	16:54:06.550	1.12	-0.49	0.28	0.093452	0.086132	1.013088	-0.1155	-0.177	0.054	0	13	1031	1
2026-02-23	16:54:06.570	0.875	-0.49	0.28	0.088572	0.0915	1.011868	-0.114	-0.174	0.0585	0	13	1031	1
2026-02-23	16:54:06.590	1.085	-0.49	0.28	0.09272	0.080032	1.00528	-0.1125	-0.177	0.0555	0	13	1031	1
2026-02-23	16:54:06.610	1.68	-0.665	0.245	0.090524	0.0854	1.00894	-0.1155	-0.177	0.06	0	14	1030	1
2026-02-23	16:54:06.630	0.595	-0.14	0.245	0.087352	0.09076799	1.014064	-0.114	-0.1785	0.0555	0	14	1030	1
2026-02-23	16:54:06.650	2.03	-0.98	0.21	0.102968	0.085888	1.006744	-0.114	-0.1785	0.0525	0	14	1030	1
2026-02-23	16:54:06.670	0.21	0	0.28	0.101504	0.082472	1.0126	-0.117	-0.171	0.0585	0	14	1030	1
2026-02-23	16:54:06.690	1.75	-0.91	0.245	0.08784	0.084912	1.011624	-0.117	-0.168	0.06	0	14	1030	1
2026-02-23	16:54:06.710	0.595	-0.315	0.28	0.095648	0.083936	1.010892	-0.117	-0.168	0.06	0	14	1030	1
2026-02-23	16:54:06.730	1.435	-0.63	0.245	0.091256	0.083448	1.016504	-0.114	-0.177	0.054	0	14	1030	1
2026-02-23	16:54:06.750	1.33	-0.7	0.245	0.09272	0.088328	1.0065	-0.114	-0.177	0.054	0	14	1030	1
2026-02-23	16:54:06.770	0.63	-0.28	0.245	0.099552	0.08418	1.021384	-0.117	-0.177	0.0555	0	14	1030	1
2026-02-23	16:54:06.790	1.925	-0.91	0.245	0.103212	0.08295999	1.00894	-0.108	-0.1815	0.0555	0	14	1030	1
2026-02-23	16:54:06.810	0.21	-0.07	0.245	0.09076799	0.079544	1.009916	-0.1125	-0.1695	0.0525	0	14	1030	1
2026-02-23	16:54:06.830	1.645	-0.7	0.245	0.095892	0.09028	1.010404	-0.1185	-0.177	0.057	0	14	1030	1
2026-02-23	16:54:06.850	1.225	-0.49	0.245	0.11224	0.091988	1.023824	-0.1185	-0.1755	0.0495	0	14	1030	1
2026-02-23	16:54:06.870	0.91	-0.385	0.245	0.100284	0.087352	1.012844	-0.1125	-0.1755	0.057	0	14	1030	1
2026-02-23	16:54:06.890	1.505	-0.7	0.245	0.09394	0.08418	1.015284	-0.111	-0.18	0.0465	0	14	1030	1
2026-02-23	16:54:06.910	1.155	-0.49	0.245	0.105896	0.09028	1.008452	-0.12	-0.177	0.057	0	14	1030	1
2026-02-23	16:54:06.930	0.91	-0.455	0.245	0.082472	0.091012	1.024068	-0.114	-0.1815	0.0555	0	14	1030	1
2026-02-23	16:54:06.950	1.295	-0.595	0.245	0.110288	0.07564	0.998448	-0.117	-0.1785	0.0585	0	14	1030	1
2026-02-23	16:54:06.970	1.155	-0.56	0.28	0.10126	0.084424	1.013576	-0.1065	-0.177	0.0495	0	14	1030	1
2026-02-23	16:54:06.990	0.735	-0.385	0.28	0.085644	0.096624	1.012112	-0.1155	-0.1845	0.057	0	14	1030	1
2026-02-23	16:54:07.010	1.505	-0.7	0.28	0.092476	0.083204	1.015284	-0.1155	-0.1845	0.057	0	14	1031	1
2026-02-23	16:54:07.030	0.84	-0.315	0.245	0.103212	0.092964	1.004792	-0.1155	-0.1845	0.057	0	14	1031	1
2026-02-23	16:54:07.050	1.54	-0.7	0.21	0.097112	0.081496	1.008208	-0.114	-0.18	0.0555	0	14	1031	1
2026-02-23	16:54:07.070	0.945	-0.245	0.21	0.102236	0.078324	1.013332	-0.117	-0.1755	0.0555	0	14	1031	1
2026-02-23	16:54:07.090	1.855	-0.735	0.245	0.08295999	0.101992	1.01138	-0.1155	-0.177	0.051	0	14	1031	1
2026-02-23	16:54:07.110	0.875	-0.455	0.245	0.08686399	0.092232	1.01138	-0.111	-0.1815	0.051	0	14	1031	1
2026-02-23	16:54:07.130	0.595	-0.455	0.28	0.112728	0.083448	0.99918	-0.1125	-0.18	0.051	0	14	1031	1
2026-02-23	16:54:07.150	1.12	-0.56	0.28	0.097112	0.079788	1.019676	-0.1125	-0.174	0.0495	0	14	1031	1
2026-02-23	16:54:07.170	1.68	-0.63	0.175	0.111508	0.07564	0.99674	-0.114	-0.174	0.054	0	14	1031	1
2026-02-23	16:54:07.190	0.77	-0.385	0.28	0.0915	0.082472	1.010404	-0.1155	-0.1815	0.054	0	14	1031	1
2026-02-23	16:54:07.210	1.295	-0.56	0.21	0.10248	0.076128	1.006256	-0.114	-0.1815	0.0555	0	14	1032	1
2026-02-23	16:54:07.230	1.435	-0.525	0.28	0.097112	0.093696	1.003572	-0.114	-0.177	0.0525	0	14	1032	1
2026-02-23	16:54:07.250	0.98	-0.455	0.245	0.08906	0.088572	1.005768	-0.1125	-0.1755	0.051	0	14	1032	1
2026-02-23	16:54:07.270	1.05	-0.49	0.21	0.102968	0.084912	0.996252	-0.108	-0.18	0.054	0	14	1032	1
2026-02-23	16:54:07.290	1.4	-0.63	0.245	0.099308	0.074664	1.007232	-0.108	-0.1785	0.051	0	14	1032	1
2026-02-23	16:54:07.310	0.98	-0.42	0.28	0.097844	0.082716	1.013088	-0.1095	-0.1695	0.0555	0	14	1032	1
2026-02-23	16:54:07.330	1.75	-0.7	0.245	0.094916	0.089792	1.0065	-0.1125	-0.168	0.06	0	14	1032	1
2026-02-23	16:54:07.350	0.455	-0.245	0.28	0.100284	0.075884	0.993568	-0.117	-0.171	0.0525	0	14	1032	1
2026-02-23	16:54:07.370	1.155	-0.7	0.245	0.085644	0.08295999	1.01016	-0.1155	-0.177	0.051	0	14	1032	1
2026-02-23	16:54:07.390	1.68	-0.595	0.245	0.09857599	0.088816	1.004548	-0.114	-0.1785	0.0525	0	14	1032	1
2026-02-23	16:54:07.410	0.945	-0.385	0.245	0.093208	0.07442	0.993324	-0.1125	-0.1815	0.0525	0	14	1031	1
2026-02-23	16:54:07.430	1.05	-0.49	0.245	0.095648	0.086376	1.006256	-0.1125	-0.1815	0.057	0	14	1031	1
2026-02-23	16:54:07.450	1.61	-0.665	0.245	0.10492	0.078812	1.001376	-0.114	-0.1755	0.057	0	14	1031	1
2026-02-23	16:54:07.470	0.77	-0.35	0.245	0.094916	0.074664	1.001376	-0.1125	-0.174	0.051	0	14	1031	1
2026-02-23	16:54:07.490	1.085	-0.49	0.28	0.091988	0.07808	1.009184	-0.1125	-0.171	0.0495	0	14	1031	1
2026-02-23	16:54:07.510	1.4	-0.665	0.245	0.103456	0.081252	0.987956	-0.1125	-0.171	0.0465	0	14	1031	1
2026-02-23	16:54:07.530	0.98	-0.315	0.245	0.093208	0.077348	1.01382	-0.1125	-0.1725	0.0495	0	14	1031	1
2026-02-23	16:54:07.550	1.75	-0.7	0.245	0.081008	0.099064	1.008696	-0.1155	-0.1725	0.0495	0	14	1031	1
2026-02-23	16:54:07.570	0.805	-0.315	0.21	0.11102	0.083936	1.00162	-0.114	-0.1695	0.0465	0	14	1031	1
2026-02-23	16:54:07.590	1.26	-0.63	0.28	0.083692	0.083204	1.00894	-0.111	-0.174	0.048	0	14	1031	1
2026-02-23	16:54:07.610	0.735	-0.49	0.21	0.097112	0.082472	0.994788	-0.1095	-0.1785	0.0525	0	14	1030	1
2026-02-23	16:54:07.630	0.91	-0.455	0.28	0.086376	0.088328	1.014308	-0.108	-0.1755	0.0525	0	14	1030	1
2026-02-23	16:54:07.650	1.75	-0.805	0.245	0.095404	0.081496	1.004304	-0.111	-0.174	0.0495	0	14	1030	1
2026-02-23	16:54:07.670	0.35	-0.035	0.245	0.086132	0.072224	1.012844	-0.117	-0.171	0.0495	0	14	1030	1
2026-02-23	16:54:07.690	2.275	-1.015	0.21	0.095892	0.09638	0.996984	-0.117	-0.171	0.048	0	14	1030	1
2026-02-23	16:54:07.710	0.77	-0.21	0.28	0.098332	0.079788	1.023092	-0.1095	-0.1755	0.0525	0	14	1030	1
2026-02-23	16:54:07.730	1.12	-0.665	0.245	0.093208	0.08418	1.00406	-0.1095	-0.1785	0.0555	0	14	1030	1
2026-02-23	16:54:07.750	1.155	-0.56	0.245	0.09076799	0.088572	1.025776	-0.1125	-0.1725	0.0525	0	14	1030	1
2026-02-23	16:54:07.770	1.05	-0.42	0.28	0.102724	0.082228	1.003816	-0.1125	-0.1665	0.051	0	14	1030	1
2026-02-23	16:54:07.790	1.33	-0.595	0.245	0.085888	0.073932	1.014064	-0.1125	-0.1665	0.051	0	14	1030	1
2026-02-23	16:54:07.810	1.225	-0.49	0.245	0.102968	0.08174	1.013332	-0.108	-0.1785	0.0435	0	14	1030	1
2026-02-23	16:54:07.830	1.365	-0.63	0.245	0.093452	0.079788	1.0187	-0.108	-0.1785	0.0435	0	14	1030	1
2026-02-23	16:54:07.850	1.225	-0.455	0.21	0.101992	0.086132	1.012356	-0.1095	-0.1785	0.0525	0	14	1030	1
2026-02-23	16:54:07.870	1.05	-0.455	0.245	0.098332	0.082472	1.01016	-0.1095	-0.1665	0.0555	0	14	1030	1
2026-02-23	16:54:07.890	1.575	-0.665	0.245	0.098332	0.079788	1.02358	-0.1035	-0.177	0.0525	0	14	1030	1
2026-02-23	16:54:07.910	0.91	-0.35	0.245	0.0915	0.093208	1.00894	-0.105	-0.174	0.054	0	14	1030	1
2026-02-23	16:54:07.930	1.33	-0.595	0.245	0.088084	0.09028	1.009916	-0.1155	-0.183	0.0555	0	14	1030	1
2026-02-23	16:54:07.950	1.05	-0.42	0.245	0.091256	0.093208	1.015284	-0.114	-0.1755	0.0585	0	14	1030	1
2026-02-23	16:54:07.970	1.4	-0.735	0.28	0.093452	0.091012	1.010892	-0.1155	-0.177	0.0495	0	14	1030	1
2026-02-23	16:54:07.990	0.595	-0.35	0.245	0.104188	0.082228	1.004304	-0.0975	-0.1785	0.0525	0	14	1030	1
2026-02-23	16:54:08.010	1.435	-0.595	0.245	0.096624	0.08686399	1.016992	-0.1185	-0.1725	0.0555	0	14	1030	1
2026-02-23	16:54:08.030	1.26	-0.56	0.245	0.104432	0.085156	1.011868	-0.1185	-0.1725	0.0555	0	14	1030	1
2026-02-23	16:54:08.050	1.015	-0.42	0.245	0.09638	0.083936	1.010892	-0.1185	-0.1725	0.0555	0	14	1030	1
2026-02-23	16:54:08.070	1.47	-0.665	0.315	0.104676	0.074908	1.015772	-0.114	-0.1755	0.054	0	14	1030	1
2026-02-23	16:54:08.090	1.12	-0.455	0.245	0.103456	0.08662	1.013576	-0.114	-0.1785	0.051	0	14	1030	1
2026-02-23	16:54:08.110	1.05	-0.49	0.28	0.092232	0.086376	1.018212	-0.114	-0.1785	0.0555	0	14	1030	1
2026-02-23	16:54:08.130	1.505	-0.7	0.21	0.103212	0.093208	1.007476	-0.1095	-0.1785	0.0585	0	14	1030	1
2026-02-23	16:54:08.150	0.805	-0.385	0.28	0.103944	0.08174	1.009184	-0.1095	-0.174	0.0525	0	14	1030	1
2026-02-23	16:54:08.170	1.05	-0.595	0.21	0.090036	0.080032	0.998936	-0.1125	-0.1695	0.051	0	14	1030	1
2026-02-23	16:54:08.190	1.19	-0.49	0.245	0.093452	0.085888	1.016504	-0.1155	-0.177	0.051	0	14	1030	1
2026-02-23	16:54:08.210	1.12	-0.49	0.28	0.109556	0.078812	1.01382	-0.1125	-0.1815	0.054	0	13	1031	1
2026-02-23	16:54:08.230	1.12	-0.455	0.21	0.09516	0.088572	1.005524	-0.114	-0.177	0.057	0	13	1031	1
2026-02-23	16:54:08.250	1.47	-0.56	0.245	0.097844	0.086376	1.001376	-0.111	-0.177	0.054	0	13	1031	1
2026-02-23	16:54:08.270	1.085	-0.42	0.21	0.101016	0.083204	1.00406	-0.1095	-0.18	0.051	0	13	1031	1
2026-02-23	16:54:08.290	1.26	-0.56	0.245	0.09882	0.080276	1.022116	-0.1125	-0.18	0.0555	0	13	1031	1
2026-02-23	16:54:08.310	1.575	-0.665	0.28	0.100284	0.087352	1.00284	-0.111	-0.1785	0.0585	0	13	1031	1
2026-02-23	16:54:08.330	0.315	-0.28	0.28	0.094428	0.082228	0.995764	-0.1095	-0.18	0.0555	0	13	1031	1
2026-02-23	16:54:08.350	1.505	-0.7	0.21	0.100772	0.081984	1.017968	-0.111	-0.1785	0.054	0	13	1031	1
2026-02-23	16:54:08.370	1.365	-0.56	0.245	0.101748	0.089548	1.006012	-0.111	-0.1785	0.054	0	13	1031	1
2026-02-23	16:54:08.390	0.525	-0.35	0.21	0.096868	0.076372	1.006256	-0.108	-0.1755	0.054	0	13	1031	1
2026-02-23	16:54:08.410	1.715	-0.7	0.245	0.089792	0.08686399	1.00284	-0.108	-0.174	0.054	0	13	1032	1
2026-02-23	16:54:08.430	1.19	-0.49	0.245	0.092476	0.082472	1.005524	-0.1065	-0.1755	0.051	0	13	1032	1
2026-02-23	16:54:08.450	1.155	-0.49	0.245	0.100528	0.09467199	1.01382	-0.1065	-0.1755	0.0495	0	13	1032	1
2026-02-23	16:54:08.470	1.05	-0.56	0.28	0.101748	0.080764	0.987956	-0.111	-0.177	0.0525	0	13	1032	1
2026-02-23	16:54:08.490	1.155	-0.525	0.245	0.091012	0.078568	1.001376	-0.1095	-0.174	0.0525	0	13	1032	1
2026-02-23	16:54:08.510	1.12	-0.49	0.28	0.090524	0.0732	0.98942	-0.108	-0.1725	0.0525	0	13	1032	1
2026-02-23	16:54:08.530	1.33	-0.56	0.21	0.094184	0.091256	1.0126	-0.1155	-0.1725	0.0525	0	13	1032	1
2026-02-23	16:54:08.550	0.945	-0.385	0.28	0.10614	0.076372	1.003328	-0.117	-0.1695	0.048	0	13	1032	1
2026-02-23	16:54:08.570	1.61	-0.63	0.21	0.088328	0.083936	1.006256	-0.1095	-0.171	0.048	0	13	1032	1
2026-02-23	16:54:08.590	1.015	-0.385	0.28	0.094428	0.086376	1.000156	-0.1065	-0.1725	0.057	0	13	1032	1
2026-02-23	16:54:08.610	0.91	-0.525	0.245	0.084424	0.083692	1.005036	-0.105	-0.1785	0.06	0	13	1031	1
2026-02-23	16:54:08.630	1.295	-0.595	0.245	0.099064	0.08174	1.015528	-0.1095	-0.1785	0.054	0	13	1031	1
2026-02-23	16:54:08.650	1.365	-0.63	0.245	0.094916	0.077104	0.996984	-0.111	-0.1785	0.048	0	13	1031	1
2026-02-23	16:54:08.670	0.42	-0.245	0.245	0.0915	0.081252	1.003084	-0.1095	-0.18	0.051	0	13	1031	1
2026-02-23	16:54:08.690	1.82	-0.735	0.21	0.095892	0.086376	1.008208	-0.108	-0.1755	0.0555	0	13	1031	1
2026-02-23	16:54:08.710	1.295	-0.455	0.245	0.092476	0.092232	0.998936	-0.1095	-0.1725	0.0525	0	13	1031	1
2026-02-23	16:54:08.730	0.735	-0.35	0.315	0.083204	0.079544	1.01382	-0.114	-0.174	0.0495	0	13	1031	1
2026-02-23	16:54:08.750	1.505	-0.7	0.245	0.093208	0.087596	1.001132	-0.114	-0.174	0.048	0	13	1031	1
2026-02-23	16:54:08.770	1.155	-0.49	0.245	0.095404	0.091256	1.000888	-0.111	-0.1755	0.051	0	13	1031	1
2026-02-23	16:54:08.790	0.875	-0.49	0.245	0.077348	0.097844	1.018456	-0.108	-0.174	0.057	0	13	1031	1
2026-02-23	16:54:08.810	1.295	-0.56	0.21	0.09882	0.082716	1.011624	-0.108	-0.171	0.057	0	13	1030	1
2026-02-23	16:54:08.830	1.26	-0.595	0.21	0.10736	0.086132	1.000644	-0.1065	-0.171	0.0495	0	13	1030	1
2026-02-23	16:54:08.850	0.665	-0.315	0.245	0.0854	0.079544	1.007476	-0.1065	-0.171	0.0495	0	13	1030	1
2026-02-23	16:54:08.870	1.925	-0.7	0.245	0.095892	0.08662	1.009916	-0.1065	-0.171	0.0495	0	13	1030	1
2026-02-23	16:54:08.890	1.505	-0.525	0.21	0.106384	0.085156	1.017724	-0.105	-0.1665	0.0585	0	13	1030	1
2026-02-23	16:54:08.910	1.575	-0.7	0.245	0.0976	0.08784	1.014552	-0.105	-0.1665	0.0585	0	13	1030	1
2026-02-23	16:54:08.930	1.68	-0.56	0.245	0.093696	0.091988	1.009672	-0.117	-0.1755	0.051	0	13	1030	1
2026-02-23	16:54:08.950	0.875	-0.385	0.28	0.101748	0.06954	1.014308	-0.1155	-0.1755	0.0555	0	13	1030	1
2026-02-23	16:54:08.970	0.945	-0.56	0.28	0.096868	0.0793	1.014796	-0.105	-0.1695	0.0495	0	13	1030	1
2026-02-23	16:54:08.990	1.085	-0.56	0.245	0.092476	0.080764	1.015284	-0.1125	-0.174	0.048	0	13	1030	1
2026-02-23	16:54:09.010	1.47	-0.56	0.245	0.085888	0.0793	1.00772	-0.1095	-0.168	0.0555	0	13	1030	1
2026-02-23	16:54:09.030	1.4	-0.56	0.28	0.098332	0.089792	0.99796	-0.1125	-0.1785	0.0525	0	13	1030	1
2026-02-23	16:54:09.050	0.805	-0.455	0.28	0.092232	0.086376	1.011868	-0.108	-0.1725	0.0525	0	13	1030	1
2026-02-23	16:54:09.070	0.91	-0.42	0.245	0.090036	0.084424	1.019432	-0.108	-0.1725	0.0525	0	13	1030	1
2026-02-23	16:54:09.090	1.89	-0.805	0.21	0.084668	0.098332	1.013576	-0.108	-0.1725	0.0525	0	13	1030	1
2026-02-23	16:54:09.110	1.085	-0.385	0.21	0.094428	0.079544	1.005036	-0.108	-0.1725	0.048	0	13	1030	1
2026-02-23	16:54:09.130	0.84	-0.49	0.245	0.100528	0.07808	0.998936	-0.1095	-0.174	0.0465	0	13	1030	1
2026-02-23	16:54:09.150	1.12	-0.56	0.245	0.08418	0.09028	1.028704	-0.111	-0.1755	0.0525	0	13	1030	1
2026-02-23	16:54:09.170	1.75	-0.63	0.245	0.090036	0.099552	1.014796	-0.1125	-0.1725	0.057	0	13	1030	1
2026-02-23	16:54:09.190	0.63	-0.315	0.28	0.10614	0.082228	0.998448	-0.1095	-0.1755	0.0525	0	13	1030	1
2026-02-23	16:54:09.210	1.225	-0.595	0.28	0.08906	0.083204	1.020164	-0.111	-0.1755	0.0525	0	13	1030	1
2026-02-23	16:54:09.230	1.75	-0.77	0.245	0.100528	0.0915	1.014552	-0.108	-0.174	0.0525	0	13	1030	1
2026-02-23	16:54:09.250	0.525	-0.21	0.28	0.096624	0.088816	1.007476	-0.1065	-0.1755	0.051	0	13	1030	1
2026-02-23	16:54:09.270	1.05	-0.56	0.28	0.085644	0.088328	1.016992	-0.111	-0.1725	0.054	0	13	1030	1
2026-02-23	16:54:09.290	1.47	-0.595	0.21	0.10858	0.087596	1.01748	-0.111	-0.171	0.057	0	13	1030	1
2026-02-23	16:54:09.310	1.295	-0.525	0.245	0.111752	0.087108	1.008208	-0.1125	-0.168	0.054	0	13	1030	1
2026-02-23	16:54:09.330	0.805	-0.315	0.21	0.100284	0.075396	1.0065	-0.1095	-0.168	0.051	0	13	1030	1
2026-02-23	16:54:09.350	1.505	-0.665	0.21	0.092476	0.09076799	1.018212	-0.108	-0.174	0.054	0	13	1030	1
2026-02-23	16:54:09.370	1.435	-0.56	0.21	0.098088	0.093452	1.016748	-0.1125	-0.1755	0.0525	0	13	1030	1
2026-02-23	16:54:09.390	0.595	-0.315	0.28	0.096624	0.09272	1.00772	-0.1125	-0.168	0.0465	0	13	1030	1
2026-02-23	16:54:09.410	1.365	-0.665	0.245	0.096624	0.076128	1.003816	-0.1095	-0.1635	0.0465	0	13	1031	1
2026-02-23	16:54:09.430	0.91	-0.455	0.28	0.08662	0.091012	1.005524	-0.111	-0.165	0.054	0	13	1031	1
2026-02-23	16:54:09.450	1.33	-0.56	0.21	0.098088	0.083936	1.0126	-0.1125	-0.1725	0.054	0	13	1031	1
2026-02-23	16:54:09.470	1.33	-0.455	0.245	0.106628	0.08418	1.01138	-0.114	-0.18	0.0525	0	13	1031	1
2026-02-23	16:54:09.490	1.19	-0.595	0.28	0.110288	0.081984	1.001376	-0.108	-0.1755	0.0495	0	13	1031	1
2026-02-23	16:54:09.510	0.665	-0.21	0.28	0.101748	0.086132	1.015772	-0.102	-0.1755	0.0495	0	13	1031	1
2026-02-23	16:54:09.530	2.38	-0.98	0.21	0.10614	0.085644	1.005768	-0.1035	-0.1725	0.0465	0	13	1031	1
2026-02-23	16:54:09.550	-0.07	-0.035	0.245	0.082228	0.086132	1.014064	-0.1095	-0.1725	0.0495	0	13	1031	1
2026-02-23	16:54:09.570	1.575	-0.84	0.245	0.101504	0.085156	0.998936	-0.1125	-0.1785	0.054	0	13	1031	1
2026-02-23	16:54:09.590	1.33	-0.49	0.21	0.105164	0.07905599	1.005036	-0.1095	-0.1755	0.051	0	13	1031	1
2026-02-23	16:54:09.610	0.7	-0.385	0.245	0.091256	0.094184	1.00406	-0.108	-0.174	0.057	0	13	1032	1
2026-02-23	16:54:09.630	1.47	-0.7	0.28	0.09638	0.083936	1.000644	-0.1065	-0.1785	0.0555	0	13	1032	1
2026-02-23	16:54:09.650	0.42	-0.21	0.28	0.09516	0.075884	0.999912	-0.1065	-0.1755	0.051	0	13	1032	1
2026-02-23	16:54:09.670	2.135	-0.91	0.175	0.088572	0.09394	1.00528	-0.108	-0.1755	0.051	0	13	1032	1
2026-02-23	16:54:09.690	0.77	-0.14	0.28	0.089304	0.0793	1.0004	-0.108	-0.177	0.051	0	13	1032	1
2026-02-23	16:54:09.710	1.4	-0.63	0.245	0.09638	0.0793	1.008696	-0.1125	-0.177	0.0555	0	13	1032	1
2026-02-23	16:54:09.730	0.98	-0.42	0.21	0.101016	0.08662	0.996252	-0.1155	-0.1785	0.0525	0	13	1032	1
2026-02-23	16:54:09.750	0.84	-0.525	0.245	0.099064	0.07124799	1.011868	-0.111	-0.177	0.048	0	13	1032	1
2026-02-23	16:54:09.770	1.645	-0.665	0.245	0.09638	0.084668	1.010892	-0.1095	-0.174	0.048	0	13	1032	1
2026-02-23	16:54:09.790	0.91	-0.42	0.28	0.092476	0.07808	0.997228	-0.108	-0.1725	0.0495	0	13	1032	1
2026-02-23	16:54:09.810	0.91	-0.525	0.245	0.091012	0.077348	1.001132	-0.1065	-0.1725	0.051	0	14	1031	1
2026-02-23	16:54:09.830	1.365	-0.49	0.28	0.092476	0.084424	1.01138	-0.1095	-0.174	0.048	0	14	1031	1
2026-02-23	16:54:09.850	1.715	-0.7	0.245	0.098332	0.08418	0.99552	-0.1065	-0.1755	0.0435	0	14	1031	1
2026-02-23	16:54:09.870	0.56	-0.28	0.28	0.103944	0.069784	1.003816	-0.1005	-0.174	0.0495	0	14	1031	1
2026-02-23	16:54:09.890	1.295	-0.63	0.28	0.085888	0.088084	1.004548	-0.102	-0.168	0.054	0	14	1031	1
2026-02-23	16:54:09.910	1.12	-0.455	0.245	0.094428	0.081008	0.996496	-0.105	-0.1665	0.051	0	14	1031	1
2026-02-23	16:54:09.930	1.19	-0.49	0.245	0.073932	0.07905599	1.010892	-0.1065	-0.1695	0.0525	0	14	1031	1
2026-02-23	16:54:09.950	1.715	-0.7	0.245	0.087108	0.091988	0.999668	-0.1065	-0.1695	0.0525	0	14	1031	1
2026-02-23	16:54:09.970	0.525	-0.245	0.28	0.089548	0.083936	1.012356	-0.102	-0.1755	0.0495	0	14	1031	1
2026-02-23	16:54:09.990	1.575	-0.63	0.245	0.091012	0.097112	0.991616	-0.102	-0.1755	0.0495	0	14	1031	1
2026-02-23	16:54:10.010	-0.035	-0.07	0.315	0.095404	0.075884	1.004304	-0.102	-0.1755	0.0495	0	14	1030	1
2026-02-23	16:54:10.030	1.645	-0.735	0.245	0.088572	0.079544	1.003084	-0.1095	-0.1725	0.0555	0	14	1030	1
2026-02-23	16:54:10.050	0.385	-0.175	0.245	0.084912	0.089792	1.0187	-0.1095	-0.1665	0.0465	0	14	1030	1
2026-02-23	16:54:10.070	2.1	-0.84	0.245	0.103944	0.091256	1.012356	-0.105	-0.1695	0.0525	0	14	1030	1
2026-02-23	16:54:10.090	0.98	-0.42	0.245	0.08686399	0.09076799	1.006744	-0.1125	-0.174	0.054	0	14	1030	1
2026-02-23	16:54:10.110	0.56	-0.42	0.245	0.087352	0.085156	1.009672	-0.1125	-0.174	0.054	0	14	1030	1
2026-02-23	16:54:10.130	1.505	-0.805	0.28	0.09394	0.101748	1.01626	-0.1125	-0.174	0.054	0	14	1030	1
2026-02-23	16:54:10.150	0.56	-0.21	0.28	0.097356	0.081252	1.016016	-0.1125	-0.1725	0.051	0	14	1030	1
2026-02-23	16:54:10.170	1.89	-0.805	0.21	0.085644	0.092476	1.01626	-0.111	-0.171	0.048	0	14	1030	1
2026-02-23	16:54:10.190	1.085	-0.385	0.245	0.101016	0.081496	1.01138	-0.108	-0.1755	0.0465	0	14	1030	1
2026-02-23	16:54:10.210	0.91	-0.49	0.245	0.104188	0.077836	1.00406	-0.105	-0.177	0.0465	0	14	1030	1
2026-02-23	16:54:10.230	1.085	-0.56	0.245	0.096136	0.087596	1.014308	-0.1065	-0.1725	0.045	0	14	1030	1
2026-02-23	16:54:10.250	0.98	-0.455	0.245	0.102236	0.08418	1.011624	-0.111	-0.1695	0.0465	0	14	1030	1
2026-02-23	16:54:10.270	1.61	-0.63	0.245	0.09638	0.094184	1.02358	-0.108	-0.1695	0.0495	0	14	1030	1
2026-02-23	16:54:10.290	0.91	-0.35	0.28	0.102724	0.07905599	1.014308	-0.105	-0.1695	0.051	0	14	1030	1
2026-02-23	16:54:10.310	1.225	-0.56	0.245	0.095892	0.092964	1.02358	-0.1065	-0.171	0.054	0	14	1030	1
2026-02-23	16:54:10.330	1.96	-0.77	0.245	0.108824	0.08662	1.015284	-0.108	-0.177	0.054	0	14	1030	1
2026-02-23	16:54:10.350	-0.07	-0.14	0.28	0.094428	0.085156	1.006012	-0.111	-0.177	0.0465	0	14	1030	1
2026-02-23	16:54:10.370	1.4	-0.7	0.21	0.103212	0.079544	1.020164	-0.108	-0.18	0.0465	0	14	1030	1
2026-02-23	16:54:10.390	1.645	-0.595	0.28	0.097112	0.089548	1.003084	-0.1065	-0.1785	0.0495	0	14	1030	1
2026-02-23	16:54:10.410	0.91	-0.385	0.28	0.086132	0.085156	1.020896	-0.114	-0.171	0.0465	0	14	1030	1
2026-02-23	16:54:10.430	1.365	-0.455	0.21	0.101992	0.082716	1.006744	-0.1095	-0.171	0.0465	0	14	1030	1
2026-02-23	16:54:10.450	1.295	-0.595	0.28	0.109312	0.08784	1.01748	-0.1065	-0.1725	0.0525	0	14	1030	1
2026-02-23	16:54:10.470	0.84	-0.385	0.245	0.100772	0.08418	1.018944	-0.1095	-0.1725	0.0525	0	14	1030	1
2026-02-23	16:54:10.490	1.435	-0.665	0.28	0.09272	0.091744	1.016504	-0.1065	-0.174	0.051	0	14	1030	1
2026-02-23	16:54:10.510	0.945	-0.42	0.28	0.099552	0.090036	0.999668	-0.1065	-0.1695	0.054	0	14	1030	1
2026-02-23	16:54:10.530	1.225	-0.56	0.315	0.08662	0.09272	1.0126	-0.1065	-0.174	0.0525	0	14	1030	1
2026-02-23	16:54:10.550	0.805	-0.385	0.245	0.099552	0.083936	0.998204	-0.1065	-0.1785	0.051	0	14	1030	1
2026-02-23	16:54:10.570	1.575	-0.595	0.245	0.096624	0.083448	1.016992	-0.111	-0.177	0.0495	0	14	1030	1
2026-02-23	16:54:10.590	1.4	-0.56	0.21	0.094184	0.087108	1.00406	-0.1065	-0.1755	0.045	0	14	1030	1
2026-02-23	16:54:10.610	0.84	-0.245	0.245	0.085644	0.082472	1.009916	-0.1035	-0.174	0.0435	0	14	1031	1
2026-02-23	16:54:10.630	1.89	-0.91	0.245	0.09857599	0.08418	1.006256	-0.111	-0.174	0.0465	0	14	1031	1
2026-02-23	16:54:10.650	0.28	-0.245	0.28	0.096868	0.07515199	1.005524	-0.1095	-0.1725	0.048	0	14	1031	1
2026-02-23	16:54:10.670	1.4	-0.735	0.245	0.106384	0.089548	1.006012	-0.1125	-0.171	0.048	0	14	1031	1
2026-02-23	16:54:10.690	1.435	-0.525	0.245	0.102968	0.088328	1.002108	-0.111	-0.171	0.0465	0	14	1031	1
2026-02-23	16:54:10.710	0.805	-0.315	0.28	0.104676	0.082472	1.003816	-0.1065	-0.1785	0.0465	0	14	1031	1
2026-02-23	16:54:10.730	1.47	-0.7	0.245	0.09272	0.08906	1.010404	-0.1065	-0.1815	0.051	0	14	1031	1
2026-02-23	16:54:10.750	1.225	-0.42	0.21	0.101992	0.084912	1.003816	-0.1035	-0.1755	0.051	0	14	1031	1
2026-02-23	16:54:10.770	0.98	-0.455	0.245	0.101992	0.074908	0.995032	-0.1035	-0.1785	0.048	0	14	1031	1
2026-02-23	16:54:10.790	1.05	-0.455	0.245	0.089548	0.084912	1.014552	-0.1095	-0.177	0.051	0	14	1031	1
2026-02-23	16:54:10.810	1.61	-0.7	0.21	0.093208	0.085156	1.013332	-0.111	-0.1665	0.0495	0	14	1032	1
2026-02-23	16:54:10.830	1.12	-0.42	0.21	0.092232	0.081252	1.0065	-0.108	-0.1695	0.045	0	14	1032	1
2026-02-23	16:54:10.850	0.91	-0.385	0.245	0.091012	0.078812	0.996496	-0.108	-0.177	0.045	0	14	1032	1
2026-02-23	16:54:10.870	1.54	-0.77	0.245	0.098332	0.083204	0.995764	-0.1065	-0.177	0.0495	0	14	1032	1
2026-02-23	16:54:10.890	0.42	-0.21	0.28	0.088572	0.0732	1.014552	-0.108	-0.1725	0.051	0	14	1032	1
2026-02-23	16:54:10.910	1.4	-0.63	0.21	0.087352	0.09394	0.9882	-0.1035	-0.1725	0.0495	0	14	1032	1
2026-02-23	16:54:10.930	1.715	-0.63	0.28	0.093208	0.0793	1.01748	-0.108	-0.174	0.048	0	14	1032	1
2026-02-23	16:54:10.950	0.77	-0.35	0.21	0.097844	0.076372	0.99308	-0.1125	-0.174	0.0465	0	14	1032	1
2026-02-23	16:54:10.970	1.26	-0.56	0.245	0.092964	0.080032	1.014308	-0.1095	-0.1785	0.045	0	14	1032	1
2026-02-23	16:54:10.990	1.75	-0.735	0.315	0.098332	0.08784	1.000156	-0.1065	-0.1755	0.0465	0	14	1032	1
2026-02-23	16:54:11.010	0.28	-0.175	0.28	0.08295999	0.081252	1.00894	-0.1065	-0.174	0.0495	0	14	1031	1
2026-02-23	16:54:11.030	1.54	-0.805	0.28	0.090036	0.081984	0.997472	-0.1065	-0.174	0.0495	0	14	1031	1
2026-02-23	16:54:11.050	0.84	-0.315	0.245	0.093452	0.08052	1.0126	-0.1065	-0.174	0.0495	0	14	1031	1
2026-02-23	16:54:11.070	1.61	-0.455	0.28	0.09394	0.091988	1.007232	-0.114	-0.1755	0.054	0	14	1031	1
2026-02-23	16:54:11.090	1.225	-0.665	0.21	0.09516	0.080276	1.002596	-0.114	-0.1755	0.054	0	14	1031	1
2026-02-23	16:54:11.110	1.015	-0.455	0.245	0.096136	0.083448	1.01016	-0.108	-0.177	0.0525	0	14	1031	1
2026-02-23	16:54:11.130	1.75	-0.735	0.245	0.081984	0.088816	1.004548	-0.108	-0.177	0.0525	0	14	1031	1
2026-02-23	16:54:11.150	0.63	-0.315	0.245	0.09882	0.079544	0.998448	-0.108	-0.177	0.0525	0	14	1031	1
2026-02-23	16:54:11.170	1.47	-0.665	0.245	0.099308	0.082472	1.017724	-0.111	-0.1755	0.0495	0	14	1031	1
2026-02-23	16:54:11.190	1.085	-0.49	0.28	0.096624	0.08686399	1.00772	-0.111	-0.1725	0.0465	0	14	1031	1
2026-02-23	16:54:11.210	-0.805	0.07	0.28	0.09638	0.073688	0.99064	-0.1095	-0.171	0.0465	0	14	1030	1
2026-02-23	16:54:11.230	2.03	-0.735	0.245	0.083936	0.096868	1.016992	-0.111	-0.1755	0.048	0	14	1030	1
2026-02-23	16:54:11.250	1.225	-0.525	0.28	0.097112	0.09076799	1.004792	-0.1095	-0.174	0.051	0	14	1030	1
2026-02-23	16:54:11.270	0.525	-0.28	0.28	0.109068	0.073688	1.006744	-0.1035	-0.171	0.0495	0	14	1030	1
2026-02-23	16:54:11.290	2.03	-0.875	0.245	0.093696	0.088816	1.019676	-0.105	-0.174	0.051	0	14	1030	1
2026-02-23	16:54:11.310	0.7	-0.28	0.245	0.091744	0.094916	1.009916	-0.1095	-0.174	0.0555	0	14	1030	1
2026-02-23	16:54:11.330	0.875	-0.49	0.28	0.097356	0.08906	1.017968	-0.1095	-0.1725	0.054	0	14	1030	1
2026-02-23	16:54:11.350	1.47	-0.595	0.245	0.107848	0.089792	1.01748	-0.1095	-0.1725	0.048	0	14	1030	1
2026-02-23	16:54:11.370	1.4	-0.63	0.28	0.091988	0.078812	1.004304	-0.1065	-0.1725	0.0465	0	14	1030	1
2026-02-23	16:54:11.390	0.42	-0.28	0.21	0.096624	0.084424	1.005036	-0.108	-0.177	0.0495	0	14	1030	1
2026-02-23	16:54:11.410	1.4	-0.595	0.245	0.098088	0.087108	1.012844	-0.1095	-0.1785	0.0465	0	14	1030	1
2026-02-23	16:54:11.430	1.89	-0.7	0.21	0.095404	0.092964	1.027484	-0.1095	-0.1755	0.0465	0	14	1030	1
2026-02-23	16:54:11.450	0.84	-0.35	0.28	0.105164	0.081252	1.01016	-0.1095	-0.174	0.0465	0	14	1030	1
2026-02-23	16:54:11.470	1.085	-0.595	0.245	0.09638	0.097356	1.0126	-0.108	-0.1755	0.0465	0	14	1030	1
2026-02-23	16:54:11.490	1.155	-0.525	0.28	0.0976	0.08686399	1.009916	-0.1065	-0.1755	0.0495	0	14	1030	1
2026-02-23	16:54:11.510	0.98	-0.455	0.245	0.099796	0.0793	1.012112	-0.105	-0.174	0.0465	0	14	1030	1
2026-02-23	16:54:11.530	1.4	-0.665	0.245	0.10248	0.090524	1.015528	-0.105	-0.174	0.048	0	14	1030	1
2026-02-23	16:54:11.550	1.26	-0.385	0.245	0.110532	0.089304	1.008208	-0.108	-0.18	0.054	0	14	1030	1
2026-02-23	16:54:11.570	1.05	-0.49	0.28	0.097112	0.090524	1.016992	-0.108	-0.18	0.0525	0	14	1030	1
2026-02-23	16:54:11.590	0.84	-0.525	0.28	0.088816	0.082472	1.002108	-0.1065	-0.174	0.045	0	14	1030	1
2026-02-23	16:54:11.610	1.015	-0.455	0.28	0.094428	0.080276	1.007476	-0.111	-0.1725	0.048	0	14	1030	1
2026-02-23	16:54:11.630	1.435	-0.63	0.245	0.097844	0.083936	1.007964	-0.1095	-0.174	0.0525	0	14	1030	1
2026-02-23	16:54:11.650	1.19	-0.35	0.21	0.09467199	0.086376	1.007964	-0.108	-0.177	0.0555	0	14	1030	1
2026-02-23	16:54:11.670	1.645	-0.665	0.245	0.105652	0.076616	1.010648	-0.111	-0.1755	0.054	0	14	1030	1
2026-02-23	16:54:11.690	0.735	-0.35	0.28	0.100528	0.081984	1.013332	-0.1065	-0.18	0.0525	0	14	1030	1
2026-02-23	16:54:11.710	1.505	-0.665	0.245	0.106872	0.08295999	1.011868	-0.1035	-0.177	0.0495	0	14	1030	1
2026-02-23	16:54:11.730	0.455	-0.28	0.245	0.095648	0.082472	1.008452	-0.108	-0.171	0.051	0	14	1030	1
2026-02-23	16:54:11.750	1.54	-0.875	0.245	0.10248	0.082716	1.008452	-0.1125	-0.1755	0.054	0	14	1030	1
2026-02-23	16:54:11.770	1.05	-0.315	0.21	0.091988	0.088084	1.010648	-0.114	-0.1815	0.051	0	14	1030	1
2026-02-23	16:54:11.790	0.98	-0.42	0.245	0.090524	0.082228	1.000888	-0.1095	-0.1815	0.0525	0	14	1030	1
2026-02-23	16:54:11.810	1.33	-0.525	0.245	0.097844	0.083692	1.008696	-0.1095	-0.1785	0.054	0	14	1031	1
2026-02-23	16:54:11.830	1.785	-0.63	0.21	0.10736	0.080276	1.013576	-0.111	-0.1785	0.0495	0	14	1031	1
2026-02-23	16:54:11.850	0.77	-0.35	0.245	0.096136	0.098088	1.010892	-0.111	-0.18	0.0495	0	14	1031	1
2026-02-23	16:54:11.870	1.26	-0.56	0.28	0.100772	0.08906	1.0065	-0.111	-0.1785	0.048	0	14	1031	1
2026-02-23	16:54:11.890	1.47	-0.735	0.28	0.098088	0.086376	1.003572	-0.108	-0.174	0.045	0	14	1031	1
2026-02-23	16:54:11.910	0.175	-0.175	0.28	0.103456	0.076616	1.006256	-0.105	-0.177	0.045	0	14	1031	1
2026-02-23	16:54:11.930	2.1	-0.945	0.28	0.089304	0.092476	1.001376	-0.102	-0.1785	0.0495	0	14	1031	1
2026-02-23	16:54:11.950	0.595	-0.14	0.28	0.093208	0.082472	1.007476	-0.105	-0.1785	0.051	0	14	1031	1
2026-02-23	16:54:11.970	1.155	-0.525	0.245	0.099796	0.075884	1.00528	-0.1095	-0.1785	0.051	0	14	1031	1
2026-02-23	16:54:11.990	1.785	-0.63	0.245	0.08906	0.09857599	1.017236	-0.1095	-0.177	0.0525	0	14	1031	1
2026-02-23	16:54:12.010	0.945	-0.385	0.245	0.108092	0.078568	0.992592	-0.111	-0.1755	0.048	0	14	1031	1
2026-02-23	16:54:12.030	1.155	-0.56	0.21	0.092232	0.077348	1.00528	-0.111	-0.174	0.0435	0	14	1031	1
2026-02-23	16:54:12.050	1.365	-0.525	0.28	0.094184	0.0854	1.012356	-0.108	-0.1785	0.048	0	14	1031	1
2026-02-23	16:54:12.070	1.015	-0.56	0.28	0.085888	0.094184	1.006256	-0.1095	-0.18	0.048	0	14	1031	1
2026-02-23	16:54:12.090	0.56	-0.35	0.245	0.094184	0.073444	1.006988	-0.114	-0.1785	0.048	0	14	1031	1
2026-02-23	16:54:12.110	1.925	-0.84	0.21	0.103456	0.081496	0.99796	-0.117	-0.1785	0.051	0	14	1031	1
2026-02-23	16:54:12.130	0.7	-0.28	0.245	0.099552	0.07124799	1.00528	-0.117	-0.1785	0.051	0	14	1031	1
2026-02-23	16:54:12.150	1.925	-0.63	0.21	0.090036	0.088816	1.000644	-0.117	-0.1785	0.051	0	14	1031	1
2026-02-23	16:54:12.170	0.805	-0.455	0.245	0.089304	0.074664	1.00284	-0.1095	-0.177	0.045	0	14	1031	1
2026-02-23	16:54:12.190	1.26	-0.56	0.245	0.088572	0.074176	1.00528	-0.108	-0.1785	0.042	0	14	1031	1
2026-02-23	16:54:12.210	1.26	-0.525	0.245	0.093208	0.083936	1.01016	-0.1095	-0.177	0.045	0	14	1031	1
2026-02-23	16:54:12.230	0.945	-0.42	0.21	0.097844	0.08784	0.991372	-0.108	-0.177	0.045	0	14	1031	1
2026-02-23	16:54:12.250	1.19	-0.525	0.245	0.093208	0.07564	1.003328	-0.1095	-0.1755	0.048	0	14	1031	1
2026-02-23	16:54:12.270	1.365	-0.56	0.245	0.088084	0.081252	1.00528	-0.108	-0.174	0.048	0	14	1031	1
2026-02-23	16:54:12.290	1.085	-0.385	0.21	0.097844	0.089548	1.00406	-0.111	-0.1785	0.0465	0	14	1031	1
2026-02-23	16:54:12.310	1.05	-0.525	0.245	0.089548	0.079544	1.003572	-0.1125	-0.18	0.0465	0	14	1031	1
2026-02-23	16:54:12.330	1.26	-0.595	0.245	0.08174	0.082472	1.013332	-0.108	-0.18	0.0465	0	14	1031	1
2026-02-23	16:54:12.350	0.805	-0.315	0.315	0.095892	0.083936	1.006012	-0.1065	-0.174	0.051	0	14	1031	1
2026-02-23	16:54:12.370	1.505	-0.7	0.245	0.092476	0.08662	1.0126	-0.1065	-0.171	0.0495	0	14	1031	1
2026-02-23	16:54:12.390	1.12	-0.455	0.28	0.099552	0.07905599	1.006256	-0.1065	-0.174	0.0495	0	14	1031	1
2026-02-23	16:54:12.410	1.015	-0.42	0.245	0.09638	0.085888	1.011624	-0.108	-0.1725	0.0495	0	14	1030	1
2026-02-23	16:54:12.430	1.085	-0.56	0.28	0.101992	0.088816	1.01382	-0.1095	-0.1725	0.051	0	14	1030	1
2026-02-23	16:54:12.450	1.015	-0.42	0.245	0.092476	0.081984	1.009916	-0.1095	-0.1725	0.0495	0	14	1030	1
2026-02-23	16:54:12.470	1.33	-0.63	0.245	0.097356	0.083692	1.004304	-0.111	-0.174	0.045	0	14	1030	1
2026-02-23	16:54:12.490	0.7	-0.315	0.21	0.085888	0.08052	1.028216	-0.114	-0.1755	0.0465	0	14	1030	1
2026-02-23	16:54:12.510	1.995	-0.84	0.21	0.102968	0.089304	1.000156	-0.1155	-0.174	0.0525	0	14	1030	1
2026-02-23	16:54:12.530	0.7	-0.21	0.28	0.090036	0.087596	1.008452	-0.1155	-0.177	0.0525	0	14	1030	1
2026-02-23	16:54:12.550	0.98	-0.56	0.245	0.100528	0.075396	1.009184	-0.111	-0.1785	0.051	0	14	1030	1
2026-02-23	16:54:12.570	1.015	-0.56	0.245	0.091744	0.0793	1.01138	-0.111	-0.177	0.0525	0	14	1030	1
2026-02-23	16:54:12.590	0.945	-0.35	0.245	0.09394	0.084668	1.026264	-0.1155	-0.1725	0.0525	0	14	1030	1
2026-02-23	16:54:12.610	1.435	-0.665	0.245	0.106628	0.082472	1.0065	-0.1095	-0.174	0.0495	0	14	1030	1
2026-02-23	16:54:12.630	0.91	-0.28	0.21	0.101504	0.083204	1.022604	-0.108	-0.18	0.045	0	14	1030	1
2026-02-23	16:54:12.650	1.4	-0.595	0.28	0.095648	0.084424	1.014308	-0.111	-0.177	0.0435	0	14	1030	1
2026-02-23	16:54:12.670	1.365	-0.525	0.245	0.089792	0.0915	1.016504	-0.1095	-0.1755	0.045	0	14	1030	1
2026-02-23	16:54:12.690	1.12	-0.49	0.245	0.093696	0.089304	1.014308	-0.114	-0.177	0.0465	0	14	1030	1
2026-02-23	16:54:12.710	0.875	-0.455	0.245	0.106872	0.087352	1.001132	-0.1125	-0.18	0.0495	0	14	1030	1
2026-02-23	16:54:12.730	1.12	-0.56	0.245	0.098332	0.07442	1.01626	-0.111	-0.177	0.0495	0	14	1030	1
2026-02-23	16:54:12.750	0.98	-0.42	0.28	0.096868	0.080032	1.017724	-0.1125	-0.1755	0.0465	0	14	1030	1
2026-02-23	16:54:12.770	1.54	-0.63	0.21	0.094916	0.089304	1.013088	-0.1125	-0.177	0.0495	0	14	1030	1
2026-02-23	16:54:12.790	0.98	-0.35	0.245	0.108336	0.08906	1.005036	-0.111	-0.1785	0.051	0	14	1030	1
2026-02-23	16:54:12.810	1.54	-0.595	0.21	0.1037	0.08906	1.018212	-0.114	-0.1785	0.048	0	14	1031	1
2026-02-23	16:54:12.830	1.295	-0.595	0.245	0.1037	0.083448	1.0126	-0.117	-0.177	0.048	0	14	1031	1
2026-02-23	16:54:12.850	0.525	-0.315	0.28	0.103212	0.084424	1.013332	-0.1155	-0.174	0.0525	0	14	1031	1
2026-02-23	16:54:12.870	1.47	-0.77	0.245	0.097356	0.08295999	1.011624	-0.1095	-0.1725	0.051	0	14	1031	1
2026-02-23	16:54:12.890	0.77	-0.28	0.245	0.105896	0.077104	1.012356	-0.108	-0.177	0.048	0	14	1031	1
2026-02-23	16:54:12.910	1.54	-0.7	0.245	0.099796	0.097844	1.004548	-0.108	-0.1785	0.051	0	14	1031	1
2026-02-23	16:54:12.930	0.665	-0.28	0.245	0.105896	0.084424	1.008208	-0.111	-0.1755	0.051	0	14	1031	1
2026-02-23	16:54:12.950	1.855	-0.7	0.245	0.10736	0.088328	1.018212	-0.111	-0.1755	0.048	0	14	1031	1
2026-02-23	16:54:12.970	1.155	-0.42	0.28	0.098088	0.084912	0.998448	-0.1065	-0.1755	0.0525	0	14	1031	1
2026-02-23	16:54:12.990	0.805	-0.385	0.175	0.099064	0.092476	1.00162	-0.1065	-0.1755	0.054	0	14	1031	1
2026-02-23	16:54:13.010	1.33	-0.63	0.245	0.107116	0.076616	1.01626	-0.1125	-0.174	0.051	0	13	1032	1
2026-02-23	16:54:13.030	1.435	-0.665	0.245	0.1098	0.07686	0.999424	-0.1155	-0.1755	0.051	0	13	1032	1
2026-02-23	16:54:13.050	0.35	-0.21	0.28	0.084424	0.085888	1.019432	-0.1125	-0.174	0.0555	0	13	1032	1
2026-02-23	16:54:13.070	1.96	-0.84	0.245	0.101504	0.081008	1.00162	-0.114	-0.171	0.0525	0	13	1032	1
2026-02-23	16:54:13.090	0.735	-0.28	0.245	0.092232	0.07564	0.996496	-0.1155	-0.171	0.0495	0	13	1032	1
2026-02-23	16:54:13.110	1.295	-0.56	0.21	0.09394	0.07564	1.009672	-0.111	-0.174	0.051	0	13	1032	1
2026-02-23	16:54:13.130	1.54	-0.595	0.21	0.09882	0.083692	1.0004	-0.108	-0.1785	0.0495	0	13	1032	1
2026-02-23	16:54:13.150	0.805	-0.315	0.21	0.091744	0.085888	1.00406	-0.108	-0.1785	0.0495	0	13	1032	1
2026-02-23	16:54:13.170	1.435	-0.7	0.245	0.087596	0.090524	1.003816	-0.1125	-0.177	0.057	0	13	1032	1
2026-02-23	16:54:13.190	1.12	-0.42	0.28	0.09638	0.089304	0.99918	-0.1125	-0.177	0.057	0	13	1032	1
2026-02-23	16:54:13.210	1.155	-0.56	0.28	0.0915	0.087352	1.0004	-0.114	-0.177	0.054	0	13	1032	1
2026-02-23	16:54:13.230	0.525	-0.525	0.28	0.07905599	0.07905599	1.002352	-0.1155	-0.177	0.051	0	13	1032	1
2026-02-23	16:54:13.250	1.19	-0.455	0.245	0.090036	0.079544	1.00162	-0.111	-0.177	0.051	0	13	1032	1
2026-02-23	16:54:13.270	1.47	-0.595	0.245	0.099308	0.085156	1.008208	-0.1095	-0.1785	0.051	0	13	1032	1
2026-02-23	16:54:13.290	1.295	-0.455	0.245	0.085888	0.078324	1.001864	-0.114	-0.1785	0.054	0	13	1032	1
2026-02-23	16:54:13.310	1.295	-0.56	0.245	0.09516	0.080764	0.99918	-0.1125	-0.174	0.054	0	13	1032	1
2026-02-23	16:54:13.330	0.945	-0.525	0.245	0.09394	0.085888	1.002352	-0.1125	-0.174	0.048	0	13	1032	1
2026-02-23	16:54:13.350	0.77	-0.35	0.245	0.092476	0.088084	1.013332	-0.111	-0.177	0.0525	0	13	1032	1
2026-02-23	16:54:13.370	1.4	-0.77	0.28	0.091988	0.076372	1.002352	-0.108	-0.1785	0.054	0	13	1032	1
2026-02-23	16:54:13.390	0.91	-0.35	0.21	0.086376	0.08295999	1.00528	-0.108	-0.1845	0.0525	0	13	1032	1
2026-02-23	16:54:13.410	1.89	-0.735	0.245	0.093208	0.081984	0.997228	-0.108	-0.1815	0.0525	0	13	1031	1
2026-02-23	16:54:13.430	0.665	-0.21	0.21	0.08906	0.09467199	1.012356	-0.1095	-0.1755	0.048	0	13	1031	1
2026-02-23	16:54:13.450	1.4	-0.735	0.21	0.097844	0.085888	1.009916	-0.111	-0.177	0.048	0	13	1031	1
2026-02-23	16:54:13.470	1.015	-0.455	0.245	0.09394	0.08906	1.006256	-0.114	-0.1785	0.0495	0	13	1031	1
2026-02-23	16:54:13.490	1.435	-0.525	0.245	0.087352	0.080032	1.017968	-0.1155	-0.18	0.051	0	13	1031	1
2026-02-23	16:54:13.510	1.33	-0.7	0.245	0.09467199	0.084424	1.0004	-0.114	-0.1785	0.0555	0	13	1031	1
2026-02-23	16:54:13.530	0.49	-0.28	0.245	0.093452	0.097112	1.016504	-0.117	-0.174	0.057	0	13	1031	1
2026-02-23	16:54:13.550	1.435	-0.665	0.21	0.099796	0.079544	1.008452	-0.1155	-0.1755	0.057	0	13	1031	1
2026-02-23	16:54:13.570	1.33	-0.49	0.21	0.093696	0.085888	1.01748	-0.117	-0.1755	0.0555	0	13	1031	1
2026-02-23	16:54:13.590	1.26	-0.49	0.21	0.094428	0.098088	1.008696	-0.114	-0.177	0.0555	0	13	1031	1
2026-02-23	16:54:13.610	0.98	-0.525	0.245	0.09394	0.080032	1.009672	-0.1095	-0.1785	0.0495	0	13	1030	1
2026-02-23	16:54:13.630	0.735	-0.35	0.245	0.095648	0.088084	1.016504	-0.1125	-0.1785	0.0525	0	13	1030	1
2026-02-23	16:54:13.650	1.855	-0.91	0.245	0.097112	0.084424	1.004304	-0.111	-0.1785	0.0525	0	13	1030	1
2026-02-23	16:54:13.670	0.245	-0.035	0.245	0.095892	0.0732	1.020896	-0.111	-0.18	0.0435	0	13	1030	1
2026-02-23	16:54:13.690	2.31	-0.98	0.245	0.09394	0.078568	1.0126	-0.111	-0.18	0.048	0	13	1030	1
2026-02-23	16:54:13.710	0.875	-0.28	0.28	0.08906	0.0854	1.00406	-0.1095	-0.177	0.054	0	13	1030	1
2026-02-23	16:54:13.730	0.525	-0.42	0.245	0.09076799	0.084424	1.012844	-0.111	-0.174	0.0495	0	13	1030	1
2026-02-23	16:54:13.750	2.345	-1.015	0.175	0.111752	0.092232	1.017724	-0.1125	-0.1725	0.048	0	13	1030	1
2026-02-23	16:54:13.770	0.245	-0.105	0.28	0.090036	0.095404	1.020652	-0.1095	-0.174	0.048	0	13	1030	1
2026-02-23	16:54:13.790	1.82	-0.91	0.21	0.09882	0.089304	1.01748	-0.1065	-0.1785	0.051	0	13	1030	1
2026-02-23	16:54:13.810	0.77	-0.315	0.28	0.094916	0.08662	1.014308	-0.1095	-0.1785	0.0495	0	13	1030	1
2026-02-23	16:54:13.830	1.295	-0.7	0.21	0.09467199	0.086132	1.009916	-0.1095	-0.174	0.0495	0	13	1030	1
2026-02-23	16:54:13.850	0.875	-0.35	0.245	0.0976	0.086376	1.009672	-0.1125	-0.177	0.0525	0	13	1030	1
2026-02-23	16:54:13.870	1.925	-0.84	0.21	0.102724	0.083448	1.015284	-0.1155	-0.1815	0.0525	0	13	1030	1
2026-02-23	16:54:13.890	0.735	-0.315	0.28	0.097844	0.079788	1.022604	-0.114	-0.1785	0.0555	0	13	1030	1
2026-02-23	16:54:13.910	1.12	-0.525	0.245	0.093208	0.096868	1.01138	-0.111	-0.1725	0.054	0	13	1030	1
2026-02-23	16:54:13.930	1.295	-0.56	0.245	0.101016	0.084424	1.010404	-0.111	-0.171	0.051	0	13	1030	1
2026-02-23	16:54:13.950	1.12	-0.525	0.21	0.0915	0.087108	1.01626	-0.108	-0.1755	0.0495	0	13	1030	1
2026-02-23	16:54:13.970	1.225	-0.595	0.21	0.099308	0.08174	1.004792	-0.1095	-0.177	0.0495	0	13	1030	1
2026-02-23	16:54:13.990	0.945	-0.35	0.28	0.09272	0.090524	1.015528	-0.1095	-0.1725	0.051	0	13	1030	1
2026-02-23	16:54:14.010	2.17	-0.875	0.21	0.100772	0.08784	1.008452	-0.111	-0.1725	0.051	0	13	1031	1
2026-02-23	16:54:14.030	0.14	-0.105	0.245	0.0976	0.074664	1.004304	-0.114	-0.1725	0.0525	0	13	1031	1
2026-02-23	16:54:14.050	1.225	-0.7	0.21	0.088816	0.087108	1.014064	-0.1125	-0.1785	0.057	0	13	1031	1
2026-02-23	16:54:14.070	1.54	-0.595	0.245	0.102236	0.089792	1.011868	-0.1125	-0.1785	0.051	0	13	1031	1
2026-02-23	16:54:14.090	1.085	-0.49	0.245	0.090524	0.073444	1.00284	-0.1125	-0.177	0.048	0	13	1031	1
2026-02-23	16:54:14.110	0.735	-0.42	0.28	0.096136	0.083692	1.0065	-0.114	-0.177	0.057	0	13	1031	1
2026-02-23	16:54:14.130	1.995	-0.77	0.21	0.104676	0.091988	1.010892	-0.114	-0.174	0.0585	0	13	1031	1
2026-02-23	16:54:14.150	0.595	-0.245	0.21	0.090524	0.083448	1.006988	-0.114	-0.174	0.057	0	13	1031	1
2026-02-23	16:54:14.170	1.575	-0.665	0.21	0.097844	0.0854	1.006012	-0.114	-0.174	0.057	0	13	1031	1
2026-02-23	16:54:14.190	1.085	-0.455	0.245	0.101504	0.09516	1.00528	-0.114	-0.174	0.057	0	13	1031	1
2026-02-23	16:54:14.210	1.155	-0.595	0.245	0.098088	0.081008	1.006988	-0.1155	-0.1785	0.054	0	12	1032	1
2026-02-23	16:54:14.230	0.315	-0.245	0.28	0.101748	0.077836	0.99796	-0.1155	-0.174	0.0525	0	12	1032	1
2026-02-23	16:54:14.250	2.1	-0.875	0.245	0.088328	0.0793	1.018212	-0.1125	-0.18	0.054	0	12	1032	1
2026-02-23	16:54:14.270	1.295	-0.42	0.28	0.101992	0.083204	0.997716	-0.1125	-0.18	0.054	0	12	1032	1
2026-02-23	16:54:14.290	0.84	-0.42	0.28	0.088328	0.084912	0.99796	-0.1125	-0.18	0.0525	0	12	1032	1
2026-02-23	16:54:14.310	2.03	-1.225	0.21	0.110044	0.092232	1.031388	-0.114	-0.1815	0.051	0	12	1032	1
2026-02-23	16:54:14.330	0.21	-0.07	0.245	0.094916	0.079788	0.998204	-0.1125	-0.1785	0.054	0	12	1032	1
2026-02-23	16:54:14.350	2.1	-0.91	0.21	0.097356	0.087596	1.006988	-0.1125	-0.1755	0.054	0	12	1032	1
2026-02-23	16:54:14.370	0.875	-0.245	0.245	0.102724	0.077348	0.998936	-0.111	-0.1755	0.051	0	12	1032	1
2026-02-23	16:54:14.390	1.05	-0.56	0.21	0.097356	0.083936	1.001132	-0.1095	-0.177	0.051	0	12	1032	1
2026-02-23	16:54:14.410	1.295	-0.49	0.245	0.093452	0.085644	1.009672	-0.1155	-0.1815	0.0525	0	12	1032	1
2026-02-23	16:54:14.430	1.225	-0.49	0.245	0.092964	0.096868	1.00284	-0.1155	-0.18	0.0555	0	12	1032	1
2026-02-23	16:54:14.450	0.91	-0.455	0.28	0.080764	0.073688	1.005768	-0.1125	-0.1785	0.054	0	12	1032	1
2026-02-23	16:54:14.470	1.47	-0.63	0.245	0.09076799	0.08686399	1.002352	-0.1125	-0.177	0.0525	0	12	1032	1
2026-02-23	16:54:14.490	0.875	-0.42	0.315	0.086376	0.080032	1.009428	-0.108	-0.174	0.057	0	12	1032	1
2026-02-23	16:54:14.510	1.05	-0.525	0.28	0.097356	0.08295999	1.002352	-0.1065	-0.1725	0.0555	0	12	1032	1
2026-02-23	16:54:14.530	1.4	-0.56	0.28	0.078812	0.090036	1.009184	-0.1125	-0.174	0.048	0	12	1032	1
2026-02-23	16:54:14.550	1.365	-0.595	0.245	0.102968	0.083692	1.0004	-0.114	-0.174	0.048	0	12	1032	1
2026-02-23	16:54:14.570	0.42	-0.245	0.315	0.098088	0.070516	1.007476	-0.1155	-0.1725	0.0525	0	12	1032	1
2026-02-23	16:54:14.590	1.61	-0.735	0.21	0.100528	0.08662	0.999912	-0.1155	-0.1725	0.0555	0	12	1032	1
2026-02-23	16:54:14.610	1.225	-0.385	0.245	0.093208	0.074908	1.010648	-0.1155	-0.1755	0.0555	0	12	1031	1
2026-02-23	16:54:14.630	0.945	-0.525	0.245	0.070272	0.098088	0.99796	-0.117	-0.18	0.0525	0	12	1031	1
2026-02-23	16:54:14.650	0.945	-0.385	0.21	0.096136	0.083448	1.015528	-0.114	-0.183	0.048	0	12	1031	1
2026-02-23	16:54:14.670	1.785	-0.7	0.245	0.102236	0.080032	1.010892	-0.1125	-0.177	0.0495	0	12	1031	1
2026-02-23	16:54:14.690	0.945	-0.35	0.245	0.088816	0.089304	1.012356	-0.114	-0.174	0.051	0	12	1031	1
2026-02-23	16:54:14.710	0.98	-0.56	0.245	0.107848	0.078324	0.999912	-0.1095	-0.1755	0.0525	0	12	1031	1
2026-02-23	16:54:14.730	0.91	-0.525	0.245	0.099308	0.07564	1.013576	-0.111	-0.174	0.0525	0	12	1031	1
2026-02-23	16:54:14.750	1.05	-0.455	0.28	0.091012	0.082228	1.002352	-0.1155	-0.1725	0.048	0	12	1031	1
2026-02-23	16:54:14.770	1.365	-0.56	0.21	0.09882	0.0732	1.018456	-0.108	-0.171	0.048	0	12	1031	1
2026-02-23	16:54:14.790	1.085	-0.35	0.245	0.084668	0.094916	1.020164	-0.1035	-0.1725	0.048	0	12	1031	1
2026-02-23	16:54:14.810	1.925	-0.77	0.21	0.096868	0.082716	1.013332	-0.108	-0.177	0.0495	0	12	1031	1
2026-02-23	16:54:14.830	0.42	-0.245	0.28	0.092232	0.082716	0.998692	-0.1125	-0.183	0.051	0	12	1031	1
2026-02-23	16:54:14.850	1.015	-0.595	0.245	0.094428	0.076616	1.009184	-0.1155	-0.183	0.0495	0	12	1031	1
2026-02-23	16:54:14.870	1.47	-0.595	0.28	0.101992	0.09028	1.024312	-0.117	-0.18	0.0495	0	12	1031	1
2026-02-23	16:54:14.890	1.085	-0.455	0.21	0.111264	0.075884	1.004792	-0.1125	-0.1815	0.0495	0	12	1031	1
2026-02-23	16:54:14.910	1.19	-0.455	0.21	0.09857599	0.08906	1.025532	-0.114	-0.177	0.048	0	12	1031	1
2026-02-23	16:54:14.930	1.12	-0.63	0.28	0.095892	0.094184	1.00894	-0.1125	-0.1695	0.0495	0	12	1031	1
2026-02-23	16:54:14.950	0.63	-0.28	0.245	0.101504	0.07686	1.01016	-0.1125	-0.174	0.051	0	12	1031	1
2026-02-23	16:54:14.970	1.61	-0.665	0.245	0.101992	0.083448	1.014308	-0.114	-0.1785	0.051	0	12	1031	1
2026-02-23	16:54:14.990	1.47	-0.56	0.245	0.094184	0.087596	1.017724	-0.1155	-0.18	0.0495	0	12	1031	1
2026-02-23	16:54:15.010	0.49	-0.245	0.28	0.111996	0.078812	1.004792	-0.1155	-0.183	0.0495	0	13	1031	1
2026-02-23	16:54:15.030	1.54	-0.77	0.245	0.08906	0.099796	1.019676	-0.111	-0.1755	0.048	0	13	1031	1
2026-02-23	16:54:15.050	0.875	-0.315	0.28	0.096868	0.104188	1.01992	-0.1095	-0.1755	0.0465	0	13	1031	1
2026-02-23	16:54:15.070	0.945	-0.455	0.28	0.101992	0.077104	1.005036	-0.111	-0.1755	0.0465	0	13	1031	1
2026-02-23	16:54:15.090	1.365	-0.595	0.28	0.0915	0.074908	1.015772	-0.1155	-0.174	0.051	0	13	1031	1
2026-02-23	16:54:15.110	1.4	-0.595	0.245	0.090036	0.085644	1.00406	-0.1155	-0.1785	0.054	0	13	1031	1
2026-02-23	16:54:15.130	0.84	-0.315	0.245	0.096624	0.088816	1.02114	-0.111	-0.177	0.054	0	13	1031	1
2026-02-23	16:54:15.150	1.47	-0.63	0.245	0.096868	0.096136	1.01992	-0.111	-0.177	0.0555	0	13	1031	1
2026-02-23	16:54:15.170	0.49	-0.28	0.28	0.103944	0.0915	1.00406	-0.114	-0.1785	0.057	0	13	1031	1
2026-02-23	16:54:15.190	1.47	-0.7	0.245	0.104676	0.084424	1.015772	-0.114	-0.1785	0.057	0	13	1031	1
2026-02-23	16:54:15.210	1.155	-0.42	0.28	0.09638	0.082716	1.011624	-0.114	-0.1785	0.057	0	13	1032	1
2026-02-23	16:54:15.230	0.98	-0.42	0.28	0.099064	0.081984	1.016504	-0.114	-0.1755	0.048	0	13	1032	1
2026-02-23	16:54:15.250	1.75	-0.77	0.245	0.107848	0.092964	1.009184	-0.108	-0.177	0.0525	0	13	1032	1
2026-02-23	16:54:15.270	-0.21	0	0.28	0.094916	0.076372	1.016016	-0.1155	-0.1815	0.054	0	13	1032	1
2026-02-23	16:54:15.290	1.82	-0.945	0.245	0.09882	0.08784	1.009916	-0.1185	-0.171	0.0465	0	13	1032	1
2026-02-23	16:54:15.310	1.225	-0.385	0.245	0.105896	0.087352	1.00528	-0.114	-0.1815	0.0615	0	13	1032	1
2026-02-23	16:54:15.330	1.05	-0.455	0.245	0.098088	0.087108	1.006012	-0.111	-0.177	0.0465	0	13	1032	1
2026-02-23	16:54:15.350	1.4	-0.7	0.28	0.103944	0.070272	1.004548	-0.111	-0.177	0.0465	0	13	1032	1
2026-02-23	16:54:15.370	0.805	-0.28	0.21	0.098088	0.083692	1.008696	-0.111	-0.177	0.045	0	13	1032	1
2026-02-23	16:54:15.390	1.225	-0.805	0.245	0.097844	0.069296	1.0065	-0.1125	-0.1785	0.045	0	13	1032	1
2026-02-23	16:54:15.410	1.785	-0.665	0.245	0.095648	0.08662	1.001132	-0.1155	-0.18	0.051	0	13	1033	1
2026-02-23	16:54:15.430	0.455	-0.245	0.315	0.091744	0.084912	1.013088	-0.1185	-0.18	0.0525	0	13	1033	1
2026-02-23	16:54:15.450	1.155	-0.77	0.245	0.093208	0.090524	0.987224	-0.1155	-0.18	0.048	0	13	1033	1
2026-02-23	16:54:15.470	1.085	-0.315	0.245	0.100528	0.073444	1.007476	-0.114	-0.1785	0.0495	0	13	1033	1
2026-02-23	16:54:15.490	1.855	-0.84	0.245	0.0915	0.09394	1.010648	-0.1125	-0.1755	0.0555	0	13	1033	1
2026-02-23	16:54:15.510	0.49	-0.175	0.28	0.088084	0.083204	1.002352	-0.1125	-0.1785	0.0585	0	13	1033	1
2026-02-23	16:54:15.530	1.19	-0.525	0.245	0.09272	0.087352	1.004792	-0.114	-0.18	0.0555	0	13	1033	1
2026-02-23	16:54:15.550	1.89	-0.84	0.21	0.09638	0.092476	0.996008	-0.114	-0.183	0.051	0	13	1033	1
2026-02-23	16:54:15.570	-0.07	0	0.28	0.085644	0.078812	1.006988	-0.1125	-0.183	0.051	0	13	1033	1
2026-02-23	16:54:15.590	2.38	-1.085	0.21	0.0915	0.088572	1.008696	-0.108	-0.177	0.0555	0	13	1033	1
2026-02-23	16:54:15.610	0.735	-0.21	0.28	0.102724	0.077104	0.996984	-0.1095	-0.177	0.054	0	13	1032	1
2026-02-23	16:54:15.630	1.33	-0.7	0.21	0.091012	0.082472	1.000644	-0.114	-0.1785	0.048	0	13	1032	1
2026-02-23	16:54:15.650	0.63	-0.28	0.245	0.09272	0.081008	1.012356	-0.114	-0.177	0.045	0	13	1032	1
2026-02-23	16:54:15.670	1.645	-0.805	0.245	0.096868	0.084912	1.002108	-0.1185	-0.177	0.0465	0	13	1032	1
2026-02-23	16:54:15.690	0.42	-0.21	0.28	0.101504	0.076128	1.00528	-0.1185	-0.177	0.0525	0	13	1032	1
2026-02-23	16:54:15.710	2.31	-0.945	0.21	0.103456	0.079544	0.99918	-0.1125	-0.18	0.054	0	13	1032	1
2026-02-23	16:54:15.730	0.735	-0.175	0.245	0.093452	0.08686399	1.01992	-0.114	-0.18	0.0525	0	13	1032	1
2026-02-23	16:54:15.750	1.575	-0.735	0.21	0.0976	0.07905599	1.003328	-0.114	-0.183	0.0555	0	13	1032	1
2026-02-23	16:54:15.770	0.91	-0.455	0.28	0.092964	0.08662	1.00406	-0.111	-0.183	0.054	0	13	1032	1
2026-02-23	16:54:15.790	0.42	-0.385	0.28	0.079544	0.072712	1.020896	-0.1095	-0.1785	0.0495	0	13	1032	1
2026-02-23	16:54:15.810	2.31	-0.945	0.245	0.099064	0.092232	0.99674	-0.1125	-0.18	0.051	0	13	1031	1
2026-02-23	16:54:15.830	0.315	-0.105	0.245	0.085156	0.076616	1.003572	-0.1125	-0.177	0.048	0	13	1031	1
2026-02-23	16:54:15.850	1.715	-0.84	0.21	0.08906	0.08686399	0.99796	-0.111	-0.174	0.0495	0	13	1031	1
2026-02-23	16:54:15.870	0.525	-0.175	0.28	0.101992	0.077348	1.02236	-0.108	-0.18	0.051	0	13	1031	1
2026-02-23	16:54:15.890	2.17	-0.945	0.21	0.102236	0.088816	1.014064	-0.1125	-0.1815	0.051	0	13	1031	1
2026-02-23	16:54:15.910	0.35	-0.14	0.315	0.092476	0.08686399	1.007476	-0.117	-0.18	0.0555	0	13	1031	1
2026-02-23	16:54:15.930	1.505	-0.735	0.245	0.100772	0.082716	1.016504	-0.111	-0.1785	0.0495	0	13	1031	1
2026-02-23	16:54:15.950	1.155	-0.49	0.245	0.091256	0.093696	1.013332	-0.114	-0.1815	0.0465	0	13	1031	1
2026-02-23	16:54:15.970	1.225	-0.525	0.245	0.092232	0.081496	0.999912	-0.1125	-0.1815	0.048	0	13	1031	1
2026-02-23	16:54:15.990	0.98	-0.42	0.28	0.101748	0.094184	1.009428	-0.111	-0.1815	0.045	0	13	1031	1
2026-02-23	16:54:16.010	1.19	-0.49	0.245	0.098332	0.082472	1.028704	-0.114	-0.1785	0.0495	0	14	1031	1
2026-02-23	16:54:16.030	1.365	-0.63	0.28	0.107604	0.081496	1.017724	-0.1125	-0.177	0.0525	0	14	1031	1
2026-02-23	16:54:16.050	1.05	-0.42	0.28	0.087596	0.085644	1.01016	-0.1125	-0.183	0.051	0	14	1031	1
2026-02-23	16:54:16.070	0.735	-0.385	0.245	0.09272	0.088816	1.005524	-0.114	-0.1815	0.054	0	14	1031	1
2026-02-23	16:54:16.090	1.75	-0.805	0.245	0.102236	0.081984	1.014796	-0.12	-0.1815	0.0555	0	14	1031	1
2026-02-23	16:54:16.110	0.77	-0.28	0.245	0.09516	0.091988	1.016504	-0.1155	-0.1815	0.051	0	14	1031	1
2026-02-23	16:54:16.130	1.26	-0.63	0.245	0.114192	0.0854	1.0126	-0.1125	-0.1815	0.0465	0	14	1031	1
2026-02-23	16:54:16.150	1.435	-0.525	0.245	0.105896	0.083448	1.020408	-0.1185	-0.186	0.048	0	14	1031	1
2026-02-23	16:54:16.170	1.19	-0.49	0.245	0.109312	0.091256	1.01382	-0.1215	-0.1875	0.051	0	14	1031	1
2026-02-23	16:54:16.190	0.875	-0.525	0.315	0.097844	0.092964	1.006988	-0.1215	-0.1875	0.051	0	14	1031	1
2026-02-23	16:54:16.210	0.42	-0.35	0.245	0.102236	0.07515199	1.017968	-0.1215	-0.1875	0.051	0	14	1031	1
2026-02-23	16:54:16.230	2.1	-0.805	0.245	0.099308	0.087596	1.015284	-0.1125	-0.177	0.048	0	14	1031	1
2026-02-23	16:54:16.250	1.12	-0.35	0.28	0.09272	0.089792	1.01138	-0.114	-0.1845	0.051	0	14	1031	1
2026-02-23	16:54:16.270	1.435	-0.63	0.21	0.099796	0.083692	1.014308	-0.111	-0.189	0.042	0	14	1031	1
2026-02-23	16:54:16.290	0.56	-0.35	0.28	0.099064	0.086132	1.016992	-0.123	-0.1935	0.048	0	14	1031	1
2026-02-23	16:54:16.310	1.575	-0.735	0.245	0.08906	0.083692	1.012356	-0.1125	-0.18	0.0495	0	14	1031	1
2026-02-23	16:54:16.330	0.7	-0.315	0.245	0.106384	0.08784	0.997472	-0.108	-0.1785	0.0435	0	14	1031	1
2026-02-23	16:54:16.350	1.435	-0.77	0.245	0.090524	0.08052	1.01382	-0.1155	-0.186	0.054	0	14	1031	1
2026-02-23	16:54:16.370	0.91	-0.35	0.28	0.10736	0.077104	1.018456	-0.114	-0.1785	0.054	0	14	1031	1
2026-02-23	16:54:16.390	1.645	-0.7	0.21	0.094916	0.08784	1.009672	-0.1125	-0.183	0.0525	0	14	1031	1
2026-02-23	16:54:16.410	0.7	-0.21	0.245	0.100528	0.07808	1.009672	-0.114	-0.18	0.048	0	14	1032	1
2026-02-23	16:54:16.430	1.785	-0.875	0.21	0.092964	0.083936	1.004792	-0.114	-0.18	0.048	0	14	1032	1
2026-02-23	16:54:16.450	0.63	-0.21	0.245	0.100284	0.082472	1.0126	-0.114	-0.177	0.051	0	14	1032	1
2026-02-23	16:54:16.470	1.015	-0.525	0.28	0.106628	0.09076799	1.022848	-0.1155	-0.1755	0.054	0	14	1032	1
2026-02-23	16:54:16.490	1.96	-0.945	0.21	0.0976	0.083204	0.997716	-0.114	-0.1725	0.0525	0	14	1032	1
2026-02-23	16:54:16.510	0.175	-0.035	0.315	0.091012	0.081008	1.003572	-0.117	-0.1755	0.054	0	14	1032	1
2026-02-23	16:54:16.530	2.275	-1.015	0.21	0.101016	0.09076799	1.010404	-0.1185	-0.18	0.057	0	14	1032	1
2026-02-23	16:54:16.550	0.56	-0.175	0.28	0.096624	0.094428	1.004548	-0.1155	-0.1815	0.054	0	14	1032	1
2026-02-23	16:54:16.570	1.225	-0.665	0.245	0.098332	0.079544	1.001864	-0.12	-0.177	0.054	0	14	1032	1
2026-02-23	16:54:16.590	1.33	-0.525	0.28	0.102236	0.088084	1.008208	-0.1155	-0.177	0.057	0	14	1032	1
2026-02-23	16:54:16.610	1.47	-0.63	0.21	0.097112	0.08686399	0.999668	-0.117	-0.1815	0.054	0	14	1033	1
2026-02-23	16:54:16.630	0.7	-0.315	0.245	0.097844	0.07905599	1.002108	-0.1215	-0.1815	0.0495	0	14	1033	1
2026-02-23	16:54:16.650	1.47	-0.735	0.245	0.091256	0.091256	1.001376	-0.117	-0.183	0.0525	0	14	1033	1
2026-02-23	16:54:16.670	0.98	-0.42	0.245	0.096868	0.080276	1.01992	-0.1125	-0.1845	0.0585	0	14	1033	1
2026-02-23	16:54:16.690	1.435	-0.595	0.245	0.10614	0.085888	0.990884	-0.1125	-0.183	0.0555	0	14	1033	1
2026-02-23	16:54:16.710	0.98	-0.49	0.28	0.10248	0.072712	1.002596	-0.1155	-0.1815	0.048	0	14	1033	1
2026-02-23	16:54:16.730	1.295	-0.63	0.245	0.0854	0.083936	1.000888	-0.1155	-0.1845	0.048	0	14	1033	1
2026-02-23	16:54:16.750	0.7	-0.28	0.245	0.099064	0.081008	1.008696	-0.1155	-0.183	0.0555	0	14	1033	1
2026-02-23	16:54:16.770	2.1	-0.91	0.21	0.087352	0.079788	1.006256	-0.1155	-0.18	0.0555	0	14	1033	1
2026-02-23	16:54:16.790	0.63	-0.14	0.245	0.092964	0.081252	1.010404	-0.1125	-0.1755	0.054	0	14	1033	1
2026-02-23	16:54:16.810	1.4	-0.735	0.245	0.088572	0.088572	0.99674	-0.1125	-0.1725	0.051	0	14	1032	1
2026-02-23	16:54:16.830	0.7	-0.35	0.245	0.09028	0.087108	1.005524	-0.1155	-0.174	0.0495	0	14	1032	1
2026-02-23	16:54:16.850	1.505	-0.7	0.21	0.087596	0.081496	0.993812	-0.1155	-0.18	0.0525	0	14	1032	1
2026-02-23	16:54:16.870	0.7	-0.315	0.245	0.0915	0.075884	1.012356	-0.1185	-0.183	0.0585	0	14	1032	1
2026-02-23	16:54:16.890	2.065	-0.805	0.21	0.098088	0.091744	1.00528	-0.114	-0.177	0.0585	0	14	1032	1
2026-02-23	16:54:16.910	0.385	-0.21	0.28	0.088328	0.08686399	1.013576	-0.111	-0.1785	0.054	0	14	1032	1
2026-02-23	16:54:16.930	1.82	-0.805	0.245	0.09076799	0.082228	1.009916	-0.117	-0.18	0.0525	0	14	1032	1
2026-02-23	16:54:16.950	0.98	-0.385	0.245	0.094428	0.08052	0.993812	-0.114	-0.171	0.0525	0	14	1032	1
2026-02-23	16:54:16.970	1.19	-0.56	0.21	0.075884	0.091012	1.007232	-0.1095	-0.1755	0.054	0	14	1032	1
2026-02-23	16:54:16.990	1.12	-0.525	0.28	0.087352	0.09028	1.006744	-0.1095	-0.18	0.057	0	14	1032	1
2026-02-23	16:54:17.010	1.26	-0.56	0.28	0.099796	0.079788	1.017236	-0.1125	-0.174	0.0525	0	14	1031	1
2026-02-23	16:54:17.030	1.085	-0.49	0.245	0.101504	0.082228	1.000156	-0.1155	-0.177	0.0525	0	14	1031	1
2026-02-23	16:54:17.050	0.98	-0.455	0.245	0.093696	0.080764	1.009672	-0.1185	-0.1785	0.0555	0	14	1031	1
2026-02-23	16:54:17.070	2.065	-0.875	0.245	0.094428	0.091744	1.010892	-0.117	-0.1815	0.0555	0	14	1031	1
2026-02-23	16:54:17.090	0.35	-0.175	0.28	0.09272	0.080032	1.016992	-0.1125	-0.183	0.054	0	14	1031	1
2026-02-23	16:54:17.110	1.435	-0.735	0.245	0.083692	0.090036	1.003816	-0.114	-0.186	0.051	0	14	1031	1
2026-02-23	16:54:17.130	0.945	-0.35	0.245	0.097844	0.08418	1.006256	-0.117	-0.1845	0.0525	0	14	1031	1
2026-02-23	16:54:17.150	1.505	-0.7	0.21	0.099064	0.08052	1.016992	-0.1215	-0.1785	0.0585	0	14	1031	1
2026-02-23	16:54:17.170	1.155	-0.455	0.28	0.09467199	0.09516	1.013576	-0.12	-0.1845	0.057	0	14	1031	1
2026-02-23	16:54:17.190	0.525	-0.315	0.245	0.080764	0.085888	1.000156	-0.1155	-0.1905	0.051	0	14	1031	1
2026-02-23	16:54:17.210	1.715	-0.7	0.21	0.08906	0.092964	1.012112	-0.1155	-0.1905	0.051	0	14	1031	1
2026-02-23	16:54:17.230	1.505	-0.56	0.245	0.105408	0.088816	1.007232	-0.1155	-0.1905	0.051	0	14	1031	1
2026-02-23	16:54:17.250	0.315	-0.245	0.245	0.095404	0.072224	1.019676	-0.1155	-0.189	0.0585	0	14	1031	1
2026-02-23	16:54:17.270	1.575	-0.7	0.28	0.104676	0.096136	1.020652	-0.123	-0.183	0.0555	0	14	1031	1
2026-02-23	16:54:17.290	1.61	-0.63	0.245	0.101016	0.088084	1.005768	-0.123	-0.186	0.054	0	14	1031	1
2026-02-23	16:54:17.310	0.07	-0.105	0.28	0.101504	0.074908	1.021384	-0.117	-0.1785	0.0495	0	14	1031	1
2026-02-23	16:54:17.330	2.03	-0.91	0.245	0.105896	0.102724	1.008452	-0.117	-0.1785	0.051	0	14	1031	1
2026-02-23	16:54:17.350	0.98	-0.315	0.245	0.08906	0.089304	1.021872	-0.1125	-0.183	0.0495	0	14	1031	1
2026-02-23	16:54:17.370	0.945	-0.455	0.21	0.107848	0.085644	0.999912	-0.1185	-0.1785	0.054	0	14	1031	1
2026-02-23	16:54:17.390	1.155	-0.49	0.245	0.0915	0.093208	1.019432	-0.114	-0.177	0.06	0	14	1031	1
2026-02-23	16:54:17.410	1.54	-0.63	0.245	0.097844	0.07686	1.007964	-0.1095	-0.177	0.057	0	14	1031	1
2026-02-23	16:54:17.430	0.98	-0.42	0.28	0.103944	0.06466	1.003816	-0.123	-0.1785	0.057	0	14	1031	1
2026-02-23	16:54:17.450	1.19	-0.49	0.245	0.09516	0.093696	1.013332	-0.114	-0.177	0.0465	0	14	1031	1
2026-02-23	16:54:17.470	1.365	-0.63	0.245	0.101504	0.08686399	1.01504	-0.117	-0.18	0.057	0	14	1031	1
2026-02-23	16:54:17.490	0.735	-0.28	0.28	0.101748	0.08686399	1.015528	-0.1185	-0.1785	0.057	0	14	1031	1
2026-02-23	16:54:17.510	1.54	-0.805	0.28	0.09394	0.084912	1.002596	-0.108	-0.1755	0.057	0	14	1031	1
2026-02-23	16:54:17.530	0.385	-0.175	0.245	0.09394	0.09028	1.017724	-0.111	-0.18	0.0525	0	14	1031	1
2026-02-23	16:54:17.550	1.75	-0.385	0.28	0.099552	0.103212	0.996496	-0.1155	-0.186	0.048	0	14	1031	1
2026-02-23	16:54:17.570	1.645	-0.805	0.21	0.0915	0.074176	1.019432	-0.1125	-0.18	0.0495	0	14	1031	1
2026-02-23	16:54:17.590	0.49	-0.21	0.315	0.100528	0.083692	1.007476	-0.111	-0.174	0.054	0	14	1031	1
2026-02-23	16:54:17.610	1.575	-0.77	0.245	0.096136	0.08295999	1.001376	-0.1155	-0.1755	0.0555	0	14	1031	1
2026-02-23	16:54:17.630	0.455	-0.175	0.28	0.101016	0.076372	1.002352	-0.1155	-0.1755	0.0555	0	14	1031	1
2026-02-23	16:54:17.650	1.505	-0.665	0.245	0.099064	0.082472	1.015284	-0.114	-0.1785	0.054	0	14	1031	1
2026-02-23	16:54:17.670	1.575	-0.56	0.245	0.1037	0.088816	1.014552	-0.1125	-0.1815	0.051	0	14	1031	1
2026-02-23	16:54:17.690	0.525	-0.175	0.28	0.0976	0.08174	1.008208	-0.114	-0.1815	0.0555	0	14	1031	1
2026-02-23	16:54:17.710	1.575	-0.805	0.245	0.103456	0.085644	1.003816	-0.117	-0.1785	0.057	0	14	1031	1
2026-02-23	16:54:17.730	0.735	-0.28	0.28	0.087352	0.088328	1.006256	-0.12	-0.177	0.0555	0	14	1031	1
2026-02-23	16:54:17.750	1.47	-0.595	0.21	0.100528	0.079788	1.009916	-0.1185	-0.1785	0.0525	0	14	1031	1
2026-02-23	16:54:17.770	1.085	-0.455	0.245	0.10858	0.077348	1.00162	-0.1185	-0.1815	0.054	0	14	1031	1
2026-02-23	16:54:17.790	0.77	-0.455	0.245	0.093696	0.087596	1.006744	-0.12	-0.183	0.0555	0	14	1031	1
2026-02-23	16:54:17.810	0.84	-0.385	0.28	0.093696	0.087596	1.014796	-0.1155	-0.1815	0.051	0	14	1032	1
2026-02-23	16:54:17.830	1.855	-0.77	0.245	0.092232	0.08052	1.002108	-0.117	-0.1785	0.0495	0	14	1032	1
