yyyy-MM-dd	HH:mm:ss.fff	gyrX	gyrY	gyrZ	accX	accY	accZ	magX	magY	magZ	Marker	Energy	Angle	Classification
2026-02-23	16:53:40.210	-0.525	-1.435	-0.385	0.81008	-0.096136	0.567544	-0.5055	1.2645	-0.585	0	362	543	1
2026-02-23	16:53:40.230	-1.05	-1.54	-0.35	0.817644	-0.10126	0.579744	-0.5085	1.2645	-0.5835	0	362	543	1
2026-02-23	16:53:40.250	-1.365	-1.68	-0.63	0.818864	-0.130052	0.568764	-0.51	1.2585	-0.585	0	362	543	1
2026-02-23	16:53:40.270	-0.49	-2.24	-0.98	0.823012	-0.110288	0.564128	-0.51	1.26	-0.5865	0	362	543	1
2026-02-23	16:53:40.290	-0.84	-2.31	-0.63	0.81618	-0.09028	0.566324	-0.5055	1.2585	-0.5835	0	362	543	1
2026-02-23	16:53:40.310	-6.51	-0.77	0.07	0.813008	-0.118096	0.566568	-0.5025	1.2555	-0.585	0	362	543	1
2026-02-23	16:53:40.330	-5.25	-0.84	0.35	0.821792	-0.123952	0.561444	-0.516	1.2645	-0.582	0	362	543	1
2026-02-23	16:53:40.350	-0.7	-1.575	0.77	0.820328	-0.113704	0.563152	-0.5085	1.26	-0.576	0	362	543	1
2026-02-23	16:53:40.370	-1.19	-1.4	1.155	0.807152	-0.102724	0.560712	-0.5085	1.257	-0.582	0	362	543	1
2026-02-23	16:53:40.390	-3.745	-1.155	1.085	0.803004	-0.117608	0.561932	-0.5055	1.2525	-0.5835	0	362	543	1
2026-02-23	16:53:40.410	-1.68	-2.555	0.28	0.811056	-0.133956	0.567544	-0.5055	1.251	-0.588	0	310	553	1
2026-02-23	16:53:40.430	4.655	-3.955	-0.21	0.832528	-0.09272	0.563396	-0.5115	1.2615	-0.5835	0	310	553	1
2026-02-23	16:53:40.450	2.625	-2.345	0.77	0.831308	-0.110288	0.549244	-0.507	1.257	-0.5745	0	310	553	1
2026-02-23	16:53:40.470	-0.63	-0.63	2.17	0.81984	-0.098332	0.548024	-0.507	1.257	-0.5745	0	310	553	1
2026-02-23	16:53:40.490	-0.7	0.735	2.66	0.816668	-0.133712	0.559248	-0.507	1.257	-0.5745	0	310	553	1
2026-02-23	16:53:40.510	2.66	0.595	2.03	0.813984	-0.13054	0.54778	-0.51	1.2555	-0.579	0	310	553	1
2026-02-23	16:53:40.530	4.305	0.875	1.33	0.820084	-0.12078	0.566568	-0.507	1.26	-0.582	0	310	553	1
2026-02-23	16:53:40.550	3.92	0.735	0.84	0.819108	-0.11346	0.5673	-0.51	1.26	-0.5865	0	310	553	1
2026-02-23	16:53:40.570	0	0.945	0.91	0.824964	-0.099796	0.565592	-0.513	1.248	-0.582	0	310	553	1
2026-02-23	16:53:40.590	-2.625	1.645	1.225	0.82106	-0.116388	0.543388	-0.507	1.257	-0.582	0	310	553	1
2026-02-23	16:53:40.610	-2.1	2.8	1.015	0.815692	-0.104432	0.544608	-0.507	1.248	-0.5865	0	266	559	1
2026-02-23	16:53:40.630	-4.655	5.215	0.49	0.813496	-0.122976	0.57828	-0.507	1.263	-0.591	0	266	559	1
2026-02-23	16:53:40.650	-3.99	4.025	-0.245	0.810812	-0.133224	0.576816	-0.5115	1.257	-0.588	0	266	559	1
2026-02-23	16:53:40.670	-1.715	1.47	-0.35	0.803248	-0.11712	0.55632	-0.5085	1.263	-0.594	0	266	559	1
2026-02-23	16:53:40.690	-2.275	0.315	-0.455	0.800564	-0.11712	0.571204	-0.5115	1.2615	-0.594	0	266	559	1
2026-02-23	16:53:40.710	-2.485	-1.05	-0.455	0.81618	-0.121512	0.584624	-0.5145	1.266	-0.597	0	266	559	1
2026-02-23	16:53:40.730	-1.855	-3.045	-0.315	0.81496	-0.127856	0.576816	-0.5115	1.269	-0.5955	0	266	559	1
2026-02-23	16:53:40.750	0.105	-4.76	0.245	0.818132	-0.126636	0.554368	-0.51	1.263	-0.5925	0	266	559	1
2026-02-23	16:53:40.770	0.665	-4.55	0.875	0.818132	-0.144692	0.550708	-0.5145	1.2615	-0.591	0	266	559	1
2026-02-23	16:53:40.790	7	-5.11	0.805	0.823744	-0.1342	0.532652	-0.513	1.2645	-0.5865	0	266	559	1
2026-02-23	16:53:40.810	10.57	-2.45	0.665	0.839604	-0.054168	0.558272	-0.51	1.2615	-0.582	0	228	564	1
2026-02-23	16:53:40.830	6.51	-1.295	0.525	0.825452	-0.129564	0.554124	-0.5055	1.2585	-0.582	0	228	564	1
2026-02-23	16:53:40.850	5.11	-0.105	0.805	0.800808	-0.112484	0.539972	-0.501	1.257	-0.5835	0	228	564	1
2026-02-23	16:53:40.870	2.1	1.715	1.26	0.823256	-0.0793	0.597068	-0.501	1.257	-0.5835	0	228	564	1
2026-02-23	16:53:40.890	-1.995	2.31	0.63	0.818376	-0.12932	0.564616	-0.507	1.254	-0.588	0	228	564	1
2026-02-23	16:53:40.910	-1.925	0.875	0.455	0.80642	-0.13664	0.540948	-0.51	1.2705	-0.594	0	228	564	1
2026-02-23	16:53:40.930	-0.35	0.665	-0.07	0.812032	-0.12566	0.563152	-0.5145	1.2645	-0.588	0	228	564	1
2026-02-23	16:53:40.950	-0.175	1.05	-0.525	0.82228	-0.103456	0.5673	-0.516	1.263	-0.5835	0	228	564	1
2026-02-23	16:53:40.970	-2.625	1.54	-0.385	0.819108	-0.11102	0.564616	-0.5025	1.266	-0.588	0	228	564	1
2026-02-23	16:53:40.990	-3.71	1.89	-0.245	0.81252	-0.12322	0.560712	-0.51	1.269	-0.5955	0	228	564	1
2026-02-23	16:53:41.010	-1.89	1.645	-0.175	0.811544	-0.11834	0.56608	-0.5175	1.26	-0.588	0	197	566	1
2026-02-23	16:53:41.030	-1.47	1.365	-0.105	0.814472	-0.1159	0.572912	-0.5145	1.263	-0.5835	0	197	566	1
2026-02-23	16:53:41.050	-1.645	1.12	-0.07	0.815448	-0.120048	0.569008	-0.516	1.2675	-0.5895	0	197	566	1
2026-02-23	16:53:41.070	-3.115	0.56	-0.105	0.808372	-0.118584	0.560468	-0.513	1.272	-0.5925	0	197	566	1
2026-02-23	16:53:41.090	-3.605	0.035	-0.035	0.8174	-0.11834	0.566324	-0.5115	1.272	-0.588	0	197	566	1
2026-02-23	16:53:41.110	-3.29	-0.28	0.175	0.820084	-0.120292	0.571692	-0.516	1.2765	-0.5895	0	197	566	1
2026-02-23	16:53:41.130	-1.785	-0.98	0.21	0.812764	-0.124684	0.558516	-0.513	1.275	-0.588	0	197	566	1
2026-02-23	16:53:41.150	0.245	-0.98	0.315	0.814472	-0.12078	0.55876	-0.513	1.2735	-0.585	0	197	566	1
2026-02-23	16:53:41.170	-0.175	-0.56	0.28	0.810812	-0.12566	0.568032	-0.5175	1.2735	-0.585	0	197	566	1
2026-02-23	16:53:41.190	-0.98	-0.98	0.035	0.813008	-0.119804	0.569252	-0.516	1.275	-0.5955	0	197	566	1
2026-02-23	16:53:39.210	-0.175	-0.21	3.955	0.826428	-0.059048	0.505812	-0.4635	1.14	-0.561	0	749	473	1
2026-02-23	16:53:39.230	-5.425	-0.42	5.18	0.841068	-0.059048	0.529968	-0.4635	1.1385	-0.5625	0	749	473	1
2026-02-23	16:53:39.250	-10.185	0.035	6.58	0.85888	-0.09272	0.5185	-0.4665	1.137	-0.567	0	749	473	1
2026-02-23	16:53:39.270	-3.325	1.085	6.545	0.85766	-0.110776	0.501908	-0.468	1.1385	-0.57	0	749	473	1
2026-02-23	16:53:39.290	-0.665	1.89	6.405	0.849364	-0.10248	0.487756	-0.4665	1.149	-0.57	0	749	473	1
2026-02-23	16:53:39.310	-2.485	3.535	8.015	0.845216	-0.07515199	0.519232	-0.4695	1.158	-0.576	0	749	473	1
2026-02-23	16:53:39.330	2.275	5.18	8.855	0.85766	-0.088328	0.52948	-0.4695	1.158	-0.582	0	749	473	1
2026-02-23	16:53:39.350	9.835	6.335	7.875	0.8479	-0.13298	0.493856	-0.465	1.1595	-0.5835	0	749	473	1
2026-02-23	16:53:39.370	12.67	7.245	7.14	0.828136	-0.1159	0.500444	-0.471	1.1655	-0.5865	0	749	473	1
2026-02-23	16:53:39.390	16.94	5.81	4.48	0.830576	-0.117852	0.560956	-0.4755	1.17	-0.5895	0	749	473	1
2026-02-23	16:53:55.410	9.03	6.615	-8.925	0.84546	0.613172	0.1586	-0.1965	0.291	-0.1275	0	333	151	2
2026-02-23	16:53:55.430	2.975	6.44	-7.56	0.8418	0.611708	0.17568	-0.195	0.2895	-0.1275	0	333	151	2
2026-02-23	16:53:55.450	-1.295	5.95	-6.23	0.820328	0.564616	0.177388	-0.198	0.294	-0.129	0	333	151	2
2026-02-23	16:53:55.470	-4.445	4.97	-5.18	0.821548	0.516548	0.17812	-0.1875	0.297	-0.1275	0	333	151	2
2026-02-23	16:53:55.490	-3.815	4.13	-4.025	0.833016	0.464332	0.16714	-0.1965	0.2955	-0.129	0	333	151	2
2026-02-23	16:53:55.510	2.205	1.75	-1.33	0.843264	0.474092	0.167872	-0.1965	0.2955	-0.129	0	333	151	2
2026-02-23	16:53:55.530	1.155	-0.455	2.625	0.83814	0.481656	0.166164	-0.198	0.2925	-0.129	0	333	151	2
2026-02-23	16:53:55.550	0.98	-3.185	6.02	0.854488	0.5002	0.17202	-0.198	0.2865	-0.129	0	333	151	2
2026-02-23	16:53:55.570	0.28	-5.005	9.24	0.869128	0.520696	0.166896	-0.1965	0.2835	-0.126	0	333	151	2
2026-02-23	16:53:55.590	-3.15	-5.88	12.39	0.886208	0.519964	0.162992	-0.195	0.285	-0.126	0	333	151	2
2026-02-23	16:53:55.610	-9.52	-3.885	15.925	0.85522	0.522648	0.15128	-0.1965	0.291	-0.1275	0	381	152	3
2026-02-23	16:53:55.630	-13.265	-3.71	18.13	0.826184	0.510936	0.159088	-0.1995	0.294	-0.1305	0	381	152	3
2026-02-23	16:53:55.650	-7.875	-5.81	17.57	0.81374	0.499712	0.150548	-0.198	0.291	-0.132	0	381	152	3
2026-02-23	16:53:55.670	-5.355	-7.49	17.36	0.815692	0.500444	0.137128	-0.198	0.2955	-0.1275	0	381	152	3
2026-02-23	16:53:55.690	-3.92	-10.675	17.22	0.842532	0.529724	0.143472	-0.198	0.3015	-0.1245	0	381	152	3
2026-02-23	16:53:55.710	-7	-11.375	18.55	0.83204	0.494832	0.146156	-0.213	0.309	-0.1245	0	381	152	3
2026-02-23	16:53:55.730	-7.21	-14.14	20.37	0.844728	0.412116	0.135664	-0.207	0.312	-0.126	0	381	152	3
2026-02-23	16:53:55.750	-4.06	-14.56	20.58	0.865468	0.409188	0.143472	-0.213	0.2985	-0.1245	0	381	152	3
2026-02-23	16:53:55.770	-2.38	-14.56	19.95	0.868884	0.470432	0.131028	-0.2205	0.318	-0.12	0	381	152	3
2026-02-23	16:53:55.790	-14.035	-14.63	22.365	0.842044	0.410408	0.125416	-0.219	0.309	-0.1215	0	381	152	3
2026-02-23	16:53:55.810	-13.09	-18.305	21.315	0.8723	0.396744	0.130296	-0.219	0.3135	-0.12	0	397	149	3
2026-02-23	16:53:55.830	-9.065	-19.425	20.965	0.868152	0.392596	0.124928	-0.2235	0.315	-0.1245	0	397	149	3
2026-02-23	16:53:55.850	-6.44	-22.085	20.615	0.87596	0.389424	0.1403	-0.228	0.3195	-0.1185	0	397	149	3
2026-02-23	16:53:55.870	-1.225	-25.97	20.825	0.960872	0.369904	0.166896	-0.2235	0.3195	-0.1185	0	397	149	3
2026-02-23	16:53:55.890	-0.49	-22.68	19.74	0.976976	0.438956	0.142252	-0.231	0.321	-0.117	0	397	149	3
2026-02-23	16:53:55.910	-6.79	-18.935	20.44	0.966484	0.459208	0.139324	-0.237	0.3255	-0.1125	0	397	149	3
2026-02-23	16:53:55.930	-17.465	-16.17	22.75	0.945012	0.378444	0.176412	-0.2385	0.3255	-0.111	0	397	149	3
2026-02-23	16:53:55.950	-17.57	-14.875	22.33	0.95404	0.351604	0.1952	-0.2385	0.327	-0.114	0	397	149	3
2026-02-23	16:53:55.970	-9.59	-12.285	19.425	0.939156	0.433832	0.165188	-0.2355	0.3315	-0.108	0	397	149	3
2026-02-23	16:53:55.990	-11.865	-10.36	19.215	0.915	0.411384	0.132736	-0.24	0.336	-0.105	0	397	149	3
2026-02-23	16:53:56.010	-12.915	-11.585	18.9	0.945012	0.275476	0.1159	-0.2445	0.3405	-0.1065	0	389	147	3
2026-02-23	16:53:56.030	-11.34	-10.465	19.705	0.965996	0.300608	0.08906	-0.2475	0.345	-0.111	0	389	147	3
2026-02-23	16:53:56.050	-15.995	-10.64	22.82	0.945256	0.286456	0.084668	-0.252	0.3495	-0.117	0	389	147	3
2026-02-23	16:53:56.070	-21.735	-13.685	28.875	0.986004	0.188856	0.114436	-0.252	0.3495	-0.117	0	389	147	3
2026-02-23	16:53:56.090	-14.665	-13.475	31.71	0.991372	0.2684	0.09516	-0.2595	0.3585	-0.111	0	389	147	3
2026-02-23	16:53:56.110	-9.87	-11.375	33.915	0.930128	0.361852	0.043432	-0.2595	0.3645	-0.111	0	389	147	3
2026-02-23	16:53:56.130	-9.24	-11.935	36.085	0.926956	0.257664	0.09882	-0.267	0.3555	-0.114	0	389	147	3
2026-02-23	16:53:56.150	-15.19	-11.585	37.135	0.949404	0.25986	0.12444	-0.2685	0.357	-0.1155	0	389	147	3
2026-02-23	16:53:56.170	-27.37	-10.955	36.12	0.938424	0.259128	0.07198	-0.2685	0.3615	-0.108	0	389	147	3
2026-02-23	16:53:56.190	-26.285	-11.795	32.97	0.936472	0.26718	0.07686	-0.27	0.3675	-0.111	0	389	147	3
2026-02-23	16:53:56.210	-27.16	-11.235	30.905	0.929884	0.325496	0.078812	-0.276	0.3735	-0.117	0	366	142	3
2026-02-23	16:53:56.230	-41.125	-12.565	29.435	0.920856	0.29646	0.062952	-0.279	0.3765	-0.114	0	366	142	3
2026-02-23	16:53:56.250	-44.03	-14.21	26.67	0.958432	0.234972	0.092964	-0.279	0.3765	-0.114	0	366	142	3
2026-02-23	16:53:56.270	-45.255	-12.915	26.355	0.97722	0.203984	0.099308	-0.288	0.3885	-0.1185	0	366	142	3
2026-02-23	16:53:56.290	-46.9	-12.005	25.83	0.969656	0.137128	0.105164	-0.291	0.399	-0.1275	0	366	142	3
2026-02-23	16:53:56.310	-41.44	-14.245	23.485	0.984052	0.16714	0.083448	-0.294	0.3945	-0.1185	0	366	142	3
2026-02-23	16:53:56.330	-42.21	-14.035	22.085	0.946964	0.180804	0.031476	-0.294	0.399	-0.1275	0	366	142	3
2026-02-23	16:53:56.350	-40.32	-16.8	22.155	0.965264	0.130296	0.0244	-0.2925	0.4035	-0.1245	0	366	142	3
2026-02-23	16:53:56.370	-34.72	-18.795	20.37	0.967948	0.148352	0.037332	-0.297	0.4095	-0.1275	0	366	142	3
2026-02-23	16:53:56.390	-34.3	-18.62	18.305	0.945256	0.145424	0.041724	-0.306	0.4035	-0.1305	0	366	142	3
2026-02-23	16:53:56.410	-34.125	-20.125	16.73	0.958188	0.133468	0.039772	-0.297	0.4125	-0.1305	0	336	130	3
2026-02-23	16:53:56.430	-30.52	-19.39	14.525	0.980392	0.1281	0.015616	-0.2985	0.414	-0.1275	0	336	130	3
2026-02-23	16:53:56.450	-33.285	-17.955	14.42	1.013088	0.140544	0.02318	-0.303	0.417	-0.1245	0	336	130	3
2026-02-23	16:53:56.470	-37.31	-16.94	14.49	1.001376	0.115412	0.067588	-0.3075	0.4215	-0.1245	0	336	130	3
2026-02-23	16:53:56.490	-32.83	-16.8	13.93	0.974292	0.097112	0.09882	-0.306	0.426	-0.1215	0	336	130	3
2026-02-23	16:53:56.510	-31.955	-16.835	16.45	0.983076	0.002928	0.0488	-0.3015	0.429	-0.123	0	336	130	3
2026-02-23	16:53:56.530	-25.9	-17.115	17.5	1.034072	-0.005368	-0.041724	-0.3045	0.429	-0.126	0	336	130	3
2026-02-23	16:53:56.550	-19.53	-13.125	17.99	1.058228	0.1403	-0.000488	-0.312	0.429	-0.126	0	336	130	3
2026-02-23	16:53:56.570	-26.845	-7.245	19.81	0.987468	0.178364	0.144936	-0.3135	0.4335	-0.126	0	336	130	3
2026-02-23	16:53:56.590	-54.81	-8.26	24.955	0.989176	-0.030988	0.109556	-0.315	0.432	-0.1245	0	336	130	3
2026-02-23	16:53:56.610	-74.375	-4.795	27.195	0.954528	-0.005612	0.076372	-0.321	0.429	-0.126	0	305	113	3
2026-02-23	16:53:56.630	-75.215	-5.705	29.295	0.933544	0.07442	0.03904	-0.3195	0.444	-0.1335	0	305	113	3
2026-02-23	16:53:56.650	-67.2	-2.1	29.75	0.938424	-0.030744	-0.037332	-0.3195	0.447	-0.1425	0	305	113	3
2026-02-23	16:53:56.670	-53.305	-0.49	36.12	0.987468	-0.09516	-0.084424	-0.333	0.459	-0.1455	0	305	113	3
2026-02-23	16:53:56.690	-48.51	-9.52	32.095	1.095316	0.153476	-0.107604	-0.33	0.462	-0.1515	0	305	113	3
2026-02-23	16:53:56.710	-23.695	-18.725	30.17	1.135576	-0.041236	-0.325984	-0.333	0.4695	-0.1545	0	305	113	3
2026-02-23	16:53:56.730	27.265	-24.78	38.29	1.1956	-0.349164	-0.3233	-0.3255	0.4695	-0.1515	0	305	113	3
2026-02-23	16:53:56.750	62.685	-20.65	41.825	1.1895	-0.123464	-0.008784	-0.3285	0.471	-0.1395	0	305	113	3
2026-02-23	16:53:56.770	36.155	-15.12	48.86	1.137772	0.168604	0.113216	-0.342	0.477	-0.1365	0	305	113	3
2026-02-23	16:53:56.790	-25.41	-6.265	50.995	0.929396	0.021228	0.091988	-0.342	0.477	-0.1365	0	305	113	3
2026-02-23	16:53:56.810	-22.645	-4.62	43.855	0.82838	0.119316	0.10248	-0.3435	0.492	-0.1365	0	279	87	3
2026-02-23	16:53:56.830	-3.605	-4.305	33.81	0.855708	0.016348	0.021472	-0.345	0.507	-0.138	0	279	87	3
2026-02-23	16:53:56.850	2.1	0.35	20.965	0.881084	-0.0061	-0.011224	-0.345	0.507	-0.138	0	279	87	3
2026-02-23	16:53:56.870	11.97	1.225	15.12	0.915488	-0.111752	-0.096136	-0.345	0.516	-0.1305	0	279	87	3
2026-02-23	16:53:56.890	21.805	-0.49	13.93	0.918416	-0.058316	0.008052	-0.348	0.513	-0.1395	0	279	87	3
2026-02-23	16:53:56.910	15.89	-5.95	15.015	0.8479	-0.058316	0.019764	-0.3495	0.5145	-0.1305	0	279	87	3
2026-02-23	16:53:56.930	29.68	-9.38	11.795	0.86376	-0.030988	0.083204	-0.3465	0.5265	-0.132	0	279	87	3
2026-02-23	16:53:56.950	10.605	-8.295	10.71	0.86864	-0.04026	-0.03538	-0.3465	0.519	-0.126	0	279	87	3
2026-02-23	16:53:56.970	-3.99	-11.13	11.2	0.793976	-0.024888	-0.220576	-0.351	0.5145	-0.1305	0	279	87	3
2026-02-23	16:53:56.990	12.145	-12.25	6.545	0.682468	0.07564	-0.15616	-0.348	0.5175	-0.1245	0	279	87	3
2026-02-23	16:53:57.010	21.945	-3.885	-4.095	0.701012	0.26108	-0.149328	-0.348	0.525	-0.1215	0	259	57	3
2026-02-23	16:53:57.030	18.375	3.325	-13.58	0.682224	0.041968	-0.192028	-0.3525	0.5295	-0.12	0	259	57	3
2026-02-23	16:53:57.050	21.945	-0.245	-17.395	0.714188	-0.049532	-0.30012	-0.3525	0.528	-0.12	0	259	57	3
2026-02-23	16:53:57.070	29.54	-10.78	-18.375	0.763232	-0.011224	-0.283772	-0.3465	0.5205	-0.1185	0	259	57	3
2026-02-23	16:53:57.090	27.16	-15.19	-22.33	0.801052	-0.027084	-0.19276	-0.3465	0.5175	-0.1125	0	259	57	3
2026-02-23	16:53:57.110	18.795	-14.56	-23.205	0.829112	-0.114436	-0.052948	-0.3495	0.513	-0.1095	0	259	57	3
2026-02-23	16:53:57.130	3.045	-9.345	-24.185	0.936472	-0.303536	-0.073932	-0.3465	0.5085	-0.1065	0	259	57	3
2026-02-23	16:53:57.150	-3.5	-13.16	-9.59	1.076772	-0.39894	0.072956	-0.345	0.5085	-0.1035	0	259	57	3
2026-02-23	16:53:57.170	-21.875	-8.33	10.22	1.235616	-0.52704	0.213988	-0.3405	0.51	-0.102	0	259	57	3
2026-02-23	16:53:57.190	-29.015	-4.34	32.865	1.211216	-0.642696	0.035136	-0.3465	0.51	-0.1095	0	259	57	3
2026-02-23	16:53:57.210	-21.455	-2.765	49.735	1.02236	-0.4453	0.25864	-0.3405	0.5085	-0.1035	0	248	27	3
2026-02-23	16:53:57.230	-29.295	12.95	56.735	0.716872	-0.157624	0.3843	-0.342	0.5175	-0.099	0	248	27	3
2026-02-23	16:53:57.250	-36.715	29.855	50.96	0.885232	-0.406748	0.118828	-0.351	0.5235	-0.108	0	248	27	3
2026-02-23	16:53:57.270	-39.305	28.875	48.615	1.134112	-0.52582	0.207156	-0.36	0.5385	-0.114	0	248	27	3
2026-02-23	16:53:57.290	-5.425	18.865	58.66	0.92354	-0.44774	0.391132	-0.354	0.5355	-0.12	0	248	27	3
2026-02-23	16:53:57.310	6.65	32.165	70	0.960872	-1.037976	0.783972	-0.3585	0.5445	-0.1215	0	248	27	3
2026-02-23	16:53:57.330	39.34	54.39	69.3	1.170468	-0.291336	0.023912	-0.351	0.561	-0.1215	0	248	27	3
2026-02-23	16:53:57.350	65.31	57.365	56.91	1.266848	-0.626348	0.144204	-0.351	0.5685	-0.132	0	248	27	3
2026-02-23	16:53:57.370	52.255	50.715	78.68	0.925492	-0.568276	0.229116	-0.351	0.5805	-0.1455	0	248	27	3
2026-02-23	16:53:57.390	51.905	56.035	76.79	1.04066	-0.305488	0.470188	-0.354	0.5865	-0.153	0	248	27	3
2026-02-23	16:53:57.410	-6.3	74.48	89.32	1.19316	-0.620004	0.071004	-0.357	0.597	-0.165	0	248	31	3
2026-02-23	16:53:57.430	-9.415	64.89	101.36	1.113128	-0.858148	-0.220088	-0.351	0.615	-0.1725	0	248	31	3
2026-02-23	16:53:57.450	41.09	57.89	99.295	0.752984	-0.449204	0.56974	-0.348	0.6285	-0.177	0	248	31	3
2026-02-23	16:53:57.470	30.24	54.04	104.615	0.81496	-0.289384	0.149328	-0.348	0.6405	-0.186	0	248	31	3
2026-02-23	16:53:57.490	-22.54	54.355	95.06	1.10776	-0.385032	0.014396	-0.351	0.6555	-0.192	0	248	31	3
2026-02-23	16:53:57.510	-35.875	66.36	86.345	0.997228	-0.680028	0.259372	-0.354	0.666	-0.192	0	248	31	3
2026-02-23	16:53:57.530	-5.18	55.3	80.36	1.024556	-0.509228	0.070516	-0.354	0.666	-0.192	0	248	31	3
2026-02-23	16:53:57.550	13.58	47.425	73.5	0.82716	-0.435052	0.081008	-0.3435	0.684	-0.2085	0	248	31	3
2026-02-23	16:53:57.570	7.98	44.8	60.69	0.875228	-0.216916	0.293288	-0.3315	0.7005	-0.2325	0	248	31	3
2026-02-23	16:53:57.590	2.31	47.075	47.845	0.563884	-0.570228	0.438712	-0.3285	0.7095	-0.2415	0	248	31	3
2026-02-23	16:53:57.610	12.775	49.945	27.265	0.808372	-0.30256	0.20618	-0.33	0.7245	-0.2445	0	259	63	3
2026-02-23	16:53:57.630	18.27	39.48	17.045	0.816424	-0.409432	-0.01464	-0.33	0.7305	-0.252	0	259	63	3
2026-02-23	16:53:57.650	34.37	27.09	5.6	0.852048	-0.477996	0.2013	-0.3255	0.726	-0.2595	0	259	63	3
2026-02-23	16:53:57.670	38.64	22.855	-11.025	1.053104	-0.187392	0.130296	-0.318	0.7245	-0.2655	0	259	63	3
2026-02-23	16:53:57.690	28.385	12.74	-20.615	0.988688	-0.355752	0.315248	-0.318	0.7245	-0.2685	0	259	63	3
2026-02-23	16:53:57.710	20.825	16.555	-23.17	0.931348	-0.553636	0.458232	-0.3195	0.723	-0.2655	0	259	63	3
2026-02-23	16:53:57.730	17.815	32.445	-26.845	0.831796	-0.41602	0.58316	-0.318	0.7065	-0.279	0	259	63	3
2026-02-23	16:53:57.750	19.11	28.665	-40.705	1.203896	-0.163236	0.101016	-0.315	0.714	-0.282	0	259	63	3
2026-02-23	16:53:57.770	15.155	18.165	-47.705	1.064328	-0.388692	-0.001708	-0.3105	0.702	-0.2895	0	259	63	3
2026-02-23	16:53:57.790	61.32	5.6	-59.465	0.914756	-0.147376	0.240096	-0.315	0.693	-0.294	0	259	63	3
2026-02-23	16:53:57.810	58.38	-15.015	-72.52	1.11386	0.057828	0.283528	-0.312	0.687	-0.288	0	274	103	3
2026-02-23	16:53:57.830	-14.77	-11.305	-68.285	1.28588	-0.247904	0.21228	-0.3195	0.675	-0.2955	0	274	103	3
2026-02-23	16:53:57.850	-37.87	9.205	-72.8	1.347368	-0.294996	0.24522	-0.3195	0.6555	-0.294	0	274	103	3
2026-02-23	16:53:57.870	-5.705	18.27	-69.02	1.266116	-0.14152	0.147376	-0.315	0.6525	-0.2895	0	274	103	3
2026-02-23	16:53:57.890	24.43	25.69	-62.58	1.066768	-0.200568	0.055632	-0.315	0.6525	-0.2895	0	274	103	3
2026-02-23	16:53:57.910	38.36	17.395	-55.09	1.050664	-0.431148	-0.05734	-0.3105	0.6405	-0.2955	0	274	103	3
2026-02-23	16:53:57.930	76.86	15.645	-40.565	1.008208	-1.168272	0.0305	-0.309	0.6225	-0.2985	0	274	103	3
2026-02-23	16:53:57.950	190.68	3.885	-38.71	0.880352	-0.954772	0.62586	-0.312	0.609	-0.2985	0	274	103	3
2026-02-23	16:53:57.970	223.055	-17.36	-35.595	0.848632	-0.073688	0.5002	-0.3105	0.5925	-0.2985	0	274	103	3
2026-02-23	16:53:57.990	158.06	-32.13	-26.46	1.047492	0.254004	0.05978	-0.3105	0.5775	-0.2955	0	274	103	3
2026-02-23	16:53:58.010	136.5	-33.915	-11.41	1.082872	-0.182512	-0.217404	-0.3075	0.567	-0.2865	0	289	136	3
2026-02-23	16:53:58.030	232.295	-23.94	-15.785	0.995764	-0.209596	0.041724	-0.3105	0.5535	-0.273	0	289	136	3
2026-02-23	16:53:58.050	273.42	-20.825	-19.775	0.964288	0.21838	0.24766	-0.3165	0.537	-0.261	0	289	136	3
2026-02-23	16:53:58.070	216.93	-22.015	-15.26	0.90646	0.310124	0.17324	-0.315	0.5295	-0.255	0	289	136	3
2026-02-23	16:53:58.090	146.79	-33.075	-9.17	0.9882	0.251564	0.299144	-0.318	0.501	-0.2295	0	289	136	3
2026-02-23	16:53:58.110	102.515	-35.875	0.665	1.036756	0.014884	0.346724	-0.3135	0.498	-0.2175	0	289	136	3
2026-02-23	16:53:58.130	90.44	-35.735	7.945	1.046272	0.057828	0.283772	-0.324	0.495	-0.207	0	289	136	3
2026-02-23	16:53:58.150	75.145	-34.79	12.32	0.985516	0.218868	0.281576	-0.324	0.489	-0.1935	0	289	136	3
2026-02-23	16:53:58.170	47.845	-37.8	11.515	0.935984	0.404796	0.388692	-0.324	0.486	-0.195	0	289	136	3
2026-02-23	16:53:58.190	1.575	-40.6	14.595	0.971852	-0.01586	0.394548	-0.3315	0.4875	-0.1785	0	289	136	3
2026-02-23	16:53:58.210	13.475	-35.91	12.215	0.954528	0.071492	0.432368	-0.3345	0.483	-0.177	0	306	161	3
2026-02-23	16:53:58.230	21.63	-30.205	11.725	0.965264	0.118584	0.37454	-0.333	0.4905	-0.1755	0	306	161	3
2026-02-23	16:53:58.250	14.14	-22.47	10.92	0.885964	0.198372	0.38064	-0.33	0.4935	-0.1635	0	306	161	3
2026-02-23	16:53:58.270	2.135	-20.755	7.63	0.927932	0.040504	0.418948	-0.3375	0.4995	-0.1695	0	306	161	3
2026-02-23	16:53:58.290	18.27	-17.15	5.635	0.91744	0.064904	0.368928	-0.3345	0.498	-0.159	0	306	161	3
2026-02-23	16:53:58.310	12.635	-15.855	-0.245	0.97356	0.382104	0.46482	-0.3315	0.5055	-0.153	0	306	161	3
2026-02-23	16:53:58.330	-35.035	-11.97	10.29	0.854732	0.023912	0.329156	-0.3375	0.4965	-0.1515	0	306	161	3
2026-02-23	16:53:58.350	-35.525	-13.72	10.325	0.850584	-0.057096	0.40138	-0.3405	0.4935	-0.1545	0	306	161	3
2026-02-23	16:53:58.370	-13.055	-21.035	7.945	0.956724	0.08906	0.345992	-0.3405	0.5085	-0.153	0	306	161	3
2026-02-23	16:53:58.390	-23.73	-23.94	4.69	1.01382	-0.045384	0.295728	-0.3345	0.4995	-0.153	0	306	161	3
2026-02-23	16:53:58.410	-30.205	-16.52	5.495	0.887916	0.04148	0.410896	-0.336	0.5025	-0.1485	0	320	196	3
2026-02-23	16:53:58.430	-22.33	-1.295	8.19	0.686616	-0.041236	0.31842	-0.339	0.5025	-0.1455	0	320	196	3
2026-02-23	16:53:58.450	-24.045	-8.4	-1.12	0.97722	0.07905599	0.53192	-0.3375	0.51	-0.147	0	320	196	3
2026-02-23	16:53:58.470	-61.285	-3.255	4.34	0.735416	0.123708	0.266936	-0.342	0.516	-0.1455	0	320	196	3
2026-02-23	16:53:58.490	-104.51	-14.07	5.985	0.930616	-0.380884	0.219112	-0.348	0.5145	-0.1485	0	320	196	3
2026-02-23	16:53:58.510	-57.75	-13.545	4.375	0.81008	-0.415044	0.177144	-0.348	0.5145	-0.15	0	320	196	3
2026-02-23	16:53:58.530	-8.995	-12.25	-1.89	0.77958	-0.12688	0.282308	-0.342	0.5145	-0.147	0	320	196	3
2026-02-23	16:53:58.550	-23.555	-22.47	-1.225	0.87718	-0.050752	0.26352	-0.3375	0.519	-0.15	0	320	196	3
2026-02-23	16:53:58.570	-43.435	-19.11	1.4	0.754448	-0.104432	0.248392	-0.3435	0.522	-0.15	0	320	196	3
2026-02-23	16:53:58.590	-40.39	-27.125	-2.8	0.888648	-0.126148	0.388204	-0.345	0.519	-0.144	0	320	196	3
2026-02-23	16:53:58.610	-47.18	-33.775	-3.605	0.998692	-0.322812	0.282552	-0.3405	0.5175	-0.141	0	329	233	3
2026-02-23	16:53:58.630	-27.09	-25.375	-3.92	1.042368	-0.380152	0.455304	-0.3405	0.5175	-0.141	0	329	233	3
2026-02-23	16:53:58.650	-23.905	-16.555	1.47	0.918904	-0.130052	0.416996	-0.3495	0.519	-0.135	0	329	233	3
2026-02-23	16:53:58.670	-54.705	-10.85	5.705	0.831064	-0.243268	0.283772	-0.3495	0.525	-0.132	0	329	233	3
2026-02-23	16:53:58.690	-69.86	-14.98	8.05	0.848632	-0.146888	0.349164	-0.3435	0.528	-0.1305	0	329	233	3
2026-02-23	16:53:58.710	-95.655	-22.855	8.12	0.918416	-0.01098	0.251076	-0.351	0.528	-0.141	0	329	233	3
2026-02-23	16:53:58.730	-107.03	-22.435	4.375	1.017968	-0.085156	0.315492	-0.3375	0.522	-0.1275	0	329	233	3
2026-02-23	16:53:58.750	-112.385	-3.885	0.84	0.91256	-0.306464	0.625616	-0.345	0.531	-0.1335	0	329	233	3
2026-02-23	16:53:58.770	-93.625	11.305	0.98	0.803492	-0.41846	0.28914	-0.348	0.5385	-0.1425	0	329	233	3
2026-02-23	16:53:58.790	-57.54	-12.915	-12.705	1.013332	-0.000488	0.106628	-0.351	0.5265	-0.1545	0	329	233	3
2026-02-23	16:53:58.810	-86.695	-13.44	6.685	1.052128	-0.455548	0.020008	-0.3495	0.5265	-0.1515	0	330	260	3
2026-02-23	16:53:58.830	-52.22	-11.41	14.7	0.971608	-0.5124	0.111752	-0.3465	0.534	-0.1485	0	330	260	3
2026-02-23	16:53:58.850	-0.525	-12.88	16.73	0.972828	-0.407236	0.0366	-0.342	0.537	-0.15	0	330	260	3
2026-02-23	16:53:58.870	28.315	-15.435	13.125	0.959164	-0.193004	0.018056	-0.342	0.5355	-0.1455	0	330	260	3
2026-02-23	16:53:58.890	35.14	-26.635	6.3	1.027728	0.09857599	-0.037332	-0.351	0.54	-0.1425	0	330	260	3
2026-02-23	16:53:58.910	32.55	-20.65	7.665	0.95038	-0.073932	0.260348	-0.3525	0.543	-0.1395	0	330	260	3
2026-02-23	16:53:58.930	36.96	-17.78	10.045	0.864492	-0.180072	0.415776	-0.3495	0.543	-0.135	0	330	260	3
2026-02-23	16:53:58.950	46.935	-24.15	8.05	0.954772	-0.01464	0.389424	-0.3495	0.543	-0.135	0	330	260	3
2026-02-23	16:53:58.970	-40.81	-21.56	10.955	1.02968	0.011224	0.2135	-0.354	0.552	-0.117	0	330	260	3
2026-02-23	16:53:58.990	-82.845	-8.435	12.32	0.925004	-0.364536	0.422852	-0.3525	0.552	-0.1185	0	330	260	3
2026-02-23	16:53:59.010	-9.87	-7	5.32	0.819596	-0.367952	0.603656	-0.3555	0.549	-0.12	0	327	268	3
2026-02-23	16:53:59.030	11.13	-10.115	-10.92	0.869616	-0.121024	0.387472	-0.3525	0.5475	-0.12	0	327	268	3
2026-02-23	16:53:59.050	0.98	4.06	-21.21	0.88328	-0.189344	0.393084	-0.348	0.5445	-0.123	0	327	268	3
2026-02-23	16:53:59.070	-14.63	20.825	-25.235	0.907436	-0.238876	0.484584	-0.3495	0.5445	-0.1245	0	327	268	3
2026-02-23	16:53:59.090	-40.915	29.715	-27.125	0.885476	-0.31598	0.255468	-0.351	0.5445	-0.123	0	327	268	3
2026-02-23	16:53:59.110	-30.03	29.015	-30.87	0.860588	-0.440908	-0.026596	-0.3495	0.5385	-0.1305	0	327	268	3
2026-02-23	16:53:59.130	0.875	16.765	-34.685	0.842288	-0.392352	-0.1403	-0.3465	0.5295	-0.1365	0	327	268	3
2026-02-23	16:53:59.150	16.275	-3.15	-34.37	0.885476	-0.322568	0.01708	-0.3495	0.525	-0.1365	0	327	268	3
2026-02-23	16:53:59.170	-13.405	-19.74	-30.8	1.003084	-0.237412	0.013664	-0.351	0.525	-0.138	0	327	268	3
2026-02-23	16:53:59.190	-39.305	-27.58	-27.58	1.066524	-0.491904	-0.042944	-0.342	0.513	-0.138	0	327	268	3
2026-02-23	16:53:59.210	-15.33	-34.79	-26.775	1.1712	-0.548024	0.050996	-0.345	0.513	-0.135	0	321	264	3
2026-02-23	16:53:59.230	-13.44	-33.53	-21.28	1.234152	-0.541192	0.142008	-0.3525	0.5085	-0.129	0	321	264	3
2026-02-23	16:53:59.250	-28.385	-30.695	-13.335	1.147288	-0.500932	0.21594	-0.339	0.507	-0.126	0	321	264	3
2026-02-23	16:53:59.270	-48.545	-32.515	-6.72	1.073356	-0.491904	0.101748	-0.3435	0.5025	-0.12	0	321	264	3
2026-02-23	16:53:59.290	-30.52	-34.79	-2.625	1.102636	-0.428464	0.136884	-0.345	0.504	-0.12	0	321	264	3
2026-02-23	16:53:59.310	-15.19	-30.59	-1.645	1.10532	-0.171532	0.19276	-0.3435	0.504	-0.1185	0	321	264	3
2026-02-23	16:53:59.330	-22.155	-23.8	-3.535	1.100196	-0.019032	0.254736	-0.3465	0.498	-0.1125	0	321	264	3
2026-02-23	16:53:59.350	-35.735	-5.285	-20.44	1.08092	-0.010736	0.201544	-0.3465	0.498	-0.1125	0	321	264	3
2026-02-23	16:53:59.370	-10.885	6.37	-39.935	1.09556	0.20984	0.261324	-0.342	0.498	-0.111	0	321	264	3
2026-02-23	16:53:59.390	-10.22	13.37	-50.54	1.020896	0.069296	0.268156	-0.342	0.492	-0.108	0	321	264	3
2026-02-23	16:53:59.410	-3.745	16.905	-53.515	0.965264	0.152744	0.337452	-0.342	0.4875	-0.1095	0	316	245	3
2026-02-23	16:53:59.430	-8.19	15.505	-49.56	1.001132	0.40138	0.2074	-0.336	0.477	-0.1155	0	316	245	3
2026-02-23	16:53:59.450	-36.75	19.67	-44.065	1.087508	0.162016	0.172508	-0.3345	0.4665	-0.12	0	316	245	3
2026-02-23	16:53:59.470	-45.045	26.915	-39.025	0.988932	0.247172	0.298168	-0.324	0.468	-0.12	0	316	245	3
2026-02-23	16:53:59.490	-47.04	26.95	-30.135	0.955016	0.140788	0.311832	-0.3225	0.462	-0.1275	0	316	245	3
2026-02-23	16:53:59.510	-57.995	23.065	-16.415	0.90524	0.184952	0.334036	-0.327	0.4575	-0.1395	0	316	245	3
2026-02-23	16:53:59.530	-51.1	17.08	9.205	0.946232	0.043432	0.438468	-0.3225	0.4605	-0.147	0	316	245	3
2026-02-23	16:53:59.550	-22.61	18.13	14.595	0.95648	0.26596	0.484096	-0.321	0.4605	-0.159	0	316	245	3
2026-02-23	16:53:59.570	-18.06	24.465	9.415	0.958188	0.486536	0.43676	-0.327	0.45	-0.159	0	316	245	3
2026-02-23	16:53:59.590	-73.01	29.68	5.705	0.90402	0.5795	0.302804	-0.318	0.462	-0.1665	0	316	245	3
2026-02-23	16:53:59.610	-150.5	30.17	8.085	0.863272	0.532408	0.280112	-0.318	0.468	-0.1755	0	313	237	3
2026-02-23	16:53:59.630	-251.44	30.1	19.215	0.787876	0.66368	0.3782	-0.33	0.4665	-0.186	0	313	237	3
2026-02-23	16:53:59.650	-412.79	23.52	44.345	0.676856	0.61366	0.145424	-0.3285	0.4785	-0.2145	0	313	237	3
2026-02-23	16:53:59.670	-514.29	12.95	68.67	0.647576	0.215452	-0.277428	-0.3285	0.492	-0.2235	0	313	237	3
2026-02-23	16:53:59.690	-467.215	3.465	57.365	0.723704	-0.193248	-0.784704	-0.3255	0.519	-0.2445	0	313	237	3
2026-02-23	16:53:59.710	-252.49	-12.215	41.965	0.824232	-0.274744	-0.560468	-0.324	0.534	-0.2565	0	313	237	3
2026-02-23	16:53:59.730	-192.01	-10.5	33.11	0.87352	-0.092232	0.06344	-0.3285	0.5955	-0.27	0	313	237	3
2026-02-23	16:53:59.750	-182.63	-1.155	20.895	1.077992	-0.2623	0.718824	-0.3315	0.6045	-0.27	0	313	237	3
2026-02-23	16:53:59.770	-143.325	4.865	21.63	1.248548	-0.25864	0.568276	-0.3285	0.6165	-0.273	0	313	237	3
2026-02-23	16:53:59.790	-107.24	39.025	22.435	1.299544	-0.219112	0.526064	-0.3255	0.636	-0.273	0	313	237	3
2026-02-23	16:53:59.810	-78.645	61.53	21.385	1.151192	-0.044164	0.239852	-0.333	0.6465	-0.2835	0	317	225	3
2026-02-23	16:53:59.830	-67.41	57.4	33.04	1.213656	-0.41114	-0.17812	-0.3195	0.654	-0.2835	0	317	225	3
2026-02-23	16:53:59.850	-15.785	50.54	43.96	1.1651	-0.587796	-0.251076	-0.3165	0.654	-0.2925	0	317	225	3
2026-02-23	16:53:59.870	66.395	42.945	39.935	0.910608	-0.455792	-0.193004	-0.3135	0.666	-0.3	0	317	225	3
2026-02-23	16:53:59.890	94.605	15.155	39.69	0.839604	-0.2745	-0.030988	-0.312	0.6675	-0.306	0	317	225	3
2026-02-23	16:53:59.910	65.625	0.63	41.685	0.769576	-0.301096	-0.146644	-0.3105	0.666	-0.3075	0	317	225	3
2026-02-23	16:53:59.930	92.925	-15.435	42.07	0.750788	-0.408212	-0.236192	-0.309	0.669	-0.315	0	317	225	3
2026-02-23	16:53:59.950	142.94	-31.43	43.295	0.827892	-0.73566	-0.360144	-0.306	0.6705	-0.315	0	317	225	3
2026-02-23	16:53:59.970	220.675	-43.12	49.315	0.8357	-0.371612	-0.347944	-0.309	0.6675	-0.3105	0	317	225	3
2026-02-23	16:53:59.990	183.54	-60.655	52.5	1.074332	0.105652	-0.13054	-0.3165	0.6615	-0.306	0	317	225	3
2026-02-23	16:54:00.010	68.775	-69.3	61.145	1.13704	0.29646	0.025132	-0.3165	0.657	-0.3015	0	330	187	3
2026-02-23	16:54:00.030	14.595	-68.67	70.7	1.0248	-0.058316	-0.01708	-0.3195	0.654	-0.2925	0	330	187	3
2026-02-23	16:54:00.050	29.645	-61.915	68.775	0.806176	-0.137128	0.0183	-0.33	0.663	-0.279	0	330	187	3
2026-02-23	16:54:00.070	52.01	-59.955	46.97	0.947208	0.119804	0.015616	-0.336	0.6735	-0.2745	0	330	187	3
2026-02-23	16:54:00.090	32.48	-55.755	37.31	1.02846	0.023424	-0.042212	-0.336	0.6735	-0.2745	0	330	187	3
2026-02-23	16:54:00.110	37.94	-50.645	24.815	1.05042	0.092964	0.049532	-0.3375	0.6855	-0.2505	0	330	187	3
2026-02-23	16:54:00.130	41.545	-52.115	22.19	1.181204	-0.014884	0.142252	-0.345	0.6855	-0.2415	0	330	187	3
2026-02-23	16:54:00.150	17.85	-40.565	15.89	1.236348	0.24766	0.123708	-0.345	0.678	-0.234	0	330	187	3
2026-02-23	16:54:00.170	-55.58	-22.715	15.785	1.14192	-0.020252	0.152256	-0.3465	0.687	-0.2295	0	330	187	3
2026-02-23	16:54:00.190	-102.41	-16.975	11.445	0.98698	-0.357948	-0.11224	-0.3435	0.6855	-0.222	0	330	187	3
2026-02-23	16:54:00.210	-32.235	-24.29	17.08	0.961604	-1.121424	-0.194956	-0.3465	0.6975	-0.2175	0	345	135	3
2026-02-23	16:54:00.230	98.665	-28.42	-8.19	0.949648	-0.254736	-0.156892	-0.3375	0.696	-0.219	0	345	135	3
2026-02-23	16:54:00.250	93.275	-17.535	-11.865	0.786168	-0.113704	0.12566	-0.348	0.696	-0.213	0	345	135	3
2026-02-23	16:54:00.270	35.35	-5.25	-2.59	0.629764	-0.34404	0.243268	-0.354	0.6885	-0.21	0	345	135	3
2026-02-23	16:54:00.290	-7.385	6.055	12.285	0.455792	-0.559492	0.264008	-0.3585	0.681	-0.21	0	345	135	3
2026-02-23	16:54:00.310	-32.235	14.98	28.175	0.313296	-0.741516	0.18178	-0.3495	0.6855	-0.2145	0	345	135	3
2026-02-23	16:54:00.330	-43.295	17.64	45.92	0.245708	-0.624152	0.123464	-0.348	0.6945	-0.216	0	345	135	3
2026-02-23	16:54:00.350	-61.32	14.385	66.185	0.202032	-0.578524	0.105896	-0.354	0.7005	-0.2145	0	345	135	3
2026-02-23	16:54:00.370	-88.235	6.02	88.165	0.209596	-0.77348	0.022692	-0.345	0.702	-0.2145	0	345	135	3
2026-02-23	16:54:00.390	-55.265	-6.685	94.255	0.284016	-0.767136	0.088572	-0.3435	0.7185	-0.222	0	345	135	3
2026-02-23	16:54:00.410	25.655	-12.005	94.395	0.403088	-0.872544	0.072956	-0.345	0.738	-0.216	0	360	100	3
2026-02-23	16:54:00.430	99.96	-5.18	83.23	0.559248	-0.387228	0.114192	-0.3315	0.7425	-0.21	0	360	100	3
2026-02-23	16:54:00.450	71.89	4.27	78.785	0.700036	-0.502396	0.27206	-0.3315	0.7425	-0.21	0	360	100	3
2026-02-23	16:54:00.470	65.24	15.225	69.09	0.75518	-0.553392	0.276696	-0.33	0.756	-0.216	0	360	100	3
2026-02-23	16:54:00.490	86.835	18.27	60.13	0.87596	-0.574376	0.354532	-0.321	0.774	-0.225	0	360	100	3
2026-02-23	16:54:00.510	79.205	27.055	62.475	0.808128	-0.875228	0.175924	-0.318	0.78	-0.2265	0	360	100	3
2026-02-23	16:54:00.530	79.065	30.94	52.71	0.9028	-0.69418	0.272548	-0.3195	0.7845	-0.234	0	360	100	3
2026-02-23	16:54:00.550	64.015	39.41	41.335	0.805932	-0.701988	0.18056	-0.312	0.792	-0.2445	0	360	100	3
2026-02-23	16:54:00.570	56.385	40.635	27.79	0.691496	-0.477752	0.16836	-0.3075	0.795	-0.255	0	360	100	3
2026-02-23	16:54:00.590	45.605	27.23	14.735	0.719312	-0.46238	0.309392	-0.303	0.7935	-0.2625	0	360	100	3
2026-02-23	16:54:00.610	5.215	21.035	11.795	0.743712	-0.650016	0.393572	-0.3	0.789	-0.2655	0	376	99	3
2026-02-23	16:54:00.630	-83.37	24.955	15.435	0.684176	-0.487756	0.54168	-0.3	0.7845	-0.2715	0	376	99	3
2026-02-23	16:54:00.650	-176.82	29.26	22.295	0.654896	-0.453108	0.329156	-0.291	0.798	-0.273	0	376	99	3
2026-02-23	16:54:00.670	-238.525	33.075	11.76	0.731024	-0.256444	0.260836	-0.291	0.8175	-0.2685	0	376	99	3
2026-02-23	16:54:00.690	-319.69	31.395	-3.045	0.86498	-0.295728	0.015372	-0.288	0.8295	-0.264	0	376	99	3
2026-02-23	16:54:00.710	-389.585	26.25	1.435	0.981124	-0.336476	-0.260348	-0.282	0.852	-0.246	0	376	99	3
2026-02-23	16:54:00.730	-422.87	25.69	-4.095	0.871324	-0.653188	-0.637084	-0.2805	0.867	-0.219	0	376	99	3
2026-02-23	16:54:00.750	-390.74	7.875	-3.85	1.063352	-0.645136	-0.581696	-0.282	0.879	-0.1875	0	376	99	3
2026-02-23	16:54:00.770	-313.705	-8.68	-29.54	1.219268	-0.998204	-0.793488	-0.2865	0.879	-0.1515	0	376	99	3
2026-02-23	16:54:00.790	-203.525	8.12	-69.16	0.915244	0.284748	-0.020252	-0.2835	0.891	-0.132	0	376	99	3
2026-02-23	16:54:00.810	-298.375	14.98	-84.84	1.060668	-0.0122	0.137128	-0.291	0.8835	-0.117	0	389	97	3
2026-02-23	16:54:00.830	-320.39	31.745	-42.945	1.026508	0.464332	-0.53192	-0.297	0.8715	-0.0945	0	389	97	3
2026-02-23	16:54:00.850	-353.64	38.08	-62.545	1.193404	0.144692	-0.622932	-0.3075	0.855	-0.063	0	389	97	3
2026-02-23	16:54:00.870	-367.71	46.13	-82.425	0.966728	0.233996	-0.944768	-0.315	0.84	-0.045	0	389	97	3
2026-02-23	16:54:00.890	-380.38	25.305	-99.89	1.040172	-0.152744	-1.433744	-0.3225	0.8235	-0.0285	0	389	97	3
2026-02-23	16:54:00.910	-295.19	20.72	-92.225	1.013576	-0.962824	-1.266848	-0.3255	0.8055	-0.015	0	389	97	3
2026-02-23	16:54:00.930	-153.055	23.415	-86.625	0.912072	-0.578036	-1.187792	-0.3285	0.789	-0.009	0	389	97	3
2026-02-23	16:54:00.950	-66.605	16.52	-66.78	0.85156	-0.1403	-0.876204	-0.3375	0.7725	-0.0045	0	389	97	3
2026-02-23	16:54:00.970	-55.51	10.36	-59.535	0.887184	0.087108	-0.619028	-0.3405	0.756	0	0	389	97	3
2026-02-23	16:54:00.990	-92.96	-4.41	-33.985	1.069208	-0.460916	-0.85278	-0.3405	0.75	-0.003	0	389	97	3
2026-02-23	16:54:01.010	-47.18	-5.705	-2.415	0.977464	-0.566568	-0.607316	-0.3405	0.75	-0.003	0	408	7	3
2026-02-23	16:54:01.030	-1.82	-9.135	9.415	0.988444	-0.068564	-0.360144	-0.342	0.738	0	0	408	7	3
2026-02-23	16:54:01.050	-9.45	-8.33	18.55	1.014552	0.081496	-0.240584	-0.3495	0.7395	-0.0015	0	408	7	3
2026-02-23	16:54:01.070	-22.47	-3.99	13.615	0.94428	0.123952	-0.374296	-0.348	0.741	0.003	0	408	7	3
2026-02-23	16:54:01.090	-10.535	-11.62	8.96	0.937204	-0.223748	-0.552904	-0.3495	0.741	0.0075	0	408	7	3
2026-02-23	16:54:01.110	56.805	-18.06	2.73	0.932324	-0.115168	-0.482388	-0.345	0.735	0.0075	0	408	7	3
2026-02-23	16:54:01.130	78.995	-26.635	0.77	0.917684	0.083448	-0.516304	-0.345	0.741	0.0105	0	408	7	3
2026-02-23	16:54:01.150	46.2	-25.2	2.45	0.874496	0.192272	-0.48556	-0.3495	0.75	0.0105	0	408	7	3
2026-02-23	16:54:01.170	11.655	-28.665	29.33	0.969168	-0.177876	-0.43798	-0.3495	0.75	0.009	0	408	7	3
2026-02-23	16:54:01.190	11.62	-21.175	22.295	1.094828	-0.21228	-0.288896	-0.3495	0.75	0.009	0	408	7	3
2026-02-23	16:54:01.210	19.425	-14.77	16.24	1.056764	0.116632	-0.31354	-0.3405	0.762	0.0165	0	429	131	3
2026-02-23	16:54:01.230	5.46	-9.835	13.09	1.025532	0.324032	-0.400892	-0.3435	0.7575	0.018	0	429	131	3
2026-02-23	16:54:01.250	-6.93	-10.535	23.555	0.956724	-0.032452	-0.512888	-0.3405	0.7695	0.027	0	429	131	3
2026-02-23	16:54:01.270	23.87	-7.56	23.94	0.87718	-0.149328	-0.597068	-0.3345	0.762	0.03	0	429	131	3
2026-02-23	16:54:01.290	67.13	-12.775	13.58	0.930616	0.082228	-0.4941	-0.33	0.7695	0.0285	0	429	131	3
2026-02-23	16:54:01.310	74.13	-1.47	-1.575	0.72956	0.361364	-0.315492	-0.333	0.771	0.024	0	429	131	3
2026-02-23	16:54:01.330	25.83	-3.22	3.22	0.865468	0.36112	-0.518988	-0.33	0.774	0.021	0	429	131	3
2026-02-23	16:54:01.350	-10.955	-9.415	5.495	0.98088	-0.172752	-0.525088	-0.3375	0.7815	0.015	0	429	131	3
2026-02-23	16:54:01.370	11.025	-1.505	17.5	0.839848	-0.210816	-0.676856	-0.3315	0.7785	0.018	0	429	131	3
2026-02-23	16:54:01.390	37.135	-7.14	24.71	0.922808	0.019764	-0.531432	-0.3285	0.777	0.024	0	429	131	3
2026-02-23	16:54:01.410	20.055	-3.01	13.195	0.960872	0.1586	-0.529236	-0.3285	0.78	0.027	0	443	246	2
2026-02-23	16:54:01.430	-1.54	0.105	17.71	0.810568	-0.015372	-0.268644	-0.327	0.783	0.0255	0	443	246	2
2026-02-23	16:54:01.450	-15.82	-0.385	6.86	0.804224	-0.119072	-0.786656	-0.33	0.7875	0.024	0	443	246	2
2026-02-23	16:54:01.470	16.415	-8.015	-1.05	1.012844	-0.425536	-0.57218	-0.3315	0.7905	0.0285	0	443	246	2
2026-02-23	16:54:01.490	61.565	10.115	-2.625	0.868152	-0.037088	-0.238876	-0.33	0.7935	0.03	0	443	246	2
2026-02-23	16:54:01.510	21.245	8.4	-0.735	0.903776	0.011224	-0.820084	-0.3255	0.7965	0.024	0	443	246	2
2026-02-23	16:54:01.530	3.36	13.545	3.255	0.903288	-0.075884	-0.481656	-0.3285	0.792	0.021	0	443	246	2
2026-02-23	16:54:01.550	-17.745	19.11	1.785	0.753472	-0.31842	-0.69418	-0.336	0.789	0.018	0	443	246	2
2026-02-23	16:54:01.570	18.69	18.69	-6.51	0.91256	-0.28792	-0.581452	-0.333	0.7905	0.018	0	443	246	2
2026-02-23	16:54:01.590	22.54	34.475	-4.9	0.632448	0.091256	-0.512888	-0.3285	0.7905	0.0165	0	443	246	2
2026-02-23	16:54:01.610	17.115	27.755	-7.105	0.709308	-0.186416	-0.7808	-0.3285	0.795	0.006	0	448	334	2
2026-02-23	16:54:01.630	36.575	28.07	-1.995	0.733952	-0.384788	-0.732244	-0.3345	0.789	0.0045	0	448	334	2
2026-02-23	16:54:01.650	72.065	33.985	-6.755	0.63684	-0.225212	-0.558028	-0.3375	0.7845	-0.0045	0	448	334	2
2026-02-23	16:54:01.670	75.495	27.755	-13.335	0.732732	-0.317932	-0.891332	-0.336	0.7995	-0.012	0	448	334	2
2026-02-23	16:54:01.690	93.38	22.19	-18.165	0.996252	-0.358192	-0.729804	-0.342	0.7935	-0.0195	0	448	334	2
2026-02-23	16:54:01.710	101.815	35.315	-11.34	0.855708	-0.131028	-0.288896	-0.3345	0.795	-0.0285	0	448	334	2
2026-02-23	16:54:01.730	57.68	29.085	-8.435	0.76982	-0.52948	-0.95526	-0.3345	0.795	-0.0285	0	448	334	2
2026-02-23	16:54:01.750	118.475	36.925	-21.84	0.713456	-0.06344	-0.645624	-0.336	0.792	-0.0375	0	448	334	2
2026-02-23	16:54:01.770	141.75	23.31	-32.27	0.868884	-0.424316	-0.77104	-0.339	0.789	-0.0465	0	448	334	2
2026-02-23	16:54:01.790	190.785	26.95	-45.325	0.908412	-0.517036	-0.414556	-0.3345	0.7905	-0.06	0	448	334	2
2026-02-23	16:54:01.810	218.435	30.555	-45.255	0.80032	-0.127856	-0.413092	-0.345	0.7845	-0.0735	0	447	409	3
2026-02-23	16:54:01.830	104.475	37.345	-33.145	0.678564	0.231068	-0.24766	-0.3465	0.7725	-0.084	0	447	409	3
2026-02-23	16:54:01.850	20.615	38.325	-16.8	0.686372	-0.804468	-0.583404	-0.3525	0.771	-0.102	0	447	409	3
2026-02-23	16:54:01.870	90.37	31.92	-14.805	0.833504	-1.624796	-1.126792	-0.351	0.7665	-0.102	0	447	409	3
2026-02-23	16:54:01.890	352.31	29.505	-22.085	0.411628	-1.925648	-1.311256	-0.3495	0.7725	-0.1125	0	447	409	3
2026-02-23	16:54:01.910	594.685	-16.345	-47.25	0.519476	0.506056	-0.792512	-0.3495	0.7725	-0.1125	0	447	409	3
2026-02-23	16:54:01.930	487.375	-12.6	-40.775	0.49532	1.037	-0.054656	-0.3525	0.75	-0.141	0	447	409	3
2026-02-23	16:54:01.950	299.775	-16.24	-28.805	0.486292	0.586576	0.027084	-0.3615	0.7215	-0.1725	0	447	409	3
2026-02-23	16:54:01.970	218.54	-15.365	-35.805	0.434564	-0.13786	-0.074176	-0.3615	0.705	-0.1755	0	447	409	3
2026-02-23	16:54:01.990	224.7	-24.5	-37.555	0.55022	-0.335744	0.114436	-0.357	0.6945	-0.1755	0	447	409	3
2026-02-23	16:54:02.010	166.005	-36.96	-34.265	0.715408	0.052948	0.249124	-0.3585	0.6915	-0.177	0	449	455	3
2026-02-23	16:54:02.030	84.28	-33.005	-30.205	0.752496	0.035868	0.181536	-0.36	0.678	-0.174	0	449	455	3
2026-02-23	16:54:02.050	54.88	-34.09	-23.415	0.983076	-0.626348	0.13542	-0.366	0.6645	-0.1695	0	449	455	3
2026-02-23	16:54:02.070	86.135	-32.725	-10.29	1.11386	-0.6527	0.014396	-0.3645	0.666	-0.1665	0	449	455	3
2026-02-23	16:54:02.090	23.135	-23.52	2.1	0.832772	-0.165676	-0.055876	-0.36	0.666	-0.1665	0	449	455	3
2026-02-23	16:54:02.110	17.885	-41.09	1.295	0.726388	0.049044	-0.15006	-0.369	0.6585	-0.1545	0	449	455	3
2026-02-23	16:54:02.130	31.99	-41.125	-9.695	0.532896	0.058316	0.022692	-0.36	0.66	-0.159	0	449	455	3
2026-02-23	16:54:02.150	4.27	-48.16	-24.045	0.56242	-0.205692	-0.01952	-0.3675	0.66	-0.141	0	449	455	3
2026-02-23	16:54:02.170	-30.87	-59.22	-36.75	1.020652	-0.3843	-0.032452	-0.3645	0.6495	-0.1365	0	449	455	3
2026-02-23	16:54:02.190	-42.735	-45.325	-35.455	1.078236	-0.543632	0.022692	-0.3645	0.6435	-0.1215	0	449	455	3
2026-02-23	16:54:02.210	-16.555	-33.67	-30.87	1.029924	-0.503616	0.116876	-0.369	0.642	-0.1245	0	459	424	3
2026-02-23	16:54:02.230	-5.74	-25.9	-30.065	1.253428	-0.491416	0.254248	-0.3615	0.633	-0.12	0	459	424	3
2026-02-23	16:54:02.250	-21.595	-6.58	-23.24	1.111176	-0.62586	-0.172996	-0.366	0.6345	-0.1155	0	459	424	3
2026-02-23	16:54:02.270	-29.05	-7.945	-6.02	0.824964	-0.37698	-0.375272	-0.369	0.633	-0.1185	0	459	424	3
2026-02-23	16:54:02.290	-53.095	-20.545	-2.905	0.628056	-0.131516	-0.206668	-0.3675	0.6285	-0.1125	0	459	424	3
2026-02-23	16:54:02.310	-42.945	-32.9	-8.995	0.701012	-0.410652	-0.31842	-0.3675	0.6225	-0.1065	0	459	424	3
2026-02-23	16:54:02.330	-9.345	-36.085	-13.265	0.864492	-0.817156	0.277184	-0.363	0.6225	-0.1065	0	459	424	3
2026-02-23	16:54:02.350	-22.855	-8.365	6.965	0.644648	-1.0858	0.473116	-0.366	0.621	-0.1035	0	459	424	3
2026-02-23	16:54:02.370	-17.99	9.31	23.31	0.744932	-0.904264	0.197884	-0.3705	0.621	-0.096	0	459	424	3
2026-02-23	16:54:02.390	2.415	23.415	33.775	0.860832	-0.49532	0.066856	-0.366	0.63	-0.1005	0	459	424	3
2026-02-23	16:54:02.410	11.48	29.505	37.975	0.954772	-0.086376	0.103944	-0.366	0.633	-0.1065	0	473	340	3
2026-02-23	16:54:02.430	-8.785	38.395	46.305	0.616588	-0.239608	0.301096	-0.3705	0.636	-0.1095	0	473	340	3
2026-02-23	16:54:02.450	-28.07	20.895	38.15	1.179984	-0.222528	-0.417972	-0.3735	0.645	-0.114	0	473	340	3
2026-02-23	16:54:02.470	-1.225	16.695	26.04	1.230248	-0.319884	-0.311832	-0.3735	0.6495	-0.114	0	473	340	3
2026-02-23	16:54:02.490	8.19	24.465	23.695	1.067256	-0.00122	0.43188	-0.3675	0.654	-0.1185	0	473	340	3
2026-02-23	16:54:02.510	-4.97	44.52	20.93	0.604388	-0.832528	0.63806	-0.366	0.6585	-0.12	0	473	340	3
2026-02-23	16:54:02.530	-6.3	47.565	30.24	1.05164	-0.879864	-0.44896	-0.369	0.6615	-0.123	0	473	340	3
2026-02-23	16:54:02.550	47.39	54.915	8.295	1.54452	0.125172	-0.104676	-0.3705	0.6615	-0.1365	0	473	340	3
2026-02-23	16:54:02.570	27.265	73.045	23.1	0.559248	-0.313784	0.490684	-0.369	0.666	-0.1455	0	473	340	3
2026-02-23	16:54:02.590	12.18	51.205	20.93	1.079944	-0.458476	-0.353556	-0.3615	0.6735	-0.153	0	473	340	3
2026-02-23	16:54:02.610	43.61	56.805	13.37	0.724192	-0.42944	-0.14152	-0.3615	0.6735	-0.1635	0	487	242	3
2026-02-23	16:54:02.630	36.785	28.91	2.94	1.076284	-0.080276	-0.40382	-0.3615	0.675	-0.171	0	487	242	3
2026-02-23	16:54:02.650	30.1	35.77	-15.89	0.926224	-0.57706	0.503128	-0.3555	0.6795	-0.1725	0	487	242	3
2026-02-23	16:54:02.670	-5.18	45.815	9.31	0.56364	-1.10898	0.112484	-0.3555	0.6675	-0.1875	0	487	242	3
2026-02-23	16:54:02.690	14.175	25.725	17.15	1.150704	-0.470676	-0.111508	-0.354	0.666	-0.1965	0	487	242	3
2026-02-23	16:54:02.710	22.435	25.76	15.505	1.326628	-0.091256	-0.132492	-0.357	0.672	-0.1935	0	487	242	3
2026-02-23	16:54:02.730	-2.94	40.775	16.24	0.832284	-0.572424	0.429928	-0.348	0.678	-0.207	0	487	242	3
2026-02-23	16:54:02.750	-34.265	47.53	42.945	0.446032	-1.228296	-0.181048	-0.3465	0.6765	-0.21	0	487	242	3
2026-02-23	16:54:02.770	14.945	17.15	41.16	1.192672	-0.265716	-0.140544	-0.345	0.684	-0.222	0	487	242	3
2026-02-23	16:54:02.790	1.75	24.395	35.49	0.96502	-0.464332	-0.015616	-0.3435	0.6885	-0.2235	0	487	242	3
2026-02-23	16:54:02.810	-32.585	10.815	56.035	0.756156	-0.784216	-0.435052	-0.3375	0.6975	-0.2205	0	503	165	3
2026-02-23	16:54:02.830	-29.26	-5.215	52.745	1.269776	-0.292068	0.025132	-0.339	0.7035	-0.222	0	503	165	3
2026-02-23	16:54:02.850	-54.985	-5.425	54.985	0.471164	-0.412116	0.403088	-0.3375	0.714	-0.219	0	503	165	3
2026-02-23	16:54:02.870	-69.93	-15.925	59.29	0.705892	-0.728828	-0.418216	-0.3345	0.723	-0.2145	0	503	165	3
2026-02-23	16:54:02.890	-27.965	-14.315	40.705	1.072624	-0.421632	-0.208132	-0.339	0.735	-0.2145	0	503	165	3
2026-02-23	16:54:02.910	-30.835	-7.77	42.7	0.88206	-0.410652	0.291092	-0.3375	0.747	-0.2145	0	503	165	3
2026-02-23	16:54:02.930	-48.895	8.365	43.61	0.417972	-0.996984	0.389668	-0.3315	0.7545	-0.2145	0	503	165	3
2026-02-23	16:54:02.950	-44.73	25.445	51.485	0.591212	-1.030168	0.17812	-0.3285	0.765	-0.2115	0	503	165	3
2026-02-23	16:54:02.970	-26.74	31.675	52.36	1.07848	-0.38918	0.06954	-0.3225	0.771	-0.213	0	503	165	3
2026-02-23	16:54:02.990	-39.83	33.285	54.04	0.578036	-0.499712	0.310612	-0.3195	0.777	-0.2205	0	503	165	3
2026-02-23	16:54:03.010	-41.51	31.92	61.74	1.053104	-0.664168	0.008784	-0.321	0.783	-0.2235	0	518	110	2
2026-02-23	16:54:03.030	-29.89	32.34	59.115	0.478972	-0.209596	0.2684	-0.315	0.7995	-0.2205	0	518	110	2
2026-02-23	16:54:03.050	-43.855	20.65	64.785	0.332084	-1.055544	-0.06734399	-0.303	0.81	-0.2235	0	518	110	2
2026-02-23	16:54:03.070	-18.655	23.625	50.855	1.091656	-0.697108	0.138348	-0.3015	0.825	-0.228	0	518	110	2
2026-02-23	16:54:03.090	-30.835	30.94	53.62	0.889624	-0.446276	0.234972	-0.294	0.825	-0.231	0	518	110	2
2026-02-23	16:54:03.110	-45.955	30.345	56.7	0.78934	-0.573644	0.228628	-0.2895	0.8385	-0.2355	0	518	110	2
2026-02-23	16:54:03.130	-46.34	32.585	54.81	0.52704	-0.903776	0.00854	-0.285	0.849	-0.2325	0	518	110	2
2026-02-23	16:54:03.150	-35.595	31.36	46.515	0.881816	-0.569984	-0.045384	-0.2805	0.8505	-0.231	0	518	110	2
2026-02-23	16:54:03.170	-46.69	28.91	53.305	0.354288	-0.669536	0.18422	-0.2745	0.8595	-0.231	0	518	110	2
2026-02-23	16:54:03.190	-24.29	26.53	48.195	0.591212	-0.713944	0.079544	-0.2745	0.8595	-0.231	0	518	110	2
2026-02-23	16:54:03.210	-24.045	25.375	45.395	0.599996	-0.607072	0.0122	-0.2595	0.8775	-0.237	0	528	61	2
2026-02-23	16:54:03.230	-39.515	20.965	45.57	0.87596	-0.78324	-0.27084	-0.255	0.879	-0.237	0	528	61	2
2026-02-23	16:54:03.250	-14.105	16.485	48.755	0.366488	-0.303048	0.239364	-0.249	0.891	-0.2385	0	528	61	2
2026-02-23	16:54:03.270	-40.705	10.71	53.69	0.57096	-1.01138	-0.049532	-0.249	0.897	-0.234	0	528	61	2
2026-02-23	16:54:03.290	-39.9	10.71	45.08	0.955016	-0.6771	-0.039284	-0.243	0.906	-0.237	0	528	61	2
2026-02-23	16:54:03.310	-31.885	13.265	52.955	0.685396	-0.618296	0.280844	-0.228	0.9105	-0.234	0	528	61	2
2026-02-23	16:54:03.330	-45.43	13.755	47.915	1.280756	-1.093364	-0.099552	-0.234	0.9255	-0.234	0	528	61	2
2026-02-23	16:54:03.350	-42.28	16.835	50.26	1.207312	-0.250588	0.206668	-0.228	0.9315	-0.2325	0	528	61	2
2026-02-23	16:54:03.370	-81.725	8.225	66.115	1.037244	-0.543388	0.100772	-0.222	0.927	-0.2295	0	528	61	2
2026-02-23	16:54:03.390	-70.735	11.34	72.24	0.90646	-0.168848	0.122488	-0.213	0.9405	-0.2205	0	528	61	2
2026-02-23	16:54:03.410	-145.18	9.59	39.69	1.043832	-0.245952	-0.16348	-0.198	0.96	-0.207	0	530	28	3
2026-02-23	16:54:03.430	-172.165	5.04	11.48	1.079212	-0.25376	-0.29158	-0.1935	0.9645	-0.1965	0	530	28	3
2026-02-23	16:54:03.450	-186.55	-2.52	-10.22	0.928908	-0.13786	-0.372344	-0.195	0.972	-0.177	0	530	28	3
2026-02-23	16:54:03.470	-203.98	-9.03	-29.33	0.708088	0.05856	-0.374296	-0.192	0.9795	-0.1515	0	530	28	3
2026-02-23	16:54:03.490	-248.465	-10.325	-60.935	0.575108	0.414068	-0.34404	-0.198	0.981	-0.126	0	530	28	3
2026-02-23	16:54:03.510	-343.945	-12.88	-100.555	0.579744	0.295484	-0.639036	-0.2085	0.981	-0.0975	0	530	28	3
2026-02-23	16:54:03.530	-417.69	-14.525	-128.45	0.742248	0.091012	-0.892308	-0.216	0.972	-0.063	0	530	28	3
2026-02-23	16:54:03.550	-489.965	-28.49	-137.655	1.624064	-0.889136	-1.058228	-0.222	0.9615	-0.0465	0	530	28	3
2026-02-23	16:54:03.570	-444.185	30.555	-79.31	1.474736	-2.428532	-1.645536	-0.222	0.9615	-0.0465	0	530	28	3
2026-02-23	16:54:03.590	-168.105	52.71	-40.845	0.752252	-1.37006	-1.469368	-0.2625	0.8745	0.0825	0	530	28	3
2026-02-23	16:54:03.610	3.43	28.84	3.535	1.002352	-0.854244	-0.86986	-0.2715	0.8535	0.0855	0	534	62	3
2026-02-23	16:54:03.630	46.515	24.22	13.335	0.965264	-0.37942	-0.6649	-0.279	0.8565	0.0735	0	534	62	3
2026-02-23	16:54:03.650	57.295	18.725	21.525	1.061156	-0.29402	-0.627568	-0.27	0.8625	0.072	0	534	62	3
2026-02-23	16:54:03.670	70.245	18.55	33.11	0.992592	-0.097844	-0.765672	-0.273	0.87	0.066	0	534	62	3
2026-02-23	16:54:03.690	61.635	13.615	28.98	0.951844	-0.03538	-0.809836	-0.2655	0.8685	0.0555	0	534	62	3
2026-02-23	16:54:03.710	68.11	7.735	30.275	0.899384	-0.298412	-0.785436	-0.2655	0.879	0.054	0	534	62	3
2026-02-23	16:54:03.730	141.33	5.285	5.6	0.86986	-0.41724	-0.822768	-0.264	0.8865	0.042	0	534	62	3
2026-02-23	16:54:03.750	165.48	6.93	-13.3	0.880596	0.419436	-0.5978	-0.2595	0.8925	0.0285	0	534	62	3
2026-02-23	16:54:03.770	85.96	-2.52	-12.39	1.001376	-0.029036	-0.702232	-0.264	0.897	0.0135	0	534	62	3
2026-02-23	16:54:03.790	53.375	7.28	-28.77	0.908656	-0.127368	-0.434808	-0.2685	0.897	0.009	0	534	62	3
2026-02-23	16:54:03.810	46.305	7.49	-40.18	0.714432	-0.52948	-0.941596	-0.2685	0.8955	0.006	0	544	187	3
2026-02-23	16:54:03.830	97.65	-11.795	-58.135	1.006744	-0.531188	-0.400404	-0.2745	0.888	0.0015	0	544	187	3
2026-02-23	16:54:03.850	68.67	17.325	-66.955	0.662704	0.014396	-0.464088	-0.276	0.8835	-0.0045	0	544	187	3
2026-02-23	16:54:03.870	27.125	5.6	-52.605	0.866688	-0.629032	-0.495808	-0.2745	0.882	-0.009	0	544	187	3
2026-02-23	16:54:03.890	46.095	33.46	-57.365	0.691984	-0.594628	-0.35868	-0.2745	0.882	-0.009	0	544	187	3
2026-02-23	16:54:03.910	78.855	24.85	-44.1	0.808128	-0.427	-0.419192	-0.285	0.8685	-0.012	0	544	187	3
2026-02-23	16:54:03.930	54.11	41.79	-41.58	0.722484	-0.070272	-0.184464	-0.294	0.8655	-0.0225	0	544	187	3
2026-02-23	16:54:03.950	-8.995	40.985	-37.975	0.69296	-0.308904	-0.584136	-0.303	0.864	-0.036	0	544	187	3
2026-02-23	16:54:03.970	0.805	37.59	-38.57	0.794464	-0.621956	-0.492636	-0.303	0.858	-0.045	0	544	187	3
2026-02-23	16:54:03.990	23.835	39.9	-41.37	0.804224	-0.249124	-0.543388	-0.3105	0.846	-0.0555	0	544	187	3
2026-02-23	16:54:04.010	-2.52	41.265	-37.45	0.796904	-0.20008	-0.313052	-0.3135	0.8415	-0.057	0	552	311	3
2026-02-23	16:54:04.030	-48.02	49.28	-33.635	0.533628	-0.346724	-0.554124	-0.315	0.837	-0.0615	0	552	311	3
2026-02-23	16:54:04.050	-10.08	29.61	-31.29	0.78568	-0.593652	-0.696864	-0.321	0.828	-0.0705	0	552	311	3
2026-02-23	16:54:04.070	4.41	33.635	-38.5	0.679052	-0.234972	-0.260592	-0.3225	0.8265	-0.072	0	552	311	3
2026-02-23	16:54:04.090	11.445	26.915	-39.935	0.65636	-0.103456	-0.480192	-0.327	0.822	-0.075	0	552	311	3
2026-02-23	16:54:04.110	-16.835	19.39	-37.24	0.757864	-0.399672	-0.600484	-0.33	0.8175	-0.078	0	552	311	3
2026-02-23	16:54:04.130	-30.345	19.145	-35.735	0.7625	-0.43554	-0.4819	-0.3405	0.81	-0.078	0	552	311	3
2026-02-23	16:54:04.150	-21.665	22.4	-31.15	0.584868	-0.543632	-0.537044	-0.336	0.801	-0.09	0	552	311	3
2026-02-23	16:54:04.170	15.96	12.215	-30.975	0.870104	-0.284992	-0.359168	-0.3375	0.8025	-0.09	0	552	311	3
2026-02-23	16:54:04.190	5.075	11.69	-31.43	0.864736	-0.33794	-0.602192	-0.342	0.795	-0.0855	0	552	311	3
2026-02-23	16:54:04.210	-2.45	20.16	-32.655	0.871568	-0.398452	-0.426268	-0.3435	0.795	-0.096	0	551	387	2
2026-02-23	16:54:04.230	2.17	16.905	-31.605	0.91378	-0.49776	-0.448228	-0.342	0.789	-0.099	0	551	387	2
2026-02-23	16:54:04.250	16.905	28.7	-30.415	0.874496	-0.261812	-0.20862	-0.345	0.783	-0.1005	0	551	387	2
2026-02-23	16:54:04.270	8.435	21.49	-27.44	0.958188	-0.265716	-0.384788	-0.3405	0.774	-0.1005	0	551	387	2
2026-02-23	16:54:04.290	-13.16	40.565	-25.585	0.793244	-0.264008	-0.21228	-0.3405	0.774	-0.1005	0	551	387	2
2026-02-23	16:54:04.310	-13.755	37.485	-25.795	0.817888	-0.345016	-0.5612	-0.345	0.768	-0.1065	0	551	387	2
2026-02-23	16:54:04.330	3.92	30.87	-28.56	0.92476	-0.567788	-0.40992	-0.3465	0.762	-0.117	0	551	387	2
2026-02-23	16:54:04.350	29.19	36.085	-33.25	0.94672	-0.212768	-0.353068	-0.348	0.762	-0.1215	0	551	387	2
2026-02-23	16:54:04.370	14.7	33.67	-31.745	0.97844	-0.315248	-0.379664	-0.354	0.7575	-0.126	0	551	387	2
2026-02-23	16:54:04.390	20.3	42.315	-38.535	0.82472	-0.248636	-0.303536	-0.3585	0.7485	-0.132	0	551	387	2
2026-02-23	16:54:04.410	13.16	32.83	-39.585	0.801296	-0.366	-0.340136	-0.3525	0.741	-0.1365	0	538	417	1
2026-02-23	16:54:04.430	37.975	23.975	-47.11	0.913048	-0.147376	-0.34282	-0.351	0.7395	-0.144	0	538	417	1
2026-02-23	16:54:04.450	31.045	21.245	-54.845	0.778116	-0.223748	-0.453596	-0.357	0.735	-0.147	0	538	417	1
2026-02-23	16:54:04.470	139.755	-13.545	-76.58	0.956724	-0.336964	-0.271816	-0.3585	0.729	-0.147	0	538	417	1
2026-02-23	16:54:04.490	151.025	2.94	-98.84	0.64904	0.071492	-0.159332	-0.3585	0.705	-0.153	0	538	417	1
2026-02-23	16:54:04.510	89.705	-9.835	-88.69	0.737612	-0.085156	-0.246684	-0.366	0.684	-0.165	0	538	417	1
2026-02-23	16:54:04.530	53.165	-12.145	-85.505	0.566324	-0.333792	-0.305976	-0.3675	0.672	-0.1545	0	538	417	1
2026-02-23	16:54:04.550	95.445	-7.035	-88.095	0.362584	-0.288652	-0.276696	-0.366	0.6555	-0.156	0	538	417	1
2026-02-23	16:54:04.570	109.27	-24.29	-55.545	0.507276	-0.296704	-0.461404	-0.3675	0.642	-0.156	0	538	417	1
2026-02-23	16:54:04.590	152.145	-11.375	-56.91	0.386496	-0.092964	0.2745	-0.3675	0.642	-0.156	0	538	417	1
2026-02-23	16:54:04.610	115.29	-9.1	-34.825	0.279624	-0.033916	0.014884	-0.363	0.63	-0.1485	0	515	408	1
2026-02-23	16:54:04.630	89.005	-2.03	-18.305	0.378932	-0.304756	-0.009272	-0.3615	0.6135	-0.144	0	515	408	1
2026-02-23	16:54:04.650	48.72	-27.02	-3.885	0.640744	-0.161528	-0.370636	-0.3645	0.609	-0.1455	0	515	408	1
2026-02-23	16:54:04.670	9.17	-53.83	7	0.846436	0.058804	-0.4331	-0.36	0.609	-0.1455	0	515	408	1
2026-02-23	16:54:04.690	-40.355	-72.135	9.73	1.102392	0.077104	-0.520208	-0.372	0.6	-0.1365	0	515	408	1
2026-02-23	16:54:04.710	-29.225	-72.59	-6.58	1.241228	-0.195444	-0.452864	-0.3585	0.5985	-0.1275	0	515	408	1
2026-02-23	16:54:04.730	-1.365	-72.695	-9.38	1.395436	-0.356484	-0.241316	-0.3705	0.612	-0.117	0	515	408	1
2026-02-23	16:54:04.750	3.71	-47.6	-3.99	1.419348	-0.284748	0.051484	-0.3645	0.603	-0.1095	0	515	408	1
2026-02-23	16:54:04.770	-4.27	-19.46	0.28	1.406416	-0.261812	0.1159	-0.3735	0.6015	-0.096	0	515	408	1
2026-02-23	16:54:04.790	-3.29	7.385	1.82	1.37982	-0.193004	-0.168848	-0.366	0.6105	-0.0945	0	515	408	1
2026-02-23	16:54:04.810	-9.905	28.385	-2.38	0.96746	0.000976	-0.43432	-0.366	0.606	-0.0885	0	493	375	3
2026-02-23	16:54:04.830	-7.98	14.385	-2.45	0.74908	0.019032	-0.25498	-0.3765	0.5985	-0.099	0	493	375	3
2026-02-23	16:54:04.850	-14.91	-3.395	-3.08	0.757132	0.092476	-0.253272	-0.372	0.6015	-0.0975	0	493	375	3
2026-02-23	16:54:04.870	-21.245	-7.7	-10.045	0.689544	0.047092	-0.430172	-0.366	0.6	-0.1005	0	493	375	3
2026-02-23	16:54:04.890	-23.52	-11.935	-16.38	0.675148	-0.077104	-0.586088	-0.3645	0.5985	-0.1035	0	493	375	3
2026-02-23	16:54:04.910	-37.59	-17.78	-12.215	0.574864	-0.15372	-0.2623	-0.3675	0.6015	-0.1005	0	493	375	3
2026-02-23	16:54:04.930	-31.99	-22.155	-6.545	0.752984	-0.589016	-0.1037	-0.3645	0.6015	-0.099	0	493	375	3
2026-02-23	16:54:04.950	-1.505	-9.765	9.52	0.924272	-0.762256	-0.125416	-0.3615	0.6	-0.093	0	493	375	3
2026-02-23	16:54:04.970	-0.735	4.83	23.1	0.943792	-0.322812	-0.474092	-0.36	0.5985	-0.0915	0	493	375	3
2026-02-23	16:54:04.990	-29.925	24.815	35.245	0.826672	-0.566324	-0.31354	-0.3645	0.5985	-0.0945	0	493	375	3
2026-02-23	16:54:05.010	-26.11	27.16	68.985	0.469212	-0.751032	-0.310368	-0.3705	0.597	-0.0945	0	474	341	3
2026-02-23	16:54:05.030	21.84	3.71	72.835	0.978196	-0.018056	0.168604	-0.3705	0.597	-0.0945	0	474	341	3
2026-02-23	16:54:05.050	-7.42	24.955	90.37	0.65758	-0.603656	-0.1342	-0.3735	0.6285	-0.1035	0	474	341	3
2026-02-23	16:54:05.070	19.285	14.945	88.55	0.737856	-0.221308	-0.357704	-0.3675	0.642	-0.102	0	474	341	3
2026-02-23	16:54:05.090	45.85	23.66	67.795	1.28832	-0.188612	0.27206	-0.372	0.6585	-0.1125	0	474	341	3
2026-02-23	16:54:05.110	77.35	44.345	76.86	1.308084	-0.457256	-0.02806	-0.369	0.6645	-0.123	0	474	341	3
2026-02-23	16:54:05.130	89.67	55.37	47.74	1.607472	0.578036	-0.05856	-0.3645	0.6795	-0.126	0	474	341	3
2026-02-23	16:54:05.150	13.895	49.35	68.88	0.895968	-0.409676	-0.620004	-0.36	0.6855	-0.1335	0	474	341	3
2026-02-23	16:54:05.170	30.835	23.625	51.1	1.511824	-0.400648	-0.200568	-0.348	0.6975	-0.1455	0	474	341	3
2026-02-23	16:54:05.190	35.665	44.38	55.055	1.14802	-0.428708	-0.242048	-0.348	0.705	-0.141	0	474	341	3
2026-02-23	16:54:05.210	49.525	35.875	46.025	1.539152	0.30988	-0.595604	-0.348	0.714	-0.15	0	463	310	3
2026-02-23	16:54:05.230	34.23	36.295	23.59	1.311988	-0.348676	-0.18788	-0.351	0.723	-0.1665	0	463	310	3
2026-02-23	16:54:05.250	19.495	39.27	23.17	1.081164	-0.61732	-0.516304	-0.351	0.7275	-0.171	0	463	310	3
2026-02-23	16:54:05.270	55.09	38.115	10.675	1.341024	-0.1891	-0.627568	-0.348	0.7305	-0.174	0	463	310	3
2026-02-23	16:54:05.290	49.105	41.79	13.755	1.206336	-0.231556	-0.300608	-0.3495	0.729	-0.18	0	463	310	3
2026-02-23	16:54:05.310	0.14	41.16	11.795	1.017236	-0.56974	-0.366	-0.342	0.729	-0.183	0	463	310	3
2026-02-23	16:54:05.330	-12.25	44.73	6.86	0.97966	-0.419924	-0.380152	-0.345	0.732	-0.1905	0	463	310	3
2026-02-23	16:54:05.350	5.04	48.475	11.76	0.96746	-0.248148	-0.215452	-0.3405	0.732	-0.2025	0	463	310	3
2026-02-23	16:54:05.370	0.945	44.695	20.825	0.629276	-0.512888	-0.44164	-0.333	0.741	-0.207	0	463	310	3
2026-02-23	16:54:05.390	-1.295	23.485	23.275	0.510204	-0.482632	-0.39162	-0.33	0.7395	-0.2145	0	463	310	3
2026-02-23	16:54:05.410	-5.215	-1.575	30.94	0.674904	-0.288408	-0.094428	-0.3315	0.7395	-0.222	0	459	299	3
2026-02-23	16:54:05.430	-12.39	-4.76	34.475	0.611952	-0.351604	-0.113216	-0.3345	0.7455	-0.216	0	459	299	3
2026-02-23	16:54:05.450	-30.345	0.07	30.66	0.66856	-0.585356	-0.437492	-0.33	0.75	-0.216	0	459	299	3
2026-02-23	16:54:05.470	-17.675	2.31	26.46	0.720288	-0.535824	-0.447984	-0.327	0.7485	-0.219	0	459	299	3
2026-02-23	16:54:05.490	-24.99	3.22	43.12	0.50142	-0.589504	-0.020496	-0.3315	0.756	-0.216	0	459	299	3
2026-02-23	16:54:05.510	-51.03	-15.75	44.73	0.7808	-0.28426	-0.0488	-0.3285	0.7635	-0.2175	0	459	299	3
2026-02-23	16:54:05.530	-75.705	-9.94	50.225	0.853756	-0.476044	-0.03294	-0.324	0.768	-0.213	0	459	299	3
2026-02-23	16:54:05.550	-52.22	-11.55	56.105	0.902068	-0.306952	-0.203008	-0.324	0.7755	-0.21	0	459	299	3
2026-02-23	16:54:05.570	-60.655	-10.15	53.76	0.512888	-0.372588	0.26962	-0.3225	0.7785	-0.2115	0	459	299	3
2026-02-23	16:54:05.590	-106.085	-17.85	53.2	0.544364	-0.920368	-0.273524	-0.321	0.7995	-0.192	0	459	299	3
2026-02-23	16:54:05.610	-55.195	-26.985	44.485	0.936228	-0.468724	-0.134932	-0.318	0.813	-0.1875	0	457	289	3
2026-02-23	16:54:05.630	-69.125	-4.305	55.79	0.542656	-0.528504	0.044164	-0.3135	0.822	-0.18	0	457	289	3
2026-02-23	16:54:05.650	-52.85	-17.15	55.65	0.781776	-0.441396	-0.17324	-0.312	0.837	-0.1755	0	457	289	3
2026-02-23	16:54:05.670	-31.955	-15.925	32.76	0.941596	-0.2562	-0.118584	-0.303	0.843	-0.1695	0	457	289	3
2026-02-23	16:54:05.690	-16.87	0.595	26.74	0.650504	-0.566324	-0.15982	-0.303	0.852	-0.165	0	457	289	3
2026-02-23	16:54:05.710	15.295	-1.855	23.52	0.835212	-0.58682	0.252052	-0.3015	0.8535	-0.168	0	457	289	3
2026-02-23	16:54:05.730	-13.02	17.64	33.18	0.774944	-0.926468	-0.025864	-0.297	0.8535	-0.1665	0	457	289	3
2026-02-23	16:54:05.750	18.27	22.085	30.205	1.146556	-0.44408	-0.024156	-0.297	0.8535	-0.1665	0	457	289	3
2026-02-23	16:54:05.770	6.93	32.025	39.445	0.818132	-0.5429	0.038796	-0.2925	0.8595	-0.168	0	457	289	3
2026-02-23	16:54:05.790	-14.7	26.145	37.695	0.852292	-0.481412	-0.245708	-0.285	0.867	-0.174	0	457	289	3
2026-02-23	16:54:05.810	-71.19	52.15	40.25	0.372344	-0.915976	-0.215696	-0.279	0.8715	-0.177	0	454	260	3
2026-02-23	16:54:05.830	-60.27	22.505	45.85	0.682224	-0.665632	-0.572668	-0.273	0.8805	-0.177	0	454	260	3
2026-02-23	16:54:05.850	-18.48	3.99	44.695	0.733464	-0.31964	-0.077592	-0.2715	0.888	-0.1755	0	454	260	3
2026-02-23	16:54:05.870	-41.16	-8.085	45.99	0.5124	-0.591212	-0.140544	-0.273	0.897	-0.1725	0	454	260	3
2026-02-23	16:54:05.890	-40.075	-9.87	40.46	0.295728	-0.546316	-0.334768	-0.2655	0.909	-0.1695	0	454	260	3
2026-02-23	16:54:05.910	-14.945	-13.23	44.345	0.357948	-0.892064	-0.257176	-0.255	0.9165	-0.165	0	454	260	3
2026-02-23	16:54:05.930	-29.47	-11.235	62.825	0.537532	-0.943304	-0.121268	-0.255	0.9195	-0.1635	0	454	260	3
2026-02-23	16:54:05.950	-58.94	-10.045	75.915	0.700524	-1.082872	-0.405772	-0.243	0.9285	-0.162	0	454	260	3
2026-02-23	16:54:05.970	-49.63	-0.77	77.595	0.435052	-0.555344	-0.044652	-0.243	0.945	-0.15	0	454	260	3
2026-02-23	16:54:05.990	-73.465	-7.21	84.7	0.72102	-0.741272	-0.319396	-0.2325	0.9525	-0.1425	0	454	260	3
2026-02-23	16:54:06.010	-56.14	-10.01	78.26	0.494832	-0.319396	0.064416	-0.2265	0.957	-0.1425	0	450	233	3
2026-02-23	16:54:06.030	-98.7	-19.18	74.585	0.814228	-0.648796	-0.457012	-0.213	0.966	-0.138	0	450	233	3
2026-02-23	16:54:06.050	-94.36	-21.945	64.085	0.77348	-0.503128	-0.192028	-0.2025	0.975	-0.1275	0	450	233	3
2026-02-23	16:54:06.070	-118.16	-25.13	63.735	0.816668	-0.949892	-0.660508	-0.2025	0.984	-0.1125	0	450	233	3
2026-02-23	16:54:06.090	-63.875	-27.09	57.33	0.901824	-0.552904	-0.290116	-0.1965	0.987	-0.096	0	450	233	3
2026-02-23	16:54:06.110	-80.92	-28.07	53.935	0.829112	-0.572424	-0.461892	-0.189	0.987	-0.0885	0	450	233	3
2026-02-23	16:54:06.130	-84.665	-21.84	46.165	0.739076	-0.648308	-0.429684	-0.189	0.987	-0.0885	0	450	233	3
2026-02-23	16:54:06.150	-77.28	-23.1	40.25	0.765428	-0.710284	-0.385276	-0.1605	1.0095	-0.0525	0	450	233	3
2026-02-23	16:54:06.170	-74.725	-20.825	37.345	0.888648	-0.563152	-0.615124	-0.162	1.011	-0.045	0	450	233	3
2026-02-23	16:54:06.190	-69.02	-24.71	30.52	0.869128	-0.588528	-0.402112	-0.153	1.014	-0.0285	0	450	233	3
2026-02-23	16:54:06.210	-77.315	-32.2	24.5	1.010404	-0.4636	-0.568764	-0.153	1.0095	-0.024	0	445	236	3
2026-02-23	16:54:06.230	-82.25	-35.315	14.525	1.175592	-0.441884	-0.6344	-0.147	1.0125	-0.018	0	445	236	3
2026-02-23	16:54:06.250	-84.49	-32.655	5.705	1.182424	-0.506056	-0.579744	-0.1395	1.0125	-0.0015	0	445	236	3
2026-02-23	16:54:06.270	-80.675	-25.935	-0.455	1.176568	-0.45018	-0.55632	-0.1395	1.0065	0.0045	0	445	236	3
2026-02-23	16:54:06.290	-27.72	-10.325	-10.92	1.022604	-0.500444	-0.311832	-0.1455	1.011	0.0195	0	445	236	3
2026-02-23	16:54:06.310	13.3	16.24	-15.715	0.810812	-0.419192	-0.115168	-0.1425	1.0065	0.0225	0	445	236	3
2026-02-23	16:54:06.330	-5.11	39.9	-14.35	0.899628	-0.766404	-0.379176	-0.1455	1.0035	0.0255	0	445	236	3
2026-02-23	16:54:06.350	-11.9	61.005	-8.785	0.788608	-0.917196	-0.62952	-0.15	1.002	0.0225	0	445	236	3
2026-02-23	16:54:06.370	2.205	61.775	-0.49	0.787632	-0.9333	-0.733952	-0.153	0.999	0.021	0	445	236	3
2026-02-23	16:54:06.390	33.81	57.085	0.28	0.849364	-0.66368	-0.649772	-0.1545	0.9945	0.015	0	445	236	3
2026-02-23	16:54:06.410	42.84	50.505	-6.16	0.803004	-0.715896	-0.797636	-0.1575	0.9915	0.009	0	438	276	3
2026-02-23	16:54:06.430	90.055	46.515	-17.01	0.86376	-0.615124	-0.620736	-0.1575	0.996	0	0	438	276	3
2026-02-23	16:54:06.450	103.18	43.225	-22.855	0.8174	-0.535824	-0.472628	-0.159	1.0035	-0.015	0	438	276	3
2026-02-23	16:54:06.470	101.465	40.6	-25.27	0.851072	-0.626104	-0.417728	-0.1665	1.0065	-0.0345	0	438	276	3
2026-02-23	16:54:06.490	78.715	40.915	-32.235	0.884988	-0.628788	-0.441884	-0.1695	1.005	-0.0435	0	438	276	3
2026-02-23	16:54:06.510	60.06	42.525	-32.76	0.859856	-0.673684	-0.52216	-0.1755	1.002	-0.069	0	438	276	3
2026-02-23	16:54:06.530	40.32	42.14	-34.93	0.823988	-0.536312	-0.604876	-0.174	0.999	-0.078	0	438	276	3
2026-02-23	16:54:06.550	19.18	42.945	-36.47	0.764452	-0.557784	-0.506544	-0.1815	0.9975	-0.09	0	438	276	3
2026-02-23	16:54:06.570	-3.255	40.985	-46.97	0.64172	-0.335256	-0.721508	-0.1905	0.987	-0.0945	0	438	276	3
2026-02-23	16:54:06.590	-3.22	34.265	-49.56	0.60268	-0.508252	-0.497272	-0.195	0.987	-0.096	0	438	276	3
2026-02-23	16:54:06.610	-10.85	25.025	-52.71	0.630252	-0.532896	-0.699548	-0.204	0.9795	-0.096	0	428	338	2
2026-02-23	16:54:06.630	-2.66	14.175	-59.325	0.65758	-0.71736	-0.502884	-0.2115	0.9705	-0.105	0	428	338	2
2026-02-23	16:54:06.650	-10.01	11.095	-58.415	0.612684	-0.49044	-0.4636	-0.2235	0.969	-0.105	0	428	338	2
2026-02-23	16:54:06.670	-21.525	11.165	-58.17	0.681736	-0.743712	-0.414312	-0.2235	0.969	-0.105	0	428	338	2
2026-02-23	16:54:06.690	-11.34	7.035	-53.585	0.600972	-0.579744	-0.321836	-0.2235	0.969	-0.105	0	428	338	2
2026-02-23	16:54:06.710	-11.97	2.905	-51.345	0.642696	-0.669292	-0.428952	-0.2325	0.9465	-0.102	0	428	338	2
2026-02-23	16:54:06.730	-0.84	1.855	-49.49	0.786412	-0.613904	-0.309636	-0.2505	0.9465	-0.099	0	428	338	2
2026-02-23	16:54:06.750	-12.88	3.08	-43.365	0.717848	-0.501908	-0.3965	-0.246	0.9375	-0.1005	0	428	338	2
2026-02-23	16:54:06.770	-1.54	5.74	-43.4	0.66246	-0.428464	-0.301584	-0.2565	0.93	-0.0915	0	428	338	2
2026-02-23	16:54:06.790	6.055	7.07	-45.01	0.68076	-0.408944	-0.227408	-0.2535	0.9285	-0.1005	0	428	338	2
2026-02-23	16:54:06.810	-8.96	4.515	-45.535	0.800564	-0.41236	-0.404308	-0.261	0.924	-0.0945	0	414	387	2
2026-02-23	16:54:06.830	-19.39	8.05	-47.25	0.773724	-0.450668	-0.19886	-0.2655	0.9165	-0.099	0	414	387	2
2026-02-23	16:54:06.850	-22.47	5.81	-41.09	0.84058	-0.669292	-0.304268	-0.2655	0.9165	-0.099	0	414	387	2
2026-02-23	16:54:06.870	4.025	8.155	-41.44	0.794464	-0.20374	-0.185196	-0.273	0.909	-0.0975	0	414	387	2
2026-02-23	16:54:06.890	-16.625	10.045	-38.325	0.777384	-0.533384	-0.171532	-0.282	0.8985	-0.0945	0	414	387	2
2026-02-23	16:54:06.910	-24.71	9.24	-34.265	0.813984	-0.36356	-0.399916	-0.2895	0.8925	-0.093	0	414	387	2
2026-02-23	16:54:06.930	-18.48	9.555	-34.51	0.835212	-0.571692	-0.216184	-0.297	0.8835	-0.093	0	414	387	2
2026-02-23	16:54:06.950	0.21	13.23	-35.28	0.782996	-0.201544	-0.271328	-0.2955	0.8805	-0.099	0	414	387	2
2026-02-23	16:54:06.970	-22.26	12.495	-32.97	0.832528	-0.426756	-0.416508	-0.294	0.879	-0.1005	0	414	387	2
2026-02-23	16:54:06.990	-10.465	13.965	-34.16	0.736636	-0.320616	-0.20984	-0.3015	0.8745	-0.0975	0	414	387	2
2026-02-23	16:54:07.010	-20.3	13.055	-34.405	0.83326	-0.461404	-0.25742	-0.3045	0.87	-0.099	0	397	397	2
2026-02-23	16:54:07.030	-8.54	13.965	-33.985	0.761036	-0.58804	-0.377712	-0.303	0.8685	-0.099	0	397	397	2
2026-02-23	16:54:07.050	16.59	9.94	-31.36	0.814228	-0.291824	-0.16958	-0.315	0.861	-0.102	0	397	397	2
2026-02-23	16:54:07.070	-3.22	7.98	-27.58	0.981368	-0.475556	-0.419436	-0.3165	0.849	-0.108	0	397	397	2
2026-02-23	16:54:07.090	19.495	13.72	-31.675	0.9455	-0.431636	-0.188856	-0.315	0.852	-0.0975	0	397	397	2
2026-02-23	16:54:07.110	23.695	17.08	-32.55	0.876936	-0.24522	-0.244488	-0.3195	0.84	-0.1095	0	397	397	2
2026-02-23	16:54:07.130	26.11	15.995	-35.875	0.92842	-0.576816	-0.403332	-0.315	0.8415	-0.1125	0	397	397	2
2026-02-23	16:54:07.150	66.71	13.44	-41.265	0.908656	-0.355508	-0.182268	-0.3225	0.837	-0.12	0	397	397	2
2026-02-23	16:54:07.170	56.63	19.74	-41.895	0.792756	-0.196664	-0.19642	-0.321	0.8295	-0.12	0	397	397	2
2026-02-23	16:54:07.190	52.955	20.895	-45.99	0.907924	-0.38308	-0.055388	-0.333	0.819	-0.1335	0	397	397	2
2026-02-23	16:54:07.210	79.87	15.12	-53.655	0.848144	-0.58194	-0.510936	-0.33	0.813	-0.1365	0	377	379	2
2026-02-23	16:54:07.230	144.655	12.355	-62.335	0.795684	-0.159088	-0.100284	-0.33	0.8025	-0.1455	0	377	379	2
2026-02-23	16:54:07.250	112.245	-3.22	-58.59	0.776896	-0.34526	-0.388936	-0.3345	0.7905	-0.156	0	377	379	2
2026-02-23	16:54:07.270	123.2	-6.37	-63.21	0.852536	-0.305244	-0.217648	-0.339	0.78	-0.1635	0	377	379	2
2026-02-23	16:54:07.290	156.24	-7.42	-63.84	0.743712	-0.384056	-0.196908	-0.345	0.7665	-0.1695	0	377	379	2
2026-02-23	16:54:07.310	179.025	-17.045	-70.735	0.899872	-0.386252	-0.177632	-0.3495	0.7545	-0.171	0	377	379	2
2026-02-23	16:54:07.330	145.81	0.735	-72.8	0.813252	-0.280356	-0.0366	-0.351	0.7425	-0.174	0	377	379	2
2026-02-23	16:54:07.350	112.63	-2.94	-62.02	0.904264	-0.293044	-0.119804	-0.351	0.7275	-0.18	0	377	379	2
2026-02-23	16:54:07.370	141.05	7.7	-54.285	0.762744	-0.498248	-0.17812	-0.351	0.7215	-0.186	0	377	379	2
2026-02-23	16:54:07.390	140.07	16.31	-38.535	0.687836	-0.442616	0.000732	-0.351	0.7215	-0.186	0	377	379	2
2026-02-23	16:54:07.410	96.88	13.93	-18.935	0.691252	-0.4392	0.173484	-0.351	0.7035	-0.1905	0	359	342	2
2026-02-23	16:54:07.430	58.625	18.025	-5.6	0.539972	-0.345748	0.297192	-0.3495	0.6825	-0.195	0	359	342	2
2026-02-23	16:54:07.450	23.835	15.05	5.215	0.511912	-0.221552	0.117608	-0.3465	0.681	-0.198	0	359	342	2
2026-02-23	16:54:07.470	-16.695	17.85	13.615	0.472384	-0.244732	-0.107848	-0.348	0.6795	-0.204	0	359	342	2
2026-02-23	16:54:07.490	-51.555	8.75	24.43	0.479948	-0.457012	-0.258152	-0.354	0.678	-0.2085	0	359	342	2
2026-02-23	16:54:07.510	-44.625	-2.065	36.505	0.5612	-0.810568	-0.263276	-0.357	0.687	-0.21	0	359	342	2
2026-02-23	16:54:07.530	-17.465	2.065	43.61	0.49532	-0.506544	-0.051728	-0.3525	0.6915	-0.207	0	359	342	2
2026-02-23	16:54:07.550	9.695	-6.405	49.385	0.629276	-0.373564	0.053192	-0.3495	0.696	-0.2055	0	359	342	2
2026-02-23	16:54:07.570	-3.255	-7.98	48.405	0.907436	-0.365268	-0.090036	-0.3525	0.7005	-0.207	0	359	342	2
2026-02-23	16:54:07.590	-23.45	-4.305	50.225	0.896944	-0.646112	-0.344284	-0.3525	0.7005	-0.207	0	359	342	2
2026-02-23	16:54:07.610	-15.33	-3.535	52.99	0.648308	-0.718336	-0.166164	-0.339	0.7245	-0.201	0	345	288	2
2026-02-23	16:54:07.630	-8.505	-11.69	59.185	0.651236	-0.707844	-0.12566	-0.339	0.738	-0.1995	0	345	288	2
2026-02-23	16:54:07.650	0.875	-25.095	64.155	1.139968	-0.467016	-0.149328	-0.342	0.741	-0.2025	0	345	288	2
2026-02-23	16:54:07.670	-1.295	-15.295	61.565	1.235128	-0.240828	-0.199592	-0.3345	0.7515	-0.1935	0	345	288	2
2026-02-23	16:54:07.690	-30.03	-19.915	48.265	1.34078	-0.329888	-0.54412	-0.336	0.762	-0.192	0	345	288	2
2026-02-23	16:54:07.710	-24.675	-21.105	30.17	1.273436	-0.115412	-0.45872	-0.342	0.7635	-0.1875	0	345	288	2
2026-02-23	16:54:07.730	-21.63	-38.185	15.575	1.478152	-0.403088	-0.427488	-0.3465	0.774	-0.1845	0	345	288	2
2026-02-23	16:54:07.750	6.3	-24.325	10.605	0.922076	-0.576816	-0.126148	-0.336	0.7815	-0.1755	0	345	288	2
2026-02-23	16:54:07.770	7.28	-1.575	-5.11	0.848876	-0.19032	-0.11468	-0.3345	0.7815	-0.1725	0	345	288	2
2026-02-23	16:54:07.790	-2.31	17.29	-18.655	0.974048	-0.365756	-0.33916	-0.3375	0.777	-0.171	0	345	288	2
2026-02-23	16:54:07.810	8.435	18.795	-13.615	0.825208	-0.50142	-0.295728	-0.339	0.777	-0.174	0	336	251	3
2026-02-23	16:54:07.830	14.35	8.855	-8.715	0.785436	-0.477996	0.016592	-0.336	0.7755	-0.174	0	336	251	3
2026-02-23	16:54:07.850	-3.955	0.56	-5.495	0.837408	-0.526552	-0.263032	-0.3405	0.7695	-0.1785	0	336	251	3
2026-02-23	16:54:07.870	-5.285	-5.18	-13.3	0.959896	-0.247416	-0.327204	-0.3465	0.7695	-0.1815	0	336	251	3
2026-02-23	16:54:07.890	1.995	-12.075	-16.905	1.084092	-0.354044	-0.064904	-0.342	0.7665	-0.1725	0	336	251	3
2026-02-23	16:54:07.910	-2.87	-4.515	-14.525	0.704672	-0.603412	-0.10004	-0.336	0.7635	-0.174	0	336	251	3
2026-02-23	16:54:07.930	-1.505	-5.25	-19.355	0.939156	-0.559004	-0.15738	-0.333	0.765	-0.177	0	336	251	3
2026-02-23	16:54:07.950	21.455	7.21	-14.42	1.082384	-0.642208	-0.058072	-0.3315	0.7665	-0.1725	0	336	251	3
2026-02-23	16:54:07.970	22.26	18.06	-6.055	0.979172	-0.51484	-0.08174	-0.33	0.756	-0.1755	0	336	251	3
2026-02-23	16:54:07.990	11.585	33.32	-4.62	0.845216	-0.473604	0.014152	-0.3435	0.7605	-0.1875	0	336	251	3
2026-02-23	16:54:08.010	7.735	34.405	1.085	0.751032	-0.42212	-0.084424	-0.3375	0.753	-0.1875	0	331	230	3
2026-02-23	16:54:08.030	17.85	24.395	2.8	0.87108	-0.16714	-0.125416	-0.345	0.759	-0.1905	0	331	230	3
2026-02-23	16:54:08.050	14.245	25.2	-0.525	0.693204	-0.517036	-0.225456	-0.3405	0.75	-0.192	0	331	230	3
2026-02-23	16:54:08.070	11.48	20.16	-3.465	0.905728	-0.491904	-0.173972	-0.339	0.7575	-0.204	0	331	230	3
2026-02-23	16:54:08.090	2.31	16.695	2.17	0.73444	-0.470432	-0.210572	-0.339	0.7575	-0.204	0	331	230	3
2026-02-23	16:54:08.110	19.95	-0.42	5.145	1.037488	-0.209352	-0.040992	-0.336	0.756	-0.2025	0	331	230	3
2026-02-23	16:54:08.130	-3.78	3.92	1.085	1.000644	-0.553392	-0.241316	-0.3345	0.7545	-0.2025	0	331	230	3
2026-02-23	16:54:08.150	-3.675	4.2	6.825	0.597556	-0.472628	-0.276452	-0.336	0.7545	-0.2085	0	331	230	3
2026-02-23	16:54:08.170	-10.78	-13.16	16.415	0.591944	-0.534604	-0.046116	-0.3285	0.753	-0.204	0	331	230	3
2026-02-23	16:54:08.190	-0.91	-38.465	14.035	1.142164	-0.523624	-0.111508	-0.3255	0.762	-0.207	0	331	230	3
2026-02-23	16:54:08.210	-8.89	-13.72	17.045	0.868884	-0.381616	-0.122488	-0.3285	0.762	-0.1995	0	327	213	3
2026-02-23	16:54:08.230	-8.015	-13.44	20.895	0.937936	-0.375028	-0.245952	-0.333	0.759	-0.192	0	327	213	3
2026-02-23	16:54:08.250	-2.905	-10.745	17.64	0.915	-0.074664	-0.28182	-0.3345	0.762	-0.198	0	327	213	3
2026-02-23	16:54:08.270	-18.34	-10.29	15.54	0.784948	-0.548512	0.029768	-0.333	0.7695	-0.1965	0	327	213	3
2026-02-23	16:54:08.290	-13.93	-0.7	8.715	0.827648	-0.199836	-0.182512	-0.327	0.7665	-0.189	0	327	213	3
2026-02-23	16:54:08.310	2.345	0.665	-4.095	0.868396	-0.414312	-0.10614	-0.336	0.765	-0.1905	0	327	213	3
2026-02-23	16:54:08.330	-11.725	5.6	2.8	0.582428	-0.384056	-0.051484	-0.333	0.768	-0.1905	0	327	213	3
2026-02-23	16:54:08.350	-14.315	-12.04	-7.7	0.975268	-0.209596	-0.184708	-0.333	0.7725	-0.1905	0	327	213	3
2026-02-23	16:54:08.370	-15.75	8.75	-0.7	0.451888	-0.630496	-0.262056	-0.3345	0.771	-0.1875	0	327	213	3
2026-02-23	16:54:08.390	0.21	-21.91	-0.175	1.1346	-0.348676	-0.176412	-0.33	0.7725	-0.18	0	327	213	3
2026-02-23	16:54:08.410	-40.46	-1.925	11.41	0.831796	-0.747616	-0.188856	-0.3285	0.7755	-0.18	0	323	199	3
2026-02-23	16:54:08.430	-59.185	-6.125	23.765	0.856196	-0.486536	-0.28792	-0.327	0.771	-0.1815	0	323	199	3
2026-02-23	16:54:08.450	-53.585	-19.88	27.195	0.920124	-0.335256	-0.026596	-0.3285	0.777	-0.177	0	323	199	3
2026-02-23	16:54:08.470	-50.715	-20.545	30.065	0.528504	-0.522648	-0.554124	-0.336	0.7875	-0.171	0	323	199	3
2026-02-23	16:54:08.490	-34.86	-40.88	29.295	0.67954	-0.373808	-0.353556	-0.339	0.789	-0.168	0	323	199	3
2026-02-23	16:54:08.510	-41.09	-46.725	35.63	0.824232	-0.3904	-0.195444	-0.339	0.789	-0.168	0	323	199	3
2026-02-23	16:54:08.530	-26.775	-47.53	25.41	0.866932	-0.180316	-0.328424	-0.3345	0.8025	-0.147	0	323	199	3
2026-02-23	16:54:08.550	-27.37	-40.74	21.875	0.822036	-0.265472	-0.1708	-0.33	0.801	-0.1425	0	323	199	3
2026-02-23	16:54:08.570	-39.06	-43.54	22.61	0.783972	-0.285236	-0.67466	-0.324	0.81	-0.1365	0	323	199	3
2026-02-23	16:54:08.590	-25.235	-42.63	13.125	0.785436	-0.494344	-0.006588	-0.3255	0.8145	-0.1275	0	323	199	3
2026-02-23	16:54:08.610	-48.09	-27.23	24.465	0.742736	-0.690032	-0.405772	-0.3225	0.8175	-0.1155	0	319	199	3
2026-02-23	16:54:08.630	-16.38	-20.72	28.315	0.96624	-0.46482	-0.255468	-0.3225	0.819	-0.1155	0	319	199	3
2026-02-23	16:54:08.650	-14.315	1.75	40.005	0.659044	-0.554124	-0.009028	-0.3195	0.828	-0.1125	0	319	199	3
2026-02-23	16:54:08.670	-21.385	-0.035	47.46	0.72346	-0.526308	-0.305976	-0.3135	0.825	-0.1095	0	319	199	3
2026-02-23	16:54:08.690	-20.475	-4.655	56.665	0.646356	-0.496052	-0.105164	-0.3135	0.8295	-0.1035	0	319	199	3
2026-02-23	16:54:08.710	-17.43	-3.045	53.2	0.63318	-0.479704	0.068564	-0.309	0.843	-0.102	0	319	199	3
2026-02-23	16:54:08.730	-34.37	2.205	57.855	0.658068	-0.812032	-0.17446	-0.3	0.8595	-0.1005	0	319	199	3
2026-02-23	16:54:08.750	-10.395	7.21	55.37	0.675392	-0.549244	-0.153476	-0.297	0.864	-0.1005	0	319	199	3
2026-02-23	16:54:08.770	-10.92	14.7	60.165	0.553636	-0.47702	-0.256688	-0.2925	0.867	-0.1035	0	319	199	3
2026-02-23	16:54:08.790	0.665	-0.63	51.975	1.037976	-0.472872	-0.125416	-0.288	0.8745	-0.102	0	319	199	3
2026-02-23	16:54:08.810	-9.695	30.135	52.99	0.366732	-0.822036	-0.115412	-0.279	0.879	-0.093	0	317	205	3
2026-02-23	16:54:08.830	7.77	12.95	60.585	1.091656	-0.743224	-0.242048	-0.285	0.885	-0.1065	0	317	205	3
2026-02-23	16:54:08.850	-14.455	35.77	70.525	0.582916	-0.693204	-0.3111	-0.2835	0.897	-0.102	0	317	205	3
2026-02-23	16:54:08.870	-53.095	40.04	73.36	0.699548	-0.663192	-0.275964	-0.27	0.9045	-0.1035	0	317	205	3
2026-02-23	16:54:08.890	-60.06	36.33	82.005	0.450424	-0.743712	-0.376248	-0.2535	0.9165	-0.105	0	317	205	3
2026-02-23	16:54:08.910	-23.835	26.775	84.385	0.689788	-0.6161	-0.178852	-0.243	0.927	-0.105	0	317	205	3
2026-02-23	16:54:08.930	-23.835	16.45	93.275	0.587308	-0.598532	-0.591212	-0.2355	0.939	-0.108	0	317	205	3
2026-02-23	16:54:08.950	-25.515	6.65	90.825	0.594872	-0.58804	-0.534116	-0.225	0.9495	-0.108	0	317	205	3
2026-02-23	16:54:08.970	-37.625	-0.07	85.365	0.926956	-0.552416	-0.693204	-0.213	0.9555	-0.105	0	317	205	3
2026-02-23	16:54:08.990	-42.77	-5.775	79.695	0.822036	-0.326716	-0.44286	-0.207	0.966	-0.102	0	317	205	3
2026-02-23	16:54:09.010	-47.18	-22.715	74.725	1.0187	-0.453596	-0.713944	-0.198	0.9735	-0.099	0	317	221	3
2026-02-23	16:54:09.030	-39.2	-32.62	62.615	1.038952	-0.54046	-0.436516	-0.186	0.9795	-0.096	0	317	221	3
2026-02-23	16:54:09.050	-41.51	-31.745	57.155	1.220732	-0.780312	-0.62952	-0.18	0.987	-0.0945	0	317	221	3
2026-02-23	16:54:09.070	-22.82	-22.995	50.82	1.322968	-0.698572	-0.641232	-0.1635	0.99	-0.0825	0	317	221	3
2026-02-23	16:54:09.090	12.04	-16.03	45.08	1.2505	-0.427488	-0.543388	-0.159	1.002	-0.066	0	317	221	3
2026-02-23	16:54:09.110	11.025	-13.23	41.405	1.171932	-0.307928	-0.480924	-0.153	1.0035	-0.069	0	317	221	3
2026-02-23	16:54:09.130	-35.945	-12.425	31.71	1.08214	-0.259128	-0.408944	-0.1545	1.0155	-0.072	0	317	221	3
2026-02-23	16:54:09.150	-70.105	-14.315	17.185	1.066036	-0.453108	-0.409188	-0.1455	1.0095	-0.066	0	317	221	3
2026-02-23	16:54:09.170	-60.06	-10.15	2.87	0.934276	-0.63562	-0.382104	-0.1365	1.008	-0.057	0	317	221	3
2026-02-23	16:54:09.190	-25.375	3.745	-6.545	0.706136	-0.709796	-0.11468	-0.144	1.0035	-0.0435	0	317	221	3
2026-02-23	16:54:09.210	-22.505	19.075	-8.05	0.727608	-0.811056	-0.195688	-0.138	1.008	-0.0375	0	320	265	3
2026-02-23	16:54:09.230	-27.615	43.295	-5.355	0.919392	-0.967216	-0.306708	-0.138	1.008	-0.0375	0	320	265	3
2026-02-23	16:54:09.250	-15.365	53.865	-0.735	0.913292	-0.810324	-0.448228	-0.144	1.008	-0.0435	0	320	265	3
2026-02-23	16:54:09.270	-15.785	61.25	2.135	0.917684	-0.911584	-0.49776	-0.147	1.008	-0.051	0	320	265	3
2026-02-23	16:54:09.290	15.785	47.145	9.59	0.8906	-0.978684	-0.695156	-0.1455	1.0095	-0.0495	0	320	265	3
2026-02-23	16:54:09.310	35.595	40.11	3.325	0.82228	-0.61732	-0.569252	-0.1455	1.0095	-0.0525	0	320	265	3
2026-02-23	16:54:09.330	31.22	33.145	-9.625	0.829112	-0.650748	-0.580964	-0.1455	1.008	-0.06	0	320	265	3
2026-02-23	16:54:09.350	25.165	29.19	-26.04	0.815204	-0.774456	-0.646356	-0.147	1.005	-0.0645	0	320	265	3
2026-02-23	16:54:09.370	23.52	24.64	-28.875	0.776164	-0.620492	-0.681004	-0.1515	1.002	-0.069	0	320	265	3
2026-02-23	16:54:09.390	35.525	23.135	-29.855	0.73688	-0.672708	-0.599996	-0.1515	1.002	-0.0735	0	320	265	3
2026-02-23	16:54:09.410	64.225	30.975	-44.555	0.790316	-0.542412	-0.424072	-0.1485	1.0035	-0.0765	0	324	317	3
2026-02-23	16:54:09.430	41.44	32.69	-47.04	0.805932	-0.798124	-0.581696	-0.171	0.9975	-0.093	0	324	317	3
2026-02-23	16:54:09.450	24.01	33.005	-47.74	0.749324	-0.766892	-0.365268	-0.18	0.993	-0.1005	0	324	317	3
2026-02-23	16:54:09.470	15.435	33.495	-49.175	0.690032	-0.149328	-0.255956	-0.183	0.987	-0.111	0	324	317	3
2026-02-23	16:54:09.490	-46.9	30.555	-55.86	0.6771	-0.725412	-0.607804	-0.183	0.987	-0.111	0	324	317	3
2026-02-23	16:54:09.510	-19.005	21.805	-62.09	0.64782	-0.828868	-0.554612	-0.1935	0.981	-0.1125	0	324	317	3
2026-02-23	16:54:09.530	25.41	10.465	-57.715	0.660752	-0.728096	-0.294264	-0.2025	0.975	-0.114	0	324	317	3
2026-02-23	16:54:09.550	37.94	8.505	-58.73	0.620248	-0.454084	-0.156892	-0.2055	0.966	-0.1155	0	324	317	3
2026-02-23	16:54:09.570	19.18	11.34	-63.14	0.676612	-0.2989	-0.07905599	-0.213	0.9585	-0.12	0	324	317	3
2026-02-23	16:54:09.590	-39.515	18.9	-60.165	0.714432	-0.865956	-0.33672	-0.2175	0.96	-0.123	0	324	317	3
2026-02-23	16:54:09.610	-7	18.55	-56.455	0.658312	-0.4087	-0.069296	-0.2355	0.9435	-0.1275	0	327	359	2
2026-02-23	16:54:09.630	-24.15	21.77	-57.785	0.651724	-0.589504	-0.351116	-0.246	0.9375	-0.123	0	327	359	2
2026-02-23	16:54:09.650	4.795	24.71	-64.19	0.744444	-0.37942	-0.286944	-0.2445	0.939	-0.126	0	327	359	2
2026-02-23	16:54:09.670	-14.315	24.5	-66.5	0.735172	-0.529236	-0.349164	-0.2535	0.9225	-0.1305	0	327	359	2
2026-02-23	16:54:09.690	-6.86	19.81	-63.56	0.759084	-0.692716	-0.337452	-0.2565	0.915	-0.129	0	327	359	2
2026-02-23	16:54:09.710	-1.995	13.3	-57.68	0.711992	-0.681736	-0.278892	-0.264	0.918	-0.1305	0	327	359	2
2026-02-23	16:54:09.730	21.315	9.59	-56.7	0.7686	-0.351116	-0.185928	-0.2655	0.9015	-0.1335	0	327	359	2
2026-02-23	16:54:09.750	-4.655	12.425	-56.945	0.785192	-0.439444	-0.281088	-0.276	0.8955	-0.1275	0	327	359	2
2026-02-23	16:54:09.770	-6.65	7.42	-55.895	0.71736	-0.325984	-0.127612	-0.2835	0.891	-0.138	0	327	359	2
2026-02-23	16:54:09.790	-14.595	1.47	-56.875	0.68442	-0.416752	-0.384544	-0.2895	0.8805	-0.1365	0	327	359	2
2026-02-23	16:54:09.810	9.625	-2.03	-63.035	0.670756	-0.256444	-0.14884	-0.297	0.8685	-0.1365	0	328	367	2
2026-02-23	16:54:09.830	-14.245	-4.97	-62.545	0.698816	-0.257176	-0.13542	-0.297	0.8595	-0.135	0	328	367	2
2026-02-23	16:54:09.850	-27.755	-3.255	-58.66	0.7869	-0.643672	-0.269376	-0.2985	0.852	-0.132	0	328	367	2
2026-02-23	16:54:09.870	10.92	-2.205	-52.115	0.821548	-0.42944	0.000976	-0.3075	0.8505	-0.1305	0	328	367	2
2026-02-23	16:54:09.890	6.195	1.33	-43.085	0.736148	-0.288896	-0.185196	-0.3165	0.843	-0.132	0	328	367	2
2026-02-23	16:54:09.910	-4.585	3.78	-38.325	0.860588	-0.557296	-0.232776	-0.318	0.837	-0.1335	0	328	367	2
2026-02-23	16:54:09.930	3.115	3.115	-31.885	0.84302	-0.244732	-0.225456	-0.3225	0.8325	-0.1335	0	328	367	2
2026-02-23	16:54:09.950	-9.38	5.95	-24.22	0.8113	-0.270352	-0.286212	-0.3255	0.828	-0.138	0	328	367	2
2026-02-23	16:54:09.970	-4.97	6.615	-19.18	0.895236	-0.582428	-0.386008	-0.3255	0.828	-0.138	0	328	367	2
2026-02-23	16:54:09.990	12.775	13.125	-17.885	0.829844	-0.245708	-0.178608	-0.324	0.8205	-0.138	0	328	367	2
2026-02-23	16:54:10.010	-21.735	13.545	-10.15	0.880596	-0.164456	-0.474336	-0.3195	0.8085	-0.138	0	325	348	2
2026-02-23	16:54:10.030	-16.135	14.84	-13.79	0.939888	-0.354776	-0.450668	-0.3225	0.8175	-0.138	0	325	348	2
2026-02-23	16:54:10.050	5.285	13.79	-21.98	0.951112	-0.170068	-0.350628	-0.3285	0.81	-0.1455	0	325	348	2
2026-02-23	16:54:10.070	-14.315	7.84	-25.97	1.006744	-0.232532	-0.506056	-0.33	0.807	-0.1365	0	325	348	2
2026-02-23	16:54:10.090	-20.72	8.155	-30.135	0.949648	-0.262788	-0.398208	-0.336	0.8025	-0.1515	0	325	348	2
2026-02-23	16:54:10.110	-18.445	4.095	-31.745	1.05408	-0.356972	-0.30012	-0.3225	0.807	-0.147	0	325	348	2
2026-02-23	16:54:10.130	-17.85	7.525	-33.32	0.987712	-0.227408	-0.167872	-0.339	0.8085	-0.1425	0	325	348	2
2026-02-23	16:54:10.150	-35.245	8.68	-32.41	0.823256	-0.31476	-0.50142	-0.3375	0.7995	-0.1425	0	325	348	2
2026-02-23	16:54:10.170	-10.605	-1.295	-39.41	0.863272	-0.295728	-0.549	-0.336	0.7905	-0.1425	0	325	348	2
2026-02-23	16:54:10.190	24.045	-7.245	-48.65	0.779092	0.038064	-0.336964	-0.3315	0.786	-0.147	0	325	348	2
2026-02-23	16:54:10.210	22.12	-18.445	-57.96	0.696864	0.01952	-0.456524	-0.3465	0.783	-0.141	0	321	334	3
2026-02-23	16:54:10.230	18.095	-31.36	-59.08	0.722728	-0.315492	-0.332328	-0.3435	0.7635	-0.141	0	321	334	3
2026-02-23	16:54:10.250	51.555	-21.735	-66.57	0.630008	-0.06954	0.076128	-0.345	0.759	-0.138	0	321	334	3
2026-02-23	16:54:10.270	-8.995	-35.665	-52.78	0.793732	-0.340136	-0.45018	-0.354	0.7545	-0.1365	0	321	334	3
2026-02-23	16:54:10.290	1.68	-20.65	-52.64	0.74664	-0.299876	-0.121268	-0.3525	0.7395	-0.1335	0	321	334	3
2026-02-23	16:54:10.310	-11.165	-12.04	-40.145	0.620248	-0.216428	-0.162748	-0.354	0.726	-0.132	0	321	334	3
2026-02-23	16:54:10.330	-18.375	-14.315	-23.52	0.571204	-0.50874	-0.050264	-0.3555	0.7215	-0.129	0	321	334	3
2026-02-23	16:54:10.350	-6.79	-13.055	-6.09	0.459208	-0.35746	0.029524	-0.3615	0.7155	-0.126	0	321	334	3
2026-02-23	16:54:10.370	-20.16	-16.065	17.85	0.472628	-0.690276	-0.181292	-0.36	0.7185	-0.126	0	321	334	3
2026-02-23	16:54:10.390	-14.91	-20.86	36.12	0.602924	-0.630984	-0.20008	-0.3585	0.717	-0.12	0	321	334	3
2026-02-23	16:54:10.410	-1.925	-40.39	49.805	0.859368	-0.36112	-0.338184	-0.3585	0.723	-0.1125	0	317	323	3
2026-02-23	16:54:10.430	-10.115	-54.39	49.49	1.125572	0.000976	-0.492636	-0.3555	0.7335	-0.111	0	317	323	3
2026-02-23	16:54:10.450	-16.835	-47.6	29.085	1.179496	0.16958	-0.51118	-0.357	0.741	-0.1065	0	317	323	3
2026-02-23	16:54:10.470	-46.725	-16.695	23.17	0.736392	-0.349652	-0.491904	-0.3555	0.7485	-0.099	0	317	323	3
2026-02-23	16:54:10.490	-50.05	-34.755	24.78	0.82106	-0.647332	-0.577792	-0.354	0.7545	-0.0885	0	317	323	3
2026-02-23	16:54:10.510	-53.48	-28.98	27.265	0.872544	0.187148	-0.105408	-0.3555	0.759	-0.084	0	317	323	3
2026-02-23	16:54:10.530	-96.425	-17.255	26.39	0.706868	-0.0366	-0.344528	-0.348	0.756	-0.078	0	317	323	3
2026-02-23	16:54:10.550	-100.485	-9.24	21.735	0.522648	-0.441884	-0.555832	-0.3495	0.765	-0.0675	0	317	323	3
2026-02-23	16:54:10.570	-54.705	-16.03	14.7	0.744932	-0.540704	-0.417728	-0.3495	0.765	-0.0615	0	317	323	3
2026-02-23	16:54:10.590	-25.445	-18.655	14.105	0.9211	-0.5185	-0.447008	-0.354	0.7695	-0.0615	0	317	323	3
2026-02-23	16:54:10.610	-22.82	-3.78	16.8	0.728828	-0.500688	-0.55998	-0.3465	0.7665	-0.0555	0	316	321	3
2026-02-23	16:54:10.630	-18.55	1.33	21.56	0.548512	-0.49044	-0.69662	-0.3465	0.768	-0.0525	0	316	321	3
2026-02-23	16:54:10.650	5.11	-7.91	17.64	0.886452	-0.272548	-0.226188	-0.3405	0.7755	-0.051	0	316	321	3
2026-02-23	16:54:10.670	11.2	8.75	35.14	0.726632	-0.86986	-0.30866	-0.3435	0.774	-0.054	0	316	321	3
2026-02-23	16:54:10.690	24.29	-8.54	42.28	1.115324	-0.300364	-0.582428	-0.3435	0.774	-0.054	0	316	321	3
2026-02-23	16:54:10.710	3.71	20.195	52.15	0.767868	-0.333304	-0.179828	-0.3435	0.7815	-0.0525	0	316	321	3
2026-02-23	16:54:10.730	22.785	11.62	59.395	0.854488	-0.221064	-0.231556	-0.3405	0.795	-0.054	0	316	321	3
2026-02-23	16:54:10.750	38.815	6.475	51.345	1.003328	-0.499956	-0.335988	-0.336	0.804	-0.054	0	316	321	3
2026-02-23	16:54:10.770	35.735	21.42	55.405	0.848388	-0.759816	-0.294508	-0.33	0.81	-0.06	0	316	321	3
2026-02-23	16:54:10.790	12.915	32.34	67.2	0.593652	-0.647088	-0.320128	-0.327	0.8205	-0.0675	0	316	321	3
2026-02-23	16:54:10.810	25.445	15.75	72.52	0.997228	-0.42456	-0.38308	-0.3225	0.8295	-0.0735	0	318	335	3
2026-02-23	16:54:10.830	15.015	39.725	79.1	0.722484	-0.778604	-0.02318	-0.3135	0.8385	-0.0795	0	318	335	3
2026-02-23	16:54:10.850	7	49.245	92.505	0.126392	-0.604632	-1.189256	-0.309	0.852	-0.0825	0	318	335	3
2026-02-23	16:54:10.870	-2.135	-2.275	67.06	0.754204	-0.017812	-0.638792	-0.3105	0.8595	-0.0855	0	318	335	3
2026-02-23	16:54:10.890	-17.745	-0.595	67.655	0.822524	-0.091744	-0.467504	-0.2985	0.87	-0.0825	0	318	335	3
2026-02-23	16:54:10.910	-25.655	-10.92	47.915	0.915488	-0.077592	-0.743956	-0.288	0.888	-0.081	0	318	335	3
2026-02-23	16:54:10.930	-25.9	-15.295	38.395	0.726144	-0.321348	-0.873276	-0.2835	0.897	-0.0795	0	318	335	3
2026-02-23	16:54:10.950	-18.48	-24.5	28.63	0.78934	-0.447984	-0.664656	-0.279	0.897	-0.075	0	318	335	3
2026-02-23	16:54:10.970	-27.44	-43.19	28.665	1.038952	-0.55754	-0.878156	-0.279	0.9015	-0.0705	0	318	335	3
2026-02-23	16:54:10.990	-24.22	-37.275	28.14	1.172908	-0.422364	-0.451156	-0.2775	0.9075	-0.0615	0	318	335	3
2026-02-23	16:54:11.010	-43.89	-15.015	35.7	0.83204	-0.482632	-0.546316	-0.273	0.906	-0.0585	0	325	368	3
2026-02-23	16:54:11.030	-23.345	-26.88	36.225	1.05774	-0.303292	-0.63196	-0.2655	0.909	-0.054	0	325	368	3
2026-02-23	16:54:11.050	-41.405	-16.8	31.29	0.560224	-0.410652	-0.579012	-0.261	0.915	-0.051	0	325	368	3
2026-02-23	16:54:11.070	-36.645	-30.66	25.585	0.887672	-0.28792	-0.603656	-0.261	0.915	-0.051	0	325	368	3
2026-02-23	16:54:11.090	-75.145	-14.77	27.545	0.84912	-0.566324	-0.388692	-0.255	0.921	-0.0345	0	325	368	3
2026-02-23	16:54:11.110	-50.75	-22.015	29.085	1.056276	-0.419436	-0.410652	-0.2535	0.927	-0.027	0	325	368	3
2026-02-23	16:54:11.130	-0.735	-18.55	15.015	1.068232	-0.168116	-0.193004	-0.249	0.924	-0.0225	0	325	368	3
2026-02-23	16:54:11.150	-20.93	-0.35	15.75	0.57828	-0.4819	-0.445056	-0.243	0.9255	-0.018	0	325	368	3
2026-02-23	16:54:11.170	-28.805	-3.29	15.33	0.7503	-0.5673	-0.5429	-0.2475	0.927	-0.012	0	325	368	3
2026-02-23	16:54:11.190	-25.41	-5.005	18.55	1.019188	-0.560224	-0.248392	-0.246	0.9315	-0.0135	0	325	368	3
2026-02-23	16:54:11.210	-18.76	4.2	25.375	0.774944	-0.462624	-0.13298	-0.228	0.93	-0.0075	0	332	409	3
2026-02-23	16:54:11.230	-17.15	12.915	34.125	0.508252	-0.61244	-0.445544	-0.2415	0.93	-0.0045	0	332	409	3
2026-02-23	16:54:11.250	-2.24	11.235	34.16	0.712236	-0.488488	-0.398208	-0.234	0.933	-0.006	0	332	409	3
2026-02-23	16:54:11.270	9.135	17.85	37.695	0.648308	-0.470676	-0.004636	-0.2235	0.9405	-0.009	0	332	409	3
2026-02-23	16:54:11.290	6.545	12.81	49.315	0.80154	-0.473848	-0.313296	-0.2205	0.9435	-0.0165	0	332	409	3
2026-02-23	16:54:11.310	5.04	17.64	52.64	0.638304	-0.61122	-0.416508	-0.219	0.948	-0.018	0	332	409	3
2026-02-23	16:54:11.330	8.435	10.29	52.99	0.720776	-0.490196	-0.546072	-0.2115	0.9555	-0.0135	0	332	409	3
2026-02-23	16:54:11.350	5.81	12.495	50.015	0.783484	-0.41724	-0.378444	-0.201	0.963	-0.0165	0	332	409	3
2026-02-23	16:54:11.370	2.8	18.445	52.29	0.5673	-0.55144	-0.204228	-0.198	0.9675	-0.018	0	332	409	3
2026-02-23	16:54:11.390	7.98	13.615	59.185	0.696864	-0.59658	-0.527528	-0.1935	0.9735	-0.021	0	332	409	3
2026-02-23	16:54:11.410	6.65	8.96	54.425	0.819108	-0.514352	-0.537288	-0.1875	0.981	-0.0225	0	338	425	3
2026-02-23	16:54:11.430	4.13	26.915	48.79	0.776164	-0.409676	-0.113948	-0.186	0.981	-0.024	0	338	425	3
2026-02-23	16:54:11.450	-0.385	26.005	55.44	0.768844	-0.49654	-0.535092	-0.177	0.9915	-0.03	0	338	425	3
2026-02-23	16:54:11.470	10.43	23.1	46.41	0.85522	-0.308416	-0.378932	-0.162	0.999	-0.0255	0	338	425	3
2026-02-23	16:54:11.490	-11.41	19.215	46.83	0.817888	-0.427	-0.557784	-0.1605	1.0005	-0.03	0	338	425	3
2026-02-23	16:54:11.510	-23.24	11.83	45.15	0.718092	-0.5307	-0.679052	-0.15	1.0065	-0.027	0	338	425	3
2026-02-23	16:54:11.530	-21.595	0.735	40.705	0.894016	-0.404552	-0.590968	-0.15	1.005	-0.0255	0	338	425	3
2026-02-23	16:54:11.550	-15.05	-1.715	31.92	0.865956	-0.37332	-0.44042	-0.1395	1.008	-0.03	0	338	425	3
2026-02-23	16:54:11.570	-13.65	-11.445	30.03	1.007476	-0.6771	-0.624884	-0.1365	1.008	-0.03	0	338	425	3
2026-02-23	16:54:11.590	9.135	-1.435	24.955	1.067256	-0.552904	-0.476532	-0.132	1.0095	-0.0255	0	338	425	3
2026-02-23	16:54:11.610	-1.365	13.755	22.82	1.17974	-0.377956	-0.143716	-0.129	1.011	-0.021	0	340	430	3
2026-02-23	16:54:11.630	-37.45	14.315	9.59	1.295884	0.073688	-0.882304	-0.126	1.0185	-0.0225	0	340	430	3
2026-02-23	16:54:11.650	-20.825	12.88	-1.715	1.041636	-0.371856	-0.576572	-0.1275	1.005	-0.0225	0	340	430	3
2026-02-23	16:54:11.670	-15.855	15.715	-3.185	0.778116	-0.670268	-0.416508	-0.1215	1.02	-0.027	0	340	430	3
2026-02-23	16:54:11.690	-40.81	19.775	2.73	0.606584	-1.003084	-0.588528	-0.126	1.008	-0.024	0	340	430	3
2026-02-23	16:54:11.710	-11.69	25.27	4.69	0.593164	-0.909388	-0.499468	-0.1185	1.014	-0.018	0	340	430	3
2026-02-23	16:54:11.730	10.71	26.81	8.085	0.663436	-0.690032	-0.399672	-0.126	1.011	-0.024	0	340	430	3
2026-02-23	16:54:11.750	-6.51	24.36	9.555	0.702964	-0.560224	-0.51484	-0.1155	1.0125	-0.0225	0	340	430	3
2026-02-23	16:54:11.770	-15.575	17.955	7.28	0.781044	-0.49776	-0.549488	-0.1215	1.02	-0.018	0	340	430	3
2026-02-23	16:54:11.790	-22.785	11.9	2.205	0.718092	-0.43676	-0.514352	-0.1215	1.02	-0.018	0	340	430	3
2026-02-23	16:54:11.810	-11.025	9.275	-4.69	0.840092	-0.464576	-0.417728	-0.123	1.0185	-0.018	0	340	443	3
2026-02-23	16:54:11.830	-19.6	7.455	-10.535	0.876692	-0.333548	-0.606584	-0.1245	1.02	-0.021	0	340	443	3
2026-02-23	16:54:11.850	-24.955	5.39	-15.015	0.973072	-0.557784	-0.504348	-0.126	1.02	-0.018	0	340	443	3
2026-02-23	16:54:11.870	-23.485	7.175	-14.455	0.935008	-0.540948	-0.471408	-0.132	1.0155	-0.012	0	340	443	3
2026-02-23	16:54:11.890	-19.565	8.365	-15.645	0.912804	-0.398696	-0.504348	-0.132	1.0095	-0.0105	0	340	443	3
2026-02-23	16:54:11.910	-18.9	8.645	-18.445	0.940132	-0.460672	-0.48068	-0.1365	1.008	-0.0075	0	340	443	3
2026-02-23	16:54:11.930	-12.95	13.72	-22.4	0.814716	-0.375516	-0.422852	-0.1425	1.0095	-0.006	0	340	443	3
2026-02-23	16:54:11.950	-9.1	11.62	-28.455	0.907436	-0.376004	-0.514596	-0.1425	1.011	-0.003	0	340	443	3
2026-02-23	16:54:11.970	0.77	15.575	-36.085	0.891088	-0.36722	-0.404308	-0.144	1.0125	0	0	340	443	3
2026-02-23	16:54:11.990	-11.27	19.705	-40.005	0.784216	-0.166652	-0.3904	-0.147	1.008	-0.0105	0	340	443	3
2026-02-23	16:54:12.010	-29.785	18.585	-42.105	0.940376	-0.492148	-0.460184	-0.156	0.996	-0.0045	0	335	458	3
2026-02-23	16:54:12.030	-20.475	26.985	-43.995	0.917196	-0.564128	-0.356484	-0.165	0.9945	-0.0075	0	335	458	3
2026-02-23	16:54:12.050	-9.765	29.19	-42.35	0.84424	-0.360632	-0.37332	-0.1665	0.993	-0.012	0	335	458	3
2026-02-23	16:54:12.070	-13.44	35.035	-45.885	0.787632	-0.460428	-0.47336	-0.174	0.99	-0.012	0	335	458	3
2026-02-23	16:54:12.090	-9.905	34.475	-45.395	0.876936	-0.355996	-0.5002	-0.189	0.981	-0.0135	0	335	458	3
2026-02-23	16:54:12.110	-19.11	36.61	-42.91	0.77836	-0.589504	-0.460916	-0.1905	0.9765	-0.0135	0	335	458	3
2026-02-23	16:54:12.130	4.69	37.275	-44.485	0.838384	-0.439932	-0.345992	-0.198	0.9765	-0.021	0	335	458	3
2026-02-23	16:54:12.150	-14.7	38.045	-42.91	0.723704	-0.509472	-0.465064	-0.21	0.9705	-0.0135	0	335	458	3
2026-02-23	16:54:12.170	-0.455	37.485	-40.18	0.714676	-0.37454	-0.335744	-0.2115	0.963	-0.018	0	335	458	3
2026-02-23	16:54:12.190	-11.235	33.005	-34.3	0.872788	-0.461892	-0.444568	-0.216	0.951	-0.0255	0	335	458	3
2026-02-23	16:54:12.210	-3.64	44.275	-35.245	0.730536	-0.354288	-0.360632	-0.2235	0.9495	-0.0285	0	325	463	3
2026-02-23	16:54:12.230	3.745	41.58	-35.14	0.647088	-0.280356	-0.537288	-0.2265	0.9525	-0.0345	0	325	463	3
2026-02-23	16:54:12.250	10.325	34.93	-41.3	0.759572	-0.266936	-0.517768	-0.228	0.9525	-0.0375	0	325	463	3
2026-02-23	16:54:12.270	-12.565	33.46	-43.68	0.76982	-0.200324	-0.353556	-0.228	0.9525	-0.0375	0	325	463	3
2026-02-23	16:54:12.290	-22.085	29.435	-42.875	0.739076	-0.380884	-0.5246	-0.246	0.942	-0.045	0	325	463	3
2026-02-23	16:54:12.310	-6.755	33.04	-49	0.72102	-0.334036	-0.244	-0.2505	0.9405	-0.0465	0	325	463	3
2026-02-23	16:54:12.330	-7.63	24.36	-45.85	0.904752	-0.45506	-0.380152	-0.2475	0.9345	-0.057	0	325	463	3
2026-02-23	16:54:12.350	-25.865	25.69	-37.59	0.96136	-0.4697	-0.423828	-0.255	0.9285	-0.057	0	325	463	3
2026-02-23	16:54:12.370	-24.185	35.735	-33.25	0.781532	-0.356484	-0.358192	-0.267	0.918	-0.057	0	325	463	3
2026-02-23	16:54:12.390	-17.99	29.085	-30.38	0.840824	-0.419192	-0.391132	-0.2715	0.9105	-0.057	0	325	463	3
2026-02-23	16:54:12.410	-8.365	31.395	-30.905	0.770796	-0.436272	-0.355264	-0.276	0.909	-0.057	0	311	459	1
2026-02-23	16:54:12.430	-10.78	23.205	-26.635	0.88084	-0.371856	-0.457012	-0.282	0.909	-0.057	0	311	459	1
2026-02-23	16:54:12.450	-15.89	31.78	-25.655	0.73444	-0.245464	-0.300608	-0.2895	0.903	-0.063	0	311	459	1
2026-02-23	16:54:12.470	-25.235	22.085	-22.26	0.81984	-0.38186	-0.406748	-0.288	0.8985	-0.0675	0	311	459	1
2026-02-23	16:54:12.490	-19.32	24.57	-26.11	0.743468	-0.377468	-0.355508	-0.2865	0.8955	-0.069	0	311	459	1
2026-02-23	16:54:12.510	5.88	15.47	-26.635	0.874496	-0.390156	-0.336964	-0.288	0.894	-0.072	0	311	459	1
2026-02-23	16:54:12.530	17.22	16.8	-28.385	0.923784	-0.148596	-0.10004	-0.288	0.894	-0.072	0	311	459	1
2026-02-23	16:54:12.550	-10.115	22.435	-28.21	0.7076	-0.197884	-0.335256	-0.3015	0.8865	-0.0825	0	311	459	1
2026-02-23	16:54:12.570	1.785	3.08	-29.715	1.042612	-0.460672	-0.215696	-0.3015	0.882	-0.078	0	311	459	1
2026-02-23	16:54:12.590	14.49	11.69	-34.895	0.965996	-0.126148	-0.179828	-0.309	0.8805	-0.0795	0	311	459	1
2026-02-23	16:54:12.610	-11.48	16.415	-29.89	0.825696	-0.322324	-0.54046	-0.3045	0.87	-0.084	0	295	442	3
2026-02-23	16:54:12.630	0.07	9.03	-33.32	1.05408	-0.27816	-0.2806	-0.306	0.876	-0.072	0	295	442	3
2026-02-23	16:54:12.650	-2.135	12.04	-38.64	1.013576	0.001952	-0.248636	-0.312	0.8715	-0.084	0	295	442	3
2026-02-23	16:54:12.670	-25.515	7.28	-37.345	0.895968	-0.197152	-0.543144	-0.318	0.8625	-0.0855	0	295	442	3
2026-02-23	16:54:12.690	-7.49	6.51	-49.21	0.807884	-0.185196	-0.341844	-0.3135	0.858	-0.09	0	295	442	3
2026-02-23	16:54:12.710	8.4	-13.685	-51.275	1.087996	-0.347944	-0.364536	-0.318	0.8475	-0.0915	0	295	442	3
2026-02-23	16:54:12.730	21.63	-10.535	-59.36	0.912316	-0.114436	-0.302072	-0.324	0.837	-0.0885	0	295	442	3
2026-02-23	16:54:12.750	20.055	-11.9	-54.18	0.860832	-0.198372	-0.338184	-0.33	0.8295	-0.09	0	295	442	3
2026-02-23	16:54:12.770	-2.975	-14.14	-49.945	0.851804	-0.3294	-0.154452	-0.342	0.8205	-0.0945	0	295	442	3
2026-02-23	16:54:12.790	-2.8	3.535	-38.325	0.535824	-0.40748	-0.33672	-0.3465	0.8145	-0.0885	0	295	442	3
2026-02-23	16:54:12.810	7.7	-8.505	-25.725	0.613416	-0.484584	-0.127856	-0.345	0.8025	-0.0855	0	281	417	3
2026-02-23	16:54:12.830	25.13	-15.855	-18.585	0.55022	-0.191296	-0.369904	-0.342	0.7995	-0.0885	0	281	417	3
2026-02-23	16:54:12.850	21.28	-19.95	-5.53	0.477752	-0.346968	-0.413092	-0.3405	0.804	-0.0855	0	281	417	3
2026-02-23	16:54:12.870	35.07	-29.4	5.88	0.397232	-0.417728	-0.36356	-0.342	0.8025	-0.081	0	281	417	3
2026-02-23	16:54:12.890	21.98	-51.87	29.505	0.476532	-0.24156	0.005124	-0.342	0.801	-0.081	0	281	417	3
2026-02-23	16:54:12.910	3.045	-56.84	48.65	0.61244	-0.315004	-0.133468	-0.3435	0.8115	-0.075	0	281	417	3
2026-02-23	16:54:12.930	1.61	-66.01	55.72	0.984296	-0.001464	-0.471164	-0.3405	0.8205	-0.0615	0	281	417	3
2026-02-23	16:54:12.950	11.34	-79.17	20.72	1.584048	0.396012	-0.352092	-0.3405	0.8205	-0.0615	0	281	417	3
2026-02-23	16:54:12.970	-19.95	-26.95	23.59	1.057984	-0.230824	-0.255712	-0.3375	0.822	-0.054	0	281	417	3
2026-02-23	16:54:12.990	-33.005	-11.62	26.985	0.86254	-0.543144	-0.220332	-0.333	0.831	-0.0405	0	281	417	3
2026-02-23	16:54:13.010	-39.585	-16.8	28.21	1.155096	-0.515328	-0.239364	-0.3255	0.834	-0.0345	0	272	389	3
2026-02-23	16:54:13.030	-39.62	3.185	30.555	1.120692	-0.208132	-0.321592	-0.3225	0.8355	-0.0315	0	272	389	3
2026-02-23	16:54:13.050	-37.73	15.33	23.275	1.065304	-0.118096	-0.543632	-0.3225	0.837	-0.03	0	272	389	3
2026-02-23	16:54:13.070	-10.36	23.03	20.58	0.848632	-0.2501	-0.43188	-0.3225	0.8355	-0.033	0	272	389	3
2026-02-23	16:54:13.090	21.42	25.69	16.1	0.854488	-0.024644	-0.133712	-0.3255	0.8415	-0.036	0	272	389	3
2026-02-23	16:54:13.110	26.915	28.945	19.04	0.869616	-0.384056	-0.193004	-0.3135	0.8445	-0.033	0	272	389	3
2026-02-23	16:54:13.130	14.42	42.49	32.83	0.578768	-0.6649	-0.506788	-0.318	0.852	-0.042	0	272	389	3
2026-02-23	16:54:13.150	6.79	35.07	45.15	0.566812	-0.512888	-0.365268	-0.315	0.8595	-0.051	0	272	389	3
2026-02-23	16:54:13.170	-5.67	25.305	65.065	0.578524	-0.672708	-0.361852	-0.3135	0.8535	-0.057	0	272	389	3
2026-02-23	16:54:13.190	-11.41	21.42	80.325	0.405528	-0.705404	-0.390644	-0.315	0.8715	-0.0585	0	272	389	3
2026-02-23	16:54:13.210	2.695	-2.94	80.15	0.696376	-0.0976	-0.284992	-0.3045	0.8835	-0.057	0	270	368	3
2026-02-23	16:54:13.230	-12.705	-6.195	76.86	0.714188	-0.064904	-0.186904	-0.297	0.8895	-0.0615	0	270	368	3
2026-02-23	16:54:13.250	3.605	-32.515	51.45	1.366888	0.2684	-0.271572	-0.2925	0.9045	-0.0585	0	270	368	3
2026-02-23	16:54:13.270	-10.92	-7.665	42.245	0.946232	-0.062708	-0.433832	-0.2835	0.915	-0.054	0	270	368	3
2026-02-23	16:54:13.290	-15.925	-16.52	35.385	1.004304	-0.242292	-0.748592	-0.273	0.9225	-0.048	0	270	368	3
2026-02-23	16:54:13.310	-28.245	-13.09	32.48	0.984052	-0.518744	-0.51606	-0.2745	0.9225	-0.0495	0	270	368	3
2026-02-23	16:54:13.330	-28.63	-9.555	43.82	0.762988	-0.513132	-0.412116	-0.2685	0.927	-0.045	0	270	368	3
2026-02-23	16:54:13.350	-5.775	-10.08	35.63	0.96868	-0.163724	-0.375516	-0.2565	0.933	-0.039	0	270	368	3
2026-02-23	16:54:13.370	-31.605	16.31	42	0.444568	-0.661484	-0.52094	-0.255	0.9375	-0.0405	0	270	368	3
2026-02-23	16:54:13.390	-33.18	2.38	46.305	0.44042	-0.671	-0.585356	-0.2565	0.9375	-0.036	0	270	368	3
2026-02-23	16:54:13.410	-2.905	-32.9	41.685	1.18828	-0.260592	-0.19764	-0.249	0.9405	-0.0315	0	276	363	3
2026-02-23	16:54:13.430	-33.495	-3.045	40.985	0.73688	-0.420656	-0.424804	-0.2415	0.945	-0.03	0	276	363	3
2026-02-23	16:54:13.450	-22.225	-6.16	37.695	0.633668	-0.58804	-0.353312	-0.2415	0.945	-0.03	0	276	363	3
2026-02-23	16:54:13.470	-29.225	-4.34	42.875	0.563884	-0.619516	-0.360876	-0.2295	0.963	-0.0225	0	276	363	3
2026-02-23	16:54:13.490	-10.045	-28	40.985	1.06628	-0.476776	-0.298656	-0.219	0.957	-0.0135	0	276	363	3
2026-02-23	16:54:13.510	-14.455	-6.65	37.205	0.911828	-0.439932	-0.404308	-0.222	0.9675	-0.0135	0	276	363	3
2026-02-23	16:54:13.530	-37.275	-2.73	43.715	0.842044	-0.704428	-0.443348	-0.2145	0.9675	-0.009	0	276	363	3
2026-02-23	16:54:13.550	-35.665	2.24	50.295	0.659776	-0.415044	-0.348188	-0.21	0.975	-0.0045	0	276	363	3
2026-02-23	16:54:13.570	-19.145	-10.815	45.29	0.875716	-0.276208	-0.31842	-0.195	0.9825	-0.003	0	276	363	3
2026-02-23	16:54:13.590	-17.01	-5.215	32.585	0.863516	-0.229848	-0.470188	-0.1965	0.972	0.003	0	276	363	3
2026-02-23	16:54:13.610	-15.96	-7.98	21.28	0.813008	-0.232532	-0.31232	-0.192	0.9825	0.0075	0	285	371	3
2026-02-23	16:54:13.630	-32.725	-18.585	25.34	0.660508	-0.664656	-0.467748	-0.192	0.9825	0.0075	0	285	371	3
2026-02-23	16:54:13.650	-12.635	-15.295	18.655	0.885232	-0.597068	-0.589748	-0.1845	0.987	0.009	0	285	371	3
2026-02-23	16:54:13.670	-29.82	-6.93	20.545	0.972096	-0.865712	-0.505568	-0.1905	0.9885	0.018	0	285	371	3
2026-02-23	16:54:13.690	-31.71	2.1	34.825	1.018944	-0.49166	-0.667096	-0.1755	0.9975	0.0105	0	285	371	3
2026-02-23	16:54:13.710	-14.21	10.395	39.62	0.715652	-0.43188	-0.138348	-0.1815	0.987	0.0255	0	285	371	3
2026-02-23	16:54:13.730	-11.445	-2.73	43.33	0.838384	-0.331352	-0.464088	-0.174	0.996	0.0225	0	285	371	3
2026-02-23	16:54:13.750	-9.485	-0.56	32.585	0.656116	-0.262544	-0.759084	-0.165	0.996	0.024	0	285	371	3
2026-02-23	16:54:13.770	10.885	-9.66	17.85	0.748104	-0.16226	-0.328912	-0.162	0.999	0.027	0	285	371	3
2026-02-23	16:54:13.790	-17.5	-10.43	17.36	0.57828	-0.429928	-0.327204	-0.1695	1.0035	0.0195	0	285	371	3
2026-02-23	16:54:13.810	-13.65	-3.29	14.525	0.3904	-0.691008	-0.44774	-0.1605	1.0065	0.027	0	295	386	3
2026-02-23	16:54:13.830	15.155	-11.585	14.35	0.992836	-0.766404	-0.4575	-0.1515	1.008	0.0315	0	295	386	3
2026-02-23	16:54:13.850	19.46	12.04	26.635	0.878156	-0.673684	-0.180316	-0.15	1.005	0.03	0	295	386	3
2026-02-23	16:54:13.870	-15.225	16.52	45.99	0.73078	-0.784704	-0.232044	-0.1455	1.005	0.03	0	295	386	3
2026-02-23	16:54:13.890	-10.08	20.475	54.95	0.671488	-0.544608	-0.499712	-0.1365	1.011	0.0315	0	295	386	3
2026-02-23	16:54:13.910	5.67	16.52	45.5	0.998448	-0.22814	-0.297192	-0.126	1.0185	0.0315	0	295	386	3
2026-02-23	16:54:13.930	-14.14	20.3	41.72	0.660264	-0.118096	-0.139568	-0.1245	1.02	0.0285	0	295	386	3
2026-02-23	16:54:13.950	-26.215	15.645	39.795	0.489708	-0.467016	-0.580476	-0.1305	1.0185	0.0255	0	295	386	3
2026-02-23	16:54:13.970	-23.87	8.26	32.375	0.73078	-0.533872	-0.461648	-0.123	1.0215	0.0255	0	295	386	3
2026-02-23	16:54:13.990	-23.135	6.405	28.84	0.736392	-0.480436	-0.662216	-0.1155	1.0245	0.027	0	295	386	3
2026-02-23	16:54:14.010	5.11	4.97	24.5	0.690764	-0.45506	-0.483852	-0.117	1.023	0.036	0	305	398	3
2026-02-23	16:54:14.030	2.905	-1.4	24.115	0.933788	-0.33062	-0.371612	-0.1035	1.023	0.03	0	305	398	3
2026-02-23	16:54:14.050	-28.98	-3.465	22.995	0.77104	-0.489464	-0.633424	-0.105	1.0275	0.0255	0	305	398	3
2026-02-23	16:54:14.070	-18.095	-1.785	15.225	0.88206	-0.501176	-0.458964	-0.0945	1.0335	0.036	0	305	398	3
2026-02-23	16:54:14.090	-17.99	1.085	21.56	0.733952	-0.586088	-0.481168	-0.099	1.0275	0.036	0	305	398	3
2026-02-23	16:54:14.110	2.66	-1.785	24.955	0.8662	-0.471408	-0.433588	-0.0975	1.0245	0.036	0	305	398	3
2026-02-23	16:54:14.130	-0.35	-1.645	24.78	0.787388	-0.409676	-0.303536	-0.096	1.023	0.0375	0	305	398	3
2026-02-23	16:54:14.150	-9.975	-2.205	21.385	0.760548	-0.5063	-0.638792	-0.093	1.032	0.042	0	305	398	3
2026-02-23	16:54:14.170	20.72	-5.11	13.02	1.004792	-0.3843	-0.37088	-0.093	1.032	0.042	0	305	398	3
2026-02-23	16:54:14.190	5.285	-5.425	12.81	0.885964	-0.302804	-0.421876	-0.087	1.0305	0.036	0	305	398	3
2026-02-23	16:54:14.210	3.955	-7.595	7.875	0.839116	-0.396988	-0.547292	-0.0795	1.032	0.0345	0	312	412	1
2026-02-23	16:54:14.230	6.23	-5.705	2.415	0.804956	-0.60268	-0.589748	-0.0765	1.035	0.039	0	312	412	1
2026-02-23	16:54:14.250	5.145	-1.75	3.43	0.891576	-0.640744	-0.589748	-0.078	1.0365	0.0405	0	312	412	1
2026-02-23	16:54:14.270	5.635	1.82	7.07	0.929396	-0.50386	-0.526064	-0.0795	1.041	0.036	0	312	412	1
2026-02-23	16:54:14.290	-1.96	6.405	9.8	0.869372	-0.527528	-0.456036	-0.0795	1.0425	0.036	0	312	412	1
2026-02-23	16:54:14.310	-5.39	11.55	13.895	0.722728	-0.609756	-0.4514	-0.081	1.0425	0.039	0	312	412	1
2026-02-23	16:54:14.330	-12.25	11.55	19.18	0.755668	-0.699792	-0.45506	-0.0765	1.044	0.0315	0	312	412	1
2026-02-23	16:54:14.350	-15.225	9.73	25.69	0.802516	-0.736148	-0.315004	-0.0765	1.044	0.0315	0	312	412	1
2026-02-23	16:54:14.370	-21.91	7.665	29.015	0.793244	-0.67954	-0.394792	-0.072	1.0395	0.036	0	312	412	1
2026-02-23	16:54:14.390	-5.005	10.395	27.335	0.740784	-0.622688	-0.282308	-0.06	1.041	0.0405	0	312	412	1
2026-02-23	16:54:14.410	3.01	9.8	24.815	0.851072	-0.5185	-0.41236	-0.054	1.0485	0.042	0	312	427	3
2026-02-23	16:54:14.430	3.57	9.275	20.335	0.88572	-0.549976	-0.39162	-0.0555	1.0485	0.0405	0	312	427	3
2026-02-23	16:54:14.450	13.86	8.68	16.975	0.8357	-0.366732	-0.336964	-0.0585	1.05	0.039	0	312	427	3
2026-02-23	16:54:14.470	6.055	3.045	5.355	1.05896	-0.39406	-0.370392	-0.057	1.047	0.039	0	312	427	3
2026-02-23	16:54:14.490	-26.53	3.5	4.865	0.987956	-0.505812	-0.668072	-0.057	1.047	0.0375	0	312	427	3
2026-02-23	16:54:14.510	15.82	4.865	-13.055	0.863028	-0.0915	-0.457988	-0.0525	1.05	0.0345	0	312	427	3
2026-02-23	16:54:14.530	33.845	10.885	-31.01	0.84912	-0.22936	-0.194224	-0.048	1.05	0.0345	0	312	427	3
2026-02-23	16:54:14.550	-12.04	17.045	-43.96	0.847656	-0.42578	-0.547292	-0.057	1.053	0.027	0	312	427	3
2026-02-23	16:54:14.570	-31.08	19.95	-52.115	0.879376	-0.654408	-0.571936	-0.0645	1.044	0.0255	0	312	427	3
2026-02-23	16:54:14.590	-11.76	21.105	-50.4	0.834724	-0.666608	-0.378932	-0.072	1.0425	0.0315	0	312	427	3
2026-02-23	16:54:14.610	13.965	23.135	-47.32	0.848388	-0.468236	-0.220332	-0.0825	1.0395	0.036	0	307	434	3
2026-02-23	16:54:14.630	-14.28	28.875	-42	0.848388	-0.694668	-0.507764	-0.0795	1.0395	0.0255	0	307	434	3
2026-02-23	16:54:14.650	9.975	42.28	-41.755	0.732	-0.48068	-0.114924	-0.105	1.035	0.0345	0	307	434	3
2026-02-23	16:54:14.670	-5.565	40.425	-35.14	0.755668	-0.6283	-0.654652	-0.1095	1.035	0.03	0	307	434	3
2026-02-23	16:54:14.690	9.17	39.445	-36.015	0.732732	-0.855708	-0.3904	-0.1035	1.0275	0.027	0	307	434	3
2026-02-23	16:54:14.710	15.4	28.91	-32.655	0.676368	-0.506056	-0.670268	-0.1155	1.026	0.0225	0	307	434	3
2026-02-23	16:54:14.730	41.265	27.79	-38.78	0.715408	-0.599996	-0.312564	-0.1245	1.0245	0.018	0	307	434	3
2026-02-23	16:54:14.750	20.335	16.765	-35.07	0.777872	-0.364292	-0.41236	-0.138	1.026	0.0075	0	307	434	3
2026-02-23	16:54:14.770	-14.35	11.515	-32.2	0.724436	-0.670756	-0.513132	-0.141	1.0245	0.0015	0	307	434	3
2026-02-23	16:54:14.790	13.545	9.625	-31.465	0.718336	-0.488244	-0.205936	-0.144	1.02	0.003	0	307	434	3
2026-02-23	16:54:14.810	4.935	8.785	-31.5	0.797148	-0.65148	-0.569252	-0.15	1.017	0.003	0	300	435	3
2026-02-23	16:54:14.830	28.735	15.47	-34.545	0.739564	-0.41968	-0.1647	-0.156	1.014	0	0	300	435	3
2026-02-23	16:54:14.850	-6.72	10.815	-30.17	0.831064	-0.552416	-0.704184	-0.159	1.014	-0.0045	0	300	435	3
2026-02-23	16:54:14.870	12.145	16.765	-34.545	0.912316	-0.54046	0.019764	-0.162	1.014	-0.0045	0	300	435	3
2026-02-23	16:54:14.890	-19.075	18.515	-30.1	0.744444	-0.353068	-0.395768	-0.162	1.014	-0.003	0	300	435	3
2026-02-23	16:54:14.910	5.355	16.73	-39.62	0.92232	-0.56608	-0.302316	-0.162	1.014	-0.003	0	300	435	3
2026-02-23	16:54:14.930	8.785	19.985	-42.49	0.8784	-0.377224	-0.310612	-0.18	0.9975	-0.0105	0	300	435	3
2026-02-23	16:54:14.950	-11.375	18.76	-39.795	0.865224	-0.589016	-0.515084	-0.1815	0.999	-0.0105	0	300	435	3
2026-02-23	16:54:14.970	19.215	26.565	-43.12	0.683444	-0.439932	-0.00366	-0.1935	0.9915	-0.0075	0	300	435	3
2026-02-23	16:54:14.990	0.21	18.69	-41.65	0.92964	-0.402844	-0.474092	-0.1905	0.9975	-0.0195	0	300	435	3
2026-02-23	16:54:15.010	3.08	21.7	-45.745	0.731268	-0.612928	-0.481656	-0.198	0.99	-0.0195	0	293	426	1
2026-02-23	16:54:15.030	34.09	21.595	-49.105	0.766648	-0.214476	-0.003172	-0.2025	0.9825	-0.024	0	293	426	1
2026-02-23	16:54:15.050	-20.825	12.46	-42.735	0.93452	-0.727852	-0.611464	-0.2025	0.9795	-0.027	0	293	426	1
2026-02-23	16:54:15.070	18.725	18.865	-48.3	0.82472	-0.361364	-0.060024	-0.213	0.975	-0.0285	0	293	426	1
2026-02-23	16:54:15.090	-8.61	10.92	-49.385	0.851316	-0.651236	-0.530212	-0.219	0.9705	-0.033	0	293	426	1
2026-02-23	16:54:15.110	34.405	11.34	-55.79	0.92598	-0.4636	-0.01098	-0.234	0.963	-0.0345	0	293	426	1
2026-02-23	16:54:15.130	20.055	7.035	-52.185	1.113616	-0.443592	-0.141032	-0.24	0.9615	-0.045	0	293	426	1
2026-02-23	16:54:15.150	16.59	12.145	-50.75	0.909876	-0.277916	-0.275476	-0.243	0.951	-0.045	0	293	426	1
2026-02-23	16:54:15.170	37.73	22.995	-53.97	0.757864	-0.305732	-0.074664	-0.255	0.9405	-0.045	0	293	426	1
2026-02-23	16:54:15.190	9.38	4.375	-53.55	1.167052	-0.672708	-0.424804	-0.2625	0.9375	-0.0495	0	293	426	1
2026-02-23	16:54:15.210	52.01	25.095	-60.725	0.862784	-0.005124	-0.039528	-0.2685	0.945	-0.051	0	290	403	1
2026-02-23	16:54:15.230	14.28	15.925	-59.43	1.050176	-0.444812	-0.345748	-0.2775	0.9255	-0.0675	0	290	403	1
2026-02-23	16:54:15.250	20.195	24.185	-69.09	0.756888	-0.065148	-0.410408	-0.285	0.918	-0.0705	0	290	403	1
2026-02-23	16:54:15.270	13.3	7.98	-74.025	1.141188	-0.704916	-0.291092	-0.285	0.9105	-0.0735	0	290	403	1
2026-02-23	16:54:15.290	75.285	23.38	-93.415	0.787144	0.048312	-0.078812	-0.2925	0.8985	-0.081	0	290	403	1
2026-02-23	16:54:15.310	39.83	5.075	-83.79	1.213412	-0.61976	-0.27816	-0.2985	0.888	-0.09	0	290	403	1
2026-02-23	16:54:15.330	35.875	16.31	-102.445	0.874008	0.13786	-0.318908	-0.3045	0.8775	-0.093	0	290	403	1
2026-02-23	16:54:15.350	18.725	0.77	-87.71	0.89914	-0.615368	-0.643916	-0.3195	0.864	-0.0945	0	290	403	1
2026-02-23	16:54:15.370	44.73	-10.36	-91.945	1.194868	0.017812	-0.032696	-0.3285	0.846	-0.0945	0	290	403	1
2026-02-23	16:54:15.390	50.68	-3.255	-100.8	0.447252	0.27328	-0.276208	-0.3315	0.8295	-0.096	0	290	403	1
2026-02-23	16:54:15.410	2.625	-39.585	-82.075	0.936716	-0.469212	-0.277916	-0.3375	0.819	-0.102	0	292	370	3
2026-02-23	16:54:15.430	79.8	-44.03	-120.12	0.821304	0.366488	-0.044164	-0.339	0.807	-0.0975	0	292	370	3
2026-02-23	16:54:15.450	36.155	-35.245	-67.83	0.696132	-0.500932	0.032696	-0.339	0.8025	-0.0915	0	292	370	3
2026-02-23	16:54:15.470	91.945	-29.435	-71.155	0.602924	-0.600972	0.010248	-0.354	0.777	-0.102	0	292	370	3
2026-02-23	16:54:15.490	128.73	34.09	-45.115	0.166164	-0.182756	0.184464	-0.363	0.7605	-0.1005	0	292	370	3
2026-02-23	16:54:15.510	116.62	7.77	-35.28	0.3904	-0.007808	0.016836	-0.3645	0.753	-0.1005	0	292	370	3
2026-02-23	16:54:15.530	82.145	19.25	-24.22	0.42334	0.046848	0.063684	-0.357	0.7545	-0.114	0	292	370	3
2026-02-23	16:54:15.550	27.58	1.54	-7.665	0.467504	-0.0976	-0.508252	-0.36	0.75	-0.12	0	292	370	3
2026-02-23	16:54:15.570	-7.42	-40.425	-1.82	0.976488	0.035868	-0.670512	-0.3705	0.7485	-0.117	0	292	370	3
2026-02-23	16:54:15.590	6.125	-87.535	-16.1	1.684332	0.064172	-0.721508	-0.36	0.7485	-0.1125	0	292	370	3
2026-02-23	16:54:15.610	-14	-49.385	1.61	1.153632	-0.471652	-0.559004	-0.363	0.7455	-0.0945	0	304	334	3
2026-02-23	16:54:15.630	-28.84	-71.715	19.565	0.892064	-0.409188	-0.446032	-0.363	0.7455	-0.0945	0	304	334	3
2026-02-23	16:54:15.650	-41.545	-70.49	28.14	1.077016	-0.023912	-0.099064	-0.3645	0.747	-0.081	0	304	334	3
2026-02-23	16:54:15.670	-68.25	-45.745	42.245	0.85766	-0.050996	-0.205692	-0.3615	0.747	-0.06	0	304	334	3
2026-02-23	16:54:15.690	-55.475	-32.515	40.355	0.81374	-0.049044	-0.413336	-0.357	0.744	-0.054	0	304	334	3
2026-02-23	16:54:15.710	-16.52	-19.705	25.095	0.812764	-0.103212	-0.433832	-0.369	0.7605	-0.054	0	304	334	3
2026-02-23	16:54:15.730	-5.705	-6.825	20.965	0.749568	0.08686399	-0.522892	-0.36	0.7605	-0.0525	0	304	334	3
2026-02-23	16:54:15.750	-34.965	-10.255	26.215	0.787632	0.04636	-0.571448	-0.3585	0.765	-0.051	0	304	334	3
2026-02-23	16:54:15.770	-51.765	-28.595	25.725	0.970144	0.202032	-0.683688	-0.354	0.7695	-0.0405	0	304	334	3
2026-02-23	16:54:15.790	-35.28	-32.585	18.69	1.162904	0.04148	-0.457988	-0.351	0.774	-0.036	0	304	334	3
2026-02-23	16:54:15.810	-1.96	-6.755	14.315	1.211704	-0.096868	-0.580964	-0.354	0.7725	-0.0315	0	322	323	3
2026-02-23	16:54:15.830	-21.805	10.08	33.005	0.85034	-0.488244	-0.7198	-0.354	0.774	-0.0255	0	322	323	3
2026-02-23	16:54:15.850	-30.73	-11.235	33.53	1.266604	0.09467199	-0.40504	-0.351	0.78	-0.0225	0	322	323	3
2026-02-23	16:54:15.870	-19.39	-5.775	38.43	1.288564	-0.19764	0.017568	-0.342	0.7845	-0.024	0	322	323	3
2026-02-23	16:54:15.890	6.825	25.9	48.72	0.599752	-0.038552	-0.120292	-0.3375	0.7875	-0.021	0	322	323	3
2026-02-23	16:54:15.910	14.07	28.175	37.94	0.616832	0.1098	-0.241072	-0.339	0.7935	-0.0195	0	322	323	3
2026-02-23	16:54:15.930	26.775	7.175	36.855	1.137528	-0.25498	-0.098088	-0.3405	0.7995	-0.024	0	322	323	3
2026-02-23	16:54:15.950	31.395	30.695	31.325	0.86742	0.113216	-0.08906	-0.339	0.8085	-0.0285	0	322	323	3
2026-02-23	16:54:15.970	16.065	25.2	38.92	0.99552	-0.197884	-0.285236	-0.3375	0.816	-0.0345	0	322	323	3
2026-02-23	16:54:15.990	4.55	45.675	58.415	0.482144	-0.052704	-0.248148	-0.3375	0.8175	-0.042	0	322	323	3
2026-02-23	16:54:16.010	9.135	2.38	48.265	1.267824	-0.167872	-0.037332	-0.3375	0.8175	-0.042	0	341	329	3
2026-02-23	16:54:16.030	14.385	24.85	56.315	1.103612	-0.361364	-0.3965	-0.324	0.8325	-0.0525	0	341	329	3
2026-02-23	16:54:16.050	29.785	31.955	54.74	0.826428	-0.33916	-0.225944	-0.315	0.843	-0.051	0	341	329	3
2026-02-23	16:54:16.070	22.75	41.02	72.485	0.353068	-0.301584	-0.120292	-0.312	0.852	-0.0555	0	341	329	3
2026-02-23	16:54:16.090	18.515	10.57	71.47	0.825696	-0.049776	0.007076	-0.312	0.867	-0.0645	0	341	329	3
2026-02-23	16:54:16.110	-3.605	25.095	85.645	0.692472	-0.8235	-0.119804	-0.3105	0.8745	-0.0735	0	341	329	3
2026-02-23	16:54:16.130	-12.25	37.415	97.195	0.532896	-0.214476	-0.872788	-0.3	0.8865	-0.075	0	341	329	3
2026-02-23	16:54:16.150	27.65	-5.145	89.915	1.225124	-0.132492	0.194712	-0.2895	0.8895	-0.0765	0	341	329	3
2026-02-23	16:54:16.170	-5.32	8.435	101.745	0.599752	-0.08418	-0.31598	-0.2805	0.9105	-0.0765	0	341	329	3
2026-02-23	16:54:16.190	1.925	-12.46	81.27	0.743712	-0.111752	-0.305244	-0.27	0.921	-0.0735	0	341	329	3
2026-02-23	16:54:16.210	12.46	-11.97	70.805	0.857172	-0.297436	-0.151036	-0.258	0.9375	-0.066	0	359	321	2
2026-02-23	16:54:16.230	0.7	-2.135	67.55	0.747372	-0.322324	-0.358924	-0.2505	0.945	-0.0675	0	359	321	2
2026-02-23	16:54:16.250	-2.1	-12.775	51.45	1.338828	-0.243756	-0.366488	-0.2415	0.954	-0.072	0	359	321	2
2026-02-23	16:54:16.270	-23.87	9.065	53.095	0.711504	-0.522648	-0.1586	-0.2355	0.9645	-0.0735	0	359	321	2
2026-02-23	16:54:16.290	-22.645	-1.155	63.84	0.805688	-0.634644	-0.546072	-0.231	0.9675	-0.0735	0	359	321	2
2026-02-23	16:54:16.310	4.725	-5.95	47.74	1.286368	-0.412116	-0.072956	-0.225	0.9675	-0.069	0	359	321	2
2026-02-23	16:54:16.330	-36.19	12.46	58.765	0.987224	-0.742248	-0.536068	-0.216	0.9765	-0.066	0	359	321	2
2026-02-23	16:54:16.350	-7.28	7.42	53.305	1.217316	-0.381372	-0.207644	-0.2085	0.987	-0.0645	0	359	321	2
2026-02-23	16:54:16.370	-1.505	-4.375	47.95	1.175348	-0.382592	-0.180804	-0.2055	0.99	-0.063	0	359	321	2
2026-02-23	16:54:16.390	-1.645	0.21	36.68	0.850096	-0.338428	-0.259616	-0.2025	0.993	-0.06	0	359	321	2
2026-02-23	16:54:16.410	-3.08	-6.405	23.73	1.003572	-0.537776	-0.587796	-0.195	1.0005	-0.0585	0	375	310	3
2026-02-23	16:54:16.430	-1.33	-0.245	20.23	0.861076	-0.486292	-0.467748	-0.192	0.999	-0.06	0	375	310	3
2026-02-23	16:54:16.450	1.47	-7.84	24.115	1.031632	-0.671244	-0.1037	-0.189	0.999	-0.063	0	375	310	3
2026-02-23	16:54:16.470	-18.585	4.445	27.825	1.090436	-0.8601	-0.212524	-0.183	1.002	-0.0645	0	375	310	3
2026-02-23	16:54:16.490	-15.75	26.565	31.08	0.955504	-0.857416	-0.337696	-0.174	1.0035	-0.063	0	375	310	3
2026-02-23	16:54:16.510	-12.915	40.74	33.53	0.943304	-0.456768	0.061488	-0.171	1.0095	-0.06	0	375	310	3
2026-02-23	16:54:16.530	4.445	27.16	37.205	0.901824	-0.139812	0.038308	-0.1695	1.011	-0.06	0	375	310	3
2026-02-23	16:54:16.550	-2.66	24.78	30.765	0.723948	-0.594872	-0.263764	-0.168	1.011	-0.063	0	375	310	3
2026-02-23	16:54:16.570	13.79	21.875	23.485	0.812276	-0.728828	-0.304024	-0.1545	1.023	-0.0675	0	375	310	3
2026-02-23	16:54:16.590	13.51	22.4	23.8	0.916464	-0.484096	-0.18666	-0.1575	1.0275	-0.069	0	375	310	3
2026-02-23	16:54:16.610	11.27	17.815	27.825	0.518256	-0.362584	-0.193248	-0.156	1.0215	-0.0735	0	386	298	3
2026-02-23	16:54:16.630	6.58	8.82	22.645	0.66856	-0.519476	-0.162992	-0.147	1.0275	-0.078	0	386	298	3
2026-02-23	16:54:16.650	2.59	7.315	21.945	0.354532	-0.633424	-0.385276	-0.1395	1.0275	-0.087	0	386	298	3
2026-02-23	16:54:16.670	25.97	-6.195	19.005	0.897432	-0.527528	-0.337452	-0.1395	1.029	-0.0825	0	386	298	3
2026-02-23	16:54:16.690	3.885	-7.98	23.905	0.415776	-0.613904	-0.094428	-0.135	1.0275	-0.0765	0	386	298	3
2026-02-23	16:54:16.710	-7.84	-17.22	25.9	0.824476	-0.60024	-0.401136	-0.1395	1.0275	-0.081	0	386	298	3
2026-02-23	16:54:16.730	-7	-21.875	28.49	0.590724	-0.506056	-0.200568	-0.1395	1.0275	-0.081	0	386	298	3
2026-02-23	16:54:16.750	-5.985	-27.125	29.12	0.668316	-0.770552	-0.335256	-0.1335	1.0335	-0.0765	0	386	298	3
2026-02-23	16:54:16.770	-3.57	-23.415	27.685	0.888404	-0.631228	-0.384788	-0.126	1.038	-0.0735	0	386	298	3
2026-02-23	16:54:16.790	-17.5	-9.555	29.365	0.529236	-0.524844	-0.312564	-0.12	1.0365	-0.0705	0	386	298	3
2026-02-23	16:54:16.810	-19.88	-8.155	32.585	0.8113	-0.526552	-0.491416	-0.1125	1.044	-0.063	0	392	288	2
2026-02-23	16:54:16.830	-18.305	-10.43	30.66	0.626592	-0.397964	-0.2745	-0.108	1.0455	-0.0645	0	392	288	2
2026-02-23	16:54:16.850	-19.215	-19.53	26.6	0.9211	-0.401136	-0.245708	-0.105	1.05	-0.0615	0	392	288	2
2026-02-23	16:54:16.870	-15.47	-17.22	18.62	0.678564	-0.52094	-0.226676	-0.0975	1.056	-0.0585	0	392	288	2
2026-02-23	16:54:16.890	-0.385	-22.4	13.265	0.99186	-0.535336	-0.439932	-0.0945	1.053	-0.0585	0	392	288	2
2026-02-23	16:54:16.910	-2.345	-23.45	8.54	0.97966	-0.51484	-0.286212	-0.096	1.05	-0.0585	0	392	288	2
2026-02-23	16:54:16.930	-2.73	-20.3	7.21	0.9089	-0.4819	-0.213744	-0.1035	1.0545	-0.0495	0	392	288	2
2026-02-23	16:54:16.950	-4.445	-13.615	4.2	0.936228	-0.614148	-0.28914	-0.0915	1.0545	-0.0465	0	392	288	2
2026-02-23	16:54:16.970	6.825	-6.475	-0.035	1.076772	-0.565592	-0.297924	-0.0915	1.0515	-0.0435	0	392	288	2
2026-02-23	16:54:16.990	11.375	3.57	-3.57	0.986004	-0.56852	-0.22692	-0.0885	1.0485	-0.0465	0	392	288	2
2026-02-23	16:54:17.010	14.735	8.435	-4.305	1.085068	-0.59902	-0.244976	-0.087	1.05	-0.054	0	390	285	3
2026-02-23	16:54:17.030	17.325	13.58	-6.335	1.043344	-0.573644	-0.190808	-0.096	1.047	-0.0555	0	390	285	3
2026-02-23	16:54:17.050	6.475	23.205	-4.725	0.897676	-0.737856	-0.048068	-0.09	1.0485	-0.057	0	390	285	3
