yyyy-MM-dd	HH:mm:ss.fff	gyrX	gyrY	gyrZ	accX	accY	accZ	magX	magY	magZ	Marker	Energy	Angle	Classification
2026-02-23	16:53:40.210	-1.47	0.035	3.64	0.140056	0.994788	-0.045872	-0.171	0.021	0.5775	0	312	95	2
2026-02-23	16:53:40.230	-0.735	0	3.325	0.133712	0.979904	-0.053192	-0.168	0.0225	0.579	0	312	95	2
2026-02-23	16:53:40.250	0.56	0.315	3.43	0.142008	0.985028	-0.059292	-0.1665	0.0195	0.5775	0	312	95	2
2026-02-23	16:53:40.270	-1.015	0.28	3.325	0.138836	0.9821	-0.060024	-0.1665	0.0195	0.576	0	312	95	2
2026-02-23	16:53:40.290	-0.175	0.21	2.765	0.128344	0.97722	-0.064904	-0.165	0.0165	0.5685	0	312	95	2
2026-02-23	16:53:40.310	0	0.245	2.17	0.139812	0.985272	-0.069296	-0.1635	0.009	0.5745	0	312	95	2
2026-02-23	16:53:40.330	0.455	0	1.225	0.14396	0.995764	-0.066856	-0.1695	0.0165	0.57	0	312	95	2
2026-02-23	16:53:40.350	0.42	-0.35	0.245	0.145424	0.985272	-0.065392	-0.1695	0.0165	0.5745	0	312	95	2
2026-02-23	16:53:40.370	0.98	-0.665	-0.245	0.138348	0.96746	-0.06954	-0.165	0.0135	0.576	0	312	95	2
2026-02-23	16:53:40.390	1.19	-0.315	-0.21	0.13908	0.982588	-0.066612	-0.1665	0.0165	0.5745	0	312	95	2
2026-02-23	16:53:40.410	-0.21	0.035	0	0.146644	1.001864	-0.059048	-0.1665	0.021	0.5715	0	267	86	2
2026-02-23	16:53:40.430	-0.105	0.35	-0.035	0.142984	1.003572	-0.058316	-0.1605	0.0225	0.5715	0	267	86	2
2026-02-23	16:53:40.450	0.91	0.455	0.07	0.144448	0.971364	-0.063684	-0.1635	0.0195	0.576	0	267	86	2
2026-02-23	16:53:40.470	0.56	0.875	0.7	0.149084	0.976244	-0.06588	-0.165	0.018	0.5775	0	267	86	2
2026-02-23	16:53:40.490	-0.42	0.945	1.225	0.149816	0.991616	-0.070272	-0.165	0.0195	0.576	0	267	86	2
2026-02-23	16:53:40.510	0.735	0.91	1.05	0.145912	0.996252	-0.062708	-0.1725	0.015	0.579	0	267	86	2
2026-02-23	16:53:40.530	0.56	0.735	0.84	0.147864	0.980392	-0.058804	-0.171	0.012	0.576	0	267	86	2
2026-02-23	16:53:40.550	-0.525	0.665	1.085	0.150304	0.981612	-0.05734	-0.1665	0.012	0.5745	0	267	86	2
2026-02-23	16:53:40.570	-1.33	0.56	1.26	0.150548	0.98698	-0.057828	-0.1755	0.015	0.576	0	267	86	2
2026-02-23	16:53:40.590	0.14	0.315	0.875	0.144936	0.981612	-0.068564	-0.171	0.0195	0.5685	0	267	86	2
2026-02-23	16:53:40.610	1.505	0.245	0.245	0.146888	0.981124	-0.06344	-0.1785	0.0135	0.582	0	226	80	2
2026-02-23	16:53:40.630	-0.245	0.035	-0.245	0.1464	0.984052	-0.057828	-0.177	0.015	0.5805	0	226	80	2
2026-02-23	16:53:40.650	-1.47	-0.245	-0.665	0.145424	0.990396	-0.061244	-0.1605	0.0165	0.579	0	226	80	2
2026-02-23	16:53:40.670	-1.155	-0.595	-1.085	0.140788	0.992348	-0.068076	-0.1725	0.0165	0.579	0	226	80	2
2026-02-23	16:53:40.690	0.84	-0.91	-1.47	0.139568	0.984296	-0.071004	-0.174	0.018	0.579	0	226	80	2
2026-02-23	16:53:40.710	1.225	-1.225	-1.54	0.145668	0.98698	-0.064416	-0.171	0.0195	0.5775	0	226	80	2
2026-02-23	16:53:40.730	-1.19	-1.715	-1.155	0.151036	0.98576	-0.058804	-0.1665	0.0165	0.576	0	226	80	2
2026-02-23	16:53:40.750	-2.485	-1.785	-0.875	0.149572	0.989664	-0.063196	-0.168	0.015	0.579	0	226	80	2
2026-02-23	16:53:40.770	-1.015	-1.505	-0.63	0.144448	0.988688	-0.069784	-0.171	0.0195	0.5805	0	226	80	2
2026-02-23	16:53:40.790	0.735	-1.26	-0.49	0.133712	0.987224	-0.070028	-0.171	0.021	0.579	0	226	80	2
2026-02-23	16:53:40.810	0.21	-1.155	-0.385	0.140788	0.987468	-0.062464	-0.1725	0.0195	0.5775	0	192	76	2
2026-02-23	16:53:40.830	-1.54	-0.84	0	0.149816	0.991616	-0.061	-0.174	0.0165	0.576	0	192	76	2
2026-02-23	16:53:40.850	-1.33	-0.805	0	0.148596	0.993324	-0.06344	-0.168	0.0135	0.576	0	192	76	2
2026-02-23	16:53:40.870	-1.995	-1.155	0.245	0.14762	0.988444	-0.061976	-0.162	0.018	0.5865	0	192	76	2
2026-02-23	16:53:40.890	-3.85	-1.225	0.665	0.143472	0.978928	-0.06466	-0.1635	0.018	0.5775	0	192	76	2
2026-02-23	16:53:40.910	-2.94	-0.91	1.015	0.138592	0.99308	-0.06734399	-0.1695	0.018	0.579	0	192	76	2
2026-02-23	16:53:40.930	-1.33	-0.455	0.77	0.142008	0.996984	-0.064904	-0.165	0.0225	0.576	0	192	76	2
2026-02-23	16:53:40.950	-0.42	-0.385	0.56	0.142008	0.985516	-0.062952	-0.1665	0.024	0.5745	0	192	76	2
2026-02-23	16:53:40.970	-1.61	-0.42	0.735	0.141032	0.984784	-0.054168	-0.1695	0.015	0.579	0	192	76	2
2026-02-23	16:53:40.990	-2.345	-0.21	0.84	0.142984	0.99186	-0.060756	-0.1695	0.015	0.5745	0	192	76	2
2026-02-23	16:53:39.010	-10.36	-7.91	-3.535	0.119316	1.024068	-0.05368	-0.153	0.0195	0.573	0	508	345	2
2026-02-23	16:53:39.030	-3.36	-5.39	-2.59	0.106384	0.997228	-0.116144	-0.153	0.015	0.5745	0	508	345	2
2026-02-23	16:53:39.050	5.11	-4.41	0.735	0.127368	1.013576	-0.110044	-0.153	0.012	0.5715	0	508	345	2
2026-02-23	16:53:39.070	1.75	-4.06	3.64	0.149572	1.024068	-0.069296	-0.147	0.015	0.5685	0	508	345	2
2026-02-23	16:53:39.090	-0.735	-2.835	4.935	0.160796	0.99308	-0.05368	-0.147	0.0225	0.573	0	508	345	2
2026-02-23	16:53:39.110	-2.31	-0.805	6.685	0.134444	0.981856	-0.032208	-0.1605	0.0225	0.5745	0	508	345	2
2026-02-23	16:53:39.130	-0.665	1.61	8.33	0.106384	1.029924	-0.01586	-0.1545	0.0225	0.567	0	508	345	2
2026-02-23	16:53:39.150	-0.455	2.87	6.685	0.104676	1.031632	0.010736	-0.153	0.021	0.5715	0	508	345	2
2026-02-23	16:53:39.170	-3.08	4.235	4.375	0.097356	0.968192	-0.016348	-0.1515	0.0195	0.5745	0	508	345	2
2026-02-23	16:53:39.190	2.765	5.18	3.535	0.076616	0.967704	-0.07198	-0.15	0.018	0.5745	0	508	345	2
2026-02-23	16:53:39.210	3.115	4.76	3.22	0.101504	0.996008	-0.080276	-0.153	0.018	0.5715	0	507	248	2
2026-02-23	16:53:39.230	-1.995	2.94	2.66	0.127124	0.999424	-0.060024	-0.156	0.021	0.5715	0	507	248	2
2026-02-23	16:53:39.250	-5.075	1.4	1.75	0.137372	0.99186	-0.052948	-0.153	0.021	0.5715	0	507	248	2
2026-02-23	16:53:39.270	-2.835	0.245	0.7	0.12078	0.981368	-0.076372	-0.153	0.0165	0.57	0	507	248	2
2026-02-23	16:53:39.290	3.955	-0.28	-0.245	0.10614	0.975024	-0.073688	-0.1575	0.018	0.573	0	507	248	2
2026-02-23	16:53:39.310	1.505	-0.35	-0.35	0.116876	0.97844	-0.055876	-0.159	0.0195	0.5715	0	507	248	2
2026-02-23	16:53:39.330	-3.955	-0.595	-0.035	0.125904	0.992348	-0.047092	-0.162	0.0225	0.573	0	507	248	2
2026-02-23	16:53:39.350	-4.375	-0.665	-0.105	0.11834	0.995276	-0.059292	-0.159	0.0225	0.5745	0	507	248	2
2026-02-23	16:53:39.370	1.855	-0.28	-0.84	0.110776	1.00284	-0.066124	-0.1575	0.021	0.57	0	507	248	2
2026-02-23	16:53:39.390	3.43	0.28	-1.435	0.121756	1.003328	-0.040992	-0.1575	0.021	0.5715	0	507	248	2
2026-02-23	16:53:39.410	-2.905	0.875	-1.12	0.13786	0.980636	-0.033672	-0.159	0.024	0.5775	0	488	187	2
2026-02-23	16:53:39.430	-0.56	1.82	-0.49	0.128832	0.968436	-0.063684	-0.162	0.021	0.5775	0	488	187	2
2026-02-23	16:53:39.450	4.27	2.31	-0.28	0.119072	0.996252	-0.07515199	-0.1575	0.0195	0.567	0	488	187	2
2026-02-23	16:53:39.470	3.745	1.47	-0.56	0.132004	1.002596	-0.050996	-0.15	0.024	0.5625	0	488	187	2
2026-02-23	16:53:39.490	-1.33	0.105	-0.455	0.13298	0.99308	-0.02684	-0.1545	0.0225	0.5685	0	488	187	2
2026-02-23	16:53:39.510	-3.535	-0.385	0	0.131028	0.981124	-0.045872	-0.1605	0.0225	0.5685	0	488	187	2
2026-02-23	16:53:39.530	-2.135	0.21	0.315	0.119804	0.99064	-0.047824	-0.1605	0.0225	0.567	0	488	187	2
2026-02-23	16:53:39.550	-0.665	0.14	0.665	0.114924	0.997716	-0.056364	-0.156	0.0195	0.5715	0	488	187	2
2026-02-23	16:53:39.570	0.245	-0.35	0.875	0.120048	0.991372	-0.053192	-0.159	0.0195	0.5775	0	488	187	2
2026-02-23	16:53:39.590	-0.77	-0.735	0.91	0.124928	0.981856	-0.055144	-0.159	0.018	0.5745	0	488	187	2
2026-02-23	16:53:39.610	-0.77	-0.805	0.84	0.123952	0.97478	-0.064904	-0.159	0.018	0.5715	0	454	149	2
2026-02-23	16:53:39.630	0.735	-0.77	0.98	0.117608	0.992104	-0.068808	-0.1575	0.021	0.564	0	454	149	2
2026-02-23	16:53:39.650	0.7	-1.12	1.365	0.121512	1.011624	-0.05978	-0.1545	0.0225	0.5655	0	454	149	2
2026-02-23	16:53:39.670	0.805	-1.61	1.365	0.12566	1.001132	-0.05368	-0.1575	0.0165	0.5715	0	454	149	2
2026-02-23	16:53:39.690	0.175	-1.68	1.715	0.123464	0.982588	-0.054168	-0.1575	0.012	0.5745	0	454	149	2
2026-02-23	16:53:39.710	-1.19	-1.47	2.17	0.126636	0.990884	-0.0549	-0.156	0.015	0.5685	0	454	149	2
2026-02-23	16:53:39.730	-1.645	-1.4	2.135	0.121512	0.99186	-0.055388	-0.1575	0.0165	0.567	0	454	149	2
2026-02-23	16:53:39.750	-0.315	-1.435	2.38	0.123952	0.992592	-0.058316	-0.159	0.018	0.576	0	454	149	2
2026-02-23	16:53:39.770	-0.245	-1.155	2.66	0.127856	1.0004	-0.052704	-0.1605	0.021	0.579	0	454	149	2
2026-02-23	16:53:39.790	-0.56	-0.77	2.205	0.131272	0.993324	-0.047336	-0.162	0.0165	0.5805	0	454	149	2
2026-02-23	16:53:39.810	-1.505	-0.07	1.89	0.130052	0.976488	-0.057096	-0.162	0.018	0.5775	0	410	125	2
2026-02-23	16:53:39.830	-0.84	0.665	2.59	0.131028	0.986004	-0.060512	-0.1605	0.0225	0.573	0	410	125	2
2026-02-23	16:53:39.850	-0.385	1.085	3.01	0.131028	0.992104	-0.056852	-0.162	0.0165	0.573	0	410	125	2
2026-02-23	16:53:39.870	0.525	1.47	2.975	0.131516	0.994056	-0.0488	-0.165	0.0105	0.5745	0	410	125	2
2026-02-23	16:53:39.890	0.525	1.435	2.905	0.120048	0.987224	-0.056608	-0.1605	0.0135	0.5715	0	410	125	2
2026-02-23	16:53:39.910	2.03	1.295	3.01	0.124684	0.998692	-0.061976	-0.1635	0.015	0.5715	0	410	125	2
2026-02-23	16:53:39.930	1.995	0.595	2.205	0.131516	0.991372	-0.058316	-0.1665	0.0135	0.5715	0	410	125	2
2026-02-23	16:53:39.950	0	-0.28	1.19	0.13786	0.977464	-0.049044	-0.1635	0.0105	0.5715	0	410	125	2
2026-02-23	16:53:39.970	-0.63	-0.875	0.35	0.123464	0.976488	-0.06222	-0.165	0.0135	0.5745	0	410	125	2
2026-02-23	16:53:39.990	0.945	-1.12	-0.35	0.129076	0.992104	-0.063684	-0.1695	0.0165	0.5745	0	410	125	2
2026-02-23	16:53:56.010	10.395	-26.495	12.075	0.945744	0.118096	0.270596	-0.768	0.2895	0.4965	0	446	239	3
2026-02-23	16:53:56.030	40.215	-26.915	8.54	0.968192	0.138836	0.292068	-0.771	0.3015	0.513	0	446	239	3
2026-02-23	16:53:56.050	79.135	-22.995	8.05	0.91622	0.236924	0.224236	-0.768	0.2925	0.5085	0	446	239	3
2026-02-23	16:53:56.070	62.93	-27.475	11.41	0.909876	0.300852	0.237168	-0.7665	0.2985	0.5205	0	446	239	3
2026-02-23	16:53:56.090	37.1	-33.53	12.845	0.936716	0.318176	0.268156	-0.768	0.3045	0.5355	0	446	239	3
2026-02-23	16:53:56.110	18.55	-35	12.74	0.988444	0.269864	0.30988	-0.765	0.3045	0.5415	0	446	239	3
2026-02-23	16:53:56.130	12.985	-33.46	14.245	1.01382	0.150792	0.270108	-0.765	0.306	0.5415	0	446	239	3
2026-02-23	16:53:56.150	19.355	-30.94	16.695	1.006744	0.150792	0.27572	-0.765	0.309	0.5445	0	446	239	3
2026-02-23	16:53:56.170	8.575	-28.77	20.93	1.015284	0.134688	0.302316	-0.7605	0.309	0.555	0	446	239	3
2026-02-23	16:53:56.190	-2.555	-24.29	23.835	1.045052	0.138592	0.351116	-0.7605	0.3165	0.561	0	446	239	3
2026-02-23	16:53:56.210	-6.72	-18.585	24.22	1.005768	0.117852	0.296948	-0.7635	0.3255	0.5655	0	435	264	3
2026-02-23	16:53:56.230	-1.715	-19.075	24.08	0.968924	0.104432	0.177144	-0.7725	0.3255	0.567	0	435	264	3
2026-02-23	16:53:56.250	1.82	-22.785	25.55	0.964288	0.163724	0.165188	-0.774	0.3285	0.5715	0	435	264	3
2026-02-23	16:53:56.270	-24.36	-29.68	28.595	0.987956	0.09028	0.187148	-0.771	0.333	0.5775	0	435	264	3
2026-02-23	16:53:56.290	-26.915	-31.5	27.86	0.985028	0.109556	0.160064	-0.7725	0.33	0.5745	0	435	264	3
2026-02-23	16:53:56.310	-15.715	-32.095	28.77	0.968924	0.06466	0.11834	-0.7695	0.3405	0.588	0	435	264	3
2026-02-23	16:53:56.330	-28.525	-31.605	34.475	0.972584	0.062708	0.217892	-0.7665	0.3465	0.5835	0	435	264	3
2026-02-23	16:53:56.350	-37.94	-31.78	36.54	0.993324	0.007564	0.160796	-0.762	0.3495	0.5865	0	435	264	3
2026-02-23	16:53:56.370	-26.495	-28.595	37.695	1.013088	0.027328	0.138836	-0.7605	0.3495	0.594	0	435	264	3
2026-02-23	16:53:56.390	-18.165	-27.265	37.345	1.00162	0.050508	0.11834	-0.759	0.3525	0.6015	0	435	264	3
2026-02-23	16:53:56.410	-17.395	-27.51	37.275	0.98576	0.040504	0.081252	-0.7575	0.357	0.6045	0	409	266	3
2026-02-23	16:53:56.430	-21	-28.98	37.345	0.97966	0.006832	0.089548	-0.7635	0.366	0.6045	0	409	266	3
2026-02-23	16:53:56.450	-14.63	-29.015	37.765	0.987712	0.016348	0.093208	-0.7635	0.3765	0.609	0	409	266	3
2026-02-23	16:53:56.470	7.805	-27.3	34.405	0.93208	0.143716	0.123708	-0.7545	0.378	0.6045	0	409	266	3
2026-02-23	16:53:56.490	5.705	-23.975	27.895	0.991616	0.178852	-0.024156	-0.642	0.2715	0.5715	0	409	266	3
2026-02-23	16:53:56.510	5.88	-25.41	26.11	1.115812	0.018544	0.174216	-0.5625	0.1905	0.5565	0	409	266	3
2026-02-23	16:53:56.530	7.035	-12.32	21.665	1.156316	-0.020252	0.118584	-0.612	0.2445	0.5655	0	409	266	3
2026-02-23	16:53:56.550	5.74	-6.125	21.525	1.121912	-0.058072	0.138592	-0.645	0.288	0.5745	0	409	266	3
2026-02-23	16:53:56.570	15.26	-0.21	18.095	1.027728	0.067588	0.159332	-0.6585	0.3045	0.585	0	409	266	3
2026-02-23	16:53:56.590	18.9	-0.28	15.54	1.036024	0.040016	0.144692	-0.6885	0.321	0.5955	0	409	266	3
2026-02-23	16:53:56.610	4.06	-0.84	13.615	1.177056	0.05856	0.181536	-0.705	0.3405	0.597	0	376	245	3
2026-02-23	16:53:56.630	-9.94	-2.835	11.62	1.110444	-0.117364	0.145668	-0.717	0.351	0.6015	0	376	245	3
2026-02-23	16:53:56.650	10.115	-5.25	12.005	1.083116	-0.170556	0.091256	-0.729	0.3675	0.609	0	376	245	3
2026-02-23	16:53:56.670	14.245	-8.015	20.3	1.063352	-0.236436	0.031232	-0.7305	0.3765	0.609	0	376	245	3
2026-02-23	16:53:56.690	8.54	-11.865	30.1	1.10654	-0.21106	0.078568	-0.7335	0.3825	0.6105	0	376	245	3
2026-02-23	16:53:56.710	13.79	-12.845	30.975	1.13826	-0.04514	0.191296	-0.7365	0.393	0.618	0	376	245	3
2026-02-23	16:53:56.730	30.87	-11.34	24.64	1.09556	-0.119316	0.160552	-0.738	0.399	0.6195	0	376	245	3
2026-02-23	16:53:56.750	34.265	-7.77	23.31	1.101416	-0.060756	0.18422	-0.738	0.405	0.624	0	376	245	3
2026-02-23	16:53:56.770	22.82	-8.155	25.655	1.081652	-0.169336	0.077592	-0.7425	0.4185	0.627	0	376	245	3
2026-02-23	16:53:56.790	17.185	-10.395	30.485	1.018456	-0.16226	-0.036844	-0.741	0.4305	0.6225	0	376	245	3
2026-02-23	16:53:56.810	5.845	-16.695	38.85	1.008696	-0.0732	0.00366	-0.7365	0.438	0.63	0	343	214	3
2026-02-23	16:53:56.830	-11.76	-15.89	44.065	0.92476	-0.070516	-0.001464	-0.7395	0.447	0.6405	0	343	214	3
2026-02-23	16:53:56.850	-30.905	-21.035	44.905	0.87962	-0.203252	-0.106628	-0.7395	0.453	0.639	0	343	214	3
2026-02-23	16:53:56.870	-17.885	-16.94	45.255	0.892064	-0.209596	-0.027572	-0.7365	0.4575	0.645	0	343	214	3
2026-02-23	16:53:56.890	-25.445	-3.955	50.19	0.876692	-0.103944	0.011712	-0.738	0.459	0.651	0	343	214	3
2026-02-23	16:53:56.910	-37.24	4.095	49.98	0.86132	-0.14274	-0.010004	-0.738	0.459	0.651	0	343	214	3
2026-02-23	16:53:56.930	-12.215	2.765	41.02	0.875472	-0.24644	-0.148352	-0.7395	0.474	0.648	0	343	214	3
2026-02-23	16:53:56.950	37.835	3.255	31.745	0.802516	-0.304268	-0.197396	-0.7395	0.489	0.6465	0	343	214	3
2026-02-23	16:53:56.970	88.515	-0.63	24.255	0.82106	-0.314028	-0.051972	-0.735	0.492	0.651	0	343	214	3
2026-02-23	16:53:56.990	128.625	-2.625	19.355	0.903044	-0.35136	-0.040748	-0.735	0.4995	0.6525	0	343	214	3
2026-02-23	16:53:57.010	132.545	-2.975	20.825	0.988444	-0.317688	-0.092232	-0.7365	0.51	0.6525	0	315	170	3
2026-02-23	16:53:57.030	95.48	0.665	26.6	0.928176	-0.122244	-0.055876	-0.7335	0.522	0.6495	0	315	170	3
2026-02-23	16:53:57.050	22.47	-7.28	31.955	0.96136	-0.203496	-0.108824	-0.7335	0.534	0.648	0	315	170	3
2026-02-23	16:53:57.070	-35.28	-12.005	34.545	0.984296	-0.252784	-0.067588	-0.7365	0.543	0.648	0	315	170	3
2026-02-23	16:53:57.090	-70.77	-18.935	32.13	0.97356	-0.302804	-0.0488	-0.732	0.5475	0.651	0	315	170	3
2026-02-23	16:53:57.110	-83.405	-24.675	26.53	0.99918	-0.463844	-0.04148	-0.726	0.549	0.66	0	315	170	3
2026-02-23	16:53:57.130	-59.535	-25.865	21.455	1.024068	-0.595116	0.022692	-0.723	0.5475	0.669	0	315	170	3
2026-02-23	16:53:57.150	-3.99	-20.335	16.345	1.021872	-0.543876	0.081008	-0.7185	0.546	0.6735	0	315	170	3
2026-02-23	16:53:57.170	41.265	-15.575	12.95	1.030656	-0.45872	0.09272	-0.7155	0.5475	0.672	0	315	170	3
2026-02-23	16:53:57.190	46.62	-12.635	11.305	1.053592	-0.294508	0.0976	-0.7155	0.555	0.6735	0	315	170	3
2026-02-23	16:53:57.210	16.485	-13.44	6.125	1.042368	-0.298656	0.093208	-0.714	0.561	0.6765	0	293	121	3
2026-02-23	16:53:57.230	12.705	-13.755	-3.43	1.042856	-0.44652	0.073932	-0.7155	0.5595	0.681	0	293	121	3
2026-02-23	16:53:57.250	32.865	-10.43	-12.74	1.003572	-0.405284	0.001464	-0.7185	0.5595	0.675	0	293	121	3
2026-02-23	16:53:57.270	43.645	-9.555	-19.81	0.96014	-0.321348	-0.0427	-0.714	0.561	0.6735	0	293	121	3
2026-02-23	16:53:57.290	36.26	-9.555	-23.87	0.999668	-0.26962	-0.091012	-0.7125	0.564	0.6795	0	293	121	3
2026-02-23	16:53:57.310	38.29	-11.095	-29.68	1.031388	-0.274988	-0.139812	-0.717	0.5655	0.6765	0	293	121	3
2026-02-23	16:53:57.330	29.89	-13.055	-34.195	1.01748	-0.130784	-0.127856	-0.7185	0.5655	0.675	0	293	121	3
2026-02-23	16:53:57.350	-2.205	-17.325	-39.97	0.990152	-0.151768	-0.107116	-0.717	0.5625	0.6765	0	293	121	3
2026-02-23	16:53:57.370	-33.285	-18.165	-42.84	1.048712	-0.211548	-0.05368	-0.7155	0.555	0.6825	0	293	121	3
2026-02-23	16:53:57.390	-49.595	-16.345	-44.38	1.03822	-0.257176	-0.055388	-0.7185	0.5475	0.687	0	293	121	3
2026-02-23	16:53:57.410	-53.55	-17.325	-47.915	1.017968	-0.255468	-0.077348	-0.717	0.54	0.687	0	276	80	3
2026-02-23	16:53:57.430	-48.895	-19.285	-53.13	1.030412	-0.241804	-0.077104	-0.7185	0.528	0.6915	0	276	80	3
2026-02-23	16:53:57.450	-28.525	-21.385	-57.925	1.075552	-0.308172	-0.061	-0.7185	0.513	0.693	0	276	80	3
2026-02-23	16:53:57.470	-10.955	-18.795	-58.17	1.095804	-0.263764	-0.007808	-0.7155	0.507	0.6915	0	276	80	3
2026-02-23	16:53:57.490	-9.52	-15.295	-57.33	1.120204	-0.223992	0.021228	-0.7245	0.4905	0.702	0	276	80	3
2026-02-23	16:53:57.510	-3.745	-10.815	-56.21	1.115324	-0.167872	0.02684	-0.7245	0.4875	0.702	0	276	80	3
2026-02-23	16:53:57.530	8.82	-8.645	-58.94	1.063108	-0.107848	0.005368	-0.7215	0.483	0.7065	0	276	80	3
2026-02-23	16:53:57.550	27.65	-8.645	-65.695	1.019676	-0.093208	0.00122	-0.72	0.477	0.705	0	276	80	3
2026-02-23	16:53:57.570	47.005	-9.415	-71.785	1.016504	-0.056364	-0.020008	-0.72	0.471	0.702	0	276	80	3
2026-02-23	16:53:57.590	59.535	-8.925	-76.335	1.040904	-0.02684	-0.038796	-0.7215	0.4635	0.7095	0	276	80	3
2026-02-23	16:53:57.610	67.165	-9.205	-79.345	1.059204	-0.021228	-0.056364	-0.723	0.4545	0.708	0	261	47	3
2026-02-23	16:53:57.630	67.41	-8.785	-80.64	1.04188	-0.006832	-0.045384	-0.723	0.444	0.7035	0	261	47	3
2026-02-23	16:53:57.650	58.1	-8.75	-81.06	1.0065	-0.003416	-0.02318	-0.7215	0.4365	0.7065	0	261	47	3
2026-02-23	16:53:57.670	44.345	-8.505	-80.815	1.034072	0.028304	-0.000488	-0.7155	0.4335	0.7125	0	261	47	3
2026-02-23	16:53:57.690	33.495	-5.565	-80.36	1.062376	0.050264	0.004392	-0.714	0.429	0.7125	0	261	47	3
2026-02-23	16:53:57.710	24.29	-1.68	-79.485	1.051152	0.080764	-0.008052	-0.7125	0.4215	0.708	0	261	47	3
2026-02-23	16:53:57.730	12.145	0.875	-77.455	1.052372	0.08784	-0.032452	-0.7125	0.408	0.708	0	261	47	3
2026-02-23	16:53:57.750	6.615	3.325	-75.18	1.110932	0.086132	-0.070028	-0.7155	0.4005	0.7095	0	261	47	3
2026-02-23	16:53:57.770	12.985	6.545	-72.765	1.133136	0.087596	-0.075884	-0.72	0.387	0.708	0	261	47	3
2026-02-23	16:53:57.790	20.405	10.045	-69.685	1.108492	0.088328	-0.064416	-0.711	0.3765	0.7125	0	261	47	3
2026-02-23	16:53:57.810	25.865	12.425	-65.415	1.080676	0.104676	-0.072224	-0.711	0.378	0.705	0	248	24	3
2026-02-23	16:53:57.830	31.08	13.195	-58.87	1.076772	0.115656	-0.09272	-0.7095	0.3705	0.7035	0	248	24	3
2026-02-23	16:53:57.850	36.505	13.125	-52.22	1.04188	0.125904	-0.105164	-0.711	0.3555	0.705	0	248	24	3
2026-02-23	16:53:57.870	36.785	11.795	-46.06	0.9821	0.133712	-0.089548	-0.7155	0.3495	0.7035	0	248	24	3
2026-02-23	16:53:57.890	32.725	10.395	-39.97	0.937936	0.13664	-0.072224	-0.714	0.351	0.702	0	248	24	3
2026-02-23	16:53:57.910	28.525	9.03	-31.5	0.94184	0.140788	-0.081496	-0.711	0.348	0.702	0	248	24	3
2026-02-23	16:53:57.930	29.225	8.715	-20.405	0.948428	0.161528	-0.117608	-0.7065	0.348	0.699	0	248	24	3
2026-02-23	16:53:57.950	31.745	8.19	-9.555	0.932568	0.203008	-0.120536	-0.7065	0.3495	0.7035	0	248	24	3
2026-02-23	16:53:57.970	25.83	7.035	-0.14	0.938424	0.221064	-0.10858	-0.7155	0.3465	0.7065	0	248	24	3
2026-02-23	16:53:57.990	14.525	7.035	8.89	0.97722	0.24522	-0.064416	-0.714	0.348	0.7005	0	248	24	3
2026-02-23	16:53:58.010	0	10.5	16.345	1.009916	0.294996	-0.055632	-0.7095	0.3555	0.702	0	238	2	3
2026-02-23	16:53:58.030	-14.035	17.29	19.18	0.997228	0.306464	-0.093208	-0.711	0.36	0.708	0	238	2	3
2026-02-23	16:53:58.050	-18.55	19.845	17.955	0.976	0.282064	-0.121024	-0.7185	0.3555	0.6975	0	238	2	3
2026-02-23	16:53:58.070	-17.15	20.615	15.855	0.97966	0.260348	-0.151524	-0.7185	0.357	0.693	0	238	2	3
2026-02-23	16:53:58.090	-8.645	20.58	12.53	0.965996	0.253028	-0.167384	-0.723	0.363	0.6945	0	238	2	3
2026-02-23	16:53:58.110	2.205	19.74	9.065	0.940132	0.253028	-0.163968	-0.72	0.357	0.684	0	238	2	3
2026-02-23	16:53:58.130	7.875	17.22	7.35	0.942572	0.268888	-0.15006	-0.723	0.3555	0.69	0	238	2	3
2026-02-23	16:53:58.150	8.715	13.895	7	0.946964	0.308172	-0.105164	-0.726	0.357	0.687	0	238	2	3
2026-02-23	16:53:58.170	2.45	12.32	6.02	0.9699	0.361608	-0.06466	-0.729	0.3645	0.684	0	238	2	3
2026-02-23	16:53:58.190	-6.72	12.355	3.64	0.973316	0.361852	-0.059536	-0.7305	0.366	0.6795	0	238	2	3
2026-02-23	16:53:58.210	-13.3	12.88	0.245	0.965508	0.33428	-0.071736	-0.732	0.363	0.6795	0	230	21	3
2026-02-23	16:53:58.230	-15.435	13.02	-2.66	0.987712	0.321104	-0.08052	-0.7365	0.3615	0.678	0	230	21	3
2026-02-23	16:53:58.250	-15.89	14.63	-5.915	0.979904	0.339404	-0.055388	-0.7365	0.36	0.675	0	230	21	3
2026-02-23	16:53:58.270	-17.815	17.465	-10.85	0.97234	0.33428	-0.034648	-0.7335	0.3615	0.6735	0	230	21	3
2026-02-23	16:53:58.290	-16.765	20.545	-15.785	0.992836	0.31842	-0.046848	-0.732	0.36	0.6705	0	230	21	3
2026-02-23	16:53:58.310	-12.46	24.605	-20.16	0.961604	0.353068	-0.013664	-0.732	0.357	0.6735	0	230	21	3
2026-02-23	16:53:58.330	-17.85	26.32	-24.675	0.966728	0.388936	0.04392	-0.732	0.357	0.6735	0	230	21	3
2026-02-23	16:53:58.350	-16.835	29.61	-31.01	1.029924	0.402112	0.051972	-0.7395	0.3465	0.6525	0	230	21	3
2026-02-23	16:53:58.370	-8.085	33.88	-34.475	1.010892	0.401868	0.039284	-0.7455	0.342	0.6465	0	230	21	3
2026-02-23	16:53:58.390	-3.57	35.35	-36.54	0.929152	0.441152	0.038552	-0.741	0.327	0.6435	0	230	21	3
2026-02-23	16:53:58.410	-9.17	34.055	-39.865	0.865956	0.460672	0.062464	-0.7425	0.3345	0.6375	0	225	35	3
2026-02-23	16:53:58.430	-18.795	32.235	-44.45	0.829356	0.490196	0.092232	-0.744	0.324	0.6255	0	225	35	3
2026-02-23	16:53:58.450	-26.845	30.555	-48.545	0.83448	0.4941	0.11956	-0.738	0.3225	0.618	0	225	35	3
2026-02-23	16:53:58.470	-26.845	28.49	-51.345	0.793	0.464332	0.122976	-0.7365	0.312	0.618	0	225	35	3
2026-02-23	16:53:58.490	-26.18	25.76	-54.355	0.769576	0.50142	0.143472	-0.7365	0.2985	0.612	0	225	35	3
2026-02-23	16:53:58.510	-30.52	22.505	-57.82	0.768844	0.49898	0.160308	-0.738	0.285	0.6075	0	225	35	3
2026-02-23	16:53:58.530	-31.465	20.02	-62.055	0.786168	0.504104	0.172752	-0.7365	0.279	0.6075	0	225	35	3
2026-02-23	16:53:58.550	-31.815	18.55	-63.595	0.807884	0.504592	0.201544	-0.7305	0.273	0.6	0	225	35	3
2026-02-23	16:53:58.570	-27.475	17.08	-62.72	0.8174	0.49654	0.235704	-0.729	0.264	0.591	0	225	35	3
2026-02-23	16:53:58.590	-23.17	16.59	-60.97	0.784216	0.481412	0.271084	-0.732	0.2625	0.5895	0	225	35	3
2026-02-23	16:53:58.610	-24.955	16.415	-59.185	0.798368	0.477752	0.291824	-0.732	0.2625	0.5895	0	222	21	3
2026-02-23	16:53:58.630	-29.995	16.065	-55.685	0.798612	0.494588	0.294264	-0.714	0.225	0.5745	0	222	21	3
2026-02-23	16:53:58.650	-32.025	12.495	-52.57	0.781044	0.457988	0.303048	-0.705	0.216	0.564	0	222	21	3
2026-02-23	16:53:58.670	-11.095	6.44	-51.625	0.798124	0.401868	0.34038	-0.7125	0.2085	0.567	0	222	21	3
2026-02-23	16:53:58.690	19.425	4.34	-50.33	0.794464	0.446764	0.369172	-0.702	0.201	0.561	0	222	21	3
2026-02-23	16:53:58.710	27.65	3.605	-45.99	0.814228	0.50996	0.393816	-0.708	0.195	0.5595	0	222	21	3
2026-02-23	16:53:58.730	17.955	5.425	-41.86	0.806908	0.563152	0.393572	-0.6975	0.198	0.5535	0	222	21	3
2026-02-23	16:53:58.750	1.26	8.575	-39.13	0.767868	0.59658	0.348188	-0.6915	0.189	0.5685	0	222	21	3
2026-02-23	16:53:58.770	-13.09	9.485	-37.73	0.761036	0.570716	0.292556	-0.6915	0.183	0.5625	0	222	21	3
2026-02-23	16:53:58.790	-20.23	10.395	-34.545	0.781776	0.5429	0.277184	-0.69	0.174	0.558	0	222	21	3
2026-02-23	16:53:58.810	-24.115	12.915	-29.645	0.778604	0.565348	0.280112	-0.684	0.1665	0.5565	0	221	29	3
2026-02-23	16:53:58.830	-28.525	15.295	-26.285	0.759572	0.59536	0.273036	-0.681	0.1635	0.5535	0	221	29	3
2026-02-23	16:53:58.850	-31.885	15.645	-25.095	0.733708	0.610244	0.244	-0.681	0.165	0.5475	0	221	29	3
2026-02-23	16:53:58.870	-29.085	12.88	-25.515	0.692716	0.615856	0.242536	-0.681	0.165	0.5445	0	221	29	3
2026-02-23	16:53:58.890	-33.11	10.045	-24.045	0.646112	0.618784	0.236924	-0.681	0.165	0.5445	0	221	29	3
2026-02-23	16:53:58.910	-40.39	6.125	-22.715	0.654896	0.620492	0.238144	-0.6705	0.1515	0.525	0	221	29	3
2026-02-23	16:53:58.930	-44.975	2.87	-22.4	0.63928	0.601948	0.224236	-0.6645	0.144	0.528	0	221	29	3
2026-02-23	16:53:58.950	-45.01	-0.56	-22.12	0.61366	0.588772	0.213988	-0.6615	0.147	0.51	0	221	29	3
2026-02-23	16:53:58.970	-40.215	-4.13	-21.28	0.592188	0.589748	0.210572	-0.6555	0.1335	0.5205	0	221	29	3
2026-02-23	16:53:58.990	-34.265	-8.085	-19.845	0.575108	0.588528	0.209108	-0.66	0.1335	0.504	0	221	29	3
2026-02-23	16:53:59.010	-31.15	-13.405	-17.465	0.57828	0.584624	0.210816	-0.6615	0.1275	0.504	0	222	91	3
2026-02-23	16:53:59.030	-28.735	-18.235	-15.085	0.545584	0.576572	0.21716	-0.6495	0.1275	0.5055	0	222	91	3
2026-02-23	16:53:59.050	-27.23	-23.835	-13.37	0.529236	0.59414	0.249124	-0.6525	0.1335	0.51	0	222	91	3
2026-02-23	16:53:59.070	-26.145	-29.085	-12.215	0.530456	0.578768	0.283772	-0.6525	0.1245	0.5055	0	222	91	3
2026-02-23	16:53:59.090	-26.215	-33.075	-10.675	0.521916	0.575108	0.298656	-0.645	0.1215	0.504	0	222	91	3
2026-02-23	16:53:59.110	-28.7	-36.4	-9.205	0.507032	0.553148	0.308172	-0.642	0.1215	0.5025	0	222	91	3
2026-02-23	16:53:59.130	-29.33	-40.6	-8.4	0.49532	0.511912	0.301828	-0.6465	0.1245	0.504	0	222	91	3
2026-02-23	16:53:59.150	-17.22	-46.235	-8.05	0.50874	0.51362	0.302804	-0.648	0.123	0.504	0	222	91	3
2026-02-23	16:53:59.170	1.96	-51.45	-7.35	0.544608	0.534116	0.32574	-0.648	0.123	0.504	0	222	91	3
2026-02-23	16:53:59.190	11.725	-54.075	-6.09	0.53802	0.556808	0.351116	-0.645	0.1185	0.5205	0	222	91	3
2026-02-23	16:53:59.210	15.47	-57.925	-4.27	0.56608	0.5795	0.350384	-0.6435	0.1155	0.5235	0	223	143	2
2026-02-23	16:53:59.230	13.755	-61.635	-1.435	0.632204	0.645868	0.34404	-0.6375	0.105	0.5325	0	223	143	2
2026-02-23	16:53:59.250	2.24	-64.61	1.61	0.696132	0.66612	0.329156	-0.6315	0.1125	0.54	0	223	143	2
2026-02-23	16:53:59.270	-10.605	-66.745	2.45	0.731024	0.641232	0.313052	-0.624	0.1185	0.5475	0	223	143	2
2026-02-23	16:53:59.290	-20.51	-68.845	0.735	0.753716	0.61366	0.27938	-0.6255	0.111	0.558	0	223	143	2
2026-02-23	16:53:59.310	-25.83	-71.26	-0.455	0.801784	0.587796	0.268644	-0.633	0.1215	0.5625	0	223	143	2
2026-02-23	16:53:59.330	-24.885	-71.645	0.35	0.855464	0.576328	0.240584	-0.6255	0.1155	0.5685	0	223	143	2
2026-02-23	16:53:59.350	-16.135	-69.895	0.7	0.834236	0.560224	0.182268	-0.627	0.1155	0.5745	0	223	143	2
2026-02-23	16:53:59.370	-7.98	-69.895	-0.105	0.83448	0.528504	0.123464	-0.6165	0.117	0.5865	0	223	143	2
2026-02-23	16:53:59.390	-1.47	-70.91	1.715	0.888648	0.556076	0.081252	-0.6135	0.117	0.5805	0	223	143	2
2026-02-23	16:53:59.410	-0.56	-70.56	6.545	0.954284	0.621712	0.081984	-0.6135	0.1155	0.5895	0	222	181	2
2026-02-23	16:53:59.430	-11.305	-67.725	12.915	1.01504	0.666608	0.050264	-0.612	0.114	0.6045	0	222	181	2
2026-02-23	16:53:59.450	-24.29	-62.335	14.105	1.006744	0.66856	0.012932	-0.6105	0.114	0.606	0	222	181	2
2026-02-23	16:53:59.470	-35.28	-56.805	11.55	1.024312	0.660508	0.002196	-0.6075	0.1185	0.612	0	222	181	2
2026-02-23	16:53:59.490	-41.615	-48.44	9.38	1.05652	0.648552	-0.021228	-0.606	0.102	0.6105	0	222	181	2
2026-02-23	16:53:59.510	-40.075	-38.57	7.105	1.047004	0.628544	-0.0488	-0.6015	0.1035	0.615	0	222	181	2
2026-02-23	16:53:59.530	-34.685	-30.59	4.235	1.021384	0.609512	-0.07686	-0.5955	0.1095	0.6165	0	222	181	2
2026-02-23	16:53:59.550	-27.545	-24.57	0.98	0.999424	0.599996	-0.087596	-0.5955	0.1065	0.612	0	222	181	2
2026-02-23	16:53:59.570	-17.185	-19.46	-1.68	0.936716	0.56974	-0.096868	-0.5955	0.1065	0.618	0	222	181	2
2026-02-23	16:53:59.590	-3.01	-14.735	-3.675	0.863272	0.52582	-0.10614	-0.6015	0.102	0.6105	0	222	181	2
2026-02-23	16:53:59.610	10.22	-10.43	-4.025	0.799832	0.506788	-0.115412	-0.594	0.105	0.6135	0	222	179	3
2026-02-23	16:53:59.630	20.86	-6.615	-2.03	0.774944	0.543876	-0.123952	-0.603	0.102	0.612	0	222	179	3
2026-02-23	16:53:59.650	26.25	-3.465	1.75	0.79544	0.591944	-0.139812	-0.6	0.1065	0.6165	0	222	179	3
2026-02-23	16:53:59.670	26.6	-0.735	5.215	0.809348	0.622444	-0.15738	-0.594	0.105	0.627	0	222	179	3
2026-02-23	16:53:59.690	23.275	1.575	7.315	0.792024	0.604388	-0.173972	-0.6	0.1095	0.633	0	222	179	3
2026-02-23	16:53:59.710	30.905	2.1	6.65	0.754692	0.58316	-0.185196	-0.597	0.111	0.6255	0	222	179	3
2026-02-23	16:53:59.730	44.695	0.455	3.745	0.691008	0.587796	-0.177632	-0.594	0.1125	0.6195	0	222	179	3
2026-02-23	16:53:59.750	43.435	-3.255	2.345	0.659532	0.628544	-0.154696	-0.603	0.12	0.645	0	222	179	3
2026-02-23	16:53:59.770	32.48	-9.31	2.905	0.673196	0.664168	-0.141276	-0.597	0.117	0.6375	0	222	179	3
2026-02-23	16:53:59.790	20.685	-14.175	3.43	0.644892	0.665632	-0.132736	-0.606	0.1305	0.639	0	222	179	3
2026-02-23	16:53:59.810	11.34	-18.69	3.22	0.625616	0.658068	-0.131272	-0.606	0.123	0.6525	0	223	132	3
2026-02-23	16:53:59.830	6.545	-22.4	2.59	0.621956	0.672708	-0.151524	-0.6	0.126	0.6465	0	223	132	3
2026-02-23	16:53:59.850	7.84	-25.69	2.905	0.67222	0.692716	-0.194712	-0.5925	0.132	0.66	0	223	132	3
2026-02-23	16:53:59.870	24.43	-28.14	2.45	0.691984	0.661484	-0.238632	-0.5985	0.1215	0.6645	0	223	132	3
2026-02-23	16:53:59.890	50.435	-30.065	1.75	0.713944	0.6649	-0.270596	-0.594	0.1305	0.6675	0	223	132	3
2026-02-23	16:53:59.910	55.51	-30.205	2.205	0.701012	0.763476	-0.28792	-0.585	0.138	0.678	0	223	132	3
2026-02-23	16:53:59.930	33.985	-33.88	2.8	0.75152	0.786656	-0.27572	-0.5865	0.132	0.681	0	223	132	3
2026-02-23	16:53:59.950	8.68	-38.78	3.57	0.786168	0.744932	-0.250344	-0.579	0.144	0.69	0	223	132	3
2026-02-23	16:53:59.970	0	-42.175	1.645	0.750544	0.669292	-0.239364	-0.5865	0.1485	0.6975	0	223	132	3
2026-02-23	16:53:59.990	21.49	-47.635	-2.695	0.712968	0.61366	-0.251808	-0.588	0.138	0.699	0	223	132	3
2026-02-23	16:54:00.010	38.465	-52.43	-1.61	0.70516	0.637572	-0.29158	-0.588	0.138	0.699	0	224	57	3
2026-02-23	16:54:00.030	35.7	-56.7	2.94	0.703452	0.615612	-0.33794	-0.5835	0.1485	0.723	0	224	57	3
2026-02-23	16:54:00.050	35.525	-60.55	8.085	0.697108	0.53314	-0.378932	-0.5625	0.1485	0.72	0	224	57	3
2026-02-23	16:54:00.070	37.03	-60.515	14.525	0.684908	0.610488	-0.402112	-0.564	0.1545	0.7275	0	224	57	3
2026-02-23	16:54:00.090	-19.635	-56.21	22.925	0.651968	0.7137	-0.429928	-0.5535	0.1575	0.744	0	224	57	3
2026-02-23	16:54:00.110	-78.26	-57.12	26.075	0.620492	0.66856	-0.393572	-0.546	0.1605	0.753	0	224	57	3
2026-02-23	16:54:00.130	-92.365	-63.42	19.075	0.565836	0.588772	-0.391864	-0.546	0.1665	0.747	0	224	57	3
2026-02-23	16:54:00.150	-74.795	-70.49	11.795	0.540216	0.612928	-0.427732	-0.5385	0.147	0.7425	0	224	57	3
2026-02-23	16:54:00.170	-73.29	-79.065	12.81	0.744932	0.65392	-0.477996	-0.5445	0.147	0.7455	0	224	57	3
2026-02-23	16:54:00.190	-73.64	-77.805	20.475	0.886452	0.54046	-0.444568	-0.531	0.1365	0.7395	0	224	57	3
2026-02-23	16:54:00.210	-48.72	-70.49	25.97	0.810812	0.550952	-0.464088	-0.528	0.144	0.738	0	225	33	3
2026-02-23	16:54:00.230	2.485	-68.355	28.98	0.712968	0.401136	-0.428952	-0.519	0.1305	0.7305	0	225	33	3
2026-02-23	16:54:00.250	75.53	-65.415	38.955	0.669292	0.168604	-0.31232	-0.513	0.1395	0.7425	0	225	33	3
2026-02-23	16:54:00.270	136.815	-57.295	49.56	0.701256	0.205692	-0.266936	-0.507	0.1485	0.75	0	225	33	3
2026-02-23	16:54:00.290	189	-38.29	45.5	0.930128	0.518744	-0.389668	-0.507	0.1485	0.75	0	225	33	3
2026-02-23	16:54:00.310	227.675	-21.77	30.975	0.929152	0.618052	-0.421144	-0.5055	0.1845	0.7845	0	225	33	3
2026-02-23	16:54:00.330	226.1	-11.48	18.235	0.884012	0.585356	-0.428464	-0.5055	0.222	0.819	0	225	33	3
2026-02-23	16:54:00.350	188.405	-5.635	6.23	0.91134	0.670268	-0.46848	-0.5145	0.243	0.8355	0	225	33	3
2026-02-23	16:54:00.370	126.28	-0.98	-6.37	0.993568	0.701012	-0.404064	-0.5085	0.27	0.8475	0	225	33	3
2026-02-23	16:54:00.390	62.475	1.75	-21.525	1.040416	0.682224	-0.420168	-0.51	0.288	0.8685	0	225	33	3
2026-02-23	16:54:00.410	43.785	3.815	-33.915	1.042856	0.288164	-0.258152	-0.5175	0.2955	0.87	0	228	121	3
2026-02-23	16:54:00.430	62.335	17.045	-30.38	1.125084	0.170556	0.188124	-0.5115	0.309	0.87	0	228	121	3
2026-02-23	16:54:00.450	-20.16	48.44	-8.96	1.01016	0.25742	0.332328	-0.5145	0.309	0.87	0	228	121	3
2026-02-23	16:54:00.470	-97.125	78.015	-0.805	0.948672	0.33672	0.209352	-0.5205	0.312	0.8685	0	228	121	3
2026-02-23	16:54:00.490	-164.99	89.215	17.325	0.85644	0.194956	-0.106872	-0.522	0.3045	0.852	0	228	121	3
2026-02-23	16:54:00.510	-181.58	76.405	32.515	0.843996	0.30012	-0.271572	-0.5355	0.291	0.8325	0	228	121	3
2026-02-23	16:54:00.530	-176.715	58.59	41.86	0.84912	0.355508	-0.284016	-0.5505	0.2625	0.819	0	228	121	3
2026-02-23	16:54:00.550	-166.6	45.465	45.885	0.855708	0.417484	-0.233752	-0.552	0.243	0.7995	0	228	121	3
2026-02-23	16:54:00.570	-147.77	34.685	39.305	0.747128	0.51484	-0.260348	-0.564	0.2385	0.783	0	228	121	3
2026-02-23	16:54:00.590	-105.525	30.765	31.955	0.752496	0.510936	-0.203496	-0.5745	0.222	0.7665	0	228	121	3
2026-02-23	16:54:00.610	-84.105	34.545	26.74	0.77104	0.584136	-0.210328	-0.5865	0.201	0.744	0	233	170	3
2026-02-23	16:54:00.630	-80.36	39.76	24.045	0.821792	0.537288	-0.173972	-0.5925	0.198	0.7335	0	233	170	3
2026-02-23	16:54:00.650	-67.025	42.91	22.4	0.905972	0.434076	-0.146156	-0.597	0.1995	0.7275	0	233	170	3
2026-02-23	16:54:00.670	-33.11	49.98	19.915	0.964776	0.324276	-0.087596	-0.597	0.195	0.714	0	233	170	3
2026-02-23	16:54:00.690	-4.41	58.135	23.24	1.09678	0.223504	-0.083204	-0.612	0.189	0.702	0	233	170	3
2026-02-23	16:54:00.710	-6.475	61.53	32.9	1.161928	0.297924	-0.233996	-0.609	0.1875	0.696	0	233	170	3
2026-02-23	16:54:00.730	5.95	54.215	39.55	1.046272	0.226188	-0.29402	-0.6105	0.192	0.699	0	233	170	3
2026-02-23	16:54:00.750	10.535	41.965	48.02	0.925492	0.453352	-0.337208	-0.624	0.201	0.6885	0	233	170	3
2026-02-23	16:54:00.770	-40.215	12.11	50.05	1.146068	0.5124	-0.868152	-0.6255	0.1965	0.696	0	233	170	3
2026-02-23	16:54:00.790	-46.795	-42.35	22.89	1.566968	0.07686	-1.306376	-0.636	0.2055	0.6705	0	233	170	3
2026-02-23	16:54:00.810	-52.43	-76.685	22.505	1.214876	-0.162748	-0.696864	-0.6435	0.2025	0.678	0	239	196	3
2026-02-23	16:54:00.830	-73.885	-76.37	18.725	1.12362	-0.2684	0.229604	-0.63	0.201	0.69	0	239	196	3
2026-02-23	16:54:00.850	3.745	-39.865	3.885	0.883036	0.53558	-0.364048	-0.6255	0.201	0.6885	0	239	196	3
2026-02-23	16:54:00.870	-13.3	-27.79	1.155	0.83326	0.361852	-0.369172	-0.6255	0.201	0.693	0	239	196	3
2026-02-23	16:54:00.890	-34.79	-20.475	-2.695	0.916952	0.333304	-0.276208	-0.624	0.1995	0.696	0	239	196	3
2026-02-23	16:54:00.910	-35.35	-12.005	-0.77	1.007964	0.116388	-0.219112	-0.618	0.198	0.6945	0	239	196	3
2026-02-23	16:54:00.930	-16.24	-2.485	13.125	1.013088	0.324032	-0.018056	-0.6135	0.192	0.696	0	239	196	3
2026-02-23	16:54:00.950	-0.77	10.955	22.715	0.954772	0.746152	0.107604	-0.6135	0.1875	0.6975	0	239	196	3
2026-02-23	16:54:00.970	-22.715	17.85	18.795	0.991372	0.69662	0.019032	-0.6195	0.189	0.6885	0	239	196	3
2026-02-23	16:54:00.990	-51.38	29.19	15.75	1.100928	0.600484	-0.0732	-0.624	0.1905	0.69	0	239	196	3
2026-02-23	16:54:01.010	-70.98	43.645	15.68	1.098	0.486536	-0.204472	-0.633	0.201	0.684	0	249	219	3
2026-02-23	16:54:01.030	-51.065	44.03	10.08	1.01992	0.209108	-0.24034	-0.63	0.1965	0.666	0	249	219	3
2026-02-23	16:54:01.050	-5.985	31.815	1.155	0.966484	0.27938	-0.28548	-0.645	0.1875	0.669	0	249	219	3
2026-02-23	16:54:01.070	12.32	22.12	-8.26	0.823744	0.289872	-0.340624	-0.6435	0.186	0.657	0	249	219	3
2026-02-23	16:54:01.090	-5.18	8.54	-3.675	0.840824	0.104188	-0.251808	-0.6435	0.189	0.6525	0	249	219	3
2026-02-23	16:54:01.110	-38.815	-6.16	15.68	0.881572	0.128588	-0.201544	-0.642	0.1875	0.6495	0	249	219	3
2026-02-23	16:54:01.130	-60.725	-14.7	32.9	0.937204	0.332816	-0.351116	-0.6405	0.1755	0.645	0	249	219	3
2026-02-23	16:54:01.150	-48.23	-15.47	27.44	1.063596	0.396744	-0.38064	-0.639	0.1785	0.6405	0	249	219	3
2026-02-23	16:54:01.170	-15.575	-10.08	13.755	1.076284	0.297924	-0.347944	-0.6405	0.1845	0.639	0	249	219	3
2026-02-23	16:54:01.190	11.095	-3.08	4.48	1.122644	0.250832	-0.31354	-0.645	0.1875	0.639	0	249	219	3
2026-02-23	16:54:01.210	31.15	-4.445	-5.32	0.977952	0.323544	-0.39162	-0.648	0.186	0.6405	0	259	232	3
2026-02-23	16:54:01.230	33.425	-15.225	-10.85	0.92598	0.290604	-0.419192	-0.6435	0.1845	0.645	0	259	232	3
2026-02-23	16:54:01.250	18.795	-23.8	-6.09	0.992836	0.024888	-0.406748	-0.642	0.189	0.645	0	259	232	3
2026-02-23	16:54:01.270	9.695	-21.315	7.07	0.95892	0.06588	-0.376736	-0.6435	0.1935	0.648	0	259	232	3
2026-02-23	16:54:01.290	14.56	-15.085	14.595	0.891088	0.141032	-0.284748	-0.6375	0.192	0.6555	0	259	232	3
2026-02-23	16:54:01.310	33.705	-10.885	13.335	1.003328	0.399184	-0.262056	-0.645	0.195	0.66	0	259	232	3
2026-02-23	16:54:01.330	22.68	-10.955	10.29	0.97356	0.391864	-0.401868	-0.639	0.2025	0.663	0	259	232	3
2026-02-23	16:54:01.350	0.175	-13.405	8.61	1.026264	0.204228	-0.316224	-0.6405	0.2025	0.675	0	259	232	3
2026-02-23	16:54:01.370	0.56	-11.2	7.21	1.008452	0.177144	-0.266936	-0.6405	0.204	0.678	0	259	232	3
2026-02-23	16:54:01.390	4.725	-11.095	7.805	0.964288	0.301828	-0.306708	-0.6375	0.207	0.6825	0	259	232	3
2026-02-23	16:54:01.410	11.41	-13.545	5.74	0.975268	0.25376	-0.362828	-0.6345	0.2025	0.681	0	265	250	3
2026-02-23	16:54:01.430	8.505	-14.945	6.37	1.027484	0.335744	-0.216184	-0.633	0.207	0.6795	0	265	250	3
2026-02-23	16:54:01.450	-6.195	-19.145	6.86	0.881572	0.209108	-0.374296	-0.636	0.213	0.6825	0	265	250	3
2026-02-23	16:54:01.470	0.42	-23.38	10.605	0.996008	0.055388	-0.337208	-0.642	0.2115	0.681	0	265	250	3
2026-02-23	16:54:01.490	14.98	-22.925	16.835	1.03212	0.421388	-0.204472	-0.6435	0.2115	0.6825	0	265	250	3
2026-02-23	16:54:01.510	14.42	-25.41	8.47	0.979904	0.354776	-0.450668	-0.642	0.213	0.6855	0	265	250	3
2026-02-23	16:54:01.530	8.89	-33.565	6.965	0.9272	0.350384	-0.215452	-0.639	0.2175	0.687	0	265	250	3
2026-02-23	16:54:01.550	-2.765	-35.805	9.625	0.955504	0.302804	-0.279136	-0.6375	0.219	0.6975	0	265	250	3
2026-02-23	16:54:01.570	13.615	-41.09	4.13	0.862784	0.099552	-0.276696	-0.636	0.2235	0.7035	0	265	250	3
2026-02-23	16:54:01.590	14.84	-41.79	14.7	0.9394	0.329644	-0.16714	-0.6345	0.228	0.705	0	265	250	3
2026-02-23	16:54:01.610	10.045	-43.4	14.735	0.895968	0.259616	-0.185196	-0.633	0.2235	0.708	0	266	266	3
2026-02-23	16:54:01.630	6.475	-45.675	20.09	1.026752	0.066124	-0.109068	-0.624	0.228	0.714	0	266	266	3
2026-02-23	16:54:01.650	14.49	-40.25	23.275	1.036756	0.19032	-0.142496	-0.633	0.237	0.72	0	266	266	3
2026-02-23	16:54:01.670	19.53	-34.125	24.115	1.081164	0.297436	-0.14274	-0.6285	0.2355	0.72	0	266	266	3
2026-02-23	16:54:01.690	27.79	-39.62	16.415	1.00528	0.178608	-0.26108	-0.624	0.2385	0.7305	0	266	266	3
2026-02-23	16:54:01.710	36.435	-45.465	16.38	1.001132	0.1159	-0.223016	-0.624	0.2385	0.7305	0	266	266	3
2026-02-23	16:54:01.730	42.49	-46.655	20.265	0.874496	0.230092	-0.314028	-0.6165	0.246	0.7395	0	266	266	3
2026-02-23	16:54:01.750	21.35	-43.785	29.82	0.993324	0.191296	-0.299876	-0.6105	0.2595	0.756	0	266	266	3
2026-02-23	16:54:01.770	-5.32	-45.745	32.2	1.018944	0.197884	-0.29036	-0.6105	0.2655	0.7635	0	266	266	3
2026-02-23	16:54:01.790	13.965	-55.965	22.435	0.958432	0.07808	-0.1159	-0.6075	0.2685	0.7665	0	266	266	3
2026-02-23	16:54:01.810	16.87	-63.49	15.4	0.931836	0.207156	-0.222772	-0.6075	0.273	0.7755	0	261	268	2
2026-02-23	16:54:01.830	21	-62.195	4.375	0.951844	0.347944	-0.17446	-0.6	0.2775	0.7845	0	261	268	2
2026-02-23	16:54:01.850	40.32	-49.945	-7.385	0.997472	0.138104	-0.24034	-0.588	0.276	0.792	0	261	268	2
2026-02-23	16:54:01.870	55.02	-37.625	-14.98	0.921832	0.125172	-0.069784	-0.5865	0.279	0.7965	0	261	268	2
2026-02-23	16:54:01.890	62.51	-32.2	-18.235	0.745664	-0.09272	-0.214476	-0.5865	0.285	0.804	0	261	268	2
2026-02-23	16:54:01.910	51.555	-29.575	-2.73	0.641232	0.284504	-0.240828	-0.5865	0.288	0.8115	0	261	268	2
2026-02-23	16:54:01.930	26.6	-26.425	9.275	0.764696	0.463356	-0.160796	-0.573	0.288	0.807	0	261	268	2
2026-02-23	16:54:01.950	40.565	-21.525	3.99	1.008208	0.2806	-0.122976	-0.57	0.2985	0.8235	0	261	268	2
2026-02-23	16:54:01.970	98.63	-1.75	-5.6	0.992592	0.123708	-0.045384	-0.5745	0.3015	0.822	0	261	268	2
2026-02-23	16:54:01.990	126.56	17.395	-8.26	0.854	0.142008	-0.147132	-0.5745	0.3015	0.822	0	261	268	2
2026-02-23	16:54:02.010	129.57	25.83	-2.625	0.846924	0.16714	-0.315004	-0.573	0.321	0.8295	0	254	260	2
2026-02-23	16:54:02.030	101.85	28.175	6.44	0.80398	0.220088	-0.4697	-0.5715	0.351	0.84	0	254	260	2
2026-02-23	16:54:02.050	51.8	20.02	14.315	0.824476	0.149816	-0.644648	-0.576	0.366	0.8415	0	254	260	2
2026-02-23	16:54:02.070	75.425	6.685	7.035	0.934764	0.066612	-0.652456	-0.582	0.3705	0.8445	0	254	260	2
2026-02-23	16:54:02.090	177.275	-6.755	-9.345	0.953796	-0.063196	-0.52582	-0.5835	0.384	0.84	0	254	260	2
2026-02-23	16:54:02.110	208.74	-13.825	-12.95	0.876936	-0.277672	-0.414556	-0.5805	0.408	0.84	0	254	260	2
2026-02-23	16:54:02.130	90.265	-19.635	4.655	0.719312	-0.132248	-0.566324	-0.5775	0.432	0.852	0	254	260	2
2026-02-23	16:54:02.150	-24.885	-26.67	17.64	0.813496	-0.208132	-0.575108	-0.5745	0.444	0.8535	0	254	260	2
2026-02-23	16:54:02.170	-17.465	-15.96	15.365	0.790804	-0.181536	-0.602436	-0.5685	0.4455	0.852	0	254	260	2
2026-02-23	16:54:02.190	-10.92	-0.28	9.24	0.750544	-0.00488	-0.682468	-0.5655	0.441	0.8565	0	254	260	2
2026-02-23	16:54:02.210	-19.53	9.205	10.36	0.83448	0.057584	-0.584868	-0.564	0.4365	0.858	0	248	273	3
2026-02-23	16:54:02.230	-27.37	13.965	11.41	0.874984	0.199104	-0.468236	-0.573	0.438	0.8595	0	248	273	3
2026-02-23	16:54:02.250	-37.205	14.56	8.75	1.045784	0.230336	-0.57584	-0.57	0.4455	0.852	0	248	273	3
2026-02-23	16:54:02.270	-47.775	4.375	3.045	1.156316	-0.210084	-0.250832	-0.57	0.4455	0.852	0	248	273	3
2026-02-23	16:54:02.290	-32.62	4.235	-1.015	1.10776	-0.533872	0.035868	-0.5715	0.4335	0.852	0	248	273	3
2026-02-23	16:54:02.310	-19.355	14.315	-5.81	0.993568	-0.190808	-0.233508	-0.5745	0.4215	0.8505	0	248	273	3
2026-02-23	16:54:02.330	-16.31	18.235	-12.46	0.938424	0.264008	-0.17446	-0.5745	0.417	0.849	0	248	273	3
2026-02-23	16:54:02.350	-29.96	35.07	-28.7	1.027484	0.711748	-0.02806	-0.5745	0.417	0.846	0	248	273	3
2026-02-23	16:54:02.370	-18.445	46.76	-50.085	0.956968	0.626348	-0.060512	-0.582	0.4125	0.843	0	248	273	3
2026-02-23	16:54:02.390	-4.69	47.74	-54.88	0.835212	0.57584	-0.260348	-0.5895	0.4005	0.837	0	248	273	3
2026-02-23	16:54:02.410	-22.19	42.245	-40.39	0.883768	0.341844	-0.327448	-0.5955	0.3945	0.834	0	249	300	3
2026-02-23	16:54:02.430	-45.01	48.895	-27.3	0.963312	0.342576	-0.089304	-0.597	0.3855	0.8295	0	249	300	3
2026-02-23	16:54:02.450	-54.425	54.81	-27.125	0.917684	0.032696	-0.90646	-0.603	0.378	0.822	0	249	300	3
2026-02-23	16:54:02.470	-46.41	35.77	-19.74	0.98332	-0.428708	-0.870592	-0.615	0.3705	0.8175	0	249	300	3
2026-02-23	16:54:02.490	-41.195	19.53	-23.345	0.922076	0.310124	-0.786412	-0.6165	0.3645	0.8085	0	249	300	3
2026-02-23	16:54:02.510	-27.3	18.34	-42.35	0.923052	0.136884	0.168116	-0.6135	0.36	0.804	0	249	300	3
2026-02-23	16:54:02.530	-9.695	41.405	-61.705	0.784948	0.62098	-0.62464	-0.615	0.357	0.804	0	249	300	3
2026-02-23	16:54:02.550	-2.87	6.335	-54.32	0.903776	0.091744	-0.526308	-0.615	0.357	0.804	0	249	300	3
2026-02-23	16:54:02.570	-16.8	7.455	-34.195	1.009184	0.072224	-0.006588	-0.618	0.3465	0.798	0	249	300	3
2026-02-23	16:54:02.590	-14.805	15.61	-24.92	0.94184	0.021716	-0.417484	-0.621	0.3285	0.789	0	249	300	3
2026-02-23	16:54:02.610	-35.245	27.545	-9.52	1.005524	0.177876	-0.376248	-0.618	0.324	0.7905	0	257	323	3
2026-02-23	16:54:02.630	-28.455	21.84	-0.42	0.881328	-0.20008	-0.754936	-0.6195	0.3195	0.7875	0	257	323	3
2026-02-23	16:54:02.650	-2.555	7.56	5.6	0.957212	0.13542	-0.496784	-0.6225	0.3135	0.7815	0	257	323	3
2026-02-23	16:54:02.670	1.645	22.82	-5.215	1.083604	0.315004	0.160064	-0.6165	0.315	0.783	0	257	323	3
2026-02-23	16:54:02.690	10.115	39.55	-27.09	1.083848	0.192272	-0.238632	-0.6165	0.315	0.7755	0	257	323	3
2026-02-23	16:54:02.710	-10.535	21.945	-24.465	1.17486	0.212036	-0.543144	-0.624	0.312	0.7695	0	257	323	3
2026-02-23	16:54:02.730	-23.835	1.435	-22.505	1.193648	0.342088	0.130296	-0.627	0.3075	0.7695	0	257	323	3
2026-02-23	16:54:02.750	-19.18	15.225	-36.855	1.125572	0.100528	0.171532	-0.6255	0.3015	0.768	0	257	323	3
2026-02-23	16:54:02.770	-4.585	17.465	-45.71	1.057008	0.176168	-0.366488	-0.624	0.3	0.7635	0	257	323	3
2026-02-23	16:54:02.790	-28.35	8.4	-28.805	1.13582	-0.02318	0.172264	-0.624	0.2955	0.7665	0	257	323	3
2026-02-23	16:54:02.810	-30.415	15.785	-29.365	1.006988	0.252784	-0.235216	-0.6225	0.2865	0.7635	0	271	332	3
2026-02-23	16:54:02.830	-35.14	10.71	-22.995	1.02358	-0.054168	-0.59902	-0.6225	0.282	0.7545	0	271	332	3
2026-02-23	16:54:02.850	-49.385	21.735	-7.735	1.16388	0.114192	0.4087	-0.621	0.2715	0.7515	0	271	332	3
2026-02-23	16:54:02.870	-35.735	40.775	-16.52	0.939644	0.281332	-0.485072	-0.618	0.2625	0.744	0	271	332	3
2026-02-23	16:54:02.890	-20.72	27.16	-17.185	0.920612	0.300608	-0.471652	-0.6195	0.258	0.738	0	271	332	3
2026-02-23	16:54:02.910	-15.785	15.295	-17.64	1.032852	0.290604	0.004392	-0.6255	0.2565	0.7335	0	271	332	3
2026-02-23	16:54:02.930	-15.12	27.195	-26.495	0.845704	0.709064	0.19764	-0.624	0.2535	0.7275	0	271	332	3
2026-02-23	16:54:02.950	-7.035	37.73	-42.805	0.76128	0.594628	-0.10004	-0.6225	0.246	0.7275	0	271	332	3
2026-02-23	16:54:02.970	-18.2	27.79	-35.455	0.92232	0.391376	-0.346968	-0.6225	0.2385	0.7245	0	271	332	3
2026-02-23	16:54:02.990	-41.58	25.025	-25.69	0.870104	0.639524	0.071004	-0.6225	0.234	0.7125	0	271	332	3
2026-02-23	16:54:03.010	-37.38	31.535	-30.065	0.894748	0.365512	-0.501664	-0.6255	0.2295	0.711	0	288	311	2
2026-02-23	16:54:03.030	-52.185	29.89	-13.3	0.884988	0.415044	0.069052	-0.6255	0.2205	0.705	0	288	311	2
2026-02-23	16:54:03.050	-62.86	44.59	-4.375	0.850828	0.654408	-0.095404	-0.624	0.213	0.6945	0	288	311	2
2026-02-23	16:54:03.070	-48.58	46.41	-9.485	0.8723	0.35258	-0.251076	-0.6285	0.2085	0.6885	0	288	311	2
2026-02-23	16:54:03.090	-57.12	46.41	-0.945	1.05042	0.388448	-0.200324	-0.6345	0.207	0.6765	0	288	311	2
2026-02-23	16:54:03.110	-59.675	48.3	-10.045	0.930128	0.464332	-0.079544	-0.639	0.207	0.669	0	288	311	2
2026-02-23	16:54:03.130	-56.665	53.655	-11.025	0.883768	0.220088	-0.285236	-0.639	0.207	0.669	0	288	311	2
2026-02-23	16:54:03.150	-41.055	52.115	-7.175	0.861808	0.502884	0.20496	-0.642	0.198	0.654	0	288	311	2
2026-02-23	16:54:03.170	-34.545	60.48	-10.045	0.977464	0.268644	-0.10736	-0.642	0.1845	0.636	0	288	311	2
2026-02-23	16:54:03.190	-21.21	55.895	-9.52	0.869616	0.479704	0.034892	-0.642	0.1845	0.6225	0	288	311	2
2026-02-23	16:54:03.210	-23.555	58.87	-15.33	0.924272	0.361364	0.11224	-0.645	0.186	0.6135	0	303	271	2
2026-02-23	16:54:03.230	-26.495	60.655	-15.89	0.929396	0.09076799	-0.240828	-0.6465	0.18	0.606	0	303	271	2
2026-02-23	16:54:03.250	-25.515	63.91	-8.925	0.954772	0.580232	0.262056	-0.6525	0.1755	0.5955	0	303	271	2
2026-02-23	16:54:03.270	-53.585	76.055	-12.88	0.924516	0.356972	-0.164456	-0.6525	0.174	0.5895	0	303	271	2
2026-02-23	16:54:03.290	-78.96	64.61	-6.335	1.038708	0.295972	-0.1647	-0.6525	0.171	0.573	0	303	271	2
2026-02-23	16:54:03.310	-104.195	68.005	-0.875	1.047736	0.573888	0.2074	-0.6525	0.1695	0.5535	0	303	271	2
2026-02-23	16:54:03.330	-93.24	67.48	-11.48	1.07482	0.16348	-0.082228	-0.651	0.168	0.54	0	303	271	2
2026-02-23	16:54:03.350	-69.475	54.565	-10.185	1.113128	0.247172	-0.106628	-0.6555	0.159	0.5205	0	303	271	2
2026-02-23	16:54:03.370	-54.32	48.37	-7.875	1.203896	0.095404	-0.215696	-0.6555	0.1575	0.51	0	303	271	2
2026-02-23	16:54:03.390	-55.37	24.325	-1.505	1.070428	0.184464	-0.278648	-0.6555	0.1605	0.51	0	303	271	2
2026-02-23	16:54:03.410	-62.405	8.54	-1.085	1.021872	0.071004	-0.237412	-0.6555	0.1605	0.51	0	315	224	3
2026-02-23	16:54:03.430	-37.1	2.31	-5.845	1.05042	0.088572	-0.139324	-0.657	0.156	0.468	0	315	224	3
2026-02-23	16:54:03.450	-11.585	-2.065	-5.32	1.033096	0.105896	-0.145668	-0.651	0.1485	0.477	0	315	224	3
2026-02-23	16:54:03.470	-31.43	-13.685	4.375	1.015772	0.29646	-0.12444	-0.651	0.1515	0.4725	0	315	224	3
2026-02-23	16:54:03.490	-67.515	-22.645	10.605	0.9882	0.430416	-0.125416	-0.6525	0.1515	0.465	0	315	224	3
2026-02-23	16:54:03.510	-96.495	-22.96	9.03	0.92598	0.46482	-0.10126	-0.6585	0.1515	0.4695	0	315	224	3
2026-02-23	16:54:03.530	-82.39	-23.52	3.5	0.945256	0.254004	-0.097112	-0.6615	0.1515	0.465	0	315	224	3
2026-02-23	16:54:03.550	-22.4	-25.305	-4.76	0.979172	0.498004	-0.085888	-0.6555	0.15	0.456	0	315	224	3
2026-02-23	16:54:03.570	11.445	-16.975	-11.725	1.126548	0.500444	0.448472	-0.6495	0.15	0.4575	0	315	224	3
2026-02-23	16:54:03.590	-8.82	-5.95	0.42	0.98332	0.133468	0.257176	-0.6495	0.153	0.459	0	315	224	3
2026-02-23	16:54:03.610	51.03	-6.895	-4.865	1.053592	0.526796	0.24522	-0.651	0.1575	0.4605	0	320	182	3
2026-02-23	16:54:03.630	78.925	-10.255	-17.15	1.109468	0.296704	0.179096	-0.648	0.1515	0.4695	0	320	182	3
2026-02-23	16:54:03.650	90.195	-23.835	-28.21	1.171688	0.508252	0.011224	-0.6495	0.1455	0.477	0	320	182	3
2026-02-23	16:54:03.670	32.375	-49.735	-31.15	1.101416	0.561444	-0.06344	-0.651	0.147	0.48	0	320	182	3
2026-02-23	16:54:03.690	9.905	-65.275	-29.61	1.121424	0.287676	0.010492	-0.651	0.147	0.48	0	320	182	3
2026-02-23	16:54:03.710	16.87	-69.965	-27.685	1.156804	0.1098	-0.069052	-0.63	0.135	0.5055	0	320	182	3
2026-02-23	16:54:03.730	33.95	-70.035	-21.525	1.148508	0.076616	-0.115412	-0.636	0.144	0.5175	0	320	182	3
2026-02-23	16:54:03.750	53.34	-67.27	-14.875	1.092632	0.329156	-0.182512	-0.6345	0.135	0.5325	0	320	182	3
2026-02-23	16:54:03.770	61.845	-73.535	-17.92	1.02602	0.495076	-0.2074	-0.63	0.132	0.537	0	320	182	3
2026-02-23	16:54:03.790	40.705	-76.895	-13.86	1.077748	0.373076	-0.051728	-0.627	0.132	0.5505	0	320	182	3
2026-02-23	16:54:03.810	26.425	-72.03	-8.4	1.042124	0.424072	-0.221552	-0.621	0.1335	0.5685	0	320	141	3
2026-02-23	16:54:03.830	34.965	-73.5	-8.785	0.959896	0.35868	-0.09076799	-0.6135	0.1335	0.579	0	320	141	3
2026-02-23	16:54:03.850	34.09	-72.45	-2.66	0.915488	0.420168	-0.155916	-0.6105	0.1335	0.588	0	320	141	3
2026-02-23	16:54:03.870	44.03	-74.9	-7.105	0.927444	0.548512	-0.1342	-0.609	0.1335	0.5985	0	320	141	3
2026-02-23	16:54:03.890	46.095	-71.645	-5.81	0.90768	0.466772	-0.197152	-0.609	0.1305	0.6105	0	320	141	3
2026-02-23	16:54:03.910	50.225	-68.6	-2.205	0.771528	0.469944	-0.243268	-0.6075	0.132	0.6195	0	320	141	3
2026-02-23	16:54:03.930	54.355	-70.21	3.57	0.851804	0.430416	-0.181292	-0.6	0.1425	0.633	0	320	141	3
2026-02-23	16:54:03.950	32.165	-66.885	9.905	0.859612	0.541192	-0.146644	-0.597	0.1455	0.6465	0	320	141	3
2026-02-23	16:54:03.970	-6.58	-62.58	14.665	0.858392	0.535336	-0.171288	-0.597	0.1455	0.6465	0	320	141	3
2026-02-23	16:54:03.990	-12.705	-57.925	18.55	0.97722	0.426756	-0.267912	-0.585	0.1455	0.6675	0	320	141	3
2026-02-23	16:54:04.010	-3.185	-62.545	17.08	0.950624	0.336476	0.038796	-0.5835	0.1515	0.669	0	315	122	3
2026-02-23	16:54:04.030	-3.675	-59.29	16.17	1.080432	0.445544	-0.211792	-0.573	0.153	0.678	0	315	122	3
2026-02-23	16:54:04.050	2.975	-60.795	10.78	0.77348	0.305976	-0.155428	-0.588	0.1695	0.678	0	315	122	3
2026-02-23	16:54:04.070	5.285	-57.68	19.285	1.024068	0.334768	-0.199348	-0.579	0.153	0.696	0	315	122	3
2026-02-23	16:54:04.090	-1.435	-63.28	20.755	0.819596	0.444568	-0.208864	-0.5745	0.162	0.696	0	315	122	3
2026-02-23	16:54:04.110	-14.28	-68.075	23.03	0.852048	0.341844	-0.119072	-0.5715	0.1695	0.702	0	315	122	3
2026-02-23	16:54:04.130	-17.71	-62.93	23.52	0.973316	0.400404	-0.236436	-0.5715	0.165	0.708	0	315	122	3
2026-02-23	16:54:04.150	-2.135	-46.41	24.15	1.018456	0.352824	-0.20008	-0.5685	0.165	0.711	0	315	122	3
2026-02-23	16:54:04.170	18.375	-40.32	22.365	0.85766	0.277672	-0.223504	-0.5685	0.1695	0.714	0	315	122	3
2026-02-23	16:54:04.190	9.275	-44.45	29.82	0.848876	0.277672	-0.27328	-0.5685	0.1695	0.72	0	315	122	3
2026-02-23	16:54:04.210	10.465	-52.57	33.04	0.897432	0.364292	-0.25376	-0.5685	0.1725	0.7275	0	306	127	3
2026-02-23	16:54:04.230	2.17	-50.05	39.165	0.956968	0.353556	-0.399184	-0.567	0.18	0.735	0	306	127	3
2026-02-23	16:54:04.250	9.555	-46.585	33.32	0.926956	0.30012	-0.323788	-0.564	0.1815	0.7395	0	306	127	3
2026-02-23	16:54:04.270	15.155	-54.285	28.245	0.818132	0.366	-0.313296	-0.5655	0.1815	0.75	0	306	127	3
2026-02-23	16:54:04.290	7.805	-58.905	29.75	0.91866	0.395524	-0.317688	-0.5595	0.1965	0.759	0	306	127	3
2026-02-23	16:54:04.310	1.435	-55.02	32.34	0.884744	0.342332	-0.481168	-0.558	0.189	0.7575	0	306	127	3
2026-02-23	16:54:04.330	7.245	-52.185	31.71	0.89792	0.306952	-0.440664	-0.549	0.2025	0.7695	0	306	127	3
2026-02-23	16:54:04.350	18.76	-53.445	30.52	0.85034	0.197152	-0.396012	-0.5535	0.2085	0.7815	0	306	127	3
2026-02-23	16:54:04.370	19.915	-56	30.555	0.96258	0.308172	-0.477996	-0.5505	0.213	0.786	0	306	127	3
2026-02-23	16:54:04.390	16.065	-55.265	29.33	0.858392	0.180072	-0.43676	-0.546	0.21	0.786	0	306	127	3
2026-02-23	16:54:04.410	20.475	-51.835	30.94	0.923052	0.304512	-0.450668	-0.543	0.216	0.7875	0	294	160	2
2026-02-23	16:54:04.430	25.935	-56.35	31.5	0.703208	0.124684	-0.446032	-0.5385	0.2205	0.7965	0	294	160	2
2026-02-23	16:54:04.450	21.525	-60.06	39.515	1.047492	0.309392	-0.542656	-0.54	0.2295	0.8025	0	294	160	2
2026-02-23	16:54:04.470	10.465	-66.675	38.01	0.640744	-0.020252	-0.604876	-0.537	0.2355	0.8115	0	294	160	2
2026-02-23	16:54:04.490	6.02	-68.355	43.82	0.940376	0.219112	-0.43188	-0.5265	0.2385	0.819	0	294	160	2
2026-02-23	16:54:04.510	-5.18	-67.725	44.38	0.66368	0.131516	-0.393816	-0.5235	0.246	0.8235	0	294	160	2
2026-02-23	16:54:04.530	-17.99	-66.185	45.465	0.728096	0.378688	-0.213988	-0.5265	0.2475	0.8325	0	294	160	2
2026-02-23	16:54:04.550	13.58	-59.815	29.995	0.747128	0.104676	-0.038308	-0.513	0.252	0.828	0	294	160	2
2026-02-23	16:54:04.570	78.61	-43.925	18.375	0.948184	0.10004	-0.064172	-0.5055	0.258	0.8445	0	294	160	2
2026-02-23	16:54:04.590	119.98	-11.515	3.815	0.943792	0.397964	-0.079788	-0.5025	0.261	0.852	0	294	160	2
2026-02-23	16:54:04.610	163.695	5.215	-15.785	0.902068	0.509716	-0.16836	-0.492	0.2835	0.8535	0	284	210	2
2026-02-23	16:54:04.630	182.91	24.29	-35	0.72346	0.45628	-0.252052	-0.4965	0.3045	0.8775	0	284	210	2
2026-02-23	16:54:04.650	177.835	27.3	-39.725	0.745176	0.226676	-0.495564	-0.498	0.3225	0.873	0	284	210	2
2026-02-23	16:54:04.670	103.95	26.215	-26.005	0.87108	-0.016348	-0.620492	-0.5025	0.3435	0.891	0	284	210	2
2026-02-23	16:54:04.690	-1.26	19.74	1.505	0.968924	-0.643672	-0.519232	-0.513	0.363	0.8865	0	284	210	2
2026-02-23	16:54:04.710	-51.485	15.82	20.58	0.66612	-0.301096	-0.622688	-0.5085	0.357	0.882	0	284	210	2
2026-02-23	16:54:04.730	-73.99	12.81	28.63	0.767136	0.244976	-0.849364	-0.5085	0.3555	0.8775	0	284	210	2
2026-02-23	16:54:04.750	-55.37	9.905	8.855	0.93086	0.571204	-1.076772	-0.5145	0.354	0.8745	0	284	210	2
2026-02-23	16:54:04.770	-8.855	9.59	-22.785	0.763964	0.202276	-0.790316	-0.5175	0.342	0.867	0	284	210	2
2026-02-23	16:54:04.790	-0.35	16.625	-38.92	0.706136	0.239852	-0.82106	-0.519	0.333	0.8625	0	284	210	2
2026-02-23	16:54:04.810	-14.07	13.3	-45.885	0.879376	-0.065148	-0.641964	-0.519	0.3315	0.864	0	279	268	3
2026-02-23	16:54:04.830	1.575	19.635	-43.225	0.78934	-0.161528	-0.480192	-0.5175	0.3195	0.87	0	279	268	3
2026-02-23	16:54:04.850	3.85	26.18	-28.98	0.805932	0.157868	-0.54412	-0.5145	0.3255	0.8685	0	279	268	3
2026-02-23	16:54:04.870	-6.3	22.925	-19.915	0.901092	0.226188	-0.540704	-0.5235	0.3225	0.867	0	279	268	3
2026-02-23	16:54:04.890	-12.705	22.365	-18.515	0.736392	-0.021716	-0.427	-0.531	0.324	0.8625	0	279	268	3
2026-02-23	16:54:04.910	-19.53	27.545	-10.22	0.787144	0.15494	-0.307684	-0.5355	0.3165	0.861	0	279	268	3
2026-02-23	16:54:04.930	-23.94	35.77	-3.955	0.866688	0.28548	-0.069052	-0.531	0.309	0.855	0	279	268	3
2026-02-23	16:54:04.950	-23.87	57.54	-9.8	0.873276	0.732976	-0.246928	-0.534	0.3135	0.8565	0	279	268	3
2026-02-23	16:54:04.970	-18.34	56.77	-24.71	1.040904	0.78202	-0.48922	-0.5475	0.3075	0.843	0	279	268	3
2026-02-23	16:54:04.990	-15.61	45.395	-45.115	0.877424	0.350384	0.06734399	-0.5535	0.3015	0.8385	0	279	268	3
2026-02-23	16:54:05.010	-17.185	55.44	-59.885	0.793244	0.71858	0.161772	-0.5535	0.2925	0.8355	0	281	327	3
2026-02-23	16:54:05.030	-14.665	49.315	-60.375	0.8174	0.244488	-0.07442	-0.5565	0.2895	0.8295	0	281	327	3
2026-02-23	16:54:05.050	-35.105	61.075	-43.785	0.757864	0.523624	-0.091012	-0.5565	0.285	0.8235	0	281	327	3
2026-02-23	16:54:05.070	-31.01	72.135	-43.645	0.684176	0.659532	-0.893284	-0.5595	0.2775	0.8175	0	281	327	3
2026-02-23	16:54:05.090	-13.58	40.005	-42.07	0.72712	0.134932	-0.61244	-0.5655	0.2715	0.813	0	281	327	3
2026-02-23	16:54:05.110	0.035	32.62	-38.43	0.80886	0.460672	-0.695644	-0.567	0.258	0.7995	0	281	327	3
2026-02-23	16:54:05.130	-18.69	24.71	-22.26	1.005524	-0.245952	-0.655872	-0.567	0.255	0.7935	0	281	327	3
2026-02-23	16:54:05.150	-13.685	38.36	-16.8	1.13582	0.386252	-1.048956	-0.5685	0.2445	0.789	0	281	327	3
2026-02-23	16:54:05.170	-1.435	25.935	-24.605	1.007476	-0.047092	-0.521184	-0.579	0.2475	0.7845	0	281	327	3
2026-02-23	16:54:05.190	17.15	32.41	-29.4	1.085312	0.325984	-0.466772	-0.5775	0.24	0.783	0	281	327	3
2026-02-23	16:54:05.210	20.195	23.975	-40.6	1.181936	0.0122	-1.11752	-0.5775	0.243	0.7845	0	290	368	3
2026-02-23	16:54:05.230	1.12	-5.53	-26.845	0.971364	-0.107848	-0.486292	-0.5715	0.24	0.774	0	290	368	3
2026-02-23	16:54:05.250	0	-15.75	-25.97	0.904996	0.100284	-0.579988	-0.567	0.237	0.774	0	290	368	3
2026-02-23	16:54:05.270	-6.545	-29.225	-30.765	1.07238	0.0732	-0.482876	-0.5745	0.234	0.771	0	290	368	3
2026-02-23	16:54:05.290	3.395	-28.385	-39.55	1.047492	0.329156	-0.640256	-0.558	0.2355	0.777	0	290	368	3
2026-02-23	16:54:05.310	16.45	-32.305	-40.775	1.038952	-0.058804	-0.649284	-0.555	0.228	0.7935	0	290	368	3
2026-02-23	16:54:05.330	19.32	-37.555	-40.53	1.085312	0.297436	-0.403576	-0.5505	0.2235	0.7875	0	290	368	3
2026-02-23	16:54:05.350	20.44	-35.875	-50.12	1.247816	0.31964	-0.32696	-0.546	0.2265	0.789	0	290	368	3
2026-02-23	16:54:05.370	19.95	-25.375	-60.585	0.915488	0.38186	-0.089304	-0.5415	0.2295	0.7905	0	290	368	3
2026-02-23	16:54:05.390	5.355	-14.35	-58.555	0.877912	0.388204	-0.016836	-0.5415	0.2295	0.7905	0	290	368	3
2026-02-23	16:54:05.410	-4.13	-6.055	-45.045	0.942816	0.334524	-0.155916	-0.5115	0.222	0.795	0	303	405	3
2026-02-23	16:54:05.430	-10.745	-4.655	-34.44	0.857904	0.500932	-0.256688	-0.513	0.219	0.804	0	303	405	3
2026-02-23	16:54:05.450	-19.32	-5.495	-26.915	0.638304	0.50386	-0.470432	-0.51	0.2145	0.7935	0	303	405	3
2026-02-23	16:54:05.470	-29.26	-1.925	-12.075	0.656116	0.41968	-0.055388	-0.507	0.207	0.795	0	303	405	3
2026-02-23	16:54:05.490	-36.505	9.905	-1.015	0.765184	0.630496	-0.354044	-0.4965	0.207	0.7965	0	303	405	3
2026-02-23	16:54:05.510	-43.19	21.455	2.695	0.933056	0.348676	-0.311344	-0.4965	0.1905	0.7905	0	303	405	3
2026-02-23	16:54:05.530	-40.705	29.47	0.945	0.899384	0.593164	-0.493856	-0.5055	0.1995	0.7845	0	303	405	3
2026-02-23	16:54:05.550	-46.515	22.925	-0.805	0.772992	0.431392	-0.457988	-0.504	0.1905	0.783	0	303	405	3
2026-02-23	16:54:05.570	-52.045	15.33	3.045	0.569008	0.396744	-0.28914	-0.513	0.1905	0.774	0	303	405	3
2026-02-23	16:54:05.590	-60.165	26.285	6.37	0.663192	0.539728	-0.151036	-0.5085	0.177	0.768	0	303	405	3
2026-02-23	16:54:05.610	-53.095	35.07	-1.82	0.698572	0.856196	-0.51118	-0.5175	0.1785	0.765	0	316	412	1
2026-02-23	16:54:05.630	-56.525	38.325	-11.41	0.646356	0.615612	-0.271328	-0.5235	0.1695	0.7515	0	316	412	1
2026-02-23	16:54:05.650	-50.4	38.185	-1.12	0.573888	0.117364	-0.46482	-0.5235	0.1695	0.7515	0	316	412	1
2026-02-23	16:54:05.670	-42.035	29.33	15.085	0.7686	0.460428	-0.447252	-0.5235	0.1695	0.7515	0	316	412	1
2026-02-23	16:54:05.690	-29.47	27.44	13.16	0.682956	0.621712	-0.456036	-0.5205	0.156	0.7305	0	316	412	1
2026-02-23	16:54:05.710	-21.105	29.085	4.13	0.631228	0.752252	-0.098088	-0.5295	0.1545	0.7215	0	316	412	1
2026-02-23	16:54:05.730	-25.13	31.22	-1.61	0.908412	0.582672	-0.551684	-0.528	0.153	0.714	0	316	412	1
2026-02-23	16:54:05.750	-29.54	20.65	-9.66	0.809836	0.780556	-0.620736	-0.5415	0.159	0.7095	0	316	412	1
2026-02-23	16:54:05.770	-32.76	13.16	-15.96	0.917684	0.29402	-0.335256	-0.543	0.1545	0.705	0	316	412	1
2026-02-23	16:54:05.790	-30.94	9.94	-12.215	0.800076	0.437736	-0.23424	-0.5325	0.1425	0.702	0	316	412	1
2026-02-23	16:54:05.810	-32.585	20.545	-14.245	0.85888	0.581208	-0.036112	-0.537	0.1365	0.69	0	327	402	3
2026-02-23	16:54:05.830	-25.935	33.25	-19.11	0.936228	0.573156	-0.152012	-0.5265	0.138	0.6945	0	327	402	3
2026-02-23	16:54:05.850	-17.78	38.325	-22.05	0.967704	0.626348	-0.151036	-0.531	0.1305	0.6885	0	327	402	3
2026-02-23	16:54:05.870	-33.985	37.8	-15.19	0.766404	0.411384	0.027572	-0.531	0.132	0.675	0	327	402	3
2026-02-23	16:54:05.890	-38.15	44.625	-6.86	0.678808	0.556808	0.167384	-0.5355	0.1305	0.678	0	327	402	3
2026-02-23	16:54:05.910	-18.515	54.005	-6.055	0.773968	0.749812	0.050752	-0.534	0.126	0.6735	0	327	402	3
2026-02-23	16:54:05.930	-16.835	75.74	-1.505	0.887916	0.893528	0.138836	-0.5355	0.1185	0.6525	0	327	402	3
2026-02-23	16:54:05.950	-22.715	79.1	-3.43	0.79788	0.722484	-0.096624	-0.5355	0.1185	0.6525	0	327	402	3
2026-02-23	16:54:05.970	-33.075	78.645	-2.52	0.666608	0.739076	0.071492	-0.555	0.12	0.6435	0	327	402	3
2026-02-23	16:54:05.990	-62.23	70.14	2.73	0.855708	0.479704	-0.195444	-0.546	0.123	0.6285	0	327	402	3
2026-02-23	16:54:06.010	-72.17	64.855	13.16	0.884012	0.786412	-0.132492	-0.552	0.12	0.612	0	334	363	3
2026-02-23	16:54:06.030	-114.485	59.57	23.975	0.918416	0.543144	-0.173972	-0.5625	0.117	0.6075	0	334	363	3
2026-02-23	16:54:06.050	-127.575	48.405	33.985	1.0004	0.543632	-0.094428	-0.561	0.1155	0.579	0	334	363	3
2026-02-23	16:54:06.070	-127.505	47.495	37.065	0.918416	0.434076	-0.192516	-0.5655	0.1125	0.5685	0	334	363	3
2026-02-23	16:54:06.090	-114.905	39.97	38.325	0.91134	0.55632	-0.149816	-0.5655	0.1065	0.549	0	334	363	3
2026-02-23	16:54:06.110	-147.525	39.865	40.005	0.936716	0.550708	-0.156892	-0.5805	0.1095	0.525	0	334	363	3
2026-02-23	16:54:06.130	-192.605	37.87	39.9	0.993812	0.486536	-0.132004	-0.5865	0.1125	0.5025	0	334	363	3
2026-02-23	16:54:06.150	-204.05	40.285	35.63	1.010648	0.338672	-0.149572	-0.591	0.114	0.4815	0	334	363	3
2026-02-23	16:54:06.170	-192.045	41.405	31.465	1.06872	0.195688	-0.064416	-0.5925	0.12	0.453	0	334	363	3
2026-02-23	16:54:06.190	-151.725	43.89	30.87	1.08214	0.164212	-0.131028	-0.594	0.12	0.426	0	334	363	3
2026-02-23	16:54:06.210	-121.205	41.44	26.985	1.054812	0.333792	-0.104188	-0.603	0.1245	0.411	0	337	306	3
2026-02-23	16:54:06.230	-86.415	27.65	19.005	1.068476	0.128832	-0.143228	-0.603	0.1245	0.411	0	337	306	3
2026-02-23	16:54:06.250	-51.52	19.495	11.585	1.068476	0.182756	-0.12932	-0.603	0.129	0.39	0	337	306	3
2026-02-23	16:54:06.270	-20.685	12.18	4.41	1.041392	0.15982	-0.105896	-0.603	0.1335	0.3705	0	337	306	3
2026-02-23	16:54:06.290	-2.205	-1.435	1.085	1.014796	0.17568	-0.145668	-0.5985	0.138	0.366	0	337	306	3
2026-02-23	16:54:06.310	19.355	-18.55	-2.24	1.014796	0.19276	-0.025376	-0.6	0.1395	0.366	0	337	306	3
2026-02-23	16:54:06.330	63.595	-25.83	-7.56	1.120204	0.348188	-0.01464	-0.6	0.1395	0.369	0	337	306	3
2026-02-23	16:54:06.350	104.615	-22.855	-16.17	1.140212	0.6588	-0.077104	-0.6015	0.138	0.3735	0	337	306	3
2026-02-23	16:54:06.370	110.18	-22.295	-27.23	0.976976	0.650748	0.074908	-0.606	0.132	0.39	0	337	306	3
2026-02-23	16:54:06.390	101.92	-24.465	-31.99	0.940864	0.587796	0.121024	-0.5985	0.1185	0.402	0	337	306	3
2026-02-23	16:54:06.410	80.465	-28.28	-28.91	0.978684	0.39162	0.136396	-0.6015	0.1245	0.4095	0	337	249	3
2026-02-23	16:54:06.430	81.62	-39.48	-20.79	1.055788	0.32696	-0.045384	-0.591	0.1095	0.4245	0	337	249	3
2026-02-23	16:54:06.450	67.865	-50.47	-14.595	1.124108	0.4514	-0.101016	-0.5925	0.1215	0.441	0	337	249	3
2026-02-23	16:54:06.470	59.64	-58.45	-21.035	1.09922	0.435296	-0.084668	-0.5895	0.114	0.447	0	337	249	3
2026-02-23	16:54:06.490	59.99	-69.405	-26.915	1.140456	0.46116	-0.078324	-0.585	0.108	0.4695	0	337	249	3
2026-02-23	16:54:06.510	62.58	-78.645	-32.165	1.102148	0.664656	-0.058804	-0.585	0.108	0.4695	0	337	249	3
2026-02-23	16:54:06.530	46.27	-84.21	-36.89	1.019432	0.504836	-0.066124	-0.5775	0.105	0.4845	0	337	249	3
2026-02-23	16:54:06.550	25.375	-90.58	-32.9	0.944524	0.33672	-0.037088	-0.57	0.1035	0.513	0	337	249	3
2026-02-23	16:54:06.570	11.62	-93.415	-17.43	1.038464	0.264984	-0.010736	-0.5685	0.105	0.528	0	337	249	3
2026-02-23	16:54:06.590	15.365	-93.1	-8.05	1.026752	0.499956	0.059048	-0.57	0.0975	0.525	0	337	249	3
2026-02-23	16:54:06.610	-2.94	-86.94	-1.085	0.999912	0.47946	-0.100772	-0.5655	0.0945	0.5445	0	331	196	3
2026-02-23	16:54:06.630	-9.695	-84.42	3.255	0.938668	0.469456	-0.02806	-0.558	0.0945	0.546	0	331	196	3
2026-02-23	16:54:06.650	-3.15	-75.915	9.94	1.002352	0.51728	0.037332	-0.5625	0.099	0.5565	0	331	196	3
2026-02-23	16:54:06.670	-1.155	-74.095	11.165	0.929152	0.4697	0.017324	-0.558	0.102	0.5625	0	331	196	3
2026-02-23	16:54:06.690	-0.735	-71.645	14.56	0.892552	0.53802	0.0671	-0.5565	0.102	0.567	0	331	196	3
2026-02-23	16:54:06.710	-4.76	-65.8	15.19	0.917196	0.508252	-0.048312	-0.5655	0.099	0.57	0	331	196	3
2026-02-23	16:54:06.730	-0.735	-62.545	14.035	0.904508	0.418216	-0.10248	-0.549	0.099	0.582	0	331	196	3
2026-02-23	16:54:06.750	3.92	-61.075	15.26	0.867664	0.448472	-0.097356	-0.5505	0.1035	0.5835	0	331	196	3
2026-02-23	16:54:06.770	12.355	-58.765	15.05	0.809836	0.445788	-0.12932	-0.5475	0.102	0.591	0	331	196	3
2026-02-23	16:54:06.790	5.355	-58.31	19.355	0.83448	0.433832	-0.256932	-0.5475	0.102	0.591	0	331	196	3
2026-02-23	16:54:06.810	-5.04	-54.005	25.305	0.850584	0.465552	-0.251564	-0.5475	0.1035	0.597	0	322	154	3
2026-02-23	16:54:06.830	1.785	-48.58	24.43	0.868884	0.379176	-0.303292	-0.555	0.108	0.609	0	322	154	3
2026-02-23	16:54:06.850	9.345	-50.96	25.725	0.830332	0.413336	-0.273768	-0.555	0.117	0.618	0	322	154	3
2026-02-23	16:54:06.870	15.4	-51.45	26.775	0.853268	0.51606	-0.18178	-0.555	0.123	0.621	0	322	154	3
2026-02-23	16:54:06.890	12.075	-49.035	25.655	0.8967	0.48068	-0.321104	-0.564	0.123	0.6225	0	322	154	3
2026-02-23	16:54:06.910	9.135	-45.85	26.495	0.787388	0.427976	-0.2989	-0.5565	0.108	0.633	0	322	154	3
2026-02-23	16:54:06.930	2.66	-49.035	27.16	0.825696	0.5185	-0.302072	-0.5625	0.117	0.645	0	322	154	3
2026-02-23	16:54:06.950	-1.89	-48.58	28.21	0.85156	0.3782	-0.346236	-0.5625	0.126	0.639	0	322	154	3
2026-02-23	16:54:06.970	2.625	-47.88	28.21	0.805932	0.422852	-0.327692	-0.561	0.1245	0.6405	0	322	154	3
2026-02-23	16:54:06.990	6.895	-44.31	29.05	0.834968	0.366732	-0.305244	-0.5595	0.1275	0.645	0	322	154	3
2026-02-23	16:54:07.010	0.315	-42.805	32.48	0.835456	0.382592	-0.328912	-0.5655	0.1335	0.6585	0	309	147	2
2026-02-23	16:54:07.030	-4.025	-40.95	35.035	0.913048	0.454572	-0.273036	-0.5685	0.1395	0.6615	0	309	147	2
2026-02-23	16:54:07.050	7.28	-34.09	31.01	0.963068	0.424072	-0.36356	-0.564	0.1335	0.666	0	309	147	2
2026-02-23	16:54:07.070	9.52	-33.215	28.315	0.78446	0.345504	-0.408212	-0.564	0.1335	0.666	0	309	147	2
2026-02-23	16:54:07.090	8.435	-40.6	30.485	0.86742	0.421144	-0.376004	-0.567	0.1395	0.672	0	309	147	2
2026-02-23	16:54:07.110	1.54	-42.63	32.305	0.905728	0.327204	-0.437736	-0.573	0.1455	0.6795	0	309	147	2
2026-02-23	16:54:07.130	9.1	-45.115	29.225	0.788364	0.218624	-0.549488	-0.5715	0.153	0.6825	0	309	147	2
2026-02-23	16:54:07.150	18.445	-44.135	29.365	0.82228	0.381616	-0.42456	-0.573	0.159	0.687	0	309	147	2
2026-02-23	16:54:07.170	20.09	-42.42	28.91	0.895968	0.330376	-0.472872	-0.5805	0.1605	0.6975	0	309	147	2
2026-02-23	16:54:07.190	25.62	-44.345	28.105	0.797392	0.271572	-0.451888	-0.5745	0.159	0.7065	0	309	147	2
2026-02-23	16:54:07.210	23.31	-46.095	28.56	0.882304	0.231312	-0.49532	-0.57	0.156	0.711	0	295	180	2
2026-02-23	16:54:07.230	39.13	-43.89	26.075	0.825452	0.179584	-0.376492	-0.567	0.1785	0.714	0	295	180	2
2026-02-23	16:54:07.250	55.895	-37.625	30.205	0.88206	0.141276	-0.495564	-0.5715	0.177	0.7215	0	295	180	2
2026-02-23	16:54:07.270	65.065	-36.085	29.505	0.83692	0.355996	-0.344772	-0.567	0.183	0.741	0	295	180	2
2026-02-23	16:54:07.290	59.43	-30.94	25.795	0.848876	0.271328	-0.476776	-0.5715	0.189	0.7395	0	295	180	2
2026-02-23	16:54:07.310	38.395	-36.015	23.1	0.863028	0.377224	-0.325252	-0.564	0.204	0.747	0	295	180	2
2026-02-23	16:54:07.330	48.755	-43.96	13.93	0.914268	0.243024	-0.352824	-0.567	0.2085	0.759	0	295	180	2
2026-02-23	16:54:07.350	84.35	-47.705	4.935	1.018944	0.254248	-0.135176	-0.5595	0.2115	0.7725	0	295	180	2
2026-02-23	16:54:07.370	93.1	-39.445	-22.295	1.105808	0.42456	-0.12932	-0.552	0.222	0.78	0	295	180	2
2026-02-23	16:54:07.390	103.6	-32.025	-44.45	0.900848	0.404308	-0.36844	-0.5475	0.237	0.7965	0	295	180	2
2026-02-23	16:54:07.410	120.89	-17.395	-54.81	0.820572	0.500688	-0.40992	-0.543	0.246	0.8085	0	281	230	3
2026-02-23	16:54:07.430	121.45	-3.08	-62.09	0.818376	0.435052	-0.205448	-0.5355	0.258	0.816	0	281	230	3
2026-02-23	16:54:07.450	98.595	11.55	-66.15	0.90524	0.307684	-0.239852	-0.528	0.267	0.825	0	281	230	3
2026-02-23	16:54:07.470	68.775	20.545	-63.595	0.792268	0.322324	-0.26108	-0.5265	0.2685	0.825	0	281	230	3
2026-02-23	16:54:07.490	42.35	29.925	-56.35	0.681492	0.308904	-0.19398	-0.528	0.273	0.825	0	281	230	3
2026-02-23	16:54:07.510	26.075	41.125	-46.34	0.695888	0.310124	-0.149084	-0.528	0.2805	0.8295	0	281	230	3
2026-02-23	16:54:07.530	18.55	55.51	-36.96	0.794464	0.288408	-0.216428	-0.537	0.282	0.8295	0	281	230	3
2026-02-23	16:54:07.550	23.1	63.035	-30.31	0.983564	0.422852	-0.368196	-0.537	0.279	0.828	0	281	230	3
2026-02-23	16:54:07.570	19.635	61.81	-31.22	0.982588	0.284992	-0.453108	-0.5325	0.276	0.822	0	281	230	3
2026-02-23	16:54:07.590	5.88	54.215	-30.87	0.820816	0.254248	-0.362584	-0.552	0.2775	0.8175	0	281	230	3
2026-02-23	16:54:07.610	-10.675	52.955	-28.595	0.75762	0.253516	-0.23668	-0.555	0.2685	0.822	0	269	266	3
2026-02-23	16:54:07.630	-24.99	65.835	-23.415	0.99918	0.223016	-0.355752	-0.5535	0.27	0.8115	0	269	266	3
2026-02-23	16:54:07.650	-13.195	64.575	-23.45	1.023092	0.300364	-0.611708	-0.5625	0.2655	0.804	0	269	266	3
2026-02-23	16:54:07.670	-15.47	48.405	-20.72	0.994788	-0.109312	-0.780556	-0.5715	0.258	0.7905	0	269	266	3
2026-02-23	16:54:07.690	-22.715	26.6	-6.09	0.86742	-0.027816	-0.6466	-0.5745	0.252	0.7845	0	269	266	3
2026-02-23	16:54:07.710	-31.535	17.185	-1.82	0.942328	-0.279136	-0.793488	-0.5775	0.249	0.7785	0	269	266	3
2026-02-23	16:54:07.730	-16.73	14.665	6.055	1.0248	-0.206424	-0.81496	-0.579	0.2445	0.7725	0	269	266	3
2026-02-23	16:54:07.750	-8.225	12.705	-6.23	0.867908	0.41968	-0.760304	-0.582	0.243	0.771	0	269	266	3
2026-02-23	16:54:07.770	7.875	3.955	-26.74	0.669536	0.071004	-0.37332	-0.5835	0.2475	0.774	0	269	266	3
2026-02-23	16:54:07.790	10.045	-5.845	-25.655	0.83326	0.2379	-0.381616	-0.5775	0.249	0.7725	0	269	266	3
2026-02-23	16:54:07.810	-21.21	-3.78	-24.64	1.10044	0.285724	-0.468236	-0.5745	0.249	0.7665	0	260	306	3
2026-02-23	16:54:07.830	-23.905	3.99	-30.8	0.964776	0.203496	-0.290604	-0.5775	0.243	0.777	0	260	306	3
2026-02-23	16:54:07.850	-10.71	9.415	-24.71	0.8418	0.17324	-0.313052	-0.567	0.237	0.768	0	260	306	3
2026-02-23	16:54:07.870	-5.11	5.355	-17.815	0.8662	0.266448	-0.493612	-0.576	0.219	0.7725	0	260	306	3
2026-02-23	16:54:07.890	-8.645	-4.76	-11.445	0.90036	0.22448	-0.571936	-0.573	0.2295	0.7695	0	260	306	3
2026-02-23	16:54:07.910	0	-4.235	-14.49	0.795196	0.488732	-0.438224	-0.5775	0.2265	0.7695	0	260	306	3
2026-02-23	16:54:07.930	6.335	-3.36	-17.01	0.850828	0.21716	-0.2623	-0.573	0.225	0.765	0	260	306	3
2026-02-23	16:54:07.950	16.415	4.585	-17.78	0.96502	0.389668	-0.473848	-0.5685	0.225	0.768	0	260	306	3
2026-02-23	16:54:07.970	16.94	4.865	-25.06	0.991372	0.597556	-0.552172	-0.564	0.2235	0.7695	0	260	306	3
2026-02-23	16:54:07.990	19.355	0.07	-37.66	0.907436	0.472628	-0.237412	-0.5565	0.2205	0.768	0	260	306	3
2026-02-23	16:54:08.010	16.065	-3.535	-40.74	0.886208	0.357948	-0.250832	-0.555	0.2175	0.7695	0	256	348	3
2026-02-23	16:54:08.030	3.64	-5.985	-38.29	0.96502	0.304756	-0.38918	-0.555	0.219	0.771	0	256	348	3
2026-02-23	16:54:08.050	-1.4	-5.915	-34.93	0.867664	0.377712	-0.386496	-0.555	0.2145	0.7725	0	256	348	3
2026-02-23	16:54:08.070	-3.78	-3.395	-28.7	0.70638	0.269864	-0.36112	-0.5475	0.2085	0.771	0	256	348	3
2026-02-23	16:54:08.090	-6.545	5.005	-18.48	0.958432	0.305976	-0.318176	-0.5445	0.21	0.7695	0	256	348	3
2026-02-23	16:54:08.110	-1.26	11.2	-18.55	1.038464	0.359168	-0.598532	-0.5475	0.207	0.774	0	256	348	3
2026-02-23	16:54:08.130	0.07	2.1	-15.575	0.936228	0.151524	-0.54778	-0.5475	0.2055	0.78	0	256	348	3
2026-02-23	16:54:08.150	0	-5.005	-13.615	0.78324	0.4697	-0.259128	-0.543	0.207	0.765	0	256	348	3
2026-02-23	16:54:08.170	-5.32	6.44	-21.035	1.041148	0.318176	-0.171776	-0.546	0.201	0.774	0	256	348	3
2026-02-23	16:54:08.190	-4.76	17.255	-21.77	0.792024	0.462868	-0.363804	-0.5415	0.2085	0.771	0	256	348	3
2026-02-23	16:54:08.210	-7.14	11.375	-25.34	0.827648	0.33794	-0.318908	-0.5415	0.2025	0.765	0	255	374	3
2026-02-23	16:54:08.230	-11.235	5.53	-25.305	0.758108	0.47336	-0.421144	-0.5415	0.195	0.759	0	255	374	3
2026-02-23	16:54:08.250	-9.835	4.27	-24.08	0.675636	0.140056	-0.634644	-0.54	0.1905	0.7575	0	255	374	3
2026-02-23	16:54:08.270	-10.64	0.805	-12.355	0.709308	0.469944	-0.406748	-0.537	0.1845	0.7545	0	255	374	3
2026-02-23	16:54:08.290	-14.525	-2.45	-13.195	0.830332	0.376248	-0.57584	-0.5325	0.1845	0.7575	0	255	374	3
2026-02-23	16:54:08.310	-7.035	-5.215	-16.1	0.78568	0.2928	-0.543388	-0.534	0.183	0.759	0	255	374	3
2026-02-23	16:54:08.330	-6.86	1.33	-17.535	0.865956	0.248148	-0.312808	-0.5325	0.1755	0.7575	0	255	374	3
2026-02-23	16:54:08.350	-5.6	10.045	-15.82	0.921832	0.291092	-0.243756	-0.525	0.1755	0.7605	0	255	374	3
2026-02-23	16:54:08.370	-12.565	14.525	-15.085	0.6954	0.739808	-0.405284	-0.522	0.1755	0.7575	0	255	374	3
2026-02-23	16:54:08.390	-29.89	13.72	-16.835	0.948184	0.425292	-0.396012	-0.522	0.174	0.7515	0	255	374	3
2026-02-23	16:54:08.410	-25.62	15.715	-15.89	0.971608	0.536312	-0.133956	-0.525	0.1755	0.747	0	254	386	3
2026-02-23	16:54:08.430	-18.06	17.465	-26.495	0.962824	0.510692	-0.233264	-0.525	0.171	0.744	0	254	386	3
2026-02-23	16:54:08.450	-32.655	9.625	-25.69	0.855464	0.301828	-0.227164	-0.525	0.1695	0.7425	0	254	386	3
2026-02-23	16:54:08.470	-35.49	19.215	-15.505	0.763964	0.516304	-0.33794	-0.5235	0.174	0.738	0	254	386	3
2026-02-23	16:54:08.490	-39.025	27.895	-16.87	0.887428	0.58438	-0.138836	-0.522	0.162	0.732	0	254	386	3
2026-02-23	16:54:08.510	-49.595	29.225	-14.595	0.803736	0.3355	-0.424316	-0.522	0.1515	0.7245	0	254	386	3
2026-02-23	16:54:08.530	-47.74	21.805	-7.595	0.775188	0.315248	-0.4575	-0.525	0.1485	0.7185	0	254	386	3
2026-02-23	16:54:08.550	-31.395	23.1	-3.08	0.829112	0.404796	-0.29524	-0.5235	0.138	0.7095	0	254	386	3
2026-02-23	16:54:08.570	-25.795	23.31	2.205	0.75152	0.303048	-0.427732	-0.519	0.135	0.7035	0	254	386	3
2026-02-23	16:54:08.590	-29.33	24.43	4.725	0.746152	0.634888	0.000732	-0.5175	0.1365	0.702	0	254	386	3
2026-02-23	16:54:08.610	-41.895	37.065	3.885	0.986492	0.599996	-0.279624	-0.522	0.1335	0.693	0	254	380	3
2026-02-23	16:54:08.630	-36.89	47.46	-6.265	0.7991	0.920368	-0.229604	-0.5265	0.135	0.6795	0	254	380	3
2026-02-23	16:54:08.650	-35.595	49.385	-20.93	0.614392	0.562908	0.070028	-0.5295	0.135	0.675	0	254	380	3
2026-02-23	16:54:08.670	-41.265	51.975	-21.14	0.68076	0.681004	-0.207156	-0.5295	0.126	0.663	0	254	380	3
2026-02-23	16:54:08.690	-50.61	44.065	-13.965	0.716872	0.658068	-0.059536	-0.5295	0.12	0.651	0	254	380	3
2026-02-23	16:54:08.710	-46.83	40.215	-13.23	0.558272	0.81862	-0.167384	-0.534	0.1215	0.6435	0	254	380	3
2026-02-23	16:54:08.730	-63.91	36.89	-7.77	0.545096	0.58804	-0.101504	-0.5325	0.117	0.6375	0	254	380	3
2026-02-23	16:54:08.750	-68.705	39.305	2.45	0.609024	0.70272	-0.143472	-0.5295	0.108	0.6285	0	254	380	3
2026-02-23	16:54:08.770	-47.46	45.99	12.32	0.783972	0.503372	-0.364292	-0.528	0.105	0.6225	0	254	380	3
2026-02-23	16:54:08.790	-37.8	45.22	20.405	0.648064	0.837408	0.135908	-0.534	0.1035	0.606	0	254	380	3
2026-02-23	16:54:08.810	-37.065	51.835	12.215	0.848876	0.648796	-0.160552	-0.543	0.1065	0.591	0	256	348	3
2026-02-23	16:54:08.830	-41.755	53.83	9.415	0.81618	0.571204	0.223016	-0.5475	0.105	0.5865	0	256	348	3
2026-02-23	16:54:08.850	-30.73	69.16	9.66	0.733952	0.481412	-0.077348	-0.5505	0.0975	0.5775	0	256	348	3
2026-02-23	16:54:08.870	-16.695	70.315	13.685	0.74542	0.824232	0.084668	-0.5535	0.1005	0.5685	0	256	348	3
2026-02-23	16:54:08.890	-28.175	75.39	15.855	1.000644	0.48556	0.2257	-0.5595	0.1035	0.5595	0	256	348	3
2026-02-23	16:54:08.910	-22.82	89.32	11.76	1.096292	0.52948	0.28426	-0.564	0.105	0.5505	0	256	348	3
2026-02-23	16:54:08.930	-24.36	104.335	11.445	0.934764	0.429684	0.060512	-0.5625	0.108	0.543	0	256	348	3
2026-02-23	16:54:08.950	-24.92	107.555	12.495	0.881572	0.53924	0.1952	-0.5625	0.1065	0.531	0	256	348	3
2026-02-23	16:54:08.970	-26.985	100.695	19.04	1.0248	0.13542	-0.05612	-0.57	0.105	0.513	0	256	348	3
2026-02-23	16:54:08.990	-29.26	90.405	30.905	1.175836	0.57706	-0.045628	-0.576	0.108	0.501	0	256	348	3
2026-02-23	16:54:09.010	-84.665	79.485	36.05	1.167296	0.311344	-0.282308	-0.5775	0.1095	0.489	0	261	286	3
2026-02-23	16:54:09.030	-130.725	62.405	40.81	1.153632	0.312564	-0.038308	-0.579	0.111	0.474	0	261	286	3
2026-02-23	16:54:09.050	-158.27	49.245	38.5	1.146312	0.154696	-0.122244	-0.582	0.114	0.468	0	261	286	3
2026-02-23	16:54:09.070	-144.445	38.36	34.02	1.136796	0.314516	-0.025376	-0.5835	0.12	0.4455	0	261	286	3
2026-02-23	16:54:09.090	-140.385	31.5	24.815	1.08336	0.159088	-0.114192	-0.591	0.1275	0.4155	0	261	286	3
2026-02-23	16:54:09.110	-117.32	23.66	11.445	1.105076	0.431392	-0.223016	-0.597	0.132	0.3975	0	261	286	3
2026-02-23	16:54:09.130	-156.625	12.215	8.995	1.133624	0.244244	-0.136884	-0.5955	0.1395	0.384	0	261	286	3
2026-02-23	16:54:09.150	-161.84	-0.91	10.885	1.177056	0.014396	-0.086132	-0.594	0.1455	0.3645	0	261	286	3
2026-02-23	16:54:09.170	-100.135	-9.345	12.285	1.220488	-0.041968	-0.083448	-0.5955	0.15	0.3435	0	261	286	3
2026-02-23	16:54:09.190	-5.39	-8.645	6.265	1.237812	0.155428	-0.07124799	-0.597	0.156	0.336	0	261	286	3
2026-02-23	16:54:09.210	67.76	-8.61	-5.39	1.11264	0.28426	0.071736	-0.5985	0.156	0.336	0	270	219	3
2026-02-23	16:54:09.230	86.275	-15.925	-17.15	1.053592	0.60512	0.101504	-0.597	0.1455	0.342	0	270	219	3
2026-02-23	16:54:09.250	49.245	-22.365	-24.78	1.089216	0.812032	0.220576	-0.5955	0.1455	0.351	0	270	219	3
2026-02-23	16:54:09.270	22.785	-30.555	-31.185	1.091656	0.583404	0.394792	-0.5985	0.1455	0.3585	0	270	219	3
2026-02-23	16:54:09.290	21.49	-38.29	-33.74	1.051396	0.395768	0.078568	-0.591	0.1395	0.3675	0	270	219	3
2026-02-23	16:54:09.310	24.15	-48.195	-34.09	1.131672	0.30256	0.183244	-0.5895	0.1365	0.3765	0	270	219	3
2026-02-23	16:54:09.330	41.93	-53.515	-34.405	1.15412	0.344528	0.180316	-0.594	0.1365	0.381	0	270	219	3
2026-02-23	16:54:09.350	60.2	-58.275	-36.68	1.089216	0.3721	0.064416	-0.5805	0.132	0.3855	0	270	219	3
2026-02-23	16:54:09.370	57.435	-67.06	-39.165	0.999912	0.370392	-0.025376	-0.582	0.123	0.402	0	270	219	3
2026-02-23	16:54:09.390	55.125	-81.865	-41.055	1.116056	0.3538	-0.021716	-0.579	0.1185	0.411	0	270	219	3
2026-02-23	16:54:09.410	63.945	-82.635	-40.11	1.067988	0.504836	0.089548	-0.576	0.1125	0.423	0	278	155	3
2026-02-23	16:54:09.430	60.06	-81.165	-44.975	1.013332	0.500444	-0.088328	-0.573	0.1095	0.438	0	278	155	3
2026-02-23	16:54:09.450	63.665	-87.465	-47.6	0.92964	0.355264	-0.015128	-0.57	0.105	0.456	0	278	155	3
2026-02-23	16:54:09.470	57.68	-93.695	-35.875	1.018944	0.448472	0.04148	-0.5685	0.102	0.4665	0	278	155	3
2026-02-23	16:54:09.490	44.24	-93.205	-27.37	0.917196	0.525088	-0.013176	-0.5625	0.099	0.4785	0	278	155	3
2026-02-23	16:54:09.510	35.91	-89.075	-26.18	1.02114	0.520208	-0.0183	-0.5595	0.096	0.4905	0	278	155	3
2026-02-23	16:54:09.530	52.255	-89.425	-26.075	0.804224	0.314272	-0.061	-0.555	0.096	0.5085	0	278	155	3
2026-02-23	16:54:09.550	56.14	-86.03	-14.105	0.920124	0.440176	-0.036844	-0.549	0.096	0.519	0	278	155	3
2026-02-23	16:54:09.570	55.65	-77.665	-5.425	0.844728	0.719312	-0.031964	-0.543	0.093	0.5295	0	278	155	3
2026-02-23	16:54:09.590	30.975	-69.93	-0.77	0.829844	0.606584	-0.116144	-0.546	0.0885	0.5445	0	278	155	3
2026-02-23	16:54:09.610	28.49	-65.87	-0.875	0.750056	0.357948	-0.006832	-0.5505	0.087	0.549	0	283	104	3
2026-02-23	16:54:09.630	27.3	-68.81	9.38	0.822036	0.520452	-0.153232	-0.5355	0.099	0.5655	0	283	104	3
2026-02-23	16:54:09.650	21.315	-71.12	17.22	0.835944	0.652944	-0.142496	-0.5385	0.0945	0.5835	0	283	104	3
2026-02-23	16:54:09.670	1.925	-69.16	20.58	0.921832	0.629276	-0.125904	-0.543	0.096	0.582	0	283	104	3
2026-02-23	16:54:09.690	-0.175	-69.895	14.84	0.803492	0.332816	-0.161284	-0.54	0.0975	0.5865	0	283	104	3
2026-02-23	16:54:09.710	2.905	-73.465	15.085	0.876692	0.535336	-0.118828	-0.537	0.102	0.6	0	283	104	3
2026-02-23	16:54:09.730	12.32	-72.275	14	0.83814	0.440664	-0.206668	-0.534	0.1035	0.609	0	283	104	3
2026-02-23	16:54:09.750	13.3	-68.845	15.82	0.898652	0.474336	-0.292556	-0.5325	0.105	0.6105	0	283	104	3
2026-02-23	16:54:09.770	8.435	-68.53	17.045	0.740296	0.480924	-0.242536	-0.5325	0.105	0.618	0	283	104	3
2026-02-23	16:54:09.790	-3.045	-67.025	22.54	0.819352	0.305732	-0.2501	-0.5355	0.1065	0.6285	0	283	104	3
2026-02-23	16:54:09.810	9.45	-61.74	27.93	0.745664	0.367708	-0.322324	-0.534	0.108	0.633	0	283	87	2
2026-02-23	16:54:09.830	10.99	-51.8	39.97	0.790072	0.476288	-0.250588	-0.534	0.111	0.639	0	283	87	2
2026-02-23	16:54:09.850	13.125	-42.91	42.07	0.838628	0.468724	-0.267668	-0.5415	0.12	0.6435	0	283	87	2
2026-02-23	16:54:09.870	17.885	-39.865	42.175	0.77958	0.562908	-0.169824	-0.543	0.126	0.648	0	283	87	2
2026-02-23	16:54:09.890	16.87	-33.53	35.665	0.88816	0.430904	-0.213256	-0.54	0.1245	0.6555	0	283	87	2
2026-02-23	16:54:09.910	18.69	-32.27	31.955	0.780312	0.430416	-0.274988	-0.54	0.1245	0.6555	0	283	87	2
2026-02-23	16:54:09.930	6.23	-31.99	35.315	0.83814	0.471408	-0.287676	-0.5445	0.135	0.663	0	283	87	2
2026-02-23	16:54:09.950	-1.015	-33.845	31.535	0.941108	0.476044	-0.212768	-0.5535	0.1395	0.6735	0	283	87	2
2026-02-23	16:54:09.970	0.35	-38.255	26.005	0.831308	0.276696	-0.386252	-0.549	0.1425	0.6825	0	283	87	2
2026-02-23	16:54:09.990	13.02	-31.64	25.935	0.903532	0.43554	-0.375272	-0.5505	0.1425	0.6855	0	283	87	2
2026-02-23	16:54:10.010	6.195	-26.215	27.79	0.932568	0.358436	-0.41114	-0.549	0.1425	0.687	0	280	109	2
2026-02-23	16:54:10.030	4.41	-32.445	29.785	0.84058	0.251076	-0.539484	-0.5505	0.1455	0.69	0	280	109	2
2026-02-23	16:54:10.050	-4.935	-40.95	35.28	0.8784	0.1037	-0.458476	-0.555	0.153	0.6945	0	280	109	2
2026-02-23	16:54:10.070	-11.025	-42.77	42.525	0.900116	0.24156	-0.55388	-0.5535	0.1545	0.699	0	280	109	2
2026-02-23	16:54:10.090	-0.42	-41.44	45.465	0.951356	0.409432	-0.592432	-0.5535	0.1545	0.699	0	280	109	2
2026-02-23	16:54:10.110	-4.025	-49.035	43.05	0.872788	0.308416	-0.504592	-0.5535	0.162	0.7035	0	280	109	2
2026-02-23	16:54:10.130	-21.07	-58.73	40.39	0.89182	0.293776	-0.345748	-0.5535	0.1605	0.711	0	280	109	2
2026-02-23	16:54:10.150	-25.585	-60.445	37.205	0.920368	0.13786	-0.504592	-0.558	0.162	0.7095	0	280	109	2
2026-02-23	16:54:10.170	-11.34	-56.91	44.485	0.701744	0.155916	-0.562664	-0.558	0.168	0.7065	0	280	109	2
2026-02-23	16:54:10.190	-14.63	-56.07	53.76	0.854732	0.28914	-0.446764	-0.558	0.168	0.7065	0	280	109	2
2026-02-23	16:54:10.210	-24.885	-57.995	56.315	0.747372	0.027816	-0.421632	-0.5595	0.1755	0.7275	0	276	166	3
2026-02-23	16:54:10.230	-37.45	-60.41	61.18	0.871568	0.303048	-0.330376	-0.564	0.171	0.7275	0	276	166	3
2026-02-23	16:54:10.250	-30.695	-56.21	61.495	0.845704	0.115412	-0.390888	-0.5565	0.1755	0.7275	0	276	166	3
2026-02-23	16:54:10.270	-19.18	-50.365	62.195	0.845704	0.287188	-0.315004	-0.558	0.177	0.738	0	276	166	3
2026-02-23	16:54:10.290	10.57	-43.89	50.19	0.923052	0.389424	-0.20618	-0.5565	0.1845	0.744	0	276	166	3
2026-02-23	16:54:10.310	41.65	-32.935	40.565	0.918416	0.166164	-0.129808	-0.558	0.1845	0.747	0	276	166	3
2026-02-23	16:54:10.330	62.755	-15.575	24.745	0.99674	0.338428	-0.047824	-0.5625	0.1875	0.7455	0	276	166	3
2026-02-23	16:54:10.350	98.385	-2.59	16.275	0.995032	0.245464	-0.08784	-0.5655	0.1965	0.75	0	276	166	3
2026-02-23	16:54:10.370	124.88	23.625	4.025	1.011624	0.469456	-0.052704	-0.5655	0.21	0.762	0	276	166	3
2026-02-23	16:54:10.390	121.135	34.335	-11.55	0.960872	0.514352	-0.242536	-0.5655	0.225	0.771	0	276	166	3
2026-02-23	16:54:10.410	76.02	36.4	-19.11	0.804468	0.336476	-0.470188	-0.567	0.237	0.777	0	271	224	3
2026-02-23	16:54:10.430	41.09	21.63	-19.74	0.696376	0.0366	-0.687348	-0.5715	0.2445	0.7815	0	271	224	3
2026-02-23	16:54:10.450	3.15	0.84	3.325	0.658312	-0.036356	-0.421388	-0.5715	0.2475	0.7845	0	271	224	3
2026-02-23	16:54:10.470	-22.155	10.08	10.99	0.738344	0.274012	-0.508984	-0.5715	0.2475	0.7845	0	271	224	3
2026-02-23	16:54:10.490	-67.865	20.405	3.605	0.91988	0.23912	-0.921344	-0.573	0.252	0.78	0	271	224	3
2026-02-23	16:54:10.510	-81.375	16.1	-9.38	0.980636	0.090036	-0.564616	-0.5805	0.234	0.777	0	271	224	3
2026-02-23	16:54:10.530	-69.475	18.34	-23.31	0.744932	0.063196	-0.266204	-0.579	0.2325	0.771	0	271	224	3
2026-02-23	16:54:10.550	-66.465	31.255	-26.635	0.741272	0.185196	-0.438468	-0.579	0.2235	0.762	0	271	224	3
2026-02-23	16:54:10.570	-59.325	44.065	-21.7	0.914268	0.2928	-0.493124	-0.5805	0.2145	0.7455	0	271	224	3
2026-02-23	16:54:10.590	-35.315	51.52	-20.65	0.84302	0.464332	-0.300364	-0.582	0.2145	0.75	0	271	224	3
2026-02-23	16:54:10.610	-19.495	51.415	-23.59	0.742492	0.48434	-0.072224	-0.579	0.1995	0.7245	0	269	270	3
2026-02-23	16:54:10.630	-18.69	48.055	-21.7	0.905484	0.314028	-0.332572	-0.582	0.1995	0.723	0	269	270	3
2026-02-23	16:54:10.650	-42.28	40.81	-17.255	1.050176	0.45018	-0.15128	-0.588	0.1965	0.7245	0	269	270	3
2026-02-23	16:54:10.670	-45.955	45.29	-22.33	0.909876	0.486536	-0.017324	-0.588	0.189	0.7125	0	269	270	3
2026-02-23	16:54:10.690	-47.18	48.86	-29.925	0.76982	0.607804	-0.34892	-0.588	0.183	0.696	0	269	270	3
2026-02-23	16:54:10.710	-48.86	33.25	-27.055	0.94916	0.292312	-0.065636	-0.5925	0.1755	0.6945	0	269	270	3
2026-02-23	16:54:10.730	-8.925	37.905	-32.76	1.037	0.380884	-0.495076	-0.5955	0.171	0.696	0	269	270	3
2026-02-23	16:54:10.750	9.975	33.495	-38.605	0.693204	0.412604	-0.297436	-0.5955	0.171	0.696	0	269	270	3
2026-02-23	16:54:10.770	-4.305	33.88	-38.955	0.761036	0.744932	-0.018056	-0.5835	0.1695	0.672	0	269	270	3
2026-02-23	16:54:10.790	-38.325	47.53	-44.45	1.088728	0.68076	-0.324032	-0.5895	0.1635	0.666	0	269	270	3
2026-02-23	16:54:10.810	-38.78	52.29	-52.08	1.04066	0.325496	-0.105164	-0.5895	0.1545	0.6645	0	269	293	3
2026-02-23	16:54:10.830	-26.46	67.445	-50.925	0.915	0.52704	0.2379	-0.5775	0.1425	0.6495	0	269	293	3
2026-02-23	16:54:10.850	-28.385	75.915	-48.23	0.777384	0.561444	-0.455304	-0.576	0.144	0.639	0	269	293	3
2026-02-23	16:54:10.870	-77.595	67.48	-28.455	0.80154	0.426024	-0.125904	-0.5865	0.1305	0.6285	0	269	293	3
2026-02-23	16:54:10.890	-95.865	53.935	-11.445	0.95526	0.00732	-0.560712	-0.576	0.1365	0.615	0	269	293	3
2026-02-23	16:54:10.910	-64.47	35.105	7.42	1.098	-0.091744	-0.273768	-0.5835	0.1215	0.5925	0	269	293	3
2026-02-23	16:54:10.930	-55.265	24.745	19.845	1.027484	0.322324	-0.341112	-0.582	0.12	0.579	0	269	293	3
2026-02-23	16:54:10.950	-59.885	19.53	21.14	0.95892	0.253028	-0.264496	-0.5805	0.1215	0.5775	0	269	293	3
2026-02-23	16:54:10.970	-74.375	17.01	28.98	1.127524	0.038552	-0.359656	-0.579	0.1215	0.573	0	269	293	3
2026-02-23	16:54:10.990	-52.22	18.2	21.455	1.282708	0.5368	-0.380396	-0.585	0.1215	0.561	0	269	293	3
2026-02-23	16:54:11.010	-39.725	23.765	-2.065	1.142164	0.255956	-0.178852	-0.5895	0.123	0.5535	0	272	292	3
2026-02-23	16:54:11.030	-29.785	25.165	-11.97	0.869372	0.231068	-0.232532	-0.5895	0.123	0.5535	0	272	292	3
2026-02-23	16:54:11.050	-27.79	21.385	-2.8	0.867176	0.35136	-0.305488	-0.5865	0.1215	0.528	0	272	292	3
2026-02-23	16:54:11.070	-26.46	18.305	2.625	0.915976	0.551928	-0.244244	-0.5895	0.1245	0.528	0	272	292	3
2026-02-23	16:54:11.090	-33.355	17.955	2.065	1.044564	0.387228	-0.171776	-0.5985	0.1215	0.534	0	272	292	3
2026-02-23	16:54:11.110	-37.94	13.93	0.77	0.99064	0.349408	-0.406016	-0.585	0.126	0.522	0	272	292	3
2026-02-23	16:54:11.130	-40.95	1.82	6.895	0.7564	0.45018	-0.364536	-0.579	0.1185	0.513	0	272	292	3
2026-02-23	16:54:11.150	-38.045	-1.155	9.66	0.696376	0.634888	-0.223748	-0.585	0.117	0.51	0	272	292	3
2026-02-23	16:54:11.170	-40.075	-0.385	4.55	0.930372	0.55022	-0.198372	-0.5865	0.1245	0.507	0	272	292	3
2026-02-23	16:54:11.190	-40.25	8.47	-2.135	1.027972	0.477996	-0.129076	-0.582	0.1215	0.504	0	272	292	3
2026-02-23	16:54:11.210	-27.685	24.185	-10.99	0.895236	0.583648	0.054656	-0.5835	0.126	0.4995	0	275	283	3
2026-02-23	16:54:11.230	-8.61	35.385	-19.775	0.564616	0.575596	-0.037576	-0.5805	0.123	0.489	0	275	283	3
2026-02-23	16:54:11.250	-9.38	32.76	-15.75	0.802028	0.579744	-0.065392	-0.582	0.1185	0.4875	0	275	283	3
2026-02-23	16:54:11.270	-15.12	34.895	-14.91	0.931348	0.543388	0.121268	-0.579	0.1125	0.4815	0	275	283	3
2026-02-23	16:54:11.290	-18.83	42.63	-15.19	0.850096	0.495564	0.02928	-0.5775	0.1155	0.4755	0	275	283	3
2026-02-23	16:54:11.310	-16.625	46.515	-12.6	0.811788	0.659776	-0.165676	-0.5805	0.12	0.474	0	275	283	3
2026-02-23	16:54:11.330	-15.505	39.34	-6.195	0.747372	0.491416	-0.122976	-0.5595	0.1155	0.465	0	275	283	3
2026-02-23	16:54:11.350	-20.3	36.225	-1.26	0.918172	0.498492	0.083692	-0.5745	0.12	0.4635	0	275	283	3
2026-02-23	16:54:11.370	-28.07	47.67	-0.42	0.895968	0.541436	-0.094916	-0.567	0.1215	0.4515	0	275	283	3
2026-02-23	16:54:11.390	-36.435	50.54	0.07	0.789096	0.650016	-0.063196	-0.5715	0.117	0.4485	0	275	283	3
2026-02-23	16:54:11.410	-49.595	43.26	2.52	1.051884	0.273036	0.048312	-0.5625	0.1185	0.444	0	279	256	2
2026-02-23	16:54:11.430	-31.465	49.84	4.83	1.013332	0.299632	-0.047824	-0.5625	0.1215	0.432	0	279	256	2
2026-02-23	16:54:11.450	-19.005	51.59	6.755	0.885964	0.424316	-0.279868	-0.5595	0.1275	0.42	0	279	256	2
2026-02-23	16:54:11.470	-12.845	45.85	6.965	0.81496	0.550464	-0.03294	-0.5595	0.1245	0.4155	0	279	256	2
2026-02-23	16:54:11.490	-28.945	39.9	10.43	1.038952	0.361364	-0.155916	-0.564	0.1335	0.4095	0	279	256	2
2026-02-23	16:54:11.510	-41.51	42	16.66	0.975756	0.450668	-0.087108	-0.564	0.132	0.399	0	279	256	2
2026-02-23	16:54:11.530	-56.98	32.445	16.59	1.188036	0.192272	-0.11224	-0.558	0.141	0.39	0	279	256	2
2026-02-23	16:54:11.550	-43.575	32.795	19.11	1.095804	0.148352	-0.054656	-0.564	0.1425	0.378	0	279	256	2
2026-02-23	16:54:11.570	-20.965	29.68	17.64	1.0797	0.335744	-0.168848	-0.5595	0.144	0.3765	0	279	256	2
2026-02-23	16:54:11.590	-15.295	21.455	14.35	1.07238	0.467748	-0.186904	-0.5565	0.147	0.3765	0	279	256	2
2026-02-23	16:54:11.610	-36.75	10.045	10.255	1.28466	0.300364	-0.249124	-0.561	0.1485	0.375	0	280	217	3
2026-02-23	16:54:11.630	-90.265	-11.34	24.045	1.2566	-0.073444	-0.3599	-0.558	0.1455	0.3705	0	280	217	3
2026-02-23	16:54:11.650	-41.825	-12.74	7.49	1.147288	0.424316	0.003904	-0.558	0.162	0.3555	0	280	217	3
2026-02-23	16:54:11.670	-19.985	-4.585	6.895	0.880596	0.089792	0.18788	-0.558	0.1665	0.3525	0	280	217	3
2026-02-23	16:54:11.690	-5.95	-0.28	8.015	0.989908	0.573888	0.124196	-0.576	0.1605	0.357	0	280	217	3
2026-02-23	16:54:11.710	-3.535	2.94	-0.35	1.01748	0.625128	0.19764	-0.567	0.1545	0.3525	0	280	217	3
2026-02-23	16:54:11.730	-3.15	2.17	-8.715	1.085068	0.434564	0.129808	-0.561	0.159	0.348	0	280	217	3
2026-02-23	16:54:11.750	8.12	4.76	-7.805	1.06384	0.290848	0.088572	-0.5655	0.156	0.357	0	280	217	3
2026-02-23	16:54:11.770	41.055	4.165	-7.84	0.995032	0.26596	0.123464	-0.5625	0.159	0.3495	0	280	217	3
2026-02-23	16:54:11.790	36.26	5.285	-1.68	0.980148	0.47946	0.175192	-0.5625	0.1545	0.357	0	280	217	3
2026-02-23	16:54:11.810	-0.21	-6.125	3.885	1.049688	0.358924	-0.118096	-0.567	0.1575	0.36	0	282	175	3
2026-02-23	16:54:11.830	-27.09	-20.72	13.755	1.039196	0.294996	-0.05368	-0.5625	0.1515	0.366	0	282	175	3
2026-02-23	16:54:11.850	-20.93	-29.435	11.025	1.109712	0.270108	-0.085888	-0.567	0.156	0.354	0	282	175	3
2026-02-23	16:54:11.870	0.175	-32.025	1.61	1.079456	0.264496	-0.060024	-0.567	0.1545	0.3585	0	282	175	3
2026-02-23	16:54:11.890	8.61	-36.82	-6.685	1.069696	0.355508	-0.152744	-0.576	0.1515	0.357	0	282	175	3
2026-02-23	16:54:11.910	4.62	-45.78	-8.225	0.963068	0.216916	-0.07905599	-0.5805	0.1575	0.369	0	282	175	3
2026-02-23	16:54:11.930	7.385	-51.94	-7.175	1.027728	0.370148	-0.082472	-0.585	0.1515	0.369	0	282	175	3
2026-02-23	16:54:11.950	15.26	-58.66	-12.46	0.961604	0.237656	-0.28304	-0.5745	0.1545	0.3765	0	282	175	3
2026-02-23	16:54:11.970	17.255	-66.01	-9.1	0.937204	0.2257	-0.211304	-0.576	0.15	0.3795	0	282	175	3
2026-02-23	16:54:11.990	9.765	-66.185	-5.075	1.014552	0.540704	-0.092476	-0.576	0.1455	0.387	0	282	175	3
2026-02-23	16:54:12.010	9.765	-70.735	-12.145	0.903288	0.396988	-0.176656	-0.5835	0.1395	0.393	0	281	139	3
2026-02-23	16:54:12.030	12.04	-73.535	-13.265	0.952332	0.332572	-0.20496	-0.5835	0.1395	0.393	0	281	139	3
2026-02-23	16:54:12.050	10.535	-76.895	-12.04	0.910364	0.359656	-0.12932	-0.594	0.1335	0.4095	0	281	139	3
2026-02-23	16:54:12.070	24.64	-75.075	-14.315	1.019432	0.413336	-0.202764	-0.5985	0.1365	0.42	0	281	139	3
2026-02-23	16:54:12.090	33.355	-75.67	-14.315	0.91012	0.424804	-0.095648	-0.573	0.135	0.429	0	281	139	3
2026-02-23	16:54:12.110	14.945	-74.935	-11.305	0.911096	0.589016	-0.120536	-0.5925	0.1335	0.4455	0	281	139	3
2026-02-23	16:54:12.130	4.83	-76.615	-13.72	0.97234	0.397964	-0.227652	-0.585	0.1335	0.453	0	281	139	3
2026-02-23	16:54:12.150	-4.27	-71.75	-6.65	0.967948	0.489464	-0.054412	-0.5895	0.1305	0.4515	0	281	139	3
2026-02-23	16:54:12.170	12.355	-62.58	-13.51	0.97478	0.55876	-0.145668	-0.5895	0.1305	0.468	0	281	139	3
2026-02-23	16:54:12.190	10.255	-63.245	-14.63	0.839848	0.321836	-0.134444	-0.5895	0.12	0.465	0	281	139	3
2026-02-23	16:54:12.210	10.85	-64.715	-8.785	0.859856	0.29036	-0.213012	-0.5835	0.123	0.474	0	276	125	2
2026-02-23	16:54:12.230	9.135	-60.305	1.47	0.925736	0.400404	-0.229848	-0.591	0.1185	0.4845	0	276	125	2
2026-02-23	16:54:12.250	18.2	-56.805	8.085	0.815692	0.24034	-0.237656	-0.5925	0.114	0.4845	0	276	125	2
2026-02-23	16:54:12.270	15.68	-55.72	15.785	0.933056	0.420168	-0.215696	-0.5895	0.1185	0.504	0	276	125	2
2026-02-23	16:54:12.290	-1.82	-58.765	22.015	0.868396	0.364292	-0.181292	-0.5955	0.1215	0.5115	0	276	125	2
2026-02-23	16:54:12.310	-3.78	-59.92	25.305	0.931592	0.385764	-0.191052	-0.5955	0.1125	0.507	0	276	125	2
2026-02-23	16:54:12.330	-11.865	-60.655	26.95	0.953552	0.457988	-0.218624	-0.594	0.1215	0.5205	0	276	125	2
2026-02-23	16:54:12.350	-6.65	-61.74	23.905	0.913048	0.4453	-0.097844	-0.5955	0.126	0.5205	0	276	125	2
2026-02-23	16:54:12.370	-5.495	-58.66	23.345	1.027484	0.50508	-0.203984	-0.6	0.126	0.534	0	276	125	2
2026-02-23	16:54:12.390	-7.805	-57.75	22.33	0.91744	0.335744	-0.185684	-0.6045	0.1215	0.5415	0	276	125	2
2026-02-23	16:54:12.410	-4.06	-54.705	22.26	0.955504	0.404064	-0.246928	-0.603	0.126	0.5415	0	267	132	3
2026-02-23	16:54:12.430	-3.85	-54.32	22.4	0.922076	0.430416	-0.16226	-0.6105	0.126	0.5475	0	267	132	3
2026-02-23	16:54:12.450	-4.795	-51.695	22.295	0.913292	0.308904	-0.257908	-0.609	0.1305	0.5535	0	267	132	3
2026-02-23	16:54:12.470	-7.455	-48.37	24.325	0.912316	0.335744	-0.271328	-0.609	0.135	0.561	0	267	132	3
2026-02-23	16:54:12.490	-7.385	-46.34	24.745	0.845704	0.29768	-0.232532	-0.612	0.129	0.5655	0	267	132	3
2026-02-23	16:54:12.510	0.595	-45.64	22.785	0.9028	0.342088	-0.374296	-0.6165	0.1275	0.567	0	267	132	3
2026-02-23	16:54:12.530	-1.295	-46.445	24.465	0.857172	0.351116	-0.290848	-0.618	0.138	0.5745	0	267	132	3
2026-02-23	16:54:12.550	-5.775	-43.75	23.485	0.950868	0.342332	-0.41114	-0.6165	0.135	0.5835	0	267	132	3
2026-02-23	16:54:12.570	1.295	-47.705	16.695	0.787876	0.248392	-0.493856	-0.618	0.1425	0.579	0	267	132	3
2026-02-23	16:54:12.590	5.32	-48.16	19.285	0.892552	0.385276	-0.327448	-0.621	0.1425	0.594	0	267	132	3
2026-02-23	16:54:12.610	2.59	-44.205	18.34	0.97356	0.374784	-0.448472	-0.621	0.147	0.597	0	256	157	3
2026-02-23	16:54:12.630	12.53	-47.95	12.495	0.807152	0.228384	-0.553636	-0.6165	0.1485	0.603	0	256	157	3
2026-02-23	16:54:12.650	5.985	-49.105	19.915	0.879132	0.128344	-0.505812	-0.621	0.144	0.603	0	256	157	3
2026-02-23	16:54:12.670	-0.07	-52.815	26.285	0.906216	0.28914	-0.50264	-0.615	0.1545	0.6165	0	256	157	3
2026-02-23	16:54:12.690	8.785	-52.43	25.27	0.971608	0.405528	-0.44286	-0.615	0.159	0.618	0	256	157	3
2026-02-23	16:54:12.710	2.275	-59.535	26.775	0.703208	0.074664	-0.521184	-0.621	0.1575	0.6255	0	256	157	3
2026-02-23	16:54:12.730	-2.66	-59.815	29.015	0.97966	0.386252	-0.417484	-0.6165	0.1605	0.6345	0	256	157	3
2026-02-23	16:54:12.750	1.785	-62.335	19.6	0.838872	0.219844	-0.313052	-0.615	0.1635	0.6465	0	256	157	3
2026-02-23	16:54:12.770	25.375	-52.675	10.815	1.01504	0.482632	-0.132248	-0.6195	0.165	0.651	0	256	157	3
2026-02-23	16:54:12.790	52.955	-41.265	-3.115	0.969412	0.24644	-0.148596	-0.6225	0.168	0.654	0	256	157	3
2026-02-23	16:54:12.810	94.5	-26.6	-16.205	0.966728	0.323056	-0.082472	-0.6135	0.168	0.654	0	246	201	3
2026-02-23	16:54:12.830	79.695	-7.875	-24.955	0.978928	0.40504	-0.132004	-0.6	0.177	0.6765	0	246	201	3
2026-02-23	16:54:12.850	75.215	5.88	-34.65	0.837164	0.549488	-0.158112	-0.594	0.171	0.6855	0	246	201	3
2026-02-23	16:54:12.870	77.07	11.27	-32.165	0.788364	0.367464	-0.105652	-0.606	0.183	0.693	0	246	201	3
2026-02-23	16:54:12.890	94.815	23.45	-33.11	0.8723	0.337452	-0.108824	-0.5955	0.18	0.7095	0	246	201	3
2026-02-23	16:54:12.910	82.775	41.3	-38.5	0.837408	0.545584	-0.40138	-0.591	0.18	0.7125	0	246	201	3
2026-02-23	16:54:12.930	41.475	35.7	-43.82	0.699792	0.09638	-0.79422	-0.5985	0.195	0.711	0	246	201	3
2026-02-23	16:54:12.950	-4.025	16.38	-25.865	0.673196	-0.045628	-0.827892	-0.6045	0.1965	0.7125	0	246	201	3
2026-02-23	16:54:12.970	-30.17	4.025	-9.555	0.570228	0.210084	-0.659044	-0.594	0.189	0.711	0	246	201	3
2026-02-23	16:54:12.990	-28.42	13.16	-5.215	0.544852	0.452864	-0.704428	-0.5925	0.189	0.7125	0	246	201	3
2026-02-23	16:54:13.010	-27.055	22.225	-5.6	0.696132	0.618052	-0.691984	-0.597	0.186	0.705	0	239	246	3
2026-02-23	16:54:13.030	-36.96	22.365	-6.86	0.764452	0.38064	-0.695156	-0.5985	0.1815	0.6945	0	239	246	3
2026-02-23	16:54:13.050	-33.11	17.36	-2.975	0.742004	0.133712	-0.576328	-0.5985	0.177	0.6885	0	239	246	3
2026-02-23	16:54:13.070	-19.88	22.505	0.805	0.821304	0.28792	-0.582916	-0.6045	0.171	0.6825	0	239	246	3
2026-02-23	16:54:13.090	-27.93	25.06	-0.49	1.043588	0.403332	-0.64294	-0.606	0.168	0.681	0	239	246	3
2026-02-23	16:54:13.110	-25.655	25.655	-7.875	0.85644	0.371856	-0.254248	-0.6045	0.165	0.681	0	239	246	3
2026-02-23	16:54:13.130	-7.805	36.89	-16.905	0.733952	0.518744	-0.27084	-0.612	0.1725	0.672	0	239	246	3
2026-02-23	16:54:13.150	4.025	47.25	-25.725	0.897188	0.512644	-0.120292	-0.6015	0.168	0.6705	0	239	246	3
2026-02-23	16:54:13.170	4.655	58.695	-30.94	0.899384	0.432612	0.023912	-0.5985	0.162	0.657	0	239	246	3
2026-02-23	16:54:13.190	-4.27	68.39	-29.435	0.734196	0.702964	-0.027084	-0.6045	0.1635	0.654	0	239	246	3
2026-02-23	16:54:13.210	-25.515	63.7	-22.68	0.722484	0.335012	-0.229848	-0.6075	0.1605	0.6435	0	238	297	3
2026-02-23	16:54:13.230	-58.695	59.115	-4.41	0.700036	0.282552	-0.339892	-0.6075	0.1575	0.6435	0	238	297	3
2026-02-23	16:54:13.250	-48.335	39.305	6.09	0.829112	-0.013908	-0.974292	-0.606	0.1425	0.6285	0	238	297	3
2026-02-23	16:54:13.270	-56.735	16.8	22.015	0.921832	0.13908	-0.653432	-0.615	0.159	0.6165	0	238	297	3
2026-02-23	16:54:13.290	-44.1	18.34	18.9	0.82106	0.335012	-0.455548	-0.618	0.1515	0.609	0	238	297	3
2026-02-23	16:54:13.310	-49.595	31.85	13.125	1.086532	0.122732	-0.61732	-0.621	0.1455	0.5955	0	238	297	3
2026-02-23	16:54:13.330	-48.755	42.91	4.795	1.289784	0.358924	-0.55266	-0.6255	0.1515	0.588	0	238	297	3
2026-02-23	16:54:13.350	-32.06	50.68	-11.865	0.89304	0.181292	-0.176656	-0.6285	0.1515	0.5775	0	238	297	3
2026-02-23	16:54:13.370	-24.745	60.69	-16.485	0.639524	0.484096	0.025376	-0.6285	0.1425	0.5655	0	238	297	3
2026-02-23	16:54:13.390	-23.205	61.46	-14.77	0.773724	0.496052	-0.276208	-0.6285	0.141	0.561	0	238	297	3
2026-02-23	16:54:13.410	-23.135	44.905	-4.725	1.037732	0.33794	-0.397476	-0.6285	0.144	0.5625	0	244	333	3
2026-02-23	16:54:13.430	-32.725	31.36	5.005	0.880352	0.426268	-0.33184	-0.6315	0.141	0.549	0	244	333	3
2026-02-23	16:54:13.450	-39.305	20.65	3.815	0.660508	0.58926	-0.08052	-0.6285	0.135	0.54	0	244	333	3
2026-02-23	16:54:13.470	-48.895	23.135	-2.695	0.818132	0.493612	-0.197152	-0.6255	0.135	0.5325	0	244	333	3
2026-02-23	16:54:13.490	-53.76	20.44	2.24	1.1163	0.226676	-0.26718	-0.627	0.1455	0.525	0	244	333	3
2026-02-23	16:54:13.510	-30.59	28.595	-5.425	0.924272	0.616344	-0.452864	-0.6315	0.135	0.516	0	244	333	3
2026-02-23	16:54:13.530	-30.765	27.79	-11.165	0.886208	0.395524	-0.034404	-0.627	0.138	0.5085	0	244	333	3
2026-02-23	16:54:13.550	-22.61	33.215	-15.505	0.850584	0.42822	-0.279624	-0.624	0.1305	0.5055	0	244	333	3
2026-02-23	16:54:13.570	-21.77	22.925	-12.355	0.837164	0.245464	-0.387472	-0.624	0.1305	0.5055	0	244	333	3
2026-02-23	16:54:13.590	-26.25	11.69	-3.605	0.903044	0.242536	-0.4087	-0.6255	0.1305	0.495	0	244	333	3
2026-02-23	16:54:13.610	-38.29	3.71	6.685	0.938912	0.4026	-0.089304	-0.6255	0.129	0.4815	0	252	342	3
2026-02-23	16:54:13.630	-43.26	6.16	9.205	0.91866	0.382104	-0.187392	-0.624	0.132	0.477	0	252	342	3
2026-02-23	16:54:13.650	-32.83	11.725	5.11	0.898164	0.376736	-0.400648	-0.627	0.1395	0.4725	0	252	342	3
2026-02-23	16:54:13.670	-35.21	15.505	5.075	1.083116	0.713212	-0.08686399	-0.6225	0.1365	0.468	0	252	342	3
2026-02-23	16:54:13.690	-20.86	22.015	-15.155	1.16144	0.423096	-0.192272	-0.6195	0.1335	0.462	0	252	342	3
2026-02-23	16:54:13.710	-12.285	23.345	-26.18	0.946232	0.43554	-0.234728	-0.624	0.1335	0.4575	0	252	342	3
2026-02-23	16:54:13.730	-19.145	13.055	-18.445	0.929396	0.00732	-0.091744	-0.624	0.132	0.4605	0	252	342	3
2026-02-23	16:54:13.750	-5.215	8.015	-9.66	0.819352	0.471896	-0.488976	-0.6045	0.1335	0.456	0	252	342	3
2026-02-23	16:54:13.770	-15.89	0.7	-4.27	0.895236	0.383812	-0.20252	-0.606	0.135	0.456	0	252	342	3
2026-02-23	16:54:13.790	-20.055	0.875	0.63	0.904996	0.104432	-0.05246	-0.6075	0.1275	0.4575	0	252	342	3
2026-02-23	16:54:13.810	-18.795	12.39	5.74	0.676612	0.675392	-0.022448	-0.6105	0.1335	0.4515	0	260	327	3
2026-02-23	16:54:13.830	-19.04	18.41	-1.645	0.840336	0.736392	-0.262544	-0.612	0.132	0.4425	0	260	327	3
2026-02-23	16:54:13.850	-0.77	26.04	-14.175	0.9455	0.657092	-0.141764	-0.606	0.132	0.4485	0	260	327	3
2026-02-23	16:54:13.870	-0.07	29.855	-18.55	0.886696	0.44042	0.027816	-0.6015	0.1305	0.4425	0	260	327	3
2026-02-23	16:54:13.890	20.685	35.42	-27.195	0.83082	0.516548	-0.329888	-0.597	0.129	0.438	0	260	327	3
2026-02-23	16:54:13.910	0	19.04	-19.11	0.815692	0.34648	-0.322812	-0.6	0.1305	0.4365	0	260	327	3
2026-02-23	16:54:13.930	-24.01	12.495	-1.12	0.824476	0.329888	-0.06954	-0.6	0.132	0.4305	0	260	327	3
2026-02-23	16:54:13.950	-10.99	14.07	-7.77	0.81496	0.601216	-0.417728	-0.597	0.1305	0.426	0	260	327	3
2026-02-23	16:54:13.970	-32.375	12.845	-5.635	0.911828	0.154208	-0.0549	-0.5955	0.1305	0.426	0	260	327	3
2026-02-23	16:54:13.990	-35.84	23.835	-0.175	1.038708	0.409676	-0.182024	-0.5955	0.1305	0.4185	0	260	327	3
2026-02-23	16:54:14.010	-26.705	32.2	-6.72	0.960384	0.395036	-0.072224	-0.591	0.1335	0.4095	0	266	299	3
2026-02-23	16:54:14.030	-16.065	38.185	-10.885	1.032852	0.39894	-0.264984	-0.585	0.138	0.411	0	266	299	3
2026-02-23	16:54:14.050	-35.665	35.56	-0.735	0.974292	0.151036	-0.228384	-0.5835	0.1365	0.414	0	266	299	3
2026-02-23	16:54:14.070	-17.185	32.69	3.115	0.998204	0.509228	-0.130052	-0.585	0.135	0.399	0	266	299	3
2026-02-23	16:54:14.090	-13.195	35.315	-1.505	1.037732	0.371612	-0.014396	-0.585	0.1395	0.4005	0	266	299	3
2026-02-23	16:54:14.110	2.45	34.37	-9.03	0.965996	0.447252	-0.149816	-0.5805	0.1335	0.3885	0	266	299	3
2026-02-23	16:54:14.130	-10.57	29.015	-0.595	0.915488	0.344528	-0.115656	-0.5805	0.1335	0.3885	0	266	299	3
2026-02-23	16:54:14.150	-16.1	21.98	2.695	0.98454	0.550464	-0.268644	-0.573	0.1365	0.3855	0	266	299	3
2026-02-23	16:54:14.170	-23.905	14.21	-0.175	1.059448	0.250832	-0.203984	-0.5745	0.138	0.381	0	266	299	3
2026-02-23	16:54:14.190	-26.355	13.3	3.325	1.08824	0.193004	-0.217892	-0.576	0.138	0.375	0	266	299	3
2026-02-23	16:54:14.210	-14.525	13.895	4.025	0.9821	0.36844	-0.235948	-0.57	0.1395	0.369	0	270	267	2
2026-02-23	16:54:14.230	-12.565	14.14	3.85	0.938668	0.366976	-0.190564	-0.5715	0.144	0.366	0	270	267	2
2026-02-23	16:54:14.250	-15.26	16.275	5.88	1.047736	0.419924	-0.13176	-0.576	0.1425	0.363	0	270	267	2
2026-02-23	16:54:14.270	-16.45	20.23	7.77	1.091168	0.433344	-0.194468	-0.576	0.135	0.3585	0	270	267	2
2026-02-23	16:54:14.290	-3.675	22.82	14.105	1.053836	0.395524	0.023668	-0.5745	0.1365	0.3585	0	270	267	2
2026-02-23	16:54:14.310	9.17	30.485	15.925	0.951112	0.549244	0.099552	-0.576	0.141	0.3555	0	270	267	2
2026-02-23	16:54:14.330	6.055	30.905	13.02	0.896212	0.654896	0.066368	-0.5745	0.1425	0.3525	0	270	267	2
2026-02-23	16:54:14.350	-23.695	28.63	11.34	0.924028	0.63684	0.03538	-0.576	0.141	0.3495	0	270	267	2
2026-02-23	16:54:14.370	-53.585	22.785	9.765	1.024312	0.492636	-0.143716	-0.5685	0.1455	0.348	0	270	267	2
2026-02-23	16:54:14.390	-64.68	17.78	11.55	1.003328	0.35746	-0.00488	-0.5745	0.1485	0.3435	0	270	267	2
2026-02-23	16:54:14.410	-29.68	4.83	8.61	0.950136	0.407724	-0.043676	-0.5745	0.1485	0.3435	0	270	234	3
2026-02-23	16:54:14.430	-32.62	-4.375	7.98	0.960628	0.468968	-0.110288	-0.576	0.153	0.336	0	270	234	3
2026-02-23	16:54:14.450	-50.155	-10.675	8.575	1.061888	0.282308	-0.195444	-0.579	0.159	0.327	0	270	234	3
2026-02-23	16:54:14.470	-48.055	-21	11.41	0.996252	0.002928	-0.498492	-0.579	0.162	0.321	0	270	234	3
2026-02-23	16:54:14.490	-51.555	-30.065	24.745	1.012356	-0.004636	-0.3233	-0.5805	0.165	0.321	0	270	234	3
2026-02-23	16:54:14.510	-32.41	-29.925	23.73	0.986004	0.366732	-0.266204	-0.5865	0.1665	0.318	0	270	234	3
2026-02-23	16:54:14.530	-27.895	-36.295	22.785	0.953552	0.130052	-0.259616	-0.5895	0.171	0.3135	0	270	234	3
2026-02-23	16:54:14.550	-40.39	-41.475	32.445	0.981856	0.26596	-0.263032	-0.594	0.174	0.315	0	270	234	3
2026-02-23	16:54:14.570	-40.88	-44.73	32.865	1.063352	0.308416	-0.160308	-0.597	0.1785	0.3135	0	270	234	3
2026-02-23	16:54:14.590	-26.11	-46.865	30.94	1.040904	0.321836	0.014884	-0.6015	0.183	0.315	0	270	234	3
2026-02-23	16:54:14.610	-10.57	-45.85	24.815	1.005036	0.401868	-0.004392	-0.612	0.183	0.321	0	266	207	3
2026-02-23	16:54:14.630	-18.34	-54.005	19.915	0.968924	0.38064	-0.019276	-0.621	0.186	0.324	0	266	207	3
2026-02-23	16:54:14.650	-11.445	-56.7	13.755	1.102636	0.448472	0.187392	-0.627	0.1875	0.321	0	266	207	3
2026-02-23	16:54:14.670	-9.17	-54.005	13.895	1.024556	0.262544	-0.012444	-0.63	0.1875	0.321	0	266	207	3
2026-02-23	16:54:14.690	7.385	-57.295	6.58	1.01016	0.321104	0.070516	-0.633	0.189	0.3345	0	266	207	3
2026-02-23	16:54:14.710	-12.32	-55.895	13.685	1.011868	0.18666	0.034892	-0.636	0.189	0.339	0	266	207	3
2026-02-23	16:54:14.730	11.13	-55.195	10.36	1.049932	0.367464	-0.039772	-0.639	0.189	0.351	0	266	207	3
2026-02-23	16:54:14.750	-4.2	-53.795	13.65	1.033828	0.203984	0.013908	-0.642	0.1905	0.357	0	266	207	3
2026-02-23	16:54:14.770	9.66	-50.365	10.57	0.991616	0.384788	0.04148	-0.648	0.1935	0.36	0	266	207	3
2026-02-23	16:54:14.790	13.825	-50.645	5.565	0.944036	0.264496	-0.022448	-0.6555	0.192	0.369	0	266	207	3
2026-02-23	16:54:14.810	3.535	-54.005	11.55	0.945988	0.180804	-0.120536	-0.66	0.1935	0.3705	0	260	178	3
2026-02-23	16:54:14.830	23.24	-51.695	10.99	1.021872	0.416996	-0.088084	-0.663	0.1965	0.3765	0	260	178	3
2026-02-23	16:54:14.850	10.5	-47.985	9.8	0.983076	0.398696	-0.168604	-0.6675	0.192	0.384	0	260	178	3
2026-02-23	16:54:14.870	18.795	-52.885	-2.695	0.906704	0.210816	-0.168848	-0.672	0.1965	0.3945	0	260	178	3
2026-02-23	16:54:14.890	2.065	-51.66	4.9	1.0187	0.144936	-0.002684	-0.672	0.1995	0.4035	0	260	178	3
2026-02-23	16:54:14.910	26.565	-55.79	1.155	0.915244	0.389424	-0.399184	-0.6705	0.192	0.408	0	260	178	3
2026-02-23	16:54:14.930	21.455	-57.96	5.95	0.938424	0.206668	-0.20008	-0.6705	0.1905	0.4185	0	260	178	3
2026-02-23	16:54:14.950	18.34	-54.705	6.125	0.976244	0.316468	-0.260592	-0.6795	0.1935	0.426	0	260	178	3
2026-02-23	16:54:14.970	30.625	-52.78	-0.735	0.989908	0.13664	-0.318908	-0.684	0.195	0.432	0	260	178	3
2026-02-23	16:54:14.990	19.355	-53.97	12.145	0.87596	0.203496	-0.212768	-0.681	0.1905	0.441	0	260	178	3
2026-02-23	16:54:15.010	36.54	-47.775	11.025	1.02602	0.58926	-0.305488	-0.6825	0.189	0.4515	0	253	157	2
2026-02-23	16:54:15.030	34.965	-40.145	6.72	0.973316	0.178364	-0.23912	-0.6825	0.1935	0.4635	0	253	157	2
2026-02-23	16:54:15.050	33.88	-45.92	9.59	0.85888	0.177632	-0.24766	-0.6825	0.195	0.468	0	253	157	2
2026-02-23	16:54:15.070	49.525	-47.88	13.37	0.985272	0.294508	-0.230824	-0.681	0.198	0.477	0	253	157	2
2026-02-23	16:54:15.090	26.215	-45.185	19.67	0.950624	0.366	-0.332572	-0.6855	0.198	0.489	0	253	157	2
2026-02-23	16:54:15.110	32.375	-45.92	10.71	0.948184	0.356728	-0.455548	-0.69	0.1995	0.4935	0	253	157	2
2026-02-23	16:54:15.130	17.64	-53.375	12.775	0.905972	0.06832	-0.363804	-0.6915	0.201	0.5055	0	253	157	2
2026-02-23	16:54:15.150	18.235	-57.645	15.015	0.9699	0.429196	-0.23424	-0.6915	0.2055	0.516	0	253	157	2
2026-02-23	16:54:15.170	35.91	-54.705	-2.485	0.91744	0.199836	-0.554124	-0.6915	0.2055	0.5235	0	253	157	2
2026-02-23	16:54:15.190	18.76	-63.98	0.91	0.808372	0.159576	-0.478728	-0.69	0.207	0.537	0	253	157	2
2026-02-23	16:54:15.210	32.935	-63.875	-1.645	0.916952	0.333304	-0.539972	-0.6885	0.21	0.5505	0	246	169	2
2026-02-23	16:54:15.230	12.25	-66.255	5.46	0.826672	-0.00976	-0.429196	-0.687	0.2085	0.561	0	246	169	2
2026-02-23	16:54:15.250	26.215	-63.98	8.155	0.973316	0.325984	-0.497028	-0.6825	0.2115	0.5685	0	246	169	2
2026-02-23	16:54:15.270	20.195	-72.17	7.945	0.605608	0.171776	-0.618296	-0.6825	0.2115	0.5685	0	246	169	2
2026-02-23	16:54:15.290	15.4	-71.155	14.28	1.102148	0.087108	-0.473116	-0.6855	0.216	0.585	0	246	169	2
2026-02-23	16:54:15.310	6.055	-76.58	24.605	0.754448	-0.017812	-0.60756	-0.687	0.216	0.6045	0	246	169	2
2026-02-23	16:54:15.330	18.865	-71.785	26.425	1.146312	0.609512	-0.352092	-0.6825	0.2115	0.612	0	246	169	2
2026-02-23	16:54:15.350	31.045	-70.735	8.085	0.744688	-0.247172	-0.671488	-0.6795	0.219	0.627	0	246	169	2
2026-02-23	16:54:15.370	16.31	-75.285	24.43	1.014308	0.547536	-0.432612	-0.6795	0.2205	0.6375	0	246	169	2
2026-02-23	16:54:15.390	22.925	-59.535	17.43	0.92842	-0.130052	-0.565104	-0.6705	0.2235	0.648	0	246	169	2
2026-02-23	16:54:15.410	-4.585	-68.075	26.18	0.699304	0.410164	-0.489708	-0.669	0.228	0.6585	0	245	218	3
2026-02-23	16:54:15.430	-2.345	-57.085	10.115	0.981856	0.521672	0.02562	-0.6735	0.2325	0.666	0	245	218	3
2026-02-23	16:54:15.450	-4.27	-58.94	3.08	0.557296	0.308172	-0.284992	-0.669	0.2355	0.6765	0	245	218	3
2026-02-23	16:54:15.470	-10.745	-58.17	1.295	0.849608	0.46604	0.09638	-0.663	0.2325	0.687	0	245	218	3
2026-02-23	16:54:15.490	65.625	-47.355	-31.71	0.835944	0.183732	-0.014152	-0.66	0.234	0.6915	0	245	218	3
2026-02-23	16:54:15.510	108.22	-31.01	-44.065	0.865224	-0.047092	-0.011224	-0.651	0.2325	0.6975	0	245	218	3
2026-02-23	16:54:15.530	128.975	2.73	-55.125	0.939888	0.312076	-0.292068	-0.6465	0.231	0.711	0	245	218	3
2026-02-23	16:54:15.550	39.375	21.84	-59.5	0.986736	0.334036	-0.72468	-0.6465	0.2325	0.72	0	245	218	3
2026-02-23	16:54:15.570	24.325	9.485	-65.625	0.836188	-0.712724	-0.9821	-0.636	0.237	0.7305	0	245	218	3
2026-02-23	16:54:15.590	36.505	4.095	-49.56	0.808616	-0.12322	-0.628056	-0.633	0.24	0.726	0	245	218	3
2026-02-23	16:54:15.610	3.29	10.605	-37.345	0.876692	0.047092	-0.589504	-0.6315	0.2415	0.726	0	253	269	3
2026-02-23	16:54:15.630	28.105	29.155	-34.615	0.8662	0.420168	-0.658068	-0.6345	0.234	0.7275	0	253	269	3
2026-02-23	16:54:15.650	55.125	36.89	-43.12	0.86498	0.412116	-0.50386	-0.6345	0.2265	0.7245	0	253	269	3
2026-02-23	16:54:15.670	70.35	42.35	-50.785	0.803248	0.3782	-0.27084	-0.633	0.231	0.7215	0	253	269	3
2026-02-23	16:54:15.690	28	39.76	-54.18	0.820084	0.24644	-0.4697	-0.63	0.2325	0.7215	0	253	269	3
2026-02-23	16:54:15.710	-33.6	29.995	-43.68	0.807884	0.005856	-0.545096	-0.63	0.228	0.7185	0	253	269	3
2026-02-23	16:54:15.730	-57.61	26.635	-27.37	0.618784	0.14762	-0.458964	-0.63	0.225	0.7125	0	253	269	3
2026-02-23	16:54:15.750	-39.725	31.955	-26.775	0.600972	0.181048	-0.641232	-0.633	0.2145	0.708	0	253	269	3
2026-02-23	16:54:15.770	17.675	30.52	-29.435	0.902312	-0.013664	-0.793732	-0.6315	0.2085	0.7005	0	253	269	3
2026-02-23	16:54:15.790	19.04	24.85	-26.355	0.963556	-0.07905599	-0.955504	-0.6285	0.2055	0.696	0	253	269	3
2026-02-23	16:54:15.810	-22.33	16.835	-26.81	0.769088	0.141032	-0.530456	-0.6255	0.204	0.699	0	268	326	3
2026-02-23	16:54:15.830	-26.25	25.235	-31.43	0.907192	0.803248	-0.635132	-0.624	0.2055	0.7035	0	268	326	3
2026-02-23	16:54:15.850	-17.64	19.355	-49.49	0.979172	0.011712	-0.822036	-0.6255	0.1905	0.681	0	268	326	3
2026-02-23	16:54:15.870	-18.2	15.47	-44.975	0.684664	0.066368	-0.371612	-0.618	0.1935	0.6825	0	268	326	3
2026-02-23	16:54:15.890	-8.47	25.83	-43.295	0.544608	0.506056	-0.528016	-0.6165	0.1845	0.672	0	268	326	3
2026-02-23	16:54:15.910	-7.385	25.025	-40.705	0.648064	0.376736	-0.602192	-0.618	0.1755	0.672	0	268	326	3
2026-02-23	16:54:15.930	-12.25	17.815	-33.46	0.706136	0.553148	-0.63684	-0.6195	0.168	0.672	0	268	326	3
2026-02-23	16:54:15.950	-16.765	14.98	-37.135	0.634156	0.265716	-0.647332	-0.6135	0.1665	0.6675	0	268	326	3
2026-02-23	16:54:15.970	-19.705	14.84	-35.315	0.552172	0.313784	-0.242292	-0.6075	0.159	0.66	0	268	326	3
2026-02-23	16:54:15.990	-20.895	31.78	-37.66	0.828868	0.72346	-0.56974	-0.609	0.1515	0.66	0	268	326	3
2026-02-23	16:54:16.010	-38.01	27.195	-43.645	0.9943	0.384544	-0.494344	-0.6075	0.15	0.6555	0	284	388	3
2026-02-23	16:54:16.030	-25.585	26.215	-55.335	0.675148	0.307684	-0.720288	-0.6045	0.1485	0.6465	0	284	388	3
2026-02-23	16:54:16.050	-12.53	21	-55.335	0.631228	0.298656	-0.2562	-0.6045	0.144	0.645	0	284	388	3
2026-02-23	16:54:16.070	-6.195	36.33	-52.885	0.733952	0.587308	-0.172508	-0.597	0.135	0.639	0	284	388	3
2026-02-23	16:54:16.090	-24.325	46.235	-49.175	0.696864	0.646844	-0.254004	-0.5865	0.129	0.636	0	284	388	3
2026-02-23	16:54:16.110	-32.2	60.9	-51.275	0.619516	1.038952	-0.162748	-0.588	0.129	0.636	0	284	388	3
2026-02-23	16:54:16.130	-45.99	57.855	-56.735	0.89914	0.369172	-0.581452	-0.5865	0.117	0.6045	0	284	388	3
2026-02-23	16:54:16.150	-49.035	53.095	-44.8	0.803248	0.093208	-0.258884	-0.5805	0.105	0.591	0	284	388	3
2026-02-23	16:54:16.170	-25.445	50.61	-29.155	0.673684	0.389912	-0.528504	-0.579	0.105	0.582	0	284	388	3
2026-02-23	16:54:16.190	-23.415	34.685	-15.295	0.571936	0.513132	-0.410408	-0.573	0.1035	0.588	0	284	388	3
2026-02-23	16:54:16.210	-74.06	35.21	-1.295	0.692228	0.46482	-0.466284	-0.564	0.0945	0.579	0	301	426	1
2026-02-23	16:54:16.230	-91.945	39.935	9.135	0.793244	0.18666	-0.608292	-0.564	0.0945	0.567	0	301	426	1
2026-02-23	16:54:16.250	-61.005	38.955	17.15	0.889868	0.325496	-0.705892	-0.5685	0.093	0.5445	0	301	426	1
2026-02-23	16:54:16.270	-51.59	47.705	19.67	0.878644	0.664168	-0.098088	-0.5745	0.093	0.5325	0	301	426	1
2026-02-23	16:54:16.290	-38.36	60.025	7.175	0.819352	0.587552	-0.650992	-0.576	0.0945	0.528	0	301	426	1
2026-02-23	16:54:16.310	-43.925	45.955	9.345	0.865468	0.408212	-0.204472	-0.5775	0.0975	0.522	0	301	426	1
2026-02-23	16:54:16.330	-30.975	43.96	6.545	1.10288	0.4758	-0.599996	-0.5805	0.1035	0.51	0	301	426	1
2026-02-23	16:54:16.350	-22.645	35.805	-2.1	0.944768	0.690764	-0.3538	-0.579	0.0975	0.498	0	301	426	1
2026-02-23	16:54:16.370	-28.42	20.51	-8.05	0.955748	0.19032	-0.419924	-0.5805	0.096	0.501	0	301	426	1
2026-02-23	16:54:16.390	-47.425	7.7	-0.595	0.789828	0.315492	-0.464576	-0.5835	0.099	0.504	0	301	426	1
2026-02-23	16:54:16.410	-46.305	3.64	3.71	0.942328	0.438956	-0.434564	-0.5745	0.1065	0.465	0	314	440	3
2026-02-23	16:54:16.430	-28.77	12.355	-3.815	0.944768	0.52826	-0.286944	-0.5745	0.096	0.4665	0	314	440	3
2026-02-23	16:54:16.450	-15.015	19.6	-14	0.884012	0.578524	-0.27938	-0.5775	0.105	0.4665	0	314	440	3
2026-02-23	16:54:16.470	-5.04	17.71	-17.395	0.913292	0.530212	-0.326472	-0.5625	0.093	0.4635	0	314	440	3
2026-02-23	16:54:16.490	6.475	13.965	-26.04	0.750544	0.693936	-0.471164	-0.5745	0.096	0.459	0	314	440	3
2026-02-23	16:54:16.510	7.7	3.22	-32.445	0.80886	0.5978	-0.210572	-0.558	0.0975	0.4605	0	314	440	3
2026-02-23	16:54:16.530	6.79	1.505	-33.88	0.920856	0.609756	-0.292556	-0.561	0.0975	0.462	0	314	440	3
2026-02-23	16:54:16.550	6.965	0.91	-33.635	0.693204	0.482388	-0.343552	-0.5655	0.0915	0.4605	0	314	440	3
2026-02-23	16:54:16.570	4.515	-5.145	-28.49	0.59292	0.56242	-0.416264	-0.561	0.0855	0.4605	0	314	440	3
2026-02-23	16:54:16.590	-1.89	-11.27	-23.17	0.931104	0.48678	-0.274744	-0.5505	0.09	0.459	0	314	440	3
2026-02-23	16:54:16.610	5.075	-5.285	-25.27	0.888892	0.735172	-0.118584	-0.5415	0.0885	0.4575	0	322	431	3
2026-02-23	16:54:16.630	8.085	4.76	-28.14	0.799832	0.282796	-0.10492	-0.5415	0.087	0.4605	0	322	431	3
2026-02-23	16:54:16.650	5.005	16.73	-19.95	0.694668	0.659044	-0.081496	-0.54	0.087	0.4665	0	322	431	3
2026-02-23	16:54:16.670	1.715	17.78	-13.79	0.767136	0.571692	0	-0.537	0.081	0.471	0	322	431	3
2026-02-23	16:54:16.690	3.08	26.11	-9.1	0.880352	0.533872	-0.193004	-0.531	0.075	0.465	0	322	431	3
2026-02-23	16:54:16.710	-2.135	26.705	-3.5	0.755668	0.534848	-0.016104	-0.531	0.0795	0.4635	0	322	431	3
2026-02-23	16:54:16.730	-5.6	29.015	0.525	0.791536	0.616832	-0.169824	-0.537	0.072	0.459	0	322	431	3
2026-02-23	16:54:16.750	-20.58	24.885	5.775	0.771528	0.63074	-0.194712	-0.534	0.0825	0.45	0	322	431	3
2026-02-23	16:54:16.770	-25.9	23.66	7.84	0.84912	0.39528	-0.130052	-0.5235	0.084	0.4605	0	322	431	3
2026-02-23	16:54:16.790	-20.51	33.635	6.755	0.822524	0.77958	-0.149816	-0.5325	0.081	0.4545	0	322	431	3
2026-02-23	16:54:16.810	-30.345	38.255	2.415	0.822768	0.426268	-0.187148	-0.528	0.084	0.4395	0	324	394	2
2026-02-23	16:54:16.830	-35.805	38.815	9.905	0.734196	0.6283	-0.338428	-0.5355	0.0855	0.438	0	324	394	2
2026-02-23	16:54:16.850	-51.94	28.875	16.065	0.920124	0.248636	-0.223748	-0.5355	0.09	0.432	0	324	394	2
2026-02-23	16:54:16.870	-34.755	28.315	20.125	0.896212	0.50752	-0.298168	-0.528	0.09	0.423	0	324	394	2
2026-02-23	16:54:16.890	-27.195	27.72	17.43	0.894504	0.402356	-0.404308	-0.528	0.093	0.4155	0	324	394	2
2026-02-23	16:54:16.910	-29.68	24.01	19.74	0.930372	0.41114	-0.350384	-0.534	0.099	0.4095	0	324	394	2
2026-02-23	16:54:16.930	-26.635	25.06	19.985	0.926224	0.532164	-0.343064	-0.5385	0.099	0.4065	0	324	394	2
2026-02-23	16:54:16.950	-24.535	22.785	18.655	0.853268	0.48434	-0.426268	-0.537	0.1005	0.405	0	324	394	2
2026-02-23	16:54:16.970	-23.1	13.895	17.955	0.937936	0.521672	-0.3294	-0.537	0.1005	0.405	0	324	394	2
2026-02-23	16:54:16.990	-18.865	11.375	15.995	0.931836	0.504836	-0.355508	-0.5415	0.105	0.396	0	324	394	2
2026-02-23	16:54:17.010	-8.33	9.94	15.19	0.90158	0.496052	-0.2623	-0.546	0.105	0.387	0	321	354	2
2026-02-23	16:54:17.030	-1.89	10.36	16.275	0.912072	0.599264	-0.265228	-0.5505	0.111	0.39	0	321	354	2
2026-02-23	16:54:17.050	-12.705	3.885	13.44	0.904752	0.709796	-0.106872	-0.5445	0.111	0.378	0	321	354	2
2026-02-23	16:54:17.070	-12.355	4.655	-1.05	0.942572	0.708088	-0.12932	-0.543	0.117	0.381	0	321	354	2
2026-02-23	16:54:17.090	4.725	6.51	-14.735	0.980392	0.632692	-0.059292	-0.5445	0.1125	0.3795	0	321	354	2
2026-02-23	16:54:17.110	36.155	12.04	-18.69	0.95526	0.526552	-0.011224	-0.552	0.102	0.3855	0	321	354	2
2026-02-23	16:54:17.130	64.61	22.96	-16.66	0.898408	0.696376	-0.123464	-0.546	0.111	0.387	0	321	354	2
2026-02-23	16:54:17.150	43.82	26.11	-15.435	0.82472	0.83082	-0.167872	-0.5415	0.108	0.3885	0	321	354	2
2026-02-23	16:54:17.170	-15.365	17.465	-10.395	0.885232	0.43432	-0.173972	-0.54	0.1065	0.3885	0	321	354	2
2026-02-23	16:54:17.190	-27.79	19.285	2.205	0.937692	0.328912	-0.141764	-0.5355	0.108	0.3915	0	321	354	2
2026-02-23	16:54:17.210	-8.015	16.52	12.075	0.938668	0.377712	-0.15738	-0.5355	0.108	0.39	0	313	319	3
2026-02-23	16:54:17.230	-5.53	2.625	22.68	0.96746	0.32818	-0.229604	-0.543	0.1065	0.3825	0	313	319	3
2026-02-23	16:54:17.250	-11.62	-2.205	27.125	0.987712	0.344284	-0.332816	-0.543	0.1065	0.3825	0	313	319	3
2026-02-23	16:54:17.270	-6.405	-13.02	28.07	1.048712	-0.009028	-0.5673	-0.549	0.1125	0.3825	0	313	319	3
2026-02-23	16:54:17.290	-20.23	-23.695	44.8	1.04676	0.101504	-0.339648	-0.549	0.114	0.381	0	313	319	3
2026-02-23	16:54:17.310	-4.06	-24.01	41.3	1.091412	0.546804	-0.263764	-0.5595	0.111	0.3825	0	313	319	3
2026-02-23	16:54:17.330	21.595	-23.17	21.49	0.979416	0.26596	-0.42944	-0.5685	0.12	0.3795	0	313	319	3
