yyyy-MM-dd	HH:mm:ss.fff	gyrX	gyrY	gyrZ	accX	accY	accZ	magX	magY	magZ	Marker	Energy	Angle	Classification
2026-02-19	12:40:44.810	-2.94	7.455	7.14	0.849364	0.43066	0.484096	-0.5955	0.1395	0.2235	0	208	543	3
2026-02-19	12:40:44.830	0.385	2.52	3.57	0.837896	0.417484	0.38308	-0.594	0.132	0.219	0	208	543	3
2026-02-19	12:40:44.850	-6.37	-1.435	1.365	0.841556	0.399184	0.362584	-0.5955	0.135	0.2235	0	208	543	3
2026-02-19	12:40:44.870	-12.67	-4.025	0.56	0.850584	0.376492	0.382836	-0.591	0.1365	0.216	0	208	543	3
2026-02-19	12:40:44.890	-16.8	-4.9	0.595	0.848632	0.351848	0.37454	-0.5865	0.141	0.219	0	208	543	3
2026-02-19	12:40:44.910	-14.735	-5.32	1.085	0.84912	0.336476	0.373564	-0.597	0.1365	0.2145	0	208	543	3
2026-02-19	12:40:44.930	-9.485	-5.145	1.68	0.854488	0.339404	0.368928	-0.6015	0.1455	0.2175	0	208	543	3
2026-02-19	12:40:44.950	-3.5	-5.075	2.59	0.862784	0.34038	0.360876	-0.6	0.156	0.219	0	208	543	3
2026-02-19	12:40:44.970	0.91	-5.18	2.87	0.863028	0.34648	0.359656	-0.603	0.144	0.219	0	208	543	3
2026-02-19	12:40:44.990	2.835	-5.04	2.835	0.864492	0.361364	0.373076	-0.591	0.1485	0.219	0	208	543	3
2026-02-19	12:40:45.010	1.68	-4.06	1.785	0.869372	0.3599	0.375028	-0.597	0.153	0.213	0	202	516	3
2026-02-19	12:40:45.030	1.715	-1.96	0.735	0.890356	0.369904	0.429196	-0.597	0.1515	0.216	0	202	516	3
2026-02-19	12:40:45.050	6.685	-2.275	0.595	0.885232	0.343796	0.402844	-0.597	0.1515	0.216	0	202	516	3
2026-02-19	12:40:45.070	13.545	-2.135	-0.525	0.897188	0.348676	0.3904	-0.588	0.1455	0.222	0	202	516	3
2026-02-19	12:40:45.090	15.505	-0.98	-0.455	0.902068	0.33184	0.36112	-0.5985	0.15	0.2145	0	202	516	3
2026-02-19	12:40:45.110	16.38	-0.98	-0.21	0.90646	0.340624	0.350872	-0.6	0.1515	0.219	0	202	516	3
2026-02-19	12:40:45.130	12.845	-1.19	0.7	0.913536	0.332816	0.349164	-0.6	0.141	0.2295	0	202	516	3
2026-02-19	12:40:45.150	10.535	-1.26	0.84	0.903776	0.33184	0.345992	-0.6075	0.1395	0.2265	0	202	516	3
2026-02-19	12:40:45.170	7.735	-1.505	0.945	0.900604	0.333304	0.345504	-0.6	0.1455	0.2265	0	202	516	3
2026-02-19	12:40:45.190	8.435	-1.435	0.56	0.89914	0.332572	0.355996	-0.597	0.1395	0.228	0	202	516	3
2026-02-19	12:40:45.210	8.26	-1.68	-0.49	0.89304	0.346968	0.35624	-0.5985	0.141	0.234	0	193	487	3
2026-02-19	12:40:45.230	5.145	-1.715	-0.805	0.887428	0.332572	0.367708	-0.594	0.1425	0.2265	0	193	487	3
2026-02-19	12:40:45.250	3.675	-1.75	-0.77	0.888404	0.349408	0.368196	-0.603	0.1365	0.231	0	193	487	3
2026-02-19	12:40:45.270	1.61	-2.31	-0.455	0.874008	0.33306	0.365024	-0.606	0.135	0.237	0	193	487	3
2026-02-19	12:40:45.290	2.345	-2.205	0.525	0.87352	0.344528	0.386984	-0.603	0.1425	0.2295	0	193	487	3
2026-02-19	12:40:45.310	0.84	-1.785	1.33	0.879376	0.349652	0.400404	-0.6015	0.132	0.2265	0	193	487	3
2026-02-19	12:40:45.330	2.45	-1.435	1.96	0.875472	0.350872	0.39772	-0.6015	0.135	0.231	0	193	487	3
2026-02-19	12:40:45.350	5.005	-0.56	2.205	0.883524	0.345748	0.391132	-0.603	0.138	0.2355	0	193	487	3
2026-02-19	12:40:45.370	8.82	-0.105	2.52	0.881816	0.326228	0.376004	-0.6045	0.135	0.234	0	193	487	3
2026-02-19	12:40:45.390	11.97	0.56	2.835	0.887916	0.34038	0.367708	-0.6045	0.135	0.2355	0	193	487	3
2026-02-19	12:40:45.410	10.43	1.015	3.43	0.878644	0.344772	0.36234	-0.6105	0.141	0.237	0	182	459	3
2026-02-19	12:40:45.430	9.135	2.31	3.815	0.89182	0.34282	0.377468	-0.606	0.138	0.24	0	182	459	3
2026-02-19	12:40:45.450	8.82	3.115	4.06	0.8906	0.347944	0.377224	-0.603	0.1395	0.2385	0	182	459	3
2026-02-19	12:40:45.470	10.395	3.85	5.495	0.873032	0.33794	0.38064	-0.597	0.1335	0.231	0	182	459	3
2026-02-19	12:40:45.490	14.665	5.285	5.705	0.875228	0.360144	0.40504	-0.5985	0.1365	0.2415	0	182	459	3
2026-02-19	12:40:45.510	16.555	6.37	6.265	0.874252	0.371368	0.409432	-0.6045	0.132	0.237	0	182	459	3
2026-02-19	12:40:45.530	13.895	7	7.105	0.871812	0.368196	0.400648	-0.6075	0.1305	0.2445	0	182	459	3
2026-02-19	12:40:45.550	11.9	8.47	7.84	0.856196	0.353312	0.377956	-0.6015	0.1305	0.24	0	182	459	3
2026-02-19	12:40:45.570	10.64	8.26	8.925	0.851316	0.372588	0.387716	-0.603	0.1275	0.243	0	182	459	3
2026-02-19	12:40:45.590	8.19	7.945	8.365	0.85522	0.366244	0.383812	-0.6045	0.1305	0.243	0	182	459	3
2026-02-19	12:40:45.610	9.415	7.945	8.4	0.861564	0.322324	0.355264	-0.606	0.1305	0.24	0	168	438	1
2026-02-19	12:40:45.630	11.935	8.085	9.31	0.876204	0.343064	0.367708	-0.606	0.1305	0.2445	0	168	438	1
2026-02-19	12:40:45.650	12.95	8.435	10.185	0.876204	0.345016	0.374296	-0.6045	0.132	0.252	0	168	438	1
2026-02-19	12:40:45.670	13.685	8.61	10.815	0.883036	0.337696	0.36844	-0.603	0.1275	0.243	0	168	438	1
2026-02-19	12:40:45.690	14.455	8.365	11.025	0.8906	0.343552	0.355508	-0.612	0.132	0.24	0	168	438	1
2026-02-19	12:40:45.710	16.1	7.945	11.34	0.895236	0.322568	0.340624	-0.6075	0.1245	0.2475	0	168	438	1
2026-02-19	12:40:45.730	18.725	7.42	11.62	0.896212	0.3233	0.33794	-0.6045	0.132	0.2475	0	168	438	1
2026-02-19	12:40:45.750	18.55	7.84	12.25	0.899872	0.335256	0.354044	-0.609	0.1335	0.2505	0	168	438	1
2026-02-19	12:40:45.770	17.115	7.525	12.32	0.898896	0.336964	0.363804	-0.6015	0.129	0.252	0	168	438	1
2026-02-19	12:40:45.790	17.185	6.86	12.04	0.899384	0.325252	0.363316	-0.612	0.132	0.255	0	168	438	1
2026-02-19	12:40:43.810	49.105	11.585	72.66	0.726632	0.556564	0.641964	-0.4515	0.138	0.1455	0	224	659	1
2026-02-19	12:40:43.830	36.82	11.76	66.92	0.717604	0.549732	0.62952	-0.459	0.144	0.15	0	224	659	1
2026-02-19	12:40:43.850	33.25	12.32	58.87	0.706136	0.57828	0.636352	-0.4635	0.1425	0.1485	0	224	659	1
2026-02-19	12:40:43.870	31.15	12.285	52.045	0.687836	0.55998	0.611952	-0.468	0.138	0.1485	0	224	659	1
2026-02-19	12:40:43.890	28.875	10.92	44.485	0.67466	0.599508	0.639036	-0.4725	0.1365	0.1515	0	224	659	1
2026-02-19	12:40:43.910	20.195	9.45	36.96	0.679052	0.601704	0.599264	-0.4785	0.1395	0.153	0	224	659	1
2026-02-19	12:40:43.930	14.56	8.575	31.045	0.653676	0.519964	0.517768	-0.483	0.135	0.165	0	224	659	1
2026-02-19	12:40:43.950	16.345	5.355	25.235	0.628056	0.5307	0.538264	-0.4905	0.129	0.162	0	224	659	1
2026-02-19	12:40:43.970	19.495	-0.665	20.055	0.622444	0.474824	0.504104	-0.4875	0.1365	0.1545	0	224	659	1
2026-02-19	12:40:43.990	15.33	-10.08	18.55	0.59292	0.508008	0.506788	-0.4905	0.132	0.174	0	224	659	1
2026-02-19	12:40:44.010	0.945	-16.1	15.82	0.63562	0.538752	0.550952	-0.492	0.1275	0.168	0	225	647	1
2026-02-19	12:40:44.030	-19.915	-22.12	12.355	0.688568	0.502884	0.533872	-0.501	0.138	0.168	0	225	647	1
2026-02-19	12:40:44.050	-32.585	-24.675	9.905	0.727364	0.46604	0.53314	-0.507	0.132	0.1665	0	225	647	1
2026-02-19	12:40:44.070	-34.055	-24.43	6.965	0.753228	0.421388	0.539484	-0.5085	0.141	0.174	0	225	647	1
2026-02-19	12:40:44.090	-26.985	-24.01	5.11	0.757864	0.365268	0.505324	-0.5175	0.138	0.171	0	225	647	1
2026-02-19	12:40:44.110	-14.91	-22.645	4.095	0.776896	0.367952	0.523624	-0.5115	0.138	0.1575	0	225	647	1
2026-02-19	12:40:44.130	-5.915	-21.98	5.74	0.7869	0.352092	0.49776	-0.516	0.15	0.1605	0	225	647	1
2026-02-19	12:40:44.150	-1.96	-21.595	7.665	0.793976	0.33062	0.479704	-0.522	0.147	0.1695	0	225	647	1
2026-02-19	12:40:44.170	1.12	-21.735	9.695	0.83326	0.35868	0.46116	-0.519	0.1515	0.1725	0	225	647	1
2026-02-19	12:40:44.190	-2.38	-21.945	9.1	0.845704	0.346968	0.428708	-0.5175	0.1575	0.1755	0	225	647	1
2026-02-19	12:40:44.210	-5.18	-22.47	8.505	0.830088	0.335744	0.485072	-0.534	0.147	0.171	0	222	627	1
2026-02-19	12:40:44.230	-6.51	-24.15	8.4	0.87108	0.361852	0.486292	-0.5385	0.156	0.174	0	222	627	1
2026-02-19	12:40:44.250	-11.305	-26.18	8.085	0.841556	0.352824	0.503616	-0.543	0.15	0.168	0	222	627	1
2026-02-19	12:40:44.270	-9.52	-28.455	7.595	0.8296	0.31476	0.475068	-0.537	0.1425	0.174	0	222	627	1
2026-02-19	12:40:44.290	-4.55	-30.415	7	0.809348	0.360388	0.460672	-0.549	0.153	0.1785	0	222	627	1
2026-02-19	12:40:44.310	-1.47	-31.78	5.775	0.783972	0.376492	0.458476	-0.552	0.1575	0.18	0	222	627	1
2026-02-19	12:40:44.330	0.91	-34.09	3.92	0.749324	0.372344	0.445544	-0.555	0.1545	0.18	0	222	627	1
2026-02-19	12:40:44.350	6.685	-38.08	2.135	0.713456	0.38308	0.43432	-0.564	0.153	0.189	0	222	627	1
2026-02-19	12:40:44.370	13.335	-43.4	2.03	0.698816	0.378688	0.37576	-0.567	0.1545	0.1845	0	222	627	1
2026-02-19	12:40:44.390	12.775	-49.665	3.675	0.730536	0.412848	0.386252	-0.5745	0.153	0.1965	0	222	627	1
2026-02-19	12:40:44.410	-8.61	-55.09	5.39	0.79666	0.44042	0.454084	-0.5835	0.1575	0.1935	0	217	598	1
2026-02-19	12:40:44.430	-29.82	-58.835	4.585	0.853512	0.383324	0.452864	-0.5895	0.1485	0.204	0	217	598	1
2026-02-19	12:40:44.450	-21.525	-43.89	-16.31	1.37616	0.629764	0.811056	-0.5955	0.1635	0.204	0	217	598	1
2026-02-19	12:40:44.470	-15.05	-6.615	-50.225	0.712968	0.53802	0.739808	-0.5955	0.1635	0.204	0	217	598	1
2026-02-19	12:40:44.490	-43.295	-5.845	-44.94	0.6893	0.135176	0.362828	-0.597	0.1575	0.2025	0	217	598	1
2026-02-19	12:40:44.510	-25.83	-18.935	-36.785	0.814228	0.111264	0.397232	-0.5865	0.1575	0.201	0	217	598	1
2026-02-19	12:40:44.530	1.96	-22.015	-32.62	0.889136	0.350384	0.50752	-0.588	0.15	0.1965	0	217	598	1
2026-02-19	12:40:44.550	-0.28	-19.215	-28.945	0.893528	0.37698	0.470432	-0.588	0.153	0.198	0	217	598	1
2026-02-19	12:40:44.570	-18.9	-15.715	-26.32	0.881816	0.330376	0.428464	-0.591	0.1425	0.207	0	217	598	1
2026-02-19	12:40:44.590	-23.415	-14.14	-22.68	0.85156	0.193736	0.40626	-0.588	0.147	0.2085	0	217	598	1
2026-02-19	12:40:44.610	-7.595	-14.14	-14.63	0.850584	0.176656	0.374296	-0.573	0.144	0.204	0	212	569	1
2026-02-19	12:40:44.630	13.825	-13.755	-3.85	0.854976	0.196664	0.376004	-0.5805	0.1425	0.198	0	212	569	1
2026-02-19	12:40:44.650	25.62	-11.305	6.23	0.862052	0.28304	0.403576	-0.579	0.15	0.2025	0	212	569	1
2026-02-19	12:40:44.670	27.37	-8.715	14.035	0.827892	0.28548	0.449936	-0.579	0.147	0.2055	0	212	569	1
2026-02-19	12:40:44.690	29.855	-4.655	16.52	0.886452	0.470432	0.520208	-0.5835	0.1455	0.2145	0	212	569	1
2026-02-19	12:40:44.710	19.635	0.98	15.855	0.859612	0.41846	0.514108	-0.5835	0.1335	0.216	0	212	569	1
2026-02-19	12:40:44.730	16.52	4.83	16.38	0.81984	0.322324	0.443836	-0.591	0.1425	0.213	0	212	569	1
2026-02-19	12:40:44.750	24.57	9.135	18.62	0.824964	0.381128	0.43066	-0.594	0.1455	0.2115	0	212	569	1
2026-02-19	12:40:44.770	15.225	13.79	15.05	0.852292	0.47702	0.519964	-0.5895	0.144	0.2175	0	212	569	1
2026-02-19	12:40:44.790	2.695	15.785	9.345	0.855464	0.480192	0.542656	-0.588	0.138	0.2235	0	212	569	1
2026-02-19	12:40:44.810	-2.94	7.455	7.14	0.849364	0.43066	0.484096	-0.5955	0.1395	0.2235	0	208	543	3
2026-02-19	12:40:44.830	0.385	2.52	3.57	0.837896	0.417484	0.38308	-0.594	0.132	0.219	0	208	543	3
2026-02-19	12:40:44.850	-6.37	-1.435	1.365	0.841556	0.399184	0.362584	-0.5955	0.135	0.2235	0	208	543	3
2026-02-19	12:40:44.870	-12.67	-4.025	0.56	0.850584	0.376492	0.382836	-0.591	0.1365	0.216	0	208	543	3
2026-02-19	12:40:44.890	-16.8	-4.9	0.595	0.848632	0.351848	0.37454	-0.5865	0.141	0.219	0	208	543	3
2026-02-19	12:40:44.910	-14.735	-5.32	1.085	0.84912	0.336476	0.373564	-0.597	0.1365	0.2145	0	208	543	3
2026-02-19	12:40:44.930	-9.485	-5.145	1.68	0.854488	0.339404	0.368928	-0.6015	0.1455	0.2175	0	208	543	3
2026-02-19	12:40:44.950	-3.5	-5.075	2.59	0.862784	0.34038	0.360876	-0.6	0.156	0.219	0	208	543	3
2026-02-19	12:40:44.970	0.91	-5.18	2.87	0.863028	0.34648	0.359656	-0.603	0.144	0.219	0	208	543	3
2026-02-19	12:40:44.990	2.835	-5.04	2.835	0.864492	0.361364	0.373076	-0.591	0.1485	0.219	0	208	543	3
2026-02-19	12:40:45.010	1.68	-4.06	1.785	0.869372	0.3599	0.375028	-0.597	0.153	0.213	0	202	516	3
2026-02-19	12:40:45.030	1.715	-1.96	0.735	0.890356	0.369904	0.429196	-0.597	0.1515	0.216	0	202	516	3
2026-02-19	12:40:45.050	6.685	-2.275	0.595	0.885232	0.343796	0.402844	-0.597	0.1515	0.216	0	202	516	3
2026-02-19	12:40:45.070	13.545	-2.135	-0.525	0.897188	0.348676	0.3904	-0.588	0.1455	0.222	0	202	516	3
2026-02-19	12:40:45.090	15.505	-0.98	-0.455	0.902068	0.33184	0.36112	-0.5985	0.15	0.2145	0	202	516	3
2026-02-19	12:40:45.110	16.38	-0.98	-0.21	0.90646	0.340624	0.350872	-0.6	0.1515	0.219	0	202	516	3
2026-02-19	12:40:45.130	12.845	-1.19	0.7	0.913536	0.332816	0.349164	-0.6	0.141	0.2295	0	202	516	3
2026-02-19	12:40:45.150	10.535	-1.26	0.84	0.903776	0.33184	0.345992	-0.6075	0.1395	0.2265	0	202	516	3
2026-02-19	12:40:45.170	7.735	-1.505	0.945	0.900604	0.333304	0.345504	-0.6	0.1455	0.2265	0	202	516	3
2026-02-19	12:40:45.190	8.435	-1.435	0.56	0.89914	0.332572	0.355996	-0.597	0.1395	0.228	0	202	516	3
2026-02-19	12:40:45.210	8.26	-1.68	-0.49	0.89304	0.346968	0.35624	-0.5985	0.141	0.234	0	193	487	3
2026-02-19	12:40:45.230	5.145	-1.715	-0.805	0.887428	0.332572	0.367708	-0.594	0.1425	0.2265	0	193	487	3
2026-02-19	12:40:45.250	3.675	-1.75	-0.77	0.888404	0.349408	0.368196	-0.603	0.1365	0.231	0	193	487	3
2026-02-19	12:40:45.270	1.61	-2.31	-0.455	0.874008	0.33306	0.365024	-0.606	0.135	0.237	0	193	487	3
2026-02-19	12:40:45.290	2.345	-2.205	0.525	0.87352	0.344528	0.386984	-0.603	0.1425	0.2295	0	193	487	3
2026-02-19	12:40:45.310	0.84	-1.785	1.33	0.879376	0.349652	0.400404	-0.6015	0.132	0.2265	0	193	487	3
2026-02-19	12:40:45.330	2.45	-1.435	1.96	0.875472	0.350872	0.39772	-0.6015	0.135	0.231	0	193	487	3
2026-02-19	12:40:45.350	5.005	-0.56	2.205	0.883524	0.345748	0.391132	-0.603	0.138	0.2355	0	193	487	3
2026-02-19	12:40:45.370	8.82	-0.105	2.52	0.881816	0.326228	0.376004	-0.6045	0.135	0.234	0	193	487	3
2026-02-19	12:40:45.390	11.97	0.56	2.835	0.887916	0.34038	0.367708	-0.6045	0.135	0.2355	0	193	487	3
2026-02-19	12:40:45.410	10.43	1.015	3.43	0.878644	0.344772	0.36234	-0.6105	0.141	0.237	0	182	459	3
2026-02-19	12:40:45.430	9.135	2.31	3.815	0.89182	0.34282	0.377468	-0.606	0.138	0.24	0	182	459	3
2026-02-19	12:40:45.450	8.82	3.115	4.06	0.8906	0.347944	0.377224	-0.603	0.1395	0.2385	0	182	459	3
2026-02-19	12:40:45.470	10.395	3.85	5.495	0.873032	0.33794	0.38064	-0.597	0.1335	0.231	0	182	459	3
2026-02-19	12:40:45.490	14.665	5.285	5.705	0.875228	0.360144	0.40504	-0.5985	0.1365	0.2415	0	182	459	3
2026-02-19	12:40:45.510	16.555	6.37	6.265	0.874252	0.371368	0.409432	-0.6045	0.132	0.237	0	182	459	3
2026-02-19	12:40:45.530	13.895	7	7.105	0.871812	0.368196	0.400648	-0.6075	0.1305	0.2445	0	182	459	3
2026-02-19	12:40:45.550	11.9	8.47	7.84	0.856196	0.353312	0.377956	-0.6015	0.1305	0.24	0	182	459	3
2026-02-19	12:40:45.570	10.64	8.26	8.925	0.851316	0.372588	0.387716	-0.603	0.1275	0.243	0	182	459	3
2026-02-19	12:40:45.590	8.19	7.945	8.365	0.85522	0.366244	0.383812	-0.6045	0.1305	0.243	0	182	459	3
2026-02-19	12:40:51.610	18.13	27.51	-47.6	0.7747	0.681736	0.804224	-0.6435	0.1695	0.3315	0	341	333	3
2026-02-19	12:40:51.630	48.195	45.22	-54.705	0.6588	0.848144	0.693204	-0.645	0.165	0.3375	0	341	333	3
2026-02-19	12:40:51.650	39.095	51.1	-43.785	0.658068	0.322324	0.676612	-0.633	0.15	0.327	0	341	333	3
2026-02-19	12:40:51.670	47.775	50.225	-36.89	0.725168	0.222772	0.625616	-0.6225	0.1545	0.333	0	341	333	3
2026-02-19	12:40:51.690	38.185	49.21	-19.845	0.795684	0.094428	0.675148	-0.615	0.144	0.324	0	341	333	3
2026-02-19	12:40:51.710	30.905	45.185	-4.375	0.887916	-0.110532	0.55266	-0.6105	0.135	0.3225	0	341	333	3
2026-02-19	12:40:51.730	38.22	47.95	8.715	0.96624	-0.232288	0.336232	-0.5955	0.1425	0.3255	0	341	333	3
2026-02-19	12:40:51.750	26.11	50.855	17.955	1.032852	-0.113216	0.34404	-0.606	0.1335	0.321	0	341	333	3
2026-02-19	12:40:51.770	9.1	48.02	26.775	1.089704	-0.122	0.270352	-0.5955	0.1335	0.3165	0	341	333	3
2026-02-19	12:40:51.790	10.99	42.875	37.38	1.040172	-0.041236	0.256444	-0.6015	0.141	0.321	0	341	333	3
2026-02-19	12:40:51.810	13.195	39.97	45.535	0.903288	0.163236	0.354776	-0.6105	0.1455	0.324	0	369	354	3
2026-02-19	12:40:51.830	-1.225	35.455	46.9	0.796904	0.205448	0.55998	-0.606	0.144	0.3105	0	369	354	3
2026-02-19	12:40:51.850	-9.94	28.175	46.41	0.793244	0.206912	0.614636	-0.606	0.153	0.3135	0	369	354	3
2026-02-19	12:40:51.870	-7.455	21	49.28	1.027972	-0.018056	0.40504	-0.6165	0.1545	0.2985	0	369	354	3
2026-02-19	12:40:51.890	3.92	10.29	58.1	1.359568	-0.278892	0.183488	-0.6195	0.159	0.3105	0	369	354	3
2026-02-19	12:40:51.910	6.72	8.61	69.44	1.869528	-0.302072	-0.171044	-0.615	0.1695	0.315	0	369	354	3
2026-02-19	12:40:51.930	13.79	21.7	63.28	2.306776	0.263032	0.011712	-0.615	0.1695	0.315	0	369	354	3
2026-02-19	12:40:51.950	34.055	36.015	20.405	1.99836	0.481412	0.091988	-0.615	0.1695	0.315	0	369	354	3
2026-02-19	12:40:51.970	19.775	40.32	-34.72	1.636752	0.515572	0.14762	-0.645	0.186	0.3	0	369	354	3
2026-02-19	12:40:51.990	-9.94	44.135	-70.875	1.3298	0.404308	0.239608	-0.6375	0.177	0.3075	0	369	354	3
2026-02-19	12:40:52.010	-23.415	51.24	-87.885	1.102392	0.274744	0.284992	-0.6195	0.1725	0.303	0	393	368	3
2026-02-19	12:40:52.030	-22.82	60.55	-90.545	0.901336	0.22326	0.289872	-0.6075	0.171	0.291	0	393	368	3
2026-02-19	12:40:52.050	-8.715	65.555	-81.9	0.690764	0.202032	0.334036	-0.594	0.162	0.276	0	393	368	3
2026-02-19	12:40:52.070	3.535	64.96	-69.475	0.532164	0.205936	0.335744	-0.576	0.1515	0.2715	0	393	368	3
2026-02-19	12:40:52.090	11.935	63	-54.845	0.42944	0.234972	0.355264	-0.564	0.1515	0.261	0	393	368	3
2026-02-19	12:40:52.110	19.005	58.94	-37.24	0.349896	0.263032	0.408456	-0.552	0.141	0.2535	0	393	368	3
2026-02-19	12:40:52.130	32.375	50.26	-19.565	0.308172	0.311832	0.431148	-0.5415	0.1365	0.2595	0	393	368	3
2026-02-19	12:40:52.150	42.875	40.04	-4.935	0.313052	0.442616	0.506788	-0.5325	0.1335	0.2535	0	393	368	3
2026-02-19	12:40:52.170	52.5	34.125	4.935	0.328912	0.50508	0.625128	-0.537	0.1275	0.258	0	393	368	3
2026-02-19	12:40:52.190	56.455	30.38	7.665	0.371612	0.567544	0.705892	-0.531	0.129	0.264	0	393	368	3
2026-02-19	12:40:52.210	65.485	29.365	4.62	0.401136	0.513376	0.748836	-0.531	0.129	0.264	0	414	369	3
2026-02-19	12:40:52.230	73.535	31.535	2.31	0.419924	0.460672	0.709552	-0.525	0.123	0.27	0	414	369	3
2026-02-19	12:40:52.250	69.195	28.56	6.44	0.413336	0.359412	0.652456	-0.5205	0.1185	0.279	0	414	369	3
2026-02-19	12:40:52.270	52.36	17.92	14.945	0.386008	0.236924	0.518012	-0.5205	0.1185	0.282	0	414	369	3
2026-02-19	12:40:52.290	43.155	5.425	24.185	0.398452	0.18788	0.467748	-0.525	0.1125	0.288	0	414	369	3
2026-02-19	12:40:52.310	48.335	-10.57	32.13	0.44896	0.230092	0.519232	-0.5295	0.1125	0.297	0	414	369	3
2026-02-19	12:40:52.330	34.055	-24.395	36.68	0.545584	0.27206	0.594628	-0.528	0.1065	0.2985	0	414	369	3
2026-02-19	12:40:52.350	11.55	-33.985	38.745	0.691252	0.32086	0.654896	-0.537	0.111	0.312	0	414	369	3
2026-02-19	12:40:52.370	-7.28	-42.7	36.47	0.796904	0.369904	0.732488	-0.5505	0.1125	0.3165	0	414	369	3
2026-02-19	12:40:52.390	-23.52	-44.24	29.365	0.818376	0.344284	0.729804	-0.558	0.105	0.315	0	414	369	3
2026-02-19	12:40:52.410	-23.45	-44.275	24.325	0.818132	0.252052	0.68686	-0.5625	0.117	0.312	0	431	395	3
2026-02-19	12:40:52.430	-14.56	-42.945	21.49	0.825696	0.226432	0.66246	-0.5745	0.1215	0.3105	0	431	395	3
2026-02-19	12:40:52.450	-23.205	-40.145	22.015	0.85644	0.194712	0.543876	-0.573	0.123	0.3225	0	431	395	3
2026-02-19	12:40:52.470	-18.375	-47.285	30.45	0.900604	0.12566	0.491416	-0.579	0.117	0.324	0	431	395	3
2026-02-19	12:40:52.490	-13.16	-51.765	38.885	0.919392	0.23668	0.519964	-0.579	0.117	0.324	0	431	395	3
2026-02-19	12:40:52.510	-10.78	-53.165	41.65	0.95282	0.30622	0.479704	-0.591	0.1245	0.327	0	431	395	3
2026-02-19	12:40:52.530	-10.395	-54.67	41.3	0.973804	0.316468	0.438468	-0.6075	0.138	0.3345	0	431	395	3
2026-02-19	12:40:52.550	-13.09	-53.69	38.29	0.913536	0.23546	0.342332	-0.6105	0.144	0.336	0	431	395	3
2026-02-19	12:40:52.570	-18.025	-59.08	41.51	1.239032	0.332572	0.530944	-0.609	0.147	0.336	0	431	395	3
2026-02-19	12:40:52.590	-28.175	-17.57	19.74	1.15534	1.593808	1.578192	-0.624	0.1575	0.345	0	431	395	3
2026-02-19	12:40:52.610	16.31	-27.79	10.08	0.703696	-0.122732	0.179584	-0.639	0.1545	0.345	0	440	439	3
2026-02-19	12:40:52.630	-10.71	-23.485	10.64	0.77958	0.188368	0.498492	-0.633	0.156	0.3435	0	440	439	3
2026-02-19	12:40:52.650	-36.575	-12.145	15.05	0.875228	0.158356	0.682712	-0.6315	0.156	0.342	0	440	439	3
2026-02-19	12:40:52.670	-38.325	-8.785	30.59	0.876204	0.125416	0.709552	-0.6405	0.1695	0.3405	0	440	439	3
2026-02-19	12:40:52.690	1.645	-10.395	44.345	0.781044	0.074908	0.71126	-0.639	0.1695	0.333	0	440	439	3
2026-02-19	12:40:52.710	-3.185	-3.36	41.755	0.79788	0.120536	0.5124	-0.6465	0.168	0.342	0	440	439	3
2026-02-19	12:40:52.730	-15.085	8.715	33.355	0.939156	0.201056	0.243756	-0.651	0.168	0.3465	0	440	439	3
2026-02-19	12:40:52.750	-6.265	12.6	26.145	1.038464	0.241072	-0.02074	-0.66	0.177	0.3375	0	440	439	3
2026-02-19	12:40:52.770	0.805	8.995	11.13	1.131916	0.3782	-0.151768	-0.657	0.1845	0.3375	0	440	439	3
2026-02-19	12:40:52.790	-9.415	-2.065	-2.17	1.19072	0.384544	-0.187392	-0.651	0.186	0.339	0	440	439	3
2026-02-19	12:40:52.810	-9.625	-16.8	-16.135	1.20536	0.256932	-0.221308	-0.651	0.186	0.339	0	443	465	3
2026-02-19	12:40:52.830	-8.05	-24.815	-21.21	1.174616	0.20618	-0.188124	-0.6585	0.1815	0.342	0	443	465	3
2026-02-19	12:40:52.850	-8.68	-33.075	-23.695	1.159244	0.181048	-0.160308	-0.6555	0.1815	0.345	0	443	465	3
2026-02-19	12:40:52.870	-15.225	-43.715	-26.145	1.135332	-0.015128	-0.056852	-0.654	0.186	0.345	0	443	465	3
2026-02-19	12:40:52.890	-11.41	-51.73	-17.045	1.138992	-0.099308	0.176656	-0.66	0.1845	0.348	0	443	465	3
2026-02-19	12:40:52.910	-0.875	-62.58	0.35	1.074576	-0.007076	0.21594	-0.651	0.1785	0.357	0	443	465	3
2026-02-19	12:40:52.930	-1.225	-75.46	5.355	0.958676	0.224968	0.148596	-0.6585	0.1845	0.36	0	443	465	3
2026-02-19	12:40:52.950	-12.32	-82.81	-6.195	0.915244	0.27328	0.005612	-0.6585	0.1785	0.3675	0	443	465	3
2026-02-19	12:40:52.970	-18.41	-82.32	-15.61	1.007232	0.3355	0.001708	-0.669	0.174	0.3765	0	443	465	3
2026-02-19	12:40:52.990	-4.515	-83.965	-14.035	0.950624	0.223504	0.150548	-0.6645	0.177	0.393	0	443	465	3
2026-02-19	12:40:53.010	78.645	-63.35	-6.685	0.62952	-0.530456	2.436096	-0.669	0.1725	0.396	0	445	435	3
2026-02-19	12:40:53.030	106.015	22.33	30.765	0.828136	0.627568	1.138016	-0.666	0.1665	0.417	0	445	435	3
2026-02-19	12:40:53.050	-35.245	-6.405	-15.505	0.936472	0.54046	0.11224	-0.6675	0.183	0.423	0	445	435	3
2026-02-19	12:40:53.070	-16.345	-8.82	-16.03	0.887672	0.560956	0.261568	-0.6705	0.18	0.423	0	445	435	3
2026-02-19	12:40:53.090	-8.68	-2.73	-13.93	0.823988	0.649772	0.255712	-0.672	0.1725	0.4215	0	445	435	3
2026-02-19	12:40:53.110	-9.275	4.095	-17.395	0.84668	0.612928	0.311832	-0.6705	0.1695	0.4155	0	445	435	3
2026-02-19	12:40:53.130	-8.155	9.17	-23.485	0.853268	0.495808	0.491416	-0.666	0.168	0.414	0	445	435	3
2026-02-19	12:40:53.150	-22.085	10.815	-28.28	0.883036	0.364048	0.438224	-0.6615	0.1635	0.4155	0	445	435	3
2026-02-19	12:40:53.170	-36.505	8.12	-28.665	0.951356	0.234484	0.238144	-0.6615	0.1635	0.414	0	445	435	3
2026-02-19	12:40:53.190	-36.855	1.785	-21.385	1.013088	0.17202	0.188612	-0.6645	0.1605	0.4005	0	445	435	3
2026-02-19	12:40:53.210	-33.6	-1.365	-9.66	0.996008	0.082228	0.126148	-0.663	0.159	0.396	0	447	406	3
2026-02-19	12:40:53.230	-19.46	-0.35	-0.875	0.979416	0.260836	0.177876	-0.6525	0.159	0.396	0	447	406	3
2026-02-19	12:40:53.250	-25.9	-2.765	0	0.945744	0.167872	0.21228	-0.654	0.1485	0.3945	0	447	406	3
2026-02-19	12:40:53.270	-36.12	-3.5	-2.31	0.94184	0.190564	0.292556	-0.657	0.153	0.3855	0	447	406	3
2026-02-19	12:40:53.290	-35.49	-2.24	-0.245	0.925004	0.310856	0.429928	-0.6585	0.1605	0.3855	0	447	406	3
2026-02-19	12:40:53.310	-26.46	2.905	2.94	0.829356	0.378444	0.427732	-0.6585	0.1665	0.3945	0	447	406	3
2026-02-19	12:40:53.330	-21.595	18.725	6.545	0.804468	0.579988	0.446764	-0.6555	0.156	0.3855	0	447	406	3
2026-02-19	12:40:53.350	-22.61	13.65	5.215	0.690276	0.625128	0.56608	-0.654	0.1605	0.3825	0	447	406	3
2026-02-19	12:40:53.370	-36.645	12.39	-0.595	0.587552	0.595604	0.783728	-0.6525	0.1665	0.3765	0	447	406	3
2026-02-19	12:40:53.390	-43.12	23.52	2.73	0.559004	0.262788	0.661972	-0.648	0.168	0.369	0	447	406	3
2026-02-19	12:40:53.410	-5.39	39.41	0.035	0.588284	1.46644	1.1956	-0.648	0.174	0.3615	0	448	398	3
2026-02-19	12:40:53.430	15.225	45.325	5.915	0.45262	0.5917	1.418128	-0.6465	0.1785	0.357	0	448	398	3
2026-02-19	12:40:53.450	20.825	60.76	-10.465	0.23912	0.470188	1.297104	-0.645	0.1755	0.3525	0	448	398	3
2026-02-19	12:40:53.470	59.675	58.31	0.28	0.394792	0.476044	0.984784	-0.6435	0.165	0.3495	0	448	398	3
2026-02-19	12:40:53.490	54.74	47.39	28.035	0.717848	0.15616	0.391376	-0.6405	0.159	0.3525	0	448	398	3
2026-02-19	12:40:53.510	49.84	30.275	49.84	1.382992	-0.219112	-0.17202	-0.6525	0.1665	0.3495	0	448	398	3
2026-02-19	12:40:53.530	2.415	32.13	64.295	2.191364	0.125172	-0.084424	-0.648	0.174	0.3555	0	448	398	3
2026-02-19	12:40:53.550	-22.82	59.99	33.425	2.400472	0.384544	0.082228	-0.651	0.1785	0.3495	0	448	398	3
2026-02-19	12:40:53.570	-24.955	82.915	-13.93	2.104744	0.371368	-0.04758	-0.6555	0.1845	0.3285	0	448	398	3
2026-02-19	12:40:53.590	-31.01	88.34	-58.415	1.793156	0.2684	-0.182512	-0.6435	0.192	0.33	0	448	398	3
2026-02-19	12:40:53.610	-47.53	79.17	-81.865	1.490108	0.0671	-0.158356	-0.633	0.1845	0.318	0	453	416	3
2026-02-19	12:40:53.630	-40.88	66.71	-85.295	1.27124	0.019276	0.00854	-0.633	0.1845	0.318	0	453	416	3
2026-02-19	12:40:53.650	-30.135	60.725	-77.595	1.048224	-0.033916	0.084912	-0.6105	0.177	0.297	0	453	416	3
2026-02-19	12:40:53.670	-25.06	55.86	-63.315	0.821792	0.007808	0.186172	-0.5835	0.168	0.273	0	453	416	3
2026-02-19	12:40:53.690	-20.44	46.655	-43.75	0.618296	-0.016836	0.234972	-0.5715	0.1665	0.2655	0	453	416	3
2026-02-19	12:40:53.710	-13.09	39.095	-23.87	0.530456	0.03172	0.26596	-0.564	0.162	0.261	0	453	416	3
2026-02-19	12:40:53.730	-0.77	37.065	-8.715	0.437248	0.043676	0.294752	-0.561	0.1605	0.2565	0	453	416	3
2026-02-19	12:40:53.750	13.895	33.355	-1.085	0.474092	0.161284	0.453352	-0.555	0.162	0.2535	0	453	416	3
2026-02-19	12:40:53.770	21.91	34.3	1.995	0.484096	0.26352	0.459696	-0.5505	0.1635	0.252	0	453	416	3
2026-02-19	12:40:53.790	18.515	28.84	0.455	0.59902	0.362828	0.537532	-0.5505	0.165	0.252	0	453	416	3
2026-02-19	12:40:53.810	18.725	26.845	-1.12	0.678076	0.313296	0.563884	-0.546	0.1635	0.24	0	468	406	3
2026-02-19	12:40:53.830	21.035	24.01	-0.245	0.681004	0.29768	0.589992	-0.5445	0.165	0.255	0	468	406	3
2026-02-19	12:40:53.850	17.85	14.875	1.505	0.653676	0.29036	0.61976	-0.5355	0.162	0.2565	0	468	406	3
2026-02-19	12:40:53.870	13.93	6.72	4.06	0.618052	0.256444	0.662216	-0.534	0.15	0.2505	0	468	406	3
2026-02-19	12:40:53.890	11.515	-1.365	7.105	0.60634	0.246196	0.689544	-0.5325	0.156	0.255	0	468	406	3
2026-02-19	12:40:53.910	8.19	-4.69	7.21	0.59048	0.255712	0.687104	-0.5325	0.156	0.255	0	468	406	3
2026-02-19	12:40:53.930	-4.305	-8.4	7.735	0.582184	0.236924	0.636596	-0.537	0.1545	0.255	0	468	406	3
2026-02-19	12:40:53.950	-13.895	-15.295	9.94	0.585112	0.138104	0.579012	-0.54	0.159	0.2595	0	468	406	3
2026-02-19	12:40:53.970	-15.785	-19.74	14.42	0.62952	0.104188	0.54168	-0.537	0.1605	0.261	0	468	406	3
2026-02-19	12:40:53.990	-11.55	-24.29	21.875	0.686616	0.1342	0.5551	-0.543	0.1605	0.258	0	468	406	3
2026-02-19	12:40:54.010	-16.52	-28.805	27.3	0.765428	0.176168	0.5673	-0.549	0.1605	0.2565	0	482	410	1
2026-02-19	12:40:54.030	-27.3	-31.01	30.275	0.862784	0.1769	0.520452	-0.552	0.1635	0.2565	0	482	410	1
2026-02-19	12:40:54.050	-22.4	-34.825	31.57	0.939156	0.16592	0.518012	-0.558	0.171	0.2655	0	482	410	1
2026-02-19	12:40:54.070	-11.62	-35.07	30.66	0.960872	0.221796	0.524356	-0.5625	0.1755	0.27	0	482	410	1
2026-02-19	12:40:54.090	1.05	-33.95	27.51	0.922076	0.179096	0.515572	-0.5655	0.177	0.267	0	482	410	1
2026-02-19	12:40:54.110	6.335	-33.74	23.38	0.899384	0.19032	0.531676	-0.579	0.1755	0.267	0	482	410	1
2026-02-19	12:40:54.130	-6.09	-34.825	19.635	0.857904	0.140544	0.488	-0.582	0.189	0.2715	0	482	410	1
2026-02-19	12:40:54.150	-8.365	-40.18	17.465	0.836432	0.091988	0.484096	-0.5895	0.1845	0.2715	0	482	410	1
2026-02-19	12:40:54.170	-11.725	-43.26	17.78	0.821792	0.085888	0.50264	-0.5865	0.1905	0.2835	0	482	410	1
2026-02-19	12:40:54.190	-15.61	-45.605	18.865	0.821548	0.09857599	0.51118	-0.5865	0.1905	0.2835	0	482	410	1
2026-02-19	12:40:54.210	-16.1	-47.95	19.18	0.809104	0.083204	0.491416	-0.5955	0.1905	0.285	0	486	435	3
2026-02-19	12:40:54.230	-11.27	-48.825	20.09	0.803736	0.080032	0.501176	-0.609	0.195	0.291	0	486	435	3
2026-02-19	12:40:54.250	-2.835	-39.025	21	1.681648	0.210084	0.713212	-0.618	0.204	0.294	0	486	435	3
2026-02-19	12:40:54.270	-4.095	15.05	-17.115	1.200236	1.125572	1.55794	-0.618	0.2025	0.2955	0	486	435	3
2026-02-19	12:40:54.290	12.88	-0.56	-29.715	0.87352	0.142984	0.487512	-0.612	0.198	0.2925	0	486	435	3
2026-02-19	12:40:54.310	17.57	-12.88	-37.38	0.757376	0.06734399	0.29524	-0.612	0.198	0.288	0	486	435	3
2026-02-19	12:40:54.330	-13.965	-16.66	-19.845	0.938424	0.115656	0.267424	-0.612	0.192	0.297	0	486	435	3
2026-02-19	12:40:54.350	-35.21	-26.005	-2.065	0.951356	0.15982	0.404552	-0.6105	0.189	0.303	0	486	435	3
2026-02-19	12:40:54.370	-35.35	-41.545	6.37	0.90524	0.301584	0.5185	-0.612	0.192	0.2985	0	486	435	3
2026-02-19	12:40:54.390	-27.265	-45.92	4.48	0.804712	0.225944	0.505568	-0.618	0.1995	0.3	0	486	435	3
2026-02-19	12:40:54.410	-24.64	-39.585	-1.995	0.855708	0.242536	0.59536	-0.6195	0.2055	0.303	0	480	469	3
2026-02-19	12:40:54.430	-19.985	-33.18	-9.625	0.8357	0.12566	0.539972	-0.6195	0.195	0.3	0	480	469	3
2026-02-19	12:40:54.450	-13.335	-22.085	-9.625	0.934032	0.144204	0.50142	-0.618	0.204	0.306	0	480	469	3
2026-02-19	12:40:54.470	11.27	-19.6	-0.455	0.927444	0.131516	0.441884	-0.618	0.204	0.306	0	480	469	3
2026-02-19	12:40:54.490	13.23	-23.59	2.205	0.920856	0.182756	0.452132	-0.6225	0.2025	0.309	0	480	469	3
2026-02-19	12:40:54.510	9.31	-26.495	1.015	0.88938	0.221308	0.438712	-0.627	0.198	0.312	0	480	469	3
2026-02-19	12:40:54.530	2.73	-27.02	-3.36	0.848144	0.238388	0.407724	-0.6255	0.198	0.315	0	480	469	3
2026-02-19	12:40:54.550	-7.49	-22.295	-9.135	0.86254	0.302316	0.454816	-0.6285	0.1965	0.3195	0	480	469	3
2026-02-19	12:40:54.570	-13.3	-18.165	-14.77	0.856684	0.387228	0.514596	-0.633	0.1965	0.321	0	480	469	3
2026-02-19	12:40:54.590	-9.03	-15.54	-19.845	0.79422	0.366	0.443348	-0.633	0.195	0.321	0	480	469	3
2026-02-19	12:40:54.610	-10.675	-6.44	-21.175	0.821548	0.439688	0.45018	-0.6345	0.1935	0.3225	0	463	489	3
2026-02-19	12:40:54.630	-6.72	-1.68	-22.47	0.813008	0.444324	0.446032	-0.6285	0.192	0.321	0	463	489	3
2026-02-19	12:40:54.650	1.54	-0.42	-26.635	0.797148	0.41236	0.385032	-0.621	0.1905	0.321	0	463	489	3
2026-02-19	12:40:54.670	2.45	5.53	-26.32	0.801052	0.438712	0.377712	-0.621	0.189	0.318	0	463	489	3
2026-02-19	12:40:54.690	1.54	8.82	-26.145	0.817644	0.429928	0.350628	-0.6225	0.1815	0.3165	0	463	489	3
2026-02-19	12:40:54.710	1.19	6.65	-27.86	0.853024	0.325984	0.274256	-0.6225	0.1755	0.3195	0	463	489	3
2026-02-19	12:40:54.730	1.715	8.155	-28.35	0.917196	0.234972	0.176168	-0.621	0.1815	0.3225	0	463	489	3
2026-02-19	12:40:54.750	-2.275	3.955	-21.665	0.993568	0.216428	0.172264	-0.615	0.186	0.3195	0	463	489	3
2026-02-19	12:40:54.770	-1.26	-3.08	-19.46	1.006988	0.169824	0.175436	-0.6105	0.1815	0.3165	0	463	489	3
2026-02-19	12:40:54.790	-2.66	-3.185	-17.22	1.0126	0.175924	0.188368	-0.609	0.1755	0.315	0	463	489	3
2026-02-19	12:40:54.810	-3.78	-4.585	-14.98	0.977708	0.21228	0.219112	-0.603	0.174	0.3195	0	439	481	1
2026-02-19	12:40:54.830	-1.575	-6.335	-15.645	0.974536	0.190808	0.23302	-0.5955	0.1725	0.3195	0	439	481	1
2026-02-19	12:40:54.850	2.485	-4.585	-14.525	0.943548	0.257664	0.258884	-0.6	0.1695	0.3225	0	439	481	1
2026-02-19	12:40:54.870	2.31	-4.725	-12.39	0.890844	0.350384	0.339404	-0.597	0.1695	0.324	0	439	481	1
2026-02-19	12:40:54.890	-3.08	-6.615	-12.215	0.85522	0.340136	0.409432	-0.594	0.168	0.315	0	439	481	1
2026-02-19	12:40:54.910	-0.98	-6.545	-10.955	0.838628	0.342332	0.366976	-0.597	0.168	0.3135	0	439	481	1
2026-02-19	12:40:54.930	2.8	-3.29	-8.75	0.804956	0.400648	0.417728	-0.5955	0.165	0.318	0	439	481	1
2026-02-19	12:40:54.950	-3.115	-4.375	-8.855	0.780312	0.464576	0.488976	-0.5955	0.1665	0.3195	0	439	481	1
2026-02-19	12:40:54.970	-9.555	-7.315	-8.68	0.741516	0.4209	0.505568	-0.597	0.168	0.318	0	439	481	1
2026-02-19	12:40:54.990	-10.99	-6.79	-5.46	0.696132	0.470676	0.605608	-0.5925	0.165	0.3165	0	439	481	1
2026-02-19	12:40:55.010	-13.125	-5.775	-1.225	0.645624	0.477508	0.697596	-0.588	0.165	0.318	0	412	455	1
2026-02-19	12:40:55.030	-16.905	-3.955	4.375	0.704184	0.384544	0.758352	-0.597	0.1725	0.3255	0	412	455	1
2026-02-19	12:40:55.050	-29.085	-5.74	7.63	0.852048	0.194468	0.726632	-0.5955	0.1695	0.3195	0	412	455	1
2026-02-19	12:40:55.070	-38.325	-8.12	8.68	1.1468	-0.197884	0.512888	-0.597	0.1695	0.309	0	412	455	1
2026-02-19	12:40:55.090	-26.74	-6.65	11.76	1.293688	-0.351848	0.260592	-0.6	0.1785	0.3045	0	412	455	1
2026-02-19	12:40:55.110	-11.97	0.35	16.73	1.468636	-0.30256	0.188124	-0.6	0.183	0.3075	0	412	455	1
2026-02-19	12:40:55.130	0.42	9.94	16.555	1.622844	-0.07076	0.18666	-0.597	0.1815	0.3075	0	412	455	1
2026-02-19	12:40:55.150	17.36	31.71	-1.085	1.76412	0.489464	0.37454	-0.5985	0.1815	0.3045	0	412	455	1
2026-02-19	12:40:55.170	21.98	54.53	-28.42	1.605764	0.52826	0.264252	-0.6	0.183	0.303	0	412	455	1
2026-02-19	12:40:55.190	24.815	68.18	-52.43	1.43106	0.60878	0.31232	-0.5925	0.1785	0.306	0	412	455	1
2026-02-19	12:40:55.210	22.295	78.19	-67.445	1.184132	0.616344	0.278648	-0.5835	0.171	0.2985	0	389	437	3
2026-02-19	12:40:55.230	21.665	84.595	-71.575	0.93086	0.5551	0.198616	-0.57	0.1665	0.2895	0	389	437	3
2026-02-19	12:40:55.250	23.695	84.385	-67.025	0.695156	0.563396	0.148108	-0.5565	0.156	0.2865	0	389	437	3
2026-02-19	12:40:55.270	18.935	75.145	-55.93	0.498004	0.5917	0.11346	-0.5475	0.1455	0.282	0	389	437	3
2026-02-19	12:40:55.290	14.42	65.45	-42.385	0.333304	0.523624	0.152744	-0.5355	0.141	0.279	0	389	437	3
2026-02-19	12:40:55.310	12.11	61.18	-23.94	0.161284	0.366244	0.167384	-0.5205	0.1395	0.273	0	389	437	3
2026-02-19	12:40:55.330	7.035	55.02	-5.88	0.116876	0.400892	0.146644	-0.5115	0.1395	0.267	0	389	437	3
2026-02-19	12:40:55.350	-3.885	46.655	11.27	0.167384	0.286944	0.20252	-0.5085	0.135	0.264	0	389	437	3
2026-02-19	12:40:55.370	5.25	33.88	31.29	0.371856	0.257908	0.309636	-0.5025	0.135	0.261	0	389	437	3
2026-02-19	12:40:55.390	18.55	17.745	50.54	0.617564	0.50508	0.377224	-0.4995	0.141	0.261	0	389	437	3
2026-02-19	12:40:55.410	38.5	-0.56	61.005	0.755668	0.542412	0.499468	-0.4995	0.1455	0.2595	0	379	413	3
2026-02-19	12:40:55.430	38.92	-11.515	53.655	0.809836	0.773236	0.686616	-0.507	0.141	0.261	0	379	413	3
2026-02-19	12:40:55.450	31.815	-13.93	35.805	0.75518	0.721996	0.81374	-0.5175	0.1395	0.27	0	379	413	3
2026-02-19	12:40:55.470	13.86	-12.95	16.38	0.694912	0.629276	0.809348	-0.5205	0.1455	0.276	0	379	413	3
2026-02-19	12:40:55.490	-6.58	-13.58	3.15	0.620736	0.430416	0.72712	-0.525	0.1485	0.276	0	379	413	3
2026-02-19	12:40:55.510	-18.025	-14.945	-2.38	0.608292	0.247904	0.696864	-0.528	0.1455	0.273	0	379	413	3
2026-02-19	12:40:55.530	-16.415	-16.765	4.025	0.632448	0.02928	0.610488	-0.528	0.144	0.2715	0	379	413	3
2026-02-19	12:40:55.550	-10.08	-13.405	20.3	0.697596	0.06832	0.585112	-0.531	0.147	0.2745	0	379	413	3
2026-02-19	12:40:55.570	-0.105	-13.895	38.22	0.743956	0.048068	0.523136	-0.537	0.15	0.2775	0	379	413	3
2026-02-19	12:40:55.590	11.865	-15.645	49.35	0.840092	0.162504	0.484828	-0.5415	0.1545	0.2775	0	379	413	3
2026-02-19	12:40:55.610	15.82	-17.64	51.695	0.876692	0.255468	0.437736	-0.543	0.159	0.276	0	379	412	3
2026-02-19	12:40:55.630	2.8	-21.175	48.86	0.921832	0.27694	0.48312	-0.5445	0.1575	0.285	0	379	412	3
2026-02-19	12:40:55.650	-16.345	-26.81	44.31	1.031632	0.244732	0.468236	-0.5535	0.1605	0.2895	0	379	412	3
2026-02-19	12:40:55.670	-27.475	-30.52	39.375	1.05896	0.22448	0.46848	-0.5625	0.171	0.288	0	379	412	3
2026-02-19	12:40:55.690	-18.515	-29.295	37.38	1.054324	0.194468	0.450912	-0.57	0.171	0.2895	0	379	412	3
2026-02-19	12:40:55.710	0.56	-26.04	38.71	1.009672	0.163724	0.451644	-0.579	0.174	0.2895	0	379	412	3
2026-02-19	12:40:55.730	14.21	-25.235	42.07	0.939888	0.163724	0.421876	-0.5865	0.18	0.288	0	379	412	3
2026-02-19	12:40:55.750	19.285	-30.17	45.115	0.929884	0.171288	0.395524	-0.591	0.183	0.2865	0	379	412	3
2026-02-19	12:40:55.770	21.455	-13.51	46.235	1.487668	0.398208	0.551928	-0.597	0.1935	0.2955	0	379	412	3
2026-02-19	12:40:55.790	8.19	-0.42	10.535	1.096536	0.424804	0.64538	-0.6045	0.195	0.3045	0	379	412	3
2026-02-19	12:40:55.810	-6.86	-15.96	9.555	0.80886	0.56242	0.449936	-0.609	0.1875	0.3045	0	383	430	3
2026-02-19	12:40:55.830	-35.875	-16.38	-3.885	0.730536	0.069296	0.288896	-0.606	0.189	0.303	0	383	430	3
2026-02-19	12:40:55.850	-54.04	-16.87	0.875	0.833992	0.095404	0.399428	-0.6045	0.1935	0.3015	0	383	430	3
2026-02-19	12:40:55.870	-48.895	-21.035	17.15	0.985516	0.0915	0.5246	-0.609	0.201	0.294	0	383	430	3
2026-02-19	12:40:55.890	4.41	-23.59	36.295	0.944524	0.13664	0.572668	-0.612	0.2055	0.2925	0	383	430	3
2026-02-19	12:40:55.910	21.525	-16.345	40.81	0.854976	0.021228	0.36966	-0.6165	0.216	0.3045	0	383	430	3
2026-02-19	12:40:55.930	3.29	-15.645	37.485	0.932812	-0.08784	0.443104	-0.618	0.2115	0.303	0	383	430	3
2026-02-19	12:40:55.950	-8.82	-16.1	35.98	0.983808	-0.046604	0.456524	-0.6255	0.213	0.3045	0	383	430	3
2026-02-19	12:40:55.970	-13.16	-19.11	29.4	0.952332	0.006588	0.412604	-0.636	0.2205	0.3075	0	383	430	3
2026-02-19	12:40:55.990	-13.72	-18.48	23.485	0.910852	0.052704	0.29036	-0.639	0.222	0.3135	0	383	430	3
2026-02-19	12:40:56.010	-20.055	-15.4	16.8	0.930372	0.002684	0.188124	-0.6375	0.228	0.3165	0	388	443	3
2026-02-19	12:40:56.030	-22.855	-12.04	15.015	0.990152	0.062952	0.183	-0.6405	0.2295	0.3135	0	388	443	3
2026-02-19	12:40:56.050	-14.175	-10.29	17.185	1.021628	0.178608	0.24034	-0.6405	0.234	0.312	0	388	443	3
2026-02-19	12:40:56.070	-1.47	-15.19	18.725	1.018212	0.30134	0.216184	-0.6405	0.2355	0.3105	0	388	443	3
2026-02-19	12:40:56.090	3.43	-25.83	13.195	0.97844	0.353068	0.094916	-0.6465	0.2355	0.3135	0	388	443	3
2026-02-19	12:40:56.110	0.77	-35.49	6.475	1.002596	0.357948	0.098088	-0.6585	0.2415	0.3165	0	388	443	3
2026-02-19	12:40:56.130	7.91	-42.525	3.675	0.97722	0.399184	0.12566	-0.6585	0.2385	0.3195	0	388	443	3
2026-02-19	12:40:56.150	17.745	-47.67	-1.4	0.9272	0.460428	0.181292	-0.654	0.2325	0.3225	0	388	443	3
2026-02-19	12:40:56.170	-4.025	-56.7	-25.55	0.908168	0.390156	0.35014	-0.657	0.231	0.3255	0	388	443	3
2026-02-19	12:40:56.190	1.225	-61.81	-34.685	0.892308	0.0305	1.224148	-0.6555	0.2385	0.3345	0	388	443	3
2026-02-19	12:40:56.210	2.905	-37.66	-22.015	0.852292	-0.288896	1.28954	-0.669	0.2265	0.345	0	391	436	3
2026-02-19	12:40:56.230	3.71	-9.03	-5.215	0.937448	-0.20496	0.734684	-0.6675	0.2265	0.3525	0	391	436	3
2026-02-19	12:40:56.250	25.515	6.965	10.92	0.959408	0.158112	0.369904	-0.666	0.225	0.357	0	391	436	3
2026-02-19	12:40:56.270	30.45	6.86	11.795	0.929396	0.63684	0.297924	-0.663	0.2295	0.354	0	391	436	3
2026-02-19	12:40:56.290	15.715	3.115	-2.835	0.813496	0.822524	0.247172	-0.663	0.2325	0.3555	0	391	436	3
2026-02-19	12:40:56.310	-7.7	3.36	-21.7	0.785192	0.85644	0.357948	-0.6645	0.231	0.357	0	391	436	3
2026-02-19	12:40:56.330	-39.375	2.765	-39.375	0.759816	0.967948	0.690032	-0.6645	0.228	0.354	0	391	436	3
2026-02-19	12:40:56.350	-66.885	11.235	-37.73	0.722728	0.689544	0.759816	-0.663	0.225	0.351	0	391	436	3
2026-02-19	12:40:56.370	-36.54	25.34	-37.625	0.752984	0.526552	0.778848	-0.651	0.2235	0.345	0	391	436	3
2026-02-19	12:40:56.390	-20.09	35.28	-53.725	0.768112	0.015128	0.80764	-0.6465	0.2205	0.3375	0	391	436	3
2026-02-19	12:40:56.410	12.04	42.35	-52.745	0.600972	0.559004	0.869616	-0.6435	0.2175	0.3315	0	395	443	3
2026-02-19	12:40:56.430	24.675	47.985	-54.95	0.508008	0.67832	0.850828	-0.639	0.21	0.3285	0	395	443	3
2026-02-19	12:40:56.450	31.99	40.145	-66.745	0.538752	0.611708	0.812032	-0.6435	0.2025	0.327	0	395	443	3
2026-02-19	12:40:56.470	26.11	28.175	-50.19	0.670756	0.221308	0.58316	-0.6435	0.2025	0.327	0	395	443	3
2026-02-19	12:40:56.490	23.73	30.695	-37.94	0.917928	-0.192028	0.222772	-0.612	0.183	0.3135	0	395	443	3
2026-02-19	12:40:56.510	34.545	26.985	-26.32	1.183644	-0.331596	-0.077104	-0.6135	0.1755	0.312	0	395	443	3
2026-02-19	12:40:56.530	28.245	12.46	-13.09	1.28832	-0.2989	-0.06466	-0.6	0.1695	0.315	0	395	443	3
2026-02-19	12:40:56.550	-5.18	2.66	-3.745	1.32614	-0.243512	0.02928	-0.5955	0.1695	0.3165	0	395	443	3
2026-02-19	12:40:56.570	-25.97	0.21	2.835	1.362496	-0.331108	0.045384	-0.5955	0.1695	0.3195	0	395	443	3
2026-02-19	12:40:56.590	-38.5	-1.365	9.31	1.372256	-0.281088	0.009516	-0.603	0.1695	0.315	0	395	443	3
2026-02-19	12:40:56.610	-33.215	-2.975	12.285	1.431548	-0.15494	0.038796	-0.6015	0.1665	0.3075	0	405	453	3
2026-02-19	12:40:56.630	-14.7	0.315	8.155	1.522316	-0.075396	-0.0854	-0.5955	0.165	0.309	0	405	453	3
2026-02-19	12:40:56.650	1.505	13.23	-11.725	1.681892	0.338672	0.174216	-0.5955	0.174	0.3105	0	405	453	3
2026-02-19	12:40:56.670	6.755	33.88	-42.595	1.595516	0.432368	0.177144	-0.5985	0.1755	0.3015	0	405	453	3
2026-02-19	12:40:56.690	1.4	45.99	-69.02	1.462292	0.50386	0.177388	-0.5925	0.171	0.3	0	405	453	3
2026-02-19	12:40:56.710	-6.825	48.545	-84.98	1.302472	0.526796	0.20496	-0.5835	0.168	0.297	0	405	453	3
2026-02-19	12:40:56.730	-5.145	50.19	-88.515	0.970144	0.455792	0.304512	-0.5805	0.165	0.294	0	405	453	3
2026-02-19	12:40:56.750	0.105	51.38	-81.445	0.75884	0.453352	0.308904	-0.5805	0.165	0.294	0	405	453	3
2026-02-19	12:40:56.770	4.9	48.755	-68.25	0.563152	0.449204	0.280844	-0.54	0.1395	0.282	0	405	453	3
2026-02-19	12:40:56.790	8.785	41.16	-52.78	0.397476	0.483364	0.271084	-0.519	0.138	0.2775	0	405	453	3
2026-02-19	12:40:56.810	6.615	31.5	-38.185	0.291336	0.532896	0.29158	-0.5205	0.1275	0.264	0	420	423	3
2026-02-19	12:40:56.830	-0.77	22.085	-28.035	0.246928	0.57096	0.331596	-0.504	0.135	0.2715	0	420	423	3
2026-02-19	12:40:56.850	-10.29	12.635	-20.755	0.28304	0.457744	0.318664	-0.501	0.129	0.267	0	420	423	3
2026-02-19	12:40:56.870	-10.745	4.305	-11.83	0.31354	0.526064	0.340624	-0.498	0.123	0.2625	0	420	423	3
2026-02-19	12:40:56.890	-8.47	-0.035	-3.535	0.355752	0.514596	0.429928	-0.498	0.1245	0.2625	0	420	423	3
2026-02-19	12:40:56.910	-2.415	-5.985	4.235	0.451888	0.571448	0.554368	-0.4995	0.126	0.2655	0	420	423	3
2026-02-19	12:40:56.930	0.56	-8.715	8.47	0.5673	0.60024	0.62952	-0.501	0.126	0.2625	0	420	423	3
2026-02-19	12:40:56.950	7.385	-3.045	8.61	0.657336	0.597068	0.635376	-0.5025	0.1245	0.2595	0	420	423	3
2026-02-19	12:40:56.970	15.68	2.94	5.845	0.724192	0.582428	0.696376	-0.4995	0.126	0.264	0	420	423	3
2026-02-19	12:40:56.990	16.275	4.83	2.695	0.733708	0.585112	0.580232	-0.498	0.123	0.2685	0	420	423	3
2026-02-19	12:40:57.010	18.935	4.55	3.15	0.689788	0.432124	0.492636	-0.4995	0.117	0.27	0	438	395	2
2026-02-19	12:40:57.030	14.14	0.455	7.245	0.669536	0.404308	0.400648	-0.4995	0.117	0.27	0	438	395	2
2026-02-19	12:40:57.050	4.655	-7.14	14	0.697596	0.364048	0.347944	-0.507	0.1215	0.273	0	438	395	2
2026-02-19	12:40:57.070	1.26	-18.48	22.61	0.71858	0.332328	0.303292	-0.504	0.126	0.267	0	438	395	2
2026-02-19	12:40:57.090	-0.735	-26.6	29.995	0.750544	0.390888	0.338916	-0.5145	0.126	0.2775	0	438	395	2
2026-02-19	12:40:57.110	-5.845	-30.24	34.265	0.756888	0.394304	0.380152	-0.516	0.1275	0.2805	0	438	395	2
2026-02-19	12:40:57.130	-10.01	-31.29	36.225	0.754204	0.436516	0.38064	-0.5205	0.126	0.2745	0	438	395	2
2026-02-19	12:40:57.150	-13.405	-31.325	37.73	0.770308	0.432856	0.376004	-0.522	0.1335	0.2805	0	438	395	2
2026-02-19	12:40:57.170	-11.025	-30.625	40.005	0.786412	0.417972	0.378688	-0.5325	0.1365	0.288	0	438	395	2
2026-02-19	12:40:57.190	-2.625	-32.9	43.925	0.80398	0.367952	0.365756	-0.543	0.135	0.288	0	438	395	2
2026-02-19	12:40:57.210	5.6	-27.65	50.4	1.82756	0.204472	0.501908	-0.5505	0.1425	0.2865	0	450	393	3
2026-02-19	12:40:57.230	-1.995	45.36	-8.015	1.30784	1.921012	1.740208	-0.5565	0.1485	0.2835	0	450	393	3
2026-02-19	12:40:57.250	23.485	11.235	-10.92	0.611708	0.175192	0.089304	-0.555	0.1485	0.285	0	450	393	3
2026-02-19	12:40:57.270	21.455	1.715	-5.355	0.73688	0.068564	0.103212	-0.5535	0.147	0.288	0	450	393	3
2026-02-19	12:40:57.290	-16.345	-0.07	22.19	1.016748	0.216184	0.252296	-0.5535	0.147	0.2895	0	450	393	3
2026-02-19	12:40:57.310	-19.005	-19.67	51.45	1.006988	0.203496	0.511912	-0.555	0.147	0.2895	0	450	393	3
2026-02-19	12:40:57.330	-1.575	-35	62.965	0.87962	0.200568	0.5612	-0.555	0.15	0.285	0	450	393	3
2026-02-19	12:40:57.350	-22.61	-39.48	56.28	0.83692	0.150304	0.54046	-0.57	0.1575	0.2865	0	450	393	3
2026-02-19	12:40:57.370	-48.23	-31.675	40.985	0.858636	0.058316	0.4941	-0.579	0.165	0.2865	0	450	393	3
2026-02-19	12:40:57.390	-57.855	-20.895	34.405	0.918904	-0.024156	0.467016	-0.585	0.1635	0.2955	0	450	393	3
2026-02-19	12:40:57.410	-38.01	-12.845	37.695	0.955992	0.0305	0.50996	-0.5925	0.177	0.282	0	456	408	3
2026-02-19	12:40:57.430	-7.63	-9.275	43.925	0.913048	0.094428	0.474824	-0.594	0.174	0.285	0	456	408	3
2026-02-19	12:40:57.450	5.845	-3.43	47.04	0.890112	0.114924	0.39406	-0.6015	0.183	0.2865	0	456	408	3
2026-02-19	12:40:57.470	-4.795	0.805	48.335	0.913536	0.219356	0.345748	-0.606	0.1875	0.285	0	456	408	3
2026-02-19	12:40:57.490	-9.59	0.455	44.135	0.907436	0.337452	0.341356	-0.612	0.1935	0.2835	0	456	408	3
2026-02-19	12:40:57.510	-15.89	-5.145	35.035	0.894504	0.454572	0.358924	-0.6135	0.1995	0.2835	0	456	408	3
2026-02-19	12:40:57.530	-15.61	-6.895	26.6	0.87108	0.460428	0.33794	-0.6165	0.204	0.2835	0	456	408	3
2026-02-19	12:40:57.550	-7.63	-5.985	18.235	0.893284	0.464576	0.304512	-0.618	0.207	0.2835	0	456	408	3
2026-02-19	12:40:57.570	7.595	-4.655	10.955	0.908412	0.36478	0.230824	-0.618	0.2085	0.288	0	456	408	3
2026-02-19	12:40:57.590	9.765	-5.25	5.04	0.943304	0.296704	0.288896	-0.6225	0.207	0.2895	0	456	408	3
2026-02-19	12:40:57.610	3.045	-10.185	1.435	0.921832	0.245952	0.343796	-0.6225	0.2085	0.2835	0	454	421	3
2026-02-19	12:40:57.630	0.42	-13.335	-2.87	0.914024	0.106872	0.395768	-0.63	0.207	0.2865	0	454	421	3
2026-02-19	12:40:57.650	5.355	-14.315	-3.115	0.9028	-0.030744	0.5307	-0.624	0.2145	0.291	0	454	421	3
2026-02-19	12:40:57.670	10.325	-13.965	0	0.88206	-0.065636	0.696376	-0.621	0.21	0.294	0	454	421	3
2026-02-19	12:40:57.690	16.1	-7.455	4.515	0.85644	-0.03782	0.721996	-0.636	0.2055	0.2925	0	454	421	3
2026-02-19	12:40:57.710	20.16	2.31	10.64	0.87596	0.207156	0.645624	-0.6315	0.207	0.294	0	454	421	3
2026-02-19	12:40:57.730	17.15	5.915	12.705	0.824232	0.3782	0.45628	-0.6375	0.2115	0.2985	0	454	421	3
2026-02-19	12:40:57.750	5.075	6.125	5.425	0.835212	0.5185	0.344284	-0.624	0.21	0.3015	0	454	421	3
2026-02-19	12:40:57.770	-1.575	5.53	-3.43	0.85156	0.630252	0.33306	-0.63	0.2085	0.2955	0	454	421	3
2026-02-19	12:40:57.790	1.26	2.205	-12.145	0.83204	0.574132	0.28304	-0.6315	0.207	0.294	0	454	421	3
2026-02-19	12:40:57.810	-3.29	1.75	-20.16	0.848388	0.406016	0.31598	-0.624	0.2085	0.297	0	445	429	1
2026-02-19	12:40:57.830	-9.31	-0.77	-20.195	0.829844	0.360876	0.541436	-0.6255	0.204	0.2925	0	445	429	1
2026-02-19	12:40:57.850	-12.88	-5.635	-19.985	0.821792	0.166652	0.656848	-0.6255	0.201	0.288	0	445	429	1
2026-02-19	12:40:57.870	-6.125	2.975	-11.69	0.841312	-0.037088	0.673196	-0.621	0.204	0.2895	0	445	429	1
2026-02-19	12:40:57.890	-0.14	11.27	-6.125	0.863272	0.011956	0.599508	-0.6165	0.2055	0.285	0	445	429	1
2026-02-19	12:40:57.910	3.5	14.63	-4.865	0.86376	0.146644	0.56242	-0.6195	0.192	0.291	0	445	429	1
2026-02-19	12:40:57.930	5.985	19.18	-6.51	0.81862	0.197396	0.478728	-0.618	0.2025	0.3	0	445	429	1
2026-02-19	12:40:57.950	2.695	20.615	-5.32	0.8479	0.317444	0.494588	-0.609	0.1965	0.2835	0	445	429	1
2026-02-19	12:40:57.970	6.895	12.495	-3.22	0.814228	0.308904	0.488244	-0.6105	0.189	0.282	0	445	429	1
2026-02-19	12:40:57.990	11.235	9.66	-4.935	0.806176	0.263032	0.421876	-0.609	0.195	0.2805	0	445	429	1
2026-02-19	12:40:58.010	-0.455	12.565	-2.1	0.825208	0.200568	0.541924	-0.609	0.195	0.2805	0	428	444	1
2026-02-19	12:40:58.030	-2.59	8.645	-0.105	0.748836	0.316468	0.684664	-0.609	0.195	0.2805	0	428	444	1
2026-02-19	12:40:58.050	-1.995	3.78	2.31	0.68686	0.263764	0.76372	-0.6105	0.192	0.2865	0	428	444	1
2026-02-19	12:40:58.070	-2.24	2.485	2.38	0.625372	0.351848	0.880108	-0.6165	0.198	0.273	0	428	444	1
2026-02-19	12:40:58.090	-8.75	-0.245	-0.56	0.630252	0.283528	0.880352	-0.615	0.1935	0.279	0	428	444	1
2026-02-19	12:40:58.110	-12.635	-6.965	-3.885	0.765672	0.058316	0.747372	-0.609	0.1905	0.282	0	428	444	1
2026-02-19	12:40:58.130	9.24	-13.685	-3.71	0.971608	-0.19764	0.493612	-0.609	0.192	0.2745	0	428	444	1
2026-02-19	12:40:58.150	54.25	2.94	4.27	1.253428	-0.194956	0.06222	-0.6135	0.192	0.2715	0	428	444	1
2026-02-19	12:40:58.170	50.12	24.5	-4.55	1.571604	0.165188	0.140056	-0.6135	0.192	0.2715	0	428	444	1
2026-02-19	12:40:58.190	27.475	40.565	-38.605	1.57258	0.47336	0.170068	-0.603	0.1845	0.285	0	428	444	1
2026-02-19	12:40:58.210	7.14	40.495	-71.4	1.537688	0.5063	0.262544	-0.6075	0.1815	0.294	0	410	465	3
2026-02-19	12:40:58.230	-10.08	42.665	-96.95	1.377136	0.50264	0.327204	-0.5925	0.1815	0.285	0	410	465	3
2026-02-19	12:40:58.250	-18.55	47.81	-110.705	1.1773	0.4026	0.371124	-0.5805	0.1725	0.2775	0	410	465	3
2026-02-19	12:40:58.270	-19.845	49.7	-111.93	0.955504	0.340136	0.325252	-0.5625	0.159	0.2715	0	410	465	3
2026-02-19	12:40:58.290	-21.315	46.83	-100.135	0.659776	0.206424	0.21716	-0.5445	0.147	0.2745	0	410	465	3
2026-02-19	12:40:58.310	-12.95	36.26	-77.21	0.503128	0.196908	0.194224	-0.531	0.1425	0.2595	0	410	465	3
2026-02-19	12:40:58.330	1.435	24.605	-47.495	0.414068	0.2074	0.243756	-0.519	0.144	0.255	0	410	465	3
2026-02-19	12:40:58.350	15.505	9.59	-22.505	0.408944	0.35014	0.314272	-0.51	0.138	0.255	0	410	465	3
2026-02-19	12:40:58.370	16.87	-1.96	-5.355	0.387228	0.435296	0.253028	-0.5085	0.132	0.2595	0	410	465	3
2026-02-19	12:40:58.390	12.39	-11.305	2.8	0.373808	0.48312	0.30256	-0.5055	0.1305	0.2595	0	410	465	3
2026-02-19	12:40:58.410	11.83	-17.64	7.63	0.357704	0.437248	0.328668	-0.5055	0.1335	0.261	0	396	462	3
2026-02-19	12:40:58.430	20.405	-25.305	10.64	0.450912	0.534848	0.423828	-0.5085	0.138	0.264	0	396	462	3
2026-02-19	12:40:58.450	30.38	-22.855	10.885	0.505568	0.40748	0.427	-0.5085	0.138	0.264	0	396	462	3
2026-02-19	12:40:58.470	42.42	-22.925	10.92	0.589748	0.502884	0.534848	-0.51	0.132	0.27	0	396	462	3
2026-02-19	12:40:58.490	22.12	-23.835	8.645	0.669536	0.494344	0.499956	-0.5175	0.129	0.2775	0	396	462	3
2026-02-19	12:40:58.510	6.37	-24.325	7.63	0.753472	0.445056	0.45384	-0.522	0.126	0.2835	0	396	462	3
2026-02-19	12:40:58.530	1.645	-26.95	11.655	0.80032	0.40748	0.44408	-0.525	0.1275	0.2865	0	396	462	3
2026-02-19	12:40:58.550	-0.805	-35.315	18.445	0.846436	0.36356	0.435296	-0.531	0.1215	0.294	0	396	462	3
2026-02-19	12:40:58.570	-2.94	-43.33	26.74	0.952088	0.421876	0.481168	-0.5325	0.1155	0.285	0	396	462	3
2026-02-19	12:40:58.590	-1.82	-47.04	33.355	1.0248	0.438712	0.546072	-0.5415	0.1275	0.2865	0	396	462	3
2026-02-19	12:40:58.610	2.52	-48.93	33.11	1.0492	0.440664	0.585112	-0.543	0.1335	0.2985	0	388	447	3
2026-02-19	12:40:58.630	-6.685	-43.33	27.44	1.010404	0.4087	0.57584	-0.558	0.132	0.297	0	388	447	3
2026-02-19	12:40:58.650	-10.92	-37.17	19.67	0.986492	0.394792	0.495564	-0.567	0.129	0.3105	0	388	447	3
2026-02-19	12:40:58.670	-7.875	-33.915	16.065	0.961848	0.372344	0.424804	-0.573	0.138	0.3075	0	388	447	3
2026-02-19	12:40:58.690	-6.895	-34.965	16.59	0.903288	0.344284	0.365268	-0.5715	0.135	0.309	0	388	447	3
2026-02-19	12:40:58.710	-8.225	-36.785	20.86	0.863272	0.309636	0.299632	-0.57	0.132	0.3105	0	388	447	3
2026-02-19	12:40:58.730	-4.13	-38.71	28.175	1.364204	-0.25864	-0.086376	-0.57	0.132	0.3105	0	388	447	3
2026-02-19	12:40:58.750	-12.11	2.45	7.63	1.010648	1.449116	0.9821	-0.582	0.1485	0.312	0	388	447	3
2026-02-19	12:40:58.770	9.275	6.545	-21.175	1.08092	0.638548	0.409676	-0.591	0.147	0.315	0	388	447	3
2026-02-19	12:40:58.790	-2.415	-3.815	-32.305	0.76982	0.244	0.075884	-0.5895	0.1515	0.3195	0	388	447	3
2026-02-19	12:40:58.810	-20.265	-2.59	-12.18	0.787388	-0.164212	-0.058072	-0.576	0.147	0.309	0	381	436	3
2026-02-19	12:40:58.830	-26.18	-4.41	17.22	1.244156	0.101992	0.155916	-0.576	0.1455	0.3135	0	381	436	3
2026-02-19	12:40:58.850	6.02	-21.7	46.55	1.260016	0.241804	0.357216	-0.579	0.144	0.3165	0	381	436	3
2026-02-19	12:40:58.870	39.655	-41.86	71.645	0.843264	0.058804	0.22082	-0.585	0.153	0.318	0	381	436	3
2026-02-19	12:40:58.890	31.5	-42.35	69.58	0.854244	0.104432	0.353312	-0.6045	0.1515	0.3165	0	381	436	3
2026-02-19	12:40:58.910	-18.62	-41.755	45.325	0.913048	0.257664	0.278892	-0.6075	0.159	0.321	0	381	436	3
2026-02-19	12:40:58.930	-51.03	-46.795	28.28	0.9882	0.331108	0.162748	-0.6105	0.1665	0.3375	0	381	436	3
2026-02-19	12:40:58.950	-41.51	-46.655	27.79	0.920856	0.362096	0.06222	-0.6225	0.165	0.3315	0	381	436	3
2026-02-19	12:40:58.970	-21	-41.65	26.53	0.897188	0.34892	-0.098332	-0.627	0.1665	0.333	0	381	436	3
2026-02-19	12:40:58.990	4.725	-41.965	28	0.96014	0.372344	0.013176	-0.627	0.174	0.3345	0	381	436	3
2026-02-19	12:40:59.010	40.495	-39.585	31.85	0.91866	0.45262	0.513132	-0.6285	0.1815	0.3375	0	377	413	3
2026-02-19	12:40:59.030	54.32	-24.395	23.87	0.925004	0.734684	1.088484	-0.651	0.1875	0.3465	0	377	413	3
2026-02-19	12:40:59.050	34.265	15.505	0	0.91622	0.900604	1.032608	-0.645	0.183	0.36	0	377	413	3
2026-02-19	12:40:59.070	13.02	38.08	-18.48	0.803492	0.616832	0.420168	-0.645	0.1845	0.3615	0	377	413	3
2026-02-19	12:40:59.090	2.625	32.865	-17.115	0.870104	0.653432	0.20618	-0.6465	0.18	0.36	0	377	413	3
2026-02-19	12:40:59.110	-11.095	22.435	-13.335	0.840336	0.757864	0.208864	-0.6465	0.1785	0.3495	0	377	413	3
2026-02-19	12:40:59.130	-44.17	20.265	-17.885	0.784216	0.266204	0.09076799	-0.636	0.1695	0.3495	0	377	413	3
2026-02-19	12:40:59.150	-71.435	11.76	-19.495	1.01992	0.120536	0.183244	-0.639	0.1695	0.348	0	377	413	3
2026-02-19	12:40:59.170	-68.705	0.455	-9.415	1.075308	-0.298168	0.081252	-0.627	0.18	0.339	0	377	413	3
2026-02-19	12:40:59.190	-43.295	-6.44	6.965	1.089948	-0.298656	0.050508	-0.63	0.1845	0.33	0	377	413	3
2026-02-19	12:40:59.210	-12.845	-14.56	16.87	1.078724	0.011468	0.09882	-0.63	0.18	0.33	0	377	387	3
2026-02-19	12:40:59.230	2.765	-17.745	19.53	0.959164	0.143228	0.193248	-0.6315	0.1845	0.3345	0	377	387	3
2026-02-19	12:40:59.250	14.735	-2.59	20.685	0.917928	0.275964	0.174704	-0.639	0.189	0.3285	0	377	387	3
2026-02-19	12:40:59.270	18.97	6.265	19.25	0.894016	0.516792	0.242536	-0.639	0.186	0.3255	0	377	387	3
2026-02-19	12:40:59.290	2.87	7.315	12.6	0.831796	0.580964	0.470188	-0.642	0.1965	0.339	0	377	387	3
2026-02-19	12:40:59.310	-14.385	17.36	7.91	0.853512	0.557296	0.57096	-0.645	0.1905	0.3375	0	377	387	3
2026-02-19	12:40:59.330	-12.845	24.745	5.635	0.809348	0.567056	0.641964	-0.648	0.195	0.3285	0	377	387	3
2026-02-19	12:40:59.350	-6.335	30.625	-1.785	0.691496	0.676612	0.669536	-0.639	0.1995	0.3285	0	377	387	3
2026-02-19	12:40:59.370	-9.835	36.33	-13.02	0.63684	0.744444	0.777384	-0.6435	0.198	0.3255	0	377	387	3
2026-02-19	12:40:59.390	-15.715	47.39	-14.875	0.582672	0.770796	0.864248	-0.6375	0.1935	0.3195	0	377	387	3
2026-02-19	12:40:59.410	-13.58	56.84	-22.505	0.475312	0.578524	1.069696	-0.6225	0.1965	0.3195	0	380	378	3
2026-02-19	12:40:59.430	10.885	65.275	-32.13	0.424072	0.479948	1.206092	-0.627	0.192	0.306	0	380	378	3
2026-02-19	12:40:59.450	3.255	66.92	-16.38	0.418704	0.088328	1.31516	-0.6105	0.183	0.3	0	380	378	3
2026-02-19	12:40:59.470	22.68	67.375	-3.255	0.4758	-0.268888	1.207068	-0.603	0.1815	0.2955	0	380	378	3
2026-02-19	12:40:59.490	45.43	69.895	23.065	0.70638	-0.416264	0.846436	-0.6015	0.186	0.291	0	380	378	3
2026-02-19	12:40:59.510	52.78	79.345	49.315	0.8723	-0.653676	0.315492	-0.6015	0.192	0.288	0	380	378	3
2026-02-19	12:40:59.530	42	79.135	60.655	1.168272	-0.494832	0.05246	-0.6	0.1935	0.2805	0	380	378	3
2026-02-19	12:40:59.550	30.03	62.965	63.105	1.318576	-0.299876	-0.004392	-0.603	0.1905	0.273	0	380	378	3
2026-02-19	12:40:59.570	-5.845	36.365	47.95	1.376892	-0.192272	-0.172996	-0.6	0.192	0.285	0	380	378	3
2026-02-19	12:40:59.590	-9.975	28.385	42.14	1.431792	-0.172508	-0.117364	-0.6	0.2085	0.27	0	380	378	3
2026-02-19	12:40:59.610	-10.045	14.07	39.55	1.655296	-0.240096	-0.191784	-0.603	0.2055	0.264	0	393	406	3
2026-02-19	12:40:59.630	13.615	8.295	41.195	1.772904	-0.219112	-0.422364	-0.6045	0.2085	0.267	0	393	406	3
2026-02-19	12:40:59.650	49.175	7.63	31.535	1.788276	-0.005124	-0.332816	-0.606	0.2175	0.264	0	393	406	3
2026-02-19	12:40:59.670	58.275	17.325	-2.59	1.766316	0.310368	-0.08662	-0.609	0.21	0.2715	0	393	406	3
2026-02-19	12:40:59.690	51.345	23.555	-49.21	1.605276	0.404552	0.107848	-0.609	0.2175	0.2805	0	393	406	3
2026-02-19	12:40:59.710	18.97	24.99	-83.965	1.431304	0.37942	0.197396	-0.609	0.2025	0.279	0	393	406	3
2026-02-19	12:40:59.730	-7.945	22.015	-97.37	1.255624	0.334768	0.363316	-0.5895	0.1965	0.276	0	393	406	3
2026-02-19	12:40:59.750	-14.875	24.08	-98.07	1.031876	0.308172	0.493124	-0.5835	0.189	0.273	0	393	406	3
2026-02-19	12:40:59.770	-3.57	31.745	-88.48	0.7869	0.28914	0.562176	-0.5655	0.174	0.2625	0	393	406	3
2026-02-19	12:40:59.790	7.945	38.745	-72.31	0.560956	0.315004	0.615368	-0.555	0.1695	0.2595	0	393	406	3
2026-02-19	12:40:59.810	15.61	43.68	-52.15	0.282308	0.279136	0.564128	-0.5385	0.1575	0.2685	0	418	397	3
2026-02-19	12:40:59.830	20.44	39.55	-33.81	0.11956	0.300364	0.515816	-0.531	0.162	0.255	0	418	397	3
2026-02-19	12:40:59.850	22.435	20.685	-15.61	0.095892	0.360144	0.560956	-0.528	0.1605	0.255	0	418	397	3
2026-02-19	12:40:59.870	15.47	6.545	-6.93	0.111752	0.399916	0.499224	-0.522	0.15	0.255	0	418	397	3
2026-02-19	12:40:59.890	8.505	-4.2	0.455	0.15982	0.306952	0.629764	-0.5175	0.141	0.2565	0	418	397	3
2026-02-19	12:40:59.910	9.52	-11.305	10.115	0.233264	0.470188	0.5978	-0.528	0.138	0.261	0	418	397	3
2026-02-19	12:40:59.930	17.535	-17.15	19.705	0.334036	0.371856	0.572668	-0.519	0.147	0.261	0	418	397	3
2026-02-19	12:40:59.950	52.535	-21.91	30.45	0.416752	0.452132	0.711748	-0.5325	0.1455	0.27	0	418	397	3
2026-02-19	12:40:59.970	52.15	-19.285	32.48	0.484096	0.47092	0.756888	-0.5265	0.1455	0.2745	0	418	397	3
2026-02-19	12:40:59.990	51.73	-17.36	30.24	0.564128	0.498492	0.762988	-0.537	0.141	0.2745	0	418	397	3
2026-02-19	12:41:00.010	29.26	-18.41	24.29	0.682712	0.590968	0.667096	-0.537	0.141	0.2745	0	449	399	3
2026-02-19	12:41:00.030	24.535	-20.335	20.195	0.750544	0.507764	0.671732	-0.5535	0.147	0.2925	0	449	399	3
2026-02-19	12:41:00.050	20.02	-23.31	15.05	0.841312	0.469944	0.671732	-0.558	0.144	0.297	0	449	399	3
2026-02-19	12:41:00.070	14.525	-28.875	13.93	0.871812	0.423584	0.640256	-0.555	0.1365	0.3	0	449	399	3
2026-02-19	12:41:00.090	8.155	-34.23	13.58	0.894016	0.397476	0.641476	-0.561	0.1395	0.3075	0	449	399	3
2026-02-19	12:41:00.110	-0.875	-38.465	11.76	0.939644	0.344284	0.583404	-0.558	0.138	0.3105	0	449	399	3
2026-02-19	12:41:00.130	-6.335	-40.635	11.2	0.996008	0.330132	0.543388	-0.567	0.144	0.309	0	449	399	3
2026-02-19	12:41:00.150	-8.785	-44.625	13.58	0.98454	0.240096	0.454084	-0.57	0.144	0.315	0	449	399	3
2026-02-19	12:41:00.170	-2.94	-47.845	18.025	0.955504	0.192516	0.397476	-0.5775	0.1425	0.3195	0	449	399	3
2026-02-19	12:41:00.190	-0.35	-44.555	21.805	1.719224	-0.01342	-0.309392	-0.5835	0.144	0.321	0	449	399	3
2026-02-19	12:41:00.210	-27.3	-4.48	-17.64	1.1956	0.955016	1.40422	-0.5865	0.147	0.3225	0	475	430	3
2026-02-19	12:41:00.230	-14.98	-28.035	-21.455	0.84912	0.234484	0.366244	-0.5865	0.147	0.3225	0	475	430	3
2026-02-19	12:41:00.250	-13.65	-36.155	-14.14	0.835456	0.129564	0.081252	-0.585	0.153	0.333	0	475	430	3
2026-02-19	12:41:00.270	-37.485	-31.08	0.315	0.854732	0.01098	0.284992	-0.594	0.1425	0.324	0	475	430	3
2026-02-19	12:41:00.290	-40.74	-39.34	13.65	0.965508	0.30378	0.436028	-0.588	0.1545	0.321	0	475	430	3
2026-02-19	12:41:00.310	-31.815	-45.78	19.67	0.883524	0.335012	0.425536	-0.5925	0.147	0.33	0	475	430	3
2026-02-19	12:41:00.330	-21.035	-50.19	22.12	0.797392	0.356728	0.42944	-0.5985	0.15	0.3285	0	475	430	3
2026-02-19	12:41:00.350	-28.91	-51.205	17.85	0.8845	0.28548	0.377956	-0.6	0.1575	0.336	0	475	430	3
2026-02-19	12:41:00.370	-43.26	-45.535	11.69	0.89914	0.387228	0.416752	-0.6075	0.159	0.3345	0	475	430	3
2026-02-19	12:41:00.390	-51.1	-40.215	7.385	0.866688	0.299876	0.307684	-0.6105	0.1665	0.3315	0	475	430	3
2026-02-19	12:41:00.410	-36.96	-26.845	5.075	0.887916	0.216428	0.247416	-0.6135	0.168	0.3405	0	491	449	3
2026-02-19	12:41:00.430	-23.8	-17.605	6.755	0.926956	0.20496	0.279624	-0.6165	0.171	0.3345	0	491	449	3
2026-02-19	12:41:00.450	-14.105	-7.56	8.015	0.909876	0.122976	0.249368	-0.621	0.1755	0.3315	0	491	449	3
2026-02-19	12:41:00.470	-14.385	1.855	9.8	0.977708	0.140056	0.215208	-0.6225	0.1785	0.3375	0	491	449	3
2026-02-19	12:41:00.490	-12.67	5.11	9.03	0.97966	0.233996	0.15372	-0.621	0.1815	0.33	0	491	449	3
2026-02-19	12:41:00.510	-22.295	-0.875	0.805	0.975024	0.217892	0.026596	-0.621	0.183	0.3165	0	491	449	3
2026-02-19	12:41:00.530	-34.265	-5.005	-4.27	1.036268	0.187148	-0.042212	-0.6255	0.1845	0.3285	0	491	449	3
2026-02-19	12:41:00.550	-32.2	-11.165	-1.68	1.056032	0.276452	-0.040748	-0.6195	0.1845	0.33	0	491	449	3
2026-02-19	12:41:00.570	-25.585	-24.045	-1.155	1.030656	0.318908	-0.039772	-0.6255	0.1815	0.324	0	491	449	3
2026-02-19	12:41:00.590	-18.76	-33.495	-2.205	0.976244	0.365512	0.031476	-0.6225	0.195	0.315	0	491	449	3
2026-02-19	12:41:00.610	-12.565	-36.995	-9.135	0.899628	0.391132	0.148108	-0.6255	0.1935	0.321	0	494	431	3
2026-02-19	12:41:00.630	-18.025	-36.33	-22.015	0.821792	0.110776	0.460428	-0.627	0.192	0.3285	0	494	431	3
2026-02-19	12:41:00.650	-18.235	-31.15	-29.54	0.862784	0.041724	1.123376	-0.624	0.186	0.327	0	494	431	3
2026-02-19	12:41:00.670	-13.16	-6.23	-16.8	0.886696	0.094428	1.008696	-0.6195	0.189	0.321	0	494	431	3
2026-02-19	12:41:00.690	2.73	22.26	10.29	0.905972	0.360632	0.416508	-0.624	0.1845	0.3285	0	494	431	3
2026-02-19	12:41:00.710	2.415	17.465	13.335	0.847168	0.61732	0.217404	-0.624	0.1845	0.3285	0	494	431	3
2026-02-19	12:41:00.730	-9.73	9.66	0.84	0.76128	0.665144	0.171044	-0.621	0.1845	0.327	0	494	431	3
2026-02-19	12:41:00.750	-30.03	6.58	-12.355	0.795196	0.844972	0.269132	-0.624	0.1845	0.324	0	494	431	3
2026-02-19	12:41:00.770	-35.77	-2.065	-23.065	0.71004	0.823744	0.361608	-0.6255	0.186	0.3255	0	494	431	3
2026-02-19	12:41:00.790	-38.045	0.525	-30.205	0.662704	0.6588	0.377712	-0.618	0.189	0.3195	0	494	431	3
2026-02-19	12:41:00.810	-40.145	6.16	-27.965	0.696376	0.699792	0.588284	-0.6165	0.1905	0.312	0	487	404	3
2026-02-19	12:41:00.830	-23.03	5.04	-35.98	0.632204	0.477264	0.622932	-0.612	0.1875	0.3075	0	487	404	3
2026-02-19	12:41:00.850	8.015	15.645	-48.405	0.60756	0.464332	0.60878	-0.6075	0.183	0.3075	0	487	404	3
2026-02-19	12:41:00.870	9.275	29.365	-46.13	0.59902	0.62464	0.778604	-0.612	0.186	0.306	0	487	404	3
2026-02-19	12:41:00.890	-12.355	27.545	-41.79	0.580232	0.476044	0.80276	-0.603	0.174	0.3015	0	487	404	3
2026-02-19	12:41:00.910	-5.88	27.93	-30.485	0.631716	0.200324	0.768112	-0.5895	0.1665	0.285	0	487	404	3
2026-02-19	12:41:00.930	15.96	34.685	-16.345	0.729804	0.196908	0.676856	-0.585	0.1725	0.2895	0	487	404	3
2026-02-19	12:41:00.950	12.215	31.36	-4.305	0.779092	0.210084	0.59048	-0.585	0.1665	0.2925	0	487	404	3
2026-02-19	12:41:00.970	-25.025	17.57	3.955	0.874252	0.075884	0.508008	-0.5835	0.1695	0.2895	0	487	404	3
2026-02-19	12:41:00.990	-50.085	4.76	12.32	1.119228	-0.274988	0.315248	-0.5835	0.1695	0.2895	0	487	404	3
2026-02-19	12:41:01.010	-33.6	0.42	21.84	1.422032	-0.442616	0.131516	-0.582	0.168	0.288	0	478	406	3
2026-02-19	12:41:01.030	-8.54	8.575	28.875	1.662616	-0.424072	-0.190076	-0.582	0.171	0.282	0	478	406	3
2026-02-19	12:41:01.050	1.785	24.57	24.92	1.794864	0.11956	0.01586	-0.585	0.1785	0.2745	0	478	406	3
2026-02-19	12:41:01.070	4.235	38.605	-6.3	1.68604	0.429196	-0.011712	-0.5865	0.183	0.2715	0	478	406	3
2026-02-19	12:41:01.090	-1.89	44.1	-41.58	1.466928	0.467504	-0.02562	-0.5805	0.183	0.2655	0	478	406	3
2026-02-19	12:41:01.110	-9.94	45.745	-63.175	1.305644	0.488976	0.171044	-0.5745	0.177	0.2625	0	478	406	3
2026-02-19	12:41:01.130	-6.58	49.385	-72.1	1.148752	0.277184	0.171044	-0.5745	0.174	0.2625	0	478	406	3
2026-02-19	12:41:01.150	0.28	55.475	-70.14	0.974536	0.26474	0.252052	-0.5505	0.1725	0.246	0	478	406	3
2026-02-19	12:41:01.170	5.565	61.81	-60.305	0.781044	0.277428	0.30378	-0.5355	0.168	0.243	0	478	406	3
2026-02-19	12:41:01.190	7.21	62.615	-44.66	0.696864	0.325252	0.34038	-0.525	0.165	0.2505	0	478	406	3
2026-02-19	12:41:01.210	15.715	55.44	-26.32	0.673196	0.384544	0.371124	-0.5115	0.1545	0.24	0	472	397	3
2026-02-19	12:41:01.230	21.105	45.955	-9.24	0.681248	0.490684	0.393816	-0.51	0.144	0.2355	0	472	397	3
2026-02-19	12:41:01.250	24.045	34.3	10.185	0.663436	0.565836	0.386252	-0.501	0.144	0.234	0	472	397	3
2026-02-19	12:41:01.270	22.82	17.64	23.59	0.662216	0.592676	0.412604	-0.501	0.144	0.234	0	472	397	3
2026-02-19	12:41:01.290	17.92	5.11	28	0.601948	0.57462	0.497272	-0.4995	0.147	0.2355	0	472	397	3
2026-02-19	12:41:01.310	0.07	-5.6	26.88	0.519476	0.580232	0.422364	-0.4995	0.1485	0.2415	0	472	397	3
2026-02-19	12:41:01.330	-19.495	-13.09	22.19	0.486048	0.593408	0.430416	-0.5055	0.1485	0.243	0	472	397	3
2026-02-19	12:41:01.350	-1.085	-14.805	21.035	0.421144	0.347212	0.55632	-0.5085	0.153	0.2385	0	472	397	3
2026-02-19	12:41:01.370	-7.35	-7.98	20.3	0.443348	0.271572	0.563152	-0.507	0.1515	0.2385	0	472	397	3
2026-02-19	12:41:01.390	-0.525	-6.125	26.425	0.49654	0.162504	0.558028	-0.513	0.15	0.243	0	472	397	3
2026-02-19	12:41:01.410	12.845	-7.35	35.525	0.577304	0.172752	0.437248	-0.519	0.153	0.243	0	467	387	3
2026-02-19	12:41:01.430	28.77	-11.725	43.68	0.67588	0.212524	0.476044	-0.522	0.1545	0.24	0	467	387	3
2026-02-19	12:41:01.450	28.91	-18.025	51.38	0.801296	0.252784	0.558028	-0.537	0.1515	0.246	0	467	387	3
2026-02-19	12:41:01.470	24.605	-25.9	60.095	0.87352	0.228628	0.582672	-0.5385	0.156	0.252	0	467	387	3
2026-02-19	12:41:01.490	21.175	-30.905	61.985	0.902068	0.267668	0.60146	-0.5445	0.1515	0.258	0	467	387	3
2026-02-19	12:41:01.510	14.49	-33.04	57.365	0.869128	0.270352	0.60512	-0.5595	0.1695	0.2625	0	467	387	3
2026-02-19	12:41:01.530	5.67	-32.445	48.58	0.845704	0.348432	0.588528	-0.558	0.162	0.261	0	467	387	3
2026-02-19	12:41:01.550	3.745	-26.355	35.245	0.823744	0.2806	0.601216	-0.576	0.174	0.2715	0	467	387	3
2026-02-19	12:41:01.570	3.885	-19.915	29.61	0.827892	0.265716	0.545584	-0.576	0.171	0.2745	0	467	387	3
2026-02-19	12:41:01.590	10.22	-19.11	29.05	0.867908	0.286456	0.450668	-0.582	0.174	0.276	0	467	387	3
2026-02-19	12:41:01.610	16.065	-19.88	32.62	0.867908	0.19154	0.41602	-0.5925	0.1755	0.2775	0	460	400	3
2026-02-19	12:41:01.630	24.115	-21.98	37.24	0.877424	0.187392	0.384056	-0.5985	0.177	0.2805	0	460	400	3
2026-02-19	12:41:01.650	24.36	-24.675	41.72	0.903288	0.18544	0.328424	-0.6045	0.1845	0.288	0	460	400	3
2026-02-19	12:41:01.670	18.025	-30.8	46.34	1.106052	-0.097112	0.243024	-0.6075	0.1875	0.294	0	460	400	3
2026-02-19	12:41:01.690	-5.145	1.505	33.25	1.31638	0.790804	0.945256	-0.615	0.192	0.294	0	460	400	3
2026-02-19	12:41:01.710	-1.365	13.965	4.865	1.108736	0.3416	0.563396	-0.6225	0.1935	0.294	0	460	400	3
2026-02-19	12:41:01.730	-13.125	-7.63	-5.705	0.913292	0.280112	0.363072	-0.6135	0.198	0.288	0	460	400	3
2026-02-19	12:41:01.750	-25.13	-18.97	-2.135	0.851804	0.068564	0.243268	-0.621	0.192	0.2955	0	460	400	3
2026-02-19	12:41:01.770	-42.945	-18.235	9.485	0.899384	-0.097356	0.349164	-0.6225	0.1905	0.294	0	460	400	3
2026-02-19	12:41:01.790	-29.995	-15.33	25.41	0.999912	0.157624	0.45384	-0.6195	0.1995	0.288	0	460	400	3
2026-02-19	12:41:01.810	2.24	-16.1	29.96	0.892552	0.297192	0.539728	-0.6345	0.201	0.288	0	448	422	3
2026-02-19	12:41:01.830	-13.825	-15.295	6.615	0.80642	0.245952	0.523868	-0.6345	0.207	0.2955	0	448	422	3
2026-02-19	12:41:01.850	-38.815	-11.725	-11.34	0.899872	0.255468	0.459696	-0.633	0.21	0.297	0	448	422	3
2026-02-19	12:41:01.870	-30.625	-7.525	-15.505	0.911584	0.16226	0.373564	-0.6315	0.2115	0.291	0	448	422	3
2026-02-19	12:41:01.890	-5.39	-4.585	-8.68	0.91378	0.115656	0.289872	-0.6315	0.2085	0.285	0	448	422	3
2026-02-19	12:41:01.910	12.495	-1.435	1.925	0.956968	0.167872	0.352092	-0.633	0.207	0.288	0	448	422	3
2026-02-19	12:41:01.930	4.41	-8.155	5.53	0.976488	0.207156	0.367708	-0.636	0.2085	0.288	0	448	422	3
2026-02-19	12:41:01.950	-4.55	-19.11	3.885	0.914512	0.232288	0.352092	-0.633	0.207	0.288	0	448	422	3
2026-02-19	12:41:01.970	-5.67	-24.675	-3.605	0.884256	0.246928	0.376248	-0.6315	0.2055	0.2955	0	448	422	3
2026-02-19	12:41:01.990	-2.17	-23.59	-10.43	0.882548	0.300364	0.458476	-0.636	0.207	0.3015	0	448	422	3
2026-02-19	12:41:02.010	9.835	-14.595	-14.245	0.781288	0.399916	0.545828	-0.636	0.2055	0.3015	0	430	436	3
2026-02-19	12:41:02.030	-0.455	-9.065	-16.135	0.834968	0.406016	0.604632	-0.636	0.2055	0.306	0	430	436	3
2026-02-19	12:41:02.050	-15.225	-4.865	-14.385	0.838384	0.361852	0.741028	-0.639	0.201	0.3015	0	430	436	3
2026-02-19	12:41:02.070	-26.845	-1.855	-12.25	0.818864	0.225456	0.678808	-0.6405	0.204	0.3045	0	430	436	3
2026-02-19	12:41:02.090	-30.485	-0.105	-6.86	0.9028	0.14884	0.562908	-0.63	0.2055	0.309	0	430	436	3
2026-02-19	12:41:02.110	-13.475	0	6.755	0.846924	0.310368	0.437248	-0.6345	0.2145	0.2925	0	430	436	3
2026-02-19	12:41:02.130	-4.69	0.175	3.185	0.820572	0.386496	0.349164	-0.633	0.216	0.294	0	430	436	3
2026-02-19	12:41:02.150	-1.925	-1.855	-7.875	0.827648	0.624152	0.312564	-0.636	0.213	0.294	0	430	436	3
2026-02-19	12:41:02.170	-2.205	-5.495	-17.955	0.797636	0.585112	0.216428	-0.633	0.21	0.2925	0	430	436	3
2026-02-19	12:41:02.190	-8.68	-7.63	-26.81	0.813496	0.511668	0.248148	-0.63	0.207	0.297	0	430	436	3
2026-02-19	12:41:02.210	-19.53	-11.795	-34.195	0.81496	0.516304	0.356972	-0.6285	0.2025	0.297	0	408	444	1
2026-02-19	12:41:02.230	-23.52	-14.035	-34.58	0.775676	0.278404	0.36844	-0.624	0.2055	0.2895	0	408	444	1
2026-02-19	12:41:02.250	-19.285	-9.59	-36.575	0.826428	0.272548	0.444568	-0.624	0.204	0.2865	0	408	444	1
2026-02-19	12:41:02.270	-8.995	-4.235	-39.025	0.782996	0.2623	0.434076	-0.6225	0.1995	0.285	0	408	444	1
2026-02-19	12:41:02.290	4.515	0.105	-43.26	0.794952	0.42822	0.441884	-0.6225	0.1935	0.2865	0	408	444	1
2026-02-19	12:41:02.310	14.49	-2.485	-39.725	0.734684	0.471164	0.467748	-0.6225	0.1875	0.285	0	408	444	1
2026-02-19	12:41:02.330	14.315	-4.515	-38.605	0.68076	0.503372	0.442128	-0.6225	0.1875	0.282	0	408	444	1
2026-02-19	12:41:02.350	2.59	-3.43	-37.45	0.655384	0.533384	0.45262	-0.606	0.177	0.2925	0	408	444	1
2026-02-19	12:41:02.370	-2.205	-5.565	-35.63	0.648796	0.577792	0.508496	-0.612	0.177	0.285	0	408	444	1
2026-02-19	12:41:02.390	-21.105	-13.3	-33.705	0.776896	0.386008	0.55632	-0.6045	0.165	0.288	0	408	444	1
2026-02-19	12:41:02.410	-48.125	-22.75	-25.13	1.093608	-0.117608	0.442128	-0.6045	0.165	0.288	0	384	443	1
2026-02-19	12:41:02.430	-41.65	-28	-5.6	1.34932	-0.454084	0.305976	-0.6015	0.162	0.2865	0	384	443	1
2026-02-19	12:41:02.450	-33.005	-26.285	6.3	1.502064	-0.486048	0.177876	-0.5955	0.165	0.2835	0	384	443	1
2026-02-19	12:41:02.470	-44.555	-16.415	9.52	1.615768	-0.52338	-0.019276	-0.597	0.174	0.2805	0	384	443	1
2026-02-19	12:41:02.490	-37.765	3.22	8.785	1.803648	-0.142984	0.169336	-0.6045	0.177	0.2775	0	384	443	1
2026-02-19	12:41:02.510	1.575	27.195	-10.08	1.784616	0.155916	0.188368	-0.609	0.18	0.2685	0	384	443	1
2026-02-19	12:41:02.530	16.17	41.335	-36.68	1.554036	0.399916	0.114436	-0.6	0.18	0.2685	0	384	443	1
2026-02-19	12:41:02.550	-1.96	44.695	-58.205	1.310036	0.414312	0.16226	-0.591	0.1755	0.27	0	384	443	1
2026-02-19	12:41:02.570	-14.7	45.255	-70.21	1.118496	0.431392	0.192516	-0.5835	0.1725	0.261	0	384	443	1
2026-02-19	12:41:02.590	-14.245	45.01	-74.235	0.943548	0.391864	0.215208	-0.5745	0.1665	0.258	0	384	443	1
2026-02-19	12:41:02.610	-14.175	45.605	-71.435	0.792024	0.42822	0.275232	-0.561	0.1605	0.255	0	368	423	3
2026-02-19	12:41:02.630	-8.155	44.415	-63.21	0.653676	0.408456	0.32574	-0.5505	0.1575	0.252	0	368	423	3
2026-02-19	12:41:02.650	-6.055	43.19	-53.095	0.549	0.448472	0.335012	-0.543	0.1515	0.2445	0	368	423	3
2026-02-19	12:41:02.670	-4.41	39.445	-36.61	0.417972	0.436272	0.285724	-0.534	0.1455	0.2385	0	368	423	3
2026-02-19	12:41:02.690	-0.805	32.445	-21.28	0.378932	0.504348	0.321104	-0.534	0.1455	0.2385	0	368	423	3
2026-02-19	12:41:02.710	9.275	29.225	-10.605	0.370636	0.506544	0.348432	-0.5235	0.1425	0.231	0	368	423	3
2026-02-19	12:41:02.730	15.715	27.685	-1.96	0.404796	0.559492	0.367952	-0.5085	0.1425	0.2265	0	368	423	3
2026-02-19	12:41:02.750	19.25	25.2	3.57	0.440908	0.577548	0.35624	-0.5025	0.1425	0.234	0	368	423	3
2026-02-19	12:41:02.770	18.445	22.225	6.16	0.49044	0.606828	0.377224	-0.4995	0.1395	0.2325	0	368	423	3
2026-02-19	12:41:02.790	15.68	17.5	7.84	0.51972	0.538508	0.324032	-0.5025	0.141	0.2295	0	368	423	3
2026-02-19	12:41:02.810	13.475	11.55	11.375	0.576328	0.511668	0.35136	-0.5055	0.1395	0.234	0	364	393	3
2026-02-19	12:41:02.830	8.785	5.88	16.38	0.602436	0.469944	0.380884	-0.504	0.138	0.2265	0	364	393	3
2026-02-19	12:41:02.850	8.61	-0.42	21.245	0.6466	0.39894	0.405528	-0.5025	0.1365	0.2235	0	364	393	3
2026-02-19	12:41:02.870	14.21	-2.66	27.965	0.71004	0.414312	0.490684	-0.5055	0.1335	0.228	0	364	393	3
2026-02-19	12:41:02.890	18.445	-4.2	33.46	0.76982	0.378444	0.513132	-0.51	0.135	0.234	0	364	393	3
2026-02-19	12:41:02.910	16.205	-4.13	38.08	0.829112	0.451888	0.549244	-0.5115	0.1395	0.24	0	364	393	3
2026-02-19	12:41:02.930	12.775	-2.87	40.985	0.831308	0.407236	0.517768	-0.5115	0.1425	0.2415	0	364	393	3
2026-02-19	12:41:02.950	17.92	-0.91	42.525	0.818864	0.388204	0.51484	-0.516	0.1515	0.243	0	364	393	3
2026-02-19	12:41:02.970	20.475	-1.365	44.695	0.848388	0.33184	0.492392	-0.516	0.1515	0.243	0	364	393	3
2026-02-19	12:41:02.990	19.04	-4.025	49.455	0.93696	0.351604	0.499956	-0.525	0.147	0.2445	0	364	393	3
2026-02-19	12:41:03.010	14.735	-6.825	56.875	1.026752	0.342576	0.442372	-0.537	0.144	0.2505	0	363	382	3
2026-02-19	12:41:03.030	29.295	-12.32	61.635	1.044076	0.36112	0.429684	-0.5445	0.15	0.252	0	363	382	3
2026-02-19	12:41:03.050	35.245	-17.535	61.6	1.014552	0.42822	0.50996	-0.5505	0.153	0.2505	0	363	382	3
2026-02-19	12:41:03.070	4.025	-21.07	55.16	0.953064	0.421144	0.466284	-0.561	0.1515	0.2535	0	363	382	3
2026-02-19	12:41:03.090	-14.315	-26.11	45.185	0.922076	0.366732	0.42456	-0.57	0.1545	0.261	0	363	382	3
2026-02-19	12:41:03.110	-15.015	-31.395	37.275	0.869372	0.261568	0.410408	-0.576	0.159	0.2625	0	363	382	3
2026-02-19	12:41:03.130	-5.95	-31.71	35.7	0.80276	0.1769	0.36356	-0.5865	0.168	0.261	0	363	382	3
2026-02-19	12:41:03.150	13.265	-29.505	42.665	0.762744	0.09394	0.407236	-0.5925	0.1725	0.264	0	363	382	3
2026-02-19	12:41:03.170	4.76	-15.225	51.03	1.105808	0.373808	0.416264	-0.597	0.1755	0.27	0	363	382	3
2026-02-19	12:41:03.190	-0.77	13.615	31.255	1.0492	0.535336	0.667584	-0.606	0.1785	0.2745	0	363	382	3
2026-02-19	12:41:03.210	7.455	-2.975	15.225	0.914756	0.4636	0.444812	-0.6105	0.18	0.273	0	361	392	3
2026-02-19	12:41:03.230	-3.71	-12.04	8.05	0.843752	0.289384	0.338184	-0.609	0.18	0.2715	0	361	392	3
2026-02-19	12:41:03.250	-26.985	-12.145	12.215	0.93086	0.132248	0.401136	-0.609	0.18	0.2715	0	361	392	3
2026-02-19	12:41:03.270	-28.91	-16.345	22.33	0.938668	0.168604	0.434076	-0.6135	0.186	0.2715	0	361	392	3
2026-02-19	12:41:03.290	-14.84	-18.025	29.68	0.88206	0.160308	0.425536	-0.6195	0.195	0.27	0	361	392	3
2026-02-19	12:41:03.310	-9.905	-16.345	31.325	0.826672	0.115656	0.368684	-0.6195	0.198	0.27	0	361	392	3
2026-02-19	12:41:03.330	-5.18	-14.805	29.365	0.896212	0.121512	0.37698	-0.6195	0.1995	0.27	0	361	392	3
2026-02-19	12:41:03.350	-16.835	-8.155	23.59	0.928176	0.163968	0.36234	-0.633	0.2025	0.273	0	361	392	3
2026-02-19	12:41:03.370	-27.615	-3.955	15.855	0.915244	0.07905599	0.270596	-0.6405	0.207	0.2745	0	361	392	3
2026-02-19	12:41:03.390	-31.465	-1.82	7.805	1.002352	0.005612	0.291092	-0.639	0.213	0.2715	0	361	392	3
2026-02-19	12:41:03.410	-26.04	0.525	5.285	1.052372	-0.071736	0.286944	-0.636	0.2145	0.2715	0	355	404	3
2026-02-19	12:41:03.430	-5.18	0.56	12.425	1.037732	-0.005612	0.38308	-0.636	0.2145	0.267	0	355	404	3
2026-02-19	12:41:03.450	0.175	-2.625	17.71	1.019188	0.133956	0.460672	-0.6375	0.2145	0.2655	0	355	404	3
2026-02-19	12:41:03.470	-3.325	-6.545	18.2	0.962336	0.030988	0.386252	-0.639	0.2175	0.264	0	355	404	3
2026-02-19	12:41:03.490	-5.74	-6.79	19.495	0.948184	0.084912	0.365512	-0.651	0.2235	0.261	0	355	404	3
2026-02-19	12:41:03.510	-3.99	-7.63	18.305	0.912316	-0.019032	0.336476	-0.654	0.225	0.2625	0	355	404	3
2026-02-19	12:41:03.530	-11.69	-12.67	9.415	0.939644	0.420656	0.280112	-0.648	0.2265	0.2655	0	355	404	3
2026-02-19	12:41:03.550	-16.52	-13.93	6.79	0.908656	0.429196	0.255224	-0.6495	0.231	0.264	0	355	404	3
2026-02-19	12:41:03.570	-11.13	-16.555	7.91	0.91622	0.348676	0.32086	-0.651	0.2355	0.2685	0	355	404	3
2026-02-19	12:41:03.590	-1.995	-17.78	8.05	0.861808	0.374052	0.415532	-0.6495	0.2355	0.2745	0	355	404	3
2026-02-19	12:41:03.610	3.5	-16.8	0.77	0.823012	0.379664	0.504348	-0.651	0.234	0.273	0	345	406	3
2026-02-19	12:41:03.630	-11.55	-16.45	-3.64	0.858148	0.315492	0.60268	-0.6555	0.234	0.27	0	345	406	3
2026-02-19	12:41:03.650	-27.72	-16.59	-2.38	0.887428	0.22326	0.702964	-0.6585	0.237	0.276	0	345	406	3
2026-02-19	12:41:03.670	-37.87	-13.16	2.38	0.893528	0.036356	0.664168	-0.657	0.234	0.2805	0	345	406	3
2026-02-19	12:41:03.690	-26.6	-3.01	9.45	0.913292	-0.026108	0.528016	-0.6555	0.2355	0.2745	0	345	406	3
2026-02-19	12:41:03.710	-11.27	3.78	16.59	0.943304	-0.023424	0.37698	-0.6585	0.2415	0.2745	0	345	406	3
2026-02-19	12:41:03.730	2.205	4.795	18.9	0.948184	0.08906	0.355508	-0.66	0.2445	0.2715	0	345	406	3
2026-02-19	12:41:03.750	3.01	4.865	15.61	0.921832	0.03172	0.222772	-0.6615	0.2445	0.2715	0	345	406	3
2026-02-19	12:41:03.770	2.38	4.62	12.005	0.945256	0.062464	0.206912	-0.66	0.246	0.2745	0	345	406	3
2026-02-19	12:41:03.790	-0.7	0.595	8.645	0.93696	0.139568	0.339648	-0.6585	0.2505	0.2685	0	345	406	3
2026-02-19	12:41:03.810	-7.63	0.56	2.835	0.915244	0.049288	0.3843	-0.66	0.2535	0.2655	0	333	409	3
2026-02-19	12:41:03.830	-4.62	6.58	7.49	0.959652	-0.005368	0.39528	-0.663	0.2535	0.27	0	333	409	3
2026-02-19	12:41:03.850	1.54	9.625	15.61	0.956236	0.031476	0.499468	-0.666	0.2535	0.2715	0	333	409	3
2026-02-19	12:41:03.870	-7.525	11.48	20.58	0.9394	-0.037088	0.439688	-0.6615	0.2535	0.267	0	333	409	3
2026-02-19	12:41:03.890	-5.11	14.49	25.305	0.951844	-0.11712	0.399184	-0.663	0.2565	0.267	0	333	409	3
2026-02-19	12:41:03.910	2.485	16.31	27.125	0.936228	-0.045872	0.447008	-0.6675	0.2595	0.264	0	333	409	3
2026-02-19	12:41:03.930	4.55	17.92	28.525	0.947208	-0.021472	0.463844	-0.666	0.264	0.2625	0	333	409	3
2026-02-19	12:41:03.950	7.105	19.46	28.21	0.954284	-0.10248	0.396012	-0.6645	0.2685	0.261	0	333	409	3
2026-02-19	12:41:03.970	12.53	18.935	32.515	0.959896	-0.120292	0.391132	-0.666	0.2685	0.2595	0	333	409	3
2026-02-19	12:41:03.990	13.09	15.715	37.765	0.930128	-0.045628	0.491904	-0.6675	0.2715	0.252	0	333	409	3
2026-02-19	12:41:04.010	22.085	13.335	36.575	0.847412	0.087352	0.593408	-0.669	0.2745	0.2445	0	320	413	1
2026-02-19	12:41:04.030	29.4	14.14	30.94	0.797392	0.140788	0.575108	-0.6705	0.279	0.246	0	320	413	1
2026-02-19	12:41:04.050	33.18	18.41	22.925	0.761524	0.174216	0.607316	-0.669	0.2835	0.2505	0	320	413	1
2026-02-19	12:41:04.070	29.855	22.785	19.46	0.781776	0.203252	0.67222	-0.672	0.2865	0.2505	0	320	413	1
2026-02-19	12:41:04.090	46.515	20.16	20.93	0.7137	0.263276	0.722728	-0.669	0.2865	0.2505	0	320	413	1
2026-02-19	12:41:04.110	55.825	13.16	14.77	0.681004	0.52094	0.708332	-0.6615	0.285	0.2535	0	320	413	1
2026-02-19	12:41:04.130	55.44	-1.82	-11.13	0.691984	0.551196	0.617808	-0.6705	0.2715	0.2595	0	320	413	1
2026-02-19	12:41:04.150	65.1	-13.055	-46.9	0.775432	0.332572	0.385764	-0.6645	0.267	0.258	0	320	413	1
2026-02-19	12:41:04.170	49.21	-15.295	-74.69	0.966484	0.073688	0.128588	-0.6615	0.2595	0.261	0	320	413	1
2026-02-19	12:41:04.190	17.955	-6.09	-76.895	1.079212	0.091256	0.087596	-0.6585	0.249	0.267	0	320	413	1
2026-02-19	12:41:04.210	-9.73	3.5	-61.915	1.21634	-0.040504	0.073444	-0.6525	0.2385	0.267	0	307	426	1
2026-02-19	12:41:04.230	-2.31	7.805	-48.72	1.470588	-0.052216	0.148108	-0.6465	0.231	0.2655	0	307	426	1
2026-02-19	12:41:04.250	3.5	18.62	-50.05	1.641144	0.231312	0.3172	-0.639	0.2295	0.261	0	307	426	1
2026-02-19	12:41:04.270	-5.635	19.845	-54.915	1.63846	0.405772	0.400648	-0.636	0.222	0.258	0	307	426	1
2026-02-19	12:41:04.290	-8.925	22.47	-65.8	1.460828	0.33794	0.389424	-0.6285	0.216	0.2595	0	307	426	1
2026-02-19	12:41:04.310	-16.31	28.28	-77.35	1.197064	0.411872	0.409676	-0.6165	0.21	0.2565	0	307	426	1
2026-02-19	12:41:04.330	-17.36	28.805	-84.245	0.96868	0.293532	0.369416	-0.609	0.2055	0.252	0	307	426	1
2026-02-19	12:41:04.350	-14.105	28.175	-86.17	0.768356	0.21228	0.298168	-0.6	0.1995	0.2445	0	307	426	1
2026-02-19	12:41:04.370	-8.995	27.825	-80.22	0.58072	0.150304	0.262056	-0.588	0.1935	0.2385	0	307	426	1
2026-02-19	12:41:04.390	-3.5	23.03	-66.5	0.453596	0.1525	0.242048	-0.582	0.195	0.24	0	307	426	1
2026-02-19	12:41:04.410	8.645	18.2	-52.85	0.401868	0.171776	0.233752	-0.561	0.1665	0.24	0	302	423	3
2026-02-19	12:41:04.430	13.265	13.44	-41.475	0.396988	0.174704	0.254248	-0.561	0.174	0.2355	0	302	423	3
2026-02-19	12:41:04.450	16.625	5.25	-30.625	0.431392	0.299632	0.26352	-0.558	0.1695	0.2355	0	302	423	3
2026-02-19	12:41:04.470	7.315	-5.88	-22.68	0.511424	0.380396	0.27572	-0.5505	0.162	0.2385	0	302	423	3
2026-02-19	12:41:04.490	-4.27	-14.525	-16.695	0.643184	0.394304	0.352336	-0.5445	0.156	0.243	0	302	423	3
2026-02-19	12:41:04.510	-3.22	-21.735	-11.795	0.79422	0.452132	0.407236	-0.549	0.156	0.2415	0	302	423	3
2026-02-19	12:41:04.530	3.71	-26.39	-6.37	0.88938	0.424072	0.4758	-0.555	0.159	0.2385	0	302	423	3
2026-02-19	12:41:04.550	-0.455	-28.49	-3.36	0.885964	0.416264	0.542656	-0.5535	0.156	0.24	0	302	423	3
2026-02-19	12:41:04.570	-5.005	-28.21	-1.96	0.840336	0.318908	0.510448	-0.5505	0.1575	0.243	0	302	423	3
2026-02-19	12:41:04.590	-3.465	-27.3	-1.295	0.797392	0.310856	0.57584	-0.555	0.162	0.243	0	302	423	3
2026-02-19	12:41:04.610	-0.455	-26.705	0.595	0.806176	0.298168	0.518256	-0.558	0.156	0.246	0	303	410	3
2026-02-19	12:41:04.630	7.175	-29.26	4.305	0.862052	0.203496	0.518988	-0.558	0.1515	0.252	0	303	410	3
2026-02-19	12:41:04.650	6.58	-33.845	14.245	0.891332	0.165188	0.52216	-0.561	0.153	0.2535	0	303	410	3
2026-02-19	12:41:04.670	-5.705	-37.45	22.89	0.87962	0.17568	0.511424	-0.5625	0.1545	0.255	0	303	410	3
2026-02-19	12:41:04.690	-18.025	-38.22	24.29	0.859124	0.176656	0.474092	-0.5805	0.159	0.2685	0	303	410	3
2026-02-19	12:41:04.710	-15.925	-38.92	26.215	0.870104	0.192272	0.41724	-0.5805	0.165	0.261	0	303	410	3
2026-02-19	12:41:04.730	-7.49	-39.34	33.915	1.493524	-0.002928	0.193248	-0.5895	0.1635	0.276	0	303	410	3
2026-02-19	12:41:04.750	-9.17	9.485	-0.525	1.421788	1.086776	0.838872	-0.591	0.1665	0.2715	0	303	410	3
2026-02-19	12:41:04.770	8.68	-3.22	-8.89	1.183156	0.802028	0.523868	-0.5955	0.1725	0.267	0	303	410	3
2026-02-19	12:41:04.790	1.75	-21.035	-21.14	0.76372	0.025376	0.064172	-0.5925	0.171	0.264	0	303	410	3
2026-02-19	12:41:04.810	4.935	-18.13	-7.28	0.773968	-0.168848	-0.09028	-0.588	0.168	0.2655	0	306	407	3
2026-02-19	12:41:04.830	-5.32	-14.455	20.44	1.142408	0.148108	0.0854	-0.591	0.1635	0.2715	0	306	407	3
2026-02-19	12:41:04.850	10.01	-29.925	38.045	1.114836	0.369172	0.258396	-0.594	0.1665	0.276	0	306	407	3
2026-02-19	12:41:04.870	13.545	-46.55	43.47	0.890112	0.310368	0.170068	-0.5985	0.177	0.2775	0	306	407	3
2026-02-19	12:41:04.890	-21.245	-46.795	36.89	0.876936	0.192028	0.139568	-0.6105	0.1785	0.2805	0	306	407	3
2026-02-19	12:41:04.910	-43.435	-42.665	24.955	0.908412	0.13176	0.171044	-0.618	0.177	0.2895	0	306	407	3
2026-02-19	12:41:04.930	-42.665	-38.57	13.965	0.936716	0.15494	0.269376	-0.6225	0.1815	0.288	0	306	407	3
2026-02-19	12:41:04.950	-23.38	-30.94	2.275	0.940864	0.191296	0.658312	-0.627	0.1875	0.282	0	306	407	3
2026-02-19	12:41:04.970	-10.85	-19.25	-0.665	0.929396	0.016836	0.782508	-0.6345	0.192	0.288	0	306	407	3
2026-02-19	12:41:04.990	20.545	7	10.15	0.986004	0.102724	0.771528	-0.6345	0.189	0.297	0	306	407	3
2026-02-19	12:41:05.010	43.505	29.26	25.48	0.940132	0.347944	0.491416	-0.6255	0.1965	0.294	0	312	398	3
2026-02-19	12:41:05.030	34.405	28.945	31.325	0.898652	0.503616	0.281332	-0.633	0.192	0.2985	0	312	398	3
2026-02-19	12:41:05.050	15.19	19.215	24.255	0.872544	0.559492	0.216184	-0.6315	0.192	0.297	0	312	398	3
2026-02-19	12:41:05.070	8.225	12.915	17.255	0.842776	0.560224	0.350628	-0.6315	0.195	0.3	0	312	398	3
2026-02-19	12:41:05.090	5.145	15.75	12.775	0.825452	0.48068	0.39406	-0.6345	0.195	0.2985	0	312	398	3
2026-02-19	12:41:05.110	-7.735	15.575	9.555	0.887672	0.365024	0.331352	-0.636	0.192	0.294	0	312	398	3
2026-02-19	12:41:05.130	-14.56	6.615	9.415	0.903532	0.276208	0.32818	-0.633	0.1965	0.2895	0	312	398	3
2026-02-19	12:41:05.150	-18.095	-1.785	10.01	0.888892	0.17934	0.258152	-0.6345	0.2025	0.2895	0	312	398	3
2026-02-19	12:41:05.170	-19.355	-5.985	7.63	0.905484	0.177144	0.245464	-0.6345	0.204	0.288	0	312	398	3
2026-02-19	12:41:05.190	-20.755	-3.01	3.15	0.949892	0.16714	0.239852	-0.6345	0.207	0.2835	0	312	398	3
2026-02-19	12:41:05.210	-11.935	-0.455	5.04	0.970876	0.070272	0.191784	-0.636	0.2085	0.282	0	316	390	3
2026-02-19	12:41:05.230	0.595	-1.715	13.23	0.923296	0.122732	0.399428	-0.6375	0.2115	0.2835	0	316	390	3
2026-02-19	12:41:05.250	-7.805	2.17	10.395	0.909388	0.187636	0.473116	-0.6375	0.2115	0.2835	0	316	390	3
2026-02-19	12:41:05.270	-10.64	9.345	11.41	0.900848	0.130784	0.430904	-0.6435	0.2085	0.2805	0	316	390	3
2026-02-19	12:41:05.290	-10.43	13.09	17.045	0.925248	0.177632	0.475556	-0.6375	0.207	0.279	0	316	390	3
2026-02-19	12:41:05.310	-9.8	13.615	21.665	0.93696	0.11346	0.468968	-0.636	0.216	0.276	0	316	390	3
2026-02-19	12:41:05.330	-4.655	16.555	24.395	0.920612	0.047092	0.366	-0.6315	0.231	0.2715	0	316	390	3
2026-02-19	12:41:05.350	-8.225	20.195	25.62	0.962336	0.095404	0.335256	-0.645	0.2205	0.27	0	316	390	3
2026-02-19	12:41:05.370	-15.61	18.025	23.695	0.984052	0.007564	0.2562	-0.645	0.2235	0.2715	0	316	390	3
2026-02-19	12:41:05.390	-10.185	18.48	23.275	1.002108	-0.074664	0.158356	-0.645	0.231	0.2745	0	316	390	3
2026-02-19	12:41:05.410	-1.225	23.66	23.835	1.033828	-0.016348	0.058072	-0.6465	0.2385	0.27	0	316	380	2
2026-02-19	12:41:05.430	3.605	21	23.555	1.05774	0.132492	0.149572	-0.645	0.24	0.267	0	316	380	2
2026-02-19	12:41:05.450	6.02	10.115	20.23	1.01138	0.22326	0.10736	-0.6405	0.24	0.267	0	316	380	2
2026-02-19	12:41:05.470	16.94	5.11	14.735	0.967948	0.16592	0.012688	-0.6405	0.2415	0.267	0	316	380	2
2026-02-19	12:41:05.490	9.275	0.945	12.075	1.01504	0.350628	0.087596	-0.636	0.2445	0.267	0	316	380	2
2026-02-19	12:41:05.510	1.89	-18.725	2.485	0.847168	0.322812	0.274256	-0.6315	0.2475	0.267	0	316	380	2
2026-02-19	12:41:05.530	0.875	-15.75	-9.695	0.872056	0.252052	0.423096	-0.6315	0.2475	0.267	0	316	380	2
2026-02-19	12:41:05.550	5.53	-14.49	-13.79	0.831064	0.15616	0.69052	-0.6465	0.237	0.2685	0	316	380	2
2026-02-19	12:41:05.570	3.395	-11.13	-7.945	0.80398	0.0793	0.830088	-0.6525	0.2325	0.273	0	316	380	2
2026-02-19	12:41:05.590	-2.66	1.05	1.925	0.828868	0.068808	0.875472	-0.648	0.2325	0.2745	0	316	380	2
2026-02-19	12:41:05.610	-2.975	15.085	13.65	0.80886	0.112728	0.732976	-0.6525	0.2415	0.267	0	312	370	2
2026-02-19	12:41:05.630	-1.925	24.71	16.66	0.764452	0.285968	0.67832	-0.6435	0.2325	0.273	0	312	370	2
2026-02-19	12:41:05.650	-12.495	30.695	11.55	0.760304	0.350628	0.678564	-0.645	0.237	0.276	0	312	370	2
2026-02-19	12:41:05.670	-23.345	30.1	9.065	0.71736	0.405528	0.736148	-0.6435	0.24	0.273	0	312	370	2
2026-02-19	12:41:05.690	-11.375	26.32	8.26	0.592432	0.524112	0.909144	-0.642	0.246	0.2655	0	312	370	2
2026-02-19	12:41:05.710	-8.785	24.395	-0.56	0.501176	0.657824	1.044808	-0.645	0.2505	0.258	0	312	370	2
2026-02-19	12:41:05.730	-3.745	20.44	-17.29	0.52826	0.492148	0.961604	-0.642	0.2505	0.2595	0	312	370	2
2026-02-19	12:41:05.750	29.225	13.37	-35.245	0.70516	0.283284	0.720532	-0.633	0.252	0.2535	0	312	370	2
2026-02-19	12:41:05.770	41.125	4.41	-41.23	0.89792	0.003416	0.486536	-0.6315	0.2445	0.249	0	312	370	2
2026-02-19	12:41:05.790	29.33	-6.93	-20.16	1.284416	-0.4209	0.104188	-0.633	0.237	0.255	0	312	370	2
2026-02-19	12:41:05.810	25.97	11.34	5.285	1.70922	-0.304756	0.126392	-0.633	0.237	0.255	0	311	398	3
2026-02-19	12:41:05.830	28.35	49.98	-5.39	1.867576	-0.028792	0.310856	-0.624	0.225	0.261	0	311	398	3
2026-02-19	12:41:05.850	46.83	64.435	-34.125	1.55428	-0.00244	0.219844	-0.612	0.2295	0.255	0	311	398	3
2026-02-19	12:41:05.870	34.65	63.84	-63.315	1.269044	0.051484	0.163236	-0.6075	0.2145	0.261	0	311	398	3
2026-02-19	12:41:05.890	5.25	58.485	-78.365	1.124352	0.017324	0.17324	-0.603	0.2115	0.2535	0	311	398	3
2026-02-19	12:41:05.910	-4.235	52.395	-82.04	1.039684	-0.05978	0.189344	-0.588	0.216	0.2505	0	311	398	3
2026-02-19	12:41:05.930	2.03	49.245	-78.75	0.94794	0.032452	0.25132	-0.576	0.192	0.249	0	311	398	3
2026-02-19	12:41:05.950	6.685	46.095	-69.125	0.833016	0.089792	0.284016	-0.558	0.201	0.234	0	311	398	3
2026-02-19	12:41:05.970	12.495	40.915	-58.415	0.720288	0.174948	0.266448	-0.555	0.1935	0.2325	0	311	398	3
2026-02-19	12:41:05.990	16.94	33.705	-46.83	0.608048	0.205204	0.254492	-0.549	0.1875	0.234	0	311	398	3
2026-02-19	12:41:06.010	18.55	24.185	-33.67	0.525088	0.23424	0.256932	-0.5415	0.1785	0.231	0	317	417	3
2026-02-19	12:41:06.030	17.43	13.545	-22.54	0.451156	0.264252	0.265472	-0.531	0.171	0.2325	0	317	417	3
2026-02-19	12:41:06.050	14.525	1.295	-13.335	0.432368	0.349164	0.335744	-0.5265	0.1695	0.237	0	317	417	3
2026-02-19	12:41:06.070	6.335	-12.46	-8.68	0.434076	0.395524	0.37698	-0.528	0.1665	0.237	0	317	417	3
2026-02-19	12:41:06.090	3.01	-20.23	-7.14	0.473848	0.504836	0.487512	-0.528	0.1665	0.237	0	317	417	3
2026-02-19	12:41:06.110	-0.945	-22.155	-6.3	0.486536	0.381372	0.578768	-0.528	0.1575	0.246	0	317	417	3
2026-02-19	12:41:06.130	8.505	-22.225	-6.125	0.515328	0.432124	0.654408	-0.525	0.1635	0.2415	0	317	417	3
2026-02-19	12:41:06.150	13.475	-16.94	-8.4	0.549732	0.511912	0.659288	-0.5265	0.159	0.231	0	317	417	3
2026-02-19	12:41:06.170	16.24	-18.34	-10.57	0.634644	0.553148	0.678808	-0.531	0.156	0.249	0	317	417	3
2026-02-19	12:41:06.190	26.635	-24.535	-7.63	0.734684	0.516792	0.70882	-0.531	0.165	0.2505	0	317	417	3
2026-02-19	12:41:06.210	27.965	-28.98	-1.785	0.8357	0.566324	0.753472	-0.5235	0.1545	0.261	0	328	423	3
2026-02-19	12:41:06.230	15.085	-34.405	5.53	0.903044	0.515084	0.723948	-0.5325	0.1545	0.258	0	328	423	3
2026-02-19	12:41:06.250	7.7	-38.185	11.725	0.90646	0.44042	0.647576	-0.5355	0.1515	0.273	0	328	423	3
2026-02-19	12:41:06.270	13.09	-39.76	15.715	0.925492	0.424316	0.601704	-0.543	0.156	0.2655	0	328	423	3
2026-02-19	12:41:06.290	14.175	-39.34	16.765	0.915488	0.440176	0.572912	-0.5445	0.1515	0.27	0	328	423	3
2026-02-19	12:41:06.310	6.09	-35.56	13.44	0.868396	0.376492	0.508984	-0.546	0.1545	0.2775	0	328	423	3
2026-02-19	12:41:06.330	5.985	-30.94	8.12	0.852048	0.359412	0.423828	-0.552	0.1545	0.282	0	328	423	3
2026-02-19	12:41:06.350	2.975	-32.585	7.07	0.848876	0.350384	0.359656	-0.558	0.153	0.282	0	328	423	3
2026-02-19	12:41:06.370	-7.98	-39.83	9.065	0.879132	0.339648	0.293532	-0.558	0.156	0.2805	0	328	423	3
2026-02-19	12:41:06.390	-14.42	-42.315	10.5	0.92232	0.376492	0.258152	-0.561	0.1515	0.2925	0	328	423	3
2026-02-19	12:41:06.410	-10.745	-42.245	11.13	0.917928	0.395524	0.244976	-0.57	0.1575	0.2865	0	339	439	3
2026-02-19	12:41:06.430	-8.715	-41.545	12.145	0.89792	0.397476	0.275232	-0.5745	0.159	0.2925	0	339	439	3
2026-02-19	12:41:06.450	-14.14	-45.64	14.42	0.892796	0.40626	0.300852	-0.5625	0.171	0.3	0	339	439	3
2026-02-19	12:41:06.470	-39.235	-29.855	16.205	1.606984	0.844484	-0.001708	-0.582	0.1785	0.297	0	339	439	3
2026-02-19	12:41:06.490	-12.18	-1.855	-24.885	1.357128	0.60146	0.547292	-0.579	0.1725	0.294	0	339	439	3
2026-02-19	12:41:06.510	-47.425	-19.075	-25.725	0.839848	0.537288	0.48312	-0.585	0.1725	0.2985	0	339	439	3
2026-02-19	12:41:06.530	-51.73	-24.5	-26.915	0.7442	0.18422	0.1647	-0.582	0.1635	0.297	0	339	439	3
2026-02-19	12:41:06.550	-54.145	-17.5	-7.07	0.713944	-0.109068	0.165676	-0.5805	0.171	0.2955	0	339	439	3
2026-02-19	12:41:06.570	-44.205	-17.955	23.03	1.037488	0.29402	0.434808	-0.5775	0.177	0.297	0	339	439	3
2026-02-19	12:41:06.590	-10.395	-20.51	38.36	1.01626	0.571936	0.56974	-0.579	0.1755	0.294	0	339	439	3
2026-02-19	12:41:06.610	27.755	-26.075	42.105	0.826428	0.325496	0.380884	-0.5835	0.1785	0.294	0	348	438	3
2026-02-19	12:41:06.630	24.99	-27.895	34.86	0.739564	0.343064	0.292312	-0.591	0.1845	0.2985	0	348	438	3
2026-02-19	12:41:06.650	-26.04	-21.77	14.315	0.88328	0.47336	0.378932	-0.5955	0.1875	0.303	0	348	438	3
2026-02-19	12:41:06.670	-50.68	-21.805	3.045	0.926468	0.572668	0.377224	-0.603	0.192	0.3015	0	348	438	3
2026-02-19	12:41:06.690	-47.11	-26.25	-4.305	0.851316	0.504836	0.340868	-0.612	0.1905	0.303	0	348	438	3
2026-02-19	12:41:06.710	-30.975	-20.86	-8.925	0.792756	0.35014	0.290116	-0.6075	0.1965	0.3045	0	348	438	3
2026-02-19	12:41:06.730	-6.195	-9.8	-6.93	0.84302	0.492636	0.432612	-0.615	0.192	0.303	0	348	438	3
2026-02-19	12:41:06.750	8.715	-4.515	-10.92	0.778848	0.566812	0.553392	-0.609	0.201	0.306	0	348	438	3
2026-02-19	12:41:06.770	-2.73	1.365	-19.74	0.738588	0.425536	0.557296	-0.612	0.195	0.2985	0	348	438	3
2026-02-19	12:41:06.790	-7.28	13.685	-23.24	0.78324	0.354776	0.56486	-0.612	0.1965	0.3015	0	348	438	3
2026-02-19	12:41:06.810	3.955	24.465	-22.715	0.753228	0.337696	0.591944	-0.5985	0.1995	0.2955	0	354	430	3
2026-02-19	12:41:06.830	-3.08	31.92	-22.61	0.76982	0.186416	0.5429	-0.603	0.192	0.3045	0	354	430	3
2026-02-19	12:41:06.850	3.955	40.81	-15.155	0.843264	0.21594	0.644892	-0.594	0.1875	0.2955	0	354	430	3
2026-02-19	12:41:06.870	14.28	40.775	-7	0.813008	0.188368	0.615856	-0.5925	0.1845	0.294	0	354	430	3
2026-02-19	12:41:06.890	3.465	37.135	-0.525	0.820816	0.11102	0.358436	-0.591	0.1845	0.291	0	354	430	3
2026-02-19	12:41:06.910	-12.285	39.34	5.285	0.891332	0.219844	0.339892	-0.591	0.1845	0.2925	0	354	430	3
2026-02-19	12:41:06.930	2.135	31.71	10.36	0.973804	0.156404	-0.010492	-0.591	0.1845	0.2955	0	354	430	3
2026-02-19	12:41:06.950	-7.315	33.04	7.7	1.038708	0.30866	-0.05734	-0.591	0.1845	0.2955	0	354	430	3
2026-02-19	12:41:06.970	-24.15	26.74	3.605	1.052128	0.305488	-0.077348	-0.576	0.195	0.279	0	354	430	3
2026-02-19	12:41:06.990	-8.4	17.08	-0.315	0.98576	0.313052	-0.152744	-0.57	0.1995	0.2715	0	354	430	3
2026-02-19	12:41:07.010	1.61	19.81	-4.235	0.932812	0.535092	0.14396	-0.5745	0.2025	0.273	0	355	419	1
2026-02-19	12:41:07.030	5.845	14.455	-7.805	0.87718	0.533872	0.23424	-0.5715	0.1995	0.2715	0	355	419	1
2026-02-19	12:41:07.050	9.52	7.77	-12.215	0.815448	0.492148	0.207644	-0.573	0.198	0.2655	0	355	419	1
2026-02-19	12:41:07.070	7.175	9.73	-14.07	0.797636	0.448228	0.434808	-0.5655	0.1965	0.27	0	355	419	1
2026-02-19	12:41:07.090	12.425	8.96	-9.52	0.943304	0.177144	0.466528	-0.57	0.189	0.273	0	355	419	1
2026-02-19	12:41:07.110	37.45	4.235	3.5	1.131184	-0.128832	0.32086	-0.57	0.198	0.27	0	355	419	1
2026-02-19	12:41:07.130	28.245	-5.005	13.37	1.119716	-0.049776	0.418948	-0.57	0.1875	0.2625	0	355	419	1
2026-02-19	12:41:07.150	-12.915	-12.845	16.205	1.154608	-0.180072	0.368928	-0.5745	0.192	0.2745	0	355	419	1
2026-02-19	12:41:07.170	-21.315	-13.93	23.03	1.158024	-0.155184	0.39406	-0.5715	0.198	0.279	0	355	419	1
2026-02-19	12:41:07.190	-7.77	-11.62	30.87	1.05286	-0.077348	0.357216	-0.5745	0.1935	0.2775	0	355	419	1
2026-02-19	12:41:07.210	-10.115	1.47	48.405	1.069208	-0.041236	0.45262	-0.5775	0.189	0.2775	0	352	394	3
2026-02-19	12:41:07.230	5.46	2.205	57.435	1.05896	-0.025376	0.396256	-0.5775	0.189	0.2775	0	352	394	3
2026-02-19	12:41:07.250	2.135	3.71	57.435	1.069696	-0.011468	0.316956	-0.588	0.201	0.2775	0	352	394	3
2026-02-19	12:41:07.270	-14.455	4.165	56.805	1.103612	-0.010736	0.27938	-0.5865	0.2205	0.2835	0	352	394	3
2026-02-19	12:41:07.290	-17.185	-0.105	60.48	1.109712	0.025376	0.231068	-0.606	0.2295	0.282	0	352	394	3
2026-02-19	12:41:07.310	-7.665	-5.25	66.71	1.067256	0.078568	0.263276	-0.609	0.2235	0.2805	0	352	394	3
2026-02-19	12:41:07.330	-1.82	-4.83	71.295	1.024312	0.019276	0.236192	-0.603	0.246	0.2745	0	352	394	3
2026-02-19	12:41:07.350	6.65	-4.655	72.905	1.010648	0.166164	0.220576	-0.6	0.2505	0.2745	0	352	394	3
2026-02-19	12:41:07.370	7.35	-7.245	70.245	0.99186	0.188368	0.292068	-0.6165	0.2595	0.273	0	352	394	3
2026-02-19	12:41:07.390	0.315	-11.55	64.645	0.979416	0.182024	0.283284	-0.6225	0.252	0.2775	0	352	394	3
2026-02-19	12:41:07.410	0.315	-11.62	62.58	0.99186	0.091012	0.234484	-0.6285	0.261	0.282	0	348	371	3
2026-02-19	12:41:07.430	8.225	-7.28	65.87	1.000644	0.044652	0.226676	-0.6315	0.267	0.2775	0	348	371	3
2026-02-19	12:41:07.450	11.06	-4.06	68.46	1.020164	0.040748	0.262056	-0.6375	0.2715	0.279	0	348	371	3
2026-02-19	12:41:07.470	17.255	-5.67	68.775	1.01992	0.005368	0.236192	-0.6525	0.2865	0.2835	0	348	371	3
2026-02-19	12:41:07.490	22.68	-7.875	65.065	1.056276	0.025864	0.162016	-0.642	0.2895	0.2865	0	348	371	3
2026-02-19	12:41:07.510	17.22	-17.71	66.57	1.006744	0.076616	0.237412	-0.642	0.2895	0.2865	0	348	371	3
2026-02-19	12:41:07.530	20.685	-31.045	64.855	0.934032	0.108336	0.333792	-0.657	0.3	0.2955	0	348	371	3
2026-02-19	12:41:07.550	22.05	-37.45	56.84	0.899628	0.228384	0.394548	-0.669	0.312	0.2955	0	348	371	3
2026-02-19	12:41:07.570	33.04	-41.615	46.935	0.89914	0.296216	0.457988	-0.672	0.312	0.3045	0	348	371	3
2026-02-19	12:41:07.590	53.83	-43.505	34.79	0.86376	0.38796	0.553636	-0.6735	0.321	0.3105	0	348	371	3
2026-02-19	12:41:07.610	65.975	-42.385	16.205	0.85522	0.468236	0.601948	-0.6825	0.315	0.312	0	339	354	3
2026-02-19	12:41:07.630	75.04	-39.935	-2.975	0.836188	0.471652	0.679296	-0.6915	0.3195	0.327	0	339	354	3
2026-02-19	12:41:07.650	69.23	-35.455	-17.43	0.84424	0.525576	0.708088	-0.6885	0.318	0.336	0	339	354	3
2026-02-19	12:41:07.670	58.065	-20.51	-23.695	0.824232	0.496784	0.709796	-0.6885	0.3045	0.345	0	339	354	3
2026-02-19	12:41:07.690	64.785	-2.765	-26.74	0.85034	0.483364	0.694668	-0.684	0.2985	0.3465	0	339	354	3
2026-02-19	12:41:07.710	76.615	24.29	-34.37	0.941596	0.503128	0.75274	-0.699	0.291	0.354	0	339	354	3
2026-02-19	12:41:07.730	71.505	49.56	-49.875	1.031388	0.537532	0.81862	-0.6915	0.2775	0.36	0	339	354	3
2026-02-19	12:41:07.750	55.93	49.84	-63.77	0.988444	0.33672	0.642452	-0.681	0.2775	0.3525	0	339	354	3
2026-02-19	12:41:07.770	36.05	44.065	-77.665	0.991616	0.141032	0.520696	-0.6735	0.261	0.351	0	339	354	3
2026-02-19	12:41:07.790	5.145	34.195	-83.02	0.97112	-0.003172	0.4331	-0.666	0.249	0.336	0	339	354	3
2026-02-19	12:41:07.810	-8.015	29.96	-82.81	0.913048	0.028792	0.47824	-0.657	0.249	0.339	0	329	373	3
2026-02-19	12:41:07.830	-15.715	31.535	-83.51	0.826672	0.119804	0.447252	-0.6495	0.2385	0.336	0	329	373	3
2026-02-19	12:41:07.850	-13.335	32.55	-81.655	0.710528	0.15128	0.423828	-0.645	0.225	0.3285	0	329	373	3
2026-02-19	12:41:07.870	-12.355	30.975	-79.765	0.616832	0.262544	0.413336	-0.633	0.225	0.3255	0	329	373	3
2026-02-19	12:41:07.890	-18.41	26.145	-77	0.560468	0.30134	0.37942	-0.6255	0.213	0.324	0	329	373	3
2026-02-19	12:41:07.910	-18.515	21.07	-73.325	0.50874	0.347944	0.380152	-0.612	0.195	0.321	0	329	373	3
2026-02-19	12:41:07.930	-14.21	16.31	-67.97	0.482876	0.333792	0.395524	-0.603	0.201	0.306	0	329	373	3
2026-02-19	12:41:07.950	-8.33	16.275	-61.285	0.501176	0.355264	0.439932	-0.6015	0.192	0.3135	0	329	373	3
2026-02-19	12:41:07.970	-4.9	15.61	-52.15	0.539484	0.381128	0.417972	-0.588	0.1905	0.3165	0	329	373	3
2026-02-19	12:41:07.990	-1.575	15.12	-42.105	0.61854	0.335988	0.38918	-0.5805	0.183	0.3075	0	329	373	3
2026-02-19	12:41:08.010	22.82	10.605	-28	0.7198	0.338916	0.425048	-0.5805	0.183	0.3075	0	320	406	3
2026-02-19	12:41:08.030	33.39	8.225	-20.615	0.828868	0.413824	0.530212	-0.5745	0.18	0.3105	0	320	406	3
2026-02-19	12:41:08.050	20.335	7.735	-13.615	0.963556	0.498004	0.528748	-0.573	0.1785	0.3075	0	320	406	3
2026-02-19	12:41:08.070	14.56	6.37	-13.335	1.034072	0.50752	0.51118	-0.573	0.1785	0.3075	0	320	406	3
2026-02-19	12:41:08.090	17.5	4.83	-17.955	1.052616	0.49532	0.47702	-0.573	0.1785	0.3075	0	320	406	3
2026-02-19	12:41:08.110	16.625	-1.75	-20.58	1.044564	0.39772	0.439932	-0.558	0.177	0.309	0	320	406	3
2026-02-19	12:41:08.130	10.22	-8.89	-18.585	1.016748	0.310612	0.374296	-0.561	0.1725	0.3105	0	320	406	3
2026-02-19	12:41:08.150	4.655	-12.075	-14.42	0.930372	0.274744	0.3416	-0.57	0.162	0.312	0	320	406	3
2026-02-19	12:41:08.170	2.695	-17.5	-11.515	0.8418	0.223992	0.301584	-0.5565	0.162	0.324	0	320	406	3
2026-02-19	12:41:08.190	-1.925	-24.22	-9.345	0.825452	0.21472	0.305732	-0.564	0.162	0.312	0	320	406	3
2026-02-19	12:41:08.210	-12.95	-31.395	-7.21	0.879376	0.237656	0.309148	-0.558	0.1605	0.3195	0	312	426	3
2026-02-19	12:41:08.230	-25.095	-37.345	-3.325	0.915976	0.24644	0.31598	-0.552	0.1725	0.318	0	312	426	3
2026-02-19	12:41:08.250	-32.025	-41.545	0.98	0.944768	0.266936	0.337696	-0.567	0.162	0.3225	0	312	426	3
2026-02-19	12:41:08.270	-39.34	-42.945	4.69	0.931348	0.293532	0.338672	-0.564	0.1815	0.3255	0	312	426	3
2026-02-19	12:41:08.290	-45.22	-46.34	7.805	0.92232	0.33062	0.346724	-0.5685	0.183	0.3195	0	312	426	3
2026-02-19	12:41:08.310	-49.105	-48.475	10.675	0.93818	0.33672	0.335988	-0.5685	0.18	0.3255	0	312	426	3
2026-02-19	12:41:08.330	-43.925	-49.665	13.195	0.946964	0.326716	0.329888	-0.5775	0.1905	0.3195	0	312	426	3
2026-02-19	12:41:08.350	-29.61	-46.97	19.005	0.937936	0.238388	0.316468	-0.5775	0.1905	0.3195	0	312	426	3
2026-02-19	12:41:08.370	-59.22	-11.025	9.73	1.640168	0.686616	0.62342	-0.5835	0.1905	0.321	0	312	426	3
2026-02-19	12:41:08.390	-20.125	-3.5	-9.1	1.075308	0.339404	0.437492	-0.5895	0.1905	0.324	0	312	426	3
2026-02-19	12:41:08.410	-36.12	-28.945	-7.35	0.91866	0.183488	0.199348	-0.588	0.1935	0.324	0	304	425	3
2026-02-19	12:41:08.430	-41.265	-36.26	13.51	0.92476	0.076372	0.172508	-0.5925	0.1965	0.3315	0	304	425	3
2026-02-19	12:41:08.450	-49.49	-43.19	35.805	1.06628	0.20984	0.321348	-0.597	0.201	0.324	0	304	425	3
2026-02-19	12:41:08.470	-23.94	-51.31	45.115	0.891088	0.330132	0.287188	-0.6045	0.213	0.309	0	304	425	3
2026-02-19	12:41:08.490	-2.24	-50.855	48.3	0.82228	0.244732	0.281332	-0.615	0.213	0.324	0	304	425	3
2026-02-19	12:41:08.510	-9.275	-43.05	33.005	0.792512	0.35624	0.400404	-0.612	0.219	0.3285	0	304	425	3
2026-02-19	12:41:08.530	-35.455	-32.34	8.015	0.85278	0.450668	0.425048	-0.618	0.2235	0.339	0	304	425	3
2026-02-19	12:41:08.550	-43.855	-22.785	-12.18	0.849364	0.3477	0.398452	-0.6225	0.2235	0.3405	0	304	425	3
2026-02-19	12:41:08.570	-26.81	-14.84	-16.38	0.917684	0.368196	0.43676	-0.63	0.228	0.333	0	304	425	3
2026-02-19	12:41:08.590	4.655	-7.105	-12.075	0.8479	0.370636	0.490928	-0.624	0.231	0.3315	0	304	425	3
2026-02-19	12:41:08.610	5.425	1.015	-7.98	0.803736	0.406992	0.47458	-0.624	0.2205	0.336	0	296	413	3
2026-02-19	12:41:08.630	-12.285	11.655	-8.75	0.873276	0.506544	0.553148	-0.63	0.228	0.3345	0	296	413	3
2026-02-19	12:41:08.650	-13.755	11.935	-12.18	0.790072	0.413824	0.525576	-0.6255	0.2265	0.3375	0	296	413	3
2026-02-19	12:41:08.670	-19.145	17.57	-13.93	0.766892	0.399672	0.504592	-0.6255	0.225	0.3375	0	296	413	3
2026-02-19	12:41:08.690	-24.08	21.175	-13.475	0.81984	0.40138	0.570472	-0.6285	0.225	0.336	0	296	413	3
2026-02-19	12:41:08.710	-17.08	20.125	-12.565	0.804224	0.259372	0.477996	-0.6135	0.222	0.3315	0	296	413	3
2026-02-19	12:41:08.730	-11.27	27.615	-12.11	0.849364	0.113948	0.264252	-0.6105	0.2235	0.327	0	296	413	3
2026-02-19	12:41:08.750	-12.74	34.23	-7.315	0.959896	0.199592	0.209108	-0.609	0.2175	0.324	0	296	413	3
2026-02-19	12:41:08.770	-4.235	27.58	-2.45	0.953796	0.175436	0.118828	-0.6075	0.2265	0.324	0	296	413	3
2026-02-19	12:41:08.790	10.64	22.295	-5.985	0.97722	0.143716	0.009028	-0.6015	0.219	0.3225	0	296	413	3
2026-02-19	12:41:08.810	13.825	25.305	-11.2	0.992348	0.245464	-0.007076	-0.606	0.216	0.315	0	288	403	1
2026-02-19	12:41:08.830	10.99	19.775	-16.275	0.97966	0.384788	0.034648	-0.6	0.228	0.3165	0	288	403	1
2026-02-19	12:41:08.850	14.49	13.02	-16.135	0.977708	0.495076	0.109068	-0.6045	0.213	0.324	0	288	403	1
2026-02-19	12:41:08.870	5.39	10.36	-14.035	0.797392	0.74298	0.165432	-0.6	0.216	0.315	0	288	403	1
2026-02-19	12:41:08.890	-1.12	1.295	-19.81	0.702476	0.743712	0.249368	-0.6	0.2145	0.3165	0	288	403	1
2026-02-19	12:41:08.910	10.465	3.08	-24.08	0.722972	0.597068	0.44042	-0.5955	0.2115	0.3105	0	288	403	1
2026-02-19	12:41:08.930	22.05	7.105	-21.98	0.759572	0.396988	0.335744	-0.5955	0.207	0.3135	0	288	403	1
2026-02-19	12:41:08.950	16.345	9.345	-24.22	0.878644	0.224236	0.35624	-0.5925	0.2025	0.312	0	288	403	1
2026-02-19	12:41:08.970	-0.315	9.765	-22.995	0.906948	0.132736	0.478484	-0.588	0.198	0.3105	0	288	403	1
2026-02-19	12:41:08.990	-3.885	9.94	-14.35	0.937692	-0.056852	0.527284	-0.5865	0.192	0.3135	0	288	403	1
2026-02-19	12:41:09.010	5.74	17.325	0.35	0.977464	-0.050508	0.660508	-0.5865	0.1905	0.3165	0	282	382	3
2026-02-19	12:41:09.030	17.08	19.46	12.215	1.0614	-0.10004	0.580964	-0.5835	0.1875	0.318	0	282	382	3
2026-02-19	12:41:09.050	14.735	15.47	21.63	1.242692	-0.222284	0.271328	-0.5835	0.1965	0.312	0	282	382	3
2026-02-19	12:41:09.070	-0.875	9.8	38.85	1.225124	-0.09638	0.32086	-0.5895	0.192	0.315	0	282	382	3
2026-02-19	12:41:09.090	-6.58	-0.035	45.325	1.1102	0.072712	0.316468	-0.5865	0.201	0.3135	0	282	382	3
2026-02-19	12:41:09.110	-7.245	-1.925	42.28	1.118252	-0.011712	0.135176	-0.594	0.1965	0.309	0	282	382	3
2026-02-19	12:41:09.130	-3.99	6.37	43.75	1.123376	0.16226	0.123464	-0.597	0.195	0.3045	0	282	382	3
2026-02-19	12:41:09.150	6.79	9.45	50.12	1.042124	0.272792	0.15982	-0.6	0.2025	0.309	0	282	382	3
2026-02-19	12:41:09.170	13.02	10.22	47.88	1.01504	0.301584	0.172264	-0.603	0.2115	0.3105	0	282	382	3
2026-02-19	12:41:09.190	5.95	4.34	42.7	1.030656	0.271328	0.257176	-0.6075	0.2145	0.309	0	282	382	3
2026-02-19	12:41:09.210	8.785	-2.1	40.46	1.029436	0.187392	0.229604	-0.6105	0.2175	0.3135	0	281	365	3
2026-02-19	12:41:09.230	7.455	-5.25	38.395	1.048468	0.20374	0.179828	-0.6165	0.2235	0.3165	0	281	365	3
2026-02-19	12:41:09.250	-5.635	-9.625	41.86	1.014796	0.201056	0.319152	-0.6195	0.2295	0.3135	0	281	365	3
2026-02-19	12:41:09.270	-11.41	-15.085	45.57	0.935496	0.1769	0.385032	-0.6225	0.231	0.312	0	281	365	3
2026-02-19	12:41:09.290	-2.905	-15.435	46.69	0.861564	0.198372	0.474092	-0.6285	0.237	0.3195	0	281	365	3
2026-02-19	12:41:09.310	0.07	-12.74	46.13	0.793	0.240584	0.61244	-0.6315	0.243	0.3255	0	281	365	3
2026-02-19	12:41:09.330	-4.97	-11.585	43.505	0.738588	0.3233	0.649284	-0.6345	0.2415	0.3255	0	281	365	3
2026-02-19	12:41:09.350	-6.125	-10.85	42.49	0.689544	0.275964	0.76982	-0.636	0.252	0.3255	0	281	365	3
2026-02-19	12:41:09.370	1.47	-7.49	40.565	0.726876	0.235216	0.752984	-0.6405	0.2535	0.324	0	281	365	3
2026-02-19	12:41:09.390	14.35	-7.105	42.525	0.773724	0.21594	0.724192	-0.6495	0.2595	0.318	0	281	365	3
2026-02-19	12:41:09.410	28.385	-10.36	44.555	0.843264	0.181048	0.598776	-0.651	0.258	0.321	0	280	361	3
2026-02-19	12:41:09.430	40.985	-15.89	44.45	0.91988	0.14762	0.517768	-0.6555	0.267	0.33	0	280	361	3
2026-02-19	12:41:09.450	50.89	-19.425	40.495	1.021628	0.10004	0.387472	-0.666	0.2745	0.3375	0	280	361	3
2026-02-19	12:41:09.470	53.165	5.425	35.455	1.225368	0.336476	0.325252	-0.663	0.2775	0.336	0	280	361	3
2026-02-19	12:41:09.490	37.52	39.655	13.895	1.340536	0.542656	0.372344	-0.663	0.2775	0.336	0	280	361	3
2026-02-19	12:41:09.510	38.43	41.16	-16.24	1.260992	0.531676	0.341112	-0.663	0.276	0.339	0	280	361	3
2026-02-19	12:41:09.530	15.68	38.885	-47.18	1.118984	0.5185	0.334036	-0.66	0.27	0.342	0	280	361	3
2026-02-19	12:41:09.550	-8.785	38.185	-69.055	1.041148	0.407236	0.361364	-0.6555	0.2625	0.342	0	280	361	3
2026-02-19	12:41:09.570	-20.825	37.8	-79.73	0.951112	0.27572	0.382592	-0.645	0.255	0.333	0	280	361	3
2026-02-19	12:41:09.590	-20.475	39.55	-83.44	0.856196	0.227652	0.405528	-0.633	0.2445	0.327	0	280	361	3
2026-02-19	12:41:09.610	-12.18	41.65	-81.69	0.766892	0.192028	0.436028	-0.6315	0.2415	0.33	0	280	379	3
2026-02-19	12:41:09.630	-9.695	42.875	-76.16	0.66612	0.189344	0.417972	-0.6285	0.231	0.324	0	280	379	3
2026-02-19	12:41:09.650	-15.015	40.355	-66.605	0.544608	0.151768	0.418948	-0.6225	0.225	0.3165	0	280	379	3
2026-02-19	12:41:09.670	-21.56	33.25	-52.675	0.434564	0.083448	0.32696	-0.6075	0.2175	0.309	0	280	379	3
2026-02-19	12:41:09.690	-9.415	23.695	-33.705	0.404308	-0.032696	0.320616	-0.603	0.21	0.3015	0	280	379	3
2026-02-19	12:41:09.710	1.96	20.16	-15.82	0.426024	0.0793	0.426268	-0.594	0.2085	0.2955	0	280	379	3
2026-02-19	12:41:09.730	-2.765	20.79	-3.675	0.54778	0.124928	0.498492	-0.594	0.2055	0.285	0	280	379	3
2026-02-19	12:41:09.750	11.515	17.43	0.805	0.64294	0.299632	0.572424	-0.5865	0.204	0.2925	0	280	379	3
2026-02-19	12:41:09.770	18.97	14.42	-2.66	0.745176	0.432124	0.598044	-0.5865	0.204	0.2925	0	280	379	3
2026-02-19	12:41:09.790	19.81	14.595	-8.96	0.82106	0.439688	0.611708	-0.588	0.201	0.291	0	280	379	3
2026-02-19	12:41:09.810	17.15	10.885	-14.595	0.830088	0.380152	0.567544	-0.5955	0.1995	0.291	0	282	398	3
2026-02-19	12:41:09.830	13.405	8.575	-17.85	0.762744	0.271816	0.507032	-0.5925	0.1995	0.291	0	282	398	3
2026-02-19	12:41:09.850	17.745	2.555	-16.135	0.70516	0.189344	0.458964	-0.5835	0.1965	0.294	0	282	398	3
2026-02-19	12:41:09.870	26.425	-4.97	-7.91	0.687348	0.127124	0.45018	-0.588	0.192	0.2985	0	282	398	3
2026-02-19	12:41:09.890	28.84	-10.92	4.165	0.765428	0.192516	0.519476	-0.591	0.189	0.297	0	282	398	3
2026-02-19	12:41:09.910	17.955	-16.205	13.825	0.846436	0.203496	0.519964	-0.5895	0.1875	0.2985	0	282	398	3
2026-02-19	12:41:09.930	13.51	-20.615	17.29	0.887428	0.237656	0.529968	-0.588	0.186	0.3075	0	282	398	3
2026-02-19	12:41:09.950	14.665	-23.135	17.01	0.918416	0.258152	0.538264	-0.5895	0.1905	0.309	0	282	398	3
2026-02-19	12:41:09.970	11.305	-26.18	16.555	0.987956	0.261812	0.550464	-0.5925	0.192	0.3075	0	282	398	3
2026-02-19	12:41:09.990	9.66	-31.605	18.27	1.07116	0.242536	0.520452	-0.6	0.1935	0.3135	0	282	398	3
2026-02-19	12:41:10.010	14.77	-32.865	20.685	1.083604	0.260836	0.50508	-0.603	0.195	0.324	0	282	422	3
2026-02-19	12:41:10.030	17.36	-31.465	22.785	1.024556	0.300608	0.480192	-0.5985	0.195	0.3225	0	282	422	3
2026-02-19	12:41:10.050	16.765	-32.9	19.565	0.911096	0.284504	0.389912	-0.5985	0.195	0.3225	0	282	422	3
2026-02-19	12:41:10.070	12.53	-36.995	16.73	0.864248	0.284748	0.336232	-0.609	0.1935	0.33	0	282	422	3
2026-02-19	12:41:10.090	3.395	-46.725	18.795	0.815204	0.291824	0.2867	-0.6195	0.1935	0.339	0	282	422	3
2026-02-19	12:41:10.110	-7.035	-54.075	25.935	1.3176	-0.199348	-0.554124	-0.6255	0.195	0.3465	0	282	422	3
2026-02-19	12:41:10.130	-31.745	-12.005	-4.13	1.207312	1.171688	1.2383	-0.636	0.1995	0.354	0	282	422	3
2026-02-19	12:41:10.150	-13.65	-31.85	-10.78	0.969168	0.474092	0.499224	-0.6405	0.2025	0.3525	0	282	422	3
2026-02-19	12:41:10.170	-19.425	-34.685	-15.89	0.763232	0.300364	0.243268	-0.636	0.1995	0.3525	0	282	422	3
2026-02-19	12:41:10.190	-64.33	-33.705	-7.42	0.77592	0.048556	0.13176	-0.6315	0.1965	0.351	0	282	422	3
2026-02-19	12:41:10.210	-58.45	-45.675	13.02	1.08824	0.295484	0.461404	-0.63	0.1935	0.354	0	282	435	3
2026-02-19	12:41:10.230	-36.89	-46.515	22.225	0.958188	0.373564	0.554124	-0.6285	0.1935	0.363	0	282	435	3
2026-02-19	12:41:10.250	-19.39	-40.46	19.705	0.75274	0.302316	0.472628	-0.6375	0.201	0.357	0	282	435	3
2026-02-19	12:41:10.270	-36.61	-26.81	5.53	0.765428	0.182024	0.398208	-0.6345	0.213	0.363	0	282	435	3
2026-02-19	12:41:10.290	-52.57	-18.165	-4.445	0.959408	0.205204	0.436028	-0.6525	0.213	0.3645	0	282	435	3
2026-02-19	12:41:10.310	-37.275	-14.14	-6.125	0.9577	0.187636	0.438712	-0.6435	0.2145	0.36	0	282	435	3
2026-02-19	12:41:10.330	-10.815	-5.95	-0.63	0.879132	0.062952	0.314028	-0.642	0.21	0.363	0	282	435	3
2026-02-19	12:41:10.350	-11.9	2.765	-0.805	0.923052	0.188124	0.27084	-0.6465	0.2085	0.363	0	282	435	3
2026-02-19	12:41:10.370	-17.325	8.155	-7.945	0.883524	0.273768	0.147376	-0.6465	0.2115	0.3615	0	282	435	3
2026-02-19	12:41:10.390	-26.075	11.9	-21.7	0.924028	0.264984	-0.032452	-0.6435	0.213	0.357	0	282	435	3
2026-02-19	12:41:10.410	-29.96	8.26	-27.72	1.092144	0.311832	-0.042212	-0.639	0.2085	0.351	0	282	429	3
2026-02-19	12:41:10.430	-19.53	-11.655	-19.53	1.080432	0.294752	0.005124	-0.6345	0.207	0.351	0	282	429	3
2026-02-19	12:41:10.450	-9.31	-26.67	-11.375	0.978684	0.256932	-0.000732	-0.636	0.2025	0.3525	0	282	429	3
2026-02-19	12:41:10.470	-19.81	-31.605	-13.09	0.96746	0.3904	0.17324	-0.6375	0.198	0.354	0	282	429	3
2026-02-19	12:41:10.490	-31.605	-38.99	-22.995	0.843752	0.366244	0.544364	-0.639	0.201	0.3555	0	282	429	3
2026-02-19	12:41:10.510	-33.215	-32.76	-32.235	0.74786	0.336232	0.953796	-0.639	0.201	0.3555	0	282	429	3
2026-02-19	12:41:10.530	-31.465	-10.605	-25.9	0.801784	0.385276	0.922808	-0.6405	0.1995	0.3585	0	282	429	3
2026-02-19	12:41:10.550	-8.89	7.21	-9.17	0.76006	0.55266	0.635376	-0.6345	0.198	0.357	0	282	429	3
2026-02-19	12:41:10.570	12.6	16.1	-8.365	0.704428	0.638304	0.345504	-0.6255	0.198	0.348	0	282	429	3
2026-02-19	12:41:10.590	14.7	20.3	-19.915	0.725412	0.736636	0.247172	-0.636	0.195	0.351	0	282	429	3
2026-02-19	12:41:10.610	0.945	6.58	-36.155	0.71248	0.678076	0.186416	-0.6345	0.1905	0.354	0	284	408	3
2026-02-19	12:41:10.630	-10.64	-2.625	-38.92	0.73688	0.56486	0.243024	-0.627	0.186	0.351	0	284	408	3
2026-02-19	12:41:10.650	-26.53	-5.46	-42.21	0.796904	0.439932	0.337208	-0.6165	0.18	0.3495	0	284	408	3
2026-02-19	12:41:10.670	-31.29	-8.47	-43.925	0.872788	0.123708	0.264008	-0.612	0.18	0.3495	0	284	408	3
2026-02-19	12:41:10.690	-22.61	-0.315	-34.825	0.99064	-0.017568	0.363072	-0.6075	0.1725	0.342	0	284	408	3
2026-02-19	12:41:10.710	-16.45	6.51	-21.035	1.061888	-0.075884	0.456768	-0.603	0.165	0.339	0	284	408	3
2026-02-19	12:41:10.730	-6.615	7.56	-7.77	1.060668	-0.203496	0.38186	-0.5985	0.162	0.339	0	284	408	3
2026-02-19	12:41:10.750	-8.645	13.825	2.415	1.064328	-0.110288	0.413092	-0.6015	0.159	0.336	0	284	408	3
2026-02-19	12:41:10.770	-15.015	14.98	10.57	1.05286	-0.020496	0.432368	-0.5985	0.162	0.333	0	284	408	3
2026-02-19	12:41:10.790	-6.02	12.635	18.76	1.003328	-0.014884	0.399428	-0.594	0.1635	0.3285	0	284	408	3
2026-02-19	12:41:10.810	2.1	21.07	27.58	0.916952	0.141764	0.44408	-0.597	0.1665	0.3285	0	288	394	3
2026-02-19	12:41:10.830	1.225	27.44	31.92	0.89426	0.22204	0.434808	-0.6	0.1695	0.33	0	288	394	3
2026-02-19	12:41:10.850	6.615	28.455	32.76	0.861808	0.235216	0.370392	-0.6015	0.168	0.3345	0	288	394	3
2026-02-19	12:41:10.870	11.27	34.16	33.32	0.881084	0.249612	0.355508	-0.606	0.168	0.3315	0	288	394	3
2026-02-19	12:41:10.890	17.045	36.225	34.615	0.89426	0.302316	0.3721	-0.606	0.1785	0.327	0	288	394	3
2026-02-19	12:41:10.910	21.525	34.93	34.195	0.909876	0.366976	0.339404	-0.6045	0.177	0.3195	0	288	394	3
2026-02-19	12:41:10.930	19.25	32.445	36.505	1.027728	0.219356	0.28182	-0.6045	0.177	0.3135	0	288	394	3
2026-02-19	12:41:10.950	33.25	25.83	40.25	1.179252	0.143716	0.145912	-0.603	0.177	0.318	0	288	394	3
2026-02-19	12:41:10.970	43.19	8.75	43.225	1.213168	0.13054	0.07442	-0.603	0.1755	0.3195	0	288	394	3
2026-02-19	12:41:10.990	20.895	-10.92	37.905	1.14436	0.183732	0.099552	-0.6105	0.1785	0.3195	0	288	394	3
2026-02-19	12:41:11.010	-25.27	-24.815	26.565	1.042612	0.189588	0.14762	-0.612	0.183	0.3255	0	291	383	3
2026-02-19	12:41:11.030	-48.545	-31.29	19.635	1.022848	0.189344	0.254492	-0.615	0.1875	0.33	0	291	383	3
2026-02-19	12:41:11.050	-42.28	-29.61	19.705	1.030168	0.102236	0.267668	-0.621	0.1875	0.327	0	291	383	3
2026-02-19	12:41:11.070	-22.61	-20.44	27.44	1.021628	0.044896	0.310368	-0.624	0.192	0.3225	0	291	383	3
2026-02-19	12:41:11.090	-10.255	-8.47	36.54	1.019676	0.06222	0.300364	-0.627	0.2025	0.3225	0	291	383	3
2026-02-19	12:41:11.110	1.225	0.035	43.89	1.017724	0.116876	0.27816	-0.63	0.2085	0.3285	0	291	383	3
2026-02-19	12:41:11.130	21.315	2.555	46.095	1.086288	0.15982	0.293532	-0.6375	0.2115	0.333	0	291	383	3
2026-02-19	12:41:11.150	29.75	8.505	40.775	1.20292	0.335012	0.4819	-0.648	0.2145	0.333	0	291	383	3
2026-02-19	12:41:11.170	25.2	18.725	22.61	1.153388	0.390644	0.52582	-0.6315	0.2115	0.33	0	291	383	3
2026-02-19	12:41:11.190	25.235	27.16	2.625	1.025288	0.366	0.499712	-0.6315	0.2115	0.33	0	291	383	3
2026-02-19	12:41:11.210	22.75	30.8	-12.04	0.933056	0.358436	0.505568	-0.639	0.2175	0.3285	0	291	368	3
2026-02-19	12:41:11.230	15.295	31.045	-22.05	0.874496	0.29646	0.516548	-0.645	0.219	0.333	0	291	368	3
2026-02-19	12:41:11.250	9.94	30.1	-27.93	0.816912	0.27328	0.520696	-0.636	0.2085	0.3345	0	291	368	3
2026-02-19	12:41:11.270	7.91	32.795	-29.575	0.757132	0.277672	0.508496	-0.627	0.2055	0.324	0	291	368	3
2026-02-19	12:41:11.290	11.935	35.77	-29.155	0.70638	0.261812	0.49776	-0.624	0.2025	0.3165	0	291	368	3
2026-02-19	12:41:11.310	20.475	38.43	-27.65	0.668072	0.278648	0.489952	-0.624	0.198	0.3135	0	291	368	3
2026-02-19	12:41:11.330	26.845	41.265	-25.375	0.671976	0.253028	0.432856	-0.618	0.195	0.315	0	291	368	3
2026-02-19	12:41:11.350	31.64	44.66	-20.685	0.665876	0.243756	0.401868	-0.612	0.189	0.3135	0	291	368	3
2026-02-19	12:41:11.370	35.21	42.84	-14.665	0.677588	0.183732	0.394304	-0.6075	0.183	0.3135	0	291	368	3
2026-02-19	12:41:11.390	38.36	36.68	-7.7	0.700524	0.191784	0.425292	-0.5985	0.1755	0.312	0	291	368	3
2026-02-19	12:41:11.410	33.74	31.22	-1.645	0.719068	0.235216	0.412604	-0.594	0.168	0.306	0	288	372	2
2026-02-19	12:41:11.430	27.685	22.785	0.665	0.745176	0.27572	0.457256	-0.5895	0.1665	0.3075	0	288	372	2
2026-02-19	12:41:11.450	18.445	12.67	-1.61	0.7625	0.334036	0.467748	-0.588	0.165	0.309	0	288	372	2
2026-02-19	12:41:11.470	8.89	6.16	-10.08	0.78812	0.338672	0.520452	-0.588	0.165	0.309	0	288	372	2
2026-02-19	12:41:11.490	2.8	4.97	-16.87	0.80276	0.355508	0.547292	-0.588	0.1665	0.309	0	288	372	2
2026-02-19	12:41:11.510	5.53	4.83	-21.63	0.790316	0.328668	0.576084	-0.585	0.171	0.309	0	288	372	2
2026-02-19	12:41:11.530	14	3.395	-23.38	0.77714	0.320616	0.590724	-0.576	0.1665	0.315	0	288	372	2
2026-02-19	12:41:11.550	21.14	1.82	-22.12	0.745176	0.328912	0.577304	-0.573	0.165	0.315	0	288	372	2
2026-02-19	12:41:11.570	30.695	-0.525	-19.25	0.715896	0.28792	0.558516	-0.5745	0.159	0.3165	0	288	372	2
2026-02-19	12:41:11.590	42.98	-4.445	-15.085	0.695156	0.318176	0.555344	-0.5775	0.15	0.3195	0	288	372	2
2026-02-19	12:41:11.610	48.755	-9.59	-10.325	0.681004	0.311344	0.602192	-0.576	0.1485	0.3225	0	282	394	2
2026-02-19	12:41:11.630	29.645	-11.69	-7.525	0.69296	0.316224	0.612196	-0.57	0.144	0.33	0	282	394	2
2026-02-19	12:41:11.650	-0.875	-12.075	-7.63	0.717116	0.314272	0.546804	-0.5655	0.144	0.333	0	282	394	2
2026-02-19	12:41:11.670	-17.43	-14.42	-7.595	0.74176	0.301584	0.49654	-0.567	0.141	0.3315	0	282	394	2
2026-02-19	12:41:11.690	-23.66	-18.935	-6.79	0.759816	0.271572	0.501908	-0.57	0.138	0.33	0	282	394	2
2026-02-19	12:41:11.710	-30.8	-22.925	-5.11	0.793	0.261568	0.489708	-0.5685	0.1395	0.3315	0	282	394	2
2026-02-19	12:41:11.730	-31.885	-25.865	-1.47	0.833504	0.197884	0.463356	-0.57	0.1395	0.3285	0	282	394	2
2026-02-19	12:41:11.750	-19.565	-26.32	7.49	0.853024	0.206424	0.468236	-0.573	0.141	0.3255	0	282	394	2
2026-02-19	12:41:11.770	-18.27	-27.51	12.18	0.852048	0.218868	0.43554	-0.573	0.138	0.3255	0	282	394	2
2026-02-19	12:41:11.790	-16.31	-31.115	15.12	0.874008	0.204472	0.419924	-0.5745	0.1395	0.333	0	282	394	2
2026-02-19	12:41:11.810	-14.455	-32.515	16.38	0.94428	0.22936	0.424804	-0.5775	0.141	0.336	0	272	426	1
2026-02-19	12:41:11.830	-13.16	-33.705	19.425	0.999912	0.242048	0.41114	-0.582	0.1485	0.3345	0	272	426	1
2026-02-19	12:41:11.850	-8.54	-37.94	24.43	1.024068	0.238876	0.405772	-0.588	0.1545	0.333	0	272	426	1
2026-02-19	12:41:11.870	-5.88	-42.595	29.365	1.033584	0.267668	0.389668	-0.5895	0.153	0.333	0	272	426	1
2026-02-19	12:41:11.890	-8.995	-27.125	34.545	1.497672	0.526552	0.462136	-0.5985	0.1545	0.342	0	272	426	1
2026-02-19	12:41:11.910	8.82	-5.74	1.68	1.242936	0.554368	0.876692	-0.6075	0.156	0.345	0	272	426	1
2026-02-19	12:41:11.930	15.54	-23.415	7.07	0.92598	0.415044	0.45262	-0.6015	0.1545	0.348	0	272	426	1
2026-02-19	12:41:11.950	11.655	-33.425	-2.975	0.866932	0.260104	0.201788	-0.603	0.1545	0.3555	0	272	426	1
2026-02-19	12:41:11.970	-21.7	-35.7	4.655	0.8296	0.150792	0.271816	-0.6045	0.156	0.3555	0	272	426	1
2026-02-19	12:41:11.990	-56.07	-49.28	21.665	0.878888	0.048068	0.20252	-0.6045	0.156	0.3555	0	272	426	1
2026-02-19	12:41:12.010	-38.465	-56.14	37.765	0.952332	0.275476	0.326228	-0.6075	0.1575	0.3585	0	263	444	3
2026-02-19	12:41:12.030	-4.025	-50.295	40.845	0.811056	0.24766	0.402112	-0.6135	0.165	0.36	0	263	444	3
2026-02-19	12:41:12.050	-17.885	-41.335	26.53	0.805932	0.242536	0.420412	-0.6225	0.174	0.3615	0	263	444	3
2026-02-19	12:41:12.070	-61.6	-32.76	7.035	0.961604	0.353068	0.380152	-0.627	0.18	0.3645	0	263	444	3
2026-02-19	12:41:12.090	-80.36	-32.725	-7.175	1.037244	0.441152	0.32818	-0.6285	0.183	0.3675	0	263	444	3
2026-02-19	12:41:12.110	-71.33	-37.765	-16.8	0.927444	0.480924	0.301096	-0.6315	0.1815	0.3645	0	263	444	3
2026-02-19	12:41:12.130	-79.1	-39.2	-25.515	0.84424	0.350872	0.199836	-0.6345	0.1815	0.3615	0	263	444	3
2026-02-19	12:41:12.150	-90.65	-37.17	-28.455	0.922564	0.324764	0.196176	-0.63	0.18	0.3525	0	263	444	3
2026-02-19	12:41:12.170	-74.83	-32.2	-25.375	0.968436	0.217892	0.241316	-0.624	0.1785	0.3465	0	263	444	3
2026-02-19	12:41:12.190	-42.035	-25.83	-18.725	0.952576	0.13298	0.367952	-0.621	0.177	0.345	0	263	444	3
