yyyy-MM-dd	HH:mm:ss.fff	gyrX	gyrY	gyrZ	accX	accY	accZ	magX	magY	magZ	Marker	Energy	Angle	Classification
2026-02-12	16:52:28.610	1.295	-0.595	0.28	-0.020984	-0.051728	1.010404	-4.1325	-8.6775	0.1605	0	14	1033	1
2026-02-12	16:52:28.630	1.295	-0.595	0.245	-0.023424	-0.048068	1.010404	-4.14	-8.6895	0.1635	0	14	1033	1
2026-02-12	16:52:28.650	1.33	-0.595	0.245	-0.020496	-0.04636	1.010892	-4.1415	-8.6925	0.1605	0	14	1033	1
2026-02-12	16:52:28.670	1.295	-0.595	0.28	-0.021472	-0.046116	1.009916	-4.1415	-8.685	0.1635	0	14	1033	1
2026-02-12	16:52:28.690	1.26	-0.595	0.28	-0.02318	-0.0488	1.010892	-4.1685	-8.694	0.1755	0	14	1033	1
2026-02-12	16:52:28.710	1.33	-0.595	0.245	-0.022204	-0.045628	1.009428	-4.1055	-8.6565	0.159	0	14	1033	1
2026-02-12	16:52:28.730	1.295	-0.56	0.245	-0.018544	-0.04758	1.010892	-4.1055	-8.6565	0.159	0	14	1033	1
2026-02-12	16:52:28.750	1.33	-0.595	0.245	-0.020496	-0.045384	1.009428	-4.1055	-8.6565	0.159	0	14	1033	1
2026-02-12	16:52:28.770	1.295	-0.63	0.245	-0.021472	-0.047336	1.013088	-4.143	-8.679	0.165	0	14	1033	1
2026-02-12	16:52:28.790	1.26	-0.595	0.28	-0.024156	-0.049044	1.010404	-4.167	-8.6985	0.171	0	14	1033	1
2026-02-12	16:52:28.810	1.295	-0.595	0.245	-0.02196	-0.046116	1.013088	-4.1505	-8.6925	0.1665	0	13	1033	1
2026-02-12	16:52:28.830	1.33	-0.63	0.28	-0.020252	-0.046848	1.010892	-4.1475	-8.691	0.168	0	13	1033	1
2026-02-12	16:52:28.850	1.33	-0.595	0.245	-0.019276	-0.047336	1.008452	-4.1625	-8.6985	0.1725	0	13	1033	1
2026-02-12	16:52:28.870	1.33	-0.595	0.245	-0.021716	-0.046848	1.011136	-4.167	-8.697001	0.1665	0	13	1033	1
2026-02-12	16:52:28.890	1.295	-0.595	0.245	-0.02074	-0.04758	1.006256	-4.1385	-8.685	0.153	0	13	1033	1
2026-02-12	16:52:28.910	1.295	-0.595	0.245	-0.022448	-0.046604	1.009672	-4.1235	-8.685	0.1515	0	13	1033	1
2026-02-12	16:52:28.930	1.295	-0.595	0.245	-0.02318	-0.045872	1.01138	-4.1325	-8.686501	0.1635	0	13	1033	1
2026-02-12	16:52:28.950	1.295	-0.63	0.245	-0.02318	-0.047824	1.009428	-4.1505	-8.6955	0.171	0	13	1033	1
2026-02-12	16:52:28.970	1.33	-0.595	0.28	-0.020496	-0.049044	1.011136	-4.155	-8.703	0.1605	0	13	1033	1
2026-02-12	16:52:28.990	1.33	-0.595	0.245	-0.022448	-0.04758	1.009672	-4.1445	-8.691	0.1545	0	13	1033	1
2026-02-12	16:52:29.010	1.295	-0.595	0.245	-0.023424	-0.047824	1.010648	-4.14	-8.682	0.159	0	11	1033	1
2026-02-12	16:52:29.030	1.295	-0.595	0.28	-0.01952	-0.044164	1.008696	-4.1625	-8.7015	0.1635	0	11	1033	1
2026-02-12	16:52:29.050	1.33	-0.63	0.245	-0.02196	-0.046116	1.010648	-4.1655	-8.7075	0.1665	0	11	1033	1
2026-02-12	16:52:29.070	1.295	-0.595	0.28	-0.022936	-0.047824	1.011136	-4.152	-8.6985	0.165	0	11	1033	1
2026-02-12	16:52:29.090	1.295	-0.56	0.245	-0.021716	-0.044652	1.009916	-4.1535	-8.6955	0.159	0	11	1033	1
2026-02-12	16:52:29.110	1.33	-0.63	0.245	-0.022448	-0.045384	1.012844	-4.1385	-8.6775	0.153	0	11	1033	1
2026-02-12	16:52:29.130	1.33	-0.63	0.28	-0.023424	-0.047824	1.006256	-4.1265	-8.67	0.162	0	11	1033	1
2026-02-12	16:52:29.150	1.33	-0.595	0.28	-0.018056	-0.046848	1.009672	-4.143	-8.679	0.1665	0	11	1033	1
2026-02-12	16:52:29.170	1.33	-0.56	0.245	-0.022936	-0.051484	1.017236	-4.1565	-8.688	0.1635	0	11	1033	1
2026-02-12	16:52:29.190	1.295	-0.595	0.28	-0.019764	-0.045628	1.01138	-4.128	-8.676	0.1605	0	11	1033	1
2026-02-12	16:52:29.210	1.26	-0.245	0.14	-0.013908	-0.030256	1.303448	-4.113	-8.664001	0.1575	0	10	1034	1
2026-02-12	16:52:29.230	1.225	-0.7	0.315	-0.006588	-0.055632	1.189256	-4.128	-8.6745	0.1605	0	10	1034	1
2026-02-12	16:52:29.250	1.365	-0.7	0.28	-0.017568	-0.043188	1.01504	-4.143	-8.6805	0.1665	0	10	1034	1
2026-02-12	16:52:29.270	1.33	-0.7	0.245	-0.01952	-0.051484	1.036268	-4.158	-8.7015	0.1665	0	10	1034	1
2026-02-12	16:52:29.290	1.33	-0.56	0.245	-0.020008	-0.048068	1.008208	-4.158	-8.7045	0.1665	0	10	1034	1
2026-02-12	16:52:29.310	1.33	-0.63	0.245	-0.024888	-0.045628	1.008696	-4.1415	-8.6805	0.1665	0	10	1034	1
2026-02-12	16:52:29.330	1.33	-0.595	0.28	-0.020984	-0.04636	1.006744	-4.1385	-8.682	0.168	0	10	1034	1
2026-02-12	16:52:29.350	1.365	-0.63	0.28	-0.022936	-0.045628	1.006256	-4.146	-8.6895	0.168	0	10	1034	1
2026-02-12	16:52:29.370	1.295	-0.595	0.245	-0.02074	-0.044408	1.012356	-4.1415	-8.688	0.165	0	10	1034	1
2026-02-12	16:52:29.390	1.33	-0.595	0.245	-0.023912	-0.048068	1.01138	-4.137	-8.691	0.1635	0	10	1034	1
2026-02-12	16:52:29.410	1.295	-0.595	0.245	-0.022204	-0.049044	1.010404	-4.137	-8.691	0.1635	0	10	1039	1
2026-02-12	16:52:29.430	1.33	-0.595	0.245	-0.021716	-0.048312	1.012112	-4.137	-8.6535	0.156	0	10	1039	1
2026-02-12	16:52:29.450	1.33	-0.595	0.245	-0.019276	-0.050264	1.014064	-4.137	-8.6535	0.156	0	10	1039	1
2026-02-12	16:52:29.470	1.295	-0.595	0.245	-0.022204	-0.048556	1.010648	-4.1805	-8.703	0.162	0	10	1039	1
2026-02-12	16:52:29.490	1.33	-0.595	0.245	-0.0244	-0.050996	1.009672	-4.1445	-8.682	0.1725	0	10	1039	1
2026-02-12	16:52:29.510	1.295	-0.595	0.245	-0.024156	-0.051972	1.007232	-4.155	-8.7015	0.177	0	10	1039	1
2026-02-12	16:52:29.530	1.295	-0.63	0.245	-0.024156	-0.049044	1.009672	-4.1445	-8.6835	0.1665	0	10	1039	1
2026-02-12	16:52:29.550	1.295	-0.595	0.28	-0.023668	-0.04636	1.013576	-4.161	-8.6925	0.165	0	10	1039	1
2026-02-12	16:52:29.570	1.295	-0.63	0.245	-0.022692	-0.051728	1.00772	-4.1595	-8.703	0.1635	0	10	1039	1
2026-02-12	16:52:29.590	1.33	-0.63	0.245	-0.021472	-0.048556	1.009184	-4.176	-8.718	0.1875	0	10	1039	1
2026-02-12	16:52:27.610	1.26	-0.595	0.28	-0.018788	-0.04758	1.01138	-4.125	-8.676	0.156	0	29	1033	1
2026-02-12	16:52:27.630	1.295	-0.595	0.245	-0.02318	-0.046604	1.010892	-4.1385	-8.6805	0.1665	0	29	1033	1
2026-02-12	16:52:27.650	1.26	-0.595	0.28	-0.022936	-0.0488	1.012844	-4.1355	-8.6895	0.171	0	29	1033	1
2026-02-12	16:52:27.670	1.295	-0.56	0.245	-0.022204	-0.05002	1.009184	-4.1295	-8.688	0.1725	0	29	1033	1
2026-02-12	16:52:27.690	1.33	-0.595	0.245	-0.024888	-0.049776	1.01016	-4.134	-8.6835	0.162	0	29	1033	1
2026-02-12	16:52:27.710	1.295	-0.56	0.28	-0.02318	-0.047336	1.00772	-4.146	-8.688	0.1605	0	29	1033	1
2026-02-12	16:52:27.730	1.33	-0.595	0.245	-0.022936	-0.048312	1.008452	-4.1535	-8.694	0.1695	0	29	1033	1
2026-02-12	16:52:27.750	1.295	-0.63	0.28	-0.021228	-0.045872	1.010892	-4.155	-8.7015	0.165	0	29	1033	1
2026-02-12	16:52:27.770	1.33	-0.63	0.28	-0.018544	-0.047092	1.009428	-4.158	-8.691	0.1665	0	29	1033	1
2026-02-12	16:52:27.790	1.295	-0.595	0.245	-0.023424	-0.049288	1.013332	-4.1595	-8.6805	0.165	0	29	1033	1
2026-02-12	16:52:27.810	1.295	-0.595	0.245	-0.01952	-0.044652	1.009916	-4.131	-8.67	0.159	0	25	1033	1
2026-02-12	16:52:27.830	1.295	-0.595	0.28	-0.022448	-0.045872	1.009428	-4.1175	-8.6745	0.1665	0	25	1033	1
2026-02-12	16:52:27.850	1.33	-0.595	0.245	-0.022204	-0.047824	1.0126	-4.137	-8.6925	0.1725	0	25	1033	1
2026-02-12	16:52:27.870	1.295	-0.595	0.245	-0.020984	-0.047336	1.01016	-4.1565	-8.6985	0.1755	0	25	1033	1
2026-02-12	16:52:27.890	1.295	-0.595	0.245	-0.025864	-0.046116	1.010648	-4.1655	-8.703	0.1785	0	25	1033	1
2026-02-12	16:52:27.910	1.33	-0.595	0.245	-0.01952	-0.05002	1.012356	-4.1655	-8.7015	0.174	0	25	1033	1
2026-02-12	16:52:27.930	1.295	-0.595	0.28	-0.021716	-0.043676	1.00894	-4.161	-8.697001	0.1695	0	25	1033	1
2026-02-12	16:52:27.950	1.295	-0.595	0.245	-0.022692	-0.044896	1.011624	-4.1835	-8.7135	0.18	0	25	1033	1
2026-02-12	16:52:27.970	1.365	-0.595	0.245	-0.023912	-0.0488	1.00894	-4.2045	-8.727	0.1935	0	25	1033	1
2026-02-12	16:52:27.990	1.33	-0.56	0.28	-0.022936	-0.048556	1.010648	-4.1985	-8.7255	0.1875	0	25	1033	1
2026-02-12	16:52:28.010	1.33	-0.595	0.21	-0.024156	-0.047824	1.010404	-4.188	-8.7225	0.183	0	22	1033	1
2026-02-12	16:52:28.030	1.295	-0.595	0.245	-0.023912	-0.047092	1.00894	-4.1955	-8.721	0.189	0	22	1033	1
2026-02-12	16:52:28.050	1.295	-0.56	0.245	-0.024888	-0.044896	1.01382	-4.26	-8.7645	0.2145	0	22	1033	1
2026-02-12	16:52:28.070	1.33	-0.63	0.28	-0.021472	-0.044408	1.009672	-4.2555	-8.766	0.2205	0	22	1033	1
2026-02-12	16:52:28.090	1.33	-0.595	0.245	-0.023424	-0.045628	1.010648	-4.1835	-8.7045	0.1875	0	22	1033	1
2026-02-12	16:52:28.110	1.33	-0.56	0.245	-0.023912	-0.049776	1.01382	-4.179	-8.7045	0.1755	0	22	1033	1
2026-02-12	16:52:28.130	1.33	-0.56	0.245	-0.02074	-0.049776	1.01016	-4.221	-8.745	0.183	0	22	1033	1
2026-02-12	16:52:28.150	1.295	-0.595	0.21	-0.023424	-0.047824	1.009916	-4.1925	-8.7255	0.177	0	22	1033	1
2026-02-12	16:52:28.170	1.295	-0.595	0.28	-0.02074	-0.049288	1.009428	-4.1475	-8.685	0.168	0	22	1033	1
2026-02-12	16:52:28.190	1.295	-0.595	0.28	-0.021716	-0.047336	1.008452	-4.1535	-8.688	0.1635	0	22	1033	1
2026-02-12	16:52:38.210	1.295	-0.56	0.245	-0.020252	-0.051972	1.008696	-4.152	-8.697001	0.1665	0	53	108	2
2026-02-12	16:52:38.230	1.33	-0.595	0.245	-0.021716	-0.048312	1.012112	-4.137	-8.6535	0.156	0	53	108	2
2026-02-12	16:52:38.250	1.33	-0.595	0.245	-0.019276	-0.050264	1.014064	-4.137	-8.6535	0.156	0	53	108	2
2026-02-12	16:52:38.270	-6.125	1.015	5.845	0.020984	0.028304	1.022848	-4.173	-8.703	0.1665	0	53	108	2
2026-02-12	16:52:38.290	-37.415	19.11	3.99	0.097112	0.022448	1.094096	-4.464	-14.8125	1.752	0	53	108	2
2026-02-12	16:52:38.310	-28.84	26.04	4.585	0.057584	0.006588	0.93452	-4.6125	-15.1005	1.7925	0	53	108	2
2026-02-12	16:52:38.330	-23.625	23.765	6.23	0.060024	-0.013908	1.02724	-4.695	-15.207	1.8315	0	53	108	2
2026-02-12	16:52:38.350	-15.155	21.21	5.53	0.04636	-0.00122	1.099464	-4.8135	-15.42	1.908	0	53	108	2
2026-02-12	16:52:38.370	-7.945	19.285	3.01	0.026596	0.03294	1.069452	-4.869	-15.5295	1.929	0	53	108	2
2026-02-12	16:52:38.390	-3.71	17.115	0.07	0.005856	0.056852	1.006988	-4.8465	-15.4845	1.926	0	53	108	2
2026-02-12	16:52:38.410	-3.5	10.815	-1.365	0.01464	0.039772	0.938912	-4.815	-15.465	1.9335	0	167	323	3
2026-02-12	16:52:38.430	1.26	6.265	-0.875	0.027328	0.066368	0.8479	-4.662	-15.2025	1.8885	0	167	323	3
2026-02-12	16:52:38.450	2.415	-0.77	1.295	0.054656	0.101016	0.825696	-4.5	-14.9415	1.833	0	167	323	3
2026-02-12	16:52:38.470	4.69	-1.435	2.695	0.081984	0.118584	0.815936	-4.389	-14.712	1.8015	0	167	323	3
2026-02-12	16:52:38.490	12.705	-9.52	6.72	0.0793	0.177144	0.808128	-4.3335	-14.6055	1.734	0	167	323	3
2026-02-12	16:52:38.510	-3.745	-18.725	8.295	0.092964	0.139812	0.889136	-4.419	-14.718	1.8225	0	167	323	3
2026-02-12	16:52:38.530	14.035	-0.91	4.235	0.028548	0.229848	1.014796	-4.4445	-14.7615	1.8615	0	167	323	3
2026-02-12	16:52:38.550	3.115	-13.405	5.635	0.07686	0.092232	1.177788	-4.5975	-14.985	1.839	0	167	323	3
2026-02-12	16:52:38.570	8.575	-12.145	2.065	0.03904	0.055632	0.96746	-4.6485	-15.057	1.839	0	167	323	3
2026-02-12	16:52:38.590	12.67	-15.26	7.35	0.030012	0.045384	0.980148	-4.635	-15.054	1.863	0	167	323	3
2026-02-12	16:52:38.610	17.85	-4.935	7.49	0.02196	0.012444	0.931836	-4.644	-15.048	1.944	0	278	510	1
2026-02-12	16:52:38.630	19.915	-6.72	8.155	0.016836	0.005368	0.909144	-4.6095	-14.9865	1.9245	0	278	510	1
2026-02-12	16:52:38.650	21.77	-8.505	7.7	0.003904	0.025376	0.909388	-4.572	-14.916	1.938	0	278	510	1
2026-02-12	16:52:38.670	22.155	-2.66	4.69	0.010736	0.030012	0.920856	-4.515	-14.829	1.971	0	278	510	1
2026-02-12	16:52:38.690	21.14	5.215	1.26	-0.000976	0.026352	0.923784	-4.4745	-14.7495	1.989	0	278	510	1
2026-02-12	16:52:38.710	20.02	6.44	-1.085	0.003172	0.00732	0.94062	-4.476	-14.736	1.929	0	278	510	1
2026-02-12	16:52:38.730	18.865	8.19	-3.115	0.018056	-0.004392	0.964532	-4.467	-14.7105	1.9215	0	278	510	1
2026-02-12	16:52:38.750	17.255	8.75	-4.445	0.025132	-0.02562	0.979416	-4.485	-14.754	1.9275	0	278	510	1
2026-02-12	16:52:38.770	15.855	8.155	-5.775	0.023668	-0.02196	1.005768	-4.53	-14.8275	1.95	0	278	510	1
2026-02-12	16:52:38.790	13.265	9.31	-7.56	0.02928	-0.025864	1.026996	-4.5615	-14.9115	2.01	0	278	510	1
2026-02-12	16:52:38.810	9.345	8.295	-8.225	0.033428	-0.030256	1.047004	-4.5795	-14.9595	2.019	0	352	639	1
2026-02-12	16:52:38.830	6.58	11.865	-4.795	0.01708	-0.01464	1.001132	-4.5795	-14.9595	2.019	0	352	639	1
2026-02-12	16:52:38.850	6.51	7.595	-6.895	-0.025864	0.002684	1.023824	-4.593	-14.9355	1.983	0	352	639	1
2026-02-12	16:52:38.870	7.385	10.36	-9.17	-0.027816	0.032696	1.05042	-4.608	-14.913	1.947	0	352	639	1
2026-02-12	16:52:38.890	7.98	9.87	-12.285	-0.064172	-0.01342	1.1163	-4.653	-14.8605	1.8915	0	352	639	1
2026-02-12	16:52:38.910	9.45	15.61	-15.015	-0.038552	0.007808	1.196088	-4.7055	-14.73	1.851	0	352	639	1
2026-02-12	16:52:38.930	6.3	15.365	-18.095	-0.053924	-0.039772	1.165588	-4.77	-14.6625	1.818	0	352	639	1
2026-02-12	16:52:38.950	2.45	14.91	-20.965	-0.037088	-0.050752	1.125816	-4.8195	-14.637	1.7745	0	352	639	1
2026-02-12	16:52:38.970	-3.815	9.975	-24.71	-0.057584	-0.024156	1.05652	-4.797	-14.553	1.761	0	352	639	1
2026-02-12	16:52:38.990	-5.95	7.525	-25.375	-0.061488	-0.02074	1.053348	-4.7505	-14.4585	1.728	0	352	639	1
2026-02-12	16:52:39.010	-8.82	2.275	-22.26	0.01952	-0.002928	1.15412	-4.701	-14.3895	1.7085	0	391	742	1
2026-02-12	16:52:39.030	0.49	-17.43	-25.2	-0.012688	0.101992	1.20536	-4.68	-14.3715	1.7265	0	391	742	1
2026-02-12	16:52:39.050	9.415	4.13	-22.61	-0.018056	0.094184	1.16266	-4.6275	-14.3715	1.941	0	391	742	1
2026-02-12	16:52:39.070	22.715	33.425	-11.165	-0.09638	0.182268	1.246108	-4.746	-14.475	2.0445	0	391	742	1
2026-02-12	16:52:39.090	14.35	-9.87	5.18	-0.051972	0.18178	0.822036	-5.193	-14.823	2.004	0	391	742	1
2026-02-12	16:52:39.110	28.07	5.845	-5.32	-0.033184	0.214964	1.186816	-5.841	-15.3585	2.2335	0	391	742	1
2026-02-12	16:52:39.130	33.18	-11.795	-18.095	-0.007564	0.168116	1.06384	-6.507	-15.7725	2.49	0	391	742	1
2026-02-12	16:52:39.150	41.65	1.435	-12.67	-0.176168	0.601216	0.734928	-7.3515	-16.1385	2.853	0	391	742	1
2026-02-12	16:52:39.170	45.5	6.825	-31.955	-0.083692	0.23424	0.724924	-8.574	-16.5915	3.2205	0	391	742	1
2026-02-12	16:52:39.190	42.525	-9.59	-33.74	-0.045384	0.339892	0.905484	-9.417	-16.8075	3.33	0	391	742	1
2026-02-12	16:52:39.210	25.69	-21.7	-31.22	-0.02318	0.30988	0.909144	-9.633	-16.8405	3.501	0	404	828	1
2026-02-12	16:52:39.230	18.445	-9.87	-25.795	-0.00488	0.291824	0.88816	-9.7635	-16.9005	3.783	0	404	828	1
2026-02-12	16:52:39.250	14.84	-9.94	-26.32	-0.00244	0.287432	0.911584	-10.0755	-17.0715	3.9705	0	404	828	1
2026-02-12	16:52:39.270	-13.37	-20.09	-36.295	0.004148	0.307928	0.97234	-10.416	-17.2845	4.029	0	404	828	1
2026-02-12	16:52:39.290	-4.48	-14.105	-35.7	-0.00488	0.2928	1.034072	-10.4835	-17.346	4.032	0	404	828	1
2026-02-12	16:52:39.310	-0.35	-0.385	-36.54	-0.042212	0.260836	0.996984	-10.482	-17.361	3.978	0	404	828	1
2026-02-12	16:52:39.330	-2.695	-16.205	-36.26	-0.016104	0.206668	0.976488	-10.5915	-17.4165	3.8415	0	404	828	1
2026-02-12	16:52:39.350	2.765	-12.075	-38.885	-0.01708	0.244732	1.056032	-10.656	-17.457	3.8325	0	404	828	1
2026-02-12	16:52:39.370	7.91	-5.215	-40.95	-0.000488	0.21228	1.006256	-10.6875	-17.5095	3.9255	0	404	828	1
2026-02-12	16:52:39.390	6.615	-5.95	-40.88	0.00244	0.156892	0.983808	-10.7685	-17.5935	3.9405	0	404	828	1
2026-02-12	16:52:39.410	3.71	-7.63	-38.675	0.009028	0.106872	0.933056	-10.812	-17.6505	3.9465	0	398	883	1
2026-02-12	16:52:39.430	3.255	-7.35	-34.86	0.009516	0.051972	0.885964	-10.7715	-17.6235	3.9525	0	398	883	1
2026-02-12	16:52:39.450	2.45	-9.45	-26.95	0.011956	0.054168	0.896212	-10.719	-17.5845	3.9495	0	398	883	1
2026-02-12	16:52:39.470	1.26	-9.45	-20.37	0.0122	0.07076	0.95282	-10.7205	-17.58	3.945	0	398	883	1
2026-02-12	16:52:39.490	-1.575	-6.895	-15.715	0.01708	0.072468	0.99308	-10.7745	-17.604	3.948	0	398	883	1
2026-02-12	16:52:39.510	-3.675	-5.25	-18.095	0.025376	0.088572	1.029924	-10.857	-17.622	3.9285	0	398	883	1
2026-02-12	16:52:39.530	-5.565	-4.795	-16.73	0.021716	0.07076	1.065792	-10.9215	-17.6235	3.8925	0	398	883	1
2026-02-12	16:52:39.550	-7.875	0.77	-13.86	0.016348	0.03904	1.087508	-10.947	-17.6355	3.8715	0	398	883	1
2026-02-12	16:52:39.570	-11.83	-1.19	-8.995	0.061732	0.017812	1.092144	-10.9485	-17.622	3.834	0	398	883	1
2026-02-12	16:52:39.590	-14.875	-3.22	-5.775	0.074664	0.067832	1.078236	-10.9215	-17.586	3.795	0	398	883	1
2026-02-12	16:52:39.610	-15.96	-4.795	-4.97	0.071492	0.116144	1.079456	-10.8975	-17.5665	3.786	0	378	918	1
2026-02-12	16:52:39.630	-14.98	-5.04	-4.62	0.06222	0.152988	1.0614	-10.8975	-17.5665	3.786	0	378	918	1
2026-02-12	16:52:39.650	-10.395	-1.855	-4.025	0.041236	0.136152	1.087508	-10.8975	-17.5665	3.786	0	378	918	1
2026-02-12	16:52:39.670	-2.065	-4.235	0.42	0.040992	0.10248	1.082384	-10.8975	-17.5665	3.786	0	378	918	1
2026-02-12	16:52:39.690	-1.89	-15.435	8.015	0.068808	0.072712	1.1468	-11.1195	-17.643	3.543	0	378	918	1
2026-02-12	16:52:39.710	3.675	-15.435	14.315	0.08686399	0.081008	1.142896	-11.0985	-17.6505	3.63	0	378	918	1
2026-02-12	16:52:39.730	5.635	-13.23	18.795	0.06734399	0.112484	1.094096	-11.097	-17.6685	3.663	0	378	918	1
2026-02-12	16:52:39.750	8.155	-14.84	21.735	0.055632	0.170068	1.063108	-11.094	-17.667	3.6615	0	378	918	1
2026-02-12	16:52:39.770	11.585	-13.3	21.805	0.040504	0.21716	1.015772	-11.049	-17.604	3.672	0	378	918	1
2026-02-12	16:52:39.790	14	-12.495	19.985	0.045628	0.234972	0.969412	-10.977	-17.523	3.6525	0	378	918	1
2026-02-12	16:52:39.810	24.815	-8.26	18.06	0.047824	0.227896	0.88572	-10.8495	-17.4165	3.6705	0	350	951	1
2026-02-12	16:52:39.830	23.45	-6.72	15.89	0.067588	0.240096	0.858636	-10.8795	-17.3955	3.75	0	350	951	1
2026-02-12	16:52:39.850	5.635	-9.345	14.84	0.07442	0.222528	0.889136	-10.905	-17.406	3.7785	0	350	951	1
2026-02-12	16:52:39.870	2.275	-8.96	13.44	0.06832	0.232532	0.93086	-10.89	-17.409	3.8025	0	350	951	1
2026-02-12	16:52:39.890	5.005	-1.05	11.095	0.040016	0.251564	0.95282	-10.89	-17.409	3.8025	0	350	951	1
2026-02-12	16:52:39.910	2.03	-0.91	10.115	0.034648	0.25742	0.96624	-10.9605	-17.457	3.7695	0	350	951	1
2026-02-12	16:52:39.930	-2.765	-2.135	9.45	0.042212	0.244244	0.943304	-11.0325	-17.5065	3.738	0	350	951	1
2026-02-12	16:52:39.950	-11.55	-3.57	7.035	0.041968	0.223992	0.926712	-11.0115	-17.4795	3.7575	0	350	951	1
2026-02-12	16:52:39.970	-13.44	-0.735	3.92	0.035868	0.227896	0.92964	-10.9515	-17.4405	3.792	0	350	951	1
2026-02-12	16:52:39.990	-1.505	5.95	0.875	0.03416	0.222284	0.970388	-10.884	-17.397	3.804	0	350	951	1
2026-02-12	16:52:40.010	7.49	14.56	-1.225	0.036356	0.199836	0.984296	-10.8555	-17.3655	3.801	0	318	972	1
2026-02-12	16:52:40.030	7.07	16.45	-1.575	0.038308	0.169336	0.993324	-10.887	-17.3925	3.7665	0	318	972	1
2026-02-12	16:52:40.050	7	19.495	-1.96	0.047092	0.113704	0.9516	-10.896	-17.415	3.7275	0	318	972	1
2026-02-12	16:52:40.070	6.09	19.6	-1.4	0.03904	0.078324	0.927688	-10.8255	-17.349	3.723	0	318	972	1
2026-02-12	16:52:40.090	7.35	23.625	-2.03	-0.014152	0.12322	0.936472	-10.737	-17.268	3.7515	0	318	972	1
2026-02-12	16:52:40.110	8.435	33.67	-4.69	0.012932	0.061244	0.95404	-10.6935	-17.2485	3.777	0	318	972	1
2026-02-12	16:52:40.130	5.74	35.525	-5.355	0.039528	0.04758	0.988444	-10.7085	-17.265	3.774	0	318	972	1
2026-02-12	16:52:40.150	0.07	39.095	-3.395	0.038796	0.058316	0.95648	-10.794	-17.328	3.7725	0	318	972	1
2026-02-12	16:52:40.170	-5.74	36.12	-5.95	0.027816	0.081252	0.965508	-10.911	-17.3925	3.7485	0	318	972	1
2026-02-12	16:52:40.190	-8.89	32.585	-6.895	0.02196	0.079544	0.982588	-10.959	-17.418	3.729	0	318	972	1
2026-02-12	16:52:40.210	-9.1	33.425	-7.385	-0.011224	0.10736	0.989664	-10.9275	-17.385	3.708	0	287	980	1
2026-02-12	16:52:40.230	-9.205	29.575	-6.51	-0.054168	0.152256	1.031388	-10.896	-17.3385	3.6495	0	287	980	1
2026-02-12	16:52:40.250	-9.135	24.36	-6.16	-0.105164	0.165676	1.064816	-10.8885	-17.3205	3.5925	0	287	980	1
2026-02-12	16:52:40.270	-8.645	21.84	-8.19	-0.125172	0.142496	1.039196	-10.8855	-17.316	3.573	0	287	980	1
2026-02-12	16:52:40.290	-9.975	17.745	-10.605	-0.128832	0.160308	1.066524	-10.899	-17.343	3.5625	0	287	980	1
2026-02-12	16:52:40.310	-13.755	13.44	-12.81	-0.134932	0.174704	1.058716	-10.902	-17.3475	3.531	0	287	980	1
2026-02-12	16:52:40.330	-16.94	6.44	-14.035	-0.131028	0.164212	1.034072	-10.866	-17.307	3.504	0	287	980	1
2026-02-12	16:52:40.350	-17.99	-2.45	-13.965	-0.133224	0.160796	0.982588	-10.8285	-17.28	3.5145	0	287	980	1
2026-02-12	16:52:40.370	-17.185	-5.845	-14.35	-0.151524	0.169092	0.965752	-10.818	-17.28	3.555	0	287	980	1
2026-02-12	16:52:40.390	-13.195	-9.205	-16.975	-0.15128	0.24278	0.93208	-10.8705	-17.301	3.588	0	287	980	1
2026-02-12	16:52:40.410	-14.105	-14.385	-20.405	-0.186172	0.264496	0.94672	-11.0085	-17.217	3.5775	0	258	986	1
2026-02-12	16:52:40.430	-23.03	-23.24	-22.365	-0.12078	0.222284	0.937204	-11.127	-16.9845	3.5565	0	258	986	1
2026-02-12	16:52:40.450	-30.905	-34.545	-25.2	-0.110776	0.221064	0.9577	-11.1105	-16.8225	3.5505	0	258	986	1
2026-02-12	16:52:40.470	-17.255	-35.105	-29.645	-0.114924	0.276208	0.9455	-11.043	-16.7985	3.5775	0	258	986	1
2026-02-12	16:52:40.490	-11.13	-35.49	-33.67	-0.126636	0.288896	1.00162	-11.0265	-16.788	3.606	0	258	986	1
2026-02-12	16:52:40.510	-8.33	-35.14	-36.4	-0.104432	0.248148	1.0553	-11.055	-16.794	3.6045	0	258	986	1
2026-02-12	16:52:40.530	-6.58	-32.69	-40.075	-0.088328	0.27084	1.079456	-11.085	-16.818	3.6045	0	258	986	1
2026-02-12	16:52:40.550	-5.04	-31.255	-43.4	-0.078568	0.254736	1.04676	-11.082	-16.8045	3.6015	0	258	986	1
2026-02-12	16:52:40.570	-1.4	-30.73	-45.465	-0.062708	0.20008	1.033828	-11.0535	-16.7835	3.585	0	258	986	1
2026-02-12	16:52:40.590	4.83	-26.565	-49	-0.038064	0.201056	1.02602	-11.0145	-16.752	3.576	0	258	986	1
2026-02-12	16:52:40.610	9.765	-21.805	-51.87	-0.030744	0.193248	1.028216	-11.0115	-16.7415	3.582	0	233	993	1
2026-02-12	16:52:40.630	12.04	-18.515	-52.675	-0.044896	0.1769	1.022604	-11.058	-16.7925	3.5925	0	233	993	1
2026-02-12	16:52:40.650	12.495	-19.25	-49.175	-0.009272	0.094916	1.019188	-11.118	-16.7955	3.6105	0	233	993	1
2026-02-12	16:52:40.670	17.57	-15.26	-49.63	-0.02562	0.081984	0.981612	-11.181	-16.7865	3.642	0	233	993	1
2026-02-12	16:52:40.690	25.27	-5.81	-51.485	-0.052704	0.137372	1.030168	-11.235	-16.794	3.687	0	233	993	1
2026-02-12	16:52:40.710	27.37	5.775	-50.26	-0.001952	0.105896	1.030168	-11.286	-16.794	3.7395	0	233	993	1
2026-02-12	16:52:40.730	24.815	8.155	-48.965	0.045872	0.008296	1.037976	-11.3115	-16.8105	3.744	0	233	993	1
2026-02-12	16:52:40.750	22.435	3.955	-44.135	0.086376	-0.072468	0.990152	-11.247	-16.7775	3.7035	0	233	993	1
2026-02-12	16:52:40.770	23.555	5.32	-38.045	0.119316	-0.109068	0.975268	-11.109	-16.6995	3.699	0	233	993	1
2026-02-12	16:52:40.790	21.91	8.82	-24.815	0.151524	-0.081496	0.97356	-11.043	-16.6725	3.7335	0	233	993	1
2026-02-12	16:52:40.810	10.71	1.435	-9.8	0.186416	-0.111996	1.065304	-11.1465	-16.743	3.738	0	212	1003	1
2026-02-12	16:52:40.830	-3.815	-4.585	11.305	0.068808	0.005368	1.01504	-11.2905	-16.842	3.7125	0	212	1003	1
2026-02-12	16:52:40.850	-14.35	-10.955	16.695	0.07905599	-0.003904	0.9516	-11.409	-16.8735	3.6795	0	212	1003	1
2026-02-12	16:52:40.870	-13.93	-10.675	14.56	0.047824	0.025864	1.01748	-11.505	-16.809	3.6645	0	212	1003	1
2026-02-12	16:52:40.890	-12.635	-15.89	4.935	0.064904	0.080276	1.131672	-11.6115	-16.7445	3.6255	0	212	1003	1
2026-02-12	16:52:40.910	-12.845	-18.27	-0.14	0.0732	0.138348	1.253184	-11.736	-16.749	3.5745	0	212	1003	1
2026-02-12	16:52:40.930	-15.47	-17.395	-1.05	0.078568	0.127856	1.217316	-11.7825	-16.767	3.57	0	212	1003	1
2026-02-12	16:52:40.950	-12.95	-13.72	-3.185	0.043432	0.131028	1.181448	-11.7825	-16.767	3.57	0	212	1003	1
2026-02-12	16:52:40.970	-10.5	-12.88	-5.25	0.092476	0.071004	1.137772	-11.5755	-16.572	3.405	0	212	1003	1
2026-02-12	16:52:40.990	-8.575	-11.9	-5.81	0.09394	0.052704	1.14924	-11.5755	-16.572	3.405	0	212	1003	1
2026-02-12	16:52:41.010	-5.95	-10.675	-4.865	0.13664	0.05246	1.125572	-11.3415	-16.3635	3.3015	0	196	1019	1
2026-02-12	16:52:41.030	-5.005	-8.225	-1.365	0.145424	0.083448	1.130452	-11.355	-16.401	3.2985	0	196	1019	1
2026-02-12	16:52:41.050	-6.195	-5.6	3.78	0.1647	0.126148	1.111664	-11.415	-16.44	3.3315	0	196	1019	1
2026-02-12	16:52:41.070	-6.895	-3.5	8.82	0.156404	0.16592	1.080676	-11.487	-16.512	3.372	0	196	1019	1
2026-02-12	16:52:41.090	-4.515	-1.575	12.6	0.121024	0.199104	1.043588	-11.487	-16.512	3.372	0	196	1019	1
2026-02-12	16:52:41.110	-2.24	0.175	17.78	0.09394	0.184708	0.980636	-11.487	-16.512	3.372	0	196	1019	1
2026-02-12	16:52:41.130	-2.17	0.805	21.14	0.088816	0.160308	0.928908	-11.331	-16.383	3.3555	0	196	1019	1
2026-02-12	16:52:41.150	-1.435	1.12	22.05	0.08418	0.170312	0.902068	-11.169	-16.2405	3.354	0	196	1019	1
2026-02-12	16:52:41.170	0.42	-1.75	21.21	0.099064	0.18178	0.884256	-11.208	-16.2615	3.411	0	196	1019	1
2026-02-12	16:52:41.190	-0.945	-1.855	20.16	0.101504	0.198616	0.873764	-11.337	-16.365	3.519	0	196	1019	1
2026-02-12	16:52:41.210	-0.77	-3.15	16.975	0.093696	0.2074	0.899384	-11.55	-16.524	3.6225	0	186	1035	1
2026-02-12	16:52:41.230	-0.07	-3.675	14.245	0.088084	0.190564	0.8967	-11.7495	-16.6785	3.6795	0	186	1035	1
2026-02-12	16:52:41.250	1.365	-5.88	13.93	0.07686	0.137128	0.893528	-11.8485	-16.7535	3.699	0	186	1035	1
2026-02-12	16:52:41.270	6.055	-7.665	14.945	0.069296	0.087352	0.859368	-11.8485	-16.761	3.708	0	186	1035	1
2026-02-12	16:52:41.290	11.795	-7.455	16.625	0.0549	0.049288	0.828868	-11.769	-16.7205	3.7215	0	186	1035	1
2026-02-12	16:52:41.310	12.915	-9.52	18.97	0.075396	-0.033428	0.823256	-11.682	-16.668	3.7485	0	186	1035	1
2026-02-12	16:52:41.330	17.01	-6.055	19.705	0.067832	0.0183	0.840824	-11.6445	-16.6575	3.822	0	186	1035	1
2026-02-12	16:52:41.350	16.52	0.595	18.69	0.061244	0.038308	0.899384	-11.6535	-16.674	3.885	0	186	1035	1
2026-02-12	16:52:41.370	15.96	5.985	15.68	0.055144	0.034404	0.913292	-11.688	-16.6875	3.8595	0	186	1035	1
2026-02-12	16:52:41.390	14.98	6.125	11.62	0.069296	0.012932	0.949648	-11.745	-16.7175	3.801	0	186	1035	1
2026-02-12	16:52:41.410	14.07	5.81	6.72	0.069296	-0.00122	0.98698	-11.787	-16.7565	3.7665	0	178	1030	1
2026-02-12	16:52:41.430	13.545	3.71	2.135	0.061732	0.031476	1.064572	-11.7795	-16.773	3.7875	0	178	1030	1
2026-02-12	16:52:41.450	11.9	13.965	-2.765	0.043188	0.0732	1.109956	-11.757	-16.7625	3.8205	0	178	1030	1
2026-02-12	16:52:41.470	8.47	19.04	-4.935	0.03782	0.054412	1.110688	-11.751	-16.7475	3.732	0	178	1030	1
2026-02-12	16:52:41.490	5.88	10.85	-5.495	0.053924	0.075396	1.09312	-11.721	-16.7145	3.6135	0	178	1030	1
2026-02-12	16:52:41.510	4.2	7.385	-5.775	0.068808	0.127612	1.093364	-11.625	-16.6395	3.6045	0	178	1030	1
2026-02-12	16:52:41.530	1.54	6.755	-5.88	0.078324	0.13542	1.07238	-11.5095	-16.5675	3.6615	0	178	1030	1
2026-02-12	16:52:41.550	-1.225	5.425	-5.95	0.084912	0.128588	1.0675	-11.433	-16.5285	3.7275	0	178	1030	1
2026-02-12	16:52:41.570	-1.015	7.98	-7.035	0.068564	0.1159	1.0736	-11.406	-16.5315	3.777	0	178	1030	1
2026-02-12	16:52:41.590	1.505	6.195	-7.875	0.041968	0.11956	1.112396	-11.445	-16.572	3.8055	0	178	1030	1
2026-02-12	16:52:41.610	10.71	5.95	-0.21	0.033672	0.06734399	1.055544	-11.631	-16.671	3.7995	0	172	1024	1
2026-02-12	16:52:41.630	9.94	4.97	-8.61	-0.000244	0.157136	1.14436	-11.598	-16.695	3.843	0	172	1024	1
2026-02-12	16:52:41.650	11.725	4.27	-8.015	-0.011224	0.181292	1.126792	-11.7255	-16.8015	3.8745	0	172	1024	1
2026-02-12	16:52:41.670	14.21	3.325	-8.365	-0.012444	0.242536	1.086044	-11.7	-16.7805	3.867	0	172	1024	1
2026-02-12	16:52:41.690	17.99	0.945	-10.465	-0.015372	0.325984	1.046516	-11.5935	-16.6935	3.834	0	172	1024	1
2026-02-12	16:52:41.710	19.11	-1.33	-13.86	-0.007808	0.330132	0.969656	-11.4285	-16.551	3.8295	0	172	1024	1
2026-02-12	16:52:41.730	18.515	-2.205	-17.92	-0.00244	0.303048	0.90768	-11.2365	-16.3875	3.861	0	172	1024	1
2026-02-12	16:52:41.750	17.325	1.015	-20.93	-0.01586	0.291824	0.88572	-11.1015	-16.278	3.9045	0	172	1024	1
2026-02-12	16:52:41.770	14.7	2.485	-21.42	-0.01342	0.298412	0.938912	-11.0655	-16.2315	3.9435	0	172	1024	1
2026-02-12	16:52:41.790	11.9	4.865	-20.3	-0.01342	0.281576	0.948428	-11.1255	-16.275	3.9645	0	172	1024	1
2026-02-12	16:52:41.810	12.215	3.85	-19.67	-0.019276	0.262056	0.95404	-11.256	-16.401	3.966	0	168	1026	1
2026-02-12	16:52:41.830	15.26	1.54	-17.535	-0.005856	0.225456	0.966484	-11.394	-16.5285	3.978	0	168	1026	1
2026-02-12	16:52:41.850	18.795	0.245	-18.585	-0.003416	0.188368	0.951356	-11.4885	-16.62	4.0035	0	168	1026	1
2026-02-12	16:52:41.870	19.495	-5.18	-17.64	0.005368	0.153476	0.934032	-11.5185	-16.6635	4.026	0	168	1026	1
2026-02-12	16:52:41.890	18.27	-7.105	-18.235	0.014152	0.13054	0.914756	-11.478	-16.6455	4.0755	0	168	1026	1
2026-02-12	16:52:41.910	16.45	-6.44	-17.92	-0.004392	0.092476	0.883036	-11.4	-16.6035	4.1055	0	168	1026	1
2026-02-12	16:52:41.930	14.035	-10.5	-13.86	0.002928	0.04392	0.8845	-11.319	-16.536	4.0965	0	168	1026	1
2026-02-12	16:52:41.950	13.02	-8.75	-13.475	0.024156	0.085644	1.006744	-11.283	-16.506	4.1025	0	168	1026	1
2026-02-12	16:52:41.970	6.3	-3.5	-11.165	0.024156	0.141764	1.098244	-11.313	-16.539	4.0965	0	168	1026	1
2026-02-12	16:52:41.990	-3.08	-0.7	-7.665	-0.006588	0.155916	1.143384	-11.337	-16.5495	4.08	0	168	1026	1
2026-02-12	16:52:42.010	-10.43	0.42	-4.48	-0.013908	0.127368	1.122644	-11.3415	-16.5135	3.9885	0	164	1025	1
2026-02-12	16:52:42.030	-15.26	4.9	-0.525	-0.01342	0.06954	1.084092	-11.346	-16.479	3.8985	0	164	1025	1
2026-02-12	16:52:42.050	-17.185	7.98	1.645	-0.013176	0.05612	1.080432	-11.346	-16.479	3.8985	0	164	1025	1
2026-02-12	16:52:42.070	-22.085	13.3	7.49	-0.005856	0.041968	1.108004	-11.1945	-16.3935	3.915	0	164	1025	1
2026-02-12	16:52:42.090	-28.28	19.88	9.94	-0.0122	0.077348	1.123864	-11.292	-16.4535	3.948	0	164	1025	1
2026-02-12	16:52:42.110	-34.72	22.19	15.925	-0.011956	0.101504	1.113616	-11.3805	-16.545	3.96	0	164	1025	1
2026-02-12	16:52:42.130	-37.835	22.54	20.825	-0.016836	0.137372	1.108248	-11.448	-16.5855	3.9495	0	164	1025	1
2026-02-12	16:52:42.150	-37.31	22.295	25.165	-0.017324	0.139568	1.086288	-11.4765	-16.614	3.948	0	164	1025	1
2026-02-12	16:52:42.170	-32.725	20.685	28.315	-0.027816	0.119072	1.043832	-11.4975	-16.644	3.9435	0	164	1025	1
2026-02-12	16:52:42.190	-24.5	17.43	30.625	-0.044408	0.129564	1.049444	-11.4855	-16.6305	3.933	0	164	1025	1
2026-02-12	16:52:42.210	-15.925	13.16	33.075	-0.052948	0.152256	1.042124	-11.487	-16.6035	3.939	0	160	1031	1
2026-02-12	16:52:42.230	-9.1	6.755	34.65	-0.036356	0.171532	1.036268	-11.5275	-16.6485	3.9495	0	160	1031	1
2026-02-12	16:52:42.250	-5.145	-0.56	35.105	-0.004392	0.183488	1.015284	-11.5875	-16.71	3.957	0	160	1031	1
2026-02-12	16:52:42.270	-4.48	-8.925	35.77	0.005856	0.180072	0.96136	-11.5725	-16.704	3.9645	0	160	1031	1
2026-02-12	16:52:42.290	-4.41	-18.515	36.015	0.016348	0.192028	1.026752	-11.5425	-16.677	3.9495	0	160	1031	1
2026-02-12	16:52:42.310	-4.62	-20.825	36.19	0.018544	0.256444	0.932324	-11.367	-16.527	4.0125	0	160	1031	1
2026-02-12	16:52:42.330	-4.375	-19.11	35.525	0.042944	0.25742	0.946476	-11.2605	-16.4265	4.023	0	160	1031	1
2026-02-12	16:52:42.350	-4.34	-18.935	33.67	0.066856	0.26108	0.952332	-11.2095	-16.3545	4.0185	0	160	1031	1
2026-02-12	16:52:42.370	-3.115	-15.715	29.89	0.082472	0.288896	0.978196	-11.16	-16.3395	4.0245	0	160	1031	1
2026-02-12	16:52:42.390	-3.01	-13.02	25.095	0.076616	0.277672	0.99064	-11.2125	-16.3725	4.0395	0	160	1031	1
2026-02-12	16:52:42.410	-1.995	-9.45	19.18	0.074664	0.230824	0.976	-11.265	-16.401	4.0665	0	154	1037	1
2026-02-12	16:52:42.430	0	-6.16	13.44	0.081252	0.171288	0.954284	-11.3325	-16.4745	4.0905	0	154	1037	1
2026-02-12	16:52:42.450	1.82	-4.935	9.87	0.069296	0.124684	0.924272	-11.409	-16.533	4.113	0	154	1037	1
2026-02-12	16:52:42.470	3.465	-5.005	9.66	0.051484	0.088084	0.892308	-11.463	-16.611	4.1325	0	154	1037	1
2026-02-12	16:52:42.490	5.565	-5.6	11.235	0.042456	0.060024	0.871324	-11.5065	-16.6665	4.14	0	154	1037	1
2026-02-12	16:52:42.510	8.12	-5.53	13.055	0.033428	0.048068	0.85888	-11.514	-16.6875	4.17	0	154	1037	1
2026-02-12	16:52:42.530	10.15	-4.165	14.7	0.031476	0.054656	0.86864	-11.511	-16.689	4.1805	0	154	1037	1
2026-02-12	16:52:42.550	11.655	-1.05	13.685	0.025864	0.066368	0.879864	-11.511	-16.689	4.1805	0	154	1037	1
2026-02-12	16:52:42.570	12.74	-0.595	12.075	0.028304	0.086132	0.889868	-11.511	-16.689	4.1805	0	154	1037	1
2026-02-12	16:52:42.590	16.1	9.94	21.14	-0.051972	0.032696	0.796416	-11.5095	-16.6935	4.1835	0	154	1037	1
2026-02-12	16:52:42.610	15.645	18.97	42.28	0.113216	0.0976	0.91012	-11.5845	-17.115	4.05	0	149	1028	1
2026-02-12	16:52:42.630	14.805	-9.765	43.61	0.07515199	0.02196	0.786412	-11.6475	-18.0045	3.9345	0	149	1028	1
2026-02-12	16:52:42.650	16.485	-19.215	34.055	0.079788	0.101016	1.126792	-11.4855	-18.513	4.248	0	149	1028	1
2026-02-12	16:52:42.670	17.36	17.675	24.5	0.007076	0.091988	0.915732	-11.4375	-18.6045	4.458	0	149	1028	1
2026-02-12	16:52:42.690	15.05	7.84	10.885	-0.00488	0.049776	0.971608	-11.691	-18.6795	4.2675	0	149	1028	1
2026-02-12	16:52:42.710	13.405	-4.655	-1.155	-0.007076	0.06832	1.07604	-11.856	-18.6825	4.185	0	149	1028	1
2026-02-12	16:52:42.730	13.055	3.605	-11.41	-0.009028	0.114924	1.07726	-11.8275	-18.639	4.272	0	149	1028	1
2026-02-12	16:52:42.750	10.465	11.865	-12.46	-0.011956	0.157136	1.094096	-11.82	-18.621	4.257	0	149	1028	1
2026-02-12	16:52:42.770	8.75	5.81	-13.02	0.00854	0.17446	1.129476	-11.8395	-18.6165	4.1745	0	149	1028	1
2026-02-12	16:52:42.790	9.87	8.89	-15.19	-0.008784	0.171288	1.103124	-11.82	-18.585	4.1565	0	149	1028	1
2026-02-12	16:52:42.810	12.215	6.475	-17.885	-0.00976	0.140788	1.092876	-11.8065	-18.5745	4.1415	0	145	1016	1
2026-02-12	16:52:42.830	15.75	5.25	-21.91	-0.016592	0.142252	1.101904	-11.82	-18.6075	4.146	0	145	1016	1
2026-02-12	16:52:42.850	17.675	3.885	-26.25	-0.019764	0.184952	1.138748	-11.85	-18.645	4.167	0	145	1016	1
2026-02-12	16:52:42.870	15.33	1.505	-30.625	-0.013664	0.220088	1.138016	-11.8905	-18.693	4.185	0	145	1016	1
2026-02-12	16:52:42.890	11.095	-2.1	-34.16	0.020252	0.243024	1.109956	-11.907	-18.7215	4.1865	0	145	1016	1
2026-02-12	16:52:42.910	6.3	-6.055	-36.085	0.042212	0.279868	1.054812	-11.8545	-18.6615	4.161	0	145	1016	1
2026-02-12	16:52:42.930	1.995	-12.775	-37.485	0.066612	0.30134	0.995032	-11.7285	-18.5235	4.128	0	145	1016	1
2026-02-12	16:52:42.950	-0.91	-15.61	-39.48	0.087596	0.31842	0.935008	-11.5545	-18.3495	4.119	0	145	1016	1
2026-02-12	16:52:42.970	-1.68	-19.04	-54.565	0.085888	0.333548	0.887184	-11.391	-18.2055	4.1145	0	145	1016	1
2026-02-12	16:52:42.990	-0.595	-22.05	-64.715	0.067588	0.360876	0.958188	-11.193	-18.279	4.1805	0	145	1016	1
2026-02-12	16:52:43.010	-11.9	-16.905	-46.83	0.062708	0.363316	0.971608	-10.9785	-18.5265	4.2825	0	142	1017	1
2026-02-12	16:52:43.030	-9.485	-16.52	-30.555	0.056364	0.325984	0.983808	-10.9065	-18.7305	4.314	0	142	1017	1
2026-02-12	16:52:43.050	-6.825	-16.87	-33.39	0.007076	0.307928	0.977464	-10.944	-18.858	4.3395	0	142	1017	1
2026-02-12	16:52:43.070	-3.64	-37.66	-23.73	0.015616	0.216916	0.926468	-10.962	-18.8985	4.3635	0	142	1017	1
2026-02-12	16:52:43.090	2.275	-61.215	-24.01	0.05612	0.136396	0.973804	-10.9275	-18.9975	4.509	0	142	1017	1
2026-02-12	16:52:43.110	4.655	-50.155	-28.77	0.07515199	0.102724	1.064328	-10.9275	-18.9975	4.509	0	142	1017	1
2026-02-12	16:52:43.130	4.69	-9.31	-44.065	0.047824	0.127856	0.952332	-9.8895	-18.6345	5.9145	0	142	1017	1
2026-02-12	16:52:43.150	6.405	-9.415	7.525	0.17568	0.081984	0.922076	-9.624001	-18.96	5.8305	0	142	1017	1
2026-02-12	16:52:43.170	8.645	-14.875	42.77	-0.223748	-0.045872	0.981612	-10.1265	-18.588	5.715	0	142	1017	1
2026-02-12	16:52:43.190	6.72	-13.265	11.445	-0.123464	0.18056	0.886696	-10.9665	-16.3935	5.5335	0	142	1017	1
2026-02-12	16:52:43.210	8.96	-10.465	3.465	-0.024644	0.21594	1.049688	-11.3445	-16.0365	5.6745	0	141	1019	1
2026-02-12	16:52:43.230	8.435	-10.465	-3.43	0.108336	0.162016	0.926712	-10.839	-17.1255	5.9595	0	141	1019	1
2026-02-12	16:52:43.250	10.815	-16.205	-15.855	0.10004	0.17324	0.91622	-9.969	-18.51	6.264	0	141	1019	1
2026-02-12	16:52:43.270	16.52	-9.52	-13.16	0.037332	0.166164	0.97844	-9.135	-19.062	6.6	0	141	1019	1
2026-02-12	16:52:43.290	39.095	-30.065	-5.775	-0.028548	0.188124	1.0431	-8.988	-19.155	6.6585	0	141	1019	1
2026-02-12	16:52:43.310	6.895	-66.325	2.835	-0.076372	0.15494	0.937448	-9.051	-19.2135	7.0035	0	141	1019	1
2026-02-12	16:52:43.330	4.165	-129.815	6.86	0.29768	0.072712	1.02968	-8.445	-20.136	6.9825	0	141	1019	1
2026-02-12	16:52:43.350	15.54	-135.38	16.94	0.29524	0.08906	0.981124	-6.288	-22.335	6.369	0	141	1019	1
2026-02-12	16:52:43.370	-5.6	-131.075	26.355	0.341112	0.173484	0.882304	-5.0265	-23.5335	6.189	0	141	1019	1
2026-02-12	16:52:43.390	7.525	-141.505	29.295	0.339892	0.22204	1.103124	-5.3325	-23.8065	5.6295	0	141	1019	1
2026-02-12	16:52:43.410	-30.24	-164.465	21.63	0.42944	0.35014	1.168516	-6.6255	-22.263	5.445	0	142	1017	1
2026-02-12	16:52:43.430	-162.015	-171.99	-2.94	0.582428	0.053192	1.507432	-7.4145	-19.6605	3.9045	0	142	1017	1
2026-02-12	16:52:43.450	-263.655	-162.155	-10.605	0.527772	-0.000488	0.770064	-7.038	-15.624	1.1205	0	142	1017	1
2026-02-12	16:52:43.470	-263.41	-182.84	4.06	0.501664	0.016836	0.361364	-5.6985	-11.1285	-1.0965	0	142	1017	1
2026-02-12	16:52:43.490	-243.425	-210.315	2.695	0.857416	-0.167628	0.67588	-4.401	-7.755	-1.659	0	142	1017	1
2026-02-12	16:52:43.510	-118.195	-205.415	-5.39	0.78446	-0.126148	0.852536	-3.2595	-5.316	-1.482	0	142	1017	1
2026-02-12	16:52:43.530	20.16	-170.59	-2.52	0.826428	-0.115656	1.097024	-2.223	-3.522	-0.9435	0	142	1017	1
2026-02-12	16:52:43.550	44.065	-126.035	-12.39	0.829356	-0.08418	1.224636	-1.392	-2.241	-0.501	0	142	1017	1
2026-02-12	16:52:43.570	73.675	-62.65	-22.575	0.832284	-0.086132	1.411052	-0.738	-1.4505	-0.3165	0	142	1017	1
2026-02-12	16:52:43.590	68.95	33.6	-15.05	0.88816	-0.087596	1.324676	-0.303	-1.0005	-0.213	0	142	1017	1
2026-02-12	16:52:43.610	50.645	120.47	7.525	1.055544	-0.010492	0.94916	-0.039	-0.6915	-0.123	0	152	1013	1
2026-02-12	16:52:43.630	23.135	134.225	21.175	1.060424	-0.020496	0.707844	0.096	-0.4815	0.0285	0	152	1013	1
2026-02-12	16:52:43.650	16.03	114.205	27.16	0.99308	-0.08174	0.585356	0.09	-0.336	0.1455	0	152	1013	1
2026-02-12	16:52:43.670	29.505	83.16	36.365	0.903288	-0.115656	0.555588	0.027	-0.2625	0.201	0	152	1013	1
2026-02-12	16:52:43.690	59.78	46.165	46.41	0.829112	-0.114436	0.673928	-0.0165	-0.2235	0.2025	0	152	1013	1
2026-02-12	16:52:43.710	48.16	31.745	54.74	0.816668	-0.07442	0.831308	-0.0375	-0.1965	0.2205	0	152	1013	1
2026-02-12	16:52:43.730	1.505	47.46	61.425	0.681492	-0.039284	0.842776	-0.0525	-0.1755	0.207	0	152	1013	1
2026-02-12	16:52:43.750	-19.355	62.965	74.41	0.591212	0.022448	0.823744	-0.0735	-0.1575	0.1995	0	152	1013	1
2026-02-12	16:52:43.770	-53.34	60.13	82.005	0.580232	0.086376	0.81862	-0.075	-0.1305	0.171	0	152	1013	1
2026-02-12	16:52:43.790	-72.1	55.755	73.15	0.497272	0.08295999	0.855708	-0.087	-0.096	0.1455	0	152	1013	1
2026-02-12	16:52:43.810	-56.28	52.325	65.765	0.494344	0.008296	0.881084	-0.0915	-0.0525	0.117	0	172	995	1
2026-02-12	16:52:43.830	-35.49	56.7	57.19	0.42212	-0.144448	0.699304	-0.0945	0.006	0.084	0	172	995	1
2026-02-12	16:52:43.850	90.195	109.62	47.635	0.380884	-0.032452	0.862296	-0.09	0.0765	0.054	0	172	995	1
2026-02-12	16:52:43.870	27.195	126.56	44.415	0.404552	0.055388	0.63806	-0.0405	0.141	0.0255	0	172	995	1
2026-02-12	16:52:43.890	-32.83	105.7	26.74	0.480436	0.024156	0.61122	0.012	0.1965	0.0105	0	172	995	1
2026-02-12	16:52:43.910	-47.985	86.73	6.685	0.244488	-0.011468	0.74786	0.081	0.2415	0.024	0	172	995	1
2026-02-12	16:52:43.930	23.625	113.085	-17.605	0.410896	-0.049532	0.64904	0.1275	0.2685	0.0735	0	172	995	1
2026-02-12	16:52:43.950	107.73	107.1	-49.805	0.488244	-0.118096	0.606096	0.147	0.252	0.114	0	172	995	1
2026-02-12	16:52:43.970	169.68	72.555	-76.685	0.421144	-0.11102	0.716872	0.153	0.2145	0.135	0	172	995	1
2026-02-12	16:52:43.990	190.225	51.275	-81.165	0.109068	-0.035868	0.636352	0.153	0.2145	0.135	0	172	995	1
2026-02-12	16:52:44.010	171.43	51.73	-83.16	0.051484	0.103212	0.810812	0.153	0.2145	0.135	0	196	953	1
2026-02-12	16:52:44.030	22.645	63.56	-92.19	0.189344	0.136884	0.463844	0.156	0.135	0.135	0	196	953	1
2026-02-12	16:52:44.050	20.58	29.995	-108.08	0.191296	0.168604	0.316468	0.1665	0.042	0.1365	0	196	953	1
2026-02-12	16:52:44.070	118.44	-17.92	-138.74	0.13054	0.17202	0.486048	0.1785	0.015	0.126	0	196	953	1
2026-02-12	16:52:44.090	127.19	-53.935	-159.775	0.216184	0.193736	0.732976	0.18	-0.0195	0.111	0	196	953	1
2026-02-12	16:52:44.110	-5.845	-83.23	-182.63	0.222772	0.080764	0.804712	0.177	-0.0405	0.108	0	196	953	1
2026-02-12	16:52:44.130	31.885	-87.185	-202.615	0.1098	-0.103456	1.100928	0.177	-0.0405	0.108	0	196	953	1
2026-02-12	16:52:44.150	-18.095	-63.175	-174.475	0.175436	-0.183488	1.219024	0.1695	-0.093	0.093	0	196	953	1
2026-02-12	16:52:44.170	-82.985	-41.125	-154	0.13908	-0.207888	1.141676	0.1695	-0.093	0.093	0	196	953	1
2026-02-12	16:52:44.190	-91.385	-7.595	-127.365	0.120536	-0.188124	1.178032	0.168	-0.1035	0.072	0	196	953	1
2026-02-12	16:52:44.210	-83.93	47.32	-112.84	0.140056	-0.241804	0.743468	0.174	-0.1125	0.069	0	220	904	1
2026-02-12	16:52:44.230	222.425	60.935	-103.6	-0.319152	-0.099064	0.597312	0.1965	-0.1065	0.0585	0	220	904	1
2026-02-12	16:52:44.250	-1.96	-24.395	-61.67	0.112484	-0.07686	0.719556	0.2055	-0.141	0.066	0	220	904	1
2026-02-12	16:52:44.270	-233.275	-73.57	-16.1	0.421632	-0.097356	0.852048	0.2085	-0.141	0.0525	0	220	904	1
2026-02-12	16:52:44.290	-197.785	-83.51	-11.725	0.36478	-0.116876	1.199504	0.201	-0.1065	0.051	0	220	904	1
2026-02-12	16:52:44.310	-141.015	-35.665	-16.905	-0.110044	-0.283528	1.134844	0.1875	-0.075	0.042	0	220	904	1
2026-02-12	16:52:44.330	-33.635	-17.745	14.875	0.177876	-0.21228	1.30052	0.1935	-0.0465	0.0405	0	220	904	1
2026-02-12	16:52:44.350	-76.44	-15.995	50.89	0.546316	-0.182268	1.187792	0.189	-0.0375	0.03	0	220	904	1
2026-02-12	16:52:44.370	-24.815	1.925	59.01	0.532896	-0.203984	1.180472	0.204	-0.009	0.0315	0	220	904	1
2026-02-12	16:52:44.390	33.145	29.645	65.1	0.244488	-0.268644	1.25782	0.213	0.006	0.039	0	220	904	1
2026-02-12	16:52:44.410	-140.21	20.265	122.15	0.41602	-0.2867	0.70638	0.231	0.003	0.0435	0	245	892	1
2026-02-12	16:52:44.430	-252.035	-53.48	164.885	0.243512	-0.10126	0.709064	0.24	0.021	0.045	0	245	892	1
2026-02-12	16:52:44.450	-101.045	-68.005	135.45	0.471408	0.053192	1.514996	0.2355	0.0495	0.0585	0	245	892	1
2026-02-12	16:52:44.470	-173.565	-14.245	114.275	0.03172	0.15006	1.174372	0.2265	0.066	0.066	0	245	892	1
2026-02-12	16:52:44.490	37.485	56.735	47.46	0.311588	0.46848	1.700924	0.228	0.075	0.0735	0	245	892	1
2026-02-12	16:52:44.510	100.555	142.52	-41.195	0.181536	0.211792	1.07482	0.234	0.0705	0.0675	0	245	892	1
2026-02-12	16:52:44.530	170.94	139.72	-87.255	-0.380884	-0.284016	0.854	0.2625	0.054	0.0495	0	245	892	1
2026-02-12	16:52:44.550	28.7	36.12	-28.42	-0.697108	-0.275232	0.959164	0.282	0.0285	0.0405	0	245	892	1
2026-02-12	16:52:44.570	-176.155	-70.315	30.38	-0.158112	-0.098332	0.694424	0.285	0.0195	0.039	0	245	892	1
2026-02-12	16:52:44.590	-219.31	-141.89	11.095	0.843264	-0.057828	0.59292	0.282	0.0405	0.0465	0	245	892	1
2026-02-12	16:52:44.610	-135.24	-135.24	-23.345	0.562664	-0.144936	0.580964	0.261	0.0765	0.057	0	272	918	1
2026-02-12	16:52:44.630	-15.26	-120.61	-67.06	0.339404	-0.228384	0.978928	0.2325	0.0855	0.066	0	272	918	1
2026-02-12	16:52:44.650	-68.39	-75.18	-75.6	0.065636	-0.3843	0.81496	0.2085	0.093	0.0735	0	272	918	1
2026-02-12	16:52:44.670	-5.145	-44.87	-83.405	0.32696	-0.37698	0.893528	0.192	0.102	0.0825	0	272	918	1
2026-02-12	16:52:44.690	8.4	-41.86	-84.875	0.581208	-0.362828	0.88572	0.1755	0.1005	0.075	0	272	918	1
2026-02-12	16:52:44.710	14.035	-38.185	-77.14	0.537044	-0.426268	0.945988	0.1455	0.102	0.0675	0	272	918	1
2026-02-12	16:52:44.730	32.305	-21.49	-62.055	0.273524	-0.455792	1.088728	0.123	0.1035	0.0825	0	272	918	1
2026-02-12	16:52:44.750	26.67	-16.45	-40.74	0.244732	-0.488244	0.990152	0.1215	0.0915	0.078	0	272	918	1
2026-02-12	16:52:44.770	19.32	-25.935	14.455	0.45872	-0.355996	1.070672	0.111	0.084	0.084	0	272	918	1
2026-02-12	16:52:44.790	-6.65	-21.315	47.705	0.464332	-0.3599	0.916952	0.0915	0.0945	0.084	0	272	918	1
2026-02-12	16:52:44.810	-68.18	-12.565	62.37	0.508496	0.08784	0.959896	0.093	0.084	0.0885	0	299	941	1
2026-02-12	16:52:44.830	-2.52	12.32	16.38	0.514108	0.11834	1.281244	0.09	0.0855	0.0945	0	299	941	1
2026-02-12	16:52:44.850	19.775	54.915	-25.9	0.510448	-0.097356	0.873032	0.09	0.096	0.096	0	299	941	1
2026-02-12	16:52:44.870	15.785	68.845	-49.595	0.498736	-0.192516	0.834724	0.0885	0.102	0.096	0	299	941	1
2026-02-12	16:52:44.890	-1.33	56.735	-26.705	0.224968	-0.371124	0.793244	0.0855	0.096	0.093	0	299	941	1
2026-02-12	16:52:44.910	82.565	35.875	4.27	0.400892	-0.364292	0.78934	0.075	0.1035	0.09	0	299	941	1
2026-02-12	16:52:44.930	67.165	-5.95	29.75	0.171288	-0.35624	0.716384	0.0765	0.09	0.09	0	299	941	1
2026-02-12	16:52:44.950	71.225	-43.96	36.855	0.279868	-0.316956	0.721752	0.0675	0.0825	0.102	0	299	941	1
2026-02-12	16:52:44.970	127.575	-75.81	31.045	0.47702	-0.350872	0.666608	0.063	0.0765	0.108	0	299	941	1
2026-02-12	16:52:44.990	118.3	-104.055	79.975	0.72224	-0.270352	0.86864	0.0585	0.0705	0.12	0	299	941	1
2026-02-12	16:52:45.010	-11.83	-140.77	126.84	0.560468	-0.146156	0.895968	0.045	0.057	0.132	0	323	945	1
2026-02-12	16:52:45.030	-18.375	-147.28	122.5	0.461648	0.092232	0.838384	0.0375	0.0495	0.165	0	323	945	1
2026-02-12	16:52:45.050	68.075	-127.575	72.415	0.47458	0.104432	0.652212	0.0345	0.0435	0.1755	0	323	945	1
2026-02-12	16:52:45.070	186.795	-140.21	13.335	0.52216	0.074664	0.4392	0.027	0.033	0.1905	0	323	945	1
2026-02-12	16:52:45.090	123.725	-161.945	7	0.627812	-0.037576	0.641476	0.0195	0.012	0.2115	0	323	945	1
2026-02-12	16:52:45.110	32.865	-198.555	34.265	0.827648	-0.211304	0.694424	0.024	-0.006	0.225	0	323	945	1
2026-02-12	16:52:45.130	74.585	-214.83	53.235	0.988932	-0.07198	0.878888	0.0045	-0.0195	0.249	0	323	945	1
2026-02-12	16:52:45.150	9.38	-203.98	54.005	0.712724	0.2074	0.789096	0	-0.0405	0.2715	0	323	945	1
2026-02-12	16:52:45.170	-31.395	-164.255	11.69	0.959652	0.375028	1.855376	-0.012	-0.0465	0.288	0	323	945	1
2026-02-12	16:52:45.190	-125.93	-40.67	13.02	0.919392	0.045628	0.998204	-0.012	-0.0465	0.288	0	323	945	1
2026-02-12	16:52:45.210	42.7	69.335	-21.63	0.602192	0.1464	0.904264	-0.0165	-0.0585	0.294	0	342	926	1
2026-02-12	16:52:45.230	105.245	141.68	-94.85	0.70516	0.002928	0.494344	-0.0225	-0.0705	0.3015	0	342	926	1
2026-02-12	16:52:45.250	97.755	143.43	-115.045	0.604632	-0.025376	0.333548	-0.027	-0.0735	0.297	0	342	926	1
2026-02-12	16:52:45.270	88.095	100.52	-142.065	0.696864	0.058316	0.070028	-0.0315	-0.0825	0.303	0	342	926	1
2026-02-12	16:52:45.290	94.605	38.57	-175.63	0.39894	0.03416	0.281088	-0.036	-0.1035	0.3195	0	342	926	1
2026-02-12	16:52:45.310	12.355	9.94	-158.515	0.441396	0.183244	0.008052	-0.0435	-0.144	0.3495	0	342	926	1
2026-02-12	16:52:45.330	-112.35	-109.935	-189.21	0.843264	0.13542	0.28426	-0.0585	-0.201	0.4095	0	342	926	1
2026-02-12	16:52:45.350	-37.24	-63.42	-236.355	1.07116	-0.426756	1.698484	-0.1005	-0.339	0.5475	0	342	926	1
2026-02-12	16:52:45.370	110.18	28.525	-232.015	0.860832	-0.495808	1.514996	-0.129	-0.4485	0.6495	0	342	926	1
2026-02-12	16:52:45.390	5.425	105.595	-175.07	1.000888	-0.254004	1.0065	-0.129	-0.4485	0.6495	0	342	926	1
2026-02-12	16:52:45.410	-45.71	98.35	-102.865	1.095072	-0.246928	0.705892	-0.129	-0.4485	0.6495	0	361	888	1
2026-02-12	16:52:45.430	-97.09	55.23	-35.7	0.66002	-0.08052	0.500932	-0.129	-0.4485	0.6495	0	361	888	1
2026-02-12	16:52:45.450	8.19	46.83	-2.24	0.535824	0.077104	0.531432	-0.2475	0.0135	0.7845	0	361	888	1
2026-02-12	16:52:45.470	7.035	47.32	3.99	0.507764	0.31964	0.700524	-0.2025	0.0105	0.7545	0	361	888	1
2026-02-12	16:52:45.490	-61.81	39.095	-21.49	0.466772	0.420656	0.85766	-0.15	-0.0165	0.699	0	361	888	1
2026-02-12	16:52:45.510	-75.775	21.14	-43.085	0.560468	0.320128	0.737856	-0.0885	-0.066	0.6615	0	361	888	1
2026-02-12	16:52:45.530	-26.775	-12.39	-53.83	0.719312	0.302316	0.755668	-0.0105	-0.099	0.6105	0	361	888	1
2026-02-12	16:52:45.550	-101.885	-16.52	-45.78	0.711748	0.319884	0.814472	0.06	-0.1515	0.5535	0	361	888	1
2026-02-12	16:52:45.570	-103.565	19.04	-61.635	0.587552	-0.056364	0.843752	0.1065	-0.1845	0.4695	0	361	888	1
2026-02-12	16:52:45.590	82.46	57.295	-41.965	0.42822	0.008784	0.489952	0.12	-0.2235	0.3885	0	361	888	1
2026-02-12	16:52:45.610	181.895	34.125	-31.605	-0.054412	0.432856	0.387228	0.141	-0.2565	0.318	0	382	850	1
2026-02-12	16:52:45.630	27.44	-19.6	-39.41	-0.067588	0.922564	0.3477	0.1275	-0.297	0.285	0	382	850	1
2026-02-12	16:52:45.650	-90.93	-105.175	-118.09	0.575352	0.275476	1.12484	0.0975	-0.3225	0.216	0	382	850	1
2026-02-12	16:52:45.670	55.3	-48.72	-121.065	0.531432	-0.226188	1.567456	0.0585	-0.3075	0.1725	0	382	850	1
2026-02-12	16:52:45.690	25.445	12.845	-72.8	0.306952	0.243512	0.988932	0.024	-0.318	0.174	0	382	850	1
2026-02-12	16:52:45.710	-0.945	17.955	-86.38	0.309392	0.248636	0.675636	0.006	-0.33	0.1785	0	382	850	1
2026-02-12	16:52:45.730	26.705	18.83	-106.995	0.260592	0.183488	0.80764	-0.0015	-0.348	0.1785	0	382	850	1
2026-02-12	16:52:45.750	97.545	24.675	-117.145	0.201788	0.305488	1.050664	0.0075	-0.357	0.18	0	382	850	1
2026-02-12	16:52:45.770	77.735	-7.14	-109.305	0.20374	0.331352	1.227076	0.0075	-0.3675	0.216	0	382	850	1
2026-02-12	16:52:45.790	-1.435	-34.93	-87.885	0.2074	0.331108	1.212436	-0.0015	-0.3735	0.246	0	382	850	1
2026-02-12	16:52:45.810	-60.83	-24.01	-78.995	0.439932	0.36966	1.215608	0	-0.3855	0.261	0	402	838	1
2026-02-12	16:52:45.830	4.375	13.51	-71.82	0.549	0.261812	1.203896	-0.0015	-0.378	0.261	0	402	838	1
2026-02-12	16:52:45.850	17.99	49.35	-38.92	0.610732	0.249612	1.404464	0.006	-0.387	0.2745	0	402	838	1
2026-02-12	16:52:45.870	14.315	68.145	4.48	0.318908	0.316712	1.14314	0.018	-0.3945	0.288	0	402	838	1
2026-02-12	16:52:45.890	-48.685	52.745	23.52	0.214964	0.59902	1.026996	0.027	-0.4035	0.306	0	402	838	1
2026-02-12	16:52:45.910	-100.94	58.345	-1.82	0.42212	0.967948	0.8113	0.036	-0.396	0.321	0	402	838	1
2026-02-12	16:52:45.930	-25.9	49.315	-85.715	0.47336	0.904752	0.753472	0.0735	-0.3975	0.2895	0	402	838	1
2026-02-12	16:52:45.950	46.62	23.52	-153.58	0.517768	0.5734	0.6283	0.1005	-0.3795	0.276	0	402	838	1
2026-02-12	16:52:45.970	149.45	-21.07	-137.9	0.8418	0.481168	0.620492	0.135	-0.369	0.2835	0	402	838	1
2026-02-12	16:52:45.990	177.03	-97.02	-57.68	0.899872	0.706624	0.707112	0.1665	-0.3675	0.2955	0	402	838	1
2026-02-12	16:52:46.010	150.15	-158.165	20.895	0.74176	1.003084	0.920856	0.18	-0.366	0.2955	0	420	861	1
2026-02-12	16:52:46.030	95.62	-160.685	66.08	0.697352	1.164124	0.984052	0.1695	-0.363	0.3075	0	420	861	1
2026-02-12	16:52:46.050	66.955	-126.525	64.68	0.574132	1.484984	0.888404	0.156	-0.372	0.3105	0	420	861	1
2026-02-12	16:52:46.070	34.405	-87.15	-0.735	0.441396	1.364936	0.663436	0.1275	-0.3735	0.3195	0	420	861	1
2026-02-12	16:52:46.090	-12.32	-56.875	-26.775	0.325008	0.98698	0.597556	0.147	-0.36	0.33	0	420	861	1
2026-02-12	16:52:46.110	-42.805	-42.49	-20.265	0.127856	1.022604	0.46848	0.1515	-0.3585	0.3165	0	420	861	1
2026-02-12	16:52:46.130	-19.845	-45.185	-26.6	0.077348	1.053836	0.303292	0.1605	-0.348	0.3045	0	420	861	1
2026-02-12	16:52:46.150	-39.97	-64.05	-45.395	0.139568	0.903044	0.230824	0.1545	-0.336	0.303	0	420	861	1
2026-02-12	16:52:46.170	-25.2	-68.74	-64.925	0.29524	0.837896	0.259128	0.168	-0.3285	0.2985	0	420	861	1
2026-02-12	16:52:46.190	36.61	-41.72	-78.715	0.55144	0.6954	0.20496	0.171	-0.3135	0.3	0	420	861	1
2026-02-12	16:52:46.210	48.335	-24.535	-60.34	0.532164	0.69418	0.260104	0.177	-0.303	0.3075	0	438	853	1
2026-02-12	16:52:46.230	39.55	-24.64	-45.605	0.46848	0.689056	0.103212	0.1875	-0.2985	0.318	0	438	853	1
2026-02-12	16:52:46.250	86.345	-64.33	-36.12	0.55022	0.689544	0.100772	0.195	-0.291	0.315	0	438	853	1
2026-02-12	16:52:46.270	83.055	-109.27	-7.245	0.71492	0.632692	0.21838	0.195	-0.291	0.315	0	438	853	1
2026-02-12	16:52:46.290	49.63	-110.775	40.985	0.852292	0.842776	0.35624	0.189	-0.2925	0.321	0	438	853	1
2026-02-12	16:52:46.310	21.07	-99.12	54.915	0.735904	0.938424	0.503372	0.1845	-0.2955	0.3285	0	438	853	1
2026-02-12	16:52:46.330	23.31	-67.725	43.435	0.534848	1.005036	0.684664	0.1755	-0.303	0.324	0	438	853	1
2026-02-12	16:52:46.350	72.275	-13.02	12.25	0.615368	1.001864	0.6222	0.165	-0.3075	0.3225	0	438	853	1
2026-02-12	16:52:46.370	60.865	7.875	2.73	0.721996	0.813008	0.61366	0.1665	-0.3075	0.327	0	438	853	1
2026-02-12	16:52:46.390	3.535	10.745	27.93	0.6405	0.856684	0.706624	0.1725	-0.3105	0.333	0	438	853	1
2026-02-12	16:52:46.410	-34.09	33.6	42.56	0.46604	1.154852	0.554612	0.165	-0.3045	0.3405	0	456	784	1
2026-02-12	16:52:46.430	-39.165	37.17	10.745	0.389668	1.00528	0.48922	0.156	-0.2865	0.3375	0	456	784	1
2026-02-12	16:52:46.450	-79.275	28.98	-12.11	0.381128	0.70516	-0.066856	0.147	-0.264	0.3285	0	456	784	1
2026-02-12	16:52:46.470	-60.34	-23.555	-0.35	0.255468	0.440908	0.127612	0.1365	-0.243	0.3315	0	456	784	1
2026-02-12	16:52:46.490	-96.215	-34.86	11.69	0.11102	0.461648	0.206912	0.1245	-0.216	0.342	0	456	784	1
2026-02-12	16:52:46.510	-87.92	-10.71	-1.295	0.029036	0.488732	0.14274	0.117	-0.189	0.3435	0	456	784	1
2026-02-12	16:52:46.530	-27.685	7.805	-36.33	0.283528	0.346236	0.000732	0.1125	-0.1695	0.345	0	456	784	1
2026-02-12	16:52:46.550	54.81	-20.65	-36.575	0.57218	0.185196	-0.012444	0.108	-0.156	0.3465	0	456	784	1
2026-02-12	16:52:46.570	73.675	-75.53	21.07	0.701744	0.388204	0.36966	0.1155	-0.1485	0.3495	0	456	784	1
2026-02-12	16:52:46.590	28.595	-72.31	96.495	0.79788	0.7991	0.61122	0.117	-0.1575	0.36	0	456	784	1
2026-02-12	16:52:46.610	-11.165	-59.815	109.305	1.002352	1.060668	0.477996	0.111	-0.183	0.3555	0	470	686	1
2026-02-12	16:52:46.630	6.37	-69.545	94.535	0.903776	1.133868	0.767624	0.114	-0.201	0.342	0	470	686	1
2026-02-12	16:52:46.650	-175.28	-72.38	61.25	0.739076	1.046028	0.381372	0.111	-0.2085	0.345	0	470	686	1
2026-02-12	16:52:46.670	-161.63	-80.745	1.61	0.618052	0.854732	0.22326	0.1065	-0.1995	0.348	0	470	686	1
2026-02-12	16:52:46.690	-110.425	-69.055	-41.545	0.812764	0.900848	0.088328	0.108	-0.174	0.345	0	470	686	1
2026-02-12	16:52:46.710	-109.9	-76.65	-77.28	1.035048	0.961116	0.152744	0.111	-0.153	0.3465	0	470	686	1
2026-02-12	16:52:46.730	-42.07	-87.57	-117.705	0.827404	0.644648	0.479704	0.126	-0.15	0.3585	0	470	686	1
2026-02-12	16:52:46.750	-30.695	-60.06	-111.405	0.789096	0.459452	0.513864	0.153	-0.1515	0.372	0	470	686	1
2026-02-12	16:52:46.770	-29.715	-28.665	-87.5	0.817644	0.392108	0.653676	0.1695	-0.153	0.378	0	470	686	1
2026-02-12	16:52:46.790	-57.085	-21	-52.01	0.65514	0.747128	0.979416	0.1695	-0.153	0.378	0	470	686	1
2026-02-12	16:52:46.810	-107.73	9.835	-68.285	0.232044	0.893284	1.262212	0.1695	-0.153	0.378	0	480	600	1
2026-02-12	16:52:46.830	-62.09	80.43	-124.25	0.189832	0.69418	0.368684	0.1695	-0.153	0.378	0	480	600	1
2026-02-12	16:52:46.850	6.44	44.94	-154.595	0.61	0.211548	0.417728	0.228	-0.207	0.4485	0	480	600	1
2026-02-12	16:52:46.870	-47.985	-25.06	-108.57	0.424804	0.129564	0.798612	0.2625	-0.207	0.441	0	480	600	1
2026-02-12	16:52:46.890	13.055	-47.985	-71.75	-0.040748	0.923052	0.637572	0.282	-0.2325	0.4515	0	480	600	1
2026-02-12	16:52:46.910	32.76	-83.615	-132.37	0.249856	1.122156	0.681248	0.288	-0.2265	0.465	0	480	600	1
2026-02-12	16:52:46.930	-148.12	-96.425	-164.885	0.619272	0.7076	0.598044	0.3285	-0.2325	0.4635	0	480	600	1
2026-02-12	16:52:46.950	-168.21	-51.03	-141.015	0.877668	0.165432	0.563884	0.366	-0.2265	0.459	0	480	600	1
2026-02-12	16:52:46.970	-106.75	-43.295	-37.59	0.883524	0.011224	0.399916	0.3945	-0.2475	0.4635	0	480	600	1
2026-02-12	16:52:46.990	-141.645	-82.25	84.42	0.67954	1.05896	0.854976	0.426	-0.243	0.4695	0	480	600	1
2026-02-12	16:52:47.010	-230.405	0.175	35.175	0.11346	1.104832	-0.002196	0.4275	-0.2445	0.477	0	488	564	1
2026-02-12	16:52:47.030	166.39	47.95	-72.345	0.438468	0.404796	0.199348	0.426	-0.2535	0.477	0	488	564	1
2026-02-12	16:52:47.050	-17.465	-64.715	-35.385	0.32574	0.197396	0.598776	0.417	-0.2655	0.4965	0	488	564	1
2026-02-12	16:52:47.070	-85.575	-82.74	8.155	0.654652	0.549976	0.902068	0.432	-0.2625	0.4575	0	488	564	1
2026-02-12	16:52:47.090	-2.975	-13.825	15.89	0.533872	0.743956	0.788364	0.4185	-0.258	0.4545	0	488	564	1
2026-02-12	16:52:47.110	0.175	33.285	4.41	0.283528	0.970632	0.598532	0.414	-0.2565	0.4635	0	488	564	1
2026-02-12	16:52:47.130	-19.215	54.425	-38.15	0.497028	0.69906	0.203008	0.4125	-0.2625	0.471	0	488	564	1
2026-02-12	16:52:47.150	2.065	34.265	-51.24	0.410896	0.610488	0.263276	0.423	-0.2775	0.4845	0	488	564	1
2026-02-12	16:52:47.170	22.225	15.575	-45.955	0.315248	0.294264	0.513864	0.4305	-0.2835	0.4965	0	488	564	1
2026-02-12	16:52:47.190	16.1	5.775	-18.97	0.422364	0.389668	0.493612	0.4455	-0.285	0.483	0	488	564	1
2026-02-12	16:52:47.210	44.59	8.575	4.13	0.470676	0.750056	0.414068	0.4485	-0.2955	0.4815	0	494	555	3
2026-02-12	16:52:47.230	55.65	-2.905	8.365	0.443592	0.813252	0.537776	0.447	-0.2925	0.492	0	494	555	3
2026-02-12	16:52:47.250	43.295	-11.27	0.945	0.572912	0.630984	0.808372	0.4305	-0.285	0.486	0	494	555	3
2026-02-12	16:52:47.270	50.505	13.615	12.005	0.545828	0.672952	0.758596	0.4305	-0.2775	0.486	0	494	555	3
2026-02-12	16:52:47.290	58.94	27.265	22.575	0.488976	1.009672	0.701012	0.435	-0.276	0.4785	0	494	555	3
2026-02-12	16:52:47.310	27.23	26.32	6.02	0.3599	0.996984	0.902068	0.4335	-0.2685	0.4965	0	494	555	3
2026-02-12	16:52:47.330	-25.83	41.93	-5.635	0.363072	1.086776	0.759084	0.4335	-0.2685	0.4965	0	494	555	3
2026-02-12	16:52:47.350	-61.67	49.315	-26.775	0.464332	0.77714	0.5368	0.438	-0.27	0.5025	0	494	555	3
2026-02-12	16:52:47.370	-51.135	47.215	-30.695	0.483608	0.62342	0.504836	0.444	-0.2715	0.51	0	494	555	3
2026-02-12	16:52:47.390	-21.98	33.705	-10.5	0.431636	0.630496	0.655872	0.4455	-0.282	0.501	0	494	555	3
2026-02-12	16:52:47.410	-15.155	28.665	13.405	0.268888	0.892796	0.874984	0.4485	-0.294	0.492	0	495	564	3
2026-02-12	16:52:47.430	-24.885	40.635	12.6	0.277672	0.908656	0.74054	0.4485	-0.2925	0.4845	0	495	564	3
2026-02-12	16:52:47.450	-23.765	40.355	1.855	0.25132	0.62098	0.639524	0.4545	-0.288	0.4845	0	495	564	3
2026-02-12	16:52:47.470	-0.21	35.07	8.96	0.237412	0.710284	0.56608	0.465	-0.285	0.483	0	495	564	3
2026-02-12	16:52:47.490	-5.215	17.815	13.72	0.21228	0.584624	0.789096	0.465	-0.2805	0.4665	0	495	564	3
2026-02-12	16:52:47.510	-14.035	28	24.675	0.223748	0.495808	0.766892	0.4635	-0.276	0.4575	0	495	564	3
2026-02-12	16:52:47.530	-21.875	40.355	41.055	0.192272	0.62952	0.768356	0.4635	-0.273	0.4515	0	495	564	3
2026-02-12	16:52:47.550	-12.215	55.125	40.845	0.14884	0.713212	0.671976	0.462	-0.273	0.453	0	495	564	3
2026-02-12	16:52:47.570	10.5	56.7	32.34	0.16592	0.680272	0.529724	0.468	-0.2715	0.4635	0	495	564	3
2026-02-12	16:52:47.590	24.675	41.335	28.525	0.213988	0.61854	0.518744	0.4725	-0.2685	0.471	0	495	564	3
2026-02-12	16:52:47.610	38.885	28.385	28.735	0.200812	0.682712	0.639036	0.4695	-0.267	0.4725	0	487	589	1
2026-02-12	16:52:47.630	30.905	21.175	26.635	0.212768	0.804712	0.811544	0.462	-0.261	0.471	0	487	589	1
2026-02-12	16:52:47.650	3.71	26.495	14.49	0.296704	0.71858	0.835944	0.456	-0.2595	0.465	0	487	589	1
2026-02-12	16:52:47.670	-1.855	40.355	10.01	0.32696	0.651236	0.712968	0.4575	-0.2535	0.462	0	487	589	1
2026-02-12	16:52:47.690	2.87	42.84	11.935	0.332328	0.673684	0.573156	0.4635	-0.246	0.4605	0	487	589	1
2026-02-12	16:52:47.710	5.005	32.095	11.725	0.342088	0.607804	0.584136	0.4665	-0.243	0.4635	0	487	589	1
2026-02-12	16:52:47.730	9.905	24.185	15.995	0.37088	0.63928	0.647088	0.4635	-0.243	0.4695	0	487	589	1
2026-02-12	16:52:47.750	12.11	26.11	18.9	0.386984	0.71004	0.610976	0.4605	-0.24	0.471	0	487	589	1
2026-02-12	16:52:47.770	16.205	30.485	16.24	0.36966	0.732	0.628056	0.4665	-0.2355	0.471	0	487	589	1
2026-02-12	16:52:47.790	13.37	26.915	18.095	0.3843	0.74176	0.609024	0.471	-0.234	0.474	0	487	589	1
2026-02-12	16:52:47.810	3.885	21.63	20.44	0.423584	0.614636	0.632692	0.4695	-0.2295	0.483	0	470	614	1
2026-02-12	16:52:47.830	11.9	19.81	32.865	0.393328	0.722484	0.429684	0.4695	-0.234	0.4965	0	470	614	1
2026-02-12	16:52:47.850	24.885	1.015	33.005	0.3843	0.914024	0.465552	0.4725	-0.231	0.5025	0	470	614	1
2026-02-12	16:52:47.870	7.525	-29.89	14.385	0.40382	0.720532	0.67466	0.471	-0.219	0.5025	0	470	614	1
2026-02-12	16:52:47.890	3.535	-30.45	11.445	0.447252	0.691984	0.696132	0.462	-0.228	0.5055	0	470	614	1
2026-02-12	16:52:47.910	20.685	-21.665	9.66	0.379176	0.734684	0.691496	0.4515	-0.2295	0.4995	0	470	614	1
2026-02-12	16:52:47.930	33.18	-23.45	6.125	0.345504	0.799344	0.70882	0.4425	-0.2235	0.495	0	470	614	1
2026-02-12	16:52:47.950	22.295	-31.43	0.56	0.38186	0.787632	0.751764	0.4365	-0.2235	0.498	0	470	614	1
2026-02-12	16:52:47.970	1.645	-35.875	-7.875	0.381372	0.66002	0.787144	0.435	-0.222	0.495	0	470	614	1
2026-02-12	16:52:47.990	0.14	-27.265	-2.065	0.381616	0.727608	0.758352	0.4335	-0.2235	0.4875	0	470	614	1
2026-02-12	16:52:48.010	15.75	-16.065	0.315	0.290116	0.853756	0.769332	0.4275	-0.2205	0.48	0	444	631	1
2026-02-12	16:52:48.030	25.62	-6.37	-7.945	0.25864	0.993568	0.781532	0.426	-0.2175	0.483	0	444	631	1
2026-02-12	16:52:48.050	9.485	-5.005	-21.42	0.263032	0.978196	0.803248	0.423	-0.213	0.489	0	444	631	1
2026-02-12	16:52:48.070	-3.115	-3.325	-34.72	0.27694	0.777384	0.815448	0.4215	-0.2085	0.4875	0	444	631	1
2026-02-12	16:52:48.090	-3.5	4.62	-30.45	0.299876	0.722728	0.6954	0.4275	-0.2085	0.4875	0	444	631	1
2026-02-12	16:52:48.110	-7.385	5.075	-24.745	0.248636	0.687836	0.610976	0.4335	-0.207	0.4905	0	444	631	1
2026-02-12	16:52:48.130	-19.46	-7.105	-21.035	0.226676	0.640012	0.733708	0.435	-0.207	0.4875	0	444	631	1
2026-02-12	16:52:48.150	-38.535	-14.14	-11.305	0.278404	0.594872	0.804224	0.429	-0.204	0.48	0	444	631	1
2026-02-12	16:52:48.170	-24.92	-2.1	-5.32	0.260348	0.650016	0.753228	0.4275	-0.1995	0.483	0	444	631	1
2026-02-12	16:52:48.190	-6.09	7.98	-8.75	0.23302	0.64172	0.69784	0.4305	-0.201	0.4875	0	444	631	1
2026-02-12	16:52:48.210	-9.66	3.675	-8.925	0.252784	0.595116	0.726876	0.4305	-0.201	0.4875	0	412	652	1
2026-02-12	16:52:48.230	-16.835	4.9	-6.93	0.252296	0.662948	0.671244	0.438	-0.207	0.5025	0	412	652	1
2026-02-12	16:52:48.250	-12.46	8.47	-12.04	0.2806	0.596336	0.570472	0.4305	-0.2115	0.5085	0	412	652	1
2026-02-12	16:52:48.270	-0.455	-1.19	-10.045	0.310368	0.567788	0.616344	0.4425	-0.2175	0.519	0	412	652	1
2026-02-12	16:52:48.290	5.635	-9.38	1.155	0.283528	0.66002	0.671976	0.4365	-0.2145	0.51	0	412	652	1
2026-02-12	16:52:48.310	12.04	-12.88	0.315	0.270596	0.656116	0.692228	0.4365	-0.2145	0.522	0	412	652	1
2026-02-12	16:52:48.330	9.03	-18.48	-1.085	0.305	0.671244	0.73932	0.435	-0.2145	0.5205	0	412	652	1
2026-02-12	16:52:48.350	4.095	-15.82	-1.96	0.291336	0.693204	0.68198	0.4365	-0.2115	0.51	0	412	652	1
2026-02-12	16:52:48.370	5.705	-15.96	-7.91	0.343552	0.708332	0.578768	0.453	-0.216	0.5085	0	412	652	1
2026-02-12	16:52:48.390	-5.425	-27.93	-7.77	0.369172	0.515816	0.708576	0.453	-0.216	0.5085	0	412	652	1
2026-02-12	16:52:48.410	0.98	-26.145	3.325	0.399184	0.683932	0.74908	0.441	-0.213	0.5025	0	379	669	1
2026-02-12	16:52:48.430	1.68	-23.1	4.795	0.378688	0.71004	0.741028	0.429	-0.21	0.4965	0	379	669	1
2026-02-12	16:52:48.450	0.14	-16.31	4.9	0.399184	0.782508	0.658556	0.42	-0.207	0.492	0	379	669	1
2026-02-12	16:52:48.470	-0.21	-14.735	-0.595	0.444812	0.631228	0.590968	0.42	-0.1995	0.4845	0	379	669	1
2026-02-12	16:52:48.490	11.305	-16.205	6.195	0.436028	0.65636	0.592432	0.4305	-0.1965	0.489	0	379	669	1
2026-02-12	16:52:48.510	18.69	-18.9	14.315	0.418216	0.776896	0.611708	0.429	-0.1995	0.4935	0	379	669	1
2026-02-12	16:52:48.530	29.75	-16.38	12.11	0.421388	0.784948	0.621956	0.423	-0.2025	0.492	0	379	669	1
2026-02-12	16:52:48.550	34.265	-12.39	12.705	0.427976	0.766892	0.604144	0.4185	-0.201	0.498	0	379	669	1
2026-02-12	16:52:48.570	38.395	-13.825	15.68	0.394304	0.774456	0.59048	0.4275	-0.2055	0.51	0	379	669	1
2026-02-12	16:52:48.590	46.795	-20.055	19.46	0.359412	0.894992	0.598532	0.4365	-0.213	0.519	0	379	669	1
2026-02-12	16:52:48.610	43.33	-29.05	15.96	0.37576	0.848388	0.692472	0.4215	-0.2145	0.5115	0	346	677	1
2026-02-12	16:52:48.630	35.91	-27.79	14.21	0.389668	0.772992	0.818132	0.411	-0.216	0.504	0	346	677	1
2026-02-12	16:52:48.650	35.665	-8.925	17.955	0.345992	0.849364	0.80764	0.399	-0.222	0.5055	0	346	677	1
2026-02-12	16:52:48.670	34.09	10.92	13.72	0.314516	0.87352	0.713212	0.384	-0.2295	0.5085	0	346	677	1
2026-02-12	16:52:48.690	29.47	19.565	7.315	0.312076	0.830332	0.665876	0.3825	-0.2295	0.5085	0	346	677	1
2026-02-12	16:52:48.710	27.72	23.275	6.195	0.306952	0.861808	0.635864	0.3885	-0.234	0.516	0	346	677	1
2026-02-12	16:52:48.730	22.855	21.035	3.255	0.322568	0.838384	0.597556	0.39	-0.2385	0.5295	0	346	677	1
2026-02-12	16:52:48.750	19.25	15.015	1.645	0.334524	0.754936	0.560468	0.3915	-0.2415	0.5265	0	346	677	1
2026-02-12	16:52:48.770	14.455	6.615	4.725	0.353068	0.626592	0.526796	0.3945	-0.2475	0.5295	0	346	677	1
2026-02-12	16:52:48.790	19.11	0.105	13.16	0.34038	0.638304	0.512644	0.3885	-0.249	0.5325	0	346	677	1
2026-02-12	16:52:48.810	19.215	-6.545	20.93	0.324764	0.70394	0.596824	0.3885	-0.2505	0.5205	0	315	676	1
2026-02-12	16:52:48.830	10.15	-4.095	23.765	0.327936	0.71736	0.651724	0.393	-0.252	0.5145	0	315	676	1
2026-02-12	16:52:48.850	5.845	8.75	24.57	0.318176	0.730536	0.576328	0.3885	-0.2475	0.5145	0	315	676	1
2026-02-12	16:52:48.870	8.855	18.375	22.715	0.289384	0.75762	0.460672	0.384	-0.2475	0.5175	0	315	676	1
2026-02-12	16:52:48.890	11.69	17.395	18.725	0.291336	0.752496	0.433344	0.3795	-0.249	0.525	0	315	676	1
2026-02-12	16:52:48.910	8.925	12.145	15.435	0.302804	0.748592	0.522648	0.3855	-0.2475	0.531	0	315	676	1
2026-02-12	16:52:48.930	7.49	17.01	14.105	0.29768	0.782508	0.50142	0.384	-0.246	0.5385	0	315	676	1
2026-02-12	16:52:48.950	5.285	18.655	8.505	0.316712	0.741516	0.47214	0.375	-0.246	0.5355	0	315	676	1
2026-02-12	16:52:48.970	-0.035	15.505	5.67	0.3416	0.678808	0.4697	0.381	-0.249	0.537	0	315	676	1
2026-02-12	16:52:48.990	-6.3	12.355	7.07	0.345748	0.66612	0.487756	0.387	-0.2475	0.543	0	315	676	1
2026-02-12	16:52:49.010	-4.2	13.195	7.595	0.362828	0.644648	0.43066	0.384	-0.246	0.54	0	286	659	1
2026-02-12	16:52:49.030	-1.365	10.815	8.645	0.365268	0.649772	0.452376	0.3885	-0.2505	0.537	0	286	659	1
2026-02-12	16:52:49.050	-1.505	10.15	9.835	0.38064	0.662216	0.523136	0.3885	-0.252	0.534	0	286	659	1
2026-02-12	16:52:49.070	-1.645	14.07	11.165	0.39406	0.712724	0.511668	0.387	-0.252	0.531	0	286	659	1
2026-02-12	16:52:49.090	-4.305	18.445	9.205	0.41602	0.714432	0.469212	0.39	-0.2505	0.531	0	286	659	1
2026-02-12	16:52:49.110	-5.67	18.9	8.82	0.42822	0.680516	0.385276	0.39	-0.249	0.534	0	286	659	1
2026-02-12	16:52:49.130	-2.905	10.15	10.325	0.449448	0.685396	0.398208	0.3855	-0.2505	0.543	0	286	659	1
2026-02-12	16:52:49.150	2.31	3.57	11.795	0.446032	0.732	0.44774	0.3825	-0.2475	0.5385	0	286	659	1
2026-02-12	16:52:49.170	1.085	1.54	8.575	0.475312	0.74298	0.512888	0.381	-0.24	0.525	0	286	659	1
2026-02-12	16:52:49.190	-2.87	5.67	4.585	0.517768	0.74542	0.548024	0.3795	-0.2385	0.525	0	286	659	1
2026-02-12	16:52:49.210	-3.01	11.165	2.87	0.550952	0.7503	0.52948	0.381	-0.2415	0.5295	0	262	627	1
2026-02-12	16:52:49.230	-1.575	9.17	5.39	0.557296	0.763476	0.505568	0.3825	-0.2415	0.525	0	262	627	1
2026-02-12	16:52:49.250	2.835	0.56	9.765	0.52216	0.825452	0.509228	0.3825	-0.2385	0.522	0	262	627	1
2026-02-12	16:52:49.270	9.765	-8.015	7.49	0.51728	0.84424	0.573644	0.3795	-0.2385	0.525	0	262	627	1
2026-02-12	16:52:49.290	5.915	-13.475	4.2	0.537776	0.804712	0.687836	0.3795	-0.2385	0.5265	0	262	627	1
2026-02-12	16:52:49.310	-4.865	-9.275	6.615	0.549732	0.812764	0.704916	0.3795	-0.2325	0.522	0	262	627	1
2026-02-12	16:52:49.330	-13.475	-3.08	10.395	0.53436	0.821548	0.687836	0.378	-0.2295	0.519	0	262	627	1
2026-02-12	16:52:49.350	-11.585	3.57	11.655	0.499712	0.805688	0.613172	0.378	-0.2295	0.5145	0	262	627	1
2026-02-12	16:52:49.370	-4.27	2.59	12.74	0.46848	0.838384	0.618784	0.375	-0.2265	0.513	0	262	627	1
2026-02-12	16:52:49.390	-0.56	-1.995	12.67	0.431392	0.881328	0.625372	0.375	-0.2265	0.5145	0	262	627	1
2026-02-12	16:52:49.410	4.76	-3.395	6.685	0.399916	0.822524	0.632692	0.3705	-0.225	0.5175	0	242	602	1
2026-02-12	16:52:49.430	3.605	-6.265	3.64	0.349896	0.83204	0.711016	0.3645	-0.2235	0.513	0	242	602	1
2026-02-12	16:52:49.450	-12.425	-8.505	-1.295	0.362828	0.812032	0.71614	0.3645	-0.222	0.5055	0	242	602	1
2026-02-12	16:52:49.470	-26.285	-9.555	-8.155	0.380152	0.66978	0.664656	0.3735	-0.2145	0.507	0	242	602	1
2026-02-12	16:52:49.490	-27.65	-10.08	-8.225	0.38186	0.627568	0.647088	0.3735	-0.2145	0.507	0	242	602	1
2026-02-12	16:52:49.510	-29.715	-11.655	-2.1	0.366732	0.640012	0.597312	0.3765	-0.2145	0.5085	0	242	602	1
2026-02-12	16:52:49.530	-30.905	-14.105	2.555	0.328424	0.673196	0.564372	0.3675	-0.213	0.4995	0	242	602	1
2026-02-12	16:52:49.550	-36.89	-18.445	5.985	0.304756	0.682224	0.48434	0.372	-0.213	0.4995	0	242	602	1
2026-02-12	16:52:49.570	-42.91	-31.15	8.4	0.332816	0.618784	0.510936	0.3705	-0.2055	0.501	0	242	602	1
2026-02-12	16:52:49.590	-35.07	-38.325	14.035	0.365268	0.706624	0.58682	0.3705	-0.2055	0.501	0	242	602	1
2026-02-12	16:52:49.610	-22.785	-28.21	7.56	0.3538	0.681004	0.594628	0.3705	-0.2055	0.501	0	226	597	1
2026-02-12	16:52:49.630	-6.86	-16.38	-2.765	0.347212	0.707356	0.588772	0.3705	-0.2055	0.501	0	226	597	1
2026-02-12	16:52:49.650	5.39	-8.155	-14.49	0.375028	0.696864	0.612684	0.357	-0.2025	0.48	0	226	597	1
2026-02-12	16:52:49.670	14.7	-2.135	-23.24	0.406016	0.650016	0.609756	0.348	-0.2055	0.4635	0	226	597	1
2026-02-12	16:52:49.690	11.095	-0.105	-23.59	0.428952	0.61	0.564372	0.3585	-0.2085	0.471	0	226	597	1
2026-02-12	16:52:49.710	2.59	-3.36	-17.745	0.420412	0.66124	0.531432	0.363	-0.2055	0.474	0	226	597	1
2026-02-12	16:52:49.730	3.36	-5.25	-17.64	0.426268	0.661728	0.535824	0.3615	-0.204	0.477	0	226	597	1
2026-02-12	16:52:49.750	8.68	-4.095	-16.59	0.45262	0.643184	0.533628	0.363	-0.1995	0.48	0	226	597	1
2026-02-12	16:52:49.770	5.67	-2.94	-10.22	0.460184	0.668072	0.54046	0.3585	-0.201	0.4785	0	226	597	1
2026-02-12	16:52:49.790	3.465	0	-5.95	0.486048	0.687348	0.559492	0.366	-0.207	0.4755	0	226	597	1
2026-02-12	16:52:49.810	9.8	6.125	-4.375	0.504104	0.671	0.530944	0.3705	-0.207	0.474	0	212	597	1
2026-02-12	16:52:49.830	22.925	8.225	1.05	0.520452	0.726876	0.47092	0.3615	-0.2085	0.4785	0	212	597	1
2026-02-12	16:52:49.850	34.72	-0.035	5.285	0.536556	0.723216	0.555588	0.3675	-0.21	0.486	0	212	597	1
2026-02-12	16:52:49.870	37.24	-6.16	13.475	0.572668	0.771528	0.694912	0.372	-0.207	0.4875	0	212	597	1
2026-02-12	16:52:49.890	30.31	2.905	20.86	0.549244	0.851804	0.69906	0.3705	-0.207	0.4875	0	212	597	1
2026-02-12	16:52:49.910	24.29	15.225	22.33	0.53436	0.875472	0.630252	0.3675	-0.213	0.492	0	212	597	1
2026-02-12	16:52:49.930	25.935	20.125	22.015	0.547048	0.869128	0.558028	0.3645	-0.2175	0.501	0	212	597	1
2026-02-12	16:52:49.950	29.89	16.94	24.955	0.560712	0.877668	0.605608	0.366	-0.216	0.5055	0	212	597	1
2026-02-12	16:52:49.970	27.615	15.435	29.225	0.550708	0.912316	0.587064	0.3675	-0.219	0.5085	0	212	597	1
2026-02-12	16:52:49.990	24.85	13.615	29.82	0.519964	0.879132	0.589992	0.36	-0.225	0.516	0	212	597	1
2026-02-12	16:52:50.010	21.595	11.06	30.94	0.509716	0.828868	0.719312	0.3555	-0.2235	0.5175	0	199	598	3
2026-02-12	16:52:50.030	7.455	21.21	36.505	0.457012	0.864492	0.739564	0.3615	-0.2205	0.5175	0	199	598	3
2026-02-12	16:52:50.050	-2.135	39.375	35.315	0.365024	0.83326	0.719556	0.3645	-0.222	0.525	0	199	598	3
2026-02-12	16:52:50.070	-9.555	51.66	31.5	0.294996	0.883524	0.66612	0.366	-0.2295	0.5325	0	199	598	3
2026-02-12	16:52:50.090	-26.04	53.095	24.22	0.172508	0.825696	0.42334	0.372	-0.2325	0.543	0	199	598	3
2026-02-12	16:52:50.110	-2.87	44.975	9.065	0.279868	0.736636	0.376004	0.381	-0.243	0.5535	0	199	598	3
2026-02-12	16:52:50.130	5.04	19.495	5.67	0.320128	0.538752	0.474824	0.39	-0.2535	0.5625	0	199	598	3
2026-02-12	16:52:50.150	12.46	6.23	25.585	0.308416	0.660752	0.465552	0.393	-0.2565	0.5655	0	199	598	3
2026-02-12	16:52:50.170	10.5	-0.245	32.13	0.259372	0.694424	0.60878	0.393	-0.261	0.5535	0	199	598	3
2026-02-12	16:52:50.190	21.315	12.775	30.24	0.277672	0.721508	0.635376	0.3855	-0.264	0.546	0	199	598	3
2026-02-12	16:52:50.210	19.705	23.905	28.14	0.264984	0.763476	0.61	0.384	-0.267	0.546	0	190	599	1
2026-02-12	16:52:50.230	15.365	34.44	19.565	0.30012	0.691984	0.524112	0.3915	-0.2715	0.549	0	190	599	1
2026-02-12	16:52:50.250	18.305	42.91	15.47	0.33062	0.702964	0.477996	0.3915	-0.273	0.552	0	190	599	1
2026-02-12	16:52:50.270	17.325	40.53	16.38	0.312808	0.710528	0.470432	0.39	-0.27	0.5535	0	190	599	1
2026-02-12	16:52:50.290	17.955	32.83	13.23	0.35136	0.687104	0.475312	0.393	-0.27	0.5505	0	190	599	1
2026-02-12	16:52:50.310	27.72	31.36	11.165	0.4148	0.643916	0.461892	0.3945	-0.273	0.546	0	190	599	1
2026-02-12	16:52:50.330	27.335	25.935	13.265	0.456036	0.548756	0.552172	0.3975	-0.276	0.5415	0	190	599	1
2026-02-12	16:52:50.350	28.595	31.99	21.49	0.492392	0.545096	0.572668	0.3945	-0.276	0.5415	0	190	599	1
2026-02-12	16:52:50.370	29.925	40.915	30.765	0.457012	0.685396	0.55022	0.393	-0.279	0.5445	0	190	599	1
2026-02-12	16:52:50.390	24.395	46.06	27.93	0.493612	0.679052	0.507032	0.387	-0.282	0.543	0	190	599	1
2026-02-12	16:52:50.410	37.38	53.025	24.78	0.560224	0.585356	0.437248	0.387	-0.2835	0.546	0	185	591	1
2026-02-12	16:52:50.430	52.675	49.35	32.585	0.555344	0.632936	0.496052	0.39	-0.282	0.558	0	185	591	1
2026-02-12	16:52:50.450	50.575	44.66	40.635	0.53802	0.767868	0.501664	0.3945	-0.2775	0.5655	0	185	591	1
2026-02-12	16:52:50.470	37.345	39.55	36.225	0.549732	0.759572	0.505324	0.396	-0.276	0.57	0	185	591	1
2026-02-12	16:52:50.490	27.265	34.09	29.085	0.598044	0.68198	0.548512	0.3945	-0.2745	0.5745	0	185	591	1
2026-02-12	16:52:50.510	21.385	31.78	29.855	0.647088	0.599752	0.553636	0.3945	-0.2745	0.5745	0	185	591	1
2026-02-12	16:52:50.530	20.16	29.12	38.605	0.629032	0.626836	0.522892	0.3825	-0.2835	0.585	0	185	591	1
2026-02-12	16:52:50.550	19.81	26.845	43.12	0.603656	0.660996	0.50386	0.3825	-0.2835	0.585	0	185	591	1
2026-02-12	16:52:50.570	23.765	17.815	47.145	0.540216	0.753228	0.527772	0.387	-0.2745	0.5925	0	185	591	1
2026-02-12	16:52:50.590	25.97	8.12	41.615	0.555344	0.756644	0.620736	0.3795	-0.2745	0.597	0	185	591	1
2026-02-12	16:52:50.610	20.265	4.06	35.42	0.589016	0.768112	0.711504	0.372	-0.2745	0.603	0	180	580	3
2026-02-12	16:52:50.630	12.145	14.035	27.755	0.577792	0.746152	0.672464	0.366	-0.2745	0.594	0	180	580	3
2026-02-12	16:52:50.650	11.305	22.05	20.51	0.564372	0.748104	0.57218	0.3705	-0.27	0.591	0	180	580	3
2026-02-12	16:52:50.670	15.05	16.1	12.985	0.58438	0.709552	0.551928	0.3675	-0.2805	0.606	0	180	580	3
2026-02-12	16:52:50.690	24.185	6.79	11.165	0.601948	0.628056	0.598776	0.3675	-0.279	0.618	0	180	580	3
2026-02-12	16:52:50.710	24.78	-2.905	18.655	0.561688	0.686372	0.687104	0.366	-0.285	0.612	0	180	580	3
2026-02-12	16:52:50.730	16.87	-1.33	18.97	0.496052	0.72224	0.734196	0.36	-0.2835	0.6105	0	180	580	3
2026-02-12	16:52:50.750	9.415	3.99	11.935	0.442372	0.736392	0.776652	0.369	-0.273	0.6	0	180	580	3
2026-02-12	16:52:50.770	-6.16	10.22	6.265	0.389668	0.817888	0.684908	0.357	-0.276	0.6075	0	180	580	3
2026-02-12	16:52:50.790	-21.56	8.75	-6.51	0.371368	0.75884	0.598776	0.363	-0.27	0.615	0	180	580	3
2026-02-12	16:52:50.810	-22.12	0.84	-18.725	0.375028	0.682712	0.567544	0.3615	-0.276	0.615	0	177	579	3
2026-02-12	16:52:50.830	-21.49	-8.4	-23.24	0.34038	0.6039	0.540948	0.3705	-0.273	0.624	0	177	579	3
2026-02-12	16:52:50.850	-17.36	-16.66	-20.93	0.372832	0.577792	0.584624	0.363	-0.2775	0.6225	0	177	579	3
2026-02-12	16:52:50.870	-14.14	-18.62	-15.365	0.341844	0.590236	0.581696	0.372	-0.2775	0.6195	0	177	579	3
2026-02-12	16:52:50.890	-6.09	-16.695	-12.915	0.322812	0.62708	0.60268	0.3735	-0.2685	0.621	0	177	579	3
2026-02-12	16:52:50.910	-0.21	-14.56	-14.56	0.309636	0.69906	0.6222	0.3645	-0.2745	0.6135	0	177	579	3
2026-02-12	16:52:50.930	-1.085	-11.375	-21.49	0.327448	0.699792	0.624884	0.369	-0.2685	0.615	0	177	579	3
2026-02-12	16:52:50.950	1.33	-5.67	-30.695	0.381372	0.656848	0.642696	0.375	-0.261	0.609	0	177	579	3
2026-02-12	16:52:50.970	2.66	2.03	-34.405	0.415044	0.63196	0.554612	0.3765	-0.2565	0.615	0	177	579	3
2026-02-12	16:52:50.990	11.34	6.685	-34.86	0.403088	0.639768	0.529236	0.3765	-0.2565	0.615	0	177	579	3
2026-02-12	16:52:51.010	10.99	-2.66	-33.39	0.42212	0.632936	0.458232	0.3765	-0.2565	0.615	0	174	586	1
2026-02-12	16:52:51.030	-1.47	-18.235	-28.77	0.410164	0.671	0.486292	0.3765	-0.2565	0.615	0	174	586	1
2026-02-12	16:52:51.050	-3.85	-23.065	-30.765	0.434076	0.64782	0.586576	0.39	-0.255	0.6255	0	174	586	1
2026-02-12	16:52:51.070	-6.65	-16.765	-30.205	0.439444	0.644648	0.579988	0.3975	-0.249	0.633	0	174	586	1
2026-02-12	16:52:51.090	-10.71	-11.34	-27.37	0.442128	0.669048	0.547048	0.396	-0.249	0.6285	0	174	586	1
2026-02-12	16:52:51.110	-11.34	-9.275	-25.655	0.487268	0.662948	0.482632	0.4005	-0.252	0.627	0	174	586	1
2026-02-12	16:52:51.130	-9.625	-14.7	-24.57	0.594628	0.63928	0.43676	0.408	-0.246	0.624	0	174	586	1
2026-02-12	16:52:51.150	-1.155	-25.69	-20.615	0.64416	0.587796	0.40748	0.414	-0.2415	0.618	0	174	586	1
2026-02-12	16:52:51.170	19.915	-44.8	-9.31	0.599264	0.65148	0.606828	0.4065	-0.243	0.6075	0	174	586	1
2026-02-12	16:52:51.190	24.605	-57.54	3.08	0.576572	0.852048	0.792512	0.3975	-0.2355	0.597	0	174	586	1
2026-02-12	16:52:51.210	0.07	-58.345	5.845	0.517524	0.951112	0.841068	0.3945	-0.2265	0.5925	0	171	589	3
2026-02-12	16:52:51.230	-19.425	-45.22	-7.14	0.488	0.891332	0.710528	0.393	-0.225	0.594	0	171	589	3
2026-02-12	16:52:51.250	-10.92	-31.885	-23.275	0.511668	0.723948	0.595604	0.3915	-0.2295	0.603	0	171	589	3
2026-02-12	16:52:51.270	3.22	-29.96	-25.27	0.511424	0.71248	0.52338	0.393	-0.2355	0.609	0	171	589	3
2026-02-12	16:52:51.290	15.26	-43.05	-20.055	0.505324	0.75762	0.561688	0.3945	-0.2415	0.6105	0	171	589	3
2026-02-12	16:52:51.310	18.69	-54.53	-13.335	0.511912	0.858636	0.65026	0.3885	-0.249	0.6135	0	171	589	3
2026-02-12	16:52:51.330	20.58	-48.02	-15.505	0.5002	0.956968	0.683688	0.381	-0.249	0.609	0	171	589	3
2026-02-12	16:52:51.350	13.58	-35.35	-29.085	0.518256	0.892308	0.653676	0.3795	-0.2415	0.6015	0	171	589	3
2026-02-12	16:52:51.370	1.785	-20.895	-34.895	0.545584	0.849852	0.526796	0.3855	-0.2355	0.6075	0	171	589	3
2026-02-12	16:52:51.390	-6.895	-15.295	-32.34	0.506788	0.81862	0.477996	0.3945	-0.2355	0.6105	0	171	589	3
2026-02-12	16:52:51.410	-15.96	-19.635	-24.185	0.4453	0.878888	0.507276	0.3945	-0.2355	0.609	0	168	592	3
2026-02-12	16:52:51.430	-25.97	-17.22	-17.115	0.388936	0.843264	0.444568	0.3945	-0.234	0.609	0	168	592	3
2026-02-12	16:52:51.450	-18.095	-16.31	-13.58	0.307684	0.782752	0.41724	0.3945	-0.231	0.606	0	168	592	3
2026-02-12	16:52:51.470	-18.095	-20.825	-9.345	0.259128	0.763964	0.450912	0.396	-0.231	0.606	0	168	592	3
2026-02-12	16:52:51.490	-24.955	-21.63	-5.145	0.22326	0.75396	0.49288	0.3975	-0.231	0.603	0	168	592	3
2026-02-12	16:52:51.510	-22.33	-16.8	-3.71	0.230824	0.743468	0.460428	0.3975	-0.228	0.5985	0	168	592	3
2026-02-12	16:52:51.530	-8.61	-13.125	-1.225	0.211792	0.732976	0.416264	0.4005	-0.2295	0.594	0	168	592	3
2026-02-12	16:52:51.550	0.84	-18.9	1.855	0.193248	0.779092	0.45994	0.399	-0.2325	0.594	0	168	592	3
2026-02-12	16:52:51.570	-7.77	-27.615	0.21	0.21228	0.852536	0.525088	0.399	-0.2325	0.594	0	168	592	3
2026-02-12	16:52:51.590	-16.975	-23.555	-11.165	0.283528	0.784704	0.623176	0.39	-0.231	0.588	0	168	592	3
2026-02-12	16:52:51.610	-19.915	-16.485	-16.24	0.321104	0.750788	0.662704	0.39	-0.231	0.588	0	167	585	3
2026-02-12	16:52:51.630	-28.385	7	-19.915	0.384788	0.732	0.670268	0.3945	-0.2295	0.579	0	167	585	3
2026-02-12	16:52:51.650	-39.55	28.7	-20.23	0.374784	0.7503	0.546804	0.3945	-0.2295	0.5715	0	167	585	3
2026-02-12	16:52:51.670	-39.795	38.885	-25.795	0.402356	0.739076	0.329644	0.4065	-0.231	0.582	0	167	585	3
2026-02-12	16:52:51.690	-27.895	31.57	-30.275	0.444568	0.620004	0.230092	0.417	-0.231	0.585	0	167	585	3
2026-02-12	16:52:51.710	-12.705	14.77	-22.33	0.449936	0.59658	0.371856	0.4185	-0.2385	0.5865	0	167	585	3
2026-02-12	16:52:51.730	-34.3	2.275	-5.88	0.431392	0.690276	0.572424	0.4215	-0.24	0.594	0	167	585	3
2026-02-12	16:52:51.750	-57.435	9.17	3.885	0.445544	0.743956	0.540948	0.4155	-0.234	0.5745	0	167	585	3
2026-02-12	16:52:51.770	-55.475	20.755	4.025	0.454328	0.722484	0.393084	0.42	-0.2325	0.5655	0	167	585	3
2026-02-12	16:52:51.790	-33.74	20.195	2.975	0.422852	0.754692	0.448228	0.4275	-0.2385	0.582	0	167	585	3
2026-02-12	16:52:51.810	-34.545	15.015	3.64	0.436272	0.805688	0.551196	0.4305	-0.2355	0.57	0	167	569	3
2026-02-12	16:52:51.830	-33.005	19.53	-0.385	0.476288	0.80032	0.48434	0.4335	-0.2325	0.5715	0	167	569	3
2026-02-12	16:52:51.850	-12.18	21.245	-5.005	0.489952	0.748592	0.341112	0.444	-0.234	0.5865	0	167	569	3
2026-02-12	16:52:51.870	7.7	3.885	-4.025	0.51606	0.744932	0.40504	0.441	-0.2385	0.5865	0	167	569	3
2026-02-12	16:52:51.890	2.625	-14.805	1.26	0.526552	0.807152	0.625128	0.4425	-0.2325	0.588	0	167	569	3
2026-02-12	16:52:51.910	6.825	-8.61	0.245	0.53802	0.806664	0.58926	0.438	-0.2325	0.5745	0	167	569	3
2026-02-12	16:52:51.930	21.385	-10.15	-1.155	0.488732	0.806908	0.58438	0.4455	-0.237	0.5805	0	167	569	3
2026-02-12	16:52:51.950	23.065	-22.75	-1.225	0.493124	0.874008	0.761524	0.4365	-0.2385	0.585	0	167	569	3
2026-02-12	16:52:51.970	0.49	-20.545	-2.1	0.490196	0.9638	0.84058	0.4365	-0.2415	0.588	0	167	569	3
2026-02-12	16:52:51.990	-18.48	-7.035	-11.235	0.551196	0.846192	0.707356	0.4305	-0.2355	0.5805	0	167	569	3
2026-02-12	16:52:52.010	-6.37	-1.26	-14.385	0.568276	0.716872	0.539728	0.4275	-0.2445	0.576	0	167	557	3
2026-02-12	16:52:52.030	8.155	-17.92	-3.115	0.532408	0.773236	0.581696	0.4425	-0.252	0.591	0	167	557	3
2026-02-12	16:52:52.050	-0.56	-34.23	2.205	0.536556	0.79178	0.745664	0.438	-0.252	0.588	0	167	557	3
2026-02-12	16:52:52.070	-0.245	-25.025	2.03	0.49776	0.765428	0.836188	0.426	-0.249	0.5685	0	167	557	3
2026-02-12	16:52:52.090	-9.695	-14.315	2.695	0.411872	0.720044	0.772504	0.4305	-0.246	0.558	0	167	557	3
2026-02-12	16:52:52.110	-29.505	-19.075	5.25	0.33672	0.723216	0.876448	0.4275	-0.2505	0.5685	0	167	557	3
2026-02-12	16:52:52.130	-43.05	-8.82	3.535	0.281576	0.715164	0.786168	0.432	-0.243	0.552	0	167	557	3
2026-02-12	16:52:52.150	-38.815	-0.735	-6.93	0.277672	0.609756	0.669048	0.4245	-0.2415	0.546	0	167	557	3
2026-02-12	16:52:52.170	-45.745	-7.42	-7.07	0.29646	0.513864	0.574132	0.4245	-0.249	0.552	0	167	557	3
2026-02-12	16:52:52.190	-40.25	-15.47	-0.735	0.251564	0.527528	0.524356	0.429	-0.2325	0.5535	0	167	557	3
2026-02-12	16:52:52.210	-22.82	-24.255	0.56	0.254004	0.544608	0.58072	0.4335	-0.2355	0.5565	0	168	569	3
2026-02-12	16:52:52.230	-9.835	-28.175	0.595	0.272304	0.564128	0.662216	0.4335	-0.2265	0.54	0	168	569	3
2026-02-12	16:52:52.250	4.725	-19.425	-0.84	0.257664	0.604632	0.63074	0.4185	-0.219	0.549	0	168	569	3
2026-02-12	16:52:52.270	22.365	-13.09	-7.56	0.253028	0.658068	0.554856	0.423	-0.228	0.5505	0	168	569	3
2026-02-12	16:52:52.290	28.42	-15.505	-17.675	0.330864	0.585844	0.581452	0.4215	-0.222	0.5475	0	168	569	3
2026-02-12	16:52:52.310	17.08	-17.675	-17.395	0.380396	0.58804	0.670024	0.414	-0.2235	0.549	0	168	569	3
2026-02-12	16:52:52.330	11.83	-5.81	-16.765	0.376492	0.683688	0.602436	0.4185	-0.216	0.543	0	168	569	3
2026-02-12	16:52:52.350	16.625	2.24	-23.45	0.360144	0.719068	0.464088	0.4065	-0.216	0.5415	0	168	569	3
2026-02-12	16:52:52.370	22.785	-6.335	-32.13	0.424316	0.61	0.544608	0.4275	-0.2145	0.561	0	168	569	3
2026-02-12	16:52:52.390	16.45	-14.21	-25.865	0.44408	0.578524	0.684176	0.4215	-0.2115	0.552	0	168	569	3
2026-02-12	16:52:52.410	6.79	-6.86	-14.91	0.410896	0.74664	0.687592	0.423	-0.2115	0.543	0	170	588	3
2026-02-12	16:52:52.430	2.065	5.215	-19.95	0.407968	0.737856	0.595848	0.423	-0.2115	0.543	0	170	588	3
2026-02-12	16:52:52.450	3.115	8.365	-24.01	0.464576	0.61122	0.53802	0.423	-0.2115	0.543	0	170	588	3
2026-02-12	16:52:52.470	7.14	4.655	-12.985	0.503372	0.595116	0.552904	0.423	-0.2115	0.543	0	170	588	3
2026-02-12	16:52:52.490	14.91	1.61	1.995	0.474824	0.743468	0.60512	0.426	-0.2085	0.54	0	170	588	3
2026-02-12	16:52:52.510	28.945	5.25	7.035	0.495076	0.878644	0.501664	0.4305	-0.2025	0.546	0	170	588	3
2026-02-12	16:52:52.530	45.465	-0.805	3.78	0.530944	0.798124	0.468968	0.429	-0.1995	0.5475	0	170	588	3
2026-02-12	16:52:52.550	60.235	-15.54	9.205	0.554124	0.770064	0.55144	0.423	-0.2055	0.543	0	170	588	3
2026-02-12	16:52:52.570	61.67	-24.745	22.085	0.525088	0.884256	0.654164	0.4155	-0.2085	0.543	0	170	588	3
2026-02-12	16:52:52.590	49.7	-22.61	26.04	0.528748	0.983808	0.621956	0.4125	-0.204	0.5385	0	170	588	3
2026-02-12	16:52:52.610	45.08	-19.565	18.69	0.529968	0.904508	0.633912	0.414	-0.201	0.5355	0	172	600	1
2026-02-12	16:52:52.630	49.385	-16.415	17.15	0.52826	0.901092	0.698816	0.414	-0.201	0.5355	0	172	600	1
2026-02-12	16:52:52.650	35.56	-9.38	18.025	0.47092	0.969412	0.72224	0.3975	-0.2115	0.5385	0	172	600	1
2026-02-12	16:52:52.670	25.13	-3.92	15.645	0.439932	0.983564	0.675148	0.3975	-0.2115	0.5385	0	172	600	1
2026-02-12	16:52:52.690	11.97	2.065	3.78	0.422608	0.979172	0.5734	0.4065	-0.2115	0.5505	0	172	600	1
2026-02-12	16:52:52.710	12.845	-1.4	-9.94	0.423828	0.870348	0.611952	0.3945	-0.21	0.5505	0	172	600	1
2026-02-12	16:52:52.730	7.875	-4.34	-11.97	0.399672	0.81984	0.71492	0.4095	-0.2115	0.5445	0	172	600	1
2026-02-12	16:52:52.750	-2.695	4.375	-8.645	0.365024	0.808616	0.647332	0.4125	-0.2145	0.5475	0	172	600	1
2026-02-12	16:52:52.770	-4.97	13.615	-9.625	0.295728	0.712236	0.481412	0.4095	-0.219	0.5625	0	172	600	1
2026-02-12	16:52:52.790	0.42	8.225	-8.295	0.26352	0.640988	0.41724	0.414	-0.2145	0.5565	0	172	600	1
2026-02-12	16:52:52.810	-3.01	-7	-0.595	0.27938	0.603168	0.53924	0.4275	-0.213	0.564	0	173	606	1
2026-02-12	16:52:52.830	-12.88	-8.715	12.39	0.246928	0.675148	0.630008	0.411	-0.222	0.5505	0	173	606	1
2026-02-12	16:52:52.850	-17.22	4.34	17.36	0.239852	0.7503	0.487756	0.4065	-0.2265	0.5445	0	173	606	1
2026-02-12	16:52:52.870	-2.555	10.465	9.975	0.24766	0.681004	0.41358	0.411	-0.225	0.549	0	173	606	1
2026-02-12	16:52:52.890	6.825	5.67	7.49	0.306464	0.618296	0.515084	0.414	-0.2265	0.5505	0	173	606	1
2026-02-12	16:52:52.910	-5.985	7.21	15.75	0.317688	0.719068	0.573644	0.411	-0.2235	0.555	0	173	606	1
2026-02-12	16:52:52.930	-16.17	20.37	11.97	0.340868	0.76006	0.46848	0.411	-0.2205	0.552	0	173	606	1
2026-02-12	16:52:52.950	-10.255	28.525	3.57	0.366	0.701256	0.368928	0.405	-0.234	0.5625	0	173	606	1
2026-02-12	16:52:52.970	-1.4	22.855	4.305	0.415288	0.697352	0.378444	0.399	-0.222	0.5565	0	173	606	1
2026-02-12	16:52:52.990	-6.615	13.93	8.435	0.41602	0.716872	0.446764	0.408	-0.2205	0.555	0	173	606	1
2026-02-12	16:52:53.010	-14.98	16.31	10.675	0.420412	0.803736	0.437736	0.408	-0.219	0.5535	0	175	598	1
2026-02-12	16:52:53.030	-20.755	27.44	4.375	0.355996	0.62708	0.41602	0.405	-0.222	0.5505	0	175	598	1
2026-02-12	16:52:53.050	-17.71	39.13	14.49	0.641964	0.562664	0.294752	0.414	-0.2115	0.549	0	175	598	1
2026-02-12	16:52:53.070	3.045	33.985	30.695	0.644648	0.67466	0.405528	0.4185	-0.2205	0.555	0	175	598	1
2026-02-12	16:52:53.090	16.52	30.065	39.725	0.423584	0.835456	0.364048	0.4125	-0.219	0.552	0	175	598	1
2026-02-12	16:52:53.110	17.36	15.4	35.7	0.485072	1.00284	0.238876	0.4155	-0.2055	0.5595	0	175	598	1
2026-02-12	16:52:53.130	28.595	-15.82	8.785	0.479948	0.799832	0.482632	0.411	-0.2055	0.576	0	175	598	1
2026-02-12	16:52:53.150	16.38	-27.72	1.96	0.593652	0.680516	0.682224	0.4155	-0.204	0.5625	0	175	598	1
2026-02-12	16:52:53.170	0.35	-13.965	14.175	0.553392	0.730536	0.751032	0.4005	-0.201	0.549	0	175	598	1
2026-02-12	16:52:53.190	-23.485	0.245	20.3	0.534116	0.838628	0.655628	0.3975	-0.2085	0.54	0	175	598	1
2026-02-12	16:52:53.210	-30.345	2.835	14.455	0.5734	0.761768	0.450668	0.3975	-0.213	0.552	0	176	574	1
2026-02-12	16:52:53.230	-4.97	-9.66	12.11	0.534116	0.697596	0.385032	0.405	-0.2115	0.567	0	176	574	1
2026-02-12	16:52:53.250	17.325	-31.43	14.595	0.506544	0.708576	0.534604	0.408	-0.216	0.5745	0	176	574	1
2026-02-12	16:52:53.270	9.17	-44.52	14.805	0.545828	0.813008	0.687836	0.402	-0.2175	0.564	0	176	574	1
2026-02-12	16:52:53.290	0.63	-35.77	4.305	0.60878	0.759084	0.764696	0.393	-0.21	0.543	0	176	574	1
2026-02-12	16:52:53.310	-8.365	-18.69	1.295	0.602192	0.648796	0.789828	0.396	-0.2145	0.534	0	176	574	1
2026-02-12	16:52:53.330	-17.535	-5.46	7.91	0.533872	0.718824	0.820816	0.3855	-0.2055	0.5385	0	176	574	1
2026-02-12	16:52:53.350	-28.42	8.12	9.205	0.497028	0.968924	0.671488	0.381	-0.2025	0.5355	0	176	574	1
2026-02-12	16:52:53.370	-40.285	14.245	-7.035	0.448472	0.871568	0.514596	0.3855	-0.2085	0.546	0	176	574	1
2026-02-12	16:52:53.390	-32.13	3.745	-20.825	0.437004	0.63806	0.64904	0.39	-0.195	0.5385	0	176	574	1
2026-02-12	16:52:53.410	-36.855	3.815	-6.79	0.461892	0.746152	0.74786	0.3975	-0.195	0.5415	0	179	563	3
2026-02-12	16:52:53.430	-44.415	17.255	-0.49	0.333792	0.81252	0.514352	0.3945	-0.198	0.534	0	179	563	3
2026-02-12	16:52:53.450	-35.805	8.085	-10.36	0.283772	0.691496	0.360632	0.4035	-0.189	0.5505	0	179	563	3
2026-02-12	16:52:53.470	-31.395	-23.065	-15.575	0.329888	0.548268	0.522648	0.4125	-0.192	0.543	0	179	563	3
2026-02-12	16:52:53.490	-27.545	-32.48	-7.035	0.378444	0.601216	0.642208	0.411	-0.192	0.54	0	179	563	3
2026-02-12	16:52:53.510	-19.39	-25.095	-3.99	0.342088	0.676368	0.614392	0.4125	-0.186	0.528	0	179	563	3
2026-02-12	16:52:53.530	-5.215	-17.01	-9.765	0.319396	0.648064	0.600972	0.402	-0.1815	0.516	0	179	563	3
2026-02-12	16:52:53.550	4.62	-13.195	-15.015	0.34526	0.631228	0.594628	0.405	-0.1815	0.5085	0	179	563	3
2026-02-12	16:52:53.570	10.115	-8.925	-20.86	0.351848	0.629276	0.5917	0.3975	-0.183	0.516	0	179	563	3
2026-02-12	16:52:53.590	11.76	-6.93	-26.67	0.389912	0.607804	0.555344	0.399	-0.1785	0.504	0	179	563	3
2026-02-12	16:52:53.610	13.055	-10.045	-28.98	0.424316	0.57218	0.545828	0.3975	-0.177	0.501	0	182	568	1
2026-02-12	16:52:53.630	18.025	-12.39	-26.67	0.422608	0.632204	0.6832	0.4065	-0.18	0.489	0	182	568	1
2026-02-12	16:52:53.650	9.73	-1.155	-25.095	0.422364	0.736148	0.741516	0.4005	-0.177	0.4935	0	182	568	1
2026-02-12	16:52:53.670	-0.7	21.525	-30.31	0.425048	0.728096	0.461404	0.405	-0.1695	0.4935	0	182	568	1
2026-02-12	16:52:53.690	3.955	19.53	-35.28	0.43554	0.581696	0.271084	0.405	-0.1695	0.4935	0	182	568	1
2026-02-12	16:52:53.710	23.625	-3.675	-29.96	0.460672	0.547292	0.44286	0.411	-0.174	0.5055	0	182	568	1
2026-02-12	16:52:53.730	26.285	-14.07	-22.12	0.476776	0.626592	0.593408	0.4185	-0.18	0.5175	0	182	568	1
2026-02-12	16:52:53.750	16.065	-12.705	-9.485	0.48678	0.771284	0.73078	0.4155	-0.183	0.5115	0	182	568	1
2026-02-12	16:52:53.770	6.685	5.67	-9.135	0.479704	0.762012	0.60634	0.411	-0.18	0.5055	0	182	568	1
2026-02-12	16:52:53.790	15.96	14.42	-10.71	0.506056	0.720288	0.476044	0.411	-0.174	0.507	0	182	568	1
2026-02-12	16:52:53.810	26.18	8.19	-3.675	0.534604	0.750788	0.492148	0.4155	-0.1785	0.5115	0	184	574	1
2026-02-12	16:52:53.830	30.38	1.05	4.655	0.536556	0.744932	0.591456	0.417	-0.183	0.513	0	184	574	1
2026-02-12	16:52:53.850	34.265	3.57	13.3	0.5124	0.825696	0.62586	0.4155	-0.1845	0.5085	0	184	574	1
2026-02-12	16:52:53.870	37.24	7.28	15.68	0.47336	0.8967	0.662948	0.417	-0.186	0.504	0	184	574	1
2026-02-12	16:52:53.890	31.955	9.59	14.805	0.51484	0.871568	0.615124	0.417	-0.186	0.504	0	184	574	1
2026-02-12	16:52:53.910	27.51	8.68	17.22	0.543144	0.838628	0.614148	0.417	-0.186	0.504	0	184	574	1
2026-02-12	16:52:53.930	31.64	11.27	23.59	0.494588	0.908412	0.663192	0.4065	-0.1965	0.5265	0	184	574	1
2026-02-12	16:52:53.950	28.875	15.26	24.535	0.459208	0.95282	0.630496	0.414	-0.2055	0.5175	0	184	574	1
2026-02-12	16:52:53.970	20.825	15.82	18.865	0.427488	0.87352	0.690276	0.4035	-0.204	0.5295	0	184	574	1
2026-02-12	16:52:53.990	15.015	25.41	19.25	0.416996	0.914512	0.768844	0.411	-0.2085	0.531	0	184	574	1
2026-02-12	16:52:54.010	-6.51	41.755	19.915	0.365512	0.919392	0.689788	0.4095	-0.1995	0.5295	0	185	581	3
2026-02-12	16:52:54.030	-14.315	54.425	17.465	0.301096	0.8906	0.540704	0.4095	-0.2085	0.528	0	185	581	3
2026-02-12	16:52:54.050	-2.03	56.315	12.67	0.293288	0.833992	0.420168	0.4215	-0.21	0.546	0	185	581	3
2026-02-12	16:52:54.070	9.38	42.42	12.6	0.29402	0.735904	0.427244	0.4185	-0.222	0.5625	0	185	581	3
2026-02-12	16:52:54.090	10.92	24.605	21.14	0.332084	0.696376	0.501664	0.4275	-0.2145	0.549	0	185	581	3
2026-02-12	16:52:54.110	4.41	14.805	33.32	0.319396	0.678564	0.601216	0.42	-0.2115	0.5565	0	185	581	3
2026-02-12	16:52:54.130	2.205	20.37	44.1	0.316468	0.73932	0.572912	0.429	-0.216	0.549	0	185	581	3
2026-02-12	16:52:54.150	8.435	29.435	47.355	0.277916	0.774944	0.510692	0.4185	-0.2145	0.54	0	185	581	3
2026-02-12	16:52:54.170	15.75	34.02	46.2	0.272304	0.781776	0.473848	0.411	-0.216	0.543	0	185	581	3
2026-02-12	16:52:54.190	22.12	36.61	42.7	0.261324	0.779824	0.428952	0.4095	-0.2175	0.555	0	185	581	3
2026-02-12	16:52:54.210	30.415	36.295	36.435	0.255956	0.769088	0.423584	0.411	-0.2175	0.5685	0	184	584	3
2026-02-12	16:52:54.230	36.05	33.39	27.895	0.298412	0.728096	0.487512	0.4065	-0.231	0.573	0	184	584	3
2026-02-12	16:52:54.250	40.285	35.42	22.82	0.357948	0.69174	0.52826	0.4155	-0.222	0.57	0	184	584	3
2026-02-12	16:52:54.270	42	39.48	22.47	0.348676	0.72834	0.525576	0.417	-0.222	0.5745	0	184	584	3
2026-02-12	16:52:54.290	38.465	38.01	17.325	0.35136	0.744444	0.504104	0.4125	-0.2295	0.5775	0	184	584	3
2026-02-12	16:52:54.310	27.09	33.39	9.905	0.399184	0.660996	0.513376	0.4095	-0.234	0.57	0	184	584	3
2026-02-12	16:52:54.330	18.34	34.86	8.015	0.429684	0.604144	0.507276	0.405	-0.2355	0.585	0	184	584	3
2026-02-12	16:52:54.350	20.965	40.495	9.345	0.421144	0.665876	0.423828	0.4215	-0.237	0.5805	0	184	584	3
2026-02-12	16:52:54.370	23.975	37.66	6.265	0.427732	0.670268	0.355508	0.4155	-0.2385	0.5835	0	184	584	3
2026-02-12	16:52:54.390	27.755	27.895	4.62	0.466772	0.671732	0.393328	0.42	-0.2445	0.5955	0	184	584	3
2026-02-12	16:52:54.410	27.125	24.745	2.835	0.521428	0.712724	0.540216	0.42	-0.2445	0.5985	0	182	574	3
2026-02-12	16:52:54.430	24.045	33.67	-1.225	0.535092	0.647332	0.515816	0.411	-0.24	0.588	0	182	574	3
2026-02-12	16:52:54.450	32.095	39.165	0.35	0.490684	0.646844	0.342088	0.4185	-0.249	0.606	0	182	574	3
2026-02-12	16:52:54.470	40.39	21.315	0.945	0.524844	0.696376	0.441884	0.4215	-0.246	0.6135	0	182	574	3
2026-02-12	16:52:54.490	37.555	2.695	2.52	0.55754	0.670756	0.634888	0.432	-0.243	0.6165	0	182	574	3
2026-02-12	16:52:54.510	29.575	3.255	9.59	0.545828	0.741272	0.696864	0.417	-0.252	0.609	0	182	574	3
2026-02-12	16:52:54.530	27.335	13.055	10.395	0.501176	0.779824	0.723704	0.417	-0.2505	0.6165	0	182	574	3
2026-02-12	16:52:54.550	26.845	20.44	5.075	0.521916	0.83448	0.60756	0.414	-0.258	0.609	0	182	574	3
2026-02-12	16:52:54.570	19.845	16.38	1.575	0.502152	0.740052	0.587064	0.4275	-0.246	0.615	0	182	574	3
2026-02-12	16:52:54.590	12.985	5.74	6.825	0.499956	0.784948	0.581208	0.42	-0.2565	0.624	0	182	574	3
2026-02-12	16:52:54.610	8.015	-1.645	9.17	0.499956	0.8296	0.587064	0.408	-0.258	0.6195	0	180	562	3
2026-02-12	16:52:54.630	9.625	-2.695	7.63	0.496784	0.845216	0.590724	0.417	-0.258	0.615	0	180	562	3
2026-02-12	16:52:54.650	9.03	-2.415	4.83	0.501908	0.792512	0.61366	0.411	-0.2595	0.6075	0	180	562	3
2026-02-12	16:52:54.670	5.6	0	6.475	0.493856	0.800076	0.630496	0.411	-0.258	0.6195	0	180	562	3
2026-02-12	16:52:54.690	-1.225	5.005	6.335	0.444812	0.829112	0.660508	0.414	-0.264	0.6135	0	180	562	3
2026-02-12	16:52:54.710	-8.505	10.01	1.96	0.41724	0.84668	0.624884	0.4065	-0.2565	0.6075	0	180	562	3
2026-02-12	16:52:54.730	-17.08	9.625	-3.185	0.401868	0.814716	0.59292	0.402	-0.2505	0.6045	0	180	562	3
2026-02-12	16:52:54.750	-22.47	5.6	-5.705	0.4087	0.80032	0.600484	0.4035	-0.2505	0.6015	0	180	562	3
2026-02-12	16:52:54.770	-29.82	4.655	-4.62	0.401136	0.817156	0.499224	0.405	-0.2505	0.6	0	180	562	3
2026-02-12	16:52:54.790	-31.43	2.59	-5.46	0.37942	0.796904	0.447984	0.4065	-0.2505	0.6015	0	180	562	3
2026-02-12	16:52:54.810	-28.945	-9.275	-7.105	0.36966	0.758108	0.447496	0.408	-0.2505	0.6075	0	176	561	3
2026-02-12	16:52:54.830	-30.03	-22.085	-3.71	0.358924	0.711504	0.504836	0.405	-0.249	0.606	0	176	561	3
2026-02-12	16:52:54.850	-25.9	-28.63	1.155	0.326472	0.73444	0.55632	0.405	-0.249	0.6045	0	176	561	3
2026-02-12	16:52:54.870	-17.01	-29.225	0.84	0.310368	0.794464	0.568032	0.408	-0.2505	0.6045	0	176	561	3
2026-02-12	16:52:54.890	-10.71	-31.185	-5.88	0.30622	0.79056	0.649772	0.4065	-0.249	0.603	0	176	561	3
2026-02-12	16:52:54.910	-9.135	-26.845	-10.08	0.324276	0.80398	0.6527	0.405	-0.243	0.603	0	176	561	3
2026-02-12	16:52:54.930	-9.59	-20.055	-14.63	0.313052	0.76372	0.569252	0.4005	-0.24	0.5955	0	176	561	3
2026-02-12	16:52:54.950	-7.42	-19.635	-19.285	0.3416	0.72712	0.50874	0.393	-0.2415	0.5955	0	176	561	3
2026-02-12	16:52:54.970	-6.72	-23.94	-19.39	0.357216	0.723216	0.515328	0.396	-0.2415	0.5955	0	176	561	3
2026-02-12	16:52:54.990	-1.19	-26.075	-19.11	0.369172	0.725412	0.498248	0.4035	-0.246	0.5985	0	176	561	3
2026-02-12	16:52:55.010	2.24	-31.955	-18.76	0.360876	0.71004	0.559492	0.4035	-0.243	0.603	0	171	563	3
2026-02-12	16:52:55.030	-1.365	-33.39	-16.8	0.367952	0.74664	0.56852	0.4005	-0.237	0.5985	0	171	563	3
2026-02-12	16:52:55.050	-4.83	-28.98	-19.145	0.342576	0.71858	0.488732	0.4035	-0.24	0.597	0	171	563	3
2026-02-12	16:52:55.070	-2.38	-31.15	-21.49	0.339404	0.720044	0.488732	0.4035	-0.2415	0.6	0	171	563	3
2026-02-12	16:52:55.090	-0.455	-32.865	-20.965	0.378688	0.726876	0.479704	0.402	-0.2415	0.6015	0	171	563	3
2026-02-12	16:52:55.110	2.135	-32.48	-18.97	0.411628	0.711992	0.4941	0.4005	-0.2415	0.6	0	171	563	3
2026-02-12	16:52:55.130	3.675	-30.485	-13.23	0.417728	0.7259	0.541192	0.402	-0.2385	0.597	0	171	563	3
2026-02-12	16:52:55.150	10.045	-23.975	-7.56	0.423096	0.829112	0.540948	0.408	-0.234	0.5955	0	171	563	3
2026-02-12	16:52:55.170	13.72	-19.67	-7.105	0.45506	0.810812	0.46604	0.402	-0.237	0.5985	0	171	563	3
2026-02-12	16:52:55.190	15.365	-25.76	-2.135	0.4941	0.764696	0.5063	0.393	-0.246	0.5985	0	171	563	3
2026-02-12	16:52:55.210	18.06	-29.82	8.295	0.486292	0.88572	0.682956	0.3975	-0.249	0.5985	0	164	562	3
2026-02-12	16:52:55.230	6.72	-18.13	13.125	0.46604	0.94428	0.666364	0.3945	-0.2445	0.597	0	164	562	3
2026-02-12	16:52:55.250	-0.56	-2.31	14	0.482632	0.911584	0.485316	0.3855	-0.243	0.5955	0	164	562	3
2026-02-12	16:52:55.270	7.315	-4.095	13.16	0.446276	0.876204	0.370148	0.3885	-0.2415	0.603	0	164	562	3
2026-02-12	16:52:55.290	14.245	-16.765	17.08	0.45018	0.961116	0.529236	0.384	-0.2385	0.6045	0	164	562	3
2026-02-12	16:52:55.310	10.64	-12.39	16.975	0.467504	1.010404	0.614636	0.3795	-0.234	0.6045	0	164	562	3
2026-02-12	16:52:55.330	8.435	2.52	11.06	0.45018	0.948428	0.569496	0.3795	-0.234	0.606	0	164	562	3
2026-02-12	16:52:55.350	9.275	15.155	6.755	0.437736	0.929396	0.47336	0.3795	-0.234	0.606	0	164	562	3
2026-02-12	16:52:55.370	8.575	15.54	4.585	0.421632	0.935496	0.452132	0.3795	-0.234	0.606	0	164	562	3
2026-02-12	16:52:55.390	4.445	11.69	0.875	0.422364	0.919148	0.498492	0.3825	-0.2535	0.63	0	164	562	3
2026-02-12	16:52:55.410	-4.725	17.745	0.42	0.413824	0.866444	0.462868	0.3915	-0.2505	0.6315	0	158	557	3
2026-02-12	16:52:55.430	1.155	26.845	1.225	0.379908	0.8052	0.255956	0.3945	-0.243	0.6345	0	158	557	3
2026-02-12	16:52:55.450	17.185	12.425	3.535	0.321592	0.757376	0.267912	0.387	-0.258	0.657	0	158	557	3
2026-02-12	16:52:55.470	13.3	-11.76	10.395	0.329888	0.744444	0.461404	0.3975	-0.2595	0.654	0	158	557	3
2026-02-12	16:52:55.490	-1.225	-15.54	19.39	0.308416	0.784704	0.59902	0.3855	-0.2565	0.6525	0	158	557	3
2026-02-12	16:52:55.510	-8.855	0.77	22.54	0.31354	0.806176	0.52582	0.3825	-0.258	0.639	0	158	557	3
2026-02-12	16:52:55.530	-9.485	15.225	20.16	0.299144	0.78324	0.372832	0.39	-0.2535	0.645	0	158	557	3
2026-02-12	16:52:55.550	-3.01	17.57	17.535	0.2989	0.786412	0.282308	0.387	-0.2595	0.657	0	158	557	3
2026-02-12	16:52:55.570	2.345	9.52	14.91	0.27206	0.787144	0.277184	0.387	-0.264	0.675	0	158	557	3
2026-02-12	16:52:55.590	8.89	1.26	9.205	0.304512	0.805932	0.36844	0.384	-0.2595	0.663	0	158	557	3
2026-02-12	16:52:55.610	15.505	4.06	3.675	0.343308	0.807152	0.46726	0.381	-0.264	0.6645	0	153	539	3
2026-02-12	16:52:55.630	14.21	15.96	1.015	0.387472	0.859856	0.438224	0.378	-0.2625	0.6615	0	153	539	3
2026-02-12	16:52:55.650	6.79	21.14	-6.265	0.385276	0.753716	0.375272	0.381	-0.2625	0.6585	0	153	539	3
2026-02-12	16:52:55.670	0.105	18.585	-7.49	0.422608	0.709064	0.366488	0.384	-0.264	0.657	0	153	539	3
2026-02-12	16:52:55.690	1.785	18.55	-5.915	0.442128	0.699304	0.350628	0.378	-0.2655	0.663	0	153	539	3
2026-02-12	16:52:55.710	2.975	16.695	-3.99	0.434076	0.69174	0.407724	0.3855	-0.2685	0.66	0	153	539	3
2026-02-12	16:52:55.730	-2.17	16.695	-0.63	0.44774	0.737856	0.48678	0.3885	-0.2595	0.6675	0	153	539	3
2026-02-12	16:52:55.750	-3.255	26.25	1.085	0.486536	0.737612	0.3965	0.393	-0.2625	0.66	0	153	539	3
2026-02-12	16:52:55.770	-0.735	25.06	0.595	0.48434	0.750788	0.335988	0.393	-0.261	0.6615	0	153	539	3
2026-02-12	16:52:55.790	-2.905	17.885	-0.245	0.511668	0.651968	0.387716	0.3885	-0.2685	0.657	0	153	539	3
2026-02-12	16:52:55.810	1.505	15.575	6.86	0.598044	0.742004	0.413092	0.3885	-0.2685	0.657	0	150	512	3
2026-02-12	16:52:55.830	7.07	14.56	7.105	0.5673	0.787876	0.475068	0.387	-0.2655	0.6555	0	150	512	3
2026-02-12	16:52:55.850	6.265	15.855	5.705	0.549488	0.76982	0.47092	0.387	-0.2625	0.654	0	150	512	3
2026-02-12	16:52:55.870	1.015	16.94	6.755	0.548268	0.756888	0.385032	0.3855	-0.2625	0.6555	0	150	512	3
2026-02-12	16:52:55.890	3.885	9.03	7.455	0.532896	0.75274	0.4453	0.3885	-0.258	0.6615	0	150	512	3
2026-02-12	16:52:55.910	2.345	2.415	9.415	0.583892	0.805444	0.489952	0.39	-0.255	0.663	0	150	512	3
2026-02-12	16:52:55.930	-0.875	-0.455	10.71	0.610732	0.754204	0.543388	0.3885	-0.2565	0.6585	0	150	512	3
2026-02-12	16:52:55.950	0.385	-0.77	16.38	0.607804	0.787388	0.644892	0.3885	-0.2565	0.6555	0	150	512	3
2026-02-12	16:52:55.970	-1.33	4.76	21.84	0.588284	0.870348	0.5917	0.387	-0.258	0.657	0	150	512	3
2026-02-12	16:52:55.990	-3.955	3.99	19.005	0.593408	0.900604	0.44652	0.381	-0.255	0.6615	0	150	512	3
2026-02-12	16:52:56.010	-4.69	-9.52	13.79	0.617076	0.81496	0.340624	0.378	-0.255	0.666	0	148	491	3
2026-02-12	16:52:56.030	-0.735	-30.66	16.31	0.61	0.72346	0.380396	0.3765	-0.258	0.666	0	148	491	3
2026-02-12	16:52:56.050	7.49	-47.88	25.725	0.56852	0.765916	0.494832	0.375	-0.2595	0.6615	0	148	491	3
2026-02-12	16:52:56.070	14.35	-52.675	29.925	0.513864	0.843264	0.597312	0.3615	-0.2625	0.6555	0	148	491	3
2026-02-12	16:52:56.090	11.83	-49.49	26.04	0.510448	0.849852	0.597068	0.348	-0.2625	0.6465	0	148	491	3
2026-02-12	16:52:56.110	0.21	-44.625	20.755	0.519476	0.76616	0.57096	0.345	-0.2565	0.6345	0	148	491	3
2026-02-12	16:52:56.130	-3.08	-37.24	19.845	0.479216	0.724436	0.559492	0.336	-0.255	0.633	0	148	491	3
2026-02-12	16:52:56.150	-1.75	-28.56	20.37	0.452132	0.804712	0.538264	0.33	-0.255	0.6345	0	148	491	3
2026-02-12	16:52:56.170	-5.215	-21.07	12.565	0.415532	0.787876	0.612196	0.327	-0.252	0.6315	0	148	491	3
2026-02-12	16:52:56.190	-9.835	-7.315	6.65	0.415288	0.792756	0.633424	0.321	-0.2505	0.6285	0	148	491	3
2026-02-12	16:52:56.210	-15.96	8.05	3.01	0.390156	0.867908	0.490928	0.315	-0.249	0.6315	0	147	486	3
2026-02-12	16:52:56.230	-20.02	10.045	-7.91	0.395036	0.798124	0.307196	0.3195	-0.2475	0.642	0	147	486	3
2026-02-12	16:52:56.250	-19.355	-7.035	-16.87	0.42822	0.644892	0.299144	0.3225	-0.2445	0.6525	0	147	486	3
2026-02-12	16:52:56.270	-11.41	-24.325	-13.755	0.45628	0.623176	0.4453	0.324	-0.2475	0.657	0	147	486	3
2026-02-12	16:52:56.290	-5.67	-27.335	-9.52	0.447252	0.72834	0.579744	0.3285	-0.2535	0.651	0	147	486	3
2026-02-12	16:52:56.310	-6.02	-18.165	-13.825	0.444568	0.711748	0.589504	0.3255	-0.2475	0.6435	0	147	486	3
2026-02-12	16:52:56.330	-10.395	-11.655	-17.885	0.471896	0.673684	0.6283	0.324	-0.2475	0.6345	0	147	486	3
2026-02-12	16:52:56.350	-12.95	-1.015	-16.8	0.487756	0.698328	0.591456	0.3225	-0.249	0.63	0	147	486	3
2026-02-12	16:52:56.370	-8.61	8.96	-16.135	0.469944	0.71858	0.443592	0.324	-0.2445	0.6405	0	147	486	3
2026-02-12	16:52:56.390	-1.085	3.325	-19.635	0.476776	0.649284	0.391376	0.3285	-0.2475	0.6465	0	147	486	3
2026-02-12	16:52:56.410	0.35	-8.82	-18.06	0.530212	0.644648	0.523136	0.3315	-0.249	0.6495	0	147	491	3
2026-02-12	16:52:56.430	0.91	-6.02	-14.945	0.490196	0.704184	0.625616	0.333	-0.2475	0.6555	0	147	491	3
2026-02-12	16:52:56.450	3.64	2.765	-14.42	0.531432	0.717116	0.488488	0.3315	-0.246	0.6585	0	147	491	3
2026-02-12	16:52:56.470	-3.15	-3.185	-14.63	0.5002	0.708576	0.36478	0.339	-0.2445	0.66	0	147	491	3
2026-02-12	16:52:56.490	-10.5	-14.42	-16.135	0.530456	0.578036	0.349164	0.336	-0.2445	0.666	0	147	491	3
2026-02-12	16:52:56.510	-1.645	-27.02	-8.26	0.528016	0.733464	0.569984	0.333	-0.2445	0.669	0	147	491	3
2026-02-12	16:52:56.530	0.105	-17.43	-11.76	0.51362	0.760792	0.585844	0.339	-0.243	0.666	0	147	491	3
2026-02-12	16:52:56.550	-3.29	-4.655	-19.32	0.52704	0.694668	0.400404	0.3405	-0.243	0.6645	0	147	491	3
2026-02-12	16:52:56.570	1.085	-9.31	-22.4	0.520696	0.64538	0.326472	0.336	-0.2445	0.6735	0	147	491	3
2026-02-12	16:52:56.590	6.51	-24.64	-18.305	0.55998	0.699792	0.473604	0.339	-0.246	0.6735	0	147	491	3
2026-02-12	16:52:56.610	5.88	-25.025	-14.875	0.590236	0.715164	0.621224	0.3435	-0.246	0.663	0	146	497	3
2026-02-12	16:52:56.630	6.335	-8.54	-11.025	0.565104	0.774456	0.574376	0.3465	-0.24	0.6615	0	146	497	3
2026-02-12	16:52:56.650	7.42	3.15	-11.235	0.549976	0.809592	0.416996	0.3465	-0.237	0.669	0	146	497	3
2026-02-12	16:52:56.670	11.06	-2.94	-12.355	0.560712	0.77958	0.3538	0.3465	-0.2445	0.672	0	146	497	3
2026-02-12	16:52:56.690	17.115	-15.785	-10.15	0.6039	0.761036	0.429684	0.351	-0.246	0.6765	0	146	497	3
2026-02-12	16:52:56.710	24.22	-18.13	-2.975	0.56242	0.857172	0.554124	0.354	-0.249	0.6765	0	146	497	3
2026-02-12	16:52:56.730	29.085	-3.71	2.625	0.60878	0.803248	0.477752	0.3495	-0.252	0.669	0	146	497	3
2026-02-12	16:52:56.750	33.81	0	10.78	0.622444	0.915488	0.46848	0.3465	-0.249	0.666	0	146	497	3
2026-02-12	16:52:56.770	19.81	-5.32	11.095	0.592432	0.959652	0.499468	0.3495	-0.2475	0.666	0	146	497	3
2026-02-12	16:52:56.790	4.655	-4.515	5.635	0.565348	0.913292	0.489464	0.3495	-0.2475	0.666	0	146	497	3
2026-02-12	16:52:56.810	1.995	1.68	-0.28	0.567544	0.851316	0.47702	0.3495	-0.2475	0.666	0	146	497	3
2026-02-12	16:52:56.830	-1.085	8.015	-2.45	0.53558	0.830332	0.482632	0.3345	-0.2445	0.675	0	146	497	3
2026-02-12	16:52:56.850	-0.98	14.28	-2.975	0.473604	0.862784	0.360876	0.354	-0.2325	0.6825	0	146	497	3
2026-02-12	16:52:56.870	-4.41	5.88	-4.76	0.47092	0.85766	0.209596	0.357	-0.2355	0.6915	0	146	497	3
2026-02-12	16:52:56.890	-1.785	-10.885	-9.87	0.41846	0.658068	0.26108	0.3585	-0.243	0.699	0	146	497	3
2026-02-12	16:52:56.910	3.36	-19.18	-9.1	0.379176	0.609024	0.344772	0.3555	-0.246	0.6975	0	146	497	3
2026-02-12	16:52:56.930	17.185	-25.41	2.695	0.374784	0.737856	0.53192	0.36	-0.2475	0.6945	0	146	497	3
2026-02-12	16:52:56.950	19.005	-17.745	8.575	0.348676	0.880108	0.58682	0.3615	-0.252	0.696	0	146	497	3
2026-02-12	16:52:56.970	15.12	-4.865	3.115	0.390156	0.866688	0.467016	0.3585	-0.2565	0.6915	0	146	497	3
2026-02-12	16:52:56.990	12.985	-3.815	-0.42	0.415776	0.765672	0.436272	0.351	-0.2595	0.687	0	146	497	3
2026-02-12	16:52:57.010	7.315	-4.585	6.37	0.423096	0.762744	0.474092	0.348	-0.258	0.684	0	146	488	3
2026-02-12	16:52:57.030	4.41	4.62	12.215	0.382592	0.831796	0.366976	0.3495	-0.261	0.6795	0	146	488	3
2026-02-12	16:52:57.050	4.585	5.04	9.835	0.356484	0.850828	0.283772	0.345	-0.264	0.687	0	146	488	3
2026-02-12	16:52:57.070	1.89	-4.375	4.865	0.386984	0.818132	0.359168	0.3465	-0.264	0.69	0	146	488	3
2026-02-12	16:52:57.090	1.295	-2.695	3.22	0.405772	0.820084	0.37698	0.348	-0.2655	0.687	0	146	488	3
2026-02-12	16:52:57.110	2.415	4.585	0.175	0.390644	0.817888	0.329644	0.3435	-0.2595	0.687	0	146	488	3
2026-02-12	16:52:57.130	0.875	7.245	-6.195	0.409188	0.795684	0.366	0.3435	-0.2595	0.681	0	146	488	3
2026-02-12	16:52:57.150	-0.665	14.49	-10.92	0.44652	0.760304	0.389668	0.345	-0.2625	0.681	0	146	488	3
2026-02-12	16:52:57.170	-4.06	22.54	-11.725	0.473116	0.713212	0.348432	0.351	-0.264	0.6825	0	146	488	3
2026-02-12	16:52:57.190	-7.42	25.48	-8.715	0.487268	0.684176	0.335744	0.351	-0.2685	0.681	0	146	488	3
2026-02-12	16:52:57.210	-3.535	27.58	-2.555	0.470432	0.726144	0.332084	0.3465	-0.27	0.681	0	146	471	3
2026-02-12	16:52:57.230	-4.025	26.32	-1.365	0.486048	0.738344	0.294508	0.3525	-0.267	0.6795	0	146	471	3
2026-02-12	16:52:57.250	-4.445	20.51	-1.05	0.509716	0.699548	0.329888	0.3525	-0.2625	0.6765	0	146	471	3
2026-02-12	16:52:57.270	-4.515	16.835	1.19	0.543876	0.741028	0.459208	0.354	-0.261	0.675	0	146	471	3
2026-02-12	16:52:57.290	-8.68	26.53	2.17	0.594628	0.760792	0.426512	0.357	-0.2625	0.6735	0	146	471	3
2026-02-12	16:52:57.310	-11.27	33.495	1.75	0.597068	0.699548	0.249124	0.354	-0.2625	0.672	0	146	471	3
2026-02-12	16:52:57.330	-7.945	22.47	3.325	0.641476	0.620248	0.213744	0.3555	-0.267	0.6735	0	146	471	3
2026-02-12	16:52:57.350	-2.94	7.875	8.855	0.666852	0.617076	0.33306	0.3615	-0.2655	0.678	0	146	471	3
2026-02-12	16:52:57.370	5.705	5.95	11.9	0.656604	0.696864	0.466772	0.363	-0.2565	0.672	0	146	471	3
2026-02-12	16:52:57.390	9.8	11.48	10.36	0.619516	0.755912	0.50752	0.36	-0.2535	0.6675	0	146	471	3
2026-02-12	16:52:57.410	11.48	13.09	6.055	0.591944	0.830576	0.52948	0.3585	-0.252	0.669	0	146	449	3
2026-02-12	16:52:57.430	8.575	10.745	0.28	0.545584	0.818132	0.58194	0.3555	-0.2505	0.666	0	146	449	3
2026-02-12	16:52:57.450	1.575	10.85	-1.75	0.584624	0.892552	0.513132	0.348	-0.2505	0.669	0	146	449	3
2026-02-12	16:52:57.470	-1.995	7.665	-3.325	0.6039	0.895724	0.375516	0.3495	-0.2505	0.678	0	146	449	3
2026-02-12	16:52:57.490	-3.815	-10.08	-3.955	0.627812	0.781532	0.340136	0.357	-0.252	0.681	0	146	449	3
2026-02-12	16:52:57.510	-0.315	-30.555	3.78	0.630008	0.785192	0.498736	0.3555	-0.252	0.6795	0	146	449	3
2026-02-12	16:52:57.530	0.175	-32.445	11.83	0.602192	0.909144	0.665632	0.351	-0.246	0.672	0	146	449	3
2026-02-12	16:52:57.550	-6.195	-16.31	8.19	0.58316	0.902312	0.533872	0.342	-0.2475	0.663	0	146	449	3
2026-02-12	16:52:57.570	-11.97	-15.47	1.575	0.57096	0.748348	0.429928	0.336	-0.2505	0.666	0	146	449	3
2026-02-12	16:52:57.590	-9.275	-25.55	3.43	0.555832	0.73566	0.501176	0.342	-0.2475	0.663	0	146	449	3
2026-02-12	16:52:57.610	-10.045	-28.63	5.6	0.498736	0.798368	0.689788	0.345	-0.249	0.6555	0	146	440	3
2026-02-12	16:52:57.630	-19.53	-13.16	3.08	0.452864	0.887916	0.69418	0.3405	-0.2505	0.651	0	146	440	3
2026-02-12	16:52:57.650	-31.675	3.885	-4.34	0.412116	0.854	0.461404	0.339	-0.246	0.654	0	146	440	3
2026-02-12	16:52:57.670	-35.595	-3.29	-9.065	0.38918	0.72224	0.264496	0.339	-0.243	0.663	0	146	440	3
2026-02-12	16:52:57.690	-28.28	-29.505	-4.55	0.367464	0.704428	0.33794	0.3435	-0.24	0.6675	0	146	440	3
2026-02-12	16:52:57.710	-23.59	-46.445	1.12	0.354044	0.765672	0.5856	0.345	-0.237	0.6615	0	146	440	3
2026-02-12	16:52:57.730	-26.32	-35	0.315	0.36356	0.80032	0.6344	0.3375	-0.24	0.645	0	146	440	3
2026-02-12	16:52:57.750	-22.75	-11.48	-4.48	0.328668	0.76616	0.5063	0.3345	-0.237	0.636	0	146	440	3
2026-02-12	16:52:57.770	-14.455	-6.09	-7.315	0.31354	0.78568	0.415776	0.3345	-0.2355	0.639	0	146	440	3
2026-02-12	16:52:57.790	-9.73	-14.525	-11.515	0.338184	0.809592	0.5002	0.336	-0.2325	0.639	0	146	440	3
2026-02-12	16:52:57.810	-9.03	-13.195	-17.36	0.375272	0.776408	0.557296	0.339	-0.2325	0.6405	0	147	449	3
2026-02-12	16:52:57.830	-10.255	-4.34	-21.105	0.399184	0.71248	0.507764	0.3435	-0.2355	0.6435	0	147	449	3
2026-02-12	16:52:57.850	-11.48	-0.805	-19.81	0.399916	0.723704	0.413092	0.345	-0.234	0.642	0	147	449	3
2026-02-12	16:52:57.870	-10.955	-6.37	-19.425	0.40748	0.75396	0.302316	0.348	-0.2385	0.648	0	147	449	3
2026-02-12	16:52:57.890	-7.525	-21.98	-22.96	0.420168	0.690032	0.306708	0.3495	-0.2385	0.654	0	147	449	3
2026-02-12	16:52:57.910	0.14	-35.245	-23.87	0.47458	0.65514	0.42822	0.3495	-0.2355	0.654	0	147	449	3
2026-02-12	16:52:57.930	4.865	-34.615	-20.86	0.481412	0.692716	0.562664	0.3495	-0.2355	0.654	0	147	449	3
2026-02-12	16:52:57.950	3.01	-21.525	-20.125	0.450912	0.740296	0.555344	0.354	-0.234	0.639	0	147	449	3
2026-02-12	16:52:57.970	-0.035	-14.98	-21.945	0.45994	0.735904	0.497028	0.354	-0.234	0.639	0	147	449	3
2026-02-12	16:52:57.990	-2.17	-9.38	-24.57	0.48678	0.710284	0.399184	0.345	-0.234	0.6255	0	147	449	3
2026-02-12	16:52:58.010	0.56	-12.39	-22.435	0.514596	0.695156	0.324276	0.351	-0.237	0.6285	0	149	459	3
2026-02-12	16:52:58.030	10.395	-19.88	-17.92	0.511912	0.729316	0.36234	0.351	-0.2415	0.63	0	149	459	3
2026-02-12	16:52:58.050	18.06	-26.705	-13.685	0.532896	0.798612	0.55022	0.354	-0.237	0.6345	0	149	459	3
2026-02-12	16:52:58.070	11.48	-18.34	-10.605	0.573644	0.833748	0.62098	0.3555	-0.2385	0.6165	0	149	459	3
2026-02-12	16:52:58.090	5.985	-0.63	-7.175	0.553392	0.851804	0.47092	0.3465	-0.2355	0.612	0	149	459	3
2026-02-12	16:52:58.110	7.455	2.835	-5.565	0.518988	0.875472	0.388204	0.3465	-0.2415	0.612	0	149	459	3
2026-02-12	16:52:58.130	7.91	-3.57	-4.62	0.554124	0.916952	0.437004	0.351	-0.2445	0.618	0	149	459	3
2026-02-12	16:52:58.150	4.27	-3.185	-3.64	0.581208	0.894992	0.466528	0.3585	-0.2355	0.6225	0	149	459	3
2026-02-12	16:52:58.170	6.055	4.095	-0.28	0.582428	0.904508	0.389668	0.3585	-0.2355	0.6225	0	149	459	3
2026-02-12	16:52:58.190	9.66	3.01	1.89	0.540948	0.952576	0.409676	0.3585	-0.2355	0.6225	0	149	459	3
2026-02-12	16:52:58.210	15.505	4.27	0.49	0.513376	0.961604	0.447252	0.3585	-0.2355	0.6225	0	151	463	3
2026-02-12	16:52:58.230	14.175	7.385	-1.575	0.52094	0.898164	0.46604	0.3645	-0.231	0.624	0	151	463	3
2026-02-12	16:52:58.250	10.5	10.605	0.49	0.498248	0.89182	0.472628	0.366	-0.234	0.6315	0	151	463	3
2026-02-12	16:52:58.270	6.65	14.42	1.715	0.475556	0.913048	0.449692	0.3555	-0.24	0.636	0	151	463	3
2026-02-12	16:52:58.290	2.205	17.78	-0.175	0.464332	0.865712	0.477996	0.3555	-0.24	0.6345	0	151	463	3
2026-02-12	16:52:58.310	1.89	26.18	2.275	0.427976	0.8723	0.531676	0.363	-0.237	0.6315	0	151	463	3
2026-02-12	16:52:58.330	5.6	39.06	6.3	0.363072	0.957944	0.441884	0.366	-0.2385	0.6435	0	151	463	3
2026-02-12	16:52:58.350	11.795	40.46	4.095	0.31598	0.908412	0.257176	0.3675	-0.243	0.663	0	151	463	3
2026-02-12	16:52:58.370	18.13	18.725	4.06	0.308904	0.78446	0.258884	0.3735	-0.24	0.6645	0	151	463	3
2026-02-12	16:52:58.390	20.755	-3.535	10.99	0.306708	0.748348	0.482388	0.3765	-0.2415	0.6615	0	151	463	3
2026-02-12	16:52:58.410	12.845	-0.525	20.965	0.310612	0.793976	0.597556	0.372	-0.2475	0.6555	0	151	463	3
2026-02-12	16:52:58.430	8.33	19.145	24.92	0.28792	0.801296	0.490684	0.369	-0.2475	0.6465	0	151	463	3
2026-02-12	16:52:58.450	8.96	28.315	27.335	0.256932	0.799832	0.3416	0.3735	-0.246	0.642	0	151	463	3
2026-02-12	16:52:58.470	12.11	20.825	28.49	0.263764	0.837164	0.327936	0.372	-0.2445	0.645	0	151	463	3
2026-02-12	16:52:58.490	15.715	15.995	24.745	0.308904	0.817888	0.39162	0.3705	-0.2445	0.657	0	151	463	3
2026-02-12	16:52:58.510	19.705	19.985	21.035	0.330864	0.844484	0.449448	0.366	-0.249	0.66	0	151	463	3
2026-02-12	16:52:58.530	21	31.99	14.245	0.373564	0.85034	0.416508	0.357	-0.2505	0.6525	0	151	463	3
2026-02-12	16:52:58.550	14.875	37.905	7.455	0.398208	0.781532	0.376004	0.3645	-0.246	0.645	0	151	463	3
2026-02-12	16:52:58.570	12.845	38.955	6.44	0.426756	0.748104	0.320616	0.3675	-0.243	0.6495	0	151	463	3
2026-02-12	16:52:58.590	15.68	34.615	8.365	0.414312	0.768112	0.318664	0.363	-0.246	0.657	0	151	463	3
2026-02-12	16:52:58.610	12.39	26.915	8.54	0.438224	0.751276	0.41724	0.3645	-0.252	0.66	0	151	456	3
2026-02-12	16:52:58.630	3.465	29.47	10.675	0.448228	0.70882	0.48312	0.363	-0.252	0.6495	0	151	456	3
2026-02-12	16:52:58.650	3.185	42.63	14.245	0.435784	0.744444	0.405528	0.3675	-0.252	0.6465	0	151	456	3
2026-02-12	16:52:58.670	1.015	46.445	13.79	0.463356	0.70638	0.315004	0.369	-0.2535	0.6585	0	151	456	3
2026-02-12	16:52:58.690	0.665	42.56	15.435	0.516548	0.686616	0.359412	0.3705	-0.2505	0.6555	0	151	456	3
2026-02-12	16:52:58.710	3.92	45.85	19.81	0.55754	0.726876	0.415776	0.375	-0.249	0.651	0	151	456	3
2026-02-12	16:52:58.730	4.935	52.605	21.77	0.583892	0.733708	0.340868	0.375	-0.2505	0.666	0	151	456	3
2026-02-12	16:52:58.750	7.28	49.77	21.14	0.59292	0.696864	0.279868	0.372	-0.2445	0.672	0	151	456	3
2026-02-12	16:52:58.770	12.95	38.71	23.135	0.597556	0.709064	0.326228	0.366	-0.2385	0.6675	0	151	456	3
2026-02-12	16:52:58.790	14.56	29.89	25.13	0.574376	0.77958	0.32208	0.363	-0.246	0.675	0	151	456	3
2026-02-12	16:52:58.810	16.38	19.775	19.565	0.558272	0.772016	0.328424	0.3675	-0.2445	0.6825	0	151	443	3
2026-02-12	16:52:58.830	19.775	7.385	13.755	0.54168	0.80764	0.502884	0.369	-0.237	0.678	0	151	443	3
2026-02-12	16:52:58.850	18.41	9.17	10.92	0.54534	0.87718	0.593896	0.3675	-0.237	0.6705	0	151	443	3
2026-02-12	16:52:58.870	11.9	16.205	7.07	0.544364	0.847412	0.529724	0.372	-0.228	0.6675	0	151	443	3
2026-02-12	16:52:58.890	1.61	11.9	5.285	0.546316	0.80276	0.51118	0.375	-0.222	0.666	0	151	443	3
2026-02-12	16:52:58.910	-6.16	6.335	7.49	0.575596	0.800808	0.483364	0.363	-0.234	0.666	0	151	443	3
2026-02-12	16:52:58.930	-9.31	1.89	9.835	0.581696	0.759328	0.442372	0.3525	-0.237	0.663	0	151	443	3
2026-02-12	16:52:58.950	-4.97	-3.045	14.105	0.56364	0.764696	0.466772	0.354	-0.24	0.6585	0	151	443	3
2026-02-12	16:52:58.970	-0.21	-5.81	17.185	0.534848	0.831552	0.56852	0.3525	-0.249	0.66	0	151	443	3
2026-02-12	16:52:58.990	2.555	-0.035	13.685	0.480192	0.879132	0.680272	0.3525	-0.249	0.66	0	151	443	3
2026-02-12	16:52:59.010	2.8	12.95	6.685	0.420412	0.912316	0.66002	0.342	-0.2415	0.648	0	150	439	3
2026-02-12	16:52:59.030	1.925	16.975	2.555	0.386008	0.919148	0.649284	0.342	-0.2415	0.648	0	150	439	3
2026-02-12	16:52:59.050	-4.165	19.075	-6.125	0.349652	0.91622	0.681248	0.351	-0.2325	0.651	0	150	439	3
2026-02-12	16:52:59.070	-18.69	20.37	-12.46	0.369172	0.863516	0.633424	0.345	-0.234	0.6585	0	150	439	3
2026-02-12	16:52:59.090	-26.775	20.965	-13.09	0.388936	0.854488	0.433832	0.3465	-0.228	0.6555	0	150	439	3
2026-02-12	16:52:59.110	-25.9	3.465	-12.495	0.352092	0.72468	0.343552	0.36	-0.2295	0.657	0	150	439	3
2026-02-12	16:52:59.130	-23.45	-19.845	-5.215	0.37454	0.683932	0.473848	0.3705	-0.228	0.669	0	150	439	3
2026-02-12	16:52:59.150	-27.23	-29.12	4.445	0.337208	0.724192	0.640012	0.366	-0.234	0.6615	0	150	439	3
2026-02-12	16:52:59.170	-22.155	-16.1	4.305	0.317932	0.77592	0.604144	0.3585	-0.2325	0.636	0	150	439	3
2026-02-12	16:52:59.190	-13.3	-6.23	-3.045	0.304756	0.712724	0.494832	0.3525	-0.2325	0.6315	0	150	439	3
2026-02-12	16:52:59.210	-1.435	-10.71	-5.25	0.326716	0.711016	0.532896	0.354	-0.234	0.63	0	150	455	3
2026-02-12	16:52:59.230	6.02	-11.655	-5.915	0.30988	0.762256	0.653432	0.351	-0.2295	0.6285	0	150	455	3
2026-02-12	16:52:59.250	6.02	1.19	-11.025	0.2928	0.799344	0.63928	0.3585	-0.216	0.63	0	150	455	3
2026-02-12	16:52:59.270	5.46	13.265	-21.35	0.305732	0.784704	0.543632	0.3555	-0.2175	0.6375	0	150	455	3
2026-02-12	16:52:59.290	3.115	12.53	-28.035	0.347456	0.732	0.465796	0.354	-0.219	0.642	0	150	455	3
2026-02-12	16:52:59.310	4.935	2.975	-26.985	0.371368	0.721996	0.426024	0.3615	-0.231	0.642	0	150	455	3
2026-02-12	16:52:59.330	11.83	-9.485	-24.57	0.393572	0.756156	0.4575	0.3705	-0.2145	0.645	0	150	455	3
2026-02-12	16:52:59.350	11.55	-18.97	-24.395	0.393572	0.729804	0.598532	0.3675	-0.2325	0.642	0	150	455	3
2026-02-12	16:52:59.370	6.37	-12.425	-23.1	0.397964	0.752008	0.630252	0.3765	-0.2235	0.642	0	150	455	3
2026-02-12	16:52:59.390	1.155	0.385	-24.43	0.390644	0.73322	0.508008	0.3795	-0.219	0.6465	0	150	455	3
2026-02-12	16:52:59.410	1.82	2.065	-25.34	0.403088	0.670756	0.428708	0.3795	-0.222	0.642	0	151	478	3
2026-02-12	16:52:59.430	6.615	-5.32	-20.195	0.39528	0.6771	0.4636	0.3915	-0.222	0.642	0	151	478	3
2026-02-12	16:52:59.450	10.71	-9.24	-15.26	0.391376	0.768844	0.553636	0.387	-0.222	0.6405	0	151	478	3
2026-02-12	16:52:59.470	8.505	-0.98	-15.645	0.428464	0.756644	0.59658	0.3975	-0.222	0.6345	0	151	478	3
2026-02-12	16:52:59.490	11.095	12.145	-13.37	0.438956	0.76128	0.506788	0.402	-0.225	0.6405	0	151	478	3
2026-02-12	16:52:59.510	16.835	13.055	-9.835	0.430172	0.806664	0.477508	0.3915	-0.2295	0.642	0	151	478	3
2026-02-12	16:52:59.530	17.675	5.53	-7.175	0.460184	0.837896	0.540948	0.3915	-0.2295	0.642	0	151	478	3
2026-02-12	16:52:59.550	12.11	1.575	-4.095	0.488488	0.809348	0.569496	0.3915	-0.2295	0.642	0	151	478	3
2026-02-12	16:52:59.570	14.735	2.275	1.505	0.478728	0.861808	0.548756	0.3915	-0.2295	0.642	0	151	478	3
2026-02-12	16:52:59.590	13.93	0	3.465	0.494344	0.9089	0.568276	0.3975	-0.228	0.6435	0	151	478	3
2026-02-12	16:52:59.610	3.43	0.525	4.13	0.469944	0.916464	0.510936	0.405	-0.228	0.6465	0	150	497	3
2026-02-12	16:52:59.630	6.86	0.385	3.08	0.442616	1.002596	0.333548	0.4065	-0.228	0.6495	0	150	497	3
2026-02-12	16:52:59.650	16.17	-10.675	-3.43	0.483364	0.986248	0.259128	0.4035	-0.231	0.648	0	150	497	3
2026-02-12	16:52:59.670	24.955	-26.215	-6.65	0.553148	0.796416	0.356728	0.399	-0.2355	0.6375	0	150	497	3
2026-02-12	16:52:59.690	30.73	-29.995	9.17	0.51362	0.945744	0.610488	0.402	-0.234	0.6255	0	150	497	3
2026-02-12	16:52:59.710	32.235	-7.77	12.88	0.447008	1.132648	0.579012	0.4005	-0.234	0.6255	0	150	497	3
2026-02-12	16:52:59.730	22.19	4.2	2.45	0.393816	1.006988	0.374784	0.4005	-0.237	0.627	0	150	497	3
2026-02-12	16:52:59.750	27.79	-10.08	-2.485	0.408944	0.862296	0.392596	0.3975	-0.2385	0.6315	0	150	497	3
2026-02-12	16:52:59.770	30.31	-24.395	4.865	0.408456	0.851316	0.631716	0.39	-0.2415	0.6315	0	150	497	3
