yyyy-MM-dd	HH:mm:ss.fff	gyrX	gyrY	gyrZ	accX	accY	accZ	magX	magY	magZ	Marker	Energy	Angle	Classification
2026-02-12	16:52:28.610	78.96	-2.45	112.735	1.197064	-0.479948	0.277428	0.147	0.399	-0.2115	0	980	157	5
2026-02-12	16:52:28.630	83.23	3.535	132.09	1.42984	-0.440176	0.278648	0.1425	0.402	-0.204	0	980	157	5
2026-02-12	16:52:28.650	77.77	13.405	160.37	1.500844	-0.368684	0.27938	0.138	0.4005	-0.201	0	980	157	5
2026-02-12	16:52:28.670	68.425	20.51	187.81	1.454972	-0.330132	0.291824	0.138	0.4005	-0.201	0	980	157	5
2026-02-12	16:52:28.690	61.67	23.38	207.69	1.472296	-0.327936	0.301096	0.108	0.444	-0.1905	0	980	157	5
2026-02-12	16:52:28.710	57.995	24.045	227.5	1.552572	-0.30134	0.285724	0.1005	0.4635	-0.195	0	980	157	5
2026-02-12	16:52:28.730	57.435	25.48	247.415	1.556964	-0.29646	0.187636	0.0915	0.4785	-0.1875	0	980	157	5
2026-02-12	16:52:28.750	63.805	23.8	261.625	1.586732	-0.289384	0.151768	0.093	0.501	-0.183	0	980	157	5
2026-02-12	16:52:28.770	70.35	26.46	266.21	1.64822	-0.271084	0.163724	0.0945	0.534	-0.195	0	980	157	5
2026-02-12	16:52:28.790	68.985	32.62	268.52	1.682624	-0.223992	0.136884	0.0885	0.5655	-0.1965	0	980	157	5
2026-02-12	16:52:28.810	59.92	42.105	269.675	1.522804	-0.286944	0.080764	0.0855	0.5745	-0.1995	0	955	179	5
2026-02-12	16:52:28.830	47.495	40.705	264.11	1.425692	-0.233264	-0.02806	0.096	0.6015	-0.2085	0	955	179	5
2026-02-12	16:52:28.850	29.05	40.04	251.125	1.351272	-0.271572	-0.050996	0.1155	0.636	-0.216	0	955	179	5
2026-02-12	16:52:28.870	18.095	31.115	227.5	1.247328	-0.323788	-0.086132	0.1245	0.654	-0.219	0	955	179	5
2026-02-12	16:52:28.890	21.455	22.855	214.62	1.118008	-0.288896	-0.060756	0.15	0.702	-0.2205	0	955	179	5
2026-02-12	16:52:28.910	24.71	10.64	201.11	0.960872	-0.25986	-0.10126	0.1665	0.723	-0.222	0	955	179	5
2026-02-12	16:52:28.930	25.76	0.665	175.805	0.929884	-0.318908	-0.109312	0.1725	0.7395	-0.231	0	955	179	5
2026-02-12	16:52:28.950	29.295	-11.83	153.02	0.868152	-0.313784	-0.092964	0.1935	0.765	-0.2175	0	955	179	5
2026-02-12	16:52:28.970	37.38	-22.33	129.045	0.811788	-0.33184	-0.089792	0.201	0.7725	-0.228	0	955	179	5
2026-02-12	16:52:28.990	40.355	-32.06	105.735	0.732488	-0.34038	-0.051728	0.2085	0.78	-0.2265	0	955	179	5
2026-02-12	16:52:29.010	40.635	-41.09	83.405	0.676368	-0.395036	-0.034404	0.2205	0.786	-0.2295	0	915	174	5
2026-02-12	16:52:29.030	47.11	-50.155	60.48	0.681492	-0.404552	0	0.2205	0.7845	-0.231	0	915	174	5
2026-02-12	16:52:29.050	51.975	-58.59	40.915	0.737368	-0.428952	0.011712	0.219	0.786	-0.228	0	915	174	5
2026-02-12	16:52:29.070	56.35	-63.35	20.405	0.723948	-0.402356	0.013664	0.2145	0.7875	-0.225	0	915	174	5
2026-02-12	16:52:29.090	54.915	-67.69	2.765	0.675392	-0.36844	-0.004148	0.213	0.789	-0.2265	0	915	174	5
2026-02-12	16:52:29.110	48.965	-71.61	-9.03	0.618784	-0.347212	-0.01586	0.201	0.786	-0.222	0	915	174	5
2026-02-12	16:52:29.130	44.52	-77.245	-20.79	0.60146	-0.351116	-0.00488	0.189	0.78	-0.222	0	915	174	5
2026-02-12	16:52:29.150	43.645	-83.685	-33.985	0.604632	-0.354044	0.005368	0.195	0.7695	-0.2145	0	915	174	5
2026-02-12	16:52:29.170	45.92	-90.895	-48.16	0.637328	-0.381128	0.040016	0.1725	0.7635	-0.2145	0	915	174	5
2026-02-12	16:52:29.190	51.31	-97.195	-64.225	0.683932	-0.418948	0.077104	0.1635	0.756	-0.1965	0	915	174	5
2026-02-12	16:52:29.210	60.025	-102.83	-81.095	0.736148	-0.427976	0.121512	0.153	0.7485	-0.195	0	864	142	5
2026-02-12	16:52:29.230	69.825	-106.225	-98.385	0.797148	-0.439688	0.171044	0.1455	0.744	-0.192	0	864	142	5
2026-02-12	16:52:29.250	75.845	-107.8	-115.71	0.847656	-0.443836	0.193492	0.126	0.7245	-0.186	0	864	142	5
2026-02-12	16:52:29.270	78.68	-108.22	-128.24	0.924516	-0.435296	0.212768	0.1155	0.702	-0.177	0	864	142	5
2026-02-12	16:52:29.290	80.99	-107.905	-142.1	0.957212	-0.409188	0.234728	0.117	0.6945	-0.1725	0	864	142	5
2026-02-12	16:52:29.310	78.715	-107.205	-154.28	1.031876	-0.366732	0.253516	0.117	0.6945	-0.1725	0	864	142	5
2026-02-12	16:52:29.330	72.38	-103.46	-163.135	1.089216	-0.392352	0.274012	0.075	0.624	-0.156	0	864	142	5
2026-02-12	16:52:29.350	70.84	-99.05	-167.93	1.145336	-0.370636	0.2989	0.0555	0.603	-0.135	0	864	142	5
2026-02-12	16:52:29.370	63.63	-92.89	-168.735	1.195356	-0.400404	0.321348	0.0585	0.5865	-0.126	0	864	142	5
2026-02-12	16:52:29.390	57.645	-84.21	-163.205	1.212192	-0.40504	0.372588	0.0435	0.5475	-0.114	0	864	142	5
2026-02-12	16:52:27.410	-28.56	-6.51	-50.715	0.685884	-0.70882	0.17324	0.2115	0.2805	-0.171	0	1057	173	5
2026-02-12	16:52:27.430	-22.295	-4.165	-27.965	0.654652	-0.695888	0.162504	0.2235	0.276	-0.1725	0	1057	173	5
2026-02-12	16:52:27.450	-18.34	-2.38	-3.36	0.643428	-0.643428	0.151036	0.2205	0.2745	-0.1725	0	1057	173	5
2026-02-12	16:52:27.470	-15.26	-0.525	23.45	0.650504	-0.64904	0.151524	0.2355	0.282	-0.1785	0	1057	173	5
2026-02-12	16:52:27.490	-7.665	-0.875	51.065	0.71492	-0.589992	0.164212	0.219	0.2895	-0.18	0	1057	173	5
2026-02-12	16:52:27.510	-2.345	-0.805	78.61	0.79544	-0.569252	0.166164	0.216	0.285	-0.171	0	1057	173	5
2026-02-12	16:52:27.530	1.155	-0.245	106.4	0.882792	-0.569008	0.170068	0.204	0.291	-0.1815	0	1057	173	5
2026-02-12	16:52:27.550	9.03	0.84	132.23	0.993568	-0.550952	0.171044	0.204	0.2985	-0.1785	0	1057	173	5
2026-02-12	16:52:27.570	20.58	3.115	157.465	1.1346	-0.527284	0.189588	0.1935	0.3165	-0.1785	0	1057	173	5
2026-02-12	16:52:27.590	41.475	9.415	193.2	1.408612	-0.467016	0.264984	0.1845	0.3285	-0.18	0	1057	173	5
2026-02-12	16:52:27.610	43.61	17.5	218.82	1.666276	-0.427	0.308904	0.1545	0.3435	-0.174	0	1048	186	5
2026-02-12	16:52:27.630	37.135	29.26	247.275	1.924428	-0.385764	0.323544	0.138	0.3675	-0.174	0	1048	186	5
2026-02-12	16:52:27.650	26.6	40.67	281.295	2.145492	-0.449448	0.307684	0.126	0.3915	-0.1755	0	1048	186	5
2026-02-12	16:52:27.670	35.84	48.72	323.12	2.386076	-0.593652	0.282796	0.1155	0.417	-0.1755	0	1048	186	5
2026-02-12	16:52:27.690	61.145	55.335	372.715	2.76086	-0.57462	0.284748	0.096	0.456	-0.177	0	1048	186	5
2026-02-12	16:52:27.710	99.68	67.41	424.305	3.072692	-0.643184	0.174948	0.0885	0.5025	-0.189	0	1048	186	5
2026-02-12	16:52:27.730	144.9	87.57	467.18	3.437228	-0.577304	0.125904	0.0855	0.5385	-0.204	0	1048	186	5
2026-02-12	16:52:27.750	169.4	116.62	491.645	3.231536	-0.429196	-0.004148	0.0915	0.564	-0.2055	0	1048	186	5
2026-02-12	16:52:27.770	180.67	139.37	501.795	2.975092	-0.243512	0.141764	0.111	0.612	-0.2175	0	1048	186	5
2026-02-12	16:52:27.790	155.05	168.42	471.555	2.196	-0.17934	0.183	0.1365	0.66	-0.234	0	1048	186	5
2026-02-12	16:52:27.810	113.435	185.08	420.14	1.619184	-0.071004	0.158844	0.1515	0.6855	-0.243	0	1031	198	5
2026-02-12	16:52:27.830	69.125	179.865	378.945	1.42862	-0.027572	0.114436	0.243	0.741	-0.291	0	1031	198	5
2026-02-12	16:52:27.850	41.195	169.645	345.31	1.064328	-0.0488	0.065392	0.2865	0.7545	-0.3	0	1031	198	5
2026-02-12	16:52:27.870	38.15	148.855	308.735	1.00162	-0.06588	0.053192	0.333	0.7695	-0.318	0	1031	198	5
2026-02-12	16:52:27.890	44.275	132.335	275.52	0.892796	0.046116	0.089792	0.372	0.777	-0.3225	0	1031	198	5
2026-02-12	16:52:27.910	45.815	116.725	236.215	0.72956	0.15128	0.018788	0.417	0.7755	-0.327	0	1031	198	5
2026-02-12	16:52:27.930	43.155	99.26	186.515	0.502884	0.420656	-0.099064	0.459	0.771	-0.3375	0	1031	198	5
2026-02-12	16:52:27.950	28.245	75.46	128.31	0.260104	0.637328	-0.243756	0.4815	0.774	-0.339	0	1031	198	5
2026-02-12	16:52:27.970	10.78	44.695	61.25	0.146644	0.664412	-0.261812	0.492	0.7695	-0.339	0	1031	198	5
2026-02-12	16:52:27.990	-2.555	11.2	-6.825	0.152012	0.588528	-0.13298	0.507	0.7665	-0.3405	0	1031	198	5
2026-02-12	16:52:28.010	-22.155	-33.845	-104.195	0.2318	0.376492	0.051972	0.51	0.768	-0.342	0	1015	186	5
2026-02-12	16:52:28.030	-29.785	-59.43	-163.205	0.321104	0.25376	0.043676	0.51	0.768	-0.342	0	1015	186	5
2026-02-12	16:52:28.050	-26.285	-84.07	-215.32	0.405528	0.157624	0.009272	0.4785	0.771	-0.3345	0	1015	186	5
2026-02-12	16:52:28.070	-15.995	-110.005	-262.22	0.55266	0.066368	0.010248	0.4575	0.7875	-0.3315	0	1015	186	5
2026-02-12	16:52:28.090	-11.06	-132.65	-304.955	0.771772	-0.01098	0.064172	0.4155	0.78	-0.3225	0	1015	186	5
2026-02-12	16:52:28.110	-12.635	-152.145	-344.96	1.036512	-0.142008	0.115168	0.381	0.768	-0.33	0	1015	186	5
2026-02-12	16:52:28.130	-5.18	-168.49	-376.95	1.328824	-0.311832	0.161772	0.3315	0.762	-0.3225	0	1015	186	5
2026-02-12	16:52:28.150	-1.96	-185.01	-404.985	1.578192	-0.21106	0.121268	0.2925	0.741	-0.312	0	1015	186	5
2026-02-12	16:52:28.170	-24.78	-207.2	-434.175	1.914424	-0.03294	0.117852	0.243	0.7155	-0.297	0	1015	186	5
2026-02-12	16:52:28.190	-88.375	-221.41	-452.41	2.58762	0.014152	0.177388	0.2175	0.6975	-0.2895	0	1015	186	5
2026-02-12	16:52:28.210	-143.85	-207.27	-468.895	3.029748	-0.16348	0.253516	0.171	0.66	-0.2685	0	1002	156	5
2026-02-12	16:52:28.230	-210.595	-157.535	-477.645	3.56118	-0.317688	0.522892	0.15	0.6405	-0.2565	0	1002	156	5
2026-02-12	16:52:28.250	-279.965	-96.6	-456.855	3.303516	-0.798856	0.247904	0.099	0.561	-0.219	0	1002	156	5
2026-02-12	16:52:28.270	-277.865	-22.925	-400.295	2.290428	-0.536312	0.169092	0.087	0.5175	-0.2055	0	1002	156	5
2026-02-12	16:52:28.290	-247.24	-4.935	-341.74	2.0923	-0.645868	0.113216	0.102	0.492	-0.201	0	1002	156	5
2026-02-12	16:52:28.310	-200.165	12.915	-288.54	1.671888	-0.598776	0.199592	0.111	0.471	-0.207	0	1002	156	5
2026-02-12	16:52:28.330	-140.385	17.605	-234.15	1.442528	-0.661728	0.243756	0.1215	0.456	-0.216	0	1002	156	5
2026-02-12	16:52:28.350	-74.2	13.58	-185.045	1.305156	-0.657336	0.171776	0.135	0.4335	-0.225	0	1002	156	5
2026-02-12	16:52:28.370	-13.44	1.61	-140.63	1.204384	-0.668072	0.116632	0.144	0.4245	-0.234	0	1002	156	5
2026-02-12	16:52:28.390	26.88	-8.33	-104.685	1.080432	-0.598776	0.121268	0.1485	0.4215	-0.2325	0	1002	156	5
2026-02-12	16:52:28.410	32.865	-15.54	-73.64	0.974292	-0.641232	0.181292	0.156	0.4065	-0.2295	0	993	144	5
2026-02-12	16:52:28.430	20.79	-14.875	-46.165	0.861564	-0.604388	0.310368	0.1575	0.39	-0.222	0	993	144	5
2026-02-12	16:52:28.450	-0.945	-12.18	-24.15	0.69906	-0.590968	0.35502	0.159	0.3885	-0.2175	0	993	144	5
2026-02-12	16:52:28.470	-10.465	-10.22	-10.57	0.654652	-0.59414	0.356972	0.1695	0.381	-0.213	0	993	144	5
2026-02-12	16:52:28.490	-7.35	-9.31	3.29	0.601704	-0.586576	0.338428	0.162	0.3795	-0.222	0	993	144	5
2026-02-12	16:52:28.510	6.23	-10.185	17.885	0.559004	-0.606096	0.312564	0.1635	0.3825	-0.2265	0	993	144	5
2026-02-12	16:52:28.530	26.25	-11.095	35.21	0.621956	-0.56486	0.317932	0.162	0.378	-0.216	0	993	144	5
2026-02-12	16:52:28.550	38.745	-5.425	54.775	0.642452	-0.543632	0.285968	0.159	0.3735	-0.2115	0	993	144	5
2026-02-12	16:52:28.570	52.36	-5.495	74.69	0.745908	-0.530944	0.264008	0.15	0.3855	-0.21	0	993	144	5
2026-02-12	16:52:28.590	67.165	-5.285	94.15	0.928908	-0.507764	0.260348	0.147	0.3945	-0.216	0	993	144	5
2026-02-12	16:52:28.610	78.96	-2.45	112.735	1.197064	-0.479948	0.277428	0.147	0.399	-0.2115	0	980	157	5
2026-02-12	16:52:28.630	83.23	3.535	132.09	1.42984	-0.440176	0.278648	0.1425	0.402	-0.204	0	980	157	5
2026-02-12	16:52:28.650	77.77	13.405	160.37	1.500844	-0.368684	0.27938	0.138	0.4005	-0.201	0	980	157	5
2026-02-12	16:52:28.670	68.425	20.51	187.81	1.454972	-0.330132	0.291824	0.138	0.4005	-0.201	0	980	157	5
2026-02-12	16:52:28.690	61.67	23.38	207.69	1.472296	-0.327936	0.301096	0.108	0.444	-0.1905	0	980	157	5
2026-02-12	16:52:28.710	57.995	24.045	227.5	1.552572	-0.30134	0.285724	0.1005	0.4635	-0.195	0	980	157	5
2026-02-12	16:52:28.730	57.435	25.48	247.415	1.556964	-0.29646	0.187636	0.0915	0.4785	-0.1875	0	980	157	5
2026-02-12	16:52:28.750	63.805	23.8	261.625	1.586732	-0.289384	0.151768	0.093	0.501	-0.183	0	980	157	5
2026-02-12	16:52:28.770	70.35	26.46	266.21	1.64822	-0.271084	0.163724	0.0945	0.534	-0.195	0	980	157	5
2026-02-12	16:52:28.790	68.985	32.62	268.52	1.682624	-0.223992	0.136884	0.0885	0.5655	-0.1965	0	980	157	5
2026-02-12	16:52:28.810	59.92	42.105	269.675	1.522804	-0.286944	0.080764	0.0855	0.5745	-0.1995	0	955	179	5
2026-02-12	16:52:28.830	47.495	40.705	264.11	1.425692	-0.233264	-0.02806	0.096	0.6015	-0.2085	0	955	179	5
2026-02-12	16:52:28.850	29.05	40.04	251.125	1.351272	-0.271572	-0.050996	0.1155	0.636	-0.216	0	955	179	5
2026-02-12	16:52:28.870	18.095	31.115	227.5	1.247328	-0.323788	-0.086132	0.1245	0.654	-0.219	0	955	179	5
2026-02-12	16:52:28.890	21.455	22.855	214.62	1.118008	-0.288896	-0.060756	0.15	0.702	-0.2205	0	955	179	5
2026-02-12	16:52:28.910	24.71	10.64	201.11	0.960872	-0.25986	-0.10126	0.1665	0.723	-0.222	0	955	179	5
2026-02-12	16:52:28.930	25.76	0.665	175.805	0.929884	-0.318908	-0.109312	0.1725	0.7395	-0.231	0	955	179	5
2026-02-12	16:52:28.950	29.295	-11.83	153.02	0.868152	-0.313784	-0.092964	0.1935	0.765	-0.2175	0	955	179	5
2026-02-12	16:52:28.970	37.38	-22.33	129.045	0.811788	-0.33184	-0.089792	0.201	0.7725	-0.228	0	955	179	5
2026-02-12	16:52:28.990	40.355	-32.06	105.735	0.732488	-0.34038	-0.051728	0.2085	0.78	-0.2265	0	955	179	5
2026-02-12	16:52:29.010	40.635	-41.09	83.405	0.676368	-0.395036	-0.034404	0.2205	0.786	-0.2295	0	915	174	5
2026-02-12	16:52:29.030	47.11	-50.155	60.48	0.681492	-0.404552	0	0.2205	0.7845	-0.231	0	915	174	5
2026-02-12	16:52:29.050	51.975	-58.59	40.915	0.737368	-0.428952	0.011712	0.219	0.786	-0.228	0	915	174	5
2026-02-12	16:52:29.070	56.35	-63.35	20.405	0.723948	-0.402356	0.013664	0.2145	0.7875	-0.225	0	915	174	5
2026-02-12	16:52:29.090	54.915	-67.69	2.765	0.675392	-0.36844	-0.004148	0.213	0.789	-0.2265	0	915	174	5
2026-02-12	16:52:29.110	48.965	-71.61	-9.03	0.618784	-0.347212	-0.01586	0.201	0.786	-0.222	0	915	174	5
2026-02-12	16:52:29.130	44.52	-77.245	-20.79	0.60146	-0.351116	-0.00488	0.189	0.78	-0.222	0	915	174	5
2026-02-12	16:52:29.150	43.645	-83.685	-33.985	0.604632	-0.354044	0.005368	0.195	0.7695	-0.2145	0	915	174	5
2026-02-12	16:52:29.170	45.92	-90.895	-48.16	0.637328	-0.381128	0.040016	0.1725	0.7635	-0.2145	0	915	174	5
2026-02-12	16:52:29.190	51.31	-97.195	-64.225	0.683932	-0.418948	0.077104	0.1635	0.756	-0.1965	0	915	174	5
2026-02-12	16:52:29.210	60.025	-102.83	-81.095	0.736148	-0.427976	0.121512	0.153	0.7485	-0.195	0	864	142	5
2026-02-12	16:52:29.230	69.825	-106.225	-98.385	0.797148	-0.439688	0.171044	0.1455	0.744	-0.192	0	864	142	5
2026-02-12	16:52:29.250	75.845	-107.8	-115.71	0.847656	-0.443836	0.193492	0.126	0.7245	-0.186	0	864	142	5
2026-02-12	16:52:29.270	78.68	-108.22	-128.24	0.924516	-0.435296	0.212768	0.1155	0.702	-0.177	0	864	142	5
2026-02-12	16:52:29.290	80.99	-107.905	-142.1	0.957212	-0.409188	0.234728	0.117	0.6945	-0.1725	0	864	142	5
2026-02-12	16:52:29.310	78.715	-107.205	-154.28	1.031876	-0.366732	0.253516	0.117	0.6945	-0.1725	0	864	142	5
2026-02-12	16:52:29.330	72.38	-103.46	-163.135	1.089216	-0.392352	0.274012	0.075	0.624	-0.156	0	864	142	5
2026-02-12	16:52:29.350	70.84	-99.05	-167.93	1.145336	-0.370636	0.2989	0.0555	0.603	-0.135	0	864	142	5
2026-02-12	16:52:29.370	63.63	-92.89	-168.735	1.195356	-0.400404	0.321348	0.0585	0.5865	-0.126	0	864	142	5
2026-02-12	16:52:29.390	57.645	-84.21	-163.205	1.212192	-0.40504	0.372588	0.0435	0.5475	-0.114	0	864	142	5
2026-02-12	16:52:27.410	-28.56	-6.51	-50.715	0.685884	-0.70882	0.17324	0.2115	0.2805	-0.171	0	1057	173	5
2026-02-12	16:52:27.430	-22.295	-4.165	-27.965	0.654652	-0.695888	0.162504	0.2235	0.276	-0.1725	0	1057	173	5
2026-02-12	16:52:27.450	-18.34	-2.38	-3.36	0.643428	-0.643428	0.151036	0.2205	0.2745	-0.1725	0	1057	173	5
2026-02-12	16:52:27.470	-15.26	-0.525	23.45	0.650504	-0.64904	0.151524	0.2355	0.282	-0.1785	0	1057	173	5
2026-02-12	16:52:27.490	-7.665	-0.875	51.065	0.71492	-0.589992	0.164212	0.219	0.2895	-0.18	0	1057	173	5
2026-02-12	16:52:27.510	-2.345	-0.805	78.61	0.79544	-0.569252	0.166164	0.216	0.285	-0.171	0	1057	173	5
2026-02-12	16:52:27.530	1.155	-0.245	106.4	0.882792	-0.569008	0.170068	0.204	0.291	-0.1815	0	1057	173	5
2026-02-12	16:52:27.550	9.03	0.84	132.23	0.993568	-0.550952	0.171044	0.204	0.2985	-0.1785	0	1057	173	5
2026-02-12	16:52:27.570	20.58	3.115	157.465	1.1346	-0.527284	0.189588	0.1935	0.3165	-0.1785	0	1057	173	5
2026-02-12	16:52:27.590	41.475	9.415	193.2	1.408612	-0.467016	0.264984	0.1845	0.3285	-0.18	0	1057	173	5
2026-02-12	16:52:27.610	43.61	17.5	218.82	1.666276	-0.427	0.308904	0.1545	0.3435	-0.174	0	1048	186	5
2026-02-12	16:52:27.630	37.135	29.26	247.275	1.924428	-0.385764	0.323544	0.138	0.3675	-0.174	0	1048	186	5
2026-02-12	16:52:27.650	26.6	40.67	281.295	2.145492	-0.449448	0.307684	0.126	0.3915	-0.1755	0	1048	186	5
2026-02-12	16:52:27.670	35.84	48.72	323.12	2.386076	-0.593652	0.282796	0.1155	0.417	-0.1755	0	1048	186	5
2026-02-12	16:52:27.690	61.145	55.335	372.715	2.76086	-0.57462	0.284748	0.096	0.456	-0.177	0	1048	186	5
2026-02-12	16:52:27.710	99.68	67.41	424.305	3.072692	-0.643184	0.174948	0.0885	0.5025	-0.189	0	1048	186	5
2026-02-12	16:52:27.730	144.9	87.57	467.18	3.437228	-0.577304	0.125904	0.0855	0.5385	-0.204	0	1048	186	5
2026-02-12	16:52:27.750	169.4	116.62	491.645	3.231536	-0.429196	-0.004148	0.0915	0.564	-0.2055	0	1048	186	5
2026-02-12	16:52:27.770	180.67	139.37	501.795	2.975092	-0.243512	0.141764	0.111	0.612	-0.2175	0	1048	186	5
2026-02-12	16:52:27.790	155.05	168.42	471.555	2.196	-0.17934	0.183	0.1365	0.66	-0.234	0	1048	186	5
2026-02-12	16:52:27.810	113.435	185.08	420.14	1.619184	-0.071004	0.158844	0.1515	0.6855	-0.243	0	1031	198	5
2026-02-12	16:52:27.830	69.125	179.865	378.945	1.42862	-0.027572	0.114436	0.243	0.741	-0.291	0	1031	198	5
2026-02-12	16:52:27.850	41.195	169.645	345.31	1.064328	-0.0488	0.065392	0.2865	0.7545	-0.3	0	1031	198	5
2026-02-12	16:52:27.870	38.15	148.855	308.735	1.00162	-0.06588	0.053192	0.333	0.7695	-0.318	0	1031	198	5
2026-02-12	16:52:27.890	44.275	132.335	275.52	0.892796	0.046116	0.089792	0.372	0.777	-0.3225	0	1031	198	5
2026-02-12	16:52:27.910	45.815	116.725	236.215	0.72956	0.15128	0.018788	0.417	0.7755	-0.327	0	1031	198	5
2026-02-12	16:52:27.930	43.155	99.26	186.515	0.502884	0.420656	-0.099064	0.459	0.771	-0.3375	0	1031	198	5
2026-02-12	16:52:27.950	28.245	75.46	128.31	0.260104	0.637328	-0.243756	0.4815	0.774	-0.339	0	1031	198	5
2026-02-12	16:52:27.970	10.78	44.695	61.25	0.146644	0.664412	-0.261812	0.492	0.7695	-0.339	0	1031	198	5
2026-02-12	16:52:27.990	-2.555	11.2	-6.825	0.152012	0.588528	-0.13298	0.507	0.7665	-0.3405	0	1031	198	5
2026-02-12	16:52:28.010	-22.155	-33.845	-104.195	0.2318	0.376492	0.051972	0.51	0.768	-0.342	0	1015	186	5
2026-02-12	16:52:28.030	-29.785	-59.43	-163.205	0.321104	0.25376	0.043676	0.51	0.768	-0.342	0	1015	186	5
2026-02-12	16:52:28.050	-26.285	-84.07	-215.32	0.405528	0.157624	0.009272	0.4785	0.771	-0.3345	0	1015	186	5
2026-02-12	16:52:28.070	-15.995	-110.005	-262.22	0.55266	0.066368	0.010248	0.4575	0.7875	-0.3315	0	1015	186	5
2026-02-12	16:52:28.090	-11.06	-132.65	-304.955	0.771772	-0.01098	0.064172	0.4155	0.78	-0.3225	0	1015	186	5
2026-02-12	16:52:28.110	-12.635	-152.145	-344.96	1.036512	-0.142008	0.115168	0.381	0.768	-0.33	0	1015	186	5
2026-02-12	16:52:28.130	-5.18	-168.49	-376.95	1.328824	-0.311832	0.161772	0.3315	0.762	-0.3225	0	1015	186	5
2026-02-12	16:52:28.150	-1.96	-185.01	-404.985	1.578192	-0.21106	0.121268	0.2925	0.741	-0.312	0	1015	186	5
2026-02-12	16:52:28.170	-24.78	-207.2	-434.175	1.914424	-0.03294	0.117852	0.243	0.7155	-0.297	0	1015	186	5
2026-02-12	16:52:28.190	-88.375	-221.41	-452.41	2.58762	0.014152	0.177388	0.2175	0.6975	-0.2895	0	1015	186	5
2026-02-12	16:52:28.210	-143.85	-207.27	-468.895	3.029748	-0.16348	0.253516	0.171	0.66	-0.2685	0	1002	156	5
2026-02-12	16:52:28.230	-210.595	-157.535	-477.645	3.56118	-0.317688	0.522892	0.15	0.6405	-0.2565	0	1002	156	5
2026-02-12	16:52:28.250	-279.965	-96.6	-456.855	3.303516	-0.798856	0.247904	0.099	0.561	-0.219	0	1002	156	5
2026-02-12	16:52:28.270	-277.865	-22.925	-400.295	2.290428	-0.536312	0.169092	0.087	0.5175	-0.2055	0	1002	156	5
2026-02-12	16:52:28.290	-247.24	-4.935	-341.74	2.0923	-0.645868	0.113216	0.102	0.492	-0.201	0	1002	156	5
2026-02-12	16:52:28.310	-200.165	12.915	-288.54	1.671888	-0.598776	0.199592	0.111	0.471	-0.207	0	1002	156	5
2026-02-12	16:52:28.330	-140.385	17.605	-234.15	1.442528	-0.661728	0.243756	0.1215	0.456	-0.216	0	1002	156	5
2026-02-12	16:52:28.350	-74.2	13.58	-185.045	1.305156	-0.657336	0.171776	0.135	0.4335	-0.225	0	1002	156	5
2026-02-12	16:52:28.370	-13.44	1.61	-140.63	1.204384	-0.668072	0.116632	0.144	0.4245	-0.234	0	1002	156	5
2026-02-12	16:52:28.390	26.88	-8.33	-104.685	1.080432	-0.598776	0.121268	0.1485	0.4215	-0.2325	0	1002	156	5
2026-02-12	16:52:28.410	32.865	-15.54	-73.64	0.974292	-0.641232	0.181292	0.156	0.4065	-0.2295	0	993	144	5
2026-02-12	16:52:28.430	20.79	-14.875	-46.165	0.861564	-0.604388	0.310368	0.1575	0.39	-0.222	0	993	144	5
2026-02-12	16:52:28.450	-0.945	-12.18	-24.15	0.69906	-0.590968	0.35502	0.159	0.3885	-0.2175	0	993	144	5
2026-02-12	16:52:28.470	-10.465	-10.22	-10.57	0.654652	-0.59414	0.356972	0.1695	0.381	-0.213	0	993	144	5
2026-02-12	16:52:28.490	-7.35	-9.31	3.29	0.601704	-0.586576	0.338428	0.162	0.3795	-0.222	0	993	144	5
2026-02-12	16:52:28.510	6.23	-10.185	17.885	0.559004	-0.606096	0.312564	0.1635	0.3825	-0.2265	0	993	144	5
2026-02-12	16:52:28.530	26.25	-11.095	35.21	0.621956	-0.56486	0.317932	0.162	0.378	-0.216	0	993	144	5
2026-02-12	16:52:28.550	38.745	-5.425	54.775	0.642452	-0.543632	0.285968	0.159	0.3735	-0.2115	0	993	144	5
2026-02-12	16:52:28.570	52.36	-5.495	74.69	0.745908	-0.530944	0.264008	0.15	0.3855	-0.21	0	993	144	5
2026-02-12	16:52:28.590	67.165	-5.285	94.15	0.928908	-0.507764	0.260348	0.147	0.3945	-0.216	0	993	144	5
2026-02-12	16:52:28.610	78.96	-2.45	112.735	1.197064	-0.479948	0.277428	0.147	0.399	-0.2115	0	980	157	5
2026-02-12	16:52:28.630	83.23	3.535	132.09	1.42984	-0.440176	0.278648	0.1425	0.402	-0.204	0	980	157	5
2026-02-12	16:52:28.650	77.77	13.405	160.37	1.500844	-0.368684	0.27938	0.138	0.4005	-0.201	0	980	157	5
2026-02-12	16:52:28.670	68.425	20.51	187.81	1.454972	-0.330132	0.291824	0.138	0.4005	-0.201	0	980	157	5
2026-02-12	16:52:28.690	61.67	23.38	207.69	1.472296	-0.327936	0.301096	0.108	0.444	-0.1905	0	980	157	5
2026-02-12	16:52:28.710	57.995	24.045	227.5	1.552572	-0.30134	0.285724	0.1005	0.4635	-0.195	0	980	157	5
2026-02-12	16:52:28.730	57.435	25.48	247.415	1.556964	-0.29646	0.187636	0.0915	0.4785	-0.1875	0	980	157	5
2026-02-12	16:52:28.750	63.805	23.8	261.625	1.586732	-0.289384	0.151768	0.093	0.501	-0.183	0	980	157	5
2026-02-12	16:52:28.770	70.35	26.46	266.21	1.64822	-0.271084	0.163724	0.0945	0.534	-0.195	0	980	157	5
2026-02-12	16:52:28.790	68.985	32.62	268.52	1.682624	-0.223992	0.136884	0.0885	0.5655	-0.1965	0	980	157	5
2026-02-12	16:52:28.810	59.92	42.105	269.675	1.522804	-0.286944	0.080764	0.0855	0.5745	-0.1995	0	955	179	5
2026-02-12	16:52:28.830	47.495	40.705	264.11	1.425692	-0.233264	-0.02806	0.096	0.6015	-0.2085	0	955	179	5
2026-02-12	16:52:28.850	29.05	40.04	251.125	1.351272	-0.271572	-0.050996	0.1155	0.636	-0.216	0	955	179	5
2026-02-12	16:52:28.870	18.095	31.115	227.5	1.247328	-0.323788	-0.086132	0.1245	0.654	-0.219	0	955	179	5
2026-02-12	16:52:28.890	21.455	22.855	214.62	1.118008	-0.288896	-0.060756	0.15	0.702	-0.2205	0	955	179	5
2026-02-12	16:52:28.910	24.71	10.64	201.11	0.960872	-0.25986	-0.10126	0.1665	0.723	-0.222	0	955	179	5
2026-02-12	16:52:28.930	25.76	0.665	175.805	0.929884	-0.318908	-0.109312	0.1725	0.7395	-0.231	0	955	179	5
2026-02-12	16:52:28.950	29.295	-11.83	153.02	0.868152	-0.313784	-0.092964	0.1935	0.765	-0.2175	0	955	179	5
2026-02-12	16:52:28.970	37.38	-22.33	129.045	0.811788	-0.33184	-0.089792	0.201	0.7725	-0.228	0	955	179	5
2026-02-12	16:52:28.990	40.355	-32.06	105.735	0.732488	-0.34038	-0.051728	0.2085	0.78	-0.2265	0	955	179	5
2026-02-12	16:52:29.010	40.635	-41.09	83.405	0.676368	-0.395036	-0.034404	0.2205	0.786	-0.2295	0	915	174	5
2026-02-12	16:52:29.030	47.11	-50.155	60.48	0.681492	-0.404552	0	0.2205	0.7845	-0.231	0	915	174	5
2026-02-12	16:52:29.050	51.975	-58.59	40.915	0.737368	-0.428952	0.011712	0.219	0.786	-0.228	0	915	174	5
2026-02-12	16:52:29.070	56.35	-63.35	20.405	0.723948	-0.402356	0.013664	0.2145	0.7875	-0.225	0	915	174	5
2026-02-12	16:52:29.090	54.915	-67.69	2.765	0.675392	-0.36844	-0.004148	0.213	0.789	-0.2265	0	915	174	5
2026-02-12	16:52:29.110	48.965	-71.61	-9.03	0.618784	-0.347212	-0.01586	0.201	0.786	-0.222	0	915	174	5
2026-02-12	16:52:29.130	44.52	-77.245	-20.79	0.60146	-0.351116	-0.00488	0.189	0.78	-0.222	0	915	174	5
2026-02-12	16:52:29.150	43.645	-83.685	-33.985	0.604632	-0.354044	0.005368	0.195	0.7695	-0.2145	0	915	174	5
2026-02-12	16:52:29.170	45.92	-90.895	-48.16	0.637328	-0.381128	0.040016	0.1725	0.7635	-0.2145	0	915	174	5
2026-02-12	16:52:29.190	51.31	-97.195	-64.225	0.683932	-0.418948	0.077104	0.1635	0.756	-0.1965	0	915	174	5
2026-02-12	16:52:29.210	60.025	-102.83	-81.095	0.736148	-0.427976	0.121512	0.153	0.7485	-0.195	0	864	142	5
2026-02-12	16:52:29.230	69.825	-106.225	-98.385	0.797148	-0.439688	0.171044	0.1455	0.744	-0.192	0	864	142	5
2026-02-12	16:52:29.250	75.845	-107.8	-115.71	0.847656	-0.443836	0.193492	0.126	0.7245	-0.186	0	864	142	5
2026-02-12	16:52:29.270	78.68	-108.22	-128.24	0.924516	-0.435296	0.212768	0.1155	0.702	-0.177	0	864	142	5
2026-02-12	16:52:29.290	80.99	-107.905	-142.1	0.957212	-0.409188	0.234728	0.117	0.6945	-0.1725	0	864	142	5
2026-02-12	16:52:29.310	78.715	-107.205	-154.28	1.031876	-0.366732	0.253516	0.117	0.6945	-0.1725	0	864	142	5
2026-02-12	16:52:29.330	72.38	-103.46	-163.135	1.089216	-0.392352	0.274012	0.075	0.624	-0.156	0	864	142	5
2026-02-12	16:52:29.350	70.84	-99.05	-167.93	1.145336	-0.370636	0.2989	0.0555	0.603	-0.135	0	864	142	5
2026-02-12	16:52:29.370	63.63	-92.89	-168.735	1.195356	-0.400404	0.321348	0.0585	0.5865	-0.126	0	864	142	5
2026-02-12	16:52:29.390	57.645	-84.21	-163.205	1.212192	-0.40504	0.372588	0.0435	0.5475	-0.114	0	864	142	5
2026-02-12	16:52:27.410	-28.56	-6.51	-50.715	0.685884	-0.70882	0.17324	0.2115	0.2805	-0.171	0	1057	173	5
2026-02-12	16:52:27.430	-22.295	-4.165	-27.965	0.654652	-0.695888	0.162504	0.2235	0.276	-0.1725	0	1057	173	5
2026-02-12	16:52:27.450	-18.34	-2.38	-3.36	0.643428	-0.643428	0.151036	0.2205	0.2745	-0.1725	0	1057	173	5
2026-02-12	16:52:27.470	-15.26	-0.525	23.45	0.650504	-0.64904	0.151524	0.2355	0.282	-0.1785	0	1057	173	5
2026-02-12	16:52:27.490	-7.665	-0.875	51.065	0.71492	-0.589992	0.164212	0.219	0.2895	-0.18	0	1057	173	5
2026-02-12	16:52:27.510	-2.345	-0.805	78.61	0.79544	-0.569252	0.166164	0.216	0.285	-0.171	0	1057	173	5
2026-02-12	16:52:27.530	1.155	-0.245	106.4	0.882792	-0.569008	0.170068	0.204	0.291	-0.1815	0	1057	173	5
2026-02-12	16:52:27.550	9.03	0.84	132.23	0.993568	-0.550952	0.171044	0.204	0.2985	-0.1785	0	1057	173	5
2026-02-12	16:52:27.570	20.58	3.115	157.465	1.1346	-0.527284	0.189588	0.1935	0.3165	-0.1785	0	1057	173	5
2026-02-12	16:52:27.590	41.475	9.415	193.2	1.408612	-0.467016	0.264984	0.1845	0.3285	-0.18	0	1057	173	5
2026-02-12	16:52:41.610	-16.38	-29.75	-82.565	0.756644	-0.307196	0.436028	0.0435	0.4395	0.066	0	329	82	3
2026-02-12	16:52:41.630	-34.685	-28.385	-78.4	0.757132	-0.356484	0.457256	0.045	0.4215	0.066	0	329	82	3
2026-02-12	16:52:41.650	-46.48	-25.2	-73.43	0.772992	-0.370148	0.438224	0.0435	0.4035	0.066	0	329	82	3
2026-02-12	16:52:41.670	-52.745	-24.78	-69.265	0.781288	-0.337208	0.402112	0.054	0.393	0.0705	0	329	82	3
2026-02-12	16:52:41.690	-58.8	-24.675	-66.64	0.827404	-0.249368	0.3538	0.0615	0.384	0.072	0	329	82	3
2026-02-12	16:52:41.710	-65.17	-24.815	-67.9	0.847656	-0.140788	0.351848	0.063	0.375	0.0705	0	329	82	3
2026-02-12	16:52:41.730	-64.54	-28.42	-72.52	0.96258	-0.183976	0.408944	0.063	0.3735	0.069	0	329	82	3
2026-02-12	16:52:41.750	-51.415	-29.645	-70.735	1.072868	-0.259128	0.433344	0.0675	0.3585	0.069	0	329	82	3
2026-02-12	16:52:41.770	-19.46	-26.635	-58.555	1.22122	-0.25498	0.38552	0.0675	0.3585	0.069	0	329	82	3
2026-02-12	16:52:41.790	23.24	-24.78	-42.035	1.467416	-0.225456	0.343064	0.081	0.336	0.0705	0	329	82	3
2026-02-12	16:52:41.810	63	-18.97	-13.475	1.645048	-0.010248	0.263276	0.081	0.336	0.0705	0	317	123	3
2026-02-12	16:52:41.830	62.685	-10.08	13.72	1.520364	0.142984	0.16714	0.0825	0.3345	0.0765	0	317	123	3
2026-02-12	16:52:41.850	57.085	-7.945	38.5	1.336632	0.210084	0.137372	0.084	0.3345	0.0885	0	317	123	3
2026-02-12	16:52:41.870	53.165	-9.345	59.08	1.216584	0.218868	0.126636	0.084	0.336	0.0945	0	317	123	3
2026-02-12	16:52:41.890	38.64	-7.49	73.745	1.131916	0.223016	0.10004	0.078	0.3435	0.0945	0	317	123	3
2026-02-12	16:52:41.910	19.18	-2.24	81.585	1.0675	0.230092	0.050752	0.072	0.354	0.1005	0	317	123	3
2026-02-12	16:52:41.930	3.92	3.115	80.64	1.032608	0.195444	0.006832	0.072	0.3585	0.1095	0	317	123	3
2026-02-12	16:52:41.950	-6.265	6.405	75.6	1.013576	0.10736	-0.02196	0.063	0.3735	0.1065	0	317	123	3
2026-02-12	16:52:41.970	-8.82	8.19	72.45	0.994544	-0.005612	-0.077104	0.0645	0.384	0.102	0	317	123	3
2026-02-12	16:52:41.990	2.765	6.755	74.83	0.981124	-0.0488	-0.145912	0.057	0.396	0.108	0	317	123	3
2026-02-12	16:52:42.010	20.125	1.505	83.335	0.960628	0.009028	-0.211304	0.0465	0.4095	0.1035	0	311	157	3
2026-02-12	16:52:42.030	30.905	-5.81	88.34	0.925248	0.10126	-0.197884	0.045	0.4185	0.1035	0	311	157	3
2026-02-12	16:52:42.050	32.585	-10.78	90.86	0.928908	-0.00244	-0.12932	0.045	0.432	0.1035	0	311	157	3
2026-02-12	16:52:42.070	33.845	-11.27	93.31	0.970632	-0.006832	-0.05978	0.042	0.4395	0.108	0	311	157	3
2026-02-12	16:52:42.090	31.5	-7.63	96.075	0.986492	-0.028304	-0.02318	0.033	0.459	0.114	0	311	157	3
2026-02-12	16:52:42.110	39.69	-4.2	92.225	1.001864	0.035868	-0.039772	0.0285	0.477	0.1185	0	311	157	3
2026-02-12	16:52:42.130	41.545	-5.04	87.675	1.045784	-0.01098	-0.089304	0.03	0.4905	0.117	0	311	157	3
2026-02-12	16:52:42.150	41.86	-6.755	83.685	1.09434	-0.092476	-0.113704	0.0285	0.4995	0.1125	0	311	157	3
2026-02-12	16:52:42.170	32.9	-6.23	79.415	1.09312	-0.172996	-0.120292	0.018	0.5115	0.117	0	311	157	3
2026-02-12	16:52:42.190	28.735	-6.405	77.56	1.085312	-0.213256	-0.125416	0.015	0.522	0.117	0	311	157	3
2026-02-12	16:52:42.210	34.125	-8.715	79.765	1.100684	-0.327448	-0.120536	0.015	0.5355	0.12	0	308	141	3
2026-02-12	16:52:42.230	86.415	-8.26	81.2	1.084092	-0.148596	-0.01464	0.015	0.5505	0.117	0	308	141	3
2026-02-12	16:52:42.250	106.925	-5.565	73.71	1.056276	-0.156892	-0.004636	0.015	0.561	0.1185	0	308	141	3
2026-02-12	16:52:42.270	131.495	-4.34	65.905	1.011624	-0.05002	-0.028548	0.015	0.5805	0.12	0	308	141	3
2026-02-12	16:52:42.290	121.275	-4.13	54.285	0.93086	0.110044	-0.025376	0.018	0.5955	0.12	0	308	141	3
2026-02-12	16:52:42.310	76.545	-5.04	44.52	0.897432	0.03294	-0.012444	0.0195	0.6075	0.1185	0	308	141	3
2026-02-12	16:52:42.330	35.63	-5.985	35.595	0.894016	-0.099308	-0.009028	0.0195	0.6225	0.111	0	308	141	3
2026-02-12	16:52:42.350	2.03	-4.9	27.23	0.912804	-0.204472	-0.009272	0.021	0.6315	0.1065	0	308	141	3
2026-02-12	16:52:42.370	-19.145	-1.575	17.465	0.889624	-0.23302	0.022692	0.024	0.621	0.111	0	308	141	3
2026-02-12	16:52:42.390	-30.625	2.625	7.315	0.89914	-0.305244	0.038064	0.024	0.624	0.117	0	308	141	3
2026-02-12	16:52:42.410	-26.04	8.365	-2.135	0.8906	-0.357216	0.020008	0.0225	0.6285	0.1035	0	305	100	3
2026-02-12	16:52:42.430	-9.52	11.095	-13.475	0.913292	-0.313784	-0.010004	0.0195	0.6345	0.117	0	305	100	3
2026-02-12	16:52:42.450	3.185	13.86	-25.585	0.930616	-0.2379	-0.020008	0.0195	0.6345	0.117	0	305	100	3
2026-02-12	16:52:42.470	4.655	15.295	-34.965	0.928664	-0.203496	-0.01464	0.0165	0.627	0.111	0	305	100	3
2026-02-12	16:52:42.490	-0.315	16.065	-44.87	0.94794	-0.171776	-0.020496	0.0195	0.615	0.105	0	305	100	3
2026-02-12	16:52:42.510	-10.675	17.185	-52.605	0.959652	-0.15006	-0.020496	0.0195	0.6075	0.1035	0	305	100	3
2026-02-12	16:52:42.530	-21.98	18.48	-58.345	0.952576	-0.16714	-0.007076	0.018	0.6045	0.102	0	305	100	3
2026-02-12	16:52:42.550	-30.415	19.005	-61.145	0.953064	-0.165432	0.007564	0.018	0.5955	0.099	0	305	100	3
2026-02-12	16:52:42.570	-37.17	19.18	-62.545	1.000644	-0.19032	0.014396	0.0165	0.5895	0.0975	0	305	100	3
2026-02-12	16:52:42.590	-37.135	19.74	-64.12	1.059936	-0.176656	0.016348	0.0135	0.579	0.093	0	305	100	3
2026-02-12	16:52:42.610	-35.945	20.335	-66.29	1.111176	-0.167628	0.010492	0.0195	0.5715	0.0915	0	298	64	3
2026-02-12	16:52:42.630	-36.015	21	-68.32	1.129964	-0.154208	0.033184	0.0105	0.561	0.087	0	298	64	3
2026-02-12	16:52:42.650	-43.26	22.715	-69.02	1.060424	-0.124928	0.056364	0.018	0.543	0.087	0	298	64	3
2026-02-12	16:52:42.670	-56.7	22.645	-67.235	1.003084	-0.104432	0.050264	0.018	0.5325	0.087	0	298	64	3
2026-02-12	16:52:42.690	-70.105	18.305	-64.61	1.032364	-0.12322	0.057828	0.018	0.5175	0.084	0	298	64	3
2026-02-12	16:52:42.710	-80.36	11.725	-62.475	1.054812	-0.15982	0.098088	0.0165	0.5055	0.078	0	298	64	3
2026-02-12	16:52:42.730	-85.12	4.13	-61.215	1.039928	-0.21716	0.174216	0.0135	0.4965	0.072	0	298	64	3
2026-02-12	16:52:42.750	-85.575	-2.73	-59.99	1.028216	-0.276208	0.238144	0.0165	0.486	0.069	0	298	64	3
2026-02-12	16:52:42.770	-80.395	-6.51	-58.87	0.97966	-0.335744	0.279624	0.024	0.4785	0.066	0	298	64	3
2026-02-12	16:52:42.790	-67.795	-8.54	-57.68	0.905972	-0.375516	0.320128	0.0105	0.471	0.063	0	298	64	3
2026-02-12	16:52:42.810	-51.415	-8.89	-55.23	0.820084	-0.383324	0.32452	0.027	0.459	0.0645	0	287	51	3
2026-02-12	16:52:42.830	-35.63	-9.87	-51.485	0.744932	-0.36966	0.332084	0.0195	0.459	0.066	0	287	51	3
2026-02-12	16:52:42.850	-22.505	-11.06	-46.27	0.703208	-0.36112	0.336964	0.033	0.4395	0.063	0	287	51	3
2026-02-12	16:52:42.870	-8.715	-12.355	-37.59	0.698572	-0.329156	0.331108	0.0315	0.438	0.066	0	287	51	3
2026-02-12	16:52:42.890	-7.175	-12.74	-31.85	0.73078	-0.315736	0.325496	0.0315	0.432	0.0675	0	287	51	3
2026-02-12	16:52:42.910	-10.22	-12.18	-26.705	0.748348	-0.298168	0.328668	0.039	0.426	0.0675	0	287	51	3
2026-02-12	16:52:42.930	-15.82	-11.55	-22.925	0.77592	-0.28914	0.32574	0.0405	0.4245	0.0645	0	287	51	3
2026-02-12	16:52:42.950	-22.225	-11.34	-20.16	0.83448	-0.290604	0.335012	0.0375	0.42	0.0675	0	287	51	3
2026-02-12	16:52:42.970	-28.56	-10.5	-16.73	0.874252	-0.309636	0.352092	0.0405	0.414	0.072	0	287	51	3
2026-02-12	16:52:42.990	-34.51	-9.345	-11.935	0.89792	-0.304268	0.380396	0.0435	0.4125	0.0735	0	287	51	3
2026-02-12	16:52:29.010	40.635	-41.09	83.405	0.676368	-0.395036	-0.034404	0.2205	0.786	-0.2295	0	915	174	5
2026-02-12	16:52:29.030	47.11	-50.155	60.48	0.681492	-0.404552	0	0.2205	0.7845	-0.231	0	915	174	5
2026-02-12	16:52:29.050	51.975	-58.59	40.915	0.737368	-0.428952	0.011712	0.219	0.786	-0.228	0	915	174	5
2026-02-12	16:52:29.070	56.35	-63.35	20.405	0.723948	-0.402356	0.013664	0.2145	0.7875	-0.225	0	915	174	5
2026-02-12	16:52:29.090	54.915	-67.69	2.765	0.675392	-0.36844	-0.004148	0.213	0.789	-0.2265	0	915	174	5
2026-02-12	16:52:29.110	48.965	-71.61	-9.03	0.618784	-0.347212	-0.01586	0.201	0.786	-0.222	0	915	174	5
2026-02-12	16:52:29.130	44.52	-77.245	-20.79	0.60146	-0.351116	-0.00488	0.189	0.78	-0.222	0	915	174	5
2026-02-12	16:52:29.150	43.645	-83.685	-33.985	0.604632	-0.354044	0.005368	0.195	0.7695	-0.2145	0	915	174	5
2026-02-12	16:52:29.170	45.92	-90.895	-48.16	0.637328	-0.381128	0.040016	0.1725	0.7635	-0.2145	0	915	174	5
2026-02-12	16:52:29.190	51.31	-97.195	-64.225	0.683932	-0.418948	0.077104	0.1635	0.756	-0.1965	0	915	174	5
2026-02-12	16:52:29.210	60.025	-102.83	-81.095	0.736148	-0.427976	0.121512	0.153	0.7485	-0.195	0	864	142	5
2026-02-12	16:52:29.230	69.825	-106.225	-98.385	0.797148	-0.439688	0.171044	0.1455	0.744	-0.192	0	864	142	5
2026-02-12	16:52:29.250	75.845	-107.8	-115.71	0.847656	-0.443836	0.193492	0.126	0.7245	-0.186	0	864	142	5
2026-02-12	16:52:29.270	78.68	-108.22	-128.24	0.924516	-0.435296	0.212768	0.1155	0.702	-0.177	0	864	142	5
2026-02-12	16:52:29.290	80.99	-107.905	-142.1	0.957212	-0.409188	0.234728	0.117	0.6945	-0.1725	0	864	142	5
2026-02-12	16:52:29.310	78.715	-107.205	-154.28	1.031876	-0.366732	0.253516	0.117	0.6945	-0.1725	0	864	142	5
2026-02-12	16:52:29.330	72.38	-103.46	-163.135	1.089216	-0.392352	0.274012	0.075	0.624	-0.156	0	864	142	5
2026-02-12	16:52:29.350	70.84	-99.05	-167.93	1.145336	-0.370636	0.2989	0.0555	0.603	-0.135	0	864	142	5
2026-02-12	16:52:29.370	63.63	-92.89	-168.735	1.195356	-0.400404	0.321348	0.0585	0.5865	-0.126	0	864	142	5
2026-02-12	16:52:29.390	57.645	-84.21	-163.205	1.212192	-0.40504	0.372588	0.0435	0.5475	-0.114	0	864	142	5
2026-02-12	16:52:43.410	40.04	-3.99	80.815	0.918172	-0.164212	-0.101748	0.0315	0.6435	0.0375	0	270	144	3
2026-02-12	16:52:43.430	37.38	-5.705	66.99	0.88084	-0.21716	-0.081252	0.048	0.66	0.036	0	270	144	3
2026-02-12	16:52:43.450	40.18	-7.525	50.365	0.876936	-0.242292	-0.027084	0.0435	0.6705	0.0345	0	270	144	3
2026-02-12	16:52:43.470	39.06	-8.26	35	0.909632	-0.287676	0.028304	0.0495	0.672	0.0345	0	270	144	3
2026-02-12	16:52:43.490	34.51	-6.58	22.365	0.924028	-0.31232	0.046116	0.045	0.678	0.0405	0	270	144	3
2026-02-12	16:52:43.510	26.74	-5.425	7.21	0.9089	-0.315004	0.038308	0.0615	0.6855	0.0405	0	270	144	3
2026-02-12	16:52:43.530	20.895	-6.615	-1.75	0.895236	-0.32086	0.036112	0.0615	0.6825	0.0405	0	270	144	3
2026-02-12	16:52:43.550	14.595	-9.87	-10.325	0.885232	-0.337208	0.0488	0.054	0.6825	0.0405	0	270	144	3
2026-02-12	16:52:43.570	11.235	-13.545	-17.92	0.87718	-0.359412	0.065148	0.048	0.6825	0.042	0	270	144	3
2026-02-12	16:52:43.590	11.725	-17.5	-24.36	0.859368	-0.383812	0.085644	0.0465	0.6765	0.045	0	270	144	3
2026-02-12	16:52:43.610	16.485	-21.665	-29.925	0.868884	-0.404064	0.113216	0.051	0.675	0.0465	0	272	123	3
2026-02-12	16:52:43.630	21.665	-24.885	-34.79	0.89914	-0.409188	0.133224	0.0585	0.6765	0.0465	0	272	123	3
2026-02-12	16:52:43.650	26.565	-25.865	-39.025	0.911096	-0.401624	0.13908	0.054	0.678	0.0405	0	272	123	3
2026-02-12	16:52:43.670	30.17	-25.655	-42.875	0.930372	-0.381616	0.135176	0.0465	0.6645	0.054	0	272	123	3
2026-02-12	16:52:43.690	31.22	-24.255	-47.46	0.945012	-0.33184	0.132736	0.0525	0.6585	0.0435	0	272	123	3
2026-02-12	16:52:43.710	28.595	-21.63	-54.67	0.97112	-0.280844	0.124196	0.0435	0.66	0.06	0	272	123	3
2026-02-12	16:52:43.730	16.345	-15.365	-66.92	1.014552	-0.193736	0.0976	0.045	0.648	0.054	0	272	123	3
2026-02-12	16:52:43.750	1.505	-10.22	-76.055	1.023092	-0.156404	0.07808	0.045	0.6405	0.057	0	272	123	3
2026-02-12	16:52:43.770	-16.24	-4.97	-83.405	1.001132	-0.141032	0.07564	0.039	0.6255	0.0585	0	272	123	3
2026-02-12	16:52:43.790	-30.065	-0.84	-89.005	0.998448	-0.150304	0.070516	0.036	0.615	0.054	0	272	123	3
2026-02-12	16:52:43.810	-37.415	4.06	-92.12	0.990152	-0.10614	0.067588	0.033	0.603	0.054	0	271	102	2
2026-02-12	16:52:43.830	-44.31	8.925	-92.925	0.99064	-0.100284	0.057584	0.0285	0.5955	0.0585	0	271	102	2
2026-02-12	16:52:43.850	-47.985	12.635	-92.12	1.035048	-0.101016	0.057096	0.033	0.582	0.0555	0	271	102	2
2026-02-12	16:52:43.870	-50.26	16.135	-90.65	1.083604	-0.110288	0.05734	0.0375	0.5685	0.054	0	271	102	2
2026-02-12	16:52:43.890	-53.585	17.57	-87.71	1.148508	-0.138348	0.047824	0.03	0.5535	0.042	0	271	102	2
2026-02-12	16:52:43.910	-58.24	17.85	-84.35	1.1834	-0.144692	0.057096	0.039	0.537	0.048	0	271	102	2
2026-02-12	16:52:43.930	-66.71	16.625	-77.91	1.045784	-0.152988	0.08295999	0.0285	0.525	0.039	0	271	102	2
2026-02-12	16:52:43.950	-77.42	9.31	-71.855	1.00528	-0.175924	0.106384	0.0345	0.5145	0.039	0	271	102	2
2026-02-12	16:52:43.970	-84.525	0.28	-70.98	1.087264	-0.259616	0.128344	0.039	0.495	0.0375	0	271	102	2
2026-02-12	16:52:43.990	-83.51	-7.21	-72.59	1.116056	-0.355996	0.19154	0.039	0.48	0.0345	0	271	102	2
2026-02-12	16:52:44.010	-75.145	-11.83	-75.845	1.05408	-0.396256	0.263276	0.0405	0.4695	0.0285	0	266	93	3
2026-02-12	16:52:44.030	-61.705	-13.44	-79.94	0.990396	-0.444568	0.312076	0.0465	0.4605	0.0255	0	266	93	3
2026-02-12	16:52:44.050	-45.01	-12.67	-82.67	0.916464	-0.469212	0.331596	0.0525	0.4575	0.027	0	266	93	3
2026-02-12	16:52:44.070	-30.905	-10.43	-83.23	0.8357	-0.430904	0.332328	0.048	0.4515	0.03	0	266	93	3
2026-02-12	16:52:44.090	-23.485	-8.96	-80.92	0.787388	-0.38918	0.327936	0.045	0.4365	0.0345	0	266	93	3
2026-02-12	16:52:44.110	-24.815	-7.28	-77.245	0.775188	-0.349164	0.320616	0.0525	0.429	0.0315	0	266	93	3
2026-02-12	16:52:44.130	-31.815	-5.285	-72.17	0.776164	-0.332572	0.314516	0.06	0.4125	0.039	0	266	93	3
2026-02-12	16:52:44.150	-47.95	-3.885	-62.44	0.764452	-0.326228	0.293288	0.0615	0.3975	0.03	0	266	93	3
2026-02-12	16:52:44.170	-56.77	-4.83	-55.475	0.76616	-0.333304	0.290848	0.0675	0.396	0.024	0	266	93	3
2026-02-12	16:52:44.190	-59.78	-6.65	-48.3	0.78202	-0.353312	0.301828	0.072	0.3885	0.0195	0	266	93	3
2026-02-12	16:52:44.210	-59.955	-8.855	-41.44	0.816668	-0.37576	0.305732	0.0765	0.381	0.0165	0	259	110	3
2026-02-12	16:52:44.230	-57.33	-11.62	-35.56	0.853756	-0.406016	0.312076	0.084	0.375	0.012	0	259	110	3
2026-02-12	16:52:44.250	-51.17	-14.98	-30.415	0.900848	-0.412604	0.302804	0.0855	0.369	0.009	0	259	110	3
2026-02-12	16:52:44.270	-41.335	-18.62	-23.38	0.930128	-0.380396	0.306464	0.087	0.372	0.0195	0	259	110	3
2026-02-12	16:52:44.290	-28.245	-23.66	-14.315	0.999912	-0.355996	0.26718	0.087	0.36	0.0075	0	259	110	3
2026-02-12	16:52:44.310	-3.815	-31.43	-4.76	1.166564	-0.375516	0.247416	0.0855	0.363	0.0165	0	259	110	3
2026-02-12	16:52:44.330	43.015	-40.075	5.81	1.543788	-0.474336	0.224236	0.0885	0.3585	0.018	0	259	110	3
2026-02-12	16:52:44.350	91.63	-38.605	21.245	1.898076	-0.311832	0.2074	0.09	0.363	0.0225	0	259	110	3
2026-02-12	16:52:44.370	95.2	-17.71	50.26	1.736792	0.030744	0.07124799	0.09	0.363	0.0225	0	259	110	3
2026-02-12	16:52:44.390	68.565	-8.855	63.595	1.3969	0.119072	0.060756	0.084	0.366	0.036	0	259	110	3
2026-02-12	16:52:44.410	42.84	-9.835	71.855	1.128012	0.206424	0.134932	0.0765	0.3795	0.0525	0	253	143	3
2026-02-12	16:52:44.430	10.85	-14.98	77.105	0.946964	0.1159	0.205692	0.0765	0.3945	0.0585	0	253	143	3
2026-02-12	16:52:44.450	-7.455	-15.785	79.24	0.870104	-0.004148	0.236192	0.072	0.399	0.057	0	253	143	3
2026-02-12	16:52:44.470	-9.66	-13.16	80.675	0.898652	-0.106872	0.1586	0.069	0.4005	0.0525	0	253	143	3
2026-02-12	16:52:44.490	7.245	-7.7	79.765	0.884256	-0.105896	0.049044	0.069	0.4125	0.066	0	253	143	3
2026-02-12	16:52:44.510	37.485	-4.83	75.25	0.873764	-0.093208	-0.024888	0.069	0.438	0.06	0	253	143	3
2026-02-12	16:52:44.530	63.455	-2.905	72.765	0.912804	-0.104676	-0.036356	0.063	0.435	0.0675	0	253	143	3
2026-02-12	16:52:44.550	78.54	0.175	73.115	0.95038	-0.068564	-0.02684	0.057	0.4485	0.075	0	253	143	3
2026-02-12	16:52:44.570	75.565	5.285	76.44	0.97356	-0.059048	-0.050508	0.057	0.4515	0.081	0	253	143	3
2026-02-12	16:52:44.590	63.14	9.625	80.465	0.999424	-0.058072	-0.075884	0.057	0.4515	0.081	0	253	143	3
2026-02-12	16:52:44.610	51.905	10.64	83.755	1.033584	-0.080276	-0.086376	0.0525	0.474	0.0765	0	253	156	3
2026-02-12	16:52:44.630	46.305	9.555	85.05	1.082628	-0.125416	-0.09076799	0.051	0.4995	0.0735	0	253	156	3
2026-02-12	16:52:44.650	47.985	9.52	85.295	1.104832	-0.192516	-0.09516	0.048	0.513	0.075	0	253	156	3
2026-02-12	16:52:44.670	58.695	9.8	83.72	1.087752	-0.251564	-0.103456	0.0435	0.525	0.075	0	253	156	3
2026-02-12	16:52:44.690	71.925	9.275	81.13	1.048956	-0.271572	-0.111752	0.0465	0.5355	0.066	0	253	156	3
2026-02-12	16:52:44.710	79.275	7.805	77.945	1.037732	-0.299632	-0.11712	0.039	0.5385	0.069	0	253	156	3
2026-02-12	16:52:44.730	84.07	6.055	73.71	1.066768	-0.28182	-0.083692	0.0465	0.5505	0.0675	0	253	156	3
2026-02-12	16:52:44.750	84.07	6.615	68.215	1.061644	-0.2074	-0.066368	0.045	0.5715	0.0675	0	253	156	3
2026-02-12	16:52:44.770	73.605	8.19	64.085	1.021872	-0.200812	-0.069052	0.036	0.5835	0.054	0	253	156	3
2026-02-12	16:52:44.790	55.195	9.31	55.545	0.992592	-0.208132	-0.064904	0.036	0.5895	0.0645	0	253	156	3
2026-02-12	16:52:44.810	36.05	8.96	46.585	0.980636	-0.202032	-0.046604	0.0405	0.6015	0.06	0	254	131	3
2026-02-12	16:52:44.830	22.54	7.77	40.845	0.953308	-0.249368	-0.0366	0.0465	0.615	0.06	0	254	131	3
2026-02-12	16:52:44.850	19.495	5.74	35.175	0.938912	-0.228628	-0.001708	0.048	0.6225	0.0615	0	254	131	3
2026-02-12	16:52:44.870	18.935	5.075	28.525	0.926956	-0.20496	0.03294	0.0495	0.6345	0.0585	0	254	131	3
2026-02-12	16:52:44.890	21.665	5.705	19.705	0.959652	-0.188124	0.022448	0.0495	0.6405	0.057	0	254	131	3
2026-02-12	16:52:44.910	22.015	7.49	8.89	0.975512	-0.111508	0.019032	0.042	0.63	0.0555	0	254	131	3
2026-02-12	16:52:44.930	15.54	9.695	-3.29	0.957212	-0.047824	0.011468	0.048	0.6345	0.048	0	254	131	3
2026-02-12	16:52:44.950	1.855	11.83	-16.45	0.925736	-0.047092	0.000488	0.0495	0.639	0.054	0	254	131	3
2026-02-12	16:52:44.970	-9.485	12.285	-28.735	0.936716	-0.036356	0.011224	0.054	0.6405	0.0495	0	254	131	3
2026-02-12	16:52:44.990	-21.245	13.44	-41.965	0.941108	-0.038308	0.022692	0.054	0.63	0.045	0	254	131	3
2026-02-12	16:52:45.010	-32.655	14.665	-59.395	0.968192	-0.077592	0.033428	0.039	0.6225	0.048	0	252	92	3
2026-02-12	16:52:45.030	-34.545	15.89	-68.775	0.969412	-0.09857599	0.032452	0.0435	0.6165	0.042	0	252	92	3
2026-02-12	16:52:45.050	-32.235	15.085	-76.51	0.982832	-0.117364	0.053436	0.0435	0.6	0.039	0	252	92	3
2026-02-12	16:52:45.070	-28.315	14.21	-81.55	0.993812	-0.1525	0.061976	0.042	0.5865	0.039	0	252	92	3
2026-02-12	16:52:45.090	-22.575	12.145	-85.715	1.043588	-0.174704	0.090036	0.0435	0.5775	0.039	0	252	92	3
2026-02-12	16:52:45.110	-20.02	11.095	-90.23	1.14924	-0.224968	0.114924	0.042	0.573	0.042	0	252	92	3
2026-02-12	16:52:45.130	-23.03	11.655	-95.06	1.250256	-0.268888	0.123952	0.0435	0.5625	0.0315	0	252	92	3
2026-02-12	16:52:45.150	-29.89	14.665	-98.42	1.191696	-0.272792	0.124196	0.0405	0.549	0.0285	0	252	92	3
2026-02-12	16:52:45.170	-40.495	14.77	-98.525	1.075064	-0.26962	0.141764	0.0435	0.531	0.0375	0	252	92	3
2026-02-12	16:52:45.190	-53.62	10.85	-96.67	0.977464	-0.27084	0.178852	0.045	0.5205	0.0345	0	252	92	3
2026-02-12	16:52:45.210	-61.6	3.255	-94.15	0.94306	-0.304268	0.228872	0.036	0.498	0.018	0	247	70	3
2026-02-12	16:52:45.230	-65.31	-8.26	-90.825	0.976	-0.348188	0.32574	0.036	0.498	0.018	0	247	70	3
2026-02-12	16:52:45.250	-66.605	-11.2	-90.055	0.96136	-0.38918	0.379664	0.0435	0.4815	0.018	0	247	70	3
2026-02-12	16:52:45.270	-65.415	-10.71	-89.355	0.902556	-0.417972	0.411872	0.051	0.4575	0.015	0	247	70	3
2026-02-12	16:52:45.290	-59.71	-8.995	-87.675	0.820084	-0.44164	0.397964	0.054	0.4425	0.0165	0	247	70	3
2026-02-12	16:52:45.310	-49.7	-9.1	-84.14	0.766648	-0.427732	0.374784	0.0555	0.4365	0.021	0	247	70	3
2026-02-12	16:52:45.330	-40.32	-10.185	-78.4	0.744688	-0.411628	0.3538	0.0495	0.4305	0.018	0	247	70	3
2026-02-12	16:52:45.350	-30.24	-10.78	-68.6	0.68076	-0.37698	0.380396	0.066	0.4185	0.009	0	247	70	3
2026-02-12	16:52:45.370	-31.08	-11.62	-61.67	0.692472	-0.3416	0.4026	0.0675	0.4065	0.021	0	247	70	3
2026-02-12	16:52:45.390	-31.605	-11.515	-53.375	0.67832	-0.34892	0.416752	0.072	0.393	0.015	0	247	70	3
2026-02-12	16:52:45.410	-32.27	-12.25	-42.245	0.697108	-0.373076	0.399184	0.0765	0.3915	0.018	0	241	90	3
2026-02-12	16:52:45.430	-35.245	-13.58	-32.235	0.771528	-0.35014	0.363072	0.075	0.387	0.021	0	241	90	3
2026-02-12	16:52:45.450	-35.07	-14.945	-24.605	0.832528	-0.319396	0.33794	0.084	0.381	0.0165	0	241	90	3
2026-02-12	16:52:45.470	-33.005	-15.435	-19.04	0.85034	-0.228872	0.309636	0.087	0.3795	0.012	0	241	90	3
2026-02-12	16:52:45.490	-30.415	-19.95	-17.745	0.856928	-0.147376	0.296704	0.084	0.3795	0.009	0	241	90	3
2026-02-12	16:52:45.510	-17.955	-29.225	-19.215	0.922076	-0.214232	0.344528	0.087	0.369	0.0075	0	241	90	3
2026-02-12	16:52:45.530	4.305	-36.225	-18.515	1.225612	-0.323056	0.402112	0.0885	0.3645	0.0075	0	241	90	3
2026-02-12	16:52:45.550	40.95	-34.895	-11.2	1.576972	-0.44042	0.369416	0.096	0.375	0.015	0	241	90	3
2026-02-12	16:52:45.570	72.17	-22.47	-0.14	1.88734	-0.317932	0.264984	0.0885	0.366	0.0165	0	241	90	3
2026-02-12	16:52:45.590	79.765	-4.41	16.66	1.941264	-0.09467199	0.135908	0.09	0.3675	0.0255	0	241	90	3
2026-02-12	16:52:45.610	68.705	10.85	36.715	1.71166	0.056364	0.096868	0.0885	0.3705	0.0315	0	239	139	3
2026-02-12	16:52:45.630	50.855	16.065	56.07	1.383236	0.169824	0.060512	0.084	0.3795	0.0345	0	239	139	3
2026-02-12	16:52:45.650	26.635	6.055	78.715	1.14924	0.283284	0.012444	0.0885	0.3825	0.033	0	239	139	3
2026-02-12	16:52:45.670	13.86	-0.49	83.44	1.129232	0.25864	0.007808	0.081	0.396	0.0345	0	239	139	3
2026-02-12	16:52:45.690	0.84	-0.665	84.665	1.051396	0.264252	-0.000976	0.078	0.4125	0.0375	0	239	139	3
2026-02-12	16:52:45.710	-12.39	0.98	82.565	0.88572	0.218868	-0.024644	0.0765	0.42	0.0375	0	239	139	3
2026-02-12	16:52:45.730	-15.715	-0.91	77.455	0.7564	0.100528	-0.015128	0.072	0.426	0.0345	0	239	139	3
2026-02-12	16:52:45.750	-2.59	-4.69	71.155	0.71492	0.050752	0.00122	0.072	0.438	0.0405	0	239	139	3
2026-02-12	16:52:45.770	19.11	-7.175	64.33	0.740296	0.062708	0.010736	0.0645	0.45	0.0405	0	239	139	3
2026-02-12	16:52:45.790	35.35	-6.86	58.975	0.764696	0.044408	-0.023912	0.0675	0.4575	0.045	0	239	139	3
2026-02-12	16:52:45.810	49.035	-6.125	52.185	0.814228	0.121512	-0.05734	0.057	0.453	0.0405	0	246	163	3
2026-02-12	16:52:45.830	51.31	-6.335	44.205	0.90646	0.080276	-0.054412	0.063	0.4725	0.0435	0	246	163	3
2026-02-12	16:52:45.850	45.535	-6.475	37.695	1.004304	0.042212	-0.030256	0.057	0.4785	0.045	0	246	163	3
2026-02-12	16:52:45.870	32.76	-5.32	30.415	1.06262	-0.037088	-0.016348	0.057	0.4785	0.045	0	246	163	3
2026-02-12	16:52:45.890	32.83	-5.74	27.825	1.047736	-0.072468	-0.013908	0.057	0.4845	0.045	0	246	163	3
2026-02-12	16:52:45.910	35.28	-8.75	26.635	1.041636	-0.135176	-0.010004	0.0585	0.495	0.045	0	246	163	3
2026-02-12	16:52:45.930	39.41	-11.375	26.215	1.054324	-0.187636	-0.001952	0.057	0.4965	0.048	0	246	163	3
2026-02-12	16:52:45.950	43.855	-13.055	27.93	1.066036	-0.21838	0.01098	0.0555	0.495	0.051	0	246	163	3
2026-02-12	16:52:45.970	47.775	-13.405	31.185	1.036756	-0.249612	0.01708	0.057	0.5055	0.0615	0	246	163	3
2026-02-12	16:52:45.990	53.83	-14.49	34.02	1.020652	-0.250588	0.020984	0.057	0.507	0.054	0	246	163	3
2026-02-12	16:52:46.010	59.57	-15.155	36.12	1.007476	-0.258152	0.008296	0.063	0.51	0.063	0	256	147	3
2026-02-12	16:52:46.030	64.68	-15.61	36.61	0.997228	-0.248636	0.009516	0.054	0.513	0.066	0	256	147	3
2026-02-12	16:52:46.050	66.01	-15.4	36.645	0.964044	-0.252296	0.018544	0.054	0.5235	0.0675	0	256	147	3
2026-02-12	16:52:46.070	63.63	-14.28	34.93	0.943548	-0.260836	0.03782	0.057	0.531	0.069	0	256	147	3
2026-02-12	16:52:46.090	58.59	-12.215	31.5	0.93574	-0.27206	0.057584	0.051	0.5325	0.0735	0	256	147	3
2026-02-12	16:52:46.110	55.09	-9.87	27.09	0.926956	-0.28548	0.08784	0.0525	0.54	0.0765	0	256	147	3
2026-02-12	16:52:46.130	52.885	-6.965	21.98	0.935984	-0.30134	0.102236	0.06	0.546	0.075	0	256	147	3
2026-02-12	16:52:46.150	51.31	-3.255	15.33	0.964288	-0.299388	0.106872	0.06	0.5475	0.078	0	256	147	3
2026-02-12	16:52:46.170	47.005	1.33	8.75	0.970144	-0.303048	0.106628	0.054	0.5445	0.081	0	256	147	3
2026-02-12	16:52:46.190	43.925	5.6	2.87	0.970876	-0.290604	0.107848	0.0495	0.5505	0.0705	0	256	147	3
2026-02-12	16:52:46.210	41.65	8.82	-2.45	0.9882	-0.283528	0.11346	0.0555	0.5595	0.0735	0	264	118	3
2026-02-12	16:52:46.230	39.515	11.69	-7	1.001376	-0.27084	0.131516	0.0675	0.5535	0.0735	0	264	118	3
2026-02-12	16:52:46.250	33.88	13.405	-10.325	0.963556	-0.264984	0.1647	0.051	0.5595	0.066	0	264	118	3
2026-02-12	16:52:46.270	30.38	12.215	-13.125	0.909388	-0.303536	0.219356	0.0555	0.5595	0.075	0	264	118	3
2026-02-12	16:52:46.290	35.35	9.625	-16.45	0.99674	-0.322324	0.291336	0.0555	0.552	0.066	0	264	118	3
2026-02-12	16:52:46.310	38.185	16.17	-17.57	1.046516	-0.2379	0.271328	0.057	0.5565	0.063	0	264	118	3
2026-02-12	16:52:46.330	28.665	25.375	-20.23	1.015284	-0.160064	0.185196	0.0585	0.555	0.06	0	264	118	3
2026-02-12	16:52:46.350	11.13	32.725	-26.04	0.99674	-0.105408	0.11834	0.0645	0.546	0.0615	0	264	118	3
2026-02-12	16:52:46.370	-8.19	38.01	-31.605	0.984296	-0.109312	0.085644	0.0705	0.5445	0.0615	0	264	118	3
2026-02-12	16:52:46.390	-21.77	40.88	-33.46	0.973072	-0.103456	0.074176	0.0555	0.543	0.0555	0	264	118	3
2026-02-12	16:52:46.410	-26.775	42.35	-32.725	0.940132	-0.081008	0.034404	0.0555	0.5265	0.0525	0	265	105	3
2026-02-12	16:52:46.430	-27.755	42.595	-32.515	0.9333	-0.037088	0.000488	0.0615	0.5325	0.0495	0	265	105	3
2026-02-12	16:52:46.450	-29.365	42.07	-32.935	0.986492	-0.038552	-0.026108	0.0585	0.528	0.042	0	265	105	3
2026-02-12	16:52:46.470	-32.585	41.825	-35	1.063108	-0.038064	-0.048312	0.0615	0.516	0.039	0	265	105	3
2026-02-12	16:52:46.490	-40.215	40.81	-37.94	1.177056	-0.0427	-0.071492	0.0705	0.5175	0.036	0	265	105	3
2026-02-12	16:52:46.510	-54.39	35.035	-40.46	1.078724	-0.08418	-0.017568	0.063	0.51	0.024	0	265	105	3
2026-02-12	16:52:46.530	-62.72	24.465	-35.07	0.915976	-0.063928	0.04514	0.0615	0.4995	0.0165	0	265	105	3
2026-02-12	16:52:46.550	-68.075	9.135	-29.365	0.8662	-0.07564	0.078568	0.0615	0.495	0.0045	0	265	105	3
2026-02-12	16:52:46.570	-67.585	-7.63	-25.13	0.874252	-0.107848	0.153476	0.063	0.501	0.0015	0	265	105	3
2026-02-12	16:52:46.590	-62.65	-20.16	-24.78	0.906948	-0.196176	0.26596	0.054	0.4935	0.003	0	265	105	3
2026-02-12	16:52:46.610	-50.855	-26.425	-28.945	0.9394	-0.29158	0.335012	0.0735	0.4905	0.0045	0	261	101	2
2026-02-12	16:52:46.630	-33.18	-29.085	-35.105	0.916464	-0.327448	0.3721	0.0705	0.486	0.0075	0	261	101	2
2026-02-12	16:52:46.650	-13.895	-29.715	-41.475	0.843264	-0.319396	0.40382	0.063	0.483	0.009	0	261	101	2
2026-02-12	16:52:46.670	0.42	-29.785	-45.675	0.727364	-0.254736	0.426756	0.078	0.4755	0.009	0	261	101	2
2026-02-12	16:52:46.690	9.03	-31.185	-45.15	0.734684	-0.271572	0.450424	0.072	0.468	0.0165	0	261	101	2
2026-02-12	16:52:46.710	-5.88	-26.32	-42.105	0.728584	-0.192272	0.488	0.075	0.4665	0.0225	0	261	101	2
2026-02-12	16:52:46.730	-17.43	-25.62	-39.2	0.66368	-0.220332	0.480924	0.069	0.459	0.0255	0	261	101	2
2026-02-12	16:52:46.750	-26.6	-26.95	-38.465	0.719312	-0.221308	0.46482	0.066	0.4515	0.0315	0	261	101	2
2026-02-12	16:52:46.770	-30.1	-26.18	-35.7	0.714432	-0.264984	0.449204	0.075	0.447	0.033	0	261	101	2
2026-02-12	16:52:46.790	-29.155	-26.915	-33.6	0.749324	-0.263276	0.4392	0.081	0.4455	0.033	0	261	101	2
2026-02-12	16:52:46.810	-28.875	-27.125	-32.375	0.790316	-0.274012	0.407236	0.078	0.4395	0.0315	0	256	127	2
2026-02-12	16:52:46.830	-25.235	-28.035	-30.415	0.843752	-0.28182	0.390888	0.0795	0.435	0.033	0	256	127	2
2026-02-12	16:52:46.850	-20.335	-28.735	-25.83	0.909876	-0.256444	0.366	0.087	0.432	0.0375	0	256	127	2
2026-02-12	16:52:46.870	-17.43	-29.925	-18.97	0.978928	-0.256444	0.302072	0.087	0.4275	0.0435	0	256	127	2
2026-02-12	16:52:46.890	-6.545	-36.82	-14	1.201212	-0.280112	0.268888	0.081	0.4245	0.045	0	256	127	2
2026-02-12	16:52:46.910	17.115	-42.945	-11.69	1.530368	-0.312564	0.2867	0.099	0.4215	0.0525	0	256	127	2
2026-02-12	16:52:46.930	46.06	-30.66	-4.445	1.829512	-0.25986	0.279868	0.1035	0.42	0.057	0	256	127	2
2026-02-12	16:52:46.950	44.835	-12.075	4.55	1.761436	-0.136396	0.196664	0.0975	0.42	0.0615	0	256	127	2
2026-02-12	16:52:46.970	27.09	4.06	15.785	1.571116	-0.016592	0.099552	0.0945	0.423	0.066	0	256	127	2
2026-02-12	16:52:46.990	-1.925	12.32	27.965	1.329312	0.065392	0.047092	0.0975	0.4215	0.066	0	256	127	2
2026-02-12	16:52:47.010	-25.06	11.655	39.585	1.058716	0.163968	0.020984	0.0975	0.417	0.066	0	254	171	3
2026-02-12	16:52:47.030	-36.89	2.975	45.71	0.898896	0.111508	0.04514	0.087	0.4245	0.0615	0	254	171	3
2026-02-12	16:52:47.050	-33.81	-6.685	48.265	0.845216	-0.007808	0.068808	0.0945	0.438	0.057	0	254	171	3
2026-02-12	16:52:47.070	-18.97	-10.605	49.14	0.810568	-0.081984	0.08418	0.084	0.435	0.0705	0	254	171	3
2026-02-12	16:52:47.090	0.525	-9.1	47.88	0.786656	-0.083692	0.07442	0.0855	0.444	0.0615	0	254	171	3
2026-02-12	16:52:47.110	21.42	-5.88	44.065	0.765672	-0.057828	0.050264	0.0855	0.438	0.0615	0	254	171	3
2026-02-12	16:52:47.130	39.41	-4.13	39.865	0.769576	-0.049044	0.039528	0.0795	0.4545	0.0645	0	254	171	3
2026-02-12	16:52:47.150	49.14	-1.19	34.02	0.830332	-0.05124	0.039772	0.0795	0.4545	0.0645	0	254	171	3
2026-02-12	16:52:47.170	47.565	0.77	31.15	0.903776	-0.086132	0.05002	0.0795	0.459	0.0705	0	254	171	3
2026-02-12	16:52:47.190	45.78	2.205	30.135	0.965264	-0.122488	0.06344	0.081	0.471	0.0765	0	254	171	3
2026-02-12	16:52:47.210	45.99	3.185	30.975	0.988932	-0.163724	0.0671	0.0825	0.477	0.0765	0	256	186	3
2026-02-12	16:52:47.230	47.6	4.025	32.515	1.00284	-0.217892	0.061976	0.081	0.4695	0.072	0	256	186	3
2026-02-12	16:52:47.250	52.325	4.795	34.37	1.013576	-0.23302	0.051972	0.0825	0.4755	0.0825	0	256	186	3
2026-02-12	16:52:47.270	56.455	5.985	36.015	1.030412	-0.22082	0.03538	0.084	0.4845	0.0855	0	256	186	3
2026-02-12	16:52:47.290	57.89	6.86	36.715	1.031144	-0.221796	0.041724	0.0795	0.501	0.0765	0	256	186	3
2026-02-12	16:52:47.310	57.89	8.19	37.205	1.004548	-0.2257	0.046604	0.078	0.4965	0.075	0	256	186	3
2026-02-12	16:52:47.330	55.23	9.24	36.89	1.003816	-0.23546	0.036844	0.0855	0.4965	0.075	0	256	186	3
2026-02-12	16:52:47.350	49.105	10.5	36.26	0.992104	-0.266936	0.01708	0.0735	0.5055	0.0855	0	256	186	3
2026-02-12	16:52:47.370	45.99	11.445	35.84	0.971852	-0.30012	0.00976	0.0735	0.5085	0.0885	0	256	186	3
2026-02-12	16:52:47.390	48.055	11.025	36.05	0.969412	-0.322568	0.017812	0.075	0.519	0.087	0	256	186	3
2026-02-12	16:52:47.410	50.96	10.64	36.61	0.969412	-0.327448	0.022692	0.075	0.5265	0.084	0	258	169	3
2026-02-12	16:52:47.430	51.59	10.675	35.56	1.009916	-0.33184	0.041236	0.0705	0.522	0.087	0	258	169	3
2026-02-12	16:52:47.450	48.055	13.51	34.02	1.026752	-0.302804	0.05002	0.0705	0.534	0.0825	0	258	169	3
2026-02-12	16:52:47.470	38.605	16.94	32.55	1.011624	-0.289628	0.040748	0.0705	0.5385	0.087	0	258	169	3
2026-02-12	16:52:47.490	28.385	18.515	31.01	1.004304	-0.29524	0.03904	0.075	0.5445	0.0855	0	258	169	3
2026-02-12	16:52:47.510	20.265	18.83	28.91	0.995764	-0.302804	0.050264	0.072	0.5565	0.081	0	258	169	3
2026-02-12	16:52:47.530	14.455	17.675	26.495	0.99308	-0.322568	0.062464	0.078	0.5595	0.075	0	258	169	3
2026-02-12	16:52:47.550	12.74	15.89	24.115	0.989664	-0.311588	0.070028	0.0705	0.558	0.0795	0	258	169	3
2026-02-12	16:52:47.570	10.045	12.95	19.67	0.959408	-0.288896	0.072468	0.078	0.567	0.072	0	258	169	3
2026-02-12	16:52:47.590	6.685	9.8	16.695	0.93818	-0.259616	0.06832	0.072	0.5685	0.0735	0	258	169	3
2026-02-12	16:52:47.610	4.515	5.285	12.775	0.933788	-0.242048	0.077104	0.069	0.5745	0.072	0	257	140	3
2026-02-12	16:52:47.630	3.92	0.735	7.385	0.981124	-0.20984	0.111996	0.072	0.579	0.069	0	257	140	3
2026-02-12	16:52:47.650	4.2	-1.295	0.14	1.005036	-0.14152	0.13176	0.0765	0.582	0.075	0	257	140	3
2026-02-12	16:52:47.670	0.77	-1.225	-10.465	1.00162	-0.05368	0.105896	0.0735	0.5865	0.072	0	257	140	3
2026-02-12	16:52:47.690	-6.09	-1.505	-24.5	1.044076	0.007564	0.109556	0.072	0.5775	0.072	0	257	140	3
2026-02-12	16:52:47.710	-15.05	0.35	-37.205	1.054324	0.043432	0.13176	0.0735	0.573	0.072	0	257	140	3
2026-02-12	16:52:47.730	-24.92	3.92	-48.37	1.054324	0.020496	0.121268	0.0765	0.564	0.0735	0	257	140	3
2026-02-12	16:52:47.750	-28.91	8.05	-54.39	1.033584	0.035624	0.0915	0.078	0.5655	0.0735	0	257	140	3
2026-02-12	16:52:47.770	-32.865	12.6	-56.7	1.003816	0.109068	0.050752	0.072	0.5595	0.075	0	257	140	3
2026-02-12	16:52:47.790	-51.975	19.495	-61.285	1.051884	0.194468	-0.022692	0.072	0.5595	0.075	0	257	140	3
2026-02-12	16:52:47.810	-74.2	21.21	-66.605	1.220732	0.152744	-0.08295999	0.069	0.5445	0.0705	0	251	116	3
2026-02-12	16:52:47.830	-96.635	19.32	-76.44	1.414224	0.006588	-0.077836	0.066	0.5295	0.066	0	251	116	3
2026-02-12	16:52:47.850	-106.26	16.555	-84.035	1.2871	-0.085888	0.001708	0.0705	0.522	0.054	0	251	116	3
2026-02-12	16:52:47.870	-108.08	10.815	-86.17	0.976488	-0.147376	0.054656	0.066	0.5025	0.0525	0	251	116	3
2026-02-12	16:52:47.890	-104.86	-1.33	-84.84	0.8235	-0.186416	0.06222	0.069	0.4905	0.0465	0	251	116	3
2026-02-12	16:52:47.910	-92.645	-18.515	-82.32	0.794464	-0.209596	0.09882	0.0825	0.48	0.0465	0	251	116	3
2026-02-12	16:52:47.930	-73.465	-35.28	-81.2	0.860832	-0.260104	0.24522	0.075	0.4695	0.042	0	251	116	3
2026-02-12	16:52:47.950	-54.775	-42.385	-81.55	0.901336	-0.357704	0.401624	0.084	0.4545	0.0465	0	251	116	3
2026-02-12	16:52:47.970	-39.235	-39.025	-84.035	0.87962	-0.3904	0.457256	0.09	0.444	0.0555	0	251	116	3
2026-02-12	16:52:47.990	-31.045	-29.96	-90.055	0.818132	-0.355996	0.40382	0.0915	0.4425	0.0585	0	251	116	3
2026-02-12	16:52:48.010	-35.42	-23.03	-97.65	0.787632	-0.315492	0.365024	0.0945	0.4275	0.06	0	245	107	3
2026-02-12	16:52:48.030	-47.67	-19.53	-102.48	0.810324	-0.310368	0.394548	0.099	0.408	0.06	0	245	107	3
2026-02-12	16:52:48.050	-67.13	-15.82	-103.53	0.83326	-0.324276	0.432612	0.102	0.4035	0.0585	0	245	107	3
2026-02-12	16:52:48.070	-89.74	-12.355	-101.57	0.862052	-0.35014	0.432368	0.1095	0.3885	0.0585	0	245	107	3
2026-02-12	16:52:48.090	-107.52	-7.945	-96.53	0.854244	-0.419192	0.399672	0.114	0.3735	0.051	0	245	107	3
2026-02-12	16:52:48.110	-108.815	-8.68	-87.395	0.883768	-0.457256	0.35746	0.1275	0.3705	0.042	0	245	107	3
2026-02-12	16:52:48.130	-97.51	-11.585	-76.79	0.892064	-0.47824	0.343796	0.135	0.3495	0.0375	0	245	107	3
2026-02-12	16:52:48.150	-78.155	-14.105	-62.37	0.861808	-0.467016	0.345504	0.135	0.339	0.027	0	245	107	3
2026-02-12	16:52:48.170	-57.365	-18.795	-47.67	0.84546	-0.378932	0.321104	0.1455	0.3405	0.0195	0	245	107	3
2026-02-12	16:52:48.190	-39.515	-25.305	-33.6	0.903288	-0.3294	0.291092	0.1455	0.339	0.0255	0	245	107	3
2026-02-12	16:52:48.210	3.675	-35.63	-20.965	1.21634	-0.436028	0.353556	0.162	0.3315	0.021	0	243	135	3
2026-02-12	16:52:48.230	67.83	-36.68	-7.805	1.708488	-0.41846	0.288408	0.1575	0.33	0.0285	0	243	135	3
2026-02-12	16:52:48.250	93.73	-24.115	7.945	1.934676	-0.174948	0.19032	0.153	0.3285	0.042	0	243	135	3
2026-02-12	16:52:48.270	87.325	-6.615	28.42	1.747528	0.104432	0.132248	0.1515	0.327	0.0495	0	243	135	3
2026-02-12	16:52:48.290	49.595	5.355	50.995	1.391044	0.269132	0.105652	0.162	0.3315	0.06	0	243	135	3
2026-02-12	16:52:48.310	1.82	4.48	71.715	1.09068	0.291092	0.142008	0.159	0.3405	0.0645	0	243	135	3
2026-02-12	16:52:48.330	-28.245	-1.505	86.275	0.996008	0.224724	0.153232	0.1515	0.351	0.063	0	243	135	3
2026-02-12	16:52:48.350	-38.815	-3.85	92.855	1.031632	0.073444	0.099064	0.1395	0.357	0.051	0	243	135	3
2026-02-12	16:52:48.370	-28.42	-1.4	93.94	1.055788	0.000976	0.016836	0.1395	0.3735	0.048	0	243	135	3
2026-02-12	16:52:48.390	-8.365	4.2	89.67	0.986004	0.015372	-0.047092	0.126	0.3705	0.0495	0	243	135	3
2026-02-12	16:52:48.410	14.42	5.88	83.44	0.892064	0.026108	-0.039528	0.1335	0.384	0.0435	0	247	165	3
2026-02-12	16:52:48.430	46.06	0.945	77.245	0.815936	0.055388	-0.00366	0.123	0.399	0.0435	0	247	165	3
2026-02-12	16:52:48.450	56.7	-2.31	75.46	0.818864	0.069784	-0.035868	0.1185	0.4065	0.048	0	247	165	3
2026-02-12	16:52:48.470	61.81	-3.92	73.815	0.850584	0.111752	-0.069784	0.114	0.414	0.0525	0	247	165	3
2026-02-12	16:52:48.490	59.01	-3.255	71.435	0.933056	0.074176	-0.064904	0.1125	0.429	0.0525	0	247	165	3
2026-02-12	16:52:48.510	51.24	0.875	69.125	1.002108	0.016836	-0.044408	0.111	0.4365	0.048	0	247	165	3
2026-02-12	16:52:48.530	41.23	5.845	69.545	1.050664	-0.020496	-0.037576	0.1185	0.438	0.0585	0	247	165	3
2026-02-12	16:52:48.550	36.47	9.835	70.105	1.054568	-0.0427	-0.040016	0.1035	0.441	0.063	0	247	165	3
2026-02-12	16:52:48.570	37.555	10.78	69.09	1.080676	-0.05856	-0.027816	0.1065	0.4665	0.0585	0	247	165	3
2026-02-12	16:52:48.590	35.875	10.885	68.005	1.139968	-0.100528	-0.011224	0.099	0.465	0.063	0	247	165	3
2026-02-12	16:52:48.610	32.55	12.845	67.48	1.166564	-0.138592	0.015616	0.096	0.465	0.0555	0	256	159	3
2026-02-12	16:52:48.630	28.14	16.625	69.51	1.133868	-0.162992	0.020252	0.102	0.48	0.0585	0	256	159	3
2026-02-12	16:52:48.650	26.705	19.075	70.875	1.08702	-0.170312	0.009272	0.102	0.48	0.0585	0	256	159	3
2026-02-12	16:52:48.670	25.83	18.095	69.335	1.048712	-0.192028	0.008784	0.0975	0.489	0.057	0	256	159	3
2026-02-12	16:52:48.690	24.605	16.695	64.715	1.009916	-0.223748	0.02806	0.093	0.498	0.057	0	256	159	3
2026-02-12	16:52:48.710	24.675	14.595	58.695	0.962824	-0.249368	0.045384	0.087	0.507	0.051	0	256	159	3
2026-02-12	16:52:48.730	28.035	11.725	50.995	0.958676	-0.266204	0.041236	0.0915	0.51	0.057	0	256	159	3
2026-02-12	16:52:48.750	36.12	10.5	42.63	0.945256	-0.278892	0.038552	0.0915	0.5295	0.048	0	256	159	3
2026-02-12	16:52:48.770	45.605	10.465	33.565	0.931104	-0.2684	0.044408	0.0885	0.5265	0.045	0	256	159	3
2026-02-12	16:52:48.790	51.065	10.605	23.66	0.925736	-0.235948	0.060756	0.0945	0.543	0.0495	0	256	159	3
2026-02-12	16:52:48.810	50.015	10.605	13.265	0.958676	-0.213744	0.08052	0.0855	0.537	0.054	0	262	130	3
2026-02-12	16:52:48.830	46.305	12.215	5.25	0.991128	-0.192516	0.100528	0.084	0.543	0.0465	0	262	130	3
2026-02-12	16:52:48.850	34.475	17.535	-1.435	0.971364	-0.116876	0.081984	0.093	0.5385	0.0465	0	262	130	3
2026-02-12	16:52:48.870	14.84	21.875	-7.385	0.955016	-0.065148	0.0488	0.09	0.5385	0.0495	0	262	130	3
2026-02-12	16:52:48.890	-1.715	24.745	-12.775	0.951844	-0.02562	0.03172	0.087	0.5385	0.0525	0	262	130	3
2026-02-12	16:52:48.910	-22.225	27.65	-18.9	0.955748	-0.026596	0.029768	0.1005	0.549	0.0375	0	262	130	3
2026-02-12	16:52:48.930	-42.07	29.82	-25.515	0.937204	-0.039528	0.039772	0.0855	0.537	0.0405	0	262	130	3
2026-02-12	16:52:48.950	-57.855	30.38	-31.29	0.926468	-0.100528	0.044896	0.087	0.531	0.036	0	262	130	3
2026-02-12	16:52:48.970	-61.32	29.26	-35.455	0.899628	-0.159088	0.04636	0.0885	0.5265	0.0345	0	262	130	3
2026-02-12	16:52:48.990	-52.115	26.355	-38.045	0.881328	-0.198372	0.071492	0.093	0.534	0.027	0	262	130	3
2026-02-12	16:52:49.010	-36.575	22.54	-40.46	0.93086	-0.240584	0.09516	0.0855	0.525	0.027	0	263	103	3
2026-02-12	16:52:49.030	-22.225	20.125	-43.505	0.999668	-0.265716	0.12566	0.0885	0.513	0.0195	0	263	103	3
2026-02-12	16:52:49.050	-15.26	19.145	-48.16	1.085068	-0.254736	0.136396	0.0915	0.51	0.0195	0	263	103	3
2026-02-12	16:52:49.070	-30.45	16.975	-57.12	1.06872	-0.244976	0.158112	0.0915	0.498	0.021	0	263	103	3
2026-02-12	16:52:49.090	-49.14	10.57	-61.285	0.973072	-0.249612	0.209352	0.0915	0.4905	0.015	0	263	103	3
2026-02-12	16:52:49.110	-66.43	0.805	-63.56	0.91744	-0.322568	0.267424	0.0915	0.4845	0.009	0	263	103	3
2026-02-12	16:52:49.130	-74.13	-8.96	-64.96	0.879864	-0.39284	0.325984	0.096	0.4785	0.0045	0	263	103	3
2026-02-12	16:52:49.150	-68.355	-16.485	-67.305	0.877668	-0.456524	0.386252	0.093	0.4725	0.009	0	263	103	3
2026-02-12	16:52:49.170	-51.835	-19.495	-71.12	0.860588	-0.51118	0.433588	0.0975	0.4635	0.006	0	263	103	3
2026-02-12	16:52:49.190	-29.015	-19.32	-74.235	0.845216	-0.508008	0.450424	0.096	0.4575	0.0015	0	263	103	3
2026-02-12	16:52:49.210	-6.65	-18.62	-74.2	0.833504	-0.44896	0.458964	0.0975	0.4545	0.0105	0	259	102	3
2026-02-12	16:52:49.230	-1.715	-13.23	-70.98	0.737856	-0.418216	0.424316	0.105	0.4365	0.012	0	259	102	3
2026-02-12	16:52:49.250	3.43	-13.755	-63.455	0.705404	-0.309636	0.424072	0.1035	0.4335	0.0135	0	259	102	3
2026-02-12	16:52:49.270	-7.035	-14.77	-52.99	0.651724	-0.30134	0.437736	0.1095	0.4215	0.015	0	259	102	3
2026-02-12	16:52:49.290	-20.965	-17.5	-44.765	0.6771	-0.333792	0.437492	0.1095	0.4215	0.015	0	259	102	3
2026-02-12	16:52:49.310	-25.445	-18.935	-40.285	0.729072	-0.376492	0.421876	0.1095	0.4215	0.015	0	259	102	3
2026-02-12	16:52:49.330	-24.22	-19.25	-37.135	0.790804	-0.386984	0.391376	0.105	0.411	0.012	0	259	102	3
2026-02-12	16:52:49.350	-20.44	-19.11	-33.915	0.864736	-0.384056	0.335012	0.1125	0.3945	0.0135	0	259	102	3
2026-02-12	16:52:49.370	-16.87	-20.44	-28	0.994544	-0.382592	0.267912	0.1155	0.3945	0.0165	0	259	102	3
2026-02-12	16:52:49.390	-15.12	-23.975	-19.285	1.206336	-0.389912	0.206912	0.12	0.393	0.015	0	259	102	3
2026-02-12	16:52:49.410	-11.165	-29.05	-6.86	1.477908	-0.426268	0.147132	0.117	0.3915	0.015	0	255	139	3
2026-02-12	16:52:49.430	-8.085	-33.285	6.335	1.654564	-0.429196	0.08906	0.1245	0.396	0.0225	0	255	139	3
2026-02-12	16:52:49.450	-3.115	-34.09	22.61	1.619184	-0.3904	0.040016	0.1215	0.3915	0.024	0	255	139	3
2026-02-12	16:52:49.470	14.735	-37.765	37.66	1.478152	-0.271816	0.056608	0.1215	0.393	0.0255	0	255	139	3
2026-02-12	16:52:49.490	36.12	-36.89	48.405	1.30784	-0.068564	0.112972	0.123	0.3975	0.0345	0	255	139	3
2026-02-12	16:52:49.510	51.555	-33.005	52.64	1.154608	0.0427	0.183	0.12	0.405	0.0405	0	255	139	3
2026-02-12	16:52:49.530	51.87	-32.095	53.795	1.068476	0.012688	0.202764	0.117	0.414	0.048	0	255	139	3
2026-02-12	16:52:49.550	40.215	-26.25	51.835	1.026996	-0.0366	0.196908	0.108	0.411	0.0555	0	255	139	3
2026-02-12	16:52:49.570	19.495	-16.17	49.385	0.951112	-0.063196	0.137372	0.102	0.4215	0.0645	0	255	139	3
2026-02-12	16:52:49.590	1.365	-6.545	47.705	0.86986	-0.087352	0.05856	0.1035	0.423	0.0705	0	255	139	3
2026-02-12	16:52:49.610	-4.76	-1.505	45.64	0.795196	-0.105652	0.010248	0.1005	0.429	0.0675	0	255	170	3
2026-02-12	16:52:49.630	1.785	-1.75	44.59	0.767136	-0.146156	0.012444	0.102	0.441	0.066	0	255	170	3
2026-02-12	16:52:49.650	17.325	-4.55	46.165	0.7869	-0.1647	0.027084	0.0945	0.45	0.0675	0	255	170	3
2026-02-12	16:52:49.670	34.44	-6.335	48.475	0.817644	-0.177632	0.01342	0.0915	0.4485	0.081	0	255	170	3
2026-02-12	16:52:49.690	49.455	-6.825	50.68	0.843996	-0.171288	-0.010492	0.087	0.456	0.0705	0	255	170	3
2026-02-12	16:52:49.710	59.15	-5.075	51.975	0.923052	-0.164456	-0.026108	0.093	0.471	0.075	0	255	170	3
2026-02-12	16:52:49.730	55.44	-1.82	51.275	0.989664	-0.18544	-0.02928	0.093	0.471	0.075	0	255	170	3
2026-02-12	16:52:49.750	47.6	3.185	49.875	1.022848	-0.199348	-0.044408	0.078	0.486	0.084	0	255	170	3
2026-02-12	16:52:49.770	36.82	7.63	48.51	1.0309	-0.20618	-0.060268	0.081	0.492	0.09	0	255	170	3
2026-02-12	16:52:49.790	26.67	10.675	47.495	1.007964	-0.23058	-0.06954	0.0825	0.4965	0.0825	0	255	170	3
2026-02-12	16:52:49.810	19.11	11.62	46.165	0.98088	-0.25742	-0.077836	0.072	0.5025	0.093	0	258	165	3
2026-02-12	16:52:49.830	13.37	10.36	44.24	0.97112	-0.27938	-0.070516	0.075	0.51	0.084	0	258	165	3
2026-02-12	16:52:49.850	9.45	7.525	42.14	0.964776	-0.310368	-0.073444	0.075	0.5175	0.09	0	258	165	3
2026-02-12	16:52:49.870	9.73	3.99	38.885	0.952088	-0.35746	-0.06832	0.0645	0.5265	0.081	0	258	165	3
2026-02-12	16:52:49.890	19.88	0.105	33.635	0.939156	-0.342088	-0.048312	0.0705	0.531	0.081	0	258	165	3
2026-02-12	16:52:49.910	30.905	-2.625	25.165	0.91134	-0.334036	-0.016592	0.072	0.5325	0.0825	0	258	165	3
2026-02-12	16:52:49.930	41.72	-5.39	17.395	0.918904	-0.344772	0.002928	0.072	0.5325	0.0825	0	258	165	3
2026-02-12	16:52:49.950	47.88	-6.195	11.445	0.935008	-0.339404	0.014152	0.0705	0.5445	0.087	0	258	165	3
2026-02-12	16:52:49.970	51.415	-6.895	5.88	0.923296	-0.339892	0.020984	0.069	0.5445	0.093	0	258	165	3
2026-02-12	16:52:49.990	50.435	-7.56	2.065	0.908412	-0.355508	0.032696	0.072	0.5505	0.084	0	258	165	3
2026-02-12	16:52:50.010	49.105	-7.315	-1.26	0.922564	-0.343796	0.058804	0.075	0.5535	0.081	0	259	131	2
2026-02-12	16:52:50.030	45.36	-4.165	-3.535	0.95282	-0.319396	0.084424	0.069	0.5595	0.0975	0	259	131	2
2026-02-12	16:52:50.050	35.035	2.415	-4.76	1.000888	-0.243268	0.092476	0.0645	0.564	0.0945	0	259	131	2
2026-02-12	16:52:50.070	15.785	11.585	-7.42	1.037244	-0.119316	0.091012	0.072	0.558	0.0885	0	259	131	2
2026-02-12	16:52:50.090	-13.58	19.67	-10.71	1.05286	-0.066612	0.074664	0.081	0.5655	0.09	0	259	131	2
2026-02-12	16:52:50.110	-40.74	23.975	-13.545	1.000156	-0.099308	0.0793	0.0675	0.5535	0.09	0	259	131	2
2026-02-12	16:52:50.130	-53.41	24.955	-18.34	0.984052	-0.125416	0.114192	0.06	0.5535	0.0825	0	259	131	2
2026-02-12	16:52:50.150	-52.185	26.18	-24.5	1.02724	-0.12444	0.098332	0.06	0.5535	0.0825	0	259	131	2
2026-02-12	16:52:50.170	-39.48	26.915	-28.245	1.065792	-0.148352	0.077836	0.0615	0.555	0.0825	0	259	131	2
2026-02-12	16:52:50.190	-18.795	26.74	-32.41	1.103368	-0.16104	0.078324	0.069	0.5475	0.069	0	259	131	2
2026-02-12	16:52:50.210	-0.42	27.3	-38.43	1.097756	-0.122244	0.101992	0.0735	0.5385	0.0765	0	256	101	3
2026-02-12	16:52:50.230	5.95	26.075	-48.825	1.133624	-0.141276	0.08662	0.072	0.534	0.0705	0	256	101	3
2026-02-12	16:52:50.250	9.555	24.43	-61.355	1.083848	-0.127368	0.121512	0.06	0.531	0.057	0	256	101	3
2026-02-12	16:52:50.270	4.655	23.59	-69.02	0.966728	-0.111752	0.157136	0.066	0.519	0.0555	0	256	101	3
2026-02-12	16:52:50.290	-9.52	23.1	-71.365	0.842288	-0.1159	0.156404	0.072	0.519	0.0585	0	256	101	3
2026-02-12	16:52:50.310	-25.48	20.405	-69.615	0.840092	-0.147864	0.128588	0.0735	0.504	0.0555	0	256	101	3
2026-02-12	16:52:50.330	-38.85	14.49	-67.41	0.934032	-0.168604	0.11956	0.0735	0.492	0.051	0	256	101	3
2026-02-12	16:52:50.350	-52.85	5.145	-65.1	1.016992	-0.269132	0.173728	0.078	0.489	0.045	0	256	101	3
2026-02-12	16:52:50.370	-54.67	-0.98	-64.855	0.962336	-0.317688	0.248636	0.0675	0.471	0.0435	0	256	101	3
2026-02-12	16:52:50.390	-53.165	-7.525	-64.645	0.908412	-0.365756	0.307928	0.0765	0.4695	0.048	0	256	101	3
2026-02-12	16:52:50.410	-48.23	-11.13	-63.56	0.845216	-0.404308	0.369416	0.069	0.462	0.0435	0	249	93	3
2026-02-12	16:52:50.430	-42.7	-10.675	-60.795	0.805932	-0.39406	0.39406	0.084	0.4455	0.033	0	249	93	3
2026-02-12	16:52:50.450	-41.475	-7	-57.12	0.772504	-0.372344	0.371368	0.081	0.435	0.0435	0	249	93	3
2026-02-12	16:52:50.470	-43.54	-3.08	-53.655	0.741516	-0.3599	0.336476	0.0885	0.4335	0.0435	0	249	93	3
2026-02-12	16:52:50.490	-47.005	-0.875	-50.575	0.742248	-0.343552	0.30988	0.0885	0.423	0.039	0	249	93	3
2026-02-12	16:52:50.510	-48.335	-0.07	-47.985	0.750056	-0.29646	0.294508	0.093	0.417	0.033	0	249	93	3
2026-02-12	16:52:50.530	-51.975	-0.42	-49.315	0.787876	-0.216184	0.262056	0.0945	0.414	0.03	0	249	93	3
2026-02-12	16:52:50.550	-64.785	-3.08	-56.035	0.825208	-0.198128	0.219356	0.0975	0.405	0.0285	0	249	93	3
2026-02-12	16:52:50.570	-74.305	-10.605	-61.425	0.908168	-0.204472	0.22448	0.0975	0.405	0.0285	0	249	93	3
2026-02-12	16:52:50.590	-73.99	-16.345	-62.37	0.993812	-0.220088	0.227164	0.102	0.396	0.027	0	249	93	3
2026-02-12	16:52:50.610	-75.005	-20.93	-58.345	0.976	-0.228628	0.207888	0.1065	0.387	0.0255	0	241	116	3
2026-02-12	16:52:50.630	-67.76	-29.785	-52.465	0.924516	-0.218868	0.204472	0.114	0.3735	0.0195	0	241	116	3
2026-02-12	16:52:50.650	-42.805	-42.14	-49.805	0.99308	-0.241316	0.196664	0.114	0.3705	0.0105	0	241	116	3
2026-02-12	16:52:50.670	-6.055	-54.915	-51.625	1.30662	-0.267668	0.282308	0.1155	0.369	0.024	0	241	116	3
2026-02-12	16:52:50.690	30.45	-56	-54.845	1.556232	-0.307684	0.314516	0.12	0.3555	0.021	0	241	116	3
2026-02-12	16:52:50.710	46.9	-45.71	-53.34	1.696044	-0.324764	0.243024	0.132	0.3555	0.033	0	241	116	3
2026-02-12	16:52:50.730	41.265	-33.46	-41.51	1.66408	-0.270108	0.165188	0.1365	0.3495	0.042	0	241	116	3
2026-02-12	16:52:50.750	28.105	-22.785	-19.81	1.491084	-0.155672	0.105652	0.132	0.342	0.0465	0	241	116	3
2026-02-12	16:52:50.770	19.565	-17.955	10.535	1.193648	-0.00122	0.06466	0.1455	0.342	0.0525	0	241	116	3
2026-02-12	16:52:50.790	11.27	-22.89	36.715	0.98454	0.061488	0.074908	0.1455	0.342	0.0525	0	241	116	3
2026-02-12	16:52:50.810	11.305	-27.51	48.93	0.939156	-0.055388	0.097112	0.1275	0.348	0.057	0	235	146	3
2026-02-12	16:52:50.830	23.485	-27.3	53.585	0.942816	-0.096136	0.0854	0.1365	0.3555	0.063	0	235	146	3
2026-02-12	16:52:50.850	34.86	-21.42	55.65	0.910608	-0.134444	0.039772	0.126	0.36	0.0645	0	235	146	3
2026-02-12	16:52:50.870	41.265	-16.485	58.275	0.869616	-0.114436	0.000488	0.1245	0.369	0.069	0	235	146	3
2026-02-12	16:52:50.890	49.28	-13.3	60.83	0.829844	-0.09076799	-0.011712	0.117	0.3705	0.0795	0	235	146	3
2026-02-12	16:52:50.910	60.585	-10.675	61.355	0.800808	-0.027816	0.005124	0.1095	0.3855	0.084	0	235	146	3
2026-02-12	16:52:50.930	63.525	-9.03	62.44	0.794464	-0.00122	0.0061	0.1005	0.3825	0.0915	0	235	146	3
2026-02-12	16:52:50.950	61.6	-7.595	63.595	0.842776	-0.016104	-0.01952	0.099	0.396	0.096	0	235	146	3
2026-02-12	16:52:50.970	59.36	-5.81	64.26	0.952576	-0.022936	-0.04758	0.1005	0.4005	0.0945	0	235	146	3
2026-02-12	16:52:50.990	52.36	1.575	64.855	1.067988	-0.05002	-0.10004	0.102	0.414	0.108	0	235	146	3
2026-02-12	16:52:51.010	51.1	5.25	64.575	1.091168	-0.05124	-0.127612	0.09	0.429	0.102	0	233	148	3
2026-02-12	16:52:51.030	47.845	7.84	62.72	1.09678	-0.072956	-0.132004	0.0915	0.432	0.1095	0	233	148	3
2026-02-12	16:52:51.050	46.935	8.19	59.675	1.124108	-0.05368	-0.095892	0.0825	0.4425	0.111	0	233	148	3
2026-02-12	16:52:51.070	42.735	7.805	55.51	1.120448	-0.050264	-0.07124799	0.09	0.456	0.111	0	233	148	3
2026-02-12	16:52:51.090	36.715	8.75	52.605	1.039196	-0.08662	-0.06466	0.072	0.456	0.102	0	233	148	3
2026-02-12	16:52:51.110	34.65	7.805	46.97	1.020408	-0.07515199	-0.070028	0.069	0.465	0.1095	0	233	148	3
2026-02-12	16:52:51.130	31.955	6.3	39.69	1.00162	-0.129564	-0.101016	0.069	0.48	0.108	0	233	148	3
2026-02-12	16:52:51.150	36.015	3.675	32.165	1.0004	-0.19642	-0.087108	0.069	0.4725	0.1065	0	233	148	3
2026-02-12	16:52:51.170	46.76	2.065	28.28	0.986736	-0.239852	-0.057096	0.0675	0.492	0.1035	0	233	148	3
2026-02-12	16:52:51.190	58.66	0.945	27.545	0.95404	-0.268156	-0.045628	0.0615	0.492	0.111	0	233	148	3
2026-02-12	16:52:51.210	71.925	0.49	26.81	0.944524	-0.246684	-0.033672	0.0615	0.5085	0.111	0	233	117	3
2026-02-12	16:52:51.230	74.55	1.225	24.5	0.968192	-0.237412	-0.016104	0.063	0.516	0.1065	0	233	117	3
2026-02-12	16:52:51.250	68.81	3.71	21.455	0.964288	-0.22814	0.003416	0.0585	0.504	0.1035	0	233	117	3
2026-02-12	16:52:51.270	57.645	7.665	17.815	0.933788	-0.205692	0.005856	0.057	0.513	0.1065	0	233	117	3
2026-02-12	16:52:51.290	44.905	11.655	11.515	0.918172	-0.189588	-0.011468	0.0675	0.519	0.105	0	233	117	3
2026-02-12	16:52:51.310	31.57	14.805	3.85	0.904996	-0.205448	-0.033184	0.0555	0.525	0.111	0	233	117	3
2026-02-12	16:52:51.330	20.965	15.715	-3.92	0.930372	-0.2013	-0.023912	0.063	0.528	0.1125	0	233	117	3
2026-02-12	16:52:51.350	11.165	16.38	-11.235	0.935252	-0.214232	-0.010736	0.0555	0.534	0.108	0	233	117	3
2026-02-12	16:52:51.370	7.42	15.05	-16.765	0.957212	-0.217892	0.001464	0.0645	0.537	0.099	0	233	117	3
2026-02-12	16:52:51.390	9.66	13.545	-20.37	0.97722	-0.174704	-0.005368	0.0645	0.534	0.105	0	233	117	3
2026-02-12	16:52:51.410	11.795	11.55	-25.515	1.016992	-0.123952	-0.016592	0.057	0.531	0.105	0	231	77	3
2026-02-12	16:52:51.430	13.51	10.045	-30.1	1.035536	-0.055388	-0.017568	0.0495	0.5325	0.1035	0	231	77	3
2026-02-12	16:52:51.450	10.185	10.71	-32.83	1.013332	-0.007564	-0.026596	0.0525	0.528	0.0945	0	231	77	3
2026-02-12	16:52:51.470	3.115	11.69	-35.175	1.020164	0.032452	-0.03294	0.06	0.5235	0.0945	0	231	77	3
2026-02-12	16:52:51.490	-5.25	12.355	-37.695	1.01992	0.070272	-0.02318	0.057	0.519	0.102	0	231	77	3
2026-02-12	16:52:51.510	-16.94	14.35	-41.44	1.027728	0.039528	-0.016348	0.0525	0.5175	0.0975	0	231	77	3
2026-02-12	16:52:51.530	-22.855	15.015	-45.85	1.079944	0.035136	0.00854	0.057	0.5055	0.0945	0	231	77	3
2026-02-12	16:52:51.550	-29.33	17.08	-52.36	1.169004	0.00732	0.024644	0.0615	0.4995	0.096	0	231	77	3
2026-02-12	16:52:51.570	-39.2	19.915	-58.8	1.243668	-0.04758	0.026108	0.0645	0.4905	0.093	0	231	77	3
2026-02-12	16:52:51.590	-49.805	22.82	-61.95	1.182424	-0.065636	0.041236	0.057	0.4815	0.081	0	231	77	3
2026-02-12	16:52:51.610	-62.055	22.015	-60.41	1.058472	-0.07808	0.026352	0.063	0.4695	0.078	0	226	48	3
2026-02-12	16:52:51.630	-65.87	8.75	-54.81	0.988688	-0.097356	0.070272	0.06	0.4575	0.078	0	226	48	3
2026-02-12	16:52:51.650	-65.975	-2.45	-51.31	0.971852	-0.166408	0.155184	0.069	0.456	0.075	0	226	48	3
2026-02-12	16:52:51.670	-61.355	-11.935	-49.42	0.967216	-0.259128	0.240584	0.057	0.4395	0.066	0	226	48	3
2026-02-12	16:52:51.690	-51.275	-17.535	-50.19	0.944768	-0.3416	0.293044	0.0675	0.4365	0.066	0	226	48	3
2026-02-12	16:52:51.710	-32.62	-20.055	-51.345	0.882792	-0.37088	0.324276	0.0675	0.4275	0.0735	0	226	48	3
2026-02-12	16:52:51.730	-11.515	-20.86	-51.345	0.805688	-0.341844	0.335744	0.081	0.414	0.063	0	226	48	3
2026-02-12	16:52:51.750	2.52	-20.615	-49.945	0.737856	-0.293776	0.331108	0.075	0.4155	0.0735	0	226	48	3
2026-02-12	16:52:51.770	4.62	-19.845	-47.495	0.702964	-0.260104	0.32208	0.0825	0.4155	0.066	0	226	48	3
2026-02-12	16:52:51.790	-2.835	-19.25	-45.045	0.683932	-0.23912	0.339404	0.09	0.4065	0.0765	0	226	48	3
2026-02-12	16:52:51.810	-15.855	-18.9	-43.47	0.698084	-0.244	0.36478	0.0855	0.4065	0.078	0	220	51	3
2026-02-12	16:52:51.830	-29.295	-17.185	-42.28	0.726388	-0.244488	0.381616	0.0915	0.402	0.0795	0	220	51	3
2026-02-12	16:52:51.850	-45.745	-13.965	-40.915	0.771528	-0.274988	0.368196	0.099	0.3885	0.081	0	220	51	3
2026-02-12	16:52:51.870	-54.88	-12.285	-40.6	0.817156	-0.26962	0.349408	0.102	0.378	0.0825	0	220	51	3
2026-02-12	16:52:51.890	-62.02	-11.13	-41.72	0.909144	-0.22326	0.312808	0.1035	0.3825	0.0765	0	220	51	3
2026-02-12	16:52:51.910	-71.015	-10.57	-45.5	0.997472	-0.071492	0.237656	0.1005	0.378	0.0765	0	220	51	3
2026-02-12	16:52:51.930	-81.235	-14.84	-52.43	1.107028	-0.060756	0.258152	0.1095	0.363	0.078	0	220	51	3
2026-02-12	16:52:51.950	-66.57	-24.78	-59.255	1.436916	-0.281332	0.361852	0.111	0.3615	0.066	0	220	51	3
2026-02-12	16:52:51.970	-33.25	-23.555	-54.11	1.685308	-0.366976	0.340868	0.1125	0.354	0.0675	0	220	51	3
2026-02-12	16:52:51.990	1.225	-16.1	-37.24	1.816336	-0.211548	0.179584	0.126	0.342	0.063	0	220	51	3
2026-02-12	16:52:52.010	35.63	-6.65	-10.815	1.53232	0.020984	-0.0061	0.126	0.342	0.063	0	219	90	3
2026-02-12	16:52:52.030	50.68	-12.46	6.3	1.383236	0.102724	0.032696	0.1125	0.3405	0.0765	0	219	90	3
2026-02-12	16:52:52.050	58.66	-23.03	31.395	1.194136	0.112484	0.164944	0.123	0.348	0.0735	0	219	90	3
2026-02-12	16:52:52.070	57.295	-22.855	50.33	1.064084	0.139812	0.2013	0.123	0.348	0.0735	0	219	90	3
2026-02-12	16:52:52.090	38.395	-14.245	56.98	1.026264	0.158844	0.142252	0.126	0.3585	0.0945	0	219	90	3
2026-02-12	16:52:52.110	20.16	-1.715	54.11	0.989664	0.107848	0.05978	0.111	0.357	0.102	0	219	90	3
2026-02-12	16:52:52.130	9.24	8.225	48.405	0.97478	0.044896	0.022692	0.102	0.3675	0.099	0	219	90	3
2026-02-12	16:52:52.150	6.86	15.225	45.01	0.970144	-0.076128	0.002684	0.1095	0.381	0.105	0	219	90	3
2026-02-12	16:52:52.170	17.955	19.915	45.15	0.9821	-0.099796	-0.000488	0.1095	0.3795	0.1005	0	219	90	3
2026-02-12	16:52:52.190	29.295	21.77	51.275	0.969168	-0.087596	-0.024888	0.0975	0.3885	0.096	0	219	90	3
2026-02-12	16:52:52.210	41.755	21.21	60.375	0.934764	-0.050996	-0.027816	0.0975	0.3945	0.1005	0	223	122	3
2026-02-12	16:52:52.230	50.82	18.585	69.825	0.90036	-0.031476	-0.023912	0.0915	0.4095	0.1065	0	223	122	3
2026-02-12	16:52:52.250	50.54	14.84	78.54	0.937204	-0.061976	-0.0183	0.0885	0.4155	0.1065	0	223	122	3
2026-02-12	16:52:52.270	43.26	15.54	89.145	1.011868	-0.121756	-0.032208	0.087	0.426	0.1035	0	223	122	3
2026-02-12	16:52:52.290	39.445	19.18	95.76	1.029436	-0.139568	-0.059536	0.087	0.426	0.1035	0	223	122	3
2026-02-12	16:52:52.310	39.48	21.63	99.575	1.023092	-0.144204	-0.068076	0.0675	0.4515	0.0945	0	223	122	3
2026-02-12	16:52:52.330	37.835	23.485	100.8	1.016992	-0.175436	-0.06832	0.075	0.4665	0.099	0	223	122	3
2026-02-12	16:52:52.350	36.085	24.15	100.66	1.029192	-0.188856	-0.047336	0.0705	0.4755	0.0975	0	223	122	3
2026-02-12	16:52:52.370	29.89	23.415	99.75	1.027972	-0.22326	-0.05368	0.0675	0.495	0.0915	0	223	122	3
2026-02-12	16:52:52.390	28.105	20.545	97.545	1.009184	-0.249124	-0.051728	0.0585	0.5085	0.0825	0	223	122	3
2026-02-12	16:52:52.410	29.575	16.8	94.29	0.988932	-0.275964	-0.042456	0.0645	0.5175	0.09	0	229	117	3
2026-02-12	16:52:52.430	34.545	13.825	89.075	1.013332	-0.292556	-0.023912	0.063	0.5355	0.0885	0	229	117	3
2026-02-12	16:52:52.450	38.29	13.51	83.615	0.984296	-0.309636	-0.023424	0.0585	0.5535	0.096	0	229	117	3
2026-02-12	16:52:52.470	41.79	13.615	77.385	0.938668	-0.274012	-0.027328	0.06	0.5565	0.0945	0	229	117	3
2026-02-12	16:52:52.490	43.645	14.35	64.505	0.882792	-0.235216	-0.03294	0.06	0.5565	0.0945	0	229	117	3
2026-02-12	16:52:52.510	42.77	13.16	53.69	0.891332	-0.18666	-0.02684	0.069	0.5955	0.0825	0	229	117	3
2026-02-12	16:52:52.530	37.275	10.885	41.09	0.947452	-0.145424	0.006344	0.0615	0.5985	0.0825	0	229	117	3
2026-02-12	16:52:52.550	28.945	10.185	28.525	0.959408	-0.128344	0.019276	0.057	0.6075	0.0825	0	229	117	3
2026-02-12	16:52:52.570	22.925	10.045	15.89	0.943304	-0.053192	0.011224	0.066	0.615	0.081	0	229	117	3
2026-02-12	16:52:52.590	16.345	9.52	1.19	0.942572	0.020008	-0.006832	0.063	0.612	0.078	0	229	117	3
2026-02-12	16:52:52.610	5.53	8.995	-14.315	0.980636	0.057828	-0.020496	0.06	0.6165	0.087	0	232	89	3
2026-02-12	16:52:52.630	-9.485	10.71	-27.265	0.9821	0.108092	-0.026108	0.063	0.615	0.0735	0	232	89	3
2026-02-12	16:52:52.650	-28.595	13.58	-38.36	0.972584	0.1769	-0.044164	0.063	0.612	0.0765	0	232	89	3
2026-02-12	16:52:52.670	-52.325	16.45	-48.405	1.03456	0.199592	-0.06344	0.0585	0.606	0.081	0	232	89	3
2026-02-12	16:52:52.690	-84	23.87	-56.175	1.079456	0.22326	-0.050996	0.06	0.597	0.0705	0	232	89	3
2026-02-12	16:52:52.710	-119.315	33.005	-60.165	1.14192	0.147864	-0.067588	0.06	0.597	0.0705	0	232	89	3
2026-02-12	16:52:52.730	-137.935	38.5	-64.54	1.281732	0.035136	-0.093208	0.0525	0.585	0.066	0	232	89	3
2026-02-12	16:52:52.750	-148.89	41.755	-72.8	1.385432	-0.082716	-0.052216	0.051	0.5655	0.066	0	232	89	3
2026-02-12	16:52:52.770	-151.445	41.51	-79.555	1.239032	-0.185928	0.014152	0.0525	0.558	0.0585	0	232	89	3
2026-02-12	16:52:52.790	-142.38	32.27	-85.645	1.090436	-0.287432	0.073688	0.048	0.5445	0.0435	0	232	89	3
2026-02-12	16:52:52.810	-123.445	18.655	-91.35	1.005036	-0.396256	0.144936	0.054	0.5265	0.048	0	234	59	3
2026-02-12	16:52:52.830	-96.495	3.255	-96.635	0.992592	-0.464088	0.214476	0.06	0.522	0.0345	0	234	59	3
2026-02-12	16:52:52.850	-69.545	-7.665	-103.215	1.0431	-0.52704	0.296948	0.063	0.501	0.033	0	234	59	3
2026-02-12	16:52:52.870	-42.875	-11.48	-112.245	1.02724	-0.575596	0.353068	0.057	0.4875	0.03	0	234	59	3
2026-02-12	16:52:52.890	-21.665	-10.36	-121.17	0.954772	-0.578036	0.366488	0.057	0.477	0.039	0	234	59	3
2026-02-12	16:52:52.910	-3.115	-6.125	-130.48	0.834968	-0.581696	0.370636	0.057	0.477	0.039	0	234	59	3
2026-02-12	16:52:52.930	-1.68	-2.485	-132.195	0.795928	-0.540948	0.359656	0.0735	0.4395	0.027	0	234	59	3
2026-02-12	16:52:52.950	-11.62	1.54	-129.955	0.787632	-0.496052	0.36356	0.078	0.423	0.0285	0	234	59	3
2026-02-12	16:52:52.970	-29.33	5.145	-124.425	0.792268	-0.492636	0.358924	0.0795	0.4095	0.033	0	234	59	3
2026-02-12	16:52:52.990	-45.85	8.225	-114.73	0.794464	-0.509472	0.362096	0.102	0.3975	0.033	0	234	59	3
2026-02-12	16:52:53.010	-55.685	8.505	-100.485	0.770796	-0.532896	0.361852	0.105	0.3795	0.0255	0	238	64	3
2026-02-12	16:52:53.030	-54.32	4.97	-83.615	0.754936	-0.555588	0.363072	0.108	0.3705	0.0165	0	238	64	3
2026-02-12	16:52:53.050	-42.77	-0.56	-66.465	0.7564	-0.571448	0.346968	0.108	0.36	0.018	0	238	64	3
2026-02-12	16:52:53.070	-23.31	-7.56	-51.415	0.824476	-0.57584	0.311832	0.1125	0.348	0.0225	0	238	64	3
2026-02-12	16:52:53.090	0.7	-15.365	-38.185	0.92476	-0.56608	0.280844	0.12	0.3465	0.0135	0	238	64	3
2026-02-12	16:52:53.110	29.855	-24.325	-24.36	0.96624	-0.523624	0.30378	0.117	0.3435	0.0135	0	238	64	3
2026-02-12	16:52:53.130	77.875	-38.43	-3.64	1.03334	-0.285236	0.295972	0.117	0.3435	0.0135	0	238	64	3
2026-02-12	16:52:53.150	111.125	-45.885	2.17	1.305644	-0.229604	0.315004	0.132	0.339	0.03	0	238	64	3
2026-02-12	16:52:53.170	133.56	-41.545	7.56	1.629432	-0.186172	0.25864	0.129	0.333	0.0435	0	238	64	3
2026-02-12	16:52:53.190	128.45	-21.7	20.16	1.731912	-0.035624	0.126392	0.1305	0.351	0.06	0	238	64	3
2026-02-12	16:52:53.210	106.925	-1.68	38.01	1.613084	0.267424	0.017324	0.1245	0.3435	0.0675	0	246	103	3
2026-02-12	16:52:53.230	64.785	10.955	56.07	1.3298	0.397232	-0.071492	0.1245	0.36	0.087	0	246	103	3
2026-02-12	16:52:53.250	21.035	12.46	69.23	1.089216	0.4514	-0.086132	0.12	0.372	0.0945	0	246	103	3
2026-02-12	16:52:53.270	-5.635	0.035	76.545	1.060424	0.368196	-0.009028	0.111	0.3795	0.0855	0	246	103	3
2026-02-12	16:52:53.290	-23.625	-7.63	75.95	1.093364	0.194956	0.053436	0.1125	0.3885	0.096	0	246	103	3
2026-02-12	16:52:53.310	-31.85	-4.865	73.43	1.065548	0.08784	0.032208	0.1125	0.4005	0.0945	0	246	103	3
2026-02-12	16:52:53.330	-18.83	1.26	64.19	0.941352	0.10858	-0.06344	0.1005	0.4065	0.087	0	246	103	3
2026-02-12	16:52:53.350	6.37	0.665	51.24	0.850828	0.104676	-0.069784	0.1005	0.4065	0.087	0	246	103	3
2026-02-12	16:52:53.370	24.5	-3.395	43.925	0.827404	0.087352	-0.04148	0.0975	0.4155	0.0915	0	246	103	3
2026-02-12	16:52:53.390	34.965	-5.425	39.935	0.816668	0.096624	-0.034892	0.0945	0.4275	0.099	0	246	103	3
2026-02-12	16:52:53.410	42.21	-7.245	39.165	0.84058	0.117364	-0.035868	0.0915	0.4305	0.105	0	261	124	3
2026-02-12	16:52:53.430	46.515	-8.54	40.635	0.88938	0.101992	-0.025376	0.0885	0.441	0.108	0	261	124	3
2026-02-12	16:52:53.450	45.43	-8.61	43.015	0.9455	0.04514	-0.014884	0.093	0.45	0.102	0	261	124	3
2026-02-12	16:52:53.470	40.495	-7.595	45.36	1.00894	-0.028792	-0.014396	0.0855	0.45	0.1095	0	261	124	3
2026-02-12	16:52:53.490	36.995	-5.6	48.44	1.04798	-0.088084	-0.014884	0.081	0.465	0.108	0	261	124	3
2026-02-12	16:52:53.510	39.165	-3.325	52.01	1.054324	-0.124684	-0.0122	0.0885	0.4725	0.117	0	261	124	3
2026-02-12	16:52:53.530	45.64	-2.905	55.93	1.05286	-0.16348	-0.018788	0.084	0.4785	0.111	0	261	124	3
2026-02-12	16:52:53.550	56.735	-3.29	59.045	1.06384	-0.219844	-0.011468	0.084	0.4785	0.111	0	261	124	3
2026-02-12	16:52:53.570	59.85	-2.1	59.325	1.079944	-0.25742	-0.004392	0.084	0.4785	0.111	0	261	124	3
2026-02-12	16:52:53.590	59.325	-0.245	58.415	1.052128	-0.27816	-0.005856	0.0825	0.519	0.123	0	261	124	3
2026-02-12	16:52:53.610	60.305	0.595	56.175	1.036512	-0.29158	-0.00488	0.0735	0.522	0.1275	0	275	111	3
2026-02-12	16:52:53.630	62.335	1.82	53.795	1.023092	-0.317688	-0.003904	0.075	0.5355	0.1215	0	275	111	3
2026-02-12	16:52:53.650	63.35	4.13	51.275	1.035292	-0.316224	-0.00244	0.0675	0.531	0.1215	0	275	111	3
2026-02-12	16:52:53.670	60.375	8.015	49.175	1.008208	-0.309148	0.002684	0.0765	0.546	0.1215	0	275	111	3
2026-02-12	16:52:53.690	55.3	10.99	47.25	0.969656	-0.30378	0.011468	0.0765	0.5505	0.1215	0	275	111	3
2026-02-12	16:52:53.710	50.33	13.195	45.185	0.940132	-0.30622	0.006832	0.0825	0.567	0.114	0	275	111	3
2026-02-12	16:52:53.730	46.795	13.86	42.35	0.943548	-0.300852	-0.007076	0.072	0.579	0.114	0	275	111	3
2026-02-12	16:52:53.750	43.435	13.755	37.625	0.991616	-0.273036	-0.009028	0.0705	0.5835	0.111	0	275	111	3
2026-02-12	16:52:53.770	39.445	14.35	30.66	0.95648	-0.248392	0.000976	0.0705	0.5835	0.111	0	275	111	3
2026-02-12	16:52:53.790	38.01	12.635	25.165	0.970876	-0.209108	-0.014152	0.069	0.5955	0.1035	0	275	111	3
2026-02-12	16:52:53.810	35.735	10.36	17.605	1.015772	-0.160064	-0.011468	0.0705	0.6045	0.1035	0	284	84	3
2026-02-12	16:52:53.830	32.06	8.505	10.29	1.002108	-0.128588	-0.000976	0.072	0.606	0.105	0	284	84	3
2026-02-12	16:52:53.850	30.31	5.985	2.59	0.986492	-0.104676	0.014152	0.0645	0.6105	0.1005	0	284	84	3
2026-02-12	16:52:53.870	33.95	2.8	-4.865	0.957456	-0.097356	0.032452	0.0705	0.606	0.1005	0	284	84	3
2026-02-12	16:52:53.890	46.55	-1.575	-11.585	0.927932	-0.063684	0.043188	0.066	0.6105	0.0915	0	284	84	3
2026-02-12	16:52:53.910	54.25	-3.745	-18.83	0.922076	-0.001464	0.070516	0.063	0.6165	0.0885	0	284	84	3
2026-02-12	16:52:53.930	49.945	-1.855	-25.9	0.906216	0.05124	0.104188	0.0675	0.621	0.0915	0	284	84	3
2026-02-12	16:52:53.950	36.33	2.66	-33.985	0.89792	0.060512	0.107116	0.069	0.612	0.09	0	284	84	3
2026-02-12	16:52:53.970	22.155	9.94	-45.36	0.915244	0.05002	0.098088	0.066	0.6075	0.09	0	284	84	3
2026-02-12	16:52:53.990	4.515	17.885	-57.82	0.974536	0.050508	0.0854	0.0645	0.603	0.09	0	284	84	3
2026-02-12	16:52:54.010	-11.795	23.415	-67.83	1.118496	0.025864	0.03172	0.069	0.6	0.084	0	284	62	3
2026-02-12	16:52:54.030	-30.345	26.04	-79.975	1.285148	-0.014884	0.019764	0.0585	0.5895	0.078	0	284	62	3
2026-02-12	16:52:54.050	-51.835	27.37	-86.59	1.18584	-0.076616	0.053192	0.06	0.567	0.072	0	284	62	3
2026-02-12	16:52:54.070	-69.58	21.945	-85.96	1.021384	-0.137372	0.101504	0.0555	0.5595	0.0795	0	284	62	3
2026-02-12	16:52:54.090	-74.935	11.27	-80.465	0.990152	-0.200324	0.10858	0.066	0.5445	0.0705	0	284	62	3
2026-02-12	16:52:54.110	-70.175	-1.785	-72.975	1.037976	-0.221552	0.140056	0.06	0.537	0.075	0	284	62	3
2026-02-12	16:52:54.130	-62.93	-12.04	-66.64	1.072624	-0.276452	0.21716	0.063	0.5295	0.06	0	284	62	3
2026-02-12	16:52:54.150	-53.2	-18.2	-61.95	1.075308	-0.337696	0.294264	0.0525	0.513	0.072	0	284	62	3
2026-02-12	16:52:54.170	-35.98	-21.49	-57.4	1.023336	-0.386984	0.33794	0.06	0.507	0.0795	0	284	62	3
2026-02-12	16:52:54.190	-9.8	-24.815	-50.855	0.898896	-0.335012	0.383324	0.06	0.507	0.0795	0	284	62	3
2026-02-12	16:52:54.210	0.84	-25.69	-45.15	0.782752	-0.274988	0.426024	0.06	0.507	0.0795	0	278	63	3
2026-02-12	16:52:54.230	-2.1	-25.165	-41.265	0.764208	-0.233264	0.466528	0.0735	0.4755	0.0825	0	278	63	3
2026-02-12	16:52:54.250	-17.605	-19.845	-37.8	0.682224	-0.258152	0.445544	0.072	0.4815	0.081	0	278	63	3
2026-02-12	16:52:54.270	-33.285	-16.345	-34.055	0.714676	-0.198372	0.458476	0.075	0.4755	0.084	0	278	63	3
2026-02-12	16:52:54.290	-50.89	-13.125	-31.36	0.709308	-0.253516	0.423828	0.0705	0.471	0.0825	0	278	63	3
2026-02-12	16:52:54.310	-54.635	-12.6	-28	0.723704	-0.284992	0.401624	0.078	0.4575	0.09	0	278	63	3
2026-02-12	16:52:54.330	-52.99	-14.315	-25.55	0.774456	-0.30988	0.407236	0.0825	0.465	0.0795	0	278	63	3
2026-02-12	16:52:54.350	-47.915	-13.685	-22.75	0.78812	-0.316712	0.409188	0.075	0.459	0.0795	0	278	63	3
2026-02-12	16:52:54.370	-42.245	-15.12	-20.195	0.796904	-0.316468	0.407236	0.078	0.4485	0.0825	0	278	63	3
2026-02-12	16:52:54.390	-36.82	-18.55	-16.765	0.83814	-0.311344	0.396012	0.0735	0.447	0.081	0	278	63	3
2026-02-12	16:52:54.410	-33.075	-21.7	-6.58	0.920612	-0.25986	0.316956	0.0705	0.447	0.081	0	272	106	3
2026-02-12	16:52:54.430	-34.93	-24.815	0	1.065792	-0.277672	0.24766	0.072	0.4335	0.0855	0	272	106	3
2026-02-12	16:52:54.450	-24.045	-31.78	3.955	1.355176	-0.333548	0.274988	0.0765	0.444	0.087	0	272	106	3
2026-02-12	16:52:54.470	0.21	-32.13	9.52	1.621624	-0.3233	0.253516	0.072	0.4485	0.093	0	272	106	3
2026-02-12	16:52:54.490	23.87	-24.85	15.4	1.769	-0.221552	0.22448	0.081	0.444	0.0915	0	272	106	3
2026-02-12	16:52:54.510	35.07	-12.67	24.185	1.714588	-0.07515199	0.149572	0.075	0.444	0.1005	0	272	106	3
2026-02-12	16:52:54.530	22.89	1.225	35.875	1.50182	0.072224	0.077348	0.069	0.4485	0.0975	0	272	106	3
2026-02-12	16:52:54.550	-10.115	8.26	48.02	1.270996	0.179828	0.027572	0.0735	0.4545	0.099	0	272	106	3
2026-02-12	16:52:54.570	-43.155	7.945	58.485	1.064084	0.231068	0.040504	0.0615	0.4635	0.0945	0	272	106	3
2026-02-12	16:52:54.590	-64.05	1.54	63.49	0.93818	0.144204	0.070028	0.0675	0.471	0.0975	0	272	106	3
2026-02-12	16:52:54.610	-57.75	-6.93	63.315	0.9272	-0.02684	0.102236	0.0645	0.471	0.087	0	270	153	3
2026-02-12	16:52:54.630	-25.025	-9.94	56.84	0.956724	-0.102236	0.074908	0.0615	0.4725	0.078	0	270	153	3
2026-02-12	16:52:54.650	10.08	-8.05	48.51	0.9394	-0.043676	0.031964	0.069	0.486	0.1005	0	270	153	3
2026-02-12	16:52:54.670	37.555	-6.3	39.865	0.90524	0.033672	-0.008052	0.051	0.4905	0.0945	0	270	153	3
2026-02-12	16:52:54.690	47.53	-7.175	33.145	0.900116	0.052216	-0.004636	0.048	0.504	0.0945	0	270	153	3
2026-02-12	16:52:54.710	45.115	-7	30.17	0.879376	0.050264	0.01098	0.057	0.504	0.096	0	270	153	3
2026-02-12	16:52:54.730	37.45	-6.545	30.38	0.885232	0.045872	0.013176	0.057	0.5175	0.0915	0	270	153	3
2026-02-12	16:52:54.750	30.205	-5.46	31.955	0.8967	0.006832	0.005368	0.0555	0.5115	0.105	0	270	153	3
2026-02-12	16:52:54.770	24.605	-4.34	32.655	0.937936	-0.056364	-0.0122	0.0495	0.528	0.1095	0	270	153	3
2026-02-12	16:52:54.790	23.065	-1.61	32.06	0.978928	-0.11346	-0.020008	0.0555	0.525	0.111	0	270	153	3
2026-02-12	16:52:54.810	26.6	0.21	31.36	1.005524	-0.154452	-0.025376	0.054	0.54	0.105	0	272	162	3
2026-02-12	16:52:54.830	32.9	1.82	31.885	1.01748	-0.192028	-0.032452	0.054	0.54	0.105	0	272	162	3
2026-02-12	16:52:54.850	37.205	2.03	32.025	1.006988	-0.23424	-0.034404	0.054	0.54	0.105	0	272	162	3
2026-02-12	16:52:54.870	38.465	0.665	32.935	0.999912	-0.26352	-0.031964	0.0555	0.537	0.102	0	272	162	3
2026-02-12	16:52:54.890	38.955	-1.435	34.02	1.0126	-0.295728	-0.020008	0.0495	0.5565	0.102	0	272	162	3
2026-02-12	16:52:54.910	41.93	-3.36	35	1.011136	-0.321592	-0.008052	0.0555	0.5565	0.099	0	272	162	3
2026-02-12	16:52:54.930	46.305	-3.85	35.42	1.000156	-0.345504	0.000976	0.0525	0.561	0.1065	0	272	162	3
2026-02-12	16:52:54.950	49.875	-2.555	34.965	0.974292	-0.354288	0.01708	0.0525	0.5715	0.108	0	272	162	3
2026-02-12	16:52:54.970	51.275	-0.875	33.95	0.935984	-0.352824	0.0183	0.057	0.576	0.096	0	272	162	3
2026-02-12	16:52:54.990	50.75	0.91	32.34	0.897188	-0.345504	0.036112	0.051	0.5835	0.1005	0	272	162	3
2026-02-12	16:52:55.010	47.985	1.995	30.205	0.884744	-0.345992	0.036844	0.0435	0.591	0.105	0	274	138	3
2026-02-12	16:52:55.030	45.57	2.345	26.495	0.881816	-0.35868	0.05368	0.048	0.5895	0.102	0	274	138	3
2026-02-12	16:52:55.050	44.765	3.185	19.46	0.941108	-0.36478	0.074908	0.0525	0.588	0.1005	0	274	138	3
2026-02-12	16:52:55.070	45.325	5.005	15.085	0.956236	-0.354044	0.069052	0.0525	0.606	0.105	0	274	138	3
2026-02-12	16:52:55.090	45.045	6.685	10.71	0.960872	-0.31354	0.07442	0.0495	0.6045	0.0975	0	274	138	3
2026-02-12	16:52:55.110	42.665	8.54	6.79	0.956724	-0.28548	0.074664	0.0495	0.6105	0.0975	0	274	138	3
2026-02-12	16:52:55.130	37.625	9.59	2.66	1.019188	-0.232532	0.086132	0.0495	0.6165	0.0945	0	274	138	3
2026-02-12	16:52:55.150	30.03	11.97	-2.275	1.042856	-0.166164	0.07686	0.054	0.6165	0.096	0	274	138	3
2026-02-12	16:52:55.170	17.395	14.945	-7.875	1.0431	-0.10736	0.071492	0.0495	0.618	0.087	0	274	138	3
2026-02-12	16:52:55.190	1.82	17.29	-14	1.026508	-0.050264	0.062464	0.051	0.6255	0.0765	0	274	138	3
2026-02-12	16:52:55.210	-14.49	18.865	-21.77	1.019432	-0.022204	0.054412	0.048	0.6165	0.078	0	272	108	3
2026-02-12	16:52:55.230	-29.085	20.58	-29.505	1.01504	-0.004148	0.052948	0.054	0.612	0.0885	0	272	108	3
2026-02-12	16:52:55.250	-43.505	23.8	-38.78	0.988444	0.01586	0.03904	0.0525	0.615	0.0825	0	272	108	3
2026-02-12	16:52:55.270	-55.09	26.075	-46.27	0.955504	0.001952	0.021716	0.0525	0.618	0.078	0	272	108	3
2026-02-12	16:52:55.290	-59.71	25.76	-51.275	0.9211	-0.011712	0.005368	0.0435	0.6	0.066	0	272	108	3
2026-02-12	16:52:55.310	-56.28	23.45	-55.545	0.914512	-0.016592	0.014396	0.0375	0.5895	0.0705	0	272	108	3
2026-02-12	16:52:55.330	-50.19	20.685	-60.48	0.935252	-0.03904	0.039772	0.0405	0.5775	0.069	0	272	108	3
2026-02-12	16:52:55.350	-44.835	18.865	-65.59	0.990152	-0.089792	0.056852	0.042	0.567	0.063	0	272	108	3
2026-02-12	16:52:55.370	-41.545	17.115	-71.96	1.119472	-0.13542	0.0732	0.036	0.5595	0.054	0	272	108	3
2026-02-12	16:52:55.390	-40.95	16.31	-77.98	1.196088	-0.178608	0.098088	0.0465	0.552	0.066	0	272	108	3
2026-02-12	16:52:55.410	-44.03	15.855	-79.8	1.128744	-0.185928	0.139812	0.042	0.5385	0.0525	0	266	88	3
2026-02-12	16:52:55.430	-53.97	12.74	-76.125	1.04676	-0.198616	0.1647	0.039	0.5205	0.057	0	266	88	3
2026-02-12	16:52:55.450	-65.73	7.245	-69.475	0.967948	-0.233996	0.200812	0.0435	0.513	0.054	0	266	88	3
2026-02-12	16:52:55.470	-71.12	-2.835	-59.57	0.919148	-0.309636	0.293288	0.048	0.5055	0.051	0	266	88	3
2026-02-12	16:52:55.490	-62.65	-10.5	-51.52	0.898408	-0.39162	0.38796	0.048	0.5055	0.051	0	266	88	3
2026-02-12	16:52:55.510	-45.57	-11.55	-48.79	0.881328	-0.415776	0.401136	0.048	0.483	0.0525	0	266	88	3
2026-02-12	16:52:55.530	-27.65	-9.905	-48.23	0.834724	-0.384544	0.373076	0.0465	0.468	0.051	0	266	88	3
2026-02-12	16:52:55.550	-16.66	-8.89	-48.335	0.825452	-0.326716	0.374784	0.0495	0.474	0.0465	0	266	88	3
2026-02-12	16:52:55.570	-18.48	-5.215	-47.46	0.731024	-0.330132	0.356728	0.051	0.468	0.048	0	266	88	3
2026-02-12	16:52:55.590	-23.205	-5.04	-44.555	0.73688	-0.261568	0.400648	0.054	0.4575	0.051	0	266	88	3
2026-02-12	16:52:55.610	-40.95	-3.605	-39.165	0.704428	-0.270596	0.416996	0.0525	0.453	0.042	0	259	98	3
2026-02-12	16:52:55.630	-57.4	-3.43	-33.18	0.70882	-0.284992	0.41724	0.0615	0.453	0.048	0	259	98	3
2026-02-12	16:52:55.650	-67.025	-4.025	-27.125	0.708576	-0.326716	0.40626	0.0615	0.441	0.042	0	259	98	3
2026-02-12	16:52:55.670	-66.465	-5.25	-22.505	0.744444	-0.362584	0.39406	0.0585	0.441	0.042	0	259	98	3
2026-02-12	16:52:55.690	-55.23	-7.735	-18.97	0.817156	-0.375516	0.410408	0.057	0.441	0.0435	0	259	98	3
2026-02-12	16:52:55.710	-45.535	-10.325	-18.725	0.862784	-0.368196	0.402112	0.066	0.4335	0.036	0	259	98	3
2026-02-12	16:52:55.730	-35.665	-12.39	-16.905	0.887672	-0.337452	0.384056	0.057	0.4305	0.045	0	259	98	3
2026-02-12	16:52:55.750	-30.1	-15.645	-13.405	0.926956	-0.318176	0.34282	0.0615	0.4305	0.033	0	259	98	3
2026-02-12	16:52:55.770	-27.23	-19.425	-8.645	1.015284	-0.305732	0.306952	0.072	0.432	0.033	0	259	98	3
2026-02-12	16:52:55.790	-22.19	-26.145	-6.23	1.287588	-0.36234	0.278648	0.072	0.426	0.0405	0	259	98	3
2026-02-12	16:52:55.810	-0.14	-33.145	-7.28	1.607472	-0.456524	0.295972	0.0675	0.42	0.0375	0	253	143	3
2026-02-12	16:52:55.830	37.625	-32.305	-7.7	1.879776	-0.453352	0.338916	0.072	0.42	0.0375	0	253	143	3
2026-02-12	16:52:55.850	68.81	-20.02	0.63	1.980792	-0.30744	0.259616	0.069	0.4155	0.0525	0	253	143	3
2026-02-12	16:52:55.870	71.085	-2.59	17.85	1.688968	-0.101016	0.123464	0.069	0.4155	0.06	0	253	143	3
2026-02-12	16:52:55.890	46.375	7.525	42.735	1.287344	0.094428	0.030988	0.0675	0.4185	0.06	0	253	143	3
2026-02-12	16:52:55.910	-2.8	1.225	76.23	0.88816	0.242536	0.024888	0.066	0.4215	0.06	0	253	143	3
2026-02-12	16:52:55.930	-27.125	-8.75	86.415	0.825452	0.141764	0.09516	0.0645	0.4365	0.0645	0	253	143	3
2026-02-12	16:52:55.950	-33.74	-13.09	89.145	0.824232	-0.022936	0.152256	0.06	0.453	0.0585	0	253	143	3
2026-02-12	16:52:55.970	-20.02	-11.13	86.485	0.823744	-0.109556	0.141764	0.0615	0.4635	0.057	0	253	143	3
2026-02-12	16:52:55.990	5.915	-7.98	81.025	0.8113	-0.10858	0.084912	0.0465	0.471	0.0645	0	253	143	3
2026-02-12	16:52:56.010	45.92	-8.05	73.465	0.782508	-0.01342	0.029036	0.045	0.4845	0.066	0	255	181	3
2026-02-12	16:52:56.030	63.175	-10.535	67.9	0.81008	0.00854	0.019276	0.045	0.4845	0.066	0	255	181	3
2026-02-12	16:52:56.050	72.695	-12.915	60.165	0.879376	-0.016836	0.0427	0.051	0.5025	0.0645	0	255	181	3
2026-02-12	16:52:56.070	69.93	-12.67	52.605	0.96624	-0.091012	0.06222	0.0525	0.516	0.0675	0	255	181	3
2026-02-12	16:52:56.090	66.465	-10.22	47.11	1.021384	-0.16226	0.058072	0.051	0.5175	0.0675	0	255	181	3
2026-02-12	16:52:56.110	69.44	-7.455	44.1	1.05042	-0.220576	0.047092	0.0495	0.5205	0.069	0	255	181	3
2026-02-12	16:52:56.130	76.44	-5.6	43.575	1.06506	-0.250344	0.038552	0.0495	0.5205	0.069	0	255	181	3
2026-02-12	16:52:56.150	82.25	-4.025	44.345	1.047492	-0.266692	0.041236	0.054	0.546	0.078	0	255	181	3
2026-02-12	16:52:56.170	84.63	-2.765	45.57	1.029924	-0.288408	0.045384	0.0435	0.5505	0.0795	0	255	181	3
2026-02-12	16:52:56.190	82.425	-0.665	46.9	0.999668	-0.29524	0.048312	0.051	0.561	0.0765	0	255	181	3
2026-02-12	16:52:56.210	77.28	0.77	48.055	0.985516	-0.321104	0.043188	0.0405	0.57	0.078	0	261	182	3
2026-02-12	16:52:56.230	70.77	1.89	49.49	0.960628	-0.343796	0.043676	0.045	0.5805	0.0825	0	261	182	3
2026-02-12	16:52:56.250	64.925	2.1	50.295	0.9394	-0.361364	0.041724	0.039	0.588	0.072	0	261	182	3
2026-02-12	16:52:56.270	60.445	1.47	50.015	0.955504	-0.391864	0.047092	0.045	0.5955	0.0795	0	261	182	3
2026-02-12	16:52:56.290	59.395	1.68	49.035	0.967704	-0.414068	0.049288	0.06	0.606	0.0705	0	261	182	3
2026-02-12	16:52:56.310	59.395	2.835	47.32	0.961848	-0.409432	0.053192	0.054	0.6105	0.0735	0	261	182	3
2026-02-12	16:52:56.330	60.41	4.515	44.765	0.95404	-0.412604	0.056364	0.048	0.615	0.0765	0	261	182	3
2026-02-12	16:52:56.350	60.97	5.075	43.155	0.949404	-0.407236	0.066124	0.048	0.615	0.0765	0	261	182	3
2026-02-12	16:52:56.370	60.76	5.04	42.315	0.938912	-0.398696	0.070028	0.0495	0.63	0.0645	0	261	182	3
2026-02-12	16:52:56.390	58.8	4.34	40.95	0.950624	-0.386008	0.087108	0.057	0.6375	0.0735	0	261	182	3
2026-02-12	16:52:56.410	57.505	3.78	39.27	0.962092	-0.368928	0.10858	0.0645	0.6495	0.066	0	265	159	3
2026-02-12	16:52:56.430	57.155	3.85	35.875	0.983076	-0.339892	0.121268	0.057	0.651	0.069	0	265	159	3
2026-02-12	16:52:56.450	55.72	4.34	30.695	1.021384	-0.277184	0.133468	0.0675	0.6615	0.063	0	265	159	3
2026-02-12	16:52:56.470	50.505	6.65	23.625	1.028216	-0.188368	0.11712	0.0615	0.66	0.0555	0	265	159	3
2026-02-12	16:52:56.490	35.385	9.835	13.23	1.014552	-0.07808	0.116876	0.06	0.66	0.057	0	265	159	3
2026-02-12	16:52:56.510	12.67	11.445	0.665	1.014796	-0.035624	0.124928	0.057	0.666	0.0525	0	265	159	3
2026-02-12	16:52:56.530	-7	12.95	-13.265	0.998204	0.00244	0.123708	0.0585	0.672	0.0495	0	265	159	3
2026-02-12	16:52:56.550	-32.655	15.995	-35	0.978684	0.052216	0.082716	0.063	0.6705	0.0495	0	265	159	3
2026-02-12	16:52:56.570	-48.58	18.13	-49.175	0.972584	0.039772	0.072468	0.0615	0.666	0.054	0	265	159	3
2026-02-12	16:52:56.590	-59.99	19.32	-61.355	0.946476	-0.004148	0.079788	0.0585	0.6555	0.0495	0	265	159	3
2026-02-12	16:52:56.610	-61.6	18.83	-69.825	0.921832	-0.028792	0.09076799	0.0615	0.6435	0.0525	0	264	136	3
2026-02-12	16:52:56.630	-56.07	17.15	-75.11	0.91378	-0.046604	0.089548	0.0555	0.6375	0.0525	0	264	136	3
2026-02-12	16:52:56.650	-47.46	14.525	-78.505	0.933788	-0.080764	0.099796	0.051	0.618	0.0555	0	264	136	3
2026-02-12	16:52:56.670	-41.195	12.53	-83.545	0.988688	-0.102724	0.129076	0.0555	0.6075	0.0465	0	264	136	3
2026-02-12	16:52:56.690	-41.09	12.425	-88.585	1.069452	-0.1586	0.156892	0.0525	0.6045	0.042	0	264	136	3
2026-02-12	16:52:56.710	-42.595	13.72	-92.085	1.106784	-0.180072	0.170556	0.048	0.588	0.0405	0	264	136	3
2026-02-12	16:52:56.730	-53.445	14.805	-92.995	1.071648	-0.170556	0.180316	0.0465	0.582	0.036	0	264	136	3
2026-02-12	16:52:56.750	-78.12	11.13	-89.74	1.033828	-0.230824	0.190808	0.045	0.5715	0.036	0	264	136	3
2026-02-12	16:52:56.770	-95.375	3.745	-84.735	0.995764	-0.308172	0.239852	0.0465	0.567	0.039	0	264	136	3
2026-02-12	16:52:56.790	-98.735	-2.695	-81.62	0.967948	-0.37698	0.302072	0.0495	0.528	0.045	0	264	136	3
2026-02-12	16:52:56.810	-91.63	-6.545	-80.64	0.94184	-0.434076	0.35502	0.039	0.528	0.0285	0	260	128	3
2026-02-12	16:52:56.830	-75.495	-7.91	-82.04	0.877424	-0.454572	0.3782	0.048	0.5145	0.033	0	260	128	3
2026-02-12	16:52:56.850	-59.15	-8.365	-83.3	0.79666	-0.416996	0.375516	0.048	0.5025	0.033	0	260	128	3
2026-02-12	16:52:56.870	-49.14	-10.045	-83.545	0.748592	-0.36844	0.3843	0.0555	0.4875	0.0315	0	260	128	3
2026-02-12	16:52:56.890	-52.01	-9.415	-81.2	0.635376	-0.397476	0.35014	0.057	0.4755	0.027	0	260	128	3
2026-02-12	16:52:56.910	-46.76	-13.51	-75.74	0.659776	-0.341112	0.362828	0.051	0.4605	0.0225	0	260	128	3
2026-02-12	16:52:56.930	-50.715	-15.715	-70.245	0.676856	-0.392352	0.371124	0.063	0.4515	0.0345	0	260	128	3
2026-02-12	16:52:56.950	-47.88	-18.34	-65.31	0.71248	-0.393328	0.379176	0.0645	0.4515	0.0285	0	260	128	3
2026-02-12	16:52:56.970	-42.42	-22.12	-60.445	0.757132	-0.39162	0.375028	0.0675	0.4515	0.0225	0	260	128	3
2026-02-12	16:52:56.990	-37.94	-25.865	-56.14	0.8113	-0.387472	0.376004	0.0675	0.4515	0.0225	0	260	128	3
2026-02-12	16:52:57.010	-35.385	-28.595	-51.17	0.836676	-0.3721	0.381616	0.066	0.4305	0.039	0	255	150	3
2026-02-12	16:52:57.030	-32.095	-31.08	-42.665	0.864004	-0.376248	0.356728	0.0765	0.411	0.0375	0	255	150	3
2026-02-12	16:52:57.050	-26.88	-33.845	-31.64	0.953064	-0.352824	0.311344	0.081	0.4095	0.0435	0	255	150	3
2026-02-12	16:52:57.070	-18.235	-36.715	-21.035	1.181204	-0.375516	0.29646	0.0855	0.405	0.0345	0	255	150	3
2026-02-12	16:52:57.090	0.91	-40.81	-13.58	1.55184	-0.477264	0.294996	0.0885	0.408	0.0435	0	255	150	3
2026-02-12	16:52:57.110	35.735	-39.795	-7.07	1.838296	-0.43554	0.305976	0.093	0.4005	0.0495	0	255	150	3
2026-02-12	16:52:57.130	65.59	-30.24	3.92	1.844152	-0.283528	0.264496	0.087	0.4035	0.0525	0	255	150	3
2026-02-12	16:52:57.150	71.505	-17.885	21.63	1.60552	-0.108824	0.169336	0.093	0.402	0.057	0	255	150	3
2026-02-12	16:52:57.170	52.675	-10.08	42.49	1.32492	0.041236	0.077104	0.0945	0.4005	0.0645	0	255	150	3
2026-02-12	16:52:57.190	9.485	-11.935	69.895	1.01626	0.16104	0.062708	0.09	0.402	0.066	0	255	150	3
2026-02-12	16:52:57.210	-12.39	-14.315	75.95	0.943548	0.097356	0.138836	0.0825	0.4245	0.078	0	253	186	3
2026-02-12	16:52:57.230	-19.53	-13.125	75.775	0.912072	-0.030744	0.172508	0.0825	0.429	0.069	0	253	186	3
2026-02-12	16:52:57.250	-10.5	-8.4	71.96	0.8845	-0.079788	0.126636	0.0825	0.4425	0.084	0	253	186	3
2026-02-12	16:52:57.270	9.345	-4.515	66.815	0.830332	-0.053436	0.067832	0.0735	0.444	0.0735	0	253	186	3
2026-02-12	16:52:57.290	33.915	-4.34	62.055	0.800076	-0.019276	0.0183	0.0735	0.4485	0.0675	0	253	186	3
2026-02-12	16:52:57.310	52.64	-5.775	56.945	0.837408	0.030012	0.007564	0.0705	0.456	0.084	0	253	186	3
2026-02-12	16:52:57.330	56.28	-5.18	52.22	0.909632	0.031964	0.022448	0.0675	0.4665	0.075	0	253	186	3
2026-02-12	16:52:57.350	48.895	-1.505	48.615	0.952332	0.002196	0.018788	0.0735	0.477	0.09	0	253	186	3
2026-02-12	16:52:57.370	39.69	2.345	46.935	0.981856	-0.056852	-0.006832	0.0675	0.48	0.087	0	253	186	3
2026-02-12	16:52:57.390	34.475	5.915	47.985	1.0065	-0.118096	-0.023424	0.0645	0.483	0.087	0	253	186	3
2026-02-12	16:52:57.410	35.84	7.56	50.54	1.036268	-0.167628	-0.026108	0.0675	0.4845	0.0885	0	256	195	3
2026-02-12	16:52:57.430	39.515	7.49	53.515	1.063596	-0.202276	-0.026108	0.063	0.4995	0.081	0	256	195	3
2026-02-12	16:52:57.450	42.49	7.07	56.735	1.075308	-0.218868	-0.026108	0.0555	0.513	0.0915	0	256	195	3
2026-02-12	16:52:57.470	41.72	6.265	59.885	1.064328	-0.248636	-0.031232	0.0645	0.5235	0.087	0	256	195	3
2026-02-12	16:52:57.490	42.175	5.6	62.23	1.045296	-0.2806	-0.026596	0.0585	0.5235	0.093	0	256	195	3
2026-02-12	16:52:57.510	44.45	4.305	64.05	1.016504	-0.311344	-0.012932	0.0585	0.5265	0.084	0	256	195	3
2026-02-12	16:52:57.530	46.865	3.22	64.855	0.991616	-0.34282	0.000976	0.0615	0.5475	0.0855	0	256	195	3
2026-02-12	16:52:57.550	48.44	2.45	64.085	0.957212	-0.367464	0.014884	0.0585	0.549	0.084	0	256	195	3
2026-02-12	16:52:57.570	49.805	2.205	61.775	0.939644	-0.38552	0.016348	0.0585	0.5505	0.0855	0	256	195	3
2026-02-12	16:52:57.590	51.975	1.715	57.82	0.937936	-0.393328	0.019276	0.0585	0.5655	0.087	0	256	195	3
2026-02-12	16:52:57.610	55.125	1.225	50.47	0.94672	-0.410652	0.02684	0.0585	0.5775	0.087	0	261	168	3
2026-02-12	16:52:57.630	59.85	0.49	41.86	0.962336	-0.419192	0.043432	0.0585	0.5775	0.087	0	261	168	3
2026-02-12	16:52:57.650	63.735	1.155	35.42	0.97966	-0.396988	0.061976	0.063	0.6	0.0855	0	261	168	3
2026-02-12	16:52:57.670	64.89	2.66	30.625	0.99308	-0.386984	0.080276	0.0585	0.6045	0.09	0	261	168	3
2026-02-12	16:52:57.690	64.855	5.215	28.21	0.97844	-0.336964	0.085888	0.069	0.6075	0.081	0	261	168	3
2026-02-12	16:52:57.710	59.92	6.895	25.27	1.001864	-0.28426	0.083936	0.06	0.6045	0.078	0	261	168	3
2026-02-12	16:52:57.730	50.75	8.575	20.965	1.027484	-0.221796	0.09638	0.0645	0.63	0.0795	0	261	168	3
2026-02-12	16:52:57.750	37.695	10.5	14.245	1.056032	-0.16714	0.115656	0.0705	0.6255	0.0765	0	261	168	3
2026-02-12	16:52:57.770	23.24	12.88	5.845	1.051396	-0.126148	0.11956	0.063	0.6225	0.0795	0	261	168	3
2026-02-12	16:52:57.790	9.415	15.12	-2.625	1.021628	-0.098088	0.104676	0.0675	0.627	0.0825	0	261	168	3
2026-02-12	16:52:57.810	-2.87	16.765	-11.41	0.991616	-0.07564	0.087596	0.0705	0.63	0.0795	0	261	135	3
2026-02-12	16:52:57.830	-17.325	17.815	-24.325	0.964532	-0.051972	0.0854	0.0705	0.6285	0.0735	0	261	135	3
2026-02-12	16:52:57.850	-23.765	17.43	-33.215	0.94916	-0.045384	0.092232	0.0765	0.6255	0.0735	0	261	135	3
2026-02-12	16:52:57.870	-27.895	17.01	-42	0.946232	-0.053924	0.086132	0.066	0.6105	0.0795	0	261	135	3
2026-02-12	16:52:57.890	-28.07	16.8	-49.49	0.926468	-0.0671	0.084424	0.063	0.6135	0.0675	0	261	135	3
2026-02-12	16:52:57.910	-25.935	16.765	-55.72	0.920612	-0.065148	0.07515199	0.063	0.606	0.0615	0	261	135	3
2026-02-12	16:52:57.930	-23.835	16.765	-61.39	0.954772	-0.073932	0.083448	0.057	0.594	0.0735	0	261	135	3
2026-02-12	16:52:57.950	-21.14	15.61	-66.255	1.027484	-0.110288	0.075884	0.066	0.5895	0.063	0	261	135	3
2026-02-12	16:52:57.970	-20.79	14.665	-71.4	1.134356	-0.08906	0.070516	0.054	0.576	0.0645	0	261	135	3
2026-02-12	16:52:57.990	-32.06	15.05	-77.385	1.137772	-0.09882	0.077592	0.054	0.5715	0.063	0	261	135	3
2026-02-12	16:52:58.010	-53.305	13.685	-80.36	1.013088	-0.123708	0.092964	0.0555	0.567	0.0615	0	258	113	3
2026-02-12	16:52:58.030	-68.075	8.365	-78.505	0.952332	-0.17324	0.093452	0.0555	0.5505	0.0585	0	258	113	3
2026-02-12	16:52:58.050	-78.505	-0.595	-74.27	0.944768	-0.23424	0.127124	0.0555	0.5355	0.057	0	258	113	3
2026-02-12	16:52:58.070	-80.465	-7.56	-71.75	0.975756	-0.28426	0.180072	0.06	0.5235	0.0495	0	258	113	3
2026-02-12	16:52:58.090	-77.42	-13.125	-71.855	0.986004	-0.35258	0.244488	0.0615	0.5115	0.0435	0	258	113	3
2026-02-12	16:52:58.110	-67.69	-17.22	-74.515	0.95648	-0.394792	0.29036	0.06	0.5025	0.0495	0	258	113	3
2026-02-12	16:52:58.130	-53.27	-20.79	-77.805	0.910608	-0.405528	0.32208	0.0585	0.489	0.045	0	258	113	3
2026-02-12	16:52:58.150	-39.41	-23.275	-80.115	0.849608	-0.387472	0.346968	0.063	0.4755	0.0525	0	258	113	3
2026-02-12	16:52:58.170	-31.99	-24.43	-81.62	0.801784	-0.365268	0.366	0.072	0.468	0.054	0	258	113	3
2026-02-12	16:52:58.190	-30.905	-24.85	-82.145	0.787632	-0.351116	0.393572	0.075	0.456	0.06	0	258	113	3
2026-02-12	16:52:58.210	-36.085	-24.395	-81.55	0.79666	-0.327692	0.397476	0.075	0.4515	0.06	0	251	115	3
2026-02-12	16:52:58.230	-43.4	-21.245	-79.17	0.769576	-0.370148	0.42334	0.0795	0.4395	0.063	0	251	115	3
2026-02-12	16:52:58.250	-48.51	-19.355	-74.06	0.806908	-0.343552	0.425292	0.0825	0.432	0.066	0	251	115	3
2026-02-12	16:52:58.270	-54.74	-16.835	-67.97	0.817644	-0.367464	0.419436	0.0825	0.432	0.066	0	251	115	3
2026-02-12	16:52:58.290	-55.23	-16.345	-61.845	0.835212	-0.370392	0.409676	0.087	0.408	0.06	0	251	115	3
2026-02-12	16:52:58.310	-55.3	-16.205	-54.845	0.861076	-0.368684	0.396012	0.093	0.3915	0.0615	0	251	115	3
2026-02-12	16:52:58.330	-54.915	-16.66	-47.32	0.869372	-0.372588	0.392596	0.099	0.39	0.06	0	251	115	3
2026-02-12	16:52:58.350	-52.675	-18.2	-37.03	0.868152	-0.375516	0.36966	0.0945	0.384	0.0615	0	251	115	3
2026-02-12	16:52:58.370	-46.13	-21.385	-24.605	0.89914	-0.366976	0.310368	0.099	0.372	0.0495	0	251	115	3
2026-02-12	16:52:58.390	-36.4	-27.195	-13.755	1.035292	-0.351848	0.271328	0.108	0.3735	0.054	0	251	115	3
2026-02-12	16:52:58.410	-18.165	-35.49	-8.33	1.329068	-0.41602	0.31842	0.1065	0.3735	0.0555	0	244	152	3
2026-02-12	16:52:58.430	18.13	-37.905	-5.355	1.571116	-0.463112	0.377712	0.1035	0.378	0.06	0	244	152	3
2026-02-12	16:52:58.450	59.15	-31.885	0.84	1.768024	-0.385764	0.359168	0.108	0.375	0.06	0	244	152	3
2026-02-12	16:52:58.470	83.72	-6.755	21.77	1.602348	-0.025132	0.130296	0.1155	0.369	0.0585	0	244	152	3
2026-02-12	16:52:58.490	59.255	5.11	41.265	1.314428	0.198372	0.0305	0.111	0.381	0.0735	0	244	152	3
2026-02-12	16:52:58.510	19.18	5.775	62.055	1.058472	0.27084	0.04758	0.111	0.384	0.081	0	244	152	3
2026-02-12	16:52:58.530	-12.215	0.525	77.665	0.899628	0.237656	0.101504	0.108	0.3975	0.0825	0	244	152	3
2026-02-12	16:52:58.550	-26.425	-5.775	84.84	0.861564	0.126392	0.14518	0.1065	0.4035	0.084	0	244	152	3
2026-02-12	16:52:58.570	-17.185	-6.72	82.88	0.889868	-0.004636	0.151768	0.105	0.411	0.087	0	244	152	3
2026-02-12	16:52:58.590	6.125	-1.855	75.565	0.92476	-0.051972	0.124196	0.0975	0.426	0.084	0	244	152	3
2026-02-12	16:52:58.610	32.725	5.075	66.535	0.885476	-0.0244	0.085888	0.0975	0.4305	0.09	0	243	187	3
2026-02-12	16:52:58.630	52.675	7.77	60.235	0.86132	-0.008784	0.056608	0.09	0.4365	0.09	0	243	187	3
2026-02-12	16:52:58.650	63.77	7.525	58.45	0.88816	0.00854	0.04636	0.0855	0.444	0.0915	0	243	187	3
2026-02-12	16:52:58.670	61.39	8.4	59.255	0.936472	0.010004	0.02806	0.09	0.4515	0.09	0	243	187	3
2026-02-12	16:52:58.690	52.325	10.15	60.515	0.968436	-0.058804	0.031964	0.093	0.4575	0.0885	0	243	187	3
2026-02-12	16:52:58.710	45.885	11.795	61.04	0.993568	-0.136884	0.029768	0.078	0.4725	0.093	0	243	187	3
2026-02-12	16:52:58.730	45.64	13.09	61.18	1.033096	-0.198372	0.019276	0.081	0.483	0.09	0	243	187	3
2026-02-12	16:52:58.750	50.89	14.49	61.95	1.048956	-0.233264	-0.00854	0.0825	0.492	0.096	0	243	187	3
2026-02-12	16:52:58.770	57.89	14.735	62.37	1.04798	-0.226188	-0.028792	0.081	0.5025	0.0945	0	243	187	3
2026-02-12	16:52:58.790	62.44	14.175	62.335	1.018212	-0.230824	-0.039284	0.0765	0.516	0.099	0	243	187	3
2026-02-12	16:52:58.810	64.4	12.145	61.74	1.019676	-0.246684	-0.044896	0.0795	0.519	0.09	0	245	186	3
2026-02-12	16:52:58.830	65.345	10.185	60.235	1.05408	-0.267668	-0.044896	0.081	0.5325	0.09	0	245	186	3
2026-02-12	16:52:58.850	65.065	10.465	58.24	1.037	-0.268644	-0.028792	0.078	0.537	0.0915	0	245	186	3
2026-02-12	16:52:58.870	61.32	10.29	55.44	0.994788	-0.268888	-0.023424	0.078	0.546	0.0915	0	245	186	3
2026-02-12	16:52:58.890	54.215	8.75	50.365	0.968924	-0.28548	-0.012444	0.0825	0.5505	0.0885	0	245	186	3
2026-02-12	16:52:58.910	49.315	6.685	44.695	0.958188	-0.314516	0.008052	0.0825	0.5505	0.0885	0	245	186	3
2026-02-12	16:52:58.930	50.085	5.145	39.865	0.948184	-0.324764	0.032696	0.0765	0.585	0.09	0	245	186	3
2026-02-12	16:52:58.950	53.515	4.025	34.86	0.925248	-0.332572	0.040504	0.072	0.5865	0.0825	0	245	186	3
2026-02-12	16:52:58.970	56.77	2.52	29.33	0.925004	-0.32696	0.053924	0.078	0.5985	0.0825	0	245	186	3
2026-02-12	16:52:58.990	59.325	1.12	24.29	0.917928	-0.316468	0.06344	0.0795	0.6045	0.0825	0	245	186	3
2026-02-12	16:52:59.010	61.985	-0.42	19.775	0.933788	-0.309636	0.071004	0.078	0.6045	0.0795	0	247	156	3
2026-02-12	16:52:59.030	64.19	-1.925	15.505	0.966728	-0.291092	0.091012	0.075	0.6135	0.0825	0	247	156	3
2026-02-12	16:52:59.050	64.155	-1.82	11.62	0.981124	-0.272548	0.105896	0.0765	0.6135	0.081	0	247	156	3
2026-02-12	16:52:59.070	64.785	-1.015	7.77	0.99674	-0.277672	0.1037	0.0765	0.618	0.0825	0	247	156	3
2026-02-12	16:52:59.090	77.595	-0.56	4.06	1.038952	-0.360388	0.083448	0.075	0.624	0.0825	0	247	156	3
2026-02-12	16:52:59.110	116.445	-2.905	-6.685	1.00894	-0.150304	0.081496	0.075	0.6285	0.0795	0	247	156	3
2026-02-12	16:52:59.130	116.06	-4.515	-18.165	0.977464	0.113948	0.080032	0.066	0.63	0.075	0	247	156	3
2026-02-12	16:52:59.150	84.385	-9.625	-31.535	0.968192	0.24034	0.079544	0.0765	0.6255	0.072	0	247	156	3
2026-02-12	16:52:59.170	36.785	-14.35	-43.61	0.976732	0.17324	0.076128	0.0765	0.6315	0.072	0	247	156	3
2026-02-12	16:52:59.190	-0.63	-16.765	-52.465	1.008452	0.08052	0.056608	0.0705	0.6165	0.0705	0	247	156	3
2026-02-12	16:52:59.210	-20.965	-16.45	-58.52	1.033096	0.027084	0.04392	0.057	0.6135	0.0705	0	246	125	3
2026-02-12	16:52:59.230	-29.155	-16.45	-64.26	1.07848	-0.001464	0.056852	0.06	0.597	0.078	0	246	125	3
2026-02-12	16:52:59.250	-33.425	-17.045	-69.16	1.089704	-0.024156	0.104676	0.0675	0.597	0.081	0	246	125	3
2026-02-12	16:52:59.270	-40.635	-17.29	-73.5	1.105564	-0.036112	0.13664	0.0645	0.5895	0.078	0	246	125	3
2026-02-12	16:52:59.290	-50.26	-16.24	-77.14	1.067256	-0.063196	0.157136	0.0645	0.576	0.078	0	246	125	3
2026-02-12	16:52:59.310	-63.77	-14.105	-76.475	1.019676	-0.102724	0.148108	0.063	0.564	0.0825	0	246	125	3
2026-02-12	16:52:59.330	-85.89	-12.88	-72.135	1.049688	-0.148596	0.131272	0.06	0.558	0.084	0	246	125	3
2026-02-12	16:52:59.350	-95.83	-15.995	-68.53	1.041148	-0.184464	0.188124	0.0585	0.531	0.087	0	246	125	3
2026-02-12	16:52:59.370	-99.61	-22.155	-64.995	0.995032	-0.206912	0.258884	0.0495	0.5235	0.0885	0	246	125	3
2026-02-12	16:52:59.390	-98.7	-28.315	-62.825	0.953552	-0.246684	0.313784	0.057	0.5205	0.0885	0	246	125	3
2026-02-12	16:52:59.410	-92.75	-31.885	-61.6	0.893284	-0.295972	0.34404	0.0645	0.501	0.0855	0	243	112	3
2026-02-12	16:52:59.430	-80.045	-34.3	-60.375	0.835944	-0.32818	0.368684	0.075	0.5025	0.0945	0	243	112	3
2026-02-12	16:52:59.450	-64.785	-34.965	-57.96	0.785924	-0.317688	0.395036	0.0645	0.4845	0.093	0	243	112	3
2026-02-12	16:52:59.470	-53.235	-34.265	-54.075	0.764208	-0.302804	0.41236	0.072	0.483	0.0975	0	243	112	3
2026-02-12	16:52:59.490	-42.455	-29.785	-47.95	0.713456	-0.2684	0.41602	0.0795	0.4755	0.105	0	243	112	3
2026-02-12	16:52:59.510	-40.635	-27.51	-41.72	0.730536	-0.235704	0.412848	0.0735	0.4695	0.105	0	243	112	3
2026-02-12	16:52:59.530	-49.385	-23.38	-34.23	0.740784	-0.2257	0.401868	0.0675	0.471	0.102	0	243	112	3
2026-02-12	16:52:59.550	-61.495	-20.895	-28.805	0.769332	-0.23912	0.38918	0.0675	0.471	0.102	0	243	112	3
2026-02-12	16:52:59.570	-71.96	-19.005	-25.165	0.80276	-0.241072	0.36356	0.0735	0.45	0.1065	0	243	112	3
2026-02-12	16:52:59.590	-83.965	-17.15	-21.07	0.853756	-0.230824	0.309636	0.087	0.4425	0.105	0	243	112	3
2026-02-12	16:52:59.610	-99.225	-16.555	-16.135	0.972584	-0.193004	0.228872	0.0885	0.435	0.1035	0	239	135	3
2026-02-12	16:52:59.630	-118.405	-17.325	-12.32	0.970144	-0.154208	0.150548	0.0855	0.4335	0.102	0	239	135	3
2026-02-12	16:52:59.650	-131.81	-23.87	-7.98	0.88328	-0.145912	0.137128	0.0825	0.4275	0.09	0	239	135	3
2026-02-12	16:52:59.670	-125.37	-39.06	-8.365	0.995032	-0.239608	0.210084	0.0885	0.4245	0.093	0	239	135	3
2026-02-12	16:52:59.690	-92.12	-50.435	-14.035	1.325164	-0.393816	0.30378	0.0885	0.417	0.096	0	239	135	3
2026-02-12	16:52:59.710	-44.87	-49.56	-18.13	1.704584	-0.493124	0.410652	0.0885	0.4095	0.0975	0	239	135	3
2026-02-12	16:52:59.730	5.04	-33.6	-15.19	1.94956	-0.379908	0.36722	0.0885	0.4095	0.096	0	239	135	3
2026-02-12	16:52:59.750	31.675	0.07	-0.385	1.697752	-0.06466	0.111508	0.09	0.411	0.0975	0	239	135	3
2026-02-12	16:52:59.770	18.445	10.71	14.595	1.350052	0.056852	0.088816	0.09	0.411	0.0975	0	239	135	3
2026-02-12	16:52:59.790	-2.52	10.535	31.57	1.07116	0.0427	0.12078	0.0825	0.4095	0.1095	0	239	135	3
