yyyy-MM-dd	HH:mm:ss.fff	gyrX	gyrY	gyrZ	accX	accY	accZ	magX	magY	magZ	Marker	Energy	Angle	Classification
2026-02-12	14:54:46.410	1.365	-0.595	0.28	-0.031232	0.08686399	1.010648	0.6645	-0.933	-2.334	0	4	1033	1
2026-02-12	14:54:46.430	1.68	-0.385	0.28	-0.029036	0.091988	1.009428	0.6735	-0.906	-2.3595	0	4	1033	1
2026-02-12	14:54:46.450	1.33	-0.28	0.28	-0.03294	0.091012	1.006012	0.678	-0.909	-2.346	0	4	1033	1
2026-02-12	14:54:46.470	2.03	-1.12	0.245	-0.016592	0.0732	1.098976	0.6795	-0.93	-2.343	0	4	1033	1
2026-02-12	14:54:46.490	0.49	0	0.21	-0.045872	0.104432	0.941352	0.666	-0.939	-2.3325	0	4	1033	1
2026-02-12	14:54:46.510	1.855	-0.35	0.245	-0.030256	0.122244	1.07116	0.6735	-0.9465	-2.3385	0	4	1033	1
2026-02-12	14:54:46.530	1.225	-1.89	0.35	-0.025864	0.091988	0.998448	0.663	-0.9075	-2.352	0	4	1033	1
2026-02-12	14:54:46.550	1.12	1.47	0.14	-0.037576	0.0915	0.989176	0.6705	-0.9135	-2.3535	0	4	1033	1
2026-02-12	14:54:46.570	1.575	-2.835	0.42	-0.016836	0.098332	1.052372	0.672	-0.9045	-2.3445	0	4	1033	1
2026-02-12	14:54:46.590	0.875	1.365	0.14	-0.039528	0.088328	0.986736	0.6735	-0.897	-2.337	0	4	1033	1
2026-02-12	14:54:46.610	1.785	-1.82	0.385	-0.02684	0.09028	1.017968	0.6735	-0.8955	-2.3385	0	4	1033	1
2026-02-12	14:54:46.630	1.225	-0.105	0.245	-0.029768	0.091256	1.018212	0.678	-0.8985	-2.337	0	4	1033	1
2026-02-12	14:54:46.650	1.26	-0.28	0.245	-0.030256	0.089548	1.006988	0.6765	-0.9	-2.3325	0	4	1033	1
2026-02-12	14:54:46.670	1.54	-1.33	0.28	-0.025864	0.087108	1.017236	0.6735	-0.9015	-2.34	0	4	1033	1
2026-02-12	14:54:46.690	1.26	0.28	0.21	-0.031964	0.089792	1.005036	0.675	-0.9	-2.3415	0	4	1033	1
2026-02-12	14:54:46.710	1.54	-1.19	0.245	-0.028548	0.09028	1.014552	0.675	-0.897	-2.3385	0	4	1033	1
2026-02-12	14:54:46.730	1.33	-0.175	0.28	-0.02928	0.08906	1.008696	0.675	-0.897	-2.3385	0	4	1033	1
2026-02-12	14:54:46.750	1.4	-0.595	0.28	-0.028304	0.083936	1.009428	0.6765	-0.906	-2.3265	0	4	1033	1
2026-02-12	14:54:46.770	1.225	-0.105	0.245	-0.028304	0.085156	1.006744	0.6765	-0.906	-2.3265	0	4	1033	1
2026-02-12	14:54:46.790	1.33	-0.91	0.28	-0.0305	0.090524	1.011624	0.672	-0.9405	-2.331	0	4	1033	1
2026-02-12	14:54:46.810	1.33	-0.49	0.28	-0.0244	0.088328	1.009428	0.666	-0.9345	-2.3355	0	5	1034	1
2026-02-12	14:54:46.830	1.4	-0.49	0.245	-0.027572	0.086132	1.009184	0.6675	-0.9315	-2.3325	0	5	1034	1
2026-02-12	14:54:46.850	1.4	-0.805	0.28	-0.02806	0.092476	1.014308	0.666	-0.9345	-2.337	0	5	1034	1
2026-02-12	14:54:46.870	1.295	-0.385	0.28	-0.02806	0.085888	1.009672	0.6675	-0.936	-2.334	0	5	1034	1
2026-02-12	14:54:46.890	1.33	-0.77	0.245	-0.028304	0.087596	1.011868	0.669	-0.936	-2.331	0	5	1034	1
2026-02-12	14:54:46.910	1.295	-0.49	0.28	-0.028304	0.089304	1.011136	0.66	-0.9285	-2.334	0	5	1034	1
2026-02-12	14:54:46.930	1.365	-0.595	0.245	-0.030012	0.091012	1.011868	0.666	-0.9375	-2.337	0	5	1034	1
2026-02-12	14:54:46.950	1.33	-0.63	0.245	-0.029036	0.08906	1.010404	0.6675	-0.939	-2.3355	0	5	1034	1
2026-02-12	14:54:46.970	1.26	-0.49	0.28	-0.029036	0.088084	1.010892	0.669	-0.9405	-2.3415	0	5	1034	1
2026-02-12	14:54:46.990	1.295	-0.665	0.245	-0.029524	0.091012	1.01382	0.684	-0.9135	-2.3655	0	5	1034	1
2026-02-12	14:54:47.010	1.33	-0.525	0.28	-0.031964	0.093208	1.008696	0.672	-0.915	-2.3535	0	6	1034	1
2026-02-12	14:54:47.030	1.435	-0.63	0.245	-0.031232	0.09467199	1.008208	0.6825	-0.8955	-2.355	0	6	1034	1
2026-02-12	14:54:47.050	0	-0.49	0.28	-0.028792	0.083692	1.0065	0.675	-0.9015	-2.3355	0	6	1034	1
2026-02-12	14:54:47.070	0.805	-1.12	0.28	-0.026596	0.090524	1.003816	0.663	-0.9375	-2.325	0	6	1034	1
2026-02-12	14:54:47.090	1.295	-1.155	0.28	-0.023912	0.08686399	1.015284	0.6765	-0.933	-2.3355	0	6	1034	1
2026-02-12	14:54:47.110	1.575	0.735	0.245	-0.033184	0.084912	1.003084	0.6675	-0.9465	-2.3475	0	6	1034	1
2026-02-12	14:54:47.130	1.995	-1.715	0.315	-0.027328	0.087596	1.01382	0.678	-0.921	-2.3385	0	6	1034	1
2026-02-12	14:54:47.150	1.54	0.385	0.245	-0.030012	0.087352	1.00772	0.678	-0.9045	-2.352	0	6	1034	1
2026-02-12	14:54:47.170	1.61	-0.91	0.315	-0.0305	0.088572	1.011136	0.675	-0.921	-2.352	0	6	1034	1
2026-02-12	14:54:47.190	1.54	-0.7	0.245	-0.028792	0.088328	1.010892	0.6795	-0.885	-2.3385	0	6	1034	1
2026-02-12	14:54:47.210	1.855	-0.035	0.245	-0.031964	0.087596	1.003572	0.681	-0.9045	-2.34	0	7	1034	1
2026-02-12	14:54:47.230	2.695	-0.385	0.21	-0.029036	0.089304	1.0126	0.678	-0.9	-2.331	0	7	1034	1
2026-02-12	14:54:47.250	1.68	-0.56	0.28	-0.0305	0.095892	0.993812	0.675	-0.888	-2.349	0	7	1034	1
2026-02-12	14:54:47.270	1.645	0.07	0.245	-0.03294	0.079788	0.947208	0.669	-0.9	-2.331	0	7	1034	1
2026-02-12	14:54:47.290	1.575	-1.155	0.28	-0.022204	0.080764	1.05286	0.6705	-0.9075	-2.337	0	7	1034	1
2026-02-12	14:54:47.310	1.155	-0.21	0.245	-0.032452	0.09272	1.005768	0.675	-0.906	-2.3445	0	7	1034	1
2026-02-12	14:54:47.330	0.805	-1.015	0.28	-0.029768	0.091988	0.994056	0.6585	-0.9435	-2.3445	0	7	1034	1
2026-02-12	14:54:47.350	0	-0.945	0.28	-0.013908	0.095892	1.037732	0.6675	-0.939	-2.3355	0	7	1034	1
2026-02-12	14:54:47.370	1.225	-1.015	0.28	-0.030988	0.093452	0.991616	0.6735	-0.9405	-2.3385	0	7	1034	1
2026-02-12	14:54:47.390	1.225	-0.49	0.28	-0.02928	0.116876	1.042368	0.675	-0.9345	-2.343	0	7	1034	1
2026-02-12	14:54:45.410	1.365	-0.63	0.28	-0.027816	0.084424	1.008696	0.6735	-0.921	-2.343	0	5	1032	1
2026-02-12	14:54:45.430	1.295	-0.595	0.245	-0.026108	0.091256	1.01138	0.666	-0.9345	-2.3355	0	5	1032	1
2026-02-12	14:54:45.450	1.295	-0.595	0.28	-0.026352	0.0915	1.013576	0.663	-0.936	-2.3325	0	5	1032	1
2026-02-12	14:54:45.470	1.295	-0.63	0.28	-0.026352	0.088084	1.013576	0.669	-0.9195	-2.337	0	5	1032	1
2026-02-12	14:54:45.490	1.295	-0.56	0.245	-0.028548	0.084668	1.008208	0.681	-0.909	-2.352	0	5	1032	1
2026-02-12	14:54:45.510	1.295	-0.595	0.245	-0.028304	0.093208	1.011868	0.681	-0.9165	-2.3625	0	5	1032	1
2026-02-12	14:54:45.530	1.295	-0.63	0.245	-0.02928	0.090036	1.009916	0.6735	-0.909	-2.358	0	5	1032	1
2026-02-12	14:54:45.550	1.295	-0.595	0.245	-0.025376	0.086376	1.01016	0.675	-0.8985	-2.3415	0	5	1032	1
2026-02-12	14:54:45.570	1.33	-0.63	0.245	-0.02806	0.092476	1.010892	0.6765	-0.894	-2.3325	0	5	1032	1
2026-02-12	14:54:45.590	1.33	-0.595	0.28	-0.027816	0.090036	1.009672	0.6735	-0.894	-2.3325	0	5	1032	1
2026-02-12	14:54:45.610	1.295	-0.56	0.28	-0.026108	0.09076799	1.008208	0.675	-0.897	-2.3325	0	5	1032	1
2026-02-12	14:54:45.630	1.295	-0.595	0.28	-0.027084	0.089548	1.009672	0.6795	-0.9	-2.3325	0	5	1032	1
2026-02-12	14:54:45.650	1.295	-0.595	0.28	-0.0244	0.091012	1.014064	0.684	-0.9015	-2.331	0	5	1032	1
2026-02-12	14:54:45.670	1.295	-0.63	0.28	-0.025132	0.086376	1.012356	0.684	-0.9015	-2.331	0	5	1032	1
2026-02-12	14:54:45.690	1.33	-0.63	0.245	-0.027816	0.082472	1.008696	0.663	-0.936	-2.3385	0	5	1032	1
2026-02-12	14:54:45.710	1.33	-0.63	0.28	-0.028304	0.084912	1.007232	0.663	-0.936	-2.3385	0	5	1032	1
2026-02-12	14:54:45.730	1.295	-0.595	0.245	-0.027572	0.08906	1.008208	0.6765	-0.942	-2.3355	0	5	1032	1
2026-02-12	14:54:45.750	1.295	-0.595	0.245	-0.030256	0.087108	1.008696	0.663	-0.936	-2.3355	0	5	1032	1
2026-02-12	14:54:45.770	1.26	-0.595	0.28	-0.02806	0.0854	1.006256	0.6615	-0.9315	-2.331	0	5	1032	1
2026-02-12	14:54:45.790	1.33	-0.63	0.28	-0.028304	0.091256	1.010892	0.666	-0.9435	-2.3355	0	5	1032	1
2026-02-12	14:54:45.810	1.295	-0.63	0.245	-0.026596	0.096624	1.011624	0.6735	-0.939	-2.334	0	5	1033	1
2026-02-12	14:54:45.830	1.295	-0.56	0.245	-0.0305	0.08906	1.009428	0.6675	-0.9435	-2.3295	0	5	1033	1
2026-02-12	14:54:45.850	1.295	-0.595	0.245	-0.026352	0.08906	1.010404	0.669	-0.945	-2.34	0	5	1033	1
2026-02-12	14:54:45.870	1.33	-0.595	0.28	-0.029524	0.092232	1.015772	0.6585	-0.9405	-2.343	0	5	1033	1
2026-02-12	14:54:45.890	1.295	-0.595	0.245	-0.027328	0.08662	1.010892	0.6825	-0.9045	-2.3535	0	5	1033	1
2026-02-12	14:54:45.910	1.295	-0.595	0.28	-0.027816	0.08295999	1.011624	0.678	-0.915	-2.3565	0	5	1033	1
2026-02-12	14:54:45.930	1.295	-0.63	0.28	-0.026352	0.086376	1.009428	0.6825	-0.9105	-2.361	0	5	1033	1
2026-02-12	14:54:45.950	1.295	-0.63	0.245	-0.02684	0.089548	1.013088	0.6765	-0.9135	-2.3505	0	5	1033	1
2026-02-12	14:54:45.970	1.295	-0.595	0.245	-0.029036	0.084912	1.011136	0.672	-0.936	-2.3325	0	5	1033	1
2026-02-12	14:54:45.990	1.295	-0.595	0.245	-0.030744	0.089304	1.00406	0.6705	-0.9375	-2.3415	0	5	1033	1
2026-02-12	14:54:46.010	1.33	-0.595	0.245	-0.02806	0.089304	1.009672	0.6765	-0.909	-2.3475	0	5	1033	1
2026-02-12	14:54:46.030	1.295	-0.595	0.245	-0.030012	0.089792	1.01138	0.6795	-0.9045	-2.3565	0	5	1033	1
2026-02-12	14:54:46.050	1.33	-0.595	0.28	-0.029036	0.087352	1.009184	0.6765	-0.9075	-2.3445	0	5	1033	1
2026-02-12	14:54:46.070	1.33	-0.595	0.245	-0.027328	0.088084	1.007232	0.678	-0.8955	-2.3295	0	5	1033	1
2026-02-12	14:54:46.090	1.295	-0.595	0.245	-0.030988	0.086376	1.00894	0.6795	-0.9015	-2.3325	0	5	1033	1
2026-02-12	14:54:46.110	1.33	-0.63	0.28	-0.027328	0.089304	1.01138	0.672	-0.9045	-2.331	0	5	1033	1
2026-02-12	14:54:46.130	1.295	-0.595	0.28	-0.02684	0.09028	1.01016	0.6705	-0.891	-2.34	0	5	1033	1
2026-02-12	14:54:46.150	1.295	-0.63	0.245	-0.02928	0.09076799	1.009916	0.678	-0.903	-2.3385	0	5	1033	1
2026-02-12	14:54:46.170	1.295	-0.595	0.245	-0.027328	0.090036	1.01138	0.687	-0.897	-2.343	0	5	1033	1
2026-02-12	14:54:46.190	1.26	-0.595	0.245	-0.030012	0.09638	1.012844	0.6795	-0.897	-2.3445	0	5	1033	1
2026-02-12	14:54:54.210	1.645	-0.385	0.245	-0.029036	0.085644	0.985028	0.675	-0.921	-2.337	0	45	91	2
2026-02-12	14:54:54.230	2.695	-0.385	0.21	-0.029036	0.089304	1.0126	0.678	-0.9	-2.331	0	45	91	2
2026-02-12	14:54:54.250	1.68	-0.56	0.28	-0.0305	0.095892	0.993812	0.675	-0.888	-2.349	0	45	91	2
2026-02-12	14:54:54.270	1.645	0.07	0.245	-0.03294	0.079788	0.947208	0.669	-0.9	-2.331	0	45	91	2
2026-02-12	14:54:54.290	5.565	-8.435	23.135	-0.09857599	0.0183	1.027972	0.6705	-0.9225	-2.3355	0	45	91	2
2026-02-12	14:54:54.310	-2.1	2.03	38.325	-0.149084	-0.054656	1.066768	0.3855	0.258	-1.1715	0	45	91	2
2026-02-12	14:54:54.330	6.79	5.635	32.97	-0.13298	-0.066124	1.060668	0.3945	0.255	-1.173	0	45	91	2
2026-02-12	14:54:54.350	14.07	9.205	29.645	-0.13176	-0.065148	1.078968	0.408	0.2805	-1.182	0	45	91	2
2026-02-12	14:54:54.370	18.2	11.9	27.79	-0.131516	-0.057096	1.062376	0.4065	0.282	-1.185	0	45	91	2
2026-02-12	14:54:54.390	19.25	11.025	25.235	-0.091744	-0.054656	1.046028	0.4095	0.2895	-1.1865	0	45	91	2
2026-02-12	14:54:54.410	19.74	6.72	20.965	-0.078568	-0.061	1.026264	0.414	0.288	-1.1655	0	152	294	3
2026-02-12	14:54:54.430	21.665	2.17	17.01	-0.03416	-0.062708	1.027484	0.4185	0.282	-1.1625	0	152	294	3
2026-02-12	14:54:54.450	25.76	-2.415	16.38	-0.01952	-0.050752	1.00772	0.4215	0.27	-1.1655	0	152	294	3
2026-02-12	14:54:54.470	28.175	-4.76	16.555	-0.044408	-0.010492	0.983808	0.417	0.282	-1.155	0	152	294	3
2026-02-12	14:54:54.490	24.955	-11.305	17.43	-0.092232	0.021228	0.9943	0.42	0.2685	-1.1685	0	152	294	3
2026-02-12	14:54:54.510	18.27	-16.31	15.96	-0.091256	0.019276	1.006744	0.414	0.273	-1.1685	0	152	294	3
2026-02-12	14:54:54.530	13.79	-20.58	12.39	-0.066856	-0.006588	1.075064	0.4155	0.261	-1.17	0	152	294	3
2026-02-12	14:54:54.550	13.79	-16.905	7.91	-0.031476	-0.01952	1.034072	0.411	0.2715	-1.1775	0	152	294	3
2026-02-12	14:54:54.570	11.725	-12.145	5.53	-0.010736	0.007076	1.02236	0.4035	0.2265	-1.188	0	152	294	3
2026-02-12	14:54:54.590	5.25	-1.015	6.3	-0.014884	0.050996	0.963556	0.393	0.2235	-1.188	0	152	294	3
2026-02-12	14:54:54.610	-7	4.27	10.325	0.014884	0.06344	0.959164	0.4095	0.225	-1.1895	0	265	496	1
2026-02-12	14:54:54.630	-15.925	10.57	14.56	0.011712	0.071736	0.976976	0.405	0.222	-1.188	0	265	496	1
2026-02-12	14:54:54.650	-19.355	15.295	16.73	-0.00488	0.08418	0.975024	0.4035	0.225	-1.182	0	265	496	1
2026-02-12	14:54:54.670	-18.935	16.66	16.03	-0.033916	0.110044	0.969168	0.3975	0.2205	-1.176	0	265	496	1
2026-02-12	14:54:54.690	-18.095	16.765	13.195	-0.073932	0.147132	0.951356	0.4065	0.2235	-1.185	0	265	496	1
2026-02-12	14:54:54.710	-20.37	13.79	10.675	-0.094428	0.173972	0.910852	0.414	0.222	-1.182	0	265	496	1
2026-02-12	14:54:54.730	-24.85	8.295	7.665	-0.112484	0.177632	0.909876	0.414	0.222	-1.182	0	265	496	1
2026-02-12	14:54:54.750	-28.56	2.135	4.305	-0.113948	0.159088	0.944768	0.417	0.231	-1.1745	0	265	496	1
2026-02-12	14:54:54.770	-28.49	0.175	1.96	-0.097844	0.141276	0.932568	0.42	0.2415	-1.1685	0	265	496	1
2026-02-12	14:54:54.790	-25.48	-0.105	0	-0.084424	0.135908	0.93696	0.4185	0.2415	-1.167	0	265	496	1
2026-02-12	14:54:54.810	-21.49	1.19	-1.155	-0.075396	0.14762	0.878156	0.423	0.2625	-1.167	0	343	637	1
2026-02-12	14:54:54.830	-21.245	-0.49	-1.085	-0.084668	0.148108	0.852292	0.432	0.2805	-1.167	0	343	637	1
2026-02-12	14:54:54.850	-23.485	-1.575	0.28	-0.0854	0.130052	0.854488	0.4305	0.2685	-1.167	0	343	637	1
2026-02-12	14:54:54.870	-23.835	0.315	1.925	-0.083692	0.105896	0.84668	0.429	0.258	-1.167	0	343	637	1
2026-02-12	14:54:54.890	-20.405	3.745	3.29	-0.08174	0.09516	0.825452	0.4305	0.2595	-1.173	0	343	637	1
2026-02-12	14:54:54.910	-15.645	4.795	3.185	-0.105408	0.085644	0.815936	0.432	0.2775	-1.179	0	343	637	1
2026-02-12	14:54:54.930	-11.445	3.465	2.345	-0.120292	0.073444	0.794464	0.4395	0.294	-1.176	0	343	637	1
2026-02-12	14:54:54.950	-7.7	-0.035	1.995	-0.129076	0.062464	0.77226	0.438	0.3	-1.1625	0	343	637	1
2026-02-12	14:54:54.970	-4.235	-5.6	2.555	-0.144936	0.0549	0.793976	0.4305	0.282	-1.1595	0	343	637	1
2026-02-12	14:54:54.990	7.98	-7.21	3.08	-0.157624	0.1159	1.371524	0.429	0.267	-1.1595	0	343	637	1
2026-02-12	14:54:55.010	26.46	-12.04	4.585	-0.175924	-0.034404	1.020408	0.438	0.2685	-1.1535	0	385	726	1
2026-02-12	14:54:55.030	30.94	-18.13	7.49	-0.197884	-0.010248	0.934032	0.438	0.276	-1.158	0	385	726	1
2026-02-12	14:54:55.050	31.08	-21.98	10.325	-0.18422	-0.103456	1.073356	0.4335	0.288	-1.164	0	385	726	1
2026-02-12	14:54:55.070	31.64	-25.935	13.93	-0.139812	-0.10004	1.259528	0.4305	0.2835	-1.17	0	385	726	1
2026-02-12	14:54:55.090	31.71	-25.025	18.585	-0.106628	-0.182268	1.199992	0.432	0.2835	-1.1655	0	385	726	1
2026-02-12	14:54:55.110	29.47	-19.39	24.92	-0.147132	-0.16836	1.237568	0.4335	0.2865	-1.161	0	385	726	1
2026-02-12	14:54:55.130	22.365	-19.425	31.465	-0.122976	-0.217648	1.220488	0.435	0.285	-1.1685	0	385	726	1
2026-02-12	14:54:55.150	10.92	-19.95	37.31	-0.08174	-0.242292	1.216828	0.435	0.2745	-1.167	0	385	726	1
2026-02-12	14:54:55.170	1.96	-21.175	44.625	-0.015128	-0.20496	1.230004	0.4275	0.2685	-1.1625	0	385	726	1
2026-02-12	14:54:55.190	-2.1	-18.62	49.91	-0.022204	-0.144692	1.187548	0.429	0.27	-1.1625	0	385	726	1
2026-02-12	14:54:55.210	-5.11	-16.555	52.255	-0.056364	-0.0976	1.162904	0.426	0.249	-1.1745	0	398	802	1
2026-02-12	14:54:55.230	-7.245	-9.17	54.425	-0.081496	-0.055388	1.076528	0.4215	0.2295	-1.1805	0	398	802	1
2026-02-12	14:54:55.250	-9.17	-2.555	55.895	-0.063196	-0.020496	1.009428	0.4215	0.2265	-1.179	0	398	802	1
2026-02-12	14:54:55.270	-8.225	-0.525	55.265	-0.023668	-0.007564	0.965996	0.423	0.225	-1.1805	0	398	802	1
2026-02-12	14:54:55.290	-2.03	-1.68	50.75	-0.026108	-0.013908	0.968924	0.42	0.225	-1.17	0	398	802	1
2026-02-12	14:54:55.310	6.615	-5.25	45.64	-0.0305	0.000976	1.023824	0.4185	0.222	-1.1595	0	398	802	1
2026-02-12	14:54:55.330	14.35	-4.41	41.755	-0.048556	0.00854	1.011136	0.426	0.2235	-1.1625	0	398	802	1
2026-02-12	14:54:55.350	14.63	-7.14	39.9	-0.025132	0.000244	0.990152	0.426	0.225	-1.1655	0	398	802	1
2026-02-12	14:54:55.370	10.43	-8.295	39.34	-0.01342	-0.017324	0.972828	0.4245	0.219	-1.1625	0	398	802	1
2026-02-12	14:54:55.390	5.215	-11.34	40.705	0.0305	-0.044408	0.97112	0.432	0.2145	-1.1655	0	398	802	1
2026-02-12	14:54:55.410	3.43	-11.48	43.295	0.033184	-0.0549	0.976732	0.4335	0.2145	-1.167	0	390	873	1
2026-02-12	14:54:55.430	3.745	-6.825	47.705	0.011224	-0.024644	0.941108	0.4365	0.228	-1.1775	0	390	873	1
2026-02-12	14:54:55.450	0.28	-2.835	53.62	-0.007808	0.075396	0.931104	0.447	0.2445	-1.188	0	390	873	1
2026-02-12	14:54:55.470	-5.95	-0.7	56.735	-0.038552	0.192272	0.981124	0.4485	0.246	-1.1775	0	390	873	1
2026-02-12	14:54:55.490	-8.82	-1.89	55.72	-0.084424	0.274256	0.915	0.4485	0.225	-1.1745	0	390	873	1
2026-02-12	14:54:55.510	-7.14	-2.905	52.605	-0.070028	0.201056	0.862784	0.447	0.1995	-1.1745	0	390	873	1
2026-02-12	14:54:55.530	-3.43	-3.745	54.985	-0.032208	0.171288	0.9333	0.4455	0.2025	-1.155	0	390	873	1
2026-02-12	14:54:55.550	0.35	-6.965	59.255	-0.026108	0.194956	1.016748	0.429	0.264	-1.086	0	390	873	1
2026-02-12	14:54:55.570	7.42	-6.65	52.99	-0.008052	0.14762	0.94794	0.4125	0.318	-1.0305	0	390	873	1
2026-02-12	14:54:55.590	7.805	-7.28	44.555	-0.086132	0.268644	0.983808	0.4125	0.318	-1.0305	0	390	873	1
2026-02-12	14:54:55.610	2.765	-8.05	35.385	-0.139812	0.381128	1.102392	0.4125	0.318	-1.0305	0	370	920	1
2026-02-12	14:54:55.630	13.195	-3.325	23.31	-0.091744	0.254736	1.08214	0.4125	0.318	-1.0305	0	370	920	1
2026-02-12	14:54:55.650	21.56	-7.035	15.505	-0.045384	0.272792	1.028704	0.3015	0.7935	-0.4275	0	370	920	1
2026-02-12	14:54:55.670	26.005	-7.7	2.275	-0.016104	0.198616	1.084092	0.2925	0.816	-0.408	0	370	920	1
2026-02-12	14:54:55.690	28.245	-10.465	-7.07	0.003904	0.091256	1.125084	0.294	0.8145	-0.414	0	370	920	1
2026-02-12	14:54:55.710	27.265	-8.505	-12.18	0.027816	0.031232	1.200724	0.2985	0.828	-0.4065	0	370	920	1
2026-02-12	14:54:55.730	19.46	-7.84	-14.735	0.051972	-0.014396	1.335168	0.291	0.8085	-0.399	0	370	920	1
2026-02-12	14:54:55.750	9.66	-1.365	-17.115	0.074908	0.006832	1.403976	0.267	0.7875	-0.438	0	370	920	1
2026-02-12	14:54:55.770	-8.855	3.01	-18.865	0.068076	0.036356	1.33224	0.288	0.795	-0.438	0	370	920	1
2026-02-12	14:54:55.790	-27.79	3.675	-20.58	0.068076	0.042212	1.19682	0.288	0.795	-0.438	0	370	920	1
2026-02-12	14:54:55.810	-31.045	6.93	-23.135	0.049532	0.0549	1.021384	0.288	0.795	-0.438	0	344	959	1
2026-02-12	14:54:55.830	-23.1	13.86	-25.62	0.038796	0.10004	0.893772	0.288	0.795	-0.438	0	344	959	1
2026-02-12	14:54:55.850	-12.495	21.07	-29.33	0.036112	0.130052	0.770308	0.279	0.7995	-0.435	0	344	959	1
2026-02-12	14:54:55.870	-7.175	17.22	-32.41	0.080276	0.117608	0.754204	0.276	0.8055	-0.4305	0	344	959	1
2026-02-12	14:54:55.890	-8.05	10.15	-32.865	0.126636	0.023424	0.85522	0.282	0.813	-0.4275	0	344	959	1
2026-02-12	14:54:55.910	-3.815	8.82	-32.06	0.137128	-0.056608	0.97966	0.282	0.8205	-0.429	0	344	959	1
2026-02-12	14:54:55.930	-1.54	11.025	-31.955	0.107116	-0.04758	1.014796	0.2805	0.819	-0.4305	0	344	959	1
2026-02-12	14:54:55.950	-1.435	11.445	-32.585	0.063196	-0.011224	1.008208	0.279	0.819	-0.429	0	344	959	1
2026-02-12	14:54:55.970	-7.245	7.875	-34.51	0.02806	0.017324	0.946232	0.2775	0.8295	-0.4155	0	344	959	1
2026-02-12	14:54:55.990	-14.56	0.665	-37.24	0.029524	0.033672	0.865468	0.276	0.8325	-0.411	0	344	959	1
2026-02-12	14:54:56.010	-16.03	-4.655	-40.81	0.0305	0.058804	0.826916	0.2745	0.828	-0.417	0	319	986	1
2026-02-12	14:54:56.030	-13.58	-9.135	-44.52	0.031232	0.075884	0.848876	0.273	0.8295	-0.4185	0	319	986	1
2026-02-12	14:54:56.050	-11.235	-12.74	-47.11	0.033428	0.07515199	0.873276	0.2715	0.828	-0.42	0	319	986	1
2026-02-12	14:54:56.070	-9.695	-15.4	-47.95	0.026108	0.07905599	0.916708	0.27	0.846	-0.414	0	319	986	1
2026-02-12	14:54:56.090	-8.365	-13.79	-46.655	0.027084	0.084668	0.958432	0.2625	0.8655	-0.4035	0	319	986	1
2026-02-12	14:54:56.110	-7.735	-10.85	-42.91	0.024156	0.095648	0.97844	0.2565	0.8595	-0.4095	0	319	986	1
2026-02-12	14:54:56.130	-7.875	-6.79	-37.1	0.022936	0.08174	1.007476	0.255	0.8535	-0.4185	0	319	986	1
2026-02-12	14:54:56.150	-7.7	-1.435	-30.45	0.008784	0.074664	1.033584	0.2505	0.8535	-0.4125	0	319	986	1
2026-02-12	14:54:56.170	-5.985	3.815	-24.605	0.002684	0.05856	1.040172	0.2475	0.8655	-0.408	0	319	986	1
2026-02-12	14:54:56.190	-1.96	8.085	-21.035	-0.00732	0.02562	1.053348	0.249	0.882	-0.408	0	319	986	1
2026-02-12	14:54:56.210	3.745	11.445	-19.355	-0.020008	0.005124	1.08092	0.246	0.882	-0.4065	0	295	994	1
2026-02-12	14:54:56.230	9.135	12.705	-18.69	-0.020984	-0.016104	1.103124	0.2415	0.867	-0.414	0	295	994	1
2026-02-12	14:54:56.250	13.685	11.865	-17.64	-0.004148	-0.050996	1.140944	0.2445	0.8535	-0.417	0	295	994	1
2026-02-12	14:54:56.270	17.99	10.955	-14.875	-0.002684	-0.069296	1.160708	0.249	0.849	-0.4065	0	295	994	1
2026-02-12	14:54:56.290	20.72	8.12	-10.605	-0.032208	-0.037088	1.162904	0.2385	0.8475	-0.42	0	295	994	1
2026-02-12	14:54:56.310	19.635	1.61	-6.65	-0.068076	-0.0183	1.187304	0.2355	0.843	-0.4185	0	295	994	1
2026-02-12	14:54:56.330	14.42	-8.435	-3.185	-0.068076	-0.044164	1.231956	0.252	0.837	-0.408	0	295	994	1
2026-02-12	14:54:56.350	9.8	-18.025	0.385	-0.056608	-0.074908	1.238544	0.249	0.84	-0.4155	0	295	994	1
2026-02-12	14:54:56.370	8.435	-22.925	4.62	-0.045872	-0.07124799	1.206824	0.2415	0.8385	-0.4125	0	295	994	1
2026-02-12	14:54:56.390	10.255	-22.995	9.87	-0.038796	-0.095892	1.118252	0.2385	0.834	-0.408	0	295	994	1
2026-02-12	14:54:56.410	14.735	-18.795	14.945	-0.042944	-0.11956	1.005524	0.2415	0.837	-0.4125	0	272	1008	1
2026-02-12	14:54:56.430	18.655	-10.08	18.165	-0.048068	-0.118096	0.861564	0.237	0.84	-0.4215	0	272	1008	1
2026-02-12	14:54:56.450	18.83	-7	19.565	-0.02806	-0.127368	0.827892	0.24	0.837	-0.4215	0	272	1008	1
2026-02-12	14:54:56.470	16.24	-5.565	20.93	0.023912	-0.167628	0.870592	0.2415	0.831	-0.423	0	272	1008	1
2026-02-12	14:54:56.490	12.425	-6.23	23.52	0.056852	-0.208132	0.999668	0.237	0.828	-0.4305	0	272	1008	1
2026-02-12	14:54:56.510	8.12	-4.935	26.81	0.05002	-0.188368	1.037976	0.2445	0.8415	-0.4245	0	272	1008	1
2026-02-12	14:54:56.530	4.305	-6.685	29.54	0.030744	-0.111508	1.024312	0.2475	0.8535	-0.423	0	272	1008	1
2026-02-12	14:54:56.550	0.735	-8.54	30.835	0.004636	-0.019764	0.969412	0.246	0.8505	-0.429	0	272	1008	1
2026-02-12	14:54:56.570	-3.955	-11.305	31.605	-0.019276	0.048556	0.887916	0.243	0.8355	-0.4275	0	272	1008	1
2026-02-12	14:54:56.590	-6.65	-16.24	32.34	-0.041236	0.09638	0.827404	0.2415	0.822	-0.4275	0	272	1008	1
2026-02-12	14:54:56.610	-5.075	-16.135	31.43	-0.072468	0.145912	0.79422	0.2445	0.819	-0.4275	0	253	1020	1
2026-02-12	14:54:56.630	-3.115	-16.38	29.855	-0.060756	0.142252	0.839848	0.243	0.825	-0.4215	0	253	1020	1
2026-02-12	14:54:56.650	-0.735	-13.09	27.825	-0.038796	0.139324	0.89182	0.243	0.834	-0.4215	0	253	1020	1
2026-02-12	14:54:56.670	0.63	-9.52	25.515	-0.025864	0.145668	0.937204	0.2475	0.8385	-0.4305	0	253	1020	1
2026-02-12	14:54:56.690	0.56	-6.055	22.645	-0.022204	0.156648	0.968192	0.255	0.837	-0.423	0	253	1020	1
2026-02-12	14:54:56.710	-0.77	-3.01	18.935	-0.028304	0.179828	0.990396	0.2595	0.834	-0.4095	0	253	1020	1
2026-02-12	14:54:56.730	-2.695	-0.98	14.49	-0.019764	0.179828	1.015772	0.261	0.8355	-0.414	0	253	1020	1
2026-02-12	14:54:56.750	-3.535	1.47	9.73	-0.00976	0.161284	1.04188	0.2625	0.834	-0.4155	0	253	1020	1
2026-02-12	14:54:56.770	-2.275	4.935	5.39	-0.004148	0.15616	1.05652	0.2625	0.831	-0.411	0	253	1020	1
2026-02-12	14:54:56.790	1.82	9.625	1.89	-0.00122	0.15494	1.073844	0.261	0.8355	-0.408	0	253	1020	1
2026-02-12	14:54:56.810	7.7	14.14	-0.42	0.016348	0.152744	1.0919	0.261	0.8325	-0.4035	0	237	1019	1
2026-02-12	14:54:56.830	12.53	15.61	-2.345	0.039528	0.136396	1.106052	0.2655	0.8265	-0.4005	0	237	1019	1
2026-02-12	14:54:56.850	16.8	13.72	-5.215	0.0488	0.125172	1.124352	0.2685	0.8265	-0.399	0	237	1019	1
2026-02-12	14:54:56.870	18.83	10.43	-10.15	0.047336	0.10858	1.17852	0.2685	0.8265	-0.399	0	237	1019	1
2026-02-12	14:54:56.890	17.465	6.79	-15.015	0.04026	0.091256	1.219756	0.252	0.807	-0.4305	0	237	1019	1
2026-02-12	14:54:56.910	12.18	0.735	-19.635	0.056364	0.051728	1.23464	0.252	0.807	-0.4305	0	237	1019	1
2026-02-12	14:54:56.930	6.16	-1.82	-24.885	0.055388	0.056608	1.254404	0.267	0.801	-0.4335	0	237	1019	1
2026-02-12	14:54:56.950	-0.805	-3.115	-28.735	0.0427	0.117852	1.23464	0.258	0.801	-0.4365	0	237	1019	1
2026-02-12	14:54:56.970	-9.695	-5.005	-32.235	0.022448	0.148108	1.191452	0.249	0.7965	-0.4245	0	237	1019	1
2026-02-12	14:54:56.990	-14.945	-6.825	-35.56	0.024644	0.104676	1.124352	0.249	0.7965	-0.4245	0	237	1019	1
2026-02-12	14:54:57.010	-9.45	0.875	-38.71	0.047824	0.074176	1.021872	0.249	0.7965	-0.4245	0	224	1029	1
2026-02-12	14:54:57.030	-1.68	12.25	-41.02	0.071492	0.065148	0.908168	0.252	0.8055	-0.432	0	224	1029	1
2026-02-12	14:54:57.050	0.875	17.395	-41.93	0.120292	0.059048	0.844728	0.255	0.8115	-0.432	0	224	1029	1
2026-02-12	14:54:57.070	0.98	20.58	-42.315	0.171776	0.023424	0.842044	0.252	0.825	-0.423	0	224	1029	1
2026-02-12	14:54:57.090	2.625	22.645	-42.525	0.19032	-0.025376	0.914756	0.2535	0.8265	-0.426	0	224	1029	1
2026-02-12	14:54:57.110	3.115	24.185	-42.735	0.177876	-0.039284	0.965996	0.261	0.813	-0.4305	0	224	1029	1
2026-02-12	14:54:57.130	-0.42	21.77	-43.085	0.14396	-0.018056	0.959164	0.2625	0.8175	-0.4305	0	224	1029	1
2026-02-12	14:54:57.150	-4.725	17.185	-44.135	0.097112	0.012444	0.918904	0.261	0.819	-0.4305	0	224	1029	1
2026-02-12	14:54:57.170	-7.315	10.465	-46.235	0.046604	0.047824	0.85644	0.2565	0.8235	-0.432	0	224	1029	1
2026-02-12	14:54:57.190	-7.455	4.41	-48.72	0.013664	0.07515199	0.808128	0.255	0.8415	-0.4275	0	224	1029	1
2026-02-12	14:54:57.210	-7.735	-0.77	-50.19	0.016836	0.078324	0.80886	0.2535	0.852	-0.4215	0	215	1035	1
2026-02-12	14:54:57.230	-8.365	-5.18	-49.49	0.0244	0.082228	0.820816	0.2505	0.852	-0.414	0	215	1035	1
2026-02-12	14:54:57.250	-8.645	-7.805	-47.04	0.02074	0.083448	0.847412	0.252	0.852	-0.402	0	215	1035	1
2026-02-12	14:54:57.270	-8.26	-9.065	-43.82	0.012444	0.077836	0.902312	0.258	0.8505	-0.3975	0	215	1035	1
2026-02-12	14:54:57.290	-7.14	-9.03	-40.11	0.015372	0.076372	0.942572	0.2565	0.852	-0.393	0	215	1035	1
2026-02-12	14:54:57.310	-5.53	-7.7	-36.505	0.005856	0.0793	0.977952	0.2505	0.8595	-0.39	0	215	1035	1
2026-02-12	14:54:57.330	-4.27	-6.44	-32.83	-0.008784	0.084912	0.995032	0.2475	0.867	-0.3915	0	215	1035	1
2026-02-12	14:54:57.350	-2.73	-5.425	-29.26	-0.016836	0.082716	1.004304	0.2355	0.855	-0.4185	0	215	1035	1
2026-02-12	14:54:57.370	0.525	-3.535	-26.355	-0.02684	0.08662	1.009428	0.2295	0.84	-0.4275	0	215	1035	1
2026-02-12	14:54:57.390	5.32	-1.645	-24.325	-0.036844	0.090036	1.017968	0.2265	0.834	-0.4065	0	215	1035	1
2026-02-12	14:54:57.410	10.115	0.21	-22.785	-0.033428	0.093208	1.035536	0.228	0.8385	-0.4125	0	206	1026	1
2026-02-12	14:54:57.430	14.42	1.365	-21.21	-0.01708	0.092232	1.078968	0.2325	0.846	-0.423	0	206	1026	1
2026-02-12	14:54:57.450	17.92	2.415	-19.81	-0.008296	0.048068	1.154364	0.2265	0.843	-0.4185	0	206	1026	1
2026-02-12	14:54:57.470	18.83	1.995	-19.425	-0.031232	0.032696	1.195844	0.2265	0.8355	-0.4155	0	206	1026	1
2026-02-12	14:54:57.490	12.6	-3.255	-20.58	-0.053192	0.028548	1.243668	0.2325	0.831	-0.4215	0	206	1026	1
2026-02-12	14:54:57.510	-1.155	-13.51	-22.015	-0.005368	-0.050264	1.267092	0.234	0.8325	-0.4215	0	206	1026	1
2026-02-12	14:54:57.530	-13.755	-22.645	-22.26	0.07686	-0.160552	1.273192	0.231	0.828	-0.42	0	206	1026	1
2026-02-12	14:54:57.550	-17.15	-22.855	-22.33	0.100284	-0.177876	1.218536	0.219	0.831	-0.4155	0	206	1026	1
2026-02-12	14:54:57.570	-19.495	-22.785	-20.545	0.09394	-0.179584	1.098244	0.213	0.8385	-0.414	0	206	1026	1
2026-02-12	14:54:57.590	-18.55	-19.285	-17.5	0.070516	-0.165188	0.974048	0.2115	0.8415	-0.417	0	206	1026	1
2026-02-12	14:54:57.610	-11.025	-9.205	-15.05	0.03782	-0.154208	0.837164	0.207	0.8445	-0.411	0	199	1028	1
2026-02-12	14:54:57.630	-3.36	-5.495	-11.48	0.046116	-0.166164	0.839604	0.2055	0.8475	-0.4095	0	199	1028	1
2026-02-12	14:54:57.650	4.62	-1.015	-6.93	0.061244	-0.199348	0.950136	0.2085	0.846	-0.417	0	199	1028	1
2026-02-12	14:54:57.670	8.295	-0.28	-0.665	0.071004	-0.227164	1.0614	0.204	0.8595	-0.4125	0	199	1028	1
2026-02-12	14:54:57.690	8.225	-5.285	6.685	0.061	-0.222284	1.095804	0.201	0.8775	-0.408	0	199	1028	1
2026-02-12	14:54:57.710	7.175	-13.265	13.86	0.020984	-0.167628	1.064328	0.2055	0.873	-0.4095	0	199	1028	1
2026-02-12	14:54:57.730	7	-20.93	19.11	-0.025864	-0.084668	1.00162	0.207	0.852	-0.4095	0	199	1028	1
2026-02-12	14:54:57.750	8.855	-23.73	21.77	-0.043676	-0.037576	0.960384	0.2085	0.84	-0.4095	0	199	1028	1
2026-02-12	14:54:57.770	10.01	-23.485	24.08	-0.054656	-0.011712	0.934032	0.207	0.84	-0.4125	0	199	1028	1
2026-02-12	14:54:57.790	8.995	-19.145	26.215	-0.064172	0.013908	0.926956	0.2085	0.8445	-0.4125	0	199	1028	1
2026-02-12	14:54:57.810	7.77	-12.775	27.65	-0.062464	0.028792	0.945988	0.2115	0.8565	-0.411	0	193	1035	1
2026-02-12	14:54:57.830	8.96	-2.975	27.335	-0.060512	0.062952	0.979904	0.21	0.8505	-0.4095	0	193	1035	1
2026-02-12	14:54:57.850	10.01	6.895	25.55	-0.059536	0.097844	0.992348	0.213	0.846	-0.4005	0	193	1035	1
2026-02-12	14:54:57.870	8.61	12.705	23.52	-0.05002	0.119804	1.011136	0.213	0.837	-0.405	0	193	1035	1
2026-02-12	14:54:57.890	7.035	16.695	21.07	-0.052216	0.142496	1.007964	0.207	0.825	-0.4185	0	193	1035	1
2026-02-12	14:54:57.910	6.72	19.6	17.99	-0.058072	0.16836	1.00162	0.2055	0.825	-0.4215	0	193	1035	1
2026-02-12	14:54:57.930	8.19	20.335	14.91	-0.046116	0.18056	1.01992	0.2055	0.825	-0.4215	0	193	1035	1
2026-02-12	14:54:57.950	10.955	21.91	12.495	-0.052216	0.178852	1.031144	0.219	0.8385	-0.414	0	193	1035	1
2026-02-12	14:54:57.970	14.98	24.185	10.29	-0.056852	0.189588	1.04798	0.219	0.8385	-0.414	0	193	1035	1
2026-02-12	14:54:57.990	21.455	27.895	8.12	-0.065392	0.2074	1.062132	0.2265	0.8415	-0.423	0	193	1035	1
2026-02-12	14:54:58.010	30.765	32.9	5.88	-0.073688	0.239364	1.084336	0.2265	0.8415	-0.423	0	189	1038	1
2026-02-12	14:54:58.030	35.105	33.215	3.43	-0.0671	0.22692	1.102148	0.2325	0.81	-0.426	0	189	1038	1
2026-02-12	14:54:58.050	39.06	29.26	-1.47	-0.04636	0.18178	1.155584	0.2415	0.7965	-0.4155	0	189	1038	1
2026-02-12	14:54:58.070	40.04	26.565	-8.4	-0.027572	0.140544	1.19926	0.2505	0.7905	-0.438	0	189	1038	1
2026-02-12	14:54:58.090	34.475	19.53	-14.35	0.008052	0.09882	1.212192	0.2505	0.78	-0.4395	0	189	1038	1
2026-02-12	14:54:58.110	26.04	13.58	-18.165	0.029036	0.091988	1.194624	0.2565	0.783	-0.4335	0	189	1038	1
2026-02-12	14:54:58.130	17.885	8.19	-21	0.034404	0.119072	1.185108	0.2565	0.7815	-0.4395	0	189	1038	1
2026-02-12	14:54:58.150	11.445	3.15	-24.675	0.024888	0.138348	1.117032	0.2565	0.7665	-0.4335	0	189	1038	1
2026-02-12	14:54:58.170	8.645	-2.03	-29.54	0.02318	0.1098	1.050908	0.261	0.774	-0.4395	0	189	1038	1
2026-02-12	14:54:58.190	14.105	3.605	-35.35	0.034892	0.11224	0.967704	0.2505	0.774	-0.429	0	189	1038	1
2026-02-12	14:54:58.210	19.075	13.23	-40.005	0.05368	0.134688	0.837652	0.2445	0.774	-0.444	0	186	1046	1
2026-02-12	14:54:58.230	19.39	15.505	-41.3	0.082228	0.145912	0.825208	0.252	0.7725	-0.4395	0	186	1046	1
2026-02-12	14:54:58.250	15.4	21.84	-41.125	0.088328	0.12688	0.871812	0.2535	0.7635	-0.441	0	186	1046	1
2026-02-12	14:54:58.270	10.78	22.82	-40.285	0.069052	0.101504	0.93086	0.255	0.7665	-0.4395	0	186	1046	1
2026-02-12	14:54:58.290	5.25	21.595	-41.055	0.016592	0.10492	0.951356	0.2595	0.768	-0.4425	0	186	1046	1
2026-02-12	14:54:58.310	0.035	16.695	-43.61	-0.027816	0.108092	0.930616	0.2625	0.789	-0.435	0	186	1046	1
2026-02-12	14:54:58.330	-3.99	8.855	-45.955	-0.046116	0.109556	0.891332	0.264	0.792	-0.4335	0	186	1046	1
2026-02-12	14:54:58.350	-7.245	2.415	-46.655	-0.057096	0.108824	0.837408	0.2595	0.771	-0.4395	0	186	1046	1
2026-02-12	14:54:58.370	-11.305	-5.95	-44.065	-0.049288	0.09028	0.818132	0.27	0.7785	-0.4425	0	186	1046	1
2026-02-12	14:54:58.390	-14.28	-8.96	-39.55	-0.046604	0.088328	0.793244	0.27	0.7785	-0.4425	0	186	1046	1
2026-02-12	14:54:58.410	-17.115	-11.095	-33.985	-0.049776	0.090036	0.802028	0.27	0.7785	-0.4425	0	183	1043	1
2026-02-12	14:54:58.430	-18.235	-11.375	-28.98	-0.054412	0.091256	0.833016	0.27	0.7785	-0.4425	0	183	1043	1
2026-02-12	14:54:58.450	-17.08	-11.305	-25.235	-0.063928	0.11102	0.875228	0.261	0.7905	-0.4395	0	183	1043	1
2026-02-12	14:54:58.470	-15.225	-11.48	-22.12	-0.06588	0.125416	0.903776	0.2535	0.8115	-0.4425	0	183	1043	1
2026-02-12	14:54:58.490	-12.81	-11.62	-18.725	-0.072956	0.138836	0.925248	0.252	0.8145	-0.4455	0	183	1043	1
2026-02-12	14:54:58.510	-9.66	-12.39	-14.91	-0.078568	0.162992	0.927932	0.2505	0.8085	-0.4425	0	183	1043	1
2026-02-12	14:54:58.530	-6.125	-13.265	-11.515	-0.09467199	0.183	0.9394	0.2505	0.813	-0.4425	0	183	1043	1
2026-02-12	14:54:58.550	-2.205	-15.26	-9.135	-0.100772	0.19276	0.964044	0.2445	0.8115	-0.444	0	183	1043	1
2026-02-12	14:54:58.570	2.625	-17.465	-7.735	-0.097844	0.18178	0.996496	0.2355	0.804	-0.438	0	183	1043	1
2026-02-12	14:54:58.590	9.205	-19.565	-6.51	-0.083448	0.159332	1.041148	0.2325	0.8085	-0.441	0	183	1043	1
2026-02-12	14:54:58.610	16.765	-20.965	-4.41	-0.056852	0.11468	1.098488	0.234	0.819	-0.4515	0	179	1024	1
2026-02-12	14:54:58.630	22.26	-22.54	-0.595	-0.044164	0.093208	1.142652	0.2235	0.8175	-0.4515	0	179	1024	1
2026-02-12	14:54:58.650	22.785	-28.49	4.55	-0.050996	0.09857599	1.164368	0.219	0.8115	-0.4515	0	179	1024	1
2026-02-12	14:54:58.670	19.25	-34.58	8.785	-0.081252	0.1342	1.201944	0.228	0.8115	-0.453	0	179	1024	1
2026-02-12	14:54:58.690	10.57	-43.295	10.885	-0.090524	0.113948	1.30296	0.2265	0.8025	-0.4605	0	179	1024	1
2026-02-12	14:54:58.710	-0.455	-49.875	11.655	-0.048068	0.033916	1.421056	0.2205	0.7995	-0.462	0	179	1024	1
2026-02-12	14:54:58.730	-6.965	-48.72	13.09	0.014396	-0.02806	1.413248	0.216	0.8025	-0.456	0	179	1024	1
2026-02-12	14:54:58.750	-8.26	-36.225	15.435	0.03538	-0.035624	1.2749	0.2055	0.8025	-0.4635	0	179	1024	1
2026-02-12	14:54:58.770	-7.42	-21.7	18.48	0.056364	-0.04392	1.064328	0.198	0.7995	-0.465	0	179	1024	1
2026-02-12	14:54:58.790	-3.57	-1.75	19.32	0.070028	-0.061244	0.893528	0.1995	0.804	-0.4575	0	179	1024	1
2026-02-12	14:54:58.810	-0.245	12.74	17.64	0.07515199	-0.075396	0.787632	0.1995	0.8085	-0.4605	0	176	1025	1
2026-02-12	14:54:58.830	3.955	18.165	14.42	0.109556	-0.081008	0.784948	0.198	0.8025	-0.4605	0	176	1025	1
2026-02-12	14:54:58.850	10.78	25.2	9.17	0.141276	-0.101992	0.909876	0.1995	0.8145	-0.45	0	176	1025	1
2026-02-12	14:54:58.870	15.505	27.545	6.125	0.127368	-0.09516	1.003572	0.2025	0.822	-0.447	0	176	1025	1
2026-02-12	14:54:58.890	9.31	28.525	6.195	0.104676	-0.064904	1.070428	0.2085	0.8205	-0.4455	0	176	1025	1
2026-02-12	14:54:58.910	-6.125	21.28	9.835	0.068808	-0.022204	1.039928	0.2145	0.819	-0.4335	0	176	1025	1
2026-02-12	14:54:58.930	-20.44	9.31	14.49	0.038308	0.023424	1.012844	0.225	0.813	-0.4305	0	176	1025	1
2026-02-12	14:54:58.950	-26.11	3.115	16.59	-0.028792	0.062708	0.911828	0.225	0.8175	-0.4335	0	176	1025	1
2026-02-12	14:54:58.970	-26.95	-5.565	16.345	-0.068808	0.116876	0.812032	0.2205	0.822	-0.4335	0	176	1025	1
2026-02-12	14:54:58.990	-25.375	-12.74	13.72	-0.106872	0.173972	0.7198	0.2205	0.822	-0.4335	0	176	1025	1
2026-02-12	14:54:59.010	-27.335	-18.83	9.345	-0.140056	0.22448	0.76738	0.2325	0.8325	-0.426	0	176	1030	1
2026-02-12	14:54:59.030	-32.76	-20.405	6.895	-0.142252	0.193492	0.83936	0.2325	0.8325	-0.426	0	176	1030	1
2026-02-12	14:54:59.050	-29.505	-18.795	2.52	-0.109556	0.167384	1.032364	0.231	0.84	-0.4215	0	176	1030	1
2026-02-12	14:54:59.070	-26.985	-9.275	-0.84	-0.039528	0.147132	1.152168	0.2265	0.8385	-0.42	0	176	1030	1
2026-02-12	14:54:59.090	-21.7	-3.325	-2.45	-0.015616	0.173972	1.20658	0.231	0.837	-0.426	0	176	1030	1
2026-02-12	14:54:59.110	-12.6	3.78	-4.305	-0.01952	0.244244	1.16632	0.222	0.849	-0.4245	0	176	1030	1
2026-02-12	14:54:59.130	-2.135	8.785	-8.225	-0.025376	0.251808	1.153876	0.231	0.852	-0.423	0	176	1030	1
2026-02-12	14:54:59.150	8.855	10.29	-13.475	-0.021472	0.263276	1.12484	0.213	0.831	-0.4455	0	176	1030	1
2026-02-12	14:54:59.170	20.65	11.83	-19.705	0.045628	0.234484	1.109956	0.2145	0.8325	-0.45	0	176	1030	1
2026-02-12	14:54:59.190	33.95	15.4	-26.775	0.0427	0.182268	1.11996	0.2265	0.831	-0.438	0	176	1030	1
2026-02-12	14:54:59.210	43.47	24.71	-36.715	-0.03294	0.186904	1.146068	0.2265	0.831	-0.438	0	177	1033	1
2026-02-12	14:54:59.230	42.875	28.945	-42.805	-0.055876	0.108336	1.180716	0.2235	0.8055	-0.4425	0	177	1033	1
2026-02-12	14:54:59.250	40.845	38.08	-50.155	-0.089548	0.028792	1.14802	0.2265	0.8085	-0.4455	0	177	1033	1
2026-02-12	14:54:59.270	36.925	42.56	-54.985	-0.133712	0.042212	1.053348	0.2175	0.792	-0.438	0	177	1033	1
2026-02-12	14:54:59.290	29.855	37.38	-56.105	-0.14518	0.081008	0.9577	0.225	0.7935	-0.45	0	177	1033	1
2026-02-12	14:54:59.310	23.31	20.545	-52.115	-0.11834	0.0793	0.910364	0.237	0.789	-0.444	0	177	1033	1
2026-02-12	14:54:59.330	23.38	0.14	-45.325	-0.108336	0.07905599	0.91256	0.234	0.792	-0.4365	0	177	1033	1
2026-02-12	14:54:59.350	25.27	-18.9	-38.08	-0.095892	0.084668	0.975512	0.2265	0.786	-0.438	0	177	1033	1
2026-02-12	14:54:59.370	25.585	-32.515	-31.955	-0.063684	0.01708	1.070428	0.234	0.7845	-0.4395	0	177	1033	1
2026-02-12	14:54:59.390	27.265	-30.765	-28.14	-0.045628	0.022936	1.041148	0.222	0.7725	-0.4425	0	177	1033	1
2026-02-12	14:54:59.410	26.04	-22.12	-25.935	-0.019276	0.064172	0.929152	0.222	0.78	-0.4485	0	179	1040	1
2026-02-12	14:54:59.430	22.015	-13.475	-24.43	0.018544	0.105164	0.83448	0.2115	0.8025	-0.4395	0	179	1040	1
2026-02-12	14:54:59.450	15.085	-6.79	-23.1	0.053192	0.098088	0.821792	0.2175	0.795	-0.4455	0	179	1040	1
2026-02-12	14:54:59.470	8.26	-4.375	-20.335	0.078324	0.070028	0.909876	0.2085	0.7725	-0.453	0	179	1040	1
2026-02-12	14:54:59.490	2.065	-1.995	-17.57	0.06466	0.07564	0.964776	0.2145	0.771	-0.456	0	179	1040	1
2026-02-12	14:54:59.510	-5.355	-2.38	-16.73	0.026352	0.117852	0.99674	0.207	0.777	-0.4575	0	179	1040	1
2026-02-12	14:54:59.530	-14	-7.175	-17.465	0.017324	0.087596	1.0492	0.207	0.801	-0.4515	0	179	1040	1
2026-02-12	14:54:59.550	-20.545	-13.125	-18.165	0.01708	0.032452	1.032852	0.207	0.801	-0.4455	0	179	1040	1
2026-02-12	14:54:59.570	-23.73	-13.825	-18.025	-0.006832	0.028304	0.963068	0.2055	0.804	-0.4305	0	179	1040	1
2026-02-12	14:54:59.590	-27.755	-14.91	-16.24	-0.031232	0.043188	0.819108	0.204	0.8025	-0.42	0	179	1040	1
2026-02-12	14:54:59.610	-30.38	-19.04	-13.545	-0.046848	0.0671	0.752252	0.2085	0.801	-0.42	0	179	1035	1
2026-02-12	14:54:59.630	-30.8	-18.9	-10.885	-0.040748	0.074176	0.767136	0.201	0.81	-0.4155	0	179	1035	1
2026-02-12	14:54:59.650	-28.91	-16.975	-7.35	-0.00732	0.072468	0.839116	0.2025	0.8175	-0.4215	0	179	1035	1
2026-02-12	14:54:59.670	-26.145	-14	-3.01	0.00366	0.097112	0.92964	0.1965	0.8205	-0.411	0	179	1035	1
2026-02-12	14:54:59.690	-24.815	-11.865	1.015	0.00244	0.136396	0.974292	0.1875	0.8295	-0.4185	0	179	1035	1
2026-02-12	14:54:59.710	-23.45	-10.605	3.43	-0.009028	0.17934	1.009916	0.198	0.831	-0.4095	0	179	1035	1
2026-02-12	14:54:59.730	-22.365	-8.96	4.585	0.002928	0.177876	1.001864	0.1845	0.8355	-0.4095	0	179	1035	1
2026-02-12	14:54:59.750	-20.545	-8.4	4.62	0	0.175192	1.005524	0.189	0.822	-0.453	0	179	1035	1
2026-02-12	14:54:59.770	-16.38	-5.25	3.465	-0.01586	0.163724	0.986004	0.174	0.819	-0.4245	0	179	1035	1
2026-02-12	14:54:59.790	-11.06	-4.025	2.52	0.001952	0.121268	1.012844	0.174	0.819	-0.4245	0	179	1035	1
2026-02-12	14:54:59.810	-6.02	-2.835	3.185	0.05612	0.045872	1.114592	0.174	0.819	-0.4245	0	177	1022	1
2026-02-12	14:54:59.830	-2.275	-3.57	5.355	0.083448	0.003904	1.203652	0.174	0.819	-0.4245	0	177	1022	1
2026-02-12	14:54:59.850	0.455	-9.135	7.175	0.057096	0.020252	1.254648	0.1725	0.8265	-0.423	0	177	1022	1
2026-02-12	14:54:59.870	-0.175	-15.295	6.545	0.017324	0.033672	1.290272	0.174	0.837	-0.4305	0	177	1022	1
2026-02-12	14:54:59.890	-5.355	-27.545	3.395	0.02928	-0.027084	1.341024	0.1785	0.837	-0.438	0	177	1022	1
2026-02-12	14:54:59.910	-6.93	-34.475	-1.225	0.076372	-0.103212	1.370548	0.1725	0.834	-0.4365	0	177	1022	1
2026-02-12	14:54:59.930	-2.66	-32.97	-4.165	0.112728	-0.1647	1.362984	0.162	0.8355	-0.4365	0	177	1022	1
2026-02-12	14:54:59.950	2.765	-24.78	-3.045	0.088816	-0.160308	1.155828	0.159	0.8355	-0.4335	0	177	1022	1
2026-02-12	14:54:59.970	9.17	-12.11	-0.105	0.049044	-0.122244	0.99918	0.1605	0.8355	-0.4305	0	177	1022	1
2026-02-12	14:54:59.990	18.235	7.875	1.645	0.017812	-0.067832	0.819108	0.1575	0.837	-0.435	0	177	1022	1
2026-02-12	14:55:00.010	22.61	17.71	3.36	0.047092	-0.073688	0.834724	0.159	0.8415	-0.432	0	174	1029	1
2026-02-12	14:55:00.030	24.955	21.77	6.23	0.087596	-0.100528	0.970632	0.165	0.8475	-0.4245	0	174	1029	1
2026-02-12	14:55:00.050	25.27	23.8	10.465	0.127856	-0.124684	1.044808	0.162	0.849	-0.4455	0	174	1029	1
2026-02-12	14:55:00.070	21.875	20.685	15.82	0.116388	-0.105408	1.107272	0.162	0.834	-0.4395	0	174	1029	1
2026-02-12	14:55:00.090	19.145	16.73	18.235	0.105652	-0.0854	1.07848	0.162	0.834	-0.4395	0	174	1029	1
2026-02-12	14:55:00.110	12.74	3.99	22.015	0.039772	-0.014396	0.974048	0.174	0.816	-0.444	0	174	1029	1
2026-02-12	14:55:00.130	11.445	0.595	21.665	0.004636	0.029036	0.880108	0.174	0.816	-0.444	0	174	1029	1
2026-02-12	14:55:00.150	9.94	-5.81	19.74	-0.04026	0.080276	0.787388	0.1755	0.84	-0.4365	0	174	1029	1
2026-02-12	14:55:00.170	7.595	-12.635	17.64	-0.0488	0.10492	0.748592	0.1725	0.8415	-0.441	0	174	1029	1
2026-02-12	14:55:00.190	4.725	-15.33	15.75	-0.040992	0.108824	0.798612	0.1725	0.8385	-0.435	0	174	1029	1
2026-02-12	14:55:00.210	5.985	-11.935	14.315	-0.033428	0.122976	0.916464	0.1725	0.8385	-0.435	0	174	1038	1
2026-02-12	14:55:00.230	7.42	-7.21	13.79	-0.050508	0.144448	0.954772	0.1725	0.8145	-0.4455	0	174	1038	1
2026-02-12	14:55:00.250	6.16	-1.295	12.88	-0.06734399	0.187636	1.007476	0.177	0.816	-0.4485	0	174	1038	1
2026-02-12	14:55:00.270	3.885	2.87	11.83	-0.080032	0.199592	1.013332	0.174	0.846	-0.4425	0	174	1038	1
2026-02-12	14:55:00.290	3.395	7.21	10.395	-0.081496	0.196908	1.039928	0.174	0.837	-0.441	0	174	1038	1
2026-02-12	14:55:00.310	4.97	11.795	8.505	-0.09028	0.197152	1.03578	0.174	0.831	-0.4335	0	174	1038	1
2026-02-12	14:55:00.330	7.385	14.735	7.21	-0.082716	0.187148	1.030168	0.171	0.834	-0.4335	0	174	1038	1
2026-02-12	14:55:00.350	12.145	18.375	6.93	-0.07564	0.192516	1.021628	0.1785	0.8115	-0.462	0	174	1038	1
2026-02-12	14:55:00.370	17.885	20.79	6.79	-0.066612	0.2196	1.044076	0.1815	0.8055	-0.4425	0	174	1038	1
2026-02-12	14:55:00.390	21.91	20.685	4.76	-0.057584	0.218136	1.092144	0.18	0.8025	-0.444	0	174	1038	1
2026-02-12	14:55:00.410	21.7	14.84	-0.105	-0.04514	0.181536	1.169004	0.1935	0.7905	-0.4425	0	175	1037	1
2026-02-12	14:55:00.430	18.41	8.61	-6.895	-0.028548	0.137128	1.220732	0.1965	0.798	-0.447	0	175	1037	1
2026-02-12	14:55:00.450	11.375	2.205	-12.215	0.004392	0.07905599	1.236348	0.198	0.801	-0.441	0	175	1037	1
2026-02-12	14:55:00.470	5.775	-0.91	-13.09	0.016836	0.087352	1.192672	0.207	0.7935	-0.4575	0	175	1037	1
2026-02-12	14:55:00.490	-0.175	-3.955	-10.465	-0.004636	0.145912	1.124108	0.1935	0.789	-0.45	0	175	1037	1
2026-02-12	14:55:00.510	-5.565	-6.895	-7.28	-0.020252	0.160308	1.063352	0.1935	0.792	-0.4395	0	175	1037	1
2026-02-12	14:55:00.530	-7.455	-8.085	-5.95	-0.003904	0.103456	1.047248	0.1995	0.7935	-0.453	0	175	1037	1
2026-02-12	14:55:00.550	-2.66	-0.875	-7.105	0.042212	0.068076	1.009428	0.189	0.7935	-0.441	0	175	1037	1
2026-02-12	14:55:00.570	3.115	10.325	-10.15	0.087108	0.07808	0.921344	0.189	0.8265	-0.444	0	175	1037	1
2026-02-12	14:55:00.590	4.48	16.45	-12.635	0.143228	0.11102	0.872788	0.192	0.8235	-0.444	0	175	1037	1
2026-02-12	14:55:00.610	2.87	19.985	-14.63	0.18056	0.111264	0.867176	0.201	0.8055	-0.4335	0	175	1042	1
2026-02-12	14:55:00.630	0.595	19.985	-15.82	0.184464	0.096624	0.932568	0.192	0.798	-0.453	0	175	1042	1
2026-02-12	14:55:00.650	-2.8	19.04	-16.905	0.152988	0.099308	0.971852	0.201	0.7935	-0.4455	0	175	1042	1
2026-02-12	14:55:00.670	-6.195	15.19	-18.795	0.111752	0.112484	0.957212	0.195	0.8085	-0.447	0	175	1042	1
2026-02-12	14:55:00.690	-8.295	9.45	-21.805	0.066368	0.122976	0.918172	0.201	0.8235	-0.4365	0	175	1042	1
2026-02-12	14:55:00.710	-9.485	2.555	-24.71	0.024644	0.138836	0.874008	0.201	0.8295	-0.429	0	175	1042	1
2026-02-12	14:55:00.730	-10.535	-3.43	-26.18	0.000732	0.148352	0.831552	0.1965	0.8265	-0.429	0	175	1042	1
2026-02-12	14:55:00.750	-11.375	-7.875	-26.32	-0.0122	0.150792	0.814716	0.21	0.8265	-0.414	0	175	1042	1
2026-02-12	14:55:00.770	-11.62	-9.695	-25.83	-0.016348	0.152988	0.818864	0.204	0.8325	-0.4125	0	175	1042	1
2026-02-12	14:55:00.790	-11.795	-9.205	-25.235	-0.019764	0.159088	0.853024	0.198	0.825	-0.408	0	175	1042	1
2026-02-12	14:55:00.810	-12.32	-7.42	-24.465	-0.020252	0.148108	0.913536	0.195	0.8355	-0.408	0	174	1035	1
2026-02-12	14:55:00.830	-13.51	-4.27	-22.75	-0.006344	0.127856	0.956236	0.195	0.834	-0.4125	0	174	1035	1
2026-02-12	14:55:00.850	-14.56	-1.295	-19.425	0.001708	0.125416	0.977708	0.1935	0.8415	-0.4095	0	174	1035	1
2026-02-12	14:55:00.870	-15.505	0.315	-14.56	-0.00488	0.128832	0.975268	0.192	0.84	-0.405	0	174	1035	1
2026-02-12	14:55:00.890	-15.785	0.175	-10.08	-0.011956	0.123708	0.977708	0.198	0.846	-0.405	0	174	1035	1
2026-02-12	14:55:00.910	-14.07	-0.665	-7.035	-0.026596	0.114924	0.995032	0.189	0.8535	-0.4065	0	174	1035	1
2026-02-12	14:55:00.930	-10.465	-0.455	-5.46	-0.045872	0.111508	1.009184	0.1815	0.84	-0.435	0	174	1035	1
2026-02-12	14:55:00.950	-7	-0.42	-4.375	-0.043188	0.076128	1.049444	0.186	0.84	-0.423	0	174	1035	1
2026-02-12	14:55:00.970	-3.99	-0.035	-2.905	-0.017324	0.025376	1.126792	0.1875	0.8445	-0.438	0	174	1035	1
2026-02-12	14:55:00.990	-3.57	-0.735	-0.28	0.007076	-0.016836	1.178276	0.186	0.8475	-0.444	0	174	1035	1
2026-02-12	14:55:01.010	-4.795	-5.775	3.675	0.014152	-0.02562	1.210972	0.183	0.8505	-0.4335	0	171	1024	1
2026-02-12	14:55:01.030	-8.4	-10.71	7.315	-0.001708	-0.02074	1.203652	0.192	0.8595	-0.447	0	171	1024	1
2026-02-12	14:55:01.050	-15.26	-22.225	10.325	-0.000244	-0.034648	1.214388	0.1785	0.849	-0.4335	0	171	1024	1
2026-02-12	14:55:01.070	-20.93	-32.13	11.725	0.017812	-0.077104	1.209264	0.1785	0.8445	-0.4275	0	171	1024	1
2026-02-12	14:55:01.090	-23.765	-39.515	12.705	0.041724	-0.099308	1.153388	0.1755	0.8505	-0.4245	0	171	1024	1
2026-02-12	14:55:01.110	-23.17	-40.495	14.35	0.043432	-0.116632	1.062132	0.1755	0.8505	-0.4245	0	171	1024	1
2026-02-12	14:55:01.130	-17.36	-34.51	16.1	0.030988	-0.125904	0.96258	0.1695	0.8565	-0.4305	0	171	1024	1
2026-02-12	14:55:01.150	-13.125	-28.56	16.485	0.014884	-0.115412	0.907192	0.1635	0.864	-0.4365	0	171	1024	1
2026-02-12	14:55:01.170	-5.215	-17.08	16.345	-0.02074	-0.065392	0.81252	0.1635	0.8685	-0.4305	0	171	1024	1
2026-02-12	14:55:01.190	-3.08	-11.83	16.065	-0.00488	-0.05978	0.819352	0.165	0.8835	-0.4305	0	171	1024	1
2026-02-12	14:55:01.210	-4.27	-10.15	16.135	0.04026	-0.118584	0.942328	0.1665	0.894	-0.435	0	168	1027	1
2026-02-12	14:55:01.230	-6.65	-9.31	17.815	0.081008	-0.181292	1.047492	0.1665	0.894	-0.435	0	168	1027	1
2026-02-12	14:55:01.250	-10.57	-10.99	19.88	0.07808	-0.174216	1.103612	0.1665	0.894	-0.435	0	168	1027	1
2026-02-12	14:55:01.270	-16.555	-17.22	21.105	0.04758	-0.134932	1.066524	0.165	0.8865	-0.432	0	168	1027	1
2026-02-12	14:55:01.290	-21.245	-22.225	20.51	0.010736	-0.0732	0.990884	0.1665	0.9	-0.4365	0	168	1027	1
2026-02-12	14:55:01.310	-24.71	-23.73	18.165	-0.020984	-0.011956	0.878644	0.147	0.9015	-0.4305	0	168	1027	1
2026-02-12	14:55:01.330	-29.575	-28.42	16.52	-0.010492	-0.008052	0.840336	0.141	0.9015	-0.414	0	168	1027	1
2026-02-12	14:55:01.350	-31.045	-28.175	15.4	0.009516	-0.03538	0.859612	0.156	0.894	-0.4215	0	168	1027	1
2026-02-12	14:55:01.370	-26.53	-22.89	14.805	0.02074	-0.058072	0.900848	0.1455	0.9075	-0.4125	0	168	1027	1
2026-02-12	14:55:01.390	-19.67	-16.625	14	-0.0061	-0.00854	0.920612	0.15	0.915	-0.4155	0	168	1027	1
2026-02-12	14:55:01.410	-17.115	-13.72	12.46	-0.009272	0.0061	0.960384	0.15	0.9135	-0.414	0	166	1027	1
2026-02-12	14:55:01.430	-17.36	-15.435	10.395	-0.000488	-0.010004	1.021872	0.1335	0.9105	-0.402	0	166	1027	1
2026-02-12	14:55:01.450	-15.89	-14.035	7.42	0.009272	-0.031476	1.057496	0.1365	0.918	-0.405	0	166	1027	1
2026-02-12	14:55:01.470	-11.97	-13.09	4.13	0.009516	-0.05368	1.090436	0.138	0.9105	-0.39	0	166	1027	1
2026-02-12	14:55:01.490	-7.315	-12.215	0.42	0	-0.039284	1.082384	0.132	0.9105	-0.3975	0	166	1027	1
2026-02-12	14:55:01.510	-3.08	-12.04	-3.08	0.017568	-0.029036	1.063108	0.132	0.915	-0.3915	0	166	1027	1
2026-02-12	14:55:01.530	2.065	-11.97	-6.44	0.021228	-0.010004	1.046516	0.1245	0.9135	-0.396	0	166	1027	1
2026-02-12	14:55:01.550	7.665	-10.815	-11.06	0.052216	-0.033916	1.060912	0.123	0.9195	-0.3915	0	166	1027	1
2026-02-12	14:55:01.570	12.075	-10.29	-16.24	0.077592	-0.1525	1.158512	0.1245	0.915	-0.399	0	166	1027	1
2026-02-12	14:55:01.590	21.805	10.885	-18.55	0.125172	-0.138348	1.205848	0.1125	0.9075	-0.3915	0	166	1027	1
2026-02-12	14:55:01.610	12.215	31.605	-19.985	0.117608	-0.184464	1.197064	0.123	0.9135	-0.3975	0	163	1029	1
2026-02-12	14:55:01.630	-12.845	12.04	-15.05	0.156892	-0.21228	1.23586	0.1245	0.9075	-0.3855	0	163	1029	1
2026-02-12	14:55:01.650	-14.035	27.37	-19.775	0.0976	-0.109556	1.120448	0.126	0.9135	-0.405	0	163	1029	1
2026-02-12	14:55:01.670	-7.49	15.96	-25.69	0.130784	-0.129564	1.243668	0.129	0.879	-0.444	0	163	1029	1
2026-02-12	14:55:01.690	-11.375	4.13	-33.355	0.120292	-0.085644	1.11386	0.1425	0.816	-0.546	0	163	1029	1
2026-02-12	14:55:01.710	-5.635	7.175	-41.58	0.068564	-0.073444	0.75884	0.1575	0.663	-0.702	0	163	1029	1
2026-02-12	14:55:01.730	1.925	4.27	-45.395	0.198372	-0.25864	0.499224	0.2025	0.483	-0.9495	0	163	1029	1
2026-02-12	14:55:01.750	-0.875	6.72	-72.625	0.172264	-0.0976	0.94306	0.282	0.258	-1.311	0	163	1029	1
2026-02-12	14:55:01.770	0.525	3.08	-80.605	0.194224	-0.17324	0.899872	0.4785	-0.195	-1.944	0	163	1029	1
2026-02-12	14:55:01.790	2.87	6.405	-84	0.132736	0.009516	1.039928	1.035	-1.164	-3.102	0	163	1029	1
2026-02-12	14:55:01.810	1.015	5.95	-87.01	0.143472	-0.237412	0.769332	2.8155	-3.7035	-4.7805	0	162	1035	1
2026-02-12	14:55:01.830	5.81	1.75	-83.16	0.203984	-0.110776	1.286856	7.923	-10.1925	-3.948	0	162	1035	1
2026-02-12	14:55:01.850	-5.075	12.215	-70.21	0.178608	-0.101504	1.069696	15.462	-19.599	9.0255	0	162	1035	1
2026-02-12	14:55:01.870	-8.47	9.8	-59.22	0.190564	-0.071004	1.033828	12.123	-16.4865	27.624	0	162	1035	1
2026-02-12	14:55:01.890	-2.1	10.605	-54.495	0.254248	-0.222772	0.716384	-3.8595	1.305	37.5225	0	162	1035	1
2026-02-12	14:55:01.910	-0.07	8.4	-49.91	0.293776	-0.30134	0.707356	-16.8915	15.939	22.2615	0	162	1035	1
2026-02-12	14:55:01.930	1.61	3.36	-40.74	0.253272	-0.190076	0.946476	-19.989	19.6785	0	0	162	1035	1
2026-02-12	14:55:01.950	3.64	4.165	-28.98	0.239608	-0.159332	0.944524	-18.0975	17.565	-3.663	0	162	1035	1
2026-02-12	14:55:01.970	4.865	2.975	-9.695	0.19398	-0.0793	0.988932	-15.2655	14.4465	-5.5695	0	162	1035	1
2026-02-12	14:55:01.990	5.11	9.24	0.385	0.07808	0.01708	1.005768	-13.725	12.78	-6.1035	0	162	1035	1
2026-02-12	14:55:02.010	5.18	8.435	2.975	0.083936	0.007808	1.014064	-13.671	12.7245	-3.021	0	162	1031	1
2026-02-12	14:55:02.030	5.88	10.78	4.235	0.072956	0.021228	0.981612	-13.6665	12.7065	-3.0225	0	162	1031	1
2026-02-12	14:55:02.050	6.685	10.045	4.55	0.087352	0.026596	0.993324	-13.6635	12.702	-2.994	0	162	1031	1
2026-02-12	14:55:02.070	7.98	9.73	4.34	0.104188	-0.004148	1.016748	-13.662	12.699	-2.9955	0	162	1031	1
2026-02-12	14:55:02.090	9.625	9.485	4.305	0.096868	-0.012932	1.03456	-13.665	12.6975	-2.979	0	162	1031	1
2026-02-12	14:55:02.110	10.605	9.485	4.655	0.091744	-0.038308	1.06994	-13.6455	12.6885	-2.964	0	162	1031	1
2026-02-12	14:55:02.130	10.92	10.71	5.81	0.111508	-0.069784	1.093364	-13.626	12.681	-2.955	0	162	1031	1
2026-02-12	14:55:02.150	11.585	12.075	7.91	0.116876	-0.07076	1.0675	-13.623	12.675	-2.955	0	162	1031	1
2026-02-12	14:55:02.170	12.39	11.13	9.905	0.107116	-0.047092	1.012844	-13.623	12.675	-2.955	0	162	1031	1
2026-02-12	14:55:02.190	12.845	7.525	11.34	0.089548	-0.017812	0.980392	-13.626	12.6735	-2.952	0	162	1031	1
2026-02-12	14:55:02.210	12.565	4.69	11.725	0.084424	-0.0122	0.981368	-13.629	12.672	-2.949	0	163	1025	1
2026-02-12	14:55:02.230	10.045	-1.05	12.25	0.0732	-0.016836	1.041392	-13.632	12.681	-2.967	0	163	1025	1
2026-02-12	14:55:02.250	4.725	-4.375	12.005	0.061976	-0.051728	1.103124	-13.6335	12.6855	-2.985	0	163	1025	1
2026-02-12	14:55:02.270	-2.205	-5.425	9.03	0.116388	-0.126392	1.179008	-13.6365	12.6855	-2.988	0	163	1025	1
2026-02-12	14:55:02.290	-7.525	-3.395	4.585	0.137128	-0.141276	1.177544	-13.629	12.6855	-2.988	0	163	1025	1
2026-02-12	14:55:02.310	-10.99	-0.595	0.035	0.165676	-0.221552	1.065304	-13.6065	12.669	-3.012	0	163	1025	1
2026-02-12	14:55:02.330	-11.795	1.645	-2.31	0.110532	-0.194956	0.913536	-13.398	12.477	-3.195	0	163	1025	1
2026-02-12	14:55:02.350	-10.815	-1.855	-1.085	0.124196	-0.152988	0.835212	-13.0605	12.1575	-3.4425	0	163	1025	1
2026-02-12	14:55:02.370	-6.16	-1.19	-1.785	0.15616	-0.171776	0.847412	-12.8265	11.9295	-3.633	0	163	1025	1
2026-02-12	14:55:02.390	1.645	-2.555	-1.085	0.155916	-0.215696	0.930372	-12.6075	11.7285	-3.855	0	163	1025	1
2026-02-12	14:55:02.410	7.735	-4.725	0.315	0.097844	-0.198372	1.029436	-12.3195	11.4615	-4.098	0	164	1026	1
2026-02-12	14:55:02.430	9.17	-3.045	4.585	0.041724	-0.169092	1.163392	-12.048	11.1915	-4.3065	0	164	1026	1
2026-02-12	14:55:02.450	4.27	2.87	10.255	-0.011224	-0.153476	1.247572	-11.9205	11.067	-4.383	0	164	1026	1
2026-02-12	14:55:02.470	-1.295	11.83	15.295	-0.023668	-0.095404	1.065548	-11.907	11.0595	-4.374	0	164	1026	1
2026-02-12	14:55:02.490	-5.67	16.275	16.065	-0.027572	-0.06954	0.961604	-11.9085	11.058	-4.3755	0	164	1026	1
2026-02-12	14:55:02.510	-6.3	13.405	14.735	-0.004636	-0.083936	0.915976	-11.8995	11.0535	-4.3695	0	164	1026	1
2026-02-12	14:55:02.530	-3.92	12.565	13.65	0.02074	-0.086376	0.859612	-11.8815	11.0445	-4.353	0	164	1026	1
2026-02-12	14:55:02.550	0.035	6.79	13.825	0.037576	-0.081496	0.83692	-11.8725	11.034	-4.3305	0	164	1026	1
2026-02-12	14:55:02.570	5.495	1.225	14.735	0.031232	-0.062952	0.834236	-11.874	11.0295	-4.3155	0	164	1026	1
2026-02-12	14:55:02.590	10.815	-3.57	15.855	0.017568	-0.06222	0.872544	-11.874	11.0295	-4.3155	0	164	1026	1
2026-02-12	14:55:02.610	15.05	-7.385	16.275	-0.023668	-0.043432	0.949648	-11.874	11.0295	-4.3155	0	163	1027	1
2026-02-12	14:55:02.630	15.505	-6.685	15.575	-0.048556	-0.026352	0.967704	-11.889	11.0505	-4.3695	0	163	1027	1
2026-02-12	14:55:02.650	13.37	-6.475	15.015	-0.081252	-0.008052	1.015772	-11.8845	11.046	-4.3335	0	163	1027	1
2026-02-12	14:55:02.670	10.395	-3.29	14.315	-0.10126	0.01342	1.05896	-11.8875	11.0475	-4.335	0	163	1027	1
2026-02-12	14:55:02.690	7.945	2.625	13.37	-0.118096	0.029768	1.0736	-11.874	11.0385	-4.329	0	163	1027	1
2026-02-12	14:55:02.710	5.32	9.065	13.37	-0.11102	0.0305	1.085556	-11.871	11.034	-4.2855	0	163	1027	1
2026-02-12	14:55:02.730	3.15	15.435	13.86	-0.092476	0.02684	1.11142	-11.865	11.0235	-4.2795	0	163	1027	1
2026-02-12	14:55:02.750	2.415	21.525	14.28	-0.05978	0.016104	1.120448	-11.853	11.0265	-4.2555	0	163	1027	1
2026-02-12	14:55:02.770	3.325	23.765	13.755	-0.056364	0.027816	1.10776	-11.847	11.031	-4.257	0	163	1027	1
2026-02-12	14:55:02.790	5.215	24.64	10.22	-0.063928	0.043188	1.099952	-11.8365	11.0235	-4.254	0	163	1027	1
2026-02-12	14:55:02.810	6.51	20.65	3.99	-0.0488	0.045872	1.078724	-11.8335	11.0115	-4.2285	0	162	1027	1
2026-02-12	14:55:02.830	5.775	11.935	-3.955	-0.04392	0.030256	1.07848	-11.841	11.0205	-4.2525	0	162	1027	1
2026-02-12	14:55:02.850	2.87	-0.105	-10.815	-0.001952	-0.023668	1.125572	-11.8365	11.019	-4.2555	0	162	1027	1
2026-02-12	14:55:02.870	1.015	-9.87	-13.51	0.035136	-0.056364	1.153632	-11.835	11.0295	-4.2855	0	162	1027	1
2026-02-12	14:55:02.890	-0.21	-17.5	-12.705	0.066124	-0.081008	1.158756	-11.8365	11.031	-4.293	0	162	1027	1
2026-02-12	14:55:02.910	-1.225	-23.275	-10.185	0.076616	-0.089792	1.140944	-11.835	11.028	-4.2975	0	162	1027	1
2026-02-12	14:55:02.930	-0.595	-21.455	-9.73	0.059048	-0.06954	1.05774	-11.8605	11.034	-4.317	0	162	1027	1
2026-02-12	14:55:02.950	0.91	-15.68	-11.41	0.054168	-0.059536	0.952332	-11.8545	11.034	-4.3245	0	162	1027	1
2026-02-12	14:55:02.970	2.03	-9.52	-14.385	0.069052	-0.044164	0.874008	-11.859	11.0355	-4.323	0	162	1027	1
2026-02-12	14:55:02.990	3.535	1.295	-17.99	0.122976	-0.04636	0.87596	-11.8515	11.028	-4.3425	0	162	1027	1
2026-02-12	14:55:03.010	6.65	15.015	-19.18	0.163968	-0.048312	0.942328	-11.8575	11.025	-4.3875	0	161	1035	1
2026-02-12	14:55:03.030	7.84	25.725	-18.34	0.183	-0.060024	1.004304	-11.8695	11.0445	-4.41	0	161	1035	1
2026-02-12	14:55:03.050	2.975	30.345	-15.855	0.159576	-0.046116	0.997716	-11.868	11.049	-4.4205	0	161	1035	1
2026-02-12	14:55:03.070	-4.865	26.67	-13.685	0.136152	-0.021472	0.977708	-11.8845	11.0475	-4.4055	0	161	1035	1
2026-02-12	14:55:03.090	-9.065	20.65	-13.02	0.107116	-0.016836	0.962092	-11.8755	11.049	-4.41	0	161	1035	1
2026-02-12	14:55:03.110	-8.47	13.93	-14.35	0.067832	-0.011956	0.9089	-11.868	11.0475	-4.4205	0	161	1035	1
2026-02-12	14:55:03.130	-5.67	6.405	-17.605	0.012932	0.008784	0.840336	-11.874	11.046	-4.3965	0	161	1035	1
2026-02-12	14:55:03.150	-2.415	-1.12	-21.315	-0.009028	0.026108	0.806664	-11.856	11.0325	-4.3455	0	161	1035	1
2026-02-12	14:55:03.170	0.875	-6.475	-24.045	-0.028792	0.040016	0.803004	-11.853	11.0085	-4.3335	0	161	1035	1
2026-02-12	14:55:03.190	2.905	-7.49	-25.445	-0.028548	0.0427	0.85644	-11.8515	11.0175	-4.338	0	161	1035	1
2026-02-12	14:55:03.210	3.745	-5.775	-24.85	-0.013664	0.022692	0.946964	-11.8695	11.0325	-4.353	0	159	1033	1
2026-02-12	14:55:03.230	2.45	-0.14	-22.365	-0.010492	0.016348	1.004304	-11.8695	11.0325	-4.353	0	159	1033	1
2026-02-12	14:55:03.250	-1.05	4.305	-18.06	-0.01952	0.019032	1.0492	-11.8905	11.04	-4.38	0	159	1033	1
2026-02-12	14:55:03.270	-2.66	6.615	-15.645	-0.030988	0.024156	1.049932	-11.913	11.0475	-4.407	0	159	1033	1
2026-02-12	14:55:03.290	-4.34	10.57	-10.64	-0.051484	0.033184	1.031144	-11.9055	11.049	-4.3905	0	159	1033	1
2026-02-12	14:55:03.310	-4.13	12.04	-6.335	-0.05612	0.02806	1.01626	-11.898	11.0475	-4.3695	0	159	1033	1
2026-02-12	14:55:03.330	-2.065	10.955	-3.64	-0.056608	0.007564	1.0187	-11.889	11.0355	-4.356	0	159	1033	1
2026-02-12	14:55:03.350	2.03	10.08	-2.205	-0.048312	-0.025376	1.053104	-11.889	11.031	-4.3395	0	159	1033	1
2026-02-12	14:55:03.370	7.28	9.905	-1.12	-0.020496	-0.07076	1.100196	-11.8905	11.0295	-4.329	0	159	1033	1
2026-02-12	14:55:03.390	11.27	9.205	0.245	-0.016592	-0.086376	1.12484	-11.886	11.025	-4.3185	0	159	1033	1
2026-02-12	14:55:03.410	10.92	4.41	2.415	-0.026596	-0.076616	1.111664	-11.8845	11.0265	-4.3035	0	157	1027	1
2026-02-12	14:55:03.430	5.74	-6.825	5.18	-0.027084	-0.088572	1.147288	-11.8785	11.0145	-4.305	0	157	1027	1
2026-02-12	14:55:03.450	-2.275	-20.965	7.035	0.020984	-0.174704	1.231224	-11.8755	11.0025	-4.3125	0	157	1027	1
2026-02-12	14:55:03.470	-8.015	-31.325	5.67	0.066368	-0.223748	1.315892	-11.871	11.007	-4.3065	0	157	1027	1
2026-02-12	14:55:03.490	-8.085	-33.705	3.85	0.074908	-0.228628	1.248548	-11.8785	11.016	-4.2915	0	157	1027	1
2026-02-12	14:55:03.510	-4.865	-31.115	3.85	0.043676	-0.167628	1.041636	-11.889	11.019	-4.299	0	157	1027	1
2026-02-12	14:55:03.530	0.07	-21.175	3.5	-0.00854	-0.1037	0.767136	-11.895	11.0265	-4.347	0	157	1027	1
2026-02-12	14:55:03.550	4.235	-23.345	3.78	0.004148	-0.099796	0.722972	-11.871	10.995	-4.32	0	157	1027	1
2026-02-12	14:55:03.570	12.845	-15.82	5.635	0.046116	-0.136396	0.803492	-11.865	10.971	-4.3305	0	157	1027	1
2026-02-12	14:55:03.590	23.625	0.98	7.91	0.056852	-0.162504	0.911096	-11.9055	11.0025	-4.452	0	157	1027	1
2026-02-12	14:55:03.610	24.745	5.67	12.04	0.0427	-0.181292	1.041148	-11.9355	11.0235	-4.5015	0	155	1031	1
2026-02-12	14:55:03.630	13.055	1.785	16.835	0.053436	-0.213012	1.159	-11.9355	11.022	-4.4685	0	155	1031	1
2026-02-12	14:55:03.650	0.735	-8.26	20.055	0.04026	-0.195444	1.153876	-11.919	11.0115	-4.413	0	155	1031	1
2026-02-12	14:55:03.670	-4.165	-9.24	20.51	0.000244	-0.146888	1.04432	-11.913	11.0115	-4.407	0	155	1031	1
2026-02-12	14:55:03.690	-6.195	-7.735	18.76	-0.07124799	-0.083204	0.88816	-11.913	11.022	-4.419	0	155	1031	1
2026-02-12	14:55:03.710	-9.065	-12.635	15.75	-0.105652	-0.017568	0.804712	-11.8965	11.007	-4.3605	0	155	1031	1
2026-02-12	14:55:03.730	-10.78	-15.54	12.425	-0.104432	-0.005612	0.795196	-11.8815	10.9845	-4.317	0	155	1031	1
2026-02-12	14:55:03.750	-7.175	-13.965	10.815	-0.048556	-0.03172	0.88694	-11.904	11.004	-4.3215	0	155	1031	1
2026-02-12	14:55:03.770	0.98	-3.955	11.235	-0.045384	-0.011712	0.967948	-11.9535	11.055	-4.338	0	155	1031	1
2026-02-12	14:55:03.790	6.265	2.73	11.235	-0.079788	0.046116	1.050664	-11.9835	11.0835	-4.3545	0	155	1031	1
2026-02-12	14:55:03.810	6.65	4.69	10.92	-0.1159	0.093208	1.044808	-11.9895	11.0835	-4.332	0	155	1032	1
2026-02-12	14:55:03.830	7.595	3.325	9.415	-0.134688	0.12078	1.086044	-11.982	11.076	-4.287	0	155	1032	1
2026-02-12	14:55:03.850	10.815	6.405	5.53	-0.131028	0.116632	1.13704	-11.9715	11.0655	-4.2555	0	155	1032	1
2026-02-12	14:55:03.870	14.35	10.22	0.735	-0.116388	0.097356	1.151924	-11.9625	11.0565	-4.239	0	155	1032	1
2026-02-12	14:55:03.890	17.185	13.86	-3.36	-0.091988	0.099552	1.124596	-11.9415	11.049	-4.2135	0	155	1032	1
2026-02-12	14:55:03.910	19.67	17.08	-7.35	-0.073932	0.107116	1.107028	-11.934	11.0475	-4.203	0	155	1032	1
2026-02-12	14:55:03.930	21.98	17.92	-12.04	-0.03294	0.087352	1.114592	-11.9415	11.0475	-4.2	0	155	1032	1
2026-02-12	14:55:03.950	23.765	17.815	-17.64	0.006832	0.047092	1.117764	-11.9475	11.046	-4.194	0	155	1032	1
2026-02-12	14:55:03.970	22.61	13.895	-23.765	0.015128	0.036112	1.139236	-11.9475	11.046	-4.194	0	155	1032	1
2026-02-12	14:55:03.990	15.12	2.87	-28.49	0.073688	-0.02562	1.248304	-11.9475	11.046	-4.194	0	155	1032	1
2026-02-12	14:55:04.010	6.055	-6.825	-30.625	0.14396	-0.084668	1.289296	-11.9475	11.046	-4.194	0	156	1037	1
2026-02-12	14:55:04.030	0.805	-12.985	-31.22	0.140788	-0.06466	1.222684	-11.937	11.0175	-4.23	0	156	1037	1
2026-02-12	14:55:04.050	-3.045	-13.965	-32.48	0.11102	-0.031232	1.09068	-11.946	11.04	-4.245	0	156	1037	1
2026-02-12	14:55:04.070	-5.845	-14.49	-32.9	0.102724	-0.020252	0.974292	-11.9445	11.022	-4.2495	0	156	1037	1
2026-02-12	14:55:04.090	-6.685	-10.185	-32.69	0.106384	0.00244	0.839116	-11.97	11.037	-4.2795	0	156	1037	1
2026-02-12	14:55:04.110	-5.565	-3.465	-32.445	0.136884	0.008296	0.82594	-11.9625	11.025	-4.269	0	156	1037	1
2026-02-12	14:55:04.130	-1.225	6.37	-31.29	0.160552	-0.013664	0.884744	-11.9805	11.031	-4.3245	0	156	1037	1
2026-02-12	14:55:04.150	1.12	19.285	-29.365	0.159088	-0.029524	0.932568	-11.991	11.0415	-4.392	0	156	1037	1
2026-02-12	14:55:04.170	-3.675	22.12	-27.055	0.15128	-0.05246	0.979172	-11.9985	11.049	-4.3665	0	156	1037	1
2026-02-12	14:55:04.190	-10.92	20.58	-24.395	0.137616	-0.050508	0.969412	-11.9865	11.046	-4.3455	0	156	1037	1
2026-02-12	14:55:04.210	-14.525	19.705	-22.33	0.104432	-0.024888	0.927932	-11.9955	11.0445	-4.3815	0	158	1045	1
2026-02-12	14:55:04.230	-15.015	17.29	-21.105	0.061	-0.000732	0.859856	-11.97	11.0385	-4.359	0	158	1045	1
2026-02-12	14:55:04.250	-14.385	10.5	-20.405	0.023668	0.020008	0.803004	-11.97	11.0235	-4.3095	0	158	1045	1
2026-02-12	14:55:04.270	-12.39	2.905	-20.055	0.006344	0.029524	0.791536	-11.931	11.0175	-4.272	0	158	1045	1
2026-02-12	14:55:04.290	-8.12	-2.52	-19.6	0.011712	0.015616	0.818376	-11.931	11.0175	-4.272	0	158	1045	1
2026-02-12	14:55:04.310	-3.01	-3.99	-18.865	0.014152	0.000244	0.874496	-11.9445	11.0205	-4.2915	0	158	1045	1
2026-02-12	14:55:04.330	-0.84	-4.515	-18.165	0.014152	0	0.902312	-11.958	11.025	-4.311	0	158	1045	1
2026-02-12	14:55:04.350	1.715	-4.48	-15.925	0.019276	-0.009272	0.9577	-11.9685	11.031	-4.3335	0	158	1045	1
2026-02-12	14:55:04.370	2.695	-1.61	-12.81	0.017324	-0.000732	0.987956	-11.9835	11.046	-4.356	0	158	1045	1
2026-02-12	14:55:04.390	2.24	1.82	-9.275	0.003172	0.01464	1.00528	-11.988	11.052	-4.35	0	158	1045	1
2026-02-12	14:55:04.410	0.945	4.795	-5.88	-0.015372	0.036844	1.017968	-11.9865	11.0475	-4.329	0	160	1036	1
2026-02-12	14:55:04.430	0.42	7.455	-4.13	-0.0366	0.064904	1.028948	-11.9835	11.0415	-4.314	0	160	1036	1
2026-02-12	14:55:04.450	1.26	10.85	-4.305	-0.036112	0.054412	1.057008	-11.976	11.0445	-4.3005	0	160	1036	1
2026-02-12	14:55:04.470	3.22	12.46	-4.445	-0.017324	0.027572	1.08092	-11.9685	11.0445	-4.287	0	160	1036	1
2026-02-12	14:55:04.490	5.425	15.435	-3.885	-0.007808	-0.001952	1.102392	-11.9685	11.0355	-4.2915	0	160	1036	1
2026-02-12	14:55:04.510	6.86	14.77	-2.1	0.006344	-0.016348	1.10654	-11.967	11.0325	-4.2885	0	160	1036	1
2026-02-12	14:55:04.530	6.405	10.15	0.21	-0.010248	-0.024156	1.084336	-11.9625	11.0355	-4.2765	0	160	1036	1
2026-02-12	14:55:04.550	4.48	1.05	2.45	-0.04514	-0.003172	1.055788	-11.958	11.031	-4.287	0	160	1036	1
2026-02-12	14:55:04.570	-1.155	-12.39	3.78	-0.042456	-0.05368	1.107272	-11.964	11.025	-4.2915	0	160	1036	1
2026-02-12	14:55:04.590	-7.805	-28.035	4.375	0.014396	-0.147132	1.231224	-11.964	11.025	-4.263	0	160	1036	1
2026-02-12	14:55:04.610	-9.835	-36.575	4.725	0.069784	-0.2074	1.298324	-11.9595	11.0265	-4.251	0	161	1029	1
2026-02-12	14:55:04.630	-8.435	-32.76	5.985	0.062464	-0.192272	1.176812	-11.9655	11.0295	-4.2675	0	161	1029	1
2026-02-12	14:55:04.650	-6.755	-27.195	8.225	0.032208	-0.12688	0.989664	-11.9685	11.037	-4.287	0	161	1029	1
2026-02-12	14:55:04.670	-4.2	-18.83	8.715	0.010248	-0.101748	0.784948	-11.9715	11.04	-4.2765	0	161	1029	1
2026-02-12	14:55:04.690	-1.365	-18.34	8.89	0.075884	-0.140056	0.808616	-11.9685	11.0265	-4.272	0	161	1029	1
2026-02-12	14:55:04.710	6.02	-5.74	9.555	0.13908	-0.190076	0.915732	-11.976	11.028	-4.3425	0	161	1029	1
2026-02-12	14:55:04.730	14.28	8.155	10.815	0.155428	-0.206912	1.067012	-12.003	11.052	-4.419	0	161	1029	1
2026-02-12	14:55:04.750	12.81	11.2	14.14	0.144936	-0.184708	1.105808	-11.985	11.037	-4.434	0	161	1029	1
2026-02-12	14:55:04.770	2.135	3.535	17.99	0.15128	-0.20496	1.084092	-11.766	10.8435	-4.524	0	161	1029	1
2026-02-12	14:55:04.790	-3.85	-7.455	20.685	0.10126	-0.11712	1.047248	-11.4615	10.554	-4.689	0	161	1029	1
2026-02-12	14:55:04.810	-1.645	-8.505	18.025	0.016104	-0.035868	0.94062	-11.349	10.431	-4.77	0	161	1032	1
2026-02-12	14:55:04.830	0.91	-13.615	11.725	-0.055388	0.028548	0.844728	-11.3385	10.425	-4.749	0	161	1032	1
2026-02-12	14:55:04.850	1.365	-19.145	3.395	-0.08052	0.05124	0.822036	-11.3235	10.4115	-4.7085	0	161	1032	1
2026-02-12	14:55:04.870	1.75	-20.79	-3.29	-0.070272	0.049044	0.883036	-11.319	10.3965	-4.7055	0	161	1032	1
2026-02-12	14:55:04.890	3.99	-13.755	-8.995	-0.051972	0.03782	0.94794	-11.331	10.398	-4.7385	0	161	1032	1
2026-02-12	14:55:04.910	5.53	-5.88	-11.865	-0.049288	0.043432	0.975756	-11.3445	10.4085	-4.7715	0	161	1032	1
2026-02-12	14:55:04.930	3.78	1.75	-12.18	-0.057584	0.047336	0.991372	-11.352	10.4205	-4.782	0	161	1032	1
2026-02-12	14:55:04.950	-0.07	4.865	-10.36	-0.072712	0.05124	0.986248	-11.3535	10.422	-4.782	0	161	1032	1
2026-02-12	14:55:04.970	-2.485	7.42	-9.03	-0.09516	0.039528	1.009916	-11.3505	10.416	-4.776	0	161	1032	1
2026-02-12	14:55:04.990	-2.485	8.855	-8.96	-0.1098	0.018544	1.024556	-11.3565	10.407	-4.758	0	161	1032	1
2026-02-12	14:55:05.010	-0.805	8.855	-9.695	-0.12688	0.010736	1.026264	-11.3535	10.401	-4.743	0	161	1030	1
2026-02-12	14:55:05.030	2.695	9.45	-10.395	-0.134688	0.00732	1.023824	-11.346	10.4025	-4.7325	0	161	1030	1
2026-02-12	14:55:05.050	7.805	10.325	-10.85	-0.147864	0.014152	1.040904	-11.3415	10.4025	-4.7205	0	161	1030	1
2026-02-12	14:55:05.070	13.37	11.34	-12.53	-0.15738	0.001952	1.0858	-11.334	10.395	-4.7145	0	161	1030	1
2026-02-12	14:55:05.090	17.535	10.57	-15.505	-0.12688	-0.054168	1.16022	-11.331	10.389	-4.698	0	161	1030	1
2026-02-12	14:55:05.110	19.25	10.325	-17.57	-0.090524	-0.11102	1.219512	-11.3295	10.3845	-4.6845	0	161	1030	1
2026-02-12	14:55:05.130	16.835	5.88	-15.575	-0.034404	-0.164212	1.263432	-11.322	10.38	-4.671	0	161	1030	1
2026-02-12	14:55:05.150	11.97	-0.805	-10.185	0.021716	-0.237656	1.319308	-11.3145	10.374	-4.644	0	161	1030	1
2026-02-12	14:55:05.170	9.135	-4.305	-2.765	0.040992	-0.22692	1.309792	-11.31	10.362	-4.623	0	161	1030	1
2026-02-12	14:55:05.190	6.86	-3.465	2.065	0.043432	-0.191296	1.213656	-11.31	10.359	-4.626	0	161	1030	1
2026-02-12	14:55:05.210	4.655	-1.785	5.145	0.07076	-0.160796	1.093852	-11.31	10.371	-4.6395	0	161	1036	1
2026-02-12	14:55:05.230	6.475	2.275	6.65	0.102724	-0.116876	0.95282	-11.3115	10.377	-4.6575	0	161	1036	1
2026-02-12	14:55:05.250	11.515	8.47	7.07	0.133712	-0.061976	0.821304	-11.3265	10.374	-4.704	0	161	1036	1
2026-02-12	14:55:05.270	17.36	15.295	7.455	0.143228	-0.03782	0.825208	-11.3325	10.371	-4.752	0	161	1036	1
2026-02-12	14:55:05.290	20.51	19.46	7.63	0.139568	0.000244	0.895968	-11.3175	10.359	-4.767	0	161	1036	1
2026-02-12	14:55:05.310	15.505	19.355	7.245	0.12444	0.027572	0.964044	-11.328	10.3635	-4.779	0	161	1036	1
2026-02-12	14:55:05.330	3.43	16.8	6.72	0.109312	0.03172	0.968192	-11.3445	10.3755	-4.788	0	161	1036	1
2026-02-12	14:55:05.350	-7.14	13.895	5.32	0.084424	0.034892	0.959896	-11.3445	10.3755	-4.788	0	161	1036	1
2026-02-12	14:55:05.370	-12.005	15.68	2.59	0.032696	0.058072	0.88938	-11.3475	10.3875	-4.83	0	161	1036	1
2026-02-12	14:55:05.390	-13.755	14.84	0.945	0.005124	0.076372	0.842532	-11.3475	10.3875	-4.83	0	161	1036	1
2026-02-12	14:55:05.410	-17.78	8.33	-1.68	-0.042456	0.097356	0.738832	-11.3475	10.3875	-4.83	0	162	1041	1
2026-02-12	14:55:05.430	-20.335	-2.485	-3.465	-0.045872	0.087108	0.73078	-11.3235	10.3695	-4.7685	0	162	1041	1
2026-02-12	14:55:05.450	-19.005	-9.275	-4.2	-0.026352	0.044652	0.788364	-11.304	10.35	-4.716	0	162	1041	1
2026-02-12	14:55:05.470	-15.365	-12.565	-3.745	-0.012932	0.012932	0.846924	-11.316	10.3575	-4.7325	0	162	1041	1
2026-02-12	14:55:05.490	-11.9	-13.93	-2.205	-0.011956	-0.0061	0.91622	-11.3265	10.3785	-4.7595	0	162	1041	1
2026-02-12	14:55:05.510	-9.8	-14.175	0.245	-0.017324	-0.009272	0.966972	-11.3385	10.3875	-4.7865	0	162	1041	1
2026-02-12	14:55:05.530	-8.54	-14.14	3.535	-0.033916	0.016592	0.975268	-11.349	10.3815	-4.785	0	162	1041	1
2026-02-12	14:55:05.550	-7	-12.635	6.475	-0.047092	0.04148	1.005524	-11.3505	10.3875	-4.7655	0	162	1041	1
2026-02-12	14:55:05.570	-4.55	-11.025	8.855	-0.052948	0.048312	1.024312	-11.349	10.392	-4.749	0	162	1041	1
2026-02-12	14:55:05.590	-0.91	-7.595	9.94	-0.055876	0.043676	1.063108	-11.3415	10.3905	-4.74	0	162	1041	1
2026-02-12	14:55:05.610	3.885	-1.89	9.275	-0.053192	0.033672	1.088728	-11.334	10.3935	-4.737	0	164	1030	1
2026-02-12	14:55:05.630	8.855	4.2	8.05	-0.023668	-0.008296	1.159244	-11.3355	10.3875	-4.722	0	164	1030	1
2026-02-12	14:55:05.650	13.545	11.725	7.175	0.045872	-0.095404	1.263432	-11.337	10.383	-4.698	0	164	1030	1
2026-02-12	14:55:05.670	16.52	18.69	9.135	0.082472	-0.1464	1.297348	-11.3295	10.3785	-4.6695	0	164	1030	1
2026-02-12	14:55:05.690	16.24	21	12.67	0.055388	-0.131516	1.249036	-11.316	10.3695	-4.644	0	164	1030	1
2026-02-12	14:55:05.710	14.735	19.985	15.19	-0.021228	-0.08174	1.16022	-11.3025	10.365	-4.632	0	164	1030	1
2026-02-12	14:55:05.730	11.655	12.81	15.925	-0.08418	-0.066856	1.111908	-11.2995	10.368	-4.635	0	164	1030	1
2026-02-12	14:55:05.750	7.245	5.075	15.05	-0.110532	-0.066612	1.118984	-11.3025	10.3665	-4.647	0	164	1030	1
2026-02-12	14:55:05.770	1.89	-5.95	15.19	-0.06954	-0.121024	1.18218	-11.301	10.3605	-4.65	0	164	1030	1
2026-02-12	14:55:05.790	0.91	-11.9	17.815	0.000244	-0.197396	1.224636	-11.304	10.3635	-4.6665	0	164	1030	1
2026-02-12	14:55:05.810	5.775	-5.53	20.86	-0.022692	-0.180072	1.109712	-11.3115	10.374	-4.7025	0	166	1032	1
2026-02-12	14:55:05.830	10.325	3.92	22.435	-0.085156	-0.122732	0.867908	-11.3115	10.377	-4.725	0	166	1032	1
2026-02-12	14:55:05.850	12.005	4.095	23.24	-0.092476	-0.083692	0.712968	-11.277	10.3485	-4.656	0	166	1032	1
2026-02-12	14:55:05.870	11.76	0.42	22.435	-0.08906	-0.125416	0.665144	-11.2665	10.344	-4.6065	0	166	1032	1
2026-02-12	14:55:05.890	11.095	-1.26	25.585	-0.011956	-0.166896	0.846436	-11.3025	10.3665	-4.689	0	166	1032	1
2026-02-12	14:55:05.910	10.92	-2.66	29.68	0.046116	-0.236192	0.974536	-11.31	10.371	-4.7505	0	166	1032	1
2026-02-12	14:55:05.930	6.3	-9.1	35.07	0.0854	-0.24522	1.06872	-11.3115	10.3785	-4.7715	0	166	1032	1
2026-02-12	14:55:05.950	0.77	-13.93	40.25	0.07686	-0.195932	1.096048	-11.3145	10.383	-4.791	0	166	1032	1
2026-02-12	14:55:05.970	-1.575	-18.41	43.505	0.02074	-0.12444	0.959408	-11.3115	10.383	-4.7805	0	166	1032	1
2026-02-12	14:55:05.990	-1.26	-22.505	44.555	-0.06222	-0.0427	0.793976	-11.3055	10.3785	-4.743	0	166	1032	1
2026-02-12	14:55:06.010	-1.47	-24.885	43.085	-0.115656	0.00854	0.719068	-11.298	10.371	-4.71	0	169	1034	1
2026-02-12	14:55:06.030	-1.4	-28.805	40.81	-0.130784	0.021716	0.777384	-11.298	10.3635	-4.677	0	169	1034	1
2026-02-12	14:55:06.050	1.785	-25.235	37.1	-0.177144	0.024156	0.898408	-11.3655	10.4235	-4.6575	0	169	1034	1
2026-02-12	14:55:06.070	5.6	-13.44	34.055	-0.160552	0.032696	1.008696	-11.496	10.5495	-4.6635	0	169	1034	1
2026-02-12	14:55:06.090	4.55	-3.745	30.765	-0.170312	0.03782	1.102392	-11.559	10.6095	-4.641	0	169	1034	1
2026-02-12	14:55:06.110	0.21	0.245	28.385	-0.171776	0.049288	1.137284	-11.55	10.602	-4.587	0	169	1034	1
2026-02-12	14:55:06.130	-3.185	4.9	26.95	-0.170068	0.047824	1.138016	-11.5335	10.602	-4.5615	0	169	1034	1
2026-02-12	14:55:06.150	-3.815	9.38	25.585	-0.166652	0.037088	1.11508	-11.5215	10.6005	-4.548	0	169	1034	1
2026-02-12	14:55:06.170	-2.485	10.045	24.29	-0.18056	0.036844	1.088484	-11.5125	10.5975	-4.5255	0	169	1034	1
2026-02-12	14:55:06.190	1.225	13.055	22.155	-0.193736	0.046604	1.064084	-11.5035	10.599	-4.518	0	169	1034	1
2026-02-12	14:55:06.210	7.07	15.155	19.18	-0.20374	0.068564	1.063596	-11.5005	10.596	-4.512	0	172	1030	1
2026-02-12	14:55:06.230	15.05	17.535	13.79	-0.198128	0.070272	1.092144	-11.499	10.5945	-4.509	0	172	1030	1
2026-02-12	14:55:06.250	22.05	18.2	6.475	-0.169336	0.0549	1.129476	-11.496	10.5915	-4.4955	0	172	1030	1
2026-02-12	14:55:06.270	22.295	10.605	0.49	-0.14152	0.02196	1.156316	-11.487	10.5855	-4.4775	0	172	1030	1
2026-02-12	14:55:06.290	16.52	0.105	-0.525	-0.105652	-0.035868	1.231956	-11.481	10.5765	-4.479	0	172	1030	1
2026-02-12	14:55:06.310	9.87	-7.665	1.575	-0.034892	-0.110288	1.312476	-11.4795	10.5735	-4.4835	0	172	1030	1
2026-02-12	14:55:06.330	5.67	-13.44	6.72	0.0183	-0.151036	1.313696	-11.4765	10.5735	-4.479	0	172	1030	1
2026-02-12	14:55:06.350	2.17	-9.17	11.795	0.036844	-0.144204	1.186328	-11.481	10.5735	-4.4835	0	172	1030	1
2026-02-12	14:55:06.370	-1.995	-8.19	17.465	0.055632	-0.125172	0.993568	-11.4795	10.5795	-4.488	0	172	1030	1
2026-02-12	14:55:06.390	-3.43	-5.95	22.05	0.080032	-0.087596	0.790804	-11.4765	10.5825	-4.4835	0	172	1030	1
2026-02-12	14:55:06.410	-2.975	-0.875	22.085	0.11468	-0.085644	0.726388	-11.4765	10.5825	-4.4835	0	175	1038	1
2026-02-12	14:55:06.430	1.82	6.405	23.17	0.156404	-0.084668	0.777872	-11.481	10.5795	-4.569	0	175	1038	1
2026-02-12	14:55:06.450	5.215	10.57	23.24	0.155428	-0.080764	0.82594	-11.481	10.5795	-4.569	0	175	1038	1
2026-02-12	14:55:06.470	8.12	17.29	23.415	0.134688	-0.061732	0.930372	-11.52	10.6095	-4.698	0	175	1038	1
2026-02-12	14:55:06.490	2.59	14.7	24.675	0.118828	-0.043188	1.025044	-11.5245	10.623	-4.698	0	175	1038	1
2026-02-12	14:55:06.510	-7.665	11.9	25.55	0.093696	-0.03172	1.002352	-11.532	10.6245	-4.7415	0	175	1038	1
2026-02-12	14:55:06.530	-15.89	6.615	27.65	0.070272	-0.013176	0.987956	-11.5125	10.617	-4.6995	0	175	1038	1
2026-02-12	14:55:06.550	-19.95	4.55	29.33	0.022692	0.019764	0.907436	-11.5005	10.6305	-4.719	0	175	1038	1
2026-02-12	14:55:06.570	-22.61	-1.68	30.59	-0.03538	0.054656	0.84912	-11.502	10.6245	-4.6755	0	175	1038	1
2026-02-12	14:55:06.590	-22.89	-9.73	31.99	-0.051728	0.065148	0.8235	-11.478	10.611	-4.635	0	175	1038	1
2026-02-12	14:55:06.610	-20.09	-13.02	32.62	-0.063928	0.061244	0.849852	-11.463	10.5975	-4.6035	0	179	1038	1
2026-02-12	14:55:06.630	-15.05	-11.9	32.27	-0.077836	0.065148	0.897676	-11.4795	10.6125	-4.62	0	179	1038	1
2026-02-12	14:55:06.650	-10.255	-9.66	31.71	-0.070028	0.059048	0.97234	-11.4825	10.614	-4.623	0	179	1038	1
2026-02-12	14:55:06.670	-6.685	-4.095	31.115	-0.063684	0.054412	1.005768	-11.478	10.632	-4.638	0	179	1038	1
2026-02-12	14:55:06.690	-5.215	1.925	30.73	-0.067588	0.074176	1.029436	-11.487	10.6395	-4.629	0	179	1038	1
2026-02-12	14:55:06.710	-4.83	7.42	30.555	-0.066856	0.099064	1.010404	-11.4795	10.6365	-4.617	0	179	1038	1
2026-02-12	14:55:06.730	-3.885	12.845	30.03	-0.05124	0.105652	0.997228	-11.4765	10.6275	-4.599	0	179	1038	1
2026-02-12	14:55:06.750	-2.45	16.065	29.26	-0.041236	0.090524	1.006744	-11.4765	10.6425	-4.6125	0	179	1038	1
2026-02-12	14:55:06.770	-0.315	19.425	28.28	-0.009028	0.06344	1.045052	-11.4765	10.6425	-4.6125	0	179	1038	1
2026-02-12	14:55:06.790	3.92	22.505	27.37	0.002684	0.060024	1.063352	-11.4765	10.6425	-4.6125	0	179	1038	1
2026-02-12	14:55:06.810	7.84	24.675	26.985	0.003416	0.050752	1.069696	-11.4585	10.6365	-4.5885	0	182	1028	1
2026-02-12	14:55:06.830	9.835	24.255	27.615	0.006344	0.049288	1.07604	-11.436	10.626	-4.56	0	182	1028	1
2026-02-12	14:55:06.850	9.695	21.14	28.28	-0.021228	0.081984	1.064572	-11.4225	10.617	-4.545	0	182	1028	1
2026-02-12	14:55:06.870	7.245	11.305	28.875	-0.097356	0.129076	1.057984	-11.412	10.6125	-4.5285	0	182	1028	1
2026-02-12	14:55:06.890	1.295	-3.395	29.82	-0.125172	0.133468	1.129964	-11.4165	10.614	-4.521	0	182	1028	1
2026-02-12	14:55:06.910	-8.435	-20.335	27.93	-0.071492	0.017812	1.271728	-11.4	10.602	-4.4625	0	182	1028	1
2026-02-12	14:55:06.930	-13.755	-39.62	25.585	0.082472	-0.115168	1.531588	-11.394	10.59	-4.4265	0	182	1028	1
2026-02-12	14:55:06.950	-11.025	-26.985	17.08	0.088328	-0.129076	1.418372	-11.397	10.593	-4.4325	0	182	1028	1
2026-02-12	14:55:06.970	-11.795	-20.51	10.5	0.05856	-0.061732	1.071648	-11.388	10.599	-4.437	0	182	1028	1
2026-02-12	14:55:06.990	-12.39	-15.33	2.8	0.006832	0.009272	0.732732	-11.3925	10.6035	-4.458	0	182	1028	1
2026-02-12	14:55:07.010	-11.9	-23.065	-5.39	0.07076	-0.0061	0.702232	-11.3835	10.587	-4.473	0	182	1032	1
2026-02-12	14:55:07.030	-4.375	-16.695	-8.75	0.18422	-0.110776	0.88938	-11.3985	10.5855	-4.5855	0	182	1032	1
2026-02-12	14:55:07.050	10.745	6.72	-11.515	0.20618	-0.144204	1.039196	-11.4465	10.626	-4.725	0	182	1032	1
2026-02-12	14:55:07.070	17.465	18.76	-11.69	0.19764	-0.139812	1.128012	-11.418	10.611	-4.743	0	182	1032	1
2026-02-12	14:55:07.090	9.695	20.58	-6.825	0.153232	-0.07124799	1.04188	-11.3565	10.557	-4.698	0	182	1032	1
2026-02-12	14:55:07.110	-1.295	12.915	1.75	0.133224	-0.038796	0.962336	-11.34	10.5435	-4.692	0	182	1032	1
2026-02-12	14:55:07.130	-3.675	10.535	10.22	0.069784	0.01342	0.863272	-11.3445	10.5405	-4.7115	0	182	1032	1
2026-02-12	14:55:07.150	-0.315	4.55	14.455	-0.014152	0.08784	0.792268	-11.3385	10.5315	-4.686	0	182	1032	1
2026-02-12	14:55:07.170	3.535	-4.9	13.405	-0.073444	0.127612	0.760792	-11.3175	10.521	-4.6365	0	182	1032	1
2026-02-12	14:55:07.190	7.14	-15.995	7.875	-0.076372	0.096624	0.776408	-11.3175	10.521	-4.599	0	182	1032	1
2026-02-12	14:55:07.210	10.465	-23.695	0.14	-0.133956	0.162504	0.803004	-11.445	10.6365	-4.527	0	184	1035	1
2026-02-12	14:55:07.230	11.62	-22.785	-9.45	-0.149328	0.204228	0.901824	-11.7705	10.938	-4.359	0	184	1035	1
2026-02-12	14:55:07.250	9.905	-23.765	-18.13	-0.131028	0.165188	0.982832	-12.0855	11.2335	-4.179	0	184	1035	1
2026-02-12	14:55:07.270	6.58	-20.055	-24.29	-0.104432	0.129808	1.08702	-12.213	11.358	-4.122	0	184	1035	1
2026-02-12	14:55:07.290	2.135	-11.025	-27.615	-0.094428	0.10248	1.128012	-12.231	11.3775	-4.1085	0	184	1035	1
2026-02-12	14:55:07.310	-1.365	-2.765	-28.525	-0.077836	0.074176	1.156804	-12.2265	11.3745	-4.0665	0	184	1035	1
2026-02-12	14:55:07.330	-2.31	7.665	-27.265	-0.072224	0.05856	1.131672	-12.225	11.37	-4.0335	0	184	1035	1
2026-02-12	14:55:07.350	-0.77	14.805	-24.64	-0.07808	0.077592	1.080432	-12.2235	11.364	-4.011	0	184	1035	1
2026-02-12	14:55:07.370	3.675	18.445	-21.945	-0.07686	0.101016	1.058716	-12.2085	11.3535	-4.0035	0	184	1035	1
2026-02-12	14:55:07.390	10.955	19.705	-20.86	-0.087108	0.117364	1.0736	-12.1965	11.349	-4.011	0	184	1035	1
2026-02-12	14:55:07.410	18.305	17.92	-23.485	-0.087352	0.092232	1.120692	-12.195	11.349	-4.005	0	186	1033	1
2026-02-12	14:55:07.430	22.33	13.125	-29.505	-0.076616	0.063928	1.184376	-12.1935	11.343	-3.9945	0	186	1033	1
2026-02-12	14:55:07.450	21.175	8.225	-35.7	-0.027816	0.033916	1.234152	-12.1935	11.3385	-3.993	0	186	1033	1
2026-02-12	14:55:07.470	14.7	-1.855	-37.73	0.0732	-0.037088	1.274412	-12.1935	11.3385	-3.993	0	186	1033	1
2026-02-12	14:55:07.490	7.91	-8.26	-35.665	0.128344	-0.037332	1.237812	-12.183	11.3325	-3.9195	0	186	1033	1
2026-02-12	14:55:07.510	4.97	-8.085	-34.755	0.125416	-0.0244	1.185352	-12.183	11.3325	-3.9195	0	186	1033	1
2026-02-12	14:55:07.530	-0.35	-7.665	-34.3	0.11102	-0.004636	1.06018	-12.201	11.3415	-3.9705	0	186	1033	1
2026-02-12	14:55:07.550	-2.59	-11.305	-35.945	0.1159	0.03172	0.955016	-12.189	11.343	-3.945	0	186	1033	1
2026-02-12	14:55:07.570	-1.33	-5.495	-40.635	0.117608	0.071004	0.854976	-12.222	11.3625	-4.0185	0	186	1033	1
2026-02-12	14:55:07.590	1.085	0.455	-45.57	0.139812	0.07686	0.880108	-12.222	11.3445	-4.0275	0	186	1033	1
2026-02-12	14:55:07.610	2.555	6.09	-49.14	0.17446	0.061488	0.973316	-12.2415	11.358	-4.0425	0	188	1042	1
2026-02-12	14:55:07.630	-0.875	12.04	-51.065	0.191784	0.036844	1.019676	-12.2595	11.376	-4.0905	0	188	1042	1
2026-02-12	14:55:07.650	-8.645	12.705	-51.205	0.188124	0.015616	1.054568	-12.2565	11.3835	-4.0605	0	188	1042	1
2026-02-12	14:55:07.670	-15.365	14.56	-50.925	0.146156	0.010004	1.008452	-12.2565	11.37	-4.068	0	188	1042	1
2026-02-12	14:55:07.690	-18.375	19.425	-51.905	0.061488	0.018544	0.88572	-12.273	11.379	-4.0875	0	188	1042	1
2026-02-12	14:55:07.710	-20.265	17.29	-53.025	0.00244	0.040016	0.779336	-12.2475	11.3655	-4.035	0	188	1042	1
2026-02-12	14:55:07.730	-21.35	14.49	-53.62	-0.031232	0.028304	0.736392	-12.2235	11.334	-3.9915	0	188	1042	1
2026-02-12	14:55:07.750	-19.67	12.845	-53.165	-0.045384	0.00976	0.751032	-12.201	11.3235	-3.999	0	188	1042	1
2026-02-12	14:55:07.770	-15.505	11.305	-51.59	-0.055144	0.001708	0.809836	-12.222	11.328	-4.008	0	188	1042	1
2026-02-12	14:55:07.790	-11.41	9.24	-48.475	-0.06466	-0.009272	0.861564	-12.243	11.334	-4.0365	0	188	1042	1
2026-02-12	14:55:07.810	-8.295	5.95	-44.625	-0.059292	-0.030012	0.908168	-12.255	11.3535	-4.071	0	189	1040	1
2026-02-12	14:55:07.830	-4.865	0.84	-39.445	-0.046848	-0.053192	0.943304	-12.2655	11.361	-4.083	0	189	1040	1
2026-02-12	14:55:07.850	-0.91	-3.185	-32.97	-0.045384	-0.06832	0.992348	-12.2715	11.3655	-4.095	0	189	1040	1
2026-02-12	14:55:07.870	2.835	-5.67	-25.27	-0.050996	-0.066856	1.005036	-12.279	11.3805	-4.0905	0	189	1040	1
2026-02-12	14:55:07.890	6.02	-6.58	-17.745	-0.048312	-0.075884	1.031876	-12.282	11.3775	-4.0695	0	189	1040	1
2026-02-12	14:55:07.910	9.24	-5.775	-10.815	-0.062708	-0.0732	1.053836	-12.2745	11.373	-4.0365	0	189	1040	1
2026-02-12	14:55:07.930	12.635	-3.325	-4.48	-0.085888	-0.070272	1.08092	-12.2655	11.364	-4.026	0	189	1040	1
2026-02-12	14:55:07.950	16.065	-0.21	1.365	-0.087108	-0.079544	1.126304	-12.255	11.3565	-4.0185	0	189	1040	1
2026-02-12	14:55:07.970	17.115	3.815	6.86	-0.06344	-0.094916	1.16754	-12.2625	11.352	-4.011	0	189	1040	1
2026-02-12	14:55:07.990	15.12	0.875	12.88	-0.0732	-0.06588	1.162904	-12.2595	11.355	-3.975	0	189	1040	1
2026-02-12	14:55:08.010	11.795	-5.46	18.69	-0.104676	-0.0183	1.150704	-12.2415	11.3445	-3.9555	0	189	1031	1
2026-02-12	14:55:08.030	7.735	-15.925	22.785	-0.105896	-0.013664	1.164124	-12.2385	11.349	-3.954	0	189	1031	1
2026-02-12	14:55:08.050	4.62	-30.975	25.34	-0.056852	-0.064416	1.235616	-12.237	11.334	-3.912	0	189	1031	1
2026-02-12	14:55:08.070	4.9	-38.5	26.775	0.022692	-0.146644	1.247084	-12.228	11.3355	-3.915	0	189	1031	1
2026-02-12	14:55:08.090	7.84	-38.815	26.74	0.050508	-0.158356	1.164368	-12.2385	11.3355	-3.918	0	189	1031	1
2026-02-12	14:55:08.110	11.795	-31.5	24.29	0.033184	-0.1586	0.983564	-12.2595	11.3535	-3.96	0	189	1031	1
2026-02-12	14:55:08.130	14.28	-30.17	21.945	0.057584	-0.187392	0.867176	-12.2445	11.34	-3.933	0	189	1031	1
2026-02-12	14:55:08.150	15.12	-24.15	17.745	0.101992	-0.20374	0.8662	-12.2385	11.346	-3.9735	0	189	1031	1
2026-02-12	14:55:08.170	18.2	-12.46	13.72	0.147376	-0.22082	0.935496	-12.27	11.358	-4.0605	0	189	1031	1
2026-02-12	14:55:08.190	20.86	-3.99	12.11	0.152744	-0.163236	0.984784	-12.21	11.304	-4.1625	0	189	1031	1
2026-02-12	14:55:08.210	17.395	1.61	12.53	0.161772	-0.203008	1.023336	-11.97	11.0835	-4.359	0	188	1034	1
2026-02-12	14:55:08.230	6.3	-4.41	18.27	0.125416	-0.075884	1.046272	-11.97	11.0835	-4.359	0	188	1034	1
2026-02-12	14:55:08.250	-2.975	-9.17	22.26	0.091744	-0.045384	0.985028	-11.97	11.0835	-4.359	0	188	1034	1
2026-02-12	14:55:08.270	-5.04	-7.735	23.38	0.027084	0.042944	0.87596	-11.5395	10.656	-4.584	0	188	1034	1
2026-02-12	14:55:08.290	-4.76	-10.745	20.895	-0.049044	0.108336	0.766892	-11.094	10.218	-4.7835	0	188	1034	1
2026-02-12	14:55:08.310	-5.355	-16.94	19.565	-0.070272	0.138348	0.731512	-11.0895	10.197	-4.7805	0	188	1034	1
2026-02-12	14:55:08.330	-5.565	-16.345	17.01	-0.07564	0.13176	0.74054	-11.193	10.284	-4.7505	0	188	1034	1
2026-02-12	14:55:08.350	-4.06	-15.68	12.985	-0.10004	0.14518	0.756888	-11.5425	10.617	-4.569	0	188	1034	1
2026-02-12	14:55:08.370	-3.885	-15.925	9.205	-0.096868	0.223016	0.854732	-12.0645	11.1045	-4.2615	0	188	1034	1
2026-02-12	14:55:08.390	-4.62	-13.825	2.555	-0.063928	0.182268	0.91134	-12.435	11.466	-4.023	0	188	1034	1
2026-02-12	14:55:08.410	-5.915	-19.005	0.28	-0.031476	0.129808	1.008696	-12.549	11.5875	-3.9765	0	188	1029	1
2026-02-12	14:55:08.430	-6.3	-19.18	-1.365	-0.017568	0.083936	1.003328	-12.5625	11.5995	-3.9765	0	188	1029	1
2026-02-12	14:55:08.450	-5.005	-18.48	-1.995	-0.02318	0.075884	1.057008	-12.5535	11.595	-3.9465	0	188	1029	1
2026-02-12	14:55:08.470	-3.15	-17.115	-1.085	-0.03416	0.056852	1.072136	-12.54	11.589	-3.921	0	188	1029	1
2026-02-12	14:55:08.490	-1.61	-14.49	0.7	-0.064172	0.069296	1.096048	-12.54	11.5815	-3.8925	0	188	1029	1
2026-02-12	14:55:08.510	0.735	-11.48	1.015	-0.074908	0.058804	1.157536	-12.5445	11.5755	-3.8745	0	188	1029	1
2026-02-12	14:55:08.530	5.215	-10.01	-1.995	-0.051728	0.02318	1.238056	-12.5445	11.5755	-3.8745	0	188	1029	1
2026-02-12	14:55:08.550	10.71	-8.19	-7.42	-0.027816	-0.010736	1.307596	-12.5235	11.5665	-3.7965	0	188	1029	1
2026-02-12	14:55:08.570	11.935	-7.945	-9.94	0.001952	-0.044164	1.33956	-12.5235	11.5665	-3.7965	0	188	1029	1
2026-02-12	14:55:08.590	9.73	-15.61	-11.13	0.097844	-0.145912	1.403976	-12.498	11.55	-3.696	0	188	1029	1
2026-02-12	14:55:08.610	6.51	-20.125	-6.895	0.170556	-0.18178	1.401536	-12.498	11.5455	-3.687	0	189	1028	1
2026-02-12	14:55:08.630	5.775	-15.575	-1.68	0.167384	-0.148596	1.2749	-12.498	11.5515	-3.714	0	189	1028	1
2026-02-12	14:55:08.650	4.13	-12.46	2.695	0.144204	-0.096136	1.1468	-12.498	11.5485	-3.6975	0	189	1028	1
2026-02-12	14:55:08.670	3.22	-8.4	4.69	0.161772	-0.076616	1.056764	-12.513	11.553	-3.732	0	189	1028	1
2026-02-12	14:55:08.690	7.035	3.01	2.59	0.171532	-0.038064	0.964776	-12.5445	11.5665	-3.81	0	189	1028	1
2026-02-12	14:55:08.710	13.055	18.41	-1.785	0.184464	-0.00366	0.905972	-12.573	11.6055	-3.8895	0	189	1028	1
2026-02-12	14:55:08.730	18.62	29.26	-6.545	0.206912	0.010492	0.907436	-12.5565	11.592	-3.888	0	189	1028	1
2026-02-12	14:55:08.750	19.46	35.665	-9.8	0.237412	-0.002684	0.959896	-12.564	11.589	-3.8925	0	189	1028	1
2026-02-12	14:55:08.770	12.985	38.325	-10.64	0.260836	-0.022692	1.029192	-12.5745	11.5965	-3.906	0	189	1028	1
2026-02-12	14:55:08.790	1.785	36.085	-9.065	0.259616	-0.016104	0.991128	-12.558	11.5935	-3.8775	0	189	1028	1
2026-02-12	14:55:08.810	-6.93	30.03	-6.09	0.236436	0.030744	0.907192	-12.5265	11.5665	-3.8685	0	191	1043	1
2026-02-12	14:55:08.830	-10.325	23.975	-5.88	0.172752	0.0732	0.799344	-12.498	11.541	-3.8685	0	191	1043	1
2026-02-12	14:55:08.850	-10.5	14.245	-7.595	0.1342	0.085644	0.766404	-12.4725	11.5185	-3.843	0	191	1043	1
2026-02-12	14:55:08.870	-7.875	4.34	-11.27	0.086376	0.109068	0.758108	-12.4605	11.502	-3.837	0	191	1043	1
2026-02-12	14:55:08.890	-3.535	-2.66	-15.89	0.061976	0.132736	0.82228	-12.462	11.4915	-3.8115	0	191	1043	1
2026-02-12	14:55:08.910	0.84	-6.125	-19.74	0.05612	0.155428	0.91134	-12.477	11.52	-3.834	0	191	1043	1
2026-02-12	14:55:08.930	3.745	-4.935	-21.49	0.066856	0.173972	0.980636	-12.489	11.5275	-3.864	0	191	1043	1
2026-02-12	14:55:08.950	3.99	0.63	-20.65	0.07905599	0.153964	1.086044	-12.5145	11.544	-3.8745	0	191	1043	1
2026-02-12	14:55:08.970	0.035	7.945	-17.675	0.106628	0.187636	1.100196	-12.5055	11.541	-3.8445	0	191	1043	1
2026-02-12	14:55:08.990	-4.655	14.735	-14.28	0.129076	0.20008	1.088972	-12.4965	11.532	-3.819	0	191	1043	1
2026-02-12	14:55:09.010	-7.77	23.345	-12.25	0.103456	0.165676	1.0553	-12.4995	11.532	-3.828	0	194	1043	1
2026-02-12	14:55:09.030	-9.765	31.15	-13.545	0.04636	0.194956	0.999668	-12.5025	11.5335	-3.8175	0	194	1043	1
2026-02-12	14:55:09.050	-10.5	39.445	-19.18	0.00122	0.166896	0.984052	-12.5055	11.5335	-3.822	0	194	1043	1
2026-02-12	14:55:09.070	-10.395	43.645	-26.18	-0.01098	0.07076	0.988688	-12.498	11.529	-3.8085	0	194	1043	1
2026-02-12	14:55:09.090	-9.59	49.14	-31.955	0.005124	0.016348	0.975512	-12.489	11.529	-3.8235	0	194	1043	1
2026-02-12	14:55:09.110	-8.855	48.65	-33.985	0.020008	0.02074	0.931104	-12.4935	11.523	-3.819	0	194	1043	1
2026-02-12	14:55:09.130	-9.38	37.065	-30.94	0.030256	0.003416	0.879376	-12.4725	11.5155	-3.7965	0	194	1043	1
2026-02-12	14:55:09.150	-9.275	14.49	-24.29	-0.013176	0.057096	0.887184	-12.462	11.496	-3.777	0	194	1043	1
2026-02-12	14:55:09.170	-9.065	-18.025	-16.135	-0.050264	0.03172	0.952576	-12.4725	11.4975	-3.7875	0	194	1043	1
2026-02-12	14:55:09.190	-1.96	-43.19	-12.985	-0.010004	-0.092476	1.197796	-12.4845	11.5035	-3.8295	0	194	1043	1
2026-02-12	14:55:09.210	11.305	-54.705	-16.555	0.005124	-0.20374	1.345172	-12.4815	11.508	-3.795	0	197	1037	1
2026-02-12	14:55:09.230	19.565	-51.835	-20.79	-0.016348	-0.21472	1.213656	-12.4875	11.493	-3.7635	0	197	1037	1
2026-02-12	14:55:09.250	21.77	-46.69	-23.03	-0.023424	-0.160064	1.021384	-12.492	11.5005	-3.717	0	197	1037	1
2026-02-12	14:55:09.270	21.35	-39.2	-22.26	0.006832	-0.127124	0.868152	-12.5085	11.4885	-3.7425	0	197	1037	1
2026-02-12	14:55:09.290	21	-28.28	-19.845	0.096868	-0.166896	0.935984	-12.525	11.4855	-3.795	0	197	1037	1
2026-02-12	14:55:09.310	27.335	-10.745	-16.66	0.1891	-0.217892	1.072136	-12.537	11.502	-3.8745	0	197	1037	1
2026-02-12	14:55:09.330	35.63	9.205	-12.775	0.18422	-0.189344	1.141432	-12.5565	11.517	-3.9195	0	197	1037	1
2026-02-12	14:55:09.350	33.53	17.92	-5.845	0.176656	-0.164456	1.13948	-12.4635	11.4315	-3.9495	0	197	1037	1
2026-02-12	14:55:09.370	19.775	10.5	1.96	0.156648	-0.141764	1.104344	-12.303	11.2665	-3.951	0	197	1037	1
2026-02-12	14:55:09.390	7.175	4.515	7.595	0.129076	-0.114436	1.043832	-12.306	11.25	-3.963	0	197	1037	1
2026-02-12	14:55:09.410	4.83	0.84	10.185	0.060756	-0.070516	0.95892	-12.306	11.2515	-3.972	0	198	1035	1
2026-02-12	14:55:09.430	5.74	-1.505	9.8	-0.023668	-0.002928	0.824232	-12.3195	11.2575	-4.0095	0	198	1035	1
2026-02-12	14:55:09.450	4.725	-8.4	7.525	-0.087596	0.049044	0.777628	-12.285	11.229	-3.957	0	198	1035	1
2026-02-12	14:55:09.470	3.99	-14.665	4.305	-0.105408	0.07124799	0.820572	-12.288	11.223	-3.9435	0	198	1035	1
2026-02-12	14:55:09.490	5.705	-10.675	1.505	-0.103944	0.08784	0.912804	-12.303	11.2275	-3.9825	0	198	1035	1
2026-02-12	14:55:09.510	7.105	-4.06	-0.945	-0.124196	0.122	0.973316	-12.4185	11.337	-3.9975	0	198	1035	1
2026-02-12	14:55:09.530	4.2	1.68	-2.1	-0.10858	0.138592	1.063108	-12.4155	11.337	-3.984	0	198	1035	1
2026-02-12	14:55:09.550	-0.875	5.88	-2.24	-0.104676	0.13054	1.109224	-12.4155	11.334	-3.951	0	198	1035	1
2026-02-12	14:55:09.570	-4.69	12.46	-2.52	-0.103212	0.129076	1.107028	-12.4095	11.319	-3.936	0	198	1035	1
2026-02-12	14:55:09.590	-6.195	18.83	-2.975	-0.10126	0.114192	1.076528	-12.4095	11.319	-3.936	0	198	1035	1
2026-02-12	14:55:09.610	-5.215	22.575	-3.045	-0.101992	0.11346	1.034316	-12.3915	11.3265	-3.9075	0	199	1034	1
2026-02-12	14:55:09.630	-2.73	25.62	-2.94	-0.099308	0.10736	1.023824	-12.3915	11.3265	-3.9075	0	199	1034	1
2026-02-12	14:55:09.650	1.96	27.545	-2.205	-0.096868	0.105652	1.016016	-12.3915	11.3265	-3.9075	0	199	1034	1
2026-02-12	14:55:09.670	10.15	28.14	-1.505	-0.122488	0.130052	0.99918	-12.3915	11.3265	-3.9075	0	199	1034	1
2026-02-12	14:55:09.690	18.69	26.04	-2.38	-0.129808	0.125904	1.001132	-12.3615	11.304	-3.9165	0	199	1034	1
2026-02-12	14:55:09.710	24.99	19.005	-4.76	-0.136152	0.136884	1.031144	-12.36	11.2965	-3.906	0	199	1034	1
2026-02-12	14:55:09.730	26.145	10.01	-6.72	-0.118584	0.134932	1.061156	-12.3525	11.2845	-3.9105	0	199	1034	1
2026-02-12	14:55:09.750	21.525	-0.805	-4.06	-0.038308	0.084668	1.130208	-12.3525	11.2815	-3.93	0	199	1034	1
2026-02-12	14:55:09.770	16.065	-9.17	1.75	0.04514	0.04148	1.182424	-12.357	11.2815	-3.939	0	199	1034	1
2026-02-12	14:55:09.790	13.37	-14.175	6.475	0.04758	0.07076	1.170224	-12.354	11.2725	-3.9345	0	199	1034	1
2026-02-12	14:55:09.810	10.01	-13.895	5.74	0.038796	0.066368	1.10288	-12.354	11.2845	-3.939	0	199	1036	1
2026-02-12	14:55:09.830	5.04	-16.905	2.415	0.060756	0.043676	1.00772	-12.3465	11.274	-3.9135	0	199	1036	1
2026-02-12	14:55:09.850	1.89	-11.76	-3.01	0.087352	0.032452	0.902556	-12.366	11.292	-3.981	0	199	1036	1
2026-02-12	14:55:09.870	-0.315	-7.595	-7.665	0.12932	0.010004	0.867176	-12.348	11.2665	-3.9615	0	199	1036	1
2026-02-12	14:55:09.890	-1.925	-4.34	-10.29	0.181048	-0.008052	0.931104	-12.348	11.2755	-3.9885	0	199	1036	1
2026-02-12	14:55:09.910	-4.445	5.285	-12.285	0.2013	-0.020252	1.008452	-12.393	11.313	-4.068	0	199	1036	1
2026-02-12	14:55:09.930	-11.27	9.66	-11.935	0.199836	-0.029524	1.056032	-12.384	11.3145	-4.041	0	199	1036	1
2026-02-12	14:55:09.950	-20.51	10.71	-11.095	0.139568	0.003904	1.015772	-12.3705	11.3055	-4.0125	0	199	1036	1
2026-02-12	14:55:09.970	-26.88	9.835	-12.635	0.044408	0.057584	0.93208	-12.3675	11.307	-4.011	0	199	1036	1
2026-02-12	14:55:09.990	-30.03	4.9	-16.065	-0.046604	0.081984	0.843752	-12.351	11.298	-3.987	0	199	1036	1
2026-02-12	14:55:10.010	-30.17	-3.5	-19.04	-0.101992	0.079544	0.80032	-12.3315	11.2815	-3.933	0	197	1036	1
2026-02-12	14:55:10.030	-26.565	-9.275	-19.74	-0.118096	0.053192	0.8113	-12.3315	11.2635	-3.924	0	197	1036	1
2026-02-12	14:55:10.050	-19.845	-8.61	-17.92	-0.119316	0.048556	0.820084	-12.342	11.286	-3.963	0	197	1036	1
2026-02-12	14:55:10.070	-14.07	-9.66	-13.79	-0.111264	0.055144	0.843752	-12.3375	11.289	-3.9585	0	197	1036	1
2026-02-12	14:55:10.090	-10.36	-12.39	-8.225	-0.07905599	0.046116	0.915732	-12.3435	11.2875	-3.9645	0	197	1036	1
2026-02-12	14:55:10.110	-7.35	-11.9	-2.8	-0.046116	0.046116	0.978684	-12.3585	11.295	-3.993	0	197	1036	1
2026-02-12	14:55:10.130	-4.795	-11.27	1.715	-0.029768	0.0488	1.019432	-12.3645	11.3265	-4.0035	0	197	1036	1
2026-02-12	14:55:10.150	-3.5	-9.205	4.69	-0.016104	0.05368	1.0492	-12.3585	11.3235	-3.9975	0	197	1036	1
2026-02-12	14:55:10.170	-2.065	-6.895	5.985	0.005612	0.05856	1.064816	-12.3705	11.3235	-3.9765	0	197	1036	1
2026-02-12	14:55:10.190	0.735	-2.73	5.985	0.012444	0.063928	1.044808	-12.366	11.331	-3.9675	0	197	1036	1
2026-02-12	14:55:10.210	3.955	2.065	5.53	-0.002684	0.07442	1.01138	-12.3555	11.3265	-3.969	0	194	1026	1
2026-02-12	14:55:10.230	7.455	6.23	5.18	-0.014152	0.081496	1.010404	-12.3435	11.3295	-3.975	0	194	1026	1
2026-02-12	14:55:10.250	11.095	9.065	5.25	0.006344	0.059292	1.065792	-12.3495	11.3265	-3.975	0	194	1026	1
2026-02-12	14:55:10.270	12.635	8.925	6.51	0.022936	-0.00854	1.108248	-12.3525	11.331	-3.963	0	194	1026	1
2026-02-12	14:55:10.290	10.08	4.13	10.78	0.015616	-0.030988	1.135088	-12.351	11.322	-3.9615	0	194	1026	1
2026-02-12	14:55:10.310	5.53	-2.1	15.19	-0.031964	-0.008052	1.103612	-12.339	11.3205	-3.9735	0	194	1026	1
2026-02-12	14:55:10.330	0.035	-12.635	19.285	-0.060024	-0.007076	1.075308	-12.3435	11.328	-3.9825	0	194	1026	1
2026-02-12	14:55:10.350	-5.32	-28.42	22.855	-0.020496	-0.059048	1.152168	-12.339	11.3115	-3.963	0	194	1026	1
2026-02-12	14:55:10.370	-6.685	-41.72	26.25	0.080276	-0.147132	1.27246	-12.3195	11.3115	-3.936	0	194	1026	1
2026-02-12	14:55:10.390	-2.485	-42.735	29.015	0.132248	-0.186172	1.254892	-12.3375	11.3205	-3.9435	0	194	1026	1
2026-02-12	14:55:10.410	2.31	-36.47	29.96	0.107604	-0.155184	1.078724	-12.345	11.3235	-3.9435	0	189	1026	1
2026-02-12	14:55:10.430	7	-29.715	28.98	0.054412	-0.10614	0.896212	-12.36	11.352	-3.9555	0	189	1026	1
2026-02-12	14:55:10.450	11.585	-26.355	26.285	0.061976	-0.09638	0.8479	-12.345	11.3355	-3.951	0	189	1026	1
2026-02-12	14:55:10.470	18.515	-15.015	22.435	0.111264	-0.138348	0.921588	-12.345	11.334	-4.0005	0	189	1026	1
2026-02-12	14:55:10.490	25.62	-3.29	20.58	0.147864	-0.178364	1.009428	-12.3645	11.3355	-4.0245	0	189	1026	1
2026-02-12	14:55:10.510	23.065	1.96	22.995	0.151524	-0.178852	1.141188	-12.366	11.3505	-4.0335	0	189	1026	1
2026-02-12	14:55:10.530	11.795	0.035	28.805	0.129076	-0.15128	1.14436	-12.351	11.34	-4.0035	0	189	1026	1
2026-02-12	14:55:10.550	0.735	-1.365	34.37	0.084668	-0.083936	1.089216	-12.36	11.3385	-4.014	0	189	1026	1
2026-02-12	14:55:10.570	-4.34	0.105	37.24	0.009028	-0.015372	0.988932	-12.363	11.3505	-4.0065	0	189	1026	1
2026-02-12	14:55:10.590	-6.895	-1.89	37.17	-0.063684	0.059536	0.872788	-12.351	11.349	-3.99	0	189	1026	1
2026-02-12	14:55:10.610	-8.365	-3.255	34.055	-0.092232	0.089548	0.847656	-12.333	11.334	-3.954	0	184	1033	1
2026-02-12	14:55:10.630	-6.755	-1.085	29.575	-0.097356	0.101016	0.83082	-12.324	11.3295	-3.9615	0	184	1033	1
2026-02-12	14:55:10.650	-3.22	2.135	25.69	-0.080032	0.10614	0.875472	-12.324	11.3295	-3.9615	0	184	1033	1
2026-02-12	14:55:10.670	0.7	6.825	23.03	-0.06734399	0.104432	0.915976	-12.3285	11.3385	-3.9705	0	184	1033	1
2026-02-12	14:55:10.690	1.785	7.805	22.505	-0.057096	0.1098	0.937204	-12.333	11.349	-3.9795	0	184	1033	1
2026-02-12	14:55:10.710	2.765	8.54	22.33	-0.061976	0.129076	0.981856	-12.3345	11.349	-3.981	0	184	1033	1
2026-02-12	14:55:10.730	2.835	9.03	22.19	-0.07198	0.139324	1.027728	-12.339	11.3535	-3.981	0	184	1033	1
2026-02-12	14:55:10.750	3.01	8.435	21.385	-0.080032	0.120292	1.096048	-12.3345	11.349	-3.9615	0	184	1033	1
2026-02-12	14:55:10.770	4.025	9.695	19.32	-0.098088	0.107604	1.115812	-12.321	11.3445	-3.939	0	184	1033	1
2026-02-12	14:55:10.790	5.6	13.58	16.8	-0.119804	0.122732	1.099464	-12.3135	11.34	-3.9285	0	184	1033	1
2026-02-12	14:55:10.810	7.805	17.71	14.805	-0.130296	0.145668	1.071648	-12.303	11.337	-3.9135	0	180	1035	1
2026-02-12	14:55:10.830	11.34	20.615	12.075	-0.134932	0.162748	1.068232	-12.2925	11.337	-3.9045	0	180	1035	1
2026-02-12	14:55:10.850	15.47	22.54	6.615	-0.111752	0.135176	1.114836	-12.2865	11.3325	-3.897	0	180	1035	1
2026-02-12	14:55:10.870	16.87	20.51	-0.385	-0.095648	0.116388	1.15534	-12.2805	11.325	-3.8805	0	180	1035	1
2026-02-12	14:55:10.890	12.425	12.95	-6.02	-0.050264	0.061244	1.185108	-12.27	11.316	-3.8565	0	180	1035	1
2026-02-12	14:55:10.910	4.935	3.15	-6.23	0.020496	-0.007564	1.256356	-12.2625	11.3085	-3.8595	0	180	1035	1
2026-02-12	14:55:10.930	0.385	-2.555	-2.66	0.068076	-0.0366	1.261968	-12.2625	11.31	-3.885	0	180	1035	1
2026-02-12	14:55:10.950	-1.715	-3.465	1.19	0.057096	-0.024156	1.181448	-12.2685	11.3175	-3.897	0	180	1035	1
2026-02-12	14:55:10.970	-4.165	-5.67	3.29	0.05124	-0.019276	1.064328	-12.2685	11.319	-3.891	0	180	1035	1
2026-02-12	14:55:10.990	-5.215	-4.515	3.605	0.06832	-0.010736	0.96014	-12.276	11.3175	-3.9	0	180	1035	1
2026-02-12	14:55:11.010	-3.71	4.305	1.82	0.09882	0.010736	0.838384	-12.291	11.3295	-3.945	0	177	1043	1
2026-02-12	14:55:11.030	-0.28	9.345	0.49	0.152256	0.024888	0.835212	-12.291	11.328	-3.9705	0	177	1043	1
2026-02-12	14:55:11.050	4.62	18.27	-1.75	0.181048	0.049288	0.891088	-12.2865	11.331	-3.9945	0	177	1043	1
2026-02-12	14:55:11.070	6.02	23.24	-4.795	0.167872	0.080276	0.96136	-12.288	11.3445	-4.0185	0	177	1043	1
2026-02-12	14:55:11.090	0.315	22.33	-8.61	0.1525	0.077836	0.996496	-12.288	11.3445	-4.0185	0	177	1043	1
2026-02-12	14:55:11.110	-8.575	17.185	-12.11	0.142252	0.078324	0.99308	-12.288	11.3445	-4.0185	0	177	1043	1
2026-02-12	14:55:11.130	-14.035	14.42	-15.12	0.095404	0.084912	0.952088	-12.3015	11.355	-4.0275	0	177	1043	1
2026-02-12	14:55:11.150	-16.415	13.09	-18.06	0.037576	0.10126	0.861808	-12.3015	11.3475	-4.017	0	177	1043	1
2026-02-12	14:55:11.170	-18.655	6.72	-20.44	-0.000976	0.111264	0.801784	-12.273	11.337	-3.981	0	177	1043	1
2026-02-12	14:55:11.190	-19.285	2.275	-22.47	-0.015128	0.095404	0.802272	-12.2715	11.325	-3.9585	0	177	1043	1
2026-02-12	14:55:11.210	-17.045	1.155	-24.045	-0.027816	0.083936	0.815204	-12.267	11.325	-3.9735	0	176	1043	1
2026-02-12	14:55:11.230	-14.105	1.365	-25.06	-0.037576	0.085888	0.848144	-12.2715	11.343	-3.9855	0	176	1043	1
2026-02-12	14:55:11.250	-12.25	0.105	-25.165	-0.03416	0.068564	0.913048	-12.2775	11.34	-3.981	0	176	1043	1
2026-02-12	14:55:11.270	-10.535	-0.455	-24.15	-0.0244	0.045384	0.97844	-12.288	11.3505	-4.0005	0	176	1043	1
2026-02-12	14:55:11.290	-8.33	0.7	-22.085	-0.01708	0.025864	0.98698	-12.288	11.3625	-4.02	0	176	1043	1
2026-02-12	14:55:11.310	-5.845	0.035	-18.76	-0.030012	0.027816	0.996496	-12.2925	11.3535	-4.002	0	176	1043	1
2026-02-12	14:55:11.330	-2.8	0.805	-15.225	-0.046848	0.0305	0.98942	-12.2865	11.3535	-4.0005	0	176	1043	1
2026-02-12	14:55:11.350	0.98	1.75	-11.69	-0.049288	0.016104	0.99064	-12.282	11.349	-3.9855	0	176	1043	1
2026-02-12	14:55:11.370	5.915	3.675	-8.015	-0.04758	-0.002928	1.016748	-12.291	11.3565	-3.981	0	176	1043	1
2026-02-12	14:55:11.390	11.69	5.95	-4.305	-0.030744	-0.019032	1.071404	-12.2895	11.355	-3.978	0	176	1043	1
2026-02-12	14:55:11.410	17.675	7.385	-0.84	-0.009272	-0.033184	1.109712	-12.285	11.3445	-3.9525	0	174	1031	1
2026-02-12	14:55:11.430	20.405	4.585	2.73	-0.024888	-0.016104	1.116056	-12.27	11.3385	-3.9405	0	174	1031	1
2026-02-12	14:55:11.450	18.655	-3.115	6.37	-0.05368	0.0061	1.109468	-12.2595	11.325	-3.9165	0	174	1031	1
2026-02-12	14:55:11.470	12.53	-16.415	9.975	-0.05368	-0.000244	1.173152	-12.2445	11.313	-3.8865	0	174	1031	1
2026-02-12	14:55:11.490	5.25	-28.665	11.445	-0.002684	-0.052216	1.285148	-12.237	11.3055	-3.8955	0	174	1031	1
2026-02-12	14:55:11.510	-0.665	-37.205	10.885	0.058072	-0.099308	1.324432	-12.2325	11.316	-3.882	0	174	1031	1
2026-02-12	14:55:11.530	-3.92	-40.39	10.465	0.080032	-0.118828	1.246352	-12.2535	11.3115	-3.885	0	174	1031	1
2026-02-12	14:55:11.550	-3.5	-36.575	9.03	0.063196	-0.126148	1.075064	-12.255	11.3265	-3.9135	0	174	1031	1
2026-02-12	14:55:11.570	0.385	-33.39	7.07	0.0366	-0.101992	0.931104	-12.2625	11.325	-3.9135	0	174	1031	1
2026-02-12	14:55:11.590	6.72	-23.415	3.43	0.025864	-0.100528	0.85644	-12.2835	11.3385	-3.984	0	174	1031	1
2026-02-12	14:55:11.610	15.855	-11.305	-0.175	0.075396	-0.152988	0.916708	-12.291	11.334	-3.987	0	172	1032	1
2026-02-12	14:55:11.630	25.62	5.635	-1.015	0.115656	-0.19398	1.092876	-12.3105	11.337	-4.0455	0	172	1032	1
2026-02-12	14:55:11.650	27.23	20.51	2.87	0.109068	-0.19032	1.115812	-12.3195	11.3565	-4.053	0	172	1032	1
2026-02-12	14:55:11.670	17.71	22.225	12.04	0.101504	-0.170556	1.109956	-12.2925	11.34	-3.9885	0	172	1032	1
2026-02-12	14:55:11.690	5.985	21.56	21.945	0.0671	-0.126148	1.085556	-12.288	11.328	-3.9765	0	172	1032	1
2026-02-12	14:55:11.710	-0.315	21.945	28.175	-0.002928	-0.071736	0.993812	-12.288	11.328	-3.9765	0	172	1032	1
2026-02-12	14:55:11.730	-2.24	19.075	30.24	-0.072224	-0.008784	0.889624	-12.2865	11.3325	-3.99	0	172	1032	1
2026-02-12	14:55:11.750	-2.73	15.12	29.645	-0.116876	0.038552	0.810568	-12.285	11.337	-4.0035	0	172	1032	1
2026-02-12	14:55:11.770	-2.345	8.715	27.545	-0.155916	0.074176	0.765672	-12.2595	11.3205	-3.963	0	172	1032	1
2026-02-12	14:55:11.790	0.49	1.505	23.66	-0.158844	0.101748	0.767136	-12.24	11.2995	-3.927	0	172	1032	1
2026-02-12	14:55:11.810	5.53	-3.43	19.53	-0.15982	0.112728	0.828136	-12.255	11.31	-3.936	0	171	1037	1
2026-02-12	14:55:11.830	9.835	-3.5	15.785	-0.178364	0.134444	0.907924	-12.372	11.43	-3.9	0	171	1037	1
2026-02-12	14:55:11.850	9.8	-0.105	14.455	-0.163236	0.142496	0.960384	-12.546	11.5965	-3.8145	0	171	1037	1
2026-02-12	14:55:11.870	7.525	-1.225	14.805	-0.140544	0.148596	1.015772	-12.6165	11.6595	-3.768	0	171	1037	1
2026-02-12	14:55:11.890	5.635	4.06	15.365	-0.136152	0.139324	1.05652	-12.615	11.6595	-3.768	0	171	1037	1
2026-02-12	14:55:11.910	4.655	9.24	16.03	-0.133224	0.132248	1.063108	-12.6015	11.652	-3.759	0	171	1037	1
2026-02-12	14:55:11.930	5.355	14.07	16.52	-0.140788	0.149572	1.02846	-12.597	11.646	-3.741	0	171	1037	1
2026-02-12	14:55:11.950	7.84	17.92	15.995	-0.157624	0.178364	1.007476	-12.603	11.6415	-3.732	0	171	1037	1
2026-02-12	14:55:11.970	12.18	18.865	13.09	-0.157624	0.198128	1.01748	-12.5925	11.64	-3.7215	0	171	1037	1
2026-02-12	14:55:11.990	16.415	17.675	7.105	-0.135176	0.177632	1.072136	-12.576	11.637	-3.7095	0	171	1037	1
2026-02-12	14:55:12.010	17.045	13.23	-0.315	-0.10492	0.137616	1.134356	-12.5685	11.634	-3.6885	0	171	1034	1
2026-02-12	14:55:12.030	11.13	5.775	-6.055	-0.053192	0.082716	1.226344	-12.5565	11.6235	-3.666	0	171	1034	1
2026-02-12	14:55:12.050	1.82	-0.91	-6.405	0.01708	0.019764	1.29442	-12.543	11.616	-3.6525	0	171	1034	1
2026-02-12	14:55:12.070	-5.915	-8.015	-4.025	0.038552	0.016348	1.278804	-12.531	11.616	-3.6345	0	171	1034	1
2026-02-12	14:55:12.090	-10.85	-12.145	-1.82	0.0061	0.056852	1.175592	-12.5325	11.616	-3.618	0	171	1034	1
2026-02-12	14:55:12.110	-13.615	-17.255	-1.645	0.004148	0.050752	1.101172	-12.537	11.6145	-3.606	0	171	1034	1
2026-02-12	14:55:12.130	-12.145	-15.61	-4.2	0.024156	0.03538	1.012112	-12.552	11.625	-3.6375	0	171	1034	1
2026-02-12	14:55:12.150	-7.735	-6.615	-9.31	0.048068	0.045628	0.891332	-12.582	11.6475	-3.7005	0	171	1034	1
2026-02-12	14:55:12.170	-2.905	0.665	-14.245	0.091012	0.065636	0.850584	-12.5805	11.646	-3.729	0	171	1034	1
2026-02-12	14:55:12.190	1.435	10.57	-18.27	0.132492	0.076616	0.881816	-12.582	11.643	-3.756	0	171	1034	1
2026-02-12	14:55:12.210	2.975	19.88	-20.895	0.154208	0.080276	0.934032	-12.6015	11.664	-3.7845	0	172	1038	1
2026-02-12	14:55:12.230	-1.19	22.75	-22.225	0.15494	0.083448	0.9882	-12.6105	11.679	-3.798	0	172	1038	1
2026-02-12	14:55:12.250	-8.785	24.045	-23.45	0.140788	0.081252	0.982588	-12.6075	11.685	-3.81	0	172	1038	1
2026-02-12	14:55:12.270	-15.715	21	-25.025	0.102236	0.072468	0.945988	-12.612	11.6895	-3.8025	0	172	1038	1
2026-02-12	14:55:12.290	-20.16	15.89	-27.055	0.061	0.067588	0.872056	-12.603	11.685	-3.7815	0	172	1038	1
2026-02-12	14:55:12.310	-22.715	5.53	-28.98	0.026596	0.049044	0.797392	-12.573	11.667	-3.753	0	172	1038	1
2026-02-12	14:55:12.330	-22.645	-5.74	-30.415	0.016104	0.030012	0.771528	-12.561	11.6535	-3.729	0	172	1038	1
2026-02-12	14:55:12.350	-19.425	-13.16	-30.94	-0.005612	0.021716	0.769088	-12.5715	11.6535	-3.7185	0	172	1038	1
2026-02-12	14:55:12.370	-15.12	-18.515	-30.45	-0.026108	0.034404	0.799588	-12.5805	11.6595	-3.72	0	172	1038	1
2026-02-12	14:55:12.390	-12.355	-22.4	-28.875	-0.04636	0.035624	0.884988	-12.5835	11.661	-3.726	0	172	1038	1
2026-02-12	14:55:12.410	-11.235	-22.47	-26.005	-0.056364	0.031232	0.97112	-12.5895	11.67	-3.7425	0	174	1032	1
2026-02-12	14:55:12.430	-11.34	-20.125	-21.735	-0.063196	0.030012	1.086532	-12.6075	11.685	-3.7635	0	174	1032	1
2026-02-12	14:55:12.450	-11.48	-15.085	-15.96	-0.081496	0.042944	1.096292	-12.627	11.6955	-3.7695	0	174	1032	1
2026-02-12	14:55:12.470	-10.185	-9.555	-10.185	-0.100284	0.050752	1.070428	-12.627	11.6985	-3.7635	0	174	1032	1
2026-02-12	14:55:12.490	-7.21	-4.97	-5.635	-0.09516	0.049044	1.058472	-12.6165	11.6925	-3.744	0	174	1032	1
2026-02-12	14:55:12.510	-1.995	-1.015	-2.555	-0.081008	0.027572	1.064328	-12.612	11.6835	-3.7245	0	174	1032	1
2026-02-12	14:55:12.530	4.76	2.24	-0.42	-0.050996	-0.011224	1.093364	-12.6105	11.679	-3.708	0	174	1032	1
2026-02-12	14:55:12.550	12.565	6.125	1.68	-0.001952	-0.044408	1.138992	-12.612	11.6805	-3.7005	0	174	1032	1
2026-02-12	14:55:12.570	19.495	8.61	4.515	0.029524	-0.056852	1.158756	-12.612	11.6805	-3.7005	0	174	1032	1
2026-02-12	14:55:12.590	22.75	6.755	7.91	0.044896	-0.053924	1.166076	-12.612	11.6805	-3.7005	0	174	1032	1
2026-02-12	14:55:12.610	21.56	0.84	12.18	0.041968	-0.057828	1.189012	-12.6075	11.6805	-3.6885	0	175	1027	1
2026-02-12	14:55:12.630	17.15	-7.245	14.875	0.037332	-0.054168	1.209264	-12.6075	11.67	-3.693	0	175	1027	1
2026-02-12	14:55:12.650	11.585	-22.61	16.87	0.068564	-0.099552	1.299544	-12.5805	11.6595	-3.618	0	175	1027	1
2026-02-12	14:55:12.670	9.87	-29.085	16.275	0.107116	-0.148352	1.324676	-12.588	11.658	-3.6315	0	175	1027	1
2026-02-12	14:55:12.690	11.235	-25.935	14.28	0.102968	-0.156404	1.186572	-12.5985	11.6685	-3.6615	0	175	1027	1
2026-02-12	14:55:12.710	14.35	-17.92	11.55	0.027572	-0.0793	0.914024	-12.6015	11.6805	-3.6945	0	175	1027	1
2026-02-12	14:55:12.730	17.885	-13.475	7.98	-0.000244	-0.051484	0.731268	-12.6045	11.6745	-3.6915	0	175	1027	1
2026-02-12	14:55:12.750	21.98	-8.89	3.92	0.047336	-0.069052	0.772016	-12.5895	11.6445	-3.705	0	175	1027	1
2026-02-12	14:55:12.770	27.125	6.37	2.38	0.07686	-0.083692	0.906216	-12.5895	11.6445	-3.705	0	175	1027	1
2026-02-12	14:55:12.790	25.41	17.605	2.94	0.071004	-0.087352	1.072868	-12.618	11.664	-3.762	0	175	1027	1
2026-02-12	14:55:12.810	17.43	16.835	6.055	0.08662	-0.1037	1.099708	-12.6465	11.685	-3.8205	0	176	1036	1
2026-02-12	14:55:12.830	6.79	15.575	10.535	0.079544	-0.09272	1.097024	-12.6405	11.6865	-3.8175	0	176	1036	1
2026-02-12	14:55:12.850	-4.235	15.33	15.12	0.044164	-0.06344	1.051884	-12.6345	11.6865	-3.813	0	176	1036	1
2026-02-12	14:55:12.870	-9.835	10.605	16.905	-0.020008	-0.019032	0.949404	-12.6345	11.6835	-3.807	0	176	1036	1
2026-02-12	14:55:12.890	-12.53	4.2	15.4	-0.08784	0.032208	0.811788	-12.6165	11.67	-3.762	0	176	1036	1
2026-02-12	14:55:12.910	-12.845	-9.1	12.53	-0.104432	0.063196	0.76738	-12.5895	11.649	-3.717	0	176	1036	1
2026-02-12	14:55:12.930	-9.905	-14.14	8.505	-0.101992	0.078812	0.767868	-12.5775	11.637	-3.714	0	176	1036	1
2026-02-12	14:55:12.950	-5.6	-15.715	4.865	-0.084912	0.080276	0.829844	-12.585	11.643	-3.732	0	176	1036	1
2026-02-12	14:55:12.970	-2.275	-15.75	2.415	-0.061244	0.084668	0.918416	-12.6075	11.6625	-3.7605	0	176	1036	1
2026-02-12	14:55:12.990	-1.295	-12.775	1.4	-0.057828	0.092476	0.982344	-12.63	11.6775	-3.7875	0	176	1036	1
2026-02-12	14:55:13.010	-2.275	-8.96	1.855	-0.0732	0.102724	1.0431	-12.6345	11.6835	-3.7905	0	176	1036	1
2026-02-12	14:55:13.030	-4.48	-6.055	2.8	-0.106628	0.114436	1.060912	-12.63	11.6805	-3.762	0	176	1036	1
2026-02-12	14:55:13.050	-5.53	-1.82	2.905	-0.137616	0.108092	1.05652	-12.624	11.676	-3.738	0	176	1036	1
2026-02-12	14:55:13.070	-5.11	1.54	2.45	-0.155184	0.101748	1.05408	-12.612	11.6685	-3.726	0	176	1036	1
2026-02-12	14:55:13.090	-2.625	5.985	2.555	-0.15616	0.101504	1.0675	-12.609	11.667	-3.714	0	176	1036	1
2026-02-12	14:55:13.110	2.1	11.27	3.115	-0.157136	0.1098	1.072136	-12.612	11.6655	-3.702	0	176	1036	1
2026-02-12	14:55:13.130	7.875	14.56	3.08	-0.14396	0.128832	1.088484	-12.603	11.6595	-3.684	0	176	1036	1
2026-02-12	14:55:13.150	13.02	14.245	0	-0.122976	0.109068	1.113128	-12.591	11.6565	-3.6645	0	176	1036	1
2026-02-12	14:55:13.170	15.295	10.01	-5.215	-0.097356	0.087352	1.175836	-12.5895	11.652	-3.6555	0	176	1036	1
2026-02-12	14:55:13.190	14.105	6.65	-9.52	-0.052704	0.030012	1.220976	-12.591	11.646	-3.651	0	176	1036	1
2026-02-12	14:55:13.210	9.555	1.33	-8.785	-0.001464	-0.005856	1.239764	-12.5865	11.646	-3.6465	0	177	1036	1
2026-02-12	14:55:13.230	4.795	-2.03	-2.765	0.010248	0.018056	1.202188	-12.5865	11.6445	-3.657	0	177	1036	1
2026-02-12	14:55:13.250	1.96	-5.285	4.025	0.011224	0.047336	1.137528	-12.588	11.643	-3.6705	0	177	1036	1
2026-02-12	14:55:13.270	1.645	-7.945	6.335	0.016836	0.065148	1.101172	-12.588	11.649	-3.6705	0	177	1036	1
2026-02-12	14:55:13.290	4.13	-8.365	3.5	0.05246	0.043188	1.081652	-12.591	11.649	-3.6705	0	177	1036	1
2026-02-12	14:55:13.310	8.785	-3.36	-2.59	0.086132	0.044652	1.004792	-12.6045	11.6535	-3.696	0	177	1036	1
2026-02-12	14:55:13.330	12.74	6.125	-9.905	0.114192	0.07442	0.888892	-12.621	11.67	-3.7425	0	177	1036	1
2026-02-12	14:55:13.350	13.265	9.555	-15.505	0.1525	0.0915	0.871812	-12.6165	11.667	-3.7455	0	177	1036	1
2026-02-12	14:55:13.370	11.41	13.02	-19.32	0.191784	0.082228	0.925492	-12.618	11.664	-3.7515	0	177	1036	1
2026-02-12	14:55:13.390	7.28	16.94	-22.295	0.203984	0.072712	0.999668	-12.633	11.6745	-3.7875	0	177	1036	1
2026-02-12	14:55:13.410	-0.385	17.01	-24.255	0.193736	0.049776	1.016504	-12.642	11.6835	-3.798	0	177	1043	1
2026-02-12	14:55:13.430	-9.38	15.435	-26.285	0.148596	0.051484	0.970876	-12.642	11.688	-3.7905	0	177	1043	1
2026-02-12	14:55:13.450	-15.19	12.95	-29.225	0.071492	0.07198	0.868152	-12.633	11.682	-3.783	0	177	1043	1
2026-02-12	14:55:13.470	-17.85	6.895	-32.515	0.000244	0.083448	0.796904	-12.612	11.6655	-3.7575	0	177	1043	1
2026-02-12	14:55:13.490	-17.5	0.105	-35.07	-0.04758	0.089792	0.7442	-12.5955	11.649	-3.7245	0	177	1043	1
2026-02-12	14:55:13.510	-14.525	-4.585	-36.575	-0.072956	0.085888	0.76616	-12.5895	11.637	-3.714	0	177	1043	1
2026-02-12	14:55:13.530	-9.94	-5.495	-36.225	-0.08906	0.09272	0.793488	-12.597	11.6355	-3.723	0	177	1043	1
2026-02-12	14:55:13.550	-6.65	-7.385	-33.6	-0.091744	0.087596	0.860832	-12.6105	11.649	-3.7335	0	177	1043	1
2026-02-12	14:55:13.570	-5.6	-8.155	-29.47	-0.077592	0.073688	0.93818	-12.621	11.6535	-3.7365	0	177	1043	1
2026-02-12	14:55:13.590	-5.46	-8.89	-24.185	-0.05124	0.052948	1.017968	-12.6375	11.6625	-3.7515	0	177	1043	1
2026-02-12	14:55:13.610	-5.285	-8.015	-18.76	-0.03782	0.03538	1.030168	-12.645	11.685	-3.759	0	176	1036	1
2026-02-12	14:55:13.630	-4.935	-7.665	-14	-0.027084	0.044408	1.026752	-12.645	11.682	-3.744	0	176	1036	1
2026-02-12	14:55:13.650	-3.605	-6.86	-10.5	-0.00976	0.039772	1.02236	-12.636	11.67	-3.735	0	176	1036	1
2026-02-12	14:55:13.670	-1.015	-4.935	-7.91	-0.012444	0.028792	1.013088	-12.636	11.673	-3.7365	0	176	1036	1
2026-02-12	14:55:13.690	2.555	-2.87	-5.985	-0.014884	0.016836	1.023092	-12.639	11.673	-3.735	0	176	1036	1
2026-02-12	14:55:13.710	7.245	0.175	-4.445	0.01952	-0.017812	1.101172	-12.639	11.6715	-3.7215	0	176	1036	1
2026-02-12	14:55:13.730	11.76	3.465	-2.1	0.034892	-0.03904	1.164856	-12.645	11.667	-3.696	0	176	1036	1
2026-02-12	14:55:13.750	11.725	1.26	1.33	0.027816	-0.037332	1.188524	-12.639	11.655	-3.669	0	176	1036	1
2026-02-12	14:55:13.770	8.365	-5.145	6.475	0.00366	-0.021228	1.178032	-12.627	11.652	-3.66	0	176	1036	1
2026-02-12	14:55:13.790	5.11	-11.62	10.92	-0.024888	-0.00488	1.172664	-12.6225	11.6565	-3.678	0	176	1036	1
2026-02-12	14:55:13.810	2.45	-20.37	14.07	-0.025864	-0.03172	1.175592	-12.63	11.6595	-3.69	0	174	1029	1
2026-02-12	14:55:13.830	1.575	-32.305	15.645	-0.007808	-0.064904	1.22122	-12.6375	11.6595	-3.693	0	174	1029	1
2026-02-12	14:55:13.850	2.905	-37.205	16.975	0.037576	-0.12688	1.21512	-12.6375	11.6595	-3.693	0	174	1029	1
2026-02-12	14:55:13.870	5.04	-35.77	18.165	0.053192	-0.155184	1.152168	-12.624	11.6655	-3.6645	0	174	1029	1
2026-02-12	14:55:13.890	9.695	-26.705	17.955	0.035136	-0.143716	0.986736	-12.624	11.6655	-3.6645	0	174	1029	1
2026-02-12	14:55:13.910	12.985	-21.735	17.535	0.038552	-0.131028	0.90402	-12.624	11.6655	-3.6645	0	174	1029	1
2026-02-12	14:55:13.930	16.1	-15.68	16.31	0.067588	-0.134444	0.864736	-12.6555	11.6745	-3.708	0	174	1029	1
2026-02-12	14:55:13.950	17.605	-5.005	15.505	0.119072	-0.173484	0.920856	-12.6585	11.6685	-3.744	0	174	1029	1
2026-02-12	14:55:13.970	16.73	1.26	17.815	0.151036	-0.2013	1.073112	-12.6615	11.676	-3.747	0	174	1029	1
2026-02-12	14:55:13.990	11.165	3.64	23.03	0.138348	-0.188856	1.096048	-12.6615	11.676	-3.747	0	174	1029	1
2026-02-12	14:55:14.010	1.155	4.62	29.715	0.065148	-0.107604	1.071648	-12.6615	11.676	-3.747	0	173	1036	1
2026-02-12	14:55:14.030	-3.5	3.465	31.43	0.013176	-0.052216	1.010892	-12.6615	11.676	-3.747	0	173	1036	1
2026-02-12	14:55:14.050	-7.175	0.21	31.43	-0.049532	0.004148	0.921832	-12.6525	11.6745	-3.7365	0	173	1036	1
2026-02-12	14:55:14.070	-8.4	-4.375	29.33	-0.077348	0.055388	0.854976	-12.6435	11.6685	-3.711	0	173	1036	1
2026-02-12	14:55:14.090	-7.385	-7.455	26.04	-0.0854	0.07905599	0.838384	-12.6345	11.6565	-3.6855	0	173	1036	1
2026-02-12	14:55:14.110	-4.585	-8.33	23.31	-0.073932	0.082716	0.87108	-12.63	11.658	-3.69	0	173	1036	1
2026-02-12	14:55:14.130	-1.365	-6.3	21.42	-0.060512	0.083448	0.915732	-12.6405	11.6685	-3.7125	0	173	1036	1
2026-02-12	14:55:14.150	0.35	-3.535	20.405	-0.045384	0.088572	0.951112	-12.6495	11.679	-3.723	0	173	1036	1
2026-02-12	14:55:14.170	0.595	-1.05	19.6	-0.04026	0.101504	0.965508	-12.657	11.691	-3.7305	0	173	1036	1
2026-02-12	14:55:14.190	-0.105	0.77	18.41	-0.042944	0.109068	0.974048	-12.6615	11.694	-3.738	0	173	1036	1
2026-02-12	14:55:14.210	-1.015	1.855	16.485	-0.048556	0.119804	0.980636	-12.6555	11.6925	-3.7335	0	171	1037	1
2026-02-12	14:55:14.230	-1.26	2.8	13.79	-0.053924	0.12444	0.994544	-12.6525	11.694	-3.72	0	171	1037	1
2026-02-12	14:55:14.250	-0.35	3.955	10.675	-0.061	0.135664	1.01138	-12.6525	11.694	-3.7065	0	171	1037	1
2026-02-12	14:55:14.270	1.68	5.495	7.805	-0.072956	0.149084	1.034804	-12.648	11.691	-3.6975	0	171	1037	1
2026-02-12	14:55:14.290	5.11	8.54	4.76	-0.090524	0.161528	1.064084	-12.6375	11.685	-3.684	0	171	1037	1
2026-02-12	14:55:14.310	8.505	11.025	0.98	-0.101504	0.154208	1.1041	-12.63	11.6775	-3.6555	0	171	1037	1
2026-02-12	14:55:14.330	11.025	10.325	-3.745	-0.081984	0.132736	1.114348	-12.621	11.667	-3.6285	0	171	1037	1
2026-02-12	14:55:14.350	11.9	8.505	-8.925	-0.06222	0.09882	1.139236	-12.6135	11.6625	-3.618	0	171	1037	1
2026-02-12	14:55:14.370	9.555	3.85	-12.285	-0.020008	0.029524	1.177056	-12.6105	11.6595	-3.6045	0	171	1037	1
2026-02-12	14:55:14.390	4.69	-3.185	-11.585	0.021228	-0.0366	1.21268	-12.6045	11.652	-3.594	0	171	1037	1
2026-02-12	14:55:14.410	1.085	-8.015	-6.44	0.033916	-0.060024	1.19438	-12.606	11.649	-3.5955	0	170	1037	1
2026-02-12	14:55:14.430	-0.245	-10.08	-0.455	-0.000488	-0.013908	1.127524	-12.606	11.6505	-3.6075	0	170	1037	1
2026-02-12	14:55:14.450	-1.05	-12.215	2.73	-0.014884	0.0061	1.092876	-12.612	11.6535	-3.615	0	170	1037	1
2026-02-12	14:55:14.470	-0.245	-12.565	2.94	0.035624	-0.036356	1.096048	-12.618	11.6565	-3.6285	0	170	1037	1
2026-02-12	14:55:14.490	3.885	-5.075	0.98	0.079788	-0.0427	1.039196	-12.624	11.6685	-3.66	0	170	1037	1
2026-02-12	14:55:14.510	7.35	5.425	-1.75	0.105408	-0.010736	0.947452	-12.6345	11.679	-3.696	0	170	1037	1
2026-02-12	14:55:14.530	6.895	11.935	-3.675	0.145424	0.010492	0.89914	-12.636	11.6775	-3.7065	0	170	1037	1
2026-02-12	14:55:14.550	4.55	14.665	-4.41	0.189344	0.008296	0.934764	-12.633	11.6775	-3.7185	0	170	1037	1
2026-02-12	14:55:14.570	1.855	18.13	-4.9	0.203496	0.00366	0.982344	-12.6435	11.6895	-3.7515	0	170	1037	1
2026-02-12	14:55:14.590	-3.22	17.815	-5.11	0.179096	0.0122	0.990884	-12.6495	11.7	-3.762	0	170	1037	1
2026-02-12	14:55:14.610	-9.485	15.225	-6.58	0.122	0.037332	0.940132	-12.645	11.7	-3.753	0	168	1043	1
2026-02-12	14:55:14.630	-13.685	10.185	-9.765	0.068076	0.067588	0.883524	-12.6375	11.6865	-3.735	0	168	1043	1
2026-02-12	14:55:14.650	-15.68	4.34	-13.65	0.03172	0.060756	0.84302	-12.63	11.673	-3.7095	0	168	1043	1
2026-02-12	14:55:14.670	-16.24	-1.785	-16.73	0.01708	0.054412	0.826428	-12.6225	11.6685	-3.6945	0	168	1043	1
2026-02-12	14:55:14.690	-15.855	-4.83	-18.62	0.006588	0.052704	0.826672	-12.6165	11.6685	-3.6975	0	168	1043	1
2026-02-12	14:55:14.710	-14.875	-6.72	-18.97	-0.001464	0.057096	0.843264	-12.609	11.667	-3.696	0	168	1043	1
2026-02-12	14:55:14.730	-14.245	-6.825	-18.165	-0.012688	0.05246	0.873032	-12.615	11.6685	-3.7005	0	168	1043	1
2026-02-12	14:55:14.750	-13.685	-6.72	-16.415	-0.015372	0.048556	0.923296	-12.6285	11.6775	-3.7065	0	168	1043	1
2026-02-12	14:55:14.770	-12.775	-5.845	-13.72	-0.012444	0.033184	0.969168	-12.633	11.6865	-3.717	0	168	1043	1
2026-02-12	14:55:14.790	-11.165	-3.85	-10.395	-0.018788	0.037332	0.981856	-12.6435	11.694	-3.7305	0	168	1043	1
2026-02-12	14:55:14.810	-9.03	-2.38	-6.545	-0.02806	0.048556	0.989664	-12.651	11.694	-3.7215	0	166	1035	1
2026-02-12	14:55:14.830	-6.09	-0.91	-3.395	-0.024156	0.060024	0.99064	-12.645	11.697	-3.711	0	166	1035	1
2026-02-12	14:55:14.850	-2.135	0.91	-1.785	-0.029036	0.063196	1.003084	-12.6435	11.6985	-3.7035	0	166	1035	1
2026-02-12	14:55:14.870	2.66	2.485	-1.015	-0.023424	0.035868	1.04676	-12.651	11.694	-3.6975	0	166	1035	1
2026-02-12	14:55:14.890	8.085	4.865	-0.56	0.000244	0.005612	1.1041	-12.6435	11.6925	-3.6855	0	166	1035	1
2026-02-12	14:55:14.910	12.915	6.72	0.63	0.037088	-0.033672	1.159244	-12.6345	11.6955	-3.6735	0	166	1035	1
2026-02-12	14:55:14.930	15.015	6.44	3.99	0.063196	-0.063196	1.174128	-12.6195	11.682	-3.654	0	166	1035	1
2026-02-12	14:55:14.950	14.245	4.445	7.84	0.059048	-0.068076	1.162172	-12.6105	11.6775	-3.627	0	166	1035	1
2026-02-12	14:55:14.970	12.355	0.805	11.69	0.03416	-0.05124	1.141676	-12.6105	11.6775	-3.627	0	166	1035	1
2026-02-12	14:55:14.990	9.31	-6.755	16.38	-0.007564	-0.041724	1.130696	-12.615	11.6655	-3.6135	0	166	1035	1
2026-02-12	14:55:15.010	7.105	-14.805	19.04	-0.0244	-0.031964	1.153144	-12.6195	11.661	-3.654	0	163	1030	1
2026-02-12	14:55:15.030	6.58	-20.79	19.845	-0.014884	-0.09394	1.2261	-12.6315	11.676	-3.6765	0	163	1030	1
2026-02-12	14:55:15.050	7.98	-27.685	21.42	0.038064	-0.166164	1.267824	-12.6195	11.673	-3.6435	0	163	1030	1
2026-02-12	14:55:15.070	10.5	-28.035	24.675	0.061976	-0.2013	1.21268	-12.6255	11.667	-3.6165	0	163	1030	1
2026-02-12	14:55:15.090	13.37	-17.185	25.48	0.038308	-0.180804	1.041148	-12.624	11.679	-3.666	0	163	1030	1
2026-02-12	14:55:15.110	14.14	-10.675	25.795	0.03782	-0.175192	0.908656	-12.6195	11.6715	-3.675	0	163	1030	1
