yyyy-MM-dd	HH:mm:ss.fff	gyrX	gyrY	gyrZ	accX	accY	accZ	magX	magY	magZ	Marker	Energy	Angle	Classification
2026-02-12	14:54:46.410	-0.525	1.82	-1.89	-0.402112	-0.00732	0.910608	0.6075	0.537	-0.2625	0	485	929	1
2026-02-12	14:54:46.430	-1.89	1.435	-1.785	-0.40382	-0.026352	0.921344	0.603	0.5235	-0.2595	0	485	929	1
2026-02-12	14:54:46.450	-1.645	1.47	-1.575	-0.387716	-0.03538	0.927932	0.6075	0.5295	-0.255	0	485	929	1
2026-02-12	14:54:46.470	-0.805	2.065	-0.91	-0.389424	-0.027572	0.925736	0.609	0.531	-0.258	0	485	929	1
2026-02-12	14:54:46.490	-1.96	2.31	-0.455	-0.413336	-0.007076	0.887184	0.6075	0.537	-0.2445	0	485	929	1
2026-02-12	14:54:46.510	-0.805	1.47	-1.54	-0.439444	-0.032452	0.892552	0.603	0.5265	-0.261	0	485	929	1
2026-02-12	14:54:46.530	2.24	0.28	-2.135	-0.393328	-0.043188	0.930128	0.606	0.528	-0.2595	0	485	929	1
2026-02-12	14:54:46.550	2.555	1.155	-2.205	-0.380884	-0.028548	0.933056	0.612	0.531	-0.2595	0	485	929	1
2026-02-12	14:54:46.570	-0.945	2.065	-1.925	-0.400404	-0.022204	0.91744	0.609	0.5325	-0.2505	0	485	929	1
2026-02-12	14:54:46.590	-4.97	1.575	-2.17	-0.423828	-0.0183	0.888404	0.6075	0.5385	-0.2595	0	485	929	1
2026-02-12	14:54:46.610	-2.52	-0.595	-3.675	-0.40748	-0.060512	0.934032	0.6045	0.5385	-0.2625	0	412	932	1
2026-02-12	14:54:46.630	-0.665	-0.7	-3.64	-0.378688	-0.033184	0.936716	0.603	0.5295	-0.2625	0	412	932	1
2026-02-12	14:54:46.650	-1.68	0.77	-3.255	-0.385276	-0.015616	0.911096	0.6075	0.5385	-0.261	0	412	932	1
2026-02-12	14:54:46.670	-2.695	1.61	-2.975	-0.40382	-0.020252	0.890844	0.6075	0.531	-0.2535	0	412	932	1
2026-02-12	14:54:46.690	-1.68	1.82	-2.765	-0.40382	-0.039528	0.913048	0.6075	0.5295	-0.258	0	412	932	1
2026-02-12	14:54:46.710	1.925	2.835	-2.275	-0.379664	-0.045384	0.927444	0.603	0.5325	-0.2535	0	412	932	1
2026-02-12	14:54:46.730	3.15	5.145	-1.645	-0.400892	-0.029524	0.909632	0.603	0.528	-0.261	0	412	932	1
2026-02-12	14:54:46.750	-1.575	5.95	-1.75	-0.450424	-0.020008	0.879376	0.6105	0.531	-0.255	0	412	932	1
2026-02-12	14:54:46.770	-1.89	4.865	-3.36	-0.432368	-0.073688	0.905972	0.612	0.534	-0.2565	0	412	932	1
2026-02-12	14:54:46.790	2.03	4.76	-4.865	-0.388448	-0.055388	0.933788	0.612	0.5295	-0.2565	0	412	932	1
2026-02-12	14:54:46.810	1.68	6.405	-4.97	-0.3782	-0.031476	0.935008	0.6135	0.5355	-0.2535	0	351	933	1
2026-02-12	14:54:46.830	-5.74	7.315	-6.16	-0.43432	-0.018056	0.878644	0.6135	0.5355	-0.264	0	351	933	1
2026-02-12	14:54:46.850	-6.125	5.215	-7.315	-0.43066	-0.05612	0.916708	0.603	0.5415	-0.264	0	351	933	1
2026-02-12	14:54:46.870	-2.625	4.165	-7.385	-0.402356	-0.061976	0.93452	0.609	0.534	-0.2565	0	351	933	1
2026-02-12	14:54:46.890	-2.415	4.41	-6.51	-0.411872	-0.034648	0.91622	0.612	0.5355	-0.255	0	351	933	1
2026-02-12	14:54:46.910	-4.305	3.885	-5.775	-0.441152	-0.03172	0.884988	0.615	0.543	-0.255	0	351	933	1
2026-02-12	14:54:46.930	-3.78	1.925	-5.845	-0.42456	-0.049776	0.915488	0.6195	0.534	-0.258	0	351	933	1
2026-02-12	14:54:46.950	-1.4	1.12	-5.215	-0.396012	-0.04758	0.921832	0.627	0.537	-0.2565	0	351	933	1
2026-02-12	14:54:46.970	-1.68	1.33	-4.095	-0.422608	-0.031232	0.901092	0.6225	0.5385	-0.2595	0	351	933	1
2026-02-12	14:54:46.990	-0.385	0.735	-3.5	-0.43066	-0.0488	0.894992	0.621	0.543	-0.2565	0	351	933	1
2026-02-12	14:54:47.010	1.12	-0.07	-2.94	-0.4209	-0.04758	0.91012	0.6165	0.5385	-0.261	0	300	933	1
2026-02-12	14:54:47.030	0.84	0.07	-1.68	-0.41114	-0.043188	0.909144	0.624	0.534	-0.258	0	300	933	1
2026-02-12	14:54:47.050	-1.05	0.91	-0.91	-0.42334	-0.050752	0.902068	0.624	0.534	-0.258	0	300	933	1
2026-02-12	14:54:47.070	0.385	1.12	-1.295	-0.425536	-0.06222	0.89304	0.6225	0.5355	-0.255	0	300	933	1
2026-02-12	14:54:47.090	1.54	1.505	-1.995	-0.428464	-0.053436	0.898896	0.618	0.5355	-0.2505	0	300	933	1
2026-02-12	14:54:47.110	2.45	1.785	-2.765	-0.415288	-0.057584	0.914512	0.6225	0.5445	-0.2505	0	300	933	1
2026-02-12	14:54:47.130	2.66	2.73	-3.36	-0.41724	-0.057584	0.911828	0.6135	0.5385	-0.2655	0	300	933	1
2026-02-12	14:54:47.150	2.345	3.99	-3.745	-0.413336	-0.05124	0.922564	0.621	0.537	-0.2565	0	300	933	1
2026-02-12	14:54:47.170	-0.665	5.18	-4.375	-0.420412	-0.039284	0.89914	0.627	0.5325	-0.2565	0	300	933	1
2026-02-12	14:54:47.190	-4.9	5.95	-5.285	-0.443592	-0.053192	0.887916	0.6285	0.5325	-0.2535	0	300	933	1
2026-02-12	14:54:45.210	-5.985	-0.805	0	-0.361364	-0.015372	0.953552	0.5835	0.5145	-0.2505	0	1061	841	5
2026-02-12	14:54:45.230	-0.665	0.315	1.225	-0.3477	-0.006832	0.936472	0.5865	0.522	-0.252	0	1061	841	5
2026-02-12	14:54:45.250	-0.28	1.47	1.365	-0.400892	0.044652	0.875716	0.585	0.5205	-0.2595	0	1061	841	5
2026-02-12	14:54:45.270	0.63	0.28	-0.385	-0.394792	-0.008784	0.920368	0.5865	0.5175	-0.252	0	1061	841	5
2026-02-12	14:54:45.290	4.97	-0.21	-1.155	-0.3477	-0.018544	0.959408	0.582	0.5205	-0.258	0	1061	841	5
2026-02-12	14:54:45.310	0.945	1.085	-0.385	-0.352092	0.031232	0.935984	0.573	0.516	-0.255	0	1061	841	5
2026-02-12	14:54:45.330	-3.92	2.03	-0.805	-0.358924	-0.003416	0.938424	0.573	0.516	-0.255	0	1061	841	5
2026-02-12	14:54:45.350	-0.875	2.8	-1.365	-0.351604	-0.005856	0.9333	0.573	0.516	-0.255	0	1061	841	5
2026-02-12	14:54:45.370	1.155	3.57	-1.75	-0.373808	0.014152	0.9272	0.5895	0.516	-0.252	0	1061	841	5
2026-02-12	14:54:45.390	-1.33	3.22	-1.96	-0.386008	0.00366	0.925492	0.5835	0.522	-0.2565	0	1061	841	5
2026-02-12	14:54:45.410	-0.91	2.625	-1.89	-0.355264	-0.024156	0.947208	0.5925	0.51	-0.252	0	978	878	5
2026-02-12	14:54:45.430	-1.785	3.08	-1.505	-0.358924	0.030012	0.922808	0.585	0.5205	-0.2625	0	978	878	5
2026-02-12	14:54:45.450	-5.985	2.94	-2.17	-0.395524	0.007076	0.919636	0.5925	0.516	-0.258	0	978	878	5
2026-02-12	14:54:45.470	-4.69	1.295	-2.345	-0.384544	-0.01708	0.931592	0.5895	0.5235	-0.2565	0	978	878	5
2026-02-12	14:54:45.490	-2.52	0.84	-2.17	-0.371612	-0.001464	0.925248	0.5865	0.5235	-0.252	0	978	878	5
2026-02-12	14:54:45.510	0.595	1.015	-1.785	-0.366244	-0.002928	0.93818	0.591	0.5235	-0.2505	0	978	878	5
2026-02-12	14:54:45.530	0.14	1.54	-1.015	-0.365512	0.010492	0.932568	0.588	0.5265	-0.252	0	978	878	5
2026-02-12	14:54:45.550	-0.945	2.73	-0.315	-0.36234	-0.003172	0.930372	0.588	0.5265	-0.252	0	978	878	5
2026-02-12	14:54:45.570	0	3.5	0.035	-0.36234	-0.00244	0.937448	0.591	0.516	-0.2505	0	978	878	5
2026-02-12	14:54:45.590	1.015	4.69	0.315	-0.377224	-0.000244	0.923296	0.597	0.5265	-0.2505	0	978	878	5
2026-02-12	14:54:45.610	-1.19	4.55	0.21	-0.412848	0.007808	0.90402	0.5925	0.5235	-0.2505	0	877	898	5
2026-02-12	14:54:45.630	-2.03	2.975	-0.735	-0.399428	-0.01952	0.916952	0.597	0.519	-0.2535	0	877	898	5
2026-02-12	14:54:45.650	-0.245	2.17	-1.575	-0.369172	-0.027084	0.946476	0.588	0.5175	-0.255	0	877	898	5
2026-02-12	14:54:45.670	0.455	3.115	-1.575	-0.367708	0.000488	0.935984	0.594	0.5175	-0.249	0	877	898	5
2026-02-12	14:54:45.690	-4.165	3.92	-1.855	-0.390644	0.008052	0.904752	0.594	0.519	-0.258	0	877	898	5
2026-02-12	14:54:45.710	-3.64	3.01	-3.115	-0.40016	-0.026108	0.91622	0.5925	0.519	-0.2565	0	877	898	5
2026-02-12	14:54:45.730	1.4	2.03	-3.535	-0.376736	-0.01708	0.94062	0.591	0.525	-0.2565	0	877	898	5
2026-02-12	14:54:45.750	0.525	2.31	-3.115	-0.382592	0.010248	0.931348	0.597	0.525	-0.258	0	877	898	5
2026-02-12	14:54:45.770	-2.345	1.82	-3.01	-0.392596	-0.011468	0.923052	0.597	0.525	-0.258	0	877	898	5
2026-02-12	14:54:45.790	-0.98	0.98	-2.87	-0.37698	-0.011956	0.923784	0.594	0.525	-0.255	0	877	898	5
2026-02-12	14:54:45.810	-0.63	0.595	-2.66	-0.381128	-0.008296	0.934276	0.6045	0.528	-0.261	0	770	911	1
2026-02-12	14:54:45.830	-1.05	0.385	-2.135	-0.390888	-0.011468	0.927932	0.594	0.5205	-0.2565	0	770	911	1
2026-02-12	14:54:45.850	-1.54	0.21	-1.26	-0.390156	-0.001464	0.916708	0.5925	0.5205	-0.2595	0	770	911	1
2026-02-12	14:54:45.870	-1.05	0.14	-1.26	-0.377468	0.013176	0.91988	0.594	0.528	-0.258	0	770	911	1
2026-02-12	14:54:45.890	-2.065	0.175	-1.33	-0.368928	-0.019276	0.9333	0.597	0.5295	-0.2625	0	770	911	1
2026-02-12	14:54:45.910	-2.24	0.35	-1.12	-0.39772	-0.018056	0.91866	0.5955	0.519	-0.2625	0	770	911	1
2026-02-12	14:54:45.930	-2.905	-0.315	-0.945	-0.43188	-0.019764	0.9028	0.5985	0.5295	-0.2565	0	770	911	1
2026-02-12	14:54:45.950	-1.33	-2.17	-1.295	-0.421144	-0.013176	0.914268	0.597	0.519	-0.258	0	770	911	1
2026-02-12	14:54:45.970	0.455	-2.24	-2.1	-0.365268	-0.016104	0.933544	0.6105	0.525	-0.2565	0	770	911	1
2026-02-12	14:54:45.990	-0.49	-0.805	-2.275	-0.378932	0.006588	0.908412	0.6105	0.525	-0.2565	0	770	911	1
2026-02-12	14:54:46.010	-3.08	-0.455	-2.73	-0.394548	-0.027084	0.910852	0.603	0.5325	-0.2535	0	666	919	1
2026-02-12	14:54:46.030	-0.805	-0.245	-2.835	-0.378688	-0.024156	0.926712	0.594	0.528	-0.252	0	666	919	1
2026-02-12	14:54:46.050	1.365	0.525	-2.03	-0.368684	-0.004392	0.946964	0.591	0.5295	-0.2535	0	666	919	1
2026-02-12	14:54:46.070	-1.015	1.75	-1.015	-0.371856	0.007076	0.918416	0.594	0.522	-0.2535	0	666	919	1
2026-02-12	14:54:46.090	-4.585	2.17	-0.805	-0.402112	0.000732	0.902556	0.603	0.531	-0.2595	0	666	919	1
2026-02-12	14:54:46.110	-4.585	1.54	-1.05	-0.401868	-0.016836	0.904508	0.597	0.5265	-0.2505	0	666	919	1
2026-02-12	14:54:46.130	-2.345	0.98	-1.435	-0.39162	-0.038308	0.933788	0.6	0.525	-0.2625	0	666	919	1
2026-02-12	14:54:46.150	0.385	1.61	-1.295	-0.374784	-0.030988	0.93574	0.5985	0.522	-0.252	0	666	919	1
2026-02-12	14:54:46.170	-0.035	2.45	-1.435	-0.385276	-0.009516	0.918172	0.5985	0.5325	-0.2595	0	666	919	1
2026-02-12	14:54:46.190	-1.225	2.03	-2.835	-0.418216	-0.0183	0.91012	0.5895	0.528	-0.2535	0	666	919	1
2026-02-12	14:54:46.210	1.05	1.295	-3.395	-0.386496	-0.038308	0.934276	0.5985	0.5235	-0.255	0	570	925	1
2026-02-12	14:54:46.230	2.485	2.415	-3.185	-0.366244	-0.031232	0.949892	0.606	0.537	-0.255	0	570	925	1
2026-02-12	14:54:46.250	-0.735	3.675	-2.52	-0.391864	0.011956	0.900848	0.5895	0.531	-0.2595	0	570	925	1
2026-02-12	14:54:46.270	-5.775	3.01	-3.08	-0.423584	-0.013664	0.907192	0.6	0.5265	-0.258	0	570	925	1
2026-02-12	14:54:46.290	-2.94	1.89	-3.675	-0.382348	-0.044896	0.93452	0.6015	0.5325	-0.2595	0	570	925	1
2026-02-12	14:54:46.310	-0.77	2.345	-3.465	-0.390156	-0.010492	0.927444	0.597	0.531	-0.258	0	570	925	1
2026-02-12	14:54:46.330	-2.66	2.835	-3.15	-0.39528	-0.016592	0.906948	0.606	0.522	-0.2565	0	570	925	1
2026-02-12	14:54:46.350	-4.83	2.415	-3.255	-0.417972	-0.02074	0.898408	0.6	0.5295	-0.2625	0	570	925	1
2026-02-12	14:54:46.370	-2.625	1.33	-3.325	-0.4087	-0.028792	0.915244	0.597	0.522	-0.255	0	570	925	1
2026-02-12	14:54:46.390	1.435	1.225	-2.835	-0.379664	-0.025864	0.929396	0.6075	0.537	-0.2625	0	570	925	1
2026-02-12	14:54:46.410	-0.525	1.82	-1.89	-0.402112	-0.00732	0.910608	0.6075	0.537	-0.2625	0	485	929	1
2026-02-12	14:54:46.430	-1.89	1.435	-1.785	-0.40382	-0.026352	0.921344	0.603	0.5235	-0.2595	0	485	929	1
2026-02-12	14:54:46.450	-1.645	1.47	-1.575	-0.387716	-0.03538	0.927932	0.6075	0.5295	-0.255	0	485	929	1
2026-02-12	14:54:46.470	-0.805	2.065	-0.91	-0.389424	-0.027572	0.925736	0.609	0.531	-0.258	0	485	929	1
2026-02-12	14:54:46.490	-1.96	2.31	-0.455	-0.413336	-0.007076	0.887184	0.6075	0.537	-0.2445	0	485	929	1
2026-02-12	14:54:46.510	-0.805	1.47	-1.54	-0.439444	-0.032452	0.892552	0.603	0.5265	-0.261	0	485	929	1
2026-02-12	14:54:46.530	2.24	0.28	-2.135	-0.393328	-0.043188	0.930128	0.606	0.528	-0.2595	0	485	929	1
2026-02-12	14:54:46.550	2.555	1.155	-2.205	-0.380884	-0.028548	0.933056	0.612	0.531	-0.2595	0	485	929	1
2026-02-12	14:54:46.570	-0.945	2.065	-1.925	-0.400404	-0.022204	0.91744	0.609	0.5325	-0.2505	0	485	929	1
2026-02-12	14:54:46.590	-4.97	1.575	-2.17	-0.423828	-0.0183	0.888404	0.6075	0.5385	-0.2595	0	485	929	1
2026-02-12	14:54:46.610	-2.52	-0.595	-3.675	-0.40748	-0.060512	0.934032	0.6045	0.5385	-0.2625	0	412	932	1
2026-02-12	14:54:46.630	-0.665	-0.7	-3.64	-0.378688	-0.033184	0.936716	0.603	0.5295	-0.2625	0	412	932	1
2026-02-12	14:54:46.650	-1.68	0.77	-3.255	-0.385276	-0.015616	0.911096	0.6075	0.5385	-0.261	0	412	932	1
2026-02-12	14:54:46.670	-2.695	1.61	-2.975	-0.40382	-0.020252	0.890844	0.6075	0.531	-0.2535	0	412	932	1
2026-02-12	14:54:46.690	-1.68	1.82	-2.765	-0.40382	-0.039528	0.913048	0.6075	0.5295	-0.258	0	412	932	1
2026-02-12	14:54:46.710	1.925	2.835	-2.275	-0.379664	-0.045384	0.927444	0.603	0.5325	-0.2535	0	412	932	1
2026-02-12	14:54:46.730	3.15	5.145	-1.645	-0.400892	-0.029524	0.909632	0.603	0.528	-0.261	0	412	932	1
2026-02-12	14:54:46.750	-1.575	5.95	-1.75	-0.450424	-0.020008	0.879376	0.6105	0.531	-0.255	0	412	932	1
2026-02-12	14:54:46.770	-1.89	4.865	-3.36	-0.432368	-0.073688	0.905972	0.612	0.534	-0.2565	0	412	932	1
2026-02-12	14:54:46.790	2.03	4.76	-4.865	-0.388448	-0.055388	0.933788	0.612	0.5295	-0.2565	0	412	932	1
2026-02-12	14:54:46.810	1.68	6.405	-4.97	-0.3782	-0.031476	0.935008	0.6135	0.5355	-0.2535	0	351	933	1
2026-02-12	14:54:46.830	-5.74	7.315	-6.16	-0.43432	-0.018056	0.878644	0.6135	0.5355	-0.264	0	351	933	1
2026-02-12	14:54:46.850	-6.125	5.215	-7.315	-0.43066	-0.05612	0.916708	0.603	0.5415	-0.264	0	351	933	1
2026-02-12	14:54:46.870	-2.625	4.165	-7.385	-0.402356	-0.061976	0.93452	0.609	0.534	-0.2565	0	351	933	1
2026-02-12	14:54:46.890	-2.415	4.41	-6.51	-0.411872	-0.034648	0.91622	0.612	0.5355	-0.255	0	351	933	1
2026-02-12	14:54:46.910	-4.305	3.885	-5.775	-0.441152	-0.03172	0.884988	0.615	0.543	-0.255	0	351	933	1
2026-02-12	14:54:46.930	-3.78	1.925	-5.845	-0.42456	-0.049776	0.915488	0.6195	0.534	-0.258	0	351	933	1
2026-02-12	14:54:46.950	-1.4	1.12	-5.215	-0.396012	-0.04758	0.921832	0.627	0.537	-0.2565	0	351	933	1
2026-02-12	14:54:46.970	-1.68	1.33	-4.095	-0.422608	-0.031232	0.901092	0.6225	0.5385	-0.2595	0	351	933	1
2026-02-12	14:54:46.990	-0.385	0.735	-3.5	-0.43066	-0.0488	0.894992	0.621	0.543	-0.2565	0	351	933	1
2026-02-12	14:54:47.010	1.12	-0.07	-2.94	-0.4209	-0.04758	0.91012	0.6165	0.5385	-0.261	0	300	933	1
2026-02-12	14:54:47.030	0.84	0.07	-1.68	-0.41114	-0.043188	0.909144	0.624	0.534	-0.258	0	300	933	1
2026-02-12	14:54:47.050	-1.05	0.91	-0.91	-0.42334	-0.050752	0.902068	0.624	0.534	-0.258	0	300	933	1
2026-02-12	14:54:47.070	0.385	1.12	-1.295	-0.425536	-0.06222	0.89304	0.6225	0.5355	-0.255	0	300	933	1
2026-02-12	14:54:47.090	1.54	1.505	-1.995	-0.428464	-0.053436	0.898896	0.618	0.5355	-0.2505	0	300	933	1
2026-02-12	14:54:47.110	2.45	1.785	-2.765	-0.415288	-0.057584	0.914512	0.6225	0.5445	-0.2505	0	300	933	1
2026-02-12	14:54:47.130	2.66	2.73	-3.36	-0.41724	-0.057584	0.911828	0.6135	0.5385	-0.2655	0	300	933	1
2026-02-12	14:54:47.150	2.345	3.99	-3.745	-0.413336	-0.05124	0.922564	0.621	0.537	-0.2565	0	300	933	1
2026-02-12	14:54:47.170	-0.665	5.18	-4.375	-0.420412	-0.039284	0.89914	0.627	0.5325	-0.2565	0	300	933	1
2026-02-12	14:54:47.190	-4.9	5.95	-5.285	-0.443592	-0.053192	0.887916	0.6285	0.5325	-0.2535	0	300	933	1
2026-02-12	14:54:45.210	-5.985	-0.805	0	-0.361364	-0.015372	0.953552	0.5835	0.5145	-0.2505	0	1061	841	5
2026-02-12	14:54:45.230	-0.665	0.315	1.225	-0.3477	-0.006832	0.936472	0.5865	0.522	-0.252	0	1061	841	5
2026-02-12	14:54:45.250	-0.28	1.47	1.365	-0.400892	0.044652	0.875716	0.585	0.5205	-0.2595	0	1061	841	5
2026-02-12	14:54:45.270	0.63	0.28	-0.385	-0.394792	-0.008784	0.920368	0.5865	0.5175	-0.252	0	1061	841	5
2026-02-12	14:54:45.290	4.97	-0.21	-1.155	-0.3477	-0.018544	0.959408	0.582	0.5205	-0.258	0	1061	841	5
2026-02-12	14:54:45.310	0.945	1.085	-0.385	-0.352092	0.031232	0.935984	0.573	0.516	-0.255	0	1061	841	5
2026-02-12	14:54:45.330	-3.92	2.03	-0.805	-0.358924	-0.003416	0.938424	0.573	0.516	-0.255	0	1061	841	5
2026-02-12	14:54:45.350	-0.875	2.8	-1.365	-0.351604	-0.005856	0.9333	0.573	0.516	-0.255	0	1061	841	5
2026-02-12	14:54:45.370	1.155	3.57	-1.75	-0.373808	0.014152	0.9272	0.5895	0.516	-0.252	0	1061	841	5
2026-02-12	14:54:45.390	-1.33	3.22	-1.96	-0.386008	0.00366	0.925492	0.5835	0.522	-0.2565	0	1061	841	5
2026-02-12	14:54:45.410	-0.91	2.625	-1.89	-0.355264	-0.024156	0.947208	0.5925	0.51	-0.252	0	978	878	5
2026-02-12	14:54:45.430	-1.785	3.08	-1.505	-0.358924	0.030012	0.922808	0.585	0.5205	-0.2625	0	978	878	5
2026-02-12	14:54:45.450	-5.985	2.94	-2.17	-0.395524	0.007076	0.919636	0.5925	0.516	-0.258	0	978	878	5
2026-02-12	14:54:45.470	-4.69	1.295	-2.345	-0.384544	-0.01708	0.931592	0.5895	0.5235	-0.2565	0	978	878	5
2026-02-12	14:54:45.490	-2.52	0.84	-2.17	-0.371612	-0.001464	0.925248	0.5865	0.5235	-0.252	0	978	878	5
2026-02-12	14:54:45.510	0.595	1.015	-1.785	-0.366244	-0.002928	0.93818	0.591	0.5235	-0.2505	0	978	878	5
2026-02-12	14:54:45.530	0.14	1.54	-1.015	-0.365512	0.010492	0.932568	0.588	0.5265	-0.252	0	978	878	5
2026-02-12	14:54:45.550	-0.945	2.73	-0.315	-0.36234	-0.003172	0.930372	0.588	0.5265	-0.252	0	978	878	5
2026-02-12	14:54:45.570	0	3.5	0.035	-0.36234	-0.00244	0.937448	0.591	0.516	-0.2505	0	978	878	5
2026-02-12	14:54:45.590	1.015	4.69	0.315	-0.377224	-0.000244	0.923296	0.597	0.5265	-0.2505	0	978	878	5
2026-02-12	14:54:45.610	-1.19	4.55	0.21	-0.412848	0.007808	0.90402	0.5925	0.5235	-0.2505	0	877	898	5
2026-02-12	14:54:45.630	-2.03	2.975	-0.735	-0.399428	-0.01952	0.916952	0.597	0.519	-0.2535	0	877	898	5
2026-02-12	14:54:45.650	-0.245	2.17	-1.575	-0.369172	-0.027084	0.946476	0.588	0.5175	-0.255	0	877	898	5
2026-02-12	14:54:45.670	0.455	3.115	-1.575	-0.367708	0.000488	0.935984	0.594	0.5175	-0.249	0	877	898	5
2026-02-12	14:54:45.690	-4.165	3.92	-1.855	-0.390644	0.008052	0.904752	0.594	0.519	-0.258	0	877	898	5
2026-02-12	14:54:45.710	-3.64	3.01	-3.115	-0.40016	-0.026108	0.91622	0.5925	0.519	-0.2565	0	877	898	5
2026-02-12	14:54:45.730	1.4	2.03	-3.535	-0.376736	-0.01708	0.94062	0.591	0.525	-0.2565	0	877	898	5
2026-02-12	14:54:45.750	0.525	2.31	-3.115	-0.382592	0.010248	0.931348	0.597	0.525	-0.258	0	877	898	5
2026-02-12	14:54:45.770	-2.345	1.82	-3.01	-0.392596	-0.011468	0.923052	0.597	0.525	-0.258	0	877	898	5
2026-02-12	14:54:45.790	-0.98	0.98	-2.87	-0.37698	-0.011956	0.923784	0.594	0.525	-0.255	0	877	898	5
2026-02-12	14:54:45.810	-0.63	0.595	-2.66	-0.381128	-0.008296	0.934276	0.6045	0.528	-0.261	0	770	911	1
2026-02-12	14:54:45.830	-1.05	0.385	-2.135	-0.390888	-0.011468	0.927932	0.594	0.5205	-0.2565	0	770	911	1
2026-02-12	14:54:45.850	-1.54	0.21	-1.26	-0.390156	-0.001464	0.916708	0.5925	0.5205	-0.2595	0	770	911	1
2026-02-12	14:54:45.870	-1.05	0.14	-1.26	-0.377468	0.013176	0.91988	0.594	0.528	-0.258	0	770	911	1
2026-02-12	14:54:45.890	-2.065	0.175	-1.33	-0.368928	-0.019276	0.9333	0.597	0.5295	-0.2625	0	770	911	1
2026-02-12	14:54:45.910	-2.24	0.35	-1.12	-0.39772	-0.018056	0.91866	0.5955	0.519	-0.2625	0	770	911	1
2026-02-12	14:54:45.930	-2.905	-0.315	-0.945	-0.43188	-0.019764	0.9028	0.5985	0.5295	-0.2565	0	770	911	1
2026-02-12	14:54:45.950	-1.33	-2.17	-1.295	-0.421144	-0.013176	0.914268	0.597	0.519	-0.258	0	770	911	1
2026-02-12	14:54:45.970	0.455	-2.24	-2.1	-0.365268	-0.016104	0.933544	0.6105	0.525	-0.2565	0	770	911	1
2026-02-12	14:54:45.990	-0.49	-0.805	-2.275	-0.378932	0.006588	0.908412	0.6105	0.525	-0.2565	0	770	911	1
2026-02-12	14:54:46.010	-3.08	-0.455	-2.73	-0.394548	-0.027084	0.910852	0.603	0.5325	-0.2535	0	666	919	1
2026-02-12	14:54:46.030	-0.805	-0.245	-2.835	-0.378688	-0.024156	0.926712	0.594	0.528	-0.252	0	666	919	1
2026-02-12	14:54:46.050	1.365	0.525	-2.03	-0.368684	-0.004392	0.946964	0.591	0.5295	-0.2535	0	666	919	1
2026-02-12	14:54:46.070	-1.015	1.75	-1.015	-0.371856	0.007076	0.918416	0.594	0.522	-0.2535	0	666	919	1
2026-02-12	14:54:46.090	-4.585	2.17	-0.805	-0.402112	0.000732	0.902556	0.603	0.531	-0.2595	0	666	919	1
2026-02-12	14:54:46.110	-4.585	1.54	-1.05	-0.401868	-0.016836	0.904508	0.597	0.5265	-0.2505	0	666	919	1
2026-02-12	14:54:46.130	-2.345	0.98	-1.435	-0.39162	-0.038308	0.933788	0.6	0.525	-0.2625	0	666	919	1
2026-02-12	14:54:46.150	0.385	1.61	-1.295	-0.374784	-0.030988	0.93574	0.5985	0.522	-0.252	0	666	919	1
2026-02-12	14:54:46.170	-0.035	2.45	-1.435	-0.385276	-0.009516	0.918172	0.5985	0.5325	-0.2595	0	666	919	1
2026-02-12	14:54:46.190	-1.225	2.03	-2.835	-0.418216	-0.0183	0.91012	0.5895	0.528	-0.2535	0	666	919	1
2026-02-12	14:54:46.210	1.05	1.295	-3.395	-0.386496	-0.038308	0.934276	0.5985	0.5235	-0.255	0	570	925	1
2026-02-12	14:54:46.230	2.485	2.415	-3.185	-0.366244	-0.031232	0.949892	0.606	0.537	-0.255	0	570	925	1
2026-02-12	14:54:46.250	-0.735	3.675	-2.52	-0.391864	0.011956	0.900848	0.5895	0.531	-0.2595	0	570	925	1
2026-02-12	14:54:46.270	-5.775	3.01	-3.08	-0.423584	-0.013664	0.907192	0.6	0.5265	-0.258	0	570	925	1
2026-02-12	14:54:46.290	-2.94	1.89	-3.675	-0.382348	-0.044896	0.93452	0.6015	0.5325	-0.2595	0	570	925	1
2026-02-12	14:54:46.310	-0.77	2.345	-3.465	-0.390156	-0.010492	0.927444	0.597	0.531	-0.258	0	570	925	1
2026-02-12	14:54:46.330	-2.66	2.835	-3.15	-0.39528	-0.016592	0.906948	0.606	0.522	-0.2565	0	570	925	1
2026-02-12	14:54:46.350	-4.83	2.415	-3.255	-0.417972	-0.02074	0.898408	0.6	0.5295	-0.2625	0	570	925	1
2026-02-12	14:54:46.370	-2.625	1.33	-3.325	-0.4087	-0.028792	0.915244	0.597	0.522	-0.255	0	570	925	1
2026-02-12	14:54:46.390	1.435	1.225	-2.835	-0.379664	-0.025864	0.929396	0.6075	0.537	-0.2625	0	570	925	1
2026-02-12	14:54:46.410	-0.525	1.82	-1.89	-0.402112	-0.00732	0.910608	0.6075	0.537	-0.2625	0	485	929	1
2026-02-12	14:54:46.430	-1.89	1.435	-1.785	-0.40382	-0.026352	0.921344	0.603	0.5235	-0.2595	0	485	929	1
2026-02-12	14:54:46.450	-1.645	1.47	-1.575	-0.387716	-0.03538	0.927932	0.6075	0.5295	-0.255	0	485	929	1
2026-02-12	14:54:46.470	-0.805	2.065	-0.91	-0.389424	-0.027572	0.925736	0.609	0.531	-0.258	0	485	929	1
2026-02-12	14:54:46.490	-1.96	2.31	-0.455	-0.413336	-0.007076	0.887184	0.6075	0.537	-0.2445	0	485	929	1
2026-02-12	14:54:46.510	-0.805	1.47	-1.54	-0.439444	-0.032452	0.892552	0.603	0.5265	-0.261	0	485	929	1
2026-02-12	14:54:46.530	2.24	0.28	-2.135	-0.393328	-0.043188	0.930128	0.606	0.528	-0.2595	0	485	929	1
2026-02-12	14:54:46.550	2.555	1.155	-2.205	-0.380884	-0.028548	0.933056	0.612	0.531	-0.2595	0	485	929	1
2026-02-12	14:54:46.570	-0.945	2.065	-1.925	-0.400404	-0.022204	0.91744	0.609	0.5325	-0.2505	0	485	929	1
2026-02-12	14:54:46.590	-4.97	1.575	-2.17	-0.423828	-0.0183	0.888404	0.6075	0.5385	-0.2595	0	485	929	1
2026-02-12	14:54:46.610	-2.52	-0.595	-3.675	-0.40748	-0.060512	0.934032	0.6045	0.5385	-0.2625	0	412	932	1
2026-02-12	14:54:46.630	-0.665	-0.7	-3.64	-0.378688	-0.033184	0.936716	0.603	0.5295	-0.2625	0	412	932	1
2026-02-12	14:54:46.650	-1.68	0.77	-3.255	-0.385276	-0.015616	0.911096	0.6075	0.5385	-0.261	0	412	932	1
2026-02-12	14:54:46.670	-2.695	1.61	-2.975	-0.40382	-0.020252	0.890844	0.6075	0.531	-0.2535	0	412	932	1
2026-02-12	14:54:46.690	-1.68	1.82	-2.765	-0.40382	-0.039528	0.913048	0.6075	0.5295	-0.258	0	412	932	1
2026-02-12	14:54:46.710	1.925	2.835	-2.275	-0.379664	-0.045384	0.927444	0.603	0.5325	-0.2535	0	412	932	1
2026-02-12	14:54:46.730	3.15	5.145	-1.645	-0.400892	-0.029524	0.909632	0.603	0.528	-0.261	0	412	932	1
2026-02-12	14:54:46.750	-1.575	5.95	-1.75	-0.450424	-0.020008	0.879376	0.6105	0.531	-0.255	0	412	932	1
2026-02-12	14:54:46.770	-1.89	4.865	-3.36	-0.432368	-0.073688	0.905972	0.612	0.534	-0.2565	0	412	932	1
2026-02-12	14:54:46.790	2.03	4.76	-4.865	-0.388448	-0.055388	0.933788	0.612	0.5295	-0.2565	0	412	932	1
2026-02-12	14:54:46.810	1.68	6.405	-4.97	-0.3782	-0.031476	0.935008	0.6135	0.5355	-0.2535	0	351	933	1
2026-02-12	14:54:46.830	-5.74	7.315	-6.16	-0.43432	-0.018056	0.878644	0.6135	0.5355	-0.264	0	351	933	1
2026-02-12	14:54:46.850	-6.125	5.215	-7.315	-0.43066	-0.05612	0.916708	0.603	0.5415	-0.264	0	351	933	1
2026-02-12	14:54:46.870	-2.625	4.165	-7.385	-0.402356	-0.061976	0.93452	0.609	0.534	-0.2565	0	351	933	1
2026-02-12	14:54:46.890	-2.415	4.41	-6.51	-0.411872	-0.034648	0.91622	0.612	0.5355	-0.255	0	351	933	1
2026-02-12	14:54:46.910	-4.305	3.885	-5.775	-0.441152	-0.03172	0.884988	0.615	0.543	-0.255	0	351	933	1
2026-02-12	14:54:46.930	-3.78	1.925	-5.845	-0.42456	-0.049776	0.915488	0.6195	0.534	-0.258	0	351	933	1
2026-02-12	14:54:46.950	-1.4	1.12	-5.215	-0.396012	-0.04758	0.921832	0.627	0.537	-0.2565	0	351	933	1
2026-02-12	14:54:46.970	-1.68	1.33	-4.095	-0.422608	-0.031232	0.901092	0.6225	0.5385	-0.2595	0	351	933	1
2026-02-12	14:54:46.990	-0.385	0.735	-3.5	-0.43066	-0.0488	0.894992	0.621	0.543	-0.2565	0	351	933	1
2026-02-12	14:54:47.010	1.12	-0.07	-2.94	-0.4209	-0.04758	0.91012	0.6165	0.5385	-0.261	0	300	933	1
2026-02-12	14:54:47.030	0.84	0.07	-1.68	-0.41114	-0.043188	0.909144	0.624	0.534	-0.258	0	300	933	1
2026-02-12	14:54:47.050	-1.05	0.91	-0.91	-0.42334	-0.050752	0.902068	0.624	0.534	-0.258	0	300	933	1
2026-02-12	14:54:47.070	0.385	1.12	-1.295	-0.425536	-0.06222	0.89304	0.6225	0.5355	-0.255	0	300	933	1
2026-02-12	14:54:47.090	1.54	1.505	-1.995	-0.428464	-0.053436	0.898896	0.618	0.5355	-0.2505	0	300	933	1
2026-02-12	14:54:47.110	2.45	1.785	-2.765	-0.415288	-0.057584	0.914512	0.6225	0.5445	-0.2505	0	300	933	1
2026-02-12	14:54:47.130	2.66	2.73	-3.36	-0.41724	-0.057584	0.911828	0.6135	0.5385	-0.2655	0	300	933	1
2026-02-12	14:54:47.150	2.345	3.99	-3.745	-0.413336	-0.05124	0.922564	0.621	0.537	-0.2565	0	300	933	1
2026-02-12	14:54:47.170	-0.665	5.18	-4.375	-0.420412	-0.039284	0.89914	0.627	0.5325	-0.2565	0	300	933	1
2026-02-12	14:54:47.190	-4.9	5.95	-5.285	-0.443592	-0.053192	0.887916	0.6285	0.5325	-0.2535	0	300	933	1
2026-02-12	14:54:45.210	-5.985	-0.805	0	-0.361364	-0.015372	0.953552	0.5835	0.5145	-0.2505	0	1061	841	5
2026-02-12	14:54:45.230	-0.665	0.315	1.225	-0.3477	-0.006832	0.936472	0.5865	0.522	-0.252	0	1061	841	5
2026-02-12	14:54:45.250	-0.28	1.47	1.365	-0.400892	0.044652	0.875716	0.585	0.5205	-0.2595	0	1061	841	5
2026-02-12	14:54:45.270	0.63	0.28	-0.385	-0.394792	-0.008784	0.920368	0.5865	0.5175	-0.252	0	1061	841	5
2026-02-12	14:54:45.290	4.97	-0.21	-1.155	-0.3477	-0.018544	0.959408	0.582	0.5205	-0.258	0	1061	841	5
2026-02-12	14:54:45.310	0.945	1.085	-0.385	-0.352092	0.031232	0.935984	0.573	0.516	-0.255	0	1061	841	5
2026-02-12	14:54:45.330	-3.92	2.03	-0.805	-0.358924	-0.003416	0.938424	0.573	0.516	-0.255	0	1061	841	5
2026-02-12	14:54:45.350	-0.875	2.8	-1.365	-0.351604	-0.005856	0.9333	0.573	0.516	-0.255	0	1061	841	5
2026-02-12	14:54:45.370	1.155	3.57	-1.75	-0.373808	0.014152	0.9272	0.5895	0.516	-0.252	0	1061	841	5
2026-02-12	14:54:45.390	-1.33	3.22	-1.96	-0.386008	0.00366	0.925492	0.5835	0.522	-0.2565	0	1061	841	5
2026-02-12	14:54:45.410	-0.91	2.625	-1.89	-0.355264	-0.024156	0.947208	0.5925	0.51	-0.252	0	978	878	5
2026-02-12	14:54:45.430	-1.785	3.08	-1.505	-0.358924	0.030012	0.922808	0.585	0.5205	-0.2625	0	978	878	5
2026-02-12	14:54:45.450	-5.985	2.94	-2.17	-0.395524	0.007076	0.919636	0.5925	0.516	-0.258	0	978	878	5
2026-02-12	14:54:45.470	-4.69	1.295	-2.345	-0.384544	-0.01708	0.931592	0.5895	0.5235	-0.2565	0	978	878	5
2026-02-12	14:54:45.490	-2.52	0.84	-2.17	-0.371612	-0.001464	0.925248	0.5865	0.5235	-0.252	0	978	878	5
2026-02-12	14:54:45.510	0.595	1.015	-1.785	-0.366244	-0.002928	0.93818	0.591	0.5235	-0.2505	0	978	878	5
2026-02-12	14:54:45.530	0.14	1.54	-1.015	-0.365512	0.010492	0.932568	0.588	0.5265	-0.252	0	978	878	5
2026-02-12	14:54:45.550	-0.945	2.73	-0.315	-0.36234	-0.003172	0.930372	0.588	0.5265	-0.252	0	978	878	5
2026-02-12	14:54:45.570	0	3.5	0.035	-0.36234	-0.00244	0.937448	0.591	0.516	-0.2505	0	978	878	5
2026-02-12	14:54:45.590	1.015	4.69	0.315	-0.377224	-0.000244	0.923296	0.597	0.5265	-0.2505	0	978	878	5
2026-02-12	14:54:45.610	-1.19	4.55	0.21	-0.412848	0.007808	0.90402	0.5925	0.5235	-0.2505	0	877	898	5
2026-02-12	14:54:45.630	-2.03	2.975	-0.735	-0.399428	-0.01952	0.916952	0.597	0.519	-0.2535	0	877	898	5
2026-02-12	14:54:45.650	-0.245	2.17	-1.575	-0.369172	-0.027084	0.946476	0.588	0.5175	-0.255	0	877	898	5
2026-02-12	14:54:45.670	0.455	3.115	-1.575	-0.367708	0.000488	0.935984	0.594	0.5175	-0.249	0	877	898	5
2026-02-12	14:54:45.690	-4.165	3.92	-1.855	-0.390644	0.008052	0.904752	0.594	0.519	-0.258	0	877	898	5
2026-02-12	14:54:45.710	-3.64	3.01	-3.115	-0.40016	-0.026108	0.91622	0.5925	0.519	-0.2565	0	877	898	5
2026-02-12	14:54:45.730	1.4	2.03	-3.535	-0.376736	-0.01708	0.94062	0.591	0.525	-0.2565	0	877	898	5
2026-02-12	14:54:45.750	0.525	2.31	-3.115	-0.382592	0.010248	0.931348	0.597	0.525	-0.258	0	877	898	5
2026-02-12	14:54:45.770	-2.345	1.82	-3.01	-0.392596	-0.011468	0.923052	0.597	0.525	-0.258	0	877	898	5
2026-02-12	14:54:45.790	-0.98	0.98	-2.87	-0.37698	-0.011956	0.923784	0.594	0.525	-0.255	0	877	898	5
2026-02-12	14:54:45.810	-0.63	0.595	-2.66	-0.381128	-0.008296	0.934276	0.6045	0.528	-0.261	0	770	911	1
2026-02-12	14:54:45.830	-1.05	0.385	-2.135	-0.390888	-0.011468	0.927932	0.594	0.5205	-0.2565	0	770	911	1
2026-02-12	14:54:45.850	-1.54	0.21	-1.26	-0.390156	-0.001464	0.916708	0.5925	0.5205	-0.2595	0	770	911	1
2026-02-12	14:54:45.870	-1.05	0.14	-1.26	-0.377468	0.013176	0.91988	0.594	0.528	-0.258	0	770	911	1
2026-02-12	14:54:45.890	-2.065	0.175	-1.33	-0.368928	-0.019276	0.9333	0.597	0.5295	-0.2625	0	770	911	1
2026-02-12	14:54:45.910	-2.24	0.35	-1.12	-0.39772	-0.018056	0.91866	0.5955	0.519	-0.2625	0	770	911	1
2026-02-12	14:54:45.930	-2.905	-0.315	-0.945	-0.43188	-0.019764	0.9028	0.5985	0.5295	-0.2565	0	770	911	1
2026-02-12	14:54:45.950	-1.33	-2.17	-1.295	-0.421144	-0.013176	0.914268	0.597	0.519	-0.258	0	770	911	1
2026-02-12	14:54:45.970	0.455	-2.24	-2.1	-0.365268	-0.016104	0.933544	0.6105	0.525	-0.2565	0	770	911	1
2026-02-12	14:54:45.990	-0.49	-0.805	-2.275	-0.378932	0.006588	0.908412	0.6105	0.525	-0.2565	0	770	911	1
2026-02-12	14:54:46.010	-3.08	-0.455	-2.73	-0.394548	-0.027084	0.910852	0.603	0.5325	-0.2535	0	666	919	1
2026-02-12	14:54:46.030	-0.805	-0.245	-2.835	-0.378688	-0.024156	0.926712	0.594	0.528	-0.252	0	666	919	1
2026-02-12	14:54:46.050	1.365	0.525	-2.03	-0.368684	-0.004392	0.946964	0.591	0.5295	-0.2535	0	666	919	1
2026-02-12	14:54:46.070	-1.015	1.75	-1.015	-0.371856	0.007076	0.918416	0.594	0.522	-0.2535	0	666	919	1
2026-02-12	14:54:46.090	-4.585	2.17	-0.805	-0.402112	0.000732	0.902556	0.603	0.531	-0.2595	0	666	919	1
2026-02-12	14:54:46.110	-4.585	1.54	-1.05	-0.401868	-0.016836	0.904508	0.597	0.5265	-0.2505	0	666	919	1
2026-02-12	14:54:46.130	-2.345	0.98	-1.435	-0.39162	-0.038308	0.933788	0.6	0.525	-0.2625	0	666	919	1
2026-02-12	14:54:46.150	0.385	1.61	-1.295	-0.374784	-0.030988	0.93574	0.5985	0.522	-0.252	0	666	919	1
2026-02-12	14:54:46.170	-0.035	2.45	-1.435	-0.385276	-0.009516	0.918172	0.5985	0.5325	-0.2595	0	666	919	1
2026-02-12	14:54:46.190	-1.225	2.03	-2.835	-0.418216	-0.0183	0.91012	0.5895	0.528	-0.2535	0	666	919	1
2026-02-12	14:54:46.210	1.05	1.295	-3.395	-0.386496	-0.038308	0.934276	0.5985	0.5235	-0.255	0	570	925	1
2026-02-12	14:54:46.230	2.485	2.415	-3.185	-0.366244	-0.031232	0.949892	0.606	0.537	-0.255	0	570	925	1
2026-02-12	14:54:46.250	-0.735	3.675	-2.52	-0.391864	0.011956	0.900848	0.5895	0.531	-0.2595	0	570	925	1
2026-02-12	14:54:46.270	-5.775	3.01	-3.08	-0.423584	-0.013664	0.907192	0.6	0.5265	-0.258	0	570	925	1
2026-02-12	14:54:46.290	-2.94	1.89	-3.675	-0.382348	-0.044896	0.93452	0.6015	0.5325	-0.2595	0	570	925	1
2026-02-12	14:54:46.310	-0.77	2.345	-3.465	-0.390156	-0.010492	0.927444	0.597	0.531	-0.258	0	570	925	1
2026-02-12	14:54:46.330	-2.66	2.835	-3.15	-0.39528	-0.016592	0.906948	0.606	0.522	-0.2565	0	570	925	1
2026-02-12	14:54:46.350	-4.83	2.415	-3.255	-0.417972	-0.02074	0.898408	0.6	0.5295	-0.2625	0	570	925	1
2026-02-12	14:54:46.370	-2.625	1.33	-3.325	-0.4087	-0.028792	0.915244	0.597	0.522	-0.255	0	570	925	1
2026-02-12	14:54:46.390	1.435	1.225	-2.835	-0.379664	-0.025864	0.929396	0.6075	0.537	-0.2625	0	570	925	1
2026-02-12	14:54:46.410	-0.525	1.82	-1.89	-0.402112	-0.00732	0.910608	0.6075	0.537	-0.2625	0	485	929	1
2026-02-12	14:54:46.430	-1.89	1.435	-1.785	-0.40382	-0.026352	0.921344	0.603	0.5235	-0.2595	0	485	929	1
2026-02-12	14:54:46.450	-1.645	1.47	-1.575	-0.387716	-0.03538	0.927932	0.6075	0.5295	-0.255	0	485	929	1
2026-02-12	14:54:46.470	-0.805	2.065	-0.91	-0.389424	-0.027572	0.925736	0.609	0.531	-0.258	0	485	929	1
2026-02-12	14:54:46.490	-1.96	2.31	-0.455	-0.413336	-0.007076	0.887184	0.6075	0.537	-0.2445	0	485	929	1
2026-02-12	14:54:46.510	-0.805	1.47	-1.54	-0.439444	-0.032452	0.892552	0.603	0.5265	-0.261	0	485	929	1
2026-02-12	14:54:46.530	2.24	0.28	-2.135	-0.393328	-0.043188	0.930128	0.606	0.528	-0.2595	0	485	929	1
2026-02-12	14:54:46.550	2.555	1.155	-2.205	-0.380884	-0.028548	0.933056	0.612	0.531	-0.2595	0	485	929	1
2026-02-12	14:54:46.570	-0.945	2.065	-1.925	-0.400404	-0.022204	0.91744	0.609	0.5325	-0.2505	0	485	929	1
2026-02-12	14:54:46.590	-4.97	1.575	-2.17	-0.423828	-0.0183	0.888404	0.6075	0.5385	-0.2595	0	485	929	1
2026-02-12	14:54:46.610	-2.52	-0.595	-3.675	-0.40748	-0.060512	0.934032	0.6045	0.5385	-0.2625	0	412	932	1
2026-02-12	14:54:46.630	-0.665	-0.7	-3.64	-0.378688	-0.033184	0.936716	0.603	0.5295	-0.2625	0	412	932	1
2026-02-12	14:54:46.650	-1.68	0.77	-3.255	-0.385276	-0.015616	0.911096	0.6075	0.5385	-0.261	0	412	932	1
2026-02-12	14:54:46.670	-2.695	1.61	-2.975	-0.40382	-0.020252	0.890844	0.6075	0.531	-0.2535	0	412	932	1
2026-02-12	14:54:46.690	-1.68	1.82	-2.765	-0.40382	-0.039528	0.913048	0.6075	0.5295	-0.258	0	412	932	1
2026-02-12	14:54:46.710	1.925	2.835	-2.275	-0.379664	-0.045384	0.927444	0.603	0.5325	-0.2535	0	412	932	1
2026-02-12	14:54:46.730	3.15	5.145	-1.645	-0.400892	-0.029524	0.909632	0.603	0.528	-0.261	0	412	932	1
2026-02-12	14:54:46.750	-1.575	5.95	-1.75	-0.450424	-0.020008	0.879376	0.6105	0.531	-0.255	0	412	932	1
2026-02-12	14:54:46.770	-1.89	4.865	-3.36	-0.432368	-0.073688	0.905972	0.612	0.534	-0.2565	0	412	932	1
2026-02-12	14:54:46.790	2.03	4.76	-4.865	-0.388448	-0.055388	0.933788	0.612	0.5295	-0.2565	0	412	932	1
2026-02-12	14:54:46.810	1.68	6.405	-4.97	-0.3782	-0.031476	0.935008	0.6135	0.5355	-0.2535	0	351	933	1
2026-02-12	14:54:46.830	-5.74	7.315	-6.16	-0.43432	-0.018056	0.878644	0.6135	0.5355	-0.264	0	351	933	1
2026-02-12	14:54:46.850	-6.125	5.215	-7.315	-0.43066	-0.05612	0.916708	0.603	0.5415	-0.264	0	351	933	1
2026-02-12	14:54:46.870	-2.625	4.165	-7.385	-0.402356	-0.061976	0.93452	0.609	0.534	-0.2565	0	351	933	1
2026-02-12	14:54:46.890	-2.415	4.41	-6.51	-0.411872	-0.034648	0.91622	0.612	0.5355	-0.255	0	351	933	1
2026-02-12	14:54:46.910	-4.305	3.885	-5.775	-0.441152	-0.03172	0.884988	0.615	0.543	-0.255	0	351	933	1
2026-02-12	14:54:46.930	-3.78	1.925	-5.845	-0.42456	-0.049776	0.915488	0.6195	0.534	-0.258	0	351	933	1
2026-02-12	14:54:46.950	-1.4	1.12	-5.215	-0.396012	-0.04758	0.921832	0.627	0.537	-0.2565	0	351	933	1
2026-02-12	14:54:46.970	-1.68	1.33	-4.095	-0.422608	-0.031232	0.901092	0.6225	0.5385	-0.2595	0	351	933	1
2026-02-12	14:54:46.990	-0.385	0.735	-3.5	-0.43066	-0.0488	0.894992	0.621	0.543	-0.2565	0	351	933	1
2026-02-12	14:54:47.010	1.12	-0.07	-2.94	-0.4209	-0.04758	0.91012	0.6165	0.5385	-0.261	0	300	933	1
2026-02-12	14:54:47.030	0.84	0.07	-1.68	-0.41114	-0.043188	0.909144	0.624	0.534	-0.258	0	300	933	1
2026-02-12	14:54:47.050	-1.05	0.91	-0.91	-0.42334	-0.050752	0.902068	0.624	0.534	-0.258	0	300	933	1
2026-02-12	14:54:47.070	0.385	1.12	-1.295	-0.425536	-0.06222	0.89304	0.6225	0.5355	-0.255	0	300	933	1
2026-02-12	14:54:47.090	1.54	1.505	-1.995	-0.428464	-0.053436	0.898896	0.618	0.5355	-0.2505	0	300	933	1
2026-02-12	14:54:47.110	2.45	1.785	-2.765	-0.415288	-0.057584	0.914512	0.6225	0.5445	-0.2505	0	300	933	1
2026-02-12	14:54:47.130	2.66	2.73	-3.36	-0.41724	-0.057584	0.911828	0.6135	0.5385	-0.2655	0	300	933	1
2026-02-12	14:54:47.150	2.345	3.99	-3.745	-0.413336	-0.05124	0.922564	0.621	0.537	-0.2565	0	300	933	1
2026-02-12	14:54:47.170	-0.665	5.18	-4.375	-0.420412	-0.039284	0.89914	0.627	0.5325	-0.2565	0	300	933	1
2026-02-12	14:54:47.190	-4.9	5.95	-5.285	-0.443592	-0.053192	0.887916	0.6285	0.5325	-0.2535	0	300	933	1
2026-02-12	14:54:45.210	-5.985	-0.805	0	-0.361364	-0.015372	0.953552	0.5835	0.5145	-0.2505	0	1061	841	5
2026-02-12	14:54:45.230	-0.665	0.315	1.225	-0.3477	-0.006832	0.936472	0.5865	0.522	-0.252	0	1061	841	5
2026-02-12	14:54:45.250	-0.28	1.47	1.365	-0.400892	0.044652	0.875716	0.585	0.5205	-0.2595	0	1061	841	5
2026-02-12	14:54:45.270	0.63	0.28	-0.385	-0.394792	-0.008784	0.920368	0.5865	0.5175	-0.252	0	1061	841	5
2026-02-12	14:54:45.290	4.97	-0.21	-1.155	-0.3477	-0.018544	0.959408	0.582	0.5205	-0.258	0	1061	841	5
2026-02-12	14:54:45.310	0.945	1.085	-0.385	-0.352092	0.031232	0.935984	0.573	0.516	-0.255	0	1061	841	5
2026-02-12	14:54:45.330	-3.92	2.03	-0.805	-0.358924	-0.003416	0.938424	0.573	0.516	-0.255	0	1061	841	5
2026-02-12	14:54:45.350	-0.875	2.8	-1.365	-0.351604	-0.005856	0.9333	0.573	0.516	-0.255	0	1061	841	5
2026-02-12	14:54:45.370	1.155	3.57	-1.75	-0.373808	0.014152	0.9272	0.5895	0.516	-0.252	0	1061	841	5
2026-02-12	14:54:45.390	-1.33	3.22	-1.96	-0.386008	0.00366	0.925492	0.5835	0.522	-0.2565	0	1061	841	5
2026-02-12	14:54:45.410	-0.91	2.625	-1.89	-0.355264	-0.024156	0.947208	0.5925	0.51	-0.252	0	978	878	5
2026-02-12	14:54:45.430	-1.785	3.08	-1.505	-0.358924	0.030012	0.922808	0.585	0.5205	-0.2625	0	978	878	5
2026-02-12	14:54:45.450	-5.985	2.94	-2.17	-0.395524	0.007076	0.919636	0.5925	0.516	-0.258	0	978	878	5
2026-02-12	14:54:45.470	-4.69	1.295	-2.345	-0.384544	-0.01708	0.931592	0.5895	0.5235	-0.2565	0	978	878	5
2026-02-12	14:54:45.490	-2.52	0.84	-2.17	-0.371612	-0.001464	0.925248	0.5865	0.5235	-0.252	0	978	878	5
2026-02-12	14:54:45.510	0.595	1.015	-1.785	-0.366244	-0.002928	0.93818	0.591	0.5235	-0.2505	0	978	878	5
2026-02-12	14:54:45.530	0.14	1.54	-1.015	-0.365512	0.010492	0.932568	0.588	0.5265	-0.252	0	978	878	5
2026-02-12	14:54:45.550	-0.945	2.73	-0.315	-0.36234	-0.003172	0.930372	0.588	0.5265	-0.252	0	978	878	5
2026-02-12	14:54:45.570	0	3.5	0.035	-0.36234	-0.00244	0.937448	0.591	0.516	-0.2505	0	978	878	5
2026-02-12	14:54:45.590	1.015	4.69	0.315	-0.377224	-0.000244	0.923296	0.597	0.5265	-0.2505	0	978	878	5
2026-02-12	14:54:45.610	-1.19	4.55	0.21	-0.412848	0.007808	0.90402	0.5925	0.5235	-0.2505	0	877	898	5
2026-02-12	14:54:45.630	-2.03	2.975	-0.735	-0.399428	-0.01952	0.916952	0.597	0.519	-0.2535	0	877	898	5
2026-02-12	14:54:45.650	-0.245	2.17	-1.575	-0.369172	-0.027084	0.946476	0.588	0.5175	-0.255	0	877	898	5
2026-02-12	14:54:45.670	0.455	3.115	-1.575	-0.367708	0.000488	0.935984	0.594	0.5175	-0.249	0	877	898	5
2026-02-12	14:54:45.690	-4.165	3.92	-1.855	-0.390644	0.008052	0.904752	0.594	0.519	-0.258	0	877	898	5
2026-02-12	14:54:45.710	-3.64	3.01	-3.115	-0.40016	-0.026108	0.91622	0.5925	0.519	-0.2565	0	877	898	5
2026-02-12	14:54:45.730	1.4	2.03	-3.535	-0.376736	-0.01708	0.94062	0.591	0.525	-0.2565	0	877	898	5
2026-02-12	14:54:45.750	0.525	2.31	-3.115	-0.382592	0.010248	0.931348	0.597	0.525	-0.258	0	877	898	5
2026-02-12	14:54:45.770	-2.345	1.82	-3.01	-0.392596	-0.011468	0.923052	0.597	0.525	-0.258	0	877	898	5
2026-02-12	14:54:45.790	-0.98	0.98	-2.87	-0.37698	-0.011956	0.923784	0.594	0.525	-0.255	0	877	898	5
2026-02-12	14:54:45.810	-0.63	0.595	-2.66	-0.381128	-0.008296	0.934276	0.6045	0.528	-0.261	0	770	911	1
2026-02-12	14:54:45.830	-1.05	0.385	-2.135	-0.390888	-0.011468	0.927932	0.594	0.5205	-0.2565	0	770	911	1
2026-02-12	14:54:45.850	-1.54	0.21	-1.26	-0.390156	-0.001464	0.916708	0.5925	0.5205	-0.2595	0	770	911	1
2026-02-12	14:54:45.870	-1.05	0.14	-1.26	-0.377468	0.013176	0.91988	0.594	0.528	-0.258	0	770	911	1
2026-02-12	14:54:45.890	-2.065	0.175	-1.33	-0.368928	-0.019276	0.9333	0.597	0.5295	-0.2625	0	770	911	1
2026-02-12	14:54:45.910	-2.24	0.35	-1.12	-0.39772	-0.018056	0.91866	0.5955	0.519	-0.2625	0	770	911	1
2026-02-12	14:54:45.930	-2.905	-0.315	-0.945	-0.43188	-0.019764	0.9028	0.5985	0.5295	-0.2565	0	770	911	1
2026-02-12	14:54:45.950	-1.33	-2.17	-1.295	-0.421144	-0.013176	0.914268	0.597	0.519	-0.258	0	770	911	1
2026-02-12	14:54:45.970	0.455	-2.24	-2.1	-0.365268	-0.016104	0.933544	0.6105	0.525	-0.2565	0	770	911	1
2026-02-12	14:54:45.990	-0.49	-0.805	-2.275	-0.378932	0.006588	0.908412	0.6105	0.525	-0.2565	0	770	911	1
2026-02-12	14:54:46.010	-3.08	-0.455	-2.73	-0.394548	-0.027084	0.910852	0.603	0.5325	-0.2535	0	666	919	1
2026-02-12	14:54:46.030	-0.805	-0.245	-2.835	-0.378688	-0.024156	0.926712	0.594	0.528	-0.252	0	666	919	1
2026-02-12	14:54:46.050	1.365	0.525	-2.03	-0.368684	-0.004392	0.946964	0.591	0.5295	-0.2535	0	666	919	1
2026-02-12	14:54:46.070	-1.015	1.75	-1.015	-0.371856	0.007076	0.918416	0.594	0.522	-0.2535	0	666	919	1
2026-02-12	14:54:46.090	-4.585	2.17	-0.805	-0.402112	0.000732	0.902556	0.603	0.531	-0.2595	0	666	919	1
2026-02-12	14:54:46.110	-4.585	1.54	-1.05	-0.401868	-0.016836	0.904508	0.597	0.5265	-0.2505	0	666	919	1
2026-02-12	14:54:46.130	-2.345	0.98	-1.435	-0.39162	-0.038308	0.933788	0.6	0.525	-0.2625	0	666	919	1
2026-02-12	14:54:46.150	0.385	1.61	-1.295	-0.374784	-0.030988	0.93574	0.5985	0.522	-0.252	0	666	919	1
2026-02-12	14:54:46.170	-0.035	2.45	-1.435	-0.385276	-0.009516	0.918172	0.5985	0.5325	-0.2595	0	666	919	1
2026-02-12	14:54:46.190	-1.225	2.03	-2.835	-0.418216	-0.0183	0.91012	0.5895	0.528	-0.2535	0	666	919	1
2026-02-12	14:54:46.210	1.05	1.295	-3.395	-0.386496	-0.038308	0.934276	0.5985	0.5235	-0.255	0	570	925	1
2026-02-12	14:54:46.230	2.485	2.415	-3.185	-0.366244	-0.031232	0.949892	0.606	0.537	-0.255	0	570	925	1
2026-02-12	14:54:46.250	-0.735	3.675	-2.52	-0.391864	0.011956	0.900848	0.5895	0.531	-0.2595	0	570	925	1
2026-02-12	14:54:46.270	-5.775	3.01	-3.08	-0.423584	-0.013664	0.907192	0.6	0.5265	-0.258	0	570	925	1
2026-02-12	14:54:46.290	-2.94	1.89	-3.675	-0.382348	-0.044896	0.93452	0.6015	0.5325	-0.2595	0	570	925	1
2026-02-12	14:54:46.310	-0.77	2.345	-3.465	-0.390156	-0.010492	0.927444	0.597	0.531	-0.258	0	570	925	1
2026-02-12	14:54:46.330	-2.66	2.835	-3.15	-0.39528	-0.016592	0.906948	0.606	0.522	-0.2565	0	570	925	1
2026-02-12	14:54:46.350	-4.83	2.415	-3.255	-0.417972	-0.02074	0.898408	0.6	0.5295	-0.2625	0	570	925	1
2026-02-12	14:54:46.370	-2.625	1.33	-3.325	-0.4087	-0.028792	0.915244	0.597	0.522	-0.255	0	570	925	1
2026-02-12	14:54:46.390	1.435	1.225	-2.835	-0.379664	-0.025864	0.929396	0.6075	0.537	-0.2625	0	570	925	1
2026-02-12	14:54:46.410	-0.525	1.82	-1.89	-0.402112	-0.00732	0.910608	0.6075	0.537	-0.2625	0	485	929	1
2026-02-12	14:54:46.430	-1.89	1.435	-1.785	-0.40382	-0.026352	0.921344	0.603	0.5235	-0.2595	0	485	929	1
2026-02-12	14:54:46.450	-1.645	1.47	-1.575	-0.387716	-0.03538	0.927932	0.6075	0.5295	-0.255	0	485	929	1
2026-02-12	14:54:46.470	-0.805	2.065	-0.91	-0.389424	-0.027572	0.925736	0.609	0.531	-0.258	0	485	929	1
2026-02-12	14:54:46.490	-1.96	2.31	-0.455	-0.413336	-0.007076	0.887184	0.6075	0.537	-0.2445	0	485	929	1
2026-02-12	14:54:46.510	-0.805	1.47	-1.54	-0.439444	-0.032452	0.892552	0.603	0.5265	-0.261	0	485	929	1
2026-02-12	14:54:46.530	2.24	0.28	-2.135	-0.393328	-0.043188	0.930128	0.606	0.528	-0.2595	0	485	929	1
2026-02-12	14:54:46.550	2.555	1.155	-2.205	-0.380884	-0.028548	0.933056	0.612	0.531	-0.2595	0	485	929	1
2026-02-12	14:54:46.570	-0.945	2.065	-1.925	-0.400404	-0.022204	0.91744	0.609	0.5325	-0.2505	0	485	929	1
2026-02-12	14:54:46.590	-4.97	1.575	-2.17	-0.423828	-0.0183	0.888404	0.6075	0.5385	-0.2595	0	485	929	1
2026-02-12	14:54:46.610	-2.52	-0.595	-3.675	-0.40748	-0.060512	0.934032	0.6045	0.5385	-0.2625	0	412	932	1
2026-02-12	14:54:46.630	-0.665	-0.7	-3.64	-0.378688	-0.033184	0.936716	0.603	0.5295	-0.2625	0	412	932	1
2026-02-12	14:54:46.650	-1.68	0.77	-3.255	-0.385276	-0.015616	0.911096	0.6075	0.5385	-0.261	0	412	932	1
2026-02-12	14:54:46.670	-2.695	1.61	-2.975	-0.40382	-0.020252	0.890844	0.6075	0.531	-0.2535	0	412	932	1
2026-02-12	14:54:46.690	-1.68	1.82	-2.765	-0.40382	-0.039528	0.913048	0.6075	0.5295	-0.258	0	412	932	1
2026-02-12	14:54:46.710	1.925	2.835	-2.275	-0.379664	-0.045384	0.927444	0.603	0.5325	-0.2535	0	412	932	1
2026-02-12	14:54:46.730	3.15	5.145	-1.645	-0.400892	-0.029524	0.909632	0.603	0.528	-0.261	0	412	932	1
2026-02-12	14:54:46.750	-1.575	5.95	-1.75	-0.450424	-0.020008	0.879376	0.6105	0.531	-0.255	0	412	932	1
2026-02-12	14:54:46.770	-1.89	4.865	-3.36	-0.432368	-0.073688	0.905972	0.612	0.534	-0.2565	0	412	932	1
2026-02-12	14:54:46.790	2.03	4.76	-4.865	-0.388448	-0.055388	0.933788	0.612	0.5295	-0.2565	0	412	932	1
2026-02-12	14:54:46.810	1.68	6.405	-4.97	-0.3782	-0.031476	0.935008	0.6135	0.5355	-0.2535	0	351	933	1
2026-02-12	14:54:46.830	-5.74	7.315	-6.16	-0.43432	-0.018056	0.878644	0.6135	0.5355	-0.264	0	351	933	1
2026-02-12	14:54:46.850	-6.125	5.215	-7.315	-0.43066	-0.05612	0.916708	0.603	0.5415	-0.264	0	351	933	1
2026-02-12	14:54:46.870	-2.625	4.165	-7.385	-0.402356	-0.061976	0.93452	0.609	0.534	-0.2565	0	351	933	1
2026-02-12	14:54:46.890	-2.415	4.41	-6.51	-0.411872	-0.034648	0.91622	0.612	0.5355	-0.255	0	351	933	1
2026-02-12	14:54:46.910	-4.305	3.885	-5.775	-0.441152	-0.03172	0.884988	0.615	0.543	-0.255	0	351	933	1
2026-02-12	14:54:46.930	-3.78	1.925	-5.845	-0.42456	-0.049776	0.915488	0.6195	0.534	-0.258	0	351	933	1
2026-02-12	14:54:46.950	-1.4	1.12	-5.215	-0.396012	-0.04758	0.921832	0.627	0.537	-0.2565	0	351	933	1
2026-02-12	14:54:46.970	-1.68	1.33	-4.095	-0.422608	-0.031232	0.901092	0.6225	0.5385	-0.2595	0	351	933	1
2026-02-12	14:54:46.990	-0.385	0.735	-3.5	-0.43066	-0.0488	0.894992	0.621	0.543	-0.2565	0	351	933	1
2026-02-12	14:54:47.010	1.12	-0.07	-2.94	-0.4209	-0.04758	0.91012	0.6165	0.5385	-0.261	0	300	933	1
2026-02-12	14:54:47.030	0.84	0.07	-1.68	-0.41114	-0.043188	0.909144	0.624	0.534	-0.258	0	300	933	1
2026-02-12	14:54:47.050	-1.05	0.91	-0.91	-0.42334	-0.050752	0.902068	0.624	0.534	-0.258	0	300	933	1
2026-02-12	14:54:47.070	0.385	1.12	-1.295	-0.425536	-0.06222	0.89304	0.6225	0.5355	-0.255	0	300	933	1
2026-02-12	14:54:47.090	1.54	1.505	-1.995	-0.428464	-0.053436	0.898896	0.618	0.5355	-0.2505	0	300	933	1
2026-02-12	14:54:47.110	2.45	1.785	-2.765	-0.415288	-0.057584	0.914512	0.6225	0.5445	-0.2505	0	300	933	1
2026-02-12	14:54:47.130	2.66	2.73	-3.36	-0.41724	-0.057584	0.911828	0.6135	0.5385	-0.2655	0	300	933	1
2026-02-12	14:54:47.150	2.345	3.99	-3.745	-0.413336	-0.05124	0.922564	0.621	0.537	-0.2565	0	300	933	1
2026-02-12	14:54:47.170	-0.665	5.18	-4.375	-0.420412	-0.039284	0.89914	0.627	0.5325	-0.2565	0	300	933	1
2026-02-12	14:54:47.190	-4.9	5.95	-5.285	-0.443592	-0.053192	0.887916	0.6285	0.5325	-0.2535	0	300	933	1
2026-02-12	14:54:45.210	-5.985	-0.805	0	-0.361364	-0.015372	0.953552	0.5835	0.5145	-0.2505	0	1061	841	5
2026-02-12	14:54:45.230	-0.665	0.315	1.225	-0.3477	-0.006832	0.936472	0.5865	0.522	-0.252	0	1061	841	5
2026-02-12	14:54:45.250	-0.28	1.47	1.365	-0.400892	0.044652	0.875716	0.585	0.5205	-0.2595	0	1061	841	5
2026-02-12	14:54:45.270	0.63	0.28	-0.385	-0.394792	-0.008784	0.920368	0.5865	0.5175	-0.252	0	1061	841	5
2026-02-12	14:54:45.290	4.97	-0.21	-1.155	-0.3477	-0.018544	0.959408	0.582	0.5205	-0.258	0	1061	841	5
2026-02-12	14:54:45.310	0.945	1.085	-0.385	-0.352092	0.031232	0.935984	0.573	0.516	-0.255	0	1061	841	5
2026-02-12	14:54:45.330	-3.92	2.03	-0.805	-0.358924	-0.003416	0.938424	0.573	0.516	-0.255	0	1061	841	5
2026-02-12	14:54:45.350	-0.875	2.8	-1.365	-0.351604	-0.005856	0.9333	0.573	0.516	-0.255	0	1061	841	5
2026-02-12	14:54:45.370	1.155	3.57	-1.75	-0.373808	0.014152	0.9272	0.5895	0.516	-0.252	0	1061	841	5
2026-02-12	14:54:45.390	-1.33	3.22	-1.96	-0.386008	0.00366	0.925492	0.5835	0.522	-0.2565	0	1061	841	5
2026-02-12	14:54:45.410	-0.91	2.625	-1.89	-0.355264	-0.024156	0.947208	0.5925	0.51	-0.252	0	978	878	5
2026-02-12	14:54:45.430	-1.785	3.08	-1.505	-0.358924	0.030012	0.922808	0.585	0.5205	-0.2625	0	978	878	5
2026-02-12	14:54:45.450	-5.985	2.94	-2.17	-0.395524	0.007076	0.919636	0.5925	0.516	-0.258	0	978	878	5
2026-02-12	14:54:45.470	-4.69	1.295	-2.345	-0.384544	-0.01708	0.931592	0.5895	0.5235	-0.2565	0	978	878	5
2026-02-12	14:54:45.490	-2.52	0.84	-2.17	-0.371612	-0.001464	0.925248	0.5865	0.5235	-0.252	0	978	878	5
2026-02-12	14:54:45.510	0.595	1.015	-1.785	-0.366244	-0.002928	0.93818	0.591	0.5235	-0.2505	0	978	878	5
2026-02-12	14:54:45.530	0.14	1.54	-1.015	-0.365512	0.010492	0.932568	0.588	0.5265	-0.252	0	978	878	5
2026-02-12	14:54:45.550	-0.945	2.73	-0.315	-0.36234	-0.003172	0.930372	0.588	0.5265	-0.252	0	978	878	5
2026-02-12	14:54:45.570	0	3.5	0.035	-0.36234	-0.00244	0.937448	0.591	0.516	-0.2505	0	978	878	5
2026-02-12	14:54:45.590	1.015	4.69	0.315	-0.377224	-0.000244	0.923296	0.597	0.5265	-0.2505	0	978	878	5
2026-02-12	14:54:45.610	-1.19	4.55	0.21	-0.412848	0.007808	0.90402	0.5925	0.5235	-0.2505	0	877	898	5
2026-02-12	14:54:45.630	-2.03	2.975	-0.735	-0.399428	-0.01952	0.916952	0.597	0.519	-0.2535	0	877	898	5
2026-02-12	14:54:45.650	-0.245	2.17	-1.575	-0.369172	-0.027084	0.946476	0.588	0.5175	-0.255	0	877	898	5
2026-02-12	14:54:45.670	0.455	3.115	-1.575	-0.367708	0.000488	0.935984	0.594	0.5175	-0.249	0	877	898	5
2026-02-12	14:54:45.690	-4.165	3.92	-1.855	-0.390644	0.008052	0.904752	0.594	0.519	-0.258	0	877	898	5
2026-02-12	14:54:45.710	-3.64	3.01	-3.115	-0.40016	-0.026108	0.91622	0.5925	0.519	-0.2565	0	877	898	5
2026-02-12	14:54:45.730	1.4	2.03	-3.535	-0.376736	-0.01708	0.94062	0.591	0.525	-0.2565	0	877	898	5
2026-02-12	14:54:45.750	0.525	2.31	-3.115	-0.382592	0.010248	0.931348	0.597	0.525	-0.258	0	877	898	5
2026-02-12	14:54:45.770	-2.345	1.82	-3.01	-0.392596	-0.011468	0.923052	0.597	0.525	-0.258	0	877	898	5
2026-02-12	14:54:45.790	-0.98	0.98	-2.87	-0.37698	-0.011956	0.923784	0.594	0.525	-0.255	0	877	898	5
2026-02-12	14:54:45.810	-0.63	0.595	-2.66	-0.381128	-0.008296	0.934276	0.6045	0.528	-0.261	0	770	911	1
2026-02-12	14:54:45.830	-1.05	0.385	-2.135	-0.390888	-0.011468	0.927932	0.594	0.5205	-0.2565	0	770	911	1
2026-02-12	14:54:45.850	-1.54	0.21	-1.26	-0.390156	-0.001464	0.916708	0.5925	0.5205	-0.2595	0	770	911	1
2026-02-12	14:54:45.870	-1.05	0.14	-1.26	-0.377468	0.013176	0.91988	0.594	0.528	-0.258	0	770	911	1
2026-02-12	14:54:45.890	-2.065	0.175	-1.33	-0.368928	-0.019276	0.9333	0.597	0.5295	-0.2625	0	770	911	1
2026-02-12	14:54:45.910	-2.24	0.35	-1.12	-0.39772	-0.018056	0.91866	0.5955	0.519	-0.2625	0	770	911	1
2026-02-12	14:54:45.930	-2.905	-0.315	-0.945	-0.43188	-0.019764	0.9028	0.5985	0.5295	-0.2565	0	770	911	1
2026-02-12	14:54:45.950	-1.33	-2.17	-1.295	-0.421144	-0.013176	0.914268	0.597	0.519	-0.258	0	770	911	1
2026-02-12	14:54:45.970	0.455	-2.24	-2.1	-0.365268	-0.016104	0.933544	0.6105	0.525	-0.2565	0	770	911	1
2026-02-12	14:54:45.990	-0.49	-0.805	-2.275	-0.378932	0.006588	0.908412	0.6105	0.525	-0.2565	0	770	911	1
2026-02-12	14:55:02.010	39.69	-52.395	-42.14	1.235372	-0.07198	0.493612	0.0705	0.5865	0.24	0	345	261	3
2026-02-12	14:55:02.030	55.72	-47.32	-37.17	1.288564	-0.052216	0.512888	0.0705	0.5805	0.2505	0	345	261	3
2026-02-12	14:55:02.050	60.97	-38.535	-29.715	1.285392	-0.030988	0.498736	0.0735	0.5745	0.2655	0	345	261	3
2026-02-12	14:55:02.070	58.17	-28.84	-19.985	1.245864	-0.023424	0.480192	0.075	0.5745	0.27	0	345	261	3
2026-02-12	14:55:02.090	55.475	-19.53	-10.185	1.210484	-0.011956	0.48556	0.0735	0.5625	0.27	0	345	261	3
2026-02-12	14:55:02.110	55.93	-8.4	-0.525	1.152168	0.010492	0.503616	0.0795	0.5655	0.2715	0	345	261	3
2026-02-12	14:55:02.130	52.64	3.185	9.345	1.119716	0.033428	0.49532	0.0705	0.573	0.273	0	345	261	3
2026-02-12	14:55:02.150	43.085	16.8	17.71	1.104344	0.03538	0.470676	0.0765	0.582	0.2775	0	345	261	3
2026-02-12	14:55:02.170	32.095	31.605	24.78	1.09556	0.00366	0.406992	0.075	0.5805	0.2715	0	345	261	3
2026-02-12	14:55:02.190	24.43	44.415	31.465	1.118496	-0.013664	0.328424	0.0825	0.5865	0.2685	0	345	261	3
2026-02-12	14:55:02.210	14.945	57.925	40.74	1.118008	-0.03904	0.244244	0.066	0.5895	0.273	0	313	288	3
2026-02-12	14:55:02.230	10.08	67.095	50.085	1.101904	-0.054412	0.190564	0.0645	0.5985	0.2595	0	313	288	3
2026-02-12	14:55:02.250	11.445	69.615	55.44	1.11264	-0.05978	0.18544	0.0645	0.606	0.243	0	313	288	3
2026-02-12	14:55:02.270	17.115	71.015	58.38	1.130696	-0.057584	0.208132	0.063	0.612	0.2325	0	313	288	3
2026-02-12	14:55:02.290	19.67	74.06	61.145	1.097268	-0.05002	0.229116	0.0615	0.621	0.2235	0	313	288	3
2026-02-12	14:55:02.310	17.325	77.945	64.995	1.028216	-0.05612	0.24034	0.045	0.627	0.222	0	313	288	3
2026-02-12	14:55:02.330	12.425	81.27	69.685	0.943304	-0.057096	0.24278	0.057	0.636	0.207	0	313	288	3
2026-02-12	14:55:02.350	5.425	82.705	74.06	0.897432	-0.059048	0.226676	0.054	0.651	0.189	0	313	288	3
2026-02-12	14:55:02.370	-2.87	82.25	77.875	0.914024	-0.058316	0.211548	0.051	0.6645	0.186	0	313	288	3
2026-02-12	14:55:02.390	-12.04	80.99	81.9	0.90402	-0.055144	0.182512	0.0405	0.6615	0.1695	0	313	288	3
2026-02-12	14:55:02.410	-18.97	77.21	84.525	0.891576	-0.060756	0.156892	0.0495	0.6885	0.1575	0	286	305	3
2026-02-12	14:55:02.430	-24.29	69.02	84.28	0.887428	-0.07124799	0.116388	0.045	0.6975	0.144	0	286	305	3
2026-02-12	14:55:02.450	-25.515	62.79	80.85	0.870104	-0.084912	0.094184	0.048	0.7065	0.132	0	286	305	3
2026-02-12	14:55:02.470	-23.625	55.37	75.075	0.864004	-0.099552	0.098088	0.051	0.7245	0.1185	0	286	305	3
2026-02-12	14:55:02.490	-16.765	47.81	67.095	0.883524	-0.109556	0.12078	0.0525	0.738	0.111	0	286	305	3
2026-02-12	14:55:02.510	-8.54	41.72	58.1	0.874496	-0.10736	0.136396	0.0555	0.741	0.1065	0	286	305	3
2026-02-12	14:55:02.530	0.91	35.105	47.845	0.872788	-0.10126	0.155428	0.063	0.756	0.1095	0	286	305	3
2026-02-12	14:55:02.550	9.66	27.51	36.12	0.927932	-0.100284	0.166408	0.063	0.753	0.1005	0	286	305	3
2026-02-12	14:55:02.570	17.08	20.51	25.095	0.98576	-0.086132	0.158112	0.0555	0.759	0.0915	0	286	305	3
2026-02-12	14:55:02.590	16.38	13.755	16.38	0.956724	-0.051972	0.120536	0.066	0.7635	0.0885	0	286	305	3
2026-02-12	14:55:02.610	8.855	2.1	7.07	0.983076	-0.03904	0.108336	0.066	0.774	0.099	0	264	294	3
2026-02-12	14:55:02.630	1.015	-12.355	-5.81	1.069696	-0.040504	0.141032	0.057	0.7755	0.09	0	264	294	3
2026-02-12	14:55:02.650	-3.99	-29.365	-28.875	1.178032	-0.051484	0.2257	0.057	0.7755	0.09	0	264	294	3
2026-02-12	14:55:02.670	-4.97	-35.595	-43.12	1.18462	-0.058316	0.263032	0.0585	0.765	0.093	0	264	294	3
2026-02-12	14:55:02.690	-6.615	-37.52	-53.41	1.102148	-0.050752	0.249856	0.0585	0.7545	0.102	0	264	294	3
2026-02-12	14:55:02.710	-12.985	-42.665	-61.6	1.101416	-0.038796	0.178852	0.0555	0.7515	0.1095	0	264	294	3
2026-02-12	14:55:02.730	-26.18	-47.705	-67.515	1.097512	-0.05124	0.18056	0.0525	0.75	0.111	0	264	294	3
2026-02-12	14:55:02.750	-28.315	-49.945	-71.47	1.113128	-0.049532	0.253516	0.0585	0.738	0.1185	0	264	294	3
2026-02-12	14:55:02.770	-23.065	-46.865	-71.4	1.068476	-0.031232	0.277428	0.057	0.7305	0.126	0	264	294	3
2026-02-12	14:55:02.790	-20.44	-43.225	-66.675	1.007476	-0.007808	0.260348	0.054	0.708	0.135	0	264	294	3
2026-02-12	14:55:02.810	-22.12	-40.845	-60.655	0.965996	0.016104	0.239608	0.054	0.7065	0.1365	0	246	269	3
2026-02-12	14:55:02.830	-28.07	-40.705	-55.615	0.966484	0.030988	0.234728	0.054	0.687	0.1455	0	246	269	3
2026-02-12	14:55:02.850	-40.25	-40.88	-52.29	0.956724	0.031964	0.245464	0.0555	0.687	0.1575	0	246	269	3
2026-02-12	14:55:02.870	-53.865	-40.18	-50.26	0.915244	0.015372	0.25132	0.0555	0.675	0.162	0	246	269	3
2026-02-12	14:55:02.890	-61.985	-38.955	-50.26	0.859856	-0.0061	0.243024	0.0585	0.66	0.171	0	246	269	3
2026-02-12	14:55:02.910	-69.475	-39.095	-52.22	0.834236	-0.027328	0.240096	0.057	0.6555	0.171	0	246	269	3
2026-02-12	14:55:02.930	-73.955	-40.075	-55.65	0.823256	-0.062952	0.242292	0.0525	0.651	0.174	0	246	269	3
2026-02-12	14:55:02.950	-73.64	-41.125	-59.045	0.809104	-0.09467199	0.251076	0.0525	0.6495	0.18	0	246	269	3
2026-02-12	14:55:02.970	-66.08	-42.805	-61.635	0.8052	-0.113948	0.266448	0.0555	0.63	0.1905	0	246	269	3
2026-02-12	14:55:02.990	-53.095	-45.045	-63.525	0.819596	-0.111508	0.278892	0.063	0.621	0.1965	0	246	269	3
2026-02-12	14:55:03.010	-41.58	-47.915	-64.82	0.848632	-0.117608	0.291336	0.0645	0.6105	0.198	0	230	254	3
2026-02-12	14:55:03.030	-30.24	-50.4	-65.24	0.869616	-0.112972	0.32208	0.063	0.603	0.201	0	230	254	3
2026-02-12	14:55:03.050	-17.255	-51.905	-63.945	0.88572	-0.109556	0.362828	0.0645	0.582	0.21	0	230	254	3
2026-02-12	14:55:03.070	3.535	-51.065	-58.52	0.931104	-0.082472	0.409432	0.075	0.5895	0.2175	0	230	254	3
2026-02-12	14:55:03.090	11.375	-48.93	-53.06	0.945988	-0.060024	0.418216	0.0795	0.5775	0.222	0	230	254	3
2026-02-12	14:55:03.110	11.585	-46.41	-46.27	0.979904	-0.035868	0.445056	0.087	0.558	0.2355	0	230	254	3
2026-02-12	14:55:03.130	6.09	-42.98	-38.29	1.02724	-0.034648	0.453596	0.0945	0.555	0.2445	0	230	254	3
2026-02-12	14:55:03.150	3.955	-38.71	-30.45	1.08214	-0.046848	0.451156	0.099	0.561	0.243	0	230	254	3
2026-02-12	14:55:03.170	5.95	-33.915	-23.135	1.13704	-0.051972	0.450424	0.093	0.54	0.2535	0	230	254	3
2026-02-12	14:55:03.190	9.03	-28.175	-15.645	1.175348	-0.066856	0.432124	0.096	0.546	0.252	0	230	254	3
2026-02-12	14:55:03.210	13.09	-22.68	-8.085	1.231468	-0.087596	0.421144	0.0975	0.54	0.2595	0	217	261	3
2026-02-12	14:55:03.230	17.78	-15.925	0.595	1.25782	-0.09272	0.410652	0.102	0.54	0.258	0	217	261	3
2026-02-12	14:55:03.250	22.19	-8.33	10.5	1.247816	-0.085888	0.407236	0.102	0.5445	0.282	0	217	261	3
2026-02-12	14:55:03.270	27.125	-0.385	20.09	1.210972	-0.072956	0.43676	0.111	0.5475	0.2715	0	217	261	3
2026-02-12	14:55:03.290	36.96	12.635	32.2	1.14558	-0.061976	0.471164	0.111	0.5475	0.2715	0	217	261	3
2026-02-12	14:55:03.310	42.77	22.225	37.975	1.139236	-0.06222	0.45506	0.1065	0.5565	0.2715	0	217	261	3
2026-02-12	14:55:03.330	46.025	33.285	41.72	1.131672	-0.061488	0.416996	0.0975	0.57	0.273	0	217	261	3
2026-02-12	14:55:03.350	44.59	44.975	44.765	1.125816	-0.062464	0.349408	0.0945	0.5775	0.2745	0	217	261	3
2026-02-12	14:55:03.370	40.215	55.195	47.53	1.149728	-0.067832	0.269864	0.0975	0.5805	0.2775	0	217	261	3
2026-02-12	14:55:03.390	36.715	64.855	51.17	1.137284	-0.08295999	0.230824	0.093	0.591	0.267	0	217	261	3
2026-02-12	14:55:03.410	38.115	72.94	57.33	1.11752	-0.103212	0.21472	0.0855	0.609	0.249	0	208	288	3
2026-02-12	14:55:03.430	45.64	77.595	62.965	1.136308	-0.10248	0.214476	0.0765	0.6075	0.237	0	208	288	3
2026-02-12	14:55:03.450	54.145	81.76	67.27	1.134112	-0.080032	0.223992	0.075	0.615	0.228	0	208	288	3
2026-02-12	14:55:03.470	60.27	85.75	70.14	1.135576	-0.062952	0.22692	0.075	0.6285	0.2145	0	208	288	3
2026-02-12	14:55:03.490	60.83	90.545	72.135	1.10288	-0.050996	0.215696	0.078	0.645	0.207	0	208	288	3
2026-02-12	14:55:03.510	55.79	94.01	73.255	1.03822	-0.034404	0.222772	0.0765	0.6525	0.1905	0	208	288	3
2026-02-12	14:55:03.530	45.535	95.76	72.975	0.98332	-0.02562	0.2501	0.075	0.666	0.1695	0	208	288	3
2026-02-12	14:55:03.550	28.77	97.23	71.47	0.959408	-0.023668	0.252296	0.072	0.681	0.159	0	208	288	3
2026-02-12	14:55:03.570	7.98	97.16	71.19	0.9455	-0.041724	0.215208	0.0705	0.6975	0.141	0	208	288	3
2026-02-12	14:55:03.590	-9.31	94.605	71.05	0.905484	-0.06222	0.168848	0.072	0.705	0.1305	0	208	288	3
2026-02-12	14:55:03.610	-19.32	87.605	71.015	0.875472	-0.064172	0.144204	0.0645	0.7065	0.117	0	200	301	3
2026-02-12	14:55:03.630	-22.015	79.065	67.725	0.887916	-0.06588	0.139324	0.0675	0.714	0.1095	0	200	301	3
2026-02-12	14:55:03.650	-21.84	71.96	61.635	0.874252	-0.070272	0.14884	0.078	0.717	0.1005	0	200	301	3
2026-02-12	14:55:03.670	-20.405	64.085	54.145	0.857904	-0.080276	0.159576	0.075	0.7305	0.084	0	200	301	3
2026-02-12	14:55:03.690	-16.275	55.65	45.185	0.85522	-0.096136	0.174216	0.0795	0.7335	0.087	0	200	301	3
2026-02-12	14:55:03.710	-5.705	41.755	28.98	0.908412	-0.10858	0.183244	0.0795	0.747	0.0675	0	200	301	3
2026-02-12	14:55:03.730	2.905	32.34	16.975	0.942084	-0.109312	0.192028	0.081	0.7485	0.0645	0	200	301	3
2026-02-12	14:55:03.750	11.305	23.17	6.265	0.958188	-0.0915	0.205204	0.084	0.753	0.0555	0	200	301	3
2026-02-12	14:55:03.770	16.31	14.14	-2.94	0.961604	-0.052948	0.197884	0.087	0.759	0.054	0	200	301	3
2026-02-12	14:55:03.790	16.03	3.955	-11.865	0.959408	-0.025376	0.179828	0.0885	0.7605	0.057	0	200	301	3
2026-02-12	14:55:03.810	10.92	-9.24	-22.33	0.993324	-0.02196	0.179096	0.0915	0.7575	0.0555	0	194	290	3
2026-02-12	14:55:03.830	4.725	-23.765	-34.44	1.038464	-0.02928	0.200568	0.0885	0.7485	0.0555	0	194	290	3
2026-02-12	14:55:03.850	0.245	-37.45	-46.795	1.0614	-0.035624	0.23058	0.0855	0.7455	0.0555	0	194	290	3
2026-02-12	14:55:03.870	-3.92	-49.245	-58.87	1.066768	-0.031476	0.26474	0.0885	0.7365	0.063	0	194	290	3
2026-02-12	14:55:03.890	-8.33	-57.225	-69.125	1.021628	-0.028304	0.281088	0.0825	0.735	0.0675	0	194	290	3
2026-02-12	14:55:03.910	-9.59	-63.525	-77.07	0.970144	-0.03294	0.283772	0.084	0.732	0.0735	0	194	290	3
2026-02-12	14:55:03.930	-11.41	-68.705	-79.975	0.915244	-0.037088	0.258152	0.084	0.732	0.0735	0	194	290	3
2026-02-12	14:55:03.950	-12.425	-72.905	-78.68	0.92476	-0.033184	0.247172	0.078	0.7095	0.09	0	194	290	3
2026-02-12	14:55:03.970	-9.1	-76.895	-76.895	0.956724	-0.023424	0.266448	0.072	0.6825	0.1095	0	194	290	3
2026-02-12	14:55:03.990	-2.205	-79.52	-74.235	0.992348	-0.013664	0.284504	0.0705	0.672	0.123	0	194	290	3
2026-02-12	14:55:04.010	3.78	-81.235	-71.26	1.032608	-0.007808	0.285724	0.069	0.666	0.132	0	186	273	3
2026-02-12	14:55:04.030	6.825	-81.48	-68.88	1.061888	-0.01342	0.283772	0.0765	0.66	0.1335	0	186	273	3
2026-02-12	14:55:04.050	8.575	-80.22	-66.71	1.064816	-0.0244	0.283772	0.0735	0.6465	0.15	0	186	273	3
2026-02-12	14:55:04.070	7.175	-77.56	-64.085	1.022116	-0.028548	0.284016	0.075	0.6345	0.1545	0	186	273	3
2026-02-12	14:55:04.090	3.185	-74.585	-60.725	0.96502	-0.02684	0.28426	0.0825	0.6285	0.1665	0	186	273	3
2026-02-12	14:55:04.110	-0.77	-71.89	-56.385	0.901824	-0.040748	0.285724	0.078	0.6195	0.1845	0	186	273	3
2026-02-12	14:55:04.130	-0.91	-69.86	-50.12	0.863516	-0.039772	0.306708	0.0885	0.6075	0.192	0	186	273	3
2026-02-12	14:55:04.150	1.925	-68.32	-44.835	0.857416	-0.029036	0.334768	0.09	0.5985	0.201	0	186	273	3
2026-02-12	14:55:04.170	2.59	-66.5	-41.58	0.858392	-0.031232	0.341112	0.0945	0.5925	0.2145	0	186	273	3
2026-02-12	14:55:04.190	2.485	-64.47	-39.06	0.868884	-0.049288	0.347944	0.102	0.591	0.2265	0	186	273	3
2026-02-12	14:55:04.210	7.525	-63.035	-37.8	0.908168	-0.043676	0.381372	0.105	0.588	0.231	0	178	268	3
2026-02-12	14:55:04.230	14.455	-60.06	-37.275	0.94306	-0.026108	0.431392	0.105	0.582	0.234	0	178	268	3
2026-02-12	14:55:04.250	19.46	-54.39	-35.945	0.959164	-0.01952	0.457744	0.105	0.576	0.2415	0	178	268	3
2026-02-12	14:55:04.270	20.335	-47.32	-32.27	0.932812	-0.016348	0.454816	0.117	0.5595	0.246	0	178	268	3
2026-02-12	14:55:04.290	20.16	-41.16	-27.02	0.94062	-0.020252	0.446032	0.1215	0.564	0.2565	0	178	268	3
2026-02-12	14:55:04.310	21.98	-35.315	-20.405	0.952088	-0.011956	0.429196	0.1215	0.5625	0.2625	0	178	268	3
2026-02-12	14:55:04.330	25.76	-30.8	-13.825	1.01626	-0.002928	0.428952	0.1275	0.564	0.2685	0	178	268	3
2026-02-12	14:55:04.350	34.72	-22.295	-5.285	1.172908	0.008784	0.449936	0.129	0.5685	0.279	0	178	268	3
2026-02-12	14:55:04.370	38.92	-13.965	1.155	1.225856	0.007076	0.442128	0.126	0.567	0.2805	0	178	268	3
2026-02-12	14:55:04.390	41.615	-4.795	7.595	1.27612	-0.013176	0.420412	0.1245	0.5655	0.285	0	178	268	3
2026-02-12	14:55:04.410	45.36	5.11	13.825	1.312964	-0.017324	0.396988	0.1275	0.567	0.288	0	169	284	3
2026-02-12	14:55:04.430	48.09	14.175	20.16	1.342	-0.003416	0.39284	0.1275	0.5715	0.2895	0	169	284	3
2026-02-12	14:55:04.450	44.73	24.745	27.65	1.271972	0.01098	0.400404	0.126	0.576	0.2895	0	169	284	3
2026-02-12	14:55:04.470	42.42	34.37	33.95	1.221708	-0.002928	0.410164	0.1335	0.5805	0.2895	0	169	284	3
2026-02-12	14:55:04.490	44.905	44.52	37.765	1.184376	-0.006344	0.420168	0.1275	0.5865	0.288	0	169	284	3
2026-02-12	14:55:04.510	43.82	57.085	41.475	1.12606	-0.020984	0.39528	0.126	0.588	0.285	0	169	284	3
2026-02-12	14:55:04.530	38.99	69.685	45.955	1.102636	-0.037088	0.313784	0.1185	0.5925	0.2715	0	169	284	3
2026-02-12	14:55:04.550	29.96	80.01	49.98	1.10776	-0.044652	0.228872	0.1185	0.6015	0.2685	0	169	284	3
2026-02-12	14:55:04.570	8.96	91.49	57.505	1.084336	-0.091744	0.151768	0.1095	0.6075	0.261	0	169	284	3
2026-02-12	14:55:04.590	2.905	94.395	61.985	1.122888	-0.12444	0.139812	0.105	0.6195	0.2445	0	169	284	3
2026-02-12	14:55:04.610	4.06	96.67	65.275	1.132892	-0.151036	0.136884	0.1035	0.63	0.2295	0	164	307	3
2026-02-12	14:55:04.630	10.5	98.175	68.53	1.13338	-0.177144	0.156648	0.1005	0.6345	0.2145	0	164	307	3
2026-02-12	14:55:04.650	18.095	98.35	70.56	1.162172	-0.171776	0.171532	0.093	0.6435	0.2025	0	164	307	3
2026-02-12	14:55:04.670	20.44	99.47	71.505	1.137772	-0.145424	0.183488	0.0855	0.651	0.1995	0	164	307	3
2026-02-12	14:55:04.690	15.225	101.29	73.64	1.012844	-0.136884	0.191052	0.09	0.663	0.1815	0	164	307	3
2026-02-12	14:55:04.710	9.66	99.12	75.18	0.952576	-0.13786	0.178852	0.087	0.6735	0.1665	0	164	307	3
2026-02-12	14:55:04.730	2.31	95.27	75.425	0.93696	-0.143716	0.163968	0.0855	0.687	0.1545	0	164	307	3
2026-02-12	14:55:04.750	-6.405	89.915	74.97	0.934032	-0.14884	0.143716	0.093	0.6945	0.147	0	164	307	3
2026-02-12	14:55:04.770	-17.71	80.955	73.185	0.907436	-0.156892	0.109556	0.0915	0.699	0.1365	0	164	307	3
2026-02-12	14:55:04.790	-24.78	69.86	69.72	0.881328	-0.17324	0.075396	0.0885	0.7095	0.1275	0	164	307	3
2026-02-12	14:55:04.810	-24.535	60.13	65.03	0.860344	-0.180072	0.060756	0.084	0.7215	0.114	0	162	304	3
2026-02-12	14:55:04.830	-21.385	49.735	58.975	0.851316	-0.181536	0.051728	0.09	0.7335	0.102	0	162	304	3
2026-02-12	14:55:04.850	-14.14	38.99	51.975	0.849852	-0.194712	0.065148	0.1005	0.7455	0.0975	0	162	304	3
2026-02-12	14:55:04.870	-1.855	30.03	45.745	0.817644	-0.188856	0.094184	0.102	0.7515	0.0975	0	162	304	3
2026-02-12	14:55:04.890	13.16	20.72	39.27	0.819352	-0.16714	0.113948	0.1005	0.7545	0.0945	0	162	304	3
2026-02-12	14:55:04.910	25.235	10.99	32.06	0.848632	-0.147132	0.11712	0.096	0.7605	0.0915	0	162	304	3
2026-02-12	14:55:04.930	34.72	0.28	24.535	0.877668	-0.142496	0.118096	0.099	0.768	0.084	0	162	304	3
2026-02-12	14:55:04.950	42.945	-11.935	16.345	0.911584	-0.124928	0.11102	0.0975	0.768	0.09	0	162	304	3
2026-02-12	14:55:04.970	48.3	-26.495	5.845	0.974292	-0.111264	0.12444	0.099	0.774	0.093	0	162	304	3
2026-02-12	14:55:04.990	59.78	-47.705	-15.295	1.160708	-0.093452	0.217892	0.0975	0.774	0.0915	0	162	304	3
2026-02-12	14:55:05.010	72.835	-55.895	-32.095	1.247328	-0.082472	0.277672	0.099	0.7725	0.099	0	162	276	3
2026-02-12	14:55:05.030	82.6	-59.885	-46.34	1.232688	-0.08174	0.319152	0.0975	0.7665	0.1065	0	162	276	3
2026-02-12	14:55:05.050	87.745	-60.445	-54.25	1.140456	-0.08052	0.342332	0.093	0.7575	0.111	0	162	276	3
2026-02-12	14:55:05.070	87.185	-57.995	-55.44	1.02358	-0.046848	0.335012	0.096	0.7455	0.117	0	162	276	3
2026-02-12	14:55:05.090	77.77	-54.285	-51.275	0.909388	0.008296	0.323056	0.099	0.7395	0.1185	0	162	276	3
2026-02-12	14:55:05.110	61.11	-52.08	-44.31	0.855708	0.051484	0.274012	0.096	0.7335	0.1305	0	162	276	3
2026-02-12	14:55:05.130	41.615	-53.2	-37.24	0.87718	0.08418	0.243024	0.09	0.735	0.1305	0	162	276	3
2026-02-12	14:55:05.150	24.045	-55.405	-31.5	0.906948	0.107604	0.232044	0.0825	0.726	0.1365	0	162	276	3
2026-02-12	14:55:05.170	10.465	-59.325	-27.335	0.97356	0.129564	0.24644	0.0855	0.726	0.1545	0	162	276	3
2026-02-12	14:55:05.190	-3.71	-61.915	-26.005	1.03334	0.118584	0.265472	0.087	0.72	0.1605	0	162	276	3
2026-02-12	14:55:05.210	-26.95	-59.675	-27.72	1.016504	0.050752	0.289872	0.087	0.72	0.1605	0	164	253	3
2026-02-12	14:55:05.230	-42.525	-57.96	-30.1	0.96868	-0.009516	0.272548	0.087	0.714	0.168	0	164	253	3
2026-02-12	14:55:05.250	-49.945	-57.295	-31.57	0.894504	-0.101992	0.251564	0.09	0.7095	0.1845	0	164	253	3
2026-02-12	14:55:05.270	-37.975	-57.82	-32.9	0.82594	-0.130052	0.262788	0.09	0.705	0.195	0	164	253	3
2026-02-12	14:55:05.290	-23.17	-59.465	-33.39	0.77958	-0.10858	0.277916	0.09	0.6975	0.1965	0	164	253	3
2026-02-12	14:55:05.310	-11.13	-61.95	-34.09	0.794952	-0.10492	0.291336	0.093	0.696	0.1965	0	164	253	3
2026-02-12	14:55:05.330	1.435	-64.12	-35.35	0.846192	-0.083936	0.304512	0.0975	0.687	0.213	0	164	253	3
2026-02-12	14:55:05.350	8.26	-64.75	-35.385	0.877424	-0.059292	0.315492	0.105	0.6855	0.2175	0	164	253	3
2026-02-12	14:55:05.370	8.505	-64.225	-34.3	0.897676	-0.039528	0.317444	0.102	0.6735	0.237	0	164	253	3
2026-02-12	14:55:05.390	2.345	-62.72	-32.935	0.91866	-0.02562	0.324276	0.1065	0.6735	0.237	0	164	253	3
2026-02-12	14:55:05.410	-9.03	-58.345	-30.345	0.943304	-0.00976	0.351116	0.1095	0.681	0.249	0	167	249	3
2026-02-12	14:55:05.430	-20.335	-52.99	-26.46	0.931592	-0.00488	0.356728	0.1125	0.672	0.2565	0	167	249	3
2026-02-12	14:55:05.450	-26.145	-50.295	-22.4	0.940376	-0.020496	0.345992	0.117	0.663	0.2655	0	167	249	3
2026-02-12	14:55:05.470	-24.675	-48.09	-18.305	0.971608	-0.024156	0.3721	0.117	0.657	0.273	0	167	249	3
2026-02-12	14:55:05.490	-15.75	-44.625	-14.805	1.041148	-0.000488	0.419924	0.12	0.6495	0.279	0	167	249	3
2026-02-12	14:55:05.510	-10.185	-39.27	-11.655	1.10166	0.033184	0.42578	0.1245	0.651	0.285	0	167	249	3
2026-02-12	14:55:05.530	-13.16	-34.09	-8.085	1.128256	0.023912	0.409188	0.123	0.6555	0.2895	0	167	249	3
2026-02-12	14:55:05.550	-13.79	-31.045	-5.285	1.174372	-0.005368	0.408212	0.1305	0.651	0.288	0	167	249	3
2026-02-12	14:55:05.570	-7.245	-29.12	-3.85	1.2444	-0.025864	0.426756	0.126	0.654	0.297	0	167	249	3
2026-02-12	14:55:05.590	3.675	-26.67	-3.64	1.310036	-0.02684	0.480192	0.1305	0.651	0.2985	0	167	249	3
2026-02-12	14:55:05.610	13.93	-20.335	-2.765	1.312232	-0.031476	0.540704	0.1395	0.6495	0.2985	0	168	267	3
2026-02-12	14:55:05.630	32.34	-4.935	1.33	1.223904	-0.035624	0.576084	0.1275	0.6435	0.309	0	168	267	3
2026-02-12	14:55:05.650	45.5	8.05	4.865	1.163148	-0.0244	0.55754	0.1305	0.6495	0.3075	0	168	267	3
2026-02-12	14:55:05.670	51.52	23.59	9.275	1.116056	-0.025376	0.504592	0.132	0.6585	0.309	0	168	267	3
2026-02-12	14:55:05.690	51.695	39.445	14.525	1.115568	-0.032696	0.421632	0.1305	0.66	0.306	0	168	267	3
2026-02-12	14:55:05.710	50.47	53.41	20.265	1.131916	-0.039772	0.326472	0.1275	0.663	0.3015	0	168	267	3
2026-02-12	14:55:05.730	49.805	65.59	26.075	1.128012	-0.040504	0.254736	0.1275	0.672	0.294	0	168	267	3
2026-02-12	14:55:05.750	51.87	75.635	31.64	1.108736	-0.050264	0.208864	0.1275	0.6735	0.288	0	168	267	3
2026-02-12	14:55:05.770	55.055	83.125	36.015	1.12728	-0.047336	0.202276	0.129	0.6855	0.2865	0	168	267	3
2026-02-12	14:55:05.790	55.755	89.53	38.815	1.16388	-0.028304	0.210084	0.117	0.6825	0.2715	0	168	267	3
2026-02-12	14:55:05.810	49.77	96.705	41.65	1.166076	0.007076	0.225944	0.111	0.6855	0.267	0	169	297	3
2026-02-12	14:55:05.830	36.75	103.705	45.465	1.130208	0.006344	0.221552	0.1095	0.702	0.2475	0	169	297	3
2026-02-12	14:55:05.850	12.81	109.97	51.205	1.059936	-0.00122	0.234728	0.1095	0.702	0.2475	0	169	297	3
2026-02-12	14:55:05.870	-0.7	112.525	54.705	1.035292	0.025132	0.284748	0.1065	0.7125	0.225	0	169	297	3
2026-02-12	14:55:05.890	-18.48	115.815	57.715	1.017968	0.044408	0.294996	0.099	0.726	0.1965	0	169	297	3
2026-02-12	14:55:05.910	-44.8	117.95	61.74	0.97356	0.019764	0.246684	0.099	0.7335	0.18	0	169	297	3
2026-02-12	14:55:05.930	-68.495	114.66	65.765	0.9516	-0.031964	0.1891	0.1035	0.7395	0.1665	0	169	297	3
2026-02-12	14:55:05.950	-81.83	107.485	68.39	0.933544	-0.065148	0.154208	0.102	0.7485	0.1605	0	169	297	3
2026-02-12	14:55:05.970	-83.055	100.17	68.775	0.92354	-0.084424	0.155672	0.1035	0.756	0.156	0	169	297	3
2026-02-12	14:55:05.990	-74.655	93.73	66.85	0.906704	-0.09467199	0.155428	0.105	0.765	0.1335	0	169	297	3
2026-02-12	14:55:06.010	-60.62	86.1	62.23	0.864492	-0.099552	0.13176	0.105	0.765	0.1335	0	171	307	3
2026-02-12	14:55:06.030	-52.885	80.43	58.52	0.839848	-0.105408	0.10858	0.1155	0.7845	0.117	0	171	307	3
2026-02-12	14:55:06.050	-39.62	68.46	50.295	0.837896	-0.108336	0.101016	0.1095	0.7935	0.1095	0	171	307	3
2026-02-12	14:55:06.070	-27.475	54.355	38.92	0.8418	-0.091988	0.118584	0.1155	0.7995	0.1035	0	171	307	3
2026-02-12	14:55:06.090	-20.755	41.615	28.175	0.840092	-0.078568	0.143228	0.1185	0.8055	0.0945	0	171	307	3
2026-02-12	14:55:06.110	-17.15	27.93	17.325	0.829356	-0.077836	0.150304	0.123	0.816	0.0945	0	171	307	3
2026-02-12	14:55:06.130	-15.505	12.04	5.74	0.84058	-0.070028	0.139324	0.129	0.8205	0.093	0	171	307	3
2026-02-12	14:55:06.150	-15.085	-6.475	-9.065	0.904264	-0.053924	0.1952	0.123	0.8175	0.09	0	171	307	3
2026-02-12	14:55:06.170	-12.355	-21.525	-27.545	1.021872	-0.049532	0.284992	0.117	0.8175	0.09	0	171	307	3
2026-02-12	14:55:06.190	-7.77	-31.36	-46.34	1.089948	-0.043188	0.29646	0.12	0.8205	0.0855	0	171	307	3
2026-02-12	14:55:06.210	-13.895	-39.585	-62.615	1.085556	-0.027328	0.251076	0.1215	0.816	0.093	0	171	291	3
2026-02-12	14:55:06.230	-25.06	-49.455	-78.225	1.096292	-0.038308	0.204716	0.12	0.8085	0.0975	0	171	291	3
2026-02-12	14:55:06.250	-32.165	-60.445	-92.75	1.142408	-0.068808	0.216428	0.1095	0.7995	0.105	0	171	291	3
2026-02-12	14:55:06.270	-27.37	-66.99	-101.535	1.070916	-0.072224	0.255712	0.1185	0.786	0.12	0	171	291	3
2026-02-12	14:55:06.290	-23.73	-69.755	-98.245	1.009184	-0.056608	0.224724	0.1095	0.774	0.1275	0	171	291	3
2026-02-12	14:55:06.310	-20.02	-73.57	-91.385	0.98454	-0.056364	0.203008	0.0975	0.753	0.141	0	171	291	3
2026-02-12	14:55:06.330	-12.53	-78.47	-82.53	1.006988	-0.04758	0.204716	0.096	0.741	0.1515	0	171	291	3
2026-02-12	14:55:06.350	-2.03	-82.635	-73.255	1.068964	-0.01952	0.232776	0.096	0.7365	0.1635	0	171	291	3
2026-02-12	14:55:06.370	4.76	-83.86	-65.1	1.098488	0.008784	0.248636	0.096	0.726	0.171	0	171	291	3
2026-02-12	14:55:06.390	1.33	-82.81	-58.73	1.099464	0.004636	0.240096	0.0975	0.72	0.1725	0	171	291	3
2026-02-12	14:55:06.410	-6.44	-80.255	-55.44	1.050908	-0.051728	0.198616	0.096	0.717	0.1905	0	170	269	3
2026-02-12	14:55:06.430	-1.54	-78.925	-53.55	0.987468	-0.192272	0.14152	0.1065	0.7035	0.198	0	170	269	3
2026-02-12	14:55:06.450	39.9	-79.975	-55.09	0.949892	-0.254248	0.1708	0.0975	0.693	0.2145	0	170	269	3
2026-02-12	14:55:06.470	80.85	-81.095	-57.015	0.901092	-0.163236	0.226188	0.1005	0.6915	0.2295	0	170	269	3
2026-02-12	14:55:06.490	93.135	-83.125	-53.9	0.861808	-0.040504	0.270596	0.1005	0.6915	0.2295	0	170	269	3
2026-02-12	14:55:06.510	81.34	-84.875	-50.26	0.873764	0.008296	0.276452	0.1095	0.684	0.2445	0	170	269	3
2026-02-12	14:55:06.530	61.075	-86.94	-47.215	0.893772	0.077592	0.311344	0.12	0.672	0.264	0	170	269	3
2026-02-12	14:55:06.550	28.175	-87.01	-45.255	0.9211	0.166652	0.374296	0.12	0.6705	0.273	0	170	269	3
2026-02-12	14:55:06.570	-20.755	-83.3	-43.89	0.93452	0.21472	0.425048	0.123	0.666	0.2805	0	170	269	3
2026-02-12	14:55:06.590	-78.19	-77.525	-42.98	0.959652	0.21838	0.42456	0.129	0.651	0.2865	0	170	269	3
2026-02-12	14:55:06.610	-129.325	-70.35	-43.19	0.974048	0.164944	0.391132	0.132	0.645	0.2895	0	167	258	3
2026-02-12	14:55:06.630	-164.29	-63.035	-43.645	0.9943	0.109556	0.36234	0.1425	0.6435	0.3015	0	167	258	3
2026-02-12	14:55:06.650	-179.27	-56.245	-43.05	1.021384	0.03538	0.360388	0.138	0.6285	0.309	0	167	258	3
2026-02-12	14:55:06.670	-173.005	-49.91	-41.125	1.063108	-0.026352	0.386984	0.15	0.6165	0.318	0	167	258	3
2026-02-12	14:55:06.690	-144.48	-42.35	-34.37	1.136064	-0.086132	0.412848	0.1575	0.603	0.309	0	167	258	3
2026-02-12	14:55:06.710	-102.83	-34.195	-24.5	1.219268	-0.126392	0.4575	0.159	0.5865	0.312	0	167	258	3
2026-02-12	14:55:06.730	-62.195	-25.655	-15.155	1.288076	-0.108336	0.519476	0.1605	0.564	0.315	0	167	258	3
2026-02-12	14:55:06.750	-28.77	-15.26	-4.9	1.362496	-0.040992	0.524844	0.1635	0.558	0.315	0	167	258	3
2026-02-12	14:55:06.770	-15.435	-0.7	7.805	1.307596	0.011956	0.471652	0.1665	0.5565	0.3165	0	167	258	3
2026-02-12	14:55:06.790	-12.075	11.41	20.02	1.247572	0.043432	0.459696	0.1695	0.558	0.3135	0	167	258	3
2026-02-12	14:55:06.810	-9.345	21.07	29.89	1.174128	0.078568	0.483608	0.1665	0.5595	0.3105	0	166	273	3
2026-02-12	14:55:06.830	-11.13	31.01	38.535	1.111664	0.087596	0.503128	0.159	0.5595	0.3105	0	166	273	3
2026-02-12	14:55:06.850	-15.82	41.44	44.835	1.0553	0.084912	0.50142	0.165	0.57	0.306	0	166	273	3
2026-02-12	14:55:06.870	-19.95	52.64	49.385	0.99918	0.047824	0.453596	0.15	0.5685	0.3	0	166	273	3
2026-02-12	14:55:06.890	-21.105	61.46	52.57	0.997228	-0.013176	0.391132	0.15	0.588	0.2865	0	166	273	3
2026-02-12	14:55:06.910	-8.4	73.605	53.13	1.123132	-0.004392	0.406504	0.1485	0.5805	0.288	0	166	273	3
2026-02-12	14:55:06.930	-6.615	93.17	52.5	1.19926	0.05978	0.395768	0.138	0.5865	0.279	0	166	273	3
2026-02-12	14:55:06.950	-33.11	110.04	58.24	1.171444	-0.00366	0.28548	0.129	0.5955	0.2625	0	166	273	3
2026-02-12	14:55:06.970	-54.495	118.02	66.92	1.143384	-0.090524	0.203496	0.129	0.6	0.2505	0	166	273	3
2026-02-12	14:55:06.990	-61.425	118.09	75.81	1.091412	-0.126148	0.213256	0.1245	0.609	0.234	0	166	273	3
2026-02-12	14:55:07.010	-55.335	116.97	83.055	1.03822	-0.099064	0.294508	0.111	0.621	0.2115	0	166	305	3
2026-02-12	14:55:07.030	-44.135	115.5	87.22	1.084824	-0.0793	0.331108	0.1035	0.624	0.1995	0	166	305	3
2026-02-12	14:55:07.050	-39.76	115.465	91.91	1.069696	-0.088572	0.325496	0.108	0.636	0.1845	0	166	305	3
2026-02-12	14:55:07.070	-40.18	114.065	96.95	0.981368	-0.116876	0.290604	0.099	0.6465	0.1755	0	166	305	3
2026-02-12	14:55:07.090	-35.56	108.99	99.47	0.928908	-0.150548	0.28182	0.102	0.6495	0.162	0	166	305	3
2026-02-12	14:55:07.110	-27.44	103.355	98.665	0.903288	-0.1464	0.282552	0.105	0.6645	0.147	0	166	305	3
2026-02-12	14:55:07.130	-18.69	93.1	94.92	0.894992	-0.155916	0.265716	0.105	0.6645	0.147	0	166	305	3
2026-02-12	14:55:07.150	-11.655	85.05	91.175	0.856196	-0.150304	0.233508	0.1035	0.684	0.126	0	166	305	3
2026-02-12	14:55:07.170	-1.015	75.565	84.28	0.852536	-0.147864	0.204228	0.102	0.714	0.102	0	166	305	3
2026-02-12	14:55:07.190	9.485	65.73	75.18	0.850096	-0.142008	0.179828	0.102	0.7215	0.096	0	166	305	3
2026-02-12	14:55:07.210	17.22	55.09	65.1	0.818132	-0.134688	0.180072	0.108	0.7305	0.087	0	167	322	3
2026-02-12	14:55:07.230	25.34	43.61	54.25	0.787144	-0.122244	0.203252	0.1125	0.7395	0.078	0	167	322	3
2026-02-12	14:55:07.250	32.48	31.605	42.84	0.785192	-0.102724	0.216916	0.1125	0.7395	0.0735	0	167	322	3
2026-02-12	14:55:07.270	36.61	19.775	31.045	0.802028	-0.08784	0.238632	0.117	0.7545	0.0705	0	167	322	3
2026-02-12	14:55:07.290	38.78	8.26	19.32	0.809348	-0.07198	0.246196	0.1125	0.7515	0.0705	0	167	322	3
2026-02-12	14:55:07.310	37.625	-3.255	7.875	0.82106	-0.0549	0.233996	0.1095	0.753	0.063	0	167	322	3
2026-02-12	14:55:07.330	31.185	-19.775	-7.175	0.833504	-0.048068	0.219112	0.1245	0.759	0.0615	0	167	322	3
2026-02-12	14:55:07.350	27.16	-39.235	-26.075	0.896944	-0.03538	0.23302	0.12	0.7545	0.0645	0	167	322	3
2026-02-12	14:55:07.370	28.945	-55.3	-45.465	0.991372	-0.040748	0.268644	0.1155	0.744	0.0735	0	167	322	3
2026-02-12	14:55:07.390	33.18	-68.04	-64.225	1.042368	-0.0488	0.306952	0.117	0.738	0.078	0	167	322	3
2026-02-12	14:55:07.410	36.61	-77.77	-80.255	1.071404	-0.058072	0.321592	0.117	0.735	0.0855	0	168	316	3
2026-02-12	14:55:07.430	38.675	-84.42	-92.33	1.041392	-0.060024	0.307684	0.114	0.7215	0.0945	0	168	316	3
2026-02-12	14:55:07.450	38.43	-90.23	-99.4	1.009184	-0.052704	0.275476	0.114	0.708	0.1065	0	168	316	3
2026-02-12	14:55:07.470	34.475	-95.62	-101.815	0.983564	-0.047336	0.243268	0.1185	0.705	0.117	0	168	316	3
2026-02-12	14:55:07.490	32.06	-101.465	-101.57	0.990152	-0.0488	0.2379	0.108	0.696	0.135	0	168	316	3
2026-02-12	14:55:07.510	36.645	-107.24	-99.26	1.025532	-0.056852	0.263032	0.102	0.675	0.1395	0	168	316	3
2026-02-12	14:55:07.530	49.875	-109.655	-94.64	1.081408	-0.044408	0.337452	0.1065	0.6615	0.15	0	168	316	3
2026-02-12	14:55:07.550	71.75	-102.27	-86.1	1.13704	0.002928	0.430904	0.111	0.6585	0.1635	0	168	316	3
2026-02-12	14:55:07.570	74.375	-88.375	-74.62	1.111908	0.069296	0.41846	0.1155	0.645	0.177	0	168	316	3
2026-02-12	14:55:07.590	50.645	-77.175	-64.295	1.06384	0.085888	0.358436	0.1215	0.627	0.1965	0	168	316	3
2026-02-12	14:55:07.610	16.03	-67.69	-54.6	1.016992	0.080764	0.300608	0.1185	0.618	0.2085	0	168	306	3
2026-02-12	14:55:07.630	-17.29	-60.305	-45.78	0.959652	0.07808	0.261812	0.1185	0.612	0.2175	0	168	306	3
2026-02-12	14:55:07.650	-45.43	-54.775	-37.905	0.922564	0.07808	0.24156	0.1245	0.609	0.2235	0	168	306	3
2026-02-12	14:55:07.670	-66.43	-50.05	-31.465	0.884744	0.066368	0.249612	0.1305	0.603	0.231	0	168	306	3
2026-02-12	14:55:07.690	-86.695	-46.41	-25.9	0.865712	0.0366	0.271084	0.132	0.6	0.234	0	168	306	3
2026-02-12	14:55:07.710	-103.81	-42.91	-21.595	0.8601	-0.008296	0.278892	0.1335	0.5925	0.234	0	168	306	3
2026-02-12	14:55:07.730	-112.14	-40.915	-19.635	0.875228	-0.045384	0.299876	0.132	0.5865	0.246	0	168	306	3
2026-02-12	14:55:07.750	-112.455	-39.375	-19.005	0.912072	-0.063928	0.343552	0.132	0.5805	0.243	0	168	306	3
2026-02-12	14:55:07.770	-101.675	-37.45	-20.475	0.945988	-0.089548	0.411872	0.132	0.5805	0.243	0	168	306	3
2026-02-12	14:55:07.790	-89.775	-36.715	-22.155	0.951112	-0.110532	0.445788	0.135	0.57	0.2445	0	168	306	3
2026-02-12	14:55:07.810	-73.255	-36.085	-23.45	0.93818	-0.09882	0.48556	0.144	0.5535	0.2445	0	166	304	3
2026-02-12	14:55:07.830	-55.685	-35.315	-24.43	0.925492	-0.07198	0.507032	0.147	0.5475	0.2475	0	166	304	3
2026-02-12	14:55:07.850	-34.125	-34.86	-24.465	0.943792	-0.068808	0.509716	0.1545	0.546	0.2505	0	166	304	3
2026-02-12	14:55:07.870	-12.95	-34.23	-23.345	0.964776	-0.061488	0.514596	0.1575	0.5415	0.246	0	166	304	3
2026-02-12	14:55:07.890	9.835	-33.775	-21.385	1.06018	-0.05246	0.521184	0.1545	0.54	0.2415	0	166	304	3
2026-02-12	14:55:07.910	32.13	-31.01	-19.39	1.178276	-0.028548	0.536556	0.168	0.537	0.2565	0	166	304	3
2026-02-12	14:55:07.930	45.745	-23.8	-15.19	1.220732	-0.00976	0.519476	0.165	0.54	0.255	0	166	304	3
2026-02-12	14:55:07.950	50.435	-15.12	-8.785	1.22732	-0.008784	0.474092	0.165	0.5325	0.2685	0	166	304	3
2026-02-12	14:55:07.970	53.935	-5.04	-0.035	1.231224	0.000244	0.42212	0.1635	0.534	0.276	0	166	304	3
2026-02-12	14:55:07.990	55.965	4.9	8.33	1.218292	0.018056	0.407236	0.1635	0.534	0.276	0	166	304	3
2026-02-12	14:55:08.010	55.3	13.965	15.47	1.189988	-0.005368	0.418948	0.162	0.5355	0.279	0	165	323	3
2026-02-12	14:55:08.030	61.705	23.52	21.98	1.173396	-0.040992	0.447496	0.165	0.543	0.2835	0	165	323	3
2026-02-12	14:55:08.050	74.305	34.72	27.65	1.132892	-0.057828	0.475556	0.165	0.5475	0.282	0	165	323	3
2026-02-12	14:55:08.070	84.35	48.195	33.95	1.109468	-0.061488	0.457012	0.153	0.5505	0.276	0	165	323	3
2026-02-12	14:55:08.090	86.485	61.845	40.25	1.1407	-0.000488	0.392108	0.15	0.558	0.2745	0	165	323	3
2026-02-12	14:55:08.110	73.01	76.16	46.095	1.13582	0.038064	0.305	0.156	0.5625	0.2745	0	165	323	3
2026-02-12	14:55:08.130	50.225	87.71	52.08	1.115568	0.0305	0.238144	0.156	0.5685	0.27	0	165	323	3
2026-02-12	14:55:08.150	31.78	93.695	56.14	1.182668	0.059048	0.24034	0.1455	0.585	0.261	0	165	323	3
2026-02-12	14:55:08.170	4.655	99.505	58.065	1.220244	0.117364	0.222528	0.135	0.5955	0.249	0	165	323	3
2026-02-12	14:55:08.190	-58.905	105	66.605	1.056032	0.057584	0.152988	0.132	0.6	0.237	0	165	323	3
2026-02-12	14:55:08.210	-87.92	99.785	72.87	0.963556	-0.03782	0.134444	0.1245	0.6045	0.222	0	164	344	3
2026-02-12	14:55:08.230	-103.53	92.75	78.365	0.896456	-0.09028	0.141276	0.111	0.609	0.1995	0	164	344	3
2026-02-12	14:55:08.250	-109.27	84.63	82.74	0.870104	-0.136152	0.163724	0.1095	0.6135	0.183	0	164	344	3
2026-02-12	14:55:08.270	-103.985	77.105	86.555	0.85278	-0.17812	0.183732	0.105	0.621	0.168	0	164	344	3
2026-02-12	14:55:08.290	-88.725	69.895	88.585	0.817888	-0.188124	0.167872	0.0975	0.6375	0.153	0	164	344	3
2026-02-12	14:55:08.310	-67.935	61.67	87.15	0.811788	-0.196664	0.14518	0.0945	0.6525	0.141	0	164	344	3
2026-02-12	14:55:08.330	-43.575	53.06	82.005	0.827892	-0.20374	0.126636	0.0915	0.6555	0.1365	0	164	344	3
2026-02-12	14:55:08.350	-17.99	45.675	74.165	0.804712	-0.197396	0.104432	0.093	0.6615	0.135	0	164	344	3
2026-02-12	14:55:08.370	5.425	38.115	64.925	0.777628	-0.181048	0.09467199	0.1035	0.6795	0.135	0	164	344	3
2026-02-12	14:55:08.390	26.74	30.45	54.04	0.772748	-0.157624	0.102724	0.087	0.6825	0.12	0	164	344	3
2026-02-12	14:55:08.410	46.48	20.09	36.085	0.805444	-0.128588	0.11956	0.087	0.6825	0.12	0	165	335	3
2026-02-12	14:55:08.430	54.075	12.985	22.785	0.872788	-0.132004	0.129076	0.09	0.693	0.1155	0	165	335	3
2026-02-12	14:55:08.450	61.18	6.405	10.115	0.93208	-0.138836	0.142252	0.0915	0.708	0.1095	0	165	335	3
2026-02-12	14:55:08.470	70.175	0.175	-0.245	0.9943	-0.139568	0.171288	0.096	0.711	0.108	0	165	335	3
2026-02-12	14:55:08.490	78.75	-4.83	-7.84	1.032364	-0.104188	0.182024	0.1005	0.7095	0.1065	0	165	335	3
2026-02-12	14:55:08.510	81.585	-10.395	-14.525	1.073112	-0.061732	0.187148	0.096	0.7065	0.1005	0	165	335	3
2026-02-12	14:55:08.530	80.08	-17.325	-22.54	1.172176	-0.03172	0.210816	0.0945	0.705	0.099	0	165	335	3
2026-02-12	14:55:08.550	74.795	-23.135	-31.01	1.202676	-0.007564	0.252784	0.0945	0.7065	0.102	0	165	335	3
2026-02-12	14:55:08.570	65.275	-27.02	-36.575	1.108004	0.017324	0.294996	0.0915	0.7005	0.105	0	165	335	3
2026-02-12	14:55:08.590	53.2	-32.2	-40.705	1.0431	0.033916	0.320128	0.093	0.69	0.108	0	165	335	3
2026-02-12	14:55:08.610	31.605	-35.875	-42.42	0.913292	0.05734	0.321592	0.0855	0.681	0.111	0	168	304	3
2026-02-12	14:55:08.630	1.715	-43.26	-41.755	0.891576	0.065636	0.264984	0.0855	0.681	0.111	0	168	304	3
2026-02-12	14:55:08.650	-21.28	-52.64	-44.065	0.97478	0.032696	0.238144	0.0915	0.678	0.12	0	168	304	3
2026-02-12	14:55:08.670	-30.38	-60.305	-47.985	1.0187	-0.007076	0.279624	0.099	0.6705	0.1305	0	168	304	3
2026-02-12	14:55:08.690	-27.51	-65.485	-49.98	1.037488	-0.029036	0.321104	0.096	0.6615	0.1335	0	168	304	3
2026-02-12	14:55:08.710	-17.36	-67.2	-51.66	1.033828	-0.037088	0.332816	0.0945	0.6555	0.147	0	168	304	3
2026-02-12	14:55:08.730	-7.35	-67.69	-53.305	1.029192	-0.041724	0.323056	0.0945	0.6465	0.156	0	168	304	3
2026-02-12	14:55:08.750	-0.945	-67.235	-53.83	1.009672	-0.03538	0.313052	0.096	0.6405	0.162	0	168	304	3
2026-02-12	14:55:08.770	2.52	-66.465	-51.87	0.968192	-0.028548	0.307684	0.099	0.6405	0.168	0	168	304	3
2026-02-12	14:55:08.790	0.7	-65.17	-47.915	0.913048	-0.027572	0.295972	0.099	0.627	0.1695	0	168	304	3
2026-02-12	14:55:08.810	-3.465	-63.77	-43.715	0.859124	-0.022692	0.294752	0.1005	0.621	0.1935	0	170	283	3
2026-02-12	14:55:08.830	-10.01	-61.775	-40.46	0.83082	-0.026352	0.29402	0.096	0.6165	0.1875	0	170	283	3
2026-02-12	14:55:08.850	-17.325	-59.01	-39.41	0.843752	-0.035136	0.292556	0.102	0.6105	0.1965	0	170	283	3
2026-02-12	14:55:08.870	-23.695	-56.14	-39.585	0.86132	-0.043676	0.27572	0.1095	0.606	0.2115	0	170	283	3
2026-02-12	14:55:08.890	-30.03	-54.04	-40.18	0.874008	-0.055876	0.259616	0.114	0.603	0.2175	0	170	283	3
2026-02-12	14:55:08.910	-34.58	-53.34	-41.51	0.92598	-0.068808	0.26108	0.111	0.597	0.222	0	170	283	3
2026-02-12	14:55:08.930	-36.715	-52.885	-43.26	0.977464	-0.071492	0.305732	0.1125	0.591	0.2265	0	170	283	3
2026-02-12	14:55:08.950	-38.22	-51.205	-44.205	0.99796	-0.063684	0.359412	0.1215	0.582	0.234	0	170	283	3
2026-02-12	14:55:08.970	-39.095	-47.32	-42.875	0.969656	-0.049044	0.400404	0.123	0.5805	0.24	0	170	283	3
2026-02-12	14:55:08.990	-41.16	-42.315	-38.955	0.910608	-0.04148	0.39284	0.126	0.564	0.2445	0	170	283	3
2026-02-12	14:55:09.010	-45.185	-38.465	-32.095	0.87718	-0.058316	0.370636	0.1335	0.5655	0.243	0	170	280	3
2026-02-12	14:55:09.030	-42.315	-35.98	-25.095	0.886208	-0.069052	0.392352	0.1335	0.5625	0.246	0	170	280	3
2026-02-12	14:55:09.050	-21.28	-32.795	-15.89	0.964288	-0.06954	0.460672	0.138	0.5535	0.2505	0	170	280	3
2026-02-12	14:55:09.070	-4.2	-28.21	-10.745	1.032608	-0.048068	0.476532	0.1395	0.5505	0.252	0	170	280	3
2026-02-12	14:55:09.090	12.25	-22.54	-6.895	1.104344	-0.044652	0.474336	0.138	0.5475	0.252	0	170	280	3
2026-02-12	14:55:09.110	26.04	-16.275	-2.485	1.158024	-0.041968	0.468968	0.144	0.546	0.255	0	170	280	3
2026-02-12	14:55:09.130	35.525	-10.955	1.89	1.218292	-0.033184	0.45628	0.1485	0.549	0.264	0	170	280	3
2026-02-12	14:55:09.150	40.39	-5.495	5.775	1.270264	-0.008052	0.455304	0.1485	0.552	0.2625	0	170	280	3
2026-02-12	14:55:09.170	38.92	1.155	10.29	1.28222	0.012444	0.456036	0.1455	0.552	0.261	0	170	280	3
2026-02-12	14:55:09.190	39.62	8.12	14.525	1.28344	-0.023424	0.457012	0.1395	0.555	0.267	0	170	280	3
2026-02-12	14:55:09.210	55.58	15.645	18.865	1.295152	-0.064172	0.460672	0.1395	0.564	0.2745	0	168	299	3
2026-02-12	14:55:09.230	71.575	24.815	23.31	1.251964	-0.049776	0.475556	0.138	0.573	0.273	0	168	299	3
2026-02-12	14:55:09.250	80.745	39.48	31.395	1.131672	-0.051728	0.394304	0.129	0.5775	0.267	0	168	299	3
2026-02-12	14:55:09.270	87.78	50.015	39.83	1.089216	-0.067832	0.277428	0.129	0.5775	0.267	0	168	299	3
2026-02-12	14:55:09.290	95.165	55.37	44.835	1.081164	-0.060268	0.254492	0.1275	0.591	0.264	0	168	299	3
2026-02-12	14:55:09.310	98.595	60.655	49.035	1.035536	-0.064416	0.259616	0.1215	0.606	0.2565	0	168	299	3
2026-02-12	14:55:09.330	101.43	63.945	51.52	1.037	-0.055632	0.257176	0.117	0.615	0.2505	0	168	299	3
2026-02-12	14:55:09.350	102.48	66.15	50.855	1.111664	-0.041968	0.258396	0.1095	0.63	0.243	0	168	299	3
2026-02-12	14:55:09.370	96.39	70.28	48.86	1.148752	-0.015372	0.261568	0.105	0.6375	0.237	0	168	299	3
2026-02-12	14:55:09.390	79.59	75.39	48.02	1.099952	-0.019276	0.243756	0.102	0.651	0.231	0	168	299	3
2026-02-12	14:55:09.410	59.43	78.435	48.09	1.026508	-0.046848	0.220332	0.0975	0.663	0.225	0	166	320	3
2026-02-12	14:55:09.430	41.3	79.415	48.755	0.965996	-0.060756	0.20374	0.0945	0.666	0.216	0	166	320	3
2026-02-12	14:55:09.450	26.53	78.96	49.28	0.956236	-0.07124799	0.194224	0.0975	0.684	0.204	0	166	320	3
2026-02-12	14:55:09.470	11.725	79.31	50.33	0.95404	-0.079788	0.170068	0.087	0.6825	0.189	0	166	320	3
2026-02-12	14:55:09.490	-1.855	78.295	52.045	0.917196	-0.066612	0.143472	0.0885	0.69	0.177	0	166	320	3
2026-02-12	14:55:09.510	-15.75	75.46	53.2	0.90158	-0.07808	0.13542	0.0855	0.702	0.162	0	166	320	3
2026-02-12	14:55:09.530	-28.245	73.535	54.04	0.870104	-0.094916	0.119804	0.084	0.714	0.15	0	166	320	3
2026-02-12	14:55:09.550	-38.115	70.49	55.23	0.839848	-0.103944	0.099552	0.0885	0.7185	0.1395	0	166	320	3
2026-02-12	14:55:09.570	-45.08	65.485	55.72	0.855708	-0.112484	0.082228	0.09	0.726	0.132	0	166	320	3
2026-02-12	14:55:09.590	-47.775	60.13	55.265	0.894504	-0.11956	0.085156	0.0945	0.735	0.1185	0	166	320	3
2026-02-12	14:55:09.610	-46.305	54.145	53.445	0.914268	-0.121756	0.087352	0.096	0.744	0.111	0	165	315	3
2026-02-12	14:55:09.630	-41.23	46.445	49.42	0.946476	-0.127612	0.098332	0.0945	0.75	0.1095	0	165	315	3
2026-02-12	14:55:09.650	-31.885	37.905	43.715	1.006012	-0.127856	0.135908	0.0975	0.7485	0.105	0	165	315	3
2026-02-12	14:55:09.670	-20.23	30.695	36.505	1.058472	-0.122	0.163968	0.1005	0.7635	0.105	0	165	315	3
2026-02-12	14:55:09.690	-8.575	21.175	27.09	1.040172	-0.108092	0.180316	0.1005	0.7635	0.105	0	165	315	3
2026-02-12	14:55:09.710	-0.14	12.18	19.6	1.04554	-0.092232	0.183488	0.1005	0.771	0.0945	0	165	315	3
2026-02-12	14:55:09.730	8.715	1.33	8.33	1.114348	-0.082228	0.209352	0.102	0.7785	0.0855	0	165	315	3
2026-02-12	14:55:09.750	17.36	-7.035	-4.06	1.149484	-0.063928	0.24034	0.102	0.7785	0.087	0	165	315	3
2026-02-12	14:55:09.770	22.47	-13.615	-15.05	1.13338	-0.041968	0.265228	0.105	0.78	0.0855	0	165	315	3
2026-02-12	14:55:09.790	23.8	-17.92	-24.78	1.061644	-0.02684	0.275476	0.108	0.7815	0.09	0	165	315	3
2026-02-12	14:55:09.810	19.705	-21.805	-31.885	0.982344	-0.004148	0.262056	0.105	0.774	0.0915	0	164	288	3
2026-02-12	14:55:09.830	7.525	-27.755	-37.205	0.929396	0.014396	0.239608	0.105	0.768	0.09	0	164	288	3
2026-02-12	14:55:09.850	-9.135	-35.21	-41.79	0.916952	0.008784	0.223016	0.093	0.771	0.0945	0	164	288	3
2026-02-12	14:55:09.870	-20.545	-42.315	-45.71	0.939644	0.005124	0.265472	0.093	0.7635	0.093	0	164	288	3
2026-02-12	14:55:09.890	-22.05	-45.045	-49.175	0.920124	0.023668	0.33306	0.09	0.762	0.1065	0	164	288	3
2026-02-12	14:55:09.910	-22.47	-46.41	-52.535	0.926956	0.050996	0.346968	0.09	0.762	0.1065	0	164	288	3
2026-02-12	14:55:09.930	-25.795	-47.005	-57.47	0.945988	0.045628	0.34526	0.09	0.747	0.111	0	164	288	3
2026-02-12	14:55:09.950	-31.15	-47.845	-62.16	0.973316	0.03904	0.333792	0.096	0.7275	0.1215	0	164	288	3
2026-02-12	14:55:09.970	-39.83	-48.16	-65.695	0.956724	0.0427	0.316468	0.093	0.7215	0.1305	0	164	288	3
2026-02-12	14:55:09.990	-52.535	-47.88	-68.25	0.904996	0.03782	0.295484	0.087	0.714	0.1395	0	164	288	3
2026-02-12	14:55:10.010	-68.25	-47.215	-71.68	0.84424	0.042456	0.2806	0.087	0.708	0.1425	0	162	268	3
2026-02-12	14:55:10.030	-79.38	-46.865	-73.955	0.8113	0.031964	0.261568	0.084	0.6975	0.1515	0	162	268	3
2026-02-12	14:55:10.050	-95.795	-47.25	-76.58	0.78934	-0.005612	0.233996	0.0825	0.687	0.162	0	162	268	3
2026-02-12	14:55:10.070	-110.915	-50.015	-79.52	0.8052	-0.04392	0.214232	0.09	0.681	0.1605	0	162	268	3
2026-02-12	14:55:10.090	-121.73	-53.585	-82.775	0.83326	-0.083936	0.205204	0.09	0.675	0.171	0	162	268	3
2026-02-12	14:55:10.110	-121.625	-57.085	-87.29	0.905728	-0.1464	0.232776	0.0915	0.66	0.177	0	162	268	3
2026-02-12	14:55:10.130	-109.795	-57.295	-90.055	0.923784	-0.201056	0.260836	0.0975	0.6435	0.1815	0	162	268	3
2026-02-12	14:55:10.150	-91.245	-57.435	-89.005	0.931592	-0.232532	0.280112	0.0975	0.6195	0.189	0	162	268	3
2026-02-12	14:55:10.170	-64.855	-58.415	-86.24	0.94428	-0.231068	0.318908	0.1005	0.606	0.1965	0	162	268	3
2026-02-12	14:55:10.190	-36.19	-58.94	-81.375	0.97356	-0.210572	0.358436	0.108	0.5895	0.201	0	162	268	3
2026-02-12	14:55:10.210	-5.915	-58.31	-74.515	1.004792	-0.187148	0.385764	0.111	0.579	0.2025	0	160	265	3
2026-02-12	14:55:10.230	21.07	-58.31	-65.625	1.06994	-0.161284	0.392352	0.1125	0.57	0.2055	0	160	265	3
2026-02-12	14:55:10.250	42.63	-58.555	-56.84	1.1651	-0.141764	0.419436	0.1155	0.5595	0.216	0	160	265	3
2026-02-12	14:55:10.270	58.275	-56.595	-47.88	1.249524	-0.12932	0.444812	0.12	0.558	0.225	0	160	265	3
2026-02-12	14:55:10.290	70.7	-52.71	-38.045	1.331508	-0.11956	0.465064	0.123	0.5625	0.237	0	160	265	3
2026-02-12	14:55:10.310	78.96	-45.57	-26.495	1.372744	-0.099552	0.48556	0.126	0.5565	0.246	0	160	265	3
2026-02-12	14:55:10.330	78.505	-29.925	-7.98	1.2871	0.001464	0.497028	0.132	0.558	0.255	0	160	265	3
2026-02-12	14:55:10.350	62.755	-19.285	3.71	1.203652	0.051484	0.47702	0.129	0.5565	0.258	0	160	265	3
2026-02-12	14:55:10.370	42.63	-9.73	13.93	1.142164	0.074176	0.47214	0.126	0.5565	0.2655	0	160	265	3
2026-02-12	14:55:10.390	26.635	-1.05	22.54	1.10166	0.058804	0.481412	0.132	0.561	0.2685	0	160	265	3
2026-02-12	14:55:10.410	19.39	9.205	29.085	1.048224	0.03416	0.49654	0.1335	0.57	0.27	0	160	282	3
2026-02-12	14:55:10.430	13.335	20.72	34.72	0.99552	-0.00732	0.462624	0.129	0.5775	0.273	0	160	282	3
2026-02-12	14:55:10.450	14	30.765	39.97	1.032608	-0.07808	0.412116	0.129	0.5835	0.276	0	160	282	3
2026-02-12	14:55:10.470	26.005	40.95	45.43	1.071892	-0.121512	0.384056	0.123	0.585	0.27	0	160	282	3
2026-02-12	14:55:10.490	48.335	52.85	50.96	1.070916	-0.115412	0.352824	0.1155	0.585	0.264	0	160	282	3
2026-02-12	14:55:10.510	70.21	64.085	56.28	1.059204	-0.082228	0.30622	0.1275	0.6	0.267	0	160	282	3
2026-02-12	14:55:10.530	90.125	74.655	60.235	1.066768	-0.051484	0.265228	0.117	0.6165	0.255	0	160	282	3
2026-02-12	14:55:10.550	104.44	82.53	61.005	1.104832	-0.021472	0.257176	0.117	0.6165	0.255	0	160	282	3
2026-02-12	14:55:10.570	108.01	88.62	59.745	1.147776	0.00854	0.268888	0.108	0.6345	0.243	0	160	282	3
2026-02-12	14:55:10.590	100.1	96.495	59.36	1.120204	0.040504	0.277184	0.0945	0.654	0.2235	0	160	282	3
2026-02-12	14:55:10.610	81.795	103.67	60.55	1.063108	0.044896	0.254248	0.0885	0.6615	0.2115	0	161	309	3
2026-02-12	14:55:10.630	60.445	107.73	61.88	1.02114	0.038308	0.227164	0.0885	0.6735	0.1995	0	161	309	3
2026-02-12	14:55:10.650	38.605	109.025	63.035	1.00284	0.026352	0.22204	0.09	0.6855	0.186	0	161	309	3
2026-02-12	14:55:10.670	15.96	108.115	64.26	0.996984	0.030012	0.220088	0.09	0.6975	0.171	0	161	309	3
2026-02-12	14:55:10.690	-9.695	105.77	65.905	0.983076	0.01708	0.201788	0.084	0.7065	0.153	0	161	309	3
2026-02-12	14:55:10.710	-33.705	101.5	67.2	0.998936	-0.012932	0.192028	0.078	0.7095	0.144	0	161	309	3
2026-02-12	14:55:10.730	-51.94	95.865	67.76	0.999424	-0.040992	0.170312	0.0825	0.72	0.132	0	161	309	3
2026-02-12	14:55:10.750	-65.135	88.165	66.605	0.968924	-0.071492	0.14518	0.093	0.7335	0.12	0	161	309	3
2026-02-12	14:55:10.770	-67.9	79.275	63.595	0.938912	-0.100284	0.130784	0.0915	0.7395	0.1095	0	161	309	3
2026-02-12	14:55:10.790	-61.18	71.75	59.815	0.908168	-0.113216	0.125904	0.093	0.7515	0.0915	0	161	309	3
2026-02-12	14:55:10.810	-48.965	62.545	54.005	0.91256	-0.123708	0.126636	0.096	0.759	0.081	0	162	314	3
2026-02-12	14:55:10.830	-32.165	53.34	46.41	0.930372	-0.134444	0.142008	0.0945	0.768	0.0795	0	162	314	3
2026-02-12	14:55:10.850	-14	44.905	38.57	0.927444	-0.131028	0.14518	0.096	0.7785	0.075	0	162	314	3
2026-02-12	14:55:10.870	1.085	35.56	30.87	0.936716	-0.106384	0.137372	0.1035	0.7905	0.0645	0	162	314	3
2026-02-12	14:55:10.890	7.875	23.73	21.735	0.95892	-0.071004	0.130052	0.105	0.795	0.06	0	162	314	3
2026-02-12	14:55:10.910	9.135	8.82	8.925	1.031144	-0.064904	0.144936	0.1005	0.795	0.0615	0	162	314	3
2026-02-12	14:55:10.930	9.345	-6.265	-6.405	1.083116	-0.068564	0.172752	0.1125	0.7935	0.06	0	162	314	3
2026-02-12	14:55:10.950	9.03	-20.09	-21.91	1.12362	-0.07686	0.212524	0.1155	0.798	0.057	0	162	314	3
2026-02-12	14:55:10.970	11.165	-34.93	-43.715	1.122644	-0.069784	0.286212	0.099	0.7935	0.063	0	162	314	3
2026-02-12	14:55:10.990	16.065	-39.13	-54.88	1.040172	-0.064172	0.336232	0.0975	0.7875	0.069	0	162	314	3
2026-02-12	14:55:11.010	24.5	-37.94	-59.71	0.927444	-0.044408	0.369904	0.099	0.777	0.078	0	162	295	3
2026-02-12	14:55:11.030	29.47	-36.295	-60.34	0.85766	0.00244	0.367952	0.0975	0.768	0.0795	0	162	295	3
2026-02-12	14:55:11.050	28.105	-35.56	-60.62	0.84912	0.04636	0.364536	0.0915	0.762	0.078	0	162	295	3
2026-02-12	14:55:11.070	19.425	-34.72	-59.99	0.846436	0.08052	0.350872	0.084	0.7545	0.081	0	162	295	3
2026-02-12	14:55:11.090	3.57	-34.44	-58.38	0.86254	0.10004	0.302316	0.078	0.7455	0.0885	0	162	295	3
2026-02-12	14:55:11.110	-16.03	-35.42	-56.805	0.88816	0.107604	0.250588	0.084	0.744	0.096	0	162	295	3
2026-02-12	14:55:11.130	-36.295	-37.94	-56.945	0.935496	0.097844	0.202764	0.0915	0.7455	0.0975	0	162	295	3
2026-02-12	14:55:11.150	-54.005	-40.95	-58.38	0.9699	0.063684	0.184952	0.078	0.726	0.0975	0	162	295	3
2026-02-12	14:55:11.170	-72.17	-44.17	-61.005	0.994788	0.025132	0.217892	0.0795	0.7155	0.1095	0	162	295	3
2026-02-12	14:55:11.190	-82.6	-46.795	-64.505	0.978684	-0.020008	0.28426	0.0795	0.7155	0.1095	0	162	295	3
2026-02-12	14:55:11.210	-84.805	-47.075	-67.34	0.949892	-0.050996	0.326472	0.078	0.7035	0.1155	0	161	279	3
2026-02-12	14:55:11.230	-86.975	-46.165	-68.845	0.913292	-0.072468	0.32452	0.0795	0.6915	0.1305	0	161	279	3
2026-02-12	14:55:11.250	-89.285	-46.515	-69.965	0.88694	-0.092232	0.295972	0.081	0.6825	0.135	0	161	279	3
2026-02-12	14:55:11.270	-88.165	-49.63	-71.925	0.890112	-0.10858	0.285236	0.081	0.6675	0.138	0	161	279	3
2026-02-12	14:55:11.290	-80.955	-53.34	-74.585	0.892308	-0.119316	0.300364	0.0825	0.6585	0.15	0	161	279	3
2026-02-12	14:55:11.310	-69.895	-56.77	-76.685	0.888648	-0.11102	0.316468	0.081	0.648	0.1575	0	161	279	3
2026-02-12	14:55:11.330	-58.38	-60.06	-78.225	0.878644	-0.105408	0.3233	0.081	0.6345	0.162	0	161	279	3
2026-02-12	14:55:11.350	-48.58	-63.735	-79.135	0.886208	-0.1037	0.331596	0.084	0.6285	0.1635	0	161	279	3
2026-02-12	14:55:11.370	-38.885	-67.06	-79.555	0.903288	-0.108336	0.35258	0.084	0.618	0.1845	0	161	279	3
2026-02-12	14:55:11.390	-24.78	-69.72	-79.765	0.941108	-0.108336	0.3843	0.0945	0.6105	0.183	0	161	279	3
2026-02-12	14:55:11.410	-7.805	-72.065	-79.835	1.029192	-0.12688	0.410164	0.0975	0.591	0.1935	0	160	278	3
2026-02-12	14:55:11.430	9.8	-72.59	-78.855	1.113372	-0.137616	0.441396	0.0975	0.5715	0.204	0	160	278	3
2026-02-12	14:55:11.450	30.905	-70.63	-75.285	1.172908	-0.151524	0.485316	0.1035	0.564	0.2115	0	160	278	3
2026-02-12	14:55:11.470	51.1	-65.03	-67.585	1.189744	-0.142984	0.530944	0.1095	0.555	0.222	0	160	278	3
2026-02-12	14:55:11.490	65.205	-56.735	-54.88	1.164612	-0.120536	0.550464	0.1125	0.5475	0.2325	0	160	278	3
2026-02-12	14:55:11.510	68.075	-47.11	-38.08	1.157292	-0.065392	0.547048	0.1185	0.546	0.2475	0	160	278	3
2026-02-12	14:55:11.530	64.505	-37.31	-21.455	1.187548	0.00244	0.567056	0.12	0.5505	0.2565	0	160	278	3
2026-02-12	14:55:11.550	55.09	-27.125	-5.985	1.208776	0.056852	0.592188	0.123	0.5535	0.264	0	160	278	3
2026-02-12	14:55:11.570	40.67	-16.1	9.17	1.179252	0.08052	0.608292	0.1245	0.555	0.27	0	160	278	3
2026-02-12	14:55:11.590	28.245	-2.905	22.05	1.119716	0.062708	0.612684	0.1335	0.549	0.276	0	160	278	3
2026-02-12	14:55:11.610	17.78	18.585	35.49	1.072136	0.020984	0.537288	0.1245	0.546	0.2745	0	159	303	3
2026-02-12	14:55:11.630	12.425	32.585	43.085	1.11142	-0.02806	0.467992	0.1215	0.5535	0.2715	0	159	303	3
2026-02-12	14:55:11.650	12.46	46.2	51.52	1.117032	-0.060756	0.404064	0.117	0.567	0.27	0	159	303	3
2026-02-12	14:55:11.670	21.315	58.625	60.095	1.098	-0.0915	0.337208	0.1155	0.5745	0.267	0	159	303	3
2026-02-12	14:55:11.690	40.95	67.76	66.955	1.088484	-0.088084	0.294508	0.111	0.5805	0.258	0	159	303	3
2026-02-12	14:55:11.710	62.475	74.55	71.75	1.083116	-0.066368	0.272792	0.105	0.591	0.252	0	159	303	3
2026-02-12	14:55:11.730	79.73	80.64	73.815	1.081408	-0.04148	0.284992	0.102	0.603	0.2415	0	159	303	3
2026-02-12	14:55:11.750	92.295	86.135	73.99	1.117764	-0.017812	0.303048	0.099	0.6165	0.234	0	159	303	3
2026-02-12	14:55:11.770	98.49	91.805	73.535	1.17242	0.016836	0.319396	0.096	0.6225	0.237	0	159	303	3
2026-02-12	14:55:11.790	90.86	98.945	74.095	1.168028	0.0488	0.325252	0.0915	0.636	0.2145	0	159	303	3
2026-02-12	14:55:11.810	63.665	107.52	77.91	1.085068	0.049776	0.296948	0.09	0.654	0.2145	0	159	336	3
2026-02-12	14:55:11.830	33.565	112.175	83.37	1.015528	0.037088	0.263764	0.09	0.654	0.2145	0	159	336	3
2026-02-12	14:55:11.850	12.25	112	87.36	1.010648	0.04148	0.249368	0.084	0.669	0.1845	0	159	336	3
2026-02-12	14:55:11.870	-9.275	110.04	90.23	1.0065	0.028792	0.220576	0.078	0.693	0.1515	0	159	336	3
2026-02-12	14:55:11.890	-29.645	106.155	92.785	0.991372	-0.013908	0.186416	0.078	0.705	0.1395	0	159	336	3
2026-02-12	14:55:11.910	-42.28	100.94	94.22	0.965508	-0.040992	0.153964	0.081	0.7155	0.1245	0	159	336	3
2026-02-12	14:55:11.930	-46.445	94.605	93.485	0.959164	-0.060512	0.128588	0.078	0.7275	0.111	0	159	336	3
2026-02-12	14:55:11.950	-46.305	87.815	91.14	0.939156	-0.074908	0.122244	0.081	0.741	0.099	0	159	336	3
2026-02-12	14:55:11.970	-41.51	80.15	86.94	0.918416	-0.082472	0.133224	0.087	0.753	0.0915	0	159	336	3
2026-02-12	14:55:11.990	-31.29	72.1	80.5	0.911828	-0.085888	0.157624	0.0855	0.7575	0.0885	0	159	336	3
2026-02-12	14:55:12.010	-15.575	62.125	69.965	0.915488	-0.0732	0.174704	0.0855	0.7575	0.0885	0	159	341	3
2026-02-12	14:55:12.030	-6.65	53.445	59.885	0.923052	-0.060512	0.185684	0.1005	0.7755	0.0645	0	159	341	3
2026-02-12	14:55:12.050	-1.225	42.175	48.02	0.904996	-0.058072	0.172996	0.102	0.7845	0.057	0	159	341	3
2026-02-12	14:55:12.070	-1.085	30.345	38.99	0.878644	-0.041968	0.16226	0.105	0.7995	0.0495	0	159	341	3
2026-02-12	14:55:12.090	-2.87	15.12	27.755	0.864736	-0.01708	0.177144	0.111	0.807	0.051	0	159	341	3
2026-02-12	14:55:12.110	-4.515	-3.745	12.67	0.904752	-0.012932	0.202032	0.117	0.8115	0.051	0	159	341	3
2026-02-12	14:55:12.130	-1.61	-23.275	-6.37	0.947696	-0.027328	0.261568	0.1155	0.8145	0.0465	0	159	341	3
2026-02-12	14:55:12.150	6.755	-40.95	-26.285	0.985028	-0.038308	0.325496	0.1125	0.816	0.0495	0	159	341	3
2026-02-12	14:55:12.170	18.69	-54.81	-45.85	1.029924	-0.032452	0.380396	0.1125	0.813	0.057	0	159	341	3
2026-02-12	14:55:12.190	28.42	-64.82	-64.47	1.028948	-0.009516	0.401868	0.105	0.7995	0.0675	0	159	341	3
2026-02-12	14:55:12.210	32.095	-71.12	-78.4	0.973072	-0.002928	0.404796	0.099	0.792	0.075	0	160	322	3
2026-02-12	14:55:12.230	30.975	-72.975	-85.925	0.879864	0.029524	0.387716	0.096	0.7905	0.078	0	160	322	3
2026-02-12	14:55:12.250	17.99	-77.175	-90.86	0.872056	0.070272	0.322324	0.096	0.777	0.084	0	160	322	3
2026-02-12	14:55:12.270	11.9	-79.66	-95.095	0.950868	0.080764	0.310856	0.0915	0.765	0.0945	0	160	322	3
2026-02-12	14:55:12.290	5.46	-79.45	-97.265	0.999668	0.093208	0.299388	0.0825	0.7425	0.111	0	160	322	3
2026-02-12	14:55:12.310	-4.06	-78.645	-97.615	1.046516	0.089548	0.27084	0.0795	0.732	0.12	0	160	322	3
2026-02-12	14:55:12.330	-14.735	-77.42	-98	1.095804	0.071004	0.239608	0.078	0.7215	0.1305	0	160	322	3
2026-02-12	14:55:12.350	-26.845	-74.585	-97.65	1.114836	0.054168	0.238876	0.078	0.7035	0.138	0	160	322	3
2026-02-12	14:55:12.370	-41.79	-69.93	-96.145	1.098	0.044652	0.263764	0.081	0.6885	0.15	0	160	322	3
2026-02-12	14:55:12.390	-60.27	-63.63	-93.17	1.045784	0.027084	0.285968	0.0795	0.6765	0.1605	0	160	322	3
2026-02-12	14:55:12.410	-80.045	-57.435	-88.48	0.98698	-0.006344	0.288652	0.084	0.6615	0.168	0	159	306	3
2026-02-12	14:55:12.430	-97.055	-52.29	-82.39	0.931836	-0.038796	0.275232	0.0885	0.6555	0.174	0	159	306	3
2026-02-12	14:55:12.450	-111.44	-47.705	-74.34	0.87596	-0.06222	0.261812	0.078	0.642	0.1785	0	159	306	3
2026-02-12	14:55:12.470	-117.53	-44.975	-67.025	0.840824	-0.094184	0.255224	0.078	0.642	0.1785	0	159	306	3
2026-02-12	14:55:12.490	-116.515	-44.975	-62.055	0.857416	-0.11468	0.235948	0.0825	0.624	0.186	0	159	306	3
2026-02-12	14:55:12.510	-110.81	-45.99	-58.52	0.890356	-0.1403	0.248636	0.093	0.597	0.192	0	159	306	3
2026-02-12	14:55:12.530	-98.455	-46.515	-56.84	0.917928	-0.160796	0.272304	0.099	0.5865	0.192	0	159	306	3
2026-02-12	14:55:12.550	-81.97	-46.795	-55.055	0.918416	-0.182024	0.29646	0.1005	0.582	0.1965	0	159	306	3
2026-02-12	14:55:12.570	-62.51	-47.845	-52.745	0.931836	-0.160064	0.330376	0.1065	0.576	0.201	0	159	306	3
2026-02-12	14:55:12.590	-42.56	-48.86	-50.26	0.958432	-0.155428	0.366976	0.114	0.5625	0.207	0	159	306	3
2026-02-12	14:55:12.610	-20.51	-49.49	-46.935	1.010404	-0.13786	0.401868	0.114	0.5535	0.2085	0	157	299	3
2026-02-12	14:55:12.630	1.19	-48.79	-41.79	1.064816	-0.125416	0.445544	0.1125	0.5505	0.207	0	157	299	3
2026-02-12	14:55:12.650	22.575	-46.655	-35.525	1.119228	-0.099308	0.474092	0.1245	0.5415	0.216	0	157	299	3
2026-02-12	14:55:12.670	46.305	-43.085	-26.775	1.22366	-0.07198	0.498004	0.12	0.5325	0.228	0	157	299	3
2026-02-12	14:55:12.690	64.015	-36.54	-16.765	1.304912	-0.040016	0.527528	0.12	0.5355	0.2295	0	157	299	3
2026-02-12	14:55:12.710	67.27	-27.37	-5.67	1.25294	0.019276	0.532652	0.129	0.5415	0.24	0	157	299	3
2026-02-12	14:55:12.730	59.5	-17.605	6.125	1.169736	0.074908	0.521916	0.1365	0.5415	0.2505	0	157	299	3
2026-02-12	14:55:12.750	46.305	-7.98	15.995	1.100684	0.105652	0.519232	0.138	0.543	0.252	0	157	299	3
2026-02-12	14:55:12.770	33.39	1.295	24.255	1.076284	0.095892	0.507032	0.135	0.546	0.255	0	157	299	3
2026-02-12	14:55:12.790	29.785	10.185	30.17	1.111664	0.060512	0.507032	0.1305	0.5505	0.258	0	157	299	3
2026-02-12	14:55:12.810	28.525	20.265	33.845	1.138504	0.069296	0.507032	0.1335	0.555	0.255	0	157	313	3
2026-02-12	14:55:12.830	17.885	33.215	37.66	1.138748	0.03172	0.451156	0.1305	0.5595	0.255	0	157	313	3
2026-02-12	14:55:12.850	11.76	45.325	40.915	1.159732	-0.035136	0.365756	0.1275	0.5655	0.2565	0	157	313	3
2026-02-12	14:55:12.870	15.26	56.14	44.135	1.129232	-0.07564	0.294996	0.126	0.564	0.255	0	157	313	3
2026-02-12	14:55:12.890	32.305	65.45	49.14	1.082872	-0.08662	0.258152	0.1215	0.573	0.252	0	157	313	3
2026-02-12	14:55:12.910	48.58	69.58	50.295	1.106784	-0.076372	0.288652	0.1185	0.5805	0.2445	0	157	313	3
2026-02-12	14:55:12.930	64.225	75.32	50.925	1.137772	-0.035136	0.3294	0.1095	0.5895	0.228	0	157	313	3
2026-02-12	14:55:12.950	66.64	82.18	53.13	1.121912	0.004392	0.326228	0.1005	0.5955	0.2175	0	157	313	3
2026-02-12	14:55:12.970	57.19	88.725	57.435	1.079944	-0.012932	0.280112	0.099	0.6075	0.213	0	157	313	3
2026-02-12	14:55:12.990	47.005	93.905	63.245	0.997228	-0.04392	0.229848	0.099	0.6165	0.2025	0	157	313	3
2026-02-12	14:55:13.010	40.355	95.9	69.125	0.92354	-0.02562	0.211304	0.0975	0.63	0.192	0	157	335	3
2026-02-12	14:55:13.030	28.84	95.795	74.585	0.888648	0.01708	0.2196	0.093	0.645	0.1815	0	157	335	3
2026-02-12	14:55:13.050	12.18	94.71	77.245	0.905972	0.022936	0.225944	0.09	0.654	0.168	0	157	335	3
2026-02-12	14:55:13.070	-9.66	92.54	78.365	0.924272	-0.0122	0.202764	0.09	0.6585	0.1605	0	157	335	3
2026-02-12	14:55:13.090	-31.395	86.94	79.345	0.941108	-0.062708	0.16226	0.087	0.657	0.153	0	157	335	3
2026-02-12	14:55:13.110	-45.99	74.2	76.44	0.918172	-0.107116	0.13054	0.087	0.657	0.153	0	157	335	3
2026-02-12	14:55:13.130	-41.16	63.665	70.665	0.917196	-0.111508	0.142252	0.0885	0.675	0.138	0	157	335	3
2026-02-12	14:55:13.150	-30.205	56.455	62.79	0.910852	-0.10736	0.158844	0.0915	0.696	0.117	0	157	335	3
2026-02-12	14:55:13.170	-21	51.8	54.74	0.864492	-0.115656	0.142984	0.0885	0.708	0.1065	0	157	335	3
2026-02-12	14:55:13.190	-12.95	44.485	46.515	0.862296	-0.124928	0.134688	0.087	0.717	0.105	0	157	335	3
2026-02-12	14:55:13.210	-2.66	35.21	36.785	0.890844	-0.128588	0.152744	0.093	0.726	0.105	0	157	332	2
2026-02-12	14:55:13.230	10.395	26.145	28.035	0.929396	-0.122244	0.183	0.0915	0.732	0.0975	0	157	332	2
2026-02-12	14:55:13.250	24.605	17.22	19.88	0.976976	-0.086376	0.202276	0.0885	0.7335	0.093	0	157	332	2
2026-02-12	14:55:13.270	31.57	9.66	13.475	1.00894	-0.06222	0.186416	0.0915	0.7365	0.093	0	157	332	2
2026-02-12	14:55:13.290	33.18	0.21	7.42	1.0614	-0.047336	0.171044	0.099	0.726	0.0885	0	157	332	2
2026-02-12	14:55:13.310	33.74	-12.915	-3.64	1.163392	-0.020008	0.222772	0.099	0.738	0.0855	0	157	332	2
2026-02-12	14:55:13.330	33.565	-22.4	-17.15	1.188524	0.012932	0.298412	0.0975	0.7395	0.084	0	157	332	2
2026-02-12	14:55:13.350	28.735	-29.365	-29.575	1.185596	0.037088	0.311588	0.102	0.735	0.093	0	157	332	2
2026-02-12	14:55:13.370	16.8	-34.965	-41.16	1.120204	0.030256	0.31842	0.1005	0.7275	0.0975	0	157	332	2
2026-02-12	14:55:13.390	2.45	-37.625	-48.545	0.984784	0.023668	0.321104	0.096	0.726	0.0975	0	157	332	2
2026-02-12	14:55:13.410	-11.06	-39.725	-51.485	0.872788	0.022936	0.314516	0.093	0.72	0.102	0	158	310	3
2026-02-12	14:55:13.430	-20.93	-41.615	-52.85	0.832284	0.041724	0.32452	0.0855	0.714	0.1095	0	158	310	3
2026-02-12	14:55:13.450	-29.085	-43.05	-53.69	0.817888	0.053924	0.32574	0.0855	0.705	0.117	0	158	310	3
2026-02-12	14:55:13.470	-36.015	-45.08	-54.075	0.825452	0.049532	0.314272	0.0915	0.699	0.12	0	158	310	3
2026-02-12	14:55:13.490	-39.235	-46.935	-55.02	0.836676	0.025864	0.287676	0.093	0.7005	0.123	0	158	310	3
2026-02-12	14:55:13.510	-38.535	-49.245	-57.925	0.872788	0.014884	0.251076	0.09	0.693	0.138	0	158	310	3
2026-02-12	14:55:13.530	-41.545	-52.325	-65.1	0.924272	-0.007808	0.233752	0.0855	0.6765	0.1455	0	158	310	3
2026-02-12	14:55:13.550	-45.815	-52.885	-70.49	0.922808	-0.034648	0.243268	0.087	0.6675	0.1485	0	158	310	3
2026-02-12	14:55:13.570	-49.105	-53.34	-75.11	0.922808	-0.058072	0.247172	0.0915	0.651	0.159	0	158	310	3
2026-02-12	14:55:13.590	-51.275	-53.34	-77.875	0.898408	-0.072712	0.256932	0.0975	0.6435	0.1665	0	158	310	3
2026-02-12	14:55:13.610	-53.305	-53.865	-78.015	0.870592	-0.091256	0.25864	0.0975	0.636	0.168	0	159	293	3
2026-02-12	14:55:13.630	-52.465	-55.615	-76.545	0.851316	-0.108092	0.257664	0.0975	0.6225	0.1725	0	159	293	3
2026-02-12	14:55:13.650	-46.305	-57.82	-74.62	0.865956	-0.110288	0.280112	0.1005	0.6105	0.183	0	159	293	3
2026-02-12	14:55:13.670	-36.4	-59.815	-72.695	0.883524	-0.086132	0.313784	0.1005	0.603	0.186	0	159	293	3
2026-02-12	14:55:13.690	-28.42	-61.215	-70.42	0.911828	-0.089548	0.333792	0.1065	0.5955	0.189	0	159	293	3
2026-02-12	14:55:13.710	-20.545	-62.195	-67.48	0.935252	-0.10614	0.348432	0.114	0.594	0.195	0	159	293	3
2026-02-12	14:55:13.730	-9.17	-61.705	-63.7	0.945744	-0.122	0.381616	0.111	0.576	0.207	0	159	293	3
2026-02-12	14:55:13.750	12.075	-57.19	-55.405	0.943304	-0.113704	0.437736	0.111	0.576	0.207	0	159	293	3
2026-02-12	14:55:13.770	28	-51.415	-47.985	0.94916	-0.084912	0.469944	0.1155	0.5685	0.2145	0	159	293	3
2026-02-12	14:55:13.790	40.67	-45.465	-39.515	0.965996	-0.048556	0.472384	0.1275	0.555	0.2295	0	159	293	3
2026-02-12	14:55:13.810	44.065	-40.075	-30.415	0.990884	-0.01952	0.44896	0.1335	0.5445	0.2385	0	158	291	3
2026-02-12	14:55:13.830	42.14	-35.14	-21.49	1.046028	-0.0061	0.424804	0.138	0.546	0.2445	0	158	291	3
2026-02-12	14:55:13.850	39.305	-30.31	-13.405	1.109712	0.003416	0.421388	0.1425	0.552	0.252	0	158	291	3
2026-02-12	14:55:13.870	38.85	-24.745	-6.58	1.163636	0.020984	0.434564	0.141	0.552	0.255	0	158	291	3
2026-02-12	14:55:13.890	35.42	-19.565	-0.7	1.230492	0.029524	0.435784	0.141	0.549	0.252	0	158	291	3
2026-02-12	14:55:13.910	29.365	-13.335	4.48	1.276364	0.02196	0.466528	0.1455	0.546	0.258	0	158	291	3
2026-02-12	14:55:13.930	22.855	-4.025	10.395	1.23342	0.001708	0.485804	0.15	0.546	0.267	0	158	291	3
2026-02-12	14:55:13.950	22.435	6.09	18.165	1.201212	-0.016348	0.502396	0.144	0.561	0.273	0	158	291	3
2026-02-12	14:55:13.970	27.65	16.24	25.025	1.189988	-0.01098	0.523868	0.1395	0.558	0.27	0	158	291	3
2026-02-12	14:55:13.990	31.255	25.9	30.66	1.199016	-0.02318	0.520696	0.1365	0.5595	0.2685	0	158	291	3
2026-02-12	14:55:14.010	34.405	37.66	36.435	1.176812	-0.033184	0.494344	0.132	0.5685	0.2655	0	157	312	3
2026-02-12	14:55:14.030	37.275	50.4	42.77	1.132404	-0.047336	0.424804	0.129	0.576	0.2595	0	157	312	3
2026-02-12	14:55:14.050	40.04	61.075	49.525	1.115568	-0.061244	0.332816	0.126	0.582	0.2535	0	157	312	3
2026-02-12	14:55:14.070	43.085	69.055	56.735	1.117032	-0.07905599	0.264008	0.1185	0.594	0.246	0	157	312	3
2026-02-12	14:55:14.090	48.86	74.27	63.805	1.11386	-0.092476	0.218624	0.117	0.609	0.2415	0	157	312	3
2026-02-12	14:55:14.110	61.46	76.51	69.37	1.138992	-0.094916	0.20374	0.1125	0.6165	0.2385	0	157	312	3
2026-02-12	14:55:14.130	76.475	78.575	73.325	1.164124	-0.080276	0.192516	0.108	0.6165	0.2355	0	157	312	3
2026-02-12	14:55:14.150	88.795	80.85	76.335	1.17852	-0.058804	0.198616	0.099	0.6405	0.228	0	157	312	3
2026-02-12	14:55:14.170	95.34	85.505	80.325	1.108492	-0.028792	0.199592	0.105	0.6435	0.21	0	157	312	3
2026-02-12	14:55:14.190	92.645	87.535	82.11	1.027972	-0.013176	0.205204	0.0945	0.6555	0.204	0	157	312	3
2026-02-12	14:55:14.210	85.295	87.85	81.9	0.962092	0.002928	0.214232	0.087	0.6765	0.189	0	157	331	3
2026-02-12	14:55:14.230	70.7	87.15	80.29	0.938668	0.005856	0.220088	0.0885	0.69	0.1725	0	157	331	3
2026-02-12	14:55:14.250	49.525	85.68	79.66	0.91622	-0.011468	0.205936	0.087	0.705	0.1575	0	157	331	3
2026-02-12	14:55:14.270	26.53	82.215	79.345	0.8845	-0.022448	0.189588	0.0885	0.7125	0.144	0	157	331	3
2026-02-12	14:55:14.290	8.855	77.035	76.125	0.896212	-0.047824	0.154696	0.0885	0.723	0.135	0	157	331	3
2026-02-12	14:55:14.310	-1.365	71.155	70.56	0.917928	-0.050996	0.141276	0.09	0.738	0.1245	0	157	331	3
2026-02-12	14:55:14.330	-11.83	66.36	64.155	0.908168	-0.061244	0.123708	0.093	0.7485	0.1095	0	157	331	3
2026-02-12	14:55:14.350	-21	61.005	57.015	0.88572	-0.077592	0.099308	0.096	0.756	0.1035	0	157	331	3
2026-02-12	14:55:14.370	-26.075	54.53	49.77	0.848876	-0.099796	0.086132	0.0885	0.7605	0.1035	0	157	331	3
2026-02-12	14:55:14.390	-23.38	43.19	39.9	0.80886	-0.111996	0.092476	0.0885	0.7605	0.1035	0	157	331	3
2026-02-12	14:55:14.410	-16.275	34.02	33.075	0.84058	-0.101748	0.122732	0.0885	0.7665	0.0885	0	158	322	3
2026-02-12	14:55:14.430	-7.665	24.78	25.305	0.902312	-0.091256	0.159088	0.096	0.7785	0.075	0	158	322	3
2026-02-12	14:55:14.450	1.645	15.89	17.185	0.950136	-0.088328	0.182024	0.102	0.786	0.072	0	158	322	3
2026-02-12	14:55:14.470	9.555	6.615	8.75	0.976	-0.072468	0.181536	0.0975	0.7875	0.0705	0	158	322	3
2026-02-12	14:55:14.490	11.165	-4.095	-0.21	0.989176	-0.05124	0.172996	0.099	0.7875	0.066	0	158	322	3
2026-02-12	14:55:14.510	8.75	-17.92	-12.005	1.064816	-0.050752	0.176168	0.0975	0.786	0.0645	0	158	322	3
2026-02-12	14:55:14.530	9.135	-31.955	-26.355	1.150704	-0.054168	0.226676	0.0945	0.7845	0.0675	0	158	322	3
2026-02-12	14:55:14.550	12.32	-41.755	-39.9	1.172664	-0.0488	0.27816	0.0975	0.789	0.075	0	158	322	3
2026-02-12	14:55:14.570	15.855	-49.385	-51.52	1.158756	-0.033428	0.301584	0.102	0.7935	0.081	0	158	322	3
2026-02-12	14:55:14.590	17.29	-54.74	-62.72	1.067744	-0.012688	0.330376	0.096	0.7725	0.0795	0	158	322	3
2026-02-12	14:55:14.610	13.37	-54.635	-68.495	0.918416	0.02318	0.346968	0.0945	0.7635	0.09	0	159	294	3
2026-02-12	14:55:14.630	-2.275	-53.655	-68.11	0.819108	0.048068	0.284992	0.0885	0.753	0.1035	0	159	294	3
2026-02-12	14:55:14.650	-27.02	-57.645	-67.235	0.83326	0.060756	0.216428	0.0825	0.7455	0.1095	0	159	294	3
2026-02-12	14:55:14.670	-51.555	-63.42	-67.795	0.89426	0.043188	0.187392	0.078	0.732	0.1155	0	159	294	3
2026-02-12	14:55:14.690	-61.915	-67.97	-67.9	0.937936	0.003172	0.204716	0.078	0.7245	0.126	0	159	294	3
2026-02-12	14:55:14.710	-60.865	-72.17	-66.85	0.976976	-0.012444	0.246928	0.081	0.7185	0.1395	0	159	294	3
2026-02-12	14:55:14.730	-53.27	-74.34	-65.94	1.046272	-0.04758	0.293044	0.078	0.7065	0.1455	0	159	294	3
2026-02-12	14:55:14.750	-42.735	-73.325	-65.205	1.06628	-0.0671	0.32818	0.075	0.696	0.153	0	159	294	3
2026-02-12	14:55:14.770	-31.57	-70.525	-63.455	1.037488	-0.082472	0.340868	0.0795	0.6855	0.1635	0	159	294	3
2026-02-12	14:55:14.790	-20.545	-67.9	-61.215	0.992592	-0.084912	0.33428	0.0825	0.6795	0.168	0	159	294	3
2026-02-12	14:55:14.810	-7.105	-64.575	-56.945	0.906948	-0.066856	0.336964	0.075	0.6735	0.1785	0	160	275	3
2026-02-12	14:55:14.830	-1.96	-62.615	-53.025	0.864004	-0.049044	0.339404	0.078	0.666	0.186	0	160	275	3
2026-02-12	14:55:14.850	-2.52	-60.165	-49.14	0.853024	-0.023912	0.337452	0.0855	0.6525	0.201	0	160	275	3
2026-02-12	14:55:14.870	-8.75	-57.015	-45.99	0.853756	-0.012444	0.344772	0.084	0.6495	0.2145	0	160	275	3
2026-02-12	14:55:14.890	-17.255	-53.27	-43.75	0.865956	0.003172	0.35136	0.0795	0.6465	0.2205	0	160	275	3
2026-02-12	14:55:14.910	-29.645	-50.225	-42.105	0.884256	0.005124	0.34404	0.087	0.6345	0.2235	0	160	275	3
2026-02-12	14:55:14.930	-40.145	-48.265	-41.02	0.919392	-0.010736	0.371368	0.093	0.6255	0.228	0	160	275	3
2026-02-12	14:55:14.950	-43.82	-45.605	-39.97	0.930616	-0.021716	0.4148	0.093	0.6195	0.234	0	160	275	3
2026-02-12	14:55:14.970	-45.5	-42.245	-37.59	0.927688	-0.02928	0.43798	0.096	0.6135	0.2445	0	160	275	3
2026-02-12	14:55:14.990	-42.07	-38.78	-34.37	0.942328	-0.057828	0.460916	0.099	0.6105	0.2505	0	160	275	3
2026-02-12	14:55:15.010	-27.44	-34.79	-31.045	0.992836	-0.075396	0.507032	0.111	0.603	0.249	0	159	278	3
2026-02-12	14:55:15.030	1.295	-26.285	-23.135	1.070916	-0.071004	0.510448	0.111	0.603	0.249	0	159	278	3
2026-02-12	14:55:15.050	17.815	-20.475	-16.24	1.139968	-0.061732	0.479216	0.1125	0.5985	0.255	0	159	278	3
2026-02-12	14:55:15.070	31.185	-14.595	-8.82	1.199504	-0.049044	0.460428	0.1095	0.5925	0.264	0	159	278	3
2026-02-12	14:55:15.090	42.105	-7.7	-1.4	1.214144	-0.029036	0.462868	0.1095	0.5895	0.264	0	159	278	3
2026-02-12	14:55:15.110	50.68	-0.49	6.475	1.217316	0.010004	0.477996	0.1095	0.5895	0.267	0	159	278	3
2026-02-12	14:55:15.130	55.615	6.545	12.355	1.26758	0.070272	0.518988	0.102	0.591	0.273	0	159	278	3
2026-02-12	14:55:15.150	45.675	16.45	17.745	1.230736	0.10004	0.530944	0.105	0.5925	0.27	0	159	278	3
2026-02-12	14:55:15.170	25.235	26.81	24.15	1.161196	0.067588	0.503616	0.108	0.6	0.264	0	159	278	3
2026-02-12	14:55:15.190	12.53	36.435	30.24	1.090436	0.022448	0.461892	0.108	0.606	0.264	0	159	278	3
2026-02-12	14:55:15.210	6.895	44.345	36.575	1.057984	0.018544	0.442128	0.108	0.606	0.264	0	159	307	3
2026-02-12	14:55:15.230	-9.695	54.6	46.235	1.048956	0.02806	0.422364	0.1035	0.6135	0.2565	0	159	307	3
2026-02-12	14:55:15.250	-21.77	63.735	56.35	1.111664	-0.041236	0.374052	0.0975	0.612	0.249	0	159	307	3
2026-02-12	14:55:15.270	-15.19	71.715	63.595	1.164124	-0.06588	0.319884	0.09	0.618	0.2355	0	159	307	3
2026-02-12	14:55:15.290	-7.525	80.325	71.085	1.16022	-0.092232	0.253516	0.087	0.633	0.2235	0	159	307	3
2026-02-12	14:55:15.310	0.63	85.015	76.72	1.171688	-0.11224	0.208132	0.0795	0.642	0.2115	0	159	307	3
2026-02-12	14:55:15.330	14.945	85.785	79.205	1.214876	-0.124196	0.224236	0.075	0.6465	0.198	0	159	307	3
2026-02-12	14:55:15.350	34.16	87.22	79.485	1.252452	-0.104676	0.268156	0.072	0.66	0.1905	0	159	307	3
2026-02-12	14:55:15.370	43.715	91.14	80.395	1.185108	-0.061	0.29524	0.069	0.675	0.1785	0	159	307	3
2026-02-12	14:55:15.390	42.945	95.2	81.935	1.084092	-0.044408	0.298168	0.0705	0.6885	0.162	0	159	307	3
2026-02-12	14:55:15.410	36.4	97.755	83.72	1.004304	-0.03416	0.280356	0.069	0.699	0.1425	0	159	334	3
2026-02-12	14:55:15.430	25.34	99.33	86.17	0.95038	-0.015372	0.262544	0.0705	0.702	0.1335	0	159	334	3
2026-02-12	14:55:15.450	4.13	98.595	91.07	0.92476	-0.014884	0.224968	0.072	0.705	0.126	0	159	334	3
2026-02-12	14:55:15.470	-9.135	95.655	92.96	0.924516	-0.01708	0.187148	0.0735	0.7185	0.1095	0	159	334	3
2026-02-12	14:55:15.490	-21.07	92.015	92.96	0.907192	-0.02928	0.155672	0.0735	0.7425	0.0885	0	159	334	3
2026-02-12	14:55:15.510	-29.225	87.325	90.58	0.864004	-0.041968	0.130296	0.0735	0.756	0.072	0	159	334	3
2026-02-12	14:55:15.530	-34.58	80.57	86.1	0.821548	-0.057584	0.113216	0.081	0.7695	0.06	0	159	334	3
2026-02-12	14:55:15.550	-36.61	72.17	79.1	0.781288	-0.07076	0.122488	0.0885	0.7815	0.0555	0	159	334	3
2026-02-12	14:55:15.570	-34.125	62.825	69.405	0.768112	-0.080276	0.1342	0.0915	0.7935	0.0465	0	159	334	3
2026-02-12	14:55:15.590	-29.645	52.885	57.19	0.764208	-0.0854	0.139812	0.0945	0.804	0.039	0	159	334	3
2026-02-12	14:55:15.610	-26.04	41.475	43.33	0.750788	-0.091988	0.130784	0.096	0.81	0.033	0	159	332	2
2026-02-12	14:55:15.630	-23.38	27.965	28.175	0.74176	-0.09638	0.12688	0.0975	0.819	0.0255	0	159	332	2
2026-02-12	14:55:15.650	-19.215	12.88	11.795	0.758352	-0.106384	0.139568	0.0975	0.8235	0.024	0	159	332	2
2026-02-12	14:55:15.670	-11.305	-11.2	-12.04	0.77836	-0.0976	0.158356	0.0975	0.8235	0.024	0	159	332	2
2026-02-12	14:55:15.690	-8.925	-29.225	-27.615	0.80764	-0.083936	0.183244	0.099	0.8235	0.027	0	159	332	2
