yyyy-MM-dd	HH:mm:ss.fff	gyrX	gyrY	gyrZ	accX	accY	accZ	magX	magY	magZ	Marker	Energy	Angle	Classification
2026-02-19	12:54:07.810	-38.675	-16.73	-9.695	0.993568	0.106384	0.311588	-0.5775	0.408	0.129	0	1029	356	5
2026-02-19	12:54:07.830	-41.86	-18.62	-0.385	0.988444	0.095404	0.298412	-0.576	0.417	0.138	0	1029	356	5
2026-02-19	12:54:07.850	-38.5	-20.02	9.52	0.958432	0.083204	0.27572	-0.576	0.423	0.144	0	1029	356	5
2026-02-19	12:54:07.870	-26.075	-23.695	22.33	0.885232	0.072468	0.238144	-0.576	0.423	0.144	0	1029	356	5
2026-02-19	12:54:07.890	-14.315	-27.72	28.42	0.874008	0.08686399	0.234484	-0.5835	0.4275	0.144	0	1029	356	5
2026-02-19	12:54:07.910	-4.55	-33.285	34.895	0.849364	0.105652	0.248392	-0.5925	0.4335	0.1455	0	1029	356	5
2026-02-19	12:54:07.930	2.94	-39.97	40.53	0.860832	0.132004	0.271816	-0.597	0.4365	0.1485	0	1029	356	5
2026-02-19	12:54:07.950	3.255	-46.655	47.11	0.902556	0.155428	0.290848	-0.6	0.441	0.1485	0	1029	356	5
2026-02-19	12:54:07.970	-3.15	-51.66	54.67	0.947208	0.174948	0.310612	-0.606	0.444	0.153	0	1029	356	5
2026-02-19	12:54:07.990	-13.44	-53.655	62.09	0.9882	0.190808	0.321592	-0.612	0.447	0.162	0	1029	356	5
2026-02-19	12:54:08.010	-29.75	-53.41	68.145	1.0309	0.204228	0.339892	-0.615	0.4515	0.168	0	939	341	5
2026-02-19	12:54:08.030	-40.04	-50.575	67.585	1.027484	0.19154	0.327448	-0.6225	0.462	0.1665	0	939	341	5
2026-02-19	12:54:08.050	-48.86	-46.27	62.755	1.010648	0.178364	0.3172	-0.6345	0.474	0.1755	0	939	341	5
2026-02-19	12:54:08.070	-52.57	-41.825	56.175	1.031632	0.157136	0.308904	-0.642	0.486	0.186	0	939	341	5
2026-02-19	12:54:08.090	-50.54	-35.77	47.88	1.020164	0.125172	0.293776	-0.648	0.5025	0.186	0	939	341	5
2026-02-19	12:54:08.110	-43.085	-29.295	36.82	1.012112	0.109312	0.270108	-0.6495	0.513	0.189	0	939	341	5
2026-02-19	12:54:08.130	-30.45	-22.645	25.41	0.99796	0.090524	0.234484	-0.648	0.522	0.1965	0	939	341	5
2026-02-19	12:54:08.150	1.54	-9.835	3.43	1.025776	0.061488	0.1769	-0.651	0.5265	0.2055	0	939	341	5
2026-02-19	12:54:08.170	29.61	-4.76	1.82	1.000888	0.073932	0.164456	-0.66	0.5265	0.204	0	939	341	5
2026-02-19	12:54:08.190	56.84	-0.245	-6.02	0.998204	0.076372	0.167872	-0.6615	0.5235	0.1995	0	939	341	5
2026-02-19	12:54:08.210	83.65	2.135	-12.18	1.00162	0.088816	0.17812	-0.66	0.5175	0.2025	0	840	325	5
2026-02-19	12:54:08.230	106.54	4.06	-16.345	1.003816	0.118828	0.184952	-0.663	0.5085	0.1995	0	840	325	5
2026-02-19	12:54:08.250	122.115	3.535	-17.885	0.996496	0.13786	0.197152	-0.6555	0.4935	0.1995	0	840	325	5
2026-02-19	12:54:08.270	130.34	4.06	-18.83	0.982344	0.176168	0.223992	-0.654	0.48	0.198	0	840	325	5
2026-02-19	12:54:08.290	127.645	4.27	-18.375	0.978928	0.200324	0.245952	-0.6585	0.465	0.1935	0	840	325	5
2026-02-19	12:54:08.310	114.38	4.13	-15.925	0.97356	0.209108	0.265472	-0.66	0.4545	0.189	0	840	325	5
2026-02-19	12:54:08.330	95.795	4.76	-12.635	0.973804	0.210572	0.2684	-0.6615	0.441	0.1875	0	840	325	5
2026-02-19	12:54:08.350	72.87	4.76	-8.225	0.96136	0.194956	0.255712	-0.657	0.426	0.192	0	840	325	5
2026-02-19	12:54:08.370	54.005	3.745	-3.675	0.9577	0.179828	0.233264	-0.6555	0.4185	0.1935	0	840	325	5
2026-02-19	12:54:08.390	40.635	1.995	0	0.961604	0.179584	0.226188	-0.66	0.4125	0.1905	0	840	325	5
2026-02-19	12:54:08.410	31.325	-2.065	3.92	0.995764	0.156648	0.241804	-0.66	0.408	0.192	0	741	306	2
2026-02-19	12:54:08.430	24.255	-6.37	8.4	1.052372	0.152744	0.30256	-0.6585	0.4065	0.195	0	741	306	2
2026-02-19	12:54:08.450	18.515	-7.875	8.54	1.046272	0.15372	0.313296	-0.66	0.402	0.1965	0	741	306	2
2026-02-19	12:54:08.470	9.975	-9.59	7.35	1.020652	0.165676	0.296216	-0.6615	0.3945	0.198	0	741	306	2
2026-02-19	12:54:08.490	-1.75	-10.43	5.845	1.000888	0.160552	0.297924	-0.6675	0.3945	0.198	0	741	306	2
2026-02-19	12:54:08.510	-15.33	-10.605	5.32	0.991128	0.151036	0.31232	-0.6705	0.402	0.201	0	741	306	2
2026-02-19	12:54:08.530	-26.425	-8.995	5.285	0.97234	0.14884	0.306464	-0.669	0.408	0.201	0	741	306	2
2026-02-19	12:54:08.550	-34.615	-6.93	6.79	0.962092	0.14518	0.299144	-0.669	0.408	0.1965	0	741	306	2
2026-02-19	12:54:08.570	-39.06	-5.04	10.745	0.9821	0.124928	0.291336	-0.672	0.411	0.198	0	741	306	2
2026-02-19	12:54:08.590	-37.135	-0.91	15.75	1.012112	0.120536	0.322324	-0.6765	0.4155	0.2025	0	741	306	2
2026-02-19	12:54:08.610	-33.04	5.95	20.37	1.014796	0.108092	0.336964	-0.672	0.417	0.204	0	647	293	2
2026-02-19	12:54:08.630	-24.605	12.6	22.295	1.014552	0.110288	0.308416	-0.6675	0.4215	0.201	0	647	293	2
2026-02-19	12:54:08.650	-12.18	17.745	21.945	1.011868	0.112728	0.277184	-0.666	0.432	0.1965	0	647	293	2
2026-02-19	12:54:08.670	0.49	21.035	20.16	1.0309	0.116388	0.275964	-0.6645	0.438	0.195	0	647	293	2
2026-02-19	12:54:08.690	9.555	24.15	17.675	1.078968	0.116632	0.318908	-0.6675	0.4365	0.192	0	647	293	2
2026-02-19	12:54:08.710	19.6	31.885	10.185	1.081164	0.115656	0.336964	-0.672	0.4365	0.1875	0	647	293	2
2026-02-19	12:54:08.730	24.255	37.695	4.48	1.096048	0.135176	0.333792	-0.672	0.4365	0.1875	0	647	293	2
2026-02-19	12:54:08.750	24.745	44.975	0.245	1.056032	0.132736	0.319152	-0.657	0.4335	0.1815	0	647	293	2
2026-02-19	12:54:08.770	23.87	47.845	-4.725	1.041636	0.118096	0.299632	-0.651	0.429	0.1815	0	647	293	2
2026-02-19	12:54:08.790	29.295	51.66	-11.69	1.028216	0.122732	0.276208	-0.645	0.4275	0.174	0	647	293	2
2026-02-19	12:54:06.810	-41.3	-159.32	395.885	1.070184	0.827648	0.088084	-0.168	0.243	0.144	0	1167	319	5
2026-02-19	12:54:06.830	-39.305	-178.535	387.485	1.450336	0.766404	0.337696	-0.2205	0.234	0.1335	0	1167	319	5
2026-02-19	12:54:06.850	-40.285	-178.78	358.89	1.656272	0.911096	0.554368	-0.2715	0.2355	0.1275	0	1167	319	5
2026-02-19	12:54:06.870	-5.635	-165.41	329.315	1.653832	1.489864	0.71248	-0.3255	0.243	0.126	0	1167	319	5
2026-02-19	12:54:06.890	60.445	-152.985	275.695	1.732644	1.909056	0.820572	-0.3735	0.2445	0.123	0	1167	319	5
2026-02-19	12:54:06.910	142.87	-141.47	233.45	1.53964	1.298568	0.6283	-0.4185	0.2385	0.129	0	1167	319	5
2026-02-19	12:54:06.930	174.51	-132.615	220.01	1.452776	0.912316	0.26474	-0.4425	0.2355	0.1395	0	1167	319	5
2026-02-19	12:54:06.950	173.845	-101.71	188.3	1.489864	1.269288	0.524356	-0.4755	0.2265	0.159	0	1167	319	5
2026-02-19	12:54:06.970	126.42	-57.82	161.175	1.341024	1.497672	0.959896	-0.513	0.2205	0.177	0	1167	319	5
2026-02-19	12:54:06.990	9.205	-11.83	144.585	1.083116	1.347612	0.870348	-0.54	0.2055	0.198	0	1167	319	5
2026-02-19	12:54:07.010	-155.54	21.35	138.705	0.890112	0.934276	0.518744	-0.5505	0.2055	0.201	0	1179	311	5
2026-02-19	12:54:07.030	-231.315	22.505	146.125	0.780556	0.460428	0.342332	-0.5595	0.2325	0.1845	0	1179	311	5
2026-02-19	12:54:07.050	-170.24	5.67	159.775	0.753472	0.151036	0.34038	-0.576	0.282	0.1635	0	1179	311	5
2026-02-19	12:54:07.070	-62.09	-9.415	170.52	0.837408	0.082228	0.377468	-0.5865	0.315	0.1605	0	1179	311	5
2026-02-19	12:54:07.090	48.615	-17.045	175.7	0.901824	0.208864	0.427488	-0.6015	0.336	0.162	0	1179	311	5
2026-02-19	12:54:07.110	124.04	-22.085	175.77	0.931104	0.376004	0.435296	-0.6135	0.3555	0.1635	0	1179	311	5
2026-02-19	12:54:07.130	154.35	-31.29	174.02	1.036756	0.465308	0.486048	-0.6225	0.3645	0.168	0	1179	311	5
2026-02-19	12:54:07.150	131.915	-34.93	170.345	1.127036	0.515328	0.556808	-0.6315	0.363	0.174	0	1179	311	5
2026-02-19	12:54:07.170	62.3	-30.275	162.12	1.133868	0.593408	0.597556	-0.642	0.369	0.186	0	1179	311	5
2026-02-19	12:54:07.190	-33.215	-27.405	147.805	1.11142	0.61	0.51484	-0.654	0.3765	0.198	0	1179	311	5
2026-02-19	12:54:07.210	-139.58	-24.185	124.705	1.050176	0.59292	0.436516	-0.663	0.3945	0.201	0	1178	334	5
2026-02-19	12:54:07.230	-233.065	-26.53	100.765	0.993812	0.488244	0.331596	-0.6705	0.411	0.2025	0	1178	334	5
2026-02-19	12:54:07.250	-285.705	-27.615	74.445	0.96868	0.372344	0.288408	-0.666	0.444	0.2025	0	1178	334	5
2026-02-19	12:54:07.270	-276.36	-24.22	49.665	0.937936	0.244732	0.272304	-0.666	0.4815	0.2115	0	1178	334	5
2026-02-19	12:54:07.290	-202.965	-14.7	28	0.945988	0.066612	0.274744	-0.672	0.5115	0.216	0	1178	334	5
2026-02-19	12:54:07.310	-107.345	1.68	11.69	0.989664	-0.020984	0.29158	-0.672	0.5115	0.216	0	1178	334	5
2026-02-19	12:54:07.330	-28.91	16.03	-3.395	0.995764	0.019032	0.283528	-0.675	0.54	0.228	0	1178	334	5
2026-02-19	12:54:07.350	33.11	24.955	-15.26	1.03212	0.103456	0.33916	-0.6765	0.5715	0.2355	0	1178	334	5
2026-02-19	12:54:07.370	66.78	29.715	-24.64	1.085068	0.109068	0.407236	-0.672	0.573	0.231	0	1178	334	5
2026-02-19	12:54:07.390	78.715	37.59	-30.905	1.13582	0.138836	0.413824	-0.666	0.564	0.2265	0	1178	334	5
2026-02-19	12:54:07.410	84.42	47.635	-41.755	1.1163	0.188124	0.32452	-0.6645	0.5445	0.2205	0	1153	359	5
2026-02-19	12:54:07.430	81.935	52.885	-51.31	1.076772	0.192028	0.249856	-0.6615	0.5325	0.2115	0	1153	359	5
2026-02-19	12:54:07.450	75.775	55.755	-58.695	1.02602	0.18666	0.25132	-0.6555	0.522	0.2025	0	1153	359	5
2026-02-19	12:54:07.470	66.605	56.175	-66.29	0.987224	0.153964	0.319884	-0.651	0.5085	0.1905	0	1153	359	5
2026-02-19	12:54:07.490	55.09	54.635	-74.2	0.980636	0.144692	0.363316	-0.645	0.495	0.18	0	1153	359	5
2026-02-19	12:54:07.510	44.695	51.31	-80.745	0.964044	0.142984	0.348188	-0.6375	0.477	0.171	0	1153	359	5
2026-02-19	12:54:07.530	30.87	46.305	-85.75	0.959408	0.163724	0.325008	-0.6315	0.4605	0.1695	0	1153	359	5
2026-02-19	12:54:07.550	10.115	41.51	-89.075	0.960628	0.164212	0.33184	-0.6315	0.45	0.1755	0	1153	359	5
2026-02-19	12:54:07.570	-14.315	37.17	-92.435	0.938424	0.142496	0.325984	-0.6165	0.4515	0.156	0	1153	359	5
2026-02-19	12:54:07.590	-30.17	33.705	-91.84	0.942572	0.109556	0.303292	-0.6165	0.4515	0.156	0	1153	359	5
2026-02-19	12:54:07.610	-32.165	33.04	-88.655	0.926224	0.090036	0.249124	-0.6045	0.4365	0.1515	0	1102	365	5
2026-02-19	12:54:07.630	-28.455	29.47	-82.145	0.931592	0.081984	0.207644	-0.5925	0.4245	0.147	0	1102	365	5
2026-02-19	12:54:07.650	-20.055	23.45	-71.75	0.947452	0.074664	0.220332	-0.585	0.426	0.141	0	1102	365	5
2026-02-19	12:54:07.670	-10.71	18.34	-60.13	0.946964	0.076616	0.26352	-0.5805	0.42	0.1335	0	1102	365	5
2026-02-19	12:54:07.690	-5.915	13.615	-49.98	0.952332	0.108092	0.29768	-0.579	0.4125	0.1335	0	1102	365	5
2026-02-19	12:54:07.710	-5.67	8.085	-40.95	0.93452	0.122732	0.309636	-0.5775	0.411	0.135	0	1102	365	5
2026-02-19	12:54:07.730	-7.91	3.255	-33.565	0.905728	0.124196	0.310856	-0.576	0.4095	0.135	0	1102	365	5
2026-02-19	12:54:07.750	-12.985	-2.1	-27.825	0.913536	0.118828	0.310612	-0.573	0.4065	0.132	0	1102	365	5
2026-02-19	12:54:07.770	-22.19	-8.05	-22.68	0.955748	0.132736	0.316712	-0.57	0.4035	0.132	0	1102	365	5
2026-02-19	12:54:07.790	-30.8	-13.055	-17.29	0.982832	0.124196	0.315492	-0.573	0.405	0.1305	0	1102	365	5
2026-02-19	12:54:07.810	-38.675	-16.73	-9.695	0.993568	0.106384	0.311588	-0.5775	0.408	0.129	0	1029	356	5
2026-02-19	12:54:07.830	-41.86	-18.62	-0.385	0.988444	0.095404	0.298412	-0.576	0.417	0.138	0	1029	356	5
2026-02-19	12:54:07.850	-38.5	-20.02	9.52	0.958432	0.083204	0.27572	-0.576	0.423	0.144	0	1029	356	5
2026-02-19	12:54:07.870	-26.075	-23.695	22.33	0.885232	0.072468	0.238144	-0.576	0.423	0.144	0	1029	356	5
2026-02-19	12:54:07.890	-14.315	-27.72	28.42	0.874008	0.08686399	0.234484	-0.5835	0.4275	0.144	0	1029	356	5
2026-02-19	12:54:07.910	-4.55	-33.285	34.895	0.849364	0.105652	0.248392	-0.5925	0.4335	0.1455	0	1029	356	5
2026-02-19	12:54:07.930	2.94	-39.97	40.53	0.860832	0.132004	0.271816	-0.597	0.4365	0.1485	0	1029	356	5
2026-02-19	12:54:07.950	3.255	-46.655	47.11	0.902556	0.155428	0.290848	-0.6	0.441	0.1485	0	1029	356	5
2026-02-19	12:54:07.970	-3.15	-51.66	54.67	0.947208	0.174948	0.310612	-0.606	0.444	0.153	0	1029	356	5
2026-02-19	12:54:07.990	-13.44	-53.655	62.09	0.9882	0.190808	0.321592	-0.612	0.447	0.162	0	1029	356	5
2026-02-19	12:54:08.010	-29.75	-53.41	68.145	1.0309	0.204228	0.339892	-0.615	0.4515	0.168	0	939	341	5
2026-02-19	12:54:08.030	-40.04	-50.575	67.585	1.027484	0.19154	0.327448	-0.6225	0.462	0.1665	0	939	341	5
2026-02-19	12:54:08.050	-48.86	-46.27	62.755	1.010648	0.178364	0.3172	-0.6345	0.474	0.1755	0	939	341	5
2026-02-19	12:54:08.070	-52.57	-41.825	56.175	1.031632	0.157136	0.308904	-0.642	0.486	0.186	0	939	341	5
2026-02-19	12:54:08.090	-50.54	-35.77	47.88	1.020164	0.125172	0.293776	-0.648	0.5025	0.186	0	939	341	5
2026-02-19	12:54:08.110	-43.085	-29.295	36.82	1.012112	0.109312	0.270108	-0.6495	0.513	0.189	0	939	341	5
2026-02-19	12:54:08.130	-30.45	-22.645	25.41	0.99796	0.090524	0.234484	-0.648	0.522	0.1965	0	939	341	5
2026-02-19	12:54:08.150	1.54	-9.835	3.43	1.025776	0.061488	0.1769	-0.651	0.5265	0.2055	0	939	341	5
2026-02-19	12:54:08.170	29.61	-4.76	1.82	1.000888	0.073932	0.164456	-0.66	0.5265	0.204	0	939	341	5
2026-02-19	12:54:08.190	56.84	-0.245	-6.02	0.998204	0.076372	0.167872	-0.6615	0.5235	0.1995	0	939	341	5
2026-02-19	12:54:08.210	83.65	2.135	-12.18	1.00162	0.088816	0.17812	-0.66	0.5175	0.2025	0	840	325	5
2026-02-19	12:54:08.230	106.54	4.06	-16.345	1.003816	0.118828	0.184952	-0.663	0.5085	0.1995	0	840	325	5
2026-02-19	12:54:08.250	122.115	3.535	-17.885	0.996496	0.13786	0.197152	-0.6555	0.4935	0.1995	0	840	325	5
2026-02-19	12:54:08.270	130.34	4.06	-18.83	0.982344	0.176168	0.223992	-0.654	0.48	0.198	0	840	325	5
2026-02-19	12:54:08.290	127.645	4.27	-18.375	0.978928	0.200324	0.245952	-0.6585	0.465	0.1935	0	840	325	5
2026-02-19	12:54:08.310	114.38	4.13	-15.925	0.97356	0.209108	0.265472	-0.66	0.4545	0.189	0	840	325	5
2026-02-19	12:54:08.330	95.795	4.76	-12.635	0.973804	0.210572	0.2684	-0.6615	0.441	0.1875	0	840	325	5
2026-02-19	12:54:08.350	72.87	4.76	-8.225	0.96136	0.194956	0.255712	-0.657	0.426	0.192	0	840	325	5
2026-02-19	12:54:08.370	54.005	3.745	-3.675	0.9577	0.179828	0.233264	-0.6555	0.4185	0.1935	0	840	325	5
2026-02-19	12:54:08.390	40.635	1.995	0	0.961604	0.179584	0.226188	-0.66	0.4125	0.1905	0	840	325	5
2026-02-19	12:54:18.410	21.945	19.005	18.515	0.892552	-0.037332	0.410408	-0.681	0.3495	0.2535	0	387	258	2
2026-02-19	12:54:18.430	39.41	19.95	14.315	0.909388	-0.043676	0.445056	-0.684	0.3465	0.255	0	387	258	2
2026-02-19	12:54:18.450	46.235	21.42	10.395	0.881328	-0.034404	0.481656	-0.684	0.3465	0.255	0	387	258	2
2026-02-19	12:54:18.470	49.105	22.12	5.075	0.837164	-0.018544	0.459696	-0.678	0.3495	0.2445	0	387	258	2
2026-02-19	12:54:18.490	46.375	19.88	-0.35	0.855464	-0.010004	0.448228	-0.6855	0.345	0.2565	0	387	258	2
2026-02-19	12:54:18.510	39.55	16.17	-4.69	0.847168	-0.010492	0.470432	-0.672	0.336	0.2475	0	387	258	2
2026-02-19	12:54:18.530	29.365	11.83	-8.89	0.848388	-0.018544	0.51118	-0.6675	0.3405	0.2445	0	387	258	2
2026-02-19	12:54:18.550	17.71	7.735	-10.99	0.846924	-0.0427	0.517768	-0.6705	0.3405	0.249	0	387	258	2
2026-02-19	12:54:18.570	9.17	3.92	-10.15	0.893528	-0.052948	0.502152	-0.669	0.3285	0.2445	0	387	258	2
2026-02-19	12:54:18.590	6.405	2.975	-8.575	0.849608	-0.059536	0.499468	-0.666	0.3285	0.243	0	387	258	2
2026-02-19	12:54:18.610	4.9	2.38	-7.84	0.828624	-0.048556	0.479216	-0.6675	0.3285	0.246	0	410	307	2
2026-02-19	12:54:18.630	4.41	-0.455	-6.51	0.855708	-0.03782	0.446276	-0.666	0.318	0.249	0	410	307	2
2026-02-19	12:54:18.650	6.02	-2.17	-5.81	0.864248	-0.025376	0.43188	-0.6675	0.33	0.2445	0	410	307	2
2026-02-19	12:54:18.670	7.035	-4.725	-6.58	0.83692	-0.039528	0.41724	-0.669	0.3255	0.249	0	410	307	2
2026-02-19	12:54:18.690	11.2	-8.225	-8.435	0.851316	-0.02196	0.399672	-0.6675	0.321	0.2475	0	410	307	2
2026-02-19	12:54:18.710	15.47	-16.345	-10.815	0.841556	-0.01342	0.403332	-0.6675	0.321	0.2475	0	410	307	2
2026-02-19	12:54:18.730	22.645	-25.865	-12.95	0.79788	-0.024888	0.436272	-0.6675	0.321	0.2475	0	410	307	2
2026-02-19	12:54:18.750	29.435	-32.795	-11.445	0.813496	-0.022204	0.476044	-0.6675	0.321	0.252	0	410	307	2
2026-02-19	12:54:18.770	44.45	-38.255	-9.275	0.882792	-0.001708	0.482632	-0.6705	0.3105	0.2685	0	410	307	2
2026-02-19	12:54:18.790	60.9	-40.88	-7.385	0.883768	0.027572	0.454084	-0.6735	0.3105	0.2685	0	410	307	2
2026-02-19	12:54:18.810	73.045	-43.61	-4.55	0.856928	0.065392	0.434076	-0.6795	0.303	0.2805	0	403	349	2
2026-02-19	12:54:18.830	74.41	-46.655	-0.805	0.864248	0.114924	0.454328	-0.681	0.288	0.276	0	403	349	2
2026-02-19	12:54:18.850	67.62	-49.035	2.345	0.862784	0.14884	0.47336	-0.69	0.291	0.291	0	403	349	2
2026-02-19	12:54:18.870	71.12	-51.555	3.955	0.869372	0.114192	0.51118	-0.6915	0.285	0.3045	0	403	349	2
2026-02-19	12:54:18.890	86.52	-47.985	3.185	0.89548	0.163236	0.55022	-0.693	0.288	0.3165	0	403	349	2
2026-02-19	12:54:18.910	81.795	-39.62	0.49	0.898652	0.264496	0.590236	-0.693	0.2715	0.3285	0	403	349	2
2026-02-19	12:54:18.930	55.51	-33.425	-6.23	0.942328	0.353556	0.585356	-0.6945	0.2625	0.3405	0	403	349	2
2026-02-19	12:54:18.950	27.23	-27.58	-16.87	0.96014	0.36356	0.56608	-0.702	0.267	0.3495	0	403	349	2
2026-02-19	12:54:18.970	5.04	-19.285	-28.91	0.918904	0.319396	0.543632	-0.711	0.261	0.3555	0	403	349	2
2026-02-19	12:54:18.990	-9.135	-8.435	-42.7	0.88084	0.284992	0.480436	-0.702	0.2565	0.354	0	403	349	2
2026-02-19	12:54:19.010	-10.325	0.385	-52.71	0.984784	0.305244	0.459696	-0.702	0.2475	0.357	0	380	385	2
2026-02-19	12:54:19.030	-11.165	9.695	-59.255	1.029924	0.363316	0.467992	-0.699	0.249	0.3525	0	380	385	2
2026-02-19	12:54:19.050	-15.54	20.265	-69.755	0.968436	0.388936	0.427244	-0.693	0.2415	0.351	0	380	385	2
2026-02-19	12:54:19.070	-21.63	26.075	-79.87	0.922076	0.365268	0.37332	-0.69	0.237	0.3525	0	380	385	2
2026-02-19	12:54:19.090	-26.88	29.785	-85.715	0.980148	0.3721	0.350384	-0.672	0.225	0.3465	0	380	385	2
2026-02-19	12:54:19.110	-32.935	31.36	-88.025	1.138504	0.420656	0.363316	-0.669	0.2205	0.3345	0	380	385	2
2026-02-19	12:54:19.130	-36.19	36.82	-92.75	1.121424	0.452376	0.352824	-0.6465	0.213	0.33	0	380	385	2
2026-02-19	12:54:19.150	-39.935	39.025	-98.945	1.046028	0.416508	0.2989	-0.642	0.2025	0.333	0	380	385	2
2026-02-19	12:54:19.170	-39.375	37.8	-102.585	1.017968	0.370636	0.261324	-0.6285	0.201	0.3165	0	380	385	2
2026-02-19	12:54:19.190	-35.875	36.085	-102.34	1.079944	0.381128	0.306952	-0.6225	0.186	0.3105	0	380	385	2
2026-02-19	12:54:19.210	-35.28	37.94	-103.215	1.03578	0.432856	0.344528	-0.6045	0.186	0.297	0	351	407	3
2026-02-19	12:54:19.230	-45.325	37.135	-105.21	0.962336	0.418704	0.317688	-0.591	0.168	0.294	0	351	407	3
2026-02-19	12:54:19.250	-49.21	34.055	-104.335	0.926224	0.400892	0.260104	-0.573	0.1665	0.2865	0	351	407	3
2026-02-19	12:54:19.270	-50.96	28.315	-94.885	1.02724	0.432856	0.277428	-0.5565	0.1575	0.282	0	351	407	3
2026-02-19	12:54:19.290	-57.225	26.985	-83.615	0.990884	0.449936	0.305	-0.5565	0.1575	0.282	0	351	407	3
2026-02-19	12:54:19.310	-67.305	25.2	-77.105	0.899628	0.427	0.258884	-0.5355	0.153	0.2655	0	351	407	3
2026-02-19	12:54:19.330	-76.44	21.595	-69.16	0.887428	0.397964	0.221308	-0.519	0.159	0.2595	0	351	407	3
2026-02-19	12:54:19.350	-81.2	18.41	-60.025	0.970388	0.376736	0.209352	-0.513	0.15	0.2505	0	351	407	3
2026-02-19	12:54:19.370	-81.235	17.395	-52.43	0.955016	0.327692	0.1891	-0.495	0.1635	0.2415	0	351	407	3
2026-02-19	12:54:19.390	-74.34	15.785	-47.355	0.88084	0.277672	0.156404	-0.486	0.162	0.2325	0	351	407	3
2026-02-19	12:54:19.410	-65.66	10.535	-40.775	0.859368	0.258396	0.134688	-0.489	0.174	0.2115	0	324	398	3
2026-02-19	12:54:19.430	-57.995	4.375	-32.83	0.874984	0.25376	0.149572	-0.4785	0.1785	0.2205	0	324	398	3
2026-02-19	12:54:19.450	-49.56	-0.63	-24.64	0.848632	0.228628	0.150548	-0.483	0.1845	0.213	0	324	398	3
2026-02-19	12:54:19.470	-38.745	-5.495	-15.4	0.834236	0.233996	0.15128	-0.4725	0.1785	0.201	0	324	398	3
2026-02-19	12:54:19.490	-29.575	-10.92	-4.375	0.8784	0.252784	0.167384	-0.4755	0.1815	0.2055	0	324	398	3
2026-02-19	12:54:19.510	-28.28	-14.98	4.76	0.91134	0.25986	0.182512	-0.471	0.195	0.204	0	324	398	3
2026-02-19	12:54:19.530	-29.575	-18.69	11.55	0.936716	0.21472	0.16592	-0.4725	0.1965	0.198	0	324	398	3
2026-02-19	12:54:19.550	-24.675	-22.715	18.48	1.009184	0.191296	0.14884	-0.4755	0.2025	0.207	0	324	398	3
2026-02-19	12:54:19.570	-7.91	-29.715	26.67	1.133624	0.176168	0.142984	-0.4755	0.2025	0.207	0	324	398	3
2026-02-19	12:54:19.590	8.645	-37.065	29.19	1.167052	0.153232	0.125172	-0.483	0.207	0.207	0	324	398	3
2026-02-19	12:54:19.610	27.09	-47.635	30.66	1.145824	0.139324	0.185684	-0.492	0.213	0.207	0	299	363	3
2026-02-19	12:54:19.630	33.46	-57.365	32.725	1.123376	0.141032	0.322324	-0.504	0.2115	0.219	0	299	363	3
2026-02-19	12:54:19.650	19.32	-66.185	38.29	1.210972	0.165432	0.430416	-0.5055	0.2025	0.213	0	299	363	3
2026-02-19	12:54:19.670	-2.52	-71.19	46.13	1.248792	0.17202	0.467504	-0.5145	0.204	0.2295	0	299	363	3
2026-02-19	12:54:19.690	-24.78	-74.795	52.57	1.269776	0.191784	0.432612	-0.5295	0.2145	0.231	0	299	363	3
2026-02-19	12:54:19.710	-48.405	-77.56	56.84	1.284904	0.177388	0.426512	-0.537	0.2145	0.2325	0	299	363	3
2026-02-19	12:54:19.730	-70.77	-77	59.325	1.2627	0.125416	0.480924	-0.552	0.2235	0.2355	0	299	363	3
2026-02-19	12:54:19.750	-90.02	-69.72	62.685	1.256356	0.035868	0.538996	-0.567	0.2265	0.24	0	299	363	3
2026-02-19	12:54:19.770	-89.915	-58.66	67.41	1.192916	-0.025132	0.482144	-0.579	0.249	0.2385	0	299	363	3
2026-02-19	12:54:19.790	-70.14	-48.825	68.04	1.100196	-0.01952	0.382592	-0.585	0.261	0.24	0	299	363	3
2026-02-19	12:54:19.810	-40.25	-41.825	65.975	0.998448	-0.02806	0.285968	-0.597	0.2685	0.2385	0	280	335	3
2026-02-19	12:54:19.830	-0.525	-37.1	65.38	0.925248	-0.042944	0.24034	-0.609	0.276	0.24	0	280	335	3
2026-02-19	12:54:19.850	56.595	-29.26	70.14	0.924272	0.005856	0.26596	-0.6075	0.294	0.2445	0	280	335	3
2026-02-19	12:54:19.870	88.76	-22.54	73.535	0.886696	0.039772	0.29646	-0.618	0.294	0.2505	0	280	335	3
2026-02-19	12:54:19.890	110.74	-17.325	75.635	0.862784	0.10736	0.299876	-0.633	0.2955	0.2655	0	280	335	3
2026-02-19	12:54:19.910	115.29	-14.875	78.505	0.887184	0.154208	0.313296	-0.639	0.297	0.2745	0	280	335	3
2026-02-19	12:54:19.930	108.5	-12.11	81.69	0.898408	0.185684	0.31842	-0.6375	0.297	0.2745	0	280	335	3
2026-02-19	12:54:19.950	97.51	-9.17	82.74	0.895724	0.203496	0.319884	-0.645	0.2985	0.282	0	280	335	3
2026-02-19	12:54:19.970	83.93	-6.615	81.725	0.907924	0.193736	0.340136	-0.6555	0.2985	0.2805	0	280	335	3
2026-02-19	12:54:19.990	70.385	-4.725	78.96	0.9028	0.183732	0.347456	-0.6615	0.2985	0.2955	0	280	335	3
2026-02-19	12:54:20.010	59.78	-4.725	75.145	0.902068	0.163236	0.33062	-0.6735	0.3045	0.2955	0	266	327	3
2026-02-19	12:54:20.030	51.94	-5.705	71.12	0.932812	0.146888	0.3233	-0.672	0.309	0.306	0	266	327	3
2026-02-19	12:54:20.050	45.675	-5.53	65.765	0.934764	0.132004	0.361364	-0.678	0.312	0.303	0	266	327	3
2026-02-19	12:54:20.070	36.96	-2.975	58.38	0.903044	0.132248	0.401624	-0.6765	0.3195	0.3075	0	266	327	3
2026-02-19	12:54:20.090	29.715	-1.61	49.875	0.894016	0.107604	0.39528	-0.6855	0.33	0.3135	0	266	327	3
2026-02-19	12:54:20.110	32.06	-0.7	41.37	0.897432	0.06832	0.364292	-0.69	0.324	0.3135	0	266	327	3
2026-02-19	12:54:20.130	49.42	4.2	30.065	0.881084	0.04026	0.387472	-0.696	0.3375	0.321	0	266	327	3
2026-02-19	12:54:20.150	56.63	8.435	21.385	0.839604	0.061488	0.40138	-0.6945	0.3375	0.3195	0	266	327	3
2026-02-19	12:54:20.170	55.055	10.64	12.6	0.838384	0.060512	0.404552	-0.6945	0.339	0.3195	0	266	327	3
2026-02-19	12:54:20.190	50.645	12.425	6.37	0.862052	0.042456	0.39894	-0.6945	0.336	0.321	0	266	327	3
2026-02-19	12:54:20.210	49.315	15.05	3.08	0.878156	0.04758	0.394304	-0.6945	0.3315	0.321	0	254	332	3
2026-02-19	12:54:20.230	47.845	15.82	1.085	0.897188	0.071492	0.379176	-0.687	0.33	0.3195	0	254	332	3
2026-02-19	12:54:20.250	44.555	14.035	-0.035	0.939644	0.070272	0.38918	-0.696	0.3285	0.3255	0	254	332	3
2026-02-19	12:54:20.270	40.95	13.475	-0.42	0.942328	0.06222	0.426756	-0.699	0.321	0.3195	0	254	332	3
2026-02-19	12:54:20.290	37.94	14.455	-1.715	0.90768	0.061976	0.454572	-0.6855	0.3135	0.33	0	254	332	3
2026-02-19	12:54:20.310	34.79	14.21	-3.185	0.881328	0.044164	0.45628	-0.6885	0.3225	0.321	0	254	332	3
2026-02-19	12:54:20.330	33.775	12.915	-3.99	0.929884	0.052704	0.459696	-0.678	0.318	0.324	0	254	332	3
2026-02-19	12:54:20.350	31.5	11.515	-4.97	0.949648	0.048068	0.467504	-0.6855	0.315	0.327	0	254	332	3
2026-02-19	12:54:20.370	29.89	11.9	-8.995	0.8967	0.03538	0.454572	-0.6885	0.315	0.3255	0	254	332	3
2026-02-19	12:54:20.390	28.945	9.31	-12.53	0.885232	0.016348	0.427244	-0.684	0.3105	0.321	0	254	332	3
2026-02-19	12:54:20.410	32.62	5.775	-14.385	0.925492	0.034892	0.439688	-0.6795	0.303	0.3225	0	242	349	3
2026-02-19	12:54:20.430	30.03	2.8	-15.4	0.908656	0.035868	0.469944	-0.6795	0.2985	0.321	0	242	349	3
2026-02-19	12:54:20.450	24.885	-0.35	-16.38	0.890112	0.038064	0.49044	-0.681	0.2955	0.3225	0	242	349	3
2026-02-19	12:54:20.470	18.06	-3.955	-15.855	0.925492	0.040992	0.513864	-0.681	0.297	0.3225	0	242	349	3
2026-02-19	12:54:20.490	9.695	-6.51	-13.895	0.941596	0.038796	0.544852	-0.6795	0.2955	0.324	0	242	349	3
2026-02-19	12:54:20.510	2.065	-8.365	-11.55	0.93452	0.035136	0.558272	-0.681	0.288	0.3255	0	242	349	3
2026-02-19	12:54:20.530	-3.78	-11.585	-8.995	0.914268	0.030012	0.528016	-0.681	0.2835	0.3255	0	242	349	3
2026-02-19	12:54:20.550	-8.54	-14.315	-5.985	0.948184	0.063684	0.51118	-0.681	0.285	0.3255	0	242	349	3
2026-02-19	12:54:20.570	-11.865	-16.87	-4.095	0.970876	0.05856	0.523136	-0.6855	0.288	0.33	0	242	349	3
2026-02-19	12:54:20.590	-9.345	-17.115	-3.745	0.907436	0.06588	0.534848	-0.681	0.294	0.3255	0	242	349	3
2026-02-19	12:54:20.610	-4.445	-19.39	-4.13	0.873764	0.07515199	0.501664	-0.681	0.2925	0.336	0	229	377	3
2026-02-19	12:54:20.630	4.27	-24.22	-3.43	0.868396	0.095892	0.477752	-0.681	0.291	0.336	0	229	377	3
2026-02-19	12:54:20.650	12.915	-28.035	-1.96	0.863272	0.150304	0.52216	-0.6825	0.294	0.324	0	229	377	3
2026-02-19	12:54:20.670	10.64	-27.37	-0.455	0.921588	0.211548	0.571204	-0.684	0.288	0.3435	0	229	377	3
2026-02-19	12:54:20.690	0.945	-18.83	-5.39	0.901092	0.216916	0.504104	-0.7005	0.291	0.3495	0	229	377	3
2026-02-19	12:54:20.710	0.21	-8.365	-16.415	0.813496	0.2196	0.422852	-0.7005	0.291	0.3495	0	229	377	3
2026-02-19	12:54:20.730	2.87	-1.05	-27.965	0.766648	0.232532	0.405772	-0.6945	0.291	0.348	0	229	377	3
2026-02-19	12:54:20.750	2.625	2.345	-38.57	0.81252	0.243024	0.393328	-0.684	0.2835	0.348	0	229	377	3
2026-02-19	12:54:20.770	8.085	7.105	-49	0.790072	0.26596	0.397476	-0.6795	0.276	0.3465	0	229	377	3
2026-02-19	12:54:20.790	12.18	11.55	-58.275	0.772504	0.322568	0.402844	-0.6795	0.273	0.3405	0	229	377	3
2026-02-19	12:54:20.810	4.585	14.42	-64.575	0.872544	0.390888	0.444324	-0.672	0.2655	0.3345	0	216	407	3
2026-02-19	12:54:20.830	-14.595	19.355	-68.53	1.075308	0.456524	0.480924	-0.6675	0.2625	0.3315	0	216	407	3
2026-02-19	12:54:20.850	-24.08	30.45	-75.39	1.060424	0.456036	0.447984	-0.675	0.2535	0.345	0	216	407	3
2026-02-19	12:54:20.870	-29.715	38.885	-85.085	0.982344	0.447008	0.375516	-0.6525	0.2475	0.336	0	216	407	3
2026-02-19	12:54:20.890	-34.825	39.13	-95.9	0.987468	0.447984	0.337208	-0.6525	0.2415	0.318	0	216	407	3
2026-02-19	12:54:20.910	-37.485	37.24	-101.395	1.02602	0.44896	0.368196	-0.6525	0.2415	0.318	0	216	407	3
2026-02-19	12:54:20.930	-40.285	37.415	-107.31	1.061888	0.453352	0.415288	-0.6285	0.2205	0.3045	0	216	407	3
2026-02-19	12:54:20.950	-36.645	40.075	-113.19	1.025776	0.432368	0.411628	-0.618	0.2145	0.303	0	216	407	3
2026-02-19	12:54:20.970	-30.835	39.865	-117.145	0.959408	0.449204	0.360144	-0.6015	0.2115	0.288	0	216	407	3
2026-02-19	12:54:20.990	-33.39	34.09	-115.465	0.966972	0.496052	0.3782	-0.6015	0.2115	0.288	0	216	407	3
2026-02-19	12:54:21.010	-45.325	30.205	-110.495	1.066768	0.538752	0.433344	-0.576	0.201	0.279	0	206	423	3
2026-02-19	12:54:21.030	-56.035	31.29	-106.96	1.022116	0.53314	0.43066	-0.5445	0.1875	0.267	0	206	423	3
2026-02-19	12:54:21.050	-64.645	32.165	-104.615	0.92476	0.515572	0.372344	-0.5325	0.183	0.2565	0	206	423	3
2026-02-19	12:54:21.070	-73.255	30.975	-101.045	0.877912	0.509228	0.301096	-0.516	0.18	0.249	0	206	423	3
2026-02-19	12:54:21.090	-79.135	27.16	-96.25	0.915244	0.472872	0.282308	-0.501	0.1815	0.2385	0	206	423	3
2026-02-19	12:54:21.110	-75.775	26.25	-91.21	0.874984	0.424804	0.283772	-0.4905	0.183	0.225	0	206	423	3
2026-02-19	12:54:21.130	-64.75	25.865	-87.85	0.78202	0.395036	0.2562	-0.486	0.183	0.219	0	206	423	3
2026-02-19	12:54:21.150	-53.83	21.175	-83.3	0.74908	0.388204	0.23302	-0.468	0.174	0.216	0	206	423	3
2026-02-19	12:54:21.170	-48.055	13.265	-77.07	0.785436	0.382836	0.274256	-0.4545	0.1935	0.2025	0	206	423	3
2026-02-19	12:54:21.190	-45.885	7.63	-68.95	0.835456	0.355752	0.32208	-0.447	0.2025	0.195	0	206	423	3
2026-02-19	12:54:21.210	-40.565	5.285	-59.43	0.818864	0.33184	0.28914	-0.4485	0.198	0.198	0	200	418	3
2026-02-19	12:54:21.230	-32.515	-0.315	-48.055	0.787632	0.329156	0.22692	-0.4335	0.198	0.1875	0	200	418	3
2026-02-19	12:54:21.250	-35.42	-14.315	-30.73	0.84546	0.352336	0.227408	-0.4275	0.198	0.1905	0	200	418	3
2026-02-19	12:54:21.270	-43.61	-27.16	-15.855	0.889136	0.284016	0.27206	-0.4245	0.198	0.186	0	200	418	3
2026-02-19	12:54:21.290	-43.75	-34.405	-4.725	0.9394	0.263032	0.261568	-0.426	0.201	0.18	0	200	418	3
2026-02-19	12:54:21.310	-39.62	-41.755	7.7	1.057008	0.268888	0.241804	-0.4275	0.207	0.1755	0	200	418	3
2026-02-19	12:54:21.330	-36.05	-48.685	20.475	1.14436	0.228872	0.207644	-0.4305	0.213	0.174	0	200	418	3
2026-02-19	12:54:21.350	-22.19	-54.285	32.165	1.136552	0.180316	0.155916	-0.4395	0.2175	0.1725	0	200	418	3
2026-02-19	12:54:21.370	4.34	-59.57	42.455	1.068476	0.173484	0.122976	-0.45	0.219	0.174	0	200	418	3
2026-02-19	12:54:21.390	26.6	-66.955	49.455	1.042368	0.165432	0.199592	-0.462	0.222	0.18	0	200	418	3
2026-02-19	12:54:21.410	34.86	-74.865	58.24	1.118252	0.168848	0.299632	-0.471	0.2235	0.186	0	197	393	2
2026-02-19	12:54:21.430	28.56	-79.555	70.42	1.168028	0.228872	0.384056	-0.477	0.225	0.186	0	197	393	2
2026-02-19	12:54:21.450	6.685	-82.95	78.61	1.203164	0.266692	0.399672	-0.507	0.219	0.201	0	197	393	2
2026-02-19	12:54:21.470	-21.77	-85.155	81.13	1.191452	0.193492	0.415776	-0.5115	0.2325	0.192	0	197	393	2
2026-02-19	12:54:21.490	-57.645	-78.435	82.53	1.18218	0.183976	0.457012	-0.5295	0.234	0.2145	0	197	393	2
2026-02-19	12:54:21.510	-91.595	-69.685	84.49	1.120448	0.145668	0.412116	-0.5445	0.2445	0.2085	0	197	393	2
2026-02-19	12:54:21.530	-101.15	-65.905	87.22	1.08824	0.07124799	0.328668	-0.5535	0.258	0.2085	0	197	393	2
2026-02-19	12:54:21.550	-73.675	-61.11	87.605	1.0309	0.029036	0.257908	-0.573	0.276	0.2175	0	197	393	2
2026-02-19	12:54:21.570	-44.975	-62.02	86.38	0.979172	-0.029524	0.23424	-0.585	0.291	0.2175	0	197	393	2
2026-02-19	12:54:21.590	-10.885	-63.21	86.24	0.971608	-0.074664	0.270596	-0.6015	0.312	0.2205	0	197	393	2
2026-02-19	12:54:21.610	29.925	-59.22	90.685	0.99064	-0.07124799	0.290604	-0.6135	0.324	0.2295	0	197	365	3
2026-02-19	12:54:21.630	71.12	-53.025	93.695	0.953308	0.013664	0.274744	-0.6195	0.3315	0.2355	0	197	365	3
2026-02-19	12:54:21.650	95.375	-50.4	94.08	0.932568	0.055632	0.274256	-0.6285	0.3315	0.2445	0	197	365	3
2026-02-19	12:54:21.670	106.085	-50.12	95.585	0.967704	0.080032	0.289872	-0.6435	0.333	0.2565	0	197	365	3
2026-02-19	12:54:21.690	110.81	-47.145	97.44	0.977708	0.126636	0.292068	-0.6495	0.3375	0.2655	0	197	365	3
2026-02-19	12:54:21.710	109.655	-42.245	95.585	0.95526	0.160796	0.274988	-0.6585	0.3405	0.276	0	197	365	3
2026-02-19	12:54:21.730	100.485	-39.48	90.615	0.941108	0.16226	0.263276	-0.6705	0.3465	0.2865	0	197	365	3
2026-02-19	12:54:21.750	84.07	-37.45	85.05	0.974536	0.172264	0.285968	-0.675	0.3525	0.2925	0	197	365	3
2026-02-19	12:54:21.770	63.77	-34.545	80.045	0.992836	0.152744	0.307928	-0.6825	0.3435	0.294	0	197	365	3
2026-02-19	12:54:21.790	51.66	-29.575	72.625	0.966972	0.136152	0.293288	-0.6855	0.3555	0.3105	0	197	365	3
2026-02-19	12:54:21.810	43.995	-25.165	62.545	0.957456	0.128588	0.262544	-0.6855	0.36	0.3105	0	197	345	3
2026-02-19	12:54:21.830	37.8	-21.63	47.075	0.946476	0.10126	0.283284	-0.6915	0.357	0.3195	0	197	345	3
2026-02-19	12:54:21.850	33.88	-17.815	36.75	0.949648	0.080764	0.337452	-0.6975	0.363	0.3255	0	197	345	3
2026-02-19	12:54:21.870	34.895	-12.88	26.075	0.929884	0.047824	0.355996	-0.7035	0.3735	0.3315	0	197	345	3
2026-02-19	12:54:21.890	47.04	-8.89	15.365	0.942816	0.045628	0.340868	-0.7065	0.378	0.3315	0	197	345	3
2026-02-19	12:54:21.910	62.23	-4.795	4.935	0.954772	0.05978	0.317444	-0.708	0.375	0.3315	0	197	345	3
2026-02-19	12:54:21.930	73.22	-1.995	-3.745	0.97234	0.036356	0.364536	-0.708	0.372	0.336	0	197	345	3
2026-02-19	12:54:21.950	77.805	3.5	-10.85	0.950868	0.025132	0.411384	-0.7065	0.3675	0.342	0	197	345	3
2026-02-19	12:54:21.970	79.87	8.505	-18.795	0.930128	0.030256	0.419192	-0.702	0.3585	0.3405	0	197	345	3
2026-02-19	12:54:21.990	81.48	12.425	-24.955	0.917684	0.042944	0.404796	-0.7065	0.354	0.3405	0	197	345	3
2026-02-19	12:54:22.010	75.95	14.875	-28.84	0.962336	0.059292	0.40016	-0.7125	0.3555	0.3435	0	194	336	3
2026-02-19	12:54:22.030	70.315	16.415	-30.31	0.937692	0.069784	0.392108	-0.708	0.345	0.3435	0	194	336	3
2026-02-19	12:54:22.050	60.9	17.745	-33.355	0.898164	0.079788	0.399428	-0.705	0.336	0.3435	0	194	336	3
2026-02-19	12:54:22.070	46.585	18.025	-35.91	0.885232	0.083204	0.41602	-0.6975	0.33	0.345	0	194	336	3
2026-02-19	12:54:22.090	31.885	17.885	-35.77	0.931592	0.088816	0.438712	-0.6915	0.321	0.3435	0	194	336	3
2026-02-19	12:54:22.110	8.61	19.635	-34.16	0.901824	0.082228	0.42578	-0.69	0.3165	0.3465	0	194	336	3
2026-02-19	12:54:22.130	-2.1	18.48	-34.195	0.897432	0.061	0.384788	-0.69	0.309	0.342	0	194	336	3
2026-02-19	12:54:22.150	-5.67	16.555	-32.585	0.91378	0.038308	0.375516	-0.687	0.2955	0.336	0	194	336	3
2026-02-19	12:54:22.170	-5.845	14.49	-28.595	0.93574	0.031964	0.384788	-0.6795	0.294	0.3345	0	194	336	3
2026-02-19	12:54:22.190	-1.05	11.9	-23.975	0.946232	0.034648	0.375028	-0.6795	0.297	0.3315	0	194	336	3
2026-02-19	12:54:22.210	6.055	9.135	-19.985	0.953064	0.046848	0.372344	-0.681	0.2925	0.327	0	189	341	2
2026-02-19	12:54:22.230	7.98	6.16	-17.08	0.968924	0.061732	0.39284	-0.6765	0.2895	0.327	0	189	341	2
2026-02-19	12:54:22.250	5.775	3.745	-14.84	0.985516	0.055388	0.396744	-0.6765	0.288	0.3285	0	189	341	2
2026-02-19	12:54:22.270	6.265	2.975	-14.21	0.971364	0.057584	0.364536	-0.6735	0.285	0.327	0	189	341	2
2026-02-19	12:54:22.290	6.58	1.19	-15.12	0.97966	0.07198	0.331108	-0.675	0.282	0.33	0	189	341	2
2026-02-19	12:54:22.310	3.745	-2.38	-16.1	0.973072	0.066612	0.333548	-0.6765	0.2775	0.333	0	189	341	2
2026-02-19	12:54:22.330	0.56	-5.81	-16.625	0.989664	0.07198	0.343064	-0.6735	0.2775	0.333	0	189	341	2
2026-02-19	12:54:22.350	-0.665	-8.05	-16.905	1.0126	0.060268	0.332816	-0.6735	0.2805	0.333	0	189	341	2
2026-02-19	12:54:22.370	6.475	-9.555	-16.94	1.033096	0.032208	0.307684	-0.6705	0.276	0.3315	0	189	341	2
2026-02-19	12:54:22.390	42.14	-11.095	-16.1	1.110932	0.027572	0.332328	-0.672	0.2655	0.33	0	189	341	2
2026-02-19	12:54:22.410	87.22	-7.315	-17.885	1.145092	0.063928	0.332084	-0.672	0.261	0.33	0	180	351	3
2026-02-19	12:54:22.430	113.435	-1.61	-23.03	1.086288	0.096136	0.307928	-0.672	0.255	0.339	0	180	351	3
2026-02-19	12:54:22.450	125.09	2.87	-27.93	1.059448	0.117608	0.321348	-0.6675	0.2475	0.345	0	180	351	3
2026-02-19	12:54:22.470	127.26	9.38	-30.415	1.046272	0.159332	0.321104	-0.6645	0.2415	0.357	0	180	351	3
2026-02-19	12:54:22.490	125.335	14.77	-32.76	0.987956	0.19886	0.28182	-0.666	0.2355	0.3705	0	180	351	3
2026-02-19	12:54:22.510	121.38	16.555	-34.37	0.957212	0.21472	0.224724	-0.6615	0.222	0.3735	0	180	351	3
2026-02-19	12:54:22.530	117.81	16.555	-33.285	0.920124	0.229116	0.209108	-0.657	0.2115	0.3825	0	180	351	3
2026-02-19	12:54:22.550	115.99	16.73	-31.185	0.883524	0.289872	0.241804	-0.6555	0.204	0.39	0	180	351	3
2026-02-19	12:54:22.570	109.515	16.24	-29.085	0.88694	0.359168	0.258152	-0.651	0.1935	0.4005	0	180	351	3
2026-02-19	12:54:22.590	98.91	14.455	-27.545	0.8784	0.415044	0.259372	-0.648	0.18	0.414	0	180	351	3
2026-02-19	12:54:22.610	83.965	11.69	-28.735	0.883768	0.49044	0.26108	-0.6495	0.1755	0.4185	0	171	350	3
2026-02-19	12:54:22.630	64.645	8.61	-31.815	0.836676	0.511912	0.255712	-0.648	0.1755	0.4245	0	171	350	3
2026-02-19	12:54:22.650	44.555	5.25	-36.19	0.823988	0.536556	0.259372	-0.645	0.171	0.4305	0	171	350	3
2026-02-19	12:54:22.670	16.065	4.69	-43.085	0.834968	0.58804	0.264008	-0.633	0.168	0.423	0	171	350	3
2026-02-19	12:54:22.690	-17.64	5.775	-50.19	0.843264	0.611708	0.24522	-0.633	0.168	0.423	0	171	350	3
2026-02-19	12:54:22.710	-35.49	6.37	-55.51	0.826672	0.60024	0.210328	-0.624	0.1575	0.423	0	171	350	3
2026-02-19	12:54:22.730	-39.025	7.105	-60.095	0.80154	0.607072	0.193736	-0.6165	0.1455	0.4215	0	171	350	3
2026-02-19	12:54:22.750	-39.41	7.07	-64.68	0.78202	0.636108	0.19642	-0.6135	0.1425	0.4155	0	171	350	3
2026-02-19	12:54:22.770	-41.93	6.055	-68.915	0.769332	0.638548	0.220576	-0.6045	0.1395	0.408	0	171	350	3
2026-02-19	12:54:22.790	-40.95	5.075	-72.59	0.748836	0.665388	0.230092	-0.594	0.1305	0.4005	0	171	350	3
2026-02-19	12:54:22.810	-38.64	1.47	-74.515	0.808128	0.69174	0.238388	-0.5835	0.1215	0.393	0	167	334	3
2026-02-19	12:54:22.830	-35.14	-2.065	-75.355	0.786656	0.701744	0.2318	-0.5775	0.12	0.393	0	167	334	3
2026-02-19	12:54:22.850	-36.435	-6.265	-78.19	0.744444	0.716384	0.226188	-0.57	0.1155	0.3885	0	167	334	3
2026-02-19	12:54:22.870	-45.29	-11.585	-81.13	0.778604	0.715652	0.234972	-0.5595	0.1095	0.381	0	167	334	3
2026-02-19	12:54:22.890	-54.495	-15.82	-83.055	0.802516	0.70516	0.220332	-0.549	0.102	0.3765	0	167	334	3
2026-02-19	12:54:22.910	-61.775	-20.335	-85.085	0.749324	0.680028	0.204472	-0.537	0.093	0.369	0	167	334	3
2026-02-19	12:54:22.930	-69.86	-26.145	-87.29	0.718336	0.63928	0.21472	-0.525	0.0945	0.366	0	167	334	3
2026-02-19	12:54:22.950	-82.495	-29.365	-86.625	0.77958	0.644648	0.246684	-0.516	0.0945	0.3615	0	167	334	3
2026-02-19	12:54:22.970	-92.47	-27.44	-83.65	0.762012	0.648796	0.226676	-0.5115	0.0915	0.357	0	167	334	3
2026-02-19	12:54:22.990	-98.385	-26.285	-81.445	0.719068	0.620004	0.165432	-0.501	0.087	0.3435	0	167	334	3
2026-02-19	12:54:23.010	-99.26	-27.16	-77.77	0.722728	0.575596	0.1403	-0.4845	0.0825	0.3255	0	169	310	3
2026-02-19	12:54:23.030	-93.415	-28	-70.77	0.767868	0.557296	0.151768	-0.4785	0.0825	0.315	0	169	310	3
2026-02-19	12:54:23.050	-83.265	-26.075	-63.175	0.723216	0.52948	0.183	-0.4665	0.084	0.3015	0	169	310	3
2026-02-19	12:54:23.070	-77.245	-24.465	-56.035	0.699792	0.503372	0.185684	-0.4515	0.087	0.2925	0	169	310	3
2026-02-19	12:54:23.090	-72.24	-23.905	-47.88	0.749812	0.481656	0.173972	-0.444	0.0915	0.2865	0	169	310	3
2026-02-19	12:54:23.110	-66.64	-24.36	-35.175	0.825452	0.465064	0.152744	-0.4365	0.0975	0.279	0	169	310	3
2026-02-19	12:54:23.130	-62.825	-25.41	-20.265	0.884256	0.447252	0.125172	-0.435	0.102	0.2685	0	169	310	3
2026-02-19	12:54:23.150	-60.725	-26.985	-6.23	0.893772	0.404552	0.116632	-0.4335	0.1035	0.2625	0	169	310	3
2026-02-19	12:54:23.170	-61.6	-29.19	5.81	0.885964	0.336964	0.118096	-0.4335	0.105	0.2625	0	169	310	3
2026-02-19	12:54:23.190	-60.41	-32.515	17.045	0.915488	0.286456	0.116388	-0.438	0.1125	0.258	0	169	310	3
2026-02-19	12:54:23.210	-54.985	-35.595	26.635	0.948428	0.250344	0.114436	-0.4425	0.1185	0.252	0	174	280	3
2026-02-19	12:54:23.230	-41.44	-40.46	37.205	0.976244	0.192516	0.089548	-0.4485	0.123	0.2475	0	174	280	3
2026-02-19	12:54:23.250	-24.01	-47.88	52.36	1.04676	0.176412	0.070028	-0.4575	0.129	0.243	0	174	280	3
2026-02-19	12:54:23.270	-12.985	-56.175	68.25	1.094584	0.188124	0.079544	-0.471	0.1335	0.24	0	174	280	3
2026-02-19	12:54:23.290	-9.59	-66.605	84.56	1.166808	0.208132	0.105652	-0.486	0.141	0.243	0	174	280	3
2026-02-19	12:54:23.310	-13.685	-77.28	99.82	1.235372	0.221064	0.192028	-0.495	0.1425	0.246	0	174	280	3
2026-02-19	12:54:23.330	-29.26	-82.775	113.085	1.286612	0.255956	0.312076	-0.5055	0.144	0.249	0	174	280	3
2026-02-19	12:54:23.350	-56.735	-85.05	121.345	1.306132	0.247416	0.348676	-0.5295	0.159	0.249	0	174	280	3
2026-02-19	12:54:23.370	-84.875	-85.575	122.78	1.30296	0.222284	0.308904	-0.552	0.1725	0.2475	0	174	280	3
2026-02-19	12:54:23.390	-108.57	-85.435	117.845	1.320528	0.205204	0.264252	-0.57	0.189	0.252	0	174	280	3
2026-02-19	12:54:23.410	-126	-84.07	110.6	1.318332	0.172508	0.261568	-0.5925	0.21	0.2565	0	182	251	3
2026-02-19	12:54:23.430	-133.49	-82.25	104.335	1.313696	0.126636	0.260592	-0.6105	0.225	0.2565	0	182	251	3
2026-02-19	12:54:23.450	-122.535	-77.35	97.055	1.253428	0.065636	0.276208	-0.6255	0.249	0.258	0	182	251	3
2026-02-19	12:54:23.470	-101.5	-66.85	90.23	1.19804	0.011712	0.294752	-0.6405	0.2715	0.2625	0	182	251	3
2026-02-19	12:54:23.490	-69.685	-54.88	86.24	1.14314	-0.068564	0.265228	-0.651	0.2865	0.2625	0	182	251	3
2026-02-19	12:54:23.510	-10.15	-45.29	83.37	1.083604	-0.142252	0.232288	-0.663	0.3045	0.261	0	182	251	3
2026-02-19	12:54:23.530	83.65	-24.885	79.975	0.993324	-0.0244	0.210572	-0.6705	0.312	0.261	0	182	251	3
2026-02-19	12:54:23.550	114.415	-14.665	76.86	0.9272	0.036356	0.227896	-0.6705	0.312	0.261	0	182	251	3
2026-02-19	12:54:23.570	128.555	-7.56	71.61	0.899628	0.068564	0.251564	-0.6735	0.3195	0.2745	0	182	251	3
2026-02-19	12:54:23.590	133.98	-1.225	66.815	0.897432	0.119804	0.262788	-0.6825	0.327	0.2925	0	182	251	3
2026-02-19	12:54:23.610	130.445	4.025	62.02	0.885964	0.163968	0.251564	-0.6915	0.3255	0.3	0	193	238	3
2026-02-19	12:54:23.630	116.305	7.21	57.715	0.87962	0.19764	0.266936	-0.6945	0.327	0.306	0	193	238	3
2026-02-19	12:54:23.650	91.455	9.275	53.2	0.8845	0.214476	0.31842	-0.696	0.3285	0.3105	0	193	238	3
2026-02-19	12:54:23.670	62.755	11.725	49.525	0.894504	0.172264	0.356484	-0.699	0.3255	0.3105	0	193	238	3
2026-02-19	12:54:23.690	43.82	15.225	45.325	0.882792	0.14274	0.362584	-0.699	0.3255	0.306	0	193	238	3
2026-02-19	12:54:23.710	33.845	18.445	39.27	0.85278	0.127368	0.340136	-0.7005	0.33	0.306	0	193	238	3
2026-02-19	12:54:23.730	23.765	19.565	32.48	0.85156	0.113948	0.339892	-0.7035	0.3315	0.3105	0	193	238	3
2026-02-19	12:54:23.750	15.435	19.705	25.55	0.823012	0.071736	0.338184	-0.702	0.336	0.3135	0	193	238	3
2026-02-19	12:54:23.770	16.765	19.74	18.48	0.807884	0.04026	0.327936	-0.7065	0.339	0.3105	0	193	238	3
2026-02-19	12:54:23.790	24.745	17.57	11.865	0.83204	0.023424	0.3233	-0.7065	0.339	0.309	0	193	238	3
2026-02-19	12:54:23.810	40.145	16.835	4.41	0.886208	0.033672	0.358436	-0.7005	0.339	0.309	0	204	245	3
2026-02-19	12:54:23.830	45.57	17.255	0.77	0.896212	0.04514	0.394548	-0.7005	0.339	0.309	0	204	245	3
2026-02-19	12:54:23.850	48.3	18.445	-3.255	0.863516	0.06466	0.403576	-0.7095	0.336	0.306	0	204	245	3
2026-02-19	12:54:23.870	46.375	17.99	-7	0.859368	0.073688	0.405528	-0.699	0.333	0.3045	0	204	245	3
2026-02-19	12:54:23.890	39.935	17.78	-9.905	0.874984	0.06832	0.416752	-0.6975	0.33	0.3015	0	204	245	3
2026-02-19	12:54:23.910	28.665	17.675	-11.725	0.88938	0.061244	0.429196	-0.6945	0.321	0.3015	0	204	245	3
2026-02-19	12:54:23.930	19.285	15.365	-11.9	0.884988	0.037088	0.418704	-0.6915	0.321	0.303	0	204	245	3
2026-02-19	12:54:23.950	20.65	12.495	-11.865	0.893772	0.036356	0.40626	-0.687	0.3195	0.2985	0	204	245	3
2026-02-19	12:54:23.970	27.685	8.68	-11.13	0.946232	0.05856	0.403576	-0.6885	0.3135	0.3015	0	204	245	3
2026-02-19	12:54:23.990	31.71	6.02	-10.71	0.976	0.078568	0.432124	-0.6945	0.3105	0.2985	0	204	245	3
2026-02-19	12:54:24.010	27.895	3.115	-10.115	0.968924	0.054656	0.456036	-0.69	0.3045	0.3	0	211	270	3
2026-02-19	12:54:24.030	24.815	0.455	-10.815	0.936228	0.054168	0.453596	-0.6855	0.303	0.303	0	211	270	3
2026-02-19	12:54:24.050	19.775	-3.36	-12.18	0.948916	0.064904	0.436516	-0.6855	0.3015	0.3	0	211	270	3
2026-02-19	12:54:24.070	10.325	-7.91	-12.81	0.970876	0.05368	0.43066	-0.6885	0.3	0.2985	0	211	270	3
2026-02-19	12:54:24.090	-2.065	-12.18	-14	0.972828	0.038552	0.448716	-0.6915	0.3015	0.2985	0	211	270	3
2026-02-19	12:54:24.110	-12.775	-14.77	-16.17	0.969656	0.016592	0.447496	-0.6915	0.3015	0.2985	0	211	270	3
2026-02-19	12:54:24.130	-17.115	-14.7	-17.185	0.984784	0.009028	0.452864	-0.687	0.2895	0.306	0	211	270	3
2026-02-19	12:54:24.150	-19.67	-12.81	-17.43	0.997228	0.020252	0.450668	-0.6885	0.291	0.3135	0	211	270	3
2026-02-19	12:54:24.170	-23.065	-10.815	-17.36	0.99186	0.014396	0.43676	-0.69	0.291	0.3075	0	211	270	3
2026-02-19	12:54:24.190	-23.555	-9.065	-16.66	1.014552	0.00366	0.408944	-0.6885	0.2895	0.3075	0	211	270	3
2026-02-19	12:54:24.210	-22.05	-7.525	-14.35	1.11142	0.019764	0.427976	-0.6885	0.2835	0.309	0	213	306	3
2026-02-19	12:54:24.230	-23.765	-1.61	-10.22	1.128012	0.002684	0.485072	-0.6885	0.282	0.3105	0	213	306	3
2026-02-19	12:54:24.250	-21.98	8.225	-10.465	1.070428	-0.004148	0.458476	-0.6855	0.285	0.3105	0	213	306	3
2026-02-19	12:54:24.270	-14.7	17.01	-13.51	1.024312	-0.013664	0.396988	-0.678	0.2895	0.3075	0	213	306	3
2026-02-19	12:54:24.290	-1.365	25.62	-17.465	0.970144	-0.027084	0.335744	-0.6735	0.291	0.3045	0	213	306	3
2026-02-19	12:54:24.310	18.165	31.64	-22.645	0.9577	-0.021228	0.329156	-0.681	0.285	0.3015	0	213	306	3
2026-02-19	12:54:24.330	35.175	35.105	-27.265	0.970632	0.002196	0.32574	-0.6795	0.2805	0.2985	0	213	306	3
2026-02-19	12:54:24.350	52.255	36.82	-31.43	0.96502	0.021228	0.331596	-0.669	0.2745	0.2985	0	213	306	3
2026-02-19	12:54:24.370	75.845	38.85	-36.68	0.939888	0.074908	0.349652	-0.6645	0.273	0.2985	0	213	306	3
2026-02-19	12:54:24.390	104.195	39.235	-40.215	0.929152	0.14152	0.351116	-0.6645	0.273	0.2985	0	213	306	3
2026-02-19	12:54:24.410	128.52	38.185	-40.215	0.96258	0.219112	0.367464	-0.654	0.2445	0.2955	0	210	339	3
2026-02-19	12:54:24.430	141.015	41.79	-41.86	0.955992	0.395036	0.400648	-0.645	0.225	0.306	0	210	339	3
2026-02-19	12:54:24.450	121.59	44.17	-46.375	0.880352	0.51606	0.41114	-0.6405	0.213	0.3105	0	210	339	3
2026-02-19	12:54:24.470	78.82	40.39	-50.82	0.807152	0.523868	0.376248	-0.636	0.201	0.3135	0	210	339	3
2026-02-19	12:54:24.490	39.025	33.53	-55.44	0.738832	0.521672	0.318176	-0.633	0.1965	0.312	0	210	339	3
2026-02-19	12:54:24.510	11.585	23.73	-58.73	0.698084	0.529968	0.321348	-0.6225	0.1905	0.3135	0	210	339	3
2026-02-19	12:54:24.530	-9.765	13.685	-59.885	0.69906	0.541924	0.368684	-0.6075	0.1845	0.3135	0	210	339	3
2026-02-19	12:54:24.550	-21.595	5.81	-62.37	0.685884	0.509716	0.406016	-0.6	0.1755	0.309	0	210	339	3
2026-02-19	12:54:24.570	-27.125	-0.665	-65.625	0.689788	0.485316	0.41358	-0.597	0.168	0.309	0	210	339	3
2026-02-19	12:54:24.590	-29.155	-6.125	-68.18	0.812764	0.487512	0.41114	-0.591	0.165	0.309	0	210	339	3
2026-02-19	12:54:24.610	-28.035	-8.75	-70.175	0.805444	0.482632	0.390644	-0.5835	0.1635	0.3075	0	207	357	3
2026-02-19	12:54:24.630	-22.085	-10.99	-74.165	0.751764	0.505568	0.348188	-0.576	0.1605	0.303	0	207	357	3
2026-02-19	12:54:24.650	-20.79	-21.735	-80.22	0.78812	0.48556	0.296948	-0.57	0.15	0.306	0	207	357	3
2026-02-19	12:54:24.670	-19.95	-36.015	-83.685	0.829844	0.424316	0.288896	-0.567	0.1455	0.3135	0	207	357	3
2026-02-19	12:54:24.690	-14.245	-43.785	-81.06	0.809836	0.41602	0.310124	-0.5415	0.1365	0.2985	0	207	357	3
2026-02-19	12:54:24.710	-15.26	-48.125	-75.04	0.826184	0.446032	0.377956	-0.5445	0.1335	0.3015	0	207	357	3
2026-02-19	12:54:24.730	-37.065	-44.52	-67.025	0.880596	0.53192	0.4209	-0.5355	0.135	0.2985	0	207	357	3
2026-02-19	12:54:24.750	-73.08	-37.73	-58.03	0.919392	0.548268	0.342576	-0.528	0.129	0.306	0	207	357	3
2026-02-19	12:54:24.770	-92.05	-30.45	-49.945	0.880108	0.484584	0.257664	-0.534	0.1305	0.2955	0	207	357	3
2026-02-19	12:54:24.790	-91.7	-24.22	-43.33	0.851072	0.475312	0.19154	-0.516	0.129	0.294	0	207	357	3
2026-02-19	12:54:24.810	-83.265	-21.91	-37.555	0.85888	0.455548	0.152256	-0.5175	0.1305	0.285	0	205	361	3
2026-02-19	12:54:24.830	-66.5	-23.45	-31.675	0.907924	0.400404	0.148108	-0.516	0.1335	0.2745	0	205	361	3
2026-02-19	12:54:24.850	-36.54	-23.66	-26.705	0.848876	0.355996	0.161284	-0.5085	0.138	0.2685	0	205	361	3
2026-02-19	12:54:24.870	-10.395	-26.425	-21.7	0.846924	0.37576	0.193248	-0.51	0.1365	0.2655	0	205	361	3
2026-02-19	12:54:24.890	-0.735	-29.26	-15.05	0.956236	0.399428	0.264496	-0.5145	0.1365	0.2655	0	205	361	3
2026-02-19	12:54:24.910	-5.075	-25.305	-7.77	0.943548	0.403088	0.305244	-0.513	0.138	0.2685	0	205	361	3
2026-02-19	12:54:24.930	-20.615	-19.145	-1.085	0.923052	0.403088	0.257908	-0.5115	0.1395	0.2715	0	205	361	3
2026-02-19	12:54:24.950	-48.79	-16.03	10.115	0.958676	0.35624	0.119804	-0.513	0.144	0.2715	0	205	361	3
2026-02-19	12:54:24.970	-58.625	-17.745	17.045	0.946964	0.291092	0.07686	-0.516	0.1455	0.2625	0	205	361	3
2026-02-19	12:54:24.990	-65.275	-22.05	24.885	0.99064	0.230092	0.044652	-0.519	0.144	0.2625	0	205	361	3
2026-02-19	12:54:25.010	-61.11	-27.3	35.42	1.049444	0.177632	0.027572	-0.525	0.1545	0.255	0	205	342	3
2026-02-19	12:54:25.030	-48.65	-33.915	47.53	1.114836	0.186904	0.042944	-0.5355	0.159	0.2475	0	205	342	3
2026-02-19	12:54:25.050	-40.285	-42.35	57.435	1.153632	0.192516	0.085644	-0.537	0.174	0.2505	0	205	342	3
2026-02-19	12:54:25.070	-42.49	-51.695	65.1	1.183888	0.183732	0.143716	-0.549	0.177	0.2505	0	205	342	3
2026-02-19	12:54:25.090	-52.29	-60.585	71.225	1.196088	0.182512	0.238632	-0.558	0.183	0.2475	0	205	342	3
2026-02-19	12:54:25.110	-71.12	-65.905	74.13	1.178032	0.18788	0.341112	-0.567	0.189	0.252	0	205	342	3
2026-02-19	12:54:25.130	-94.29	-68.775	74.025	1.152656	0.15128	0.353068	-0.579	0.2025	0.252	0	205	342	3
2026-02-19	12:54:25.150	-109.83	-71.365	70.665	1.138748	0.117852	0.298656	-0.591	0.216	0.2475	0	205	342	3
2026-02-19	12:54:25.170	-119.14	-73.045	65.87	1.171688	0.119804	0.2806	-0.6075	0.2325	0.249	0	205	342	3
2026-02-19	12:54:25.190	-128.345	-70.105	61.88	1.178764	0.102236	0.271084	-0.6195	0.243	0.249	0	205	342	3
2026-02-19	12:54:25.210	-129.745	-64.19	56.665	1.186572	0.073932	0.22326	-0.6255	0.255	0.2505	0	205	309	3
2026-02-19	12:54:25.230	-93.52	-51.1	49	1.180716	-0.033184	0.15372	-0.6285	0.267	0.2535	0	205	309	3
2026-02-19	12:54:25.250	-50.645	-39.83	45.29	1.130452	-0.06954	0.165188	-0.651	0.3045	0.2535	0	205	309	3
2026-02-19	12:54:25.270	-8.96	-29.12	43.645	1.081896	-0.072712	0.196176	-0.654	0.318	0.255	0	205	309	3
2026-02-19	12:54:25.290	29.61	-20.72	42.175	1.031876	-0.049532	0.220332	-0.6615	0.3285	0.258	0	205	309	3
2026-02-19	12:54:25.310	61.985	-12.635	39.095	0.96746	-0.004148	0.22204	-0.663	0.3255	0.258	0	205	309	3
2026-02-19	12:54:25.330	84.035	-5.53	35.28	0.913292	0.030744	0.218868	-0.6675	0.3285	0.267	0	205	309	3
2026-02-19	12:54:25.350	96.25	-0.77	32.76	0.909388	0.051972	0.251076	-0.672	0.324	0.2775	0	205	309	3
2026-02-19	12:54:25.370	99.47	4.585	31.955	0.907924	0.0793	0.27694	-0.675	0.3195	0.2805	0	205	309	3
2026-02-19	12:54:25.390	97.72	9.625	29.785	0.908656	0.107848	0.27206	-0.6735	0.3195	0.2775	0	205	309	3
2026-02-19	12:54:25.410	92.575	12.53	26.285	0.893284	0.116632	0.242292	-0.672	0.3135	0.282	0	208	282	3
2026-02-19	12:54:25.430	83.79	13.44	22.61	0.854	0.115656	0.239364	-0.669	0.306	0.2865	0	208	282	3
2026-02-19	12:54:25.450	71.435	11.235	19.915	0.848632	0.10492	0.272548	-0.6675	0.306	0.2865	0	208	282	3
2026-02-19	12:54:25.470	59.885	7.84	18.9	0.8601	0.08784	0.326472	-0.6705	0.3015	0.2895	0	208	282	3
2026-02-19	12:54:25.490	50.575	6.02	18.935	0.885232	0.0915	0.360876	-0.672	0.2925	0.294	0	208	282	3
2026-02-19	12:54:25.510	31.325	5.495	18.585	0.863272	0.088328	0.374052	-0.672	0.288	0.2955	0	208	282	3
2026-02-19	12:54:25.530	17.71	5.145	17.465	0.833504	0.076616	0.385764	-0.672	0.288	0.2955	0	208	282	3
2026-02-19	12:54:25.550	7.665	5.075	16.1	0.819108	0.0671	0.380396	-0.6825	0.297	0.291	0	208	282	3
2026-02-19	12:54:25.570	0.49	4.585	15.575	0.823988	0.042212	0.37332	-0.675	0.3045	0.2985	0	208	282	3
2026-02-19	12:54:25.590	-1.05	4.025	15.645	0.819596	0.027572	0.364536	-0.6795	0.303	0.3	0	208	282	3
2026-02-19	12:54:25.610	1.12	2.975	15.995	0.865224	0.019032	0.366732	-0.6735	0.3045	0.3015	0	209	274	3
2026-02-19	12:54:25.630	3.71	1.995	17.395	0.904508	0.009516	0.363804	-0.6705	0.3075	0.291	0	209	274	3
2026-02-19	12:54:25.650	9.625	2.625	18.445	0.90036	0.004636	0.38186	-0.675	0.3015	0.294	0	209	274	3
2026-02-19	12:54:25.670	13.65	4.13	18.655	0.901824	0.013908	0.403332	-0.6765	0.318	0.2955	0	209	274	3
2026-02-19	12:54:25.690	14.49	5.53	17.43	0.909388	0.027084	0.408212	-0.678	0.3195	0.288	0	209	274	3
2026-02-19	12:54:25.710	13.93	7.245	14.805	0.918172	0.01708	0.407724	-0.681	0.3195	0.2955	0	209	274	3
2026-02-19	12:54:25.730	14.035	9.17	11.76	0.93696	0.016592	0.402356	-0.6825	0.3165	0.297	0	209	274	3
2026-02-19	12:54:25.750	17.43	12.11	8.82	0.93818	0.009516	0.383568	-0.681	0.3165	0.2985	0	209	274	3
2026-02-19	12:54:25.770	23.1	14.385	6.055	0.94306	0.005856	0.37454	-0.6795	0.3165	0.3	0	209	274	3
2026-02-19	12:54:25.790	30.66	15.855	2.73	0.947208	0.028304	0.381616	-0.6825	0.315	0.3015	0	209	274	3
2026-02-19	12:54:25.810	31.535	16.17	-0.105	0.926468	0.04148	0.394304	-0.6825	0.315	0.3015	0	209	288	2
2026-02-19	12:54:25.830	28.385	15.155	-3.01	0.91134	0.048312	0.39284	-0.6765	0.3045	0.291	0	209	288	2
2026-02-19	12:54:25.850	23.24	13.09	-4.935	0.93574	0.039528	0.404552	-0.6735	0.312	0.297	0	209	288	2
2026-02-19	12:54:25.870	17.29	10.78	-5.705	0.985516	0.038308	0.413092	-0.672	0.3045	0.2955	0	209	288	2
2026-02-19	12:54:25.890	14.315	9.415	-5.88	1.005524	0.034404	0.415776	-0.669	0.3	0.2895	0	209	288	2
2026-02-19	12:54:25.910	12.425	8.68	-5.565	1.009916	0.044164	0.41114	-0.675	0.2985	0.2865	0	209	288	2
2026-02-19	12:54:25.930	8.365	7.035	-5.425	1.030168	0.038552	0.402356	-0.669	0.2985	0.2955	0	209	288	2
2026-02-19	12:54:25.950	6.265	6.825	-6.125	1.038952	0.025864	0.39162	-0.6735	0.2985	0.288	0	209	288	2
2026-02-19	12:54:25.970	7	7.665	-8.155	1.028948	0.009028	0.375516	-0.672	0.2985	0.2895	0	209	288	2
2026-02-19	12:54:25.990	10.29	8.19	-10.395	0.9943	-0.003416	0.374052	-0.669	0.288	0.2955	0	209	288	2
2026-02-19	12:54:26.010	15.575	7.35	-12.88	0.991372	0.019276	0.365024	-0.669	0.288	0.2955	0	204	313	3
2026-02-19	12:54:26.030	17.5	5.845	-13.265	1.011136	0.011224	0.3477	-0.666	0.2925	0.2925	0	204	313	3
2026-02-19	12:54:26.050	22.505	3.115	-11.69	1.047492	0.012932	0.344772	-0.6645	0.294	0.2895	0	204	313	3
2026-02-19	12:54:26.070	27.16	1.12	-7.7	1.033096	0.022448	0.36356	-0.666	0.2895	0.2895	0	204	313	3
2026-02-19	12:54:26.090	25.725	-0.315	-4.935	1.00284	0.038552	0.362584	-0.666	0.2895	0.2895	0	204	313	3
2026-02-19	12:54:26.110	23.1	-0.49	-3.885	1.015284	0.04758	0.340868	-0.6705	0.2835	0.288	0	204	313	3
2026-02-19	12:54:26.130	21.42	0.49	-3.605	1.006988	0.04636	0.325008	-0.6705	0.273	0.2955	0	204	313	3
2026-02-19	12:54:26.150	22.05	2.38	-5.915	0.963556	0.049532	0.305976	-0.6615	0.2805	0.291	0	204	313	3
2026-02-19	12:54:26.170	24.64	3.255	-9.485	0.929884	0.029524	0.292556	-0.6675	0.279	0.291	0	204	313	3
2026-02-19	12:54:26.190	32.725	3.045	-10.605	0.925248	0.019764	0.27938	-0.663	0.267	0.306	0	204	313	3
2026-02-19	12:54:26.210	46.34	2.52	-9.31	0.914024	0.048556	0.295728	-0.6585	0.273	0.291	0	195	333	3
2026-02-19	12:54:26.230	60.585	1.61	-8.435	0.900116	0.084912	0.326716	-0.669	0.267	0.306	0	195	333	3
2026-02-19	12:54:26.250	73.99	1.05	-9.03	0.883768	0.114924	0.35746	-0.6675	0.2625	0.3	0	195	333	3
2026-02-19	12:54:26.270	87.535	2.345	-9.905	0.8601	0.18178	0.377224	-0.6645	0.264	0.312	0	195	333	3
2026-02-19	12:54:26.290	97.685	3.045	-10.57	0.879864	0.244244	0.3843	-0.666	0.2535	0.3165	0	195	333	3
2026-02-19	12:54:26.310	102.62	5.075	-11.095	0.9272	0.319396	0.387716	-0.6615	0.2355	0.327	0	195	333	3
2026-02-19	12:54:26.330	103.53	9.065	-14.7	0.900848	0.375516	0.371124	-0.66	0.234	0.3285	0	195	333	3
2026-02-19	12:54:26.350	96.845	11.515	-23.03	0.81496	0.470676	0.345504	-0.6585	0.231	0.3375	0	195	333	3
2026-02-19	12:54:26.370	85.61	8.75	-31.08	0.780312	0.52582	0.321348	-0.6585	0.2295	0.3435	0	195	333	3
2026-02-19	12:54:26.390	74.97	4.34	-36.015	0.787632	0.555832	0.329156	-0.6495	0.204	0.3465	0	195	333	3
2026-02-19	12:54:26.410	67.2	0.84	-39.935	0.77836	0.588284	0.360632	-0.648	0.201	0.3555	0	186	343	3
2026-02-19	12:54:26.430	53.445	-0.385	-42.385	0.826428	0.632448	0.415532	-0.639	0.1965	0.36	0	186	343	3
2026-02-19	12:54:26.450	35.07	2.1	-44.695	0.83692	0.664168	0.416264	-0.651	0.189	0.363	0	186	343	3
2026-02-19	12:54:26.470	21.49	3.395	-50.75	0.827648	0.662948	0.34892	-0.63	0.186	0.3615	0	186	343	3
2026-02-19	12:54:26.490	15.715	0.175	-58.975	0.792024	0.62708	0.28426	-0.645	0.174	0.369	0	186	343	3
2026-02-19	12:54:26.510	12.95	-7.105	-67.48	0.79178	0.629276	0.304268	-0.633	0.162	0.366	0	186	343	3
2026-02-19	12:54:26.530	3.99	-13.825	-75.355	0.81618	0.650992	0.360144	-0.6225	0.1605	0.3645	0	186	343	3
2026-02-19	12:54:26.550	-14.315	-17.955	-83.545	0.791536	0.674172	0.36844	-0.6225	0.15	0.3735	0	186	343	3
2026-02-19	12:54:26.570	-40.04	-20.72	-90.825	0.789584	0.660508	0.354532	-0.6075	0.1425	0.3765	0	186	343	3
2026-02-19	12:54:26.590	-69.895	-20.02	-93.275	0.929152	0.649284	0.338184	-0.603	0.1365	0.3675	0	186	343	3
2026-02-19	12:54:26.610	-93.205	-14.35	-91.875	0.966484	0.609024	0.296704	-0.5835	0.132	0.3645	0	182	346	3
2026-02-19	12:54:26.630	-104.965	-6.44	-90.125	0.89792	0.562176	0.210572	-0.57	0.126	0.348	0	182	346	3
2026-02-19	12:54:26.650	-104.51	-3.92	-86.625	0.926224	0.490684	0.164456	-0.57	0.126	0.348	0	182	346	3
2026-02-19	12:54:26.670	-94.185	-3.325	-78.54	1.037	0.46848	0.184708	-0.564	0.123	0.321	0	182	346	3
2026-02-19	12:54:26.690	-77.665	1.225	-70.805	0.969412	0.432612	0.2013	-0.5475	0.1185	0.3075	0	182	346	3
2026-02-19	12:54:26.710	-69.3	3.22	-66.15	0.881572	0.414556	0.182756	-0.5415	0.1185	0.3045	0	182	346	3
2026-02-19	12:54:26.730	-67.095	2.1	-61.355	0.854732	0.391132	0.159332	-0.531	0.126	0.291	0	182	346	3
2026-02-19	12:54:26.750	-66.5	-1.225	-54.355	0.956236	0.391376	0.172996	-0.519	0.1125	0.2895	0	182	346	3
2026-02-19	12:54:26.770	-68.32	-3.08	-45.955	0.992104	0.346968	0.18422	-0.5175	0.126	0.276	0	182	346	3
2026-02-19	12:54:26.790	-68.6	-3.465	-39.06	0.923296	0.310368	0.181048	-0.5175	0.1275	0.2685	0	182	346	3
2026-02-19	12:54:26.810	-70.805	-6.51	-30.31	0.944036	0.30256	0.161284	-0.5055	0.129	0.261	0	183	334	3
2026-02-19	12:54:26.830	-71.645	-10.045	-19.39	1.011868	0.294264	0.136152	-0.504	0.123	0.2505	0	183	334	3
2026-02-19	12:54:26.850	-68.915	-13.79	-9.205	1.06506	0.235948	0.09516	-0.5055	0.1275	0.243	0	183	334	3
2026-02-19	12:54:26.870	-58.24	-17.185	-0.77	1.069208	0.172996	0.074176	-0.5085	0.138	0.2385	0	183	334	3
2026-02-19	12:54:26.890	-41.475	-19.495	5.67	0.992104	0.144448	0.08906	-0.501	0.144	0.2355	0	183	334	3
2026-02-19	12:54:26.910	-27.755	-26.285	14	1.048468	0.150792	0.115656	-0.5085	0.144	0.231	0	183	334	3
2026-02-19	12:54:26.930	-10.85	-35.7	28.56	1.00894	0.160064	0.144204	-0.5115	0.15	0.231	0	183	334	3
2026-02-19	12:54:26.950	-7.21	-45.535	37.66	1.072136	0.148108	0.139568	-0.5175	0.15	0.228	0	183	334	3
2026-02-19	12:54:26.970	-8.155	-53.62	49.805	1.135332	0.14518	0.20618	-0.531	0.156	0.2325	0	183	334	3
2026-02-19	12:54:26.990	-23.485	-57.19	61.705	1.1895	0.196664	0.329156	-0.5445	0.153	0.243	0	183	334	3
2026-02-19	12:54:27.010	-54.04	-57.89	68.215	1.231712	0.213988	0.360388	-0.549	0.1605	0.2325	0	187	304	3
2026-02-19	12:54:27.030	-80.85	-58.205	69.125	1.235372	0.146156	0.310612	-0.5625	0.168	0.2355	0	187	304	3
2026-02-19	12:54:27.050	-93.8	-58.31	69.65	1.255868	0.096624	0.265472	-0.5775	0.1875	0.2325	0	187	304	3
2026-02-19	12:54:27.070	-95.515	-57.4	70.105	1.24196	0.065636	0.221552	-0.5865	0.198	0.234	0	187	304	3
2026-02-19	12:54:27.090	-84.245	-56.28	69.37	1.187304	0.044164	0.199836	-0.603	0.2205	0.2265	0	187	304	3
2026-02-19	12:54:27.110	-66.57	-55.09	68.81	1.17242	0.035136	0.232044	-0.612	0.231	0.234	0	187	304	3
2026-02-19	12:54:27.130	-46.9	-50.96	69.055	1.116056	0.027084	0.261568	-0.6225	0.249	0.2325	0	187	304	3
2026-02-19	12:54:27.150	-24.955	-46.97	69.195	1.052128	0.022448	0.26962	-0.6405	0.2595	0.231	0	187	304	3
2026-02-19	12:54:27.170	-1.575	-42.385	69.86	0.999668	0.035624	0.251808	-0.6465	0.267	0.246	0	187	304	3
2026-02-19	12:54:27.190	18.935	-38.955	70.28	0.985028	0.063928	0.242536	-0.654	0.267	0.246	0	187	304	3
2026-02-19	12:54:27.210	39.025	-35.77	70.07	0.958676	0.088084	0.260592	-0.66	0.279	0.252	0	193	279	3
2026-02-19	12:54:27.230	45.15	-33.67	69.51	0.921588	0.110532	0.260104	-0.66	0.279	0.252	0	193	279	3
2026-02-19	12:54:27.250	45.045	-31.535	69.405	0.920612	0.11346	0.277916	-0.6705	0.2895	0.27	0	193	279	3
2026-02-19	12:54:27.270	43.575	-28.21	70.07	0.945744	0.112972	0.29158	-0.6855	0.2985	0.2775	0	193	279	3
2026-02-19	12:54:27.290	42	-22.4	70.14	0.920856	0.110288	0.2928	-0.693	0.3075	0.2775	0	193	279	3
2026-02-19	12:54:27.310	42.21	-18.13	69.72	0.880596	0.106628	0.259128	-0.705	0.303	0.2865	0	193	279	3
2026-02-19	12:54:27.330	45.43	-17.78	69.44	0.901336	0.099308	0.248392	-0.702	0.3105	0.294	0	193	279	3
2026-02-19	12:54:27.350	49.805	-16.94	69.195	0.90768	0.102236	0.275232	-0.696	0.3225	0.2895	0	193	279	3
2026-02-19	12:54:27.370	51.45	-14.385	66.99	0.885232	0.116144	0.321348	-0.711	0.3255	0.3	0	193	279	3
2026-02-19	12:54:27.390	48.895	-13.09	63.385	0.88938	0.112972	0.338916	-0.7155	0.3315	0.303	0	193	279	3
2026-02-19	12:54:27.410	46.76	-11.06	59.15	0.891332	0.109556	0.352092	-0.717	0.3345	0.309	0	198	268	3
2026-02-19	12:54:27.430	43.225	-7.49	54.32	0.91012	0.100772	0.366488	-0.726	0.3345	0.312	0	198	268	3
2026-02-19	12:54:27.450	41.335	-3.815	48.93	0.9089	0.094916	0.34648	-0.723	0.345	0.312	0	198	268	3
2026-02-19	12:54:27.470	42.525	-1.925	41.545	0.897432	0.083936	0.33428	-0.7215	0.3435	0.315	0	198	268	3
2026-02-19	12:54:27.490	39.515	0.945	29.015	0.914268	0.082716	0.374784	-0.7275	0.3525	0.315	0	198	268	3
2026-02-19	12:54:27.510	35.035	3.92	20.58	0.913048	0.071004	0.388448	-0.7245	0.351	0.321	0	198	268	3
2026-02-19	12:54:27.530	34.02	6.44	12.53	0.910852	0.056608	0.371368	-0.723	0.3495	0.327	0	198	268	3
2026-02-19	12:54:27.550	35.875	7.665	5.39	0.92354	0.0549	0.362584	-0.726	0.3525	0.327	0	198	268	3
2026-02-19	12:54:27.570	34.86	9.31	-0.98	0.954528	0.059536	0.402844	-0.735	0.357	0.3225	0	198	268	3
2026-02-19	12:54:27.590	29.855	12.565	-6.615	0.985272	0.027816	0.422852	-0.735	0.354	0.3255	0	198	268	3
2026-02-19	12:54:27.610	31.045	16.38	-11.9	0.997472	0.000732	0.402356	-0.7245	0.354	0.3285	0	199	277	3
2026-02-19	12:54:27.630	37.73	20.125	-16.345	0.977464	0.006832	0.390156	-0.726	0.342	0.3255	0	199	277	3
2026-02-19	12:54:27.650	40.18	22.61	-20.965	0.935984	0.031964	0.39284	-0.7245	0.342	0.3225	0	199	277	3
2026-02-19	12:54:27.670	35.14	22.645	-26.32	0.916708	0.034648	0.412848	-0.726	0.3405	0.318	0	199	277	3
2026-02-19	12:54:27.690	28.455	22.47	-30.975	0.94062	0.013664	0.413824	-0.7215	0.336	0.318	0	199	277	3
2026-02-19	12:54:27.710	26.495	22.225	-32.725	0.964532	-0.002196	0.390644	-0.72	0.333	0.315	0	199	277	3
2026-02-19	12:54:27.730	28.42	22.05	-33.32	0.957944	0.003172	0.383568	-0.714	0.3225	0.3075	0	199	277	3
2026-02-19	12:54:27.750	28.105	19.04	-32.62	0.986492	0.005856	0.38796	-0.7065	0.3105	0.3135	0	199	277	3
2026-02-19	12:54:27.770	25.935	15.365	-29.96	0.966972	0.013176	0.414556	-0.708	0.3045	0.312	0	199	277	3
2026-02-19	12:54:27.790	20.09	12.25	-26.915	0.950868	0.028304	0.433588	-0.7065	0.3	0.3075	0	199	277	3
2026-02-19	12:54:27.810	13.615	9.065	-24.29	0.958676	0.03172	0.419192	-0.702	0.294	0.303	0	197	300	3
2026-02-19	12:54:27.830	7.875	6.335	-21.98	0.960872	0.035624	0.402356	-0.7035	0.291	0.306	0	197	300	3
2026-02-19	12:54:27.850	1.96	3.85	-19.915	0.953064	-0.000244	0.393328	-0.708	0.291	0.3105	0	197	300	3
2026-02-19	12:54:27.870	-0.35	1.085	-17.395	0.928908	-0.019032	0.383568	-0.699	0.2895	0.2985	0	197	300	3
2026-02-19	12:54:27.890	0.91	-1.925	-14.7	0.953796	-0.00366	0.379176	-0.6975	0.282	0.3	0	197	300	3
2026-02-19	12:54:27.910	1.855	-4.97	-10.5	1.010892	0.013176	0.375516	-0.696	0.2865	0.3	0	197	300	3
2026-02-19	12:54:27.930	1.645	-7.315	-5.53	1.073112	0.032208	0.384544	-0.69	0.288	0.3015	0	197	300	3
2026-02-19	12:54:27.950	-0.49	-6.93	-1.645	1.089704	0.041724	0.412604	-0.699	0.279	0.303	0	197	300	3
2026-02-19	12:54:27.970	-4.865	-3.64	-0.875	1.081164	0.040992	0.406992	-0.7065	0.276	0.297	0	197	300	3
2026-02-19	12:54:27.990	-6.3	0.7	-3.115	1.04066	0.02806	0.3599	-0.699	0.273	0.3045	0	197	300	3
2026-02-19	12:54:28.010	4.2	7.35	-8.61	0.959408	0.0122	0.301584	-0.699	0.273	0.3045	0	191	326	3
2026-02-19	12:54:28.030	14.07	9.625	-12.285	0.913048	0.005612	0.27694	-0.6945	0.2715	0.2925	0	191	326	3
2026-02-19	12:54:28.050	29.855	9.8	-17.99	0.879132	0.031476	0.262788	-0.699	0.276	0.297	0	191	326	3
2026-02-19	12:54:28.070	46.375	7	-22.12	0.840824	0.0488	0.2745	-0.699	0.276	0.297	0	191	326	3
2026-02-19	12:54:28.090	60.025	5.075	-23.1	0.821548	0.069296	0.302804	-0.6915	0.27	0.3	0	191	326	3
2026-02-19	12:54:28.110	73.465	2.52	-21.42	0.810568	0.110776	0.310856	-0.6855	0.258	0.3045	0	191	326	3
2026-02-19	12:54:28.130	84.56	-0.56	-17.675	0.847412	0.172752	0.310124	-0.6855	0.246	0.309	0	191	326	3
2026-02-19	12:54:28.150	88.375	-2.17	-12.81	0.893772	0.261324	0.345504	-0.684	0.24	0.312	0	191	326	3
2026-02-19	12:54:28.170	91.665	-1.12	-10.745	0.933056	0.361852	0.392108	-0.684	0.234	0.318	0	191	326	3
2026-02-19	12:54:28.190	92.015	2.415	-12.145	0.948672	0.438956	0.409432	-0.6885	0.228	0.3315	0	191	326	3
2026-02-19	12:54:28.210	79.87	6.055	-15.54	0.96136	0.496052	0.399428	-0.6915	0.219	0.3255	0	183	341	3
2026-02-19	12:54:28.230	61.215	8.47	-21.84	0.922564	0.516548	0.356728	-0.69	0.2205	0.3315	0	183	341	3
2026-02-19	12:54:28.250	43.225	7.245	-30.52	0.87596	0.530944	0.321348	-0.6885	0.2145	0.3375	0	183	341	3
2026-02-19	12:54:28.270	27.37	2.485	-39.865	0.90158	0.543632	0.32818	-0.678	0.2055	0.348	0	183	341	3
2026-02-19	12:54:28.290	13.93	-2.38	-49.595	0.909632	0.545584	0.354532	-0.678	0.1965	0.345	0	183	341	3
2026-02-19	12:54:28.310	1.47	-5.95	-60.515	0.86986	0.522404	0.361608	-0.675	0.195	0.351	0	183	341	3
2026-02-19	12:54:28.330	-7.07	-10.955	-73.535	0.818376	0.471652	0.348432	-0.6735	0.1905	0.3465	0	183	341	3
2026-02-19	12:54:28.350	-7.91	-15.155	-81.445	0.812032	0.482632	0.34648	-0.663	0.1785	0.345	0	183	341	3
2026-02-19	12:54:28.370	-10.395	-17.43	-84.21	0.839604	0.560468	0.374052	-0.651	0.159	0.3405	0	183	341	3
2026-02-19	12:54:28.390	-28.385	-18.515	-86.765	0.845216	0.621712	0.383568	-0.642	0.1485	0.342	0	183	341	3
2026-02-19	12:54:28.410	-59.15	-18.55	-88.97	0.856196	0.607072	0.366244	-0.6315	0.147	0.3435	0	179	347	3
2026-02-19	12:54:28.430	-83.86	-16.03	-89.81	0.9089	0.58804	0.350872	-0.6225	0.1425	0.336	0	179	347	3
2026-02-19	12:54:28.450	-97.44	-8.085	-90.615	0.933788	0.618784	0.339892	-0.6165	0.1365	0.333	0	179	347	3
2026-02-19	12:54:28.470	-106.085	0.735	-92.05	0.913048	0.598532	0.299388	-0.609	0.132	0.321	0	179	347	3
2026-02-19	12:54:28.490	-102.48	8.19	-94.15	0.870104	0.541436	0.282064	-0.597	0.1275	0.306	0	179	347	3
2026-02-19	12:54:28.510	-89.005	14.84	-93.765	0.920368	0.503372	0.303536	-0.588	0.1275	0.288	0	179	347	3
2026-02-19	12:54:28.530	-71.33	22.225	-90.02	0.910852	0.505324	0.316712	-0.5805	0.1185	0.2775	0	179	347	3
2026-02-19	12:54:28.550	-55.23	26.705	-88.34	0.834724	0.50142	0.28304	-0.561	0.117	0.267	0	179	347	3
2026-02-19	12:54:28.570	-47.74	24.535	-87.885	0.786412	0.468968	0.27084	-0.5475	0.111	0.2535	0	179	347	3
2026-02-19	12:54:28.590	-45.045	18.9	-81.935	0.863272	0.46848	0.323056	-0.534	0.1185	0.252	0	179	347	3
2026-02-19	12:54:28.610	-45.71	17.045	-70.175	0.928176	0.509472	0.360632	-0.5085	0.108	0.2355	0	179	347	3
2026-02-19	12:54:28.630	-53.235	13.265	-56.28	0.911096	0.430172	0.243268	-0.5085	0.108	0.2355	0	179	347	3
2026-02-19	12:54:28.650	-54.705	8.505	-46.62	0.864492	0.372832	0.191052	-0.4995	0.1095	0.2295	0	179	347	3
2026-02-19	12:54:28.670	-55.265	1.085	-34.055	0.884988	0.358436	0.198616	-0.4845	0.114	0.2175	0	179	347	3
2026-02-19	12:54:28.690	-55.23	-7.07	-20.055	0.914512	0.331108	0.19886	-0.4815	0.1125	0.21	0	179	347	3
2026-02-19	12:54:28.710	-55.125	-15.82	-5.635	0.958432	0.29402	0.177388	-0.483	0.117	0.2085	0	179	347	3
2026-02-19	12:54:28.730	-51.765	-24.71	11.2	0.988688	0.248636	0.153964	-0.4785	0.1245	0.1965	0	179	347	3
2026-02-19	12:54:28.750	-43.995	-33.67	32.41	1.007232	0.227408	0.13054	-0.4815	0.129	0.1875	0	179	347	3
2026-02-19	12:54:28.770	-36.47	-43.505	53.13	1.018212	0.225944	0.11102	-0.483	0.135	0.1875	0	179	347	3
2026-02-19	12:54:28.790	-29.82	-55.02	69.195	0.977708	0.165676	0.111996	-0.4995	0.138	0.1905	0	179	347	3
2026-02-19	12:54:28.810	-27.93	-66.22	80.15	0.978196	0.15738	0.223016	-0.5025	0.1455	0.192	0	180	333	2
2026-02-19	12:54:28.830	-44.345	-73.92	89.04	1.051396	0.234484	0.342576	-0.5205	0.147	0.198	0	180	333	2
2026-02-19	12:54:28.850	-73.43	-78.995	91.07	1.059204	0.237656	0.37942	-0.5415	0.1545	0.1875	0	180	333	2
2026-02-19	12:54:28.870	-100.065	-84.175	86.24	1.058472	0.18788	0.33794	-0.561	0.174	0.1905	0	180	333	2
2026-02-19	12:54:28.890	-115.045	-87.15	79.695	1.091656	0.130052	0.29036	-0.57	0.195	0.1875	0	180	333	2
2026-02-19	12:54:28.910	-121.765	-83.265	75.705	1.209996	0.10004	0.280356	-0.5895	0.21	0.1905	0	180	333	2
2026-02-19	12:54:28.930	-121.625	-73.29	73.78	1.216096	0.066856	0.282064	-0.609	0.2295	0.1905	0	180	333	2
2026-02-19	12:54:28.950	-110.215	-61.425	70.315	1.164124	0.023668	0.2562	-0.6315	0.261	0.1905	0	180	333	2
2026-02-19	12:54:28.970	-85.26	-50.715	66.885	1.109468	-0.00976	0.2074	-0.6405	0.282	0.1935	0	180	333	2
2026-02-19	12:54:28.990	-48.37	-40.985	64.575	1.037976	-0.033428	0.165188	-0.6525	0.2955	0.198	0	180	333	2
2026-02-19	12:54:29.010	-9.66	-32.585	62.16	1.017724	-0.04514	0.176656	-0.6675	0.306	0.1995	0	183	312	3
2026-02-19	12:54:29.030	23.835	-24.115	59.535	0.980392	-0.046848	0.204716	-0.6735	0.315	0.2025	0	183	312	3
2026-02-19	12:54:29.050	54.075	-17.64	55.825	0.953064	-0.020984	0.218868	-0.6735	0.321	0.204	0	183	312	3
2026-02-19	12:54:29.070	75.425	-13.23	52.325	0.945256	0.020252	0.226432	-0.675	0.3225	0.204	0	183	312	3
2026-02-19	12:54:29.090	92.435	-9.415	49.665	0.942084	0.060268	0.225212	-0.6795	0.321	0.216	0	183	312	3
2026-02-19	12:54:29.110	104.86	-6.055	47.32	0.927444	0.0854	0.231556	-0.684	0.3255	0.222	0	183	312	3
2026-02-19	12:54:29.130	110.495	-3.605	45.36	0.904996	0.109556	0.257176	-0.6885	0.3255	0.219	0	183	312	3
2026-02-19	12:54:29.150	106.155	-0.63	43.75	0.875228	0.125172	0.300364	-0.6915	0.321	0.225	0	183	312	3
2026-02-19	12:54:29.170	95.305	2.695	42	0.868396	0.137616	0.305488	-0.696	0.3135	0.2355	0	183	312	3
2026-02-19	12:54:29.190	78.61	4.935	39.515	0.870104	0.13664	0.253272	-0.6945	0.3045	0.2415	0	183	312	3
2026-02-19	12:54:29.210	70.595	3.675	37.8	0.866444	0.129076	0.237168	-0.6975	0.3045	0.2445	0	187	293	3
2026-02-19	12:54:29.230	64.085	1.645	34.895	0.869128	0.11834	0.273524	-0.7005	0.303	0.2505	0	187	293	3
2026-02-19	12:54:29.250	58.59	-0.21	31.92	0.871812	0.093452	0.307684	-0.7035	0.3015	0.2535	0	187	293	3
2026-02-19	12:54:29.270	58.275	-1.575	29.19	0.862296	0.083692	0.313296	-0.7095	0.303	0.2595	0	187	293	3
2026-02-19	12:54:29.290	60.48	-4.585	27.58	0.894992	0.09857599	0.308416	-0.711	0.3045	0.264	0	187	293	3
2026-02-19	12:54:29.310	62.79	-7.735	27.055	0.915244	0.093208	0.32086	-0.7125	0.3015	0.264	0	187	293	3
2026-02-19	12:54:29.330	62.79	-10.325	26.425	0.904264	0.097356	0.36234	-0.7155	0.3	0.2685	0	187	293	3
2026-02-19	12:54:29.350	57.155	-12.95	26.25	0.92842	0.105652	0.39528	-0.717	0.297	0.27	0	187	293	3
2026-02-19	12:54:29.370	49.63	-14.035	25.655	0.909388	0.108092	0.404552	-0.7185	0.2925	0.27	0	187	293	3
2026-02-19	12:54:29.390	41.16	-14.77	24.01	0.881328	0.109312	0.39528	-0.7245	0.294	0.2805	0	187	293	3
2026-02-19	12:54:29.410	31.325	-16.905	22.435	0.900604	0.105164	0.400892	-0.7245	0.3015	0.2835	0	189	287	2
2026-02-19	12:54:29.430	20.16	-17.99	21.07	0.912072	0.091744	0.445056	-0.7245	0.2985	0.2895	0	189	287	2
2026-02-19	12:54:29.450	8.505	-17.43	19.88	0.935252	0.076372	0.44408	-0.7185	0.3015	0.294	0	189	287	2
2026-02-19	12:54:29.470	7.245	-15.855	17.99	0.990884	0.039772	0.421876	-0.7275	0.3015	0.2955	0	189	287	2
2026-02-19	12:54:29.490	12.355	-13.65	17.745	0.99552	0.027572	0.427244	-0.732	0.303	0.3	0	189	287	2
2026-02-19	12:54:29.510	16.415	-12.495	16.625	1.023336	0.038552	0.432124	-0.7365	0.306	0.3075	0	189	287	2
2026-02-19	12:54:29.530	19.88	-12.53	15.575	1.048956	0.018788	0.444568	-0.735	0.3045	0.3045	0	189	287	2
2026-02-19	12:54:29.550	25.095	-9.66	13.265	1.009184	0.016348	0.482388	-0.7395	0.306	0.3105	0	189	287	2
2026-02-19	12:54:29.570	25.095	-6.545	10.395	1.018212	0.025864	0.494588	-0.7425	0.3075	0.3165	0	189	287	2
2026-02-19	12:54:29.590	23.45	-3.255	7.28	1.030168	0.014152	0.484584	-0.744	0.3075	0.315	0	189	287	2
2026-02-19	12:54:29.610	25.83	0	5.04	1.050908	0.010248	0.447252	-0.7425	0.3105	0.3135	0	188	304	3
2026-02-19	12:54:29.630	29.54	3.045	2.73	1.052128	0.019764	0.438224	-0.7455	0.309	0.3105	0	188	304	3
2026-02-19	12:54:29.650	29.26	5.11	-0.35	1.027484	0.031232	0.432612	-0.7455	0.306	0.3135	0	188	304	3
2026-02-19	12:54:29.670	27.23	4.9	-2.975	1.059204	0.032696	0.408944	-0.7395	0.303	0.315	0	188	304	3
2026-02-19	12:54:29.690	26.53	3.99	-3.465	1.10288	0.045628	0.421632	-0.7395	0.3015	0.315	0	188	304	3
2026-02-19	12:54:29.710	24.01	4.62	-4.375	1.092876	0.066368	0.434076	-0.747	0.3045	0.321	0	188	304	3
2026-02-19	12:54:29.730	17.15	6.475	-7.735	1.022848	0.066612	0.437248	-0.741	0.2955	0.3195	0	188	304	3
2026-02-19	12:54:29.750	10.36	10.64	-15.33	0.883524	0.040504	0.4026	-0.747	0.3	0.3285	0	188	304	3
2026-02-19	12:54:29.770	8.085	13.16	-21.98	0.848388	0.0427	0.35868	-0.7425	0.2955	0.3225	0	188	304	3
2026-02-19	12:54:29.790	10.045	11.795	-22.89	0.930128	0.048068	0.343308	-0.735	0.288	0.318	0	188	304	3
2026-02-19	12:54:29.810	16.205	13.195	-23.065	0.931592	0.077836	0.345748	-0.7335	0.285	0.3195	0	184	333	3
2026-02-19	12:54:29.830	19.04	15.61	-23.45	0.907192	0.101748	0.362584	-0.7305	0.279	0.315	0	184	333	3
2026-02-19	12:54:29.850	20.44	19.985	-24.675	0.915488	0.147376	0.373076	-0.7275	0.273	0.315	0	184	333	3
2026-02-19	12:54:29.870	17.255	25.83	-27.3	0.949404	0.190808	0.349652	-0.7275	0.2715	0.3135	0	184	333	3
2026-02-19	12:54:29.890	15.33	30.03	-32.48	0.988444	0.216672	0.316712	-0.7215	0.2715	0.3045	0	184	333	3
2026-02-19	12:54:29.910	17.465	32.865	-40.39	0.961848	0.245952	0.298412	-0.714	0.2655	0.2985	0	184	333	3
2026-02-19	12:54:29.930	20.895	31.64	-48.755	0.940376	0.264008	0.310124	-0.7095	0.2565	0.2985	0	184	333	3
2026-02-19	12:54:29.950	26.04	30.345	-56.63	0.914756	0.304024	0.34526	-0.705	0.2505	0.2985	0	184	333	3
2026-02-19	12:54:29.970	20.02	31.255	-64.645	0.944036	0.388204	0.368196	-0.696	0.237	0.2955	0	184	333	3
2026-02-19	12:54:29.990	7.385	30.03	-70.245	0.938668	0.376736	0.303292	-0.6915	0.228	0.297	0	184	333	3
2026-02-19	12:54:30.010	6.3	26.18	-75.81	0.784948	0.345992	0.202032	-0.6915	0.228	0.297	0	179	351	3
2026-02-19	12:54:30.030	9.485	17.605	-78.995	0.752252	0.372832	0.149816	-0.6735	0.219	0.2895	0	179	351	3
2026-02-19	12:54:30.050	15.26	3.85	-80.885	0.83326	0.402844	0.091744	-0.6735	0.219	0.2895	0	179	351	3
2026-02-19	12:54:30.070	33.425	-6.93	-83.23	0.828624	0.391376	0.045872	-0.663	0.204	0.285	0	179	351	3
2026-02-19	12:54:30.090	52.29	-19.285	-85.47	0.871324	0.418216	0.006344	-0.651	0.177	0.2865	0	179	351	3
2026-02-19	12:54:30.110	61.425	-31.255	-87.465	0.94306	0.446032	0.077592	-0.645	0.162	0.297	0	179	351	3
2026-02-19	12:54:30.130	54.005	-37.45	-89.95	0.99796	0.438712	0.213012	-0.636	0.153	0.3075	0	179	351	3
2026-02-19	12:54:30.150	50.995	-35.875	-94.5	0.968436	0.422364	0.28914	-0.627	0.1395	0.321	0	179	351	3
2026-02-19	12:54:30.170	55.335	-31.78	-94.745	0.914024	0.419924	0.280356	-0.621	0.12	0.3255	0	179	351	3
2026-02-19	12:54:30.190	60.025	-31.22	-93.065	0.8784	0.44408	0.221796	-0.6105	0.105	0.33	0	179	351	3
2026-02-19	12:54:30.210	53.41	-32.34	-89.04	0.835456	0.511912	0.19764	-0.597	0.096	0.3465	0	177	339	3
2026-02-19	12:54:30.230	29.54	-35.455	-83.195	0.80154	0.561688	0.2196	-0.5895	0.0855	0.3555	0	177	339	3
2026-02-19	12:54:30.250	3.99	-36.96	-78.505	0.86864	0.62342	0.254736	-0.582	0.075	0.36	0	177	339	3
2026-02-19	12:54:30.270	-21.245	-34.23	-73.22	0.89914	0.597068	0.226432	-0.5745	0.0705	0.369	0	177	339	3
2026-02-19	12:54:30.290	-42.21	-31.57	-67.97	0.894016	0.536556	0.172508	-0.564	0.0645	0.366	0	177	339	3
2026-02-19	12:54:30.310	-52.815	-29.82	-59.15	0.883768	0.473604	0.123708	-0.555	0.0615	0.3615	0	177	339	3
2026-02-19	12:54:30.330	-52.465	-29.19	-47.355	0.948916	0.448716	0.099308	-0.555	0.0615	0.3615	0	177	339	3
2026-02-19	12:54:30.350	-47.145	-26.915	-36.155	0.986004	0.378932	0.077592	-0.5505	0.057	0.36	0	177	339	3
2026-02-19	12:54:30.370	-37.205	-24.43	-23.17	1.006256	0.340136	0.07124799	-0.5415	0.0495	0.3525	0	177	339	3
2026-02-19	12:54:30.390	-29.75	-22.295	-7.875	1.101904	0.342576	0.110532	-0.5355	0.0495	0.3465	0	177	339	3
2026-02-19	12:54:30.410	-27.93	-17.64	9.415	1.15656	0.321104	0.13908	-0.537	0.0465	0.339	0	177	308	3
2026-02-19	12:54:30.430	-30.94	-12.005	25.585	1.136552	0.319152	0.183	-0.54	0.0465	0.336	0	177	308	3
2026-02-19	12:54:30.450	-39.83	-8.96	40.565	1.17486	0.30378	0.186172	-0.5445	0.0525	0.3375	0	177	308	3
2026-02-19	12:54:30.470	-47.845	-8.05	54.355	1.131916	0.260104	0.190076	-0.5535	0.0585	0.3345	0	177	308	3
2026-02-19	12:54:30.490	-59.29	-10.465	63.805	1.098488	0.259372	0.203252	-0.558	0.066	0.3285	0	177	308	3
2026-02-19	12:54:30.510	-70.595	-17.71	70.805	1.121424	0.240584	0.21472	-0.5625	0.075	0.321	0	177	308	3
2026-02-19	12:54:30.530	-79.59	-25.445	76.685	1.10288	0.213744	0.257176	-0.579	0.084	0.321	0	177	308	3
2026-02-19	12:54:30.550	-90.755	-31.675	81.34	1.095316	0.1952	0.28426	-0.597	0.0915	0.312	0	177	308	3
2026-02-19	12:54:30.570	-103.355	-34.825	84.98	1.072136	0.178608	0.288896	-0.609	0.105	0.3	0	177	308	3
2026-02-19	12:54:30.590	-111.79	-36.19	87.325	1.033584	0.163724	0.293532	-0.6195	0.1215	0.297	0	177	308	3
2026-02-19	12:54:30.610	-114.59	-33.005	91.14	1.038464	0.127856	0.309392	-0.627	0.1275	0.2955	0	179	275	3
2026-02-19	12:54:30.630	-103.845	-25.795	95.515	1.041148	0.104188	0.293288	-0.6375	0.1515	0.2865	0	179	275	3
2026-02-19	12:54:30.650	-80.395	-16.625	98.98	1.009184	0.075884	0.239364	-0.657	0.177	0.2715	0	179	275	3
2026-02-19	12:54:30.670	-47.355	-8.61	101.115	0.998692	0.04758	0.169824	-0.669	0.195	0.2685	0	179	275	3
2026-02-19	12:54:30.690	-8.61	-1.505	102.305	0.99796	0.055144	0.12932	-0.675	0.2145	0.27	0	179	275	3
2026-02-19	12:54:30.710	29.68	5.11	101.395	0.970876	0.097112	0.119316	-0.684	0.225	0.2685	0	179	275	3
2026-02-19	12:54:30.730	59.92	8.995	97.685	0.948184	0.135176	0.128344	-0.6945	0.237	0.267	0	179	275	3
2026-02-19	12:54:30.750	81.48	9.45	91.525	0.937936	0.14274	0.15616	-0.7035	0.2415	0.2685	0	179	275	3
2026-02-19	12:54:30.770	91.84	9.065	84.245	0.925492	0.162992	0.18788	-0.711	0.249	0.2775	0	179	275	3
2026-02-19	12:54:30.790	88.305	8.12	77.315	0.921832	0.169092	0.217648	-0.7125	0.2595	0.2835	0	179	275	3
2026-02-19	12:54:30.810	74.375	7.665	70.28	0.928176	0.172508	0.258396	-0.7125	0.264	0.2895	0	182	253	3
2026-02-19	12:54:30.830	57.015	8.68	63.385	0.921588	0.170556	0.297924	-0.7185	0.27	0.2895	0	182	253	3
2026-02-19	12:54:30.850	38.815	10.815	56.28	0.9089	0.208864	0.302072	-0.723	0.2745	0.2925	0	182	253	3
2026-02-19	12:54:30.870	19.705	11.06	49.21	0.91256	0.202764	0.288652	-0.729	0.2745	0.297	0	182	253	3
2026-02-19	12:54:30.890	1.47	10.885	40.18	0.914756	0.151524	0.274256	-0.735	0.273	0.294	0	182	253	3
2026-02-19	12:54:30.910	-3.115	11.235	34.23	0.916464	0.135908	0.277916	-0.732	0.2775	0.297	0	182	253	3
2026-02-19	12:54:30.930	-4.97	10.08	28.245	0.93208	0.115412	0.289872	-0.7305	0.285	0.294	0	182	253	3
2026-02-19	12:54:30.950	-3.43	9.065	22.505	0.930128	0.094184	0.3111	-0.7365	0.291	0.2925	0	182	253	3
2026-02-19	12:54:30.970	1.295	9.065	15.785	0.880596	0.081008	0.324276	-0.738	0.297	0.294	0	182	253	3
2026-02-19	12:54:30.990	6.615	8.47	9.135	0.880108	0.064172	0.348432	-0.7305	0.303	0.294	0	182	253	3
2026-02-19	12:54:31.010	10.115	7.945	4.27	0.90524	0.052948	0.38186	-0.732	0.303	0.291	0	183	247	2
2026-02-19	12:54:31.030	14.56	9.31	0.35	0.914268	0.056364	0.400404	-0.732	0.303	0.291	0	183	247	2
2026-02-19	12:54:31.050	19.775	9.8	-4.585	0.9028	0.048068	0.392108	-0.729	0.3015	0.291	0	183	247	2
2026-02-19	12:54:31.070	25.48	8.82	-8.68	0.921832	0.048068	0.385764	-0.7275	0.3015	0.291	0	183	247	2
2026-02-19	12:54:31.090	28.63	8.82	-10.815	0.927444	0.053436	0.418216	-0.7275	0.3	0.2865	0	183	247	2
2026-02-19	12:54:31.110	26.355	9.765	-12.39	0.922076	0.051728	0.457256	-0.732	0.2955	0.2835	0	183	247	2
2026-02-19	12:54:31.130	22.085	9.87	-13.65	0.926712	0.043188	0.468968	-0.7305	0.291	0.285	0	183	247	2
2026-02-19	12:54:31.150	16.52	10.92	-13.755	0.925492	0.05124	0.487512	-0.726	0.285	0.288	0	183	247	2
2026-02-19	12:54:31.170	3.15	11.9	-13.895	0.988688	0.02806	0.488732	-0.7245	0.282	0.2895	0	183	247	2
2026-02-19	12:54:31.190	2.415	15.365	-13.895	0.95892	0.005124	0.469944	-0.7245	0.282	0.2895	0	183	247	2
2026-02-19	12:54:31.210	5.845	17.85	-13.51	0.945988	0.000244	0.454572	-0.7155	0.2835	0.282	0	182	266	3
2026-02-19	12:54:31.230	9.415	18.76	-12.005	0.958676	-0.0061	0.450912	-0.72	0.279	0.2835	0	182	266	3
2026-02-19	12:54:31.250	13.755	19.67	-11.62	0.941352	-0.00854	0.450424	-0.7215	0.276	0.282	0	182	266	3
2026-02-19	12:54:31.270	17.045	20.825	-12.215	0.9333	-0.003172	0.471652	-0.7155	0.2745	0.2775	0	182	266	3
2026-02-19	12:54:31.290	18.76	22.435	-12.25	0.917196	-0.012688	0.478728	-0.714	0.2685	0.2775	0	182	266	3
2026-02-19	12:54:31.310	21.77	23.625	-11.095	0.919148	-0.006588	0.462624	-0.7125	0.267	0.2775	0	182	266	3
2026-02-19	12:54:31.330	23.625	23.8	-8.47	0.967948	0.00732	0.43554	-0.708	0.2655	0.2745	0	182	266	3
2026-02-19	12:54:31.350	24.185	23.45	-6.265	0.970144	0.008052	0.422852	-0.7065	0.2625	0.2745	0	182	266	3
2026-02-19	12:54:31.370	25.585	22.015	-4.095	0.951112	0.001708	0.426268	-0.705	0.2595	0.2775	0	182	266	3
2026-02-19	12:54:31.390	28.28	19.285	-0.84	0.92964	0.00976	0.446032	-0.6975	0.2565	0.2775	0	182	266	3
2026-02-19	12:54:31.410	33.46	15.715	1.89	0.941596	0.023668	0.463112	-0.6945	0.258	0.27	0	179	305	3
2026-02-19	12:54:31.430	37.835	11.97	3.78	0.942572	0.035136	0.473604	-0.6945	0.255	0.267	0	179	305	3
2026-02-19	12:54:31.450	38.115	6.79	5.74	0.919148	0.032452	0.472872	-0.6945	0.252	0.267	0	179	305	3
2026-02-19	12:54:31.470	38.15	3.255	8.925	0.9577	0.051484	0.483608	-0.6945	0.252	0.267	0	179	305	3
2026-02-19	12:54:31.490	36.19	0.805	12.74	0.974292	0.074176	0.489708	-0.699	0.2475	0.2685	0	179	305	3
2026-02-19	12:54:31.510	30.765	-0.84	14.14	0.97966	0.115656	0.520452	-0.7065	0.2535	0.2865	0	179	305	3
2026-02-19	12:54:31.530	23.87	-1.75	13.335	0.94428	0.118828	0.543876	-0.705	0.243	0.2865	0	179	305	3
2026-02-19	12:54:31.550	18.83	-2.31	13.265	0.94428	0.127856	0.559004	-0.7035	0.246	0.2865	0	179	305	3
2026-02-19	12:54:31.570	19.005	-2.975	14.245	0.92232	0.12688	0.561932	-0.7035	0.246	0.288	0	179	305	3
2026-02-19	12:54:31.590	22.68	-3.08	14.28	0.907192	0.167384	0.565104	-0.705	0.2415	0.291	0	179	305	3
2026-02-19	12:54:31.610	18.865	-3.64	13.475	0.866932	0.181536	0.576816	-0.7065	0.243	0.2925	0	176	351	3
2026-02-19	12:54:31.630	9.835	-4.48	12.81	0.837652	0.194224	0.593652	-0.708	0.246	0.294	0	176	351	3
2026-02-19	12:54:31.650	4.865	-4.445	11.55	0.794464	0.207644	0.572668	-0.708	0.249	0.297	0	176	351	3
2026-02-19	12:54:31.670	9.415	-4.375	9.625	0.756156	0.237656	0.541436	-0.708	0.249	0.3	0	176	351	3
2026-02-19	12:54:31.690	20.895	-2.94	5.915	0.759572	0.302804	0.55388	-0.7095	0.249	0.3	0	176	351	3
2026-02-19	12:54:31.710	25.13	0.49	0.14	0.770308	0.376736	0.567788	-0.7125	0.2505	0.3045	0	176	351	3
2026-02-19	12:54:31.730	17.29	5.005	-10.535	0.765916	0.439688	0.529236	-0.714	0.2565	0.3075	0	176	351	3
2026-02-19	12:54:31.750	14.315	7.245	-24.675	0.759084	0.476288	0.459208	-0.7155	0.261	0.3045	0	176	351	3
2026-02-19	12:54:31.770	19.495	6.09	-37.66	0.729072	0.501908	0.41968	-0.7095	0.2445	0.309	0	176	351	3
2026-02-19	12:54:31.790	20.265	2.695	-49.98	0.69052	0.518256	0.407724	-0.7095	0.2325	0.3075	0	176	351	3
2026-02-19	12:54:31.810	11.165	-3.64	-61.285	0.668072	0.540216	0.394792	-0.693	0.2265	0.3135	0	172	397	3
2026-02-19	12:54:31.830	-0.49	-14.42	-70.28	0.692472	0.54656	0.381128	-0.6915	0.2175	0.312	0	172	397	3
2026-02-19	12:54:31.850	-11.445	-26.145	-73.745	0.731756	0.556808	0.381616	-0.693	0.2175	0.312	0	172	397	3
2026-02-19	12:54:31.870	-21.805	-35.63	-75.425	0.68808	0.579988	0.388692	-0.6885	0.213	0.3165	0	172	397	3
2026-02-19	12:54:31.890	-40.81	-43.855	-77.84	0.671244	0.59414	0.416752	-0.681	0.2025	0.318	0	172	397	3
2026-02-19	12:54:31.910	-71.295	-47.635	-82.075	0.693448	0.625128	0.460428	-0.675	0.1965	0.3135	0	172	397	3
2026-02-19	12:54:31.930	-110.845	-45.36	-88.585	0.81008	0.625616	0.451156	-0.678	0.195	0.3165	0	172	397	3
2026-02-19	12:54:31.950	-141.47	-38.15	-97.3	0.88206	0.55998	0.355752	-0.6765	0.189	0.3165	0	172	397	3
2026-02-19	12:54:31.970	-158.585	-27.23	-106.645	0.945744	0.505324	0.249612	-0.663	0.183	0.306	0	172	397	3
2026-02-19	12:54:31.990	-163.275	-16.415	-111.72	1.032608	0.43432	0.196176	-0.6525	0.186	0.294	0	172	397	3
2026-02-19	12:54:32.010	-147.91	0.56	-110.355	1.126792	0.39284	0.19032	-0.6465	0.1845	0.279	0	174	420	3
2026-02-19	12:54:32.030	-118.16	19.04	-105.98	1.126304	0.389912	0.197884	-0.6465	0.1815	0.2715	0	174	420	3
2026-02-19	12:54:32.050	-92.155	26.985	-100.52	1.122888	0.35624	0.205204	-0.6165	0.183	0.249	0	174	420	3
2026-02-19	12:54:32.070	-66.5	31.36	-95.41	1.080432	0.326228	0.232288	-0.6135	0.1755	0.2295	0	174	420	3
2026-02-19	12:54:32.090	-45.15	33.355	-90.02	1.072136	0.338428	0.263032	-0.5985	0.177	0.228	0	174	420	3
2026-02-19	12:54:32.110	-28.385	32.76	-84.315	1.059936	0.342576	0.2623	-0.5865	0.168	0.222	0	174	420	3
2026-02-19	12:54:32.130	-13.02	30.03	-79.73	1.05164	0.359168	0.257908	-0.567	0.165	0.1965	0	174	420	3
2026-02-19	12:54:32.150	-7.175	23.8	-73.29	1.060668	0.369172	0.270596	-0.5655	0.1635	0.201	0	174	420	3
2026-02-19	12:54:32.170	-10.535	17.29	-64.645	1.126548	0.35624	0.269864	-0.5535	0.1605	0.2025	0	174	420	3
2026-02-19	12:54:32.190	-14.315	13.055	-55.16	1.149972	0.306952	0.245464	-0.5415	0.1545	0.2025	0	174	420	3
2026-02-19	12:54:32.210	-13.825	9.345	-43.33	1.159976	0.274012	0.186904	-0.54	0.1485	0.2025	0	180	407	3
2026-02-19	12:54:32.230	-8.96	4.34	-31.29	1.063352	0.252052	0.160796	-0.54	0.1485	0.198	0	180	407	3
2026-02-19	12:54:32.250	-8.015	-5.425	-19.565	1.025776	0.231068	0.165676	-0.534	0.15	0.1935	0	180	407	3
2026-02-19	12:54:32.270	-7.175	-16.17	-7.245	1.011868	0.203008	0.217404	-0.525	0.1515	0.195	0	180	407	3
2026-02-19	12:54:32.290	-6.09	-26.985	6.37	1.007476	0.185684	0.256932	-0.528	0.15	0.1965	0	180	407	3
2026-02-19	12:54:32.310	-5.04	-38.78	18.48	1.035048	0.172264	0.268156	-0.534	0.1485	0.195	0	180	407	3
2026-02-19	12:54:32.330	-7.245	-48.195	27.965	1.034804	0.182024	0.287432	-0.5445	0.1455	0.2055	0	180	407	3
2026-02-19	12:54:32.350	-18.305	-56	36.61	1.0492	0.1769	0.339892	-0.546	0.1545	0.201	0	180	407	3
2026-02-19	12:54:32.370	-40.215	-57.715	44.59	1.047492	0.165188	0.421632	-0.5625	0.156	0.207	0	180	407	3
2026-02-19	12:54:32.390	-70	-53.9	52.185	1.019188	0.165676	0.415532	-0.5745	0.1635	0.21	0	180	407	3
2026-02-19	12:54:32.410	-91.595	-51.625	57.4	1.011624	0.142252	0.33794	-0.588	0.171	0.198	0	187	375	3
2026-02-19	12:54:32.430	-97.825	-51.66	61.46	1.007964	0.100772	0.264984	-0.6	0.1845	0.195	0	187	375	3
2026-02-19	12:54:32.450	-90.545	-52.955	65.975	0.983564	0.068808	0.23302	-0.6	0.192	0.1965	0	187	375	3
2026-02-19	12:54:32.470	-78.225	-53.2	69.93	0.981124	0.034892	0.253516	-0.6075	0.2085	0.1995	0	187	375	3
2026-02-19	12:54:32.490	-66.815	-50.645	74.34	1.001864	-0.020984	0.305488	-0.6225	0.2265	0.195	0	187	375	3
2026-02-19	12:54:32.510	-47.74	-47.11	78.435	0.984784	-0.04514	0.331352	-0.639	0.2415	0.195	0	187	375	3
2026-02-19	12:54:32.530	-22.715	-43.785	81.445	0.9577	-0.043432	0.336476	-0.6495	0.255	0.2025	0	187	375	3
2026-02-19	12:54:32.550	3.465	-41.055	84.84	0.943792	-0.032696	0.32208	-0.657	0.267	0.2055	0	187	375	3
2026-02-19	12:54:32.570	28.49	-39.865	89.705	0.986004	-0.012932	0.3111	-0.6675	0.2745	0.2085	0	187	375	3
2026-02-19	12:54:32.590	59.395	-36.82	95.725	0.980392	0.045628	0.308904	-0.675	0.2775	0.2115	0	187	375	3
2026-02-19	12:54:32.610	70.49	-35.245	96.285	0.952088	0.066368	0.321592	-0.675	0.2775	0.2115	0	193	350	2
2026-02-19	12:54:32.630	73.465	-33.425	96.6	0.948916	0.077592	0.351848	-0.7005	0.3015	0.243	0	193	350	2
2026-02-19	12:54:32.650	70.91	-30.38	96.39	0.948916	0.09467199	0.371368	-0.7155	0.303	0.2475	0	193	350	2
2026-02-19	12:54:32.670	65.45	-28.525	94.92	0.96258	0.105164	0.359168	-0.7215	0.3165	0.252	0	193	350	2
2026-02-19	12:54:32.690	60.515	-27.685	92.575	0.961604	0.102724	0.345992	-0.726	0.3255	0.2625	0	193	350	2
2026-02-19	12:54:32.710	55.965	-26.215	88.865	0.945988	0.096868	0.356972	-0.7275	0.3375	0.2715	0	193	350	2
2026-02-19	12:54:32.730	50.715	-24.01	83.79	0.94916	0.095404	0.366488	-0.7455	0.3405	0.273	0	193	350	2
2026-02-19	12:54:32.750	47.18	-22.015	77.84	0.967948	0.078568	0.366488	-0.7395	0.3495	0.282	0	193	350	2
2026-02-19	12:54:32.770	46.9	-19.775	71.995	0.99186	0.074908	0.366732	-0.7395	0.351	0.285	0	193	350	2
2026-02-19	12:54:32.790	49.28	-16.065	64.54	0.962336	0.072956	0.381616	-0.747	0.3615	0.2895	0	193	350	2
2026-02-19	12:54:32.810	48.72	-11.76	54.635	0.92964	0.073688	0.407724	-0.753	0.369	0.2955	0	196	340	2
2026-02-19	12:54:32.830	45.395	-8.19	44.45	0.899384	0.053192	0.424072	-0.756	0.3735	0.3	0	196	340	2
2026-02-19	12:54:32.850	44.485	-4.865	34.825	0.890112	0.042456	0.426756	-0.759	0.3795	0.3045	0	196	340	2
2026-02-19	12:54:32.870	43.645	-0.28	22.435	0.912072	0.036356	0.44774	-0.7605	0.381	0.3105	0	196	340	2
2026-02-19	12:54:32.890	40.18	3.29	14.875	0.916708	0.034648	0.466772	-0.7605	0.381	0.3105	0	196	340	2
2026-02-19	12:54:32.910	35.35	7.595	7.245	0.915	0.016348	0.459452	-0.7545	0.3765	0.3015	0	196	340	2
2026-02-19	12:54:32.930	34.02	10.71	0.91	0.945744	-0.000488	0.443592	-0.762	0.381	0.3075	0	196	340	2
2026-02-19	12:54:32.950	35.84	14.245	-3.115	0.958676	-0.000732	0.45872	-0.7635	0.3735	0.3015	0	196	340	2
2026-02-19	12:54:32.970	36.75	17.815	-6.79	0.966728	-0.011224	0.476288	-0.7545	0.3645	0.306	0	196	340	2
2026-02-19	12:54:32.990	37.765	20.65	-10.78	0.959408	-0.024888	0.476288	-0.759	0.3645	0.297	0	196	340	2
2026-02-19	12:54:33.010	41.405	23.8	-14.7	0.913292	-0.023668	0.468968	-0.747	0.3705	0.2985	0	194	350	3
2026-02-19	12:54:33.030	43.54	25.34	-18.83	0.882304	-0.006832	0.465308	-0.7455	0.3555	0.303	0	194	350	3
2026-02-19	12:54:33.050	41.545	24.815	-22.085	0.877424	-0.00976	0.478972	-0.7395	0.354	0.2955	0	194	350	3
2026-02-19	12:54:33.070	37.38	23.38	-23.38	0.906704	-0.020496	0.503372	-0.7425	0.3525	0.2925	0	194	350	3
2026-02-19	12:54:33.090	32.935	22.19	-23.38	0.89182	-0.025376	0.4941	-0.741	0.348	0.288	0	194	350	3
2026-02-19	12:54:33.110	30.94	20.475	-23.695	0.877668	-0.008296	0.477508	-0.738	0.3405	0.285	0	194	350	3
2026-02-19	12:54:33.130	25.865	17.78	-22.995	0.889624	-0.00488	0.488	-0.741	0.3315	0.2895	0	194	350	3
2026-02-19	12:54:33.150	17.92	15.47	-22.12	0.877424	-0.021472	0.5246	-0.7365	0.327	0.285	0	194	350	3
2026-02-19	12:54:33.170	10.815	14.525	-22.505	0.85278	-0.022692	0.526552	-0.732	0.327	0.276	0	194	350	3
2026-02-19	12:54:33.190	4.13	13.02	-23.135	0.849608	-0.02684	0.503372	-0.7245	0.3165	0.285	0	194	350	3
2026-02-19	12:54:33.210	-1.575	10.325	-22.12	0.898408	-0.046604	0.483364	-0.723	0.312	0.279	0	189	375	3
2026-02-19	12:54:33.230	-2.625	9.625	-18.9	0.95282	-0.065636	0.500444	-0.732	0.312	0.2805	0	189	375	3
2026-02-19	12:54:33.250	0.665	11.13	-14.77	0.96746	-0.069296	0.493368	-0.7215	0.312	0.2805	0	189	375	3
2026-02-19	12:54:33.270	7.14	11.83	-11.795	0.960628	-0.063196	0.4636	-0.72	0.309	0.2775	0	189	375	3
2026-02-19	12:54:33.290	14.21	10.99	-8.33	0.952576	-0.055144	0.447496	-0.723	0.309	0.279	0	189	375	3
2026-02-19	12:54:33.310	20.3	9.03	-4.165	0.95648	-0.040992	0.437492	-0.708	0.3015	0.273	0	189	375	3
2026-02-19	12:54:33.330	26.53	5.705	-0.175	0.966484	-0.034648	0.437736	-0.714	0.3015	0.2715	0	189	375	3
2026-02-19	12:54:33.350	31.92	1.155	3.535	0.942816	-0.009516	0.429684	-0.7155	0.303	0.273	0	189	375	3
2026-02-19	12:54:33.370	34.16	-5.215	6.125	0.9089	0.009028	0.428708	-0.7125	0.2985	0.273	0	189	375	3
2026-02-19	12:54:33.390	32.655	-12.6	9.17	0.907436	0.013908	0.45384	-0.711	0.2955	0.2775	0	189	375	3
2026-02-19	12:54:33.410	31.29	-17.85	13.125	0.94672	0.034648	0.480436	-0.7125	0.297	0.2835	0	181	404	3
2026-02-19	12:54:33.430	31.605	-19.53	15.82	0.926468	0.053436	0.477996	-0.714	0.297	0.285	0	181	404	3
2026-02-19	12:54:33.450	27.02	-19.355	16.555	0.906948	0.073932	0.451888	-0.7155	0.2985	0.2865	0	181	404	3
2026-02-19	12:54:33.470	23.52	-17.255	15.12	0.8784	0.08784	0.434564	-0.717	0.294	0.291	0	181	404	3
2026-02-19	12:54:33.490	22.365	-14.7	12.565	0.862052	0.106384	0.425292	-0.7155	0.2955	0.309	0	181	404	3
2026-02-19	12:54:33.510	22.715	-11.9	10.08	0.869372	0.109312	0.422852	-0.726	0.2925	0.306	0	181	404	3
2026-02-19	12:54:33.530	26.005	-9.1	7.14	0.887916	0.127124	0.40138	-0.729	0.294	0.3135	0	181	404	3
2026-02-19	12:54:33.550	31.78	-7.35	2.8	0.942328	0.16836	0.405528	-0.7185	0.2925	0.306	0	181	404	3
2026-02-19	12:54:33.570	36.33	-5.005	-4.445	0.979904	0.196908	0.401136	-0.7245	0.288	0.318	0	181	404	3
2026-02-19	12:54:33.590	40.005	-3.535	-14.455	0.945256	0.199592	0.379908	-0.7215	0.303	0.3195	0	181	404	3
2026-02-19	12:54:33.610	44.52	-4.48	-24.78	0.890844	0.190808	0.366	-0.7275	0.288	0.3135	0	172	422	3
2026-02-19	12:54:33.630	49.175	-9.555	-32.655	0.857416	0.197396	0.367708	-0.7215	0.2715	0.3195	0	172	422	3
2026-02-19	12:54:33.650	49.14	-16.835	-35.49	0.848876	0.228384	0.404308	-0.7215	0.2715	0.321	0	172	422	3
2026-02-19	12:54:33.670	45.22	-22.4	-35.42	0.881572	0.301096	0.433832	-0.717	0.2685	0.3315	0	172	422	3
2026-02-19	12:54:33.690	34.895	-25.55	-35.7	0.887672	0.340136	0.440908	-0.717	0.2625	0.33	0	172	422	3
2026-02-19	12:54:33.710	8.785	-25.2	-35.175	0.856684	0.358192	0.444324	-0.717	0.2565	0.336	0	172	422	3
2026-02-19	12:54:33.730	-26.355	-20.685	-35.105	0.864736	0.372344	0.420168	-0.7155	0.255	0.342	0	172	422	3
2026-02-19	12:54:33.750	-52.22	-15.26	-38.99	0.905484	0.353068	0.375028	-0.7155	0.243	0.348	0	172	422	3
2026-02-19	12:54:33.770	-67.795	-10.29	-45.64	0.915244	0.315492	0.323056	-0.705	0.2415	0.3465	0	172	422	3
2026-02-19	12:54:33.790	-75.145	-6.65	-52.325	0.923784	0.28182	0.289872	-0.708	0.237	0.3435	0	172	422	3
2026-02-19	12:54:33.810	-72.975	-3.885	-55.825	1.003816	0.259128	0.29158	-0.7065	0.228	0.333	0	163	426	3
2026-02-19	12:54:33.830	-63.42	1.225	-57.05	1.033096	0.268644	0.299876	-0.699	0.231	0.33	0	163	426	3
2026-02-19	12:54:33.850	-53.2	7.21	-60.795	0.963556	0.276208	0.291336	-0.6915	0.228	0.3255	0	163	426	3
2026-02-19	12:54:33.870	-47.6	8.82	-64.225	0.911096	0.2501	0.278892	-0.6825	0.2175	0.309	0	163	426	3
2026-02-19	12:54:33.890	-42.315	9.415	-63.245	0.945988	0.239364	0.32086	-0.678	0.222	0.3195	0	163	426	3
2026-02-19	12:54:33.910	-32.865	14.175	-59.99	0.976244	0.277916	0.336232	-0.6675	0.216	0.3015	0	163	426	3
2026-02-19	12:54:33.930	-23.765	18.935	-59.395	0.922564	0.284016	0.305	-0.6675	0.207	0.3015	0	163	426	3
2026-02-19	12:54:33.950	-18.515	19.11	-57.715	0.90402	0.269376	0.252296	-0.6585	0.1965	0.297	0	163	426	3
2026-02-19	12:54:33.970	-14.49	15.47	-52.71	0.9455	0.264008	0.250588	-0.651	0.201	0.3015	0	163	426	3
2026-02-19	12:54:33.990	-12.25	12.81	-44.345	0.976488	0.286456	0.298412	-0.6465	0.1965	0.2925	0	163	426	3
2026-02-19	12:54:34.010	-22.96	12.25	-32.375	0.992348	0.313296	0.3172	-0.6435	0.192	0.285	0	157	412	3
2026-02-19	12:54:34.030	-31.045	11.62	-26.04	0.980148	0.291824	0.282064	-0.6255	0.186	0.2865	0	157	412	3
2026-02-19	12:54:34.050	-35.665	10.465	-19.425	0.968924	0.26474	0.258152	-0.63	0.18	0.282	0	157	412	3
2026-02-19	12:54:34.070	-38.57	7.455	-12.145	0.974292	0.238632	0.240096	-0.6195	0.183	0.276	0	157	412	3
2026-02-19	12:54:34.090	-36.365	2.205	-3.675	1.00406	0.213744	0.25254	-0.6225	0.1785	0.273	0	157	412	3
2026-02-19	12:54:34.110	-30.17	-3.15	5.18	0.996496	0.211304	0.258396	-0.618	0.183	0.2655	0	157	412	3
2026-02-19	12:54:34.130	-27.79	-12.04	14.035	1.041392	0.226432	0.254004	-0.6165	0.189	0.261	0	157	412	3
2026-02-19	12:54:34.150	-29.575	-21.385	21.28	0.998204	0.211792	0.295972	-0.6195	0.189	0.2595	0	157	412	3
2026-02-19	12:54:34.170	-39.9	-28.56	26.46	1.035292	0.211792	0.388204	-0.621	0.1905	0.261	0	157	412	3
2026-02-19	12:54:34.190	-62.44	-31.605	31.36	1.124352	0.204228	0.465796	-0.621	0.198	0.249	0	157	412	3
2026-02-19	12:54:34.210	-91.35	-29.925	33.215	1.1651	0.19886	0.515572	-0.63	0.2085	0.2625	0	152	389	3
2026-02-19	12:54:34.230	-122.185	-24.92	29.47	1.209996	0.15982	0.478972	-0.6405	0.213	0.252	0	152	389	3
2026-02-19	12:54:34.250	-139.86	-17.43	22.155	1.187304	0.081984	0.404064	-0.6405	0.2295	0.246	0	152	389	3
2026-02-19	12:54:34.270	-136.5	-8.785	13.23	1.136064	-0.020008	0.32086	-0.642	0.2505	0.2355	0	152	389	3
2026-02-19	12:54:34.290	-97.16	5.075	4.41	1.045296	-0.162748	0.277184	-0.642	0.2505	0.2355	0	152	389	3
2026-02-19	12:54:34.310	-55.23	12.53	1.855	0.976	-0.2013	0.291824	-0.642	0.2505	0.2355	0	152	389	3
2026-02-19	12:54:34.330	-10.64	16.695	1.19	0.91988	-0.207888	0.316712	-0.639	0.2805	0.2115	0	152	389	3
2026-02-19	12:54:34.350	28.945	20.895	2.835	0.881084	-0.15006	0.330376	-0.6375	0.276	0.2175	0	152	389	3
2026-02-19	12:54:34.370	58.065	23.52	6.265	0.864492	-0.086376	0.333792	-0.6345	0.27	0.2085	0	152	389	3
2026-02-19	12:54:34.390	76.755	25.97	10.185	0.832772	-0.0244	0.349164	-0.6285	0.2715	0.219	0	152	389	3
2026-02-19	12:54:34.410	82.53	28.49	14.805	0.820572	0.030256	0.351116	-0.627	0.258	0.2115	0	151	372	3
2026-02-19	12:54:34.430	79.485	29.365	18.97	0.82716	0.078568	0.323788	-0.63	0.2565	0.2145	0	151	372	3
2026-02-19	12:54:34.450	70.105	27.195	22.33	0.8418	0.100772	0.306464	-0.6285	0.2505	0.2145	0	151	372	3
2026-02-19	12:54:34.470	57.015	22.12	25.9	0.831064	0.108824	0.302072	-0.6345	0.2415	0.2265	0	151	372	3
2026-02-19	12:54:34.490	40.81	16.24	29.4	0.827404	0.117852	0.332328	-0.6285	0.2445	0.2235	0	151	372	3
2026-02-19	12:54:34.510	23.1	8.855	32.69	0.843264	0.097112	0.370148	-0.6285	0.246	0.231	0	151	372	3
2026-02-19	12:54:34.530	11.34	2.905	35.28	0.847656	0.076616	0.4148	-0.636	0.2385	0.2355	0	151	372	3
2026-02-19	12:54:34.550	2.485	-0.63	36.995	0.827648	0.072468	0.425292	-0.6225	0.243	0.234	0	151	372	3
2026-02-19	12:54:34.570	-8.68	-6.86	38.465	0.840336	0.062464	0.415776	-0.633	0.2535	0.234	0	151	372	3
2026-02-19	12:54:34.590	-13.09	-8.995	38.92	0.860832	0.046848	0.421388	-0.6405	0.243	0.2295	0	151	372	3
2026-02-19	12:54:34.610	-15.295	-9.03	39.095	0.887916	0.021472	0.41724	-0.63	0.261	0.2355	0	152	365	3
2026-02-19	12:54:34.630	-11.76	-7.7	38.885	0.881572	-0.006344	0.39162	-0.6465	0.2625	0.234	0	152	365	3
2026-02-19	12:54:34.650	-1.96	-6.545	39.55	0.881084	-0.0183	0.354288	-0.651	0.2655	0.2325	0	152	365	3
2026-02-19	12:54:34.670	11.97	-7.7	40.6	0.897188	-0.020252	0.32086	-0.645	0.2775	0.24	0	152	365	3
2026-02-19	12:54:34.690	25.9	-10.71	42.315	0.93086	-0.010004	0.334768	-0.6615	0.2835	0.231	0	152	365	3
2026-02-19	12:54:34.710	35.735	-13.195	43.12	0.935984	0.015616	0.384056	-0.66	0.276	0.243	0	152	365	3
2026-02-19	12:54:34.730	38.78	-15.26	42.735	0.919392	0.034404	0.433588	-0.6585	0.288	0.252	0	152	365	3
2026-02-19	12:54:34.750	37.59	-17.43	42.07	0.920612	0.054656	0.464332	-0.6735	0.288	0.2505	0	152	365	3
2026-02-19	12:54:34.770	33.355	-19.425	41.23	0.9333	0.061	0.485316	-0.675	0.285	0.2505	0	152	365	3
2026-02-19	12:54:34.790	27.72	-20.615	39.83	0.926712	0.042212	0.497272	-0.675	0.2865	0.2505	0	152	365	3
2026-02-19	12:54:34.810	22.365	-20.58	37.415	0.901092	0.031964	0.48922	-0.687	0.2925	0.2505	0	153	368	3
2026-02-19	12:54:34.830	17.745	-21	35.315	0.903044	0.019032	0.475068	-0.687	0.294	0.261	0	153	368	3
2026-02-19	12:54:34.850	18.41	-20.195	34.055	0.890356	0.0122	0.464332	-0.687	0.303	0.2685	0	153	368	3
2026-02-19	12:54:34.870	21.14	-19.46	33.145	0.892308	-0.000976	0.450668	-0.693	0.303	0.2715	0	153	368	3
2026-02-19	12:54:34.890	24.78	-20.02	33.39	0.898896	-0.007808	0.443592	-0.7005	0.3045	0.276	0	153	368	3
2026-02-19	12:54:34.910	28.91	-20.09	33.81	0.895724	0.013176	0.454328	-0.7095	0.303	0.2835	0	153	368	3
2026-02-19	12:54:34.930	29.26	-20.09	33.775	0.903288	0.020496	0.470676	-0.699	0.3105	0.2895	0	153	368	3
2026-02-19	12:54:34.950	28.245	-19.705	33.39	0.903532	0.022204	0.49288	-0.711	0.3135	0.2865	0	153	368	3
2026-02-19	12:54:34.970	27.335	-18.76	32.375	0.914268	0.033428	0.498492	-0.714	0.3195	0.297	0	153	368	3
2026-02-19	12:54:34.990	24.15	-18.06	30.205	0.909876	0.039284	0.504348	-0.7155	0.309	0.2865	0	153	368	3
2026-02-19	12:54:35.010	19.705	-17.64	27.335	0.909876	0.022936	0.515084	-0.717	0.321	0.3015	0	152	385	3
2026-02-19	12:54:35.030	16.485	-17.045	24.465	0.915	0.025132	0.509716	-0.72	0.3255	0.3015	0	152	385	3
2026-02-19	12:54:35.050	14.7	-15.96	21.49	0.927688	0.0183	0.502884	-0.729	0.324	0.312	0	152	385	3
2026-02-19	12:54:35.070	14.77	-14.21	18.27	0.93574	0.011712	0.497516	-0.732	0.327	0.309	0	152	385	3
2026-02-19	12:54:35.090	14.735	-12.565	14.875	0.941596	0.002928	0.499956	-0.7275	0.3225	0.3075	0	152	385	3
2026-02-19	12:54:35.110	16.135	-11.55	11.935	0.954528	0.007564	0.491416	-0.7275	0.3255	0.3045	0	152	385	3
2026-02-19	12:54:35.130	19.565	-10.115	8.715	0.96014	0.01464	0.497516	-0.738	0.3285	0.3165	0	152	385	3
2026-02-19	12:54:35.150	19.985	-8.26	6.09	0.96258	0.004636	0.525576	-0.738	0.3285	0.3165	0	152	385	3
2026-02-19	12:54:35.170	22.575	-5.005	3.605	0.95526	-0.001708	0.50874	-0.732	0.327	0.3225	0	152	385	3
2026-02-19	12:54:35.190	26.355	-0.945	0.595	0.975024	-0.00244	0.476044	-0.729	0.327	0.3315	0	152	385	3
2026-02-19	12:54:35.210	29.785	3.57	-1.995	0.978928	-0.003416	0.469212	-0.732	0.3285	0.336	0	148	410	3
2026-02-19	12:54:35.230	33.39	8.225	-6.335	0.992592	-0.022692	0.455304	-0.7305	0.3225	0.3315	0	148	410	3
2026-02-19	12:54:35.250	40.915	12.11	-11.515	0.969656	-0.0366	0.426024	-0.7275	0.3135	0.327	0	148	410	3
2026-02-19	12:54:35.270	51.275	14.84	-16.73	0.95404	-0.013908	0.405284	-0.7305	0.309	0.333	0	148	410	3
2026-02-19	12:54:35.290	57.365	14.35	-21.385	0.95282	-0.001464	0.398452	-0.729	0.315	0.3285	0	148	410	3
2026-02-19	12:54:35.310	61.18	11.55	-24.64	0.917928	-0.004148	0.405528	-0.729	0.2985	0.3225	0	148	410	3
2026-02-19	12:54:35.330	63.385	6.16	-25.97	0.901824	0.00976	0.401136	-0.7215	0.2955	0.3345	0	148	410	3
2026-02-19	12:54:35.350	63.875	-2.345	-23.45	0.906216	0.032208	0.390888	-0.72	0.2895	0.33	0	148	410	3
2026-02-19	12:54:35.370	62.37	-10.115	-19.215	0.898652	0.08784	0.428708	-0.7155	0.276	0.3315	0	148	410	3
2026-02-19	12:54:35.390	50.96	-15.75	-15.12	0.917196	0.144204	0.471652	-0.711	0.276	0.3435	0	148	410	3
2026-02-19	12:54:35.410	30.73	-16.905	-11.69	0.894016	0.140056	0.486536	-0.7095	0.2685	0.354	0	142	429	3
2026-02-19	12:54:35.430	18.06	-14.035	-10.325	0.867176	0.137128	0.432856	-0.7095	0.2685	0.354	0	142	429	3
2026-02-19	12:54:35.450	20.685	-10.815	-12.145	0.84668	0.165676	0.376492	-0.711	0.261	0.36	0	142	429	3
2026-02-19	12:54:35.470	28.49	-8.47	-15.75	0.826672	0.2013	0.3843	-0.7155	0.255	0.3645	0	142	429	3
2026-02-19	12:54:35.490	34.195	-5.04	-21.595	0.841312	0.23912	0.428952	-0.714	0.2535	0.3645	0	142	429	3
2026-02-19	12:54:35.510	36.19	-1.015	-27.545	0.885232	0.283284	0.442372	-0.7125	0.2505	0.366	0	142	429	3
2026-02-19	12:54:35.530	39.9	3.15	-33.32	0.898896	0.319884	0.417484	-0.708	0.237	0.3675	0	142	429	3
2026-02-19	12:54:35.550	41.86	6.23	-38.22	0.91378	0.382836	0.393084	-0.705	0.234	0.372	0	142	429	3
2026-02-19	12:54:35.570	35.77	7.245	-41.02	0.951356	0.415532	0.374784	-0.7005	0.234	0.3735	0	142	429	3
2026-02-19	12:54:35.590	27.44	7.7	-43.82	0.969656	0.457256	0.3782	-0.693	0.228	0.378	0	142	429	3
2026-02-19	12:54:35.610	17.325	7.42	-51.485	0.943304	0.4941	0.368928	-0.69	0.219	0.3795	0	137	436	3
2026-02-19	12:54:35.630	2.205	2.835	-60.935	0.916952	0.450912	0.361364	-0.681	0.2085	0.381	0	137	436	3
2026-02-19	12:54:35.650	-9.17	-0.28	-69.825	0.851804	0.428952	0.36966	-0.6795	0.1995	0.3795	0	137	436	3
2026-02-19	12:54:35.670	-18.725	-3.605	-77.805	0.810568	0.437004	0.38064	-0.669	0.1875	0.3765	0	137	436	3
2026-02-19	12:54:35.690	-31.395	-5.04	-84.245	0.803736	0.47092	0.409676	-0.6645	0.186	0.3825	0	137	436	3
2026-02-19	12:54:35.710	-59.5	-3.22	-88.62	0.870592	0.515328	0.382592	-0.6645	0.186	0.3825	0	137	436	3
2026-02-19	12:54:35.730	-73.885	1.75	-90.23	0.856196	0.513132	0.329888	-0.642	0.174	0.372	0	137	436	3
2026-02-19	12:54:35.750	-81.13	6.825	-91.35	0.848876	0.502396	0.284016	-0.6165	0.156	0.357	0	137	436	3
2026-02-19	12:54:35.770	-85.645	10.15	-90.44	0.956236	0.48312	0.272304	-0.609	0.147	0.345	0	137	436	3
2026-02-19	12:54:35.790	-82.285	15.12	-88.795	1.009184	0.45872	0.276452	-0.5955	0.141	0.3375	0	137	436	3
2026-02-19	12:54:35.810	-71.47	21.105	-89.04	0.969656	0.439688	0.26962	-0.5805	0.138	0.3285	0	136	428	3
2026-02-19	12:54:35.830	-58.765	22.96	-89.39	0.96014	0.418948	0.247904	-0.573	0.138	0.324	0	136	428	3
2026-02-19	12:54:35.850	-47.39	20.09	-87.955	1.041148	0.40138	0.235948	-0.558	0.1335	0.309	0	136	428	3
2026-02-19	12:54:35.870	-31.045	16.17	-84.875	1.031632	0.357948	0.242536	-0.543	0.1305	0.303	0	136	428	3
2026-02-19	12:54:35.890	-16.275	10.36	-80.675	0.992592	0.362828	0.27938	-0.537	0.1215	0.303	0	136	428	3
2026-02-19	12:54:35.910	-15.19	3.395	-73.815	1.0004	0.392596	0.31354	-0.5265	0.1155	0.294	0	136	428	3
2026-02-19	12:54:35.930	-27.265	-2.555	-65.765	1.07482	0.41114	0.350872	-0.5085	0.114	0.291	0	136	428	3
2026-02-19	12:54:35.950	-49.875	-5.25	-56.665	1.12484	0.374052	0.370636	-0.4995	0.111	0.2865	0	136	428	3
2026-02-19	12:54:35.970	-67.2	-2.765	-47.075	1.124108	0.329644	0.30744	-0.486	0.1095	0.294	0	136	428	3
2026-02-19	12:54:35.990	-63.14	-3.5	-29.05	1.108004	0.250344	0.156648	-0.4815	0.108	0.279	0	136	428	3
2026-02-19	12:54:36.010	-48.685	-8.575	-16.38	1.04798	0.232044	0.129808	-0.4755	0.1095	0.2685	0	139	405	3
2026-02-19	12:54:36.030	-38.99	-17.99	-2.065	1.053836	0.209352	0.176412	-0.471	0.117	0.2595	0	139	405	3
2026-02-19	12:54:36.050	-31.465	-26.635	13.405	1.119228	0.180804	0.260348	-0.4695	0.1185	0.261	0	139	405	3
2026-02-19	12:54:36.070	-26.145	-31.64	27.51	1.10532	0.209108	0.360632	-0.4725	0.1185	0.2625	0	139	405	3
2026-02-19	12:54:36.090	-35.14	-34.965	35.56	1.063596	0.213256	0.416996	-0.48	0.1275	0.2565	0	139	405	3
2026-02-19	12:54:36.110	-61.32	-39.095	39.48	1.093852	0.223992	0.463844	-0.486	0.135	0.2475	0	139	405	3
2026-02-19	12:54:36.130	-102.095	-37.8	39.13	1.086044	0.208376	0.508252	-0.489	0.138	0.246	0	139	405	3
2026-02-19	12:54:36.150	-141.96	-32.97	34.72	1.055544	0.138836	0.482876	-0.5055	0.153	0.246	0	139	405	3
2026-02-19	12:54:36.170	-161.14	-27.195	29.47	1.006256	0.030744	0.40504	-0.5025	0.165	0.2325	0	139	405	3
2026-02-19	12:54:36.190	-149.59	-23.345	26.775	0.96746	-0.058804	0.316468	-0.5175	0.1725	0.225	0	139	405	3
2026-02-19	12:54:36.210	-115.71	-21.735	28.07	0.899384	-0.116388	0.304268	-0.5265	0.1935	0.2025	0	145	381	3
2026-02-19	12:54:36.230	-75.04	-18.69	32.2	0.79666	-0.169336	0.321592	-0.5235	0.204	0.1995	0	145	381	3
2026-02-19	12:54:36.250	-30.415	-17.64	39.69	0.736392	-0.20008	0.324032	-0.525	0.2295	0.198	0	145	381	3
2026-02-19	12:54:36.270	30.38	-19.075	57.085	0.717848	-0.09516	0.361608	-0.5265	0.2235	0.1965	0	145	381	3
2026-02-19	12:54:36.290	49.49	-21.63	68.985	0.753472	-0.00976	0.427488	-0.5325	0.2265	0.201	0	145	381	3
2026-02-19	12:54:36.310	53.06	-21.42	79.24	0.783728	0.041968	0.476532	-0.5475	0.234	0.2055	0	145	381	3
2026-02-19	12:54:36.330	53.2	-20.09	86.135	0.793732	0.090524	0.4453	-0.5595	0.2355	0.2145	0	145	381	3
2026-02-19	12:54:36.350	47.915	-21.28	91.14	0.828868	0.115412	0.400892	-0.5685	0.237	0.2235	0	145	381	3
2026-02-19	12:54:36.370	37.03	-25.06	95.27	0.893528	0.12444	0.4087	-0.579	0.246	0.225	0	145	381	3
2026-02-19	12:54:36.390	23.205	-27.265	97.3	0.907436	0.1281	0.44042	-0.5895	0.2505	0.234	0	145	381	3
2026-02-19	12:54:36.410	7.56	-29.33	97.37	0.943792	0.116144	0.483364	-0.5985	0.2505	0.24	0	153	373	3
2026-02-19	12:54:36.430	-6.685	-29.26	95.095	0.98454	0.115168	0.493612	-0.609	0.255	0.2415	0	153	373	3
2026-02-19	12:54:36.450	-18.97	-27.265	90.51	1.003816	0.102724	0.48678	-0.615	0.258	0.2415	0	153	373	3
2026-02-19	12:54:36.470	-30.1	-23.94	84.21	1.011624	0.058804	0.48312	-0.6195	0.273	0.237	0	153	373	3
2026-02-19	12:54:36.490	-37.695	-20.02	76.72	1.008696	0.04514	0.485316	-0.636	0.285	0.249	0	153	373	3
2026-02-19	12:54:36.510	-42.245	-15.995	66.78	0.976	0.025376	0.483608	-0.6405	0.2985	0.2445	0	153	373	3
2026-02-19	12:54:36.530	-42.455	-11.935	55.195	0.940132	-0.028548	0.4697	-0.648	0.315	0.2475	0	153	373	3
2026-02-19	12:54:36.550	-28.385	-7.245	40.18	0.908656	-0.083448	0.460916	-0.654	0.315	0.243	0	153	373	3
2026-02-19	12:54:36.570	-11.865	-3.92	32.9	0.865956	-0.114436	0.480924	-0.657	0.3255	0.2445	0	153	373	3
2026-02-19	12:54:36.590	2.52	-0.49	26.32	0.835944	-0.1037	0.492636	-0.6585	0.3375	0.246	0	153	373	3
2026-02-19	12:54:36.610	10.255	2.485	19.88	0.827648	-0.103456	0.489952	-0.654	0.3375	0.2475	0	161	385	3
2026-02-19	12:54:36.630	16.695	5.88	14.595	0.823744	-0.109312	0.499224	-0.6555	0.3405	0.246	0	161	385	3
2026-02-19	12:54:36.650	23.03	10.045	10.675	0.809348	-0.110532	0.499712	-0.6555	0.342	0.243	0	161	385	3
2026-02-19	12:54:36.670	26.67	12.355	7.315	0.807884	-0.10492	0.493856	-0.6555	0.3405	0.243	0	161	385	3
2026-02-19	12:54:36.690	26.915	13.965	3.01	0.8357	-0.083448	0.4819	-0.6555	0.3465	0.243	0	161	385	3
2026-02-19	12:54:36.710	24.29	14.735	-1.33	0.870592	-0.088816	0.476288	-0.651	0.3465	0.2445	0	161	385	3
2026-02-19	12:54:36.730	22.19	16.52	-4.795	0.867176	-0.092232	0.493856	-0.651	0.3405	0.2445	0	161	385	3
2026-02-19	12:54:36.750	21	18.375	-8.75	0.838384	-0.071492	0.5002	-0.6525	0.3375	0.243	0	161	385	3
2026-02-19	12:54:36.770	17.01	17.815	-12.81	0.83936	-0.07686	0.492392	-0.651	0.3255	0.2475	0	161	385	3
2026-02-19	12:54:36.790	14.21	16.24	-14.91	0.865468	-0.087352	0.483608	-0.6495	0.33	0.246	0	161	385	3
2026-02-19	12:54:36.810	15.715	15.295	-15.68	0.890112	-0.093452	0.469944	-0.6405	0.324	0.2475	0	167	408	3
2026-02-19	12:54:36.830	21.875	14.735	-16.835	0.85766	-0.08686399	0.463112	-0.6375	0.3195	0.243	0	167	408	3
2026-02-19	12:54:36.850	23.905	12.775	-19.005	0.809836	-0.074908	0.477996	-0.633	0.321	0.243	0	167	408	3
2026-02-19	12:54:36.870	21.14	10.325	-20.475	0.812276	-0.061	0.498492	-0.633	0.3135	0.237	0	167	408	3
2026-02-19	12:54:36.890	18.305	8.645	-19.88	0.837896	-0.078568	0.498004	-0.6315	0.3075	0.2355	0	167	408	3
2026-02-19	12:54:36.910	19.565	9.1	-18.375	0.818864	-0.08784	0.477508	-0.6285	0.306	0.237	0	167	408	3
2026-02-19	12:54:36.930	20.58	8.855	-17.185	0.802516	-0.078568	0.457012	-0.6285	0.3	0.234	0	167	408	3
2026-02-19	12:54:36.950	20.65	6.93	-14.875	0.830332	-0.080764	0.455792	-0.6255	0.3015	0.2355	0	167	408	3
2026-02-19	12:54:36.970	23.8	5.6	-11.375	0.856196	-0.089304	0.463112	-0.624	0.2985	0.234	0	167	408	3
2026-02-19	12:54:36.990	30.87	4.235	-7.28	0.88938	-0.07076	0.45628	-0.6225	0.288	0.2355	0	167	408	3
2026-02-19	12:54:37.010	37.1	2.03	-4.06	0.920124	-0.052216	0.442616	-0.618	0.288	0.24	0	170	431	3
2026-02-19	12:54:37.030	39.935	-2.38	-1.365	0.934764	-0.038064	0.447984	-0.621	0.285	0.2355	0	170	431	3
2026-02-19	12:54:37.050	41.335	-7.035	0.14	0.955504	-0.023668	0.488488	-0.6225	0.276	0.2355	0	170	431	3
2026-02-19	12:54:37.070	41.23	-10.99	0.28	0.941352	-0.011712	0.521916	-0.621	0.2715	0.2415	0	170	431	3
2026-02-19	12:54:37.090	40.075	-13.58	-0.735	0.897432	-0.003904	0.541192	-0.6255	0.2685	0.249	0	170	431	3
2026-02-19	12:54:37.110	33.285	-17.675	-1.505	0.89426	-0.008784	0.517768	-0.621	0.273	0.258	0	170	431	3
2026-02-19	12:54:37.130	28.875	-21.14	0	0.933056	-0.035624	0.483852	-0.6225	0.267	0.255	0	170	431	3
2026-02-19	12:54:37.150	32.025	-22.05	2.065	0.926468	-0.039528	0.471164	-0.624	0.261	0.255	0	170	431	3
2026-02-19	12:54:37.170	36.61	-23.275	4.83	0.913292	-0.034892	0.481656	-0.6225	0.264	0.264	0	170	431	3
2026-02-19	12:54:37.190	39.13	-24.815	9.45	0.955016	-0.029768	0.509228	-0.6255	0.258	0.276	0	170	431	3
2026-02-19	12:54:37.210	40.215	-24.115	14.63	1.00406	0.001464	0.55022	-0.6315	0.2505	0.279	0	167	450	1
2026-02-19	12:54:37.230	38.325	-20.16	17.57	0.98454	0.054412	0.586576	-0.6345	0.2535	0.2805	0	167	450	1
2026-02-19	12:54:37.250	24.01	-15.19	18.585	0.981124	0.127856	0.586576	-0.636	0.252	0.288	0	167	450	1
2026-02-19	12:54:37.270	4.97	-12.32	18.76	0.976244	0.122976	0.582672	-0.6405	0.249	0.2895	0	167	450	1
2026-02-19	12:54:37.290	-9.03	-9.695	17.325	1.008208	0.139812	0.568764	-0.6465	0.2535	0.2925	0	167	450	1
2026-02-19	12:54:37.310	-16.975	-8.4	15.54	1.00528	0.13664	0.547048	-0.645	0.255	0.2955	0	167	450	1
2026-02-19	12:54:37.330	-14.525	-7.63	12.635	0.951844	0.105164	0.526552	-0.642	0.255	0.2925	0	167	450	1
2026-02-19	12:54:37.350	5.215	-8.4	9.065	0.870592	0.077104	0.529968	-0.6435	0.2625	0.291	0	167	450	1
2026-02-19	12:54:37.370	42.98	-6.825	3.745	0.792512	0.096624	0.554612	-0.6465	0.267	0.2925	0	167	450	1
2026-02-19	12:54:37.390	80.185	-1.89	-4.83	0.720776	0.199348	0.586576	-0.6555	0.2565	0.297	0	167	450	1
2026-02-19	12:54:37.410	91.105	1.435	-15.085	0.71248	0.331352	0.596824	-0.6555	0.2565	0.297	0	163	471	3
2026-02-19	12:54:37.430	80.57	4.48	-25.13	0.726632	0.443104	0.612928	-0.651	0.249	0.306	0	163	471	3
2026-02-19	12:54:37.450	52.5	6.79	-34.86	0.729072	0.476532	0.601948	-0.645	0.2385	0.318	0	163	471	3
2026-02-19	12:54:37.470	23.765	6.615	-45.325	0.745664	0.474336	0.567544	-0.639	0.2325	0.3135	0	163	471	3
2026-02-19	12:54:37.490	4.025	5.81	-56.49	0.750056	0.479704	0.527528	-0.6345	0.228	0.3165	0	163	471	3
2026-02-19	12:54:37.510	-11.69	3.395	-65.135	0.794708	0.48068	0.5551	-0.6345	0.222	0.3225	0	163	471	3
2026-02-19	12:54:37.530	-26.6	1.645	-70.945	0.848876	0.489952	0.579256	-0.627	0.2145	0.3195	0	163	471	3
2026-02-19	12:54:37.550	-37.135	2.31	-76.965	0.837408	0.498004	0.569252	-0.6195	0.2115	0.318	0	163	471	3
2026-02-19	12:54:37.570	-46.795	2.45	-83.895	0.764696	0.50752	0.53436	-0.609	0.201	0.3135	0	163	471	3
2026-02-19	12:54:37.590	-60.83	1.085	-89.915	0.815204	0.514596	0.510448	-0.5985	0.1935	0.309	0	163	471	3
2026-02-19	12:54:37.610	-74.83	0.77	-94.36	0.87108	0.472384	0.513864	-0.5895	0.195	0.306	0	161	494	3
2026-02-19	12:54:37.630	-79.765	6.51	-100.38	0.850096	0.487024	0.518012	-0.5775	0.192	0.2955	0	161	494	3
2026-02-19	12:54:37.650	-82.635	11.2	-107.765	0.811056	0.502396	0.471164	-0.5655	0.1935	0.285	0	161	494	3
2026-02-19	12:54:37.670	-86.065	14.175	-113.12	0.80764	0.490684	0.448472	-0.5595	0.198	0.282	0	161	494	3
2026-02-19	12:54:37.690	-90.86	22.19	-111.475	0.925736	0.496296	0.521184	-0.5595	0.198	0.282	0	161	494	3
2026-02-19	12:54:37.710	-88.9	32.2	-110.32	0.930372	0.458232	0.526552	-0.5385	0.1905	0.2655	0	161	494	3
2026-02-19	12:54:37.730	-62.65	43.295	-109.865	0.897188	0.395036	0.49288	-0.5145	0.1815	0.243	0	161	494	3
2026-02-19	12:54:37.750	-6.3	52.01	-109.41	0.964532	0.376736	0.448228	-0.501	0.18	0.231	0	161	494	3
2026-02-19	12:54:37.770	42.175	55.895	-107.52	1.132648	0.436028	0.421144	-0.4815	0.18	0.225	0	161	494	3
2026-02-19	12:54:37.790	74.725	60.83	-106.26	1.033828	0.468724	0.39528	-0.4665	0.1695	0.228	0	161	494	3
2026-02-19	12:54:37.810	85.68	59.36	-107.835	0.925736	0.48312	0.360144	-0.447	0.1545	0.2355	0	163	506	3
2026-02-19	12:54:37.830	78.05	52.675	-104.895	0.881572	0.477996	0.343552	-0.426	0.1455	0.246	0	163	506	3
2026-02-19	12:54:37.850	54.915	45.43	-96.53	0.903044	0.581696	0.354532	-0.411	0.1395	0.249	0	163	506	3
2026-02-19	12:54:37.870	15.435	35.665	-85.61	0.953308	0.618784	0.3599	-0.3945	0.132	0.252	0	163	506	3
2026-02-19	12:54:37.890	-24.36	26.845	-75.18	0.970632	0.541192	0.3416	-0.381	0.1245	0.2565	0	163	506	3
2026-02-19	12:54:37.910	-52.71	21.07	-64.19	0.981856	0.421632	0.292312	-0.3705	0.126	0.252	0	163	506	3
2026-02-19	12:54:37.930	-59.78	13.475	-51.94	1.042368	0.322324	0.20252	-0.36	0.129	0.243	0	163	506	3
2026-02-19	12:54:37.950	-44.03	2.59	-37.87	1.031388	0.235216	0.151524	-0.351	0.132	0.2355	0	163	506	3
2026-02-19	12:54:37.970	-0.63	-15.26	-15.155	0.894992	0.203496	0.147376	-0.3465	0.1335	0.2355	0	163	506	3
2026-02-19	12:54:37.990	24.815	-30.1	1.715	0.865468	0.196908	0.192272	-0.348	0.1365	0.234	0	163	506	3
2026-02-19	12:54:38.010	44.415	-43.82	19.32	0.851804	0.217404	0.30622	-0.351	0.135	0.2355	0	168	491	3
2026-02-19	12:54:38.030	44.73	-52.255	38.745	0.859124	0.292068	0.409676	-0.3585	0.1305	0.237	0	168	491	3
2026-02-19	12:54:38.050	27.3	-58.45	56.385	0.851804	0.338184	0.411872	-0.3675	0.1305	0.2415	0	168	491	3
2026-02-19	12:54:38.070	10.535	-65.065	69.37	0.88084	0.332328	0.401136	-0.3735	0.1305	0.255	0	168	491	3
2026-02-19	12:54:38.090	-6.755	-68.18	77.245	0.906704	0.322324	0.411872	-0.3915	0.129	0.258	0	168	491	3
2026-02-19	12:54:38.110	-30.905	-69.685	82.705	0.92598	0.285968	0.413092	-0.414	0.129	0.255	0	168	491	3
2026-02-19	12:54:38.130	-52.43	-71.05	87.43	0.937936	0.240584	0.342088	-0.4275	0.138	0.2535	0	168	491	3
2026-02-19	12:54:38.150	-35.21	-73.885	89.355	1.003816	0.177144	0.321348	-0.4455	0.1485	0.2535	0	168	491	3
2026-02-19	12:54:38.170	9.59	-70.91	87.255	1.0553	0.205204	0.39284	-0.4635	0.1485	0.2565	0	168	491	3
2026-02-19	12:54:38.190	40.985	-62.125	84.42	1.050664	0.269132	0.454084	-0.4725	0.1515	0.2625	0	168	491	3
2026-02-19	12:54:38.210	45.01	-53.34	82.39	1.019432	0.269376	0.456768	-0.4905	0.1515	0.2715	0	173	460	3
2026-02-19	12:54:38.230	42.28	-44.31	81.025	1.022116	0.273524	0.43554	-0.5115	0.1545	0.279	0	173	460	3
2026-02-19	12:54:38.250	34.335	-29.925	77.035	0.99674	0.310368	0.39284	-0.519	0.1605	0.282	0	173	460	3
2026-02-19	12:54:38.270	21.84	-20.825	73.22	0.955016	0.315736	0.403088	-0.528	0.1635	0.288	0	173	460	3
2026-02-19	12:54:38.290	3.815	-11.69	71.155	0.939156	0.302316	0.416264	-0.5445	0.1665	0.2955	0	173	460	3
2026-02-19	12:54:38.310	-7.56	-3.675	70.245	0.93208	0.2562	0.39162	-0.552	0.171	0.297	0	173	460	3
2026-02-19	12:54:38.330	4.76	1.4	69.685	0.929884	0.210816	0.364536	-0.558	0.1725	0.3015	0	173	460	3
2026-02-19	12:54:38.350	31.78	6.755	68.845	0.952332	0.21106	0.341112	-0.5655	0.1785	0.303	0	173	460	3
2026-02-19	12:54:38.370	55.65	12.11	67.445	0.918904	0.220088	0.337452	-0.576	0.189	0.303	0	173	460	3
2026-02-19	12:54:38.390	72.205	15.33	65.1	0.885232	0.218868	0.347456	-0.582	0.1905	0.3045	0	173	460	3
2026-02-19	12:54:38.410	84.49	16.555	62.685	0.862784	0.237656	0.343796	-0.5865	0.1935	0.306	0	175	435	3
2026-02-19	12:54:38.430	90.93	15.82	60.305	0.840092	0.278648	0.35624	-0.5895	0.198	0.315	0	175	435	3
2026-02-19	12:54:38.450	89.845	15.155	56.77	0.846924	0.317444	0.39894	-0.5955	0.1965	0.324	0	175	435	3
2026-02-19	12:54:38.470	76.3	15.61	53.655	0.88694	0.337452	0.409432	-0.603	0.1875	0.336	0	175	435	3
2026-02-19	12:54:38.490	55.405	16.45	52.15	0.904996	0.333548	0.389668	-0.606	0.186	0.3435	0	175	435	3
2026-02-19	12:54:38.510	36.82	17.22	50.505	0.876936	0.30622	0.354776	-0.6105	0.1905	0.342	0	175	435	3
2026-02-19	12:54:38.530	21.665	14.98	47.32	0.877424	0.293044	0.328912	-0.612	0.1935	0.3405	0	175	435	3
2026-02-19	12:54:38.550	5.005	11.795	44.24	0.912804	0.2928	0.380884	-0.612	0.1935	0.3405	0	175	435	3
2026-02-19	12:54:38.570	-11.13	11.935	40.425	0.873764	0.27328	0.410652	-0.627	0.204	0.3435	0	175	435	3
2026-02-19	12:54:38.590	-24.045	10.85	35.875	0.831064	0.230824	0.394792	-0.6255	0.21	0.342	0	175	435	3
2026-02-19	12:54:38.610	-30.905	7.42	32.13	0.823012	0.201544	0.380396	-0.627	0.219	0.3435	0	173	419	1
2026-02-19	12:54:38.630	-36.575	3.22	29.75	0.852048	0.195444	0.38918	-0.63	0.2205	0.3375	0	173	419	1
2026-02-19	12:54:38.650	-42.945	-0.665	28.7	0.888404	0.171776	0.422852	-0.6315	0.2205	0.3285	0	173	419	1
2026-02-19	12:54:38.670	-47.495	-1.19	27.335	0.86132	0.159088	0.461648	-0.6315	0.2295	0.324	0	173	419	1
2026-02-19	12:54:38.690	-51.975	-1.435	24.815	0.849364	0.13664	0.469944	-0.6315	0.2385	0.3255	0	173	419	1
2026-02-19	12:54:38.710	-52.675	-1.82	22.575	0.850828	0.105408	0.46116	-0.6345	0.2445	0.3255	0	173	419	1
2026-02-19	12:54:38.730	-49.56	-2.415	21.7	0.883524	0.085644	0.439688	-0.642	0.252	0.318	0	173	419	1
2026-02-19	12:54:38.750	-37.555	-3.605	21.77	0.90768	0.051728	0.408944	-0.645	0.2565	0.3135	0	173	419	1
2026-02-19	12:54:38.770	-17.675	-4.725	20.93	0.893528	0.03782	0.399184	-0.639	0.2565	0.3165	0	173	419	1
2026-02-19	12:54:38.790	-1.715	-7.07	20.405	0.922076	0.0427	0.431636	-0.6405	0.2595	0.3165	0	173	419	1
2026-02-19	12:54:38.810	8.365	-9.065	21.105	0.934764	0.048312	0.484096	-0.645	0.2625	0.3135	0	169	413	1
2026-02-19	12:54:38.830	15.645	-10.535	20.37	0.92964	0.066368	0.495808	-0.6465	0.2625	0.3135	0	169	413	1
2026-02-19	12:54:38.850	18.62	-11.515	19.425	0.918172	0.0793	0.489464	-0.6585	0.27	0.3165	0	169	413	1
2026-02-19	12:54:38.870	16.38	-13.3	18.865	0.95648	0.082228	0.49288	-0.66	0.2745	0.3225	0	169	413	1
2026-02-19	12:54:38.890	11.69	-13.615	19.075	1.008696	0.063196	0.49776	-0.6585	0.273	0.3285	0	169	413	1
2026-02-19	12:54:38.910	13.965	-11.445	19.25	1.003816	0.05002	0.45506	-0.66	0.2745	0.33	0	169	413	1
2026-02-19	12:54:38.930	23.59	-9.345	18.305	0.981856	0.058804	0.421388	-0.657	0.2745	0.33	0	169	413	1
2026-02-19	12:54:38.950	29.995	-9.17	19.39	1.096536	0.048312	0.411384	-0.66	0.273	0.3315	0	169	413	1
2026-02-19	12:54:38.970	44.975	-6.65	21.385	1.142164	0.030744	0.364536	-0.663	0.273	0.3315	0	169	413	1
2026-02-19	12:54:38.990	71.54	-2.1	18.795	1.00406	0.081496	0.32086	-0.66	0.273	0.333	0	169	413	1
2026-02-19	12:54:39.010	83.615	-8.085	14.91	0.93208	0.151524	0.343308	-0.66	0.276	0.345	0	163	418	3
