yyyy-MM-dd	HH:mm:ss.fff	gyrX	gyrY	gyrZ	accX	accY	accZ	magX	magY	magZ	Marker	Energy	Angle	Classification
2026-02-17	14:18:47.810	1.19	-0.455	0.245	-0.010004	0.024156	1.015772	-0.1455	0.0105	0.0405	0	11	1038	1
2026-02-17	14:18:47.830	1.19	-0.56	0.21	-0.013908	0.01952	1.017724	-0.141	0.009	0.036	0	11	1038	1
2026-02-17	14:18:47.850	1.19	-0.49	0.245	-0.011224	0.020008	1.01748	-0.1425	0.009	0.0405	0	11	1038	1
2026-02-17	14:18:47.870	1.19	-0.49	0.28	-0.011712	0.023912	1.0126	-0.141	0.009	0.0435	0	11	1038	1
2026-02-17	14:18:47.890	1.155	-0.49	0.245	-0.011712	0.020984	1.014308	-0.1395	0.009	0.0405	0	11	1038	1
2026-02-17	14:18:47.910	1.155	-0.525	0.245	-0.011956	0.02318	1.01626	-0.1425	0.0135	0.0405	0	11	1038	1
2026-02-17	14:18:47.930	1.155	-0.49	0.245	-0.011224	0.023424	1.015284	-0.1455	0.0135	0.0435	0	11	1038	1
2026-02-17	14:18:47.950	1.155	-0.455	0.245	-0.011956	0.017568	1.014552	-0.1485	0.012	0.0435	0	11	1038	1
2026-02-17	14:18:47.970	1.155	-0.49	0.245	-0.010248	0.023668	1.01138	-0.1485	0.012	0.0435	0	11	1038	1
2026-02-17	14:18:47.990	1.19	-0.525	0.245	-0.013664	0.020984	1.013576	-0.144	0.0135	0.0375	0	11	1038	1
2026-02-17	14:18:48.010	1.155	-0.525	0.245	-0.01342	0.020252	1.01504	-0.144	0.0105	0.0435	0	10	1038	1
2026-02-17	14:18:48.030	1.19	-0.525	0.245	-0.010004	0.022692	1.015284	-0.15	0.0075	0.0405	0	10	1038	1
2026-02-17	14:18:48.050	1.19	-0.525	0.28	-0.011468	0.019764	1.01504	-0.1455	0.0135	0.0405	0	10	1038	1
2026-02-17	14:18:48.070	1.19	-0.49	0.245	-0.015616	0.021472	1.015772	-0.1395	0.006	0.048	0	10	1038	1
2026-02-17	14:18:48.090	1.19	-0.49	0.28	-0.010004	0.02318	1.015284	-0.15	0.009	0.0375	0	10	1038	1
2026-02-17	14:18:48.110	1.155	-0.49	0.245	-0.010004	0.02196	1.012356	-0.147	0.0135	0.0375	0	10	1038	1
2026-02-17	14:18:48.130	1.19	-0.455	0.28	-0.011468	0.021472	1.014796	-0.147	0.0165	0.0375	0	10	1038	1
2026-02-17	14:18:48.150	1.225	-0.525	0.245	-0.009272	0.022936	1.019432	-0.1485	0.0165	0.036	0	10	1038	1
2026-02-17	14:18:48.170	1.225	-0.525	0.28	-0.014884	0.024888	1.0187	-0.144	0.015	0.0465	0	10	1038	1
2026-02-17	14:18:48.190	1.155	-0.49	0.245	-0.010736	0.022692	1.011136	-0.147	0.012	0.042	0	10	1038	1
2026-02-17	14:18:48.210	1.19	-0.49	0.315	-0.009272	0.023668	1.015528	-0.1425	0.0075	0.0435	0	9	1038	1
2026-02-17	14:18:48.230	1.19	-0.525	0.28	-0.013176	0.018788	1.015528	-0.144	0.0075	0.042	0	9	1038	1
2026-02-17	14:18:48.250	1.19	-0.49	0.28	-0.01342	0.022692	1.0187	-0.1425	0.006	0.036	0	9	1038	1
2026-02-17	14:18:48.270	1.19	-0.49	0.245	-0.013176	0.02196	1.01504	-0.1425	0.0105	0.042	0	9	1038	1
2026-02-17	14:18:48.290	1.155	-0.525	0.28	-0.011956	0.022936	1.016748	-0.147	0.015	0.045	0	9	1038	1
2026-02-17	14:18:48.310	1.19	-0.525	0.28	-0.010004	0.02074	1.016992	-0.144	0.012	0.036	0	9	1038	1
2026-02-17	14:18:48.330	1.19	-0.49	0.245	-0.015616	0.022936	1.01626	-0.15	0.009	0.0375	0	9	1038	1
2026-02-17	14:18:48.350	1.19	-0.525	0.245	-0.010248	0.02074	1.015528	-0.141	0.015	0.045	0	9	1038	1
2026-02-17	14:18:48.370	1.19	-0.49	0.28	-0.01098	0.021472	1.015528	-0.1515	0.024	0.0435	0	9	1038	1
2026-02-17	14:18:48.390	1.225	-0.525	0.245	-0.010248	0.021228	1.016992	-0.1455	0.0105	0.039	0	9	1038	1
2026-02-17	14:18:48.410	1.19	-0.525	0.245	-0.010736	0.022448	1.013576	-0.1485	0.0105	0.0465	0	8	1038	1
2026-02-17	14:18:48.430	1.19	-0.525	0.245	-0.01586	0.022448	1.015284	-0.147	0.012	0.039	0	8	1038	1
2026-02-17	14:18:48.450	1.19	-0.525	0.245	-0.015372	0.019032	1.014552	-0.147	0.012	0.0375	0	8	1038	1
2026-02-17	14:18:48.470	1.155	-0.455	0.245	-0.01464	0.022448	1.015284	-0.147	0.012	0.0375	0	8	1038	1
2026-02-17	14:18:48.490	1.155	-0.49	0.245	-0.010492	0.02318	1.014796	-0.147	0.012	0.0375	0	8	1038	1
2026-02-17	14:18:48.510	1.155	-0.49	0.21	-0.004636	0.02562	1.013576	-0.147	0.012	0.0375	0	8	1038	1
2026-02-17	14:18:48.530	1.19	-0.63	0.28	-0.011468	0.021716	1.020164	-0.1425	0.0105	0.045	0	8	1038	1
2026-02-17	14:18:48.550	1.19	-0.385	0.28	-0.011468	0.020984	1.0126	-0.1425	0.006	0.0465	0	8	1038	1
2026-02-17	14:18:48.570	1.155	-0.525	0.28	-0.010248	0.022204	1.013332	-0.147	0.0045	0.0435	0	8	1038	1
2026-02-17	14:18:48.590	1.19	-0.56	0.245	-0.009272	0.019276	1.017724	-0.1425	0.0105	0.042	0	8	1038	1
2026-02-17	14:18:48.610	1.155	-0.49	0.245	-0.01098	0.02074	1.014308	-0.144	0.0075	0.036	0	7	1038	1
2026-02-17	14:18:48.630	1.225	-0.525	0.28	-0.012932	0.0183	1.01504	-0.1485	0.006	0.042	0	7	1038	1
2026-02-17	14:18:48.650	1.155	-0.525	0.245	-0.012688	0.022936	1.017236	-0.144	0.0105	0.048	0	7	1038	1
2026-02-17	14:18:48.670	1.19	-0.49	0.245	-0.010004	0.022448	1.014796	-0.1425	0.012	0.045	0	7	1038	1
2026-02-17	14:18:48.690	1.19	-0.49	0.28	-0.010736	0.020984	1.014796	-0.1425	0.0075	0.0435	0	7	1038	1
2026-02-17	14:18:48.710	1.19	-0.525	0.245	-0.012688	0.022448	1.017236	-0.147	0.006	0.0435	0	7	1038	1
2026-02-17	14:18:48.730	1.19	-0.49	0.245	-0.013664	0.022448	1.016992	-0.144	0.0105	0.0435	0	7	1038	1
2026-02-17	14:18:48.750	1.155	-0.49	0.245	-0.01342	0.023912	1.017236	-0.147	0.0075	0.0435	0	7	1038	1
2026-02-17	14:18:48.770	1.19	-0.455	0.21	-0.0122	0.019764	1.01382	-0.1485	0.009	0.0435	0	7	1038	1
2026-02-17	14:18:48.790	1.155	-0.525	0.21	-0.0122	0.024888	1.019188	-0.147	0.015	0.039	0	7	1038	1
2026-02-17	14:19:26.810	1.19	-0.56	0.245	-0.00854	0.02196	1.018212	-0.1515	0.009	0.036	0	7	16	2
2026-02-17	14:19:26.830	1.225	-0.525	0.28	-0.012932	0.0183	1.01504	-0.1485	0.006	0.042	0	7	16	2
2026-02-17	14:19:26.850	1.155	-0.525	0.245	-0.012688	0.022936	1.017236	-0.144	0.0105	0.048	0	7	16	2
2026-02-17	14:19:26.870	1.19	-0.49	0.245	-0.010004	0.022448	1.014796	-0.1425	0.012	0.045	0	7	16	2
2026-02-17	14:19:26.890	1.19	-0.49	0.28	-0.010736	0.020984	1.014796	-0.1425	0.0075	0.0435	0	7	16	2
2026-02-17	14:19:26.910	1.19	-0.525	0.245	-0.012688	0.022448	1.017236	-0.147	0.006	0.0435	0	7	16	2
2026-02-17	14:19:26.930	1.19	-0.49	0.245	-0.013664	0.022448	1.016992	-0.144	0.0105	0.0435	0	7	16	2
2026-02-17	14:19:26.950	1.155	-0.49	0.245	-0.01342	0.023912	1.017236	-0.147	0.0075	0.0435	0	7	16	2
2026-02-17	14:19:26.970	1.19	-0.455	0.21	-0.0122	0.019764	1.01382	-0.1485	0.009	0.0435	0	7	16	2
2026-02-17	14:19:26.990	10.465	-9.205	4.76	-0.013176	0.027816	1.014796	-0.147	0.015	0.039	0	7	16	2
2026-02-17	14:19:27.010	2.065	-1.33	0.805	-0.010492	0.026108	1.011868	-0.1245	-0.12	0.1965	0	83	167	2
2026-02-17	14:19:27.030	1.155	-0.525	0.28	-0.00854	0.024644	1.014796	-0.135	-0.1245	0.204	0	83	167	2
2026-02-17	14:19:27.050	1.155	-0.455	0.245	-0.009028	0.02318	1.01138	-0.126	-0.126	0.1995	0	83	167	2
2026-02-17	14:19:27.070	1.085	-0.49	0.245	-0.009516	0.024156	1.014796	-0.1275	-0.129	0.2025	0	83	167	2
2026-02-17	14:19:27.090	1.12	-0.49	0.245	-0.010492	0.026108	1.014796	-0.1305	-0.1305	0.2025	0	83	167	2
2026-02-17	14:19:27.110	1.12	-0.49	0.245	-0.015128	0.02684	1.0126	-0.132	-0.1305	0.1965	0	83	167	2
2026-02-17	14:19:27.130	1.12	-0.455	0.28	-0.011468	0.026108	1.010648	-0.1365	-0.1215	0.2055	0	83	167	2
2026-02-17	14:19:27.150	1.12	-0.595	0.245	-0.009516	0.0244	1.014308	-0.1335	-0.1275	0.2025	0	83	167	2
2026-02-17	14:19:27.170	1.155	-0.49	0.28	-0.011956	0.022936	1.014796	-0.126	-0.1305	0.1995	0	83	167	2
2026-02-17	14:19:27.190	1.155	-0.49	0.245	-0.009272	0.026596	1.0126	-0.1275	-0.1335	0.2115	0	83	167	2
2026-02-17	14:19:27.210	1.155	-0.455	0.245	-0.011468	0.0244	1.01138	-0.126	-0.135	0.201	0	210	402	1
2026-02-17	14:19:27.230	1.155	-0.56	0.28	-0.010736	0.028304	1.016016	-0.129	-0.126	0.201	0	210	402	1
2026-02-17	14:19:27.250	1.12	-0.525	0.245	-0.006588	0.027328	1.014796	-0.138	-0.1275	0.204	0	210	402	1
2026-02-17	14:19:27.270	1.155	-0.49	0.28	-0.0061	0.02562	1.012112	-0.129	-0.126	0.2025	0	210	402	1
2026-02-17	14:19:27.290	1.155	-0.49	0.245	-0.009028	0.026352	1.012356	-0.1335	-0.1275	0.207	0	210	402	1
2026-02-17	14:19:27.310	1.19	-0.525	0.245	-0.007564	0.02562	1.01626	-0.141	-0.129	0.2025	0	210	402	1
2026-02-17	14:19:27.330	1.155	-0.56	0.28	-0.007076	0.022936	1.014308	-0.1275	-0.1335	0.198	0	210	402	1
2026-02-17	14:19:27.350	1.12	-0.49	0.28	-0.005124	0.026596	1.014064	-0.138	-0.1335	0.1995	0	210	402	1
2026-02-17	14:19:27.370	1.12	-0.49	0.28	-0.009028	0.023668	1.014308	-0.126	-0.123	0.204	0	210	402	1
2026-02-17	14:19:27.390	1.155	-0.49	0.245	-0.010492	0.028304	1.014552	-0.1275	-0.123	0.1965	0	210	402	1
2026-02-17	14:19:27.410	1.155	-0.525	0.245	-0.00854	0.026108	1.015284	-0.1335	-0.126	0.2025	0	305	573	1
2026-02-17	14:19:27.430	1.155	-0.525	0.245	-0.0061	0.021716	1.0126	-0.138	-0.1335	0.204	0	305	573	1
2026-02-17	14:19:27.450	1.155	-0.525	0.28	-0.006832	0.023424	1.011136	-0.138	-0.1365	0.2055	0	305	573	1
2026-02-17	14:19:27.470	1.19	-0.56	0.245	-0.00732	0.028304	1.018456	-0.129	-0.1275	0.2025	0	305	573	1
2026-02-17	14:19:27.490	1.155	-0.525	0.28	-0.00732	0.02684	1.014552	-0.135	-0.135	0.2025	0	305	573	1
2026-02-17	14:19:27.510	1.155	-0.49	0.245	-0.005856	0.027084	1.01504	-0.1365	-0.1215	0.204	0	305	573	1
2026-02-17	14:19:27.530	1.12	-0.525	0.28	-0.0061	0.028548	1.011136	-0.132	-0.1275	0.204	0	305	573	1
2026-02-17	14:19:27.550	1.155	-0.56	0.28	-0.0122	0.022936	1.0187	-0.129	-0.1215	0.2055	0	305	573	1
2026-02-17	14:19:27.570	1.155	-0.49	0.28	-0.010004	0.026596	1.01504	-0.1335	-0.123	0.201	0	305	573	1
2026-02-17	14:19:27.590	1.155	-0.525	0.28	-0.008296	0.026108	1.014064	-0.1335	-0.1305	0.2085	0	305	573	1
2026-02-17	14:19:27.610	1.12	-0.49	0.245	-0.006344	0.024644	1.013332	-0.1245	-0.123	0.2025	0	365	698	1
2026-02-17	14:19:27.630	1.155	-0.49	0.28	-0.00976	0.025376	1.013576	-0.1185	-0.126	0.2085	0	365	698	1
2026-02-17	14:19:27.650	1.19	-0.56	0.28	-0.008296	0.023912	1.01626	-0.1275	-0.1305	0.201	0	365	698	1
2026-02-17	14:19:27.670	1.155	-0.525	0.28	-0.006344	0.025376	1.017236	-0.1305	-0.1305	0.1995	0	365	698	1
2026-02-17	14:19:27.690	1.155	-0.525	0.245	-0.005856	0.02806	1.01382	-0.135	-0.129	0.195	0	365	698	1
2026-02-17	14:19:27.710	1.155	-0.49	0.245	-0.006344	0.026596	1.01382	-0.1365	-0.135	0.204	0	365	698	1
2026-02-17	14:19:27.730	1.19	-0.525	0.21	-0.006588	0.026596	1.015284	-0.132	-0.132	0.21	0	365	698	1
2026-02-17	14:19:27.750	1.155	-0.56	0.245	-0.008784	0.025132	1.015772	-0.132	-0.132	0.21	0	365	698	1
2026-02-17	14:19:27.770	1.155	-0.49	0.245	-0.010736	0.02684	1.012844	-0.1335	-0.129	0.207	0	365	698	1
2026-02-17	14:19:27.790	1.155	-0.525	0.28	-0.007564	0.025132	1.015772	-0.1365	-0.126	0.204	0	365	698	1
2026-02-17	14:19:27.810	1.155	-0.525	0.245	-0.008296	0.025864	1.017968	-0.132	-0.126	0.201	0	391	790	1
2026-02-17	14:19:27.830	1.12	-0.455	0.28	-0.006832	0.026596	1.014308	-0.1305	-0.126	0.1965	0	391	790	1
2026-02-17	14:19:27.850	1.12	-0.49	0.245	-0.00732	0.029036	1.013576	-0.1305	-0.129	0.1995	0	391	790	1
2026-02-17	14:19:27.870	1.155	-0.525	0.245	-0.006588	0.025132	1.017724	-0.1305	-0.1305	0.201	0	391	790	1
2026-02-17	14:19:27.890	1.12	-0.49	0.245	-0.009028	0.027084	1.015772	-0.1335	-0.1275	0.201	0	391	790	1
2026-02-17	14:19:27.910	1.12	-0.455	0.245	-0.009028	0.026352	1.010648	-0.1365	-0.126	0.2025	0	391	790	1
2026-02-17	14:19:27.930	1.155	-0.525	0.245	-0.010492	0.026108	1.014552	-0.1365	-0.126	0.2025	0	391	790	1
2026-02-17	14:19:27.950	1.12	-0.525	0.21	-0.006344	0.025132	1.012844	-0.1365	-0.126	0.2025	0	391	790	1
2026-02-17	14:19:27.970	1.155	-0.455	0.28	-0.006588	0.024644	1.013332	-0.132	-0.129	0.2055	0	391	790	1
2026-02-17	14:19:27.990	1.155	-0.525	0.245	-0.005124	0.022692	1.014796	-0.138	-0.126	0.2055	0	391	790	1
2026-02-17	14:19:28.010	1.155	-0.525	0.245	-0.00854	0.027084	1.01748	-0.1395	-0.132	0.1965	0	388	856	1
2026-02-17	14:19:28.030	1.155	-0.49	0.245	-0.007076	0.025132	1.012112	-0.129	-0.126	0.198	0	388	856	1
2026-02-17	14:19:28.050	1.155	-0.525	0.245	-0.004636	0.024888	1.015528	-0.132	-0.129	0.1995	0	388	856	1
2026-02-17	14:19:28.070	1.12	-0.455	0.245	-0.006832	0.026352	1.013088	-0.129	-0.1275	0.21	0	388	856	1
2026-02-17	14:19:28.090	1.12	-0.525	0.245	-0.008296	0.02562	1.01504	-0.132	-0.129	0.1995	0	388	856	1
2026-02-17	14:19:28.110	1.19	-0.525	0.28	-0.005856	0.024644	1.013576	-0.1365	-0.1215	0.204	0	388	856	1
2026-02-17	14:19:28.130	1.155	-0.56	0.245	-0.01098	0.024888	1.015284	-0.135	-0.1275	0.198	0	388	856	1
2026-02-17	14:19:28.150	1.155	-0.42	0.28	-0.010248	0.025376	1.01382	-0.135	-0.129	0.21	0	388	856	1
2026-02-17	14:19:28.170	1.155	-0.455	0.245	-0.009028	0.030744	1.014308	-0.132	-0.12	0.189	0	388	856	1
2026-02-17	14:19:28.190	1.155	-0.56	0.245	-0.008296	0.026108	1.016748	-0.132	-0.1335	0.2055	0	388	856	1
2026-02-17	14:19:28.210	1.155	-0.525	0.245	-0.00854	0.024644	1.018212	-0.1305	-0.1245	0.2055	0	366	905	1
2026-02-17	14:19:28.230	1.12	-0.455	0.245	-0.009516	0.025864	1.012356	-0.126	-0.126	0.195	0	366	905	1
2026-02-17	14:19:28.250	1.19	-0.49	0.28	-0.004148	0.021716	1.012844	-0.132	-0.1275	0.204	0	366	905	1
2026-02-17	14:19:28.270	1.155	-0.595	0.28	-0.012444	0.024888	1.019432	-0.129	-0.126	0.201	0	366	905	1
2026-02-17	14:19:28.290	1.12	-0.455	0.245	-0.011224	0.023912	1.016016	-0.126	-0.1275	0.2025	0	366	905	1
2026-02-17	14:19:28.310	1.12	-0.455	0.245	-0.007808	0.024888	1.010892	-0.123	-0.129	0.1995	0	366	905	1
2026-02-17	14:19:28.330	1.155	-0.525	0.245	-0.00976	0.026108	1.01382	-0.1365	-0.1245	0.1995	0	366	905	1
2026-02-17	14:19:28.350	1.19	-0.56	0.28	-0.00732	0.025376	1.015772	-0.1305	-0.132	0.201	0	366	905	1
2026-02-17	14:19:28.370	1.155	-0.525	0.28	-0.010492	0.024888	1.015528	-0.129	-0.1275	0.2025	0	366	905	1
2026-02-17	14:19:28.390	1.19	-0.595	0.28	-0.00732	0.02318	1.018212	-0.1305	-0.1275	0.207	0	366	905	1
2026-02-17	14:19:28.410	1.155	-0.385	0.245	-0.008052	0.023424	1.010648	-0.138	-0.126	0.21	0	330	941	1
2026-02-17	14:19:28.430	1.155	-0.56	0.245	-0.009516	0.026108	1.01626	-0.126	-0.132	0.204	0	330	941	1
2026-02-17	14:19:28.450	1.12	-0.56	0.28	-0.008052	0.026108	1.015528	-0.1335	-0.135	0.2055	0	330	941	1
2026-02-17	14:19:28.470	1.155	-0.49	0.28	-0.009028	0.0244	1.014552	-0.135	-0.129	0.213	0	330	941	1
2026-02-17	14:19:28.490	1.155	-0.49	0.28	-0.007808	0.02684	1.013088	-0.1275	-0.129	0.2025	0	330	941	1
2026-02-17	14:19:28.510	1.155	-0.525	0.28	-0.00732	0.026596	1.01504	-0.1275	-0.1275	0.1995	0	330	941	1
2026-02-17	14:19:28.530	1.155	-0.56	0.28	-0.00732	0.023424	1.014796	-0.1245	-0.132	0.198	0	330	941	1
2026-02-17	14:19:28.550	1.155	-0.42	0.28	-0.010248	0.024156	1.010892	-0.135	-0.132	0.21	0	330	941	1
2026-02-17	14:19:28.570	1.19	-0.63	0.245	-0.009272	0.026108	1.01626	-0.126	-0.1305	0.207	0	330	941	1
2026-02-17	14:19:28.590	1.12	-0.525	0.245	-0.007564	0.023912	1.0187	-0.1215	-0.1335	0.201	0	330	941	1
2026-02-17	14:19:28.610	1.19	-0.525	0.28	-0.00854	0.028548	1.015528	-0.1335	-0.1245	0.2025	0	290	967	1
2026-02-17	14:19:28.630	1.155	-0.49	0.245	-0.011468	0.022936	1.01016	-0.1335	-0.1305	0.2025	0	290	967	1
2026-02-17	14:19:28.650	1.155	-0.49	0.245	-0.009516	0.025132	1.016748	-0.129	-0.1305	0.207	0	290	967	1
2026-02-17	14:19:28.670	1.12	-0.63	0.28	-0.008296	0.02684	1.020896	-0.1305	-0.129	0.207	0	290	967	1
2026-02-17	14:19:28.690	1.155	-0.35	0.28	-0.012688	0.026596	1.012356	-0.132	-0.126	0.2085	0	290	967	1
2026-02-17	14:19:28.710	1.12	-0.455	0.28	-0.007564	0.026108	1.014064	-0.1365	-0.129	0.2055	0	290	967	1
2026-02-17	14:19:28.730	1.12	-0.595	0.245	-0.011224	0.023912	1.014796	-0.1275	-0.129	0.2085	0	290	967	1
2026-02-17	14:19:28.750	1.155	-0.525	0.28	-0.010004	0.025132	1.014064	-0.126	-0.1305	0.213	0	290	967	1
2026-02-17	14:19:28.770	1.19	-0.525	0.245	-0.008784	0.02562	1.018456	-0.129	-0.126	0.1965	0	290	967	1
2026-02-17	14:19:28.790	1.155	-0.525	0.28	-0.008296	0.026596	1.017968	-0.1275	-0.126	0.201	0	290	967	1
2026-02-17	14:19:28.810	1.155	-0.385	0.28	-0.0122	0.01952	1.012112	-0.1335	-0.129	0.204	0	249	986	1
2026-02-17	14:19:28.830	1.19	-0.56	0.245	-0.009272	0.026108	1.014064	-0.1335	-0.129	0.204	0	249	986	1
2026-02-17	14:19:28.850	1.19	-0.56	0.245	-0.007564	0.027816	1.01992	-0.1305	-0.129	0.2025	0	249	986	1
2026-02-17	14:19:28.870	1.155	-0.49	0.245	-0.006832	0.02806	1.014796	-0.1275	-0.1305	0.201	0	249	986	1
2026-02-17	14:19:28.890	1.12	-0.525	0.245	-0.01098	0.026108	1.012356	-0.1275	-0.129	0.2055	0	249	986	1
2026-02-17	14:19:28.910	1.19	-0.525	0.28	-0.007808	0.02318	1.015528	-0.1275	-0.129	0.21	0	249	986	1
2026-02-17	14:19:28.930	1.19	-0.455	0.245	-0.008784	0.02806	1.015528	-0.1275	-0.129	0.2085	0	249	986	1
2026-02-17	14:19:28.950	1.19	-0.49	0.245	-0.005612	0.025864	1.01626	-0.1275	-0.129	0.2085	0	249	986	1
2026-02-17	14:19:28.970	1.12	-0.49	0.245	-0.005368	0.02806	1.013332	-0.1275	-0.129	0.2085	0	249	986	1
2026-02-17	14:19:28.990	1.155	-0.525	0.28	-0.007808	0.023668	1.01382	-0.1335	-0.126	0.201	0	249	986	1
2026-02-17	14:19:29.010	1.19	-0.49	0.245	-0.011468	0.024644	1.012844	-0.135	-0.1275	0.204	0	211	1000	1
2026-02-17	14:19:29.030	1.155	-0.525	0.245	-0.012444	0.024156	1.016748	-0.1335	-0.1335	0.2085	0	211	1000	1
2026-02-17	14:19:29.050	1.19	-0.49	0.28	-0.010736	0.022448	1.016016	-0.1365	-0.1275	0.2025	0	211	1000	1
2026-02-17	14:19:29.070	1.155	-0.49	0.28	-0.006588	0.024644	1.01138	-0.126	-0.132	0.198	0	211	1000	1
2026-02-17	14:19:29.090	1.19	-0.525	0.28	-0.009028	0.027328	1.012844	-0.1305	-0.1245	0.198	0	211	1000	1
2026-02-17	14:19:29.110	1.19	-0.63	0.28	-0.006344	0.027816	1.018456	-0.1335	-0.1305	0.2085	0	211	1000	1
2026-02-17	14:19:29.130	1.155	-0.455	0.28	-0.008052	0.024156	1.014064	-0.126	-0.132	0.1965	0	211	1000	1
2026-02-17	14:19:29.150	1.155	-0.49	0.245	-0.011224	0.024644	1.011136	-0.129	-0.1245	0.207	0	211	1000	1
2026-02-17	14:19:29.170	1.155	-0.525	0.245	-0.009028	0.026352	1.01504	-0.1365	-0.132	0.2085	0	211	1000	1
2026-02-17	14:19:29.190	1.155	-0.525	0.28	-0.010736	0.027084	1.01748	-0.1245	-0.126	0.1905	0	211	1000	1
2026-02-17	14:19:29.210	1.155	-0.455	0.28	-0.007564	0.024644	1.015772	-0.1365	-0.129	0.204	0	177	1010	1
2026-02-17	14:19:29.230	1.19	-0.525	0.28	-0.008296	0.02318	1.01382	-0.1335	-0.1275	0.192	0	177	1010	1
2026-02-17	14:19:29.250	1.155	-0.56	0.28	-0.010492	0.021472	1.018212	-0.129	-0.123	0.204	0	177	1010	1
2026-02-17	14:19:29.270	1.12	-0.49	0.245	-0.010492	0.024644	1.01504	-0.1305	-0.1275	0.207	0	177	1010	1
2026-02-17	14:19:29.290	1.155	-0.525	0.28	-0.007808	0.026352	1.01382	-0.1305	-0.126	0.1995	0	177	1010	1
2026-02-17	14:19:29.310	1.155	-0.455	0.245	-0.011956	0.024156	1.01382	-0.1215	-0.1185	0.2025	0	177	1010	1
2026-02-17	14:19:29.330	1.155	-0.595	0.28	-0.0061	0.025132	1.01504	-0.129	-0.1245	0.2055	0	177	1010	1
2026-02-17	14:19:29.350	1.155	-0.49	0.28	-0.005368	0.026352	1.012356	-0.126	-0.123	0.21	0	177	1010	1
2026-02-17	14:19:29.370	1.155	-0.455	0.28	-0.008296	0.023668	1.014308	-0.1335	-0.1335	0.207	0	177	1010	1
2026-02-17	14:19:29.390	1.155	-0.525	0.245	-0.005856	0.0244	1.015284	-0.1395	-0.129	0.2055	0	177	1010	1
2026-02-17	14:19:29.410	1.19	-0.49	0.28	-0.00976	0.024888	1.01504	-0.1245	-0.1245	0.201	0	148	1017	1
2026-02-17	14:19:29.430	1.12	-0.56	0.245	-0.008052	0.025864	1.016016	-0.126	-0.123	0.1995	0	148	1017	1
2026-02-17	14:19:29.450	1.155	-0.525	0.245	-0.008784	0.027328	1.01504	-0.1365	-0.129	0.204	0	148	1017	1
2026-02-17	14:19:29.470	1.12	-0.49	0.28	-0.008052	0.027816	1.011868	-0.132	-0.1365	0.204	0	148	1017	1
2026-02-17	14:19:29.490	1.155	-0.525	0.28	-0.0061	0.020984	1.015284	-0.1215	-0.126	0.207	0	148	1017	1
2026-02-17	14:19:29.510	1.155	-0.455	0.245	-0.008784	0.027084	1.016748	-0.132	-0.132	0.2055	0	148	1017	1
2026-02-17	14:19:29.530	1.155	-0.28	0.245	-0.008296	0.027572	1.007232	-0.129	-0.1305	0.2055	0	148	1017	1
2026-02-17	14:19:29.550	1.155	-0.875	0.315	-0.008784	0.025376	1.02236	-0.1395	-0.135	0.201	0	148	1017	1
2026-02-17	14:19:29.570	1.155	-0.35	0.28	-0.00732	0.022692	1.01382	-0.126	-0.1275	0.198	0	148	1017	1
2026-02-17	14:19:29.590	1.155	-0.42	0.28	-0.009028	0.024156	1.011868	-0.138	-0.1305	0.1965	0	148	1017	1
2026-02-17	14:19:29.610	1.155	-0.595	0.245	-0.009272	0.023912	1.014064	-0.1335	-0.132	0.204	0	124	1023	1
2026-02-17	14:19:29.630	1.19	-0.525	0.245	-0.01098	0.027084	1.018212	-0.123	-0.132	0.201	0	124	1023	1
2026-02-17	14:19:29.650	1.12	-0.455	0.28	-0.007564	0.023912	1.017968	-0.141	-0.126	0.2055	0	124	1023	1
2026-02-17	14:19:29.670	1.155	-0.455	0.28	-0.012932	0.0244	1.007232	-0.132	-0.132	0.198	0	124	1023	1
2026-02-17	14:19:29.690	1.155	-0.63	0.245	-0.011468	0.028304	1.021628	-0.1335	-0.123	0.204	0	124	1023	1
2026-02-17	14:19:29.710	1.155	-0.28	0.245	-0.010248	0.024888	1.006012	-0.1335	-0.135	0.1995	0	124	1023	1
2026-02-17	14:19:29.730	1.19	-0.77	0.28	-0.008296	0.02562	1.0248	-0.1275	-0.1305	0.207	0	124	1023	1
2026-02-17	14:19:29.750	1.155	-0.315	0.245	-0.00976	0.021472	1.011868	-0.1305	-0.132	0.2025	0	124	1023	1
2026-02-17	14:19:29.770	1.155	-0.525	0.21	-0.013176	0.027572	1.012844	-0.1335	-0.123	0.2025	0	124	1023	1
2026-02-17	14:19:29.790	1.12	-0.7	0.245	-0.006832	0.027816	1.024312	-0.135	-0.132	0.207	0	124	1023	1
2026-02-17	14:19:29.810	1.155	-0.28	0.245	-0.005368	0.023424	1.009672	-0.132	-0.1335	0.21	0	104	1026	1
2026-02-17	14:19:29.830	1.12	-0.735	0.315	-0.007808	0.020496	1.01992	-0.138	-0.123	0.2025	0	104	1026	1
2026-02-17	14:19:29.850	1.155	-0.315	0.28	-0.010004	0.02562	1.0065	-0.135	-0.129	0.2055	0	104	1026	1
2026-02-17	14:19:29.870	1.19	-0.595	0.28	-0.005856	0.02806	1.015772	-0.1335	-0.123	0.195	0	104	1026	1
2026-02-17	14:19:29.890	1.155	-0.525	0.245	-0.010736	0.025864	1.02114	-0.12	-0.1275	0.2025	0	104	1026	1
2026-02-17	14:19:29.910	1.12	-0.385	0.28	-0.006588	0.025132	1.007964	-0.12	-0.1275	0.2025	0	104	1026	1
2026-02-17	14:19:29.930	1.155	-0.595	0.28	-0.00976	0.025132	1.016504	-0.129	-0.132	0.2025	0	104	1026	1
2026-02-17	14:19:29.950	1.155	-0.595	0.28	-0.008296	0.02806	1.016748	-0.138	-0.1365	0.204	0	104	1026	1
2026-02-17	14:19:29.970	1.155	-0.455	0.245	-0.009272	0.022448	1.01138	-0.138	-0.1365	0.204	0	104	1026	1
2026-02-17	14:19:29.990	1.155	-0.665	0.245	-0.008784	0.029036	1.020652	-0.138	-0.1365	0.204	0	104	1026	1
2026-02-17	14:19:30.010	1.12	-0.56	0.21	-0.011224	0.021716	1.016992	-0.138	-0.1365	0.204	0	88	1029	1
2026-02-17	14:19:30.030	1.12	-0.595	0.28	-0.00854	0.026596	1.014308	-0.138	-0.1365	0.204	0	88	1029	1
2026-02-17	14:19:30.050	1.155	-0.525	0.21	-0.006588	0.021716	1.013332	-0.1305	-0.1335	0.2055	0	88	1029	1
2026-02-17	14:19:30.070	1.155	-0.63	0.245	-0.010004	0.028548	1.01748	-0.1335	-0.1335	0.207	0	88	1029	1
2026-02-17	14:19:30.090	1.12	-0.56	0.28	-0.00854	0.02684	1.015528	-0.129	-0.12	0.192	0	88	1029	1
2026-02-17	14:19:30.110	1.155	-0.525	0.245	-0.008296	0.026596	1.015772	-0.1275	-0.123	0.1935	0	88	1029	1
2026-02-17	14:19:30.130	1.155	-0.49	0.28	-0.00732	0.025376	1.01138	-0.1365	-0.138	0.2025	0	88	1029	1
2026-02-17	14:19:30.150	1.19	-0.595	0.245	-0.011712	0.02562	1.01748	-0.1335	-0.126	0.204	0	88	1029	1
2026-02-17	14:19:30.170	1.19	-0.49	0.28	-0.0122	0.0244	1.015528	-0.126	-0.1275	0.1995	0	88	1029	1
2026-02-17	14:19:30.190	1.155	-0.49	0.28	-0.006832	0.026596	1.012356	-0.126	-0.132	0.1935	0	88	1029	1
2026-02-17	14:19:30.210	1.155	-0.595	0.28	-0.00976	0.023668	1.016504	-0.1305	-0.1245	0.207	0	75	1032	1
2026-02-17	14:19:30.230	1.155	-0.525	0.315	-0.003172	0.028548	1.012356	-0.126	-0.126	0.207	0	75	1032	1
2026-02-17	14:19:30.250	1.155	-0.455	0.245	-0.006832	0.025864	1.014064	-0.1215	-0.12	0.2085	0	75	1032	1
2026-02-17	14:19:30.270	1.155	-0.525	0.245	-0.008784	0.025376	1.016504	-0.135	-0.1275	0.2025	0	75	1032	1
2026-02-17	14:19:30.290	1.12	-0.455	0.245	-0.006588	0.024156	1.01382	-0.129	-0.1335	0.201	0	75	1032	1
2026-02-17	14:19:30.310	1.12	-0.56	0.245	-0.008052	0.025132	1.015284	-0.135	-0.129	0.2085	0	75	1032	1
2026-02-17	14:19:30.330	1.12	-0.49	0.245	-0.010736	0.026596	1.016748	-0.1245	-0.1305	0.195	0	75	1032	1
2026-02-17	14:19:30.350	1.155	-0.42	0.245	-0.00854	0.025376	1.009672	-0.132	-0.1245	0.2025	0	75	1032	1
2026-02-17	14:19:30.370	1.19	-0.595	0.28	-0.008296	0.028304	1.01748	-0.1335	-0.126	0.198	0	75	1032	1
2026-02-17	14:19:30.390	1.155	-0.49	0.245	-0.008052	0.026108	1.014796	-0.1335	-0.1305	0.21	0	75	1032	1
2026-02-17	14:19:30.410	1.12	-0.49	0.28	-0.009272	0.027572	1.014796	-0.126	-0.12	0.2055	0	65	1033	1
2026-02-17	14:19:30.430	1.19	-0.49	0.245	-0.009272	0.026352	1.012356	-0.1275	-0.135	0.2055	0	65	1033	1
2026-02-17	14:19:30.450	1.155	-0.56	0.245	-0.008784	0.026596	1.017968	-0.1275	-0.1305	0.204	0	65	1033	1
2026-02-17	14:19:30.470	1.12	-0.525	0.28	-0.005856	0.027328	1.015528	-0.1305	-0.1245	0.201	0	65	1033	1
2026-02-17	14:19:30.490	1.155	-0.49	0.245	-0.00854	0.0244	1.013332	-0.138	-0.129	0.204	0	65	1033	1
2026-02-17	14:19:30.510	1.155	-0.49	0.28	-0.007808	0.02684	1.015772	-0.1305	-0.1275	0.204	0	65	1033	1
2026-02-17	14:19:30.530	1.155	-0.56	0.245	-0.006344	0.0244	1.017236	-0.132	-0.1245	0.207	0	65	1033	1
2026-02-17	14:19:30.550	1.19	-0.42	0.245	-0.008784	0.027084	1.014552	-0.1335	-0.129	0.207	0	65	1033	1
2026-02-17	14:19:30.570	1.155	-0.56	0.245	-0.009516	0.023424	1.014552	-0.135	-0.126	0.204	0	65	1033	1
2026-02-17	14:19:30.590	1.155	-0.56	0.28	-0.00976	0.027816	1.017968	-0.1245	-0.138	0.201	0	65	1033	1
2026-02-17	14:19:30.610	1.155	-0.49	0.28	-0.007076	0.0305	1.013576	-0.1215	-0.129	0.2055	0	56	1034	1
2026-02-17	14:19:30.630	1.12	-0.525	0.245	-0.008052	0.026596	1.015284	-0.129	-0.129	0.207	0	56	1034	1
2026-02-17	14:19:30.650	1.19	-0.525	0.28	-0.009028	0.026596	1.01626	-0.1275	-0.1245	0.204	0	56	1034	1
2026-02-17	14:19:30.670	1.155	-0.49	0.245	-0.010248	0.0244	1.014552	-0.1275	-0.1245	0.1965	0	56	1034	1
2026-02-17	14:19:30.690	1.12	-0.49	0.245	-0.007076	0.024644	1.015284	-0.129	-0.135	0.204	0	56	1034	1
2026-02-17	14:19:30.710	1.12	-0.56	0.245	-0.010248	0.028304	1.01748	-0.126	-0.1275	0.2175	0	56	1034	1
2026-02-17	14:19:30.730	1.155	-0.56	0.245	-0.010004	0.029524	1.015772	-0.1335	-0.129	0.1995	0	56	1034	1
2026-02-17	14:19:30.750	1.12	-0.49	0.28	-0.005612	0.02562	1.016992	-0.1305	-0.123	0.1935	0	56	1034	1
2026-02-17	14:19:30.770	1.155	-0.525	0.28	-0.008784	0.026596	1.013576	-0.1245	-0.129	0.201	0	56	1034	1
2026-02-17	14:19:30.790	1.12	-0.525	0.245	-0.006588	0.026108	1.01382	-0.135	-0.1305	0.198	0	56	1034	1
2026-02-17	14:19:30.810	1.155	-0.525	0.28	-0.008784	0.0244	1.018456	-0.129	-0.132	0.2025	0	48	1035	1
2026-02-17	14:19:30.830	1.155	-0.525	0.245	-0.01098	0.02318	1.011136	-0.132	-0.1305	0.198	0	48	1035	1
2026-02-17	14:19:30.850	1.19	-0.42	0.28	-0.009272	0.026596	1.015528	-0.1275	-0.1275	0.207	0	48	1035	1
2026-02-17	14:19:30.870	1.19	-0.63	0.28	-0.011468	0.027572	1.01992	-0.1335	-0.126	0.2085	0	48	1035	1
2026-02-17	14:19:30.890	1.155	-0.385	0.245	-0.006344	0.022936	1.010648	-0.1305	-0.135	0.201	0	48	1035	1
2026-02-17	14:19:30.910	1.19	-0.665	0.245	-0.008052	0.02562	1.024068	-0.1335	-0.123	0.204	0	48	1035	1
2026-02-17	14:19:30.930	1.12	-0.385	0.28	-0.009516	0.024644	1.013332	-0.129	-0.1275	0.1995	0	48	1035	1
2026-02-17	14:19:30.950	1.12	-0.49	0.245	-0.006344	0.020008	1.007964	-0.132	-0.132	0.201	0	48	1035	1
2026-02-17	14:19:30.970	1.225	-0.63	0.245	-0.007076	0.022692	1.017968	-0.132	-0.132	0.201	0	48	1035	1
2026-02-17	14:19:30.990	1.155	-0.42	0.28	-0.010004	0.02562	1.018212	-0.132	-0.132	0.201	0	48	1035	1
2026-02-17	14:19:31.010	1.155	-0.56	0.245	-0.014152	0.028792	1.018944	-0.135	-0.1245	0.2085	0	42	1036	1
2026-02-17	14:19:31.030	1.155	-0.42	0.245	-0.009028	0.026596	1.0126	-0.135	-0.1245	0.2085	0	42	1036	1
2026-02-17	14:19:31.050	1.155	-0.525	0.245	-0.004636	0.023668	1.009916	-0.1305	-0.129	0.2055	0	42	1036	1
2026-02-17	14:19:31.070	1.19	-0.525	0.245	-0.008784	0.025132	1.015528	-0.132	-0.1335	0.2055	0	42	1036	1
2026-02-17	14:19:31.090	1.19	-0.595	0.28	-0.01098	0.02684	1.020164	-0.135	-0.1275	0.207	0	42	1036	1
2026-02-17	14:19:31.110	1.12	-0.385	0.28	-0.004392	0.026108	1.012356	-0.1245	-0.12	0.2025	0	42	1036	1
2026-02-17	14:19:31.130	1.155	-0.56	0.245	-0.008052	0.022204	1.013576	-0.1245	-0.132	0.2025	0	42	1036	1
2026-02-17	14:19:31.150	1.155	-0.56	0.28	-0.010248	0.023668	1.019188	-0.138	-0.1305	0.2085	0	42	1036	1
2026-02-17	14:19:31.170	1.19	-0.525	0.245	-0.010248	0.026108	1.018456	-0.129	-0.129	0.204	0	42	1036	1
2026-02-17	14:19:31.190	1.155	-0.455	0.245	-0.010004	0.027816	1.01382	-0.132	-0.1275	0.213	0	42	1036	1
2026-02-17	14:19:31.210	1.12	-0.455	0.245	-0.00732	0.0244	1.014552	-0.135	-0.129	0.2085	0	36	1037	1
2026-02-17	14:19:31.230	1.155	-0.525	0.315	-0.01098	0.026108	1.016748	-0.129	-0.126	0.21	0	36	1037	1
2026-02-17	14:19:31.250	1.155	-0.525	0.245	-0.008784	0.023912	1.017724	-0.1335	-0.1305	0.2025	0	36	1037	1
2026-02-17	14:19:31.270	1.155	-0.49	0.28	-0.012688	0.025132	1.011868	-0.1305	-0.1245	0.207	0	36	1037	1
2026-02-17	14:19:31.290	1.155	-0.595	0.245	-0.007564	0.02684	1.016992	-0.1425	-0.129	0.213	0	36	1037	1
2026-02-17	14:19:31.310	1.19	-0.42	0.28	-0.011956	0.025376	1.013332	-0.1275	-0.1275	0.2085	0	36	1037	1
2026-02-17	14:19:31.330	1.19	-0.56	0.245	-0.005856	0.024644	1.01626	-0.132	-0.135	0.1965	0	36	1037	1
2026-02-17	14:19:31.350	1.155	-0.49	0.28	-0.010248	0.026108	1.01382	-0.1275	-0.129	0.207	0	36	1037	1
2026-02-17	14:19:31.370	1.085	-0.56	0.245	-0.007076	0.022448	1.014308	-0.1275	-0.1305	0.198	0	36	1037	1
2026-02-17	14:19:31.390	1.12	-0.385	0.245	-0.010248	0.027084	1.013332	-0.129	-0.129	0.2025	0	36	1037	1
2026-02-17	14:19:31.410	1.19	-0.56	0.28	-0.009516	0.025864	1.013576	-0.1275	-0.1335	0.2085	0	32	1037	1
2026-02-17	14:19:31.430	1.155	-0.595	0.28	-0.007076	0.024888	1.022604	-0.1335	-0.1275	0.2025	0	32	1037	1
2026-02-17	14:19:31.450	1.12	-0.42	0.245	-0.008296	0.024644	1.01382	-0.1305	-0.1275	0.204	0	32	1037	1
2026-02-17	14:19:31.470	1.155	-0.42	0.21	-0.007564	0.027572	1.005524	-0.1335	-0.1185	0.201	0	32	1037	1
2026-02-17	14:19:31.490	1.19	-0.56	0.245	-0.004148	0.024644	1.018944	-0.12	-0.1275	0.2085	0	32	1037	1
2026-02-17	14:19:31.510	1.225	-0.595	0.245	-0.011712	0.02928	1.026752	-0.132	-0.126	0.21	0	32	1037	1
2026-02-17	14:19:31.530	1.155	-0.385	0.245	-0.012688	0.02684	1.01504	-0.129	-0.123	0.201	0	32	1037	1
2026-02-17	14:19:31.550	1.19	-0.56	0.28	-0.008784	0.025864	1.014552	-0.126	-0.126	0.21	0	32	1037	1
2026-02-17	14:19:31.570	1.19	-0.49	0.28	-0.008052	0.0244	1.0126	-0.129	-0.1275	0.2085	0	32	1037	1
2026-02-17	14:19:31.590	1.155	-0.56	0.245	-0.009516	0.024156	1.02236	-0.1305	-0.129	0.2055	0	32	1037	1
2026-02-17	14:19:31.610	1.155	-0.455	0.245	-0.011956	0.027816	1.016992	-0.126	-0.1365	0.207	0	28	1038	1
2026-02-17	14:19:31.630	1.12	-0.455	0.245	-0.008784	0.027816	1.014796	-0.1335	-0.1215	0.2025	0	28	1038	1
2026-02-17	14:19:31.650	1.155	-0.525	0.245	-0.006588	0.024644	1.009672	-0.132	-0.135	0.2115	0	28	1038	1
2026-02-17	14:19:31.670	1.155	-0.56	0.28	-0.009028	0.027572	1.019676	-0.1395	-0.1215	0.2115	0	28	1038	1
2026-02-17	14:19:31.690	1.12	-0.455	0.28	-0.012444	0.027084	1.019432	-0.132	-0.1335	0.198	0	28	1038	1
2026-02-17	14:19:31.710	1.155	-0.49	0.21	-0.009028	0.023424	1.014308	-0.1305	-0.1305	0.2115	0	28	1038	1
2026-02-17	14:19:31.730	1.155	-0.42	0.245	-0.005612	0.023668	1.01138	-0.126	-0.1275	0.2085	0	28	1038	1
2026-02-17	14:19:31.750	1.155	-0.595	0.245	-0.006588	0.025864	1.018212	-0.1275	-0.1275	0.195	0	28	1038	1
2026-02-17	14:19:31.770	1.19	-0.455	0.28	-0.008052	0.02928	1.01382	-0.126	-0.129	0.2025	0	28	1038	1
2026-02-17	14:19:31.790	1.12	-0.525	0.28	-0.005612	0.024156	1.011136	-0.1245	-0.12	0.2055	0	28	1038	1
2026-02-17	14:19:31.810	1.19	-0.42	0.28	-0.005612	0.026596	1.011868	-0.1335	-0.1245	0.2025	0	24	1038	1
2026-02-17	14:19:31.830	1.19	-0.665	0.245	-0.014396	0.025376	1.026752	-0.126	-0.126	0.1995	0	24	1038	1
2026-02-17	14:19:31.850	1.12	-0.56	0.245	-0.010248	0.024644	1.025776	-0.129	-0.129	0.2055	0	24	1038	1
2026-02-17	14:19:31.870	1.12	-0.245	0.245	-0.007076	0.02318	1.001376	-0.1275	-0.123	0.2025	0	24	1038	1
2026-02-17	14:19:31.890	1.19	-0.595	0.28	-0.006344	0.024156	1.007964	-0.1335	-0.1275	0.2115	0	24	1038	1
2026-02-17	14:19:31.910	1.19	-0.77	0.245	-0.012688	0.02562	1.029436	-0.123	-0.129	0.201	0	24	1038	1
2026-02-17	14:19:31.930	1.19	-0.35	0.245	-0.014152	0.029768	1.018456	-0.123	-0.129	0.201	0	24	1038	1
2026-02-17	14:19:31.950	1.12	-0.49	0.245	-0.005368	0.025864	1.007476	-0.123	-0.129	0.201	0	24	1038	1
2026-02-17	14:19:31.970	1.155	-0.49	0.28	-0.00488	0.02318	1.005524	-0.126	-0.1275	0.204	0	24	1038	1
2026-02-17	14:19:31.990	1.155	-0.63	0.28	-0.009028	0.02928	1.019676	-0.132	-0.1275	0.2085	0	24	1038	1
2026-02-17	14:19:32.010	1.155	-0.49	0.245	-0.011468	0.030256	1.0187	-0.1275	-0.1245	0.2055	0	21	1038	1
2026-02-17	14:19:32.030	1.12	-0.455	0.28	-0.010248	0.026108	1.010404	-0.123	-0.1275	0.207	0	21	1038	1
2026-02-17	14:19:32.050	1.155	-0.595	0.245	-0.004392	0.029036	1.011868	-0.1275	-0.135	0.21	0	21	1038	1
2026-02-17	14:19:32.070	1.155	-0.525	0.28	-0.008052	0.024156	1.012844	-0.1305	-0.132	0.204	0	21	1038	1
2026-02-17	14:19:32.090	1.155	-0.525	0.28	-0.00976	0.025864	1.016992	-0.1305	-0.1215	0.201	0	21	1038	1
2026-02-17	14:19:32.110	1.155	-0.56	0.245	-0.009272	0.024888	1.019676	-0.1305	-0.1215	0.201	0	21	1038	1
2026-02-17	14:19:32.130	1.12	-0.525	0.28	-0.006832	0.028548	1.015528	-0.129	-0.126	0.2025	0	21	1038	1
2026-02-17	14:19:32.150	1.12	-0.49	0.28	-0.007076	0.022204	1.012356	-0.129	-0.123	0.2025	0	21	1038	1
2026-02-17	14:19:32.170	1.19	-0.49	0.245	-0.00732	0.0244	1.013576	-0.135	-0.1365	0.198	0	21	1038	1
2026-02-17	14:19:32.190	1.155	-0.595	0.245	-0.009516	0.0244	1.020896	-0.132	-0.135	0.2085	0	21	1038	1
2026-02-17	14:19:32.210	1.085	-0.385	0.245	-0.010004	0.027572	1.008452	-0.1245	-0.132	0.2055	0	19	1038	1
2026-02-17	14:19:32.230	1.155	-0.49	0.245	-0.00488	0.032208	1.007476	-0.135	-0.126	0.198	0	19	1038	1
2026-02-17	14:19:32.250	1.19	-0.525	0.245	-0.00976	0.022936	1.0187	-0.132	-0.129	0.2085	0	19	1038	1
2026-02-17	14:19:32.270	1.225	-0.805	0.28	-0.011224	0.029524	1.041392	-0.135	-0.129	0.204	0	19	1038	1
2026-02-17	14:19:32.290	1.05	-0.07	0.245	-0.013664	0.02562	1.00406	-0.129	-0.1245	0.2025	0	19	1038	1
2026-02-17	14:19:32.310	1.155	-0.525	0.245	-0.002684	0.020984	0.994056	-0.1365	-0.123	0.2115	0	19	1038	1
2026-02-17	14:19:32.330	1.225	-0.7	0.28	-0.002928	0.020496	1.016992	-0.1275	-0.132	0.2085	0	19	1038	1
2026-02-17	14:19:32.350	1.225	-0.525	0.28	-0.012444	0.030744	1.025288	-0.129	-0.1275	0.2055	0	19	1038	1
2026-02-17	14:19:32.370	1.085	-0.525	0.28	-0.016836	0.029524	1.026508	-0.129	-0.123	0.1935	0	19	1038	1
2026-02-17	14:19:32.390	1.05	-0.21	0.21	-0.000488	0.022936	0.996496	-0.126	-0.129	0.201	0	19	1038	1
2026-02-17	14:19:32.410	1.19	-0.665	0.28	0.000976	0.024156	1.007964	-0.1275	-0.132	0.198	0	17	1038	1
2026-02-17	14:19:32.430	1.19	-0.63	0.28	-0.011224	0.026596	1.026264	-0.1335	-0.1365	0.201	0	17	1038	1
2026-02-17	14:19:32.450	1.155	-0.49	0.28	-0.014152	0.028548	1.022604	-0.1305	-0.1335	0.1995	0	17	1038	1
2026-02-17	14:19:32.470	1.12	-0.385	0.28	-0.00732	0.024644	1.007232	-0.129	-0.1275	0.2085	0	17	1038	1
2026-02-17	14:19:32.490	1.155	-0.595	0.245	-0.003904	0.022692	1.008696	-0.126	-0.1275	0.1965	0	17	1038	1
2026-02-17	14:19:32.510	1.225	-0.56	0.245	-0.01098	0.027816	1.019188	-0.138	-0.132	0.2055	0	17	1038	1
2026-02-17	14:19:32.530	1.155	-0.525	0.245	-0.010248	0.027816	1.021628	-0.1335	-0.123	0.204	0	17	1038	1
2026-02-17	14:19:32.550	1.12	-0.385	0.245	-0.010248	0.026352	1.009428	-0.129	-0.123	0.1935	0	17	1038	1
2026-02-17	14:19:32.570	1.12	-0.63	0.245	-0.00122	0.021472	1.01748	-0.1275	-0.129	0.21	0	17	1038	1
2026-02-17	14:19:32.590	1.19	-0.42	0.245	-0.010248	0.028548	1.01504	-0.138	-0.123	0.21	0	17	1038	1
2026-02-17	14:19:32.610	1.155	-0.56	0.28	-0.010248	0.025864	1.013576	-0.129	-0.1305	0.1995	0	16	1038	1
2026-02-17	14:19:32.630	1.12	-0.595	0.28	-0.009272	0.025864	1.017236	-0.135	-0.126	0.2025	0	16	1038	1
2026-02-17	14:19:32.650	1.155	-0.35	0.21	-0.00488	0.024888	1.00772	-0.126	-0.123	0.1995	0	16	1038	1
2026-02-17	14:19:32.670	1.19	-0.455	0.28	-0.009028	0.024888	1.010404	-0.135	-0.132	0.1965	0	16	1038	1
2026-02-17	14:19:32.690	1.19	-0.805	0.245	-0.015616	0.029768	1.030656	-0.135	-0.1275	0.207	0	16	1038	1
2026-02-17	14:19:32.710	1.155	-0.315	0.21	-0.010492	0.024888	1.011624	-0.132	-0.12	0.1965	0	16	1038	1
2026-02-17	14:19:32.730	1.155	-0.49	0.245	-0.005856	0.024156	1.007232	-0.1305	-0.1305	0.2025	0	16	1038	1
2026-02-17	14:19:32.750	1.19	-0.63	0.245	-0.007808	0.02196	1.01626	-0.1335	-0.135	0.2055	0	16	1038	1
2026-02-17	14:19:32.770	1.225	-0.525	0.245	-0.009272	0.026108	1.023092	-0.1305	-0.1305	0.2055	0	16	1038	1
2026-02-17	14:19:32.790	1.12	-0.42	0.245	-0.008052	0.027084	1.014308	-0.135	-0.126	0.204	0	16	1038	1
2026-02-17	14:19:32.810	1.155	-0.525	0.28	-0.006832	0.023424	1.010404	-0.1365	-0.132	0.195	0	15	1038	1
2026-02-17	14:19:32.830	1.155	-0.56	0.245	-0.009516	0.025376	1.01504	-0.138	-0.1215	0.1935	0	15	1038	1
2026-02-17	14:19:32.850	1.225	-0.455	0.245	-0.010004	0.027328	1.014552	-0.1395	-0.1305	0.2085	0	15	1038	1
2026-02-17	14:19:32.870	1.155	-0.42	0.28	-0.009028	0.02318	1.014064	-0.129	-0.1365	0.2055	0	15	1038	1
2026-02-17	14:19:32.890	1.155	-0.735	0.315	-0.003904	0.025132	1.023824	-0.132	-0.1275	0.1995	0	15	1038	1
2026-02-17	14:19:32.910	1.155	-0.35	0.245	-0.00976	0.025864	1.011136	-0.1305	-0.126	0.201	0	15	1038	1
2026-02-17	14:19:32.930	1.19	-0.455	0.245	-0.007076	0.026352	1.010404	-0.1305	-0.126	0.201	0	15	1038	1
2026-02-17	14:19:32.950	1.155	-0.735	0.28	-0.003172	0.02562	1.02236	-0.1305	-0.126	0.201	0	15	1038	1
2026-02-17	14:19:32.970	1.12	-0.42	0.245	-0.004636	0.026352	1.013576	-0.132	-0.1305	0.201	0	15	1038	1
2026-02-17	14:19:32.990	1.155	-0.35	0.245	-0.007076	0.025132	1.0065	-0.1305	-0.1305	0.1995	0	15	1038	1
2026-02-17	14:19:33.010	1.155	-0.665	0.245	-0.010004	0.023668	1.019676	-0.1245	-0.126	0.195	0	14	1038	1
2026-02-17	14:19:33.030	1.155	-0.42	0.28	-0.008784	0.025864	1.014064	-0.1275	-0.1245	0.1965	0	14	1038	1
2026-02-17	14:19:33.050	1.155	-0.49	0.28	-0.011468	0.024156	1.016748	-0.132	-0.1305	0.198	0	14	1038	1
2026-02-17	14:19:33.070	1.12	-0.49	0.21	-0.005124	0.024888	1.016748	-0.1305	-0.1305	0.1995	0	14	1038	1
2026-02-17	14:19:33.090	1.155	-0.455	0.245	-0.00976	0.025376	1.011868	-0.1275	-0.1275	0.198	0	14	1038	1
2026-02-17	14:19:33.110	1.155	-0.455	0.245	-0.011468	0.027328	1.009916	-0.1335	-0.126	0.198	0	14	1038	1
2026-02-17	14:19:33.130	1.19	-0.665	0.28	-0.012688	0.028548	1.020164	-0.1335	-0.126	0.2025	0	14	1038	1
2026-02-17	14:19:33.150	1.155	-0.525	0.21	-0.0122	0.026352	1.018212	-0.126	-0.1305	0.2025	0	14	1038	1
2026-02-17	14:19:33.170	1.19	-0.21	0.245	-0.00732	0.025864	0.998936	-0.1305	-0.1215	0.2025	0	14	1038	1
2026-02-17	14:19:33.190	1.26	-0.385	0.245	-0.007808	0.024644	1.011868	-0.1305	-0.1215	0.2025	0	14	1038	1
2026-02-17	14:19:33.210	1.225	-0.665	0.28	-0.005368	0.024156	1.026996	-0.129	-0.132	0.1995	0	13	1038	1
2026-02-17	14:19:33.230	1.085	-0.35	0.245	-0.008296	0.02684	1.006256	-0.1275	-0.1335	0.2085	0	13	1038	1
2026-02-17	14:19:33.250	1.12	-0.49	0.21	-0.00366	0.023668	1.008452	-0.1275	-0.132	0.204	0	13	1038	1
2026-02-17	14:19:33.270	1.225	-0.665	0.28	-0.009028	0.02318	1.024068	-0.126	-0.1245	0.1995	0	13	1038	1
2026-02-17	14:19:33.290	1.12	-0.56	0.245	-0.011224	0.027084	1.018212	-0.1275	-0.135	0.198	0	13	1038	1
2026-02-17	14:19:33.310	1.05	-0.595	0.245	-0.009272	0.0244	1.007232	-0.1305	-0.123	0.201	0	13	1038	1
2026-02-17	14:19:33.330	-0.35	-2.17	0.28	0.000732	0.015372	1.004548	-0.135	-0.1305	0.2055	0	13	1038	1
2026-02-17	14:19:33.350	0.56	-1.54	0.28	-0.004636	0.009028	1.033828	-0.132	-0.135	0.198	0	13	1038	1
2026-02-17	14:19:33.370	2.835	1.645	0.175	-0.017568	0.027084	1.012356	-0.129	-0.123	0.1995	0	13	1038	1
2026-02-17	14:19:33.390	0.98	-0.63	0.245	-0.007808	0.031232	1.006988	-0.1365	-0.1365	0.207	0	13	1038	1
2026-02-17	14:19:33.410	1.295	-0.525	0.245	-0.00488	0.024888	1.014796	-0.1335	-0.129	0.204	0	12	1038	1
2026-02-17	14:19:33.430	1.505	-0.105	0.245	-0.004148	0.024644	1.019676	-0.126	-0.1275	0.204	0	12	1038	1
2026-02-17	14:19:33.450	1.225	-0.35	0.245	-0.011712	0.023912	1.01504	-0.123	-0.129	0.1995	0	12	1038	1
2026-02-17	14:19:33.470	1.12	-0.525	0.28	-0.005856	0.026352	1.010892	-0.1305	-0.1245	0.204	0	12	1038	1
2026-02-17	14:19:33.490	1.155	-0.49	0.28	-0.003172	0.0244	1.01504	-0.1275	-0.1215	0.1965	0	12	1038	1
2026-02-17	14:19:33.510	1.155	-0.455	0.245	-0.008052	0.022448	1.016016	-0.1275	-0.126	0.2085	0	12	1038	1
2026-02-17	14:19:33.530	1.155	-0.455	0.28	-0.005368	0.025864	1.011868	-0.135	-0.1305	0.2025	0	12	1038	1
2026-02-17	14:19:33.550	1.155	-0.63	0.315	-0.00854	0.024156	1.019188	-0.132	-0.129	0.1995	0	12	1038	1
2026-02-17	14:19:33.570	1.225	-0.385	0.28	-0.008052	0.026352	1.013088	-0.1335	-0.1275	0.201	0	12	1038	1
2026-02-17	14:19:33.590	1.19	-0.525	0.245	-0.005612	0.024644	1.017236	-0.132	-0.132	0.2025	0	12	1038	1
2026-02-17	14:19:33.610	1.155	-0.525	0.21	-0.008784	0.029036	1.020408	-0.135	-0.126	0.204	0	11	1038	1
2026-02-17	14:19:33.630	1.12	-0.42	0.245	-0.010004	0.02562	1.010404	-0.1245	-0.126	0.204	0	11	1038	1
2026-02-17	14:19:33.650	1.12	-0.56	0.28	-0.010004	0.024644	1.017724	-0.126	-0.126	0.2025	0	11	1038	1
2026-02-17	14:19:33.670	1.155	-0.455	0.28	-0.0061	0.022692	1.01748	-0.132	-0.1245	0.198	0	11	1038	1
2026-02-17	14:19:33.690	1.19	-0.525	0.21	-0.008296	0.017324	0.995764	-0.1245	-0.123	0.1995	0	11	1038	1
2026-02-17	14:19:33.710	1.155	-0.455	0.245	-0.015616	0.051484	1.018212	-0.129	-0.123	0.204	0	11	1038	1
2026-02-17	14:19:33.730	1.155	-0.525	0.245	-0.012932	0.041724	1.020896	-0.132	-0.123	0.2055	0	11	1038	1
2026-02-17	14:19:33.750	1.155	-0.49	0.245	-0.006344	0.013176	1.012112	-0.1275	-0.135	0.201	0	11	1038	1
2026-02-17	14:19:33.770	1.155	-0.455	0.28	-0.006588	0.02196	1.014064	-0.129	-0.129	0.204	0	11	1038	1
2026-02-17	14:19:33.790	1.155	-0.49	0.28	-0.010736	0.032452	1.014308	-0.1335	-0.135	0.2025	0	11	1038	1
2026-02-17	14:19:33.810	1.19	-0.49	0.28	-0.012932	0.023668	1.017236	-0.1395	-0.1305	0.2055	0	11	1038	1
2026-02-17	14:19:33.830	1.155	-0.49	0.28	-0.005124	0.021228	1.01382	-0.1245	-0.132	0.204	0	11	1038	1
2026-02-17	14:19:33.850	1.12	-0.56	0.245	-0.00122	0.020252	1.007232	-0.1275	-0.126	0.207	0	11	1038	1
2026-02-17	14:19:33.870	1.19	-0.42	0.21	-0.00976	0.02318	1.016016	-0.1305	-0.132	0.201	0	11	1038	1
2026-02-17	14:19:33.890	1.225	-0.665	0.28	-0.0122	0.023912	1.036756	-0.1215	-0.129	0.198	0	11	1038	1
2026-02-17	14:19:33.910	1.05	-0.105	0.245	-0.011224	0.030988	1.00162	-0.1335	-0.1305	0.201	0	11	1038	1
2026-02-17	14:19:33.930	1.19	-0.945	0.28	-0.007076	0.023668	1.03212	-0.1335	-0.1245	0.1905	0	11	1038	1
2026-02-17	14:19:33.950	1.12	-0.14	0.28	-0.010736	0.0305	0.999668	-0.129	-0.1215	0.1965	0	11	1038	1
2026-02-17	14:19:33.970	1.12	-0.56	0.28	-0.002196	0.01952	1.005036	-0.129	-0.1335	0.201	0	11	1038	1
2026-02-17	14:19:33.990	1.225	-0.7	0.28	-0.006588	0.026352	1.024068	-0.1275	-0.1305	0.204	0	11	1038	1
2026-02-17	14:19:34.010	1.19	-0.455	0.28	-0.009028	0.032696	1.026264	-0.1275	-0.1275	0.204	0	11	1038	1
2026-02-17	14:19:34.030	1.05	-0.315	0.245	-0.008784	0.024644	1.008696	-0.1275	-0.1275	0.198	0	11	1038	1
2026-02-17	14:19:34.050	1.12	-0.7	0.14	0.031476	0.011712	1.016504	-0.1275	-0.1275	0.1995	0	11	1038	1
2026-02-17	14:19:34.070	1.225	-0.595	-3.08	-0.002196	-0.030988	1.028948	-0.126	-0.1275	0.2055	0	11	1038	1
2026-02-17	14:19:34.090	1.155	-0.91	0.28	-0.007808	0.012688	1.044076	-0.1245	-0.129	0.204	0	11	1038	1
2026-02-17	14:19:34.110	1.225	0.175	-0.21	-0.009272	0.050508	0.995764	-0.129	-0.132	0.201	0	11	1038	1
2026-02-17	14:19:34.130	1.26	-0.63	-2.415	-0.009516	0.030256	1.010648	-0.138	-0.1335	0.2025	0	11	1038	1
2026-02-17	14:19:34.150	1.19	-0.7	-0.735	0.000976	0.016592	1.019188	-0.1365	-0.126	0.201	0	11	1038	1
2026-02-17	14:19:34.170	1.225	-0.385	-2.45	-0.014396	0.02196	1.020164	-0.129	-0.1215	0.1965	0	11	1038	1
2026-02-17	14:19:34.190	1.155	-0.315	-2.59	-0.010004	0.030012	1.01382	-0.132	-0.126	0.1965	0	11	1038	1
2026-02-17	14:19:34.210	1.12	-0.595	-2.345	-0.006832	0.020496	1.012356	-0.1335	-0.1245	0.201	0	11	1038	1
2026-02-17	14:19:34.230	1.155	-0.49	-0.805	-0.008296	0.026108	1.020896	-0.1275	-0.1215	0.204	0	11	1038	1
2026-02-17	14:19:34.250	1.155	-0.385	-0.735	-0.011224	0.027328	1.008452	-0.129	-0.1305	0.2025	0	11	1038	1
2026-02-17	14:19:34.270	1.19	-0.63	0.28	-0.012688	0.025864	1.02236	-0.129	-0.1305	0.2025	0	11	1038	1
2026-02-17	14:19:34.290	1.12	-0.455	0.245	-0.008784	0.024644	1.015772	-0.1305	-0.1305	0.1965	0	11	1038	1
2026-02-17	14:19:34.310	1.12	-0.525	0.28	-0.011224	0.026108	1.013576	-0.135	-0.1275	0.204	0	11	1038	1
2026-02-17	14:19:34.330	1.19	-0.49	0.28	-0.010004	0.028548	1.01626	-0.1365	-0.129	0.2055	0	11	1038	1
2026-02-17	14:19:34.350	1.155	-0.49	0.28	-0.00732	0.023424	1.018456	-0.1245	-0.1245	0.1965	0	11	1038	1
2026-02-17	14:19:34.370	1.155	-0.49	0.245	-0.005124	0.028792	1.015284	-0.1275	-0.135	0.2055	0	11	1038	1
2026-02-17	14:19:34.390	1.12	-0.455	0.245	-0.009516	0.027816	1.00894	-0.1305	-0.126	0.198	0	11	1038	1
2026-02-17	14:19:34.410	1.155	-0.665	0.245	-0.011712	0.023912	1.021384	-0.132	-0.1245	0.201	0	11	1038	1
2026-02-17	14:19:34.430	1.19	-0.42	0.245	-0.009272	0.02684	1.015284	-0.129	-0.12	0.1995	0	11	1038	1
2026-02-17	14:19:34.450	1.155	-0.42	0.245	-0.009028	0.02684	1.007964	-0.1365	-0.132	0.21	0	11	1038	1
2026-02-17	14:19:34.470	1.155	-0.595	0.28	-0.003172	0.028548	1.014552	-0.1245	-0.1245	0.1995	0	11	1038	1
2026-02-17	14:19:34.490	1.155	-0.525	0.245	-0.01098	0.0244	1.01504	-0.1245	-0.132	0.1965	0	11	1038	1
2026-02-17	14:19:34.510	1.225	-0.42	0.21	-0.009028	0.024644	1.014796	-0.1275	-0.129	0.1995	0	11	1038	1
2026-02-17	14:19:34.530	1.155	-0.63	0.28	-0.011956	0.0244	1.019676	-0.132	-0.1275	0.204	0	11	1038	1
2026-02-17	14:19:34.550	1.12	-0.315	0.245	-0.009516	0.022448	1.00528	-0.132	-0.1335	0.201	0	11	1038	1
2026-02-17	14:19:34.570	1.225	-0.84	0.28	-0.009272	0.027084	1.032364	-0.126	-0.135	0.1965	0	11	1038	1
2026-02-17	14:19:34.590	1.12	-0.175	0.28	-0.012932	0.028304	1.005036	-0.1305	-0.1305	0.2025	0	11	1038	1
2026-02-17	14:19:34.610	1.12	-0.63	0.245	0	0.021716	1.006012	-0.129	-0.1245	0.2055	0	11	1038	1
2026-02-17	14:19:34.630	1.26	-0.63	0.245	-0.011712	0.02806	1.022848	-0.1245	-0.126	0.1995	0	11	1038	1
2026-02-17	14:19:34.650	1.155	-0.525	0.28	-0.014396	0.029768	1.021628	-0.123	-0.1275	0.198	0	11	1038	1
2026-02-17	14:19:34.670	1.155	-0.42	0.21	-0.004392	0.023668	1.008452	-0.126	-0.1305	0.1995	0	11	1038	1
2026-02-17	14:19:34.690	1.155	-0.525	-1.82	-0.005856	0.023668	1.008208	-0.132	-0.1305	0.1965	0	11	1038	1
2026-02-17	14:19:34.710	1.155	-0.525	-0.175	-0.010248	0.0122	1.009672	-0.1245	-0.1335	0.2055	0	11	1038	1
2026-02-17	14:19:34.730	1.19	-0.63	0.175	-0.010736	0.030744	1.027972	-0.1245	-0.1305	0.195	0	11	1038	1
2026-02-17	14:19:34.750	1.12	-0.42	-0.385	-0.00976	0.030012	1.015528	-0.129	-0.1335	0.2025	0	11	1038	1
2026-02-17	14:19:34.770	1.12	-0.385	0	-0.0061	0.023912	1.003816	-0.132	-0.1245	0.198	0	11	1038	1
2026-02-17	14:19:34.790	1.155	-0.665	0.105	-0.005124	0.029524	1.017236	-0.138	-0.132	0.198	0	11	1038	1
2026-02-17	14:19:34.810	1.155	-0.56	-1.435	-0.015616	0.024888	1.023092	-0.132	-0.1395	0.201	0	11	1038	1
2026-02-17	14:19:34.830	1.12	-0.385	-0.385	-0.005368	0.025376	1.011624	-0.1275	-0.1305	0.198	0	11	1038	1
2026-02-17	14:19:34.850	1.155	-0.56	-1.47	-0.007076	0.023912	1.011868	-0.129	-0.135	0.1995	0	11	1038	1
2026-02-17	14:19:34.870	1.155	-0.56	-0.875	-0.0061	0.026352	1.014552	-0.126	-0.129	0.204	0	11	1038	1
2026-02-17	14:19:34.890	1.155	-0.49	-0.665	-0.009028	0.026352	1.012844	-0.126	-0.1215	0.201	0	11	1038	1
2026-02-17	14:19:34.910	1.19	-0.525	0	-0.011224	0.026108	1.014796	-0.132	-0.1365	0.192	0	11	1038	1
2026-02-17	14:19:34.930	1.12	-0.49	0.21	-0.003904	0.026352	1.011624	-0.1335	-0.1335	0.207	0	11	1038	1
2026-02-17	14:19:34.950	1.155	-0.525	0.315	-0.008784	0.023424	1.014308	-0.1275	-0.1365	0.1995	0	11	1038	1
2026-02-17	14:19:34.970	1.19	-0.63	0.28	-0.006832	0.020984	1.02236	-0.126	-0.1275	0.1995	0	11	1038	1
2026-02-17	14:19:34.990	1.155	-0.35	0.245	-0.010004	0.027816	1.013088	-0.126	-0.1275	0.1995	0	11	1038	1
2026-02-17	14:19:35.010	1.19	-0.525	0.28	-0.007076	0.029036	1.012356	-0.126	-0.126	0.2025	0	11	1038	1
2026-02-17	14:19:35.030	1.12	-0.63	-1.505	0.004148	0.030988	1.016748	-0.129	-0.129	0.2025	0	11	1038	1
2026-02-17	14:19:35.050	1.155	-0.42	-1.75	-0.003172	0.031232	1.021628	-0.129	-0.132	0.201	0	11	1038	1
2026-02-17	14:19:35.070	1.155	-0.455	-1.085	-0.010492	0.030012	1.009672	-0.1275	-0.1275	0.204	0	11	1038	1
2026-02-17	14:19:35.090	1.19	-0.56	-0.63	-0.00732	0.029524	1.011868	-0.1245	-0.1185	0.204	0	11	1038	1
2026-02-17	14:19:35.110	1.155	-0.525	-0.84	-0.010248	0.02562	1.020164	-0.1245	-0.126	0.204	0	11	1038	1
2026-02-17	14:19:35.130	1.155	-0.56	-0.35	-0.008052	0.024644	1.015772	-0.129	-0.135	0.2055	0	11	1038	1
2026-02-17	14:19:35.150	1.12	-0.28	-0.035	-0.00732	0.024644	0.99796	-0.1275	-0.132	0.204	0	11	1038	1
2026-02-17	14:19:35.170	1.26	-0.91	0.175	-0.01098	0.023912	1.036024	-0.129	-0.132	0.2025	0	11	1038	1
2026-02-17	14:19:35.190	1.155	-0.385	0.245	-0.01342	0.030744	1.025776	-0.1335	-0.1305	0.1995	0	11	1038	1
2026-02-17	14:19:35.210	1.015	-0.21	-0.42	0.002928	0.026108	0.989176	-0.1305	-0.1305	0.1995	0	11	1038	1
2026-02-17	14:19:35.230	1.225	-0.63	-1.435	-0.006832	0.018788	0.996252	-0.129	-0.1305	0.2025	0	11	1038	1
2026-02-17	14:19:35.250	1.19	-0.945	-0.7	-0.0183	0.0305	1.042856	-0.129	-0.1275	0.198	0	11	1038	1
2026-02-17	14:19:35.270	1.12	-0.175	-1.015	-0.0183	0.02928	1.024556	-0.1245	-0.132	0.1965	0	11	1038	1
2026-02-17	14:19:35.290	1.05	-0.28	0.14	0.003416	0.022204	0.989176	-0.123	-0.1395	0.201	0	11	1038	1
2026-02-17	14:19:35.310	1.155	-0.595	0.28	0.007564	0.020008	0.998936	-0.123	-0.1395	0.201	0	11	1038	1
2026-02-17	14:19:35.330	1.26	-0.805	0.315	-0.00488	0.023424	1.027484	-0.1275	-0.132	0.1965	0	11	1038	1
2026-02-17	14:19:35.350	1.225	-0.49	0.245	-0.01342	0.034648	1.026996	-0.1275	-0.132	0.1965	0	11	1038	1
2026-02-17	14:19:35.370	1.12	-0.455	0.21	-0.012444	0.028548	1.01504	-0.129	-0.1275	0.1995	0	11	1038	1
2026-02-17	14:19:35.390	1.12	-0.49	0.28	-0.001952	0.021472	1.004792	-0.1305	-0.1275	0.2025	0	11	1038	1
2026-02-17	14:19:35.410	1.19	-0.525	0.245	-0.00122	0.022448	1.009672	-0.126	-0.132	0.198	0	11	1038	1
2026-02-17	14:19:35.430	1.19	-0.595	0.245	-0.01098	0.026596	1.025776	-0.1215	-0.135	0.2025	0	11	1038	1
2026-02-17	14:19:35.450	1.12	-0.49	0.245	-0.013664	0.027816	1.025288	-0.1365	-0.138	0.1995	0	11	1038	1
2026-02-17	14:19:35.470	1.12	-0.42	0.245	-0.005856	0.026352	1.009916	-0.12	-0.1275	0.195	0	11	1038	1
2026-02-17	14:19:35.490	1.155	-0.525	0.245	-0.000732	0.0244	1.01138	-0.1275	-0.129	0.2025	0	11	1038	1
2026-02-17	14:19:35.510	1.19	-0.56	0.245	-0.009272	0.029768	1.017724	-0.1245	-0.132	0.1935	0	11	1038	1
2026-02-17	14:19:35.530	1.12	-0.525	0.245	-0.007808	0.029768	1.018456	-0.1305	-0.1275	0.1995	0	11	1038	1
2026-02-17	14:19:35.550	1.155	-0.455	0.245	-0.00854	0.02684	1.006744	-0.129	-0.1335	0.195	0	11	1038	1
2026-02-17	14:19:35.570	1.155	-1.05	0.315	-0.008296	0.028304	1.044076	-0.1305	-0.1275	0.1995	0	11	1038	1
2026-02-17	14:19:35.590	1.19	0.49	0.245	-0.006588	0.017568	0.994544	-0.132	-0.135	0.198	0	11	1038	1
2026-02-17	14:19:35.610	1.085	-1.155	0.28	-0.010492	0.026352	1.021872	-0.123	-0.1245	0.1965	0	11	1038	1
2026-02-17	14:19:35.630	1.155	-0.42	0.28	-0.008052	0.025864	1.010892	-0.129	-0.129	0.2025	0	11	1038	1
2026-02-17	14:19:35.650	1.19	-0.49	0.28	-0.007808	0.028792	1.019676	-0.132	-0.135	0.1935	0	11	1038	1
2026-02-17	14:19:35.670	1.12	-0.315	0.28	-0.00976	0.02806	1.010404	-0.1305	-0.129	0.198	0	11	1038	1
2026-02-17	14:19:35.690	1.12	-0.595	0.245	-0.007808	0.02318	1.00894	-0.129	-0.129	0.201	0	11	1038	1
2026-02-17	14:19:35.710	1.225	-0.63	0.28	-0.00854	0.024644	1.016992	-0.132	-0.126	0.201	0	11	1038	1
2026-02-17	14:19:35.730	1.19	-0.56	0.245	-0.00854	0.024644	1.034804	-0.1275	-0.1215	0.201	0	11	1038	1
2026-02-17	14:19:35.750	1.085	-0.35	0.245	-0.010736	0.02806	1.016504	-0.1305	-0.1275	0.201	0	11	1038	1
2026-02-17	14:19:35.770	1.05	-0.665	0.245	0.000488	0.02074	1.006012	-0.129	-0.1305	0.1995	0	11	1038	1
2026-02-17	14:19:35.790	1.225	-0.315	0.21	-0.00244	0.025132	0.99674	-0.1245	-0.129	0.1965	0	11	1038	1
2026-02-17	14:19:35.810	1.225	-0.735	0.245	-0.031964	0.025376	1.036756	-0.1275	-0.1365	0.195	0	11	1038	1
2026-02-17	14:19:35.830	1.155	-0.525	0.28	-0.01952	0.030988	1.03212	-0.1305	-0.132	0.201	0	11	1038	1
2026-02-17	14:19:35.850	1.085	-0.49	0.245	-0.007564	0.02928	1.01382	-0.132	-0.135	0.195	0	11	1038	1
2026-02-17	14:19:35.870	1.155	-0.35	0.28	-0.005124	0.020496	1.001132	-0.1305	-0.135	0.207	0	11	1038	1
2026-02-17	14:19:35.890	1.19	-0.63	0.28	-0.006344	0.029524	1.014796	-0.1215	-0.1275	0.1965	0	11	1038	1
2026-02-17	14:19:35.910	1.19	-0.56	0.245	-0.013908	0.031476	1.026264	-0.129	-0.123	0.189	0	11	1038	1
2026-02-17	14:19:35.930	1.12	-0.455	0.245	-0.010248	0.030012	1.01992	-0.1365	-0.1335	0.1965	0	11	1038	1
2026-02-17	14:19:35.950	1.155	-0.42	0.245	-0.003904	0.021228	1.007476	-0.135	-0.132	0.2025	0	11	1038	1
2026-02-17	14:19:35.970	1.155	-0.49	0.28	-0.00854	0.027572	1.00772	-0.126	-0.1365	0.1965	0	11	1038	1
2026-02-17	14:19:35.990	1.19	-0.7	0.28	-0.011224	0.028304	1.024556	-0.129	-0.129	0.204	0	11	1038	1
2026-02-17	14:19:36.010	1.12	-0.42	0.28	-0.010248	0.027084	1.01382	-0.135	-0.1365	0.198	0	11	1038	1
2026-02-17	14:19:36.030	1.155	-0.525	0.245	-0.010248	0.02684	1.01138	-0.135	-0.1365	0.198	0	11	1038	1
2026-02-17	14:19:36.050	1.155	-0.56	0.315	-0.008784	0.022448	1.018456	-0.1335	-0.1365	0.1965	0	11	1038	1
2026-02-17	14:19:36.070	1.19	-0.49	0.245	-0.008784	0.02684	1.01504	-0.1335	-0.1305	0.195	0	11	1038	1
2026-02-17	14:19:36.090	1.12	-0.49	0.28	-0.008052	0.025864	1.009184	-0.129	-0.126	0.201	0	11	1038	1
2026-02-17	14:19:36.110	1.12	-0.63	0.385	-0.01464	0.016836	1.018456	-0.1245	-0.132	0.2025	0	11	1038	1
2026-02-17	14:19:36.130	1.225	-0.455	7.175	-0.007808	0.017812	1.016992	-0.1275	-0.129	0.198	0	11	1038	1
2026-02-17	14:19:36.150	1.26	-0.455	11.095	-0.004392	0.02074	1.014552	-0.1305	-0.126	0.201	0	11	1038	1
2026-02-17	14:19:36.170	1.085	-0.595	8.12	-0.00244	0.031476	1.012844	-0.132	-0.1335	0.201	0	11	1038	1
2026-02-17	14:19:36.190	1.155	-0.49	2.765	-0.004392	0.027328	1.013576	-0.1305	-0.132	0.1965	0	11	1038	1
2026-02-17	14:19:36.210	1.155	-0.56	0.805	-0.010248	0.024156	1.020164	-0.132	-0.126	0.198	0	11	1038	1
2026-02-17	14:19:36.230	1.155	-0.525	0.315	-0.007808	0.028792	1.016504	-0.132	-0.129	0.2025	0	11	1038	1
2026-02-17	14:19:36.250	1.12	-0.63	0.28	-0.010736	0.02318	1.017236	-0.1245	-0.1275	0.201	0	11	1038	1
2026-02-17	14:19:36.270	1.155	-0.665	0.315	-0.010736	0.029036	1.026996	-0.1245	-0.126	0.195	0	11	1038	1
2026-02-17	14:19:36.290	1.085	-0.21	1.05	-0.00366	0.022204	0.998692	-0.129	-0.126	0.195	0	11	1038	1
2026-02-17	14:19:36.310	1.12	-0.7	2.03	-0.004636	0.034404	1.005036	-0.132	-0.1275	0.1995	0	11	1038	1
2026-02-17	14:19:36.330	1.26	-0.665	0.28	-0.011956	0.033916	1.027728	-0.129	-0.1275	0.1995	0	11	1038	1
2026-02-17	14:19:36.350	1.155	-0.42	0.245	-0.01464	0.024644	1.02358	-0.129	-0.132	0.201	0	11	1038	1
2026-02-17	14:19:36.370	1.12	-0.385	0.245	-0.007076	0.02318	1.006256	-0.132	-0.1365	0.204	0	11	1038	1
2026-02-17	14:19:36.390	1.12	-0.63	0.245	-0.00732	0.026352	1.011624	-0.132	-0.1365	0.204	0	11	1038	1
2026-02-17	14:19:36.410	1.225	-0.7	0.28	-0.009516	0.020984	1.023336	-0.1185	-0.126	0.198	0	11	1038	1
2026-02-17	14:19:36.430	1.19	-0.49	0.28	-0.007564	0.02684	1.021384	-0.1185	-0.126	0.198	0	11	1038	1
2026-02-17	14:19:36.450	1.12	-0.49	0.245	-0.010248	0.029036	1.016504	-0.126	-0.1275	0.207	0	11	1038	1
2026-02-17	14:19:36.470	1.19	-0.525	0.28	-0.005856	0.023668	1.008452	-0.132	-0.1275	0.2055	0	11	1038	1
2026-02-17	14:19:36.490	1.225	-0.63	0.315	-0.00732	0.02318	1.015284	-0.126	-0.129	0.2025	0	11	1038	1
2026-02-17	14:19:36.510	1.225	-0.525	0.28	-0.008052	0.0244	1.015772	-0.135	-0.1335	0.195	0	11	1038	1
2026-02-17	14:19:36.530	1.19	-0.56	0.28	-0.009028	0.025376	1.016992	-0.1275	-0.129	0.201	0	11	1038	1
2026-02-17	14:19:36.550	1.155	-0.56	0.28	-0.005612	0.022692	1.018456	-0.1215	-0.1245	0.198	0	11	1038	1
2026-02-17	14:19:36.570	1.155	-0.42	0.28	-0.00732	0.031232	1.0065	-0.1335	-0.129	0.192	0	11	1038	1
2026-02-17	14:19:36.590	1.19	-0.665	0.28	-0.008052	0.02806	1.02114	-0.129	-0.126	0.207	0	11	1038	1
2026-02-17	14:19:36.610	1.225	-0.455	0.28	-0.009028	0.023668	1.012844	-0.1365	-0.1275	0.1995	0	11	1038	1
2026-02-17	14:19:36.630	1.155	-0.56	0.245	-0.00976	0.030012	1.016748	-0.1305	-0.126	0.2055	0	11	1038	1
2026-02-17	14:19:36.650	1.19	-0.42	0.28	-0.014152	0.022936	1.013332	-0.126	-0.126	0.207	0	11	1038	1
2026-02-17	14:19:36.670	1.19	-0.665	0.28	-0.013176	0.02562	1.02236	-0.1275	-0.1245	0.201	0	11	1038	1
2026-02-17	14:19:36.690	1.085	-0.525	0.28	-0.009028	0.023424	1.018212	-0.1335	-0.1365	0.1995	0	11	1038	1
2026-02-17	14:19:36.710	1.12	-0.49	0.28	-0.004148	0.0244	1.00772	-0.132	-0.123	0.1935	0	11	1038	1
2026-02-17	14:19:36.730	1.155	-0.385	0.315	-0.004392	0.025132	1.005768	-0.135	-0.129	0.2055	0	11	1038	1
2026-02-17	14:19:36.750	1.19	-0.7	0.35	-0.01098	0.031476	1.025044	-0.123	-0.1245	0.2085	0	11	1038	1
2026-02-17	14:19:36.770	1.155	-0.49	0.315	-0.01098	0.026108	1.02114	-0.1275	-0.126	0.207	0	11	1038	1
2026-02-17	14:19:36.790	1.085	-0.49	0.28	-0.0061	0.02562	1.015284	-0.1335	-0.1305	0.204	0	11	1038	1
2026-02-17	14:19:36.810	1.12	-0.35	0.28	-0.00488	0.021716	0.999912	-0.1215	-0.1275	0.1965	0	11	1038	1
2026-02-17	14:19:36.830	1.155	-0.7	0.315	-0.01098	0.02806	1.018212	-0.126	-0.1275	0.198	0	11	1038	1
2026-02-17	14:19:36.850	1.19	-0.63	0.28	-0.00976	0.022936	1.02602	-0.1365	-0.126	0.21	0	11	1038	1
2026-02-17	14:19:36.870	1.085	-0.245	0.245	-0.007808	0.027328	1.006988	-0.135	-0.126	0.204	0	11	1038	1
2026-02-17	14:19:36.890	1.085	-0.525	0.315	-0.00732	0.023912	1.012844	-0.138	-0.132	0.207	0	11	1038	1
2026-02-17	14:19:36.910	1.19	-0.63	0.315	-0.007076	0.027328	1.021872	-0.135	-0.1275	0.198	0	11	1038	1
2026-02-17	14:19:36.930	1.155	-0.385	0.245	-0.012444	0.026352	1.01626	-0.1305	-0.1305	0.21	0	11	1038	1
2026-02-17	14:19:36.950	1.155	-0.49	0.28	-0.006344	0.02928	1.014064	-0.1305	-0.1245	0.2055	0	11	1038	1
2026-02-17	14:19:36.970	1.155	-0.525	0.28	-0.007808	0.026596	1.01504	-0.135	-0.1275	0.207	0	11	1038	1
2026-02-17	14:19:36.990	1.19	-0.525	0.28	-0.010492	0.028304	1.017724	-0.1275	-0.126	0.2025	0	11	1038	1
2026-02-17	14:19:37.010	1.155	-0.455	0.28	-0.00854	0.026108	1.014796	-0.135	-0.12	0.2055	0	10	1038	1
2026-02-17	14:19:37.030	1.12	-0.525	0.28	-0.00976	0.025864	1.014308	-0.135	-0.12	0.2055	0	10	1038	1
2026-02-17	14:19:37.050	1.155	-0.56	0.315	-0.006832	0.025376	1.017968	-0.135	-0.12	0.2055	0	10	1038	1
2026-02-17	14:19:37.070	1.19	-0.49	0.28	-0.00854	0.027572	1.017236	-0.1275	-0.126	0.2025	0	10	1038	1
2026-02-17	14:19:37.090	1.19	-0.525	0.245	-0.00976	0.026352	1.01748	-0.1275	-0.129	0.201	0	10	1038	1
2026-02-17	14:19:37.110	1.12	-0.455	0.245	-0.004636	0.023912	1.014064	-0.132	-0.126	0.204	0	10	1038	1
2026-02-17	14:19:37.130	1.155	-0.455	0.28	-0.009516	0.026108	1.011624	-0.129	-0.129	0.207	0	10	1038	1
2026-02-17	14:19:37.150	1.155	-0.56	0.315	-0.00854	0.028304	1.018456	-0.129	-0.132	0.201	0	10	1038	1
2026-02-17	14:19:37.170	1.155	-0.455	0.245	-0.00976	0.028548	1.013576	-0.126	-0.1305	0.1995	0	10	1038	1
2026-02-17	14:19:37.190	1.155	-0.49	0.245	-0.00732	0.027084	1.013088	-0.1275	-0.1305	0.204	0	10	1038	1
2026-02-17	14:19:37.210	1.155	-0.49	0.245	-0.007076	0.026352	1.013576	-0.135	-0.1305	0.1995	0	10	1038	1
2026-02-17	14:19:37.230	1.19	-0.525	0.245	-0.004636	0.027572	1.016748	-0.1305	-0.129	0.201	0	10	1038	1
2026-02-17	14:19:37.250	1.155	-0.49	0.28	-0.008296	0.028304	1.014796	-0.1245	-0.1305	0.207	0	10	1038	1
2026-02-17	14:19:37.270	1.12	-0.595	0.28	-0.00488	0.024156	1.017968	-0.123	-0.1305	0.207	0	10	1038	1
2026-02-17	14:19:37.290	1.155	-0.35	0.28	-0.005856	0.028548	1.007232	-0.1275	-0.132	0.201	0	10	1038	1
2026-02-17	14:19:37.310	1.155	-0.665	0.28	-0.010736	0.025864	1.016748	-0.1305	-0.132	0.201	0	10	1038	1
2026-02-17	14:19:37.330	1.155	-0.56	0.245	-0.008052	0.025864	1.018456	-0.1305	-0.129	0.198	0	10	1038	1
2026-02-17	14:19:37.350	1.155	-0.455	0.28	-0.005612	0.025376	1.013088	-0.1305	-0.126	0.1965	0	10	1038	1
2026-02-17	14:19:37.370	1.155	-0.525	0.28	-0.00732	0.02684	1.014308	-0.132	-0.1245	0.201	0	10	1038	1
2026-02-17	14:19:37.390	1.155	-0.455	0.28	-0.01098	0.027572	1.009428	-0.1305	-0.1275	0.2025	0	10	1038	1
2026-02-17	14:19:37.410	1.19	-0.665	0.28	-0.00732	0.02806	1.021384	-0.126	-0.129	0.201	0	9	1038	1
2026-02-17	14:19:37.430	1.12	-0.42	0.28	-0.0061	0.02806	1.014796	-0.1275	-0.129	0.201	0	9	1038	1
2026-02-17	14:19:37.450	1.12	-0.455	0.28	-0.006588	0.021472	1.009672	-0.1305	-0.129	0.2025	0	9	1038	1
2026-02-17	14:19:37.470	1.155	-0.525	0.28	-0.004392	0.023424	1.013576	-0.132	-0.129	0.2025	0	9	1038	1
2026-02-17	14:19:37.490	1.19	-0.525	0.245	-0.005856	0.025132	1.01504	-0.132	-0.1245	0.1995	0	9	1038	1
2026-02-17	14:19:37.510	1.155	-0.455	0.28	-0.011224	0.026108	1.017236	-0.132	-0.1245	0.1995	0	9	1038	1
2026-02-17	14:19:37.530	1.12	-0.595	0.28	-0.010004	0.027328	1.024556	-0.132	-0.1305	0.198	0	9	1038	1
2026-02-17	14:19:37.550	1.12	-0.35	0.28	-0.009516	0.024156	1.008452	-0.1305	-0.1245	0.2025	0	9	1038	1
2026-02-17	14:19:37.570	1.155	-0.525	0.245	-0.007808	0.024156	1.007476	-0.1275	-0.1245	0.1995	0	9	1038	1
2026-02-17	14:19:37.590	1.19	-0.665	0.245	-0.007564	0.029524	1.022116	-0.1275	-0.135	0.2025	0	9	1038	1
2026-02-17	14:19:37.610	1.19	-0.42	0.245	-0.010004	0.023424	1.01748	-0.132	-0.1275	0.1905	0	8	1038	1
2026-02-17	14:19:37.630	1.155	-0.42	0.28	-0.009028	0.026596	1.009916	-0.132	-0.1305	0.1965	0	8	1038	1
2026-02-17	14:19:37.650	1.155	-0.56	0.28	-0.00732	0.022448	1.014552	-0.1275	-0.12	0.201	0	8	1038	1
2026-02-17	14:19:37.670	1.155	-0.56	0.245	-0.009028	0.023912	1.020164	-0.132	-0.1245	0.2025	0	8	1038	1
2026-02-17	14:19:37.690	1.155	-0.42	0.28	-0.008296	0.02684	1.011624	-0.129	-0.129	0.2025	0	8	1038	1
2026-02-17	14:19:37.710	1.155	-0.525	0.245	-0.00732	0.02562	1.013332	-0.129	-0.1305	0.2025	0	8	1038	1
2026-02-17	14:19:37.730	1.12	-0.525	0.245	-0.006344	0.026596	1.016992	-0.1275	-0.1215	0.201	0	8	1038	1
2026-02-17	14:19:37.750	1.155	-0.49	0.28	-0.00854	0.0244	1.016748	-0.138	-0.135	0.204	0	8	1038	1
2026-02-17	14:19:37.770	1.155	-0.49	0.28	-0.011224	0.026596	1.018944	-0.135	-0.1305	0.2115	0	8	1038	1
2026-02-17	14:19:37.790	1.155	-0.455	0.28	-0.005856	0.025376	1.011624	-0.1365	-0.1275	0.2025	0	8	1038	1
2026-02-17	14:19:37.810	1.19	-0.63	0.245	-0.00854	0.023912	1.016504	-0.126	-0.1305	0.195	0	8	1038	1
2026-02-17	14:19:37.830	1.155	-0.49	0.28	-0.006832	0.025376	1.019432	-0.129	-0.129	0.195	0	8	1038	1
2026-02-17	14:19:37.850	1.19	-0.455	0.245	-0.009516	0.028548	1.013332	-0.1305	-0.126	0.207	0	8	1038	1
2026-02-17	14:19:37.870	1.19	-0.49	0.28	-0.00488	0.0244	1.01138	-0.1245	-0.138	0.2025	0	8	1038	1
2026-02-17	14:19:37.890	1.155	-0.56	0.28	-0.008784	0.0244	1.015528	-0.129	-0.132	0.201	0	8	1038	1
2026-02-17	14:19:37.910	1.155	-0.525	0.28	-0.010004	0.027572	1.01748	-0.126	-0.1215	0.2085	0	8	1038	1
2026-02-17	14:19:37.930	1.155	-0.455	0.28	-0.009272	0.02684	1.013088	-0.1335	-0.129	0.2175	0	8	1038	1
2026-02-17	14:19:37.950	1.155	-0.56	0.28	-0.006588	0.0244	1.013576	-0.1335	-0.126	0.207	0	8	1038	1
2026-02-17	14:19:37.970	1.12	-0.455	0.245	-0.008052	0.027572	1.011136	-0.132	-0.123	0.198	0	8	1038	1
2026-02-17	14:19:37.990	1.12	-0.665	0.245	-0.00854	0.025864	1.019676	-0.1335	-0.1185	0.204	0	8	1038	1
2026-02-17	14:19:38.010	1.155	-0.42	0.245	-0.011712	0.025376	1.01382	-0.135	-0.1335	0.2115	0	7	1038	1
2026-02-17	14:19:38.030	1.155	-0.49	0.245	-0.012444	0.027084	1.017236	-0.12	-0.126	0.195	0	7	1038	1
2026-02-17	14:19:38.050	1.12	-0.525	0.28	-0.00732	0.026108	1.013332	-0.132	-0.135	0.198	0	7	1038	1
2026-02-17	14:19:38.070	1.155	-0.595	0.245	-0.00732	0.023912	1.013332	-0.132	-0.135	0.198	0	7	1038	1
2026-02-17	14:19:38.090	1.155	-0.49	0.315	-0.00488	0.027572	1.012844	-0.132	-0.135	0.198	0	7	1038	1
2026-02-17	14:19:38.110	1.155	-0.28	0.21	-0.012688	0.022448	0.99796	-0.132	-0.132	0.1995	0	7	1038	1
2026-02-17	14:19:38.130	1.225	-1.05	0.28	-0.006344	0.02806	1.049932	-0.1335	-0.1275	0.1995	0	7	1038	1
2026-02-17	14:19:38.150	1.085	-0.14	0.28	-0.008052	0.026352	1.01382	-0.1275	-0.1275	0.1995	0	7	1038	1
2026-02-17	14:19:38.170	1.155	0.175	0.245	-0.012688	0.024888	0.961848	-0.123	-0.126	0.204	0	7	1038	1
2026-02-17	14:19:38.190	1.12	-1.82	0.315	-0.000488	0.025132	1.052372	-0.1305	-0.123	0.2055	0	7	1038	1
2026-02-17	14:19:38.210	1.19	-0.35	0.245	-0.00732	0.023668	1.040904	-0.135	-0.1245	0.207	0	7	1038	1
2026-02-17	14:19:38.230	1.155	0.63	0.21	-0.008296	0.029524	0.96014	-0.135	-0.129	0.2055	0	7	1038	1
2026-02-17	14:19:38.250	1.19	-1.505	0.28	-0.011712	0.024888	1.033828	-0.135	-0.1275	0.204	0	7	1038	1
2026-02-17	14:19:38.270	1.19	-0.63	0.28	-0.008784	0.028792	1.04066	-0.1275	-0.126	0.204	0	7	1038	1
2026-02-17	14:19:38.290	1.085	0.175	0.245	-0.009272	0.029524	0.986492	-0.1215	-0.129	0.1995	0	7	1038	1
2026-02-17	14:19:38.310	1.19	-0.875	0.245	-0.001708	0.021228	1.015528	-0.1305	-0.126	0.204	0	7	1038	1
2026-02-17	14:19:38.330	1.19	-0.63	0.245	-0.007076	0.025864	1.020652	-0.1335	-0.129	0.2085	0	7	1038	1
2026-02-17	14:19:38.350	1.19	-0.385	0.21	-0.007808	0.027328	1.016992	-0.129	-0.1305	0.201	0	7	1038	1
2026-02-17	14:19:38.370	1.155	-0.35	0.245	-0.01098	0.024644	1.012844	-0.129	-0.1275	0.1995	0	7	1038	1
2026-02-17	14:19:38.390	1.12	-0.525	0.28	-0.008784	0.025376	1.006744	-0.1335	-0.132	0.2085	0	7	1038	1
2026-02-17	14:19:38.410	1.225	-0.735	0.28	-0.00732	0.026108	1.022116	-0.1335	-0.1275	0.2085	0	7	1038	1
2026-02-17	14:19:38.430	1.155	-0.385	0.28	-0.009028	0.023668	1.018456	-0.1335	-0.123	0.1995	0	7	1038	1
2026-02-17	14:19:38.450	1.155	-0.42	0.245	-0.011712	0.025376	1.009184	-0.129	-0.1245	0.201	0	7	1038	1
2026-02-17	14:19:38.470	1.155	-0.7	0.245	-0.006588	0.027572	1.0187	-0.126	-0.1215	0.207	0	7	1038	1
2026-02-17	14:19:38.490	1.19	-0.35	0.245	-0.00976	0.026352	1.010892	-0.1245	-0.12	0.2085	0	7	1038	1
2026-02-17	14:19:38.510	1.155	-0.525	0.28	-0.011956	0.025376	1.0126	-0.1185	-0.1215	0.21	0	7	1038	1
2026-02-17	14:19:38.530	1.155	-0.56	0.28	-0.01342	0.026596	1.019432	-0.1185	-0.1215	0.21	0	7	1038	1
2026-02-17	14:19:38.550	1.19	-0.595	0.21	-0.009272	0.023424	1.018456	-0.1335	-0.1335	0.207	0	7	1038	1
2026-02-17	14:19:38.570	1.155	-0.525	0.21	-0.007564	0.022936	1.009672	-0.1335	-0.1335	0.207	0	7	1038	1
2026-02-17	14:19:38.590	1.155	-0.56	0.245	-0.005612	0.024888	1.0126	-0.12	-0.1365	0.2055	0	7	1038	1
2026-02-17	14:19:38.610	1.19	-0.63	0.28	-0.00732	0.025864	1.022848	-0.12	-0.1365	0.2055	0	7	1038	1
2026-02-17	14:19:38.630	1.155	-0.49	0.28	-0.007076	0.02562	1.01748	-0.126	-0.1185	0.198	0	7	1038	1
2026-02-17	14:19:38.650	1.155	-0.35	0.28	-0.007564	0.024888	1.006744	-0.132	-0.132	0.207	0	7	1038	1
2026-02-17	14:19:38.670	1.155	-0.7	0.315	-0.005612	0.019764	1.016016	-0.1305	-0.129	0.2025	0	7	1038	1
2026-02-17	14:19:38.690	1.155	-0.455	0.28	-0.00732	0.028548	1.018456	-0.1305	-0.129	0.1965	0	7	1038	1
2026-02-17	14:19:38.710	1.12	-0.49	0.245	-0.011468	0.024156	1.014552	-0.126	-0.1275	0.204	0	7	1038	1
2026-02-17	14:19:38.730	1.12	-0.595	0.245	-0.0061	0.02318	1.01992	-0.129	-0.1245	0.195	0	7	1038	1
2026-02-17	14:19:38.750	1.155	-0.455	0.245	-0.009028	0.02684	1.012356	-0.1395	-0.1275	0.201	0	7	1038	1
2026-02-17	14:19:38.770	1.19	-0.385	0.245	-0.005856	0.0305	1.004548	-0.1245	-0.129	0.2085	0	7	1038	1
2026-02-17	14:19:38.790	1.19	-0.77	0.28	-0.008052	0.024888	1.029436	-0.1275	-0.1215	0.201	0	7	1038	1
2026-02-17	14:19:38.810	1.12	-0.28	0.245	-0.009028	0.025376	1.014796	-0.126	-0.1275	0.2055	0	8	1038	1
2026-02-17	14:19:38.830	1.155	-0.49	0.28	-0.011224	0.027084	1.009428	-0.129	-0.129	0.1995	0	8	1038	1
2026-02-17	14:19:38.850	1.12	-0.7	0.245	-0.009028	0.025376	1.023336	-0.132	-0.1305	0.201	0	8	1038	1
2026-02-17	14:19:38.870	1.12	-0.245	0.28	-0.00854	0.021472	1.006012	-0.132	-0.1275	0.2025	0	8	1038	1
2026-02-17	14:19:38.890	1.155	-0.63	0.28	-0.006832	0.024888	1.014796	-0.132	-0.1245	0.204	0	8	1038	1
2026-02-17	14:19:38.910	1.225	-0.595	0.28	-0.011712	0.027328	1.023824	-0.1215	-0.126	0.2025	0	8	1038	1
2026-02-17	14:19:38.930	1.12	-0.385	0.28	-0.011956	0.023424	1.012844	-0.1365	-0.129	0.204	0	8	1038	1
2026-02-17	14:19:38.950	1.12	-0.56	0.28	-0.007076	0.025376	1.009428	-0.126	-0.1215	0.21	0	8	1038	1
2026-02-17	14:19:38.970	1.155	-0.525	0.245	-0.003172	0.02684	1.0126	-0.129	-0.1305	0.204	0	8	1038	1
2026-02-17	14:19:38.990	1.19	-0.525	0.245	-0.005612	0.02562	1.019432	-0.126	-0.1335	0.2025	0	8	1038	1
2026-02-17	14:19:39.010	1.155	-0.455	0.245	-0.010736	0.027084	1.0126	-0.123	-0.1275	0.201	0	8	1038	1
2026-02-17	14:19:39.030	1.155	-0.595	0.28	-0.006832	0.029524	1.01382	-0.1365	-0.132	0.2085	0	8	1038	1
2026-02-17	14:19:39.050	1.12	-0.42	0.28	-0.007076	0.024644	1.00894	-0.1305	-0.132	0.2055	0	8	1038	1
2026-02-17	14:19:39.070	1.19	-0.595	0.245	-0.010004	0.028548	1.014796	-0.135	-0.126	0.1965	0	8	1038	1
2026-02-17	14:19:39.090	1.19	-0.56	0.245	-0.009028	0.0305	1.020408	-0.132	-0.126	0.1995	0	8	1038	1
2026-02-17	14:19:39.110	1.155	-0.455	0.245	-0.00854	0.025864	1.01382	-0.132	-0.126	0.1995	0	8	1038	1
2026-02-17	14:19:39.130	1.19	-0.455	0.245	-0.007564	0.023424	1.012844	-0.132	-0.129	0.1995	0	8	1038	1
2026-02-17	14:19:39.150	1.155	-0.525	0.245	-0.003172	0.027328	1.013088	-0.1365	-0.1305	0.201	0	8	1038	1
2026-02-17	14:19:39.170	1.225	-0.49	0.245	-0.008296	0.026596	1.015528	-0.135	-0.123	0.2055	0	8	1038	1
2026-02-17	14:19:39.190	1.19	-0.56	0.28	-0.010492	0.030256	1.023092	-0.1305	-0.1185	0.204	0	8	1038	1
2026-02-17	14:19:39.210	1.155	-0.42	0.28	-0.008052	0.025376	1.010892	-0.1305	-0.123	0.1995	0	8	1038	1
2026-02-17	14:19:39.230	1.155	-0.49	0.245	-0.00732	0.02684	1.01138	-0.1305	-0.129	0.2025	0	8	1038	1
2026-02-17	14:19:39.250	1.19	-0.525	0.245	-0.005124	0.0244	1.0126	-0.132	-0.132	0.204	0	8	1038	1
2026-02-17	14:19:39.270	1.225	-0.665	0.28	-0.006832	0.023912	1.02968	-0.1335	-0.1305	0.201	0	8	1038	1
2026-02-17	14:19:39.290	1.155	-0.105	0.245	-0.012444	0.032452	1.003816	-0.135	-0.1335	0.201	0	8	1038	1
2026-02-17	14:19:39.310	1.12	-0.875	0.28	-0.003904	0.0244	1.024556	-0.135	-0.132	0.2025	0	8	1038	1
2026-02-17	14:19:39.330	1.19	-0.455	0.245	-0.008052	0.027084	1.019188	-0.129	-0.129	0.1995	0	8	1038	1
2026-02-17	14:19:39.350	1.12	-0.315	0.245	-0.010492	0.028304	1.001376	-0.1215	-0.1305	0.1995	0	8	1038	1
2026-02-17	14:19:39.370	1.155	-0.735	0.28	-0.008784	0.025132	1.021384	-0.1245	-0.129	0.2025	0	8	1038	1
2026-02-17	14:19:39.390	1.155	-0.56	0.28	-0.00854	0.02562	1.024556	-0.1275	-0.1305	0.207	0	8	1038	1
2026-02-17	14:19:39.410	1.19	-0.245	0.245	-0.011468	0.024644	1.001864	-0.1275	-0.132	0.2085	0	8	1038	1
2026-02-17	14:19:39.430	1.19	-0.7	0.245	-0.00366	0.028548	1.020652	-0.1305	-0.129	0.207	0	8	1038	1
2026-02-17	14:19:39.450	1.12	-0.49	0.21	-0.003904	0.02684	1.017236	-0.1275	-0.1275	0.204	0	8	1038	1
2026-02-17	14:19:39.470	1.155	-0.42	0.21	-0.005124	0.026352	1.007232	-0.126	-0.1275	0.2025	0	8	1038	1
2026-02-17	14:19:39.490	1.155	-0.595	0.245	-0.00488	0.026108	1.019676	-0.126	-0.1275	0.207	0	8	1038	1
2026-02-17	14:19:39.510	1.19	-0.455	0.28	-0.009028	0.02562	1.018944	-0.1275	-0.126	0.2115	0	8	1038	1
2026-02-17	14:19:39.530	1.12	-0.42	0.245	-0.00854	0.02562	1.013088	-0.1305	-0.1275	0.21	0	8	1038	1
2026-02-17	14:19:39.550	1.12	-0.595	0.28	-0.009516	0.025376	1.016748	-0.135	-0.129	0.207	0	8	1038	1
2026-02-17	14:19:39.570	1.155	-0.455	0.245	-0.0061	0.026352	1.013332	-0.135	-0.1275	0.204	0	8	1038	1
2026-02-17	14:19:39.590	1.12	-0.525	0.245	-0.008784	0.02806	1.019188	-0.129	-0.123	0.201	0	8	1038	1
2026-02-17	14:19:39.610	1.155	-0.455	0.28	-0.01098	0.02684	1.011624	-0.126	-0.123	0.201	0	8	1038	1
2026-02-17	14:19:39.630	1.085	-0.455	0.245	-0.009272	0.024156	1.012112	-0.1275	-0.126	0.201	0	8	1038	1
2026-02-17	14:19:39.650	1.085	-0.455	0.245	-0.006832	0.024156	1.013576	-0.1275	-0.126	0.201	0	8	1038	1
2026-02-17	14:19:39.670	1.19	-0.595	0.28	-0.009028	0.02684	1.019188	-0.126	-0.1335	0.201	0	8	1038	1
2026-02-17	14:19:39.690	1.155	-0.455	0.28	-0.011956	0.02562	1.01504	-0.1245	-0.1215	0.204	0	8	1038	1
2026-02-17	14:19:39.710	1.155	-0.56	0.245	-0.008296	0.023912	1.016016	-0.135	-0.1215	0.201	0	8	1038	1
2026-02-17	14:19:39.730	1.19	-0.455	0.28	-0.008052	0.02562	1.012356	-0.1245	-0.132	0.2025	0	8	1038	1
2026-02-17	14:19:39.750	1.155	-0.56	0.28	-0.006588	0.022448	1.014796	-0.1305	-0.132	0.2145	0	8	1038	1
2026-02-17	14:19:39.770	1.155	-0.49	0.28	-0.00854	0.02196	1.012844	-0.132	-0.129	0.204	0	8	1038	1
2026-02-17	14:19:39.790	1.19	-0.56	0.28	-0.011224	0.027084	1.021384	-0.1335	-0.132	0.2025	0	8	1038	1
2026-02-17	14:19:39.810	1.19	-0.455	0.315	-0.007564	0.025376	1.012112	-0.135	-0.129	0.2055	0	7	1038	1
2026-02-17	14:19:39.830	1.19	-0.455	0.28	-0.008052	0.026352	1.011868	-0.132	-0.132	0.2055	0	7	1038	1
2026-02-17	14:19:39.850	1.155	-0.56	0.245	-0.00976	0.0305	1.014552	-0.1305	-0.129	0.21	0	7	1038	1
2026-02-17	14:19:39.870	1.12	-0.525	0.21	-0.006832	0.023668	1.014064	-0.132	-0.1245	0.204	0	7	1038	1
2026-02-17	14:19:39.890	1.155	-0.49	0.245	-0.010736	0.025376	1.018212	-0.132	-0.12	0.2055	0	7	1038	1
2026-02-17	14:19:39.910	1.155	-0.455	0.28	-0.007808	0.027816	1.014796	-0.1305	-0.1305	0.2055	0	7	1038	1
2026-02-17	14:19:39.930	1.12	-0.49	0.245	-0.010004	0.027084	1.01138	-0.132	-0.129	0.2115	0	7	1038	1
2026-02-17	14:19:39.950	1.155	-0.7	0.245	-0.00976	0.022936	1.027484	-0.1245	-0.132	0.2025	0	7	1038	1
2026-02-17	14:19:39.970	1.085	-0.315	0.245	-0.008296	0.027572	1.009672	-0.1275	-0.135	0.1995	0	7	1038	1
2026-02-17	14:19:39.990	1.12	-0.455	0.245	-0.00366	0.0244	1.008452	-0.1305	-0.1245	0.198	0	7	1038	1
2026-02-17	14:19:40.010	1.225	-0.7	0.28	-0.005612	0.028792	1.020652	-0.1275	-0.129	0.195	0	7	1038	1
2026-02-17	14:19:40.030	1.19	-0.42	0.28	-0.008296	0.026108	1.014796	-0.132	-0.1245	0.2025	0	7	1038	1
2026-02-17	14:19:40.050	1.19	-0.42	0.245	-0.009028	0.027084	1.013332	-0.1395	-0.1305	0.1965	0	7	1038	1
2026-02-17	14:19:40.070	1.155	-0.665	0.28	-0.008784	0.027572	1.024556	-0.1335	-0.126	0.207	0	7	1038	1
2026-02-17	14:19:40.090	1.155	-0.385	0.245	-0.008784	0.022692	1.009184	-0.132	-0.129	0.2025	0	7	1038	1
2026-02-17	14:19:40.110	1.155	-0.525	0.245	-0.008784	0.026108	1.009428	-0.132	-0.129	0.2025	0	7	1038	1
2026-02-17	14:19:40.130	1.19	-0.595	0.245	-0.008784	0.025132	1.022116	-0.132	-0.129	0.2025	0	7	1038	1
2026-02-17	14:19:40.150	1.19	-0.455	0.245	-0.011224	0.029768	1.016016	-0.135	-0.129	0.2025	0	7	1038	1
2026-02-17	14:19:40.170	1.12	-0.49	0.28	-0.008296	0.025132	1.014064	-0.129	-0.1245	0.2055	0	7	1038	1
2026-02-17	14:19:40.190	1.155	-0.56	0.28	-0.006588	0.027084	1.01504	-0.1245	-0.1215	0.2025	0	7	1038	1
2026-02-17	14:19:40.210	1.12	-0.525	0.245	-0.007076	0.02806	1.017724	-0.1275	-0.123	0.201	0	7	1038	1
2026-02-17	14:19:40.230	1.155	-0.455	0.245	-0.009516	0.024644	1.013332	-0.1335	-0.126	0.21	0	7	1038	1
2026-02-17	14:19:40.250	1.155	-0.56	0.28	-0.010004	0.02562	1.016504	-0.1335	-0.1275	0.2025	0	7	1038	1
2026-02-17	14:19:40.270	1.19	-0.525	0.245	-0.005856	0.023424	1.017724	-0.129	-0.1305	0.1995	0	7	1038	1
2026-02-17	14:19:40.290	1.19	-0.525	0.28	-0.007564	0.027816	1.019188	-0.1275	-0.1335	0.201	0	7	1038	1
2026-02-17	14:19:40.310	1.155	-0.455	0.245	-0.010736	0.026596	1.010892	-0.126	-0.132	0.2025	0	7	1038	1
2026-02-17	14:19:40.330	1.19	-0.595	0.28	-0.00732	0.026108	1.017236	-0.1305	-0.132	0.204	0	7	1038	1
2026-02-17	14:19:40.350	1.19	-0.525	0.28	-0.011224	0.025132	1.01748	-0.129	-0.129	0.1995	0	7	1038	1
2026-02-17	14:19:40.370	1.155	-0.525	0.245	-0.00732	0.024644	1.013088	-0.1245	-0.129	0.2025	0	7	1038	1
2026-02-17	14:19:40.390	1.225	-0.49	0.245	-0.008052	0.023424	1.010892	-0.1275	-0.129	0.21	0	7	1038	1
2026-02-17	14:19:40.410	1.155	-0.56	0.28	-0.014396	0.025864	1.022116	-0.132	-0.1275	0.207	0	7	1038	1
2026-02-17	14:19:40.430	1.12	-0.42	0.245	-0.00976	0.027084	1.015528	-0.1305	-0.1275	0.207	0	7	1038	1
2026-02-17	14:19:40.450	1.12	-0.665	0.28	-0.007564	0.024644	1.016992	-0.132	-0.126	0.2055	0	7	1038	1
2026-02-17	14:19:40.470	1.12	-0.455	0.245	-0.00732	0.024644	1.016748	-0.1305	-0.126	0.201	0	7	1038	1
2026-02-17	14:19:40.490	1.155	-0.49	0.245	-0.008784	0.0244	1.012844	-0.1245	-0.126	0.204	0	7	1038	1
2026-02-17	14:19:40.510	1.12	-0.525	0.28	-0.011712	0.025132	1.014796	-0.126	-0.123	0.2025	0	7	1038	1
2026-02-17	14:19:40.530	1.155	-0.595	0.245	-0.011468	0.02684	1.02358	-0.1305	-0.123	0.2025	0	7	1038	1
2026-02-17	14:19:40.550	1.19	-0.35	0.28	-0.00732	0.022936	1.015284	-0.1275	-0.123	0.207	0	7	1038	1
2026-02-17	14:19:40.570	1.155	-0.455	0.245	-0.00732	0.025376	1.00772	-0.129	-0.1245	0.2085	0	7	1038	1
2026-02-17	14:19:40.590	1.155	-0.665	0.245	-0.004148	0.022692	1.018212	-0.1275	-0.1245	0.2055	0	7	1038	1
2026-02-17	14:19:40.610	1.155	-0.455	0.245	-0.010248	0.026596	1.021384	-0.126	-0.126	0.2025	0	6	1038	1
2026-02-17	14:19:40.630	1.155	-0.42	0.28	-0.009516	0.023424	1.014308	-0.126	-0.1305	0.1995	0	6	1038	1
2026-02-17	14:19:40.650	1.12	-0.525	0.245	-0.004636	0.022448	1.010404	-0.1245	-0.129	0.1995	0	6	1038	1
2026-02-17	14:19:40.670	1.155	-0.595	0.28	-0.01342	0.028304	1.017724	-0.129	-0.1245	0.201	0	6	1038	1
2026-02-17	14:19:40.690	1.19	-0.42	0.245	-0.005124	0.023912	1.01504	-0.129	-0.1245	0.201	0	6	1038	1
2026-02-17	14:19:40.710	1.19	-0.525	0.245	-0.010004	0.02318	1.01382	-0.1245	-0.123	0.1995	0	6	1038	1
2026-02-17	14:19:40.730	1.155	-0.49	0.245	-0.0122	0.0244	1.0126	-0.1245	-0.123	0.1995	0	6	1038	1
2026-02-17	14:19:40.750	1.19	-0.385	0.245	-0.009272	0.02928	1.016748	-0.1395	-0.1305	0.2085	0	6	1038	1
2026-02-17	14:19:40.770	1.19	-0.56	0.245	-0.0061	0.022204	1.018212	-0.129	-0.129	0.1965	0	6	1038	1
2026-02-17	14:19:40.790	1.19	-0.455	0.245	-0.005612	0.025376	1.00894	-0.126	-0.129	0.2025	0	6	1038	1
2026-02-17	14:19:40.810	1.19	-0.525	0.28	-0.01464	0.023668	1.015528	-0.132	-0.135	0.2085	0	6	1038	1
2026-02-17	14:19:40.830	1.155	-0.525	0.245	-0.006588	0.025376	1.017724	-0.1275	-0.12	0.1995	0	6	1038	1
2026-02-17	14:19:40.850	1.19	-0.525	0.28	-0.0061	0.028304	1.023824	-0.135	-0.1275	0.2115	0	6	1038	1
2026-02-17	14:19:40.870	1.19	-0.42	0.28	-0.00854	0.029036	1.011868	-0.126	-0.1275	0.1995	0	6	1038	1
2026-02-17	14:19:40.890	1.12	-0.56	0.28	-0.012932	0.023668	1.012356	-0.141	-0.1245	0.2025	0	6	1038	1
2026-02-17	14:19:40.910	1.19	-0.63	0.245	-0.007808	0.02684	1.020164	-0.1305	-0.1305	0.2055	0	6	1038	1
2026-02-17	14:19:40.930	1.155	-0.42	0.245	-0.00976	0.027572	1.008452	-0.1305	-0.129	0.2055	0	6	1038	1
2026-02-17	14:19:40.950	1.155	-0.525	0.28	-0.010492	0.026108	1.012356	-0.1245	-0.1305	0.201	0	6	1038	1
2026-02-17	14:19:40.970	1.155	-0.525	0.28	-0.0061	0.023668	1.019432	-0.126	-0.1305	0.204	0	6	1038	1
2026-02-17	14:19:40.990	1.155	-0.49	0.28	-0.011224	0.025864	1.017236	-0.1335	-0.132	0.2055	0	6	1038	1
2026-02-17	14:19:41.010	1.085	-0.49	0.28	-0.013176	0.023912	1.014064	-0.129	-0.1305	0.2085	0	6	1038	1
2026-02-17	14:19:41.030	1.155	-0.525	0.28	-0.004392	0.025376	1.017236	-0.1275	-0.1305	0.2025	0	6	1038	1
2026-02-17	14:19:41.050	1.155	-0.49	0.28	-0.00732	0.022204	1.013332	-0.1305	-0.123	0.2055	0	6	1038	1
2026-02-17	14:19:41.070	1.155	-0.525	0.245	-0.010736	0.024888	1.015284	-0.1275	-0.132	0.2025	0	6	1038	1
2026-02-17	14:19:41.090	1.155	-0.49	0.245	-0.009272	0.02562	1.020408	-0.138	-0.1365	0.207	0	6	1038	1
2026-02-17	14:19:41.110	1.155	-0.525	0.245	-0.005368	0.024156	1.015528	-0.129	-0.132	0.207	0	6	1038	1
2026-02-17	14:19:41.130	1.12	-0.42	0.28	-0.006832	0.022936	1.006256	-0.1275	-0.126	0.204	0	6	1038	1
2026-02-17	14:19:41.150	1.19	-0.595	0.245	-0.005856	0.024156	1.01504	-0.1275	-0.132	0.2085	0	6	1038	1
2026-02-17	14:19:41.170	1.19	-0.455	0.245	-0.01098	0.026108	1.01504	-0.1275	-0.132	0.2085	0	6	1038	1
2026-02-17	14:19:41.190	1.12	-0.49	0.28	-0.008784	0.026352	1.01504	-0.1275	-0.132	0.204	0	6	1038	1
2026-02-17	14:19:41.210	1.155	-0.525	0.245	-0.012444	0.027572	1.016504	-0.1335	-0.1335	0.204	0	6	1038	1
2026-02-17	14:19:41.230	1.155	-0.525	0.315	-0.007808	0.023424	1.014796	-0.1365	-0.126	0.2055	0	6	1038	1
2026-02-17	14:19:41.250	1.155	-0.49	0.28	-0.007808	0.02196	1.015528	-0.132	-0.1245	0.204	0	6	1038	1
2026-02-17	14:19:41.270	1.155	-0.49	0.28	-0.010736	0.023912	1.015772	-0.132	-0.1275	0.2025	0	6	1038	1
2026-02-17	14:19:41.290	1.19	-0.49	0.245	-0.008296	0.024888	1.018456	-0.135	-0.1245	0.2025	0	6	1038	1
2026-02-17	14:19:41.310	1.155	-0.595	0.245	-0.0061	0.023912	1.018944	-0.1365	-0.1275	0.204	0	6	1038	1
2026-02-17	14:19:41.330	1.12	-0.49	0.245	-0.007076	0.024888	1.01016	-0.1335	-0.1305	0.2055	0	6	1038	1
2026-02-17	14:19:41.350	1.155	-0.56	0.28	-0.008784	0.028304	1.017724	-0.132	-0.132	0.207	0	6	1038	1
2026-02-17	14:19:41.370	1.19	-0.455	0.245	-0.010492	0.027328	1.016016	-0.132	-0.129	0.207	0	6	1038	1
2026-02-17	14:19:41.390	1.155	-0.595	0.245	-0.010736	0.027084	1.019676	-0.1275	-0.123	0.21	0	6	1038	1
2026-02-17	14:19:41.410	1.155	-0.35	0.245	-0.005124	0.028792	1.008208	-0.123	-0.1245	0.2055	0	5	1038	1
2026-02-17	14:19:41.430	1.155	-0.56	0.28	-0.004392	0.022936	1.015528	-0.1245	-0.126	0.204	0	5	1038	1
2026-02-17	14:19:41.450	1.19	-0.49	0.245	-0.011224	0.025864	1.010892	-0.1275	-0.1275	0.207	0	5	1038	1
2026-02-17	14:19:41.470	1.155	-0.63	0.245	-0.0061	0.029768	1.02724	-0.132	-0.1305	0.2025	0	5	1038	1
2026-02-17	14:19:41.490	1.085	-0.315	0.315	-0.005612	0.027084	1.01138	-0.135	-0.129	0.204	0	5	1038	1
2026-02-17	14:19:41.510	1.155	-0.49	0.245	-0.007564	0.025132	1.0065	-0.135	-0.132	0.2055	0	5	1038	1
2026-02-17	14:19:41.530	1.19	-0.595	0.28	-0.008784	0.0244	1.013576	-0.1305	-0.1305	0.2055	0	5	1038	1
2026-02-17	14:19:41.550	1.155	-0.7	0.28	-0.009516	0.027084	1.029436	-0.129	-0.1275	0.2085	0	5	1038	1
2026-02-17	14:19:41.570	1.12	-0.21	0.28	-0.011956	0.025376	1.00528	-0.1305	-0.1305	0.2055	0	5	1038	1
2026-02-17	14:19:41.590	1.155	-0.595	0.28	-0.006588	0.024156	1.014552	-0.1305	-0.1335	0.2025	0	5	1038	1
2026-02-17	14:19:41.610	1.155	-0.63	0.245	-0.0061	0.023668	1.02236	-0.1335	-0.1305	0.2055	0	5	1038	1
2026-02-17	14:19:41.630	1.155	-0.35	0.245	-0.01098	0.025864	1.00894	-0.1365	-0.123	0.2085	0	5	1038	1
2026-02-17	14:19:41.650	1.155	-0.595	0.28	-0.011224	0.024156	1.01748	-0.1275	-0.1245	0.207	0	5	1038	1
2026-02-17	14:19:41.670	1.155	-0.49	0.315	-0.005612	0.024644	1.01626	-0.1245	-0.1275	0.201	0	5	1038	1
2026-02-17	14:19:41.690	1.155	-0.525	0.245	-0.00976	0.0244	1.014552	-0.1275	-0.1275	0.204	0	5	1038	1
2026-02-17	14:19:41.710	1.155	-0.455	0.28	-0.010736	0.026596	1.009184	-0.1305	-0.1275	0.2055	0	5	1038	1
2026-02-17	14:19:41.730	1.19	-0.595	0.245	-0.007564	0.024888	1.016992	-0.1305	-0.1275	0.2025	0	5	1038	1
2026-02-17	14:19:41.750	1.155	-0.49	0.245	-0.010004	0.025376	1.015528	-0.1275	-0.129	0.2025	0	5	1038	1
2026-02-17	14:19:41.770	1.155	-0.455	0.245	-0.006344	0.02318	1.013088	-0.1275	-0.129	0.2025	0	5	1038	1
2026-02-17	14:19:41.790	1.19	-0.49	0.28	-0.010736	0.026596	1.0126	-0.129	-0.1305	0.21	0	5	1038	1
2026-02-17	14:19:41.810	1.155	-0.63	0.28	-0.011468	0.025132	1.018944	-0.129	-0.1305	0.21	0	5	1038	1
2026-02-17	14:19:41.830	1.19	-0.455	0.245	-0.008052	0.025864	1.014552	-0.1305	-0.1305	0.207	0	5	1038	1
2026-02-17	14:19:41.850	1.155	-0.455	0.245	-0.01098	0.024644	1.01138	-0.132	-0.1305	0.207	0	5	1038	1
2026-02-17	14:19:41.870	1.155	-0.63	0.28	-0.007076	0.028304	1.018212	-0.1305	-0.1245	0.21	0	5	1038	1
2026-02-17	14:19:41.890	1.12	-0.42	0.245	-0.005856	0.029036	1.012356	-0.132	-0.132	0.21	0	5	1038	1
2026-02-17	14:19:41.910	1.155	-0.525	0.245	-0.00732	0.027084	1.012844	-0.1335	-0.1335	0.2055	0	5	1038	1
2026-02-17	14:19:41.930	1.19	-0.56	0.28	-0.009516	0.025376	1.015284	-0.1335	-0.1245	0.2025	0	5	1038	1
2026-02-17	14:19:41.950	1.155	-0.525	0.28	-0.008296	0.028304	1.01626	-0.1245	-0.123	0.2055	0	5	1038	1
2026-02-17	14:19:41.970	1.155	-0.49	0.28	-0.012444	0.024156	1.014308	-0.1365	-0.129	0.213	0	5	1038	1
2026-02-17	14:19:41.990	1.12	-0.49	0.28	-0.0061	0.025132	1.012356	-0.1215	-0.1335	0.207	0	5	1038	1
2026-02-17	14:19:42.010	1.26	-0.315	0.28	-0.007808	0.023424	1.00772	-0.132	-0.1245	0.201	0	5	1038	1
2026-02-17	14:19:42.030	1.19	-0.805	0.28	-0.010248	0.027328	1.028948	-0.1245	-0.1245	0.204	0	5	1038	1
2026-02-17	14:19:42.050	1.19	-0.28	0.21	-0.00976	0.02684	1.014308	-0.132	-0.123	0.207	0	5	1038	1
2026-02-17	14:19:42.070	1.19	-0.42	0.21	-0.007564	0.026108	1.007232	-0.132	-0.135	0.2025	0	5	1038	1
2026-02-17	14:19:42.090	1.12	-0.665	0.28	-0.008052	0.024156	1.013332	-0.132	-0.123	0.201	0	5	1038	1
2026-02-17	14:19:42.110	1.19	-0.56	0.245	-0.00854	0.02196	1.018456	-0.129	-0.1275	0.2085	0	5	1038	1
2026-02-17	14:19:42.130	1.19	-0.455	0.245	-0.010248	0.025864	1.019676	-0.129	-0.12	0.201	0	5	1038	1
2026-02-17	14:19:42.150	1.19	-0.42	0.28	-0.0061	0.02562	1.012844	-0.1335	-0.126	0.2025	0	5	1038	1
2026-02-17	14:19:42.170	1.155	-0.595	0.28	-0.00732	0.020984	1.014796	-0.132	-0.132	0.201	0	5	1038	1
2026-02-17	14:19:42.190	1.155	-0.56	0.315	-0.004392	0.02318	1.016992	-0.132	-0.132	0.201	0	5	1038	1
2026-02-17	14:19:42.210	1.19	-0.42	0.28	-0.00854	0.0244	1.01504	-0.132	-0.132	0.201	0	5	1038	1
2026-02-17	14:19:42.230	1.12	-0.49	0.28	-0.007076	0.02562	1.014796	-0.135	-0.1335	0.204	0	5	1038	1
2026-02-17	14:19:42.250	1.155	-0.525	0.245	-0.004636	0.027328	1.015772	-0.135	-0.132	0.2115	0	5	1038	1
2026-02-17	14:19:42.270	1.19	-0.595	0.245	-0.00854	0.023668	1.01748	-0.1305	-0.129	0.207	0	5	1038	1
2026-02-17	14:19:42.290	1.12	-0.455	0.245	-0.008052	0.0244	1.012112	-0.1305	-0.126	0.1995	0	5	1038	1
2026-02-17	14:19:42.310	1.155	-0.49	0.28	-0.005856	0.0244	1.011624	-0.1305	-0.1275	0.21	0	5	1038	1
2026-02-17	14:19:42.330	1.155	-0.56	0.315	-0.008296	0.027572	1.017968	-0.1335	-0.1305	0.2085	0	5	1038	1
2026-02-17	14:19:42.350	1.155	-0.455	0.245	-0.012688	0.024156	1.01504	-0.132	-0.1275	0.1965	0	5	1038	1
2026-02-17	14:19:42.370	1.155	-0.525	0.245	-0.007564	0.027328	1.01504	-0.129	-0.123	0.1935	0	5	1038	1
2026-02-17	14:19:42.390	1.155	-0.56	0.28	-0.006344	0.022692	1.015284	-0.1335	-0.126	0.195	0	5	1038	1
2026-02-17	14:19:42.410	1.225	-0.385	0.28	-0.008052	0.026352	1.006256	-0.129	-0.1305	0.1995	0	5	1038	1
2026-02-17	14:19:42.430	1.155	-0.63	0.245	-0.01098	0.024888	1.022604	-0.1245	-0.129	0.204	0	5	1038	1
2026-02-17	14:19:42.450	1.155	-0.525	0.245	-0.009272	0.026596	1.024312	-0.1275	-0.129	0.204	0	5	1038	1
2026-02-17	14:19:42.470	1.12	-0.35	0.245	-0.007808	0.025132	1.003084	-0.129	-0.129	0.2025	0	5	1038	1
2026-02-17	14:19:42.490	1.19	-0.595	0.245	-0.005124	0.026596	1.01016	-0.1275	-0.129	0.1995	0	5	1038	1
2026-02-17	14:19:42.510	1.225	-0.63	0.245	-0.009516	0.027328	1.025044	-0.126	-0.129	0.195	0	5	1038	1
2026-02-17	14:19:42.530	1.155	-0.42	0.28	-0.012444	0.024644	1.016504	-0.1275	-0.1275	0.2025	0	5	1038	1
2026-02-17	14:19:42.550	1.19	-0.42	0.245	-0.01098	0.028792	1.009916	-0.129	-0.126	0.2115	0	5	1038	1
2026-02-17	14:19:42.570	1.155	-0.63	0.245	-0.003416	0.025864	1.021628	-0.1305	-0.126	0.2055	0	5	1038	1
2026-02-17	14:19:42.590	1.155	-0.385	0.28	-0.00488	0.023668	1.009672	-0.1305	-0.1275	0.1995	0	5	1038	1
2026-02-17	14:19:42.610	1.19	-0.56	0.245	-0.006344	0.028304	1.012356	-0.1275	-0.1305	0.2025	0	5	1038	1
2026-02-17	14:19:42.630	1.155	-0.49	0.245	-0.006588	0.025376	1.017968	-0.126	-0.1275	0.201	0	5	1038	1
2026-02-17	14:19:42.650	1.155	-0.49	0.28	-0.01342	0.028792	1.014064	-0.1305	-0.1275	0.195	0	5	1038	1
2026-02-17	14:19:42.670	1.12	-0.49	0.28	-0.007564	0.02684	1.009672	-0.132	-0.129	0.201	0	5	1038	1
2026-02-17	14:19:42.690	1.155	-0.525	0.28	-0.012444	0.024888	1.013576	-0.1275	-0.129	0.204	0	5	1038	1
2026-02-17	14:19:42.710	1.155	-0.525	0.28	-0.009516	0.021716	1.017724	-0.126	-0.1275	0.201	0	5	1038	1
2026-02-17	14:19:42.730	1.155	-0.49	0.245	-0.009028	0.02928	1.01382	-0.1245	-0.129	0.2025	0	5	1038	1
2026-02-17	14:19:42.750	1.155	-0.525	0.28	-0.007076	0.024156	1.01626	-0.1275	-0.1305	0.2055	0	5	1038	1
2026-02-17	14:19:42.770	1.155	-0.525	0.28	-0.007076	0.0244	1.016504	-0.1275	-0.132	0.204	0	5	1038	1
2026-02-17	14:19:42.790	1.19	-0.49	0.28	-0.008052	0.027084	1.013576	-0.1245	-0.1335	0.198	0	5	1038	1
2026-02-17	14:19:42.810	1.155	-0.525	0.245	-0.008052	0.021228	1.014064	-0.126	-0.1335	0.195	0	5	1038	1
2026-02-17	14:19:42.830	1.19	-0.525	0.245	-0.010004	0.025132	1.018212	-0.1275	-0.132	0.198	0	5	1038	1
2026-02-17	14:19:42.850	1.155	-0.49	0.28	-0.003416	0.023912	1.01382	-0.1275	-0.132	0.198	0	5	1038	1
2026-02-17	14:19:42.870	1.155	-0.49	0.28	-0.011224	0.025132	1.008452	-0.129	-0.1275	0.198	0	5	1038	1
2026-02-17	14:19:42.890	1.19	-0.525	0.28	-0.008784	0.028792	1.014796	-0.129	-0.1275	0.198	0	5	1038	1
2026-02-17	14:19:42.910	1.19	-0.56	0.28	-0.011712	0.024156	1.023336	-0.132	-0.1245	0.1965	0	5	1038	1
2026-02-17	14:19:42.930	1.225	-0.175	0.21	-0.013176	0.0244	1.005036	-0.132	-0.1305	0.207	0	5	1038	1
2026-02-17	14:19:42.950	1.05	-0.98	0.28	-0.00488	0.023424	1.026996	-0.1305	-0.1275	0.2085	0	5	1038	1
2026-02-17	14:19:42.970	1.155	-0.385	0.245	-0.00732	0.02684	1.00894	-0.1275	-0.132	0.1995	0	5	1038	1
2026-02-17	14:19:42.990	1.155	-0.28	0.28	-0.010004	0.02806	1.008452	-0.129	-0.123	0.2085	0	5	1038	1
2026-02-17	14:19:43.010	1.225	-0.735	0.28	-0.009516	0.027816	1.022116	-0.132	-0.1275	0.2025	0	5	1038	1
2026-02-17	14:19:43.030	1.12	-0.56	0.245	-0.009028	0.02562	1.021384	-0.129	-0.1335	0.192	0	5	1038	1
2026-02-17	14:19:43.050	1.155	-0.455	0.245	-0.00488	0.02318	1.012844	-0.1275	-0.1305	0.204	0	5	1038	1
2026-02-17	14:19:43.070	1.19	-0.385	0.28	-0.005612	0.022692	1.005524	-0.1275	-0.1245	0.204	0	5	1038	1
2026-02-17	14:19:43.090	1.19	-0.77	0.245	-0.008296	0.024156	1.018212	-0.123	-0.138	0.204	0	5	1038	1
2026-02-17	14:19:43.110	1.155	-0.49	0.245	-0.00976	0.028304	1.016992	-0.1335	-0.135	0.1965	0	5	1038	1
2026-02-17	14:19:43.130	1.19	-0.35	0.245	-0.00854	0.026596	1.014064	-0.1305	-0.129	0.1935	0	5	1038	1
2026-02-17	14:19:43.150	1.155	-0.525	0.28	-0.010736	0.025376	1.011624	-0.126	-0.1185	0.2025	0	5	1038	1
2026-02-17	14:19:43.170	1.19	-0.63	0.28	-0.008052	0.024644	1.015772	-0.132	-0.1245	0.207	0	5	1038	1
2026-02-17	14:19:43.190	1.155	-0.455	0.245	-0.005124	0.0244	1.01626	-0.1305	-0.1245	0.204	0	5	1038	1
2026-02-17	14:19:43.210	1.155	-0.455	0.315	-0.004392	0.026352	1.015772	-0.1335	-0.126	0.207	0	5	1038	1
2026-02-17	14:19:43.230	1.155	-0.49	0.245	-0.011224	0.028304	1.013576	-0.1335	-0.126	0.207	0	5	1038	1
2026-02-17	14:19:43.250	1.19	-0.525	0.245	-0.01098	0.02318	1.014552	-0.1335	-0.126	0.207	0	5	1038	1
2026-02-17	14:19:43.270	1.19	-0.49	0.245	-0.010004	0.026596	1.014308	-0.1305	-0.126	0.2025	0	5	1038	1
2026-02-17	14:19:43.290	1.155	-0.525	0.245	-0.008296	0.030012	1.016016	-0.1275	-0.126	0.198	0	5	1038	1
2026-02-17	14:19:43.310	1.19	-0.49	0.245	-0.007808	0.024156	1.017236	-0.126	-0.126	0.198	0	5	1038	1
2026-02-17	14:19:43.330	1.155	-0.49	0.28	-0.006588	0.023424	1.01504	-0.126	-0.1275	0.2025	0	5	1038	1
2026-02-17	14:19:43.350	1.155	-0.49	0.245	-0.006832	0.024888	1.013332	-0.126	-0.1305	0.204	0	5	1038	1
2026-02-17	14:19:43.370	1.155	-0.49	0.245	-0.008052	0.027572	1.014552	-0.1275	-0.129	0.2025	0	5	1038	1
2026-02-17	14:19:43.390	1.155	-0.595	0.28	-0.010248	0.029768	1.02114	-0.1275	-0.129	0.2025	0	5	1038	1
2026-02-17	14:19:43.410	1.12	-0.42	0.28	-0.007808	0.024644	1.012356	-0.126	-0.1305	0.1995	0	5	1038	1
2026-02-17	14:19:43.430	1.19	-0.525	0.28	-0.00854	0.025132	1.012356	-0.1305	-0.129	0.2025	0	5	1038	1
2026-02-17	14:19:43.450	1.155	-0.525	0.28	-0.005612	0.025864	1.01504	-0.1335	-0.132	0.2025	0	5	1038	1
2026-02-17	14:19:43.470	1.155	-0.56	0.245	-0.010736	0.02562	1.017724	-0.1305	-0.132	0.2055	0	5	1038	1
2026-02-17	14:19:43.490	1.12	-0.42	0.28	-0.009516	0.02684	1.012844	-0.129	-0.132	0.207	0	5	1038	1
2026-02-17	14:19:43.510	1.19	-0.56	0.28	-0.00976	0.02562	1.014552	-0.129	-0.1305	0.204	0	5	1038	1
2026-02-17	14:19:43.530	1.155	-0.49	0.28	-0.010004	0.024156	1.013088	-0.1305	-0.1275	0.2055	0	5	1038	1
2026-02-17	14:19:43.550	1.12	-0.525	0.245	-0.005368	0.023424	1.015284	-0.129	-0.1245	0.207	0	5	1038	1
2026-02-17	14:19:43.570	1.19	-0.49	0.28	-0.006344	0.02318	1.015772	-0.1305	-0.1215	0.21	0	5	1038	1
2026-02-17	14:19:43.590	1.225	-0.56	0.28	-0.008296	0.02684	1.018212	-0.1305	-0.126	0.2055	0	5	1038	1
2026-02-17	14:19:43.610	1.19	-0.35	0.28	-0.00732	0.021472	1.010648	-0.1245	-0.126	0.201	0	5	1038	1
2026-02-17	14:19:43.630	1.155	-0.63	0.245	-0.006344	0.02684	1.017236	-0.1275	-0.126	0.2025	0	5	1038	1
2026-02-17	14:19:43.650	1.19	-0.56	0.245	-0.005856	0.023424	1.016748	-0.135	-0.1275	0.204	0	5	1038	1
2026-02-17	14:19:43.670	1.155	-0.385	0.28	-0.010248	0.024644	1.009184	-0.1335	-0.129	0.204	0	5	1038	1
2026-02-17	14:19:43.690	1.225	-0.56	0.28	-0.008052	0.024644	1.01504	-0.1305	-0.132	0.204	0	5	1038	1
2026-02-17	14:19:43.710	1.155	-0.49	0.245	-0.008784	0.024888	1.017724	-0.1305	-0.1275	0.207	0	5	1038	1
2026-02-17	14:19:43.730	1.155	-0.525	0.28	-0.00732	0.027328	1.018456	-0.129	-0.129	0.21	0	5	1038	1
2026-02-17	14:19:43.750	1.19	-0.49	0.245	-0.00976	0.02806	1.01382	-0.126	-0.1305	0.2055	0	5	1038	1
2026-02-17	14:19:43.770	1.19	-0.455	0.28	-0.005856	0.02074	1.014308	-0.126	-0.126	0.201	0	5	1038	1
2026-02-17	14:19:43.790	1.155	-0.56	0.28	-0.006588	0.025132	1.014796	-0.1275	-0.126	0.207	0	5	1038	1
2026-02-17	14:19:43.810	1.155	-0.525	0.28	-0.00854	0.02318	1.017968	-0.129	-0.126	0.2025	0	5	1038	1
2026-02-17	14:19:43.830	1.155	-0.455	0.28	-0.011468	0.025132	1.0126	-0.129	-0.1275	0.1995	0	5	1038	1
2026-02-17	14:19:43.850	1.155	-0.525	0.245	-0.011956	0.029524	1.018456	-0.1275	-0.126	0.2025	0	5	1038	1
2026-02-17	14:19:43.870	1.155	-0.49	0.245	-0.005124	0.022448	1.013576	-0.129	-0.1275	0.2025	0	5	1038	1
2026-02-17	14:19:43.890	1.155	-0.525	0.28	-0.006588	0.023424	1.017724	-0.1275	-0.1305	0.2025	0	5	1038	1
2026-02-17	14:19:43.910	1.12	-0.525	0.28	-0.008296	0.024156	1.016504	-0.1275	-0.1305	0.2025	0	5	1038	1
2026-02-17	14:19:43.930	1.155	-0.49	0.245	-0.00976	0.027816	1.011868	-0.1275	-0.1305	0.2025	0	5	1038	1
2026-02-17	14:19:43.950	1.155	-0.595	0.28	-0.011956	0.0244	1.017236	-0.135	-0.1275	0.2085	0	5	1038	1
2026-02-17	14:19:43.970	1.155	-0.525	0.245	-0.010248	0.022936	1.015772	-0.135	-0.1275	0.2085	0	5	1038	1
2026-02-17	14:19:43.990	1.155	-0.525	0.28	-0.006588	0.025376	1.018212	-0.1365	-0.1245	0.201	0	5	1038	1
2026-02-17	14:19:44.010	1.155	-0.49	0.245	-0.010004	0.0244	1.015772	-0.126	-0.1215	0.201	0	5	1038	1
2026-02-17	14:19:44.030	1.155	-0.525	0.28	-0.007808	0.025864	1.01504	-0.123	-0.1245	0.1995	0	5	1038	1
2026-02-17	14:19:44.050	1.155	-0.42	0.28	-0.005124	0.026108	1.012844	-0.123	-0.1305	0.207	0	5	1038	1
2026-02-17	14:19:44.070	1.155	-0.595	0.245	-0.007564	0.025132	1.018456	-0.1245	-0.1275	0.195	0	5	1038	1
2026-02-17	14:19:44.090	1.155	-0.455	0.28	-0.006344	0.022692	1.010892	-0.1275	-0.129	0.207	0	5	1038	1
2026-02-17	14:19:44.110	1.155	-0.56	0.245	-0.010492	0.027328	1.014308	-0.141	-0.126	0.2085	0	5	1038	1
2026-02-17	14:19:44.130	1.155	-0.49	0.245	-0.009028	0.030256	1.016504	-0.1245	-0.132	0.204	0	5	1038	1
2026-02-17	14:19:44.150	1.155	-0.56	0.28	-0.008296	0.024888	1.016504	-0.1245	-0.123	0.213	0	5	1038	1
2026-02-17	14:19:44.170	1.19	-0.525	0.28	-0.00976	0.027328	1.01382	-0.138	-0.1245	0.198	0	5	1038	1
2026-02-17	14:19:44.190	1.19	-0.525	0.28	-0.007564	0.0244	1.015772	-0.1335	-0.1245	0.201	0	5	1038	1
2026-02-17	14:19:44.210	1.19	-0.525	0.315	-0.009272	0.02562	1.015284	-0.1275	-0.129	0.204	0	5	1038	1
2026-02-17	14:19:44.230	1.155	-0.49	0.245	-0.008784	0.027328	1.013088	-0.12	-0.12	0.198	0	5	1038	1
2026-02-17	14:19:44.250	1.12	-0.595	0.21	-0.009272	0.0244	1.013332	-0.123	-0.126	0.1995	0	5	1038	1
2026-02-17	14:19:44.270	1.155	-0.525	0.28	-0.00854	0.02806	1.014308	-0.123	-0.126	0.1995	0	5	1038	1
2026-02-17	14:19:44.290	1.155	-0.525	0.245	-0.005856	0.029036	1.014796	-0.123	-0.126	0.1995	0	5	1038	1
2026-02-17	14:19:44.310	1.19	-0.56	0.245	-0.010248	0.025132	1.016992	-0.126	-0.126	0.1995	0	5	1038	1
2026-02-17	14:19:44.330	1.155	-0.455	0.245	-0.009028	0.029524	1.012112	-0.132	-0.126	0.207	0	5	1038	1
2026-02-17	14:19:44.350	1.225	-0.525	0.28	-0.004392	0.022448	1.0126	-0.132	-0.1275	0.213	0	5	1038	1
2026-02-17	14:19:44.370	1.155	-0.525	0.245	-0.00732	0.026108	1.014796	-0.1305	-0.126	0.21	0	5	1038	1
2026-02-17	14:19:44.390	1.155	-0.56	0.245	-0.008296	0.024888	1.018456	-0.129	-0.1215	0.2055	0	5	1038	1
2026-02-17	14:19:44.410	1.155	-0.385	0.245	-0.010004	0.02562	1.01138	-0.123	-0.1275	0.2025	0	4	1038	1
2026-02-17	14:19:44.430	1.12	-0.56	0.28	-0.007564	0.02562	1.019676	-0.126	-0.1305	0.207	0	4	1038	1
2026-02-17	14:19:44.450	1.12	-0.525	0.245	-0.008052	0.029036	1.01626	-0.1335	-0.126	0.2085	0	4	1038	1
2026-02-17	14:19:44.470	1.155	-0.525	0.28	-0.007808	0.023668	1.015528	-0.132	-0.126	0.2025	0	4	1038	1
2026-02-17	14:19:44.490	1.155	-0.385	0.28	-0.007808	0.024156	1.011136	-0.129	-0.1245	0.2025	0	4	1038	1
2026-02-17	14:19:44.510	1.19	-0.56	0.28	-0.010248	0.026352	1.013576	-0.132	-0.1275	0.2025	0	4	1038	1
2026-02-17	14:19:44.530	1.19	-0.525	0.28	-0.006832	0.022936	1.0187	-0.132	-0.129	0.2025	0	4	1038	1
2026-02-17	14:19:44.550	1.12	-0.455	0.245	-0.00732	0.025132	1.013088	-0.1305	-0.126	0.2055	0	4	1038	1
2026-02-17	14:19:44.570	1.155	-0.525	0.245	-0.005856	0.02806	1.013088	-0.132	-0.1275	0.2055	0	4	1038	1
2026-02-17	14:19:44.590	1.19	-0.595	0.28	-0.011712	0.023424	1.01748	-0.129	-0.129	0.207	0	4	1038	1
2026-02-17	14:19:44.610	1.19	-0.595	0.28	-0.008052	0.024888	1.018212	-0.126	-0.129	0.207	0	4	1038	1
2026-02-17	14:19:44.630	1.155	-0.42	0.21	-0.007808	0.026108	1.008208	-0.126	-0.129	0.204	0	4	1038	1
2026-02-17	14:19:44.650	1.19	-0.56	0.245	-0.007564	0.024644	1.016992	-0.1305	-0.126	0.1995	0	4	1038	1
2026-02-17	14:19:44.670	1.19	-0.525	0.245	-0.007808	0.026108	1.016992	-0.138	-0.1275	0.201	0	4	1038	1
2026-02-17	14:19:44.690	1.155	-0.49	0.21	-0.010004	0.02806	1.017236	-0.132	-0.129	0.207	0	4	1038	1
2026-02-17	14:19:44.710	1.155	-0.455	0.245	-0.008784	0.026596	1.012112	-0.126	-0.1275	0.207	0	4	1038	1
2026-02-17	14:19:44.730	1.155	-0.525	0.245	-0.007076	0.024888	1.014796	-0.126	-0.126	0.204	0	4	1038	1
2026-02-17	14:19:44.750	1.12	-0.525	0.245	-0.008052	0.025864	1.017724	-0.1305	-0.126	0.2025	0	4	1038	1
2026-02-17	14:19:44.770	1.155	-0.49	0.245	-0.010492	0.02684	1.017236	-0.1305	-0.1275	0.2025	0	4	1038	1
2026-02-17	14:19:44.790	1.155	-0.56	0.28	-0.007076	0.026352	1.015772	-0.1305	-0.1335	0.204	0	4	1038	1
2026-02-17	14:19:44.810	1.155	-0.455	0.21	-0.01098	0.025132	1.013088	-0.129	-0.132	0.2085	0	4	1038	1
2026-02-17	14:19:44.830	1.155	-0.49	0.245	-0.00976	0.02806	1.014552	-0.129	-0.1275	0.21	0	4	1038	1
2026-02-17	14:19:44.850	1.19	-0.56	0.28	-0.011224	0.025132	1.015284	-0.132	-0.1275	0.2085	0	4	1038	1
2026-02-17	14:19:44.870	1.155	-0.455	0.245	-0.006588	0.026596	1.017968	-0.132	-0.1245	0.2055	0	4	1038	1
2026-02-17	14:19:44.890	1.19	-0.49	0.28	-0.00732	0.02562	1.016016	-0.1335	-0.1245	0.207	0	4	1038	1
2026-02-17	14:19:44.910	1.155	-0.525	0.245	-0.004636	0.02562	1.01382	-0.1335	-0.1275	0.21	0	4	1038	1
2026-02-17	14:19:44.930	1.155	-0.49	0.28	-0.006832	0.024644	1.011868	-0.135	-0.129	0.2055	0	4	1038	1
2026-02-17	14:19:44.950	1.19	-0.525	0.28	-0.009028	0.024888	1.014308	-0.1335	-0.126	0.2055	0	4	1038	1
2026-02-17	14:19:44.970	1.225	-0.49	0.28	-0.011468	0.027084	1.02358	-0.129	-0.126	0.2085	0	4	1038	1
2026-02-17	14:19:44.990	1.085	-0.385	0.28	-0.006588	0.026352	1.011868	-0.1275	-0.1275	0.21	0	4	1038	1
2026-02-17	14:19:45.010	1.155	-0.735	0.28	-0.007564	0.02562	1.015528	-0.1275	-0.1275	0.21	0	4	1038	1
2026-02-17	14:19:45.030	1.155	-0.245	0.28	-0.012688	0.025864	1.00772	-0.1275	-0.1305	0.2055	0	4	1038	1
2026-02-17	14:19:45.050	1.19	-0.63	0.28	-0.00732	0.02806	1.019432	-0.1275	-0.1305	0.2055	0	4	1038	1
2026-02-17	14:19:45.070	1.155	-0.385	0.245	-0.008296	0.02562	1.01382	-0.1185	-0.129	0.204	0	4	1038	1
2026-02-17	14:19:45.090	1.155	-0.49	0.245	-0.007076	0.028792	1.013088	-0.129	-0.129	0.1995	0	4	1038	1
2026-02-17	14:19:45.110	1.19	-0.525	0.245	-0.00976	0.026108	1.01504	-0.135	-0.132	0.1965	0	4	1038	1
2026-02-17	14:19:45.130	1.155	-0.56	0.245	-0.008052	0.024156	1.016016	-0.1335	-0.132	0.207	0	4	1038	1
2026-02-17	14:19:45.150	1.155	-0.525	0.28	-0.006588	0.027816	1.015528	-0.1335	-0.1245	0.2025	0	4	1038	1
2026-02-17	14:19:45.170	1.155	-0.49	0.21	-0.010736	0.023912	1.013576	-0.1335	-0.1305	0.1965	0	4	1038	1
2026-02-17	14:19:45.190	1.19	-0.56	0.245	-0.006588	0.029036	1.016992	-0.129	-0.1275	0.2055	0	4	1038	1
2026-02-17	14:19:45.210	1.155	-0.49	0.245	-0.006588	0.028548	1.01138	-0.1245	-0.123	0.198	0	4	1038	1
2026-02-17	14:19:45.230	1.19	-0.56	0.245	-0.009272	0.026352	1.013332	-0.1305	-0.126	0.207	0	4	1038	1
2026-02-17	14:19:45.250	1.19	-0.525	0.28	-0.006832	0.027328	1.015528	-0.1275	-0.135	0.2055	0	4	1038	1
2026-02-17	14:19:45.270	1.19	-0.525	0.28	-0.007076	0.02318	1.016992	-0.1335	-0.123	0.213	0	4	1038	1
2026-02-17	14:19:45.290	1.155	-0.49	0.28	-0.007564	0.026596	1.010892	-0.1335	-0.129	0.2025	0	4	1038	1
2026-02-17	14:19:45.310	1.155	-0.525	0.245	-0.007564	0.02562	1.016992	-0.129	-0.123	0.2085	0	4	1038	1
2026-02-17	14:19:45.330	1.155	-0.49	0.245	-0.0122	0.024888	1.014552	-0.129	-0.123	0.2085	0	4	1038	1
2026-02-17	14:19:45.350	1.19	-0.49	0.28	-0.00976	0.028548	1.015528	-0.129	-0.123	0.2085	0	4	1038	1
2026-02-17	14:19:45.370	1.155	-0.49	0.28	-0.008052	0.0244	1.013088	-0.1305	-0.123	0.204	0	4	1038	1
2026-02-17	14:19:45.390	1.155	-0.49	0.245	-0.004636	0.022692	1.01504	-0.132	-0.123	0.201	0	4	1038	1
2026-02-17	14:19:45.410	1.19	-0.525	0.28	-0.009516	0.026108	1.015528	-0.1275	-0.1245	0.1995	0	4	1038	1
2026-02-17	14:19:45.430	1.19	-0.525	0.28	-0.009516	0.024888	1.01626	-0.1245	-0.132	0.2025	0	4	1038	1
2026-02-17	14:19:45.450	1.12	-0.49	0.315	-0.011468	0.025132	1.014796	-0.1245	-0.1335	0.2055	0	4	1038	1
2026-02-17	14:19:45.470	1.19	-0.525	0.28	-0.010736	0.027084	1.015772	-0.126	-0.129	0.2055	0	4	1038	1
2026-02-17	14:19:45.490	1.155	-0.49	0.245	-0.006344	0.025132	1.014796	-0.126	-0.1335	0.204	0	4	1038	1
2026-02-17	14:19:45.510	1.19	-0.49	0.245	-0.009272	0.024644	1.014308	-0.123	-0.135	0.2025	0	4	1038	1
2026-02-17	14:19:45.530	1.155	-0.525	0.28	-0.007808	0.029036	1.016504	-0.1305	-0.126	0.2055	0	4	1038	1
2026-02-17	14:19:45.550	1.155	-0.49	0.28	-0.00854	0.024156	1.015772	-0.1365	-0.1275	0.2085	0	4	1038	1
2026-02-17	14:19:45.570	1.155	-0.49	0.245	-0.00854	0.023912	1.013332	-0.1365	-0.1305	0.21	0	4	1038	1
2026-02-17	14:19:45.590	1.19	-0.49	0.28	-0.009028	0.0244	1.015772	-0.1305	-0.129	0.21	0	4	1038	1
2026-02-17	14:19:45.610	1.155	-0.49	0.28	-0.007564	0.027328	1.014308	-0.1275	-0.129	0.2085	0	4	1038	1
2026-02-17	14:19:45.630	1.155	-0.525	0.245	-0.010248	0.022692	1.01626	-0.1275	-0.1275	0.207	0	4	1038	1
2026-02-17	14:19:45.650	1.19	-0.56	0.245	-0.004392	0.027084	1.016504	-0.1275	-0.129	0.2085	0	4	1038	1
2026-02-17	14:19:45.670	1.19	-0.49	0.28	-0.00488	0.024888	1.012356	-0.129	-0.1305	0.207	0	4	1038	1
2026-02-17	14:19:45.690	1.12	-0.525	0.28	-0.00854	0.0244	1.01748	-0.1305	-0.1305	0.2055	0	4	1038	1
2026-02-17	14:19:45.710	1.155	-0.525	0.28	-0.008784	0.027328	1.014552	-0.132	-0.132	0.2055	0	4	1038	1
2026-02-17	14:19:45.730	1.19	-0.525	0.245	-0.009028	0.025864	1.015528	-0.1305	-0.1305	0.207	0	4	1038	1
2026-02-17	14:19:45.750	1.155	-0.49	0.245	-0.010492	0.027572	1.014796	-0.1305	-0.126	0.2085	0	4	1038	1
2026-02-17	14:19:45.770	1.155	-0.525	0.28	-0.005612	0.025376	1.016748	-0.1305	-0.126	0.201	0	4	1038	1
2026-02-17	14:19:45.790	1.12	-0.49	0.245	-0.004148	0.024888	1.01504	-0.1305	-0.1305	0.1965	0	4	1038	1
2026-02-17	14:19:45.810	1.19	-0.525	0.28	-0.007564	0.026108	1.016992	-0.129	-0.1305	0.1995	0	4	1038	1
2026-02-17	14:19:45.830	1.155	-0.49	0.28	-0.010248	0.0244	1.015284	-0.129	-0.129	0.204	0	4	1038	1
2026-02-17	14:19:45.850	1.155	-0.56	0.315	-0.01098	0.026108	1.017724	-0.1275	-0.1275	0.207	0	4	1038	1
2026-02-17	14:19:45.870	1.155	-0.49	0.28	-0.007808	0.027328	1.01748	-0.126	-0.126	0.204	0	4	1038	1
2026-02-17	14:19:45.890	1.12	-0.49	0.245	-0.005368	0.024888	1.010892	-0.1305	-0.126	0.204	0	4	1038	1
2026-02-17	14:19:45.910	1.19	-0.525	0.245	-0.00488	0.024644	1.01504	-0.1305	-0.1275	0.2055	0	4	1038	1
2026-02-17	14:19:45.930	1.19	-0.525	0.28	-0.008296	0.024644	1.015528	-0.129	-0.1275	0.207	0	4	1038	1
2026-02-17	14:19:45.950	1.19	-0.525	0.28	-0.010004	0.0244	1.015528	-0.1275	-0.1245	0.2055	0	4	1038	1
2026-02-17	14:19:45.970	1.155	-0.525	0.245	-0.006588	0.021228	1.017968	-0.1275	-0.129	0.2055	0	4	1038	1
2026-02-17	14:19:45.990	1.155	-0.455	0.245	-0.010736	0.02684	1.015284	-0.1275	-0.132	0.2055	0	4	1038	1
2026-02-17	14:19:46.010	1.19	-0.525	0.28	-0.009516	0.025376	1.01504	-0.1275	-0.132	0.204	0	4	1038	1
2026-02-17	14:19:46.030	1.19	-0.525	0.245	-0.011468	0.027084	1.014796	-0.135	-0.132	0.204	0	4	1038	1
2026-02-17	14:19:46.050	1.155	-0.56	0.28	-0.009272	0.024888	1.015284	-0.138	-0.1275	0.2055	0	4	1038	1
2026-02-17	14:19:46.070	1.155	-0.525	0.245	-0.00732	0.028304	1.01748	-0.1305	-0.126	0.2055	0	4	1038	1
2026-02-17	14:19:46.090	1.12	-0.49	0.28	-0.008296	0.023668	1.014308	-0.1275	-0.126	0.2055	0	4	1038	1
2026-02-17	14:19:46.110	1.155	-0.595	0.245	-0.005856	0.02196	1.015772	-0.126	-0.129	0.198	0	4	1038	1
2026-02-17	14:19:46.130	1.155	-0.49	0.245	-0.009516	0.02684	1.016016	-0.126	-0.129	0.198	0	4	1038	1
2026-02-17	14:19:46.150	1.155	-0.455	0.28	-0.010736	0.028792	1.0126	-0.129	-0.132	0.201	0	4	1038	1
2026-02-17	14:19:46.170	1.155	-0.56	0.245	-0.006588	0.023912	1.018212	-0.129	-0.1215	0.2055	0	4	1038	1
2026-02-17	14:19:46.190	1.19	-0.525	0.28	-0.01098	0.0244	1.017236	-0.132	-0.1275	0.2055	0	4	1038	1
2026-02-17	14:19:46.210	1.155	-0.455	0.245	-0.007808	0.02684	1.012844	-0.129	-0.1215	0.204	0	3	1038	1
2026-02-17	14:19:46.230	1.155	-0.525	0.245	-0.009028	0.02806	1.012844	-0.132	-0.1245	0.198	0	3	1038	1
2026-02-17	14:19:46.250	1.155	-0.56	0.245	-0.010248	0.027328	1.019676	-0.132	-0.1305	0.198	0	3	1038	1
2026-02-17	14:19:46.270	1.19	-0.525	0.28	-0.008784	0.023668	1.015284	-0.132	-0.126	0.2055	0	3	1038	1
2026-02-17	14:19:46.290	1.155	-0.49	0.28	-0.008052	0.025864	1.015284	-0.135	-0.135	0.201	0	3	1038	1
2026-02-17	14:19:46.310	1.19	-0.525	0.245	-0.00976	0.02318	1.016992	-0.1365	-0.135	0.1965	0	3	1038	1
2026-02-17	14:19:46.330	1.155	-0.49	0.245	-0.008296	0.025132	1.01504	-0.1305	-0.1305	0.21	0	3	1038	1
2026-02-17	14:19:46.350	1.19	-0.49	0.245	-0.010736	0.026108	1.014796	-0.1305	-0.1305	0.21	0	3	1038	1
2026-02-17	14:19:46.370	1.155	-0.525	0.28	-0.010492	0.023912	1.016992	-0.1275	-0.126	0.2025	0	3	1038	1
2026-02-17	14:19:46.390	1.155	-0.525	0.28	-0.006344	0.025132	1.019676	-0.1275	-0.12	0.198	0	3	1038	1
2026-02-17	14:19:46.410	1.155	-0.455	0.21	-0.010004	0.026596	1.012356	-0.1305	-0.1245	0.204	0	3	1038	1
2026-02-17	14:19:46.430	1.19	-0.595	0.245	-0.0122	0.027084	1.017968	-0.129	-0.1245	0.2055	0	3	1038	1
2026-02-17	14:19:46.450	1.155	-0.525	0.28	-0.007564	0.025864	1.013576	-0.132	-0.1275	0.204	0	3	1038	1
2026-02-17	14:19:46.470	1.155	-0.455	0.28	-0.005612	0.027328	1.0126	-0.1365	-0.1335	0.2055	0	3	1038	1
2026-02-17	14:19:46.490	1.225	-0.56	0.245	-0.007808	0.026352	1.01382	-0.1305	-0.1305	0.207	0	3	1038	1
2026-02-17	14:19:46.510	1.155	-0.49	0.28	-0.007564	0.023424	1.017236	-0.1305	-0.126	0.2025	0	3	1038	1
2026-02-17	14:19:46.530	1.12	-0.455	0.245	-0.009516	0.023424	1.013332	-0.132	-0.1245	0.1995	0	3	1038	1
2026-02-17	14:19:46.550	1.155	-0.525	0.28	-0.010004	0.027084	1.013576	-0.1305	-0.129	0.198	0	3	1038	1
2026-02-17	14:19:46.570	1.225	-0.56	0.28	-0.013176	0.023912	1.018456	-0.1275	-0.126	0.1995	0	3	1038	1
2026-02-17	14:19:46.590	1.19	-0.525	0.245	-0.0122	0.027572	1.016016	-0.129	-0.1245	0.207	0	3	1038	1
2026-02-17	14:19:46.610	1.155	-0.525	0.245	-0.005856	0.024644	1.012356	-0.1305	-0.129	0.204	0	3	1038	1
2026-02-17	14:19:46.630	1.155	-0.49	0.245	-0.0061	0.02684	1.012844	-0.126	-0.1335	0.198	0	3	1038	1
2026-02-17	14:19:46.650	1.19	-0.525	0.28	-0.006344	0.027084	1.01626	-0.129	-0.1335	0.2025	0	3	1038	1
2026-02-17	14:19:46.670	1.155	-0.525	0.245	-0.009516	0.024888	1.014308	-0.1305	-0.129	0.2055	0	3	1038	1
2026-02-17	14:19:46.690	1.12	-0.525	0.28	-0.011468	0.025376	1.016504	-0.1305	-0.1245	0.2055	0	3	1038	1
2026-02-17	14:19:46.710	1.155	-0.49	0.28	-0.010248	0.026596	1.010648	-0.1275	-0.126	0.2085	0	3	1038	1
2026-02-17	14:19:46.730	1.155	-0.525	0.28	-0.007076	0.030988	1.016016	-0.1275	-0.1305	0.21	0	3	1038	1
2026-02-17	14:19:46.750	1.155	-0.49	0.28	-0.007808	0.021228	1.017968	-0.1335	-0.129	0.2055	0	3	1038	1
2026-02-17	14:19:46.770	1.155	-0.455	0.28	-0.008296	0.02562	1.015528	-0.1305	-0.126	0.201	0	3	1038	1
2026-02-17	14:19:46.790	1.155	-0.49	0.245	-0.008296	0.026352	1.009916	-0.1275	-0.123	0.1965	0	3	1038	1
2026-02-17	14:19:46.810	1.19	-0.525	0.28	-0.007076	0.02562	1.014308	-0.129	-0.1275	0.198	0	3	1038	1
2026-02-17	14:19:46.830	1.155	-0.525	0.28	-0.007564	0.028792	1.01504	-0.129	-0.132	0.2025	0	3	1038	1
2026-02-17	14:19:46.850	1.085	-0.56	0.28	-0.006832	0.02562	1.014552	-0.129	-0.132	0.201	0	3	1038	1
2026-02-17	14:19:46.870	1.19	-0.595	0.28	-0.008296	0.02806	1.025776	-0.126	-0.126	0.1965	0	3	1038	1
2026-02-17	14:19:46.890	1.19	-0.035	0.21	-0.00976	0.026108	1.000156	-0.129	-0.129	0.1995	0	3	1038	1
2026-02-17	14:19:46.910	1.085	-0.945	0.28	-0.006344	0.02928	1.018456	-0.1305	-0.1335	0.2025	0	3	1038	1
2026-02-17	14:19:46.930	1.19	-0.63	0.245	-0.0061	0.02562	1.025044	-0.1305	-0.1335	0.2025	0	3	1038	1
2026-02-17	14:19:46.950	1.225	-0.14	0.245	-0.013664	0.023912	1.01016	-0.1305	-0.132	0.207	0	3	1038	1
2026-02-17	14:19:46.970	1.19	-0.595	0.28	-0.011712	0.02806	1.010892	-0.1305	-0.132	0.21	0	3	1038	1
2026-02-17	14:19:46.990	1.155	-0.805	0.28	-0.008052	0.029036	1.022116	-0.129	-0.132	0.207	0	3	1038	1
2026-02-17	14:19:47.010	1.12	-0.35	0.21	-0.008784	0.022692	1.0126	-0.12	-0.1245	0.204	0	3	1038	1
2026-02-17	14:19:47.030	1.19	-0.42	0.28	-0.007564	0.026108	1.010892	-0.1245	-0.1275	0.204	0	3	1038	1
2026-02-17	14:19:47.050	1.19	-0.63	0.245	-0.00854	0.027084	1.019188	-0.1305	-0.1305	0.2055	0	3	1038	1
2026-02-17	14:19:47.070	1.225	-0.525	0.28	-0.010004	0.026596	1.016992	-0.1305	-0.129	0.21	0	3	1038	1
2026-02-17	14:19:47.090	1.19	-0.455	0.28	-0.008052	0.02806	1.01626	-0.1335	-0.1245	0.207	0	3	1038	1
2026-02-17	14:19:47.110	1.155	-0.42	0.245	-0.007564	0.02562	1.00894	-0.1305	-0.1275	0.207	0	3	1038	1
2026-02-17	14:19:47.130	1.155	-0.595	0.245	-0.007076	0.028304	1.016748	-0.129	-0.129	0.2085	0	3	1038	1
2026-02-17	14:19:47.150	1.155	-0.56	0.245	-0.009272	0.02318	1.0187	-0.135	-0.1215	0.204	0	3	1038	1
2026-02-17	14:19:47.170	1.155	-0.35	0.245	-0.010492	0.026352	1.01016	-0.135	-0.1215	0.204	0	3	1038	1
2026-02-17	14:19:47.190	1.155	-0.595	0.245	-0.009028	0.02806	1.017236	-0.1275	-0.132	0.21	0	3	1038	1
2026-02-17	14:19:47.210	1.19	-0.525	0.245	-0.008296	0.0244	1.01382	-0.1275	-0.132	0.21	0	3	1038	1
2026-02-17	14:19:47.230	1.19	-0.525	0.28	-0.008296	0.0244	1.015528	-0.1275	-0.132	0.21	0	3	1038	1
2026-02-17	14:19:47.250	1.155	-0.49	0.28	-0.009272	0.02684	1.015528	-0.129	-0.129	0.2025	0	3	1038	1
2026-02-17	14:19:47.270	1.155	-0.525	0.245	-0.009516	0.023424	1.01138	-0.132	-0.1275	0.207	0	3	1038	1
2026-02-17	14:19:47.290	1.155	-0.42	0.245	-0.010492	0.025376	1.012112	-0.1275	-0.1305	0.2085	0	3	1038	1
2026-02-17	14:19:47.310	1.155	-0.805	0.28	-0.009028	0.027816	1.024312	-0.123	-0.126	0.2025	0	3	1038	1
2026-02-17	14:19:47.330	1.155	-0.245	0.28	-0.011468	0.02562	1.011136	-0.1305	-0.126	0.2025	0	3	1038	1
2026-02-17	14:19:47.350	1.155	-0.42	0.315	-0.01098	0.024644	1.01016	-0.1305	-0.126	0.2025	0	3	1038	1
2026-02-17	14:19:47.370	1.155	-0.7	0.28	-0.007564	0.026352	1.017724	-0.129	-0.129	0.201	0	3	1038	1
2026-02-17	14:19:47.390	1.155	-0.49	0.28	-0.005612	0.0244	1.017968	-0.129	-0.129	0.2025	0	3	1038	1
2026-02-17	14:19:47.410	1.19	-0.385	0.245	-0.010004	0.023912	1.011624	-0.1305	-0.123	0.2055	0	3	1038	1
2026-02-17	14:19:47.430	1.155	-0.49	0.245	-0.007076	0.02684	1.01138	-0.132	-0.1215	0.201	0	3	1038	1
2026-02-17	14:19:47.450	1.225	-0.595	0.28	-0.00976	0.02562	1.019676	-0.132	-0.126	0.2055	0	3	1038	1
2026-02-17	14:19:47.470	1.19	-0.525	0.28	-0.00732	0.027816	1.016992	-0.129	-0.129	0.21	0	3	1038	1
2026-02-17	14:19:47.490	1.155	-0.385	0.28	-0.007564	0.023424	1.009672	-0.129	-0.1305	0.204	0	3	1038	1
2026-02-17	14:19:47.510	1.155	-0.595	0.28	-0.008296	0.025864	1.015284	-0.132	-0.129	0.2025	0	3	1038	1
2026-02-17	14:19:47.530	1.155	-0.525	0.245	-0.008296	0.026352	1.016748	-0.1305	-0.1275	0.207	0	3	1038	1
2026-02-17	14:19:47.550	1.19	-0.525	0.315	-0.008296	0.026596	1.01504	-0.1305	-0.126	0.21	0	3	1038	1
2026-02-17	14:19:47.570	1.19	-0.525	0.28	-0.008784	0.027572	1.016504	-0.1275	-0.126	0.201	0	3	1038	1
2026-02-17	14:19:47.590	1.155	-0.455	0.315	-0.005856	0.028792	1.012112	-0.1305	-0.126	0.198	0	3	1038	1
2026-02-17	14:19:47.610	1.19	-0.56	0.28	-0.005612	0.026108	1.01504	-0.132	-0.1245	0.204	0	4	1038	1
2026-02-17	14:19:47.630	1.19	-0.525	0.28	-0.009516	0.024888	1.015284	-0.1275	-0.129	0.204	0	4	1038	1
2026-02-17	14:19:47.650	1.155	-0.525	0.245	-0.006344	0.027572	1.01626	-0.126	-0.1305	0.1995	0	4	1038	1
2026-02-17	14:19:47.670	1.19	-0.49	0.28	-0.010248	0.025864	1.0126	-0.1275	-0.1275	0.2055	0	4	1038	1
2026-02-17	14:19:47.690	1.155	-0.49	0.245	-0.00976	0.024156	1.016504	-0.1305	-0.1275	0.2085	0	4	1038	1
2026-02-17	14:19:47.710	1.155	-0.49	0.245	-0.004392	0.024644	1.016748	-0.129	-0.129	0.2085	0	4	1038	1
2026-02-17	14:19:47.730	1.19	-0.525	0.28	-0.00854	0.024644	1.013088	-0.129	-0.132	0.204	0	4	1038	1
2026-02-17	14:19:47.750	1.19	-0.525	0.28	-0.010492	0.025864	1.016016	-0.1305	-0.132	0.201	0	4	1038	1
2026-02-17	14:19:47.770	1.19	-0.525	0.28	-0.00854	0.027084	1.016504	-0.126	-0.129	0.201	0	4	1038	1
2026-02-17	14:19:47.790	1.155	-0.35	0.28	-0.009028	0.025376	1.00772	-0.1275	-0.1305	0.2025	0	4	1038	1
2026-02-17	14:19:47.810	1.12	-0.805	0.28	-0.003172	0.027084	1.023824	-0.1305	-0.135	0.2025	0	4	1038	1
2026-02-17	14:19:47.830	1.19	-0.385	0.245	-0.006832	0.022448	1.014796	-0.132	-0.132	0.201	0	4	1038	1
2026-02-17	14:19:47.850	1.155	-0.42	0.245	-0.009516	0.028548	1.016504	-0.1335	-0.126	0.201	0	4	1038	1
2026-02-17	14:19:47.870	1.155	-0.56	0.28	-0.007808	0.025132	1.014064	-0.1335	-0.126	0.2055	0	4	1038	1
2026-02-17	14:19:47.890	1.155	-0.56	0.245	-0.00488	0.027816	1.01382	-0.1305	-0.132	0.2085	0	4	1038	1
2026-02-17	14:19:47.910	1.225	-0.49	0.245	-0.012932	0.02684	1.016992	-0.1275	-0.138	0.204	0	4	1038	1
2026-02-17	14:19:47.930	1.19	-0.42	0.28	-0.009516	0.02928	1.012112	-0.129	-0.132	0.207	0	4	1038	1
2026-02-17	14:19:47.950	1.155	-0.63	0.28	-0.010492	0.026108	1.016504	-0.1305	-0.126	0.207	0	4	1038	1
2026-02-17	14:19:47.970	1.19	-0.525	0.245	-0.004392	0.0244	1.015772	-0.1305	-0.129	0.204	0	4	1038	1
2026-02-17	14:19:47.990	1.19	-0.455	0.245	-0.008052	0.024156	1.014552	-0.1335	-0.1305	0.2055	0	4	1038	1
2026-02-17	14:19:48.010	1.19	-0.525	0.245	-0.00854	0.02318	1.010892	-0.1305	-0.129	0.201	0	4	1038	1
2026-02-17	14:19:48.030	1.19	-0.595	0.245	-0.009516	0.023424	1.015528	-0.129	-0.1305	0.1965	0	4	1038	1
2026-02-17	14:19:48.050	1.155	-0.455	0.28	-0.010004	0.028792	1.014552	-0.129	-0.1275	0.2025	0	4	1038	1
2026-02-17	14:19:48.070	1.12	-0.525	0.315	-0.006588	0.024888	1.01504	-0.129	-0.1245	0.2025	0	4	1038	1
2026-02-17	14:19:48.090	1.155	-0.49	0.245	-0.008052	0.025864	1.013088	-0.1305	-0.126	0.201	0	4	1038	1
2026-02-17	14:19:48.110	1.155	-0.595	0.28	-0.005124	0.02562	1.0187	-0.1305	-0.129	0.204	0	4	1038	1
2026-02-17	14:19:48.130	1.155	-0.42	0.245	-0.009516	0.026596	1.014064	-0.1305	-0.126	0.204	0	4	1038	1
2026-02-17	14:19:48.150	1.155	-0.525	0.245	-0.010492	0.023912	1.015528	-0.132	-0.123	0.204	0	4	1038	1
2026-02-17	14:19:48.170	1.155	-0.56	0.245	-0.009516	0.02318	1.014796	-0.1305	-0.129	0.2025	0	4	1038	1
2026-02-17	14:19:48.190	1.19	-0.49	0.28	-0.009516	0.023912	1.01504	-0.129	-0.1275	0.204	0	4	1038	1
2026-02-17	14:19:48.210	1.19	-0.49	0.245	-0.009028	0.024888	1.015284	-0.1275	-0.126	0.2055	0	4	1038	1
2026-02-17	14:19:48.230	1.19	-0.525	0.21	-0.008784	0.021228	1.015772	-0.126	-0.129	0.204	0	4	1038	1
2026-02-17	14:19:48.250	1.19	-0.49	0.245	-0.012444	0.026352	1.012844	-0.129	-0.1245	0.2055	0	4	1038	1
2026-02-17	14:19:48.270	1.155	-0.56	0.28	-0.011712	0.026352	1.01504	-0.129	-0.1245	0.2055	0	4	1038	1
2026-02-17	14:19:48.290	1.225	-0.49	0.245	-0.00854	0.028304	1.01748	-0.1275	-0.132	0.207	0	4	1038	1
2026-02-17	14:19:48.310	1.19	-0.49	0.28	-0.007076	0.025376	1.015528	-0.126	-0.1275	0.1995	0	4	1038	1
2026-02-17	14:19:48.330	1.19	-0.525	0.28	-0.00854	0.025132	1.017968	-0.1275	-0.123	0.2085	0	4	1038	1
2026-02-17	14:19:48.350	1.155	-0.455	0.28	-0.008296	0.024156	1.014308	-0.1275	-0.123	0.2085	0	4	1038	1
2026-02-17	14:19:48.370	1.155	-0.595	0.245	-0.010004	0.027572	1.01748	-0.1275	-0.123	0.2085	0	4	1038	1
2026-02-17	14:19:48.390	1.225	-0.315	0.245	-0.006344	0.026352	1.013332	-0.126	-0.126	0.21	0	4	1038	1
2026-02-17	14:19:48.410	1.155	-0.245	0.245	-0.007564	0.028548	0.998448	-0.1275	-0.1305	0.213	0	4	1038	1
2026-02-17	14:19:48.430	1.155	-1.225	0.315	-0.009272	0.025376	1.031632	-0.129	-0.126	0.21	0	4	1038	1
2026-02-17	14:19:48.450	1.19	-0.175	0.21	-0.01098	0.026352	1.01748	-0.1275	-0.123	0.2055	0	4	1038	1
2026-02-17	14:19:48.470	1.19	-0.35	0.245	-0.008784	0.0244	1.010648	-0.1275	-0.132	0.207	0	4	1038	1
2026-02-17	14:19:48.490	1.12	-0.525	0.28	-0.007808	0.023424	1.007476	-0.126	-0.135	0.207	0	4	1038	1
2026-02-17	14:19:48.510	1.19	-0.77	0.28	-0.007808	0.030988	1.021628	-0.1275	-0.1275	0.21	0	4	1038	1
2026-02-17	14:19:48.530	1.19	-0.385	0.28	-0.008296	0.0244	1.019676	-0.126	-0.1245	0.2115	0	4	1038	1
2026-02-17	14:19:48.550	1.19	-0.245	0.28	-0.011468	0.02074	1.009184	-0.126	-0.129	0.2025	0	4	1038	1
2026-02-17	14:19:48.570	1.12	-0.805	0.245	-0.006588	0.024888	1.019676	-0.129	-0.135	0.1965	0	4	1038	1
2026-02-17	14:19:48.590	1.19	-0.49	0.245	-0.006832	0.024888	1.01992	-0.1335	-0.132	0.204	0	4	1038	1
2026-02-17	14:19:48.610	1.155	-0.245	0.245	-0.011224	0.027328	1.006988	-0.1335	-0.123	0.2085	0	4	1038	1
2026-02-17	14:19:48.630	1.19	-0.77	0.315	-0.009516	0.026108	1.018944	-0.1245	-0.1215	0.2085	0	4	1038	1
2026-02-17	14:19:48.650	1.12	-0.455	0.245	-0.00976	0.027572	1.015528	-0.123	-0.1215	0.204	0	4	1038	1
2026-02-17	14:19:48.670	1.155	-0.56	0.245	-0.007808	0.022692	1.019188	-0.1305	-0.126	0.2085	0	4	1038	1
2026-02-17	14:19:48.690	1.19	-0.42	0.245	-0.008052	0.025132	1.015772	-0.132	-0.1305	0.2085	0	4	1038	1
2026-02-17	14:19:48.710	1.19	-0.21	0.245	-0.008052	0.025376	1.006012	-0.1335	-0.1245	0.204	0	4	1038	1
2026-02-17	14:19:48.730	1.085	-0.98	0.28	-0.0061	0.022448	1.025044	-0.1305	-0.12	0.201	0	4	1038	1
2026-02-17	14:19:48.750	1.155	-0.595	0.245	-0.008296	0.029036	1.0248	-0.126	-0.1245	0.2025	0	4	1038	1
2026-02-17	14:19:48.770	1.19	0.175	0.245	-0.00854	0.022204	0.9943	-0.129	-0.1245	0.2055	0	4	1038	1
2026-02-17	14:19:48.790	1.155	-1.015	0.28	-0.007808	0.022692	1.026264	-0.129	-0.1245	0.2055	0	4	1038	1
2026-02-17	14:19:48.810	1.155	-0.595	0.28	-0.008052	0.024644	1.018944	-0.129	-0.126	0.2025	0	4	1038	1
2026-02-17	14:19:48.830	1.26	-0.245	0.245	-0.009028	0.02684	1.007964	-0.1275	-0.12	0.201	0	4	1038	1
2026-02-17	14:19:48.850	1.12	-0.525	0.28	-0.006344	0.02562	1.014552	-0.129	-0.126	0.204	0	4	1038	1
2026-02-17	14:19:48.870	1.12	-0.77	0.315	-0.01098	0.021228	1.018944	-0.1305	-0.1305	0.201	0	4	1038	1
2026-02-17	14:19:48.890	1.155	-0.42	0.245	-0.00854	0.026596	1.010648	-0.132	-0.129	0.198	0	4	1038	1
2026-02-17	14:19:48.910	1.19	-0.56	0.245	-0.007808	0.02684	1.020164	-0.1335	-0.1305	0.1995	0	4	1038	1
2026-02-17	14:19:48.930	1.155	-0.42	0.245	-0.009516	0.027816	1.012844	-0.129	-0.126	0.204	0	4	1038	1
2026-02-17	14:19:48.950	1.155	-0.63	0.245	-0.012932	0.0244	1.014308	-0.1275	-0.123	0.201	0	4	1038	1
2026-02-17	14:19:48.970	1.12	-0.56	0.245	-0.00854	0.02318	1.018212	-0.129	-0.1305	0.1995	0	4	1038	1
2026-02-17	14:19:48.990	1.155	-0.35	0.245	-0.009516	0.02318	1.01138	-0.126	-0.132	0.2025	0	4	1038	1
2026-02-17	14:19:49.010	1.19	-0.63	0.245	-0.005612	0.026596	1.015528	-0.126	-0.1275	0.2055	0	5	1038	1
2026-02-17	14:19:49.030	1.19	-0.525	0.315	-0.012444	0.026352	1.016016	-0.1305	-0.126	0.2085	0	5	1038	1
2026-02-17	14:19:49.050	1.155	-0.49	0.245	-0.007076	0.024644	1.016504	-0.1335	-0.1305	0.204	0	5	1038	1
2026-02-17	14:19:49.070	1.155	-0.455	0.21	-0.00854	0.026596	1.01504	-0.135	-0.1335	0.2025	0	5	1038	1
2026-02-17	14:19:49.090	1.12	-0.49	0.28	-0.008052	0.025132	1.01504	-0.135	-0.1305	0.207	0	5	1038	1
2026-02-17	14:19:49.110	1.12	-0.63	0.245	-0.006832	0.02684	1.0187	-0.1305	-0.129	0.2055	0	5	1038	1
2026-02-17	14:19:49.130	1.12	-0.42	0.245	-0.006344	0.025132	1.012356	-0.1275	-0.1275	0.2055	0	5	1038	1
2026-02-17	14:19:49.150	1.19	-0.455	0.28	-0.00976	0.024888	1.01382	-0.1275	-0.129	0.207	0	5	1038	1
2026-02-17	14:19:49.170	1.155	-0.56	0.245	-0.011224	0.025864	1.01382	-0.132	-0.132	0.204	0	5	1038	1
2026-02-17	14:19:49.190	1.155	-0.56	0.245	-0.007076	0.025376	1.019676	-0.1335	-0.1335	0.2055	0	5	1038	1
2026-02-17	14:19:49.210	1.155	-0.42	0.245	-0.007808	0.022936	1.012112	-0.129	-0.135	0.2055	0	5	1038	1
2026-02-17	14:19:49.230	1.155	-0.525	0.28	-0.005368	0.022204	1.014064	-0.126	-0.132	0.204	0	5	1038	1
2026-02-17	14:19:49.250	1.19	-0.56	0.28	-0.00732	0.028548	1.016504	-0.126	-0.1275	0.2055	0	5	1038	1
2026-02-17	14:19:49.270	1.155	-0.56	0.245	-0.009272	0.027328	1.023336	-0.126	-0.1245	0.201	0	5	1038	1
2026-02-17	14:19:49.290	1.12	-0.455	0.245	-0.008052	0.024156	1.013576	-0.1245	-0.1245	0.198	0	5	1038	1
2026-02-17	14:19:49.310	1.12	-0.525	0.245	-0.009516	0.027084	1.014308	-0.1245	-0.1245	0.198	0	5	1038	1
2026-02-17	14:19:49.330	1.12	-0.595	0.28	-0.010248	0.026352	1.016748	-0.129	-0.1305	0.2025	0	5	1038	1
2026-02-17	14:19:49.350	1.155	-0.56	0.28	-0.006588	0.027328	1.017724	-0.129	-0.1305	0.2025	0	5	1038	1
2026-02-17	14:19:49.370	1.12	-0.525	0.28	-0.006588	0.025132	1.012112	-0.129	-0.1305	0.2025	0	5	1038	1
