yyyy-MM-dd	HH:mm:ss.fff	gyrX	gyrY	gyrZ	accX	accY	accZ	magX	magY	magZ	Marker	Energy	Angle	Classification
2026-02-12	14:58:15.210	1.295	-0.595	0.245	-0.05734	0.06832	1.007476	-0.483	2.3805	-1.0845	0	3	1034	1
2026-02-12	14:58:15.230	1.295	-0.63	0.21	-0.061	0.05978	1.007964	-0.4995	2.382	-1.0725	0	3	1034	1
2026-02-12	14:58:15.250	1.295	-0.595	0.28	-0.05734	0.063928	1.01138	-0.4905	2.382	-1.0785	0	3	1034	1
2026-02-12	14:58:15.270	1.295	-0.56	0.245	-0.060268	0.066612	1.009672	-0.4935	2.391	-1.0755	0	3	1034	1
2026-02-12	14:58:15.290	1.295	-0.595	0.28	-0.058316	0.063928	1.010892	-0.4965	2.3805	-1.071	0	3	1034	1
2026-02-12	14:58:15.310	1.295	-0.595	0.315	-0.06344	0.064172	1.014064	-0.486	2.3835	-1.0785	0	3	1034	1
2026-02-12	14:58:15.330	1.295	-0.595	0.245	-0.06222	0.062708	1.008208	-0.4965	2.382	-1.0695	0	3	1034	1
2026-02-12	14:58:15.350	1.295	-0.595	0.245	-0.059536	0.066612	1.013332	-0.495	2.3775	-1.068	0	3	1034	1
2026-02-12	14:58:15.370	1.33	-0.595	0.245	-0.060756	0.063684	1.014308	-0.495	2.3835	-1.071	0	3	1034	1
2026-02-12	14:58:15.390	1.26	-0.595	0.28	-0.060756	0.063928	1.013088	-0.504	2.3895	-1.062	0	3	1034	1
2026-02-12	14:58:15.410	1.33	-0.595	0.245	-0.061732	0.062952	1.011624	-0.498	2.388	-1.0605	0	3	1034	1
2026-02-12	14:58:15.430	1.295	-0.56	0.28	-0.061244	0.061488	1.010648	-0.4965	2.3745	-1.065	0	3	1034	1
2026-02-12	14:58:15.450	1.33	-0.595	0.245	-0.060024	0.067588	1.009428	-0.495	2.3865	-1.0845	0	3	1034	1
2026-02-12	14:58:15.470	1.295	-0.595	0.245	-0.05856	0.066124	1.008452	-0.4845	2.382	-1.071	0	3	1034	1
2026-02-12	14:58:15.490	1.33	-0.595	0.28	-0.058316	0.063684	1.006988	-0.4995	2.373	-1.0725	0	3	1034	1
2026-02-12	14:58:15.510	1.26	-0.595	0.28	-0.062464	0.064416	1.008696	-0.4995	2.382	-1.08	0	3	1034	1
2026-02-12	14:58:15.530	1.295	-0.595	0.245	-0.060756	0.06344	1.009184	-0.498	2.3835	-1.0695	0	3	1034	1
2026-02-12	14:58:15.550	1.33	-0.595	0.245	-0.060268	0.066124	1.011136	-0.501	2.3895	-1.0725	0	3	1034	1
2026-02-12	14:58:15.570	1.295	-0.595	0.28	-0.05734	0.066124	1.007232	-0.501	2.382	-1.065	0	3	1034	1
2026-02-12	14:58:15.590	1.295	-0.595	0.315	-0.062708	0.065148	1.011624	-0.4875	2.397	-1.071	0	3	1034	1
2026-02-12	14:58:15.610	1.33	-0.595	0.28	-0.058072	0.066612	1.008208	-0.4905	2.385	-1.08	0	3	1034	1
2026-02-12	14:58:15.630	1.33	-0.595	0.28	-0.061976	0.067588	1.010648	-0.495	2.3805	-1.077	0	3	1034	1
2026-02-12	14:58:15.650	1.33	-0.595	0.28	-0.059048	0.065148	1.013088	-0.4965	2.379	-1.0725	0	3	1034	1
2026-02-12	14:58:15.670	1.33	-0.595	0.245	-0.06222	0.065636	1.008208	-0.501	2.385	-1.077	0	3	1034	1
2026-02-12	14:58:15.690	1.295	-0.63	0.28	-0.058804	0.0671	1.009672	-0.495	2.3865	-1.068	0	3	1034	1
2026-02-12	14:58:15.710	1.295	-0.595	0.28	-0.059292	0.062464	1.00772	-0.489	2.3835	-1.071	0	3	1034	1
2026-02-12	14:58:15.730	1.33	-0.56	0.28	-0.063196	0.061732	1.01016	-0.4935	2.3895	-1.068	0	3	1034	1
2026-02-12	14:58:15.750	1.33	-0.595	0.28	-0.058804	0.063684	1.011868	-0.4935	2.3895	-1.068	0	3	1034	1
2026-02-12	14:58:15.770	1.33	-0.56	0.245	-0.057828	0.065148	1.008696	-0.4965	2.3865	-1.071	0	3	1034	1
2026-02-12	14:58:15.790	1.33	-0.595	0.28	-0.059048	0.064416	1.009428	-0.4995	2.3835	-1.074	0	3	1034	1
2026-02-12	14:58:15.810	1.33	-0.63	0.245	-0.05978	0.066368	1.011624	-0.4965	2.382	-1.071	0	3	1033	1
2026-02-12	14:58:15.830	1.295	-0.595	0.245	-0.058316	0.0671	1.012112	-0.4995	2.382	-1.074	0	3	1033	1
2026-02-12	14:58:15.850	1.33	-0.595	0.245	-0.060268	0.063928	1.008696	-0.4995	2.385	-1.077	0	3	1033	1
2026-02-12	14:58:15.870	1.295	-0.595	0.28	-0.062952	0.066124	1.013088	-0.4935	2.385	-1.0725	0	3	1033	1
2026-02-12	14:58:15.890	1.295	-0.595	0.28	-0.061488	0.062708	1.011624	-0.492	2.382	-1.0725	0	3	1033	1
2026-02-12	14:58:15.910	1.295	-0.595	0.245	-0.059536	0.063928	1.012112	-0.486	2.376	-1.0725	0	3	1033	1
2026-02-12	14:58:15.930	1.295	-0.595	0.28	-0.060512	0.064416	1.009184	-0.489	2.3805	-1.0725	0	3	1033	1
2026-02-12	14:58:15.950	1.33	-0.595	0.245	-0.061244	0.06832	1.009184	-0.4995	2.385	-1.0725	0	3	1033	1
2026-02-12	14:58:15.970	1.26	-0.595	0.28	-0.05856	0.062708	1.006744	-0.5055	2.382	-1.068	0	3	1033	1
2026-02-12	14:58:15.990	1.295	-0.595	0.28	-0.060024	0.063684	1.009428	-0.5055	2.382	-1.068	0	3	1033	1
2026-02-12	14:58:16.010	1.33	-0.56	0.28	-0.05734	0.064904	1.009428	-0.5055	2.382	-1.068	0	3	1033	1
2026-02-12	14:58:16.030	1.295	-0.525	0.28	-0.06344	0.068564	1.008452	-0.5025	2.3865	-1.062	0	3	1033	1
2026-02-12	14:58:16.050	1.295	-0.56	0.315	-0.057828	0.061244	1.008208	-0.501	2.3955	-1.056	0	3	1033	1
2026-02-12	14:58:16.070	1.33	-0.56	0.245	-0.060024	0.068076	1.013576	-0.501	2.3895	-1.0755	0	3	1033	1
2026-02-12	14:58:16.090	1.33	-0.49	0.315	-0.059292	0.067588	1.012356	-0.483	2.382	-1.0755	0	3	1033	1
2026-02-12	14:58:16.110	1.33	-0.49	0.245	-0.061488	0.065636	1.012356	-0.4755	2.3775	-1.0695	0	3	1033	1
2026-02-12	14:58:16.130	1.365	-0.455	0.245	-0.061	0.07564	0.932812	-0.486	2.3805	-1.0725	0	3	1033	1
2026-02-12	14:58:16.150	1.295	-0.525	0.245	-0.057096	0.04392	0.951844	-0.4965	2.385	-1.068	0	3	1033	1
2026-02-12	14:58:16.170	1.295	-0.525	0.245	-0.063684	0.076372	1.005768	-0.4935	2.3775	-1.0665	0	3	1033	1
2026-02-12	14:58:16.190	1.295	-0.63	0.28	-0.059292	0.060512	1.003816	-0.4935	2.3895	-1.0755	0	3	1033	1
2026-02-12	14:58:14.210	1.33	-0.595	0.245	-0.060512	0.068808	1.013332	-0.4965	2.3865	-1.0575	0	4	1033	1
2026-02-12	14:58:14.230	1.295	-0.595	0.28	-0.060756	0.065148	1.01382	-0.4845	2.385	-1.074	0	4	1033	1
2026-02-12	14:58:14.250	1.295	-0.595	0.28	-0.060024	0.06466	1.012844	-0.495	2.379	-1.0725	0	4	1033	1
2026-02-12	14:58:14.270	1.33	-0.56	0.245	-0.061244	0.0671	1.01138	-0.4965	2.373	-1.0695	0	4	1033	1
2026-02-12	14:58:14.290	1.295	-0.63	0.28	-0.05856	0.066368	1.012356	-0.4875	2.385	-1.0635	0	4	1033	1
2026-02-12	14:58:14.310	1.33	-0.595	0.28	-0.05856	0.066368	1.011136	-0.5025	2.373	-1.0785	0	4	1033	1
2026-02-12	14:58:14.330	1.33	-0.63	0.28	-0.059048	0.063928	1.010648	-0.495	2.382	-1.0785	0	4	1033	1
2026-02-12	14:58:14.350	1.365	-0.595	0.28	-0.059292	0.065392	1.010404	-0.4965	2.385	-1.0725	0	4	1033	1
2026-02-12	14:58:14.370	1.33	-0.63	0.28	-0.060512	0.064172	1.014308	-0.4965	2.3835	-1.071	0	4	1033	1
2026-02-12	14:58:14.390	1.295	-0.595	0.245	-0.062708	0.064172	1.009672	-0.4875	2.3865	-1.077	0	4	1033	1
2026-02-12	14:58:14.410	1.295	-0.56	0.245	-0.060268	0.063684	1.014796	-0.4935	2.382	-1.0785	0	4	1033	1
2026-02-12	14:58:14.430	1.295	-0.595	0.245	-0.060024	0.063196	1.01382	-0.4845	2.3865	-1.0755	0	4	1033	1
2026-02-12	14:58:14.450	1.33	-0.595	0.245	-0.058072	0.065392	1.010404	-0.492	2.382	-1.0695	0	4	1033	1
2026-02-12	14:58:14.470	1.295	-0.63	0.245	-0.05734	0.063928	1.01382	-0.495	2.388	-1.0815	0	4	1033	1
2026-02-12	14:58:14.490	1.295	-0.595	0.245	-0.059048	0.063684	1.0126	-0.501	2.3865	-1.0815	0	4	1033	1
2026-02-12	14:58:14.510	1.33	-0.595	0.28	-0.05856	0.06588	1.013332	-0.501	2.3865	-1.0815	0	4	1033	1
2026-02-12	14:58:14.530	1.33	-0.63	0.245	-0.057828	0.069052	1.013576	-0.501	2.3865	-1.0815	0	4	1033	1
2026-02-12	14:58:14.550	1.295	-0.56	0.245	-0.060268	0.06344	1.013332	-0.501	2.3865	-1.0815	0	4	1033	1
2026-02-12	14:58:14.570	1.295	-0.63	0.315	-0.059292	0.066368	1.010648	-0.495	2.382	-1.074	0	4	1033	1
2026-02-12	14:58:14.590	1.295	-0.595	0.315	-0.060268	0.064172	1.013576	-0.4905	2.3805	-1.0695	0	4	1033	1
2026-02-12	14:58:26.610	1.225	-0.735	0.245	-0.060756	0.0671	1.008208	-0.4995	2.3835	-1.0665	0	46	94	2
2026-02-12	14:58:26.630	1.26	-0.945	0.28	-0.06222	0.045384	1.070916	-0.492	2.388	-1.0725	0	46	94	2
2026-02-12	14:58:26.650	1.19	-0.98	0.28	-0.060756	0.07076	1.146068	-0.4935	2.388	-1.0725	0	46	94	2
2026-02-12	14:58:26.670	13.195	-10.85	3.99	-0.060756	0.041236	0.9882	-0.489	2.385	-1.08	0	46	94	2
2026-02-12	14:58:26.690	14.98	-3.885	-1.26	-0.04392	0.015128	0.889624	-0.1485	2.0355	-0.996	0	46	94	2
2026-02-12	14:58:26.710	26.95	-3.255	-2.905	-0.083204	0.063928	0.9089	0.192	1.674	-0.9105	0	46	94	2
2026-02-12	14:58:26.730	39.445	-1.19	-6.65	-0.118584	0.103456	0.942084	0.186	1.6665	-0.909	0	46	94	2
2026-02-12	14:58:26.750	48.02	-2.03	-10.99	-0.11712	0.151036	0.989908	0.1815	1.662	-0.912	0	46	94	2
2026-02-12	14:58:26.770	54.985	-0.7	-15.96	-0.121756	0.200568	0.983564	0.186	1.656	-0.9165	0	46	94	2
2026-02-12	14:58:26.790	57.295	-2.695	-19.285	-0.076372	0.093452	1.097268	0.1875	1.6515	-0.9195	0	46	94	2
2026-02-12	14:58:26.810	45.535	-5.845	-18.585	0.033428	-0.073688	1.20902	0.183	1.6485	-0.9255	0	146	287	2
2026-02-12	14:58:26.830	25.235	-7.175	-13.58	0.06734399	-0.067588	1.147776	0.1815	1.6455	-0.927	0	146	287	2
2026-02-12	14:58:26.850	8.855	-5.88	-7.28	0.143472	0.006344	1.186084	0.1815	1.6455	-0.927	0	146	287	2
2026-02-12	14:58:26.870	-3.045	-2.205	-2.205	0.113704	0.047092	1.269532	0.1815	1.6455	-0.927	0	146	287	2
2026-02-12	14:58:26.890	-14.42	4.41	-1.785	-0.061244	-0.02928	1.101416	0.1815	1.6455	-0.927	0	146	287	2
2026-02-12	14:58:26.910	-24.745	-3.57	-6.65	0.0793	0.06954	1.089948	0.1875	1.6395	-0.93	0	146	287	2
2026-02-12	14:58:26.930	-22.995	-2.205	-15.295	0.102724	-0.03904	1.123132	0.1815	1.6305	-0.9315	0	146	287	2
2026-02-12	14:58:26.950	-14.875	-0.035	-18.865	0.096624	-0.078324	1.113372	0.177	1.644	-0.921	0	146	287	2
2026-02-12	14:58:26.970	-5.88	0.7	-19.53	0.066856	-0.068564	1.039684	0.189	1.6515	-0.921	0	146	287	2
2026-02-12	14:58:26.990	-0.07	-1.855	-18.725	0.046116	-0.036356	1.015772	0.174	1.6485	-0.927	0	146	287	2
2026-02-12	14:58:27.010	5.11	-0.35	-19.04	0.025864	0.009028	1.024312	0.165	1.6515	-0.9075	0	246	484	3
2026-02-12	14:58:27.030	13.615	8.925	-19.53	0.021228	0.050996	0.97722	0.171	1.6515	-0.906	0	246	484	3
2026-02-12	14:58:27.050	23.03	20.895	-19.495	0.0122	0.085156	0.938424	0.1755	1.6425	-0.924	0	246	484	3
2026-02-12	14:58:27.070	27.86	29.12	-19.355	0.007076	0.08686399	0.913048	0.1755	1.6425	-0.924	0	246	484	3
2026-02-12	14:58:27.090	27.475	29.365	-18.095	0.013908	0.079788	0.944768	0.1755	1.638	-0.924	0	246	484	3
2026-02-12	14:58:27.110	25.445	30.45	-16.73	0.015128	0.06832	0.985516	0.177	1.6335	-0.924	0	246	484	3
2026-02-12	14:58:27.130	19.915	30.66	-14.07	0.049776	0.031964	1.053104	0.1815	1.6365	-0.927	0	246	484	3
2026-02-12	14:58:27.150	13.37	30.66	-11.095	0.076372	-0.020252	1.074576	0.186	1.6365	-0.9255	0	246	484	3
2026-02-12	14:58:27.170	3.465	30.065	-6.3	0.058316	0.009028	1.034804	0.189	1.6365	-0.9285	0	246	484	3
2026-02-12	14:58:27.190	-6.195	26.915	-2.1	0.013664	0.066124	0.977952	0.1935	1.6395	-0.936	0	246	484	3
2026-02-12	14:58:27.210	-14.84	21	-0.14	-0.016836	0.115412	0.933544	0.1995	1.641	-0.933	0	318	637	1
2026-02-12	14:58:27.230	-20.23	14.84	0	-0.027816	0.129564	0.915976	0.204	1.6425	-0.927	0	318	637	1
2026-02-12	14:58:27.250	-20.545	10.815	-1.4	-0.04026	0.133224	0.919636	0.2085	1.6395	-0.921	0	318	637	1
2026-02-12	14:58:27.270	-16.975	9.555	-4.62	-0.076372	0.145912	0.912804	0.207	1.641	-0.9195	0	318	637	1
2026-02-12	14:58:27.290	-12.39	7.595	-8.96	-0.095648	0.142252	0.884012	0.207	1.644	-0.9195	0	318	637	1
2026-02-12	14:58:27.310	-8.855	2.87	-13.545	-0.10736	0.128832	0.871568	0.213	1.647	-0.915	0	318	637	1
2026-02-12	14:58:27.330	-7.035	-4.97	-17.22	-0.0854	0.091988	0.91378	0.2085	1.65	-0.9165	0	318	637	1
2026-02-12	14:58:27.350	-4.83	-10.745	-19.775	-0.065392	0.062464	0.936472	0.207	1.6545	-0.9195	0	318	637	1
2026-02-12	14:58:27.370	-1.575	-14.7	-20.79	-0.057584	0.040748	0.9699	0.207	1.6545	-0.915	0	318	637	1
2026-02-12	14:58:27.390	1.19	-18.305	-20.685	-0.055632	0.030744	0.99796	0.204	1.6515	-0.9165	0	318	637	1
2026-02-12	14:58:27.410	2.625	-21.28	-19.6	-0.072956	-0.002196	1.055788	0.1995	1.6545	-0.918	0	357	741	1
2026-02-12	14:58:27.430	3.36	-12.215	-14.455	-0.083448	-0.033184	1.05164	0.1965	1.653	-0.9135	0	357	741	1
2026-02-12	14:58:27.450	-1.505	-2.555	-6.37	-0.094916	-0.02806	0.9821	0.198	1.647	-0.912	0	357	741	1
2026-02-12	14:58:27.470	-12.355	-6.02	-0.385	-0.045872	-0.032696	1.002352	0.2055	1.6545	-0.918	0	357	741	1
2026-02-12	14:58:27.490	-17.885	-10.045	3.08	0.04636	-0.06344	1.093364	0.2025	1.6605	-0.918	0	357	741	1
2026-02-12	14:58:27.510	-13.475	-6.72	4.62	0.047092	-0.05002	1.064328	0.195	1.662	-0.912	0	357	741	1
2026-02-12	14:58:27.530	-6.125	-6.23	4.2	0.005856	-0.006344	0.998936	0.189	1.6635	-0.9105	0	357	741	1
2026-02-12	14:58:27.550	-1.575	-12.985	1.89	-0.008296	-0.012932	0.961848	0.183	1.6635	-0.9105	0	357	741	1
2026-02-12	14:58:27.570	-0.455	-21.805	-0.56	0.016104	-0.072712	1.03212	0.186	1.665	-0.912	0	357	741	1
2026-02-12	14:58:27.590	-1.925	-25.27	-1.61	0.058804	-0.145912	1.140212	0.183	1.6605	-0.9135	0	357	741	1
2026-02-12	14:58:27.610	-5.67	-22.05	-1.715	0.055144	-0.168848	1.155828	0.1815	1.659	-0.912	0	368	816	1
2026-02-12	14:58:27.630	-11.025	-18.095	-2.52	0.022448	-0.110532	1.08824	0.1815	1.662	-0.9075	0	368	816	1
2026-02-12	14:58:27.650	-14.105	-16.38	-4.55	0.005612	-0.040016	1.00894	0.18	1.665	-0.8985	0	368	816	1
2026-02-12	14:58:27.670	-12.6	-15.12	-6.125	0.022448	-0.017324	0.97356	0.1755	1.671	-0.9	0	368	816	1
2026-02-12	14:58:27.690	-7.63	-8.925	-4.83	0.04026	-0.029768	0.970632	0.1695	1.674	-0.9105	0	368	816	1
2026-02-12	14:58:27.710	-2.485	-3.535	-0.21	0.040748	-0.051728	0.985028	0.1695	1.668	-0.9135	0	368	816	1
2026-02-12	14:58:27.730	0.595	0.21	4.935	0.020496	-0.090036	1.019676	0.171	1.6635	-0.9075	0	368	816	1
2026-02-12	14:58:27.750	1.295	0.385	8.295	0.002196	-0.11712	1.045052	0.171	1.668	-0.9075	0	368	816	1
2026-02-12	14:58:27.770	0.315	0.98	8.82	-0.008052	-0.134688	1.056276	0.171	1.6695	-0.9075	0	368	816	1
2026-02-12	14:58:27.790	-2.205	-1.12	7.945	-0.005612	-0.127124	1.04188	0.174	1.665	-0.9075	0	368	816	1
2026-02-12	14:58:27.810	-5.215	-5.67	6.825	-0.019032	-0.09076799	1.006256	0.1695	1.6635	-0.9075	0	359	875	1
2026-02-12	14:58:27.830	-6.335	-11.025	5.215	-0.017324	-0.057828	0.979416	0.1725	1.6695	-0.9105	0	359	875	1
2026-02-12	14:58:27.850	-4.445	-14.735	3.325	-0.01952	-0.027572	0.953308	0.1755	1.6725	-0.9105	0	359	875	1
2026-02-12	14:58:27.870	-0.455	-15.75	1.505	-0.023424	-0.010736	0.939156	0.1725	1.6695	-0.9075	0	359	875	1
2026-02-12	14:58:27.890	3.64	-15.19	-0.21	-0.035136	0.000488	0.935008	0.171	1.674	-0.909	0	359	875	1
2026-02-12	14:58:27.910	6.475	-13.86	-1.715	-0.053436	0.011956	0.92232	0.168	1.677	-0.909	0	359	875	1
2026-02-12	14:58:27.930	7.245	-13.72	-2.87	-0.062708	0.006832	0.930372	0.1635	1.677	-0.9105	0	359	875	1
2026-02-12	14:58:27.950	6.79	-13.72	-3.5	-0.058804	0.003172	0.969168	0.1575	1.6725	-0.9105	0	359	875	1
2026-02-12	14:58:27.970	6.545	-12.25	-3.64	-0.055144	0.000244	0.99918	0.1575	1.668	-0.906	0	359	875	1
2026-02-12	14:58:27.990	6.65	-9.87	-3.92	-0.056852	0.006588	1.015528	0.1575	1.6695	-0.906	0	359	875	1
2026-02-12	14:58:28.010	5.705	-9.135	-4.27	-0.047336	-0.000732	1.036268	0.1545	1.665	-0.9105	0	336	916	1
2026-02-12	14:58:28.030	3.99	-8.295	-4.935	-0.030256	0.005612	1.046272	0.1575	1.662	-0.915	0	336	916	1
2026-02-12	14:58:28.050	2.45	-7.49	-5.46	-0.0183	0.012444	1.051396	0.159	1.665	-0.918	0	336	916	1
2026-02-12	14:58:28.070	2.205	-6.51	-6.265	-0.006588	0.024644	1.040416	0.1575	1.665	-0.9165	0	336	916	1
2026-02-12	14:58:28.090	2.905	-6.65	-7.735	0.004148	0.036112	1.037	0.1575	1.665	-0.915	0	336	916	1
2026-02-12	14:58:28.110	4.27	-7.42	-9.625	0.037576	0.028792	1.0553	0.159	1.665	-0.915	0	336	916	1
2026-02-12	14:58:28.130	6.545	-7.455	-12.04	0.064172	-0.00366	1.064084	0.159	1.665	-0.9135	0	336	916	1
2026-02-12	14:58:28.150	8.365	-7.42	-14.56	0.08295999	-0.03538	1.060912	0.159	1.665	-0.9135	0	336	916	1
2026-02-12	14:58:28.170	8.295	-7.385	-16.695	0.084912	-0.064172	1.054324	0.159	1.665	-0.9135	0	336	916	1
2026-02-12	14:58:28.190	7.455	-7.07	-17.57	0.083692	-0.076128	1.054812	0.159	1.665	-0.9135	0	336	916	1
2026-02-12	14:58:28.210	4.375	-5.32	-19.075	0.085156	-0.0854	1.064572	0.135	1.6665	-0.9105	0	305	948	1
2026-02-12	14:58:28.230	0.21	-3.08	-20.37	0.091012	-0.078324	1.073112	0.1455	1.665	-0.9015	0	305	948	1
2026-02-12	14:58:28.250	-4.445	-1.75	-21.49	0.115412	-0.063684	1.09068	0.1395	1.665	-0.903	0	305	948	1
2026-02-12	14:58:28.270	-8.82	-1.435	-22.225	0.158844	-0.056852	1.108492	0.15	1.6605	-0.915	0	305	948	1
2026-02-12	14:58:28.290	-12.46	-1.68	-22.4	0.187148	-0.0488	1.10044	0.1455	1.6605	-0.918	0	305	948	1
2026-02-12	14:58:28.310	-16.03	-2.835	-21.98	0.177876	-0.048556	1.079212	0.1365	1.6665	-0.912	0	305	948	1
2026-02-12	14:58:28.330	-19.495	-3.36	-21.63	0.143716	-0.040748	1.030656	0.1365	1.6665	-0.912	0	305	948	1
2026-02-12	14:58:28.350	-21.035	-0.665	-22.12	0.110288	-0.005368	0.97234	0.1365	1.6665	-0.912	0	305	948	1
2026-02-12	14:58:28.370	-19.565	5.635	-24.57	0.093208	0.013664	0.9272	0.138	1.6725	-0.912	0	305	948	1
2026-02-12	14:58:28.390	-15.61	9.905	-28.105	0.117852	0.009272	0.917196	0.1395	1.6755	-0.9105	0	305	948	1
2026-02-12	14:58:28.410	-10.08	12.215	-30.905	0.147132	-0.019032	0.925248	0.138	1.6785	-0.9015	0	274	976	1
2026-02-12	14:58:28.430	-4.62	13.44	-32.06	0.15372	-0.033916	0.945744	0.1335	1.6845	-0.8955	0	274	976	1
2026-02-12	14:58:28.450	-0.42	12.95	-31.29	0.152988	-0.064904	0.96868	0.1275	1.6845	-0.894	0	274	976	1
2026-02-12	14:58:28.470	1.715	11.9	-29.295	0.132736	-0.089792	0.992348	0.129	1.683	-0.894	0	274	976	1
2026-02-12	14:58:28.490	0.875	9.065	-27.405	0.123952	-0.08784	1.01016	0.132	1.6845	-0.891	0	274	976	1
2026-02-12	14:58:28.510	-1.61	5.075	-25.515	0.120292	-0.08052	1.008208	0.132	1.686	-0.891	0	274	976	1
2026-02-12	14:58:28.530	-3.185	2.17	-23.765	0.107848	-0.052948	0.9882	0.135	1.6845	-0.8925	0	274	976	1
2026-02-12	14:58:28.550	-2.87	1.05	-22.365	0.08906	-0.017812	0.960384	0.1365	1.6875	-0.8955	0	274	976	1
2026-02-12	14:58:28.570	-1.47	-0.07	-21.315	0.07905599	0.007564	0.947208	0.1365	1.683	-0.903	0	274	976	1
2026-02-12	14:58:28.590	0.245	-0.315	-20.475	0.07442	0.010248	0.953308	0.135	1.6815	-0.897	0	274	976	1
2026-02-12	14:58:28.610	1.68	0.245	-19.775	0.06222	0.0122	0.955748	0.1305	1.6875	-0.894	0	244	992	1
2026-02-12	14:58:28.630	2.38	1.96	-19.46	0.04758	0.013908	0.958432	0.141	1.6905	-0.8985	0	244	992	1
2026-02-12	14:58:28.650	2.205	3.64	-19.32	0.034892	0.022204	0.966972	0.138	1.692	-0.8955	0	244	992	1
2026-02-12	14:58:28.670	1.435	4.795	-18.62	0.039528	0.0122	0.9821	0.1185	1.6875	-0.888	0	244	992	1
2026-02-12	14:58:28.690	0.945	6.965	-17.255	0.038308	0.006344	0.992592	0.114	1.683	-0.8865	0	244	992	1
2026-02-12	14:58:28.710	0.84	8.785	-15.575	0.041236	-0.002196	1.006012	0.1185	1.68	-0.894	0	244	992	1
2026-02-12	14:58:28.730	1.015	9.8	-13.965	0.055144	-0.013176	1.026508	0.138	1.6785	-0.9015	0	244	992	1
2026-02-12	14:58:28.750	0.665	9.905	-12.46	0.058316	-0.041968	1.032852	0.138	1.6875	-0.894	0	244	992	1
2026-02-12	14:58:28.770	-1.33	6.93	-11.34	0.072712	-0.0793	1.05042	0.1275	1.692	-0.8865	0	244	992	1
2026-02-12	14:58:28.790	-3.955	3.885	-10.185	0.095404	-0.109312	1.058716	0.126	1.6845	-0.888	0	244	992	1
2026-02-12	14:58:28.810	-4.865	1.295	-8.925	0.09028	-0.103944	1.03944	0.126	1.6815	-0.8925	0	218	999	1
2026-02-12	14:58:28.830	-3.255	-1.365	-8.505	0.076128	-0.10126	1.015284	0.129	1.6905	-0.8925	0	218	999	1
2026-02-12	14:58:28.850	-0.735	-4.83	-8.82	0.087596	-0.132004	1.023092	0.1185	1.689	-0.885	0	218	999	1
2026-02-12	14:58:28.870	0.455	-8.365	-8.155	0.116144	-0.182756	1.064572	0.1185	1.6815	-0.882	0	218	999	1
2026-02-12	14:58:28.890	-1.295	-11.27	-6.44	0.1281	-0.227652	1.11264	0.1275	1.6875	-0.888	0	218	999	1
2026-02-12	14:58:28.910	-6.335	-14.315	-4.2	0.127124	-0.24156	1.140456	0.138	1.6875	-0.8985	0	218	999	1
2026-02-12	14:58:28.930	-12.985	-15.365	-2.415	0.106628	-0.213012	1.111664	0.1365	1.6845	-0.8985	0	218	999	1
2026-02-12	14:58:28.950	-17.675	-15.33	-0.945	0.075884	-0.157136	1.042124	0.1185	1.6875	-0.8865	0	218	999	1
2026-02-12	14:58:28.970	-18.025	-13.44	-0.28	0.055144	-0.122	0.970144	0.1065	1.692	-0.8805	0	218	999	1
2026-02-12	14:58:28.990	-14.105	-8.61	-0.28	0.034892	-0.110044	0.900116	0.102	1.695	-0.876	0	218	999	1
2026-02-12	14:58:29.010	-7.455	-5.53	-0.42	0.03538	-0.138836	0.902068	0.1005	1.692	-0.873	0	195	1008	1
2026-02-12	14:58:29.030	0.21	-1.015	-0.91	0.042456	-0.189344	0.927932	0.105	1.695	-0.873	0	195	1008	1
2026-02-12	14:58:29.050	5.915	1.05	-0.49	0.054412	-0.235948	0.950868	0.1035	1.6965	-0.873	0	195	1008	1
2026-02-12	14:58:29.070	7.98	0.35	1.4	0.066368	-0.268156	0.998692	0.102	1.6935	-0.8805	0	195	1008	1
2026-02-12	14:58:29.090	7.07	-2.8	3.99	0.064416	-0.25742	1.00772	0.111	1.689	-0.8895	0	195	1008	1
2026-02-12	14:58:29.110	4.55	-8.05	6.58	0.063196	-0.23546	0.986492	0.111	1.6875	-0.8865	0	195	1008	1
2026-02-12	14:58:29.130	3.045	-12.845	9.59	0.058072	-0.18178	0.98332	0.111	1.686	-0.879	0	195	1008	1
2026-02-12	14:58:29.150	4.095	-14.14	11.34	0.040016	-0.127124	0.96136	0.1125	1.6815	-0.8805	0	195	1008	1
2026-02-12	14:58:29.170	6.86	-13.44	11.83	0.011468	-0.082228	0.926956	0.108	1.68	-0.8865	0	195	1008	1
2026-02-12	14:58:29.190	9.66	-12.565	11.305	-0.011224	-0.049044	0.913048	0.108	1.6815	-0.891	0	195	1008	1
2026-02-12	14:58:29.210	11.935	-10.57	10.185	-0.022692	-0.041968	0.923052	0.108	1.6815	-0.891	0	178	1012	1
2026-02-12	14:58:29.230	13.3	-7.315	8.925	-0.024644	-0.046604	0.952576	0.102	1.671	-0.8925	0	178	1012	1
2026-02-12	14:58:29.250	13.335	-5.635	8.365	-0.026352	-0.048312	0.973804	0.102	1.671	-0.8925	0	178	1012	1
2026-02-12	14:58:29.270	12.11	-3.325	7.595	-0.027328	-0.057584	1.002352	0.0975	1.683	-0.8925	0	178	1012	1
2026-02-12	14:58:29.290	9.45	-1.295	7.14	-0.017812	-0.069296	1.034072	0.102	1.671	-0.894	0	178	1012	1
2026-02-12	14:58:29.310	5.74	-0.07	6.93	-0.009272	-0.07515199	1.057984	0.111	1.671	-0.8985	0	178	1012	1
2026-02-12	14:58:29.330	1.33	0.455	6.79	0.003172	-0.0854	1.068476	0.102	1.677	-0.8925	0	178	1012	1
2026-02-12	14:58:29.350	-3.08	0.56	6.3	0.017324	-0.086132	1.07116	0.102	1.665	-0.891	0	178	1012	1
2026-02-12	14:58:29.370	-6.615	0.63	5.46	0.025376	-0.08418	1.067256	0.1065	1.668	-0.9	0	178	1012	1
2026-02-12	14:58:29.390	-7.98	1.365	4.025	0.017812	-0.068808	1.041392	0.1005	1.665	-0.9015	0	178	1012	1
2026-02-12	14:58:29.410	-7.14	2.73	1.75	0.03294	-0.075396	1.044808	0.1065	1.6725	-0.897	0	164	1014	1
2026-02-12	14:58:29.430	-5.285	4.2	-0.385	0.056608	-0.0854	1.042856	0.1035	1.6725	-0.8955	0	164	1014	1
2026-02-12	14:58:29.450	-2.31	4.2	-1.75	0.07076	-0.094184	1.0248	0.117	1.6785	-0.9	0	164	1014	1
2026-02-12	14:58:29.470	1.82	5.005	-2.8	0.088328	-0.127368	1.042612	0.1065	1.68	-0.891	0	164	1014	1
2026-02-12	14:58:29.490	5.635	6.23	-3.71	0.09076799	-0.149084	1.065548	0.114	1.674	-0.8925	0	164	1014	1
2026-02-12	14:58:29.510	6.79	7.98	-4.725	0.087108	-0.15616	1.071648	0.111	1.6665	-0.891	0	164	1014	1
2026-02-12	14:58:29.530	4.55	8.33	-5.775	0.118584	-0.160308	1.090924	0.1125	1.674	-0.8925	0	164	1014	1
2026-02-12	14:58:29.550	-0.21	7.35	-6.615	0.17446	-0.172264	1.12606	0.1155	1.6725	-0.903	0	164	1014	1
2026-02-12	14:58:29.570	-5.845	5.46	-6.86	0.196176	-0.148108	1.121424	0.114	1.6695	-0.9	0	164	1014	1
2026-02-12	14:58:29.590	-9.975	4.62	-7.525	0.193492	-0.096868	1.054324	0.12	1.671	-0.8985	0	164	1014	1
2026-02-12	14:58:29.610	-11.27	2.8	-9.205	0.162016	-0.026596	0.987956	0.12	1.6695	-0.8925	0	153	1021	1
2026-02-12	14:58:29.630	-8.68	5.355	-12.355	0.120292	0.026352	0.918904	0.117	1.6665	-0.885	0	153	1021	1
2026-02-12	14:58:29.650	-3.325	8.925	-16.24	0.097844	0.034404	0.895236	0.1125	1.677	-0.8955	0	153	1021	1
2026-02-12	14:58:29.670	2.66	13.44	-20.3	0.102968	0.010736	0.902556	0.1215	1.6785	-0.903	0	153	1021	1
2026-02-12	14:58:29.690	7.14	15.575	-23.24	0.123708	-0.024644	0.929396	0.1095	1.671	-0.897	0	153	1021	1
2026-02-12	14:58:29.710	9.38	16.905	-24.045	0.134688	-0.062708	0.95282	0.105	1.6695	-0.888	0	153	1021	1
2026-02-12	14:58:29.730	8.155	16.765	-22.715	0.144936	-0.103456	0.991128	0.1125	1.6695	-0.8955	0	153	1021	1
2026-02-12	14:58:29.750	3.08	14.105	-20.055	0.14274	-0.126392	1.008208	0.111	1.677	-0.8925	0	153	1021	1
2026-02-12	14:58:29.770	-4.305	8.925	-17.01	0.13786	-0.115656	0.997472	0.114	1.665	-0.9015	0	153	1021	1
2026-02-12	14:58:29.790	-10.745	3.57	-14.14	0.120048	-0.087108	0.969168	0.114	1.665	-0.9015	0	153	1021	1
2026-02-12	14:58:29.810	-13.44	-0.105	-12.11	0.093696	-0.051728	0.93452	0.117	1.6725	-0.894	0	145	1025	1
2026-02-12	14:58:29.830	-12.775	-2.03	-11.305	0.065636	-0.011224	0.905972	0.117	1.6725	-0.894	0	145	1025	1
2026-02-12	14:58:29.850	-10.325	-3.22	-11.34	0.054168	-0.002196	0.891332	0.1155	1.668	-0.8925	0	145	1025	1
2026-02-12	14:58:29.870	-7.105	-3.64	-11.34	0.05002	-0.009028	0.92232	0.1095	1.671	-0.8895	0	145	1025	1
2026-02-12	14:58:29.890	-3.64	-1.575	-11.41	0.038308	-0.014884	0.930616	0.1095	1.677	-0.8895	0	145	1025	1
2026-02-12	14:58:29.910	-0.56	0.735	-11.55	0.034648	-0.021716	0.9455	0.1185	1.6755	-0.894	0	145	1025	1
2026-02-12	14:58:29.930	1.47	2.625	-11.165	0.04636	-0.043188	0.981856	0.117	1.6785	-0.891	0	145	1025	1
2026-02-12	14:58:29.950	2.52	3.36	-9.765	0.057096	-0.061244	1.003328	0.12	1.68	-0.894	0	145	1025	1
2026-02-12	14:58:29.970	3.745	3.71	-7.805	0.064904	-0.071004	1.017724	0.117	1.6785	-0.8925	0	145	1025	1
2026-02-12	14:58:29.990	5.39	3.535	-6.02	0.07905599	-0.103212	1.040904	0.111	1.677	-0.888	0	145	1025	1
2026-02-12	14:58:30.010	6.16	2.03	-4.375	0.08418	-0.136152	1.057496	0.1155	1.674	-0.891	0	138	1021	1
2026-02-12	14:58:30.030	5.565	-0.175	-3.01	0.095404	-0.162748	1.070672	0.1125	1.674	-0.891	0	138	1021	1
2026-02-12	14:58:30.050	4.165	-3.395	-1.505	0.104676	-0.16592	1.073844	0.1125	1.674	-0.894	0	138	1021	1
2026-02-12	14:58:30.070	3.465	-6.09	-0.35	0.097356	-0.139812	1.05774	0.111	1.6695	-0.894	0	138	1021	1
2026-02-12	14:58:30.090	4.795	-8.645	0	0.09272	-0.12078	1.039684	0.111	1.671	-0.8925	0	138	1021	1
2026-02-12	14:58:30.110	7.7	-9.345	-0.385	0.0976	-0.141276	1.046516	0.1185	1.671	-0.894	0	138	1021	1
2026-02-12	14:58:30.130	9.905	-9.485	-0.77	0.099064	-0.166652	1.064084	0.117	1.668	-0.897	0	138	1021	1
2026-02-12	14:58:30.150	9.1	-9.31	-0.875	0.099064	-0.197884	1.100928	0.108	1.6665	-0.894	0	138	1021	1
2026-02-12	14:58:30.170	5.215	-7.98	-0.665	0.0976	-0.205448	1.11996	0.114	1.668	-0.894	0	138	1021	1
2026-02-12	14:58:30.190	-0.21	-6.405	-0.525	0.106384	-0.170068	1.086288	0.12	1.6665	-0.894	0	138	1021	1
2026-02-12	14:58:30.210	-4.2	-5.32	-0.35	0.117852	-0.115168	1.031144	0.111	1.6665	-0.897	0	132	1021	1
2026-02-12	14:58:30.230	-4.13	-4.13	-0.42	0.107604	-0.081252	0.977708	0.114	1.6665	-0.8925	0	132	1021	1
2026-02-12	14:58:30.250	-0.105	-2.205	-1.4	0.093208	-0.079788	0.944524	0.123	1.662	-0.888	0	132	1021	1
2026-02-12	14:58:30.270	5.635	0.49	-2.24	0.080032	-0.115656	0.94672	0.123	1.662	-0.888	0	132	1021	1
2026-02-12	14:58:30.290	10.36	3.22	-2.205	0.057584	-0.15494	0.951844	0.1185	1.6695	-0.894	0	132	1021	1
2026-02-12	14:58:30.310	11.48	4.13	-1.82	0.044896	-0.16958	0.957212	0.1185	1.6695	-0.894	0	132	1021	1
2026-02-12	14:58:30.330	10.815	4.55	-0.175	0.048312	-0.206668	0.989664	0.1155	1.6695	-0.894	0	132	1021	1
2026-02-12	14:58:30.350	7.56	3.64	2.8	0.061244	-0.23058	1.010892	0.108	1.6635	-0.8955	0	132	1021	1
2026-02-12	14:58:30.370	3.535	1.995	6.405	0.065392	-0.210084	1.006744	0.1155	1.668	-0.8895	0	132	1021	1
2026-02-12	14:58:30.390	-0.14	-0.735	9.45	0.057828	-0.171532	0.991128	0.114	1.668	-0.885	0	132	1021	1
2026-02-12	14:58:30.410	-2.485	-3.78	11.27	0.04514	-0.123464	0.96746	0.1095	1.6635	-0.888	0	127	1024	1
2026-02-12	14:58:30.430	-2.345	-5.18	11.375	0.013664	-0.070272	0.937692	0.1215	1.6755	-0.9	0	127	1024	1
2026-02-12	14:58:30.450	-0.35	-5.005	9.905	-0.008296	-0.039284	0.907924	0.117	1.662	-0.9045	0	127	1024	1
2026-02-12	14:58:30.470	2.24	-5.285	7.525	-0.01464	-0.02196	0.905484	0.126	1.6605	-0.8985	0	127	1024	1
2026-02-12	14:58:30.490	4.935	-5.25	4.725	-0.010736	-0.032208	0.939888	0.1245	1.659	-0.9015	0	127	1024	1
2026-02-12	14:58:30.510	7.35	-3.99	1.715	-0.019032	-0.033184	0.957944	0.12	1.6605	-0.8955	0	127	1024	1
2026-02-12	14:58:30.530	8.68	-3.045	-1.12	-0.023912	-0.0366	0.981856	0.1185	1.6575	-0.903	0	127	1024	1
2026-02-12	14:58:30.550	8.75	-2.275	-3.535	-0.021228	-0.042944	1.00528	0.126	1.656	-0.906	0	127	1024	1
2026-02-12	14:58:30.570	8.155	-1.365	-5.425	-0.019032	-0.033184	1.010404	0.114	1.65	-0.897	0	127	1024	1
2026-02-12	14:58:30.590	7.07	-0.91	-7.175	-0.006832	-0.037576	1.02602	0.126	1.6575	-0.903	0	127	1024	1
2026-02-12	14:58:30.610	6.16	-0.56	-8.89	0	-0.027816	1.038708	0.126	1.6485	-0.9015	0	122	1022	1
2026-02-12	14:58:30.630	6.265	0.35	-10.745	0.010004	-0.016592	1.041148	0.1185	1.659	-0.903	0	122	1022	1
2026-02-12	14:58:30.650	7.98	1.085	-13.195	0.01098	0.008296	1.02602	0.123	1.653	-0.903	0	122	1022	1
2026-02-12	14:58:30.670	10.955	0.77	-16.17	0.040504	-0.011468	1.022848	0.117	1.6635	-0.909	0	122	1022	1
2026-02-12	14:58:30.690	13.965	-1.085	-18.865	0.077348	-0.051972	1.025532	0.126	1.6515	-0.909	0	122	1022	1
2026-02-12	14:58:30.710	15.855	-3.325	-20.44	0.08784	-0.086132	1.040416	0.12	1.65	-0.9105	0	122	1022	1
2026-02-12	14:58:30.730	16.45	-3.92	-21.735	0.071492	-0.108336	1.04554	0.114	1.653	-0.9135	0	122	1022	1
2026-02-12	14:58:30.750	14.21	-3.01	-22.96	0.077348	-0.125416	1.09068	0.1155	1.641	-0.915	0	122	1022	1
2026-02-12	14:58:30.770	8.925	-1.89	-23.17	0.0976	-0.1281	1.120692	0.117	1.644	-0.912	0	122	1022	1
2026-02-12	14:58:30.790	1.82	-0.805	-22.47	0.13176	-0.114192	1.129964	0.12	1.6395	-0.9195	0	122	1022	1
2026-02-12	14:58:30.810	-6.685	-1.085	-21.315	0.174948	-0.108336	1.130208	0.105	1.6455	-0.912	0	118	1024	1
2026-02-12	14:58:30.830	-15.4	-2.345	-19.845	0.201544	-0.10004	1.1041	0.1035	1.644	-0.9105	0	118	1024	1
2026-02-12	14:58:30.850	-20.86	-1.925	-18.55	0.180072	-0.05734	1.037976	0.111	1.644	-0.915	0	118	1024	1
2026-02-12	14:58:30.870	-21.245	1.33	-19.18	0.118828	-0.000488	0.94672	0.117	1.6515	-0.909	0	118	1024	1
2026-02-12	14:58:30.890	-17.745	5.32	-22.435	0.092232	0.030012	0.881816	0.0975	1.647	-0.9075	0	118	1024	1
2026-02-12	14:58:30.910	-12.25	7.245	-26.67	0.116876	-0.001708	0.889868	0.102	1.65	-0.912	0	118	1024	1
2026-02-12	14:58:30.930	-6.44	8.75	-29.295	0.155916	-0.05002	0.940864	0.1035	1.653	-0.9015	0	118	1024	1
2026-02-12	14:58:30.950	-1.715	9.835	-29.47	0.16714	-0.092476	0.964776	0.1005	1.6485	-0.912	0	118	1024	1
2026-02-12	14:58:30.970	0.385	9.765	-28.175	0.158112	-0.118584	0.979172	0.093	1.6635	-0.906	0	118	1024	1
2026-02-12	14:58:30.990	-0.735	7.07	-25.83	0.146156	-0.122976	0.978196	0.1035	1.659	-0.9045	0	118	1024	1
2026-02-12	14:58:31.010	-3.955	3.01	-23.1	0.145912	-0.11834	0.973804	0.102	1.656	-0.906	0	115	1027	1
2026-02-12	14:58:31.030	-6.755	0	-20.405	0.135176	-0.09467199	0.975512	0.093	1.6515	-0.9135	0	115	1027	1
2026-02-12	14:58:31.050	-7.385	-1.085	-18.34	0.109312	-0.066124	0.973316	0.0945	1.6545	-0.9105	0	115	1027	1
2026-02-12	14:58:31.070	-6.055	-0.245	-17.255	0.083936	-0.03172	0.960384	0.096	1.653	-0.897	0	115	1027	1
2026-02-12	14:58:31.090	-3.99	1.26	-16.94	0.063928	-0.022448	0.951356	0.099	1.6635	-0.903	0	115	1027	1
2026-02-12	14:58:31.110	-2.205	2.38	-16.625	0.058072	-0.014884	0.955504	0.0915	1.6515	-0.9015	0	115	1027	1
2026-02-12	14:58:31.130	-0.42	4.515	-16.065	0.055388	-0.01464	0.965508	0.0945	1.6575	-0.903	0	115	1027	1
2026-02-12	14:58:31.150	1.54	6.545	-15.225	0.051972	-0.007076	0.973804	0.0915	1.6575	-0.9015	0	115	1027	1
2026-02-12	14:58:31.170	3.465	8.26	-14.28	0.050996	-0.010492	0.982832	0.102	1.659	-0.9075	0	115	1027	1
2026-02-12	14:58:31.190	5.005	9.38	-12.985	0.043432	-0.011224	0.9882	0.096	1.6635	-0.9	0	115	1027	1
2026-02-12	14:58:31.210	6.09	9.975	-11.515	0.047336	-0.010736	0.988932	0.096	1.659	-0.9015	0	112	1025	1
2026-02-12	14:58:31.230	6.545	9.8	-10.08	0.05612	-0.02196	1.008208	0.096	1.659	-0.9015	0	112	1025	1
2026-02-12	14:58:31.250	6.79	9.275	-8.855	0.068076	-0.04514	1.024556	0.096	1.659	-0.9015	0	112	1025	1
2026-02-12	14:58:31.270	6.615	8.785	-7.98	0.066124	-0.078568	1.036512	0.096	1.656	-0.9	0	112	1025	1
2026-02-12	14:58:31.290	4.97	6.93	-7.035	0.070272	-0.110288	1.029924	0.0975	1.6515	-0.903	0	112	1025	1
2026-02-12	14:58:31.310	2.625	4.305	-5.74	0.074664	-0.121756	1.018212	0.1005	1.65	-0.9075	0	112	1025	1
2026-02-12	14:58:31.330	1.155	1.015	-4.41	0.076372	-0.113216	1.008208	0.099	1.656	-0.906	0	112	1025	1
2026-02-12	14:58:31.350	1.645	-2.065	-3.57	0.081496	-0.107848	1.00528	0.099	1.653	-0.903	0	112	1025	1
2026-02-12	14:58:31.370	2.415	-3.465	-3.29	0.08906	-0.119804	1.015528	0.099	1.653	-0.903	0	112	1025	1
2026-02-12	14:58:31.390	3.43	-5.635	-2.45	0.108336	-0.16836	1.0492	0.0975	1.653	-0.9105	0	112	1025	1
2026-02-12	14:58:31.410	0.98	-8.33	-0.735	0.135176	-0.218136	1.10898	0.099	1.6485	-0.9045	0	109	1023	1
2026-02-12	14:58:31.430	-5.88	-10.85	1.435	0.140056	-0.24644	1.142652	0.099	1.6455	-0.9165	0	109	1023	1
2026-02-12	14:58:31.450	-14.98	-12.775	3.5	0.116144	-0.19642	1.114836	0.0975	1.653	-0.9	0	109	1023	1
2026-02-12	14:58:31.470	-21.91	-12.81	4.375	0.087352	-0.120048	1.049932	0.1125	1.6575	-0.9105	0	109	1023	1
2026-02-12	14:58:31.490	-23.065	-11.41	3.745	0.071004	-0.07515199	0.977708	0.099	1.656	-0.9015	0	109	1023	1
2026-02-12	14:58:31.510	-18.515	-6.09	1.435	0.063684	-0.071004	0.945256	0.0945	1.6605	-0.912	0	109	1023	1
2026-02-12	14:58:31.530	-10.64	-1.61	-1.19	0.06588	-0.120048	0.94672	0.093	1.656	-0.903	0	109	1023	1
2026-02-12	14:58:31.550	-2.94	2.38	-3.01	0.065148	-0.179828	0.969656	0.09	1.662	-0.894	0	109	1023	1
2026-02-12	14:58:31.570	1.82	3.535	-3.045	0.062952	-0.221552	0.987712	0.0915	1.665	-0.894	0	109	1023	1
2026-02-12	14:58:31.590	3.325	2.45	-1.155	0.082472	-0.251808	1.003328	0.0915	1.6635	-0.897	0	109	1023	1
2026-02-12	14:58:31.610	2.905	-1.33	2.31	0.089304	-0.247416	1.003816	0.09	1.659	-0.897	0	106	1025	1
2026-02-12	14:58:31.630	2.835	-5.635	5.985	0.085156	-0.206912	0.992348	0.0795	1.662	-0.894	0	106	1025	1
2026-02-12	14:58:31.650	4.76	-8.015	8.47	0.055388	-0.153964	0.969168	0.0885	1.6635	-0.8985	0	106	1025	1
2026-02-12	14:58:31.670	8.12	-8.015	9.135	0.02318	-0.09272	0.937692	0.0885	1.656	-0.9045	0	106	1025	1
2026-02-12	14:58:31.690	11.305	-6.72	8.47	0.010248	-0.051728	0.918416	0.0855	1.662	-0.909	0	106	1025	1
2026-02-12	14:58:31.710	14.035	-5.915	7.245	0.00488	-0.024644	0.925492	0.0885	1.659	-0.891	0	106	1025	1
2026-02-12	14:58:31.730	16.205	-4.34	5.25	0.004636	-0.015616	0.94916	0.093	1.665	-0.897	0	106	1025	1
2026-02-12	14:58:31.750	17.29	-2.52	2.8	0.006344	-0.018056	0.97722	0.093	1.659	-0.9015	0	106	1025	1
2026-02-12	14:58:31.770	16.73	-0.7	0.28	0.005856	-0.031476	1.009672	0.0915	1.653	-0.8835	0	106	1025	1
2026-02-12	14:58:31.790	14	0.525	-1.96	0.013176	-0.034648	1.035292	0.0975	1.6545	-0.909	0	106	1025	1
2026-02-12	14:58:31.810	9.59	1.19	-3.85	0.026108	-0.04514	1.051396	0.102	1.644	-0.912	0	104	1025	1
2026-02-12	14:58:31.830	4.76	1.68	-5.635	0.034404	-0.041724	1.04554	0.0825	1.6485	-0.912	0	104	1025	1
2026-02-12	14:58:31.850	1.295	1.925	-7.595	0.033672	-0.01708	1.03212	0.093	1.641	-0.9075	0	104	1025	1
2026-02-12	14:58:31.870	0.77	2.24	-10.43	0.032208	0.013908	1.015284	0.0945	1.638	-0.909	0	104	1025	1
2026-02-12	14:58:31.890	3.29	2.275	-14.14	0.046604	0.011468	1.009184	0.0915	1.6485	-0.9045	0	104	1025	1
2026-02-12	14:58:31.910	7.49	1.575	-17.57	0.078568	-0.013908	0.998692	0.0975	1.638	-0.906	0	104	1025	1
2026-02-12	14:58:31.930	11.235	0.21	-19.74	0.109068	-0.068076	1.009428	0.0915	1.6455	-0.909	0	104	1025	1
2026-02-12	14:58:31.950	13.405	-0.77	-20.79	0.09076799	-0.099796	1.017724	0.0885	1.6455	-0.9165	0	104	1025	1
2026-02-12	14:58:31.970	12.39	0.7	-21.77	0.07515199	-0.138592	1.061644	0.0885	1.638	-0.9165	0	104	1025	1
2026-02-12	14:58:31.990	7.245	3.5	-21.77	0.078568	-0.153232	1.106784	0.0855	1.638	-0.909	0	104	1025	1
2026-02-12	14:58:32.010	-0.245	6.51	-20.86	0.10248	-0.13664	1.140456	0.081	1.6455	-0.9045	0	102	1026	1
2026-02-12	14:58:32.030	-7.7	8.645	-19.53	0.123952	-0.119316	1.151924	0.084	1.6455	-0.8985	0	102	1026	1
2026-02-12	14:58:32.050	-14.21	8.05	-18.34	0.166652	-0.108336	1.098732	0.084	1.6365	-0.897	0	102	1026	1
2026-02-12	14:58:32.070	-18.48	5.74	-17.395	0.170312	-0.071492	1.056276	0.0915	1.6395	-0.9105	0	102	1026	1
2026-02-12	14:58:32.090	-19.18	4.13	-17.85	0.143472	-0.036356	0.996008	0.1065	1.6425	-0.906	0	102	1026	1
2026-02-12	14:58:32.110	-15.505	5.495	-20.3	0.096624	0.014152	0.923052	0.096	1.6425	-0.9045	0	102	1026	1
2026-02-12	14:58:32.130	-9.485	7.21	-24.255	0.081008	0.02318	0.891576	0.1155	1.644	-0.903	0	102	1026	1
2026-02-12	14:58:32.150	-4.655	5.67	-27.58	0.116144	-0.029524	0.963068	0.0915	1.644	-0.8955	0	102	1026	1
2026-02-12	14:58:32.170	-1.645	8.225	-27.965	0.143716	-0.079544	1.037732	0.0885	1.656	-0.912	0	102	1026	1
2026-02-12	14:58:32.190	-1.33	11.235	-25.27	0.158112	-0.111508	1.031632	0.0915	1.647	-0.909	0	102	1026	1
2026-02-12	14:58:32.210	-4.62	13.475	-20.86	0.14518	-0.12688	1.008696	0.0975	1.647	-0.906	0	101	1030	1
2026-02-12	14:58:32.230	-10.15	12.46	-16.87	0.121756	-0.106872	0.9699	0.093	1.65	-0.9135	0	101	1030	1
2026-02-12	14:58:32.250	-14.14	8.82	-15.47	0.107848	-0.083692	0.953796	0.099	1.6485	-0.9045	0	101	1030	1
2026-02-12	14:58:32.270	-14.385	6.44	-15.61	0.09028	-0.060512	0.93574	0.1005	1.653	-0.9015	0	101	1030	1
2026-02-12	14:58:32.290	-10.57	5.53	-16.52	0.071736	-0.019276	0.91866	0.1005	1.6485	-0.903	0	101	1030	1
2026-02-12	14:58:32.310	-4.48	5.705	-17.955	0.044896	0.01342	0.903776	0.096	1.662	-0.906	0	101	1030	1
2026-02-12	14:58:32.330	1.645	4.935	-19.18	0.040504	0.014396	0.912804	0.0945	1.6665	-0.9045	0	101	1030	1
2026-02-12	14:58:32.350	6.405	5.635	-19.845	0.047092	0.002684	0.94062	0.0975	1.6635	-0.9075	0	101	1030	1
2026-02-12	14:58:32.370	8.855	6.23	-19.74	0.047824	-0.011712	0.96624	0.087	1.647	-0.8925	0	101	1030	1
2026-02-12	14:58:32.390	9.03	6.3	-18.97	0.049288	-0.0244	0.995032	0.087	1.647	-0.8925	0	101	1030	1
2026-02-12	14:58:32.410	7.945	6.16	-17.57	0.056852	-0.037332	1.009184	0.093	1.6515	-0.897	0	100	1028	1
2026-02-12	14:58:32.430	7.14	5.81	-16.625	0.055876	-0.038796	1.01382	0.099	1.656	-0.9015	0	100	1028	1
2026-02-12	14:58:32.450	5.39	4.795	-14.525	0.061976	-0.056608	1.030412	0.0975	1.653	-0.906	0	100	1028	1
2026-02-12	14:58:32.470	3.815	3.745	-12.355	0.066612	-0.068808	1.03334	0.093	1.653	-0.906	0	100	1028	1
2026-02-12	14:58:32.490	3.045	3.045	-10.22	0.065148	-0.083204	1.03822	0.0945	1.6515	-0.906	0	100	1028	1
2026-02-12	14:58:32.510	2.8	2.73	-8.19	0.061488	-0.11468	1.041148	0.102	1.65	-0.906	0	100	1028	1
2026-02-12	14:58:32.530	2.205	2.415	-5.915	0.072956	-0.155428	1.040172	0.099	1.656	-0.903	0	100	1028	1
2026-02-12	14:58:32.550	0.945	1.54	-2.905	0.074664	-0.170068	1.028704	0.093	1.65	-0.903	0	100	1028	1
2026-02-12	14:58:32.570	-0.07	0.14	0.455	0.072224	-0.173484	1.016992	0.0885	1.6485	-0.9	0	100	1028	1
2026-02-12	14:58:32.590	0.455	-0.385	3.745	0.073688	-0.186904	1.023092	0.09	1.653	-0.897	0	100	1028	1
2026-02-12	14:58:32.610	1.47	-0.665	6.335	0.076372	-0.195688	1.036024	0.0945	1.656	-0.894	0	99	1026	1
2026-02-12	14:58:32.630	0.665	-2.1	8.015	0.080032	-0.198372	1.044808	0.0975	1.6575	-0.9	0	99	1026	1
2026-02-12	14:58:32.650	-2.52	-4.655	8.855	0.087352	-0.199348	1.067256	0.1125	1.65	-0.906	0	99	1026	1
2026-02-12	14:58:32.670	-7.28	-8.295	8.82	0.087108	-0.187636	1.059448	0.1245	1.6455	-0.906	0	99	1026	1
2026-02-12	14:58:32.690	-11.165	-11.725	7.77	0.07808	-0.144204	1.01992	0.1245	1.6455	-0.906	0	99	1026	1
2026-02-12	14:58:32.710	-11.83	-14.63	6.02	0.0671	-0.105164	0.972828	0.1245	1.6455	-0.906	0	99	1026	1
2026-02-12	14:58:32.730	-8.12	-15.12	4.235	0.045384	-0.089548	0.93452	0.0885	1.659	-0.8955	0	99	1026	1
2026-02-12	14:58:32.750	-1.96	-13.44	3.08	0.03416	-0.108092	0.913536	0.093	1.6635	-0.9015	0	99	1026	1
2026-02-12	14:58:32.770	3.745	-11.2	2.835	0.010736	-0.140544	0.92964	0.1095	1.659	-0.8955	0	99	1026	1
2026-02-12	14:58:32.790	6.79	-9.17	2.835	0.001464	-0.17812	0.959164	0.1065	1.659	-0.9	0	99	1026	1
2026-02-12	14:58:32.810	6.405	-7.84	3.01	0.017324	-0.219844	1.0248	0.084	1.6605	-0.9015	0	97	1026	1
2026-02-12	14:58:32.830	3.325	-7.49	3.99	0.04636	-0.246684	1.058716	0.0855	1.6575	-0.897	0	97	1026	1
2026-02-12	14:58:32.850	-1.365	-8.505	6.335	0.045384	-0.228628	1.042368	0.0795	1.6605	-0.888	0	97	1026	1
2026-02-12	14:58:32.870	-5.705	-10.22	9.66	0.028548	-0.176168	1.003084	0.0945	1.668	-0.9	0	97	1026	1
2026-02-12	14:58:32.890	-7.21	-11.165	12.46	0.007564	-0.117608	0.958676	0.081	1.665	-0.9045	0	97	1026	1
2026-02-12	14:58:32.910	-5.215	-10.36	13.755	-0.01586	-0.063196	0.918904	0.072	1.665	-0.8955	0	97	1026	1
2026-02-12	14:58:32.930	-1.61	-9.205	13.125	-0.020252	-0.039528	0.913048	0.069	1.6665	-0.8895	0	97	1026	1
2026-02-12	14:58:32.950	2.345	-7.98	11.445	-0.013664	-0.035136	0.94062	0.0735	1.6665	-0.8925	0	97	1026	1
2026-02-12	14:58:32.970	6.02	-5.635	9.205	-0.020252	-0.035624	0.989176	0.072	1.6635	-0.894	0	97	1026	1
2026-02-12	14:58:32.990	8.155	-3.675	6.37	-0.032696	-0.038552	1.009916	0.072	1.6605	-0.9	0	97	1026	1
2026-02-12	14:58:33.010	8.19	-2.8	3.29	-0.023424	-0.05368	1.044564	0.078	1.662	-0.8955	0	96	1024	1
2026-02-12	14:58:33.030	7.105	-1.785	0.63	-0.006344	-0.069052	1.071648	0.0765	1.653	-0.897	0	96	1024	1
2026-02-12	14:58:33.050	5.67	-0.56	-1.82	0.002196	-0.077836	1.077748	0.0765	1.6635	-0.8985	0	96	1024	1
2026-02-12	14:58:33.070	4.585	0.105	-4.305	0.00732	-0.06222	1.0553	0.072	1.6635	-0.8895	0	96	1024	1
2026-02-12	14:58:33.090	5.53	0.28	-7.315	0.016348	-0.040504	1.032608	0.0735	1.665	-0.9015	0	96	1024	1
2026-02-12	14:58:33.110	9.1	0.245	-10.92	0.0488	-0.037576	1.022604	0.075	1.6665	-0.879	0	96	1024	1
2026-02-12	14:58:33.130	13.86	-0.735	-14.42	0.085156	-0.071492	1.030168	0.072	1.6635	-0.894	0	96	1024	1
2026-02-12	14:58:33.150	17.92	-2.905	-17.185	0.102968	-0.108336	1.036024	0.066	1.656	-0.8835	0	96	1024	1
2026-02-12	14:58:33.170	20.335	-4.34	-19.565	0.110776	-0.145912	1.051884	0.069	1.6515	-0.9	0	96	1024	1
2026-02-12	14:58:33.190	20.3	-3.71	-21	0.11468	-0.182024	1.08824	0.0615	1.656	-0.903	0	96	1024	1
2026-02-12	14:58:33.210	16.17	-0.735	-21.14	0.119316	-0.20252	1.121424	0.0705	1.644	-0.8985	0	96	1026	1
2026-02-12	14:58:33.230	7.945	1.085	-19.88	0.118584	-0.192028	1.13216	0.063	1.6545	-0.9075	0	96	1026	1
2026-02-12	14:58:33.250	-2.24	2.38	-18.83	0.141032	-0.164456	1.134844	0.0615	1.65	-0.9015	0	96	1026	1
2026-02-12	14:58:33.270	-12.425	2.66	-18.2	0.171044	-0.146644	1.109468	0.063	1.65	-0.897	0	96	1026	1
2026-02-12	14:58:33.290	-19.95	2.275	-17.5	0.187148	-0.108336	1.043588	0.0555	1.6545	-0.906	0	96	1026	1
2026-02-12	14:58:33.310	-21.665	4.515	-16.87	0.161528	-0.053924	0.958188	0.0675	1.653	-0.8985	0	96	1026	1
2026-02-12	14:58:33.330	-17.78	8.505	-17.465	0.125172	-0.010248	0.868396	0.048	1.6575	-0.897	0	96	1026	1
2026-02-12	14:58:33.350	-11.655	10.78	-19.705	0.116876	-0.011956	0.866932	0.0495	1.6515	-0.903	0	96	1026	1
2026-02-12	14:58:33.370	-5.6	12.425	-22.54	0.131272	-0.058316	0.893772	0.06	1.6515	-0.8985	0	96	1026	1
2026-02-12	14:58:33.390	-2.1	12.915	-24.43	0.149572	-0.108824	0.938668	0.051	1.662	-0.8985	0	96	1026	1
2026-02-12	14:58:33.410	-1.715	12.32	-24.29	0.153964	-0.147864	0.968192	0.057	1.6605	-0.8955	0	96	1031	1
2026-02-12	14:58:33.430	-3.325	12.39	-22.33	0.141276	-0.152988	0.996252	0.0645	1.6575	-0.897	0	96	1031	1
2026-02-12	14:58:33.450	-6.09	11.69	-19.565	0.113948	-0.130296	0.978928	0.063	1.656	-0.897	0	96	1031	1
2026-02-12	14:58:33.470	-8.715	10.185	-17.29	0.089548	-0.090036	0.94672	0.06	1.6575	-0.8955	0	96	1031	1
2026-02-12	14:58:33.490	-9.31	9.24	-16.485	0.073932	-0.07124799	0.93208	0.057	1.659	-0.8955	0	96	1031	1
2026-02-12	14:58:33.510	-8.33	8.085	-15.715	0.055876	-0.03782	0.923784	0.054	1.659	-0.8955	0	96	1031	1
2026-02-12	14:58:33.530	-5.145	7.875	-15.225	0.047336	-0.01464	0.930372	0.054	1.662	-0.897	0	96	1031	1
2026-02-12	14:58:33.550	-1.435	8.26	-14.28	0.050508	-0.02318	0.949404	0.057	1.662	-0.897	0	96	1031	1
2026-02-12	14:58:33.570	1.365	9.38	-12.88	0.040504	-0.035868	0.972828	0.0615	1.659	-0.8955	0	96	1031	1
2026-02-12	14:58:33.590	2.765	9.765	-11.515	0.0244	-0.03904	0.974536	0.0615	1.659	-0.9015	0	96	1031	1
2026-02-12	14:58:33.610	3.325	9.59	-9.87	0.025376	-0.045628	0.980148	0.06	1.659	-0.909	0	96	1028	1
2026-02-12	14:58:33.630	3.57	9.31	-8.68	0.024888	-0.0549	0.985516	0.057	1.6605	-0.906	0	96	1028	1
2026-02-12	14:58:33.650	4.165	8.33	-6.86	0.028548	-0.060268	0.987956	0.0555	1.662	-0.897	0	96	1028	1
2026-02-12	14:58:33.670	5.215	6.51	-4.76	0.044164	-0.0732	0.999912	0.0615	1.662	-0.894	0	96	1028	1
2026-02-12	14:58:33.690	6.86	4.025	-2.695	0.04026	-0.089304	1.015528	0.06	1.6635	-0.9045	0	96	1028	1
2026-02-12	14:58:33.710	8.435	1.925	-1.295	0.049288	-0.127368	1.04676	0.0555	1.6605	-0.9045	0	96	1028	1
2026-02-12	14:58:33.730	9.065	0.315	-0.07	0.051728	-0.167872	1.057252	0.057	1.659	-0.8955	0	96	1028	1
2026-02-12	14:58:33.750	8.61	-0.525	1.155	0.044164	-0.170556	1.042124	0.0555	1.6545	-0.8955	0	96	1028	1
2026-02-12	14:58:33.770	7.455	-2.52	2.1	0.045872	-0.158112	1.025044	0.063	1.6515	-0.8985	0	96	1028	1
2026-02-12	14:58:33.790	7.21	-5.705	3.255	0.067832	-0.15494	1.017968	0.066	1.6575	-0.897	0	96	1028	1
2026-02-12	14:58:33.810	8.61	-8.05	4.76	0.09638	-0.180072	1.03944	0.057	1.6575	-0.8955	0	97	1023	1
2026-02-12	14:58:33.830	10.36	-9.59	6.51	0.107116	-0.19032	1.05286	0.0555	1.6545	-0.9	0	97	1023	1
2026-02-12	14:58:33.850	10.22	-10.745	8.26	0.115412	-0.205204	1.082628	0.06	1.653	-0.9015	0	97	1023	1
2026-02-12	14:58:33.870	5.915	-13.265	10.15	0.098088	-0.208864	1.0797	0.0615	1.6515	-0.8955	0	97	1023	1
2026-02-12	14:58:33.890	-1.995	-17.045	12.285	0.075884	-0.179828	1.05774	0.057	1.6515	-0.8955	0	97	1023	1
2026-02-12	14:58:33.910	-8.19	-18.55	14.665	0.059048	-0.147376	1.023824	0.0585	1.653	-0.8985	0	97	1023	1
2026-02-12	14:58:33.930	-9.205	-15.05	15.82	0.055144	-0.12322	0.979416	0.06	1.656	-0.897	0	97	1023	1
2026-02-12	14:58:33.950	-6.37	-9.59	14.665	0.051972	-0.129808	0.95282	0.048	1.653	-0.8895	0	97	1023	1
2026-02-12	14:58:33.970	-2.73	-5.915	11.865	0.069784	-0.162504	0.948184	0.048	1.65	-0.888	0	97	1023	1
2026-02-12	14:58:33.990	-0.735	-4.34	9.205	0.08052	-0.200568	0.95038	0.0555	1.6545	-0.894	0	97	1023	1
2026-02-12	14:58:34.010	-0.875	-4.935	8.575	0.10614	-0.230824	0.961848	0.051	1.662	-0.891	0	96	1023	1
2026-02-12	14:58:34.030	-1.33	-5.74	10.43	0.110532	-0.215452	0.960628	0.045	1.665	-0.888	0	96	1023	1
2026-02-12	14:58:34.050	-1.295	-9.275	13.37	0.101016	-0.18178	0.969168	0.0495	1.662	-0.891	0	96	1023	1
2026-02-12	14:58:34.070	1.505	-11.585	15.26	0.080032	-0.14274	0.964532	0.051	1.6575	-0.891	0	96	1023	1
2026-02-12	14:58:34.090	6.79	-13.37	15.505	0.037576	-0.088084	0.938668	0.0465	1.6545	-0.8895	0	96	1023	1
2026-02-12	14:58:34.110	12.915	-13.195	14.21	0.010004	-0.043432	0.92598	0.045	1.656	-0.891	0	96	1023	1
2026-02-12	14:58:34.130	18.515	-11.025	12.46	-0.008052	-0.013908	0.92232	0.045	1.656	-0.891	0	96	1023	1
2026-02-12	14:58:34.150	22.12	-6.195	10.57	-0.003172	0.004636	0.914268	0.045	1.656	-0.891	0	96	1023	1
2026-02-12	14:58:34.170	22.645	-4.27	8.89	0.014152	0.003416	0.957944	0.045	1.656	-0.891	0	96	1023	1
2026-02-12	14:58:34.190	21.525	-1.365	6.51	0.0183	0.004392	1.018944	0.054	1.65	-0.8955	0	96	1023	1
2026-02-12	14:58:34.210	19.46	2.24	3.64	0.019276	-0.004392	1.056276	0.0465	1.65	-0.897	0	96	1021	1
2026-02-12	14:58:34.230	15.015	5.355	1.4	0.007808	-0.008296	1.075796	0.051	1.647	-0.9105	0	96	1021	1
2026-02-12	14:58:34.250	8.225	6.93	0.245	-0.002684	-0.010736	1.077992	0.0525	1.65	-0.8865	0	96	1021	1
2026-02-12	14:58:34.270	1.155	7.805	-0.455	-0.019764	-0.008784	1.075064	0.0615	1.647	-0.9	0	96	1021	1
2026-02-12	14:58:34.290	-4.2	8.785	-1.54	-0.017324	-0.003172	1.077016	0.0615	1.647	-0.897	0	96	1021	1
2026-02-12	14:58:34.310	-6.545	9.625	-3.255	-0.008784	0.011956	1.067256	0.0585	1.644	-0.8955	0	96	1021	1
2026-02-12	14:58:34.330	-5.25	10.045	-5.32	0.011224	-0.001464	1.058228	0.0585	1.6545	-0.9	0	96	1021	1
2026-02-12	14:58:34.350	-1.96	9.135	-7.525	0.047092	-0.055632	1.056764	0.054	1.65	-0.888	0	96	1021	1
2026-02-12	14:58:34.370	1.155	6.825	-9.205	0.058072	-0.086376	1.035048	0.0585	1.656	-0.903	0	96	1021	1
2026-02-12	14:58:34.390	3.745	4.235	-10.745	0.051972	-0.12078	1.015772	0.0525	1.653	-0.894	0	96	1021	1
2026-02-12	14:58:34.410	5.46	1.68	-12.635	0.060024	-0.129564	1.01504	0.0555	1.647	-0.8925	0	95	1023	1
2026-02-12	14:58:34.430	6.44	-0.56	-14.385	0.074176	-0.126392	1.038464	0.0555	1.6545	-0.906	0	95	1023	1
2026-02-12	14:58:34.450	6.86	-3.535	-15.015	0.110532	-0.122732	1.077992	0.0585	1.659	-0.8805	0	95	1023	1
2026-02-12	14:58:34.470	5.985	-6.02	-14.84	0.139324	-0.132248	1.1102	0.0525	1.647	-0.8895	0	95	1023	1
2026-02-12	14:58:34.490	2.31	-8.435	-13.72	0.151036	-0.122488	1.10776	0.06	1.656	-0.8925	0	95	1023	1
2026-02-12	14:58:34.510	-4.235	-9.8	-11.41	0.14274	-0.098088	1.058716	0.06	1.656	-0.8925	0	95	1023	1
2026-02-12	14:58:34.530	-10.57	-9.94	-9.555	0.119072	-0.052704	0.994544	0.0495	1.65	-0.8985	0	95	1023	1
2026-02-12	14:58:34.550	-12.215	-8.435	-9.625	0.110532	-0.025376	0.964532	0.0405	1.6455	-0.9045	0	95	1023	1
2026-02-12	14:58:34.570	-11.41	-4.165	-11.9	0.109556	-0.005612	0.91866	0.0405	1.65	-0.8985	0	95	1023	1
2026-02-12	14:58:34.590	-7.455	-1.33	-15.4	0.130052	-0.01464	0.91012	0.033	1.6545	-0.897	0	95	1023	1
2026-02-12	14:58:34.610	-3.92	-0.525	-17.57	0.144448	-0.045628	0.953308	0.033	1.6545	-0.9015	0	95	1029	1
2026-02-12	14:58:34.630	-2.38	0.385	-17.43	0.149328	-0.07808	0.978684	0.039	1.6575	-0.8985	0	95	1029	1
2026-02-12	14:58:34.650	-2.415	3.045	-15.4	0.135908	-0.0915	0.977464	0.039	1.656	-0.9	0	95	1029	1
2026-02-12	14:58:34.670	-3.325	5.32	-12.495	0.103944	-0.07198	0.96136	0.039	1.65	-0.9	0	95	1029	1
2026-02-12	14:58:34.690	-5.285	5.215	-10.325	0.07564	-0.034404	0.935496	0.033	1.6515	-0.8985	0	95	1029	1
2026-02-12	14:58:34.710	-5.39	4.41	-10.115	0.078812	0.006832	0.937204	0.03	1.6575	-0.8985	0	95	1029	1
2026-02-12	14:58:34.730	-2.695	5.04	-11.34	0.072956	0.033916	0.938668	0.033	1.659	-0.8955	0	95	1029	1
2026-02-12	14:58:34.750	1.295	7.63	-12.74	0.064416	0.044896	0.932812	0.039	1.6575	-0.894	0	95	1029	1
2026-02-12	14:58:34.770	3.99	8.645	-12.74	0.067588	0.045384	0.939888	0.039	1.6575	-0.897	0	95	1029	1
2026-02-12	14:58:34.790	4.725	9.275	-11.585	0.060024	0.041236	0.952332	0.0315	1.656	-0.894	0	95	1029	1
2026-02-12	14:58:34.810	4.34	8.225	-10.29	0.06222	0.025132	0.961116	0.03	1.653	-0.894	0	95	1027	1
2026-02-12	14:58:34.830	4.165	6.3	-9.275	0.06954	0.011224	0.987712	0.033	1.6545	-0.897	0	95	1027	1
2026-02-12	14:58:34.850	4.725	4.375	-7.91	0.072956	-0.010492	1.009184	0.042	1.656	-0.8985	0	95	1027	1
2026-02-12	14:58:34.870	5.355	2.415	-5.845	0.069296	-0.026352	1.018456	0.0465	1.656	-0.9015	0	95	1027	1
2026-02-12	14:58:34.890	5.145	-0.56	-3.08	0.06466	-0.044164	1.020164	0.039	1.6545	-0.9015	0	95	1027	1
2026-02-12	14:58:34.910	4.83	-3.92	0.035	0.054656	-0.072224	1.040172	0.0345	1.6545	-0.9075	0	95	1027	1
2026-02-12	14:58:34.930	4.305	-6.265	2.975	0.049532	-0.114924	1.064816	0.03	1.653	-0.903	0	95	1027	1
2026-02-12	14:58:34.950	2.73	-7.665	6.335	0.0732	-0.159576	1.077016	0.033	1.65	-0.9015	0	95	1027	1
2026-02-12	14:58:34.970	1.925	-8.12	10.325	0.082228	-0.15128	1.047248	0.033	1.65	-0.9	0	95	1027	1
2026-02-12	14:58:34.990	3.71	-9.17	13.195	0.069784	-0.125172	1.00894	0.024	1.6545	-0.897	0	95	1027	1
2026-02-12	14:58:35.010	6.965	-12.495	14	0.087596	-0.135176	1.007476	0.021	1.653	-0.8955	0	95	1024	1
2026-02-12	14:58:35.030	9.695	-15.33	14.28	0.134444	-0.199836	1.07238	0.0225	1.6485	-0.8895	0	95	1024	1
2026-02-12	14:58:35.050	9.695	-15.54	15.05	0.16714	-0.23912	1.143872	0.0225	1.6485	-0.8925	0	95	1024	1
2026-02-12	14:58:35.070	5.565	-13.93	15.925	0.161772	-0.247904	1.152656	0.024	1.65	-0.8985	0	95	1024	1
2026-02-12	14:58:35.090	-3.115	-14.14	17.045	0.156648	-0.213988	1.094828	0.0285	1.6485	-0.9	0	95	1024	1
2026-02-12	14:58:35.110	-11.235	-13.58	17.92	0.131028	-0.145424	1.03334	0.027	1.65	-0.9	0	95	1024	1
2026-02-12	14:58:35.130	-13.405	-10.85	17.255	0.114924	-0.106384	0.99552	0.021	1.653	-0.897	0	95	1024	1
2026-02-12	14:58:35.150	-9.695	-4.62	14.98	0.098088	-0.113216	0.968192	0.0255	1.6545	-0.8925	0	95	1024	1
2026-02-12	14:58:35.170	-3.675	2.31	12.845	0.0915	-0.155428	0.968436	0.033	1.653	-0.8985	0	95	1024	1
2026-02-12	14:58:35.190	0.665	7.525	11.76	0.083448	-0.193736	0.97966	0.0285	1.6515	-0.9015	0	95	1024	1
2026-02-12	14:58:35.210	1.54	9.205	12.11	0.081984	-0.215452	0.979172	0.027	1.656	-0.8985	0	95	1028	1
2026-02-12	14:58:35.230	0.105	7.665	13.51	0.09467199	-0.208376	0.976488	0.024	1.656	-0.897	0	95	1028	1
2026-02-12	14:58:35.250	-1.155	4.165	15.295	0.11224	-0.194712	0.975268	0.0285	1.6575	-0.897	0	95	1028	1
2026-02-12	14:58:35.270	0	0.7	16.73	0.099308	-0.166164	0.972584	0.0315	1.6605	-0.9	0	95	1028	1
2026-02-12	14:58:35.290	3.815	-0.56	17.185	0.061	-0.115412	0.955016	0.0315	1.662	-0.8895	0	95	1028	1
2026-02-12	14:58:35.310	8.33	0.07	16.485	0.007808	-0.060268	0.91622	0.036	1.662	-0.8865	0	95	1028	1
2026-02-12	14:58:35.330	11.83	0.525	15.54	-0.010248	-0.024644	0.900604	0.039	1.6605	-0.897	0	95	1028	1
2026-02-12	14:58:35.350	14.84	1.225	14.875	-0.019276	-0.016592	0.925004	0.0405	1.6605	-0.8985	0	95	1028	1
2026-02-12	14:58:35.370	17.535	3.36	13.475	-0.0305	-0.015616	0.958188	0.042	1.6545	-0.8925	0	95	1028	1
2026-02-12	14:58:35.390	19.32	7.105	11.795	-0.030256	-0.019276	1.010648	0.045	1.653	-0.8955	0	95	1028	1
2026-02-12	14:58:35.410	18.585	9.38	10.43	-0.036112	-0.028548	1.045784	0.042	1.6515	-0.906	0	95	1028	1
2026-02-12	14:58:35.430	15.33	10.57	9.03	-0.03904	-0.03172	1.065548	0.0435	1.6485	-0.9075	0	95	1028	1
2026-02-12	14:58:35.450	10.465	11.06	7.35	-0.024156	-0.040016	1.086044	0.051	1.6485	-0.9105	0	95	1028	1
2026-02-12	14:58:35.470	5.355	10.99	5.46	-0.01464	-0.034892	1.075552	0.054	1.6515	-0.9105	0	95	1028	1
2026-02-12	14:58:35.490	2.1	9.975	3.15	-0.011468	-0.01464	1.040172	0.0525	1.6545	-0.9045	0	95	1028	1
2026-02-12	14:58:35.510	2.24	7.945	0.21	-0.000488	0.006344	1.020652	0.0525	1.65	-0.906	0	95	1028	1
2026-02-12	14:58:35.530	5.495	5.215	-3.08	0.0244	-0.00366	1.027972	0.0555	1.65	-0.906	0	95	1028	1
2026-02-12	14:58:35.550	10.115	2.38	-5.6	0.043676	-0.031232	1.038708	0.0555	1.65	-0.906	0	95	1028	1
2026-02-12	14:58:35.570	14.455	0.315	-6.895	0.034892	-0.054412	1.043588	0.0555	1.65	-0.906	0	95	1028	1
2026-02-12	14:58:35.590	17.29	0.245	-7.945	0.022204	-0.073444	1.04066	0.0585	1.647	-0.909	0	95	1028	1
2026-02-12	14:58:35.610	17.675	0.84	-8.645	0.019032	-0.07808	1.041636	0.0615	1.6455	-0.912	0	96	1029	1
2026-02-12	14:58:35.630	15.89	2.66	-10.115	0.039528	-0.099552	1.07726	0.0585	1.6455	-0.9165	0	96	1029	1
2026-02-12	14:58:35.650	11.165	5.355	-11.165	0.06832	-0.103212	1.110932	0.0585	1.644	-0.915	0	96	1029	1
2026-02-12	14:58:35.670	4.06	8.05	-11.725	0.08686399	-0.095404	1.121424	0.0645	1.6425	-0.9135	0	96	1029	1
2026-02-12	14:58:35.690	-5.46	7.385	-11.165	0.088816	-0.059536	1.081652	0.0615	1.644	-0.9195	0	96	1029	1
2026-02-12	14:58:35.710	-13.405	5.74	-9.59	0.083936	-0.019032	1.030656	0.0555	1.644	-0.9105	0	96	1029	1
2026-02-12	14:58:35.730	-14.63	5.53	-9.205	0.06954	0.021472	0.983808	0.0585	1.641	-0.9105	0	96	1029	1
2026-02-12	14:58:35.750	-9.905	7.805	-11.83	0.071492	0.020008	0.94428	0.0615	1.647	-0.9165	0	96	1029	1
2026-02-12	14:58:35.770	-5.18	7.84	-14.245	0.08662	-0.012444	0.922808	0.06	1.65	-0.9165	0	96	1029	1
2026-02-12	14:58:35.790	-4.83	4.725	-13.44	0.090036	-0.04758	0.93452	0.06	1.6455	-0.9195	0	96	1029	1
2026-02-12	14:58:35.810	-7.525	1.295	-10.465	0.085644	-0.078568	0.969412	0.06	1.6485	-0.9135	0	96	1033	1
2026-02-12	14:58:35.830	-10.08	0.035	-8.05	0.07515199	-0.080764	0.983564	0.0615	1.6545	-0.9045	0	96	1033	1
2026-02-12	14:58:35.850	-10.815	0.49	-7.245	0.060756	-0.066612	0.972584	0.0795	1.659	-0.906	0	96	1033	1
2026-02-12	14:58:35.870	-10.01	1.82	-7.385	0.035624	-0.026352	0.9333	0.078	1.653	-0.9105	0	96	1033	1
2026-02-12	14:58:35.890	-9.135	2.065	-8.05	0.0244	0.001464	0.901092	0.06	1.65	-0.9135	0	96	1033	1
2026-02-12	14:58:35.910	-8.785	0.455	-8.47	0.030012	0.009516	0.90524	0.0675	1.6575	-0.9105	0	96	1033	1
2026-02-12	14:58:35.930	-7.98	0.28	-8.19	0.043432	-0.006344	0.93574	0.0735	1.659	-0.9105	0	96	1033	1
2026-02-12	14:58:35.950	-6.65	1.82	-7.56	0.031476	-0.005124	0.939888	0.0705	1.6575	-0.915	0	96	1033	1
2026-02-12	14:58:35.970	-5.355	2.485	-6.86	0.022936	-0.00488	0.957456	0.06	1.656	-0.9105	0	96	1033	1
2026-02-12	14:58:35.990	-3.815	2.94	-5.95	0.01952	-0.0061	0.955016	0.0615	1.6605	-0.906	0	96	1033	1
2026-02-12	14:58:36.010	-2.065	2.695	-4.795	0.01708	-0.003416	0.96258	0.0675	1.668	-0.9105	0	95	1030	1
2026-02-12	14:58:36.030	-0.595	1.89	-3.185	0.006344	-0.003416	0.970388	0.0645	1.662	-0.9165	0	95	1030	1
2026-02-12	14:58:36.050	0.42	0.035	-1.4	0.02074	0.002684	0.991128	0.06	1.668	-0.9165	0	95	1030	1
2026-02-12	14:58:36.070	2.205	-1.645	0.175	0.035136	-0.0061	1.018212	0.0615	1.6725	-0.9105	0	95	1030	1
2026-02-12	14:58:36.090	4.585	-3.115	0.945	0.041236	-0.015128	1.033584	0.057	1.6665	-0.903	0	95	1030	1
2026-02-12	14:58:36.110	6.545	-4.9	0.98	0.043188	-0.04392	1.05042	0.0525	1.671	-0.9015	0	95	1030	1
2026-02-12	14:58:36.130	7.14	-5.95	1.26	0.049288	-0.095404	1.0736	0.0615	1.668	-0.9045	0	95	1030	1
2026-02-12	14:58:36.150	6.055	-6.93	2.205	0.047824	-0.121268	1.0675	0.06	1.668	-0.903	0	95	1030	1
2026-02-12	14:58:36.170	4.06	-7.91	3.535	0.05368	-0.127124	1.063108	0.054	1.6695	-0.909	0	95	1030	1
2026-02-12	14:58:36.190	2.73	-8.12	5.18	0.061732	-0.125904	1.069208	0.0525	1.6695	-0.9165	0	95	1030	1
2026-02-12	14:58:36.210	2.345	-7.91	6.79	0.066368	-0.142252	1.081408	0.051	1.6725	-0.909	0	94	1026	1
2026-02-12	14:58:36.230	1.26	-6.615	8.54	0.083692	-0.17202	1.097512	0.0615	1.671	-0.906	0	94	1026	1
2026-02-12	14:58:36.250	-2.03	-5.285	10.955	0.093208	-0.218624	1.119472	0.0645	1.671	-0.9075	0	94	1026	1
2026-02-12	14:58:36.270	-8.05	-3.745	12.635	0.095648	-0.22448	1.125084	0.0615	1.674	-0.9045	0	94	1026	1
2026-02-12	14:58:36.290	-15.225	-3.745	13.335	0.08418	-0.185684	1.078968	0.06	1.6755	-0.906	0	94	1026	1
2026-02-12	14:58:36.310	-19.95	-5.705	13.055	0.078324	-0.126636	1.00772	0.054	1.6755	-0.909	0	94	1026	1
2026-02-12	14:58:36.330	-18.06	-5.915	11.375	0.068808	-0.082716	0.939888	0.0525	1.6725	-0.9105	0	94	1026	1
2026-02-12	14:58:36.350	-10.36	-4.725	8.47	0.050264	-0.08295999	0.904264	0.051	1.6755	-0.9045	0	94	1026	1
2026-02-12	14:58:36.370	-1.015	-3.955	5.53	0.03904	-0.111264	0.895724	0.0525	1.68	-0.9015	0	94	1026	1
2026-02-12	14:58:36.390	6.3	-4.235	4.34	0.03172	-0.154208	0.929884	0.051	1.6815	-0.903	0	94	1026	1
2026-02-12	14:58:36.410	10.675	-4.62	5.25	0.037332	-0.188856	1.001864	0.048	1.6815	-0.903	0	94	1028	1
2026-02-12	14:58:36.430	12.355	-4.865	7.385	0.03538	-0.202764	0.999668	0.0525	1.683	-0.9075	0	94	1028	1
2026-02-12	14:58:36.450	11.34	-6.545	10.43	0.058072	-0.202276	1.000644	0.0525	1.683	-0.9105	0	94	1028	1
2026-02-12	14:58:36.470	9.45	-9.485	13.825	0.053924	-0.156648	0.993812	0.042	1.68	-0.9105	0	94	1028	1
2026-02-12	14:58:36.490	8.295	-11.76	16.135	0.034648	-0.11224	0.978196	0.039	1.6815	-0.9105	0	94	1028	1
2026-02-12	14:58:36.510	8.645	-12.215	16.485	0.008296	-0.054412	0.950624	0.0465	1.68	-0.912	0	94	1028	1
2026-02-12	14:58:36.530	9.94	-10.85	15.155	-0.013664	-0.015128	0.932324	0.045	1.6785	-0.9075	0	94	1028	1
2026-02-12	14:58:36.550	10.92	-9.52	13.055	-0.011956	-0.00244	0.947208	0.045	1.683	-0.909	0	94	1028	1
2026-02-12	14:58:36.570	10.78	-7.385	10.92	-0.012688	-0.003416	0.96868	0.0465	1.686	-0.9105	0	94	1028	1
2026-02-12	14:58:36.590	9.275	-5.075	8.61	-0.01708	-0.00488	0.978684	0.045	1.6845	-0.909	0	94	1028	1
2026-02-12	14:58:36.610	6.895	-3.36	6.125	-0.019276	-0.002196	0.995764	0.0435	1.68	-0.9135	0	93	1027	1
2026-02-12	14:58:36.630	4.235	-2.275	3.71	-0.007076	-0.0061	1.031632	0.0435	1.677	-0.9165	0	93	1027	1
2026-02-12	14:58:36.650	1.645	-0.805	1.54	0.001464	-0.025376	1.050664	0.0435	1.686	-0.9105	0	93	1027	1
2026-02-12	14:58:36.670	0.315	0.035	0.595	0.000488	-0.028548	1.050908	0.0435	1.686	-0.9105	0	93	1027	1
2026-02-12	14:58:36.690	-2.625	1.19	-1.155	0.005856	-0.03294	1.050664	0.039	1.6875	-0.918	0	93	1027	1
2026-02-12	14:58:36.710	-4.795	1.82	-2.905	0.011468	-0.025376	1.043588	0.033	1.677	-0.9105	0	93	1027	1
2026-02-12	14:58:36.730	-4.41	2.275	-5.215	0.017812	-0.012932	1.037	0.0315	1.6785	-0.915	0	93	1027	1
2026-02-12	14:58:36.750	-0.875	2.24	-8.505	0.042456	-0.024644	1.027484	0.0435	1.6755	-0.912	0	93	1027	1
2026-02-12	14:58:36.770	4.095	0.455	-11.655	0.0854	-0.059048	1.022116	0.0405	1.6785	-0.909	0	93	1027	1
2026-02-12	14:58:36.790	8.47	-2.94	-13.615	0.104676	-0.096868	1.025532	0.036	1.692	-0.912	0	93	1027	1
2026-02-12	14:58:36.810	11.725	-5.005	-14.98	0.085644	-0.127612	1.037244	0.03	1.6815	-0.912	0	93	1027	1
2026-02-12	14:58:36.830	12.74	-4.2	-16.555	0.061976	-0.139812	1.059204	0.033	1.6755	-0.9135	0	93	1027	1
2026-02-12	14:58:36.850	10.36	-2.135	-17.675	0.061	-0.137128	1.08824	0.0225	1.674	-0.9105	0	93	1027	1
2026-02-12	14:58:36.870	5.74	0.63	-18.2	0.091256	-0.128832	1.102636	0.024	1.6665	-0.915	0	93	1027	1
2026-02-12	14:58:36.890	0	2.66	-18.13	0.134688	-0.126392	1.110688	0.0255	1.6725	-0.9225	0	93	1027	1
2026-02-12	14:58:36.910	-6.93	2.695	-17.01	0.163724	-0.113704	1.090192	0.03	1.6665	-0.921	0	93	1027	1
2026-02-12	14:58:36.930	-13.195	1.82	-15.54	0.144448	-0.079788	1.041636	0.03	1.6665	-0.921	0	93	1027	1
2026-02-12	14:58:36.950	-16.205	2.94	-15.365	0.086132	-0.029036	0.976976	0.03	1.6665	-0.921	0	93	1027	1
2026-02-12	14:58:36.970	-15.05	6.02	-17.395	0.0488	0	0.923052	0.03	1.6665	-0.921	0	93	1027	1
2026-02-12	14:58:36.990	-11.515	8.295	-20.37	0.055632	-0.013176	0.915488	0.0255	1.668	-0.9195	0	93	1027	1
2026-02-12	14:58:37.010	-8.015	8.54	-21.595	0.088084	-0.065392	0.955748	0.012	1.674	-0.915	0	93	1032	1
2026-02-12	14:58:37.030	-6.3	8.085	-19.425	0.106628	-0.108336	0.983076	0.006	1.677	-0.903	0	93	1032	1
2026-02-12	14:58:37.050	-6.3	7.28	-15.295	0.094916	-0.125904	0.980148	0.006	1.674	-0.903	0	93	1032	1
2026-02-12	14:58:37.070	-7.91	5.25	-11.41	0.07686	-0.128588	0.98698	0.006	1.671	-0.909	0	93	1032	1
2026-02-12	14:58:37.090	-10.325	2.87	-8.54	0.071736	-0.116876	0.97722	0.006	1.6725	-0.9075	0	93	1032	1
2026-02-12	14:58:37.110	-11.97	0.175	-6.65	0.0671	-0.091012	0.953796	0.006	1.674	-0.906	0	93	1032	1
2026-02-12	14:58:37.130	-11.305	-1.47	-5.88	0.054656	-0.055876	0.937936	0.0075	1.6785	-0.9075	0	93	1032	1
2026-02-12	14:58:37.150	-7.875	-3.08	-6.055	0.04392	-0.024156	0.931836	0.006	1.6755	-0.9075	0	93	1032	1
2026-02-12	14:58:37.170	-2.555	-2.975	-6.895	0.038552	-0.008296	0.939644	0.0045	1.677	-0.8985	0	93	1032	1
2026-02-12	14:58:37.190	2.73	-1.96	-7.595	0.031476	-0.010492	0.953796	0.003	1.6785	-0.891	0	93	1032	1
2026-02-12	14:58:37.210	6.545	0.035	-7.84	0.026596	-0.01586	0.975512	0.0045	1.68	-0.891	0	92	1031	1
2026-02-12	14:58:37.230	8.575	1.855	-7.595	0.030988	-0.0244	0.999424	0.003	1.677	-0.9015	0	92	1031	1
2026-02-12	14:58:37.250	9.275	3.605	-6.86	0.028548	-0.022692	1.012112	0	1.6725	-0.906	0	92	1031	1
2026-02-12	14:58:37.270	8.995	4.34	-5.775	0.043432	-0.02928	1.022116	0.0015	1.6665	-0.912	0	92	1031	1
2026-02-12	14:58:37.290	8.715	4.76	-4.13	0.066124	-0.038064	1.038464	0.0015	1.665	-0.921	0	92	1031	1
2026-02-12	14:58:37.310	9.1	5.075	-2.45	0.071004	-0.0488	1.045052	0.003	1.668	-0.918	0	92	1031	1
2026-02-12	14:58:37.330	9.73	5.355	-1.54	0.07124799	-0.074908	1.069696	0.003	1.6665	-0.9135	0	92	1031	1
2026-02-12	14:58:37.350	8.68	5.32	-0.875	0.075396	-0.125172	1.100928	-0.0045	1.662	-0.9135	0	92	1031	1
2026-02-12	14:58:37.370	5.565	5.46	0.525	0.0793	-0.160064	1.097512	-0.003	1.6575	-0.9165	0	92	1031	1
2026-02-12	14:58:37.390	2.555	5.81	2.66	0.066612	-0.151036	1.061644	0.0045	1.659	-0.918	0	92	1031	1
2026-02-12	14:58:37.410	1.645	5.705	4.515	0.061976	-0.140544	1.047492	0.006	1.6575	-0.912	0	91	1029	1
2026-02-12	14:58:37.430	3.745	4.725	5.915	0.06954	-0.131272	1.04066	0.0015	1.6575	-0.9105	0	91	1029	1
2026-02-12	14:58:37.450	8.435	4.585	7.42	0.068808	-0.137372	1.033584	0.0015	1.659	-0.9165	0	91	1029	1
2026-02-12	14:58:37.470	13.125	5.145	8.995	0.060512	-0.151524	1.043588	0.009	1.6545	-0.915	0	91	1029	1
2026-02-12	14:58:37.490	14.385	4.935	10.29	0.06734399	-0.197396	1.0736	0.012	1.6515	-0.912	0	91	1029	1
2026-02-12	14:58:37.510	10.08	3.675	11.48	0.070028	-0.21106	1.086532	0.0105	1.656	-0.912	0	91	1029	1
2026-02-12	14:58:37.530	1.925	1.365	12.845	0.073688	-0.158844	1.058472	0.012	1.656	-0.918	0	91	1029	1
2026-02-12	14:58:37.550	-4.27	-0.945	13.65	0.055144	-0.09028	1.010892	0.0165	1.6515	-0.921	0	91	1029	1
2026-02-12	14:58:37.570	-4.725	-1.155	13.055	0.032696	-0.04026	0.959164	0.0135	1.65	-0.918	0	91	1029	1
2026-02-12	14:58:37.590	-0.63	0.7	11.13	0.00854	-0.032452	0.908656	0.0135	1.6545	-0.9195	0	91	1029	1
2026-02-12	14:58:37.610	4.235	1.365	8.715	-0.004392	-0.066368	0.905728	0.018	1.6575	-0.9195	0	90	1032	1
2026-02-12	14:58:37.630	6.72	0.595	7.28	0.007564	-0.120048	0.942328	0.018	1.659	-0.9135	0	90	1032	1
2026-02-12	14:58:37.650	6.545	-0.105	8.085	0.011712	-0.161284	0.973072	0.0225	1.6605	-0.915	0	90	1032	1
2026-02-12	14:58:37.670	3.955	-0.91	10.955	0.0244	-0.188856	0.990884	0.0285	1.6605	-0.9195	0	90	1032	1
2026-02-12	14:58:37.690	-0.21	-3.99	14.98	0.025864	-0.179584	0.984784	0.0285	1.6605	-0.9195	0	90	1032	1
2026-02-12	14:58:37.710	-3.325	-7.42	18.83	0.020984	-0.146888	0.965752	0.0195	1.6485	-0.9195	0	90	1032	1
2026-02-12	14:58:37.730	-3.92	-8.96	20.23	0.013664	-0.122	0.954772	0.0195	1.6485	-0.9195	0	90	1032	1
2026-02-12	14:58:37.750	-2.975	-10.64	21.21	-0.012444	-0.075396	0.930372	0.021	1.6515	-0.9225	0	90	1032	1
2026-02-12	14:58:37.770	-0.455	-11.76	20.195	-0.028792	-0.030744	0.914024	0.0195	1.656	-0.9105	0	90	1032	1
2026-02-12	14:58:37.790	2.835	-11.62	17.955	-0.037332	-0.00854	0.907924	0.0195	1.653	-0.9165	0	90	1032	1
2026-02-12	14:58:37.810	6.16	-10.675	15.12	-0.039284	0.008296	0.91744	0.0225	1.6605	-0.9195	0	89	1030	1
2026-02-12	14:58:37.830	9.135	-9.835	11.585	-0.041968	0.00976	0.947452	0.018	1.6605	-0.918	0	89	1030	1
2026-02-12	14:58:37.850	11.13	-8.785	7.875	-0.027084	-0.01098	0.984052	0.0135	1.653	-0.9135	0	89	1030	1
2026-02-12	14:58:37.870	11.69	-7.42	4.655	-0.029036	-0.01342	1.011868	0.018	1.6545	-0.918	0	89	1030	1
2026-02-12	14:58:37.890	10.535	-5.565	2.065	-0.026596	-0.027816	1.040416	0.012	1.656	-0.9195	0	89	1030	1
2026-02-12	14:58:37.910	7.42	-4.41	0.28	-0.015128	-0.039772	1.059204	0.0165	1.653	-0.9195	0	89	1030	1
2026-02-12	14:58:37.930	3.92	-2.59	-1.085	-0.01464	-0.03416	1.066524	0.0225	1.6515	-0.921	0	89	1030	1
2026-02-12	14:58:37.950	1.575	-0.385	-2.87	-0.010492	-0.01952	1.06628	0.03	1.659	-0.915	0	89	1030	1
2026-02-12	14:58:37.970	1.505	1.33	-5.25	0.012688	-0.014152	1.066036	0.0195	1.656	-0.909	0	89	1030	1
2026-02-12	14:58:37.990	3.99	2.1	-7.805	0.038796	-0.019276	1.046272	0.015	1.6575	-0.9195	0	89	1030	1
2026-02-12	14:58:38.010	7.84	0.77	-9.73	0.077836	-0.046848	1.038464	0.0255	1.6605	-0.9135	0	89	1025	1
2026-02-12	14:58:38.030	11.725	-1.75	-10.605	0.083448	-0.080764	1.040904	0.0165	1.653	-0.912	0	89	1025	1
2026-02-12	14:58:38.050	14.42	-2.975	-11.27	0.068076	-0.11468	1.05286	0.0165	1.653	-0.918	0	89	1025	1
2026-02-12	14:58:38.070	13.93	-2.17	-12.32	0.060268	-0.130052	1.083848	0.0135	1.647	-0.9225	0	89	1025	1
2026-02-12	14:58:38.090	9.38	-1.33	-13.055	0.082228	-0.139812	1.123864	0.015	1.65	-0.912	0	89	1025	1
2026-02-12	14:58:38.110	2.485	0.385	-13.265	0.113948	-0.120292	1.125328	0.009	1.641	-0.921	0	89	1025	1
2026-02-12	14:58:38.130	-4.585	1.785	-12.74	0.133956	-0.087108	1.098	0.0165	1.6545	-0.9105	0	89	1025	1
2026-02-12	14:58:38.150	-9.66	2.38	-12.075	0.125904	-0.03904	1.04432	0.009	1.6395	-0.9075	0	89	1025	1
2026-02-12	14:58:38.170	-10.71	4.445	-12.075	0.09272	0.012688	0.979904	0.015	1.644	-0.9165	0	89	1025	1
2026-02-12	14:58:38.190	-7.91	7.77	-13.37	0.060512	0.033916	0.938668	0.012	1.6455	-0.918	0	89	1025	1
2026-02-12	14:58:38.210	-3.92	10.535	-15.54	0.078812	-0.006588	0.94916	0.003	1.6515	-0.924	0	89	1029	1
2026-02-12	14:58:38.230	-1.89	11.62	-16.135	0.106384	-0.059536	0.98454	0.006	1.6455	-0.915	0	89	1029	1
2026-02-12	14:58:38.250	-3.29	11.165	-14.035	0.11834	-0.089792	0.996984	0.009	1.6485	-0.918	0	89	1029	1
2026-02-12	14:58:38.270	-7.035	8.715	-10.43	0.100528	-0.096136	0.998448	0.018	1.6395	-0.9195	0	89	1029	1
2026-02-12	14:58:38.290	-10.955	5.915	-7.28	0.07076	-0.077592	0.987956	0.006	1.6455	-0.9165	0	89	1029	1
2026-02-12	14:58:38.310	-13.65	3.815	-5.705	0.042212	-0.05246	0.96502	0.0105	1.65	-0.906	0	89	1029	1
2026-02-12	14:58:38.330	-14.455	2.17	-5.53	0.03416	-0.02684	0.943792	0.012	1.653	-0.9045	0	89	1029	1
2026-02-12	14:58:38.350	-13.125	1.47	-6.16	0.018544	0.004148	0.91866	0.015	1.662	-0.903	0	89	1029	1
2026-02-12	14:58:38.370	-10.255	0.98	-6.895	0.017324	0.020252	0.913048	0.015	1.662	-0.903	0	89	1029	1
2026-02-12	14:58:38.390	-6.37	1.19	-7.21	0.020252	0.010736	0.931836	0.015	1.662	-0.903	0	89	1029	1
2026-02-12	14:58:38.410	-2.31	2.52	-7.35	0.015128	-0.002684	0.94916	0.015	1.6605	-0.903	0	89	1030	1
2026-02-12	14:58:38.430	1.05	3.99	-7.175	0.014396	-0.011956	0.952332	0.0135	1.659	-0.906	0	89	1030	1
2026-02-12	14:58:38.450	3.36	4.62	-6.405	0.024644	-0.02074	0.969656	0.012	1.6575	-0.909	0	89	1030	1
2026-02-12	14:58:38.470	5.11	5.145	-4.76	0.026108	-0.03172	0.988932	0.0135	1.656	-0.909	0	89	1030	1
2026-02-12	14:58:38.490	6.615	5.25	-2.66	0.022936	-0.027084	0.988688	0.012	1.6515	-0.9105	0	89	1030	1
2026-02-12	14:58:38.510	7.945	4.83	-0.77	0.028792	-0.026352	0.99918	0.006	1.6515	-0.9075	0	89	1030	1
2026-02-12	14:58:38.530	8.855	3.115	1.12	0.035136	-0.035868	1.016016	0.0045	1.6545	-0.903	0	89	1030	1
2026-02-12	14:58:38.550	9.485	1.12	2.87	0.045628	-0.05368	1.038464	0.0075	1.656	-0.8985	0	89	1030	1
2026-02-12	14:58:38.570	9.835	-0.035	4.095	0.046116	-0.090036	1.074576	0.0075	1.6575	-0.897	0	89	1030	1
2026-02-12	14:58:38.590	8.995	-0.56	5.04	0.046848	-0.121268	1.081652	0.015	1.6545	-0.903	0	89	1030	1
2026-02-12	14:58:38.610	6.755	-0.91	6.37	0.032452	-0.119804	1.062376	0.015	1.6455	-0.9045	0	88	1027	1
2026-02-12	14:58:38.630	4.76	-2.485	8.12	0.031964	-0.105164	1.043832	0.0105	1.644	-0.9045	0	88	1027	1
2026-02-12	14:58:38.650	4.935	-4.025	9.555	0.035624	-0.10248	1.044564	0.009	1.6455	-0.9045	0	88	1027	1
2026-02-12	14:58:38.670	7.245	-3.92	10.57	0.045384	-0.110288	1.048712	0.006	1.6425	-0.906	0	88	1027	1
2026-02-12	14:58:38.690	9.66	-3.045	11.795	0.041236	-0.123952	1.055056	0.018	1.6425	-0.9135	0	88	1027	1
2026-02-12	14:58:38.710	9.87	-2.03	13.09	0.05368	-0.15006	1.089704	0.021	1.647	-0.9135	0	88	1027	1
2026-02-12	14:58:38.730	6.44	-3.535	14.14	0.081496	-0.182756	1.111176	0.0135	1.6515	-0.906	0	88	1027	1
2026-02-12	14:58:38.750	0.14	-6.79	15.05	0.081496	-0.14152	1.083848	0.0135	1.6515	-0.906	0	88	1027	1
2026-02-12	14:58:38.770	-4.62	-10.29	15.155	0.062464	-0.078812	1.033096	0.0135	1.6515	-0.906	0	88	1027	1
2026-02-12	14:58:38.790	-5.005	-11.165	14.63	0.05124	-0.055632	1.002352	0.0135	1.6515	-0.906	0	88	1027	1
2026-02-12	14:58:38.810	-1.96	-9.835	12.355	0.031964	-0.033672	0.951112	0.015	1.647	-0.906	0	87	1029	1
2026-02-12	14:58:38.830	2.835	-7.875	9.31	0.031476	-0.07442	0.936716	0.0105	1.644	-0.909	0	87	1029	1
2026-02-12	14:58:38.850	5.775	-6.86	7.385	0.02928	-0.121756	0.94062	0.006	1.6455	-0.9105	0	87	1029	1
2026-02-12	14:58:38.870	5.845	-7.14	7.245	0.026352	-0.162748	0.961116	0.0135	1.641	-0.906	0	87	1029	1
2026-02-12	14:58:38.890	3.745	-8.33	8.925	0.040504	-0.184708	0.991372	0.006	1.653	-0.909	0	87	1029	1
2026-02-12	14:58:38.910	0.91	-10.185	12.145	0.054656	-0.191784	0.993812	0.009	1.638	-0.9045	0	87	1029	1
2026-02-12	14:58:38.930	-1.085	-12.635	15.82	0.048068	-0.157868	0.973804	0.009	1.638	-0.903	0	87	1029	1
2026-02-12	14:58:38.950	-1.295	-14.735	18.585	0.0244	-0.101504	0.948184	0.0105	1.638	-0.909	0	87	1029	1
2026-02-12	14:58:38.970	0.385	-15.435	19.25	-0.009516	-0.041724	0.92232	0.0045	1.6455	-0.894	0	87	1029	1
2026-02-12	14:58:38.990	2.87	-14.56	18.06	-0.028304	-0.00732	0.90768	0	1.6485	-0.9	0	87	1029	1
2026-02-12	14:58:39.010	5.425	-12.32	15.855	-0.029036	0.01342	0.918172	-0.0045	1.647	-0.903	0	86	1029	1
2026-02-12	14:58:39.030	7.525	-9.8	13.125	-0.028304	0.007076	0.9577	-0.0015	1.6455	-0.9	0	86	1029	1
2026-02-12	14:58:39.050	9.345	-6.265	9.765	-0.0244	-0.001708	0.981368	-0.0015	1.6515	-0.8955	0	86	1029	1
2026-02-12	14:58:39.070	9.73	-3.535	6.58	-0.031232	-0.004148	1.012112	-0.0045	1.65	-0.8925	0	86	1029	1
2026-02-12	14:58:39.090	8.12	-1.89	4.06	-0.017568	-0.016104	1.03822	0.003	1.65	-0.9	0	86	1029	1
2026-02-12	14:58:39.110	5.005	-0.84	2.45	-0.00244	-0.027084	1.060424	0.0045	1.6515	-0.8985	0	86	1029	1
2026-02-12	14:58:39.130	2.135	0.455	1.155	-0.002684	-0.027328	1.062376	0.012	1.641	-0.894	0	86	1029	1
2026-02-12	14:58:39.150	0.21	1.96	-0.595	0.006344	-0.019764	1.061156	0	1.6425	-0.903	0	86	1029	1
2026-02-12	14:58:39.170	0	2.905	-2.87	0.000976	0.00122	1.042124	0	1.641	-0.906	0	86	1029	1
2026-02-12	14:58:39.190	1.96	3.29	-5.74	0.016592	0.00488	1.032364	-0.0015	1.644	-0.9045	0	86	1029	1
2026-02-12	14:58:39.210	5.25	2.345	-8.575	0.052216	-0.029036	1.052616	0.003	1.6455	-0.894	0	86	1027	1
2026-02-12	14:58:39.230	8.785	0.525	-10.255	0.078568	-0.07124799	1.059936	0.0015	1.641	-0.8955	0	86	1027	1
2026-02-12	14:58:39.250	11.76	-0.56	-11.13	0.071492	-0.088816	1.055056	-0.0045	1.6425	-0.9015	0	86	1027	1
2026-02-12	14:58:39.270	12.705	-1.225	-11.865	0.06466	-0.11468	1.063108	0	1.6425	-0.891	0	86	1027	1
2026-02-12	14:58:39.290	11.06	-0.315	-12.635	0.056852	-0.107116	1.074088	-0.003	1.632	-0.897	0	86	1027	1
2026-02-12	14:58:39.310	7.595	0.665	-13.37	0.064904	-0.084668	1.080432	-0.003	1.6305	-0.9015	0	86	1027	1
2026-02-12	14:58:39.330	3.185	1.68	-14.28	0.091744	-0.076372	1.093608	-0.003	1.6365	-0.9105	0	86	1027	1
2026-02-12	14:58:39.350	-1.75	2.625	-14.84	0.12444	-0.077836	1.108248	-0.012	1.629	-0.891	0	86	1027	1
2026-02-12	14:58:39.370	-7.105	3.29	-14.665	0.125416	-0.070516	1.081896	-0.012	1.6335	-0.897	0	86	1027	1
2026-02-12	14:58:39.390	-11.69	4.515	-14.385	0.093208	-0.044164	1.022848	-0.0135	1.6335	-0.8985	0	86	1027	1
2026-02-12	14:58:39.410	-13.685	7.35	-14.735	0.062464	-0.010248	0.953796	-0.0075	1.6335	-0.8955	0	86	1031	1
2026-02-12	14:58:39.430	-12.705	9.94	-15.855	0.061	-0.012932	0.92232	-0.009	1.626	-0.8955	0	86	1031	1
2026-02-12	14:58:39.450	-10.57	9.73	-16.1	0.090524	-0.057096	0.942084	-0.0135	1.629	-0.891	0	86	1031	1
2026-02-12	14:58:39.470	-9.17	8.505	-13.79	0.1098	-0.095892	0.980148	-0.0045	1.6305	-0.9045	0	86	1031	1
2026-02-12	14:58:39.490	-9.135	6.16	-9.31	0.106628	-0.121512	0.993324	-0.0045	1.6275	-0.897	0	86	1031	1
2026-02-12	14:58:39.510	-9.59	3.5	-4.62	0.079788	-0.11468	0.977708	-0.0075	1.6365	-0.9	0	86	1031	1
2026-02-12	14:58:39.530	-10.325	0.35	-1.085	0.050752	-0.088084	0.957944	-0.0045	1.6425	-0.8865	0	86	1031	1
2026-02-12	14:58:39.550	-10.5	-2.485	1.26	0.04026	-0.067588	0.947452	0	1.638	-0.9045	0	86	1031	1
2026-02-12	14:58:39.570	-9.135	-3.71	2.625	0.025376	-0.038308	0.948672	0.003	1.635	-0.888	0	86	1031	1
2026-02-12	14:58:39.590	-6.3	-2.94	2.94	0.012932	-0.01464	0.947696	-0.003	1.647	-0.8955	0	86	1031	1
2026-02-12	14:58:39.610	-2.8	-1.54	2.52	-0.001708	0.005612	0.942816	-0.0195	1.647	-0.888	0	85	1033	1
2026-02-12	14:58:39.630	0.595	0.28	1.715	0.003904	0.00854	0.95892	-0.003	1.644	-0.894	0	85	1033	1
2026-02-12	14:58:39.650	3.22	2.765	1.26	0.00244	-0.002684	0.98088	-0.006	1.6425	-0.894	0	85	1033	1
2026-02-12	14:58:39.670	4.865	5.145	1.47	-0.001464	-0.007076	0.982588	-0.012	1.6395	-0.894	0	85	1033	1
2026-02-12	14:58:39.690	5.32	6.58	2.24	0	-0.012932	0.98576	-0.0105	1.6425	-0.8925	0	85	1033	1
2026-02-12	14:58:39.710	5.53	6.755	3.955	0.011712	-0.01342	1.000156	-0.006	1.641	-0.8865	0	85	1033	1
2026-02-12	14:58:39.730	6.23	6.195	6.16	0.0183	-0.004392	1.009916	-0.0075	1.65	-0.885	0	85	1033	1
2026-02-12	14:58:39.750	7.945	5.075	8.435	0.021716	-0.00244	1.009184	-0.0105	1.6395	-0.888	0	85	1033	1
2026-02-12	14:58:39.770	10.535	3.885	9.94	0.019032	-0.006344	1.02358	-0.0015	1.638	-0.8895	0	85	1033	1
2026-02-12	14:58:39.790	13.125	2.59	10.43	0.023668	-0.027572	1.046516	-0.0015	1.638	-0.8895	0	85	1033	1
2026-02-12	14:58:39.810	13.72	1.925	10.395	0.04148	-0.083204	1.072624	-0.0045	1.629	-0.894	0	84	1030	1
2026-02-12	14:58:39.830	11.34	0.805	11.13	0.052216	-0.124196	1.078968	-0.0045	1.629	-0.894	0	84	1030	1
2026-02-12	14:58:39.850	8.82	0.21	12.075	0.042944	-0.122732	1.06018	-0.0045	1.629	-0.894	0	84	1030	1
2026-02-12	14:58:39.870	7.245	-0.21	12.95	0.043188	-0.101016	1.04188	-0.0045	1.629	-0.894	0	84	1030	1
2026-02-12	14:58:39.890	7.945	-1.47	13.965	0.05246	-0.082472	1.039196	-0.009	1.6305	-0.8985	0	84	1030	1
2026-02-12	14:58:39.910	11.445	-1.575	14.91	0.066124	-0.09272	1.043832	0	1.638	-0.885	0	84	1030	1
2026-02-12	14:58:39.930	14.525	-1.715	16.24	0.06466	-0.115656	1.039928	-0.006	1.632	-0.882	0	84	1030	1
2026-02-12	14:58:39.950	13.93	-2.765	18.235	0.0671	-0.148352	1.0675	-0.0045	1.641	-0.891	0	84	1030	1
2026-02-12	14:58:39.970	8.925	-4.305	20.335	0.082472	-0.185196	1.121912	0.009	1.623	-0.8925	0	84	1030	1
2026-02-12	14:58:39.990	0.945	-5.915	21.91	0.07442	-0.165188	1.114836	0.0165	1.6305	-0.897	0	84	1030	1
2026-02-12	14:58:40.010	-6.37	-7.77	22.61	0.051728	-0.100528	1.059204	0.0015	1.632	-0.903	0	84	1031	1
2026-02-12	14:58:40.030	-8.47	-7.91	22.085	0.034404	-0.061732	0.986492	0	1.623	-0.891	0	84	1031	1
2026-02-12	14:58:40.050	-5.565	-5.285	20.3	0.012932	-0.0549	0.9333	0.003	1.6335	-0.8955	0	84	1031	1
2026-02-12	14:58:40.070	-1.085	-2.73	18.2	0.015128	-0.103212	0.911584	0.0015	1.6335	-0.888	0	84	1031	1
2026-02-12	14:58:40.090	1.33	-2.66	17.64	0.026596	-0.16836	0.943304	0.0045	1.6305	-0.894	0	84	1031	1
2026-02-12	14:58:40.110	0.945	-4.06	19.145	0.041236	-0.2135	0.976	0.0045	1.6485	-0.885	0	84	1031	1
2026-02-12	14:58:40.130	-0.77	-5.845	22.295	0.049532	-0.224968	0.983808	0.0015	1.641	-0.8955	0	84	1031	1
2026-02-12	14:58:40.150	-2.555	-9.24	26.32	0.048312	-0.19886	0.971364	0.0045	1.644	-0.9	0	84	1031	1
2026-02-12	14:58:40.170	-3.045	-12.845	30.17	0.026596	-0.13908	0.931836	0.0075	1.6485	-0.894	0	84	1031	1
2026-02-12	14:58:40.190	-1.505	-15.925	32.585	-0.001708	-0.0732	0.903532	0.0045	1.6485	-0.8955	0	84	1031	1
2026-02-12	14:58:40.210	1.645	-16.835	33.075	-0.024888	-0.02074	0.898652	0.0045	1.647	-0.8865	0	83	1032	1
2026-02-12	14:58:40.230	5.355	-15.4	32.025	-0.045628	0.016592	0.904752	0.006	1.6455	-0.894	0	83	1032	1
2026-02-12	14:58:40.250	8.26	-13.3	29.925	-0.036356	0.028304	0.920124	0.0135	1.647	-0.9015	0	83	1032	1
2026-02-12	14:58:40.270	10.115	-11.165	27.265	-0.038796	0.028548	0.947452	0.006	1.6575	-0.888	0	83	1032	1
2026-02-12	14:58:40.290	10.815	-9.03	24.045	-0.038064	0.032696	0.980148	0.0045	1.6575	-0.8895	0	83	1032	1
2026-02-12	14:58:40.310	9.905	-7.805	21.35	-0.022936	0.0061	1.020896	0.0105	1.6485	-0.897	0	83	1032	1
2026-02-12	14:58:40.330	6.72	-6.86	19.39	-0.010736	-0.02806	1.061156	0.009	1.6455	-0.8865	0	83	1032	1
2026-02-12	14:58:40.350	1.645	-5.95	18.095	-0.011468	-0.037332	1.085312	0.015	1.647	-0.894	0	83	1032	1
2026-02-12	14:58:40.370	-3.92	-5.355	16.555	-0.005612	-0.04514	1.093852	0.0225	1.65	-0.8895	0	83	1032	1
2026-02-12	14:58:40.390	-7.665	-4.235	14.49	-0.01586	-0.02074	1.069208	0.0225	1.6515	-0.891	0	83	1032	1
2026-02-12	14:58:40.410	-7.875	-2.625	11.725	-0.02806	0.01952	1.036756	0.0225	1.653	-0.8925	0	84	1027	1
2026-02-12	14:58:40.430	-4.235	-1.26	8.295	-0.022448	0.03294	1.024556	0.0225	1.653	-0.891	0	84	1027	1
2026-02-12	14:58:40.450	1.33	-0.105	4.55	0.018056	-0.005368	1.036512	0.0285	1.647	-0.9	0	84	1027	1
2026-02-12	14:58:40.470	6.965	0.455	1.75	0.046604	-0.038796	1.025044	0.0165	1.656	-0.888	0	84	1027	1
2026-02-12	14:58:40.490	10.885	0.035	0.035	0.066856	-0.076128	1.042124	0.021	1.6515	-0.888	0	84	1027	1
2026-02-12	14:58:40.510	11.41	-1.085	-1.085	0.06954	-0.106384	1.082384	0.0195	1.6515	-0.8805	0	84	1027	1
2026-02-12	14:58:40.530	8.05	-0.385	-2.275	0.063928	-0.105164	1.128012	0.0105	1.662	-0.888	0	84	1027	1
2026-02-12	14:58:40.550	1.82	1.68	-3.85	0.056364	-0.078812	1.158268	0.012	1.65	-0.8955	0	84	1027	1
2026-02-12	14:58:40.570	-5.635	4.06	-6.16	0.065148	-0.046116	1.147776	0.0165	1.647	-0.885	0	84	1027	1
2026-02-12	14:58:40.590	-12.845	4.83	-9.1	0.094916	-0.043432	1.128988	0.018	1.6575	-0.8835	0	84	1027	1
2026-02-12	14:58:40.610	-17.92	5.39	-11.76	0.115656	-0.041724	1.091168	0.021	1.653	-0.873	0	85	1031	1
2026-02-12	14:58:40.630	-19.74	6.65	-13.93	0.11346	-0.026352	1.015528	0.024	1.6545	-0.882	0	85	1031	1
2026-02-12	14:58:40.650	-18.235	7.7	-15.33	0.09882	0.001708	0.944036	0.024	1.6605	-0.8895	0	85	1031	1
2026-02-12	14:58:40.670	-13.3	10.15	-16.03	0.1037	0.005124	0.90524	0.018	1.659	-0.888	0	85	1031	1
2026-02-12	14:58:40.690	-6.195	12.25	-15.925	0.122976	-0.02806	0.918904	0.021	1.6665	-0.8835	0	85	1031	1
2026-02-12	14:58:40.710	-0.98	11.795	-14.77	0.149328	-0.077104	0.952088	0.027	1.668	-0.885	0	85	1031	1
2026-02-12	14:58:40.730	0.315	9.345	-11.62	0.152988	-0.1037	0.984052	0.0105	1.6605	-0.888	0	85	1031	1
2026-02-12	14:58:40.750	-0.91	6.23	-6.93	0.139568	-0.106628	1.0065	0.024	1.656	-0.876	0	85	1031	1
2026-02-12	14:58:40.770	-2.31	5.425	-2.345	0.099308	-0.084912	0.985272	0.033	1.671	-0.894	0	85	1031	1
2026-02-12	14:58:40.790	-3.395	6.755	0.49	0.069296	-0.060512	0.963556	0.024	1.6695	-0.876	0	85	1031	1
2026-02-12	14:58:40.810	-5.145	8.015	1.54	0.048556	-0.034404	0.939888	0.024	1.6665	-0.8745	0	87	1035	1
2026-02-12	14:58:40.830	-6.825	8.54	1.33	0.054412	-0.020984	0.94428	0.0195	1.671	-0.879	0	87	1035	1
2026-02-12	14:58:40.850	-6.335	10.43	0.175	0.034648	0.01342	0.938424	0.03	1.6635	-0.882	0	87	1035	1
2026-02-12	14:58:40.870	-3.675	12.705	-2.1	0.001464	0.026596	0.945256	0.03	1.6635	-0.882	0	87	1035	1
2026-02-12	14:58:40.890	1.12	15.47	-6.02	0.000976	0.01708	0.961116	0.03	1.668	-0.882	0	87	1035	1
2026-02-12	14:58:40.910	3.605	17.815	-8.015	-0.003904	0.01464	0.966484	0.03	1.6725	-0.8835	0	87	1035	1
2026-02-12	14:58:40.930	7.735	21.42	-9.905	-0.004148	-0.00366	0.982344	0.033	1.671	-0.879	0	87	1035	1
2026-02-12	14:58:40.950	10.325	24.36	-10.92	-0.03416	0.003904	0.963312	0.033	1.671	-0.876	0	87	1035	1
2026-02-12	14:58:40.970	10.5	20.335	-10.815	-0.011224	-0.013664	1.01382	0.045	1.674	-0.8835	0	87	1035	1
2026-02-12	14:58:40.990	13.475	21.07	-10.29	0.010004	-0.029036	1.064084	0.051	1.671	-0.8835	0	87	1035	1
2026-02-12	14:58:41.010	18.375	24.115	-9.135	0.018056	-0.039528	1.064816	0.0555	1.6665	-0.8805	0	89	1032	1
2026-02-12	14:58:41.030	21.385	25.06	-7.315	0.011468	-0.034404	1.028948	0.054	1.6605	-0.8805	0	89	1032	1
2026-02-12	14:58:41.050	21.315	20.965	-4.97	0.007564	-0.042456	1.019676	0.0435	1.656	-0.8835	0	89	1032	1
2026-02-12	14:58:41.070	19.6	14.665	-2.555	0.027572	-0.068808	1.053348	0.0465	1.656	-0.8865	0	89	1032	1
2026-02-12	14:58:41.090	18.27	9.905	0.175	0.061244	-0.10858	1.090436	0.0525	1.6515	-0.8895	0	89	1032	1
2026-02-12	14:58:41.110	18.375	7.49	2.8	0.05368	-0.100284	1.067988	0.066	1.65	-0.8955	0	89	1032	1
2026-02-12	14:58:41.130	18.9	4.655	4.655	0.019032	-0.068076	1.016504	0.063	1.65	-0.8955	0	89	1032	1
2026-02-12	14:58:41.150	18.06	-0.805	5.495	-0.016104	-0.057584	1.008696	0.051	1.6515	-0.8955	0	89	1032	1
2026-02-12	14:58:41.170	15.82	-6.545	5.915	-0.002196	-0.081008	1.042612	0.051	1.647	-0.8895	0	89	1032	1
2026-02-12	14:58:41.190	12.775	-9.45	7.245	0.00244	-0.093452	1.081896	0.0525	1.6455	-0.894	0	89	1032	1
2026-02-12	14:58:41.210	6.895	-10.675	10.395	-0.007808	-0.112484	1.08946	0.0555	1.6485	-0.9045	0	90	1032	1
2026-02-12	14:58:41.230	2.345	-10.955	12.81	-0.020252	-0.107604	1.067988	0.0555	1.6485	-0.9045	0	90	1032	1
2026-02-12	14:58:41.250	-3.255	-11.165	16.17	-0.050752	-0.06734399	1.018944	0.054	1.6455	-0.903	0	90	1032	1
2026-02-12	14:58:41.270	-4.69	-9.73	18.06	-0.071492	-0.019032	0.960384	0.0555	1.6455	-0.885	0	90	1032	1
2026-02-12	14:58:41.290	-2.345	-6.895	18.095	-0.082472	0.001708	0.898164	0.0555	1.65	-0.876	0	90	1032	1
2026-02-12	14:58:41.310	0.805	-6.125	17.605	-0.06466	0.000488	0.890356	0.0525	1.6515	-0.8835	0	90	1032	1
2026-02-12	14:58:41.330	2.835	-7	18.375	-0.033672	-0.027084	0.94062	0.0525	1.6515	-0.8835	0	90	1032	1
2026-02-12	14:58:41.350	2.485	-7.595	20.79	-0.011224	-0.04514	1.001864	0.0525	1.6515	-0.8835	0	90	1032	1
2026-02-12	14:58:41.370	-0.21	-6.615	24.395	0.006588	-0.071004	1.026752	0.0525	1.6515	-0.8835	0	90	1032	1
2026-02-12	14:58:41.390	-5.46	-7.21	29.365	0.015372	-0.07564	1.037732	0.054	1.653	-0.894	0	90	1032	1
2026-02-12	14:58:41.410	-11.76	-9.065	35	0.008296	-0.051484	0.999668	0.0555	1.6485	-0.888	0	90	1032	1
2026-02-12	14:58:41.430	-15.61	-11.62	39.025	-0.04148	0.001952	0.94306	0.0495	1.6485	-0.8865	0	90	1032	1
2026-02-12	14:58:41.450	-16.03	-14.385	39.9	-0.06734399	0.033184	0.908412	0.0555	1.653	-0.8835	0	90	1032	1
2026-02-12	14:58:41.470	-12.81	-16.415	38.325	-0.079788	0.056608	0.900116	0.0585	1.6605	-0.8925	0	90	1032	1
2026-02-12	14:58:41.490	-6.72	-16.275	34.895	-0.079544	0.068808	0.910852	0.0585	1.6665	-0.8835	0	90	1032	1
2026-02-12	14:58:41.510	0.07	-14.98	30.59	-0.081984	0.067588	0.935008	0.0585	1.6605	-0.8895	0	90	1032	1
2026-02-12	14:58:41.530	5.46	-12.81	25.34	-0.090524	0.07808	0.97966	0.054	1.6605	-0.876	0	90	1032	1
2026-02-12	14:58:41.550	8.085	-11.515	19.32	-0.09467199	0.08662	0.990396	0.0675	1.6665	-0.891	0	90	1032	1
2026-02-12	14:58:41.570	8.05	-11.06	13.265	-0.081984	0.085644	1.039684	0.0555	1.665	-0.882	0	90	1032	1
2026-02-12	14:58:41.590	6.79	-9.03	7.455	-0.048312	0.072956	1.091412	0.0645	1.6665	-0.8865	0	90	1032	1
2026-02-12	14:58:41.610	5.25	-3.99	2.415	-0.03782	0.064172	1.111176	0.057	1.662	-0.882	0	90	1028	1
2026-02-12	14:58:41.630	3.395	1.47	-1.54	-0.027816	0.073688	1.087264	0.066	1.656	-0.8865	0	90	1028	1
2026-02-12	14:58:41.650	1.505	5.11	-4.795	-0.018788	0.096868	1.053836	0.0615	1.668	-0.8895	0	90	1028	1
2026-02-12	14:58:41.670	1.435	6.895	-7.84	0.0061	0.09882	1.065792	0.0675	1.665	-0.882	0	90	1028	1
2026-02-12	14:58:41.690	3.815	9.1	-10.29	0.048068	0.063196	1.07604	0.063	1.6605	-0.879	0	90	1028	1
2026-02-12	14:58:41.710	7.525	11.235	-12.88	0.075884	0.029036	1.075064	0.057	1.6605	-0.8805	0	90	1028	1
2026-02-12	14:58:41.730	9.87	10.395	-15.47	0.088084	-0.002196	1.103368	0.06	1.6575	-0.879	0	90	1028	1
2026-02-12	14:58:41.750	7.875	7.945	-17.08	0.119072	-0.036844	1.177544	0.0675	1.6575	-0.8775	0	90	1028	1
2026-02-12	14:58:41.770	1.225	5.95	-17.255	0.116388	-0.018788	1.199504	0.0705	1.656	-0.8775	0	90	1028	1
2026-02-12	14:58:41.790	-6.72	7.035	-17.22	0.088572	0.024156	1.1773	0.066	1.653	-0.882	0	90	1028	1
2026-02-12	14:58:41.810	-13.02	8.19	-19.32	0.056852	0.053436	1.121912	0.06	1.659	-0.885	0	90	1032	1
2026-02-12	14:58:41.830	-16.065	5.46	-24.745	0.045384	0.044408	1.071404	0.0675	1.6635	-0.8805	0	90	1032	1
2026-02-12	14:58:41.850	-14.735	0.595	-32.27	0.048312	0.035136	1.044076	0.066	1.6605	-0.882	0	90	1032	1
2026-02-12	14:58:41.870	-8.575	-0.84	-40.11	0.041968	0.039528	1.016016	0.0675	1.6605	-0.8775	0	90	1032	1
2026-02-12	14:58:41.890	-0.315	2.975	-46.13	0.04636	0.043188	0.992348	0.0585	1.656	-0.8745	0	90	1032	1
2026-02-12	14:58:41.910	5.075	11.48	-48.825	0.054656	0.013908	0.979904	0.0525	1.659	-0.873	0	90	1032	1
2026-02-12	14:58:41.930	3.115	16.24	-47.985	0.081252	-0.022692	0.978684	0.0525	1.659	-0.873	0	90	1032	1
2026-02-12	14:58:41.950	-3.605	13.615	-45.255	0.132492	-0.0427	0.995764	0.0585	1.662	-0.87	0	90	1032	1
2026-02-12	14:58:41.970	-5.915	12.425	-44.03	0.144204	-0.039772	1.002352	0.066	1.665	-0.8685	0	90	1032	1
2026-02-12	14:58:41.990	-5.985	13.37	-42.735	0.126636	-0.029036	0.984296	0.0585	1.6635	-0.8685	0	90	1032	1
2026-02-12	14:58:42.010	-3.15	13.09	-40.88	0.079544	-0.011712	0.956968	0.048	1.659	-0.864	0	92	1042	1
2026-02-12	14:58:42.030	-1.575	14.245	-38.71	0.027328	0.010248	0.918904	0.048	1.659	-0.861	0	92	1042	1
2026-02-12	14:58:42.050	-2.905	13.685	-36.645	-0.019032	0.039284	0.88938	0.0465	1.662	-0.8565	0	92	1042	1
2026-02-12	14:58:42.070	-4.655	14.595	-36.33	-0.047824	0.064904	0.864736	0.042	1.662	-0.852	0	92	1042	1
2026-02-12	14:58:42.090	-4.375	14.735	-36.75	-0.045384	0.046116	0.8845	0.045	1.659	-0.8565	0	92	1042	1
2026-02-12	14:58:42.110	-2.24	16.835	-36.96	-0.047336	0.029036	0.90036	0.042	1.653	-0.8595	0	92	1042	1
2026-02-12	14:58:42.130	0.21	18.585	-36.26	-0.059536	0.011956	0.91134	0.0405	1.656	-0.858	0	92	1042	1
2026-02-12	14:58:42.150	1.82	19.565	-34.44	-0.079544	0.003416	0.91744	0.0465	1.659	-0.858	0	92	1042	1
2026-02-12	14:58:42.170	1.995	17.045	-31.36	-0.09076799	0.011468	0.935008	0.048	1.6545	-0.858	0	92	1042	1
2026-02-12	14:58:42.190	2.1	15.12	-27.825	-0.094916	0.001708	0.9577	0.0465	1.656	-0.8595	0	92	1042	1
2026-02-12	14:58:42.210	3.045	12.915	-23.835	-0.0976	-0.011956	1.003084	0.042	1.6575	-0.861	0	93	1039	1
2026-02-12	14:58:42.230	4.41	11.795	-19.74	-0.097844	-0.03172	1.025288	0.0405	1.653	-0.8655	0	93	1039	1
2026-02-12	14:58:42.250	5.775	10.395	-15.855	-0.111752	-0.0366	1.037488	0.039	1.6575	-0.867	0	93	1039	1
2026-02-12	14:58:42.270	6.58	8.54	-12.005	-0.099552	-0.068076	1.062376	0.039	1.656	-0.864	0	93	1039	1
2026-02-12	14:58:42.290	5.74	8.12	-7.665	-0.073688	-0.096136	1.089948	0.0405	1.6485	-0.867	0	93	1039	1
2026-02-12	14:58:42.310	3.185	7.875	-2.8	-0.060756	-0.1098	1.076772	0.0375	1.6515	-0.8655	0	93	1039	1
2026-02-12	14:58:42.330	0.77	7.14	1.505	-0.063684	-0.099552	1.052372	0.0345	1.653	-0.858	0	93	1039	1
2026-02-12	14:58:42.350	0.665	5.635	3.885	-0.074908	-0.083936	1.047004	0.0345	1.6515	-0.8625	0	93	1039	1
2026-02-12	14:58:42.370	0.84	2.625	4.795	-0.05612	-0.138836	1.14314	0.0345	1.6545	-0.8685	0	93	1039	1
2026-02-12	14:58:42.390	-3.885	1.575	7.56	-0.015616	-0.2074	1.251964	0.036	1.6575	-0.8625	0	93	1039	1
2026-02-12	14:58:42.410	-14	3.08	13.09	-0.028792	-0.163968	1.2261	0.039	1.6545	-0.8595	0	96	1034	1
2026-02-12	14:58:42.430	-23.17	3.85	16.52	-0.059292	-0.063928	1.123864	0.036	1.6515	-0.8625	0	96	1034	1
2026-02-12	14:58:42.450	-25.165	1.155	14.14	-0.072224	-0.014396	1.034072	0.036	1.6575	-0.855	0	96	1034	1
2026-02-12	14:58:42.470	-18.725	1.365	8.61	-0.084912	0.020496	0.974536	0.033	1.665	-0.843	0	96	1034	1
2026-02-12	14:58:42.490	-8.225	5.145	3.57	-0.07905599	-0.002684	0.950624	0.036	1.668	-0.8385	0	96	1034	1
2026-02-12	14:58:42.510	0.56	12.145	1.155	-0.05856	-0.07076	0.973072	0.045	1.6665	-0.852	0	96	1034	1
2026-02-12	14:58:42.530	3.745	17.85	2.73	-0.041968	-0.112972	0.97966	0.0495	1.6635	-0.855	0	96	1034	1
2026-02-12	14:58:42.550	3.01	22.75	7.035	-0.03172	-0.11834	0.987468	0.0465	1.659	-0.8505	0	96	1034	1
2026-02-12	14:58:42.570	2.24	25.41	10.815	-0.038064	-0.11224	0.9821	0.045	1.662	-0.849	0	96	1034	1
2026-02-12	14:58:42.590	2.1	26.11	12.53	-0.05612	-0.091988	0.954772	0.0495	1.665	-0.849	0	96	1034	1
2026-02-12	14:58:42.610	2.17	23.1	12.46	-0.091012	-0.077348	0.927932	0.0525	1.6575	-0.855	0	99	1037	1
2026-02-12	14:58:42.630	2.905	18.305	11.48	-0.112728	-0.066368	0.918172	0.051	1.659	-0.849	0	99	1037	1
2026-02-12	14:58:42.650	3.57	15.645	9.73	-0.161284	-0.05368	0.90402	0.0525	1.6635	-0.843	0	99	1037	1
2026-02-12	14:58:42.670	3.57	13.055	7.84	-0.192028	-0.03538	0.867664	0.057	1.6665	-0.846	0	99	1037	1
2026-02-12	14:58:42.690	3.325	9.73	6.755	-0.20252	-0.031476	0.893284	0.06	1.6635	-0.849	0	99	1037	1
2026-02-12	14:58:42.710	3.92	6.685	6.37	-0.194712	-0.021228	0.912804	0.063	1.6605	-0.855	0	99	1037	1
2026-02-12	14:58:42.730	6.265	5.705	4.83	-0.22204	-0.002928	0.905972	0.0675	1.662	-0.8595	0	99	1037	1
2026-02-12	14:58:42.750	7.805	0.77	3.71	-0.221064	0.019032	0.920856	0.066	1.659	-0.8595	0	99	1037	1
2026-02-12	14:58:42.770	8.505	-3.43	1.715	-0.226432	-0.01342	0.954528	0.0585	1.659	-0.858	0	99	1037	1
2026-02-12	14:58:42.790	8.925	-5.53	0.805	-0.211792	-0.017568	1.002352	0.0585	1.6545	-0.8565	0	99	1037	1
2026-02-12	14:58:42.810	9.695	-4.375	-2.065	-0.221064	-0.01952	1.001376	0.0705	1.6545	-0.8595	0	102	1031	1
2026-02-12	14:58:42.830	10.255	-4.165	-6.93	-0.229848	-0.0061	0.98088	0.072	1.659	-0.8625	0	102	1031	1
2026-02-12	14:58:42.850	9.765	-5.355	-12.495	-0.206912	-0.032452	0.985516	0.0735	1.6575	-0.8595	0	102	1031	1
2026-02-12	14:58:42.870	8.925	-6.23	-16.695	-0.154696	-0.102724	1.031876	0.0705	1.6545	-0.8565	0	102	1031	1
2026-02-12	14:58:42.890	8.085	-5.6	-17.85	-0.105164	-0.149816	1.055544	0.0615	1.6545	-0.8595	0	102	1031	1
2026-02-12	14:58:42.910	6.23	-4.2	-15.715	-0.066856	-0.18788	1.077992	0.0615	1.6545	-0.8595	0	102	1031	1
2026-02-12	14:58:42.930	2.17	-2.695	-10.605	-0.059292	-0.21594	1.072624	0.0615	1.6545	-0.8595	0	102	1031	1
2026-02-12	14:58:42.950	-4.06	-1.96	-4.06	-0.07124799	-0.195444	1.064084	0.0615	1.6545	-0.8595	0	102	1031	1
2026-02-12	14:58:42.970	-11.2	-1.505	2.975	-0.082228	-0.18666	1.033096	0.0435	1.647	-0.861	0	102	1031	1
2026-02-12	14:58:42.990	-16.73	-3.465	11.9	-0.074664	-0.157136	1.02602	0.042	1.6485	-0.858	0	102	1031	1
2026-02-12	14:58:43.010	-19.985	-0.98	20.51	-0.097112	-0.16836	1.03456	0.0405	1.653	-0.8565	0	105	1025	1
2026-02-12	14:58:43.030	-23.345	0.42	25.9	-0.077592	-0.202032	1.087996	0.0405	1.656	-0.8595	0	105	1025	1
2026-02-12	14:58:43.050	-27.86	4.935	30.87	-0.079788	-0.184464	1.072136	0.0435	1.659	-0.8625	0	105	1025	1
2026-02-12	14:58:43.070	-34.37	7.875	35.805	-0.084912	-0.168848	1.032852	0.0525	1.6635	-0.8625	0	105	1025	1
2026-02-12	14:58:43.090	-39.97	12.915	42.805	-0.089548	-0.177144	0.951844	0.057	1.6635	-0.858	0	105	1025	1
2026-02-12	14:58:43.110	-45.115	15.12	50.05	-0.076616	-0.20008	0.915	0.0555	1.668	-0.8505	0	105	1025	1
2026-02-12	14:58:43.130	-47.67	14.105	56.175	-0.046116	-0.254736	0.99308	0.0585	1.6785	-0.849	0	105	1025	1
2026-02-12	14:58:43.150	-46.305	19.74	64.33	-0.041236	-0.248636	0.999912	0.0675	1.686	-0.849	0	105	1025	1
2026-02-12	14:58:43.170	-42.315	27.02	72.94	-0.05368	-0.240096	0.923784	0.078	1.686	-0.8445	0	105	1025	1
2026-02-12	14:58:43.190	-36.61	26.915	82.95	0.003172	-0.215452	0.820084	0.096	1.677	-0.8325	0	105	1025	1
2026-02-12	14:58:43.210	-28.105	17.045	91.385	-0.122732	-0.2623	0.772992	0.1215	1.6545	-0.8265	0	109	1022	1
2026-02-12	14:58:43.230	-15.785	12.6	99.68	-0.150304	-0.233996	0.848876	0.141	1.635	-0.8295	0	109	1022	1
2026-02-12	14:58:43.250	-2.52	17.29	101.535	-0.22326	-0.140056	0.839604	0.1515	1.6365	-0.8295	0	109	1022	1
2026-02-12	14:58:43.270	6.09	18.305	93.38	-0.260592	0.0305	0.8479	0.1635	1.6425	-0.828	0	109	1022	1
2026-02-12	14:58:43.290	3.955	6.16	82.775	-0.243756	-0.04026	0.985516	0.216	1.659	-0.8295	0	109	1022	1
2026-02-12	14:58:43.310	1.54	2.135	81.97	-0.2257	-0.126392	1.209996	0.315	1.6935	-0.8385	0	109	1022	1
2026-02-12	14:58:43.330	0.56	4.025	81.48	-0.250344	0.018788	0.945744	0.4395	1.7265	-0.8655	0	109	1022	1
2026-02-12	14:58:43.350	2.1	-3.815	74.97	-0.238632	-0.034892	0.98942	0.5715	1.7295	-0.909	0	109	1022	1
2026-02-12	14:58:43.370	3.71	-10.08	70.105	-0.23058	-0.0549	0.77226	0.702	1.6965	-0.9705	0	109	1022	1
2026-02-12	14:58:43.390	3.745	-12.53	71.785	-0.306952	0.04148	1.004304	0.8025	1.65	-1.0395	0	109	1022	1
2026-02-12	14:58:43.410	2.94	-26.67	72.555	-0.317688	0.142496	1.027972	0.864	1.6005	-1.0755	0	113	1013	1
2026-02-12	14:58:43.430	5.845	-30.38	69.79	-0.25498	-0.035868	0.906948	0.897	1.5315	-1.071	0	113	1013	1
2026-02-12	14:58:43.450	11.655	-39.305	68.355	-0.309636	0.033428	1.012112	0.906	1.4145	-1.0215	0	113	1013	1
2026-02-12	14:58:43.470	16.485	-40.425	66.22	-0.255956	0.0488	1.194868	0.891	1.2495	-0.948	0	113	1013	1
2026-02-12	14:58:43.490	4.13	-40.67	64.085	-0.315736	0.127368	1.155096	0.8565	1.074	-0.8715	0	113	1013	1
2026-02-12	14:58:43.510	4.305	-32.2	62.125	-0.245464	-0.028548	1.034072	0.8085	0.924	-0.8055	0	113	1013	1
2026-02-12	14:58:43.530	1.715	-33.705	66.22	-0.247416	0.071004	1.24928	0.7605	0.798	-0.7455	0	113	1013	1
2026-02-12	14:58:43.550	0.21	-34.44	72.345	-0.2684	0.058804	1.098976	0.711	0.693	-0.6945	0	113	1013	1
2026-02-12	14:58:43.570	0.21	-23.275	76.02	-0.28548	0.080764	1.129476	0.6645	0.615	-0.6735	0	113	1013	1
2026-02-12	14:58:43.590	-5.95	-11.06	71.26	-0.238144	0.030744	0.916464	0.6345	0.5595	-0.681	0	113	1013	1
2026-02-12	14:58:43.610	-11.06	-15.89	56.735	-0.296948	-0.051972	0.345992	0.6165	0.5325	-0.7095	0	121	1010	1
2026-02-12	14:58:43.630	-8.785	-32.235	44.765	-0.25498	0.05368	1.206824	0.5895	0.528	-0.771	0	121	1010	1
2026-02-12	14:58:43.650	-17.78	-22.225	31.85	-0.288896	0.047336	1.223172	0.5445	0.5415	-0.849	0	121	1010	1
2026-02-12	14:58:43.670	-8.05	-30.66	20.02	-0.24156	-0.06344	0.675636	0.474	0.57	-0.924	0	121	1010	1
2026-02-12	14:58:43.690	3.01	-20.58	18.935	-0.194224	0.071736	1.106784	0.375	0.618	-0.9915	0	121	1010	1
2026-02-12	14:58:43.710	-6.055	-46.235	21	-0.263032	0.066124	0.822524	0.2715	0.681	-1.047	0	121	1010	1
2026-02-12	14:58:43.730	11.515	-41.58	22.47	-0.152988	-0.086376	0.7564	0.174	0.7575	-1.0605	0	121	1010	1
2026-02-12	14:58:43.750	18.97	-34.405	19.53	-0.328424	0.068076	0.8601	0.0855	0.846	-1.032	0	121	1010	1
2026-02-12	14:58:43.770	25.06	-59.885	9.17	-0.21716	-0.105652	0.770552	0	0.918	-1.005	0	121	1010	1
2026-02-12	14:58:43.790	19.67	-49.07	7.595	-0.218624	0.033428	1.082384	-0.0825	0.972	-0.972	0	121	1010	1
2026-02-12	14:58:43.810	22.26	-62.37	0.875	-0.220332	-0.02562	1.243424	-0.1665	1.0125	-0.9375	0	132	1008	1
2026-02-12	14:58:43.830	29.47	-66.29	-10.15	-0.224968	-0.049776	1.154852	-0.249	1.0455	-0.906	0	132	1008	1
2026-02-12	14:58:43.850	43.4	-60.76	-16.17	-0.223504	-0.136884	1.015772	-0.3045	1.0935	-0.8895	0	132	1008	1
2026-02-12	14:58:43.870	34.23	-67.55	-15.855	-0.184464	-0.052704	1.250256	-0.3495	1.1415	-0.903	0	132	1008	1
2026-02-12	14:58:43.890	12.635	-43.855	-24.115	-0.18178	-0.087108	1.12118	-0.396	1.1835	-0.9405	0	132	1008	1
2026-02-12	14:58:43.910	-5.67	-29.89	-27.86	-0.121512	-0.110044	1.11264	-0.435	1.2075	-0.9915	0	132	1008	1
2026-02-12	14:58:43.930	10.185	-16.625	-35.7	-0.09857599	-0.127124	1.075064	-0.474	1.2	-1.032	0	132	1008	1
2026-02-12	14:58:43.950	4.095	-2.38	-47.11	-0.068808	-0.173728	0.824476	-0.486	1.2165	-1.071	0	132	1008	1
2026-02-12	14:58:43.970	20.895	3.5	-54.005	-0.041724	0.10126	0.927932	-0.48	1.239	-1.101	0	132	1008	1
2026-02-12	14:58:43.990	10.29	3.535	-55.58	-0.02928	0.07808	0.865224	-0.483	1.2285	-1.1175	0	132	1008	1
2026-02-12	14:58:44.010	5.46	5.39	-55.895	-0.053192	0.043676	0.899384	-0.495	1.221	-1.125	0	144	1010	1
2026-02-12	14:58:44.030	12.6	5.39	-58.345	-0.075396	0.046604	0.940376	-0.501	1.218	-1.125	0	144	1010	1
2026-02-12	14:58:44.050	24.675	3.605	-61.635	-0.100528	0.0549	0.96136	-0.4995	1.218	-1.128	0	144	1010	1
2026-02-12	14:58:44.070	23.485	8.645	-61.915	-0.09516	0.055632	0.996984	-0.4995	1.218	-1.128	0	144	1010	1
2026-02-12	14:58:44.090	25.935	14.665	-59.605	-0.081984	0.105652	0.98942	-0.504	1.2165	-1.11	0	144	1010	1
2026-02-12	14:58:44.110	16.59	15.365	-57.75	-0.120536	0.13176	0.989176	-0.504	1.2165	-1.11	0	144	1010	1
2026-02-12	14:58:44.130	3.43	13.895	-57.015	-0.15616	0.1342	1.06506	-0.5025	1.206	-1.1085	0	144	1010	1
2026-02-12	14:58:44.150	2.52	11.585	-55.895	-0.094184	0.100528	1.072868	-0.516	1.179	-1.1145	0	144	1010	1
2026-02-12	14:58:44.170	3.99	13.895	-52.5	-0.038552	0.116388	1.15046	-0.513	1.1625	-1.101	0	144	1010	1
2026-02-12	14:58:44.190	5.005	14.735	-46.795	-0.064904	0.138592	1.143384	-0.4965	1.227	-1.122	0	144	1010	1
2026-02-12	14:58:44.210	1.715	10.045	-42.07	-0.031964	0.156892	1.149484	-0.492	1.2195	-1.1355	0	155	1015	1
2026-02-12	14:58:44.230	-5.495	5.11	-39.095	0.015616	0.162748	1.151192	-0.5025	1.221	-1.1235	0	155	1015	1
2026-02-12	14:58:44.250	-15.68	5.425	-32.13	0.077836	0.182756	1.172176	-0.5055	1.2135	-1.113	0	155	1015	1
2026-02-12	14:58:44.270	-23.555	7.175	-27.86	0.107604	0.135176	1.201944	-0.5055	1.2165	-1.119	0	155	1015	1
2026-02-12	14:58:44.290	-22.82	6.79	-21.56	0.126148	0.140544	1.11996	-0.516	1.182	-1.101	0	155	1015	1
2026-02-12	14:58:44.310	-11.095	-8.54	-27.79	0.064904	0.16226	1.044808	-0.504	1.218	-1.1265	0	155	1015	1
2026-02-12	14:58:44.330	2.765	-15.26	-30.87	0.016348	0.182024	0.873276	-0.4935	1.23	-1.0995	0	155	1015	1
2026-02-12	14:58:44.350	12.88	-20.965	-27.51	0.015616	0.08906	0.861808	-0.501	1.233	-1.0875	0	155	1015	1
2026-02-12	14:58:44.370	-10.395	-15.575	-15.435	0.11834	0.155184	0.784704	-0.51	1.218	-1.0755	0	155	1015	1
2026-02-12	14:58:44.390	-15.925	-13.16	-4.305	0.058316	0.2074	0.977464	-0.513	1.236	-1.0305	0	155	1015	1
2026-02-12	14:58:44.410	-20.65	-18.06	-9.275	0.091744	0.189344	0.903044	-0.5205	1.26	-0.9855	0	165	1025	1
2026-02-12	14:58:44.430	-7.14	-9.415	-10.57	0.118828	0.171776	0.950868	-0.528	1.242	-0.9015	0	165	1025	1
2026-02-12	14:58:44.450	2.24	1.05	-0.945	0.079788	0.207888	0.890844	-0.5235	1.26	-0.855	0	165	1025	1
2026-02-12	14:58:44.470	-9.59	-3.57	3.36	0.059536	0.262544	0.96502	-0.5055	1.2255	-0.8025	0	165	1025	1
2026-02-12	14:58:44.490	-8.715	-6.475	5.18	0.039772	0.203252	0.8357	-0.5055	1.2255	-0.8025	0	165	1025	1
2026-02-12	14:58:44.510	-7.385	-4.935	3.535	-0.000732	0.176656	0.826184	-0.5055	1.2255	-0.8025	0	165	1025	1
2026-02-12	14:58:44.530	-10.745	-10.045	-7.07	-0.067588	0.18178	0.987956	-0.5055	1.2255	-0.8025	0	165	1025	1
2026-02-12	14:58:44.550	-3.815	-10.78	-14.28	-0.108092	0.178608	0.963068	-0.504	1.203	-0.7095	0	165	1025	1
2026-02-12	14:58:44.570	-3.15	-9.38	-19.46	-0.033428	0.03538	0.986492	-0.5085	1.176	-0.6165	0	165	1025	1
2026-02-12	14:58:44.590	-6.475	-10.885	-19.985	-0.055632	0.041236	1.067012	-0.5145	1.1745	-0.612	0	165	1025	1
2026-02-12	14:58:44.610	-10.885	-7.77	-19.915	-0.061244	0.0183	1.018212	-0.5115	1.185	-0.6135	0	173	1024	1
2026-02-12	14:58:44.630	-13.51	-8.05	-19.6	-0.038308	0.0122	1.080676	-0.5085	1.194	-0.615	0	173	1024	1
2026-02-12	14:58:44.650	-13.195	-14.14	-21.595	-0.031232	-0.0366	1.061888	-0.5085	1.2	-0.6105	0	173	1024	1
2026-02-12	14:58:44.670	-8.75	-16.87	-22.435	-0.001952	-0.02562	1.100196	-0.534	1.179	-0.606	0	173	1024	1
2026-02-12	14:58:44.690	-13.895	-13.755	-19.74	-0.020496	-0.060756	1.084824	-0.534	1.173	-0.6045	0	173	1024	1
2026-02-12	14:58:44.710	-16.52	-13.23	-14.525	-0.017568	-0.080276	1.065304	-0.5115	1.194	-0.609	0	173	1024	1
2026-02-12	14:58:44.730	-11.69	-7.56	-12.495	-0.031232	-0.068808	1.060912	-0.513	1.194	-0.6135	0	173	1024	1
2026-02-12	14:58:44.750	-19.32	-12.39	-10.08	0.01586	-0.118828	1.098	-0.5175	1.197	-0.609	0	173	1024	1
2026-02-12	14:58:44.770	-22.575	-13.86	-9.1	0.063196	-0.11956	1.17364	-0.5235	1.2	-0.603	0	173	1024	1
2026-02-12	14:58:44.790	-21.56	-13.23	-12.985	0.059536	-0.103944	1.134356	-0.5295	1.1925	-0.5985	0	173	1024	1
2026-02-12	14:58:44.810	-11.9	-16.695	-19.845	0.02196	-0.00732	1.080188	-0.534	1.182	-0.6	0	177	1026	1
2026-02-12	14:58:44.830	-0.595	-14.665	-23.24	0.003904	0.043432	0.978928	-0.5325	1.1925	-0.6015	0	177	1026	1
2026-02-12	14:58:44.850	-0.525	-12.635	-17.535	0.035624	0.045872	1.05164	-0.528	1.2015	-0.6015	0	177	1026	1
2026-02-12	14:58:44.870	-5.285	-2.485	-6.16	0.073932	-0.04514	1.077016	-0.534	1.2	-0.6	0	177	1026	1
2026-02-12	14:58:44.890	-10.36	10.15	4.76	0.0854	-0.116632	1.092876	-0.537	1.203	-0.597	0	177	1026	1
2026-02-12	14:58:44.910	-3.255	24.535	9.24	0.038308	-0.103212	1.047004	-0.5325	1.2045	-0.5985	0	177	1026	1
2026-02-12	14:58:44.930	4.48	28.525	8.89	0.015372	-0.055632	0.970632	-0.5325	1.197	-0.5955	0	177	1026	1
2026-02-12	14:58:44.950	7.175	26.285	5.81	0.027816	0.000488	0.895724	-0.5295	1.1865	-0.6	0	177	1026	1
2026-02-12	14:58:44.970	11.935	25.06	1.68	0.038308	0.02562	0.899628	-0.519	1.197	-0.609	0	177	1026	1
2026-02-12	14:58:44.990	15.505	21.77	-2.45	0.049776	0.016104	0.924028	-0.513	1.2	-0.609	0	177	1026	1
2026-02-12	14:58:45.010	18.13	19.18	-3.955	0.091988	0.000244	0.933788	-0.5085	1.2	-0.6045	0	178	1032	1
2026-02-12	14:58:45.030	21.14	21.875	-2.835	0.081008	-0.005612	0.96136	-0.4995	1.209	-0.6075	0	178	1032	1
2026-02-12	14:58:45.050	23.87	25.585	-3.115	0.044164	0.030744	0.966972	-0.495	1.1985	-0.6105	0	178	1032	1
2026-02-12	14:58:45.070	22.54	20.895	-6.37	0.02196	0.060268	0.960384	-0.492	1.1865	-0.6105	0	178	1032	1
2026-02-12	14:58:45.090	21.385	16.065	-10.605	0.000732	0.071004	0.950136	-0.4965	1.1925	-0.609	0	178	1032	1
2026-02-12	14:58:45.110	23.24	10.675	-14.385	0.00488	0.048312	0.97234	-0.5025	1.2015	-0.609	0	178	1032	1
2026-02-12	14:58:45.130	28.35	7.105	-18.27	0.00366	0.028304	0.998936	-0.5025	1.2015	-0.609	0	178	1032	1
2026-02-12	14:58:45.150	31.22	3.325	-21.49	0.000244	0.02074	1.031144	-0.489	1.1865	-0.618	0	178	1032	1
2026-02-12	14:58:45.170	31.115	-2.38	-25.865	0.008296	-0.005124	1.055544	-0.489	1.1865	-0.618	0	178	1032	1
2026-02-12	14:58:45.190	27.37	-10.815	-31.885	0.06222	-0.012444	1.09922	-0.498	1.1685	-0.621	0	178	1032	1
2026-02-12	14:58:45.210	20.09	-14.21	-36.61	0.070516	-0.00122	1.108248	-0.4905	1.17	-0.627	0	175	1033	1
2026-02-12	14:58:45.230	5.11	-11.55	-37.065	0.04392	0.013664	1.183156	-0.504	1.164	-0.6225	0	175	1033	1
2026-02-12	14:58:45.250	-11.97	-1.75	-33.53	0.0427	-0.06466	1.201456	-0.5025	1.155	-0.6195	0	175	1033	1
2026-02-12	14:58:45.270	-16.415	6.65	-31.045	0.021716	-0.078324	1.153388	-0.5025	1.173	-0.627	0	175	1033	1
2026-02-12	14:58:45.290	-11.795	7.735	-33.285	-0.026108	-0.020252	1.036024	-0.5025	1.1715	-0.636	0	175	1033	1
2026-02-12	14:58:45.310	-9.24	2.17	-39.445	-0.060024	0.033428	0.945744	-0.498	1.176	-0.624	0	175	1033	1
2026-02-12	14:58:45.330	-10.99	-9.695	-46.34	-0.036844	0.036112	0.880108	-0.4935	1.173	-0.6315	0	175	1033	1
2026-02-12	14:58:45.350	-10.08	-18.41	-51.695	0.037576	-0.002196	0.874984	-0.5115	1.161	-0.618	0	175	1033	1
2026-02-12	14:58:45.370	-3.535	-17.29	-52.85	0.10858	-0.02074	0.959652	-0.525	1.155	-0.6345	0	175	1033	1
2026-02-12	14:58:45.390	1.26	-3.57	-47.425	0.126392	0.003416	1.016748	-0.531	1.1685	-0.6375	0	175	1033	1
2026-02-12	14:58:45.410	-3.535	6.79	-35.875	0.095648	0.07076	0.949892	-0.5235	1.176	-0.645	0	170	1035	1
2026-02-12	14:58:45.430	-9.17	18.2	-24.29	0.050508	0.118096	0.83936	-0.5205	1.164	-0.615	0	170	1035	1
2026-02-12	14:58:45.450	-7.56	29.505	-15.82	-0.000244	0.101016	0.820084	-0.5295	1.164	-0.618	0	170	1035	1
2026-02-12	14:58:45.470	-0.28	37.59	-11.34	-0.062464	0.133468	0.849608	-0.522	1.1595	-0.6225	0	170	1035	1
2026-02-12	14:58:45.490	1.715	34.335	-10.57	-0.132492	0.131272	0.864492	-0.51	1.182	-0.6165	0	170	1035	1
2026-02-12	14:58:45.510	1.75	18.13	-9.345	-0.123708	0.098088	0.89304	-0.501	1.1715	-0.6225	0	170	1035	1
2026-02-12	14:58:45.530	9.59	8.785	-9.345	-0.071004	0.035624	0.935252	-0.507	1.179	-0.6255	0	170	1035	1
2026-02-12	14:58:45.550	23.87	11.2	-7.07	-0.05246	0.08906	0.992348	-0.5175	1.176	-0.6135	0	170	1035	1
2026-02-12	14:58:45.570	25.865	13.09	-0.84	-0.112728	0.114192	1.03578	-0.513	1.1655	-0.618	0	170	1035	1
2026-02-12	14:58:45.590	13.055	9.52	5.005	-0.127612	0.111752	1.112884	-0.5055	1.164	-0.6165	0	170	1035	1
2026-02-12	14:58:45.610	1.19	-1.96	7.91	-0.097356	0.043676	1.074332	-0.4995	1.1775	-0.6285	0	164	1028	1
2026-02-12	14:58:45.630	0.245	-6.02	8.26	-0.083204	-0.011224	1.109224	-0.4965	1.1715	-0.6315	0	164	1028	1
2026-02-12	14:58:45.650	12.565	-7.105	9.205	-0.105164	0.014152	1.127036	-0.4965	1.1775	-0.6285	0	164	1028	1
2026-02-12	14:58:45.670	14.91	-9.695	11.655	-0.137128	0.006588	1.139236	-0.498	1.161	-0.6315	0	164	1028	1
2026-02-12	14:58:45.690	12.74	-10.885	17.045	-0.13176	-0.02074	1.130208	-0.516	1.1655	-0.621	0	164	1028	1
2026-02-12	14:58:45.710	8.155	-7.595	22.96	-0.114192	-0.020008	1.133868	-0.498	1.167	-0.6345	0	164	1028	1
2026-02-12	14:58:45.730	-2.555	-2.835	28.91	-0.061244	-0.08174	1.221708	-0.4965	1.164	-0.6315	0	164	1028	1
2026-02-12	14:58:45.750	-8.96	1.995	35.98	-0.021228	-0.166652	1.305156	-0.504	1.167	-0.6255	0	164	1028	1
2026-02-12	14:58:45.770	-19.285	8.505	42.315	-0.02806	-0.226432	1.26758	-0.492	1.164	-0.639	0	164	1028	1
2026-02-12	14:58:45.790	-24.955	8.435	42.175	-0.075396	-0.13176	1.207068	-0.4965	1.158	-0.621	0	164	1028	1
2026-02-12	14:58:45.810	-21.63	5.88	34.58	-0.100284	-0.08052	0.97112	-0.5055	1.155	-0.6165	0	159	1031	1
2026-02-12	14:58:45.830	-16.94	3.535	30.275	-0.11956	-0.025376	0.86254	-0.4845	1.1835	-0.627	0	159	1031	1
2026-02-12	14:58:45.850	-10.675	3.395	25.865	-0.121024	0.015128	0.74542	-0.4845	1.173	-0.633	0	159	1031	1
2026-02-12	14:58:45.870	-3.64	-3.115	18.41	-0.146156	0.030744	0.669292	-0.489	1.1745	-0.6315	0	159	1031	1
2026-02-12	14:58:45.890	8.995	-11.725	14.98	-0.145912	0.001952	0.735416	-0.4905	1.179	-0.6375	0	159	1031	1
2026-02-12	14:58:45.910	25.27	-13.86	13.545	-0.105652	-0.071736	0.748348	-0.522	1.1775	-0.63	0	159	1031	1
2026-02-12	14:58:45.930	34.86	-18.865	8.19	-0.061488	-0.129564	0.91622	-0.5205	1.182	-0.639	0	159	1031	1
2026-02-12	14:58:45.950	30.345	-29.155	5.775	-0.011224	-0.099796	0.92964	-0.531	1.1955	-0.66	0	159	1031	1
2026-02-12	14:58:45.970	16.065	-27.3	17.535	-0.00854	-0.082472	1.064572	-0.54	1.2075	-0.6705	0	159	1031	1
2026-02-12	14:58:45.990	-7.595	-17.92	27.79	-0.077104	-0.050264	0.962092	-0.5415	1.2135	-0.672	0	159	1031	1
2026-02-12	14:58:46.010	-20.3	-12.67	35.665	-0.060756	0.05734	1.026264	-0.5535	1.185	-0.6705	0	158	1031	1
2026-02-12	14:58:46.030	-19.285	2.31	32.97	-0.09857599	0.108092	0.965996	-0.5535	1.191	-0.663	0	158	1031	1
2026-02-12	14:58:46.050	-14.84	1.995	28.175	-0.12322	0.171044	0.956236	-0.543	1.209	-0.678	0	158	1031	1
2026-02-12	14:58:46.070	-14.49	1.68	21.525	-0.146888	0.156892	0.9455	-0.54	1.2075	-0.675	0	158	1031	1
2026-02-12	14:58:46.090	-11.69	-0.525	14.175	-0.125416	0.127612	0.970632	-0.5505	1.1865	-0.6615	0	158	1031	1
2026-02-12	14:58:46.110	-3.85	0.525	8.26	-0.10858	0.100284	1.063596	-0.54	1.191	-0.669	0	158	1031	1
2026-02-12	14:58:46.130	4.48	2.94	4.9	-0.08295999	0.061488	1.096536	-0.54	1.191	-0.669	0	158	1031	1
2026-02-12	14:58:46.150	10.5	3.045	4.025	-0.056608	0.053436	1.120448	-0.54	1.191	-0.669	0	158	1031	1
2026-02-12	14:58:46.170	17.57	2.94	3.99	-0.047824	0.080764	1.098976	-0.54	1.191	-0.669	0	158	1031	1
2026-02-12	14:58:46.190	26.845	1.155	3.57	-0.030012	0.088572	1.05042	-0.54	1.191	-0.669	0	158	1031	1
2026-02-12	14:58:46.210	33.04	-0.56	2.45	-0.02074	0.07905599	1.062376	-0.531	1.194	-0.6705	0	158	1027	1
2026-02-12	14:58:46.230	38.745	-2.765	0.49	-0.001708	0.065392	1.050908	-0.531	1.194	-0.6705	0	158	1027	1
2026-02-12	14:58:46.250	41.825	-6.86	-1.295	0.000488	0.037088	1.068476	-0.528	1.197	-0.669	0	158	1027	1
2026-02-12	14:58:46.270	40.11	-6.16	-2.66	-0.020496	0.034648	1.151192	-0.5355	1.188	-0.672	0	158	1027	1
2026-02-12	14:58:46.290	30.59	-2.975	-3.71	-0.052704	0.02684	1.22732	-0.5325	1.1925	-0.687	0	158	1027	1
2026-02-12	14:58:46.310	12.915	1.015	-5.32	-0.059292	0.042212	1.246352	-0.5265	1.185	-0.684	0	158	1027	1
2026-02-12	14:58:46.330	-1.82	2.205	-8.54	-0.039284	0.027084	1.155828	-0.54	1.176	-0.678	0	158	1027	1
2026-02-12	14:58:46.350	-0.245	7.805	-14.105	-0.026352	0.048312	1.054324	-0.5355	1.179	-0.684	0	158	1027	1
2026-02-12	14:58:46.370	5.705	8.4	-18.935	-0.027084	0.11102	0.946476	-0.5355	1.191	-0.6825	0	158	1027	1
2026-02-12	14:58:46.390	7.42	5.32	-22.575	-0.025376	0.159576	0.83448	-0.5355	1.1865	-0.687	0	158	1027	1
2026-02-12	14:58:46.410	0.735	-3.955	-24.78	-0.000244	0.125904	0.827404	-0.5325	1.182	-0.687	0	158	1032	1
2026-02-12	14:58:46.430	-2.24	-10.22	-24.01	0.049776	0.043432	0.862052	-0.54	1.1655	-0.6855	0	158	1032	1
2026-02-12	14:58:46.450	0.14	-9.765	-20.335	0.09076799	-0.023668	0.949892	-0.54	1.1685	-0.681	0	158	1032	1
2026-02-12	14:58:46.470	2.975	-6.265	-12.915	0.071492	-0.010004	0.974292	-0.5325	1.1835	-0.6765	0	158	1032	1
2026-02-12	14:58:46.490	-0.42	-7.49	-3.22	0.035136	0.028792	0.957212	-0.534	1.1835	-0.6705	0	158	1032	1
2026-02-12	14:58:46.510	-4.13	-7.035	4.235	-0.008784	0.08295999	0.893772	-0.5415	1.182	-0.675	0	158	1032	1
2026-02-12	14:58:46.530	-6.545	-10.185	9.24	-0.03904	0.127856	0.877668	-0.5415	1.176	-0.6735	0	158	1032	1
2026-02-12	14:58:46.550	-6.93	-10.85	12.005	-0.050264	0.128588	0.851804	-0.555	1.167	-0.702	0	158	1032	1
2026-02-12	14:58:46.570	-6.335	-12.985	14.35	-0.049532	0.122488	0.854488	-0.558	1.1745	-0.6975	0	158	1032	1
2026-02-12	14:58:46.590	-5.18	-10.36	15.505	-0.044896	0.117608	0.896944	-0.5535	1.1835	-0.696	0	158	1032	1
2026-02-12	14:58:46.610	-6.79	-10.675	17.22	-0.039528	0.09638	0.928664	-0.5445	1.188	-0.681	0	157	1030	1
2026-02-12	14:58:46.630	-8.12	-8.715	17.955	-0.035624	0.081008	0.95526	-0.5595	1.1715	-0.6705	0	157	1030	1
2026-02-12	14:58:46.650	-5.39	-4.585	17.29	-0.03904	0.073932	0.985272	-0.5625	1.182	-0.675	0	157	1030	1
2026-02-12	14:58:46.670	-3.22	-0.35	15.575	-0.044652	0.097112	1.01748	-0.558	1.182	-0.672	0	157	1030	1
2026-02-12	14:58:46.690	-4.445	-1.855	14.21	-0.034648	0.097112	1.017724	-0.549	1.179	-0.6795	0	157	1030	1
2026-02-12	14:58:46.710	-4.69	-4.305	12.81	-0.018788	0.060512	1.031632	-0.5445	1.1955	-0.681	0	157	1030	1
2026-02-12	14:58:46.730	0.175	-5.915	11.76	0.008296	0.024888	1.075064	-0.5475	1.1895	-0.699	0	157	1030	1
2026-02-12	14:58:46.750	4.62	-5.11	11.76	0.022692	0.00366	1.134356	-0.5505	1.191	-0.6975	0	157	1030	1
2026-02-12	14:58:46.770	7.455	-5.74	13.65	0.029768	0.018544	1.142164	-0.5565	1.188	-0.6915	0	157	1030	1
2026-02-12	14:58:46.790	3.64	-8.785	16.415	0.032696	0.032208	1.138016	-0.546	1.209	-0.687	0	157	1030	1
2026-02-12	14:58:46.810	0.98	-11.095	18.83	0.041724	0.033184	1.130696	-0.5415	1.197	-0.6885	0	156	1024	1
2026-02-12	14:58:46.830	-0.035	-10.955	20.65	0.03172	0.08052	1.160952	-0.537	1.1925	-0.681	0	156	1024	1
2026-02-12	14:58:46.850	-10.15	-12.145	22.47	0.008296	0.078324	1.194136	-0.5505	1.203	-0.681	0	156	1024	1
2026-02-12	14:58:46.870	-24.08	-12.215	24.535	0.012932	0.003904	1.173152	-0.543	1.2075	-0.6735	0	156	1024	1
2026-02-12	14:58:46.890	-24.955	-6.86	26.32	0.021228	-0.03904	1.08946	-0.5565	1.197	-0.6795	0	156	1024	1
2026-02-12	14:58:46.910	-12.495	6.37	26.915	0.00732	0.026108	1.006744	-0.549	1.206	-0.669	0	156	1024	1
2026-02-12	14:58:46.930	-10.185	7.98	28.875	-0.011712	0.067588	0.945012	-0.549	1.2	-0.6735	0	156	1024	1
2026-02-12	14:58:46.950	-15.015	1.54	31.08	0.007076	0.02684	0.91012	-0.5445	1.191	-0.669	0	156	1024	1
2026-02-12	14:58:46.970	-16.345	-9.45	33.95	0.049044	-0.066124	0.914268	-0.555	1.1955	-0.657	0	156	1024	1
2026-02-12	14:58:46.990	-6.72	-13.825	36.89	0.062464	-0.116144	0.977952	-0.555	1.197	-0.6555	0	156	1024	1
2026-02-12	14:58:47.010	6.055	-9.625	38.465	0.034404	-0.095892	1.029924	-0.5385	1.2135	-0.669	0	153	1030	1
2026-02-12	14:58:47.030	5.46	-10.15	40.565	0.0061	-0.041236	1.041148	-0.5445	1.2165	-0.6855	0	153	1030	1
2026-02-12	14:58:47.050	-5.215	-14.665	41.58	0.007564	-0.03538	0.984784	-0.549	1.197	-0.684	0	153	1030	1
2026-02-12	14:58:47.070	-5.075	-13.09	39.445	0.00854	-0.02074	0.944768	-0.5505	1.2225	-0.6855	0	153	1030	1
2026-02-12	14:58:47.090	2.59	-6.825	35.98	-0.019032	0.04636	0.905728	-0.588	1.179	-0.6525	0	153	1030	1
2026-02-12	14:58:47.110	6.825	-2.94	32.34	-0.055632	0.115656	0.867664	-0.5355	1.215	-0.6795	0	153	1030	1
2026-02-12	14:58:47.130	4.375	-2.135	29.085	-0.050752	0.119316	0.914268	-0.5355	1.218	-0.675	0	153	1030	1
2026-02-12	14:58:47.150	3.675	-1.19	25.375	-0.012688	0.07515199	0.946476	-0.5295	1.2165	-0.669	0	153	1030	1
2026-02-12	14:58:47.170	6.615	2.345	22.435	0.011712	0.055632	0.994056	-0.561	1.1595	-0.651	0	153	1030	1
2026-02-12	14:58:47.190	8.68	4.585	20.265	0.018056	0.042944	1.0309	-0.5355	1.2045	-0.6645	0	153	1030	1
2026-02-12	14:58:47.210	8.4	3.115	17.465	0.003416	0.047824	1.060668	-0.5385	1.2	-0.6615	0	149	1032	1
2026-02-12	14:58:47.230	6.58	0	12.88	-0.004636	0.050508	1.045784	-0.534	1.215	-0.669	0	149	1032	1
2026-02-12	14:58:47.250	5.845	-4.27	7.525	0.007564	0.073688	1.042856	-0.5295	1.2195	-0.669	0	149	1032	1
2026-02-12	14:58:47.270	6.545	-8.015	3.745	0.016592	0.094184	1.03456	-0.5265	1.224	-0.669	0	149	1032	1
2026-02-12	14:58:47.290	8.085	-11.83	0.42	0.040748	0.103456	1.036268	-0.5265	1.2195	-0.6645	0	149	1032	1
2026-02-12	14:58:47.310	9.555	-16.73	-2.835	0.078812	0.072468	1.055056	-0.531	1.209	-0.6675	0	149	1032	1
2026-02-12	14:58:47.330	10.01	-18.97	-4.2	0.099064	0.034892	1.071892	-0.5325	1.203	-0.669	0	149	1032	1
2026-02-12	14:58:47.350	7.105	-18.375	-4.235	0.087108	0.015616	1.10166	-0.5295	1.206	-0.666	0	149	1032	1
2026-02-12	14:58:47.370	-2.485	-14.805	-4.48	0.071736	-0.022936	1.134844	-0.534	1.209	-0.6675	0	149	1032	1
2026-02-12	14:58:47.390	-12.495	-7.21	-5.32	0.068808	-0.040992	1.13704	-0.54	1.209	-0.6675	0	149	1032	1
2026-02-12	14:58:47.410	-20.37	4.165	-7.56	0.066612	-0.0244	1.1224	-0.5445	1.212	-0.669	0	144	1034	1
2026-02-12	14:58:47.430	-27.37	14.525	-10.815	0.083936	-0.011468	1.096292	-0.546	1.212	-0.6675	0	144	1034	1
2026-02-12	14:58:47.450	-33.075	18.97	-13.265	0.122	-0.021716	1.059692	-0.5565	1.1955	-0.6585	0	144	1034	1
2026-02-12	14:58:47.470	-36.12	20.44	-13.86	0.142252	-0.010004	0.992836	-0.5535	1.209	-0.654	0	144	1034	1
2026-02-12	14:58:47.490	-34.895	19.145	-13.79	0.140544	0.005368	0.91622	-0.537	1.2285	-0.6555	0	144	1034	1
2026-02-12	14:58:47.510	-28.28	17.045	-14.735	0.138104	0.006832	0.876936	-0.5355	1.2315	-0.654	0	144	1034	1
2026-02-12	14:58:47.530	-17.815	15.295	-16.835	0.134688	-0.016592	0.88206	-0.54	1.2315	-0.648	0	144	1034	1
2026-02-12	14:58:47.550	-8.925	11.9	-17.92	0.127856	-0.04026	0.927688	-0.537	1.227	-0.6405	0	144	1034	1
2026-02-12	14:58:47.570	-4.41	8.33	-17.675	0.107116	-0.053192	0.9577	-0.534	1.233	-0.6435	0	144	1034	1
2026-02-12	14:58:47.590	-3.43	4.935	-16.17	0.0915	-0.067588	0.988932	-0.537	1.2375	-0.648	0	144	1034	1
2026-02-12	14:58:47.610	-2.485	4.025	-14.35	0.068564	-0.0549	0.984784	-0.5355	1.242	-0.639	0	139	1036	1
2026-02-12	14:58:47.630	-1.365	4.13	-12.845	0.053436	-0.039772	0.981368	-0.5355	1.242	-0.639	0	139	1036	1
2026-02-12	14:58:47.650	0.14	4.55	-12.215	0.043432	-0.015616	0.967704	-0.546	1.2315	-0.6255	0	139	1036	1
2026-02-12	14:58:47.670	1.19	4.62	-12.32	0.039772	0.02196	0.942328	-0.5565	1.2255	-0.633	0	139	1036	1
2026-02-12	14:58:47.690	2.87	4.83	-12.635	0.045872	0.052948	0.932812	-0.558	1.2345	-0.63	0	139	1036	1
2026-02-12	14:58:47.710	4.9	4.62	-11.865	0.055632	0.053924	0.945012	-0.537	1.2465	-0.636	0	139	1036	1
2026-02-12	14:58:47.730	6.02	6.16	-9.625	0.050264	0.049288	0.968436	-0.5385	1.2345	-0.6405	0	139	1036	1
2026-02-12	14:58:47.750	6.615	7.175	-6.125	0.040016	0.03416	0.977952	-0.543	1.2375	-0.645	0	139	1036	1
2026-02-12	14:58:47.770	7.385	8.855	-3.185	0.022204	0.042944	1.00406	-0.543	1.2495	-0.633	0	139	1036	1
2026-02-12	14:58:47.790	6.86	9.135	-1.085	0.01586	0.033184	1.037	-0.54	1.2435	-0.6495	0	139	1036	1
2026-02-12	14:58:47.810	4.55	7.175	1.435	0.0244	0.019764	1.053348	-0.534	1.2435	-0.642	0	133	1032	1
2026-02-12	14:58:47.830	1.995	4.9	4.34	0.024888	-0.016836	1.06628	-0.5325	1.2435	-0.6525	0	133	1032	1
2026-02-12	14:58:47.850	0.805	3.57	6.965	0.00488	-0.039772	1.080188	-0.54	1.236	-0.6315	0	133	1032	1
2026-02-12	14:58:47.870	0.035	1.89	9.065	-0.0183	-0.075884	1.094584	-0.537	1.236	-0.639	0	133	1032	1
2026-02-12	14:58:47.890	0.56	0.28	10.465	-0.024888	-0.08295999	1.080188	-0.528	1.2315	-0.6405	0	133	1032	1
2026-02-12	14:58:47.910	1.435	-0.945	11.27	-0.030256	-0.075396	1.0614	-0.537	1.2495	-0.6465	0	133	1032	1
2026-02-12	14:58:47.930	3.885	-2.94	11.585	-0.029768	-0.07076	1.047492	-0.537	1.23	-0.627	0	133	1032	1
2026-02-12	14:58:47.950	3.325	-5.53	11.165	-0.026352	-0.105164	1.07482	-0.531	1.2435	-0.6345	0	133	1032	1
2026-02-12	14:58:47.970	4.55	-8.26	10.955	-0.019032	-0.133956	1.126792	-0.5355	1.2315	-0.633	0	133	1032	1
2026-02-12	14:58:47.990	2.625	-8.365	11.235	-0.00854	-0.174216	1.189988	-0.54	1.2255	-0.6375	0	133	1032	1
2026-02-12	14:58:48.010	-1.085	-9.275	13.335	0.00732	-0.183	1.181936	-0.5295	1.2555	-0.642	0	128	1033	1
2026-02-12	14:58:48.030	-5.6	-9.59	16.1	0.000732	-0.132004	1.081408	-0.5295	1.2495	-0.639	0	128	1033	1
2026-02-12	14:58:48.050	-6.685	-9.975	18.095	0.000244	-0.087596	0.955748	-0.537	1.2315	-0.6255	0	128	1033	1
2026-02-12	14:58:48.070	-5.32	-9.555	18.235	-0.01586	-0.072712	0.86376	-0.534	1.245	-0.6375	0	128	1033	1
2026-02-12	14:58:48.090	0	-8.225	17.08	-0.016348	-0.067832	0.85522	-0.5505	1.2255	-0.6495	0	128	1033	1
2026-02-12	14:58:48.110	5.18	-8.82	16.205	-0.031964	-0.087352	0.9028	-0.5505	1.218	-0.648	0	128	1033	1
2026-02-12	14:58:48.130	7.63	-8.925	15.82	-0.049532	-0.127124	0.959652	-0.546	1.236	-0.651	0	128	1033	1
2026-02-12	14:58:48.150	7.945	-6.79	16.485	-0.047092	-0.114192	1.014796	-0.54	1.2315	-0.6315	0	128	1033	1
2026-02-12	14:58:48.170	5.81	-4.935	18.34	-0.041724	-0.084912	1.016748	-0.5475	1.2135	-0.6255	0	128	1033	1
2026-02-12	14:58:48.190	1.155	-4.935	21.21	-0.032208	-0.057828	0.983564	-0.54	1.239	-0.6315	0	128	1033	1
2026-02-12	14:58:48.210	-0.805	-4.76	23.415	-0.035868	-0.007076	0.93452	-0.5385	1.2435	-0.624	0	124	1036	1
2026-02-12	14:58:48.230	0.385	-4.06	23.87	-0.036356	0.024888	0.911828	-0.5295	1.227	-0.627	0	124	1036	1
2026-02-12	14:58:48.250	4.095	-4.375	23.555	-0.034648	0.049776	0.906704	-0.5205	1.2615	-0.63	0	124	1036	1
2026-02-12	14:58:48.270	6.86	-4.305	22.225	-0.028792	0.052704	0.931836	-0.525	1.2495	-0.642	0	124	1036	1
2026-02-12	14:58:48.290	8.785	-4.445	20.475	-0.030988	0.039528	0.970144	-0.525	1.2495	-0.642	0	124	1036	1
2026-02-12	14:58:48.310	9.275	-3.15	18.27	-0.022204	0.021472	1.026508	-0.5265	1.239	-0.633	0	124	1036	1
2026-02-12	14:58:48.330	8.47	-2.555	16.555	-0.020984	-0.00732	1.048712	-0.528	1.2285	-0.6255	0	124	1036	1
2026-02-12	14:58:48.350	6.335	-1.225	14.63	-0.020252	-0.028304	1.074332	-0.5235	1.242	-0.6285	0	124	1036	1
2026-02-12	14:58:48.370	4.62	0.49	11.655	-0.017324	-0.022936	1.10654	-0.5205	1.254	-0.636	0	124	1036	1
2026-02-12	14:58:48.390	2.17	1.61	7.945	-0.010492	-0.017812	1.081408	-0.5235	1.2435	-0.63	0	124	1036	1
2026-02-12	14:58:48.410	2.135	1.365	3.185	0.00366	-0.006588	1.059204	-0.522	1.2405	-0.624	0	121	1034	1
2026-02-12	14:58:48.430	2.975	0.42	-2.38	0.024156	-0.026108	1.043344	-0.5205	1.2405	-0.63	0	121	1034	1
