yyyy-MM-dd	HH:mm:ss.fff	gyrX	gyrY	gyrZ	accX	accY	accZ	magX	magY	magZ	Marker	Energy	Angle	Classification
2026-02-12	14:58:15.210	3.395	-0.595	-11.865	0.742004	0.437004	0.548512	-0.0495	-0.207	0.2295	0	24	606	1
2026-02-12	14:58:15.230	3.045	-2.52	-10.08	0.753228	0.439444	0.560468	-0.0525	-0.2205	0.2295	0	24	606	1
2026-02-12	14:58:15.250	2.66	-3.955	-8.33	0.750056	0.431636	0.56608	-0.0615	-0.2085	0.222	0	24	606	1
2026-02-12	14:58:15.270	2.73	-5.04	-6.58	0.742492	0.420168	0.563884	-0.06	-0.213	0.234	0	24	606	1
2026-02-12	14:58:15.290	3.255	-6.09	-4.97	0.740296	0.408944	0.573156	-0.0495	-0.2145	0.2295	0	24	606	1
2026-02-12	14:58:15.310	2.87	-7.035	-4.06	0.743224	0.406992	0.564616	-0.0585	-0.2115	0.2265	0	24	606	1
2026-02-12	14:58:15.330	3.15	-7.735	-3.85	0.738344	0.41968	0.549	-0.051	-0.2145	0.228	0	24	606	1
2026-02-12	14:58:15.350	4.515	-8.19	-4.025	0.736636	0.426512	0.546804	-0.0525	-0.222	0.234	0	24	606	1
2026-02-12	14:58:15.370	5.425	-8.96	-4.76	0.728096	0.427488	0.529724	-0.0525	-0.21	0.2325	0	24	606	1
2026-02-12	14:58:15.390	4.97	-9.87	-6.125	0.72956	0.427976	0.529724	-0.0525	-0.21	0.234	0	24	606	1
2026-02-12	14:58:15.410	5.355	-10.71	-8.015	0.739564	0.419436	0.53436	-0.0525	-0.219	0.237	0	25	596	1
2026-02-12	14:58:15.430	3.22	-11.375	-10.465	0.743956	0.426512	0.526552	-0.0495	-0.213	0.234	0	25	596	1
2026-02-12	14:58:15.450	1.33	-11.305	-13.3	0.732976	0.433588	0.519476	-0.0495	-0.213	0.234	0	25	596	1
2026-02-12	14:58:15.470	0.455	-11.06	-15.575	0.736148	0.44652	0.505812	-0.0525	-0.2175	0.2325	0	25	596	1
2026-02-12	14:58:15.490	-1.19	-11.585	-17.745	0.739564	0.454572	0.490928	-0.0495	-0.2265	0.234	0	25	596	1
2026-02-12	14:58:15.510	-1.435	-12.11	-19.565	0.740784	0.471408	0.483608	-0.045	-0.2295	0.2385	0	25	596	1
2026-02-12	14:58:15.530	-1.365	-12.25	-20.51	0.741028	0.478972	0.486048	-0.0465	-0.2295	0.2385	0	25	596	1
2026-02-12	14:58:15.550	-1.05	-12.075	-20.475	0.736636	0.49166	0.4819	-0.039	-0.228	0.237	0	25	596	1
2026-02-12	14:58:15.570	-0.63	-11.83	-19.46	0.74054	0.497028	0.488	-0.0435	-0.2235	0.249	0	25	596	1
2026-02-12	14:58:15.590	-0.945	-11.41	-18.025	0.741028	0.499224	0.47946	-0.0465	-0.234	0.243	0	25	596	1
2026-02-12	14:58:15.610	-0.42	-10.64	-16.905	0.7381	0.498492	0.477508	-0.0405	-0.237	0.2445	0	27	582	1
2026-02-12	14:58:15.630	0.49	-9.8	-16.065	0.733708	0.50264	0.485072	-0.039	-0.2295	0.2505	0	27	582	1
2026-02-12	14:58:15.650	0.315	-9.24	-15.015	0.740296	0.492636	0.487756	-0.039	-0.2355	0.2445	0	27	582	1
2026-02-12	14:58:15.670	-0.525	-8.785	-13.58	0.742492	0.483852	0.495076	-0.036	-0.2355	0.2535	0	27	582	1
2026-02-12	14:58:15.690	-0.91	-7.735	-12.075	0.736392	0.493368	0.49044	-0.03	-0.237	0.2475	0	27	582	1
2026-02-12	14:58:15.710	-2.1	-6.265	-9.905	0.736392	0.49898	0.47702	-0.036	-0.237	0.2475	0	27	582	1
2026-02-12	14:58:15.730	-3.045	-5.425	-9.135	0.73688	0.509716	0.468724	-0.0315	-0.237	0.249	0	27	582	1
2026-02-12	14:58:15.750	-3.605	-4.445	-8.715	0.733464	0.507032	0.467016	-0.033	-0.24	0.2505	0	27	582	1
2026-02-12	14:58:15.770	-2.975	-2.835	-8.19	0.729804	0.500688	0.4575	-0.033	-0.24	0.2505	0	27	582	1
2026-02-12	14:58:15.790	-3.045	-1.575	-7.84	0.72956	0.516548	0.444568	-0.03	-0.2415	0.2445	0	27	582	1
2026-02-12	14:58:15.810	-3.01	-1.085	-7.7	0.729072	0.527528	0.443348	-0.036	-0.243	0.2475	0	29	564	1
2026-02-12	14:58:15.830	-3.5	-1.12	-7.875	0.728584	0.54046	0.44164	-0.0345	-0.24	0.2505	0	29	564	1
2026-02-12	14:58:15.850	-3.955	-1.435	-8.33	0.732732	0.542412	0.447984	-0.024	-0.234	0.243	0	29	564	1
2026-02-12	14:58:15.870	-4.025	-1.68	-8.435	0.732976	0.535092	0.463112	-0.018	-0.2385	0.2415	0	29	564	1
2026-02-12	14:58:15.890	-4.375	-1.715	-7.84	0.734684	0.523868	0.466772	-0.024	-0.2445	0.2445	0	29	564	1
2026-02-12	14:58:15.910	-4.76	-1.505	-6.895	0.73932	0.521916	0.459696	-0.024	-0.243	0.243	0	29	564	1
2026-02-12	14:58:15.930	-4.27	-1.435	-5.74	0.73688	0.532652	0.460672	-0.018	-0.2445	0.2445	0	29	564	1
2026-02-12	14:58:15.950	-3.57	-1.505	-4.34	0.739076	0.534848	0.465064	-0.015	-0.246	0.249	0	29	564	1
2026-02-12	14:58:15.970	-2.695	-0.91	-3.045	0.734196	0.5368	0.462624	-0.024	-0.2385	0.2475	0	29	564	1
2026-02-12	14:58:15.990	-1.785	0.035	-1.085	0.725656	0.528992	0.459208	-0.0315	-0.234	0.2445	0	29	564	1
2026-02-12	14:58:16.010	-1.19	0.77	0.14	0.725168	0.527772	0.461892	-0.021	-0.2385	0.2415	0	32	542	1
2026-02-12	14:58:16.030	-0.875	1.05	1.33	0.730048	0.525576	0.462136	-0.0195	-0.2385	0.2475	0	32	542	1
2026-02-12	14:58:16.050	-0.175	1.12	2.17	0.728828	0.528748	0.470188	-0.027	-0.24	0.2415	0	32	542	1
2026-02-12	14:58:16.070	0.805	1.225	2.415	0.729072	0.53314	0.476532	-0.027	-0.2355	0.2415	0	32	542	1
2026-02-12	14:58:16.090	1.33	1.365	2.31	0.724436	0.52582	0.472384	-0.0225	-0.2385	0.2475	0	32	542	1
2026-02-12	14:58:16.110	1.225	1.225	2.275	0.724192	0.522404	0.465796	-0.021	-0.24	0.243	0	32	542	1
2026-02-12	14:58:16.130	1.12	0.665	2.17	0.727364	0.526308	0.467504	-0.024	-0.2415	0.243	0	32	542	1
2026-02-12	14:58:16.150	1.19	0.035	2.1	0.724436	0.520208	0.47702	-0.027	-0.246	0.246	0	32	542	1
2026-02-12	14:58:16.170	1.435	-0.42	1.96	0.721508	0.518988	0.473848	-0.0255	-0.246	0.2445	0	32	542	1
2026-02-12	14:58:16.190	1.715	-0.77	1.645	0.720776	0.52216	0.468968	-0.024	-0.2415	0.246	0	32	542	1
2026-02-12	14:58:14.210	-0.35	-3.535	-11.795	0.72468	0.404064	0.57828	-0.057	-0.2085	0.2055	0	19	608	1
2026-02-12	14:58:14.230	-0.455	-3.15	-13.09	0.715408	0.414312	0.58316	-0.06	-0.2085	0.2025	0	19	608	1
2026-02-12	14:58:14.250	-1.085	-1.715	-14.105	0.70028	0.412116	0.588528	-0.051	-0.204	0.207	0	19	608	1
2026-02-12	14:58:14.270	-1.54	0.315	-14.63	0.694668	0.412116	0.586332	-0.0585	-0.213	0.1935	0	19	608	1
2026-02-12	14:58:14.290	-1.68	1.89	-14.175	0.706624	0.409676	0.59414	-0.0465	-0.207	0.1995	0	19	608	1
2026-02-12	14:58:14.310	-1.155	3.115	-12.355	0.723216	0.410652	0.595604	-0.0495	-0.2115	0.1995	0	19	608	1
2026-02-12	14:58:14.330	-0.175	4.165	-9.31	0.732244	0.415288	0.599264	-0.051	-0.2175	0.2025	0	19	608	1
2026-02-12	14:58:14.350	2.065	5.18	-5.425	0.714676	0.418216	0.608292	-0.048	-0.2175	0.2055	0	19	608	1
2026-02-12	14:58:14.370	4.2	5.25	2.555	0.704916	0.421876	0.630252	-0.048	-0.213	0.195	0	19	608	1
2026-02-12	14:58:14.390	1.715	4.935	8.085	0.710772	0.406504	0.613416	-0.048	-0.213	0.195	0	19	608	1
2026-02-12	14:58:14.410	1.75	4.34	12.285	0.709064	0.39894	0.609024	-0.0525	-0.204	0.1965	0	21	607	1
2026-02-12	14:58:14.430	2.695	3.29	14.945	0.704184	0.406992	0.629276	-0.0555	-0.2055	0.204	0	21	607	1
2026-02-12	14:58:14.450	1.61	2.17	15.715	0.701256	0.398452	0.634644	-0.0465	-0.2085	0.201	0	21	607	1
2026-02-12	14:58:14.470	-1.435	1.19	15.085	0.697596	0.398452	0.615124	-0.0555	-0.2115	0.195	0	21	607	1
2026-02-12	14:58:14.490	-3.22	0.63	13.86	0.693204	0.385764	0.589992	-0.0555	-0.2115	0.198	0	21	607	1
2026-02-12	14:58:14.510	-3.57	0.63	12.67	0.703208	0.37942	0.591944	-0.0495	-0.2055	0.201	0	21	607	1
2026-02-12	14:58:14.530	-2.555	-0.105	12.075	0.716628	0.384544	0.611708	-0.054	-0.2085	0.1965	0	21	607	1
2026-02-12	14:58:14.550	-2.485	-1.19	12.285	0.715896	0.387228	0.61732	-0.054	-0.204	0.201	0	21	607	1
2026-02-12	14:58:14.570	-2.975	-1.925	12.74	0.724436	0.373808	0.621468	-0.06	-0.204	0.195	0	21	607	1
2026-02-12	14:58:14.590	-2.94	-2.835	12.915	0.720044	0.369904	0.622688	-0.0555	-0.201	0.198	0	21	607	1
2026-02-12	14:58:14.610	-3.325	-3.57	12.355	0.721508	0.35014	0.620248	-0.06	-0.192	0.2055	0	22	609	1
2026-02-12	14:58:14.630	-4.445	-4.095	10.045	0.71736	0.367464	0.609268	-0.0645	-0.1995	0.207	0	22	609	1
2026-02-12	14:58:14.650	-5.18	-4.06	6.615	0.704672	0.379176	0.581452	-0.0615	-0.1995	0.2025	0	22	609	1
2026-02-12	14:58:14.670	-4.27	-4.865	3.64	0.704672	0.37454	0.578036	-0.063	-0.1965	0.2025	0	22	609	1
2026-02-12	14:58:14.690	-2.87	-5.425	0.945	0.709796	0.368196	0.604388	-0.069	-0.195	0.204	0	22	609	1
2026-02-12	14:58:14.710	-1.75	-5.285	-0.77	0.715652	0.365512	0.606584	-0.0675	-0.192	0.2025	0	22	609	1
2026-02-12	14:58:14.730	-1.645	-5.25	-1.61	0.723948	0.382348	0.601216	-0.0675	-0.1965	0.198	0	22	609	1
2026-02-12	14:58:14.750	-0.7	-6.16	-2.03	0.72834	0.38064	0.589504	-0.0675	-0.1965	0.198	0	22	609	1
2026-02-12	14:58:14.770	1.575	-7.525	-2.45	0.719312	0.37698	0.6039	-0.069	-0.192	0.201	0	22	609	1
2026-02-12	14:58:14.790	1.995	-8.61	-2.87	0.721752	0.367464	0.61244	-0.072	-0.192	0.201	0	22	609	1
2026-02-12	14:58:14.810	0.63	-8.68	-3.71	0.72956	0.379908	0.593408	-0.069	-0.1905	0.201	0	23	611	1
2026-02-12	14:58:14.830	-0.105	-8.365	-5.18	0.722484	0.369904	0.585844	-0.0645	-0.1935	0.204	0	23	611	1
2026-02-12	14:58:14.850	1.785	-7.91	-6.16	0.7137	0.382592	0.58072	-0.066	-0.198	0.2085	0	23	611	1
2026-02-12	14:58:14.870	2.87	-8.575	-6.265	0.73078	0.3843	0.57584	-0.066	-0.1995	0.21	0	23	611	1
2026-02-12	14:58:14.890	4.165	-9.87	-5.495	0.748836	0.386252	0.582672	-0.066	-0.1995	0.213	0	23	611	1
2026-02-12	14:58:14.910	9.38	-10.535	-3.465	0.726876	0.385276	0.594628	-0.069	-0.1995	0.2145	0	23	611	1
2026-02-12	14:58:14.930	11.445	-11.27	-2.66	0.729072	0.382836	0.61488	-0.0645	-0.1965	0.213	0	23	611	1
2026-02-12	14:58:14.950	8.995	-12.005	-2.8	0.73688	0.373076	0.61488	-0.0675	-0.1965	0.21	0	23	611	1
2026-02-12	14:58:14.970	6.895	-11.165	-3.99	0.742248	0.35624	0.581452	-0.072	-0.1965	0.213	0	23	611	1
2026-02-12	14:58:14.990	7.21	-9.275	-5.81	0.736148	0.358436	0.564128	-0.069	-0.1935	0.2175	0	23	611	1
2026-02-12	14:58:15.010	7.21	-8.015	-7.42	0.742004	0.369172	0.54046	-0.0675	-0.1965	0.216	0	24	611	1
2026-02-12	14:58:15.030	7.385	-7.14	-8.715	0.738588	0.39284	0.532164	-0.069	-0.198	0.219	0	24	611	1
2026-02-12	14:58:15.050	6.895	-6.195	-9.555	0.733952	0.414312	0.534604	-0.0705	-0.201	0.222	0	24	611	1
2026-02-12	14:58:15.070	4.865	-5.145	-9.835	0.734928	0.423828	0.541436	-0.0615	-0.2025	0.2235	0	24	611	1
2026-02-12	14:58:15.090	2.765	-3.85	-9.94	0.740052	0.414556	0.553636	-0.057	-0.1965	0.222	0	24	611	1
2026-02-12	14:58:15.110	2.975	-1.435	-10.36	0.74542	0.396256	0.560712	-0.0645	-0.2025	0.222	0	24	611	1
2026-02-12	14:58:15.130	3.71	0.91	-11.06	0.742248	0.39406	0.549244	-0.066	-0.213	0.2235	0	24	611	1
2026-02-12	14:58:15.150	3.43	1.435	-11.865	0.742004	0.405772	0.534116	-0.0645	-0.2115	0.2235	0	24	611	1
2026-02-12	14:58:15.170	2.45	1.54	-12.915	0.73322	0.40992	0.534848	-0.0645	-0.2085	0.2235	0	24	611	1
2026-02-12	14:58:15.190	2.975	1.05	-12.88	0.730536	0.425048	0.531188	-0.0645	-0.2085	0.2235	0	24	611	1
2026-02-12	14:58:15.210	3.395	-0.595	-11.865	0.742004	0.437004	0.548512	-0.0495	-0.207	0.2295	0	24	606	1
2026-02-12	14:58:15.230	3.045	-2.52	-10.08	0.753228	0.439444	0.560468	-0.0525	-0.2205	0.2295	0	24	606	1
2026-02-12	14:58:15.250	2.66	-3.955	-8.33	0.750056	0.431636	0.56608	-0.0615	-0.2085	0.222	0	24	606	1
2026-02-12	14:58:15.270	2.73	-5.04	-6.58	0.742492	0.420168	0.563884	-0.06	-0.213	0.234	0	24	606	1
2026-02-12	14:58:15.290	3.255	-6.09	-4.97	0.740296	0.408944	0.573156	-0.0495	-0.2145	0.2295	0	24	606	1
2026-02-12	14:58:15.310	2.87	-7.035	-4.06	0.743224	0.406992	0.564616	-0.0585	-0.2115	0.2265	0	24	606	1
2026-02-12	14:58:15.330	3.15	-7.735	-3.85	0.738344	0.41968	0.549	-0.051	-0.2145	0.228	0	24	606	1
2026-02-12	14:58:15.350	4.515	-8.19	-4.025	0.736636	0.426512	0.546804	-0.0525	-0.222	0.234	0	24	606	1
2026-02-12	14:58:15.370	5.425	-8.96	-4.76	0.728096	0.427488	0.529724	-0.0525	-0.21	0.2325	0	24	606	1
2026-02-12	14:58:15.390	4.97	-9.87	-6.125	0.72956	0.427976	0.529724	-0.0525	-0.21	0.234	0	24	606	1
2026-02-12	14:58:15.410	5.355	-10.71	-8.015	0.739564	0.419436	0.53436	-0.0525	-0.219	0.237	0	25	596	1
2026-02-12	14:58:15.430	3.22	-11.375	-10.465	0.743956	0.426512	0.526552	-0.0495	-0.213	0.234	0	25	596	1
2026-02-12	14:58:15.450	1.33	-11.305	-13.3	0.732976	0.433588	0.519476	-0.0495	-0.213	0.234	0	25	596	1
2026-02-12	14:58:15.470	0.455	-11.06	-15.575	0.736148	0.44652	0.505812	-0.0525	-0.2175	0.2325	0	25	596	1
2026-02-12	14:58:15.490	-1.19	-11.585	-17.745	0.739564	0.454572	0.490928	-0.0495	-0.2265	0.234	0	25	596	1
2026-02-12	14:58:15.510	-1.435	-12.11	-19.565	0.740784	0.471408	0.483608	-0.045	-0.2295	0.2385	0	25	596	1
2026-02-12	14:58:15.530	-1.365	-12.25	-20.51	0.741028	0.478972	0.486048	-0.0465	-0.2295	0.2385	0	25	596	1
2026-02-12	14:58:15.550	-1.05	-12.075	-20.475	0.736636	0.49166	0.4819	-0.039	-0.228	0.237	0	25	596	1
2026-02-12	14:58:15.570	-0.63	-11.83	-19.46	0.74054	0.497028	0.488	-0.0435	-0.2235	0.249	0	25	596	1
2026-02-12	14:58:15.590	-0.945	-11.41	-18.025	0.741028	0.499224	0.47946	-0.0465	-0.234	0.243	0	25	596	1
2026-02-12	14:58:15.610	-0.42	-10.64	-16.905	0.7381	0.498492	0.477508	-0.0405	-0.237	0.2445	0	27	582	1
2026-02-12	14:58:15.630	0.49	-9.8	-16.065	0.733708	0.50264	0.485072	-0.039	-0.2295	0.2505	0	27	582	1
2026-02-12	14:58:15.650	0.315	-9.24	-15.015	0.740296	0.492636	0.487756	-0.039	-0.2355	0.2445	0	27	582	1
2026-02-12	14:58:15.670	-0.525	-8.785	-13.58	0.742492	0.483852	0.495076	-0.036	-0.2355	0.2535	0	27	582	1
2026-02-12	14:58:15.690	-0.91	-7.735	-12.075	0.736392	0.493368	0.49044	-0.03	-0.237	0.2475	0	27	582	1
2026-02-12	14:58:15.710	-2.1	-6.265	-9.905	0.736392	0.49898	0.47702	-0.036	-0.237	0.2475	0	27	582	1
2026-02-12	14:58:15.730	-3.045	-5.425	-9.135	0.73688	0.509716	0.468724	-0.0315	-0.237	0.249	0	27	582	1
2026-02-12	14:58:15.750	-3.605	-4.445	-8.715	0.733464	0.507032	0.467016	-0.033	-0.24	0.2505	0	27	582	1
2026-02-12	14:58:15.770	-2.975	-2.835	-8.19	0.729804	0.500688	0.4575	-0.033	-0.24	0.2505	0	27	582	1
2026-02-12	14:58:15.790	-3.045	-1.575	-7.84	0.72956	0.516548	0.444568	-0.03	-0.2415	0.2445	0	27	582	1
2026-02-12	14:58:15.810	-3.01	-1.085	-7.7	0.729072	0.527528	0.443348	-0.036	-0.243	0.2475	0	29	564	1
2026-02-12	14:58:15.830	-3.5	-1.12	-7.875	0.728584	0.54046	0.44164	-0.0345	-0.24	0.2505	0	29	564	1
2026-02-12	14:58:15.850	-3.955	-1.435	-8.33	0.732732	0.542412	0.447984	-0.024	-0.234	0.243	0	29	564	1
2026-02-12	14:58:15.870	-4.025	-1.68	-8.435	0.732976	0.535092	0.463112	-0.018	-0.2385	0.2415	0	29	564	1
2026-02-12	14:58:15.890	-4.375	-1.715	-7.84	0.734684	0.523868	0.466772	-0.024	-0.2445	0.2445	0	29	564	1
2026-02-12	14:58:15.910	-4.76	-1.505	-6.895	0.73932	0.521916	0.459696	-0.024	-0.243	0.243	0	29	564	1
2026-02-12	14:58:15.930	-4.27	-1.435	-5.74	0.73688	0.532652	0.460672	-0.018	-0.2445	0.2445	0	29	564	1
2026-02-12	14:58:15.950	-3.57	-1.505	-4.34	0.739076	0.534848	0.465064	-0.015	-0.246	0.249	0	29	564	1
2026-02-12	14:58:15.970	-2.695	-0.91	-3.045	0.734196	0.5368	0.462624	-0.024	-0.2385	0.2475	0	29	564	1
2026-02-12	14:58:15.990	-1.785	0.035	-1.085	0.725656	0.528992	0.459208	-0.0315	-0.234	0.2445	0	29	564	1
2026-02-12	14:58:16.010	-1.19	0.77	0.14	0.725168	0.527772	0.461892	-0.021	-0.2385	0.2415	0	32	542	1
2026-02-12	14:58:16.030	-0.875	1.05	1.33	0.730048	0.525576	0.462136	-0.0195	-0.2385	0.2475	0	32	542	1
2026-02-12	14:58:16.050	-0.175	1.12	2.17	0.728828	0.528748	0.470188	-0.027	-0.24	0.2415	0	32	542	1
2026-02-12	14:58:16.070	0.805	1.225	2.415	0.729072	0.53314	0.476532	-0.027	-0.2355	0.2415	0	32	542	1
2026-02-12	14:58:16.090	1.33	1.365	2.31	0.724436	0.52582	0.472384	-0.0225	-0.2385	0.2475	0	32	542	1
2026-02-12	14:58:16.110	1.225	1.225	2.275	0.724192	0.522404	0.465796	-0.021	-0.24	0.243	0	32	542	1
2026-02-12	14:58:16.130	1.12	0.665	2.17	0.727364	0.526308	0.467504	-0.024	-0.2415	0.243	0	32	542	1
2026-02-12	14:58:16.150	1.19	0.035	2.1	0.724436	0.520208	0.47702	-0.027	-0.246	0.246	0	32	542	1
2026-02-12	14:58:16.170	1.435	-0.42	1.96	0.721508	0.518988	0.473848	-0.0255	-0.246	0.2445	0	32	542	1
2026-02-12	14:58:16.190	1.715	-0.77	1.645	0.720776	0.52216	0.468968	-0.024	-0.2415	0.246	0	32	542	1
2026-02-12	14:58:14.210	-0.35	-3.535	-11.795	0.72468	0.404064	0.57828	-0.057	-0.2085	0.2055	0	19	608	1
2026-02-12	14:58:14.230	-0.455	-3.15	-13.09	0.715408	0.414312	0.58316	-0.06	-0.2085	0.2025	0	19	608	1
2026-02-12	14:58:14.250	-1.085	-1.715	-14.105	0.70028	0.412116	0.588528	-0.051	-0.204	0.207	0	19	608	1
2026-02-12	14:58:14.270	-1.54	0.315	-14.63	0.694668	0.412116	0.586332	-0.0585	-0.213	0.1935	0	19	608	1
2026-02-12	14:58:14.290	-1.68	1.89	-14.175	0.706624	0.409676	0.59414	-0.0465	-0.207	0.1995	0	19	608	1
2026-02-12	14:58:14.310	-1.155	3.115	-12.355	0.723216	0.410652	0.595604	-0.0495	-0.2115	0.1995	0	19	608	1
2026-02-12	14:58:14.330	-0.175	4.165	-9.31	0.732244	0.415288	0.599264	-0.051	-0.2175	0.2025	0	19	608	1
2026-02-12	14:58:14.350	2.065	5.18	-5.425	0.714676	0.418216	0.608292	-0.048	-0.2175	0.2055	0	19	608	1
2026-02-12	14:58:14.370	4.2	5.25	2.555	0.704916	0.421876	0.630252	-0.048	-0.213	0.195	0	19	608	1
2026-02-12	14:58:14.390	1.715	4.935	8.085	0.710772	0.406504	0.613416	-0.048	-0.213	0.195	0	19	608	1
2026-02-12	14:58:14.410	1.75	4.34	12.285	0.709064	0.39894	0.609024	-0.0525	-0.204	0.1965	0	21	607	1
2026-02-12	14:58:14.430	2.695	3.29	14.945	0.704184	0.406992	0.629276	-0.0555	-0.2055	0.204	0	21	607	1
2026-02-12	14:58:14.450	1.61	2.17	15.715	0.701256	0.398452	0.634644	-0.0465	-0.2085	0.201	0	21	607	1
2026-02-12	14:58:14.470	-1.435	1.19	15.085	0.697596	0.398452	0.615124	-0.0555	-0.2115	0.195	0	21	607	1
2026-02-12	14:58:14.490	-3.22	0.63	13.86	0.693204	0.385764	0.589992	-0.0555	-0.2115	0.198	0	21	607	1
2026-02-12	14:58:14.510	-3.57	0.63	12.67	0.703208	0.37942	0.591944	-0.0495	-0.2055	0.201	0	21	607	1
2026-02-12	14:58:14.530	-2.555	-0.105	12.075	0.716628	0.384544	0.611708	-0.054	-0.2085	0.1965	0	21	607	1
2026-02-12	14:58:14.550	-2.485	-1.19	12.285	0.715896	0.387228	0.61732	-0.054	-0.204	0.201	0	21	607	1
2026-02-12	14:58:14.570	-2.975	-1.925	12.74	0.724436	0.373808	0.621468	-0.06	-0.204	0.195	0	21	607	1
2026-02-12	14:58:14.590	-2.94	-2.835	12.915	0.720044	0.369904	0.622688	-0.0555	-0.201	0.198	0	21	607	1
2026-02-12	14:58:14.610	-3.325	-3.57	12.355	0.721508	0.35014	0.620248	-0.06	-0.192	0.2055	0	22	609	1
2026-02-12	14:58:14.630	-4.445	-4.095	10.045	0.71736	0.367464	0.609268	-0.0645	-0.1995	0.207	0	22	609	1
2026-02-12	14:58:14.650	-5.18	-4.06	6.615	0.704672	0.379176	0.581452	-0.0615	-0.1995	0.2025	0	22	609	1
2026-02-12	14:58:14.670	-4.27	-4.865	3.64	0.704672	0.37454	0.578036	-0.063	-0.1965	0.2025	0	22	609	1
2026-02-12	14:58:14.690	-2.87	-5.425	0.945	0.709796	0.368196	0.604388	-0.069	-0.195	0.204	0	22	609	1
2026-02-12	14:58:14.710	-1.75	-5.285	-0.77	0.715652	0.365512	0.606584	-0.0675	-0.192	0.2025	0	22	609	1
2026-02-12	14:58:14.730	-1.645	-5.25	-1.61	0.723948	0.382348	0.601216	-0.0675	-0.1965	0.198	0	22	609	1
2026-02-12	14:58:14.750	-0.7	-6.16	-2.03	0.72834	0.38064	0.589504	-0.0675	-0.1965	0.198	0	22	609	1
2026-02-12	14:58:14.770	1.575	-7.525	-2.45	0.719312	0.37698	0.6039	-0.069	-0.192	0.201	0	22	609	1
2026-02-12	14:58:14.790	1.995	-8.61	-2.87	0.721752	0.367464	0.61244	-0.072	-0.192	0.201	0	22	609	1
2026-02-12	14:58:14.810	0.63	-8.68	-3.71	0.72956	0.379908	0.593408	-0.069	-0.1905	0.201	0	23	611	1
2026-02-12	14:58:14.830	-0.105	-8.365	-5.18	0.722484	0.369904	0.585844	-0.0645	-0.1935	0.204	0	23	611	1
2026-02-12	14:58:14.850	1.785	-7.91	-6.16	0.7137	0.382592	0.58072	-0.066	-0.198	0.2085	0	23	611	1
2026-02-12	14:58:14.870	2.87	-8.575	-6.265	0.73078	0.3843	0.57584	-0.066	-0.1995	0.21	0	23	611	1
2026-02-12	14:58:14.890	4.165	-9.87	-5.495	0.748836	0.386252	0.582672	-0.066	-0.1995	0.213	0	23	611	1
2026-02-12	14:58:14.910	9.38	-10.535	-3.465	0.726876	0.385276	0.594628	-0.069	-0.1995	0.2145	0	23	611	1
2026-02-12	14:58:14.930	11.445	-11.27	-2.66	0.729072	0.382836	0.61488	-0.0645	-0.1965	0.213	0	23	611	1
2026-02-12	14:58:14.950	8.995	-12.005	-2.8	0.73688	0.373076	0.61488	-0.0675	-0.1965	0.21	0	23	611	1
2026-02-12	14:58:14.970	6.895	-11.165	-3.99	0.742248	0.35624	0.581452	-0.072	-0.1965	0.213	0	23	611	1
2026-02-12	14:58:14.990	7.21	-9.275	-5.81	0.736148	0.358436	0.564128	-0.069	-0.1935	0.2175	0	23	611	1
2026-02-12	14:58:15.010	7.21	-8.015	-7.42	0.742004	0.369172	0.54046	-0.0675	-0.1965	0.216	0	24	611	1
2026-02-12	14:58:15.030	7.385	-7.14	-8.715	0.738588	0.39284	0.532164	-0.069	-0.198	0.219	0	24	611	1
2026-02-12	14:58:15.050	6.895	-6.195	-9.555	0.733952	0.414312	0.534604	-0.0705	-0.201	0.222	0	24	611	1
2026-02-12	14:58:15.070	4.865	-5.145	-9.835	0.734928	0.423828	0.541436	-0.0615	-0.2025	0.2235	0	24	611	1
2026-02-12	14:58:15.090	2.765	-3.85	-9.94	0.740052	0.414556	0.553636	-0.057	-0.1965	0.222	0	24	611	1
2026-02-12	14:58:15.110	2.975	-1.435	-10.36	0.74542	0.396256	0.560712	-0.0645	-0.2025	0.222	0	24	611	1
2026-02-12	14:58:15.130	3.71	0.91	-11.06	0.742248	0.39406	0.549244	-0.066	-0.213	0.2235	0	24	611	1
2026-02-12	14:58:15.150	3.43	1.435	-11.865	0.742004	0.405772	0.534116	-0.0645	-0.2115	0.2235	0	24	611	1
2026-02-12	14:58:15.170	2.45	1.54	-12.915	0.73322	0.40992	0.534848	-0.0645	-0.2085	0.2235	0	24	611	1
2026-02-12	14:58:15.190	2.975	1.05	-12.88	0.730536	0.425048	0.531188	-0.0645	-0.2085	0.2235	0	24	611	1
2026-02-12	14:58:15.210	3.395	-0.595	-11.865	0.742004	0.437004	0.548512	-0.0495	-0.207	0.2295	0	24	606	1
2026-02-12	14:58:15.230	3.045	-2.52	-10.08	0.753228	0.439444	0.560468	-0.0525	-0.2205	0.2295	0	24	606	1
2026-02-12	14:58:15.250	2.66	-3.955	-8.33	0.750056	0.431636	0.56608	-0.0615	-0.2085	0.222	0	24	606	1
2026-02-12	14:58:15.270	2.73	-5.04	-6.58	0.742492	0.420168	0.563884	-0.06	-0.213	0.234	0	24	606	1
2026-02-12	14:58:15.290	3.255	-6.09	-4.97	0.740296	0.408944	0.573156	-0.0495	-0.2145	0.2295	0	24	606	1
2026-02-12	14:58:15.310	2.87	-7.035	-4.06	0.743224	0.406992	0.564616	-0.0585	-0.2115	0.2265	0	24	606	1
2026-02-12	14:58:15.330	3.15	-7.735	-3.85	0.738344	0.41968	0.549	-0.051	-0.2145	0.228	0	24	606	1
2026-02-12	14:58:15.350	4.515	-8.19	-4.025	0.736636	0.426512	0.546804	-0.0525	-0.222	0.234	0	24	606	1
2026-02-12	14:58:15.370	5.425	-8.96	-4.76	0.728096	0.427488	0.529724	-0.0525	-0.21	0.2325	0	24	606	1
2026-02-12	14:58:15.390	4.97	-9.87	-6.125	0.72956	0.427976	0.529724	-0.0525	-0.21	0.234	0	24	606	1
2026-02-12	14:58:15.410	5.355	-10.71	-8.015	0.739564	0.419436	0.53436	-0.0525	-0.219	0.237	0	25	596	1
2026-02-12	14:58:15.430	3.22	-11.375	-10.465	0.743956	0.426512	0.526552	-0.0495	-0.213	0.234	0	25	596	1
2026-02-12	14:58:15.450	1.33	-11.305	-13.3	0.732976	0.433588	0.519476	-0.0495	-0.213	0.234	0	25	596	1
2026-02-12	14:58:15.470	0.455	-11.06	-15.575	0.736148	0.44652	0.505812	-0.0525	-0.2175	0.2325	0	25	596	1
2026-02-12	14:58:15.490	-1.19	-11.585	-17.745	0.739564	0.454572	0.490928	-0.0495	-0.2265	0.234	0	25	596	1
2026-02-12	14:58:15.510	-1.435	-12.11	-19.565	0.740784	0.471408	0.483608	-0.045	-0.2295	0.2385	0	25	596	1
2026-02-12	14:58:15.530	-1.365	-12.25	-20.51	0.741028	0.478972	0.486048	-0.0465	-0.2295	0.2385	0	25	596	1
2026-02-12	14:58:15.550	-1.05	-12.075	-20.475	0.736636	0.49166	0.4819	-0.039	-0.228	0.237	0	25	596	1
2026-02-12	14:58:15.570	-0.63	-11.83	-19.46	0.74054	0.497028	0.488	-0.0435	-0.2235	0.249	0	25	596	1
2026-02-12	14:58:15.590	-0.945	-11.41	-18.025	0.741028	0.499224	0.47946	-0.0465	-0.234	0.243	0	25	596	1
2026-02-12	14:58:15.610	-0.42	-10.64	-16.905	0.7381	0.498492	0.477508	-0.0405	-0.237	0.2445	0	27	582	1
2026-02-12	14:58:15.630	0.49	-9.8	-16.065	0.733708	0.50264	0.485072	-0.039	-0.2295	0.2505	0	27	582	1
2026-02-12	14:58:15.650	0.315	-9.24	-15.015	0.740296	0.492636	0.487756	-0.039	-0.2355	0.2445	0	27	582	1
2026-02-12	14:58:15.670	-0.525	-8.785	-13.58	0.742492	0.483852	0.495076	-0.036	-0.2355	0.2535	0	27	582	1
2026-02-12	14:58:15.690	-0.91	-7.735	-12.075	0.736392	0.493368	0.49044	-0.03	-0.237	0.2475	0	27	582	1
2026-02-12	14:58:15.710	-2.1	-6.265	-9.905	0.736392	0.49898	0.47702	-0.036	-0.237	0.2475	0	27	582	1
2026-02-12	14:58:15.730	-3.045	-5.425	-9.135	0.73688	0.509716	0.468724	-0.0315	-0.237	0.249	0	27	582	1
2026-02-12	14:58:15.750	-3.605	-4.445	-8.715	0.733464	0.507032	0.467016	-0.033	-0.24	0.2505	0	27	582	1
2026-02-12	14:58:15.770	-2.975	-2.835	-8.19	0.729804	0.500688	0.4575	-0.033	-0.24	0.2505	0	27	582	1
2026-02-12	14:58:15.790	-3.045	-1.575	-7.84	0.72956	0.516548	0.444568	-0.03	-0.2415	0.2445	0	27	582	1
2026-02-12	14:58:15.810	-3.01	-1.085	-7.7	0.729072	0.527528	0.443348	-0.036	-0.243	0.2475	0	29	564	1
2026-02-12	14:58:15.830	-3.5	-1.12	-7.875	0.728584	0.54046	0.44164	-0.0345	-0.24	0.2505	0	29	564	1
2026-02-12	14:58:15.850	-3.955	-1.435	-8.33	0.732732	0.542412	0.447984	-0.024	-0.234	0.243	0	29	564	1
2026-02-12	14:58:15.870	-4.025	-1.68	-8.435	0.732976	0.535092	0.463112	-0.018	-0.2385	0.2415	0	29	564	1
2026-02-12	14:58:15.890	-4.375	-1.715	-7.84	0.734684	0.523868	0.466772	-0.024	-0.2445	0.2445	0	29	564	1
2026-02-12	14:58:15.910	-4.76	-1.505	-6.895	0.73932	0.521916	0.459696	-0.024	-0.243	0.243	0	29	564	1
2026-02-12	14:58:15.930	-4.27	-1.435	-5.74	0.73688	0.532652	0.460672	-0.018	-0.2445	0.2445	0	29	564	1
2026-02-12	14:58:15.950	-3.57	-1.505	-4.34	0.739076	0.534848	0.465064	-0.015	-0.246	0.249	0	29	564	1
2026-02-12	14:58:15.970	-2.695	-0.91	-3.045	0.734196	0.5368	0.462624	-0.024	-0.2385	0.2475	0	29	564	1
2026-02-12	14:58:15.990	-1.785	0.035	-1.085	0.725656	0.528992	0.459208	-0.0315	-0.234	0.2445	0	29	564	1
2026-02-12	14:58:16.010	-1.19	0.77	0.14	0.725168	0.527772	0.461892	-0.021	-0.2385	0.2415	0	32	542	1
2026-02-12	14:58:16.030	-0.875	1.05	1.33	0.730048	0.525576	0.462136	-0.0195	-0.2385	0.2475	0	32	542	1
2026-02-12	14:58:16.050	-0.175	1.12	2.17	0.728828	0.528748	0.470188	-0.027	-0.24	0.2415	0	32	542	1
2026-02-12	14:58:16.070	0.805	1.225	2.415	0.729072	0.53314	0.476532	-0.027	-0.2355	0.2415	0	32	542	1
2026-02-12	14:58:16.090	1.33	1.365	2.31	0.724436	0.52582	0.472384	-0.0225	-0.2385	0.2475	0	32	542	1
2026-02-12	14:58:16.110	1.225	1.225	2.275	0.724192	0.522404	0.465796	-0.021	-0.24	0.243	0	32	542	1
2026-02-12	14:58:16.130	1.12	0.665	2.17	0.727364	0.526308	0.467504	-0.024	-0.2415	0.243	0	32	542	1
2026-02-12	14:58:16.150	1.19	0.035	2.1	0.724436	0.520208	0.47702	-0.027	-0.246	0.246	0	32	542	1
2026-02-12	14:58:16.170	1.435	-0.42	1.96	0.721508	0.518988	0.473848	-0.0255	-0.246	0.2445	0	32	542	1
2026-02-12	14:58:16.190	1.715	-0.77	1.645	0.720776	0.52216	0.468968	-0.024	-0.2415	0.246	0	32	542	1
2026-02-12	14:58:14.210	-0.35	-3.535	-11.795	0.72468	0.404064	0.57828	-0.057	-0.2085	0.2055	0	19	608	1
2026-02-12	14:58:14.230	-0.455	-3.15	-13.09	0.715408	0.414312	0.58316	-0.06	-0.2085	0.2025	0	19	608	1
2026-02-12	14:58:14.250	-1.085	-1.715	-14.105	0.70028	0.412116	0.588528	-0.051	-0.204	0.207	0	19	608	1
2026-02-12	14:58:14.270	-1.54	0.315	-14.63	0.694668	0.412116	0.586332	-0.0585	-0.213	0.1935	0	19	608	1
2026-02-12	14:58:14.290	-1.68	1.89	-14.175	0.706624	0.409676	0.59414	-0.0465	-0.207	0.1995	0	19	608	1
2026-02-12	14:58:14.310	-1.155	3.115	-12.355	0.723216	0.410652	0.595604	-0.0495	-0.2115	0.1995	0	19	608	1
2026-02-12	14:58:14.330	-0.175	4.165	-9.31	0.732244	0.415288	0.599264	-0.051	-0.2175	0.2025	0	19	608	1
2026-02-12	14:58:14.350	2.065	5.18	-5.425	0.714676	0.418216	0.608292	-0.048	-0.2175	0.2055	0	19	608	1
2026-02-12	14:58:14.370	4.2	5.25	2.555	0.704916	0.421876	0.630252	-0.048	-0.213	0.195	0	19	608	1
2026-02-12	14:58:14.390	1.715	4.935	8.085	0.710772	0.406504	0.613416	-0.048	-0.213	0.195	0	19	608	1
2026-02-12	14:58:14.410	1.75	4.34	12.285	0.709064	0.39894	0.609024	-0.0525	-0.204	0.1965	0	21	607	1
2026-02-12	14:58:14.430	2.695	3.29	14.945	0.704184	0.406992	0.629276	-0.0555	-0.2055	0.204	0	21	607	1
2026-02-12	14:58:14.450	1.61	2.17	15.715	0.701256	0.398452	0.634644	-0.0465	-0.2085	0.201	0	21	607	1
2026-02-12	14:58:14.470	-1.435	1.19	15.085	0.697596	0.398452	0.615124	-0.0555	-0.2115	0.195	0	21	607	1
2026-02-12	14:58:14.490	-3.22	0.63	13.86	0.693204	0.385764	0.589992	-0.0555	-0.2115	0.198	0	21	607	1
2026-02-12	14:58:14.510	-3.57	0.63	12.67	0.703208	0.37942	0.591944	-0.0495	-0.2055	0.201	0	21	607	1
2026-02-12	14:58:14.530	-2.555	-0.105	12.075	0.716628	0.384544	0.611708	-0.054	-0.2085	0.1965	0	21	607	1
2026-02-12	14:58:14.550	-2.485	-1.19	12.285	0.715896	0.387228	0.61732	-0.054	-0.204	0.201	0	21	607	1
2026-02-12	14:58:14.570	-2.975	-1.925	12.74	0.724436	0.373808	0.621468	-0.06	-0.204	0.195	0	21	607	1
2026-02-12	14:58:14.590	-2.94	-2.835	12.915	0.720044	0.369904	0.622688	-0.0555	-0.201	0.198	0	21	607	1
2026-02-12	14:58:14.610	-3.325	-3.57	12.355	0.721508	0.35014	0.620248	-0.06	-0.192	0.2055	0	22	609	1
2026-02-12	14:58:14.630	-4.445	-4.095	10.045	0.71736	0.367464	0.609268	-0.0645	-0.1995	0.207	0	22	609	1
2026-02-12	14:58:14.650	-5.18	-4.06	6.615	0.704672	0.379176	0.581452	-0.0615	-0.1995	0.2025	0	22	609	1
2026-02-12	14:58:14.670	-4.27	-4.865	3.64	0.704672	0.37454	0.578036	-0.063	-0.1965	0.2025	0	22	609	1
2026-02-12	14:58:14.690	-2.87	-5.425	0.945	0.709796	0.368196	0.604388	-0.069	-0.195	0.204	0	22	609	1
2026-02-12	14:58:14.710	-1.75	-5.285	-0.77	0.715652	0.365512	0.606584	-0.0675	-0.192	0.2025	0	22	609	1
2026-02-12	14:58:14.730	-1.645	-5.25	-1.61	0.723948	0.382348	0.601216	-0.0675	-0.1965	0.198	0	22	609	1
2026-02-12	14:58:14.750	-0.7	-6.16	-2.03	0.72834	0.38064	0.589504	-0.0675	-0.1965	0.198	0	22	609	1
2026-02-12	14:58:14.770	1.575	-7.525	-2.45	0.719312	0.37698	0.6039	-0.069	-0.192	0.201	0	22	609	1
2026-02-12	14:58:14.790	1.995	-8.61	-2.87	0.721752	0.367464	0.61244	-0.072	-0.192	0.201	0	22	609	1
2026-02-12	14:58:14.810	0.63	-8.68	-3.71	0.72956	0.379908	0.593408	-0.069	-0.1905	0.201	0	23	611	1
2026-02-12	14:58:14.830	-0.105	-8.365	-5.18	0.722484	0.369904	0.585844	-0.0645	-0.1935	0.204	0	23	611	1
2026-02-12	14:58:14.850	1.785	-7.91	-6.16	0.7137	0.382592	0.58072	-0.066	-0.198	0.2085	0	23	611	1
2026-02-12	14:58:14.870	2.87	-8.575	-6.265	0.73078	0.3843	0.57584	-0.066	-0.1995	0.21	0	23	611	1
2026-02-12	14:58:14.890	4.165	-9.87	-5.495	0.748836	0.386252	0.582672	-0.066	-0.1995	0.213	0	23	611	1
2026-02-12	14:58:14.910	9.38	-10.535	-3.465	0.726876	0.385276	0.594628	-0.069	-0.1995	0.2145	0	23	611	1
2026-02-12	14:58:14.930	11.445	-11.27	-2.66	0.729072	0.382836	0.61488	-0.0645	-0.1965	0.213	0	23	611	1
2026-02-12	14:58:14.950	8.995	-12.005	-2.8	0.73688	0.373076	0.61488	-0.0675	-0.1965	0.21	0	23	611	1
2026-02-12	14:58:14.970	6.895	-11.165	-3.99	0.742248	0.35624	0.581452	-0.072	-0.1965	0.213	0	23	611	1
2026-02-12	14:58:14.990	7.21	-9.275	-5.81	0.736148	0.358436	0.564128	-0.069	-0.1935	0.2175	0	23	611	1
2026-02-12	14:58:15.010	7.21	-8.015	-7.42	0.742004	0.369172	0.54046	-0.0675	-0.1965	0.216	0	24	611	1
2026-02-12	14:58:15.030	7.385	-7.14	-8.715	0.738588	0.39284	0.532164	-0.069	-0.198	0.219	0	24	611	1
2026-02-12	14:58:15.050	6.895	-6.195	-9.555	0.733952	0.414312	0.534604	-0.0705	-0.201	0.222	0	24	611	1
2026-02-12	14:58:15.070	4.865	-5.145	-9.835	0.734928	0.423828	0.541436	-0.0615	-0.2025	0.2235	0	24	611	1
2026-02-12	14:58:15.090	2.765	-3.85	-9.94	0.740052	0.414556	0.553636	-0.057	-0.1965	0.222	0	24	611	1
2026-02-12	14:58:15.110	2.975	-1.435	-10.36	0.74542	0.396256	0.560712	-0.0645	-0.2025	0.222	0	24	611	1
2026-02-12	14:58:15.130	3.71	0.91	-11.06	0.742248	0.39406	0.549244	-0.066	-0.213	0.2235	0	24	611	1
2026-02-12	14:58:15.150	3.43	1.435	-11.865	0.742004	0.405772	0.534116	-0.0645	-0.2115	0.2235	0	24	611	1
2026-02-12	14:58:15.170	2.45	1.54	-12.915	0.73322	0.40992	0.534848	-0.0645	-0.2085	0.2235	0	24	611	1
2026-02-12	14:58:15.190	2.975	1.05	-12.88	0.730536	0.425048	0.531188	-0.0645	-0.2085	0.2235	0	24	611	1
2026-02-12	14:58:15.210	3.395	-0.595	-11.865	0.742004	0.437004	0.548512	-0.0495	-0.207	0.2295	0	24	606	1
2026-02-12	14:58:15.230	3.045	-2.52	-10.08	0.753228	0.439444	0.560468	-0.0525	-0.2205	0.2295	0	24	606	1
2026-02-12	14:58:15.250	2.66	-3.955	-8.33	0.750056	0.431636	0.56608	-0.0615	-0.2085	0.222	0	24	606	1
2026-02-12	14:58:15.270	2.73	-5.04	-6.58	0.742492	0.420168	0.563884	-0.06	-0.213	0.234	0	24	606	1
2026-02-12	14:58:15.290	3.255	-6.09	-4.97	0.740296	0.408944	0.573156	-0.0495	-0.2145	0.2295	0	24	606	1
2026-02-12	14:58:15.310	2.87	-7.035	-4.06	0.743224	0.406992	0.564616	-0.0585	-0.2115	0.2265	0	24	606	1
2026-02-12	14:58:15.330	3.15	-7.735	-3.85	0.738344	0.41968	0.549	-0.051	-0.2145	0.228	0	24	606	1
2026-02-12	14:58:15.350	4.515	-8.19	-4.025	0.736636	0.426512	0.546804	-0.0525	-0.222	0.234	0	24	606	1
2026-02-12	14:58:15.370	5.425	-8.96	-4.76	0.728096	0.427488	0.529724	-0.0525	-0.21	0.2325	0	24	606	1
2026-02-12	14:58:15.390	4.97	-9.87	-6.125	0.72956	0.427976	0.529724	-0.0525	-0.21	0.234	0	24	606	1
2026-02-12	14:58:15.410	5.355	-10.71	-8.015	0.739564	0.419436	0.53436	-0.0525	-0.219	0.237	0	25	596	1
2026-02-12	14:58:15.430	3.22	-11.375	-10.465	0.743956	0.426512	0.526552	-0.0495	-0.213	0.234	0	25	596	1
2026-02-12	14:58:15.450	1.33	-11.305	-13.3	0.732976	0.433588	0.519476	-0.0495	-0.213	0.234	0	25	596	1
2026-02-12	14:58:15.470	0.455	-11.06	-15.575	0.736148	0.44652	0.505812	-0.0525	-0.2175	0.2325	0	25	596	1
2026-02-12	14:58:15.490	-1.19	-11.585	-17.745	0.739564	0.454572	0.490928	-0.0495	-0.2265	0.234	0	25	596	1
2026-02-12	14:58:15.510	-1.435	-12.11	-19.565	0.740784	0.471408	0.483608	-0.045	-0.2295	0.2385	0	25	596	1
2026-02-12	14:58:15.530	-1.365	-12.25	-20.51	0.741028	0.478972	0.486048	-0.0465	-0.2295	0.2385	0	25	596	1
2026-02-12	14:58:15.550	-1.05	-12.075	-20.475	0.736636	0.49166	0.4819	-0.039	-0.228	0.237	0	25	596	1
2026-02-12	14:58:15.570	-0.63	-11.83	-19.46	0.74054	0.497028	0.488	-0.0435	-0.2235	0.249	0	25	596	1
2026-02-12	14:58:15.590	-0.945	-11.41	-18.025	0.741028	0.499224	0.47946	-0.0465	-0.234	0.243	0	25	596	1
2026-02-12	14:58:15.610	-0.42	-10.64	-16.905	0.7381	0.498492	0.477508	-0.0405	-0.237	0.2445	0	27	582	1
2026-02-12	14:58:15.630	0.49	-9.8	-16.065	0.733708	0.50264	0.485072	-0.039	-0.2295	0.2505	0	27	582	1
2026-02-12	14:58:15.650	0.315	-9.24	-15.015	0.740296	0.492636	0.487756	-0.039	-0.2355	0.2445	0	27	582	1
2026-02-12	14:58:15.670	-0.525	-8.785	-13.58	0.742492	0.483852	0.495076	-0.036	-0.2355	0.2535	0	27	582	1
2026-02-12	14:58:15.690	-0.91	-7.735	-12.075	0.736392	0.493368	0.49044	-0.03	-0.237	0.2475	0	27	582	1
2026-02-12	14:58:15.710	-2.1	-6.265	-9.905	0.736392	0.49898	0.47702	-0.036	-0.237	0.2475	0	27	582	1
2026-02-12	14:58:15.730	-3.045	-5.425	-9.135	0.73688	0.509716	0.468724	-0.0315	-0.237	0.249	0	27	582	1
2026-02-12	14:58:15.750	-3.605	-4.445	-8.715	0.733464	0.507032	0.467016	-0.033	-0.24	0.2505	0	27	582	1
2026-02-12	14:58:15.770	-2.975	-2.835	-8.19	0.729804	0.500688	0.4575	-0.033	-0.24	0.2505	0	27	582	1
2026-02-12	14:58:15.790	-3.045	-1.575	-7.84	0.72956	0.516548	0.444568	-0.03	-0.2415	0.2445	0	27	582	1
2026-02-12	14:58:15.810	-3.01	-1.085	-7.7	0.729072	0.527528	0.443348	-0.036	-0.243	0.2475	0	29	564	1
2026-02-12	14:58:15.830	-3.5	-1.12	-7.875	0.728584	0.54046	0.44164	-0.0345	-0.24	0.2505	0	29	564	1
2026-02-12	14:58:15.850	-3.955	-1.435	-8.33	0.732732	0.542412	0.447984	-0.024	-0.234	0.243	0	29	564	1
2026-02-12	14:58:15.870	-4.025	-1.68	-8.435	0.732976	0.535092	0.463112	-0.018	-0.2385	0.2415	0	29	564	1
2026-02-12	14:58:15.890	-4.375	-1.715	-7.84	0.734684	0.523868	0.466772	-0.024	-0.2445	0.2445	0	29	564	1
2026-02-12	14:58:15.910	-4.76	-1.505	-6.895	0.73932	0.521916	0.459696	-0.024	-0.243	0.243	0	29	564	1
2026-02-12	14:58:15.930	-4.27	-1.435	-5.74	0.73688	0.532652	0.460672	-0.018	-0.2445	0.2445	0	29	564	1
2026-02-12	14:58:15.950	-3.57	-1.505	-4.34	0.739076	0.534848	0.465064	-0.015	-0.246	0.249	0	29	564	1
2026-02-12	14:58:15.970	-2.695	-0.91	-3.045	0.734196	0.5368	0.462624	-0.024	-0.2385	0.2475	0	29	564	1
2026-02-12	14:58:15.990	-1.785	0.035	-1.085	0.725656	0.528992	0.459208	-0.0315	-0.234	0.2445	0	29	564	1
2026-02-12	14:58:16.010	-1.19	0.77	0.14	0.725168	0.527772	0.461892	-0.021	-0.2385	0.2415	0	32	542	1
2026-02-12	14:58:16.030	-0.875	1.05	1.33	0.730048	0.525576	0.462136	-0.0195	-0.2385	0.2475	0	32	542	1
2026-02-12	14:58:16.050	-0.175	1.12	2.17	0.728828	0.528748	0.470188	-0.027	-0.24	0.2415	0	32	542	1
2026-02-12	14:58:16.070	0.805	1.225	2.415	0.729072	0.53314	0.476532	-0.027	-0.2355	0.2415	0	32	542	1
2026-02-12	14:58:16.090	1.33	1.365	2.31	0.724436	0.52582	0.472384	-0.0225	-0.2385	0.2475	0	32	542	1
2026-02-12	14:58:16.110	1.225	1.225	2.275	0.724192	0.522404	0.465796	-0.021	-0.24	0.243	0	32	542	1
2026-02-12	14:58:16.130	1.12	0.665	2.17	0.727364	0.526308	0.467504	-0.024	-0.2415	0.243	0	32	542	1
2026-02-12	14:58:16.150	1.19	0.035	2.1	0.724436	0.520208	0.47702	-0.027	-0.246	0.246	0	32	542	1
2026-02-12	14:58:16.170	1.435	-0.42	1.96	0.721508	0.518988	0.473848	-0.0255	-0.246	0.2445	0	32	542	1
2026-02-12	14:58:16.190	1.715	-0.77	1.645	0.720776	0.52216	0.468968	-0.024	-0.2415	0.246	0	32	542	1
2026-02-12	14:58:14.210	-0.35	-3.535	-11.795	0.72468	0.404064	0.57828	-0.057	-0.2085	0.2055	0	19	608	1
2026-02-12	14:58:14.230	-0.455	-3.15	-13.09	0.715408	0.414312	0.58316	-0.06	-0.2085	0.2025	0	19	608	1
2026-02-12	14:58:14.250	-1.085	-1.715	-14.105	0.70028	0.412116	0.588528	-0.051	-0.204	0.207	0	19	608	1
2026-02-12	14:58:14.270	-1.54	0.315	-14.63	0.694668	0.412116	0.586332	-0.0585	-0.213	0.1935	0	19	608	1
2026-02-12	14:58:14.290	-1.68	1.89	-14.175	0.706624	0.409676	0.59414	-0.0465	-0.207	0.1995	0	19	608	1
2026-02-12	14:58:14.310	-1.155	3.115	-12.355	0.723216	0.410652	0.595604	-0.0495	-0.2115	0.1995	0	19	608	1
2026-02-12	14:58:14.330	-0.175	4.165	-9.31	0.732244	0.415288	0.599264	-0.051	-0.2175	0.2025	0	19	608	1
2026-02-12	14:58:14.350	2.065	5.18	-5.425	0.714676	0.418216	0.608292	-0.048	-0.2175	0.2055	0	19	608	1
2026-02-12	14:58:14.370	4.2	5.25	2.555	0.704916	0.421876	0.630252	-0.048	-0.213	0.195	0	19	608	1
2026-02-12	14:58:14.390	1.715	4.935	8.085	0.710772	0.406504	0.613416	-0.048	-0.213	0.195	0	19	608	1
2026-02-12	14:58:14.410	1.75	4.34	12.285	0.709064	0.39894	0.609024	-0.0525	-0.204	0.1965	0	21	607	1
2026-02-12	14:58:14.430	2.695	3.29	14.945	0.704184	0.406992	0.629276	-0.0555	-0.2055	0.204	0	21	607	1
2026-02-12	14:58:14.450	1.61	2.17	15.715	0.701256	0.398452	0.634644	-0.0465	-0.2085	0.201	0	21	607	1
2026-02-12	14:58:14.470	-1.435	1.19	15.085	0.697596	0.398452	0.615124	-0.0555	-0.2115	0.195	0	21	607	1
2026-02-12	14:58:14.490	-3.22	0.63	13.86	0.693204	0.385764	0.589992	-0.0555	-0.2115	0.198	0	21	607	1
2026-02-12	14:58:14.510	-3.57	0.63	12.67	0.703208	0.37942	0.591944	-0.0495	-0.2055	0.201	0	21	607	1
2026-02-12	14:58:14.530	-2.555	-0.105	12.075	0.716628	0.384544	0.611708	-0.054	-0.2085	0.1965	0	21	607	1
2026-02-12	14:58:14.550	-2.485	-1.19	12.285	0.715896	0.387228	0.61732	-0.054	-0.204	0.201	0	21	607	1
2026-02-12	14:58:14.570	-2.975	-1.925	12.74	0.724436	0.373808	0.621468	-0.06	-0.204	0.195	0	21	607	1
2026-02-12	14:58:14.590	-2.94	-2.835	12.915	0.720044	0.369904	0.622688	-0.0555	-0.201	0.198	0	21	607	1
2026-02-12	14:58:14.610	-3.325	-3.57	12.355	0.721508	0.35014	0.620248	-0.06	-0.192	0.2055	0	22	609	1
2026-02-12	14:58:14.630	-4.445	-4.095	10.045	0.71736	0.367464	0.609268	-0.0645	-0.1995	0.207	0	22	609	1
2026-02-12	14:58:14.650	-5.18	-4.06	6.615	0.704672	0.379176	0.581452	-0.0615	-0.1995	0.2025	0	22	609	1
2026-02-12	14:58:14.670	-4.27	-4.865	3.64	0.704672	0.37454	0.578036	-0.063	-0.1965	0.2025	0	22	609	1
2026-02-12	14:58:14.690	-2.87	-5.425	0.945	0.709796	0.368196	0.604388	-0.069	-0.195	0.204	0	22	609	1
2026-02-12	14:58:14.710	-1.75	-5.285	-0.77	0.715652	0.365512	0.606584	-0.0675	-0.192	0.2025	0	22	609	1
2026-02-12	14:58:14.730	-1.645	-5.25	-1.61	0.723948	0.382348	0.601216	-0.0675	-0.1965	0.198	0	22	609	1
2026-02-12	14:58:14.750	-0.7	-6.16	-2.03	0.72834	0.38064	0.589504	-0.0675	-0.1965	0.198	0	22	609	1
2026-02-12	14:58:14.770	1.575	-7.525	-2.45	0.719312	0.37698	0.6039	-0.069	-0.192	0.201	0	22	609	1
2026-02-12	14:58:14.790	1.995	-8.61	-2.87	0.721752	0.367464	0.61244	-0.072	-0.192	0.201	0	22	609	1
2026-02-12	14:58:14.810	0.63	-8.68	-3.71	0.72956	0.379908	0.593408	-0.069	-0.1905	0.201	0	23	611	1
2026-02-12	14:58:14.830	-0.105	-8.365	-5.18	0.722484	0.369904	0.585844	-0.0645	-0.1935	0.204	0	23	611	1
2026-02-12	14:58:14.850	1.785	-7.91	-6.16	0.7137	0.382592	0.58072	-0.066	-0.198	0.2085	0	23	611	1
2026-02-12	14:58:14.870	2.87	-8.575	-6.265	0.73078	0.3843	0.57584	-0.066	-0.1995	0.21	0	23	611	1
2026-02-12	14:58:14.890	4.165	-9.87	-5.495	0.748836	0.386252	0.582672	-0.066	-0.1995	0.213	0	23	611	1
2026-02-12	14:58:14.910	9.38	-10.535	-3.465	0.726876	0.385276	0.594628	-0.069	-0.1995	0.2145	0	23	611	1
2026-02-12	14:58:14.930	11.445	-11.27	-2.66	0.729072	0.382836	0.61488	-0.0645	-0.1965	0.213	0	23	611	1
2026-02-12	14:58:14.950	8.995	-12.005	-2.8	0.73688	0.373076	0.61488	-0.0675	-0.1965	0.21	0	23	611	1
2026-02-12	14:58:14.970	6.895	-11.165	-3.99	0.742248	0.35624	0.581452	-0.072	-0.1965	0.213	0	23	611	1
2026-02-12	14:58:14.990	7.21	-9.275	-5.81	0.736148	0.358436	0.564128	-0.069	-0.1935	0.2175	0	23	611	1
2026-02-12	14:58:15.010	7.21	-8.015	-7.42	0.742004	0.369172	0.54046	-0.0675	-0.1965	0.216	0	24	611	1
2026-02-12	14:58:15.030	7.385	-7.14	-8.715	0.738588	0.39284	0.532164	-0.069	-0.198	0.219	0	24	611	1
2026-02-12	14:58:15.050	6.895	-6.195	-9.555	0.733952	0.414312	0.534604	-0.0705	-0.201	0.222	0	24	611	1
2026-02-12	14:58:15.070	4.865	-5.145	-9.835	0.734928	0.423828	0.541436	-0.0615	-0.2025	0.2235	0	24	611	1
2026-02-12	14:58:15.090	2.765	-3.85	-9.94	0.740052	0.414556	0.553636	-0.057	-0.1965	0.222	0	24	611	1
2026-02-12	14:58:15.110	2.975	-1.435	-10.36	0.74542	0.396256	0.560712	-0.0645	-0.2025	0.222	0	24	611	1
2026-02-12	14:58:15.130	3.71	0.91	-11.06	0.742248	0.39406	0.549244	-0.066	-0.213	0.2235	0	24	611	1
2026-02-12	14:58:15.150	3.43	1.435	-11.865	0.742004	0.405772	0.534116	-0.0645	-0.2115	0.2235	0	24	611	1
2026-02-12	14:58:15.170	2.45	1.54	-12.915	0.73322	0.40992	0.534848	-0.0645	-0.2085	0.2235	0	24	611	1
2026-02-12	14:58:15.190	2.975	1.05	-12.88	0.730536	0.425048	0.531188	-0.0645	-0.2085	0.2235	0	24	611	1
2026-02-12	14:58:15.210	3.395	-0.595	-11.865	0.742004	0.437004	0.548512	-0.0495	-0.207	0.2295	0	24	606	1
2026-02-12	14:58:15.230	3.045	-2.52	-10.08	0.753228	0.439444	0.560468	-0.0525	-0.2205	0.2295	0	24	606	1
2026-02-12	14:58:15.250	2.66	-3.955	-8.33	0.750056	0.431636	0.56608	-0.0615	-0.2085	0.222	0	24	606	1
2026-02-12	14:58:15.270	2.73	-5.04	-6.58	0.742492	0.420168	0.563884	-0.06	-0.213	0.234	0	24	606	1
2026-02-12	14:58:15.290	3.255	-6.09	-4.97	0.740296	0.408944	0.573156	-0.0495	-0.2145	0.2295	0	24	606	1
2026-02-12	14:58:15.310	2.87	-7.035	-4.06	0.743224	0.406992	0.564616	-0.0585	-0.2115	0.2265	0	24	606	1
2026-02-12	14:58:15.330	3.15	-7.735	-3.85	0.738344	0.41968	0.549	-0.051	-0.2145	0.228	0	24	606	1
2026-02-12	14:58:15.350	4.515	-8.19	-4.025	0.736636	0.426512	0.546804	-0.0525	-0.222	0.234	0	24	606	1
2026-02-12	14:58:15.370	5.425	-8.96	-4.76	0.728096	0.427488	0.529724	-0.0525	-0.21	0.2325	0	24	606	1
2026-02-12	14:58:15.390	4.97	-9.87	-6.125	0.72956	0.427976	0.529724	-0.0525	-0.21	0.234	0	24	606	1
2026-02-12	14:58:15.410	5.355	-10.71	-8.015	0.739564	0.419436	0.53436	-0.0525	-0.219	0.237	0	25	596	1
2026-02-12	14:58:15.430	3.22	-11.375	-10.465	0.743956	0.426512	0.526552	-0.0495	-0.213	0.234	0	25	596	1
2026-02-12	14:58:15.450	1.33	-11.305	-13.3	0.732976	0.433588	0.519476	-0.0495	-0.213	0.234	0	25	596	1
2026-02-12	14:58:15.470	0.455	-11.06	-15.575	0.736148	0.44652	0.505812	-0.0525	-0.2175	0.2325	0	25	596	1
2026-02-12	14:58:15.490	-1.19	-11.585	-17.745	0.739564	0.454572	0.490928	-0.0495	-0.2265	0.234	0	25	596	1
2026-02-12	14:58:15.510	-1.435	-12.11	-19.565	0.740784	0.471408	0.483608	-0.045	-0.2295	0.2385	0	25	596	1
2026-02-12	14:58:15.530	-1.365	-12.25	-20.51	0.741028	0.478972	0.486048	-0.0465	-0.2295	0.2385	0	25	596	1
2026-02-12	14:58:15.550	-1.05	-12.075	-20.475	0.736636	0.49166	0.4819	-0.039	-0.228	0.237	0	25	596	1
2026-02-12	14:58:15.570	-0.63	-11.83	-19.46	0.74054	0.497028	0.488	-0.0435	-0.2235	0.249	0	25	596	1
2026-02-12	14:58:15.590	-0.945	-11.41	-18.025	0.741028	0.499224	0.47946	-0.0465	-0.234	0.243	0	25	596	1
2026-02-12	14:58:33.610	-36.855	-21.98	-26.355	-0.22936	1.189012	0.050996	0.081	-0.3075	0.3555	0	416	25	3
2026-02-12	14:58:33.630	-36.575	-17.22	-19.04	-0.192028	1.185352	0.051484	0.0885	-0.3075	0.3525	0	416	25	3
2026-02-12	14:58:33.650	-27.265	-10.955	-14.035	-0.167628	1.166808	0.024888	0.096	-0.306	0.348	0	416	25	3
2026-02-12	14:58:33.670	-13.475	-6.195	-12.005	-0.133468	1.170468	0.001708	0.0975	-0.3015	0.348	0	416	25	3
2026-02-12	14:58:33.690	-9.345	-4.9	-13.02	-0.127368	1.086776	0.023668	0.1005	-0.3045	0.345	0	416	25	3
2026-02-12	14:58:33.710	-14.63	-8.05	-14.77	-0.137372	0.998936	0.030012	0.099	-0.3105	0.3405	0	416	25	3
2026-02-12	14:58:33.730	-11.34	-11.445	-15.295	-0.169336	0.96502	0.00732	0.102	-0.3105	0.339	0	416	25	3
2026-02-12	14:58:33.750	-0.07	-14.035	-13.51	-0.188856	0.953308	-0.014884	0.108	-0.3075	0.339	0	416	25	3
2026-02-12	14:58:33.770	6.405	-16.17	-10.57	-0.197396	0.971364	-0.032208	0.111	-0.306	0.3405	0	416	25	3
2026-02-12	14:58:33.790	7	-19.355	-7.56	-0.188368	0.933056	-0.029524	0.111	-0.315	0.339	0	416	25	3
2026-02-12	14:58:33.810	8.925	-21.735	-3.36	-0.189588	0.933056	-0.0122	0.111	-0.315	0.336	0	386	39	3
2026-02-12	14:58:33.830	9.45	-23.065	0.7	-0.177876	0.974048	-0.003904	0.111	-0.3075	0.3435	0	386	39	3
2026-02-12	14:58:33.850	6.545	-23.135	2.905	-0.162748	0.960872	0.00976	0.114	-0.306	0.3495	0	386	39	3
2026-02-12	14:58:33.870	6.3	-21.35	3.745	-0.154208	0.913292	0.040504	0.1155	-0.3075	0.348	0	386	39	3
2026-02-12	14:58:33.890	10.325	-19.845	3.57	-0.1525	0.86254	0.056608	0.1155	-0.3075	0.348	0	386	39	3
2026-02-12	14:58:33.910	15.12	-18.725	3.395	-0.16958	0.8418	0.066124	0.1095	-0.3075	0.348	0	386	39	3
2026-02-12	14:58:33.930	14.63	-18.76	3.22	-0.174704	0.85522	0.0732	0.1155	-0.312	0.345	0	386	39	3
2026-02-12	14:58:33.950	13.72	-19.565	2.485	-0.179584	0.811056	0.073444	0.117	-0.309	0.348	0	386	39	3
2026-02-12	14:58:33.970	20.51	-19.18	1.925	-0.185928	0.764208	0.051484	0.117	-0.3135	0.357	0	386	39	3
2026-02-12	14:58:33.990	31.185	-18.27	1.995	-0.202764	0.785924	0.011468	0.1035	-0.309	0.3555	0	386	39	3
2026-02-12	14:58:34.010	38.605	-17.395	0.28	-0.221552	0.867664	0.012688	0.111	-0.2985	0.36	0	352	42	3
2026-02-12	14:58:34.030	36.435	-16.87	-1.61	-0.233508	0.900116	0.027328	0.111	-0.2985	0.36	0	352	42	3
2026-02-12	14:58:34.050	28.07	-15.75	-2.17	-0.261568	0.962824	0.020252	0.1155	-0.309	0.369	0	352	42	3
2026-02-12	14:58:34.070	16.205	-14.385	-2.275	-0.274256	1.003084	0.000488	0.117	-0.3075	0.3705	0	352	42	3
2026-02-12	14:58:34.090	5.11	-12.495	-3.01	-0.275964	1.045052	-0.007808	0.114	-0.309	0.3705	0	352	42	3
2026-02-12	14:58:34.110	3.15	-9.345	-4.025	-0.268888	1.085068	-0.026108	0.111	-0.309	0.375	0	352	42	3
2026-02-12	14:58:34.130	36.82	-2.38	-6.44	-0.244488	1.118496	-0.083448	0.111	-0.306	0.378	0	352	42	3
2026-02-12	14:58:34.150	86.275	6.545	-8.4	-0.199592	1.12362	-0.09857599	0.111	-0.3075	0.378	0	352	42	3
2026-02-12	14:58:34.170	84.595	12.88	-4.13	-0.204472	1.201456	-0.091256	0.1185	-0.3045	0.387	0	352	42	3
2026-02-12	14:58:34.190	39.025	16.765	2.31	-0.196908	1.271728	-0.085644	0.102	-0.3075	0.402	0	352	42	3
2026-02-12	14:58:34.210	-17.22	18.76	8.68	-0.176168	1.234396	-0.067832	0.105	-0.3075	0.408	0	319	35	3
2026-02-12	14:58:34.230	-58.94	20.09	10.5	-0.15616	1.175592	-0.07198	0.102	-0.309	0.4035	0	319	35	3
2026-02-12	14:58:34.250	-83.3	19.915	11.34	-0.150792	1.093608	-0.077104	0.1125	-0.309	0.402	0	319	35	3
2026-02-12	14:58:34.270	-83.825	20.055	11.41	-0.128344	1.031632	-0.046848	0.0945	-0.3135	0.3855	0	319	35	3
2026-02-12	14:58:34.290	-66.885	20.37	8.33	-0.091256	0.94916	-0.011468	0.087	-0.309	0.3645	0	319	35	3
2026-02-12	14:58:34.310	-42.455	20.195	4.445	-0.102236	0.932568	0.010004	0.0975	-0.3105	0.363	0	319	35	3
2026-02-12	14:58:34.330	-25.795	17.745	1.61	-0.096624	0.93086	0.050996	0.084	-0.306	0.351	0	319	35	3
2026-02-12	14:58:34.350	-19.25	13.965	-0.245	-0.081008	0.921832	0.092476	0.099	-0.3075	0.339	0	319	35	3
2026-02-12	14:58:34.370	-14.77	11.445	-1.225	-0.084424	0.89914	0.093452	0.0915	-0.312	0.3465	0	319	35	3
2026-02-12	14:58:34.390	-6.195	10.85	-1.4	-0.092964	0.877424	0.077348	0.0945	-0.3105	0.3345	0	319	35	3
2026-02-12	14:58:34.410	3.64	10.08	0.35	-0.106384	0.844484	0.032696	0.087	-0.303	0.3465	0	289	23	3
2026-02-12	14:58:34.430	9.03	8.89	1.33	-0.118096	0.8357	0.025864	0.0825	-0.3045	0.3405	0	289	23	3
2026-02-12	14:58:34.450	7.7	7.7	2.38	-0.131028	0.864248	0.04026	0.078	-0.306	0.339	0	289	23	3
2026-02-12	14:58:34.470	1.995	7.07	2.31	-0.138104	0.854244	0.072224	0.0795	-0.306	0.342	0	289	23	3
2026-02-12	14:58:34.490	-0.98	8.05	1.715	-0.14396	0.846436	0.081496	0.0855	-0.309	0.3435	0	289	23	3
2026-02-12	14:58:34.510	-0.525	8.855	0.21	-0.154696	0.848876	0.07564	0.087	-0.312	0.3435	0	289	23	3
2026-02-12	14:58:34.530	0.07	8.26	-1.225	-0.18422	0.871324	0.0854	0.0855	-0.312	0.3435	0	289	23	3
2026-02-12	14:58:34.550	-0.175	4.515	-2.38	-0.193248	0.917196	0.107604	0.0825	-0.3135	0.345	0	289	23	3
2026-02-12	14:58:34.570	-4.725	0.175	-4.27	-0.186172	0.940132	0.146644	0.0765	-0.3105	0.3465	0	289	23	3
2026-02-12	14:58:34.590	-9.695	-3.325	-5.53	-0.199592	0.884256	0.1647	0.078	-0.312	0.345	0	289	23	3
2026-02-12	14:58:34.610	-8.12	-4.69	-5.04	-0.223016	0.921832	0.170312	0.0825	-0.318	0.3375	0	264	22	3
2026-02-12	14:58:34.630	-11.445	-6.16	-5.635	-0.239852	0.959408	0.171776	0.0735	-0.312	0.3435	0	264	22	3
2026-02-12	14:58:34.650	-17.605	-8.12	-7.525	-0.242536	0.975512	0.166652	0.084	-0.3225	0.339	0	264	22	3
2026-02-12	14:58:34.670	-20.44	-10.5	-10.185	-0.25986	0.9272	0.155672	0.075	-0.3105	0.339	0	264	22	3
2026-02-12	14:58:34.690	-15.75	-12.565	-9.345	-0.2806	0.930128	0.14152	0.075	-0.3105	0.339	0	264	22	3
2026-02-12	14:58:34.710	-10.92	-13.895	-7.91	-0.279624	0.967948	0.102968	0.072	-0.312	0.3315	0	264	22	3
2026-02-12	14:58:34.730	-5.46	-15.435	-8.295	-0.2989	1.039928	0.074664	0.0765	-0.318	0.33	0	264	22	3
2026-02-12	14:58:34.750	-0.315	-16.38	-6.615	-0.311832	1.109956	0.058316	0.0795	-0.3195	0.3345	0	264	22	3
2026-02-12	14:58:34.770	3.255	-16.17	-3.115	-0.29158	1.228784	0.04636	0.0735	-0.321	0.3345	0	264	22	3
2026-02-12	14:58:34.790	4.445	-14.91	-1.61	-0.242536	1.231956	0.061244	0.075	-0.327	0.333	0	264	22	3
2026-02-12	14:58:34.810	3.15	-13.86	-1.61	-0.21228	1.150704	0.055388	0.0795	-0.3225	0.333	0	243	35	3
2026-02-12	14:58:34.830	8.575	-14.385	-2.8	-0.199104	1.056764	0.038308	0.078	-0.3195	0.339	0	243	35	3
2026-02-12	14:58:34.850	16.87	-16.485	-4.9	-0.181048	1.02724	0.034648	0.0735	-0.324	0.342	0	243	35	3
2026-02-12	14:58:34.870	20.51	-19.425	-9.135	-0.176412	1.031876	0.071736	0.069	-0.3255	0.348	0	243	35	3
2026-02-12	14:58:34.890	21.175	-20.86	-13.51	-0.202764	1.016504	0.093208	0.069	-0.327	0.3585	0	243	35	3
2026-02-12	14:58:34.910	19.005	-20.335	-14.91	-0.226188	1.032364	0.083692	0.075	-0.3315	0.36	0	243	35	3
2026-02-12	14:58:34.930	6.23	-18.83	-12.67	-0.203008	1.023336	0.068808	0.0795	-0.3285	0.366	0	243	35	3
2026-02-12	14:58:34.950	-6.37	-15.435	-7	-0.18422	0.991372	0.02928	0.0825	-0.327	0.375	0	243	35	3
2026-02-12	14:58:34.970	-5.32	-13.16	-4.48	-0.17324	0.951844	0.006832	0.0825	-0.327	0.375	0	243	35	3
2026-02-12	14:58:34.990	1.575	-11.9	-2.66	-0.167872	0.923296	-0.008784	0.084	-0.339	0.375	0	243	35	3
2026-02-12	14:58:35.010	6.895	-12.565	-0.49	-0.174216	0.899872	-0.021716	0.09	-0.3315	0.375	0	225	48	3
2026-02-12	14:58:35.030	7.42	-15.75	1.82	-0.17568	0.88694	-0.01708	0.087	-0.333	0.378	0	225	48	3
2026-02-12	14:58:35.050	4.41	-18.515	3.675	-0.19276	0.891088	0.003416	0.0945	-0.3285	0.384	0	225	48	3
2026-02-12	14:58:35.070	0.28	-20.65	4.095	-0.204472	0.889624	0.006832	0.09	-0.3345	0.387	0	225	48	3
2026-02-12	14:58:35.090	-2.135	-24.29	3.36	-0.187392	0.872544	0.00122	0.081	-0.33	0.387	0	225	48	3
2026-02-12	14:58:35.110	-15.505	-29.26	3.57	-0.182268	0.858392	0.030744	0.09	-0.336	0.39	0	225	48	3
2026-02-12	14:58:35.130	-29.155	-34.125	4.41	-0.193248	0.81374	0.072224	0.0855	-0.336	0.3915	0	225	48	3
2026-02-12	14:58:35.150	-21.84	-36.75	3.535	-0.205692	0.85034	0.07515199	0.0975	-0.33	0.384	0	225	48	3
2026-02-12	14:58:35.170	-13.09	-37.52	2.31	-0.21106	0.880108	0.081008	0.093	-0.33	0.387	0	225	48	3
2026-02-12	14:58:35.190	-5.81	-39.06	-0.28	-0.19398	0.874008	0.097356	0.09	-0.3315	0.387	0	225	48	3
2026-02-12	14:58:35.210	0.175	-37.975	-2.065	-0.182024	0.914512	0.147864	0.0915	-0.333	0.384	0	209	52	3
2026-02-12	14:58:35.230	-2.87	-33.88	-1.89	-0.179584	0.997716	0.17324	0.0915	-0.336	0.384	0	209	52	3
2026-02-12	14:58:35.250	-11.585	-28.805	-1.61	-0.182024	1.0431	0.157136	0.099	-0.333	0.3915	0	209	52	3
2026-02-12	14:58:35.270	-18.13	-23.415	-0.875	-0.1769	1.043588	0.129076	0.099	-0.336	0.393	0	209	52	3
2026-02-12	14:58:35.290	-16.8	-17.08	0.875	-0.148596	1.049688	0.111752	0.102	-0.3345	0.3855	0	209	52	3
2026-02-12	14:58:35.310	-10.885	-9.765	4.025	-0.127124	1.048712	0.111996	0.1095	-0.336	0.3855	0	209	52	3
2026-02-12	14:58:35.330	-4.025	-3.08	8.015	-0.12322	1.095072	0.112484	0.1065	-0.336	0.384	0	209	52	3
2026-02-12	14:58:35.350	-2.135	2.73	12.495	-0.119072	1.156804	0.133712	0.102	-0.345	0.393	0	209	52	3
2026-02-12	14:58:35.370	-5.25	7.875	15.855	-0.110532	1.156316	0.164212	0.111	-0.3435	0.381	0	209	52	3
2026-02-12	14:58:35.390	-6.93	13.37	18.34	-0.096136	1.123132	0.193492	0.1035	-0.339	0.3795	0	209	52	3
2026-02-12	14:58:35.410	-5.95	19.285	19.355	-0.095892	1.109224	0.175436	0.111	-0.3405	0.384	0	196	59	3
2026-02-12	14:58:35.430	-1.365	24.08	19.32	-0.109312	1.097268	0.128832	0.093	-0.342	0.387	0	196	59	3
2026-02-12	14:58:35.450	8.575	27.09	18.305	-0.098332	1.075308	0.101504	0.0975	-0.3375	0.381	0	196	59	3
2026-02-12	14:58:35.470	24.5	29.19	14.91	-0.078568	1.021628	0.104188	0.087	-0.339	0.3855	0	196	59	3
2026-02-12	14:58:35.490	32.27	29.925	8.96	-0.065392	1.006744	0.121756	0.0885	-0.333	0.39	0	196	59	3
2026-02-12	14:58:35.510	23.345	28.595	5.215	-0.054656	0.994544	0.126148	0.087	-0.3315	0.3885	0	196	59	3
2026-02-12	14:58:35.530	11.48	26.285	2.345	-0.055876	0.947452	0.115656	0.0885	-0.3285	0.3915	0	196	59	3
2026-02-12	14:58:35.550	2.38	23.835	0.805	-0.055876	0.910608	0.102236	0.093	-0.333	0.3975	0	196	59	3
2026-02-12	14:58:35.570	-5.11	22.68	0.945	-0.067588	0.861808	0.105896	0.09	-0.336	0.399	0	196	59	3
2026-02-12	14:58:35.590	-5.53	22.68	1.33	-0.06954	0.838872	0.111508	0.0855	-0.33	0.396	0	196	59	3
2026-02-12	14:58:35.610	0.42	23.975	1.61	-0.081984	0.809836	0.121268	0.0855	-0.3285	0.39	0	185	73	3
2026-02-12	14:58:35.630	6.51	27.755	2.345	-0.074176	0.792024	0.179584	0.087	-0.3285	0.3915	0	185	73	3
2026-02-12	14:58:35.650	15.26	33.075	2.66	-0.064172	0.83448	0.230824	0.0885	-0.3285	0.393	0	185	73	3
2026-02-12	14:58:35.670	18.76	38.885	1.015	-0.097112	0.855708	0.225212	0.0855	-0.33	0.3945	0	185	73	3
2026-02-12	14:58:35.690	15.47	39.235	-0.875	-0.148352	0.847168	0.155428	0.084	-0.33	0.3945	0	185	73	3
2026-02-12	14:58:35.710	10.815	34.3	-2.695	-0.193736	0.840824	0.099308	0.0855	-0.3315	0.3915	0	185	73	3
2026-02-12	14:58:35.730	2.345	25.655	-3.395	-0.209108	0.846436	0.112484	0.0945	-0.333	0.3945	0	185	73	3
2026-02-12	14:58:35.750	-6.475	15.26	-4.305	-0.212768	0.892064	0.141032	0.0885	-0.3315	0.3975	0	185	73	3
2026-02-12	14:58:35.770	-13.335	7.14	-4.69	-0.233752	0.926468	0.149328	0.0885	-0.3315	0.3975	0	185	73	3
2026-02-12	14:58:35.790	-17.64	2.415	-3.745	-0.231556	0.958188	0.149328	0.09	-0.327	0.393	0	185	73	3
2026-02-12	14:58:35.810	-17.78	-1.155	-4.655	-0.215696	0.981124	0.155672	0.0945	-0.3255	0.3855	0	175	90	3
2026-02-12	14:58:35.830	-16.415	-4.48	-7.035	-0.218868	1.008452	0.15982	0.093	-0.327	0.3825	0	175	90	3
2026-02-12	14:58:35.850	-11.865	-7.385	-9.485	-0.211792	1.048224	0.1586	0.0885	-0.327	0.384	0	175	90	3
2026-02-12	14:58:35.870	-7.7	-9.485	-11.76	-0.207156	1.067988	0.145912	0.09	-0.3285	0.381	0	175	90	3
2026-02-12	14:58:35.890	0.525	-11.2	-13.86	-0.1891	1.037732	0.142008	0.0975	-0.3255	0.3765	0	175	90	3
2026-02-12	14:58:35.910	18.48	-9.24	-14.805	-0.187148	1.064816	0.1342	0.1035	-0.324	0.375	0	175	90	3
2026-02-12	14:58:35.930	32.515	-5.425	-12.355	-0.197884	1.141188	0.098332	0.105	-0.327	0.381	0	175	90	3
2026-02-12	14:58:35.950	34.09	-1.33	-8.015	-0.186904	1.18584	0.063684	0.105	-0.324	0.39	0	175	90	3
2026-02-12	14:58:35.970	27.58	0.63	-4.97	-0.17324	1.156804	0.030744	0.105	-0.324	0.3915	0	175	90	3
2026-02-12	14:58:35.990	20.72	0.245	-2.31	-0.179096	1.120448	-0.001464	0.1065	-0.3255	0.3975	0	175	90	3
2026-02-12	14:58:36.010	19.985	-3.29	-0.455	-0.153476	1.064816	-0.020496	0.108	-0.327	0.4035	0	168	102	3
2026-02-12	14:58:36.030	22.015	-10.745	-3.08	-0.140544	0.991616	-0.00976	0.108	-0.327	0.4035	0	168	102	3
2026-02-12	14:58:36.050	18.48	-16.625	-3.5	-0.152744	0.95892	0.004636	0.108	-0.327	0.4035	0	168	102	3
2026-02-12	14:58:36.070	14.665	-21.35	-0.77	-0.181536	0.970632	-0.005856	0.099	-0.33	0.414	0	168	102	3
2026-02-12	14:58:36.090	12.355	-24.5	4.165	-0.193492	0.983076	-0.023912	0.1035	-0.3255	0.414	0	168	102	3
2026-02-12	14:58:36.110	8.785	-27.65	9.835	-0.190564	0.974536	-0.030988	0.1155	-0.3195	0.423	0	168	102	3
2026-02-12	14:58:36.130	4.445	-29.505	16.1	-0.171776	0.97478	-0.025376	0.1065	-0.3225	0.429	0	168	102	3
2026-02-12	14:58:36.150	3.57	-30.45	19.705	-0.13908	0.997228	-0.026352	0.099	-0.3255	0.417	0	168	102	3
2026-02-12	14:58:36.170	6.125	-29.365	20.16	-0.112484	0.994056	0.000976	0.1005	-0.3165	0.417	0	168	102	3
2026-02-12	14:58:36.190	6.02	-26.74	18.76	-0.098332	0.970876	0.02684	0.096	-0.3165	0.426	0	168	102	3
2026-02-12	14:58:36.210	2.695	-23.275	17.045	-0.105408	0.921588	0.025376	0.1035	-0.3135	0.4245	0	162	96	3
2026-02-12	14:58:36.230	1.75	-20.93	15.47	-0.12078	0.889136	-0.00366	0.093	-0.315	0.429	0	162	96	3
2026-02-12	14:58:36.250	2.205	-20.195	14.245	-0.129564	0.836676	-0.020252	0.0915	-0.318	0.435	0	162	96	3
2026-02-12	14:58:36.270	3.115	-20.475	13.16	-0.123952	0.81862	-0.029036	0.09	-0.3195	0.432	0	162	96	3
2026-02-12	14:58:36.290	1.26	-21	12.495	-0.1281	0.838384	-0.010004	0.0885	-0.3135	0.4305	0	162	96	3
2026-02-12	14:58:36.310	-3.64	-21.56	12.46	-0.122488	0.844972	0.000488	0.0885	-0.309	0.429	0	162	96	3
2026-02-12	14:58:36.330	-5.53	-21.665	12.565	-0.124928	0.810568	-0.014152	0.078	-0.324	0.435	0	162	96	3
2026-02-12	14:58:36.350	0.035	-21.63	13.3	-0.128832	0.824232	-0.005612	0.078	-0.315	0.432	0	162	96	3
2026-02-12	14:58:36.370	12.67	-22.435	14.315	-0.134932	0.892796	-0.012688	0.075	-0.312	0.4365	0	162	96	3
2026-02-12	14:58:36.390	33.495	-22.26	13.825	-0.126392	1.014308	0.005368	0.0825	-0.3165	0.441	0	162	96	3
2026-02-12	14:58:36.410	33.81	-21.315	12.915	-0.112484	1.130696	0.034892	0.081	-0.303	0.441	0	157	77	3
2026-02-12	14:58:36.430	18.69	-17.185	11.655	-0.10492	1.18096	0.048312	0.066	-0.3105	0.4515	0	157	77	3
2026-02-12	14:58:36.450	-0.315	-10.045	11.48	-0.101016	1.198284	0.016348	0.0735	-0.3045	0.456	0	157	77	3
2026-02-12	14:58:36.470	-11.935	-1.225	12.53	-0.10858	1.180472	-0.029768	0.0675	-0.306	0.4485	0	157	77	3
2026-02-12	14:58:36.490	-11.725	7.56	14.77	-0.087108	1.199992	-0.03782	0.0735	-0.3045	0.4545	0	157	77	3
2026-02-12	14:58:36.510	-9.695	15.26	16.31	-0.046116	1.211704	-0.01708	0.069	-0.306	0.45	0	157	77	3
2026-02-12	14:58:36.530	-7.56	21.7	16.24	-0.036844	1.19072	-0.016836	0.066	-0.3105	0.4515	0	157	77	3
2026-02-12	14:58:36.550	-5.285	26.39	15.155	-0.032696	1.205848	-0.03782	0.066	-0.297	0.444	0	157	77	3
2026-02-12	14:58:36.570	-6.545	28.875	8.925	-0.032452	1.168516	-0.050508	0.0675	-0.303	0.438	0	157	77	3
2026-02-12	14:58:36.590	-11.725	29.05	4.795	-0.010004	1.122156	-0.04636	0.0615	-0.3015	0.441	0	157	77	3
2026-02-12	14:58:36.610	-11.935	29.19	-0.595	0.010736	1.002108	-0.013176	0.0585	-0.3015	0.4395	0	154	54	3
2026-02-12	14:58:36.630	-3.08	30.205	-6.51	0.022448	0.946232	0.022692	0.0585	-0.3015	0.4335	0	154	54	3
2026-02-12	14:58:36.650	6.965	31.78	-11.41	0.00366	0.946232	0.037576	0.057	-0.303	0.4335	0	154	54	3
2026-02-12	14:58:36.670	7.245	31.955	-14.98	-0.009516	0.957944	0.02806	0.054	-0.303	0.435	0	154	54	3
2026-02-12	14:58:36.690	1.785	31.885	-17.255	-0.022936	0.955504	0.0183	0.054	-0.3015	0.435	0	154	54	3
2026-02-12	14:58:36.710	-7.7	31.71	-18.34	-0.027816	0.944768	0.015128	0.0585	-0.2985	0.435	0	154	54	3
2026-02-12	14:58:36.730	-16.765	31.675	-17.64	-0.031232	0.884256	0.016836	0.0615	-0.303	0.4305	0	154	54	3
2026-02-12	14:58:36.750	-15.4	32.41	-16.45	-0.032452	0.858148	0.026108	0.063	-0.3075	0.429	0	154	54	3
2026-02-12	14:58:36.770	-8.225	33.25	-16.065	-0.041724	0.848144	0.04148	0.063	-0.306	0.429	0	154	54	3
2026-02-12	14:58:36.790	-3.325	33.67	-16.17	-0.040992	0.8296	0.055876	0.0675	-0.3045	0.4245	0	154	54	3
2026-02-12	14:58:36.810	1.89	34.16	-16.205	-0.037332	0.837408	0.08906	0.0675	-0.303	0.423	0	152	39	3
2026-02-12	14:58:36.830	-4.27	36.54	-15.47	-0.041236	0.86498	0.147132	0.066	-0.303	0.42	0	152	39	3
2026-02-12	14:58:36.850	-19.81	40.495	-15.155	-0.058316	0.838872	0.177876	0.069	-0.3045	0.4185	0	152	39	3
2026-02-12	14:58:36.870	-23.345	44.17	-15.015	-0.087352	0.836432	0.163724	0.0705	-0.3075	0.417	0	152	39	3
2026-02-12	14:58:36.890	-23.275	46.305	-13.475	-0.126636	0.848876	0.135176	0.069	-0.312	0.4095	0	152	39	3
2026-02-12	14:58:36.910	-20.125	45.15	-11.62	-0.158112	0.88572	0.101504	0.066	-0.3135	0.399	0	152	39	3
2026-02-12	14:58:36.930	-15.05	40.67	-10.01	-0.179584	0.908656	0.083692	0.0705	-0.312	0.3975	0	152	39	3
2026-02-12	14:58:36.950	-10.29	34.965	-8.715	-0.19032	0.944036	0.092476	0.0765	-0.3075	0.396	0	152	39	3
2026-02-12	14:58:36.970	-6.475	28.245	-8.68	-0.19032	0.96258	0.110532	0.0795	-0.306	0.3885	0	152	39	3
2026-02-12	14:58:36.990	-7.525	21	-8.33	-0.199836	0.981124	0.12566	0.081	-0.309	0.3855	0	152	39	3
2026-02-12	14:58:37.010	-9.625	13.93	-6.79	-0.208376	1.009916	0.133712	0.0825	-0.3105	0.3885	0	151	39	3
2026-02-12	14:58:37.030	-11.865	7.56	-5.04	-0.204472	1.035048	0.130784	0.087	-0.312	0.384	0	151	39	3
2026-02-12	14:58:37.050	-9.45	2.275	-5.11	-0.196908	1.072868	0.112972	0.09	-0.309	0.3855	0	151	39	3
2026-02-12	14:58:37.070	-5.95	-2.135	-5.53	-0.203008	1.11264	0.096624	0.0885	-0.309	0.3885	0	151	39	3
2026-02-12	14:58:37.090	-3.255	-4.795	-3.29	-0.2135	1.13704	0.097356	0.087	-0.3135	0.384	0	151	39	3
2026-02-12	14:58:37.110	-7.56	-5.705	1.505	-0.200568	1.19438	0.0915	0.0825	-0.3165	0.3855	0	151	39	3
2026-02-12	14:58:37.130	-9.52	-5.74	2.695	-0.191784	1.15412	0.071004	0.0825	-0.3165	0.3855	0	151	39	3
2026-02-12	14:58:37.150	-6.3	-6.86	2.835	-0.18178	1.100196	0.042944	0.0795	-0.309	0.3825	0	151	39	3
2026-02-12	14:58:37.170	6.58	-9.45	0.665	-0.160064	1.070916	0.04392	0.0795	-0.3105	0.387	0	151	39	3
2026-02-12	14:58:37.190	10.85	-12.355	-2.695	-0.1403	1.037488	0.073688	0.0855	-0.315	0.3885	0	151	39	3
2026-02-12	14:58:37.210	5.95	-16.135	-5.74	-0.151768	0.991372	0.06588	0.0825	-0.3105	0.3855	0	151	50	3
2026-02-12	14:58:37.230	5.495	-19.53	-7	-0.1891	0.995276	0.021228	0.0945	-0.309	0.393	0	151	50	3
2026-02-12	14:58:37.250	3.43	-23.24	-5.6	-0.194956	0.994788	-0.020984	0.0885	-0.3135	0.393	0	151	50	3
2026-02-12	14:58:37.270	-0.21	-26.845	-2.94	-0.194224	0.948916	-0.02318	0.09	-0.3105	0.399	0	151	50	3
2026-02-12	14:58:37.290	-1.82	-29.715	0.735	-0.178608	0.908412	-0.01586	0.0885	-0.3165	0.4035	0	151	50	3
2026-02-12	14:58:37.310	2.065	-30.52	5.005	-0.172752	0.918904	-0.0244	0.09	-0.3105	0.3945	0	151	50	3
2026-02-12	14:58:37.330	11.13	-29.995	8.365	-0.157624	0.938424	-0.030744	0.09	-0.312	0.3975	0	151	50	3
2026-02-12	14:58:37.350	16.24	-29.085	9.345	-0.130784	0.994056	-0.008052	0.09	-0.3015	0.396	0	151	50	3
2026-02-12	14:58:37.370	8.96	-26.74	7.49	-0.11224	0.949404	0.038796	0.0915	-0.306	0.4035	0	151	50	3
2026-02-12	14:58:37.390	3.71	-23.8	4.935	-0.09882	0.8784	0.0549	0.0915	-0.306	0.4035	0	151	50	3
2026-02-12	14:58:37.410	3.955	-22.295	2.905	-0.10614	0.849852	0.057096	0.09	-0.306	0.408	0	149	55	3
2026-02-12	14:58:37.430	3.57	-21.28	2.1	-0.122732	0.821548	0.051484	0.0885	-0.306	0.4125	0	149	55	3
2026-02-12	14:58:37.450	1.925	-21.595	2.24	-0.135176	0.82472	0.040992	0.0915	-0.303	0.4155	0	149	55	3
2026-02-12	14:58:37.470	0.49	-22.82	2.8	-0.13908	0.840092	0.033428	0.084	-0.2955	0.411	0	149	55	3
2026-02-12	14:58:37.490	-1.33	-23.415	4.06	-0.136396	0.890112	0.059536	0.084	-0.3015	0.4125	0	149	55	3
2026-02-12	14:58:37.510	-6.335	-22.575	4.69	-0.1342	0.886696	0.092964	0.0855	-0.2985	0.4155	0	149	55	3
2026-02-12	14:58:37.530	-8.435	-19.67	5.425	-0.135908	0.913292	0.103456	0.096	-0.297	0.42	0	149	55	3
2026-02-12	14:58:37.550	-6.02	-16.135	5.81	-0.131272	0.957212	0.087596	0.0855	-0.2955	0.414	0	149	55	3
2026-02-12	14:58:37.570	-3.57	-12.495	4.935	-0.13298	1.05286	0.079788	0.084	-0.3015	0.417	0	149	55	3
2026-02-12	14:58:37.590	-5.705	-8.47	3.675	-0.128344	1.103856	0.090524	0.0945	-0.306	0.4185	0	149	55	3
2026-02-12	14:58:37.610	-10.29	-2.765	4.13	-0.106872	1.147776	0.105652	0.0855	-0.3	0.4155	0	146	55	3
2026-02-12	14:58:37.630	-15.435	4.76	6.3	-0.086132	1.120204	0.0915	0.084	-0.3045	0.417	0	146	55	3
2026-02-12	14:58:37.650	-6.58	15.505	10.57	-0.104188	1.158268	0.038552	0.0795	-0.303	0.414	0	146	55	3
2026-02-12	14:58:37.670	-3.815	20.72	13.93	-0.086376	1.196332	0.05978	0.0795	-0.3	0.414	0	146	55	3
2026-02-12	14:58:37.690	-3.15	25.76	16.345	-0.075884	1.198284	0.096868	0.0795	-0.2955	0.414	0	146	55	3
2026-02-12	14:58:37.710	-3.64	31.5	18.13	-0.044896	1.209996	0.10614	0.081	-0.297	0.4125	0	146	55	3
2026-02-12	14:58:37.730	-2.73	36.54	17.29	-0.037088	1.16632	0.09272	0.081	-0.294	0.4125	0	146	55	3
2026-02-12	14:58:37.750	-0.49	40.67	16.1	-0.034404	1.174372	0.0793	0.075	-0.2925	0.4125	0	146	55	3
2026-02-12	14:58:37.770	2.765	43.225	12.81	-0.009272	1.115568	0.072956	0.0675	-0.2985	0.411	0	146	55	3
2026-02-12	14:58:37.790	9.625	43.925	6.37	0.025376	1.020896	0.079788	0.0645	-0.294	0.4065	0	146	55	3
2026-02-12	14:58:37.810	13.65	43.295	0.035	0.034404	1.001376	0.10736	0.0645	-0.291	0.405	0	144	57	3
2026-02-12	14:58:37.830	8.19	42.595	-4.83	0.038308	0.983564	0.15006	0.066	-0.294	0.4095	0	144	57	3
2026-02-12	14:58:37.850	-3.36	41.965	-8.855	0.020008	0.948184	0.15372	0.066	-0.294	0.408	0	144	57	3
2026-02-12	14:58:37.870	-17.605	40.565	-10.255	-0.003904	0.945012	0.1098	0.0645	-0.294	0.4095	0	144	57	3
2026-02-12	14:58:37.890	-32.48	38.22	-10.115	-0.016104	0.8723	0.07515199	0.069	-0.288	0.4035	0	144	57	3
2026-02-12	14:58:37.910	-26.285	37.555	-7.665	-0.030744	0.799588	0.07515199	0.0705	-0.2895	0.396	0	144	57	3
2026-02-12	14:58:37.930	-8.155	38.15	-5.39	-0.032208	0.784216	0.09638	0.0675	-0.3015	0.4005	0	144	57	3
2026-02-12	14:58:37.950	2.66	38.29	-5.215	-0.037576	0.811788	0.109068	0.069	-0.2985	0.375	0	144	57	3
2026-02-12	14:58:37.970	9.065	38.745	-5.74	-0.053436	0.795928	0.129808	0.0615	-0.2925	0.3765	0	144	57	3
2026-02-12	14:58:37.990	12.775	40.25	-6.265	-0.075396	0.829356	0.160308	0.069	-0.291	0.3825	0	144	57	3
2026-02-12	14:58:38.010	11.2	40.565	-7.14	-0.084912	0.866932	0.159088	0.0705	-0.2985	0.3825	0	142	65	3
2026-02-12	14:58:38.030	9.485	40.32	-8.33	-0.103212	0.859856	0.142984	0.0705	-0.2985	0.3855	0	142	65	3
2026-02-12	14:58:38.050	8.785	39.83	-8.365	-0.120292	0.855952	0.127124	0.0675	-0.297	0.384	0	142	65	3
2026-02-12	14:58:38.070	7.525	37.94	-6.51	-0.133712	0.872056	0.119804	0.066	-0.2925	0.3825	0	142	65	3
2026-02-12	14:58:38.090	8.33	34.65	-4.27	-0.142008	0.909388	0.126636	0.0675	-0.294	0.381	0	142	65	3
2026-02-12	14:58:38.110	9.52	30.835	-3.43	-0.162504	0.956724	0.13542	0.072	-0.294	0.3765	0	142	65	3
2026-02-12	14:58:38.130	11.76	25.865	-3.885	-0.155672	0.975512	0.158356	0.0735	-0.291	0.375	0	142	65	3
2026-02-12	14:58:38.150	11.375	21.42	-5.39	-0.157136	1.010648	0.19276	0.0735	-0.291	0.3825	0	142	65	3
2026-02-12	14:58:38.170	0.77	16.555	-6.37	-0.172752	0.99674	0.18788	0.075	-0.294	0.387	0	142	65	3
2026-02-12	14:58:38.190	-4.935	9.205	-8.26	-0.19642	1.014552	0.13786	0.072	-0.2985	0.3855	0	142	65	3
2026-02-12	14:58:38.210	-4.445	4.34	-10.325	-0.204228	1.019432	0.102724	0.0675	-0.2895	0.3855	0	142	78	3
2026-02-12	14:58:38.230	-3.675	-0.105	-11.2	-0.201544	1.042856	0.088816	0.075	-0.2955	0.3795	0	142	78	3
2026-02-12	14:58:38.250	-2.135	-1.995	-8.89	-0.202032	1.08336	0.077348	0.0795	-0.297	0.381	0	142	78	3
2026-02-12	14:58:38.270	1.47	-1.295	-4.585	-0.204228	1.15046	0.06344	0.078	-0.2955	0.3825	0	142	78	3
2026-02-12	14:58:38.290	3.92	1.33	1.015	-0.194224	1.22854	0.052948	0.0675	-0.294	0.375	0	142	78	3
2026-02-12	14:58:38.310	4.935	4.095	5.145	-0.169336	1.258308	0.037088	0.0765	-0.297	0.384	0	142	78	3
2026-02-12	14:58:38.330	3.535	6.055	7.875	-0.12932	1.215364	0.043676	0.078	-0.297	0.3825	0	142	78	3
2026-02-12	14:58:38.350	-1.505	7.7	7.455	-0.097844	1.125816	0.065636	0.0765	-0.294	0.3825	0	142	78	3
2026-02-12	14:58:38.370	-0.035	8.435	2.45	-0.078324	1.051396	0.047824	0.078	-0.294	0.384	0	142	78	3
2026-02-12	14:58:38.390	12.18	8.61	-3.045	-0.110532	1.08214	0.01342	0.075	-0.2865	0.381	0	142	78	3
2026-02-12	14:58:38.410	5.46	5.145	-5.705	-0.108824	1.025776	0.006344	0.0735	-0.294	0.3825	0	142	87	3
2026-02-12	14:58:38.430	-8.785	2.065	-4.935	-0.094916	0.9272	0.01464	0.075	-0.2955	0.3915	0	142	87	3
2026-02-12	14:58:38.450	-11.165	-0.875	-2.45	-0.09028	0.876204	0.00976	0.072	-0.2895	0.3855	0	142	87	3
2026-02-12	14:58:38.470	-2.835	-1.925	1.855	-0.099552	0.903044	0.00244	0.0735	-0.2895	0.381	0	142	87	3
2026-02-12	14:58:38.490	1.96	-3.045	5.11	-0.110044	0.929396	0.004148	0.0705	-0.2925	0.3795	0	142	87	3
2026-02-12	14:58:38.510	2.275	-4.585	7.735	-0.093452	0.937204	0.015616	0.069	-0.2955	0.3795	0	142	87	3
2026-02-12	14:58:38.530	-0.875	-5.25	9.345	-0.075884	0.923296	0.041724	0.069	-0.2895	0.3765	0	142	87	3
2026-02-12	14:58:38.550	-1.995	-5.88	9.38	-0.069784	0.897188	0.048312	0.0675	-0.2895	0.378	0	142	87	3
2026-02-12	14:58:38.570	0.035	-6.755	8.61	-0.077348	0.864492	0.032208	0.0645	-0.288	0.381	0	142	87	3
2026-02-12	14:58:38.590	6.755	-7.91	7.665	-0.08295999	0.861564	0.039284	0.06	-0.2805	0.381	0	142	87	3
2026-02-12	14:58:38.610	7.875	-8.33	7.595	-0.096868	0.876204	0.064172	0.0615	-0.2895	0.381	0	141	83	3
2026-02-12	14:58:38.630	0.7	-7.98	8.505	-0.111508	0.874496	0.063196	0.0555	-0.291	0.384	0	141	83	3
2026-02-12	14:58:38.650	-3.43	-6.86	10.115	-0.123464	0.857904	0.053192	0.0555	-0.288	0.384	0	141	83	3
2026-02-12	14:58:38.670	-3.255	-5.39	12.845	-0.123464	0.864004	0.044652	0.0585	-0.288	0.3795	0	141	83	3
2026-02-12	14:58:38.690	-1.785	-3.605	14.56	-0.115412	0.916952	0.055144	0.048	-0.294	0.3855	0	141	83	3
2026-02-12	14:58:38.710	-2.695	-0.595	14.49	-0.11712	0.955992	0.067832	0.051	-0.2835	0.3825	0	141	83	3
2026-02-12	14:58:38.730	-7.49	3.395	14.07	-0.129564	0.98454	0.066856	0.051	-0.2835	0.3825	0	141	83	3
2026-02-12	14:58:38.750	-9.205	5.915	14.595	-0.13054	1.05164	0.074664	0.048	-0.282	0.3795	0	141	83	3
2026-02-12	14:58:38.770	-17.29	8.05	16.695	-0.11224	1.126548	0.070028	0.048	-0.282	0.3795	0	141	83	3
2026-02-12	14:58:38.790	-22.575	11.095	18.76	-0.094916	1.166076	0.06832	0.0465	-0.2805	0.3795	0	141	83	3
2026-02-12	14:58:38.810	-19.6	15.435	20.23	-0.069052	1.203896	0.071004	0.042	-0.2775	0.3735	0	140	75	3
2026-02-12	14:58:38.830	-16.135	19.705	22.645	-0.077348	1.199992	0.077836	0.0375	-0.27	0.369	0	140	75	3
2026-02-12	14:58:38.850	-14.28	22.575	26.88	-0.057584	1.220488	0.086376	0.0345	-0.2685	0.3675	0	140	75	3
2026-02-12	14:58:38.870	-15.33	24.745	29.575	-0.010736	1.21512	0.10248	0.0315	-0.2685	0.363	0	140	75	3
2026-02-12	14:58:38.890	-18.445	28	28.735	0.005368	1.194136	0.12322	0.0315	-0.267	0.3585	0	140	75	3
2026-02-12	14:58:38.910	-22.435	31.29	26.74	-0.009272	1.141188	0.1159	0.024	-0.273	0.354	0	140	75	3
2026-02-12	14:58:38.930	-22.855	33.74	24.395	-0.00976	1.063352	0.100528	0.0165	-0.276	0.3525	0	140	75	3
2026-02-12	14:58:38.950	-11.76	35.945	18.69	0.0061	0.994788	0.084424	0.018	-0.27	0.351	0	140	75	3
2026-02-12	14:58:38.970	1.855	37.52	11.13	0.006344	0.993324	0.07515199	0.015	-0.2655	0.345	0	140	75	3
2026-02-12	14:58:38.990	9.8	37.66	-0.14	0.016348	0.996252	0.112972	0.009	-0.264	0.339	0	140	75	3
2026-02-12	14:58:39.010	1.505	37.38	-7	0.010492	0.98576	0.136152	0.006	-0.2625	0.336	0	139	72	3
2026-02-12	14:58:39.030	-11.725	36.645	-12.18	0.005612	0.95038	0.13176	0.0105	-0.2655	0.3375	0	139	72	3
2026-02-12	14:58:39.050	-18.41	36.82	-16.1	-0.013176	0.868884	0.110044	0.015	-0.264	0.3345	0	139	72	3
2026-02-12	14:58:39.070	-13.16	36.61	-17.01	-0.045384	0.805932	0.061732	0.018	-0.27	0.3345	0	139	72	3
2026-02-12	14:58:39.090	-6.37	35.14	-15.155	-0.072224	0.837652	0.046848	0.024	-0.276	0.327	0	139	72	3
2026-02-12	14:58:39.110	-6.09	33.25	-12.775	-0.058316	0.842776	0.077836	0.0255	-0.27	0.318	0	139	72	3
2026-02-12	14:58:39.130	-5.6	33.425	-11.13	-0.048068	0.829112	0.115656	0.0255	-0.267	0.3135	0	139	72	3
2026-02-12	14:58:39.150	-0.84	35.175	-10.815	-0.046116	0.813496	0.12932	0.027	-0.2745	0.309	0	139	72	3
2026-02-12	14:58:39.170	9.205	36.82	-10.99	-0.057584	0.776652	0.11346	0.027	-0.279	0.3135	0	139	72	3
2026-02-12	14:58:39.190	21.42	36.645	-10.78	-0.09467199	0.762744	0.08418	0.027	-0.2745	0.315	0	139	72	3
2026-02-12	14:58:39.210	24.29	33.88	-8.82	-0.117852	0.83692	0.077348	0.03	-0.2685	0.315	0	138	75	3
2026-02-12	14:58:39.230	12.46	28.945	-5.985	-0.136884	0.884744	0.106628	0.0315	-0.27	0.315	0	138	75	3
2026-02-12	14:58:39.250	-1.715	22.26	-1.995	-0.170312	0.875716	0.120536	0.0315	-0.276	0.3135	0	138	75	3
2026-02-12	14:58:39.270	3.885	15.645	0	-0.198616	0.936472	0.148352	0.0315	-0.282	0.312	0	138	75	3
2026-02-12	14:58:39.290	12.565	11.655	-0.07	-0.210328	1.025532	0.184708	0.036	-0.273	0.312	0	138	75	3
2026-02-12	14:58:39.310	6.58	7.245	-1.995	-0.208864	1.058228	0.206668	0.0315	-0.27	0.3105	0	138	75	3
2026-02-12	14:58:39.330	-3.22	3.395	-5.215	-0.198372	1.046028	0.198128	0.0345	-0.273	0.3015	0	138	75	3
2026-02-12	14:58:39.350	-5.285	-0.245	-8.855	-0.197396	1.062864	0.165676	0.036	-0.2625	0.3105	0	138	75	3
2026-02-12	14:58:39.370	-3.395	-4.62	-12.53	-0.189588	1.082628	0.122976	0.0345	-0.2745	0.3105	0	138	75	3
2026-02-12	14:58:39.390	-1.785	-9.52	-16.17	-0.20008	1.115568	0.0793	0.042	-0.27	0.306	0	138	75	3
2026-02-12	14:58:39.410	-2.135	-14.77	-16.975	-0.2013	1.152412	0.048068	0.036	-0.2715	0.3075	0	138	83	3
2026-02-12	14:58:39.430	-3.01	-19.11	-15.19	-0.196176	1.146068	0.01098	0.042	-0.2685	0.3105	0	138	83	3
2026-02-12	14:58:39.450	-0.28	-23.765	-11.795	-0.191784	1.106784	-0.015128	0.042	-0.2715	0.3105	0	138	83	3
2026-02-12	14:58:39.470	6.335	-28.49	-7.28	-0.18056	1.07604	-0.0244	0.039	-0.276	0.3105	0	138	83	3
2026-02-12	14:58:39.490	17.5	-33.67	-2.765	-0.161528	1.086776	-0.014152	0.039	-0.273	0.315	0	138	83	3
2026-02-12	14:58:39.510	25.2	-39.83	-0.56	-0.13298	1.115568	0.001952	0.0435	-0.273	0.327	0	138	83	3
2026-02-12	14:58:39.530	27.86	-49.84	-4.34	-0.125416	1.035536	0.015128	0.0405	-0.276	0.3255	0	138	83	3
2026-02-12	14:58:39.550	32.83	-54.53	-5.53	-0.142252	1.038464	0.013664	0.045	-0.2745	0.3315	0	138	83	3
2026-02-12	14:58:39.570	28.035	-57.855	-5.32	-0.147376	1.020164	0.004636	0.0495	-0.273	0.3405	0	138	83	3
2026-02-12	14:58:39.590	19.88	-59.57	-4.55	-0.161772	0.97112	-0.007564	0.045	-0.2745	0.345	0	138	83	3
2026-02-12	14:58:39.610	17.71	-59.22	-2.135	-0.171532	0.967216	-0.03294	0.0405	-0.2745	0.3495	0	139	83	3
2026-02-12	14:58:39.630	13.405	-57.61	2.1	-0.171532	0.965996	-0.055632	0.039	-0.27	0.354	0	139	83	3
2026-02-12	14:58:39.650	4.445	-56.91	5.18	-0.161284	0.94916	-0.064904	0.042	-0.273	0.36	0	139	83	3
2026-02-12	14:58:39.670	-0.035	-56.665	5.915	-0.1464	0.898408	-0.066856	0.042	-0.2775	0.366	0	139	83	3
2026-02-12	14:58:39.690	2.695	-56.63	5.74	-0.144936	0.874496	-0.077836	0.0375	-0.2745	0.372	0	139	83	3
2026-02-12	14:58:39.710	5.67	-57.855	5.53	-0.137372	0.85644	-0.072224	0.0375	-0.2715	0.3705	0	139	83	3
2026-02-12	14:58:39.730	4.69	-59.71	5.46	-0.12688	0.846192	-0.04514	0.045	-0.267	0.369	0	139	83	3
2026-02-12	14:58:39.750	1.995	-60.725	4.9	-0.127124	0.842288	-0.024888	0.051	-0.2625	0.3705	0	139	83	3
2026-02-12	14:58:39.770	0.875	-60.655	4.515	-0.142984	0.844728	-0.034892	0.042	-0.2685	0.3825	0	139	83	3
2026-02-12	14:58:39.790	0.525	-59.99	5.6	-0.155672	0.845948	-0.045872	0.0465	-0.273	0.3825	0	139	83	3
2026-02-12	14:58:39.810	-2.905	-58.345	8.925	-0.154696	0.8845	-0.04636	0.0465	-0.273	0.3825	0	140	67	3
2026-02-12	14:58:39.830	-5.285	-55.825	10.15	-0.138592	0.9211	-0.050508	0.042	-0.2655	0.384	0	140	67	3
2026-02-12	14:58:39.850	-3.22	-52.01	9.135	-0.133712	0.91378	-0.041724	0.039	-0.261	0.3855	0	140	67	3
2026-02-12	14:58:39.870	-2.345	-47.635	9.1	-0.127612	0.964044	-0.007564	0.042	-0.258	0.3885	0	140	67	3
2026-02-12	14:58:39.890	-10.955	-43.435	9.8	-0.108336	1.042368	0.019032	0.0375	-0.255	0.39	0	140	67	3
2026-02-12	14:58:39.910	-22.435	-39.515	8.435	-0.101748	1.092144	0.034648	0.03	-0.258	0.3885	0	140	67	3
2026-02-12	14:58:39.930	-27.545	-34.965	5.565	-0.094184	1.135332	0.049532	0.0315	-0.252	0.3885	0	140	67	3
2026-02-12	14:58:39.950	-27.79	-29.015	4.41	-0.072224	1.157292	0.056852	0.033	-0.255	0.3885	0	140	67	3
2026-02-12	14:58:39.970	-22.925	-21.455	6.195	-0.048312	1.17242	0.05612	0.0315	-0.261	0.3855	0	140	67	3
2026-02-12	14:58:39.990	-15.68	-13.37	9.1	-0.037332	1.227076	0.056608	0.033	-0.2565	0.378	0	140	67	3
2026-02-12	14:58:40.010	-16.73	-4.69	11.865	-0.034892	1.298324	0.055876	0.0345	-0.255	0.3735	0	140	46	3
2026-02-12	14:58:40.030	-17.955	-0.56	11.9	-0.00732	1.264652	0.069052	0.0315	-0.255	0.3735	0	140	46	3
2026-02-12	14:58:40.050	-16.94	5.6	12.215	0.009516	1.202676	0.085644	0.0285	-0.252	0.378	0	140	46	3
2026-02-12	14:58:40.070	-5.775	14	13.16	0.04636	1.05042	0.089792	0.027	-0.249	0.381	0	140	46	3
2026-02-12	14:58:40.090	-6.685	15.505	9.275	0.056608	1.018456	0.108336	0.027	-0.249	0.381	0	140	46	3
2026-02-12	14:58:40.110	-18.235	12.11	2.94	0.03538	0.988688	0.129076	0.018	-0.2415	0.375	0	140	46	3
2026-02-12	14:58:40.130	-9.38	6.93	-3.92	0.040748	0.910364	0.1464	0.0165	-0.237	0.3705	0	140	46	3
2026-02-12	14:58:40.150	4.06	3.92	-9.205	0.03416	0.917928	0.14396	0.009	-0.2385	0.3615	0	140	46	3
2026-02-12	14:58:40.170	3.605	0.315	-12.145	0.052216	0.892308	0.121024	0.012	-0.246	0.378	0	140	46	3
2026-02-12	14:58:40.190	4.27	0.175	-13.195	0.040504	0.873764	0.120292	0.0165	-0.246	0.369	0	140	46	3
2026-02-12	14:58:40.210	3.885	1.47	-12.775	0.03172	0.91134	0.122244	0.018	-0.2415	0.375	0	140	41	3
2026-02-12	14:58:40.230	-1.365	3.57	-12.635	0.022692	0.915	0.11712	0.018	-0.2505	0.375	0	140	41	3
2026-02-12	14:58:40.250	-2.03	6.755	-13.825	0.008784	0.882548	0.122	0.0165	-0.249	0.387	0	140	41	3
2026-02-12	14:58:40.270	-1.82	9.66	-14.315	-0.006588	0.846924	0.12688	0.0135	-0.2505	0.378	0	140	41	3
2026-02-12	14:58:40.290	-0.665	11.76	-14.14	-0.03172	0.823256	0.125416	0.0195	-0.243	0.378	0	140	41	3
2026-02-12	14:58:40.310	-0.035	13.23	-13.265	-0.048556	0.810568	0.12444	0.0225	-0.252	0.3825	0	140	41	3
2026-02-12	14:58:40.330	1.925	14.385	-11.305	-0.0732	0.814716	0.136152	0.0255	-0.2505	0.378	0	140	41	3
2026-02-12	14:58:40.350	3.885	15.295	-9.555	-0.083936	0.803248	0.158112	0.0285	-0.249	0.3735	0	140	41	3
2026-02-12	14:58:40.370	8.575	16.065	-8.47	-0.102968	0.793244	0.156404	0.027	-0.249	0.384	0	140	41	3
2026-02-12	14:58:40.390	14.7	16.17	-7.455	-0.115656	0.86376	0.14884	0.024	-0.2505	0.39	0	140	41	3
2026-02-12	14:58:40.410	12.985	13.3	-6.825	-0.144448	0.90158	0.14274	0.027	-0.255	0.3795	0	142	52	3
2026-02-12	14:58:40.430	8.19	8.295	-6.965	-0.168116	0.923784	0.152744	0.0225	-0.2415	0.3825	0	142	52	3
2026-02-12	14:58:40.450	5.46	2.38	-7.42	-0.190564	0.928176	0.161772	0.033	-0.246	0.393	0	142	52	3
2026-02-12	14:58:40.470	6.965	-3.885	-7.35	-0.19642	0.97844	0.172264	0.039	-0.2445	0.384	0	142	52	3
2026-02-12	14:58:40.490	10.185	-9.59	-7.63	-0.183244	1.01504	0.195688	0.042	-0.2475	0.3945	0	142	52	3
2026-02-12	14:58:40.510	12.04	-12.88	-8.015	-0.155916	1.076284	0.20374	0.033	-0.246	0.393	0	142	52	3
2026-02-12	14:58:40.530	10.22	-14.77	-10.01	-0.155672	1.143872	0.17202	0.03	-0.246	0.4005	0	142	52	3
2026-02-12	14:58:40.550	4.725	-16.695	-11.725	-0.141764	1.18828	0.127368	0.0435	-0.2505	0.405	0	142	52	3
2026-02-12	14:58:40.570	3.15	-17.465	-11.585	-0.134932	1.205604	0.10614	0.045	-0.2415	0.402	0	142	52	3
2026-02-12	14:58:40.590	4.865	-16.415	-10.115	-0.141764	1.199748	0.088084	0.0465	-0.246	0.4035	0	142	52	3
2026-02-12	14:58:40.610	6.58	-17.675	-5.425	-0.15128	1.166076	0.025864	0.048	-0.243	0.417	0	144	73	3
2026-02-12	14:58:40.630	11.76	-20.51	-2.45	-0.132004	1.152656	0.027816	0.0435	-0.2445	0.4125	0	144	73	3
2026-02-12	14:58:40.650	13.79	-23.975	-1.155	-0.103944	1.158268	0.0732	0.0465	-0.2415	0.4125	0	144	73	3
2026-02-12	14:58:40.670	6.58	-27.055	-1.855	-0.08052	1.073112	0.116144	0.0525	-0.234	0.4125	0	144	73	3
2026-02-12	14:58:40.690	6.545	-26.88	-3.29	-0.07076	0.97966	0.108336	0.051	-0.234	0.417	0	144	73	3
2026-02-12	14:58:40.710	12.285	-25.76	-3.36	-0.104432	0.963312	0.05246	0.0465	-0.237	0.4245	0	144	73	3
2026-02-12	14:58:40.730	19.355	-25.375	-2.24	-0.133712	0.9577	0.002684	0.048	-0.2355	0.426	0	144	73	3
2026-02-12	14:58:40.750	20.51	-27.545	-0.945	-0.15372	0.955992	-0.024156	0.0495	-0.231	0.4305	0	144	73	3
2026-02-12	14:58:40.770	15.61	-29.89	2.03	-0.151524	0.955748	-0.021472	0.0525	-0.2325	0.432	0	144	73	3
2026-02-12	14:58:40.790	7.315	-30.415	5.88	-0.13786	0.97478	-0.000244	0.0555	-0.2325	0.435	0	144	73	3
2026-02-12	14:58:40.810	0	-30.38	7.945	-0.12322	0.93452	0.00366	0.054	-0.2295	0.4425	0	146	84	3
2026-02-12	14:58:40.830	-0.14	-29.925	8.225	-0.124928	0.91012	-0.00976	0.0465	-0.2295	0.4485	0	146	84	3
2026-02-12	14:58:40.850	3.115	-29.82	7.98	-0.119804	0.881328	-0.026352	0.0435	-0.234	0.447	0	146	84	3
2026-02-12	14:58:40.870	6.3	-30.8	7.28	-0.120292	0.874496	-0.022692	0.048	-0.2355	0.447	0	146	84	3
2026-02-12	14:58:40.890	0.525	-33.145	6.3	-0.097844	0.850828	0.023912	0.048	-0.2355	0.447	0	146	84	3
2026-02-12	14:58:40.910	-9.275	-33.53	5.915	-0.075396	0.813496	0.077592	0.045	-0.234	0.4515	0	146	84	3
2026-02-12	14:58:40.930	-6.825	-31.08	4.34	-0.08906	0.82716	0.093452	0.0435	-0.231	0.4575	0	146	84	3
2026-02-12	14:58:40.950	-2.66	-27.755	3.325	-0.121512	0.854244	0.066124	0.0435	-0.231	0.4605	0	146	84	3
2026-02-12	14:58:40.970	-1.12	-25.41	3.465	-0.130052	0.862296	0.034404	0.0435	-0.2295	0.4635	0	146	84	3
2026-02-12	14:58:40.990	-2.835	-24.43	4.2	-0.1281	0.88328	0.025376	0.045	-0.2265	0.4665	0	146	84	3
2026-02-12	14:58:41.010	-2.66	-24.01	3.5	-0.12688	0.931592	0.03294	0.0495	-0.225	0.474	0	148	80	3
2026-02-12	14:58:41.030	-1.015	-22.33	2.38	-0.125904	1.007964	0.071492	0.048	-0.222	0.4725	0	148	80	3
2026-02-12	14:58:41.050	-3.745	-19.775	2.59	-0.128588	1.067256	0.088328	0.048	-0.2265	0.474	0	148	80	3
2026-02-12	14:58:41.070	-9.485	-16.835	2.59	-0.117608	1.11874	0.09638	0.0525	-0.228	0.477	0	148	80	3
2026-02-12	14:58:41.090	-12.425	-12.425	3.115	-0.095892	1.140212	0.102968	0.0555	-0.228	0.4785	0	148	80	3
2026-02-12	14:58:41.110	-9.59	-6.58	5.005	-0.075396	1.154364	0.093696	0.054	-0.228	0.4845	0	148	80	3
2026-02-12	14:58:41.130	-6.195	-0.035	10.22	-0.05612	1.22488	0.083204	0.0495	-0.228	0.4905	0	148	80	3
2026-02-12	14:58:41.150	-7.21	7.595	17.255	-0.008296	1.261968	0.104188	0.048	-0.2295	0.495	0	148	80	3
2026-02-12	14:58:41.170	-6.965	12.39	16.1	0.020496	1.278804	0.094184	0.048	-0.2295	0.495	0	148	80	3
2026-02-12	14:58:41.190	-6.055	16.94	13.72	0.022936	1.217804	0.082716	0.054	-0.231	0.486	0	148	80	3
2026-02-12	14:58:41.210	-4.41	20.16	11.095	0.02074	1.128744	0.068076	0.0555	-0.2325	0.486	0	148	73	3
2026-02-12	14:58:41.230	-1.925	21.665	9.03	0.009028	1.101172	0.060756	0.0525	-0.234	0.4875	0	148	73	3
2026-02-12	14:58:41.250	-2.835	21.455	5.11	0.030012	1.075064	0.09272	0.051	-0.2325	0.4905	0	148	73	3
2026-02-12	14:58:41.270	-2.66	21.35	-1.12	0.055632	1.034804	0.130296	0.06	-0.2295	0.486	0	148	73	3
2026-02-12	14:58:41.290	-2.135	22.155	-7.875	0.052948	0.98942	0.138836	0.045	-0.2355	0.4815	0	148	73	3
2026-02-12	14:58:41.310	-4.585	22.33	-13.58	0.036112	0.956724	0.135664	0.0525	-0.24	0.492	0	148	73	3
2026-02-12	14:58:41.330	-11.795	21.595	-16.695	0.01952	0.95526	0.120048	0.0585	-0.2355	0.489	0	148	73	3
2026-02-12	14:58:41.350	-21.805	19.88	-18.48	0.016592	0.948184	0.096868	0.0615	-0.2415	0.4875	0	148	73	3
2026-02-12	14:58:41.370	-29.4	18.06	-18.97	0.010004	0.88206	0.082716	0.06	-0.243	0.489	0	148	73	3
2026-02-12	14:58:41.390	-23.065	16.765	-18.165	-0.010004	0.780068	0.086376	0.063	-0.243	0.4785	0	148	73	3
2026-02-12	14:58:41.410	-5.495	16.485	-14.525	-0.037576	0.7564	0.126636	0.0675	-0.2505	0.4815	0	148	73	3
2026-02-12	14:58:41.430	3.815	18.2	-10.325	-0.0549	0.80032	0.150548	0.0675	-0.2505	0.4815	0	148	73	3
2026-02-12	14:58:41.450	9.345	20.685	-9.695	-0.072956	0.812764	0.143228	0.081	-0.2475	0.4815	0	148	73	3
2026-02-12	14:58:41.470	14.7	22.68	-10.92	-0.104432	0.814472	0.120048	0.0885	-0.2625	0.4755	0	148	73	3
2026-02-12	14:58:41.490	12.915	22.47	-11.13	-0.143228	0.820572	0.118096	0.0885	-0.255	0.489	0	148	73	3
2026-02-12	14:58:41.510	8.085	20.72	-10.045	-0.16104	0.837652	0.150548	0.0945	-0.2505	0.48	0	148	73	3
2026-02-12	14:58:41.530	5.46	19.355	-8.435	-0.171288	0.89426	0.165432	0.099	-0.2505	0.4845	0	148	73	3
2026-02-12	14:58:41.550	1.015	17.045	-7.875	-0.169336	0.900116	0.172996	0.0975	-0.261	0.4875	0	148	73	3
2026-02-12	14:58:41.570	0.7	14.28	-7.735	-0.173972	0.870348	0.172752	0.0975	-0.2535	0.4815	0	148	73	3
2026-02-12	14:58:41.590	6.475	10.29	-8.365	-0.179828	0.882304	0.181048	0.105	-0.2595	0.483	0	148	73	3
2026-02-12	14:58:41.610	5.495	4.83	-9.555	-0.183732	0.961848	0.19154	0.111	-0.252	0.489	0	148	83	3
2026-02-12	14:58:41.630	1.47	-1.505	-11.76	-0.188856	0.972584	0.196664	0.117	-0.252	0.483	0	148	83	3
2026-02-12	14:58:41.650	-1.96	-6.93	-12.95	-0.208376	1.0004	0.184952	0.12	-0.258	0.4845	0	148	83	3
2026-02-12	14:58:41.670	-5.67	-11.725	-12.285	-0.192516	0.992592	0.186904	0.1275	-0.258	0.48	0	148	83	3
2026-02-12	14:58:41.690	0.595	-12.285	-9.31	-0.148596	1.087508	0.183732	0.126	-0.258	0.48	0	148	83	3
2026-02-12	14:58:41.710	3.43	-10.675	-10.22	-0.137128	1.149972	0.126636	0.132	-0.258	0.477	0	148	83	3
2026-02-12	14:58:41.730	7.77	-10.465	-11.095	-0.160308	1.1712	0.081008	0.138	-0.258	0.471	0	148	83	3
2026-02-12	14:58:41.750	5.74	-11.13	-6.685	-0.156892	1.218536	0.079544	0.1425	-0.2535	0.465	0	148	83	3
2026-02-12	14:58:41.770	-6.23	-10.815	-0.77	-0.14396	1.21512	0.082228	0.1485	-0.255	0.462	0	148	83	3
2026-02-12	14:58:41.790	-10.745	-10.325	3.43	-0.129076	1.172908	0.065392	0.1485	-0.2595	0.462	0	148	83	3
2026-02-12	14:58:41.810	-3.92	-11.165	5.565	-0.10248	1.11508	0.055876	0.147	-0.258	0.456	0	149	97	3
2026-02-12	14:58:41.830	9.695	-11.48	6.265	-0.057096	1.052372	0.131028	0.1485	-0.255	0.447	0	149	97	3
2026-02-12	14:58:41.850	14.315	-8.05	8.96	-0.019276	1.083116	0.153964	0.1485	-0.2565	0.447	0	149	97	3
2026-02-12	14:58:41.870	11.445	-2.415	10.43	-0.0244	1.074576	0.0915	0.147	-0.261	0.45	0	149	97	3
2026-02-12	14:58:41.890	10.99	2.03	10.15	-0.042944	1.006744	0.031232	0.144	-0.2595	0.444	0	149	97	3
2026-02-12	14:58:41.910	12.565	3.78	12.215	-0.047092	0.956968	0.004148	0.1455	-0.258	0.444	0	149	97	3
2026-02-12	14:58:41.930	10.955	5.81	17.115	-0.048068	0.943548	-0.021228	0.1455	-0.261	0.4515	0	149	97	3
2026-02-12	14:58:41.950	5.215	9.31	23.24	-0.041236	0.975024	0.01708	0.1395	-0.2595	0.4455	0	149	97	3
2026-02-12	14:58:41.970	-6.475	15.365	28.35	0.007564	1.00284	0.055632	0.138	-0.258	0.441	0	149	97	3
2026-02-12	14:58:41.990	-14.455	22.855	30.31	0.026352	0.92842	0.006832	0.1335	-0.261	0.4365	0	149	97	3
2026-02-12	14:58:42.010	-2.205	29.435	29.61	0.010248	0.806176	-0.063684	0.1245	-0.267	0.4305	0	150	101	3
2026-02-12	14:58:42.030	17.395	32.375	28.245	-0.037576	0.824232	-0.086132	0.1125	-0.2655	0.429	0	150	101	3
2026-02-12	14:58:42.050	20.685	30.975	27.51	-0.03904	0.813984	-0.01708	0.114	-0.2595	0.426	0	150	101	3
2026-02-12	14:58:42.070	8.96	29.75	27.615	-0.029768	0.78812	0.036356	0.1155	-0.2595	0.4275	0	150	101	3
2026-02-12	14:58:42.090	4.9	31.675	26.81	-0.064172	0.802028	0.072224	0.102	-0.258	0.4275	0	150	101	3
2026-02-12	14:58:42.110	3.22	34.545	25.55	-0.087352	0.805444	0.052704	0.096	-0.2595	0.4245	0	150	101	3
2026-02-12	14:58:42.130	1.68	34.93	23.24	-0.096136	0.816424	0.028304	0.093	-0.2625	0.423	0	150	101	3
2026-02-12	14:58:42.150	0.49	33.39	21.07	-0.14762	0.823012	0.004148	0.0855	-0.2595	0.4155	0	150	101	3
2026-02-12	14:58:42.170	0.315	28.805	19.11	-0.186904	0.901092	0.011468	0.0825	-0.2535	0.4155	0	150	101	3
2026-02-12	14:58:42.190	-0.63	22.75	16.03	-0.20374	0.95892	0.036356	0.0795	-0.2565	0.4185	0	150	101	3
2026-02-12	14:58:42.210	-4.27	16.555	11.235	-0.213256	0.955748	0.059292	0.0765	-0.258	0.4155	0	151	91	3
2026-02-12	14:58:42.230	-1.05	8.26	7.455	-0.21716	0.995032	0.078812	0.0765	-0.252	0.411	0	151	91	3
2026-02-12	14:58:42.250	12.775	5.53	5.145	-0.19764	1.02236	0.087108	0.0765	-0.252	0.411	0	151	91	3
2026-02-12	14:58:42.270	28.525	5.46	4.585	-0.16714	1.18706	0.081252	0.0645	-0.2595	0.408	0	151	91	3
2026-02-12	14:58:42.290	22.47	5.915	3.675	-0.130052	1.323944	0.047336	0.0585	-0.2595	0.414	0	151	91	3
2026-02-12	14:58:42.310	2.73	5.705	1.82	-0.12322	1.249768	0.022448	0.054	-0.2565	0.414	0	151	91	3
2026-02-12	14:58:42.330	-8.47	6.545	2.275	-0.13664	1.251232	0.003416	0.057	-0.2565	0.4125	0	151	91	3
2026-02-12	14:58:42.350	-21.385	5.985	4.62	-0.117364	1.28832	-0.006588	0.0555	-0.258	0.4095	0	151	91	3
2026-02-12	14:58:42.370	-38.22	3.745	7.385	-0.068076	1.27734	0.02318	0.0495	-0.252	0.4035	0	151	91	3
2026-02-12	14:58:42.390	-47.04	1.785	8.085	-0.019032	1.16632	0.042456	0.048	-0.267	0.4005	0	151	91	3
2026-02-12	14:58:42.410	-37.555	0.28	5.985	0.027328	1.028704	0.09638	0.0435	-0.2565	0.39	0	152	77	3
2026-02-12	14:58:42.430	-17.535	-0.35	2.45	0.037332	0.981368	0.10614	0.048	-0.2625	0.3915	0	152	77	3
2026-02-12	14:58:42.450	1.54	-1.68	-1.05	0.041968	1.05408	0.07124799	0.0435	-0.267	0.393	0	152	77	3
2026-02-12	14:58:42.470	7.84	-5.81	-6.265	0.071004	1.08092	0.068076	0.045	-0.267	0.3855	0	152	77	3
2026-02-12	14:58:42.490	1.925	-10.64	-12.495	0.110044	1.051396	0.116876	0.042	-0.2745	0.387	0	152	77	3
2026-02-12	14:58:42.510	-7.735	-12.845	-16.835	0.102968	1.006744	0.110288	0.042	-0.2745	0.387	0	152	77	3
2026-02-12	14:58:42.530	-13.09	-13.965	-18.27	0.073932	0.938424	0.086376	0.039	-0.2745	0.3855	0	152	77	3
2026-02-12	14:58:42.550	-8.47	-14.91	-16.94	0.061732	0.887916	0.08052	0.0405	-0.2775	0.3885	0	152	77	3
2026-02-12	14:58:42.570	1.12	-14.21	-15.12	0.049532	0.892796	0.073688	0.051	-0.273	0.387	0	152	77	3
2026-02-12	14:58:42.590	-2.31	-13.755	-13.65	0.0427	0.860344	0.088084	0.0495	-0.273	0.3795	0	152	77	3
2026-02-12	14:58:42.610	-6.09	-13.02	-13.545	0.046604	0.806176	0.127368	0.048	-0.273	0.3915	0	155	69	3
2026-02-12	14:58:42.630	-6.685	-10.955	-12.705	0.018788	0.776896	0.130784	0.045	-0.273	0.3765	0	155	69	3
2026-02-12	14:58:42.650	-4.655	-8.4	-13.23	0.00488	0.792756	0.118584	0.0645	-0.2715	0.3885	0	155	69	3
2026-02-12	14:58:42.670	-3.29	-5.53	-14.385	-0.00244	0.7991	0.1098	0.0555	-0.273	0.3795	0	155	69	3
2026-02-12	14:58:42.690	-5.005	-3.045	-14.63	-0.018056	0.761768	0.116388	0.06	-0.279	0.381	0	155	69	3
2026-02-12	14:58:42.710	-5.495	-0.49	-12.705	-0.028792	0.74542	0.125172	0.057	-0.2805	0.381	0	155	69	3
2026-02-12	14:58:42.730	3.045	3.115	-9.625	-0.036356	0.782996	0.110532	0.0555	-0.279	0.3735	0	155	69	3
2026-02-12	14:58:42.750	14	5.81	-7.35	-0.058072	0.831796	0.10858	0.057	-0.2835	0.3825	0	155	69	3
2026-02-12	14:58:42.770	26.39	8.435	-5.775	-0.095648	0.92842	0.171776	0.06	-0.285	0.3855	0	155	69	3
2026-02-12	14:58:42.790	23.17	10.255	-4.69	-0.104432	1.014552	0.179096	0.0645	-0.2835	0.3885	0	155	69	3
2026-02-12	14:58:42.810	12.67	10.85	-7.595	-0.127124	1.036512	0.174216	0.069	-0.2805	0.387	0	158	73	3
2026-02-12	14:58:42.830	8.89	11.165	-11.655	-0.152012	1.073844	0.176412	0.066	-0.2805	0.387	0	158	73	3
2026-02-12	14:58:42.850	3.78	9.94	-15.295	-0.15006	1.113616	0.172264	0.0675	-0.279	0.393	0	158	73	3
2026-02-12	14:58:42.870	-7.945	7.875	-18.2	-0.15494	1.120448	0.151768	0.072	-0.2805	0.3945	0	158	73	3
2026-02-12	14:58:42.890	-17.325	5.46	-19.32	-0.1342	1.10288	0.133956	0.075	-0.2865	0.39	0	158	73	3
2026-02-12	14:58:42.910	-11.76	3.22	-17.99	-0.103456	1.107028	0.127124	0.075	-0.2805	0.3825	0	158	73	3
2026-02-12	14:58:42.930	5.075	3.78	-12.04	-0.0976	1.142652	0.092964	0.0765	-0.2775	0.3765	0	158	73	3
2026-02-12	14:58:42.950	19.6	4.095	-4.445	-0.098332	1.204384	0.049532	0.081	-0.285	0.3765	0	158	73	3
2026-02-12	14:58:42.970	21.98	-0.105	0.875	-0.08784	1.276852	0.044652	0.084	-0.285	0.3825	0	158	73	3
2026-02-12	14:58:42.990	6.79	-8.26	2.1	-0.069052	1.262944	0.095648	0.0825	-0.285	0.387	0	158	73	3
2026-02-12	14:58:43.010	-12.11	-17.325	0.21	-0.04758	1.094828	0.11834	0.078	-0.2865	0.384	0	161	84	3
2026-02-12	14:58:43.030	2.765	-25.27	-4.62	-0.039772	1.014064	0.079788	0.081	-0.285	0.387	0	161	84	3
2026-02-12	14:58:43.050	18.795	-33.005	-9.52	-0.062464	1.026752	0.049532	0.0855	-0.285	0.3915	0	161	84	3
2026-02-12	14:58:43.070	18.375	-38.955	-12.32	-0.062952	1.01382	0.038552	0.0855	-0.285	0.3915	0	161	84	3
2026-02-12	14:58:43.090	10.605	-43.085	-11.41	-0.073932	0.997228	0.004636	0.0915	-0.282	0.3915	0	161	84	3
2026-02-12	14:58:43.110	4.095	-46.27	-8.19	-0.077104	0.968924	-0.034648	0.093	-0.282	0.3915	0	161	84	3
2026-02-12	14:58:43.130	0.665	-49.63	-4.375	-0.066124	0.942572	-0.043432	0.09	-0.285	0.393	0	161	84	3
2026-02-12	14:58:43.150	1.435	-52.605	-0.455	-0.055388	0.907192	-0.031232	0.0915	-0.2865	0.396	0	161	84	3
2026-02-12	14:58:43.170	5.25	-55.055	2.66	-0.048556	0.875472	-0.015616	0.0885	-0.282	0.396	0	161	84	3
2026-02-12	14:58:43.190	6.545	-56.315	4.69	-0.044164	0.855952	0.014152	0.0885	-0.282	0.399	0	161	84	3
2026-02-12	14:58:43.210	3.43	-55.195	5.74	-0.030012	0.870104	0.06588	0.093	-0.2835	0.399	0	163	87	3
2026-02-12	14:58:43.230	-0.875	-50.82	5.11	-0.036356	0.887184	0.09638	0.0915	-0.282	0.399	0	163	87	3
2026-02-12	14:58:43.250	-7.665	-45.78	4.34	-0.054656	0.833992	0.072956	0.0885	-0.2835	0.405	0	163	87	3
2026-02-12	14:58:43.270	-7.7	-41.72	4.165	-0.063684	0.774456	0.027084	0.087	-0.282	0.4065	0	163	87	3
2026-02-12	14:58:43.290	1.89	-38.745	4.935	-0.08052	0.737124	-0.00854	0.0915	-0.2805	0.4065	0	163	87	3
2026-02-12	14:58:43.310	29.225	-34.09	7.84	-0.068564	0.856684	0.005612	0.093	-0.2775	0.4095	0	163	87	3
2026-02-12	14:58:43.330	30.695	-29.505	9.24	-0.076372	0.9516	0.035868	0.093	-0.2775	0.4095	0	163	87	3
2026-02-12	14:58:43.350	16.485	-25.095	9.59	-0.074908	1.020896	0.03782	0.0885	-0.2805	0.414	0	163	87	3
2026-02-12	14:58:43.370	-3.64	-20.825	9.415	-0.080032	1.047248	0.037088	0.0855	-0.279	0.4245	0	163	87	3
2026-02-12	14:58:43.390	-7.91	-16.345	8.225	-0.063196	1.094584	0.04026	0.0825	-0.2775	0.42	0	163	87	3
2026-02-12	14:58:43.410	-5.425	-10.815	7.35	-0.04026	1.160708	0.060512	0.084	-0.2805	0.4245	0	164	78	3
2026-02-12	14:58:43.430	-8.61	-5.005	8.12	-0.023424	1.217316	0.062952	0.081	-0.273	0.4215	0	164	78	3
2026-02-12	14:58:43.450	-13.51	1.47	8.89	-0.010004	1.22	0.05856	0.0795	-0.2835	0.411	0	164	78	3
2026-02-12	14:58:43.470	-12.915	8.435	12.32	0.011224	1.243668	0.058316	0.0795	-0.282	0.4185	0	164	78	3
2026-02-12	14:58:43.490	-11.76	14.945	17.01	0.019764	1.220976	0.061976	0.081	-0.2775	0.414	0	164	78	3
2026-02-12	14:58:43.510	-7.315	21	19.355	0.05734	1.22244	0.082716	0.075	-0.2805	0.4155	0	164	78	3
2026-02-12	14:58:43.530	-8.995	27.825	20.65	0.08174	1.242204	0.105652	0.081	-0.279	0.405	0	164	78	3
2026-02-12	14:58:43.550	-17.185	33.005	18.585	0.102724	1.14924	0.10126	0.072	-0.276	0.405	0	164	78	3
2026-02-12	14:58:43.570	-5.25	36.505	11.515	0.081496	1.006012	0.079544	0.0675	-0.2775	0.4035	0	164	78	3
2026-02-12	14:58:43.590	11.2	37.625	5.53	0.066612	1.02236	0.084424	0.0675	-0.2775	0.4035	0	164	78	3
2026-02-12	14:58:43.610	11.095	36.785	1.96	0.079544	1.018456	0.127612	0.063	-0.2745	0.405	0	163	71	3
2026-02-12	14:58:43.630	3.99	36.925	-1.855	0.081252	0.995764	0.137616	0.0585	-0.2715	0.4035	0	163	71	3
2026-02-12	14:58:43.650	-1.995	36.925	-5.25	0.081984	0.97234	0.112728	0.0585	-0.273	0.399	0	163	71	3
2026-02-12	14:58:43.670	-3.045	37.38	-6.3	0.069052	0.96136	0.095404	0.0555	-0.273	0.3885	0	163	71	3
2026-02-12	14:58:43.690	-5.985	37.275	-5.775	0.050996	0.9394	0.08784	0.0615	-0.2775	0.3915	0	163	71	3
2026-02-12	14:58:43.710	-10.815	36.645	-5.215	0.049044	0.885232	0.093208	0.0585	-0.2655	0.39	0	163	71	3
2026-02-12	14:58:43.730	-14.035	35.735	-4.76	0.049288	0.7808	0.103456	0.051	-0.276	0.3885	0	163	71	3
2026-02-12	14:58:43.750	-11.935	35.315	-4.34	0.03538	0.7015	0.110288	0.06	-0.2745	0.384	0	163	71	3
2026-02-12	14:58:43.770	-4.41	34.79	-4.655	0.016348	0.70638	0.099796	0.06	-0.2685	0.3765	0	163	71	3
2026-02-12	14:58:43.790	2.52	33.74	-4.27	-0.00976	0.719556	0.087108	0.0585	-0.2775	0.3765	0	163	71	3
2026-02-12	14:58:43.810	6.09	32.165	-3.885	-0.014396	0.814228	0.081496	0.0615	-0.276	0.3825	0	163	71	3
2026-02-12	14:58:43.830	4.62	31.5	-3.745	-0.039284	0.799588	0.082472	0.054	-0.2745	0.372	0	163	71	3
2026-02-12	14:58:43.850	16.695	32.095	-3.395	-0.082472	0.859124	0.093696	0.0525	-0.282	0.372	0	163	71	3
2026-02-12	14:58:43.870	18.76	30.94	-1.645	-0.099796	0.94306	0.122	0.0555	-0.282	0.378	0	163	71	3
2026-02-12	14:58:43.890	10.64	28.77	0.98	-0.103456	0.993324	0.13664	0.0615	-0.282	0.381	0	163	71	3
2026-02-12	14:58:43.910	4.795	25.83	1.225	-0.106872	1.000644	0.137616	0.0585	-0.279	0.3765	0	163	71	3
2026-02-12	14:58:43.930	5.25	21.595	-1.645	-0.1159	0.969168	0.149084	0.057	-0.2745	0.375	0	163	71	3
2026-02-12	14:58:43.950	8.4	15.785	-4.41	-0.134688	0.956968	0.16348	0.057	-0.2745	0.3765	0	163	71	3
2026-02-12	14:58:43.970	5.53	8.89	-5.25	-0.137372	1.027972	0.182512	0.057	-0.2805	0.378	0	163	71	3
2026-02-12	14:58:43.990	-4.97	2.45	-6.405	-0.126392	1.05896	0.194956	0.06	-0.282	0.3825	0	163	71	3
2026-02-12	14:58:44.010	-13.125	-2.345	-7.525	-0.112484	1.056032	0.183976	0.057	-0.276	0.378	0	163	78	3
2026-02-12	14:58:44.030	-11.445	-4.9	-6.825	-0.101748	1.124352	0.146156	0.057	-0.2745	0.3735	0	163	78	3
2026-02-12	14:58:44.050	-1.61	-4.515	-4.34	-0.07442	1.215364	0.104676	0.063	-0.2775	0.372	0	163	78	3
2026-02-12	14:58:44.070	5.075	-4.34	-0.63	-0.068076	1.25782	0.062464	0.06	-0.2835	0.3705	0	163	78	3
2026-02-12	14:58:44.090	7.49	-6.44	2.695	-0.062708	1.250988	0.016592	0.066	-0.2835	0.375	0	163	78	3
2026-02-12	14:58:44.110	7.455	-10.955	5.18	-0.044896	1.185352	0.001464	0.0675	-0.282	0.378	0	163	78	3
2026-02-12	14:58:44.130	8.61	-17.885	4.69	-0.026596	1.070672	-0.011712	0.0615	-0.2865	0.3765	0	163	78	3
2026-02-12	14:58:44.150	9.275	-24.85	1.26	-0.011712	1.019432	0.013908	0.057	-0.285	0.381	0	163	78	3
2026-02-12	14:58:44.170	9.45	-29.89	-4.025	-0.01464	0.98332	0.03904	0.054	-0.282	0.381	0	163	78	3
2026-02-12	14:58:44.190	10.08	-32.305	-6.265	-0.03904	0.953552	0.05002	0.063	-0.279	0.3945	0	163	78	3
2026-02-12	14:58:44.210	8.365	-33.215	-4.795	-0.045628	0.969168	0.052948	0.06	-0.279	0.3885	0	162	85	3
2026-02-12	14:58:44.230	0.945	-32.06	-0.875	-0.03416	0.958676	0.045628	0.066	-0.285	0.3915	0	162	85	3
2026-02-12	14:58:44.250	-1.225	-27.86	3.99	-0.034892	0.948672	0.019764	0.0675	-0.2865	0.3945	0	162	85	3
2026-02-12	14:58:44.270	2.485	-22.575	8.4	-0.032452	0.990152	-0.02928	0.066	-0.279	0.396	0	162	85	3
2026-02-12	14:58:44.290	4.27	-18.27	10.465	-0.01464	1.016016	-0.05124	0.0615	-0.276	0.3975	0	162	85	3
2026-02-12	14:58:44.310	2.59	-15.155	9.905	0.00488	0.996984	-0.038552	0.0585	-0.279	0.396	0	162	85	3
2026-02-12	14:58:44.330	0.49	-13.16	7.665	0.000488	0.920856	-0.006588	0.0555	-0.276	0.3945	0	162	85	3
2026-02-12	14:58:44.350	-0.14	-12.04	5.6	-0.000732	0.843996	0.02928	0.0525	-0.2775	0.4005	0	162	85	3
2026-02-12	14:58:44.370	-0.56	-11.165	4.725	-0.016592	0.80398	0.038552	0.0525	-0.279	0.4035	0	162	85	3
2026-02-12	14:58:44.390	2.87	-10.92	5.215	-0.05978	0.810568	0.021472	0.054	-0.279	0.4005	0	162	85	3
2026-02-12	14:58:44.410	4.62	-12.53	6.23	-0.091988	0.838384	0.000488	0.0555	-0.2805	0.405	0	161	79	3
2026-02-12	14:58:44.430	1.435	-15.295	8.47	-0.088572	0.858392	0.022692	0.0495	-0.2745	0.4035	0	161	79	3
2026-02-12	14:58:44.450	-5.39	-17.22	11.795	-0.10248	0.871568	0.043188	0.048	-0.276	0.4035	0	161	79	3
2026-02-12	14:58:44.470	-9.415	-19.705	15.54	-0.129564	0.88694	0.014152	0.048	-0.2865	0.4035	0	161	79	3
2026-02-12	14:58:44.490	-6.58	-24.64	18.515	-0.1403	0.96136	-0.02318	0.051	-0.273	0.408	0	161	79	3
2026-02-12	14:58:44.510	-7.385	-33.11	19.565	-0.123952	1.0736	-0.009516	0.042	-0.2775	0.405	0	161	79	3
2026-02-12	14:58:44.530	-16.24	-40.67	19.495	-0.058316	1.114104	0.055876	0.0375	-0.279	0.408	0	161	79	3
2026-02-12	14:58:44.550	-24.815	-43.085	17.92	0.002684	1.103368	0.137372	0.039	-0.2655	0.4065	0	161	79	3
2026-02-12	14:58:44.570	-30.94	-39.095	16.24	0.0549	1.158512	0.19154	0.036	-0.27	0.402	0	161	79	3
2026-02-12	14:58:44.590	-28.07	-29.4	14.84	0.080764	1.195844	0.1708	0.0345	-0.273	0.4065	0	161	79	3
2026-02-12	14:58:44.610	-15.365	-16.625	13.825	0.096624	1.273436	0.132004	0.039	-0.279	0.399	0	160	69	3
2026-02-12	14:58:44.630	-10.57	-4.655	14.805	0.115412	1.285392	0.093696	0.0375	-0.273	0.405	0	160	69	3
2026-02-12	14:58:44.650	-5.11	6.615	14.56	0.128588	1.208288	0.078812	0.03	-0.267	0.3945	0	160	69	3
2026-02-12	14:58:44.670	2.135	15.75	11.515	0.144692	1.158512	0.07076	0.03	-0.264	0.393	0	160	69	3
2026-02-12	14:58:44.690	2.345	20.545	6.615	0.134444	1.110688	0.080032	0.0315	-0.267	0.393	0	160	69	3
2026-02-12	14:58:44.710	-3.255	24.185	3.36	0.137616	1.095072	0.088816	0.0285	-0.273	0.399	0	160	69	3
2026-02-12	14:58:44.730	-5.705	27.51	-0.035	0.138592	1.005524	0.106628	0.027	-0.267	0.399	0	160	69	3
2026-02-12	14:58:44.750	-2.73	30.275	-4.34	0.137616	0.928176	0.113704	0.027	-0.261	0.39	0	160	69	3
2026-02-12	14:58:44.770	1.715	32.305	-7.77	0.122488	0.915488	0.10492	0.0285	-0.2625	0.3885	0	160	69	3
2026-02-12	14:58:44.790	2.275	33.25	-10.465	0.1159	0.91256	0.100284	0.03	-0.27	0.3915	0	160	69	3
2026-02-12	14:58:44.810	0.28	32.97	-11.795	0.104676	0.90158	0.101016	0.027	-0.2745	0.39	0	160	66	3
2026-02-12	14:58:44.830	-3.605	31.43	-11.13	0.091256	0.901092	0.105652	0.0225	-0.2715	0.3855	0	160	66	3
2026-02-12	14:58:44.850	-8.47	29.085	-9.31	0.075884	0.895724	0.106628	0.021	-0.273	0.384	0	160	66	3
2026-02-12	14:58:44.870	-10.745	26.635	-7.35	0.064904	0.868152	0.1159	0.03	-0.2715	0.384	0	160	66	3
2026-02-12	14:58:44.890	-8.225	22.925	-6.265	0.027328	0.8174	0.118828	0.0375	-0.267	0.3795	0	160	66	3
2026-02-12	14:58:44.910	-0.875	17.85	-5.915	-0.000732	0.824964	0.116144	0.0315	-0.276	0.3765	0	160	66	3
2026-02-12	14:58:44.930	2.555	13.23	-6.685	-0.015372	0.87718	0.118828	0.0315	-0.276	0.3765	0	160	66	3
2026-02-12	14:58:44.950	1.295	10.465	-7.735	-0.007564	0.880596	0.166896	0.0345	-0.2715	0.378	0	160	66	3
2026-02-12	14:58:44.970	-1.715	9.905	-9.03	0.000732	0.890844	0.221552	0.0375	-0.27	0.381	0	160	66	3
2026-02-12	14:58:44.990	-11.97	10.85	-10.22	-0.009516	0.903776	0.241316	0.0405	-0.2685	0.381	0	160	66	3
2026-02-12	14:58:45.010	-21.14	10.36	-11.34	-0.025376	0.877912	0.227896	0.0435	-0.2685	0.378	0	159	75	3
2026-02-12	14:58:45.030	-22.295	9.345	-12.18	-0.035624	0.8845	0.217648	0.0405	-0.273	0.372	0	159	75	3
2026-02-12	14:58:45.050	-24.99	7.805	-11.69	-0.034404	0.882548	0.217404	0.042	-0.2745	0.3705	0	159	75	3
2026-02-12	14:58:45.070	-23.38	5.67	-13.125	-0.034648	0.909144	0.216428	0.045	-0.276	0.366	0	159	75	3
2026-02-12	14:58:45.090	-14.77	3.15	-17.78	-0.053192	0.935252	0.20252	0.0435	-0.273	0.3615	0	159	75	3
2026-02-12	14:58:45.110	-1.89	-0.525	-21.455	-0.05246	0.992592	0.193004	0.0465	-0.2715	0.36	0	159	75	3
2026-02-12	14:58:45.130	8.96	-4.69	-23.135	-0.049532	0.996496	0.180804	0.048	-0.2715	0.36	0	159	75	3
2026-02-12	14:58:45.150	14.805	-8.33	-24.08	-0.031476	1.049932	0.183244	0.051	-0.2745	0.366	0	159	75	3
2026-02-12	14:58:45.170	1.05	-9.905	-22.12	-0.048556	1.073112	0.1708	0.0555	-0.2775	0.3645	0	159	75	3
2026-02-12	14:58:45.190	-2.17	-8.575	-13.615	-0.0427	1.124596	0.136152	0.054	-0.276	0.3645	0	159	75	3
2026-02-12	14:58:45.210	4.095	-6.405	-7.385	-0.0488	1.160464	0.115412	0.054	-0.276	0.3645	0	159	95	3
2026-02-12	14:58:45.230	7.245	-6.37	-3.395	-0.044896	1.164612	0.1037	0.0615	-0.2835	0.3615	0	159	95	3
2026-02-12	14:58:45.250	9.94	-7.84	-2.765	-0.02318	1.13094	0.090524	0.0585	-0.2835	0.3705	0	159	95	3
2026-02-12	14:58:45.270	17.57	-9.485	-2.59	-0.02074	1.131428	0.1098	0.0585	-0.2775	0.375	0	159	95	3
2026-02-12	14:58:45.290	22.925	-10.5	-4.41	-0.000976	1.140212	0.138592	0.063	-0.2805	0.3735	0	159	95	3
2026-02-12	14:58:45.310	27.65	-11.34	-9.66	-0.00488	1.032364	0.153476	0.0615	-0.2745	0.3885	0	159	95	3
2026-02-12	14:58:45.330	35.42	-11.9	-14.21	-0.020496	0.966972	0.121756	0.063	-0.273	0.3795	0	159	95	3
2026-02-12	14:58:45.350	43.4	-11.62	-15.645	-0.055876	0.946476	0.074908	0.0645	-0.279	0.3855	0	159	95	3
2026-02-12	14:58:45.370	45.395	-13.58	-14.245	-0.083204	0.965996	0.040016	0.075	-0.2775	0.396	0	159	95	3
2026-02-12	14:58:45.390	37.695	-15.89	-11.97	-0.089792	0.97844	0.012932	0.0735	-0.2805	0.4005	0	159	95	3
2026-02-12	14:58:45.410	28.385	-16.87	-7.875	-0.101504	0.97112	0.004392	0.075	-0.2805	0.405	0	157	110	3
2026-02-12	14:58:45.430	16.8	-16.415	-2.345	-0.105408	0.99308	0.018788	0.075	-0.279	0.4065	0	157	110	3
2026-02-12	14:58:45.450	-1.26	-15.05	3.815	-0.091988	0.977464	0.00976	0.072	-0.2775	0.411	0	157	110	3
2026-02-12	14:58:45.470	-3.29	-12.285	7.175	-0.06588	0.949404	0.010736	0.0705	-0.279	0.4155	0	157	110	3
2026-02-12	14:58:45.490	-1.855	-10.78	8.89	-0.051972	0.894748	0.00976	0.069	-0.2745	0.423	0	157	110	3
2026-02-12	14:58:45.510	3.29	-9.94	9.135	-0.03904	0.859368	0.023668	0.075	-0.273	0.423	0	157	110	3
2026-02-12	14:58:45.530	4.97	-9.835	9.205	-0.034648	0.823256	0.041724	0.0735	-0.2805	0.426	0	157	110	3
2026-02-12	14:58:45.550	4.865	-10.535	8.785	-0.035624	0.828868	0.047092	0.0645	-0.2775	0.426	0	157	110	3
2026-02-12	14:58:45.570	5.355	-11.305	6.37	-0.044896	0.856684	0.026352	0.0675	-0.2715	0.4215	0	157	110	3
2026-02-12	14:58:45.590	14.7	-11.725	1.575	-0.038552	0.864492	0.004636	0.0645	-0.273	0.429	0	157	110	3
2026-02-12	14:58:45.610	36.26	-11.2	-3.675	-0.04758	0.826184	-0.011956	0.063	-0.276	0.4275	0	155	106	3
2026-02-12	14:58:45.630	55.335	-9.905	-4.305	-0.05978	0.874984	-0.040992	0.0675	-0.2685	0.4335	0	155	106	3
2026-02-12	14:58:45.650	58.135	-8.26	-0.385	-0.082228	0.945256	-0.07198	0.066	-0.2625	0.444	0	155	106	3
2026-02-12	14:58:45.670	51.205	-6.93	4.305	-0.08784	1.02236	-0.105652	0.0705	-0.264	0.4425	0	155	106	3
2026-02-12	14:58:45.690	46.515	-5.145	6.195	-0.095404	1.138016	-0.11956	0.0585	-0.261	0.459	0	155	106	3
2026-02-12	14:58:45.710	31.22	-2.52	8.715	-0.07076	1.228052	-0.08662	0.0645	-0.267	0.4665	0	155	106	3
2026-02-12	14:58:45.730	-4.795	4.55	13.72	-0.020496	1.201212	-0.020496	0.0555	-0.258	0.465	0	155	106	3
2026-02-12	14:58:45.750	-16.31	12.355	15.575	-0.020496	1.207556	-0.010736	0.06	-0.2565	0.465	0	155	106	3
2026-02-12	14:58:45.770	-23.205	20.02	16.975	-0.0366	1.213412	-0.014884	0.0615	-0.2565	0.465	0	155	106	3
2026-02-12	14:58:45.790	-27.615	26.915	17.255	-0.01098	1.178032	-0.000244	0.057	-0.258	0.462	0	155	106	3
2026-02-12	14:58:45.810	-28.7	30.975	17.78	-0.037576	1.141188	-0.014152	0.054	-0.2625	0.4575	0	153	84	3
2026-02-12	14:58:45.830	-26.985	33.39	16.905	-0.034648	1.08824	-0.019032	0.0465	-0.261	0.453	0	153	84	3
2026-02-12	14:58:45.850	-17.5	35.77	16.345	-0.049044	1.050176	-0.016104	0.039	-0.2535	0.4515	0	153	84	3
2026-02-12	14:58:45.870	1.05	38.535	13.93	-0.006588	1.112884	-0.01098	0.033	-0.255	0.447	0	153	84	3
2026-02-12	14:58:45.890	11.83	39.025	6.37	0.03172	1.094096	-0.01098	0.027	-0.2505	0.4395	0	153	84	3
2026-02-12	14:58:45.910	17.15	38.185	-3.43	0.046116	1.042368	-0.00244	0.024	-0.2475	0.435	0	153	84	3
2026-02-12	14:58:45.930	16.485	35.595	-12.495	0.112972	1.033584	0.016592	0.0285	-0.252	0.4365	0	153	84	3
2026-02-12	14:58:45.950	4.515	33.635	-20.37	0.1403	1.001132	0.042212	0.036	-0.2565	0.4455	0	153	84	3
2026-02-12	14:58:45.970	-11.69	32.165	-25.41	0.144204	0.938912	0.038064	0.0375	-0.258	0.444	0	153	84	3
2026-02-12	14:58:45.990	-21.63	32.165	-27.79	0.10004	0.8967	0.00488	0.0345	-0.255	0.438	0	153	84	3
2026-02-12	14:58:46.010	-22.715	31.99	-27.825	0.072956	0.837896	-0.011224	0.033	-0.255	0.4335	0	152	58	3
2026-02-12	14:58:46.030	-18.025	31.71	-26.705	0.044652	0.786412	-0.008052	0.033	-0.255	0.429	0	152	58	3
2026-02-12	14:58:46.050	-7.42	32.83	-25.62	0.026352	0.772016	0.01098	0.0375	-0.258	0.423	0	152	58	3
2026-02-12	14:58:46.070	-0.56	33.915	-25.095	0.011712	0.780556	0.040016	0.0465	-0.261	0.42	0	152	58	3
2026-02-12	14:58:46.090	2.905	35.245	-24.395	-0.00366	0.772992	0.059048	0.0495	-0.2595	0.42	0	152	58	3
2026-02-12	14:58:46.110	5.915	37.1	-22.75	-0.023668	0.793732	0.063684	0.0495	-0.2625	0.4155	0	152	58	3
2026-02-12	14:58:46.130	5.53	38.885	-20.58	-0.051484	0.826916	0.068076	0.0495	-0.267	0.4155	0	152	58	3
2026-02-12	14:58:46.150	4.305	39.83	-18.235	-0.072468	0.83814	0.064904	0.0525	-0.27	0.417	0	152	58	3
2026-02-12	14:58:46.170	2.695	39.34	-14.56	-0.09028	0.857172	0.07076	0.0555	-0.2655	0.411	0	152	58	3
2026-02-12	14:58:46.190	2.485	37.415	-10.22	-0.10614	0.867664	0.080764	0.06	-0.264	0.4065	0	152	58	3
2026-02-12	14:58:46.210	4.83	33.915	-6.615	-0.115168	0.915976	0.081496	0.057	-0.2715	0.4095	0	151	42	3
2026-02-12	14:58:46.230	3.815	28.455	-5.04	-0.12322	0.962336	0.098088	0.057	-0.2715	0.411	0	151	42	3
2026-02-12	14:58:46.250	1.645	22.085	-5.635	-0.127856	1.041636	0.12444	0.0615	-0.267	0.408	0	151	42	3
2026-02-12	14:58:46.270	-6.825	13.405	-6.405	-0.132736	1.062132	0.13786	0.063	-0.267	0.4065	0	151	42	3
2026-02-12	14:58:46.290	-9.24	10.57	-6.195	-0.13176	1.056032	0.135908	0.063	-0.267	0.4065	0	151	42	3
2026-02-12	14:58:46.310	-2.835	10.01	-7.14	-0.128832	1.086776	0.087352	0.063	-0.2625	0.4005	0	151	42	3
2026-02-12	14:58:46.330	11.69	9.275	-7.175	-0.135664	1.13826	0.030012	0.06	-0.2745	0.396	0	151	42	3
2026-02-12	14:58:46.350	25.235	8.12	-4.13	-0.141764	1.199748	-0.021228	0.0645	-0.2685	0.396	0	151	42	3
2026-02-12	14:58:46.370	26.25	6.79	1.085	-0.131516	1.254892	-0.055388	0.0615	-0.2685	0.4035	0	151	42	3
2026-02-12	14:58:46.390	12.74	2.66	4.585	-0.139324	1.208288	-0.096624	0.054	-0.2715	0.411	0	151	42	3
2026-02-12	14:58:46.410	5.6	-2.66	7.98	-0.138348	1.176324	-0.118828	0.06	-0.27	0.417	0	151	38	3
2026-02-12	14:58:46.430	7.595	-8.61	7.49	-0.116388	1.13582	-0.112728	0.0645	-0.2655	0.4095	0	151	38	3
2026-02-12	14:58:46.450	10.71	-14	4.2	-0.113216	1.077504	-0.067832	0.0645	-0.2685	0.405	0	151	38	3
2026-02-12	14:58:46.470	6.93	-17.78	1.995	-0.103456	1.058716	-0.032452	0.063	-0.2625	0.414	0	151	38	3
2026-02-12	14:58:46.490	-2.065	-18.515	2.03	-0.115412	1.02968	-0.037332	0.06	-0.267	0.414	0	151	38	3
2026-02-12	14:58:46.510	-8.05	-17.22	3.22	-0.122488	0.99552	-0.065148	0.063	-0.2625	0.4155	0	151	38	3
2026-02-12	14:58:46.530	-8.295	-15.54	4.375	-0.112484	0.943792	-0.09076799	0.063	-0.258	0.4185	0	151	38	3
2026-02-12	14:58:46.550	-5.74	-13.58	6.335	-0.09882	0.91134	-0.087596	0.063	-0.258	0.4185	0	151	38	3
2026-02-12	14:58:46.570	-1.785	-10.605	7.77	-0.094916	0.955748	-0.08295999	0.063	-0.2655	0.4065	0	151	38	3
2026-02-12	14:58:46.590	-0.35	-7.35	7.84	-0.090036	0.9699	-0.08662	0.0675	-0.2595	0.408	0	151	38	3
2026-02-12	14:58:46.610	-7.035	-4.445	6.825	-0.077348	0.965752	-0.08295999	0.06	-0.261	0.408	0	152	29	3
2026-02-12	14:58:46.630	-11.025	-2.135	3.675	-0.074176	0.900116	-0.082472	0.06	-0.264	0.417	0	152	29	3
2026-02-12	14:58:46.650	-11.9	-1.505	0.875	-0.0671	0.874008	-0.061	0.063	-0.273	0.4095	0	152	29	3
2026-02-12	14:58:46.670	-18.585	-1.575	-0.735	-0.068564	0.863516	-0.004636	0.0555	-0.2625	0.414	0	152	29	3
2026-02-12	14:58:46.690	-24.535	-1.155	-2.905	-0.077348	0.825208	0.049288	0.066	-0.2685	0.405	0	152	29	3
2026-02-12	14:58:46.710	-18.515	1.575	-5.46	-0.09076799	0.802272	0.073688	0.06	-0.2655	0.405	0	152	29	3
2026-02-12	14:58:46.730	-9.625	5.53	-7.105	-0.117852	0.858148	0.060268	0.0615	-0.2745	0.402	0	152	29	3
2026-02-12	14:58:46.750	-6.615	7.98	-7.42	-0.155672	0.869128	0.01342	0.0615	-0.276	0.396	0	152	29	3
2026-02-12	14:58:46.770	-2.8	8.365	-7.805	-0.18544	0.9272	-0.039284	0.06	-0.2685	0.3945	0	152	29	3
2026-02-12	14:58:46.790	-3.43	5.46	-8.295	-0.21106	0.98454	-0.066612	0.0675	-0.273	0.3945	0	152	29	3
2026-02-12	14:58:46.810	-7.805	-0.035	-6.51	-0.183732	1.005524	-0.033672	0.0615	-0.276	0.399	0	153	14	3
2026-02-12	14:58:46.830	-13.72	-1.925	-3.675	-0.166652	1.025044	-0.003416	0.0645	-0.2685	0.3945	0	153	14	3
2026-02-12	14:58:46.850	-16.17	-1.855	-2.135	-0.146888	1.063108	0.007808	0.0735	-0.2655	0.393	0	153	14	3
2026-02-12	14:58:46.870	-17.045	-0.665	-0.28	-0.13298	1.055056	0.004148	0.072	-0.2715	0.396	0	153	14	3
2026-02-12	14:58:46.890	-12.11	1.82	3.36	-0.127612	1.067256	-0.004636	0.069	-0.273	0.3915	0	153	14	3
2026-02-12	14:58:46.910	-10.22	4.27	10.535	-0.11468	1.140212	-0.015128	0.072	-0.273	0.3915	0	153	14	3
2026-02-12	14:58:46.930	-17.01	6.44	18.305	-0.089792	1.170712	-0.009272	0.0675	-0.27	0.393	0	153	14	3
2026-02-12	14:58:46.950	-18.025	8.68	21.63	-0.038796	1.116544	0.021716	0.069	-0.27	0.387	0	153	14	3
2026-02-12	14:58:46.970	-6.37	15.715	24.745	0.024644	1.11508	0.05978	0.0675	-0.2715	0.381	0	153	14	3
2026-02-12	14:58:46.990	3.255	26.88	26.46	0.047092	1.154852	0.00366	0.0615	-0.27	0.378	0	153	14	3
2026-02-12	14:58:47.010	10.465	35.665	23.205	0.037576	1.18218	-0.07442	0.0555	-0.2685	0.3825	0	152	4	3
2026-02-12	14:58:47.030	22.68	39.13	14.805	0.03538	1.1041	-0.085644	0.0525	-0.2655	0.384	0	152	4	3
2026-02-12	14:58:47.050	28.84	37.73	5.355	0.022692	1.045296	-0.051728	0.0525	-0.27	0.3795	0	152	4	3
2026-02-12	14:58:47.070	22.4	32.725	-2.275	0.016836	1.006744	-0.025376	0.054	-0.2655	0.3825	0	152	4	3
2026-02-12	14:58:47.090	9.835	27.51	-8.645	0.009028	0.986248	-0.000976	0.054	-0.2565	0.3855	0	152	4	3
2026-02-12	14:58:47.110	-2.87	23.8	-11.97	0.001708	0.950624	-0.004148	0.054	-0.264	0.3885	0	152	4	3
2026-02-12	14:58:47.130	-8.855	22.085	-12.11	-0.013176	0.8906	-0.022936	0.0555	-0.27	0.3885	0	152	4	3
2026-02-12	14:58:47.150	-5.075	22.225	-9.03	-0.040748	0.870592	-0.038064	0.06	-0.267	0.381	0	152	4	3
2026-02-12	14:58:47.170	-0.63	21.49	-5.46	-0.056608	0.896212	-0.038552	0.063	-0.267	0.3735	0	152	4	3
2026-02-12	14:58:47.190	-2.66	20.37	-3.78	-0.066612	0.893772	-0.026108	0.0615	-0.27	0.378	0	152	4	3
2026-02-12	14:58:47.210	-4.935	20.125	-4.2	-0.079544	0.875228	-0.004636	0.0615	-0.2745	0.378	0	150	2	3
2026-02-12	14:58:47.230	-10.85	19.25	-4.935	-0.074664	0.870348	0.03172	0.063	-0.2745	0.372	0	150	2	3
2026-02-12	14:58:47.250	-20.16	19.355	-6.685	-0.073444	0.822036	0.067832	0.066	-0.273	0.372	0	150	2	3
2026-02-12	14:58:47.270	-23.17	19.495	-8.925	-0.081984	0.793976	0.07076	0.0645	-0.27	0.3705	0	150	2	3
2026-02-12	14:58:47.290	-17.85	21.455	-10.71	-0.11346	0.805444	0.081984	0.063	-0.27	0.369	0	150	2	3
2026-02-12	14:58:47.310	-17.115	21.455	-10.815	-0.134444	0.804956	0.10248	0.0675	-0.276	0.3645	0	150	2	3
2026-02-12	14:58:47.330	-19.18	20.125	-10.465	-0.142008	0.774212	0.129076	0.0705	-0.276	0.3645	0	150	2	3
2026-02-12	14:58:47.350	-14.84	16.835	-5.95	-0.16104	0.778848	0.143228	0.0705	-0.2715	0.366	0	150	2	3
2026-02-12	14:58:47.370	-4.025	10.605	-2.73	-0.154208	0.856928	0.15128	0.0705	-0.2715	0.366	0	150	2	3
2026-02-12	14:58:47.390	3.57	2.03	-1.75	-0.169824	0.944768	0.1464	0.069	-0.276	0.3525	0	150	2	3
2026-02-12	14:58:47.410	4.27	-5.88	0.49	-0.192516	1.03212	0.142984	0.084	-0.2835	0.3465	0	150	1	3
2026-02-12	14:58:47.430	3.92	-12.705	2.415	-0.20374	1.112152	0.138348	0.0765	-0.2835	0.345	0	150	1	3
2026-02-12	14:58:47.450	5.355	-17.045	4.725	-0.197152	1.16266	0.117852	0.075	-0.273	0.357	0	150	1	3
2026-02-12	14:58:47.470	4.76	-18.83	5.88	-0.199104	1.179984	0.089792	0.075	-0.2805	0.36	0	150	1	3
2026-02-12	14:58:47.490	7	-19.25	7.7	-0.209108	1.171444	0.039284	0.0735	-0.2775	0.3525	0	150	1	3
2026-02-12	14:58:47.510	16.555	-18.795	11.375	-0.203496	1.237568	-0.003904	0.078	-0.2775	0.3585	0	150	1	3
2026-02-12	14:58:47.530	18.9	-17.78	12.985	-0.166896	1.314916	-0.009272	0.075	-0.27	0.3705	0	150	1	3
2026-02-12	14:58:47.550	10.605	-17.115	11.13	-0.149816	1.258308	-0.021716	0.0675	-0.2775	0.36	0	150	1	3
2026-02-12	14:58:47.570	8.89	-16.87	8.225	-0.149572	1.180228	-0.039284	0.0735	-0.282	0.372	0	150	1	3
2026-02-12	14:58:47.590	12.425	-19.355	3.535	-0.147132	1.130696	-0.061488	0.063	-0.2805	0.3645	0	150	1	3
2026-02-12	14:58:47.610	8.435	-27.79	-3.29	-0.135664	1.112396	-0.070028	0.063	-0.2835	0.3795	0	150	13	3
2026-02-12	14:58:47.630	-1.575	-40.285	-10.955	-0.117608	0.986004	-0.064904	0.063	-0.2835	0.3795	0	150	13	3
2026-02-12	14:58:47.650	-1.61	-49.315	-12.985	-0.119804	0.945988	-0.05856	0.0705	-0.276	0.381	0	150	13	3
2026-02-12	14:58:47.670	-1.225	-56.455	-12.18	-0.109068	0.96502	-0.044408	0.075	-0.2805	0.381	0	150	13	3
2026-02-12	14:58:47.690	-0.105	-57.75	-9.94	-0.10248	0.986736	-0.0305	0.0735	-0.279	0.384	0	150	13	3
2026-02-12	14:58:47.710	5.95	-54.215	-6.79	-0.108824	1.003328	-0.037576	0.0765	-0.2775	0.384	0	150	13	3
2026-02-12	14:58:47.730	10.395	-47.985	-2.905	-0.109068	1.001864	-0.06734399	0.0825	-0.288	0.384	0	150	13	3
2026-02-12	14:58:47.750	15.295	-39.865	0.77	-0.10858	0.9882	-0.093452	0.0735	-0.2865	0.387	0	150	13	3
2026-02-12	14:58:47.770	15.155	-33.6	2.905	-0.09516	0.981124	-0.093208	0.0705	-0.2835	0.396	0	150	13	3
2026-02-12	14:58:47.790	4.27	-30.065	3.675	-0.09638	0.931104	-0.089304	0.075	-0.282	0.4005	0	150	13	3
2026-02-12	14:58:47.810	-1.89	-29.12	3.15	-0.0976	0.850096	-0.082472	0.072	-0.2835	0.408	0	151	14	3
2026-02-12	14:58:47.830	-2.52	-29.47	2.17	-0.103944	0.814228	-0.072712	0.0795	-0.285	0.4095	0	151	14	3
2026-02-12	14:58:47.850	-3.045	-31.71	1.015	-0.104188	0.767624	-0.046116	0.081	-0.285	0.399	0	151	14	3
2026-02-12	14:58:47.870	-7.21	-34.825	1.015	-0.0976	0.781044	-0.032452	0.081	-0.2925	0.4065	0	151	14	3
2026-02-12	14:58:47.890	-13.72	-37.905	0.42	-0.093696	0.78812	-0.012688	0.081	-0.282	0.4005	0	151	14	3
2026-02-12	14:58:47.910	-17.01	-39.165	1.12	-0.095892	0.812032	-0.029768	0.0795	-0.285	0.4005	0	151	14	3
2026-02-12	14:58:47.930	-22.435	-40.425	1.085	-0.09076799	0.877668	-0.043432	0.0765	-0.288	0.4005	0	151	14	3
2026-02-12	14:58:47.950	-24.815	-40.985	0.91	-0.092964	0.916464	-0.0427	0.0765	-0.2865	0.399	0	151	14	3
2026-02-12	14:58:47.970	-19.845	-41.825	2.31	-0.057096	0.956724	-0.006832	0.078	-0.2835	0.402	0	151	14	3
2026-02-12	14:58:47.990	-12.11	-38.815	2.66	-0.054412	1.030656	0.057828	0.078	-0.288	0.402	0	151	14	3
2026-02-12	14:58:48.010	-7.14	-32.41	2.52	-0.065636	1.090436	0.07198	0.0765	-0.294	0.4005	0	152	4	3
2026-02-12	14:58:48.030	-4.025	-21.63	4.095	-0.066856	1.110688	0.07564	0.0735	-0.294	0.4005	0	152	4	3
2026-02-12	14:58:48.050	3.815	-8.19	8.19	-0.07905599	1.117276	0.051484	0.075	-0.2865	0.4035	0	152	4	3
2026-02-12	14:58:48.070	10.99	4.27	14.455	-0.099796	1.19194	0.028304	0.0765	-0.282	0.4035	0	152	4	3
2026-02-12	14:58:48.090	9.17	13.405	20.755	-0.079544	1.252208	0.014152	0.0735	-0.285	0.402	0	152	4	3
2026-02-12	14:58:48.110	3.955	19.95	23.38	-0.04758	1.24196	0.01952	0.0705	-0.291	0.402	0	152	4	3
2026-02-12	14:58:48.130	1.785	25.095	23.625	-0.026596	1.221952	0.028548	0.069	-0.294	0.4005	0	152	4	3
2026-02-12	14:58:48.150	1.995	29.05	19.81	-0.003904	1.155096	0.02928	0.069	-0.288	0.399	0	152	4	3
2026-02-12	14:58:48.170	2.975	29.715	12.985	-0.0183	1.126792	0.011712	0.072	-0.288	0.3975	0	152	4	3
2026-02-12	14:58:48.190	0.805	26.985	7.315	-0.010492	1.103612	0.013176	0.057	-0.288	0.4065	0	152	4	3
2026-02-12	14:58:48.210	4.095	24.955	1.26	0.00244	1.054568	0.051972	0.057	-0.2895	0.396	0	153	0	3
2026-02-12	14:58:48.230	6.16	23.31	-5.005	0.01464	1.051152	0.081496	0.0585	-0.2865	0.399	0	153	0	3
2026-02-12	14:58:48.250	3.535	21.91	-11.235	0.032452	1.037732	0.088816	0.0615	-0.2865	0.402	0	153	0	3
2026-02-12	14:58:48.270	0.315	21.455	-17.29	0.039528	1.025044	0.058072	0.066	-0.294	0.402	0	153	0	3
2026-02-12	14:58:48.290	0.245	20.44	-21.63	0.034404	0.982344	0.04514	0.0645	-0.2955	0.402	0	153	0	3
2026-02-12	14:58:48.310	0.595	19.845	-23.415	0.02318	0.91378	0.04758	0.0645	-0.2895	0.402	0	153	0	3
2026-02-12	14:58:48.330	1.61	21.035	-23.695	0.00122	0.849852	0.05734	0.0675	-0.2895	0.399	0	153	0	3
2026-02-12	14:58:48.350	8.155	23.205	-23.73	-0.0305	0.823744	0.0488	0.072	-0.294	0.396	0	153	0	3
2026-02-12	14:58:48.370	13.23	27.16	-23.345	-0.05856	0.831308	0.047824	0.081	-0.294	0.399	0	153	0	3
2026-02-12	14:58:48.390	16.17	29.995	-23.52	-0.055144	0.788364	0.056608	0.0825	-0.294	0.4035	0	153	0	3
2026-02-12	14:58:48.410	18.41	32.83	-23.205	-0.07686	0.752984	0.061488	0.081	-0.297	0.4035	0	153	5	3
2026-02-12	14:58:48.430	9.415	34.37	-20.475	-0.094428	0.768356	0.066368	0.0825	-0.297	0.4035	0	153	5	3
2026-02-12	14:58:48.450	-1.995	35.245	-17.395	-0.113704	0.76494	0.048312	0.0825	-0.297	0.4035	0	153	5	3
2026-02-12	14:58:48.470	-7.175	35.175	-15.225	-0.128344	0.788608	0.032452	0.093	-0.297	0.3975	0	153	5	3
2026-02-12	14:58:48.490	-7.42	33.705	-13.02	-0.14518	0.8357	0.040504	0.0795	-0.309	0.414	0	153	5	3
2026-02-12	14:58:48.510	-9.275	31.675	-10.64	-0.168848	0.878888	0.072224	0.093	-0.309	0.405	0	153	5	3
2026-02-12	14:58:48.530	-21.14	29.715	-7.28	-0.189832	0.923296	0.116388	0.102	-0.3015	0.4035	0	153	5	3
2026-02-12	14:58:48.550	-35.315	26.04	-4.97	-0.20862	0.9211	0.119072	0.099	-0.3015	0.393	0	153	5	3
2026-02-12	14:58:48.570	-36.715	19.81	-3.78	-0.222528	0.899628	0.087108	0.0945	-0.3105	0.3975	0	153	5	3
2026-02-12	14:58:48.590	-18.9	12.88	-3.115	-0.247416	0.94794	0.0549	0.099	-0.312	0.384	0	153	5	3
2026-02-12	14:58:48.610	-1.96	4.445	-2.485	-0.25742	1.039928	0.031476	0.096	-0.306	0.387	0	154	16	3
2026-02-12	14:58:48.630	0.105	-5.18	-2.835	-0.247904	1.126304	0.028304	0.102	-0.3015	0.3855	0	154	16	3
2026-02-12	14:58:48.650	-4.585	-12.985	-4.13	-0.215452	1.169248	0.039284	0.102	-0.309	0.3855	0	154	16	3
2026-02-12	14:58:48.670	-5.775	-17.745	-3.745	-0.192272	1.213412	0.034404	0.093	-0.309	0.3885	0	154	16	3
2026-02-12	14:58:48.690	-3.64	-19.495	-1.715	-0.182024	1.235372	0.0122	0.108	-0.3075	0.3825	0	154	16	3
2026-02-12	14:58:48.710	-2.415	-19.88	1.05	-0.16836	1.164124	-0.00122	0.108	-0.3075	0.3825	0	154	16	3
