yyyy-MM-dd	HH:mm:ss.fff	gyrX	gyrY	gyrZ	accX	accY	accZ	magX	magY	magZ	Marker	Energy	Angle	Classification
2026-02-11	16:06:11.410	1.26	-0.525	0.28	0.049776	0.051728	1.01016	0.0975	-0.3	0.114	0	44	91	2
2026-02-11	16:06:11.430	1.19	-0.56	0.245	0.052948	0.055144	1.0126	0.105	-0.3015	0.1155	0	44	91	2
2026-02-11	16:06:11.450	1.26	-0.525	0.245	0.05124	0.0549	1.013088	0.1035	-0.3015	0.1185	0	44	91	2
2026-02-11	16:06:11.470	1.225	-0.595	0.28	0.052216	0.05246	1.012356	0.0975	-0.2955	0.117	0	44	91	2
2026-02-11	16:06:11.490	10.57	-9.135	4.795	0.054656	0.054656	1.007964	0.105	-0.3	0.114	0	44	91	2
2026-02-11	16:06:11.510	2.17	-1.33	0.805	0.052704	0.053924	1.008208	0.1005	-0.3045	0.1155	0	44	91	2
2026-02-11	16:06:11.530	1.225	-0.49	0.245	0.054412	0.05246	1.009672	0.108	-0.2985	0.1215	0	44	91	2
2026-02-11	16:06:11.550	1.19	-0.525	0.245	0.053924	0.05124	1.008452	0.1035	-0.3015	0.1155	0	44	91	2
2026-02-11	16:06:11.570	1.19	-0.56	0.245	0.050264	0.050996	1.00894	0.1095	-0.306	0.114	0	44	91	2
2026-02-11	16:06:11.590	1.155	-0.525	0.315	0.05368	0.050996	1.007964	0.1065	-0.3045	0.1185	0	44	91	2
2026-02-11	16:06:11.610	1.26	-0.455	0.21	0.052704	0.053192	1.010892	0.105	-0.3	0.114	0	149	292	2
2026-02-11	16:06:11.630	1.225	-0.525	0.28	0.058072	0.05246	1.010648	0.102	-0.297	0.1125	0	149	292	2
2026-02-11	16:06:11.650	1.19	-0.56	0.28	0.052216	0.050264	1.009916	0.1065	-0.3015	0.1035	0	149	292	2
2026-02-11	16:06:11.670	1.26	-0.525	0.28	0.051484	0.052704	1.007232	0.108	-0.2955	0.111	0	149	292	2
2026-02-11	16:06:11.690	1.225	-0.525	0.28	0.056852	0.050264	1.006988	0.099	-0.303	0.1185	0	149	292	2
2026-02-11	16:06:11.710	1.26	-0.49	0.245	0.051484	0.05368	1.012112	0.1035	-0.3	0.1185	0	149	292	2
2026-02-11	16:06:11.730	1.26	-0.56	0.245	0.053436	0.055632	1.013088	0.099	-0.306	0.12	0	149	292	2
2026-02-11	16:06:11.750	1.225	-0.595	0.245	0.054168	0.052216	1.008452	0.111	-0.2985	0.105	0	149	292	2
2026-02-11	16:06:11.770	1.225	-0.525	0.245	0.052704	0.053924	1.010648	0.105	-0.297	0.1155	0	149	292	2
2026-02-11	16:06:11.790	1.225	-0.56	0.28	0.05246	0.053436	1.013088	0.102	-0.3075	0.1155	0	149	292	2
2026-02-11	16:06:11.810	1.225	-0.525	0.245	0.055876	0.05124	1.00894	0.1065	-0.3075	0.1095	0	261	491	1
2026-02-11	16:06:11.830	1.225	-0.525	0.245	0.050508	0.052216	1.01016	0.105	-0.3	0.111	0	261	491	1
2026-02-11	16:06:11.850	1.26	-0.56	0.245	0.054412	0.050752	1.0126	0.105	-0.3	0.1125	0	261	491	1
2026-02-11	16:06:11.870	1.225	-0.56	0.245	0.054168	0.051484	1.010404	0.1095	-0.306	0.117	0	261	491	1
2026-02-11	16:06:11.890	1.26	-0.525	0.28	0.052216	0.053924	1.012844	0.108	-0.3	0.1095	0	261	491	1
2026-02-11	16:06:11.910	1.26	-0.525	0.28	0.05246	0.054656	1.009672	0.108	-0.3	0.1095	0	261	491	1
2026-02-11	16:06:11.930	1.225	-0.595	0.28	0.051728	0.053436	1.009916	0.108	-0.303	0.1095	0	261	491	1
2026-02-11	16:06:11.950	1.26	-0.595	0.28	0.052704	0.051484	1.008452	0.108	-0.306	0.111	0	261	491	1
2026-02-11	16:06:11.970	1.26	-0.595	0.28	0.053436	0.050752	1.012112	0.108	-0.3045	0.1095	0	261	491	1
2026-02-11	16:06:11.990	1.26	-0.595	0.245	0.053924	0.053924	1.011624	0.105	-0.3	0.111	0	261	491	1
2026-02-11	16:06:12.010	1.33	-0.49	0.245	0.050752	0.054168	1.01138	0.1005	-0.297	0.1125	0	338	637	1
2026-02-11	16:06:12.030	1.19	-0.595	0.28	0.05612	0.052704	1.011624	0.1005	-0.297	0.111	0	338	637	1
2026-02-11	16:06:12.050	1.225	-0.525	0.245	0.054656	0.055388	1.009916	0.1035	-0.3015	0.1125	0	338	637	1
2026-02-11	16:06:12.070	1.19	-0.56	0.245	0.052948	0.052216	1.009184	0.1095	-0.3045	0.1155	0	338	637	1
2026-02-11	16:06:12.090	1.19	-0.525	0.245	0.05246	0.052704	1.009184	0.105	-0.303	0.1125	0	338	637	1
2026-02-11	16:06:12.110	1.26	-0.525	0.245	0.052704	0.047824	1.008208	0.102	-0.3015	0.1095	0	338	637	1
2026-02-11	16:06:12.130	1.26	-0.595	0.245	0.053924	0.053924	1.011868	0.1035	-0.3	0.1155	0	338	637	1
2026-02-11	16:06:12.150	1.26	-0.56	0.28	0.054412	0.049044	1.01138	0.099	-0.297	0.1125	0	338	637	1
2026-02-11	16:06:12.170	1.225	-0.595	0.245	0.051728	0.052216	1.011624	0.1005	-0.297	0.114	0	338	637	1
2026-02-11	16:06:12.190	1.295	-0.63	0.245	0.05368	0.05002	1.014552	0.105	-0.303	0.114	0	338	637	1
2026-02-11	16:06:12.210	1.26	-0.735	0.28	0.053924	0.051972	1.006744	0.111	-0.3	0.1125	0	381	744	1
2026-02-11	16:06:12.230	1.295	-0.665	0.28	0.053924	0.050996	1.01138	0.111	-0.294	0.1185	0	381	744	1
2026-02-11	16:06:12.250	1.225	-0.665	0.245	0.055876	0.051484	1.009672	0.1095	-0.297	0.1215	0	381	744	1
2026-02-11	16:06:12.270	1.26	-0.595	0.245	0.053924	0.054412	1.008696	0.111	-0.297	0.1215	0	381	744	1
2026-02-11	16:06:12.290	1.225	-0.49	0.28	0.050508	0.050264	1.006744	0.108	-0.297	0.117	0	381	744	1
2026-02-11	16:06:12.310	1.295	-0.56	0.28	0.052216	0.053436	1.010648	0.108	-0.297	0.111	0	381	744	1
2026-02-11	16:06:12.330	1.26	-0.56	0.28	0.053924	0.055144	1.012112	0.1065	-0.2925	0.114	0	381	744	1
2026-02-11	16:06:12.350	1.225	-0.56	0.28	0.054168	0.045872	1.00772	0.105	-0.294	0.1185	0	381	744	1
2026-02-11	16:06:12.370	1.295	-0.56	0.245	0.055876	0.055876	1.004548	0.1065	-0.2925	0.12	0	381	744	1
2026-02-11	16:06:12.390	1.26	-0.49	0.28	0.053436	0.049288	1.016504	0.105	-0.294	0.1245	0	381	744	1
2026-02-11	16:06:12.410	1.26	-0.56	0.245	0.052948	0.05368	1.016748	0.108	-0.303	0.1275	0	391	822	1
2026-02-11	16:06:12.430	1.26	-0.595	0.245	0.052216	0.054656	1.0126	0.1065	-0.3	0.1245	0	391	822	1
2026-02-11	16:06:12.450	1.26	-0.56	0.245	0.051972	0.05124	1.006256	0.108	-0.297	0.1245	0	391	822	1
2026-02-11	16:06:12.470	1.26	-0.56	0.245	0.053192	0.052948	1.003328	0.108	-0.3015	0.132	0	391	822	1
2026-02-11	16:06:12.490	1.295	-0.595	0.245	0.057584	0.051728	1.008208	0.1035	-0.2955	0.1335	0	391	822	1
2026-02-11	16:06:12.510	1.295	-0.595	0.245	0.053436	0.052948	1.01504	0.102	-0.291	0.135	0	391	822	1
2026-02-11	16:06:12.530	1.19	-0.595	0.21	0.054168	0.05368	1.007964	0.102	-0.2985	0.1365	0	391	822	1
2026-02-11	16:06:12.550	1.26	-0.56	0.245	0.055632	0.052216	1.010892	0.1065	-0.3015	0.135	0	391	822	1
2026-02-11	16:06:12.570	1.26	-0.525	0.245	0.05368	0.050996	1.014064	0.108	-0.3	0.1365	0	391	822	1
2026-02-11	16:06:12.590	1.26	-0.56	0.245	0.055388	0.05368	1.010404	0.1035	-0.303	0.1425	0	391	822	1
2026-02-11	16:06:12.610	1.19	-0.63	0.315	0.05368	0.05246	1.010648	0.1035	-0.306	0.144	0	378	879	1
2026-02-11	16:06:12.630	1.26	-0.56	0.28	0.05612	0.054656	1.010892	0.1035	-0.306	0.144	0	378	879	1
2026-02-11	16:06:12.650	1.225	-0.525	0.28	0.057828	0.053192	1.008208	0.1035	-0.306	0.144	0	378	879	1
2026-02-11	16:06:12.670	1.19	-0.49	0.245	0.051484	0.049288	1.01382	0.1035	-0.306	0.141	0	378	879	1
2026-02-11	16:06:12.690	1.225	-0.525	0.245	0.056364	0.053924	1.012844	0.108	-0.297	0.138	0	378	879	1
2026-02-11	16:06:12.710	1.295	-0.56	0.245	0.054412	0.053924	1.014308	0.1035	-0.3045	0.144	0	378	879	1
2026-02-11	16:06:12.730	1.155	-0.595	0.28	0.054656	0.054412	1.006988	0.102	-0.297	0.1365	0	378	879	1
2026-02-11	16:06:12.750	1.26	-0.42	0.28	0.054168	0.052216	1.009916	0.1035	-0.2985	0.1305	0	378	879	1
2026-02-11	16:06:12.770	1.225	-0.49	0.28	0.056608	0.054656	1.015284	0.102	-0.3	0.1365	0	378	879	1
2026-02-11	16:06:12.790	1.225	-0.525	0.245	0.05246	0.054656	1.012356	0.1065	-0.2895	0.1425	0	378	879	1
2026-02-11	16:06:12.810	1.225	-0.525	0.245	0.054656	0.051728	1.009916	0.099	-0.3015	0.1425	0	348	921	1
2026-02-11	16:06:12.830	1.26	-0.49	0.245	0.051484	0.0549	1.017236	0.111	-0.3015	0.1335	0	348	921	1
2026-02-11	16:06:12.850	1.225	-0.56	0.21	0.052216	0.052216	1.01016	0.111	-0.2925	0.1305	0	348	921	1
2026-02-11	16:06:12.870	1.225	-0.525	0.28	0.054412	0.054656	1.010892	0.1035	-0.3015	0.141	0	348	921	1
2026-02-11	16:06:12.890	1.26	-0.525	0.28	0.053924	0.054412	1.013576	0.114	-0.297	0.141	0	348	921	1
2026-02-11	16:06:12.910	1.19	-0.56	0.28	0.05612	0.051728	1.009916	0.1035	-0.303	0.1395	0	348	921	1
2026-02-11	16:06:12.930	1.295	-0.525	0.28	0.05612	0.051728	1.009916	0.1035	-0.291	0.1365	0	348	921	1
2026-02-11	16:06:12.950	1.225	-0.595	0.28	0.05612	0.050996	1.011136	0.1065	-0.3	0.141	0	348	921	1
2026-02-11	16:06:12.970	1.19	-0.56	0.245	0.053436	0.05368	1.009672	0.105	-0.3	0.1395	0	348	921	1
2026-02-11	16:06:12.990	1.225	-0.56	0.245	0.052704	0.055632	1.012112	0.102	-0.297	0.141	0	348	921	1
2026-02-11	16:06:13.010	1.225	-0.525	0.245	0.051972	0.053192	1.013332	0.099	-0.2955	0.141	0	310	951	1
2026-02-11	16:06:13.030	1.19	-0.56	0.245	0.052704	0.05246	1.011136	0.099	-0.2955	0.141	0	310	951	1
2026-02-11	16:06:13.050	1.26	-0.525	0.28	0.05124	0.053924	1.009672	0.1035	-0.2985	0.1395	0	310	951	1
2026-02-11	16:06:13.070	1.26	-0.455	0.245	0.055388	0.055388	1.01382	0.1035	-0.3015	0.1395	0	310	951	1
2026-02-11	16:06:13.090	1.155	-0.595	0.245	0.054168	0.050264	1.009428	0.102	-0.3	0.141	0	310	951	1
2026-02-11	16:06:13.110	1.295	-0.49	0.28	0.054412	0.0549	1.015772	0.105	-0.2985	0.1395	0	310	951	1
2026-02-11	16:06:13.130	1.225	-0.595	0.315	0.053436	0.05124	1.0126	0.1065	-0.297	0.138	0	310	951	1
2026-02-11	16:06:13.150	1.295	-0.595	0.28	0.051972	0.05246	1.013576	0.1125	-0.297	0.1425	0	310	951	1
2026-02-11	16:06:13.170	1.19	-0.595	0.315	0.051972	0.05368	1.011136	0.1095	-0.3015	0.1425	0	310	951	1
2026-02-11	16:06:13.190	1.33	-0.525	0.28	0.055388	0.050996	1.013088	0.1035	-0.303	0.1425	0	310	951	1
2026-02-11	16:06:13.210	1.26	-0.56	0.28	0.055632	0.054656	1.013332	0.1005	-0.3	0.1395	0	269	974	1
2026-02-11	16:06:13.230	1.19	-0.595	0.245	0.052704	0.050508	1.009672	0.102	-0.297	0.1395	0	269	974	1
2026-02-11	16:06:13.250	1.295	-0.49	0.245	0.054412	0.051972	1.014308	0.105	-0.3015	0.144	0	269	974	1
2026-02-11	16:06:13.270	1.19	-0.56	0.28	0.05612	0.05124	1.015772	0.1095	-0.306	0.1425	0	269	974	1
2026-02-11	16:06:13.290	1.26	-0.595	0.28	0.054656	0.055388	1.008696	0.1065	-0.3045	0.141	0	269	974	1
2026-02-11	16:06:13.310	1.225	-0.525	0.245	0.054412	0.049776	1.010648	0.1035	-0.303	0.1425	0	269	974	1
2026-02-11	16:06:13.330	1.26	-0.525	0.28	0.0549	0.0549	1.013332	0.108	-0.3045	0.141	0	269	974	1
2026-02-11	16:06:13.350	1.225	-0.56	0.28	0.05246	0.049044	1.013332	0.1125	-0.309	0.141	0	269	974	1
2026-02-11	16:06:13.370	1.26	-0.595	0.315	0.05246	0.052948	1.011136	0.111	-0.3015	0.144	0	269	974	1
2026-02-11	16:06:13.390	1.26	-0.56	0.28	0.054412	0.05246	1.011868	0.108	-0.294	0.141	0	269	974	1
2026-02-11	16:06:13.410	1.225	-0.56	0.245	0.05612	0.052948	1.010648	0.1065	-0.2985	0.1395	0	229	990	1
2026-02-11	16:06:13.430	1.26	-0.525	0.28	0.050508	0.054168	1.01016	0.105	-0.297	0.141	0	229	990	1
2026-02-11	16:06:13.450	1.225	-0.525	0.28	0.057828	0.052216	1.013576	0.102	-0.297	0.1395	0	229	990	1
2026-02-11	16:06:13.470	1.225	-0.525	0.28	0.055632	0.05246	1.014308	0.1035	-0.3	0.141	0	229	990	1
2026-02-11	16:06:13.490	1.26	-0.525	0.245	0.05246	0.052216	1.011868	0.102	-0.297	0.1425	0	229	990	1
2026-02-11	16:06:13.510	1.19	-0.56	0.28	0.054656	0.053436	1.010404	0.099	-0.2985	0.138	0	229	990	1
2026-02-11	16:06:13.530	1.26	-0.56	0.245	0.058072	0.05124	1.01138	0.1065	-0.3015	0.135	0	229	990	1
2026-02-11	16:06:13.550	1.26	-0.56	0.28	0.0549	0.05246	1.01138	0.108	-0.3	0.141	0	229	990	1
2026-02-11	16:06:13.570	1.26	-0.49	0.245	0.057828	0.049532	1.012356	0.1035	-0.2985	0.1425	0	229	990	1
2026-02-11	16:06:13.590	1.26	-0.56	0.245	0.054656	0.056364	1.010892	0.1065	-0.2955	0.1395	0	229	990	1
2026-02-11	16:06:13.610	1.19	-0.525	0.245	0.057584	0.045628	1.012112	0.1125	-0.294	0.144	0	193	1002	1
2026-02-11	16:06:13.630	1.225	-0.56	0.245	0.056364	0.052216	1.01016	0.111	-0.2985	0.1425	0	193	1002	1
2026-02-11	16:06:13.650	1.225	-0.49	0.245	0.056608	0.054168	1.011624	0.108	-0.3045	0.141	0	193	1002	1
2026-02-11	16:06:13.670	1.225	-0.56	0.245	0.051484	0.05246	1.013576	0.1065	-0.303	0.1425	0	193	1002	1
2026-02-11	16:06:13.690	1.225	-0.56	0.28	0.051484	0.054412	1.009184	0.108	-0.2985	0.1395	0	193	1002	1
2026-02-11	16:06:13.710	1.225	-0.56	0.245	0.059536	0.05124	1.009184	0.1095	-0.3	0.138	0	193	1002	1
2026-02-11	16:06:13.730	1.225	-0.56	0.28	0.053924	0.05246	1.013576	0.111	-0.2985	0.1365	0	193	1002	1
2026-02-11	16:06:13.750	1.26	-0.56	0.28	0.054168	0.052948	1.016504	0.108	-0.2985	0.138	0	193	1002	1
2026-02-11	16:06:13.770	1.26	-0.56	0.245	0.053924	0.052948	1.01016	0.105	-0.297	0.1425	0	193	1002	1
2026-02-11	16:06:13.790	1.295	-0.56	0.245	0.0549	0.050264	1.013576	0.105	-0.297	0.1395	0	193	1002	1
2026-02-11	16:06:13.810	1.155	-0.56	0.315	0.057096	0.055144	1.01138	0.105	-0.2985	0.1365	0	161	1011	1
2026-02-11	16:06:13.830	1.26	-0.525	0.315	0.05612	0.052948	1.010892	0.1065	-0.3	0.138	0	161	1011	1
2026-02-11	16:06:13.850	1.26	-0.56	0.28	0.052704	0.05002	1.012356	0.1065	-0.303	0.141	0	161	1011	1
2026-02-11	16:06:13.870	1.26	-0.595	0.28	0.055632	0.055388	1.010648	0.1065	-0.303	0.141	0	161	1011	1
2026-02-11	16:06:13.890	1.26	-0.595	0.245	0.053436	0.054168	1.010404	0.1065	-0.303	0.141	0	161	1011	1
2026-02-11	16:06:13.910	1.26	-0.56	0.245	0.051728	0.051728	1.011136	0.102	-0.2955	0.1395	0	161	1011	1
2026-02-11	16:06:13.930	1.225	-0.525	0.245	0.053924	0.052948	1.011868	0.114	-0.2955	0.141	0	161	1011	1
2026-02-11	16:06:13.950	1.26	-0.56	0.28	0.055876	0.053192	1.010648	0.108	-0.3	0.1365	0	161	1011	1
2026-02-11	16:06:13.970	1.225	-0.56	0.245	0.0549	0.050996	1.009672	0.1065	-0.3015	0.1395	0	161	1011	1
2026-02-11	16:06:13.990	1.295	-0.49	0.21	0.055144	0.053924	1.010648	0.1005	-0.3015	0.144	0	161	1011	1
2026-02-11	16:06:14.010	1.26	-0.49	0.28	0.054656	0.054656	1.01138	0.1005	-0.306	0.135	0	135	1017	1
2026-02-11	16:06:14.030	1.33	-0.525	0.245	0.053924	0.050264	1.014064	0.111	-0.297	0.1395	0	135	1017	1
2026-02-11	16:06:14.050	1.26	-0.56	0.28	0.054168	0.056608	1.014308	0.111	-0.297	0.1395	0	135	1017	1
2026-02-11	16:06:14.070	1.26	-0.595	0.245	0.052948	0.054412	1.009428	0.108	-0.2985	0.1395	0	135	1017	1
2026-02-11	16:06:14.090	1.26	-0.56	0.28	0.05368	0.051484	1.01016	0.105	-0.3015	0.141	0	135	1017	1
2026-02-11	16:06:14.110	1.225	-0.56	0.245	0.055632	0.055632	1.012844	0.105	-0.294	0.135	0	135	1017	1
2026-02-11	16:06:14.130	1.225	-0.56	0.28	0.054656	0.054656	1.011136	0.105	-0.2955	0.1305	0	135	1017	1
2026-02-11	16:06:14.150	1.225	-0.525	0.245	0.056608	0.050264	1.014308	0.108	-0.303	0.141	0	135	1017	1
2026-02-11	16:06:14.170	1.225	-0.56	0.28	0.052704	0.052948	1.012844	0.1065	-0.297	0.1455	0	135	1017	1
2026-02-11	16:06:14.190	1.26	-0.525	0.245	0.055144	0.05246	1.010404	0.102	-0.2985	0.138	0	135	1017	1
2026-02-11	16:06:14.210	1.225	-0.595	0.28	0.054656	0.054168	1.010648	0.1005	-0.303	0.138	0	113	1022	1
2026-02-11	16:06:14.230	1.26	-0.525	0.245	0.053192	0.053192	1.012112	0.1035	-0.3	0.141	0	113	1022	1
2026-02-11	16:06:14.250	1.26	-0.525	0.245	0.054412	0.053436	1.014064	0.108	-0.297	0.138	0	113	1022	1
2026-02-11	16:06:14.270	1.19	-0.595	0.245	0.055876	0.052704	1.011868	0.1065	-0.2985	0.135	0	113	1022	1
2026-02-11	16:06:14.290	1.225	-0.525	0.28	0.053192	0.052216	1.010404	0.1065	-0.2985	0.1305	0	113	1022	1
2026-02-11	16:06:14.310	1.225	-0.525	0.245	0.054412	0.05246	1.014064	0.1095	-0.297	0.135	0	113	1022	1
2026-02-11	16:06:14.330	1.26	-0.525	0.245	0.050508	0.050996	1.0126	0.111	-0.294	0.1365	0	113	1022	1
2026-02-11	16:06:14.350	1.225	-0.525	0.245	0.052948	0.053436	1.01382	0.1065	-0.2955	0.1365	0	113	1022	1
2026-02-11	16:06:14.370	1.225	-0.595	0.28	0.054656	0.05246	1.012844	0.102	-0.2955	0.1365	0	113	1022	1
2026-02-11	16:06:14.390	1.295	-0.56	0.245	0.053924	0.053436	1.012356	0.1005	-0.297	0.141	0	113	1022	1
2026-02-11	16:06:14.410	1.19	-0.595	0.28	0.054168	0.0549	1.01138	0.108	-0.3015	0.1425	0	95	1025	1
2026-02-11	16:06:14.430	1.26	-0.595	0.28	0.051728	0.05124	1.009916	0.1095	-0.297	0.138	0	95	1025	1
2026-02-11	16:06:14.450	1.225	-0.56	0.28	0.055876	0.0549	1.0126	0.105	-0.2955	0.1365	0	95	1025	1
2026-02-11	16:06:14.470	1.225	-0.595	0.245	0.052948	0.054168	1.008208	0.1035	-0.294	0.1395	0	95	1025	1
2026-02-11	16:06:14.490	1.225	-0.595	0.245	0.054168	0.051972	1.01138	0.102	-0.2955	0.1335	0	95	1025	1
2026-02-11	16:06:14.510	1.225	-0.595	0.28	0.054168	0.055388	1.015284	0.102	-0.3	0.132	0	95	1025	1
2026-02-11	16:06:14.530	1.26	-0.56	0.245	0.052948	0.054412	1.012844	0.1065	-0.2985	0.135	0	95	1025	1
2026-02-11	16:06:14.550	1.26	-0.595	0.28	0.052216	0.052704	1.016016	0.102	-0.297	0.1335	0	95	1025	1
2026-02-11	16:06:14.570	1.225	-0.63	0.245	0.0549	0.051728	1.012356	0.0975	-0.297	0.138	0	95	1025	1
2026-02-11	16:06:14.590	1.19	-0.665	0.245	0.058316	0.052704	1.004548	0.099	-0.2955	0.141	0	95	1025	1
2026-02-11	16:06:14.610	1.295	-0.525	0.245	0.05246	0.051972	1.0126	0.102	-0.297	0.138	0	81	1027	1
2026-02-11	16:06:14.630	1.225	-0.56	0.28	0.051972	0.05124	1.013576	0.105	-0.3	0.1365	0	81	1027	1
2026-02-11	16:06:14.650	1.225	-0.56	0.245	0.05246	0.054412	1.013088	0.105	-0.306	0.1395	0	81	1027	1
2026-02-11	16:06:14.670	1.19	-0.56	0.245	0.056852	0.050752	1.010892	0.1065	-0.3	0.1425	0	81	1027	1
2026-02-11	16:06:14.690	1.26	-0.525	0.245	0.056608	0.054168	1.00894	0.108	-0.297	0.1395	0	81	1027	1
2026-02-11	16:06:14.710	1.26	-0.525	0.28	0.05368	0.051972	1.012356	0.108	-0.3015	0.135	0	81	1027	1
2026-02-11	16:06:14.730	1.295	-0.49	0.245	0.049776	0.050752	1.014552	0.105	-0.2985	0.1365	0	81	1027	1
2026-02-11	16:06:14.750	1.225	-0.56	0.245	0.0549	0.050752	1.009672	0.102	-0.2985	0.1365	0	81	1027	1
2026-02-11	16:06:14.770	1.225	-0.525	0.28	0.056364	0.052704	1.010648	0.102	-0.2985	0.141	0	81	1027	1
2026-02-11	16:06:14.790	1.295	-0.525	0.28	0.055632	0.054412	1.0126	0.102	-0.297	0.144	0	81	1027	1
2026-02-11	16:06:14.810	1.26	-0.56	0.245	0.053924	0.055144	1.008696	0.1035	-0.306	0.1395	0	69	1029	1
2026-02-11	16:06:14.830	1.26	-0.525	0.28	0.056608	0.054656	1.0126	0.105	-0.3135	0.138	0	69	1029	1
2026-02-11	16:06:14.850	1.26	-0.595	0.245	0.054168	0.054412	1.012356	0.105	-0.3075	0.138	0	69	1029	1
2026-02-11	16:06:14.870	1.26	-0.525	0.21	0.056364	0.053192	1.01138	0.105	-0.3015	0.1365	0	69	1029	1
2026-02-11	16:06:14.890	1.225	-0.56	0.245	0.052704	0.049532	1.010892	0.102	-0.3015	0.1365	0	69	1029	1
2026-02-11	16:06:14.910	1.225	-0.49	0.28	0.05734	0.055388	1.0126	0.105	-0.306	0.135	0	69	1029	1
2026-02-11	16:06:14.930	1.225	-0.525	0.28	0.05246	0.051728	1.013576	0.1095	-0.3015	0.135	0	69	1029	1
2026-02-11	16:06:14.950	1.26	-0.525	0.245	0.053436	0.050996	1.012112	0.1095	-0.294	0.138	0	69	1029	1
2026-02-11	16:06:14.970	1.26	-0.56	0.28	0.05246	0.054656	1.010648	0.1065	-0.2955	0.141	0	69	1029	1
2026-02-11	16:06:14.990	1.225	-0.56	0.245	0.053192	0.052704	1.013332	0.105	-0.3	0.1425	0	69	1029	1
2026-02-11	16:06:15.010	1.26	-0.56	0.28	0.055388	0.05124	1.012112	0.105	-0.3045	0.1455	0	59	1030	1
2026-02-11	16:06:15.030	1.225	-0.525	0.28	0.054412	0.053436	1.013576	0.1035	-0.303	0.141	0	59	1030	1
2026-02-11	16:06:15.050	1.225	-0.56	0.245	0.053192	0.053436	1.014308	0.1035	-0.3015	0.138	0	59	1030	1
2026-02-11	16:06:15.070	1.19	-0.56	0.28	0.055632	0.0549	1.010648	0.105	-0.306	0.138	0	59	1030	1
2026-02-11	16:06:15.090	1.295	-0.525	0.245	0.05612	0.0549	1.012356	0.105	-0.306	0.138	0	59	1030	1
2026-02-11	16:06:15.110	1.225	-0.595	0.28	0.054412	0.052948	1.009672	0.105	-0.306	0.138	0	59	1030	1
2026-02-11	16:06:15.130	1.26	-0.56	0.245	0.053924	0.0549	1.01138	0.105	-0.306	0.138	0	59	1030	1
2026-02-11	16:06:15.150	1.225	-0.525	0.28	0.054656	0.053192	1.015528	0.1065	-0.3045	0.135	0	59	1030	1
2026-02-11	16:06:15.170	1.225	-0.56	0.28	0.051972	0.052704	1.012844	0.108	-0.303	0.1335	0	59	1030	1
2026-02-11	16:06:15.190	1.26	-0.56	0.245	0.0549	0.052948	1.009672	0.108	-0.3045	0.138	0	59	1030	1
2026-02-11	16:06:15.210	1.225	-0.49	0.28	0.052704	0.050996	1.015284	0.1095	-0.3075	0.144	0	51	1032	1
2026-02-11	16:06:15.230	1.19	-0.525	0.245	0.052948	0.054412	1.01138	0.1095	-0.3015	0.138	0	51	1032	1
2026-02-11	16:06:15.250	1.225	-0.56	0.245	0.054656	0.050264	1.011624	0.105	-0.2955	0.132	0	51	1032	1
2026-02-11	16:06:15.270	1.26	-0.525	0.245	0.056852	0.053436	1.013576	0.1005	-0.2955	0.1365	0	51	1032	1
2026-02-11	16:06:15.290	1.225	-0.525	0.28	0.055144	0.053924	1.013088	0.1035	-0.2985	0.141	0	51	1032	1
2026-02-11	16:06:15.310	1.26	-0.525	0.245	0.0549	0.051972	1.012112	0.1065	-0.297	0.138	0	51	1032	1
2026-02-11	16:06:15.330	1.26	-0.525	0.28	0.05246	0.055632	1.013332	0.111	-0.2955	0.138	0	51	1032	1
2026-02-11	16:06:15.350	1.295	-0.595	0.245	0.054656	0.053924	1.009916	0.108	-0.3	0.144	0	51	1032	1
2026-02-11	16:06:15.370	1.225	-0.525	0.28	0.053924	0.051484	1.0126	0.1005	-0.2985	0.1425	0	51	1032	1
2026-02-11	16:06:15.390	1.26	-0.525	0.28	0.05246	0.0549	1.010648	0.1035	-0.297	0.1335	0	51	1032	1
2026-02-11	16:06:15.410	1.26	-0.525	0.245	0.052216	0.049776	1.012112	0.1065	-0.2955	0.135	0	44	1032	1
2026-02-11	16:06:15.430	1.225	-0.595	0.245	0.05368	0.053192	1.009428	0.105	-0.2955	0.141	0	44	1032	1
2026-02-11	16:06:15.450	1.295	-0.49	0.245	0.057828	0.0549	1.013088	0.105	-0.3	0.1395	0	44	1032	1
2026-02-11	16:06:15.470	1.19	-0.525	0.28	0.053924	0.052704	1.01504	0.105	-0.3015	0.135	0	44	1032	1
2026-02-11	16:06:15.490	1.225	-0.595	0.28	0.051972	0.053924	1.010404	0.1065	-0.3	0.1365	0	44	1032	1
2026-02-11	16:06:15.510	1.26	-0.56	0.28	0.057584	0.05124	1.009184	0.1065	-0.297	0.1365	0	44	1032	1
2026-02-11	16:06:15.530	1.225	-0.525	0.245	0.053924	0.053924	1.015284	0.108	-0.2985	0.141	0	44	1032	1
2026-02-11	16:06:15.550	1.26	-0.595	0.245	0.050752	0.051728	1.011868	0.108	-0.2985	0.147	0	44	1032	1
2026-02-11	16:06:15.570	1.225	-0.525	0.28	0.057828	0.055876	1.009672	0.105	-0.297	0.141	0	44	1032	1
2026-02-11	16:06:15.590	1.26	-0.525	0.28	0.056852	0.050752	1.014796	0.108	-0.3	0.138	0	44	1032	1
2026-02-11	16:06:15.610	1.225	-0.595	0.245	0.051728	0.054412	1.011136	0.108	-0.3015	0.1365	0	38	1033	1
2026-02-11	16:06:15.630	1.225	-0.525	0.245	0.055388	0.053436	1.0126	0.1035	-0.3	0.135	0	38	1033	1
2026-02-11	16:06:15.650	1.295	-0.56	0.28	0.05124	0.051972	1.015772	0.1065	-0.2985	0.141	0	38	1033	1
2026-02-11	16:06:15.670	1.26	-0.56	0.28	0.05368	0.052948	1.00894	0.102	-0.297	0.138	0	38	1033	1
2026-02-11	16:06:15.690	1.225	-0.56	0.28	0.05368	0.051484	1.012356	0.1005	-0.2985	0.132	0	38	1033	1
2026-02-11	16:06:15.710	1.295	-0.56	0.21	0.053436	0.052948	1.012844	0.1005	-0.303	0.1365	0	38	1033	1
2026-02-11	16:06:15.730	1.19	-0.595	0.245	0.05612	0.055876	1.011136	0.096	-0.3015	0.1395	0	38	1033	1
2026-02-11	16:06:15.750	1.26	-0.56	0.245	0.05368	0.055632	1.013088	0.102	-0.2985	0.138	0	38	1033	1
2026-02-11	16:06:15.770	1.26	-0.525	0.28	0.051484	0.054168	1.010648	0.1065	-0.2985	0.141	0	38	1033	1
2026-02-11	16:06:15.790	1.225	-0.595	0.245	0.05368	0.051972	1.0126	0.108	-0.2985	0.1425	0	38	1033	1
2026-02-11	16:06:15.810	1.26	-0.525	0.245	0.05246	0.052948	1.011868	0.108	-0.2985	0.141	0	33	1034	1
2026-02-11	16:06:15.830	1.225	-0.56	0.245	0.055876	0.052948	1.012844	0.1065	-0.3	0.138	0	33	1034	1
2026-02-11	16:06:15.850	1.225	-0.595	0.245	0.0549	0.05368	1.012356	0.105	-0.2985	0.1395	0	33	1034	1
2026-02-11	16:06:15.870	1.26	-0.56	0.245	0.054412	0.053924	1.011136	0.105	-0.3015	0.141	0	33	1034	1
2026-02-11	16:06:15.890	1.225	-0.525	0.28	0.05246	0.051728	1.01504	0.105	-0.3045	0.141	0	33	1034	1
2026-02-11	16:06:15.910	1.26	-0.525	0.245	0.053924	0.05612	1.010404	0.105	-0.2985	0.138	0	33	1034	1
2026-02-11	16:06:15.930	1.26	-0.595	0.28	0.051728	0.049776	1.014064	0.102	-0.3	0.1335	0	33	1034	1
2026-02-11	16:06:15.950	1.26	-0.56	0.315	0.05368	0.056364	1.00894	0.1005	-0.3045	0.135	0	33	1034	1
2026-02-11	16:06:15.970	1.26	-0.56	0.28	0.05612	0.05124	1.013576	0.1035	-0.303	0.138	0	33	1034	1
2026-02-11	16:06:15.990	1.19	-0.525	0.28	0.053192	0.05368	1.01382	0.1005	-0.3015	0.141	0	33	1034	1
2026-02-11	16:06:16.010	1.33	-0.525	0.245	0.05612	0.052704	1.0126	0.1005	-0.303	0.138	0	28	1034	1
2026-02-11	16:06:16.030	1.26	-0.56	0.28	0.053924	0.053436	1.009672	0.102	-0.303	0.1365	0	28	1034	1
2026-02-11	16:06:16.050	1.26	-0.56	0.245	0.055144	0.052948	1.008208	0.1065	-0.2955	0.141	0	28	1034	1
2026-02-11	16:06:16.070	1.225	-0.525	0.28	0.053192	0.052704	1.011624	0.108	-0.2985	0.1395	0	28	1034	1
2026-02-11	16:06:16.090	1.19	-0.56	0.28	0.054412	0.054412	1.012112	0.108	-0.3015	0.1365	0	28	1034	1
2026-02-11	16:06:16.110	1.26	-0.525	0.28	0.052216	0.054656	1.014796	0.1095	-0.3	0.141	0	28	1034	1
2026-02-11	16:06:16.130	1.225	-0.595	0.245	0.051972	0.053192	1.012356	0.108	-0.3	0.138	0	28	1034	1
2026-02-11	16:06:16.150	1.26	-0.56	0.28	0.055388	0.052948	1.013332	0.111	-0.3015	0.138	0	28	1034	1
2026-02-11	16:06:16.170	1.225	-0.595	0.28	0.054168	0.051484	1.009184	0.111	-0.2985	0.1395	0	28	1034	1
2026-02-11	16:06:16.190	1.26	-0.525	0.21	0.05246	0.05124	1.011136	0.1065	-0.297	0.138	0	28	1034	1
2026-02-11	16:06:16.210	1.295	-0.525	0.245	0.051972	0.050264	1.009916	0.1065	-0.297	0.138	0	25	1034	1
2026-02-11	16:06:16.230	1.225	-0.525	0.28	0.056852	0.05124	1.012844	0.102	-0.2955	0.1425	0	25	1034	1
2026-02-11	16:06:16.250	1.19	-0.525	0.28	0.055388	0.05246	1.011868	0.102	-0.2955	0.1425	0	25	1034	1
2026-02-11	16:06:16.270	1.26	-0.525	0.28	0.055388	0.05246	1.011868	0.1095	-0.3015	0.141	0	25	1034	1
2026-02-11	16:06:16.290	1.225	-0.56	0.28	0.053436	0.052948	1.013088	0.111	-0.3015	0.138	0	25	1034	1
2026-02-11	16:06:16.310	1.225	-0.525	0.245	0.0549	0.054168	1.01138	0.1005	-0.2985	0.1365	0	25	1034	1
2026-02-11	16:06:16.330	1.225	-0.56	0.245	0.05368	0.051484	1.013088	0.102	-0.306	0.141	0	25	1034	1
2026-02-11	16:06:16.350	1.225	-0.56	0.28	0.05612	0.052216	1.010892	0.1125	-0.303	0.138	0	25	1034	1
2026-02-11	16:06:16.370	1.26	-0.56	0.28	0.057584	0.054168	1.009672	0.111	-0.3045	0.138	0	25	1034	1
2026-02-11	16:06:16.390	1.26	-0.525	0.28	0.057096	0.053924	1.012112	0.1065	-0.3	0.1425	0	25	1034	1
2026-02-11	16:06:16.410	1.26	-0.525	0.21	0.052948	0.050508	1.013576	0.1035	-0.2985	0.144	0	21	1034	1
2026-02-11	16:06:16.430	1.225	-0.56	0.245	0.049044	0.050752	1.011624	0.108	-0.297	0.1395	0	21	1034	1
2026-02-11	16:06:16.450	1.26	-0.56	0.245	0.060024	0.052948	1.011624	0.1095	-0.2985	0.1365	0	21	1034	1
2026-02-11	16:06:16.470	1.295	-0.525	0.28	0.053192	0.055388	1.013332	0.102	-0.297	0.1365	0	21	1034	1
2026-02-11	16:06:16.490	1.225	-0.56	0.28	0.051972	0.050996	1.01504	0.1005	-0.294	0.1395	0	21	1034	1
2026-02-11	16:06:16.510	1.26	-0.56	0.28	0.052948	0.053924	1.01138	0.102	-0.2955	0.1425	0	21	1034	1
2026-02-11	16:06:16.530	1.26	-0.56	0.245	0.054412	0.053192	1.014308	0.1065	-0.2955	0.144	0	21	1034	1
2026-02-11	16:06:16.550	1.26	-0.525	0.28	0.05124	0.05368	1.01626	0.1095	-0.2955	0.1395	0	21	1034	1
2026-02-11	16:06:16.570	1.155	-0.595	0.245	0.051972	0.055876	1.011136	0.111	-0.294	0.138	0	21	1034	1
2026-02-11	16:06:16.590	1.295	-0.56	0.28	0.055876	0.05246	1.007964	0.105	-0.2985	0.1425	0	21	1034	1
2026-02-11	16:06:16.610	1.225	-0.56	0.28	0.052948	0.053924	1.012844	0.102	-0.303	0.144	0	19	1034	1
2026-02-11	16:06:16.630	1.225	-0.525	0.245	0.056364	0.051728	1.012844	0.1035	-0.303	0.1455	0	19	1034	1
2026-02-11	16:06:16.650	1.225	-0.56	0.28	0.052948	0.053436	1.011624	0.1035	-0.3015	0.141	0	19	1034	1
2026-02-11	16:06:16.670	1.295	-0.525	0.245	0.055876	0.055632	1.01504	0.105	-0.2985	0.138	0	19	1034	1
2026-02-11	16:06:16.690	1.19	-0.63	0.28	0.05368	0.049288	1.009672	0.102	-0.2925	0.141	0	19	1034	1
2026-02-11	16:06:16.710	1.26	-0.56	0.28	0.054412	0.053192	1.009428	0.1035	-0.297	0.1395	0	19	1034	1
2026-02-11	16:06:16.730	1.26	-0.49	0.28	0.049532	0.048556	1.013576	0.1095	-0.3	0.1395	0	19	1034	1
2026-02-11	16:06:16.750	1.26	-0.56	0.28	0.05612	0.052948	1.012112	0.108	-0.2955	0.1425	0	19	1034	1
2026-02-11	16:06:16.770	1.26	-0.595	0.28	0.055632	0.052216	1.009916	0.102	-0.297	0.144	0	19	1034	1
2026-02-11	16:06:16.790	1.225	-0.56	0.245	0.053192	0.050752	1.0126	0.1035	-0.3	0.144	0	19	1034	1
2026-02-11	16:06:16.810	1.26	-0.56	0.245	0.051484	0.053192	1.014064	0.1065	-0.303	0.1455	0	16	1035	1
2026-02-11	16:06:16.830	1.26	-0.56	0.245	0.049532	0.053436	1.012356	0.1065	-0.303	0.1425	0	16	1035	1
2026-02-11	16:06:16.850	1.295	-0.56	0.28	0.05612	0.053192	1.012356	0.105	-0.303	0.1455	0	16	1035	1
2026-02-11	16:06:16.870	1.225	-0.56	0.28	0.05368	0.05124	1.011868	0.1065	-0.306	0.1455	0	16	1035	1
2026-02-11	16:06:16.890	1.225	-0.595	0.28	0.0549	0.0549	1.010404	0.108	-0.303	0.1425	0	16	1035	1
2026-02-11	16:06:16.910	1.295	-0.56	0.245	0.05246	0.051484	1.013576	0.102	-0.3	0.141	0	16	1035	1
2026-02-11	16:06:16.930	1.26	-0.525	0.28	0.054412	0.05246	1.014308	0.1005	-0.303	0.138	0	16	1035	1
2026-02-11	16:06:16.950	1.26	-0.56	0.245	0.055388	0.050508	1.011624	0.1035	-0.3045	0.138	0	16	1035	1
2026-02-11	16:06:16.970	1.26	-0.56	0.28	0.054168	0.048068	1.011624	0.1065	-0.303	0.1425	0	16	1035	1
2026-02-11	16:06:16.990	1.26	-0.525	0.28	0.052704	0.054656	1.015772	0.108	-0.3015	0.1395	0	16	1035	1
2026-02-11	16:06:17.010	1.26	-0.56	0.28	0.055144	0.054168	1.010892	0.102	-0.3015	0.1365	0	14	1035	1
2026-02-11	16:06:17.030	1.225	-0.56	0.245	0.052948	0.052948	1.013332	0.1035	-0.3015	0.1335	0	14	1035	1
2026-02-11	16:06:17.050	1.26	-0.56	0.245	0.053924	0.05002	1.014552	0.1065	-0.3015	0.132	0	14	1035	1
2026-02-11	16:06:17.070	1.26	-0.56	0.28	0.054412	0.05124	1.009672	0.105	-0.3015	0.1425	0	14	1035	1
2026-02-11	16:06:17.090	1.26	-0.56	0.28	0.056364	0.054656	1.011624	0.105	-0.3015	0.1455	0	14	1035	1
2026-02-11	16:06:17.110	1.26	-0.525	0.245	0.053924	0.055876	1.014308	0.105	-0.303	0.141	0	14	1035	1
2026-02-11	16:06:17.130	1.26	-0.595	0.28	0.056364	0.051484	1.012356	0.105	-0.303	0.138	0	14	1035	1
2026-02-11	16:06:17.150	1.225	-0.595	0.28	0.05246	0.05124	1.011624	0.1035	-0.2985	0.138	0	14	1035	1
2026-02-11	16:06:17.170	1.295	-0.56	0.245	0.054168	0.054168	1.012356	0.102	-0.294	0.138	0	14	1035	1
2026-02-11	16:06:17.190	1.26	-0.525	0.28	0.058316	0.055388	1.017236	0.1035	-0.291	0.1395	0	14	1035	1
2026-02-11	16:06:17.210	1.225	-0.56	0.28	0.054656	0.051972	1.010648	0.111	-0.294	0.141	0	12	1035	1
2026-02-11	16:06:17.230	1.26	-0.56	0.28	0.05246	0.051972	1.010648	0.108	-0.303	0.1425	0	12	1035	1
2026-02-11	16:06:17.250	1.295	-0.56	0.245	0.052948	0.051728	1.013088	0.1005	-0.303	0.1395	0	12	1035	1
2026-02-11	16:06:17.270	1.26	-0.56	0.28	0.0549	0.056852	1.015284	0.102	-0.294	0.135	0	12	1035	1
2026-02-11	16:06:17.290	1.26	-0.525	0.28	0.055144	0.055632	1.015772	0.1095	-0.3075	0.1395	0	12	1035	1
2026-02-11	16:06:17.310	1.26	-0.525	0.28	0.051484	0.05246	1.011136	0.1095	-0.3075	0.1395	0	12	1035	1
2026-02-11	16:06:17.330	1.26	-0.595	0.28	0.053924	0.055632	1.015284	0.102	-0.3015	0.1515	0	12	1035	1
2026-02-11	16:06:17.350	1.225	-0.56	0.245	0.054412	0.053192	1.010648	0.1005	-0.297	0.1365	0	12	1035	1
2026-02-11	16:06:17.370	1.225	-0.56	0.28	0.05124	0.05002	1.010404	0.111	-0.2955	0.141	0	12	1035	1
2026-02-11	16:06:17.390	1.295	-0.525	0.245	0.054656	0.051484	1.010648	0.1095	-0.2985	0.141	0	12	1035	1
2026-02-11	16:06:17.410	1.19	-0.525	0.28	0.054412	0.051972	1.012844	0.1035	-0.3	0.1365	0	11	1035	1
2026-02-11	16:06:17.430	1.26	-0.525	0.28	0.0549	0.053924	1.013088	0.1095	-0.2955	0.1455	0	11	1035	1
2026-02-11	16:06:17.450	1.225	-0.595	0.245	0.052704	0.05368	1.012844	0.108	-0.3	0.138	0	11	1035	1
2026-02-11	16:06:17.470	1.26	-0.56	0.28	0.05734	0.054656	1.010892	0.111	-0.3045	0.1335	0	11	1035	1
2026-02-11	16:06:17.490	1.225	-0.56	0.21	0.053436	0.05368	1.011136	0.114	-0.3	0.1335	0	11	1035	1
2026-02-11	16:06:17.510	1.26	-0.56	0.245	0.054168	0.049776	1.013576	0.1125	-0.303	0.1455	0	11	1035	1
2026-02-11	16:06:17.530	1.225	-0.56	0.245	0.0549	0.055632	1.0126	0.1065	-0.3	0.141	0	11	1035	1
2026-02-11	16:06:17.550	1.26	-0.595	0.245	0.05734	0.0549	1.011624	0.105	-0.2925	0.1425	0	11	1035	1
2026-02-11	16:06:17.570	1.26	-0.56	0.315	0.056852	0.051728	1.009428	0.111	-0.3	0.1395	0	11	1035	1
2026-02-11	16:06:17.590	1.295	-0.56	0.245	0.053924	0.052948	1.014308	0.111	-0.3	0.1395	0	11	1035	1
2026-02-11	16:06:17.610	1.295	-0.56	0.245	0.0549	0.051484	1.012356	0.111	-0.3	0.1395	0	10	1035	1
2026-02-11	16:06:17.630	1.19	-0.665	0.245	0.05368	0.050752	1.010648	0.111	-0.297	0.144	0	10	1035	1
2026-02-11	16:06:17.650	1.26	-0.56	0.28	0.052704	0.050508	1.009916	0.108	-0.294	0.1485	0	10	1035	1
2026-02-11	16:06:17.670	1.295	-0.455	0.28	0.05734	0.050508	1.014308	0.1065	-0.297	0.147	0	10	1035	1
2026-02-11	16:06:17.690	1.26	-0.56	0.28	0.050996	0.055876	1.010892	0.108	-0.297	0.141	0	10	1035	1
2026-02-11	16:06:17.710	1.26	-0.525	0.315	0.053924	0.053436	1.011868	0.105	-0.297	0.135	0	10	1035	1
2026-02-11	16:06:17.730	1.19	-0.595	0.28	0.0549	0.052704	1.013088	0.102	-0.3	0.138	0	10	1035	1
2026-02-11	16:06:17.750	1.26	-0.56	0.245	0.050996	0.058072	1.011136	0.1035	-0.3045	0.147	0	10	1035	1
2026-02-11	16:06:17.770	1.225	-0.525	0.245	0.056364	0.055632	1.014064	0.105	-0.306	0.144	0	10	1035	1
2026-02-11	16:06:17.790	1.19	-0.56	0.245	0.050264	0.05246	1.01138	0.108	-0.303	0.138	0	10	1035	1
2026-02-11	16:06:17.810	1.225	-0.525	0.21	0.05368	0.052704	1.014064	0.108	-0.3045	0.141	0	8	1035	1
2026-02-11	16:06:17.830	1.225	-0.56	0.245	0.055632	0.054168	1.010892	0.1065	-0.297	0.141	0	8	1035	1
2026-02-11	16:06:17.850	1.295	-0.525	0.245	0.053192	0.050752	1.013332	0.1065	-0.297	0.141	0	8	1035	1
2026-02-11	16:06:17.870	1.26	-0.56	0.28	0.055144	0.05246	1.014308	0.1065	-0.3	0.1425	0	8	1035	1
2026-02-11	16:06:17.890	1.295	-0.525	0.315	0.051728	0.05246	1.012844	0.105	-0.3	0.1395	0	8	1035	1
2026-02-11	16:06:17.910	1.26	-0.56	0.28	0.051972	0.055876	1.012112	0.105	-0.3	0.141	0	8	1035	1
2026-02-11	16:06:17.930	1.225	-0.525	0.28	0.057828	0.05246	1.015772	0.108	-0.303	0.141	0	8	1035	1
2026-02-11	16:06:17.950	1.26	-0.56	0.28	0.055388	0.054168	1.011624	0.105	-0.3045	0.1395	0	8	1035	1
2026-02-11	16:06:17.970	1.26	-0.56	0.315	0.049044	0.050508	1.009184	0.1035	-0.3015	0.1395	0	8	1035	1
2026-02-11	16:06:17.990	1.33	-0.525	0.28	0.054412	0.051728	1.016504	0.1005	-0.3	0.1425	0	8	1035	1
2026-02-11	16:06:18.010	1.225	-0.595	0.315	0.050508	0.051972	1.014552	0.102	-0.2955	0.1455	0	8	1035	1
2026-02-11	16:06:18.030	1.225	-0.63	0.245	0.055388	0.05124	1.009428	0.105	-0.2985	0.1425	0	8	1035	1
2026-02-11	16:06:18.050	1.225	-0.56	0.245	0.052704	0.052948	1.009428	0.099	-0.303	0.1395	0	8	1035	1
2026-02-11	16:06:18.070	1.26	-0.525	0.28	0.051484	0.053924	1.014308	0.1035	-0.2985	0.141	0	8	1035	1
2026-02-11	16:06:18.090	1.19	-0.595	0.28	0.054412	0.05002	1.008696	0.108	-0.2955	0.144	0	8	1035	1
2026-02-11	16:06:18.110	1.225	-0.525	0.245	0.051484	0.052216	1.012844	0.105	-0.294	0.141	0	8	1035	1
2026-02-11	16:06:18.130	1.225	-0.595	0.28	0.056608	0.050508	1.011868	0.102	-0.297	0.138	0	8	1035	1
2026-02-11	16:06:18.150	1.26	-0.56	0.28	0.055144	0.050996	1.009916	0.1035	-0.3	0.1395	0	8	1035	1
2026-02-11	16:06:18.170	1.225	-0.525	0.245	0.05612	0.049288	1.01138	0.1035	-0.3015	0.1395	0	8	1035	1
2026-02-11	16:06:18.190	1.225	-0.525	0.245	0.053436	0.051728	1.014308	0.1065	-0.2985	0.1395	0	8	1035	1
2026-02-11	16:06:18.210	1.26	-0.595	0.28	0.053192	0.053924	1.010648	0.1095	-0.3	0.1395	0	7	1035	1
2026-02-11	16:06:18.230	1.26	-0.56	0.28	0.054168	0.051484	1.0126	0.1065	-0.3	0.138	0	7	1035	1
2026-02-11	16:06:18.250	1.225	-0.595	0.28	0.049776	0.056852	1.011136	0.105	-0.3	0.138	0	7	1035	1
2026-02-11	16:06:18.270	1.295	-0.49	0.28	0.050996	0.055144	1.012356	0.1035	-0.3	0.141	0	7	1035	1
2026-02-11	16:06:18.290	1.225	-0.595	0.245	0.051484	0.051484	1.013088	0.105	-0.294	0.1455	0	7	1035	1
2026-02-11	16:06:18.310	1.295	-0.56	0.245	0.059536	0.05612	1.009672	0.1095	-0.2985	0.147	0	7	1035	1
2026-02-11	16:06:18.330	1.19	-0.56	0.245	0.052216	0.056608	1.014308	0.1125	-0.303	0.1485	0	7	1035	1
2026-02-11	16:06:18.350	1.19	-0.56	0.28	0.05612	0.051484	1.010404	0.1125	-0.303	0.1485	0	7	1035	1
2026-02-11	16:06:18.370	1.33	-0.49	0.28	0.053436	0.056608	1.010892	0.1035	-0.291	0.1425	0	7	1035	1
2026-02-11	16:06:18.390	1.26	-0.525	0.28	0.055632	0.050508	1.011624	0.1035	-0.291	0.1425	0	7	1035	1
2026-02-11	16:06:18.410	1.26	-0.525	0.28	0.053192	0.049776	1.013088	0.1095	-0.303	0.1365	0	6	1035	1
2026-02-11	16:06:18.430	1.225	-0.56	0.28	0.05368	0.054168	1.012112	0.108	-0.3	0.138	0	6	1035	1
2026-02-11	16:06:18.450	1.225	-0.525	0.28	0.0549	0.050264	1.011624	0.1035	-0.294	0.1425	0	6	1035	1
2026-02-11	16:06:18.470	1.26	-0.525	0.245	0.053436	0.052948	1.012112	0.102	-0.297	0.138	0	6	1035	1
2026-02-11	16:06:18.490	1.225	-0.525	0.28	0.053924	0.052948	1.01382	0.108	-0.3105	0.1395	0	6	1035	1
2026-02-11	16:06:18.510	1.225	-0.595	0.245	0.053192	0.051972	1.009672	0.105	-0.2955	0.1365	0	6	1035	1
2026-02-11	16:06:18.530	1.26	-0.525	0.28	0.0549	0.05246	1.010892	0.108	-0.2955	0.1395	0	6	1035	1
2026-02-11	16:06:18.550	1.225	-0.525	0.245	0.055144	0.054412	1.012356	0.108	-0.3015	0.135	0	6	1035	1
2026-02-11	16:06:18.570	1.225	-0.56	0.245	0.053192	0.055632	1.009184	0.1035	-0.2985	0.1335	0	6	1035	1
2026-02-11	16:06:18.590	1.26	-0.525	0.28	0.05368	0.053924	1.014308	0.1095	-0.3045	0.1365	0	6	1035	1
2026-02-11	16:06:18.610	1.225	-0.595	0.28	0.053924	0.055632	1.010892	0.105	-0.303	0.1365	0	6	1035	1
2026-02-11	16:06:18.630	1.26	-0.56	0.28	0.0549	0.054656	1.011136	0.1035	-0.3015	0.1425	0	6	1035	1
2026-02-11	16:06:18.650	1.26	-0.49	0.28	0.055876	0.052216	1.015284	0.102	-0.3075	0.1335	0	6	1035	1
2026-02-11	16:06:18.670	1.19	-0.56	0.28	0.0488	0.050508	1.012112	0.102	-0.3	0.15	0	6	1035	1
2026-02-11	16:06:18.690	1.19	-0.595	0.245	0.0549	0.048312	1.007232	0.1035	-0.297	0.144	0	6	1035	1
2026-02-11	16:06:18.710	1.365	-0.49	0.315	0.054412	0.050996	1.015772	0.111	-0.2985	0.1395	0	6	1035	1
2026-02-11	16:06:18.730	1.26	-0.595	0.315	0.054656	0.054168	1.011868	0.0975	-0.303	0.1365	0	6	1035	1
2026-02-11	16:06:18.750	1.19	-0.525	0.28	0.050508	0.050508	1.010892	0.105	-0.3	0.138	0	6	1035	1
2026-02-11	16:06:18.770	1.26	-0.525	0.28	0.052948	0.052704	1.01626	0.1035	-0.306	0.147	0	6	1035	1
2026-02-11	16:06:18.790	1.295	-0.56	0.21	0.057096	0.050264	1.014064	0.099	-0.306	0.138	0	6	1035	1
2026-02-11	16:06:18.810	1.225	-0.525	0.28	0.05246	0.054412	1.009672	0.1065	-0.2925	0.1425	0	5	1035	1
2026-02-11	16:06:18.830	1.295	-0.49	0.245	0.050996	0.054412	1.014064	0.1065	-0.2925	0.1425	0	5	1035	1
2026-02-11	16:06:18.850	1.295	-0.525	0.245	0.054656	0.053924	1.01748	0.1065	-0.2925	0.1425	0	5	1035	1
2026-02-11	16:06:18.870	1.225	-0.63	0.28	0.050752	0.048556	1.006988	0.102	-0.291	0.144	0	5	1035	1
2026-02-11	16:06:18.890	1.225	-0.56	0.245	0.051972	0.055144	1.011868	0.1005	-0.2955	0.144	0	5	1035	1
2026-02-11	16:06:18.910	1.26	-0.525	0.28	0.054168	0.053192	1.015528	0.102	-0.297	0.138	0	5	1035	1
2026-02-11	16:06:18.930	1.26	-0.56	0.28	0.0549	0.053192	1.013332	0.1005	-0.297	0.1395	0	5	1035	1
2026-02-11	16:06:18.950	1.26	-0.595	0.28	0.055876	0.05246	1.01016	0.102	-0.303	0.1425	0	5	1035	1
2026-02-11	16:06:18.970	1.19	-0.56	0.28	0.053436	0.05368	1.011136	0.102	-0.3	0.1425	0	5	1035	1
2026-02-11	16:06:18.990	1.295	-0.525	0.245	0.051728	0.051972	1.013088	0.102	-0.2985	0.141	0	5	1035	1
2026-02-11	16:06:19.010	1.295	-0.49	0.245	0.055632	0.054412	1.012356	0.108	-0.2985	0.138	0	5	1035	1
2026-02-11	16:06:19.030	1.26	-0.56	0.245	0.055144	0.0488	1.012844	0.1095	-0.3015	0.141	0	5	1035	1
2026-02-11	16:06:19.050	1.225	-0.595	0.245	0.055876	0.05002	1.011624	0.1065	-0.306	0.1425	0	5	1035	1
2026-02-11	16:06:19.070	1.26	-0.595	0.28	0.055388	0.054168	1.01138	0.1065	-0.3045	0.1425	0	5	1035	1
2026-02-11	16:06:19.090	1.295	-0.49	0.245	0.0549	0.055144	1.014308	0.1065	-0.3	0.141	0	5	1035	1
2026-02-11	16:06:19.110	1.19	-0.56	0.315	0.050508	0.050996	1.014064	0.1065	-0.2985	0.138	0	5	1035	1
2026-02-11	16:06:19.130	1.19	-0.63	0.245	0.051728	0.050264	1.009916	0.1035	-0.297	0.141	0	5	1035	1
2026-02-11	16:06:19.150	1.26	-0.525	0.28	0.056608	0.05246	1.0126	0.102	-0.297	0.141	0	5	1035	1
2026-02-11	16:06:19.170	1.26	-0.56	0.245	0.056364	0.052704	1.012356	0.105	-0.2985	0.1425	0	5	1035	1
2026-02-11	16:06:19.190	1.295	-0.56	0.21	0.052704	0.05002	1.011136	0.105	-0.2985	0.1425	0	5	1035	1
2026-02-11	16:06:19.210	1.19	-0.595	0.245	0.053436	0.05124	1.009428	0.105	-0.3	0.1395	0	4	1035	1
2026-02-11	16:06:19.230	1.33	-0.49	0.28	0.055632	0.05246	1.014552	0.1065	-0.2985	0.141	0	4	1035	1
2026-02-11	16:06:19.250	1.19	-0.595	0.245	0.053924	0.050508	1.011868	0.105	-0.297	0.1425	0	4	1035	1
2026-02-11	16:06:19.270	1.33	-0.455	0.21	0.052216	0.054656	1.015528	0.1035	-0.2985	0.1425	0	4	1035	1
2026-02-11	16:06:19.290	1.155	-0.56	0.28	0.05002	0.053192	1.011868	0.102	-0.2985	0.1395	0	4	1035	1
2026-02-11	16:06:19.310	1.26	-0.595	0.28	0.049288	0.05246	1.010404	0.1035	-0.297	0.1365	0	4	1035	1
2026-02-11	16:06:19.330	1.26	-0.595	0.245	0.056852	0.055388	1.009184	0.108	-0.2985	0.1425	0	4	1035	1
2026-02-11	16:06:19.350	1.225	-0.525	0.28	0.05368	0.054412	1.014308	0.111	-0.294	0.15	0	4	1035	1
2026-02-11	16:06:19.370	1.225	-0.595	0.245	0.052948	0.050996	1.009672	0.1065	-0.2985	0.1455	0	4	1035	1
2026-02-11	16:06:19.390	1.225	-0.595	0.245	0.055144	0.050264	1.011136	0.102	-0.2985	0.141	0	4	1035	1
2026-02-11	16:06:19.410	1.26	-0.525	0.245	0.052704	0.054168	1.013332	0.1035	-0.2925	0.144	0	4	1035	1
2026-02-11	16:06:19.430	1.225	-0.525	0.245	0.05368	0.049044	1.012356	0.114	-0.2985	0.132	0	4	1035	1
2026-02-11	16:06:19.450	1.26	-0.56	0.245	0.053436	0.054412	1.013088	0.1005	-0.306	0.135	0	4	1035	1
2026-02-11	16:06:19.470	1.26	-0.595	0.28	0.054168	0.053924	1.011624	0.1005	-0.306	0.135	0	4	1035	1
2026-02-11	16:06:19.490	1.26	-0.595	0.21	0.057828	0.05368	1.012844	0.114	-0.2985	0.144	0	4	1035	1
2026-02-11	16:06:19.510	1.225	-0.56	0.28	0.058316	0.055632	1.010404	0.108	-0.297	0.129	0	4	1035	1
2026-02-11	16:06:19.530	1.295	-0.525	0.28	0.053924	0.054412	1.014308	0.105	-0.3	0.138	0	4	1035	1
2026-02-11	16:06:19.550	1.295	-0.49	0.245	0.050996	0.056608	1.015772	0.105	-0.2985	0.144	0	4	1035	1
2026-02-11	16:06:19.570	1.155	-0.735	0.28	0.049532	0.055876	1.009184	0.105	-0.2925	0.1425	0	4	1035	1
2026-02-11	16:06:19.590	1.33	-0.49	0.245	0.05734	0.055144	1.010892	0.1005	-0.3015	0.138	0	4	1035	1
2026-02-11	16:06:19.610	1.19	-0.595	0.28	0.057584	0.052704	1.012356	0.111	-0.3	0.1425	0	4	1035	1
2026-02-11	16:06:19.630	1.26	-0.525	0.245	0.056608	0.05734	1.010404	0.105	-0.3045	0.1365	0	4	1035	1
2026-02-11	16:06:19.650	1.225	-0.525	0.21	0.05246	0.051728	1.015772	0.117	-0.294	0.1395	0	4	1035	1
2026-02-11	16:06:19.670	1.26	-0.595	0.28	0.057096	0.052216	1.015528	0.108	-0.3045	0.141	0	4	1035	1
2026-02-11	16:06:19.690	1.26	-0.595	0.245	0.054168	0.054168	1.011136	0.1065	-0.3075	0.1365	0	4	1035	1
2026-02-11	16:06:19.710	1.19	-0.56	0.245	0.051728	0.053192	1.008208	0.105	-0.3045	0.1425	0	4	1035	1
2026-02-11	16:06:19.730	1.295	-0.42	0.21	0.053436	0.056364	1.016748	0.1095	-0.3045	0.1425	0	4	1035	1
2026-02-11	16:06:19.750	1.19	-0.56	0.28	0.052704	0.052216	1.012356	0.1065	-0.3015	0.1395	0	4	1035	1
2026-02-11	16:06:19.770	1.225	-0.595	0.28	0.054656	0.05246	1.009916	0.1065	-0.3015	0.1395	0	4	1035	1
2026-02-11	16:06:19.790	1.26	-0.525	0.28	0.055388	0.056364	1.014308	0.1065	-0.3	0.144	0	4	1035	1
2026-02-11	16:06:19.810	1.225	-0.56	0.28	0.052704	0.054412	1.0126	0.111	-0.3075	0.144	0	4	1035	1
2026-02-11	16:06:19.830	1.33	-0.49	0.28	0.051728	0.055632	1.013576	0.105	-0.291	0.1365	0	4	1035	1
2026-02-11	16:06:19.850	1.19	-0.56	0.28	0.053436	0.055632	1.0126	0.1035	-0.303	0.1365	0	4	1035	1
2026-02-11	16:06:19.870	1.26	-0.525	0.245	0.05124	0.051972	1.012844	0.1035	-0.2985	0.147	0	4	1035	1
2026-02-11	16:06:19.890	1.225	-0.56	0.245	0.054412	0.0549	1.0126	0.105	-0.294	0.144	0	4	1035	1
2026-02-11	16:06:19.910	1.295	-0.525	0.28	0.053924	0.054412	1.01504	0.1095	-0.2985	0.141	0	4	1035	1
2026-02-11	16:06:19.930	1.225	-0.595	0.245	0.05124	0.055388	1.01382	0.1065	-0.303	0.132	0	4	1035	1
2026-02-11	16:06:19.950	1.26	-0.595	0.28	0.054412	0.051484	1.011136	0.111	-0.2985	0.1395	0	4	1035	1
2026-02-11	16:06:19.970	1.295	-0.56	0.245	0.053436	0.050508	1.01016	0.105	-0.306	0.1425	0	4	1035	1
2026-02-11	16:06:19.990	1.26	-0.525	0.28	0.051728	0.055632	1.01138	0.1035	-0.2925	0.138	0	4	1035	1
2026-02-11	16:06:20.010	1.225	-0.49	0.245	0.052704	0.055144	1.010404	0.1035	-0.2925	0.138	0	4	1035	1
2026-02-11	16:06:20.030	1.225	-0.56	0.245	0.054412	0.050264	1.012844	0.1035	-0.2925	0.138	0	4	1035	1
2026-02-11	16:06:20.050	1.225	-0.56	0.28	0.051728	0.052216	1.012112	0.102	-0.2925	0.1425	0	4	1035	1
2026-02-11	16:06:20.070	1.26	-0.525	0.245	0.056852	0.052948	1.012112	0.1035	-0.2925	0.1425	0	4	1035	1
2026-02-11	16:06:20.090	1.225	-0.56	0.28	0.055388	0.05612	1.008208	0.102	-0.297	0.138	0	4	1035	1
2026-02-11	16:06:20.110	1.33	-0.525	0.245	0.054412	0.051484	1.0126	0.1005	-0.3	0.141	0	4	1035	1
2026-02-11	16:06:20.130	1.26	-0.525	0.245	0.054656	0.055144	1.015284	0.1035	-0.297	0.144	0	4	1035	1
2026-02-11	16:06:20.150	1.225	-0.595	0.245	0.054168	0.05246	1.011868	0.1035	-0.2985	0.1395	0	4	1035	1
2026-02-11	16:06:20.170	1.26	-0.525	0.28	0.0549	0.050996	1.01382	0.108	-0.3015	0.135	0	4	1035	1
2026-02-11	16:06:20.190	1.19	-0.56	0.245	0.053192	0.050264	1.012356	0.108	-0.303	0.1395	0	4	1035	1
2026-02-11	16:06:20.210	1.26	-0.49	0.245	0.055144	0.05368	1.014308	0.102	-0.2985	0.1395	0	3	1035	1
2026-02-11	16:06:20.230	1.225	-0.525	0.245	0.053436	0.05368	1.014064	0.102	-0.2985	0.135	0	3	1035	1
2026-02-11	16:06:20.250	1.26	-0.56	0.245	0.053436	0.052948	1.015528	0.1035	-0.3	0.141	0	3	1035	1
2026-02-11	16:06:20.270	1.26	-0.595	0.245	0.05124	0.050996	1.010404	0.108	-0.3015	0.1455	0	3	1035	1
2026-02-11	16:06:20.290	1.26	-0.56	0.28	0.054412	0.050752	1.010892	0.108	-0.303	0.1395	0	3	1035	1
2026-02-11	16:06:20.310	1.26	-0.525	0.245	0.053436	0.053924	1.012844	0.1065	-0.303	0.1365	0	3	1035	1
2026-02-11	16:06:20.330	1.26	-0.56	0.28	0.055144	0.05124	1.012112	0.105	-0.3015	0.1365	0	3	1035	1
2026-02-11	16:06:20.350	1.26	-0.595	0.245	0.05734	0.051972	1.012356	0.1065	-0.2985	0.141	0	3	1035	1
2026-02-11	16:06:20.370	1.225	-0.595	0.28	0.055876	0.055876	1.010404	0.105	-0.2985	0.144	0	3	1035	1
2026-02-11	16:06:20.390	1.225	-0.56	0.28	0.056608	0.057096	1.011868	0.1065	-0.2985	0.141	0	3	1035	1
2026-02-11	16:06:20.410	1.26	-0.56	0.28	0.052216	0.050996	1.012356	0.108	-0.3015	0.1395	0	3	1035	1
2026-02-11	16:06:20.430	1.225	-0.56	0.28	0.049044	0.051728	1.00894	0.102	-0.303	0.138	0	3	1035	1
2026-02-11	16:06:20.450	1.225	-0.63	0.28	0.055876	0.053436	1.011136	0.1035	-0.3	0.141	0	3	1035	1
2026-02-11	16:06:20.470	1.365	-0.42	0.245	0.054656	0.055388	1.019188	0.108	-0.2985	0.1455	0	3	1035	1
2026-02-11	16:06:20.490	1.12	-0.7	0.315	0.053924	0.053436	1.00772	0.108	-0.2985	0.1455	0	3	1035	1
2026-02-11	16:06:20.510	1.4	-0.49	0.245	0.054656	0.053924	1.012356	0.1065	-0.306	0.1425	0	3	1035	1
2026-02-11	16:06:20.530	1.365	-0.49	0.28	0.053436	0.052704	1.014308	0.1065	-0.306	0.1425	0	3	1035	1
2026-02-11	16:06:20.550	1.19	-0.63	0.245	0.0549	0.051972	1.01016	0.108	-0.3015	0.1455	0	3	1035	1
2026-02-11	16:06:20.570	1.295	-0.525	0.28	0.053924	0.05368	1.012112	0.1035	-0.2985	0.1425	0	3	1035	1
2026-02-11	16:06:20.590	1.155	-0.595	0.245	0.049532	0.052216	1.011136	0.105	-0.2985	0.141	0	3	1035	1
2026-02-11	16:06:20.610	1.365	-0.49	0.21	0.054168	0.055144	1.017236	0.108	-0.3075	0.141	0	3	1035	1
2026-02-11	16:06:20.630	1.155	-0.735	0.315	0.054168	0.049288	1.006012	0.1095	-0.3015	0.1395	0	3	1035	1
2026-02-11	16:06:20.650	1.33	-0.525	0.28	0.055876	0.05612	1.010892	0.1065	-0.2985	0.141	0	3	1035	1
2026-02-11	16:06:20.670	1.19	-0.56	0.315	0.056608	0.053436	1.01504	0.096	-0.294	0.141	0	3	1035	1
2026-02-11	16:06:20.690	1.33	-0.595	0.245	0.055388	0.053192	1.013332	0.0975	-0.3015	0.138	0	3	1035	1
2026-02-11	16:06:20.710	1.295	-0.56	0.28	0.052948	0.051728	1.007964	0.1065	-0.297	0.1395	0	3	1035	1
2026-02-11	16:06:20.730	1.19	-0.525	0.315	0.055144	0.053436	1.013088	0.1095	-0.3015	0.1425	0	3	1035	1
2026-02-11	16:06:20.750	1.225	-0.63	0.28	0.058072	0.051972	1.009428	0.1005	-0.2985	0.1425	0	3	1035	1
2026-02-11	16:06:20.770	1.26	-0.525	0.28	0.055632	0.050264	1.01138	0.0945	-0.2895	0.141	0	3	1035	1
2026-02-11	16:06:20.790	1.26	-0.525	0.245	0.049532	0.051484	1.01382	0.1095	-0.3	0.1455	0	3	1035	1
2026-02-11	16:06:20.810	1.225	-0.56	0.245	0.056852	0.05368	1.012112	0.1035	-0.3015	0.1425	0	3	1035	1
2026-02-11	16:06:20.830	1.225	-0.56	0.245	0.056364	0.053192	1.010404	0.1005	-0.297	0.141	0	3	1035	1
2026-02-11	16:06:20.850	1.295	-0.49	0.245	0.054168	0.055632	1.014308	0.105	-0.3	0.135	0	3	1035	1
2026-02-11	16:06:20.870	1.225	-0.595	0.28	0.054168	0.050752	1.0126	0.108	-0.2895	0.1425	0	3	1035	1
2026-02-11	16:06:20.890	1.26	-0.525	0.245	0.051728	0.05612	1.01016	0.111	-0.297	0.1455	0	3	1035	1
2026-02-11	16:06:20.910	1.225	-0.525	0.28	0.055144	0.053924	1.013576	0.1035	-0.3015	0.1455	0	3	1035	1
2026-02-11	16:06:20.930	1.225	-0.525	0.245	0.050264	0.051972	1.01138	0.1065	-0.3	0.1395	0	3	1035	1
2026-02-11	16:06:20.950	1.26	-0.56	0.245	0.053436	0.051972	1.010404	0.1035	-0.297	0.1425	0	3	1035	1
2026-02-11	16:06:20.970	1.26	-0.525	0.245	0.053192	0.053192	1.013088	0.102	-0.2925	0.1425	0	3	1035	1
2026-02-11	16:06:20.990	1.225	-0.525	0.245	0.053436	0.051728	1.014552	0.105	-0.2925	0.1395	0	3	1035	1
2026-02-11	16:06:21.010	1.26	-0.525	0.28	0.0549	0.051728	1.0126	0.1065	-0.297	0.141	0	3	1035	1
2026-02-11	16:06:21.030	1.295	-0.525	0.28	0.053924	0.051728	1.013332	0.099	-0.303	0.132	0	3	1035	1
2026-02-11	16:06:21.050	1.26	-0.56	0.28	0.054168	0.055876	1.0126	0.1005	-0.2955	0.1365	0	3	1035	1
2026-02-11	16:06:21.070	1.225	-0.56	0.245	0.053436	0.05124	1.010648	0.1065	-0.3015	0.141	0	3	1035	1
2026-02-11	16:06:21.090	1.26	-0.525	0.28	0.050996	0.050752	1.009672	0.1035	-0.2985	0.1395	0	3	1035	1
2026-02-11	16:06:21.110	1.225	-0.56	0.245	0.053924	0.050996	1.012356	0.1035	-0.3075	0.138	0	3	1035	1
2026-02-11	16:06:21.130	1.26	-0.56	0.245	0.05124	0.054412	1.010892	0.1065	-0.2985	0.138	0	3	1035	1
2026-02-11	16:06:21.150	1.225	-0.525	0.28	0.054412	0.054656	1.013576	0.1035	-0.2955	0.1395	0	3	1035	1
2026-02-11	16:06:21.170	1.26	-0.56	0.245	0.051484	0.052948	1.01382	0.1065	-0.3015	0.141	0	3	1035	1
2026-02-11	16:06:21.190	1.26	-0.56	0.28	0.05368	0.051484	1.014064	0.105	-0.297	0.1425	0	3	1035	1
2026-02-11	16:06:21.210	1.26	-0.56	0.245	0.054656	0.054168	1.015772	0.105	-0.2925	0.1425	0	3	1035	1
2026-02-11	16:06:21.230	1.26	-0.595	0.245	0.052704	0.05368	1.009672	0.105	-0.2925	0.1425	0	3	1035	1
2026-02-11	16:06:21.250	1.225	-0.56	0.245	0.05246	0.05124	1.012112	0.105	-0.2925	0.1425	0	3	1035	1
2026-02-11	16:06:21.270	1.26	-0.56	0.28	0.056852	0.053436	1.011136	0.105	-0.297	0.1365	0	3	1035	1
2026-02-11	16:06:21.290	1.26	-0.56	0.28	0.052948	0.050264	1.01138	0.1035	-0.3015	0.1395	0	3	1035	1
2026-02-11	16:06:21.310	1.26	-0.525	0.245	0.053924	0.049044	1.014796	0.108	-0.3	0.1395	0	3	1035	1
2026-02-11	16:06:21.330	1.225	-0.595	0.28	0.054412	0.050752	1.014064	0.108	-0.303	0.138	0	3	1035	1
2026-02-11	16:06:21.350	1.26	-0.56	0.28	0.053924	0.052948	1.010892	0.105	-0.306	0.1395	0	3	1035	1
2026-02-11	16:06:21.370	1.26	-0.56	0.245	0.050996	0.051728	1.012844	0.1035	-0.3015	0.141	0	3	1035	1
2026-02-11	16:06:21.390	1.225	-0.56	0.245	0.050996	0.050752	1.013576	0.1035	-0.2985	0.144	0	3	1035	1
2026-02-11	16:06:21.410	1.225	-0.595	0.245	0.053192	0.050508	1.010892	0.1035	-0.297	0.138	0	3	1035	1
2026-02-11	16:06:21.430	1.26	-0.525	0.245	0.051484	0.05734	1.013088	0.1035	-0.3015	0.1365	0	3	1035	1
2026-02-11	16:06:21.450	1.26	-0.56	0.28	0.055388	0.051972	1.010404	0.1095	-0.3075	0.1395	0	3	1035	1
2026-02-11	16:06:21.470	1.225	-0.56	0.245	0.053924	0.048068	1.013088	0.111	-0.3015	0.1425	0	3	1035	1
2026-02-11	16:06:21.490	1.225	-0.56	0.315	0.056364	0.05124	1.01138	0.105	-0.2985	0.144	0	3	1035	1
2026-02-11	16:06:21.510	1.225	-0.595	0.245	0.054656	0.054412	1.010892	0.102	-0.2985	0.1425	0	3	1035	1
2026-02-11	16:06:21.530	1.26	-0.56	0.28	0.05246	0.051484	1.0126	0.105	-0.2985	0.141	0	3	1035	1
2026-02-11	16:06:21.550	1.19	-0.525	0.245	0.053436	0.05124	1.008452	0.108	-0.3015	0.1395	0	3	1035	1
2026-02-11	16:06:21.570	1.26	-0.525	0.245	0.051972	0.052704	1.014064	0.108	-0.3015	0.1395	0	3	1035	1
2026-02-11	16:06:21.590	1.225	-0.56	0.245	0.052704	0.051484	1.011868	0.108	-0.3015	0.1395	0	3	1035	1
2026-02-11	16:06:21.610	1.225	-0.63	0.28	0.049776	0.05368	1.011136	0.111	-0.303	0.1395	0	3	1035	1
2026-02-11	16:06:21.630	1.26	-0.56	0.21	0.053192	0.05246	1.013088	0.105	-0.2865	0.1305	0	3	1035	1
2026-02-11	16:06:21.650	1.225	-0.56	0.245	0.052216	0.051728	1.012112	0.099	-0.3015	0.1395	0	3	1035	1
2026-02-11	16:06:21.670	1.26	-0.56	0.245	0.054656	0.053924	1.012844	0.1005	-0.297	0.141	0	3	1035	1
2026-02-11	16:06:21.690	1.19	-0.56	0.28	0.05368	0.053192	1.010892	0.108	-0.3	0.141	0	3	1035	1
2026-02-11	16:06:21.710	1.295	-0.525	0.245	0.058316	0.053924	1.013576	0.108	-0.303	0.138	0	3	1035	1
2026-02-11	16:06:21.730	1.225	-0.525	0.245	0.052216	0.049044	1.0126	0.1095	-0.2955	0.1365	0	3	1035	1
2026-02-11	16:06:21.750	1.26	-0.56	0.28	0.049288	0.05124	1.014064	0.102	-0.2955	0.1425	0	3	1035	1
2026-02-11	16:06:21.770	1.225	-0.56	0.245	0.05246	0.051972	1.01138	0.1005	-0.2955	0.141	0	3	1035	1
2026-02-11	16:06:21.790	1.26	-0.56	0.28	0.054412	0.0549	1.012112	0.102	-0.3015	0.1365	0	3	1035	1
2026-02-11	16:06:21.810	1.26	-0.56	0.28	0.053436	0.051972	1.012844	0.1065	-0.294	0.138	0	3	1035	1
2026-02-11	16:06:21.830	1.225	-0.56	0.245	0.052948	0.05246	1.011624	0.1065	-0.2985	0.1455	0	3	1035	1
2026-02-11	16:06:21.850	1.26	-0.525	0.28	0.054412	0.053924	1.014308	0.1065	-0.3	0.1485	0	3	1035	1
2026-02-11	16:06:21.870	1.295	-0.525	0.245	0.056364	0.05612	1.015528	0.1125	-0.288	0.141	0	3	1035	1
2026-02-11	16:06:21.890	1.225	-0.595	0.28	0.054412	0.049776	1.013088	0.105	-0.309	0.1455	0	3	1035	1
2026-02-11	16:06:21.910	1.19	-0.595	0.245	0.052704	0.050752	1.010648	0.1035	-0.2955	0.141	0	3	1035	1
2026-02-11	16:06:21.930	1.26	-0.525	0.28	0.055144	0.052704	1.010648	0.1005	-0.309	0.1395	0	3	1035	1
2026-02-11	16:06:21.950	1.26	-0.56	0.28	0.05246	0.050264	1.010648	0.096	-0.297	0.1425	0	3	1035	1
2026-02-11	16:06:21.970	1.295	-0.525	0.28	0.0549	0.054656	1.013088	0.108	-0.3045	0.1395	0	3	1035	1
2026-02-11	16:06:21.990	1.225	-0.525	0.28	0.050752	0.052948	1.011868	0.099	-0.3	0.141	0	3	1035	1
2026-02-11	16:06:22.010	1.26	-0.595	0.28	0.055388	0.052948	1.012112	0.108	-0.3	0.147	0	3	1035	1
2026-02-11	16:06:22.030	1.26	-0.56	0.28	0.052704	0.050752	1.013332	0.1035	-0.3045	0.1425	0	3	1035	1
2026-02-11	16:06:22.050	1.26	-0.56	0.28	0.055388	0.055388	1.010648	0.0975	-0.306	0.1425	0	3	1035	1
2026-02-11	16:06:22.070	1.26	-0.525	0.28	0.055388	0.050752	1.013576	0.102	-0.297	0.141	0	3	1035	1
2026-02-11	16:06:22.090	1.225	-0.56	0.245	0.051972	0.051972	1.012356	0.105	-0.306	0.138	0	3	1035	1
2026-02-11	16:06:22.110	1.33	-0.525	0.245	0.05124	0.05246	1.01504	0.1065	-0.294	0.1395	0	3	1035	1
2026-02-11	16:06:22.130	1.225	-0.56	0.245	0.054656	0.051484	1.009428	0.108	-0.3	0.1455	0	3	1035	1
2026-02-11	16:06:22.150	1.26	-0.56	0.245	0.056608	0.051972	1.014796	0.1035	-0.288	0.144	0	3	1035	1
2026-02-11	16:06:22.170	1.225	-0.56	0.28	0.052948	0.050752	1.01138	0.105	-0.3015	0.144	0	3	1035	1
2026-02-11	16:06:22.190	1.26	-0.525	0.28	0.050264	0.054412	1.01504	0.1065	-0.306	0.144	0	3	1035	1
2026-02-11	16:06:22.210	1.225	-0.595	0.28	0.053192	0.050996	1.011136	0.105	-0.2955	0.141	0	3	1035	1
2026-02-11	16:06:22.230	1.295	-0.56	0.28	0.055876	0.052948	1.014064	0.1005	-0.3045	0.132	0	3	1035	1
2026-02-11	16:06:22.250	1.26	-0.56	0.245	0.052216	0.05368	1.010404	0.1005	-0.3045	0.1485	0	3	1035	1
2026-02-11	16:06:22.270	1.26	-0.56	0.245	0.052704	0.050752	1.013332	0.114	-0.303	0.1455	0	3	1035	1
2026-02-11	16:06:22.290	1.225	-0.56	0.245	0.056852	0.050508	1.013088	0.108	-0.297	0.1545	0	3	1035	1
2026-02-11	16:06:22.310	1.225	-0.56	0.28	0.050996	0.050996	1.012112	0.105	-0.3	0.144	0	3	1035	1
2026-02-11	16:06:22.330	1.26	-0.525	0.28	0.052216	0.055144	1.011868	0.105	-0.297	0.138	0	3	1035	1
2026-02-11	16:06:22.350	1.225	-0.56	0.21	0.053192	0.05124	1.01138	0.1005	-0.309	0.1485	0	3	1035	1
2026-02-11	16:06:22.370	1.26	-0.56	0.245	0.054412	0.049776	1.012356	0.0975	-0.309	0.147	0	3	1035	1
2026-02-11	16:06:22.390	1.26	-0.56	0.245	0.058072	0.052216	1.0126	0.102	-0.3	0.144	0	3	1035	1
2026-02-11	16:06:22.410	1.225	-0.525	0.28	0.05368	0.053436	1.013332	0.1095	-0.297	0.1425	0	3	1035	1
2026-02-11	16:06:22.430	1.155	-0.525	0.28	0.055876	0.052216	1.01138	0.1095	-0.297	0.1425	0	3	1035	1
2026-02-11	16:06:22.450	1.225	-0.56	0.28	0.053436	0.052948	1.012356	0.108	-0.2955	0.1425	0	3	1035	1
2026-02-11	16:06:22.470	1.26	-0.525	0.28	0.054656	0.053436	1.011624	0.1065	-0.3	0.1425	0	3	1035	1
2026-02-11	16:06:22.490	1.225	-0.56	0.28	0.057096	0.053436	1.012112	0.1065	-0.3015	0.147	0	3	1035	1
2026-02-11	16:06:22.510	1.225	-0.595	0.28	0.051728	0.054168	1.013088	0.1065	-0.297	0.144	0	3	1035	1
2026-02-11	16:06:22.530	1.225	-0.56	0.245	0.054168	0.052216	1.011136	0.1035	-0.297	0.1395	0	3	1035	1
2026-02-11	16:06:22.550	1.295	-0.525	0.245	0.056608	0.051484	1.012844	0.102	-0.294	0.1395	0	3	1035	1
2026-02-11	16:06:22.570	1.225	-0.525	0.28	0.052704	0.053436	1.013088	0.105	-0.294	0.1395	0	3	1035	1
2026-02-11	16:06:22.590	1.295	-0.525	0.21	0.055876	0.055876	1.009428	0.105	-0.3015	0.141	0	3	1035	1
2026-02-11	16:06:22.610	1.225	-0.56	0.28	0.053924	0.054168	1.009916	0.1035	-0.306	0.1425	0	3	1035	1
2026-02-11	16:06:22.630	1.26	-0.56	0.28	0.053924	0.052216	1.013088	0.1035	-0.306	0.1425	0	3	1035	1
2026-02-11	16:06:22.650	1.225	-0.56	0.245	0.056608	0.051484	1.012356	0.102	-0.2985	0.1455	0	3	1035	1
2026-02-11	16:06:22.670	1.19	-0.56	0.28	0.054656	0.050264	1.01138	0.102	-0.2985	0.1455	0	3	1035	1
2026-02-11	16:06:22.690	1.26	-0.525	0.28	0.051728	0.052948	1.010404	0.108	-0.303	0.144	0	3	1035	1
2026-02-11	16:06:22.710	1.225	-0.56	0.315	0.0549	0.049776	1.0126	0.1095	-0.291	0.141	0	3	1035	1
2026-02-11	16:06:22.730	1.225	-0.56	0.245	0.0549	0.054168	1.012844	0.102	-0.2955	0.147	0	3	1035	1
2026-02-11	16:06:22.750	1.26	-0.595	0.245	0.056364	0.053924	1.011868	0.1035	-0.2985	0.1485	0	3	1035	1
2026-02-11	16:06:22.770	1.26	-0.56	0.28	0.055632	0.053924	1.013088	0.1035	-0.3	0.144	0	3	1035	1
2026-02-11	16:06:22.790	1.225	-0.525	0.245	0.052216	0.054656	1.013088	0.105	-0.2985	0.147	0	3	1035	1
2026-02-11	16:06:22.810	1.225	-0.525	0.28	0.054168	0.053192	1.013332	0.1035	-0.3075	0.1395	0	3	1035	1
2026-02-11	16:06:22.830	1.225	-0.56	0.28	0.053192	0.05124	1.012356	0.102	-0.3045	0.144	0	3	1035	1
2026-02-11	16:06:22.850	1.26	-0.56	0.245	0.055144	0.050508	1.01382	0.108	-0.303	0.1455	0	3	1035	1
2026-02-11	16:06:22.870	1.26	-0.525	0.28	0.05612	0.053436	1.012844	0.099	-0.2955	0.1455	0	3	1035	1
2026-02-11	16:06:22.890	1.26	-0.56	0.245	0.052948	0.051972	1.009672	0.1035	-0.297	0.1335	0	3	1035	1
2026-02-11	16:06:22.910	1.26	-0.525	0.21	0.05368	0.05246	1.011624	0.108	-0.2955	0.141	0	3	1035	1
2026-02-11	16:06:22.930	1.225	-0.56	0.28	0.052704	0.049776	1.011868	0.102	-0.3	0.15	0	3	1035	1
2026-02-11	16:06:22.950	1.225	-0.56	0.28	0.055144	0.05612	1.012112	0.105	-0.3015	0.138	0	3	1035	1
2026-02-11	16:06:22.970	1.26	-0.525	0.245	0.0549	0.050752	1.011624	0.105	-0.3	0.15	0	3	1035	1
2026-02-11	16:06:22.990	1.26	-0.56	0.28	0.054412	0.050996	1.011868	0.102	-0.3045	0.141	0	3	1035	1
2026-02-11	16:06:23.010	1.295	-0.525	0.245	0.055144	0.05246	1.011136	0.1065	-0.3015	0.1455	0	3	1035	1
2026-02-11	16:06:23.030	1.225	-0.56	0.28	0.050996	0.05246	1.0126	0.1095	-0.309	0.141	0	3	1035	1
2026-02-11	16:06:23.050	1.225	-0.56	0.28	0.054412	0.052704	1.01138	0.0975	-0.303	0.1395	0	3	1035	1
2026-02-11	16:06:23.070	1.33	-0.49	0.28	0.05612	0.053436	1.015528	0.105	-0.3075	0.1455	0	3	1035	1
2026-02-11	16:06:23.090	1.225	-0.56	0.245	0.053436	0.054168	1.009916	0.1095	-0.3	0.141	0	3	1035	1
2026-02-11	16:06:23.110	1.225	-0.63	0.28	0.055388	0.055144	1.01016	0.1035	-0.3045	0.138	0	3	1035	1
2026-02-11	16:06:23.130	1.26	-0.525	0.28	0.0549	0.049288	1.009672	0.1095	-0.3	0.141	0	3	1035	1
2026-02-11	16:06:23.150	1.295	-0.49	0.245	0.056852	0.051484	1.014796	0.1065	-0.2985	0.1455	0	3	1035	1
2026-02-11	16:06:23.170	1.225	-0.56	0.28	0.053436	0.0549	1.015284	0.108	-0.3075	0.1425	0	3	1035	1
2026-02-11	16:06:23.190	1.26	-0.595	0.245	0.05368	0.054656	1.010648	0.1005	-0.297	0.1365	0	3	1035	1
2026-02-11	16:06:23.210	1.26	-0.525	0.28	0.055144	0.055876	1.012356	0.108	-0.3	0.1365	0	3	1035	1
2026-02-11	16:06:23.230	1.225	-0.56	0.28	0.051728	0.051484	1.011624	0.099	-0.297	0.1425	0	3	1035	1
2026-02-11	16:06:23.250	1.295	-0.525	0.28	0.054168	0.055144	1.014064	0.1065	-0.306	0.1395	0	3	1035	1
2026-02-11	16:06:23.270	1.26	-0.595	0.245	0.053924	0.053436	1.013332	0.099	-0.303	0.138	0	3	1035	1
2026-02-11	16:06:23.290	1.225	-0.595	0.315	0.055144	0.05124	1.012112	0.111	-0.3015	0.15	0	3	1035	1
2026-02-11	16:06:23.310	1.225	-0.56	0.28	0.054412	0.051484	1.01138	0.1065	-0.297	0.144	0	3	1035	1
2026-02-11	16:06:23.330	1.225	-0.525	0.28	0.055388	0.053192	1.01138	0.105	-0.303	0.1395	0	3	1035	1
2026-02-11	16:06:23.350	1.26	-0.56	0.315	0.05124	0.054412	1.013576	0.105	-0.2955	0.135	0	3	1035	1
2026-02-11	16:06:23.370	1.26	-0.56	0.28	0.05246	0.052948	1.01016	0.1095	-0.297	0.141	0	3	1035	1
2026-02-11	16:06:23.390	1.26	-0.56	0.245	0.055388	0.053192	1.012844	0.1065	-0.291	0.141	0	3	1035	1
2026-02-11	16:06:23.410	1.26	-0.56	0.245	0.051728	0.05246	1.012356	0.1065	-0.3045	0.1425	0	3	1035	1
2026-02-11	16:06:23.430	1.225	-0.56	0.28	0.054412	0.052948	1.01138	0.102	-0.309	0.1425	0	3	1035	1
2026-02-11	16:06:23.450	1.26	-0.56	0.245	0.0549	0.051484	1.0126	0.108	-0.303	0.144	0	3	1035	1
2026-02-11	16:06:23.470	1.225	-0.56	0.245	0.053924	0.051728	1.012356	0.1065	-0.297	0.138	0	3	1035	1
2026-02-11	16:06:23.490	1.26	-0.595	0.245	0.05734	0.054412	1.012356	0.105	-0.306	0.1365	0	3	1035	1
2026-02-11	16:06:23.510	1.225	-0.56	0.245	0.05368	0.0549	1.010648	0.105	-0.306	0.138	0	3	1035	1
2026-02-11	16:06:23.530	1.26	-0.56	0.245	0.050996	0.054168	1.012112	0.105	-0.297	0.15	0	3	1035	1
2026-02-11	16:06:23.550	1.26	-0.525	0.245	0.053924	0.051728	1.014796	0.1035	-0.2985	0.1425	0	3	1035	1
2026-02-11	16:06:23.570	1.19	-0.56	0.28	0.053436	0.052704	1.014796	0.1125	-0.303	0.1455	0	3	1035	1
2026-02-11	16:06:23.590	1.26	-0.595	0.28	0.053436	0.050264	1.01138	0.1125	-0.2985	0.141	0	3	1035	1
2026-02-11	16:06:23.610	1.26	-0.56	0.245	0.055388	0.052704	1.011624	0.114	-0.3	0.138	0	3	1035	1
2026-02-11	16:06:23.630	1.225	-0.56	0.28	0.053924	0.053924	1.012112	0.108	-0.3015	0.1425	0	3	1035	1
2026-02-11	16:06:23.650	1.26	-0.56	0.28	0.053436	0.053192	1.010892	0.1065	-0.3	0.138	0	3	1035	1
2026-02-11	16:06:23.670	1.225	-0.525	0.28	0.052948	0.053192	1.01138	0.1065	-0.3	0.138	0	3	1035	1
2026-02-11	16:06:23.690	1.295	-0.525	0.245	0.052948	0.054412	1.012356	0.1065	-0.3	0.138	0	3	1035	1
2026-02-11	16:06:23.710	1.225	-0.56	0.28	0.051728	0.05002	1.01382	0.1065	-0.3	0.138	0	3	1035	1
2026-02-11	16:06:23.730	1.225	-0.56	0.28	0.053192	0.053192	1.009428	0.105	-0.303	0.141	0	3	1035	1
2026-02-11	16:06:23.750	1.26	-0.525	0.245	0.053436	0.052948	1.011624	0.105	-0.303	0.141	0	3	1035	1
2026-02-11	16:06:23.770	1.26	-0.525	0.245	0.0549	0.054412	1.013576	0.1035	-0.3045	0.144	0	3	1035	1
2026-02-11	16:06:23.790	1.225	-0.595	0.21	0.05002	0.050508	1.013332	0.108	-0.294	0.144	0	3	1035	1
2026-02-11	16:06:23.810	1.225	-0.595	0.245	0.055876	0.050508	1.011868	0.102	-0.2955	0.138	0	2	1035	1
2026-02-11	16:06:23.830	1.295	-0.525	0.21	0.053924	0.052704	1.011624	0.108	-0.3045	0.141	0	2	1035	1
2026-02-11	16:06:23.850	1.26	-0.525	0.245	0.05246	0.055632	1.014308	0.1125	-0.2985	0.1455	0	2	1035	1
2026-02-11	16:06:23.870	1.26	-0.595	0.28	0.055388	0.05368	1.01138	0.108	-0.303	0.1425	0	2	1035	1
2026-02-11	16:06:23.890	1.225	-0.56	0.245	0.053192	0.055876	1.009428	0.1005	-0.3015	0.144	0	2	1035	1
2026-02-11	16:06:23.910	1.26	-0.49	0.245	0.054656	0.056364	1.01626	0.1005	-0.297	0.1455	0	2	1035	1
2026-02-11	16:06:23.930	1.19	-0.56	0.28	0.053436	0.053192	1.009428	0.105	-0.306	0.144	0	2	1035	1
2026-02-11	16:06:23.950	1.33	-0.49	0.245	0.05368	0.053924	1.012356	0.099	-0.309	0.141	0	2	1035	1
2026-02-11	16:06:23.970	1.225	-0.56	0.245	0.054168	0.053924	1.013332	0.099	-0.303	0.135	0	2	1035	1
2026-02-11	16:06:23.990	1.225	-0.525	0.28	0.053192	0.051484	1.01016	0.102	-0.2985	0.144	0	2	1035	1
2026-02-11	16:06:24.010	1.225	-0.525	0.315	0.055388	0.053192	1.013332	0.1005	-0.3075	0.1395	0	2	1035	1
2026-02-11	16:06:24.030	1.26	-0.525	0.28	0.05124	0.052704	1.015772	0.1035	-0.2985	0.138	0	2	1035	1
2026-02-11	16:06:24.050	1.26	-0.595	0.315	0.054168	0.05124	1.009916	0.105	-0.2895	0.1395	0	2	1035	1
2026-02-11	16:06:24.070	1.26	-0.56	0.28	0.05246	0.05246	1.012844	0.1065	-0.297	0.144	0	2	1035	1
2026-02-11	16:06:24.090	1.225	-0.595	0.245	0.057096	0.05124	1.011624	0.1035	-0.3015	0.147	0	2	1035	1
2026-02-11	16:06:24.110	1.26	-0.56	0.28	0.054412	0.049776	1.009672	0.108	-0.3045	0.1485	0	2	1035	1
2026-02-11	16:06:24.130	1.225	-0.525	0.28	0.053924	0.05246	1.009916	0.108	-0.3045	0.15	0	2	1035	1
2026-02-11	16:06:24.150	1.33	-0.525	0.245	0.054412	0.051728	1.014552	0.1125	-0.297	0.1425	0	2	1035	1
2026-02-11	16:06:24.170	1.26	-0.595	0.28	0.055144	0.049532	1.011624	0.1035	-0.3015	0.147	0	2	1035	1
2026-02-11	16:06:24.190	1.225	-0.595	0.28	0.055388	0.059048	1.011624	0.099	-0.3015	0.1365	0	2	1035	1
2026-02-11	16:06:24.210	1.26	-0.56	0.28	0.05734	0.051484	1.011136	0.105	-0.297	0.135	0	2	1035	1
2026-02-11	16:06:24.230	1.225	-0.525	0.28	0.056364	0.05246	1.006988	0.105	-0.294	0.1395	0	2	1035	1
2026-02-11	16:06:24.250	1.295	-0.49	0.28	0.052948	0.05612	1.016748	0.1065	-0.3	0.1395	0	2	1035	1
2026-02-11	16:06:24.270	1.19	-0.63	0.245	0.052216	0.053192	1.011624	0.108	-0.3045	0.1335	0	2	1035	1
2026-02-11	16:06:24.290	1.295	-0.525	0.245	0.054168	0.055876	1.013332	0.1035	-0.2925	0.141	0	2	1035	1
2026-02-11	16:06:24.310	1.225	-0.595	0.28	0.053924	0.051728	1.009672	0.099	-0.303	0.1425	0	2	1035	1
2026-02-11	16:06:24.330	1.33	-0.49	0.245	0.05246	0.05124	1.009672	0.1065	-0.3	0.1395	0	2	1035	1
2026-02-11	16:06:24.350	1.225	-0.56	0.28	0.053924	0.051972	1.012112	0.1095	-0.2985	0.144	0	2	1035	1
2026-02-11	16:06:24.370	1.26	-0.56	0.245	0.054412	0.055388	1.0126	0.1095	-0.2985	0.1455	0	2	1035	1
2026-02-11	16:06:24.390	1.225	-0.595	0.245	0.053924	0.05612	1.013088	0.1035	-0.2955	0.1425	0	2	1035	1
2026-02-11	16:06:24.410	1.26	-0.525	0.28	0.055632	0.052948	1.012112	0.096	-0.3015	0.1425	0	2	1035	1
2026-02-11	16:06:24.430	1.295	-0.525	0.28	0.053924	0.05246	1.014064	0.1035	-0.2955	0.147	0	2	1035	1
2026-02-11	16:06:24.450	1.225	-0.56	0.28	0.052948	0.050752	1.01504	0.1095	-0.3045	0.15	0	2	1035	1
2026-02-11	16:06:24.470	1.225	-0.56	0.28	0.055388	0.048068	1.012844	0.1065	-0.297	0.138	0	2	1035	1
2026-02-11	16:06:24.490	1.295	-0.525	0.28	0.051728	0.054656	1.013332	0.0975	-0.297	0.1455	0	2	1035	1
2026-02-11	16:06:24.510	1.295	-0.56	0.28	0.054412	0.05124	1.013332	0.108	-0.3045	0.1395	0	2	1035	1
2026-02-11	16:06:24.530	1.26	-0.525	0.245	0.053436	0.052948	1.014552	0.1005	-0.2985	0.135	0	2	1035	1
2026-02-11	16:06:24.550	1.225	-0.56	0.245	0.052704	0.052948	1.010648	0.102	-0.2985	0.1455	0	2	1035	1
2026-02-11	16:06:24.570	1.26	-0.595	0.245	0.052216	0.050996	1.01138	0.114	-0.3	0.1425	0	2	1035	1
2026-02-11	16:06:24.590	1.295	-0.595	0.245	0.05368	0.050508	1.012112	0.102	-0.3	0.1485	0	2	1035	1
2026-02-11	16:06:24.610	1.19	-0.56	0.28	0.054412	0.054168	1.010404	0.1095	-0.3015	0.1395	0	2	1035	1
2026-02-11	16:06:24.630	1.26	-0.525	0.245	0.054412	0.05246	1.01382	0.1005	-0.303	0.1425	0	2	1035	1
2026-02-11	16:06:24.650	1.225	-0.525	0.28	0.05368	0.053436	1.013576	0.1065	-0.297	0.1425	0	2	1035	1
2026-02-11	16:06:24.670	1.225	-0.56	0.28	0.054656	0.052948	1.010892	0.1095	-0.3	0.144	0	2	1035	1
2026-02-11	16:06:24.690	1.26	-0.595	0.245	0.054168	0.051484	1.012844	0.1065	-0.309	0.138	0	2	1035	1
2026-02-11	16:06:24.710	1.225	-0.525	0.245	0.053436	0.056608	1.014796	0.1095	-0.297	0.144	0	2	1035	1
2026-02-11	16:06:24.730	1.225	-0.56	0.28	0.052704	0.050508	1.012844	0.1065	-0.2985	0.1485	0	2	1035	1
2026-02-11	16:06:24.750	1.26	-0.56	0.28	0.054168	0.051728	1.0126	0.1005	-0.3135	0.141	0	2	1035	1
2026-02-11	16:06:24.770	1.26	-0.56	0.245	0.053436	0.051972	1.013088	0.1005	-0.3135	0.141	0	2	1035	1
2026-02-11	16:06:24.790	1.26	-0.56	0.245	0.0549	0.052948	1.012356	0.105	-0.3075	0.1425	0	2	1035	1
2026-02-11	16:06:24.810	1.26	-0.56	0.245	0.0549	0.052216	1.01382	0.1095	-0.3015	0.144	0	2	1035	1
2026-02-11	16:06:24.830	1.26	-0.56	0.28	0.052704	0.049532	1.014064	0.108	-0.2985	0.1395	0	2	1035	1
2026-02-11	16:06:24.850	1.26	-0.525	0.28	0.056364	0.05734	1.013088	0.1035	-0.3015	0.1365	0	2	1035	1
2026-02-11	16:06:24.870	1.26	-0.595	0.28	0.05368	0.053436	1.012356	0.102	-0.303	0.135	0	2	1035	1
2026-02-11	16:06:24.890	1.26	-0.56	0.245	0.051972	0.053436	1.013576	0.105	-0.2985	0.1365	0	2	1035	1
2026-02-11	16:06:24.910	1.225	-0.56	0.28	0.052948	0.05368	1.01016	0.108	-0.3	0.141	0	2	1035	1
2026-02-11	16:06:24.930	1.225	-0.525	0.245	0.054168	0.050508	1.013576	0.111	-0.3015	0.141	0	2	1035	1
2026-02-11	16:06:24.950	1.26	-0.56	0.245	0.054168	0.053924	1.013332	0.111	-0.3015	0.141	0	2	1035	1
2026-02-11	16:06:24.970	1.225	-0.595	0.28	0.051728	0.053436	1.011868	0.111	-0.3015	0.141	0	2	1035	1
2026-02-11	16:06:24.990	1.26	-0.595	0.28	0.05612	0.050264	1.014308	0.105	-0.306	0.135	0	2	1035	1
2026-02-11	16:06:25.010	1.295	-0.56	0.245	0.052948	0.05368	1.011136	0.099	-0.309	0.144	0	2	1035	1
2026-02-11	16:06:25.030	1.225	-0.525	0.28	0.055632	0.052704	1.011868	0.1005	-0.297	0.138	0	2	1035	1
2026-02-11	16:06:25.050	1.26	-0.56	0.28	0.051484	0.052948	1.011868	0.108	-0.303	0.1365	0	2	1035	1
2026-02-11	16:06:25.070	1.26	-0.56	0.245	0.051972	0.053192	1.013088	0.114	-0.2865	0.1425	0	2	1035	1
2026-02-11	16:06:25.090	1.26	-0.525	0.21	0.055632	0.051728	1.011624	0.105	-0.2985	0.141	0	2	1035	1
2026-02-11	16:06:25.110	1.26	-0.56	0.28	0.05246	0.053436	1.012844	0.1125	-0.3	0.1395	0	2	1035	1
2026-02-11	16:06:25.130	1.26	-0.56	0.28	0.055388	0.050264	1.011624	0.1035	-0.3015	0.1485	0	2	1035	1
2026-02-11	16:06:25.150	1.295	-0.56	0.245	0.055632	0.053192	1.014308	0.105	-0.2985	0.144	0	2	1035	1
2026-02-11	16:06:25.170	1.26	-0.56	0.245	0.054656	0.051972	1.014308	0.1125	-0.3	0.1395	0	2	1035	1
2026-02-11	16:06:25.190	1.225	-0.595	0.28	0.049776	0.052704	1.012356	0.105	-0.3	0.1425	0	2	1035	1
2026-02-11	16:06:25.210	1.295	-0.56	0.245	0.055632	0.054168	1.009916	0.102	-0.297	0.15	0	2	1035	1
2026-02-11	16:06:25.230	1.26	-0.56	0.28	0.049776	0.050996	1.01504	0.105	-0.2955	0.1455	0	2	1035	1
2026-02-11	16:06:25.250	1.26	-0.595	0.315	0.049532	0.053192	1.009916	0.1065	-0.3015	0.1425	0	2	1035	1
2026-02-11	16:06:25.270	1.26	-0.525	0.28	0.05246	0.053436	1.011624	0.1035	-0.303	0.132	0	2	1035	1
2026-02-11	16:06:25.290	1.26	-0.595	0.28	0.05246	0.05734	1.013576	0.1065	-0.3	0.1455	0	2	1035	1
2026-02-11	16:06:25.310	1.26	-0.56	0.28	0.057096	0.050996	1.011136	0.114	-0.3	0.1485	0	2	1035	1
2026-02-11	16:06:25.330	1.225	-0.525	0.28	0.052216	0.050264	1.009916	0.105	-0.297	0.1335	0	2	1035	1
2026-02-11	16:06:25.350	1.26	-0.525	0.245	0.052704	0.050752	1.012356	0.108	-0.297	0.15	0	2	1035	1
2026-02-11	16:06:25.370	1.26	-0.56	0.245	0.053436	0.050996	1.012356	0.1005	-0.3	0.144	0	2	1035	1
2026-02-11	16:06:25.390	1.26	-0.56	0.315	0.056364	0.051728	1.014064	0.102	-0.306	0.138	0	2	1035	1
2026-02-11	16:06:25.410	1.26	-0.56	0.245	0.052216	0.051972	1.01138	0.1125	-0.3	0.141	0	2	1035	1
2026-02-11	16:06:25.430	1.26	-0.525	0.245	0.057828	0.056852	1.011624	0.1005	-0.3045	0.1425	0	2	1035	1
2026-02-11	16:06:25.450	1.225	-0.56	0.28	0.052704	0.05612	1.01382	0.105	-0.2955	0.1365	0	2	1035	1
2026-02-11	16:06:25.470	1.26	-0.56	0.245	0.05124	0.05246	1.009428	0.099	-0.297	0.141	0	2	1035	1
2026-02-11	16:06:25.490	1.225	-0.56	0.245	0.052704	0.05124	1.011868	0.105	-0.294	0.1395	0	2	1035	1
2026-02-11	16:06:25.510	1.225	-0.56	0.28	0.053924	0.051972	1.012356	0.0915	-0.306	0.135	0	2	1035	1
2026-02-11	16:06:25.530	1.225	-0.56	0.28	0.051484	0.050752	1.013332	0.105	-0.3	0.1365	0	2	1035	1
2026-02-11	16:06:25.550	1.26	-0.56	0.315	0.053924	0.05246	1.014308	0.1095	-0.3135	0.1395	0	2	1035	1
2026-02-11	16:06:25.570	1.225	-0.56	0.28	0.050508	0.052704	1.012356	0.1035	-0.309	0.144	0	2	1035	1
2026-02-11	16:06:25.590	1.26	-0.56	0.245	0.053192	0.053924	1.011136	0.099	-0.3015	0.1335	0	2	1035	1
2026-02-11	16:06:25.610	1.26	-0.525	0.245	0.053924	0.050264	1.013088	0.102	-0.303	0.141	0	2	1035	1
2026-02-11	16:06:25.630	1.225	-0.525	0.28	0.051972	0.052216	1.012356	0.1035	-0.297	0.132	0	2	1035	1
2026-02-11	16:06:25.650	1.26	-0.525	0.28	0.05368	0.05246	1.013332	0.1035	-0.303	0.144	0	2	1035	1
2026-02-11	16:06:25.670	1.26	-0.56	0.28	0.055632	0.050264	1.011868	0.1065	-0.294	0.138	0	2	1035	1
2026-02-11	16:06:25.690	1.225	-0.56	0.315	0.052704	0.050508	1.012112	0.0945	-0.2955	0.1395	0	2	1035	1
2026-02-11	16:06:25.710	1.225	-0.595	0.28	0.054656	0.051728	1.009672	0.1065	-0.3015	0.144	0	2	1035	1
2026-02-11	16:06:25.730	1.295	-0.56	0.245	0.049288	0.052948	1.012844	0.108	-0.3075	0.138	0	2	1035	1
2026-02-11	16:06:25.750	1.26	-0.525	0.28	0.055632	0.05246	1.010404	0.108	-0.3045	0.144	0	2	1035	1
2026-02-11	16:06:25.770	1.225	-0.525	0.28	0.054656	0.055144	1.01382	0.0945	-0.3015	0.135	0	2	1035	1
2026-02-11	16:06:25.790	1.26	-0.595	0.28	0.050508	0.050264	1.010648	0.1065	-0.294	0.1395	0	2	1035	1
2026-02-11	16:06:25.810	1.26	-0.56	0.28	0.05368	0.0549	1.009428	0.108	-0.2955	0.135	0	2	1035	1
2026-02-11	16:06:25.830	1.26	-0.56	0.28	0.053924	0.053924	1.011624	0.1095	-0.297	0.1365	0	2	1035	1
2026-02-11	16:06:25.850	1.225	-0.56	0.245	0.052216	0.053436	1.011624	0.111	-0.3015	0.1395	0	2	1035	1
2026-02-11	16:06:25.870	1.295	-0.525	0.28	0.051972	0.052704	1.0126	0.111	-0.303	0.141	0	2	1035	1
2026-02-11	16:06:25.890	1.225	-0.595	0.28	0.052216	0.052216	1.010892	0.111	-0.3	0.141	0	2	1035	1
2026-02-11	16:06:25.910	1.225	-0.56	0.245	0.050996	0.05368	1.011624	0.1065	-0.3	0.141	0	2	1035	1
2026-02-11	16:06:25.930	1.26	-0.56	0.245	0.052216	0.055876	1.015284	0.102	-0.2985	0.1395	0	2	1035	1
2026-02-11	16:06:25.950	1.26	-0.56	0.245	0.052948	0.052216	1.0126	0.105	-0.3015	0.138	0	2	1035	1
2026-02-11	16:06:25.970	1.26	-0.56	0.28	0.052948	0.051972	1.010892	0.111	-0.306	0.141	0	2	1035	1
2026-02-11	16:06:25.990	1.225	-0.56	0.245	0.054656	0.051484	1.013088	0.108	-0.3015	0.141	0	2	1035	1
2026-02-11	16:06:26.010	1.26	-0.56	0.245	0.049776	0.053192	1.011136	0.1035	-0.2985	0.1395	0	2	1035	1
2026-02-11	16:06:26.030	1.26	-0.49	0.245	0.056608	0.051484	1.01382	0.099	-0.3	0.1365	0	2	1035	1
2026-02-11	16:06:26.050	1.26	-0.525	0.28	0.05734	0.053924	1.014064	0.096	-0.2985	0.1335	0	2	1035	1
2026-02-11	16:06:26.070	1.225	-0.56	0.245	0.052948	0.055144	1.012844	0.0975	-0.297	0.1335	0	2	1035	1
2026-02-11	16:06:26.090	1.225	-0.56	0.315	0.054168	0.053192	1.010892	0.1005	-0.3	0.1335	0	2	1035	1
2026-02-11	16:06:26.110	1.26	-0.525	0.28	0.055632	0.05368	1.014552	0.1065	-0.3015	0.138	0	2	1035	1
2026-02-11	16:06:26.130	1.225	-0.56	0.245	0.053924	0.05246	1.01016	0.111	-0.3045	0.1395	0	2	1035	1
2026-02-11	16:06:26.150	1.225	-0.56	0.315	0.054168	0.050996	1.013088	0.1065	-0.3075	0.138	0	2	1035	1
2026-02-11	16:06:26.170	1.26	-0.595	0.245	0.054412	0.052948	1.009916	0.1035	-0.3045	0.1395	0	2	1035	1
2026-02-11	16:06:26.190	1.26	-0.56	0.245	0.05612	0.053436	1.012844	0.105	-0.3	0.141	0	2	1035	1
2026-02-11	16:06:26.210	1.26	-0.595	0.245	0.056608	0.052216	1.008452	0.105	-0.3	0.141	0	2	1035	1
2026-02-11	16:06:26.230	1.26	-0.56	0.28	0.056608	0.051484	1.010404	0.105	-0.3	0.141	0	2	1035	1
2026-02-11	16:06:26.250	1.225	-0.525	0.28	0.05368	0.0549	1.013332	0.108	-0.3045	0.1365	0	2	1035	1
2026-02-11	16:06:26.270	1.225	-0.525	0.28	0.052948	0.05246	1.0126	0.1035	-0.303	0.141	0	2	1035	1
2026-02-11	16:06:26.290	1.19	-0.56	0.28	0.055632	0.051972	1.011868	0.1035	-0.297	0.141	0	2	1035	1
2026-02-11	16:06:26.310	1.295	-0.525	0.28	0.05246	0.053436	1.011136	0.1125	-0.306	0.144	0	2	1035	1
2026-02-11	16:06:26.330	1.19	-0.56	0.21	0.05734	0.054168	1.013576	0.111	-0.3015	0.141	0	2	1035	1
2026-02-11	16:06:26.350	1.26	-0.595	0.245	0.054412	0.053924	1.012844	0.114	-0.297	0.138	0	2	1035	1
2026-02-11	16:06:26.370	1.26	-0.525	0.245	0.054412	0.052948	1.013576	0.1095	-0.3015	0.1455	0	2	1035	1
2026-02-11	16:06:26.390	1.19	-0.525	0.245	0.050264	0.05124	1.01138	0.1065	-0.3	0.1425	0	2	1035	1
2026-02-11	16:06:26.410	1.26	-0.525	0.28	0.056608	0.049532	1.011624	0.099	-0.3015	0.1365	0	2	1035	1
2026-02-11	16:06:26.430	1.295	-0.56	0.28	0.05368	0.054168	1.009428	0.1035	-0.3045	0.1395	0	2	1035	1
2026-02-11	16:06:26.450	1.225	-0.525	0.245	0.050752	0.05002	1.011624	0.111	-0.3015	0.1395	0	2	1035	1
2026-02-11	16:06:26.470	1.225	-0.525	0.245	0.052948	0.057584	1.010404	0.1065	-0.2985	0.1425	0	2	1035	1
2026-02-11	16:06:26.490	1.225	-0.56	0.28	0.053924	0.05368	1.013088	0.102	-0.297	0.144	0	2	1035	1
2026-02-11	16:06:26.510	1.225	-0.49	0.245	0.051728	0.055876	1.0126	0.1005	-0.306	0.135	0	2	1035	1
2026-02-11	16:06:26.530	1.26	-0.56	0.28	0.053924	0.054412	1.013332	0.1095	-0.3	0.1455	0	2	1035	1
2026-02-11	16:06:26.550	1.225	-0.63	0.245	0.054168	0.05368	1.009428	0.1035	-0.2985	0.1455	0	2	1035	1
2026-02-11	16:06:26.570	1.26	-0.525	0.245	0.053924	0.05002	1.009916	0.102	-0.3045	0.138	0	2	1035	1
2026-02-11	16:06:26.590	1.26	-0.525	0.28	0.054168	0.051484	1.011868	0.111	-0.2985	0.1395	0	2	1035	1
2026-02-11	16:06:26.610	1.225	-0.56	0.245	0.05368	0.052948	1.013088	0.1065	-0.3	0.1425	0	2	1035	1
2026-02-11	16:06:26.630	1.26	-0.56	0.245	0.0549	0.054168	1.01138	0.1005	-0.294	0.1425	0	2	1035	1
2026-02-11	16:06:26.650	1.225	-0.595	0.28	0.056852	0.053192	1.011624	0.105	-0.3	0.1485	0	2	1035	1
2026-02-11	16:06:26.670	1.33	-0.56	0.28	0.055388	0.0549	1.013088	0.1065	-0.3045	0.1425	0	2	1035	1
2026-02-11	16:06:26.690	1.26	-0.595	0.245	0.053436	0.055876	1.010648	0.1065	-0.3015	0.1395	0	2	1035	1
2026-02-11	16:06:26.710	1.26	-0.56	0.245	0.055144	0.052704	1.01138	0.105	-0.2985	0.138	0	2	1035	1
2026-02-11	16:06:26.730	1.26	-0.56	0.28	0.054168	0.052704	1.012112	0.114	-0.306	0.135	0	2	1035	1
2026-02-11	16:06:26.750	1.26	-0.56	0.28	0.05368	0.051972	1.013088	0.105	-0.291	0.1395	0	2	1035	1
2026-02-11	16:06:26.770	1.225	-0.56	0.245	0.052948	0.052216	1.011624	0.102	-0.3	0.129	0	2	1035	1
2026-02-11	16:06:26.790	1.295	-0.525	0.28	0.055632	0.055144	1.011624	0.0975	-0.294	0.147	0	2	1035	1
2026-02-11	16:06:26.810	1.225	-0.595	0.245	0.05246	0.050508	1.013088	0.108	-0.294	0.1365	0	2	1035	1
2026-02-11	16:06:26.830	1.26	-0.56	0.28	0.053192	0.051484	1.014552	0.1095	-0.291	0.1395	0	2	1035	1
2026-02-11	16:06:26.850	1.295	-0.56	0.28	0.054168	0.051728	1.010648	0.105	-0.303	0.138	0	2	1035	1
2026-02-11	16:06:26.870	1.26	-0.56	0.245	0.054656	0.050996	1.011868	0.105	-0.3015	0.1395	0	2	1035	1
2026-02-11	16:06:26.890	1.26	-0.525	0.28	0.055144	0.051484	1.013576	0.108	-0.2895	0.1395	0	2	1035	1
2026-02-11	16:06:26.910	1.225	-0.595	0.28	0.055632	0.054656	1.010648	0.108	-0.2895	0.1395	0	2	1035	1
2026-02-11	16:06:26.930	1.26	-0.525	0.245	0.057096	0.050508	1.010892	0.1095	-0.294	0.141	0	2	1035	1
2026-02-11	16:06:26.950	1.225	-0.525	0.245	0.0549	0.050508	1.013576	0.1125	-0.3	0.144	0	2	1035	1
2026-02-11	16:06:26.970	1.295	-0.56	0.28	0.053192	0.054656	1.012356	0.108	-0.3	0.1425	0	2	1035	1
2026-02-11	16:06:26.990	1.26	-0.595	0.315	0.058072	0.052704	1.009428	0.105	-0.297	0.1425	0	2	1035	1
2026-02-11	16:06:27.010	1.225	-0.56	0.28	0.054168	0.055144	1.014064	0.1035	-0.2955	0.144	0	2	1035	1
2026-02-11	16:06:27.030	1.19	-0.56	0.245	0.055388	0.053924	1.0126	0.1005	-0.2985	0.141	0	2	1035	1
2026-02-11	16:06:27.050	1.225	-0.525	0.245	0.050752	0.052948	1.011868	0.105	-0.297	0.1395	0	2	1035	1
2026-02-11	16:06:27.070	1.26	-0.525	0.21	0.053192	0.050264	1.012844	0.108	-0.3015	0.141	0	2	1035	1
2026-02-11	16:06:27.090	1.295	-0.56	0.245	0.053192	0.055144	1.013088	0.099	-0.3015	0.141	0	2	1035	1
2026-02-11	16:06:27.110	1.225	-0.595	0.28	0.051484	0.053436	1.011624	0.0975	-0.2955	0.1395	0	2	1035	1
2026-02-11	16:06:27.130	1.225	-0.595	0.315	0.051972	0.055144	1.009672	0.105	-0.2985	0.138	0	2	1035	1
2026-02-11	16:06:27.150	1.26	-0.525	0.245	0.053436	0.052704	1.009184	0.1065	-0.3	0.141	0	2	1035	1
2026-02-11	16:06:27.170	1.225	-0.525	0.245	0.053436	0.051972	1.013088	0.108	-0.2955	0.1455	0	2	1035	1
2026-02-11	16:06:27.190	1.26	-0.525	0.245	0.051484	0.053436	1.014064	0.1065	-0.294	0.1455	0	2	1035	1
2026-02-11	16:06:27.210	1.26	-0.56	0.28	0.054168	0.057096	1.010648	0.1065	-0.297	0.147	0	2	1035	1
2026-02-11	16:06:27.230	1.225	-0.56	0.28	0.055632	0.050508	1.011868	0.105	-0.2925	0.144	0	2	1035	1
2026-02-11	16:06:27.250	1.26	-0.525	0.245	0.050508	0.052948	1.013576	0.1005	-0.291	0.141	0	2	1035	1
2026-02-11	16:06:27.270	1.295	-0.525	0.21	0.054168	0.05368	1.014796	0.099	-0.297	0.147	0	2	1035	1
2026-02-11	16:06:27.290	1.225	-0.56	0.245	0.05246	0.054168	1.011624	0.099	-0.297	0.1425	0	2	1035	1
2026-02-11	16:06:27.310	1.225	-0.525	0.245	0.051972	0.053192	1.01382	0.1005	-0.2985	0.1395	0	2	1035	1
2026-02-11	16:06:27.330	1.225	-0.525	0.245	0.055388	0.05124	1.012356	0.1035	-0.303	0.141	0	2	1035	1
2026-02-11	16:06:27.350	1.26	-0.56	0.245	0.055144	0.054412	1.01382	0.102	-0.3	0.1395	0	2	1035	1
2026-02-11	16:06:27.370	1.26	-0.525	0.315	0.050264	0.050752	1.01382	0.1005	-0.2985	0.1395	0	2	1035	1
2026-02-11	16:06:27.390	1.225	-0.56	0.28	0.052704	0.055144	1.011136	0.1005	-0.2985	0.138	0	2	1035	1
2026-02-11	16:06:27.410	1.225	-0.525	0.245	0.055876	0.057096	1.009184	0.1005	-0.2985	0.138	0	2	1035	1
2026-02-11	16:06:27.430	1.225	-0.56	0.245	0.052948	0.053924	1.014064	0.1005	-0.2985	0.138	0	2	1035	1
2026-02-11	16:06:27.450	1.26	-0.525	0.245	0.053924	0.05124	1.015528	0.099	-0.3	0.144	0	2	1035	1
2026-02-11	16:06:27.470	1.26	-0.595	0.28	0.053436	0.055876	1.011868	0.105	-0.3015	0.1425	0	2	1035	1
2026-02-11	16:06:27.490	1.225	-0.56	0.28	0.051972	0.057096	1.009184	0.102	-0.297	0.138	0	2	1035	1
2026-02-11	16:06:27.510	1.225	-0.525	0.245	0.052948	0.051972	1.01382	0.108	-0.2925	0.141	0	2	1035	1
2026-02-11	16:06:27.530	1.26	-0.525	0.245	0.054168	0.050996	1.012356	0.111	-0.2955	0.1425	0	2	1035	1
2026-02-11	16:06:27.550	1.26	-0.56	0.28	0.055144	0.051972	1.013332	0.111	-0.2895	0.1365	0	2	1035	1
2026-02-11	16:06:27.570	1.225	-0.595	0.245	0.054168	0.054168	1.010892	0.1035	-0.294	0.147	0	2	1035	1
2026-02-11	16:06:27.590	1.295	-0.595	0.245	0.055632	0.055388	1.013088	0.1095	-0.2955	0.1515	0	2	1035	1
2026-02-11	16:06:27.610	1.225	-0.56	0.245	0.054656	0.0549	1.0126	0.105	-0.297	0.15	0	2	1035	1
2026-02-11	16:06:27.630	1.19	-0.525	0.245	0.052948	0.053192	1.012356	0.102	-0.306	0.138	0	2	1035	1
2026-02-11	16:06:27.650	1.295	-0.56	0.28	0.0549	0.054168	1.013332	0.102	-0.297	0.141	0	2	1035	1
2026-02-11	16:06:27.670	1.225	-0.595	0.245	0.052948	0.052216	1.011868	0.1065	-0.294	0.1365	0	2	1035	1
2026-02-11	16:06:27.690	1.225	-0.56	0.245	0.05368	0.055876	1.012356	0.1095	-0.297	0.135	0	2	1035	1
2026-02-11	16:06:27.710	1.26	-0.525	0.28	0.053924	0.052704	1.01382	0.1005	-0.297	0.1395	0	2	1035	1
2026-02-11	16:06:27.730	1.26	-0.56	0.245	0.052948	0.052948	1.013332	0.1035	-0.3045	0.144	0	2	1035	1
2026-02-11	16:06:27.750	1.225	-0.56	0.28	0.051728	0.050508	1.011624	0.1065	-0.297	0.1425	0	2	1035	1
2026-02-11	16:06:27.770	1.26	-0.595	0.28	0.051728	0.051484	1.014552	0.1095	-0.294	0.1425	0	2	1035	1
2026-02-11	16:06:27.790	1.19	-0.595	0.28	0.051484	0.04758	1.013332	0.105	-0.294	0.144	0	2	1035	1
2026-02-11	16:06:27.810	1.225	-0.56	0.28	0.05246	0.052216	1.012112	0.1065	-0.3	0.141	0	2	1035	1
2026-02-11	16:06:27.830	1.33	-0.525	0.245	0.051484	0.051972	1.014552	0.1095	-0.2985	0.1365	0	2	1035	1
2026-02-11	16:06:27.850	1.225	-0.56	0.245	0.052948	0.052948	1.013088	0.1035	-0.303	0.1395	0	2	1035	1
2026-02-11	16:06:27.870	1.26	-0.525	0.28	0.051728	0.055632	1.010648	0.0945	-0.303	0.1365	0	2	1035	1
2026-02-11	16:06:27.890	1.225	-0.56	0.245	0.056852	0.052216	1.012356	0.105	-0.2985	0.138	0	2	1035	1
2026-02-11	16:06:27.910	1.225	-0.56	0.245	0.055876	0.055632	1.011136	0.1065	-0.303	0.135	0	2	1035	1
2026-02-11	16:06:27.930	1.26	-0.525	0.28	0.052948	0.052704	1.015284	0.108	-0.2985	0.1425	0	2	1035	1
2026-02-11	16:06:27.950	1.26	-0.595	0.28	0.050752	0.05246	1.011136	0.1095	-0.297	0.141	0	2	1035	1
2026-02-11	16:06:27.970	1.26	-0.595	0.28	0.054656	0.05368	1.01016	0.1095	-0.297	0.141	0	2	1035	1
2026-02-11	16:06:27.990	1.225	-0.56	0.245	0.054656	0.0549	1.011868	0.108	-0.294	0.141	0	2	1035	1
2026-02-11	16:06:28.010	1.26	-0.595	0.245	0.057828	0.048312	1.014308	0.108	-0.291	0.141	0	2	1035	1
2026-02-11	16:06:28.030	1.26	-0.56	0.28	0.054168	0.05368	1.01382	0.108	-0.2985	0.141	0	2	1035	1
2026-02-11	16:06:28.050	1.26	-0.56	0.28	0.051484	0.05734	1.012356	0.1065	-0.3015	0.1395	0	2	1035	1
2026-02-11	16:06:28.070	1.225	-0.525	0.245	0.055144	0.054168	1.01382	0.1035	-0.297	0.141	0	2	1035	1
2026-02-11	16:06:28.090	1.26	-0.525	0.245	0.053192	0.048068	1.011624	0.1035	-0.297	0.1395	0	2	1035	1
2026-02-11	16:06:28.110	1.26	-0.56	0.245	0.051728	0.051972	1.012112	0.1095	-0.2985	0.1395	0	2	1035	1
2026-02-11	16:06:28.130	1.26	-0.525	0.21	0.053436	0.052704	1.010648	0.108	-0.3	0.138	0	2	1035	1
2026-02-11	16:06:28.150	1.225	-0.56	0.245	0.052704	0.05368	1.013332	0.105	-0.3	0.1335	0	2	1035	1
2026-02-11	16:06:28.170	1.26	-0.56	0.245	0.053436	0.053192	1.011868	0.1095	-0.3015	0.138	0	2	1035	1
2026-02-11	16:06:28.190	1.26	-0.56	0.28	0.05612	0.051728	1.013332	0.108	-0.3	0.144	0	2	1035	1
2026-02-11	16:06:28.210	1.225	-0.56	0.28	0.055388	0.053924	1.012112	0.102	-0.2985	0.1395	0	2	1035	1
2026-02-11	16:06:28.230	1.26	-0.56	0.245	0.052216	0.055632	1.011868	0.1035	-0.2985	0.138	0	2	1035	1
2026-02-11	16:06:28.250	1.26	-0.595	0.28	0.058072	0.051728	1.01138	0.102	-0.2985	0.1395	0	2	1035	1
2026-02-11	16:06:28.270	1.26	-0.56	0.28	0.053436	0.051484	1.012112	0.1005	-0.3015	0.144	0	2	1035	1
2026-02-11	16:06:28.290	1.295	-0.56	0.28	0.052948	0.054168	1.011136	0.1035	-0.3	0.138	0	2	1035	1
2026-02-11	16:06:28.310	1.225	-0.56	0.245	0.055144	0.053192	1.010404	0.105	-0.2985	0.138	0	2	1035	1
2026-02-11	16:06:28.330	1.26	-0.525	0.28	0.053436	0.050752	1.013088	0.1035	-0.3015	0.144	0	2	1035	1
2026-02-11	16:06:28.350	1.225	-0.56	0.28	0.060024	0.05002	1.014308	0.1065	-0.3	0.141	0	2	1035	1
2026-02-11	16:06:28.370	1.225	-0.525	0.28	0.057828	0.05368	1.010648	0.1035	-0.2985	0.1395	0	2	1035	1
2026-02-11	16:06:28.390	1.19	-0.525	0.245	0.056852	0.0549	1.013088	0.1005	-0.297	0.135	0	2	1035	1
2026-02-11	16:06:28.410	1.26	-0.525	0.245	0.051484	0.051972	1.013576	0.105	-0.3	0.1395	0	2	1035	1
2026-02-11	16:06:28.430	1.19	-0.56	0.28	0.05124	0.053192	1.013332	0.105	-0.303	0.138	0	2	1035	1
2026-02-11	16:06:28.450	1.26	-0.56	0.245	0.054656	0.053924	1.010404	0.102	-0.303	0.132	0	2	1035	1
2026-02-11	16:06:28.470	1.26	-0.56	0.245	0.052216	0.050264	1.010892	0.102	-0.3015	0.1365	0	2	1035	1
2026-02-11	16:06:28.490	1.225	-0.56	0.28	0.051728	0.053436	1.010892	0.1005	-0.3	0.138	0	2	1035	1
2026-02-11	16:06:28.510	1.225	-0.525	0.245	0.057096	0.052216	1.013088	0.105	-0.2955	0.1365	0	2	1035	1
2026-02-11	16:06:28.530	1.225	-0.56	0.28	0.054412	0.052704	1.0126	0.1065	-0.297	0.1335	0	2	1035	1
2026-02-11	16:06:28.550	1.225	-0.56	0.28	0.05368	0.053192	1.012844	0.105	-0.3015	0.1365	0	2	1035	1
2026-02-11	16:06:28.570	1.225	-0.595	0.28	0.056608	0.05246	1.012112	0.105	-0.2985	0.138	0	2	1035	1
2026-02-11	16:06:28.590	1.295	-0.56	0.245	0.05246	0.054412	1.010404	0.1065	-0.294	0.1365	0	2	1035	1
2026-02-11	16:06:28.610	1.225	-0.49	0.21	0.052216	0.050752	1.012356	0.1065	-0.294	0.1365	0	2	1035	1
2026-02-11	16:06:28.630	1.19	-0.56	0.21	0.056364	0.053192	1.01382	0.1065	-0.294	0.1365	0	2	1035	1
2026-02-11	16:06:28.650	1.26	-0.56	0.245	0.051972	0.05246	1.012356	0.1035	-0.297	0.1335	0	2	1035	1
2026-02-11	16:06:28.670	1.225	-0.56	0.245	0.054168	0.051728	1.0126	0.108	-0.2925	0.1395	0	2	1035	1
2026-02-11	16:06:28.690	1.26	-0.56	0.245	0.05368	0.05368	1.01138	0.1125	-0.306	0.138	0	2	1035	1
2026-02-11	16:06:28.710	1.225	-0.525	0.28	0.056852	0.055632	1.011868	0.1035	-0.3	0.135	0	2	1035	1
2026-02-11	16:06:28.730	1.295	-0.49	0.245	0.059048	0.050996	1.014064	0.102	-0.3	0.1545	0	2	1035	1
2026-02-11	16:06:28.750	1.19	-0.595	0.245	0.055144	0.0488	1.011868	0.1035	-0.294	0.15	0	2	1035	1
2026-02-11	16:06:28.770	1.26	-0.595	0.245	0.0549	0.0549	1.010892	0.105	-0.3	0.141	0	2	1035	1
2026-02-11	16:06:28.790	1.19	-0.56	0.28	0.055144	0.050508	1.011868	0.102	-0.297	0.147	0	2	1035	1
2026-02-11	16:06:28.810	1.26	-0.525	0.28	0.0549	0.051484	1.01382	0.105	-0.303	0.1395	0	2	1035	1
2026-02-11	16:06:28.830	1.19	-0.49	0.245	0.054168	0.0549	1.011136	0.099	-0.303	0.138	0	2	1035	1
2026-02-11	16:06:28.850	1.225	-0.56	0.245	0.054168	0.050508	1.014796	0.1035	-0.3015	0.1485	0	2	1035	1
2026-02-11	16:06:28.870	1.225	-0.56	0.245	0.055144	0.05246	1.010648	0.102	-0.306	0.141	0	2	1035	1
2026-02-11	16:06:28.890	1.19	-0.56	0.28	0.053192	0.052948	1.009428	0.1005	-0.2985	0.141	0	2	1035	1
2026-02-11	16:06:28.910	1.26	-0.525	0.28	0.053436	0.049776	1.011624	0.102	-0.2955	0.1365	0	2	1035	1
2026-02-11	16:06:28.930	1.225	-0.525	0.245	0.054656	0.050264	1.013088	0.1035	-0.294	0.1395	0	2	1035	1
2026-02-11	16:06:28.950	1.225	-0.56	0.28	0.051972	0.05002	1.013088	0.1035	-0.294	0.1425	0	2	1035	1
2026-02-11	16:06:28.970	1.26	-0.595	0.245	0.055876	0.052948	1.010648	0.105	-0.3015	0.1455	0	2	1035	1
2026-02-11	16:06:28.990	1.26	-0.56	0.245	0.054656	0.051728	1.012356	0.111	-0.3045	0.1275	0	2	1035	1
2026-02-11	16:06:29.010	1.225	-0.525	0.28	0.056364	0.052704	1.0126	0.1065	-0.3015	0.141	0	2	1035	1
2026-02-11	16:06:29.030	1.19	-0.49	0.245	0.055388	0.050752	1.014796	0.102	-0.2955	0.1365	0	2	1035	1
2026-02-11	16:06:29.050	1.19	-0.525	0.28	0.056364	0.051484	1.010648	0.102	-0.2955	0.1365	0	2	1035	1
2026-02-11	16:06:29.070	1.26	-0.525	0.28	0.0549	0.053924	1.01382	0.1035	-0.2955	0.1395	0	2	1035	1
2026-02-11	16:06:29.090	1.26	-0.56	0.28	0.056608	0.053436	1.014308	0.1065	-0.2955	0.144	0	2	1035	1
2026-02-11	16:06:29.110	1.26	-0.49	0.28	0.052216	0.049776	1.013332	0.1065	-0.2985	0.141	0	2	1035	1
2026-02-11	16:06:29.130	1.225	-0.56	0.245	0.050752	0.053436	1.010648	0.1065	-0.306	0.1425	0	2	1035	1
2026-02-11	16:06:29.150	1.225	-0.56	0.245	0.051484	0.053192	1.015284	0.108	-0.306	0.144	0	2	1035	1
2026-02-11	16:06:29.170	1.26	-0.56	0.245	0.056852	0.049044	1.013576	0.1065	-0.303	0.1395	0	2	1035	1
2026-02-11	16:06:29.190	1.26	-0.56	0.245	0.054656	0.054412	1.013576	0.1005	-0.3	0.1425	0	2	1035	1
2026-02-11	16:06:29.210	1.225	-0.56	0.245	0.056608	0.054168	1.009916	0.108	-0.297	0.1425	0	2	1035	1
2026-02-11	16:06:29.230	1.26	-0.525	0.245	0.051484	0.05246	1.011868	0.111	-0.2985	0.1395	0	2	1035	1
2026-02-11	16:06:29.250	1.26	-0.56	0.245	0.05612	0.053924	1.0126	0.105	-0.303	0.1395	0	2	1035	1
2026-02-11	16:06:29.270	1.26	-0.595	0.28	0.056852	0.05124	1.010648	0.1005	-0.3015	0.1425	0	2	1035	1
2026-02-11	16:06:29.290	1.26	-0.525	0.28	0.051972	0.051484	1.014552	0.099	-0.2985	0.1455	0	2	1035	1
2026-02-11	16:06:29.310	1.295	-0.56	0.245	0.055388	0.053192	1.015284	0.105	-0.3	0.141	0	2	1035	1
2026-02-11	16:06:29.330	1.19	-0.595	0.245	0.056608	0.052948	1.008208	0.1095	-0.3	0.141	0	2	1035	1
2026-02-11	16:06:29.350	1.26	-0.49	0.245	0.055632	0.052704	1.012356	0.1065	-0.2985	0.1425	0	2	1035	1
2026-02-11	16:06:29.370	1.19	-0.525	0.28	0.05124	0.05368	1.014064	0.108	-0.2985	0.1425	0	2	1035	1
2026-02-11	16:06:29.390	1.26	-0.56	0.28	0.052704	0.055388	1.013332	0.1065	-0.3	0.141	0	2	1035	1
2026-02-11	16:06:29.410	1.26	-0.56	0.245	0.056852	0.05368	1.010648	0.105	-0.2955	0.144	0	2	1035	1
2026-02-11	16:06:29.430	1.225	-0.56	0.245	0.055144	0.049532	1.014796	0.1065	-0.294	0.1455	0	2	1035	1
2026-02-11	16:06:29.450	1.225	-0.56	0.28	0.053924	0.05246	1.010648	0.105	-0.2985	0.138	0	2	1035	1
2026-02-11	16:06:29.470	1.225	-0.56	0.245	0.050752	0.051728	1.010892	0.1005	-0.297	0.138	0	2	1035	1
2026-02-11	16:06:29.490	1.225	-0.56	0.245	0.053924	0.053436	1.011136	0.102	-0.297	0.147	0	2	1035	1
2026-02-11	16:06:29.510	1.26	-0.525	0.245	0.054656	0.052704	1.011868	0.1065	-0.2985	0.1455	0	2	1035	1
2026-02-11	16:06:29.530	1.295	-0.56	0.28	0.054168	0.056608	1.01138	0.108	-0.297	0.1395	0	2	1035	1
2026-02-11	16:06:29.550	1.225	-0.56	0.245	0.053192	0.052704	1.010892	0.105	-0.3015	0.141	0	2	1035	1
2026-02-11	16:06:29.570	1.26	-0.49	0.28	0.054656	0.05246	1.01504	0.1035	-0.3015	0.1395	0	2	1035	1
2026-02-11	16:06:29.590	1.225	-0.595	0.28	0.053192	0.054656	1.013576	0.102	-0.294	0.1425	0	2	1035	1
2026-02-11	16:06:29.610	1.225	-0.63	0.245	0.050996	0.05124	1.01138	0.102	-0.294	0.144	0	2	1035	1
2026-02-11	16:06:29.630	1.26	-0.56	0.28	0.05246	0.055632	1.01138	0.102	-0.2985	0.1395	0	2	1035	1
2026-02-11	16:06:29.650	1.295	-0.525	0.28	0.050264	0.05002	1.01626	0.1005	-0.2985	0.141	0	2	1035	1
2026-02-11	16:06:29.670	1.19	-0.595	0.28	0.052704	0.052704	1.01382	0.099	-0.2955	0.1425	0	2	1035	1
2026-02-11	16:06:29.690	1.295	-0.525	0.315	0.054168	0.053436	1.013576	0.1005	-0.297	0.1425	0	2	1035	1
2026-02-11	16:06:29.710	1.225	-0.56	0.28	0.053924	0.053436	1.014064	0.1035	-0.294	0.1425	0	2	1035	1
2026-02-11	16:06:29.730	1.225	-0.56	0.21	0.055876	0.050264	1.007476	0.1035	-0.294	0.141	0	2	1035	1
2026-02-11	16:06:29.750	1.295	-0.525	0.315	0.051484	0.053924	1.0126	0.1035	-0.2955	0.141	0	2	1035	1
2026-02-11	16:06:29.770	1.26	-0.56	0.28	0.053436	0.053436	1.010648	0.102	-0.297	0.1425	0	2	1035	1
2026-02-11	16:06:29.790	1.26	-0.56	0.28	0.052704	0.05246	1.012112	0.1005	-0.2985	0.141	0	2	1035	1
2026-02-11	16:06:29.810	1.26	-0.595	0.245	0.055388	0.050996	1.009916	0.1005	-0.2985	0.141	0	2	1035	1
2026-02-11	16:06:29.830	1.295	-0.595	0.245	0.054168	0.050264	1.009672	0.1005	-0.2985	0.141	0	2	1035	1
2026-02-11	16:06:29.850	1.26	-0.525	0.245	0.055388	0.053436	1.011624	0.1005	-0.297	0.132	0	2	1035	1
2026-02-11	16:06:29.870	1.26	-0.595	0.245	0.05368	0.054656	1.010892	0.105	-0.303	0.1515	0	2	1035	1
2026-02-11	16:06:29.890	1.26	-0.56	0.28	0.053192	0.053192	1.010404	0.096	-0.3	0.1425	0	2	1035	1
2026-02-11	16:06:29.910	1.26	-0.525	0.245	0.053192	0.05246	1.010892	0.105	-0.2925	0.141	0	2	1035	1
2026-02-11	16:06:29.930	1.26	-0.525	0.28	0.053192	0.050996	1.014552	0.108	-0.3	0.1365	0	2	1035	1
2026-02-11	16:06:29.950	1.26	-0.56	0.28	0.0549	0.055144	1.011136	0.108	-0.294	0.1395	0	2	1035	1
2026-02-11	16:06:29.970	1.26	-0.525	0.28	0.054412	0.050264	1.010892	0.102	-0.303	0.1395	0	2	1035	1
2026-02-11	16:06:29.990	1.26	-0.56	0.28	0.055144	0.05612	1.010892	0.111	-0.294	0.138	0	2	1035	1
2026-02-11	16:06:30.010	1.295	-0.56	0.28	0.05612	0.053436	1.014796	0.1065	-0.3045	0.1455	0	2	1035	1
2026-02-11	16:06:30.030	1.26	-0.595	0.28	0.050752	0.050264	1.014308	0.1005	-0.3	0.147	0	2	1035	1
2026-02-11	16:06:30.050	1.225	-0.595	0.28	0.05612	0.051728	1.010648	0.1035	-0.2985	0.138	0	2	1035	1
2026-02-11	16:06:30.070	1.295	-0.56	0.28	0.050264	0.050996	1.01382	0.1065	-0.3075	0.141	0	2	1035	1
2026-02-11	16:06:30.090	1.26	-0.525	0.28	0.0549	0.053924	1.012112	0.1005	-0.2985	0.135	0	2	1035	1
2026-02-11	16:06:30.110	1.26	-0.56	0.245	0.052948	0.052704	1.011868	0.1005	-0.2985	0.135	0	2	1035	1
2026-02-11	16:06:30.130	1.225	-0.525	0.28	0.056364	0.053436	1.011624	0.102	-0.3	0.138	0	2	1035	1
2026-02-11	16:06:30.150	1.225	-0.525	0.315	0.05246	0.055876	1.012112	0.1035	-0.3015	0.141	0	2	1035	1
2026-02-11	16:06:30.170	1.225	-0.525	0.28	0.056852	0.053436	1.013088	0.1005	-0.3015	0.144	0	2	1035	1
2026-02-11	16:06:30.190	1.26	-0.56	0.28	0.051484	0.055144	1.013332	0.102	-0.3015	0.144	0	2	1035	1
2026-02-11	16:06:30.210	1.225	-0.63	0.315	0.055144	0.053436	1.012356	0.1065	-0.3015	0.141	0	2	1035	1
2026-02-11	16:06:30.230	1.26	-0.56	0.28	0.052216	0.051484	1.01016	0.1035	-0.297	0.141	0	2	1035	1
2026-02-11	16:06:30.250	1.225	-0.56	0.28	0.054412	0.050996	1.01382	0.1035	-0.297	0.1425	0	2	1035	1
2026-02-11	16:06:30.270	1.26	-0.56	0.28	0.054168	0.049532	1.011868	0.105	-0.303	0.1455	0	2	1035	1
2026-02-11	16:06:30.290	1.26	-0.56	0.245	0.053192	0.052948	1.012112	0.1035	-0.306	0.1425	0	2	1035	1
2026-02-11	16:06:30.310	1.26	-0.595	0.245	0.05246	0.050996	1.01138	0.105	-0.303	0.141	0	2	1035	1
2026-02-11	16:06:30.330	1.225	-0.595	0.245	0.05612	0.055876	1.012112	0.1035	-0.297	0.141	0	2	1035	1
2026-02-11	16:06:30.350	1.26	-0.56	0.28	0.057584	0.050996	1.009428	0.099	-0.2925	0.1395	0	2	1035	1
2026-02-11	16:06:30.370	1.26	-0.56	0.28	0.051484	0.053192	1.013576	0.099	-0.294	0.141	0	2	1035	1
2026-02-11	16:06:30.390	1.225	-0.595	0.28	0.051972	0.051972	1.012112	0.1035	-0.3015	0.1395	0	2	1035	1
2026-02-11	16:06:30.410	1.26	-0.56	0.245	0.05124	0.051972	1.013576	0.108	-0.303	0.141	0	2	1035	1
2026-02-11	16:06:30.430	1.26	-0.595	0.245	0.053192	0.050264	1.011624	0.108	-0.303	0.141	0	2	1035	1
2026-02-11	16:06:30.450	1.26	-0.56	0.28	0.055144	0.054168	1.010404	0.102	-0.3075	0.1365	0	2	1035	1
2026-02-11	16:06:30.470	1.225	-0.525	0.245	0.055144	0.052704	1.012356	0.105	-0.303	0.1335	0	2	1035	1
2026-02-11	16:06:30.490	1.26	-0.56	0.21	0.053192	0.055632	1.01382	0.111	-0.2985	0.1365	0	2	1035	1
2026-02-11	16:06:30.510	1.26	-0.56	0.245	0.055388	0.054168	1.011868	0.111	-0.2985	0.1365	0	2	1035	1
2026-02-11	16:06:30.530	1.225	-0.56	0.245	0.051728	0.051484	1.010648	0.1095	-0.2985	0.138	0	2	1035	1
2026-02-11	16:06:30.550	1.225	-0.525	0.245	0.051728	0.052216	1.013576	0.108	-0.2955	0.1395	0	2	1035	1
2026-02-11	16:06:30.570	1.295	-0.525	0.28	0.052704	0.055632	1.014308	0.1065	-0.2985	0.138	0	2	1035	1
2026-02-11	16:06:30.590	1.225	-0.595	0.315	0.053436	0.05246	1.0126	0.1035	-0.3	0.138	0	2	1035	1
2026-02-11	16:06:30.610	1.295	-0.525	0.245	0.053436	0.05368	1.012112	0.105	-0.3	0.138	0	2	1035	1
2026-02-11	16:06:30.630	1.26	-0.56	0.315	0.050996	0.050264	1.012356	0.105	-0.303	0.141	0	2	1035	1
2026-02-11	16:06:30.650	1.26	-0.56	0.245	0.051728	0.053924	1.013332	0.102	-0.306	0.1425	0	2	1035	1
2026-02-11	16:06:30.670	1.26	-0.525	0.28	0.05368	0.05246	1.012112	0.1035	-0.303	0.1395	0	2	1035	1
2026-02-11	16:06:30.690	1.225	-0.595	0.28	0.054168	0.050996	1.012356	0.105	-0.2955	0.141	0	2	1035	1
2026-02-11	16:06:30.710	1.26	-0.56	0.28	0.050752	0.051972	1.010404	0.105	-0.297	0.138	0	2	1035	1
2026-02-11	16:06:30.730	1.26	-0.595	0.28	0.051728	0.05368	1.012112	0.105	-0.297	0.1395	0	2	1035	1
2026-02-11	16:06:30.750	1.225	-0.56	0.28	0.055632	0.053192	1.012356	0.105	-0.297	0.144	0	2	1035	1
2026-02-11	16:06:30.770	1.26	-0.56	0.245	0.056608	0.051484	1.013088	0.105	-0.297	0.1455	0	2	1035	1
2026-02-11	16:06:30.790	1.26	-0.56	0.28	0.054168	0.052216	1.012112	0.1095	-0.297	0.141	0	2	1035	1
2026-02-11	16:06:30.810	1.225	-0.56	0.28	0.050996	0.051728	1.013088	0.111	-0.3	0.138	0	2	1035	1
2026-02-11	16:06:30.830	1.225	-0.56	0.315	0.055388	0.050996	1.013088	0.108	-0.3015	0.141	0	2	1035	1
2026-02-11	16:06:30.850	1.26	-0.56	0.245	0.055632	0.051728	1.010648	0.105	-0.3015	0.141	0	2	1035	1
2026-02-11	16:06:30.870	1.26	-0.525	0.245	0.052948	0.053924	1.015528	0.1035	-0.3015	0.1425	0	2	1035	1
2026-02-11	16:06:30.890	1.225	-0.525	0.28	0.058316	0.050996	1.014552	0.1035	-0.2985	0.141	0	2	1035	1
2026-02-11	16:06:30.910	1.225	-0.56	0.245	0.05246	0.051484	1.012356	0.102	-0.3	0.1425	0	2	1035	1
2026-02-11	16:06:30.930	1.225	-0.595	0.28	0.050996	0.05246	1.01382	0.1035	-0.3	0.1455	0	2	1035	1
2026-02-11	16:06:30.950	1.26	-0.56	0.28	0.056608	0.051972	1.01382	0.105	-0.2985	0.144	0	2	1035	1
2026-02-11	16:06:30.970	1.295	-0.56	0.245	0.053924	0.0549	1.014064	0.1005	-0.2955	0.1395	0	2	1035	1
2026-02-11	16:06:30.990	1.19	-0.56	0.28	0.053192	0.051484	1.0126	0.1005	-0.294	0.1395	0	2	1035	1
2026-02-11	16:06:31.010	1.295	-0.525	0.245	0.053924	0.055388	1.010648	0.1005	-0.294	0.1395	0	2	1035	1
2026-02-11	16:06:31.030	1.26	-0.525	0.245	0.053924	0.052948	1.01504	0.1095	-0.303	0.1365	0	2	1035	1
2026-02-11	16:06:31.050	1.225	-0.525	0.28	0.054412	0.052948	1.012844	0.099	-0.2955	0.1395	0	2	1035	1
2026-02-11	16:06:31.070	1.26	-0.56	0.21	0.053436	0.051728	1.011136	0.1035	-0.306	0.144	0	2	1035	1
2026-02-11	16:06:31.090	1.225	-0.56	0.28	0.0549	0.054412	1.010404	0.108	-0.294	0.1425	0	2	1035	1
2026-02-11	16:06:31.110	1.225	-0.56	0.245	0.054168	0.052704	1.013576	0.1065	-0.303	0.138	0	2	1035	1
2026-02-11	16:06:31.130	1.225	-0.56	0.245	0.053436	0.051728	1.013088	0.105	-0.3015	0.1455	0	2	1035	1
2026-02-11	16:06:31.150	1.26	-0.56	0.28	0.051728	0.050752	1.011136	0.1125	-0.291	0.141	0	2	1035	1
2026-02-11	16:06:31.170	1.26	-0.595	0.245	0.055632	0.053436	1.015284	0.102	-0.297	0.15	0	2	1035	1
2026-02-11	16:06:31.190	1.295	-0.63	0.245	0.049532	0.053924	1.010648	0.102	-0.297	0.15	0	2	1035	1
2026-02-11	16:06:31.210	1.26	-0.63	0.245	0.053924	0.050752	1.011136	0.102	-0.3	0.147	0	2	1035	1
2026-02-11	16:06:31.230	1.295	-0.63	0.245	0.054168	0.05002	1.01382	0.102	-0.303	0.1455	0	2	1035	1
2026-02-11	16:06:31.250	1.225	-0.56	0.245	0.055632	0.051484	1.009184	0.099	-0.303	0.144	0	2	1035	1
2026-02-11	16:06:31.270	1.225	-0.56	0.28	0.059292	0.054412	1.012112	0.1035	-0.3015	0.1395	0	2	1035	1
2026-02-11	16:06:31.290	1.19	-0.56	0.245	0.054412	0.052216	1.0126	0.108	-0.3	0.138	0	2	1035	1
2026-02-11	16:06:31.310	1.295	-0.49	0.245	0.056364	0.05368	1.014552	0.1065	-0.2985	0.141	0	2	1035	1
2026-02-11	16:06:31.330	1.225	-0.56	0.245	0.05246	0.052704	1.0126	0.108	-0.297	0.1425	0	2	1035	1
2026-02-11	16:06:31.350	1.26	-0.525	0.21	0.054168	0.054412	1.011624	0.1035	-0.2955	0.141	0	2	1035	1
2026-02-11	16:06:31.370	1.19	-0.56	0.245	0.050264	0.053924	1.011868	0.1005	-0.3	0.1365	0	2	1035	1
2026-02-11	16:06:31.390	1.26	-0.525	0.245	0.054412	0.053924	1.0126	0.1035	-0.303	0.1365	0	2	1035	1
2026-02-11	16:06:31.410	1.26	-0.595	0.245	0.052948	0.053192	1.012356	0.105	-0.3015	0.1335	0	2	1035	1
2026-02-11	16:06:31.430	1.26	-0.595	0.28	0.052948	0.049776	1.012844	0.105	-0.303	0.135	0	2	1035	1
2026-02-11	16:06:31.450	1.26	-0.525	0.28	0.052948	0.05368	1.011868	0.1065	-0.2955	0.135	0	2	1035	1
2026-02-11	16:06:31.470	1.295	-0.56	0.315	0.052948	0.05612	1.013332	0.1035	-0.2925	0.138	0	2	1035	1
2026-02-11	16:06:31.490	1.26	-0.56	0.28	0.052948	0.05002	1.014308	0.1035	-0.297	0.1425	0	2	1035	1
2026-02-11	16:06:31.510	1.225	-0.56	0.245	0.052216	0.054656	1.011136	0.105	-0.2985	0.1425	0	2	1035	1
2026-02-11	16:06:31.530	1.225	-0.595	0.245	0.059048	0.051484	1.011868	0.105	-0.2985	0.1395	0	2	1035	1
2026-02-11	16:06:31.550	1.26	-0.56	0.245	0.052704	0.05368	1.011624	0.102	-0.2955	0.1365	0	2	1035	1
2026-02-11	16:06:31.570	1.225	-0.56	0.245	0.055632	0.052704	1.011868	0.105	-0.3015	0.1395	0	2	1035	1
2026-02-11	16:06:31.590	1.26	-0.525	0.28	0.05124	0.051484	1.015284	0.1065	-0.3075	0.1395	0	2	1035	1
2026-02-11	16:06:31.610	1.26	-0.56	0.28	0.052216	0.050996	1.0126	0.102	-0.3015	0.138	0	2	1035	1
2026-02-11	16:06:31.630	1.19	-0.56	0.28	0.052216	0.056364	1.008208	0.102	-0.297	0.138	0	2	1035	1
2026-02-11	16:06:31.650	1.19	-0.49	0.245	0.054412	0.052948	1.006256	0.105	-0.303	0.1425	0	2	1035	1
2026-02-11	16:06:31.670	1.295	-0.35	0.21	0.058072	0.054168	1.021384	0.105	-0.303	0.1485	0	2	1035	1
2026-02-11	16:06:31.690	1.19	-0.595	0.28	0.051728	0.053192	1.011624	0.1005	-0.297	0.147	0	2	1035	1
2026-02-11	16:06:31.710	1.33	-0.56	0.245	0.05246	0.050508	1.013088	0.108	-0.2955	0.1425	0	2	1035	1
2026-02-11	16:06:31.730	1.155	-0.63	0.315	0.0488	0.05368	1.011624	0.1095	-0.2985	0.141	0	2	1035	1
2026-02-11	16:06:31.750	1.295	-0.525	0.245	0.050508	0.047092	1.014308	0.105	-0.297	0.1365	0	2	1035	1
2026-02-11	16:06:31.770	1.155	-0.63	0.28	0.053192	0.048556	1.008696	0.1035	-0.2985	0.1305	0	2	1035	1
2026-02-11	16:06:31.790	1.33	-0.49	0.245	0.051728	0.05368	1.01504	0.1035	-0.3	0.1335	0	2	1035	1
2026-02-11	16:06:31.810	1.19	-0.525	0.315	0.055632	0.050752	1.010404	0.102	-0.297	0.1395	0	2	1035	1
2026-02-11	16:06:31.830	1.225	-0.525	0.245	0.051728	0.053192	1.010404	0.1035	-0.297	0.1425	0	2	1035	1
2026-02-11	16:06:31.850	1.26	-0.56	0.28	0.054412	0.050752	1.01016	0.105	-0.2985	0.141	0	2	1035	1
2026-02-11	16:06:31.870	1.225	-0.525	0.245	0.051728	0.055388	1.012844	0.105	-0.3015	0.1365	0	2	1035	1
2026-02-11	16:06:31.890	1.225	-0.56	0.245	0.05368	0.052948	1.014552	0.108	-0.303	0.1395	0	2	1035	1
2026-02-11	16:06:31.910	1.225	-0.595	0.28	0.052948	0.05612	1.014308	0.1035	-0.2955	0.144	0	2	1035	1
2026-02-11	16:06:31.930	1.26	-0.595	0.245	0.052948	0.050508	1.009916	0.102	-0.2925	0.1455	0	2	1035	1
2026-02-11	16:06:31.950	1.19	-0.525	0.28	0.054412	0.05368	1.013332	0.105	-0.297	0.141	0	2	1035	1
2026-02-11	16:06:31.970	1.225	-0.525	0.245	0.055876	0.055144	1.012112	0.1035	-0.3	0.1395	0	2	1035	1
2026-02-11	16:06:31.990	1.295	-0.56	0.28	0.055632	0.05368	1.012356	0.099	-0.303	0.141	0	2	1035	1
2026-02-11	16:06:32.010	1.225	-0.595	0.28	0.056364	0.051972	1.010892	0.102	-0.303	0.144	0	2	1035	1
2026-02-11	16:06:32.030	1.26	-0.595	0.28	0.053192	0.051484	1.011136	0.102	-0.3	0.144	0	2	1035	1
2026-02-11	16:06:32.050	1.26	-0.56	0.245	0.053924	0.051728	1.00894	0.105	-0.297	0.144	0	2	1035	1
2026-02-11	16:06:32.070	1.26	-0.525	0.315	0.05002	0.051972	1.015284	0.1095	-0.2985	0.1395	0	2	1035	1
2026-02-11	16:06:32.090	1.225	-0.525	0.245	0.05368	0.050264	1.009916	0.1035	-0.3015	0.1425	0	2	1035	1
2026-02-11	16:06:32.110	1.26	-0.525	0.245	0.053192	0.05124	1.012112	0.1065	-0.3015	0.141	0	2	1035	1
2026-02-11	16:06:32.130	1.26	-0.595	0.315	0.055632	0.051728	1.010404	0.108	-0.3015	0.1395	0	2	1035	1
2026-02-11	16:06:32.150	1.26	-0.525	0.245	0.053436	0.055388	1.010892	0.1125	-0.3	0.144	0	2	1035	1
2026-02-11	16:06:32.170	1.26	-0.525	0.245	0.0549	0.051728	1.012112	0.108	-0.3	0.1425	0	2	1035	1
2026-02-11	16:06:32.190	1.295	-0.525	0.245	0.052216	0.052948	1.01504	0.102	-0.3015	0.1395	0	2	1035	1
2026-02-11	16:06:32.210	1.225	-0.595	0.245	0.055144	0.05124	1.0126	0.105	-0.303	0.1425	0	2	1035	1
2026-02-11	16:06:32.230	1.26	-0.56	0.245	0.054656	0.05368	1.01138	0.1035	-0.306	0.1425	0	2	1035	1
2026-02-11	16:06:32.250	1.225	-0.56	0.245	0.054168	0.05246	1.009916	0.1005	-0.3075	0.135	0	2	1035	1
2026-02-11	16:06:32.270	1.225	-0.525	0.245	0.05368	0.053924	1.013088	0.1005	-0.3075	0.135	0	2	1035	1
2026-02-11	16:06:32.290	1.225	-0.595	0.28	0.051728	0.049532	1.011136	0.1005	-0.3075	0.135	0	2	1035	1
2026-02-11	16:06:32.310	1.295	-0.595	0.28	0.054168	0.05368	1.010404	0.1005	-0.306	0.138	0	2	1035	1
2026-02-11	16:06:32.330	1.225	-0.525	0.245	0.051728	0.053192	1.009916	0.1035	-0.3045	0.1395	0	2	1035	1
2026-02-11	16:06:32.350	1.225	-0.56	0.245	0.053192	0.055144	1.011136	0.1035	-0.303	0.141	0	2	1035	1
2026-02-11	16:06:32.370	1.26	-0.56	0.315	0.054412	0.0549	1.011624	0.1035	-0.2985	0.1395	0	2	1035	1
2026-02-11	16:06:32.390	1.26	-0.525	0.28	0.053436	0.051728	1.01382	0.099	-0.2985	0.138	0	2	1035	1
2026-02-11	16:06:32.410	1.225	-0.595	0.28	0.05856	0.053924	1.01138	0.102	-0.306	0.1395	0	2	1035	1
2026-02-11	16:06:32.430	1.225	-0.525	0.28	0.054412	0.05124	1.0126	0.1065	-0.306	0.1425	0	2	1035	1
2026-02-11	16:06:32.450	1.26	-0.525	0.245	0.053192	0.052216	1.016016	0.105	-0.303	0.141	0	2	1035	1
2026-02-11	16:06:32.470	1.225	-0.595	0.315	0.050508	0.053924	1.013332	0.108	-0.3015	0.138	0	2	1035	1
2026-02-11	16:06:32.490	1.26	-0.56	0.245	0.055144	0.054656	1.012112	0.105	-0.297	0.1365	0	2	1035	1
2026-02-11	16:06:32.510	1.225	-0.56	0.245	0.05368	0.053436	1.013576	0.1035	-0.2955	0.1335	0	2	1035	1
2026-02-11	16:06:32.530	1.26	-0.525	0.245	0.052216	0.053192	1.013576	0.1035	-0.303	0.138	0	2	1035	1
2026-02-11	16:06:32.550	1.26	-0.525	0.28	0.052216	0.05368	1.011624	0.105	-0.309	0.1425	0	2	1035	1
2026-02-11	16:06:32.570	1.26	-0.49	0.245	0.05368	0.052704	1.01504	0.1065	-0.3045	0.141	0	2	1035	1
2026-02-11	16:06:32.590	1.225	-0.56	0.245	0.051972	0.050752	1.011136	0.1035	-0.303	0.141	0	2	1035	1
2026-02-11	16:06:32.610	1.225	-0.56	0.28	0.054168	0.050752	1.011136	0.102	-0.306	0.141	0	2	1035	1
2026-02-11	16:06:32.630	1.295	-0.56	0.245	0.051972	0.047824	1.010648	0.1035	-0.303	0.138	0	2	1035	1
2026-02-11	16:06:32.650	1.19	-0.595	0.245	0.05246	0.053436	1.011868	0.1035	-0.297	0.138	0	2	1035	1
2026-02-11	16:06:32.670	1.225	-0.525	0.245	0.05002	0.050508	1.016504	0.1065	-0.297	0.141	0	2	1035	1
2026-02-11	16:06:32.690	1.26	-0.56	0.245	0.054168	0.051728	1.01016	0.1065	-0.3015	0.1395	0	2	1035	1
2026-02-11	16:06:32.710	1.225	-0.49	0.28	0.053436	0.053192	1.010648	0.1065	-0.3045	0.135	0	2	1035	1
2026-02-11	16:06:32.730	1.225	-0.525	0.28	0.055388	0.054412	1.012844	0.1095	-0.3015	0.138	0	2	1035	1
2026-02-11	16:06:32.750	1.225	-0.595	0.28	0.055388	0.051972	1.010404	0.105	-0.3	0.141	0	2	1035	1
2026-02-11	16:06:32.770	1.295	-0.595	0.28	0.051972	0.055144	1.009916	0.1035	-0.3015	0.141	0	2	1035	1
2026-02-11	16:06:32.790	1.26	-0.525	0.245	0.052216	0.055632	1.013576	0.102	-0.2985	0.1335	0	2	1035	1
2026-02-11	16:06:32.810	1.225	-0.595	0.245	0.052948	0.05246	1.009184	0.1005	-0.3015	0.1335	0	2	1035	1
2026-02-11	16:06:32.830	1.26	-0.525	0.245	0.0549	0.052216	1.012844	0.1035	-0.3015	0.1365	0	2	1035	1
2026-02-11	16:06:32.850	1.19	-0.56	0.245	0.05124	0.056608	1.013088	0.105	-0.297	0.1365	0	2	1035	1
2026-02-11	16:06:32.870	1.26	-0.525	0.245	0.051972	0.052704	1.01138	0.105	-0.297	0.1425	0	2	1035	1
2026-02-11	16:06:32.890	1.26	-0.56	0.245	0.053436	0.053436	1.012844	0.108	-0.3015	0.1455	0	2	1035	1
2026-02-11	16:06:32.910	1.26	-0.56	0.28	0.052216	0.05002	1.014552	0.1095	-0.3045	0.1365	0	2	1035	1
2026-02-11	16:06:32.930	1.225	-0.595	0.28	0.052704	0.0549	1.011868	0.1095	-0.2985	0.1335	0	2	1035	1
2026-02-11	16:06:32.950	1.26	-0.595	0.28	0.056364	0.050264	1.01016	0.1065	-0.3015	0.135	0	2	1035	1
2026-02-11	16:06:32.970	1.26	-0.525	0.28	0.056852	0.05124	1.012356	0.102	-0.3015	0.138	0	2	1035	1
2026-02-11	16:06:32.990	1.225	-0.56	0.28	0.0549	0.053192	1.012112	0.105	-0.297	0.144	0	2	1035	1
2026-02-11	16:06:33.010	1.26	-0.525	0.245	0.051972	0.050752	1.01382	0.1065	-0.2955	0.144	0	2	1035	1
2026-02-11	16:06:33.030	1.225	-0.56	0.28	0.05124	0.05246	1.014552	0.1005	-0.2985	0.1395	0	2	1035	1
2026-02-11	16:06:33.050	1.225	-0.56	0.28	0.053436	0.051484	1.012112	0.102	-0.3	0.138	0	2	1035	1
2026-02-11	16:06:33.070	1.295	-0.56	0.245	0.056364	0.054412	1.012356	0.105	-0.2985	0.138	0	2	1035	1
2026-02-11	16:06:33.090	1.26	-0.595	0.28	0.05612	0.05246	1.012112	0.111	-0.2955	0.1395	0	2	1035	1
2026-02-11	16:06:33.110	1.225	-0.525	0.28	0.05368	0.0549	1.016016	0.114	-0.2955	0.1395	0	2	1035	1
2026-02-11	16:06:33.130	1.225	-0.56	0.28	0.053192	0.050752	1.01382	0.1095	-0.3	0.141	0	2	1035	1
2026-02-11	16:06:33.150	1.225	-0.56	0.245	0.053924	0.049044	1.012844	0.1065	-0.2985	0.1455	0	2	1035	1
2026-02-11	16:06:33.170	1.225	-0.525	0.28	0.050996	0.052216	1.013088	0.1035	-0.2955	0.141	0	2	1035	1
2026-02-11	16:06:33.190	1.26	-0.49	0.245	0.0549	0.054656	1.012844	0.105	-0.3	0.135	0	2	1035	1
2026-02-11	16:06:33.210	1.19	-0.595	0.245	0.052948	0.050752	1.011868	0.1065	-0.2985	0.1365	0	2	1035	1
2026-02-11	16:06:33.230	1.26	-0.56	0.28	0.049776	0.053192	1.012356	0.0975	-0.297	0.135	0	2	1035	1
2026-02-11	16:06:33.250	1.225	-0.56	0.28	0.056608	0.052704	1.01016	0.0945	-0.2985	0.1365	0	2	1035	1
2026-02-11	16:06:33.270	1.225	-0.525	0.28	0.055632	0.052948	1.015284	0.1005	-0.3015	0.1425	0	2	1035	1
2026-02-11	16:06:33.290	1.26	-0.56	0.315	0.053436	0.052704	1.012356	0.1035	-0.303	0.1395	0	2	1035	1
2026-02-11	16:06:33.310	1.26	-0.56	0.28	0.05368	0.050264	1.011868	0.1035	-0.3045	0.1395	0	2	1035	1
2026-02-11	16:06:33.330	1.26	-0.525	0.245	0.052704	0.05124	1.014064	0.1035	-0.3045	0.1395	0	2	1035	1
2026-02-11	16:06:33.350	1.26	-0.56	0.245	0.054168	0.055388	1.010892	0.1005	-0.3045	0.1455	0	2	1035	1
2026-02-11	16:06:33.370	1.26	-0.525	0.28	0.054412	0.055632	1.01138	0.1005	-0.3045	0.1455	0	2	1035	1
2026-02-11	16:06:33.390	1.225	-0.56	0.245	0.05124	0.051972	1.009428	0.1035	-0.3045	0.144	0	2	1035	1
2026-02-11	16:06:33.410	1.225	-0.56	0.28	0.055144	0.053192	1.011624	0.099	-0.297	0.1425	0	2	1035	1
2026-02-11	16:06:33.430	1.26	-0.525	0.28	0.055632	0.053924	1.0126	0.105	-0.303	0.141	0	2	1035	1
2026-02-11	16:06:33.450	1.26	-0.56	0.245	0.052948	0.051972	1.009672	0.102	-0.303	0.135	0	2	1035	1
2026-02-11	16:06:33.470	1.26	-0.525	0.28	0.053436	0.053924	1.015528	0.1005	-0.2985	0.1455	0	2	1035	1
2026-02-11	16:06:33.490	1.26	-0.56	0.28	0.05368	0.051972	1.013088	0.1065	-0.3015	0.141	0	2	1035	1
2026-02-11	16:06:33.510	1.295	-0.56	0.28	0.05246	0.05246	1.011868	0.1065	-0.3015	0.141	0	2	1035	1
2026-02-11	16:06:33.530	1.19	-0.595	0.28	0.052704	0.050752	1.01138	0.1065	-0.3015	0.141	0	2	1035	1
2026-02-11	16:06:33.550	1.295	-0.56	0.28	0.054168	0.05124	1.011868	0.105	-0.2985	0.1425	0	2	1035	1
2026-02-11	16:06:33.570	1.19	-0.56	0.245	0.053192	0.055388	1.01382	0.1035	-0.3	0.1425	0	2	1035	1
2026-02-11	16:06:33.590	1.225	-0.525	0.28	0.052948	0.052216	1.010648	0.105	-0.3045	0.1395	0	2	1035	1
2026-02-11	16:06:33.610	1.225	-0.56	0.28	0.052704	0.053436	1.008452	0.105	-0.3045	0.1395	0	2	1035	1
2026-02-11	16:06:33.630	1.26	-0.56	0.28	0.054412	0.050264	1.01382	0.105	-0.306	0.1425	0	2	1035	1
2026-02-11	16:06:33.650	1.26	-0.56	0.28	0.059048	0.05124	1.01382	0.108	-0.3045	0.1455	0	2	1035	1
2026-02-11	16:06:33.670	1.26	-0.595	0.315	0.051728	0.046848	1.010648	0.108	-0.303	0.1425	0	2	1035	1
2026-02-11	16:06:33.690	1.26	-0.56	0.245	0.055876	0.0488	1.011868	0.105	-0.303	0.141	0	2	1035	1
2026-02-11	16:06:33.710	1.26	-0.56	0.28	0.055388	0.053924	1.013576	0.105	-0.303	0.144	0	2	1035	1
2026-02-11	16:06:33.730	1.295	-0.525	0.28	0.05246	0.0488	1.013576	0.1035	-0.3015	0.1455	0	2	1035	1
2026-02-11	16:06:33.750	1.26	-0.56	0.28	0.053436	0.05246	1.01138	0.1035	-0.3015	0.141	0	2	1035	1
2026-02-11	16:06:33.770	1.295	-0.56	0.28	0.054412	0.05368	1.011136	0.1065	-0.3015	0.135	0	2	1035	1
2026-02-11	16:06:33.790	1.225	-0.595	0.28	0.057584	0.051484	1.01016	0.102	-0.3015	0.132	0	2	1035	1
2026-02-11	16:06:33.810	1.295	-0.56	0.245	0.051972	0.053192	1.01382	0.102	-0.3015	0.138	0	2	1035	1
2026-02-11	16:06:33.830	1.295	-0.56	0.28	0.052948	0.052948	1.012112	0.105	-0.3015	0.1395	0	2	1035	1
2026-02-11	16:06:33.850	1.26	-0.56	0.245	0.051484	0.052704	1.012112	0.1035	-0.303	0.1425	0	2	1035	1
2026-02-11	16:06:33.870	1.26	-0.56	0.28	0.049776	0.054412	1.013576	0.108	-0.3045	0.147	0	2	1035	1
2026-02-11	16:06:33.890	1.26	-0.56	0.28	0.055144	0.049776	1.013332	0.105	-0.3	0.141	0	2	1035	1
2026-02-11	16:06:33.910	1.26	-0.56	0.28	0.05368	0.053924	1.013332	0.102	-0.294	0.141	0	2	1035	1
2026-02-11	16:06:33.930	1.26	-0.56	0.245	0.051728	0.052216	1.014308	0.102	-0.2955	0.138	0	2	1035	1
2026-02-11	16:06:33.950	1.26	-0.56	0.245	0.052216	0.054412	1.011868	0.1035	-0.3	0.1395	0	2	1035	1
2026-02-11	16:06:33.970	1.26	-0.595	0.245	0.057096	0.054168	1.013332	0.1035	-0.3015	0.147	0	2	1035	1
2026-02-11	16:06:33.990	1.26	-0.595	0.28	0.05368	0.055144	1.010404	0.1035	-0.3015	0.1455	0	2	1035	1
2026-02-11	16:06:34.010	1.295	-0.56	0.245	0.050752	0.050264	1.011624	0.1035	-0.3	0.1395	0	2	1035	1
2026-02-11	16:06:34.030	1.26	-0.595	0.245	0.05368	0.051972	1.011136	0.1035	-0.3	0.135	0	2	1035	1
2026-02-11	16:06:34.050	1.26	-0.56	0.28	0.055388	0.05246	1.01016	0.1035	-0.294	0.1365	0	2	1035	1
2026-02-11	16:06:34.070	1.225	-0.56	0.245	0.05612	0.050264	1.012112	0.1035	-0.2925	0.138	0	2	1035	1
2026-02-11	16:06:34.090	1.26	-0.525	0.245	0.053924	0.052216	1.009916	0.1065	-0.2955	0.1425	0	2	1035	1
2026-02-11	16:06:34.110	1.225	-0.56	0.28	0.0549	0.049044	1.0126	0.108	-0.2985	0.141	0	2	1035	1
2026-02-11	16:06:34.130	1.225	-0.56	0.245	0.054168	0.052216	1.013088	0.105	-0.303	0.138	0	2	1035	1
2026-02-11	16:06:34.150	1.225	-0.56	0.245	0.052948	0.052948	1.012356	0.108	-0.3015	0.1395	0	2	1035	1
2026-02-11	16:06:34.170	1.225	-0.525	0.245	0.053436	0.0549	1.010404	0.1095	-0.2985	0.141	0	2	1035	1
2026-02-11	16:06:34.190	1.26	-0.56	0.245	0.053924	0.05368	1.013088	0.1065	-0.2985	0.141	0	2	1035	1
2026-02-11	16:06:34.210	1.225	-0.525	0.28	0.05124	0.053436	1.01016	0.1065	-0.3015	0.1395	0	2	1035	1
2026-02-11	16:06:34.230	1.225	-0.525	0.245	0.05246	0.05124	1.01138	0.099	-0.306	0.1425	0	2	1035	1
2026-02-11	16:06:34.250	1.225	-0.525	0.28	0.050508	0.05246	1.01382	0.0975	-0.3015	0.1395	0	2	1035	1
2026-02-11	16:06:34.270	1.26	-0.56	0.245	0.053436	0.055632	1.01382	0.1035	-0.2985	0.135	0	2	1035	1
2026-02-11	16:06:34.290	1.19	-0.56	0.245	0.056608	0.053192	1.011624	0.105	-0.3	0.1395	0	2	1035	1
2026-02-11	16:06:34.310	1.26	-0.525	0.21	0.054168	0.05246	1.013576	0.102	-0.3015	0.1425	0	2	1035	1
2026-02-11	16:06:34.330	1.295	-0.56	0.28	0.053192	0.052216	1.014308	0.102	-0.3015	0.144	0	2	1035	1
2026-02-11	16:06:34.350	1.225	-0.595	0.28	0.054168	0.056608	1.010648	0.105	-0.3015	0.1425	0	2	1035	1
2026-02-11	16:06:34.370	1.225	-0.56	0.245	0.054168	0.052948	1.014064	0.1035	-0.2985	0.1395	0	2	1035	1
2026-02-11	16:06:34.390	1.26	-0.56	0.245	0.056608	0.053436	1.011868	0.102	-0.2985	0.1425	0	2	1035	1
2026-02-11	16:06:34.410	1.26	-0.56	0.28	0.055388	0.051728	1.010892	0.102	-0.2985	0.1425	0	2	1035	1
2026-02-11	16:06:34.430	1.26	-0.56	0.245	0.05612	0.05124	1.01138	0.099	-0.297	0.1455	0	2	1035	1
2026-02-11	16:06:34.450	1.26	-0.56	0.245	0.057096	0.051972	1.015528	0.099	-0.297	0.1455	0	2	1035	1
2026-02-11	16:06:34.470	1.26	-0.595	0.28	0.053436	0.053924	1.014552	0.1005	-0.3075	0.1455	0	2	1035	1
2026-02-11	16:06:34.490	1.26	-0.56	0.245	0.058316	0.051728	1.00772	0.0975	-0.309	0.1455	0	2	1035	1
2026-02-11	16:06:34.510	1.295	-0.49	0.28	0.054656	0.052704	1.0126	0.1035	-0.2985	0.147	0	2	1035	1
2026-02-11	16:06:34.530	1.26	-0.56	0.28	0.051728	0.055388	1.011868	0.1005	-0.3015	0.138	0	2	1035	1
2026-02-11	16:06:34.550	1.26	-0.595	0.245	0.055388	0.052704	1.012844	0.105	-0.3	0.141	0	2	1035	1
2026-02-11	16:06:34.570	1.26	-0.595	0.28	0.053192	0.051972	1.010404	0.1095	-0.3045	0.144	0	2	1035	1
2026-02-11	16:06:34.590	1.295	-0.56	0.28	0.055876	0.054412	1.01138	0.105	-0.3015	0.1425	0	2	1035	1
2026-02-11	16:06:34.610	1.295	-0.56	0.28	0.055876	0.053436	1.0126	0.1095	-0.303	0.144	0	2	1035	1
2026-02-11	16:06:34.630	1.26	-0.525	0.245	0.050508	0.05124	1.014552	0.102	-0.3015	0.1395	0	2	1035	1
2026-02-11	16:06:34.650	1.26	-0.595	0.315	0.053924	0.053924	1.014552	0.096	-0.309	0.138	0	2	1035	1
2026-02-11	16:06:34.670	1.26	-0.595	0.28	0.052216	0.052216	1.011136	0.1065	-0.297	0.1455	0	2	1035	1
2026-02-11	16:06:34.690	1.26	-0.56	0.245	0.054168	0.0549	1.012112	0.096	-0.3075	0.144	0	2	1035	1
2026-02-11	16:06:34.710	1.225	-0.56	0.245	0.053436	0.05368	1.014552	0.1065	-0.297	0.1425	0	2	1035	1
2026-02-11	16:06:34.730	1.225	-0.525	0.28	0.054412	0.054168	1.014796	0.1065	-0.297	0.1425	0	2	1035	1
2026-02-11	16:06:34.750	1.26	-0.595	0.28	0.05612	0.051972	1.011868	0.1065	-0.297	0.1425	0	2	1035	1
2026-02-11	16:06:34.770	1.26	-0.525	0.28	0.053436	0.052948	1.015528	0.1035	-0.297	0.141	0	2	1035	1
2026-02-11	16:06:34.790	1.19	-0.595	0.28	0.05002	0.05246	1.011624	0.1035	-0.297	0.1365	0	2	1035	1
2026-02-11	16:06:34.810	1.295	-0.56	0.245	0.0549	0.052704	1.012112	0.108	-0.3015	0.135	0	2	1035	1
2026-02-11	16:06:34.830	1.26	-0.56	0.245	0.053924	0.053192	1.010892	0.105	-0.3045	0.138	0	2	1035	1
2026-02-11	16:06:34.850	1.295	-0.49	0.28	0.053436	0.055632	1.0126	0.1035	-0.3	0.1395	0	2	1035	1
2026-02-11	16:06:34.870	1.225	-0.525	0.28	0.05124	0.055144	1.014308	0.105	-0.2985	0.138	0	2	1035	1
2026-02-11	16:06:34.890	1.295	-0.525	0.28	0.050996	0.054412	1.013576	0.105	-0.3015	0.1395	0	2	1035	1
2026-02-11	16:06:34.910	1.225	-0.595	0.28	0.052216	0.053924	1.010648	0.1035	-0.3015	0.1455	0	2	1035	1
2026-02-11	16:06:34.930	1.295	-0.56	0.28	0.052948	0.051972	1.01138	0.1035	-0.297	0.144	0	2	1035	1
2026-02-11	16:06:34.950	1.19	-0.525	0.245	0.05124	0.055144	1.011624	0.105	-0.297	0.141	0	2	1035	1
2026-02-11	16:06:34.970	1.225	-0.525	0.245	0.0549	0.05124	1.010648	0.1035	-0.297	0.1395	0	2	1035	1
2026-02-11	16:06:34.990	1.26	-0.49	0.245	0.052948	0.052704	1.013332	0.108	-0.297	0.1365	0	2	1035	1
2026-02-11	16:06:35.010	1.295	-0.525	0.245	0.05246	0.057584	1.01504	0.1125	-0.297	0.1425	0	2	1035	1
2026-02-11	16:06:35.030	1.225	-0.63	0.28	0.054168	0.055144	1.010404	0.1035	-0.2985	0.1425	0	2	1035	1
2026-02-11	16:06:35.050	1.26	-0.56	0.28	0.055144	0.0549	1.01138	0.102	-0.3015	0.1395	0	2	1035	1
2026-02-11	16:06:35.070	1.19	-0.56	0.28	0.054168	0.050264	1.011136	0.1065	-0.3	0.141	0	2	1035	1
2026-02-11	16:06:35.090	1.26	-0.49	0.245	0.050996	0.054168	1.012844	0.105	-0.2985	0.138	0	2	1035	1
2026-02-11	16:06:35.110	1.225	-0.56	0.28	0.054412	0.05246	1.013332	0.105	-0.2955	0.1395	0	2	1035	1
2026-02-11	16:06:35.130	1.295	-0.56	0.245	0.054168	0.054656	1.012112	0.105	-0.2985	0.1395	0	2	1035	1
2026-02-11	16:06:35.150	1.225	-0.56	0.28	0.055388	0.052948	1.009428	0.1035	-0.3	0.141	0	2	1035	1
2026-02-11	16:06:35.170	1.225	-0.56	0.28	0.055144	0.054656	1.012112	0.1005	-0.297	0.1425	0	2	1035	1
2026-02-11	16:06:35.190	1.295	-0.525	0.245	0.054168	0.052704	1.015528	0.105	-0.2985	0.1425	0	2	1035	1
2026-02-11	16:06:35.210	1.26	-0.56	0.245	0.051972	0.050264	1.01138	0.105	-0.3	0.1425	0	2	1035	1
2026-02-11	16:06:35.230	1.225	-0.595	0.28	0.052948	0.050996	1.006744	0.099	-0.294	0.1425	0	2	1035	1
2026-02-11	16:06:35.250	1.295	-0.525	0.245	0.054168	0.051484	1.016016	0.1005	-0.297	0.1395	0	2	1035	1
2026-02-11	16:06:35.270	1.26	-0.525	0.28	0.053192	0.0488	1.013332	0.1065	-0.3045	0.141	0	2	1035	1
2026-02-11	16:06:35.290	1.295	-0.56	0.28	0.054168	0.05368	1.011136	0.105	-0.303	0.1425	0	2	1035	1
2026-02-11	16:06:35.310	1.225	-0.595	0.245	0.054656	0.054412	1.011868	0.1035	-0.306	0.1425	0	2	1035	1
2026-02-11	16:06:35.330	1.225	-0.56	0.245	0.055388	0.054412	1.010892	0.1065	-0.3045	0.1425	0	2	1035	1
2026-02-11	16:06:35.350	1.225	-0.56	0.245	0.055388	0.056364	1.010648	0.105	-0.297	0.135	0	2	1035	1
2026-02-11	16:06:35.370	1.225	-0.525	0.245	0.054412	0.054412	1.012356	0.1065	-0.3	0.1365	0	2	1035	1
2026-02-11	16:06:35.390	1.295	-0.525	0.28	0.05368	0.05368	1.014796	0.1035	-0.303	0.144	0	2	1035	1
2026-02-11	16:06:35.410	1.225	-0.56	0.28	0.052704	0.054656	1.013088	0.0975	-0.3075	0.1425	0	2	1035	1
2026-02-11	16:06:35.430	1.26	-0.525	0.28	0.054656	0.051728	1.01138	0.0975	-0.3075	0.141	0	2	1035	1
2026-02-11	16:06:35.450	1.225	-0.56	0.28	0.05246	0.05612	1.012844	0.1005	-0.3045	0.1425	0	2	1035	1
2026-02-11	16:06:35.470	1.26	-0.56	0.245	0.053436	0.053436	1.014552	0.102	-0.3045	0.1425	0	2	1035	1
2026-02-11	16:06:35.490	1.26	-0.525	0.28	0.055388	0.052948	1.013576	0.102	-0.3045	0.1425	0	2	1035	1
2026-02-11	16:06:35.510	1.225	-0.56	0.28	0.055876	0.054168	1.013576	0.102	-0.3045	0.1425	0	2	1035	1
2026-02-11	16:06:35.530	1.26	-0.56	0.28	0.05368	0.054656	1.014064	0.105	-0.297	0.135	0	2	1035	1
2026-02-11	16:06:35.550	1.225	-0.56	0.245	0.055144	0.05246	1.012112	0.108	-0.303	0.147	0	2	1035	1
