yyyy-MM-dd	HH:mm:ss.fff	gyrX	gyrY	gyrZ	accX	accY	accZ	magX	magY	magZ	Marker	Energy	Angle	Classification
2026-02-11	16:06:07.410	-0.14	0.105	-0.455	0.009516	-0.012688	1.009916	0.6075	0.036	0.009	0	54	1028	1
2026-02-11	16:06:07.430	-0.14	0.07	-0.455	0.011224	-0.00854	1.006256	0.6075	0.036	0.009	0	54	1028	1
2026-02-11	16:06:07.450	-0.175	0.105	-0.455	0.011468	-0.01098	1.006988	0.606	0.039	0.012	0	54	1028	1
2026-02-11	16:06:07.470	-0.175	0.14	-0.455	0.009516	-0.010736	1.010404	0.603	0.042	0.0105	0	54	1028	1
2026-02-11	16:06:07.490	-0.105	0.14	-0.42	0.014884	-0.01098	1.008452	0.6045	0.0435	0.009	0	54	1028	1
2026-02-11	16:06:07.510	-0.105	0.105	-0.455	0.007564	-0.008296	1.00528	0.6045	0.042	0.0105	0	54	1028	1
2026-02-11	16:06:07.530	-0.105	0.105	-0.455	0.012688	-0.009028	1.007964	0.603	0.042	0.012	0	54	1028	1
2026-02-11	16:06:07.550	-0.14	0.105	-0.455	0.010492	-0.01098	1.009672	0.609	0.039	0.0045	0	54	1028	1
2026-02-11	16:06:07.570	-0.14	0.105	-0.42	0.01342	-0.011468	1.005768	0.6015	0.0315	0.015	0	54	1028	1
2026-02-11	16:06:07.590	-0.14	0.105	-0.455	0.012688	-0.010248	1.01138	0.606	0.039	0.0105	0	54	1028	1
2026-02-11	16:06:07.610	-0.105	0.14	-0.455	0.0122	-0.010248	1.011868	0.606	0.0405	0.0195	0	46	1029	1
2026-02-11	16:06:07.630	-0.07	0.14	-0.455	0.011224	-0.01342	1.006256	0.6015	0.0435	0.006	0	46	1029	1
2026-02-11	16:06:07.650	-0.105	0.14	-0.455	0.006588	-0.006832	1.00772	0.5955	0.045	0.0195	0	46	1029	1
2026-02-11	16:06:07.670	-0.14	0.14	-0.385	0.00732	-0.00976	1.00772	0.6075	0.0435	0.0195	0	46	1029	1
2026-02-11	16:06:07.690	-0.14	0.105	-0.49	0.011224	-0.009272	1.011136	0.5985	0.027	0.0105	0	46	1029	1
2026-02-11	16:06:07.710	-0.14	0.14	-0.455	0.010004	-0.01098	1.008452	0.6	0.0375	0.012	0	46	1029	1
2026-02-11	16:06:07.730	-0.14	0.105	-0.42	0.006832	-0.008296	1.008696	0.6015	0.0435	0.012	0	46	1029	1
2026-02-11	16:06:07.750	-0.14	0.14	-0.455	0.006832	-0.008784	1.00772	0.603	0.039	0.009	0	46	1029	1
2026-02-11	16:06:07.770	-0.175	0.105	-0.455	0.009516	-0.013176	1.009428	0.6015	0.0405	0.0075	0	46	1029	1
2026-02-11	16:06:07.790	-0.105	0.14	-0.455	0.01098	-0.01098	1.008696	0.6	0.0405	0.0105	0	46	1029	1
2026-02-11	16:06:07.810	-0.14	0.14	-0.455	0.010736	-0.01342	1.010404	0.6	0.042	0.0105	0	40	1029	1
2026-02-11	16:06:07.830	-0.105	0.07	-0.455	0.01464	-0.00854	1.005524	0.597	0.045	0.0135	0	40	1029	1
2026-02-11	16:06:07.850	-0.14	0.105	-0.49	0.012932	-0.009028	1.0065	0.603	0.0435	0.012	0	40	1029	1
2026-02-11	16:06:07.870	-0.14	0.14	-0.455	0.009516	-0.010248	1.010404	0.603	0.039	0.0105	0	40	1029	1
2026-02-11	16:06:07.890	-0.07	0.14	-0.42	0.009028	-0.009272	1.008696	0.6	0.039	0.0135	0	40	1029	1
2026-02-11	16:06:07.910	-0.105	0.14	-0.455	0.010004	-0.010004	1.005524	0.606	0.042	0.0105	0	40	1029	1
2026-02-11	16:06:07.930	-0.105	0.14	-0.455	0.011468	-0.010492	1.00894	0.6	0.0435	0.0105	0	40	1029	1
2026-02-11	16:06:07.950	-0.14	0.14	-0.455	0.01342	-0.011956	1.009916	0.5925	0.0465	0.0135	0	40	1029	1
2026-02-11	16:06:07.970	-0.14	0.105	-0.42	0.011468	-0.01098	1.006744	0.5925	0.0465	0.0135	0	40	1029	1
2026-02-11	16:06:07.990	-0.14	0.105	-0.42	0.006832	-0.010736	1.010892	0.603	0.0375	0.009	0	40	1029	1
2026-02-11	16:06:08.010	-0.105	0.105	-0.42	0.008296	-0.01342	1.01016	0.609	0.039	0.0105	0	35	1030	1
2026-02-11	16:06:08.030	-0.105	0.14	-0.455	0.00854	-0.01098	1.010892	0.609	0.0375	0.015	0	35	1030	1
2026-02-11	16:06:08.050	-0.175	0.105	-0.455	0.011956	-0.010004	1.008696	0.603	0.039	0.0105	0	35	1030	1
2026-02-11	16:06:08.070	-0.14	0.105	-0.455	0.010736	-0.0122	1.007964	0.6075	0.0405	0.0105	0	35	1030	1
2026-02-11	16:06:08.090	-0.14	0.105	-0.42	0.008052	-0.010004	1.009672	0.609	0.0465	0.012	0	35	1030	1
2026-02-11	16:06:08.110	-0.14	0.105	-0.455	0.009272	-0.010492	1.007964	0.6	0.036	0.0075	0	35	1030	1
2026-02-11	16:06:08.130	-0.14	0.14	-0.42	0.014152	-0.0122	1.008696	0.6105	0.039	0.0135	0	35	1030	1
2026-02-11	16:06:08.150	-0.14	0.105	-0.49	0.009516	-0.011468	1.005524	0.603	0.0405	0.0135	0	35	1030	1
2026-02-11	16:06:08.170	-0.14	0.14	-0.455	0.011224	-0.01464	1.008452	0.5985	0.042	0.0135	0	35	1030	1
2026-02-11	16:06:08.190	-0.105	0.105	-0.49	0.01098	-0.007076	1.012356	0.603	0.042	0.012	0	35	1030	1
2026-02-11	16:06:08.210	-0.105	0.105	-0.49	0.008052	-0.009028	1.005768	0.603	0.0435	0.0105	0	30	1030	1
2026-02-11	16:06:08.230	-0.14	0.14	-0.455	0.0122	-0.006588	1.003816	0.603	0.042	0.009	0	30	1030	1
2026-02-11	16:06:08.250	-0.14	0.14	-0.42	0.011224	-0.008052	1.009184	0.603	0.0405	0.0135	0	30	1030	1
2026-02-11	16:06:08.270	-0.14	0.105	-0.455	0.009516	-0.011956	1.01016	0.6045	0.0405	0.021	0	30	1030	1
2026-02-11	16:06:08.290	-0.14	0.14	-0.455	0.00976	-0.01098	1.005524	0.603	0.0405	0.0105	0	30	1030	1
2026-02-11	16:06:08.310	-0.105	0.14	-0.455	0.010248	-0.007564	1.007476	0.6075	0.0375	0.012	0	30	1030	1
2026-02-11	16:06:08.330	-0.105	0.14	-0.455	0.010736	-0.00976	1.008208	0.6	0.0375	0.012	0	30	1030	1
2026-02-11	16:06:08.350	-0.14	0.14	-0.42	0.010736	-0.01342	1.008696	0.606	0.036	0.0105	0	30	1030	1
2026-02-11	16:06:08.370	-0.105	0.14	-0.455	0.013176	-0.00976	1.00772	0.6015	0.03	0.0165	0	30	1030	1
2026-02-11	16:06:08.390	-0.105	0.14	-0.49	0.009028	-0.015372	1.007964	0.5955	0.033	0.0075	0	30	1030	1
2026-02-11	16:06:06.410	-0.105	0.105	-0.42	0.0122	-0.013908	1.008452	0.603	0.0375	0.0075	0	121	1017	1
2026-02-11	16:06:06.430	-0.14	0.105	-0.42	0.006344	-0.010248	1.008452	0.603	0.0435	0.0135	0	121	1017	1
2026-02-11	16:06:06.450	-0.14	0.175	-0.42	0.010492	-0.010736	1.006988	0.609	0.0345	0.0165	0	121	1017	1
2026-02-11	16:06:06.470	-0.105	0.14	-0.42	0.01342	-0.012688	1.006988	0.609	0.0405	0.006	0	121	1017	1
2026-02-11	16:06:06.490	-0.14	0.14	-0.455	0.009028	-0.007808	1.008208	0.606	0.042	0.0075	0	121	1017	1
2026-02-11	16:06:06.510	-0.07	0.105	-0.455	0.011468	-0.009516	1.00894	0.6015	0.036	0.0105	0	121	1017	1
2026-02-11	16:06:06.530	-0.14	0.14	-0.42	0.012444	-0.011224	1.004304	0.6045	0.033	0.006	0	121	1017	1
2026-02-11	16:06:06.550	-0.14	0.105	-0.42	0.010492	-0.009516	1.010404	0.6	0.051	0.0015	0	121	1017	1
2026-02-11	16:06:06.570	-0.14	0.105	-0.42	0.011956	-0.009516	1.008452	0.6015	0.042	0.006	0	121	1017	1
2026-02-11	16:06:06.590	-0.105	0.14	-0.455	0.011712	-0.009028	1.007476	0.609	0.042	0.009	0	121	1017	1
2026-02-11	16:06:06.610	-0.105	0.14	-0.455	0.01098	-0.00976	1.005524	0.6015	0.051	0.018	0	102	1020	1
2026-02-11	16:06:06.630	-0.105	0.14	-0.455	0.010736	-0.011468	1.00772	0.6045	0.0465	0.0165	0	102	1020	1
2026-02-11	16:06:06.650	-0.14	0.105	-0.455	0.011956	-0.009516	1.008452	0.6075	0.036	0.0135	0	102	1020	1
2026-02-11	16:06:06.670	-0.105	0.14	-0.455	0.010736	-0.008296	1.008696	0.606	0.0345	0.0105	0	102	1020	1
2026-02-11	16:06:06.690	-0.14	0.14	-0.455	0.008784	-0.015128	1.007232	0.603	0.036	0.0105	0	102	1020	1
2026-02-11	16:06:06.710	-0.105	0.14	-0.455	0.011712	-0.00854	1.009428	0.6045	0.0375	0.012	0	102	1020	1
2026-02-11	16:06:06.730	-0.105	0.14	-0.455	0.010492	-0.009028	1.005524	0.6075	0.042	0.0135	0	102	1020	1
2026-02-11	16:06:06.750	-0.105	0.105	-0.455	0.010492	-0.010492	1.007476	0.6075	0.0405	0.0135	0	102	1020	1
2026-02-11	16:06:06.770	-0.14	0.07	-0.455	0.012932	-0.007808	1.007232	0.606	0.0345	0.0075	0	102	1020	1
2026-02-11	16:06:06.790	-0.14	0.105	-0.455	0.009028	-0.00854	1.008452	0.6045	0.036	0.0075	0	102	1020	1
2026-02-11	16:06:06.810	-0.14	0.14	-0.42	0.009272	-0.011956	1.009184	0.6045	0.0405	0.0105	0	86	1023	1
2026-02-11	16:06:06.830	-0.105	0.14	-0.455	0.011468	-0.014396	1.005768	0.597	0.0375	0.009	0	86	1023	1
2026-02-11	16:06:06.850	-0.105	0.14	-0.455	0.009516	-0.011712	1.009428	0.5955	0.036	0.009	0	86	1023	1
2026-02-11	16:06:06.870	-0.105	0.105	-0.455	0.013664	-0.008784	1.004792	0.603	0.036	0.015	0	86	1023	1
2026-02-11	16:06:06.890	-0.105	0.14	-0.42	0.012688	-0.009272	1.0065	0.603	0.0405	0.018	0	86	1023	1
2026-02-11	16:06:06.910	-0.105	0.14	-0.455	0.00976	-0.011468	1.011624	0.6	0.042	0.0135	0	86	1023	1
2026-02-11	16:06:06.930	-0.105	0.14	-0.455	0.009272	-0.009272	1.007232	0.6	0.0435	0.0105	0	86	1023	1
2026-02-11	16:06:06.950	-0.14	0.105	-0.42	0.008052	-0.011468	1.010892	0.603	0.045	0.012	0	86	1023	1
2026-02-11	16:06:06.970	-0.105	0.14	-0.455	0.013908	-0.01098	1.006744	0.603	0.0405	0.012	0	86	1023	1
2026-02-11	16:06:06.990	-0.14	0.175	-0.455	0.006588	-0.0122	1.006744	0.6	0.0405	0.0075	0	86	1023	1
2026-02-11	16:06:13.010	-0.105	0.105	-0.49	0.00854	-0.012688	1.006988	0.3705	0.0735	0.0795	0	388	777	1
2026-02-11	16:06:13.030	-0.14	0.14	-0.42	0.010248	-0.008784	1.00528	0.3585	0.0675	0.0855	0	388	777	1
2026-02-11	16:06:13.050	-0.14	0.14	-0.455	0.011224	-0.008052	1.009428	0.369	0.0705	0.081	0	388	777	1
2026-02-11	16:06:13.070	-0.14	0.14	-0.455	0.006344	-0.01098	1.005524	0.363	0.0735	0.078	0	388	777	1
2026-02-11	16:06:13.090	-0.175	0.105	-0.455	0.008784	-0.010492	1.00528	0.3645	0.075	0.084	0	388	777	1
2026-02-11	16:06:13.110	-0.175	0.105	-0.49	0.01098	-0.007564	1.011868	0.366	0.0705	0.0885	0	388	777	1
2026-02-11	16:06:13.130	-0.105	0.14	-0.49	0.006832	-0.00976	1.007232	0.363	0.0675	0.0825	0	388	777	1
2026-02-11	16:06:13.150	-0.105	0.105	-0.455	0.009516	-0.008052	1.007964	0.3645	0.069	0.0795	0	388	777	1
2026-02-11	16:06:13.170	-0.14	0.105	-0.49	0.010004	-0.010736	1.006012	0.366	0.0705	0.081	0	388	777	1
2026-02-11	16:06:13.190	-0.14	0.14	-0.455	0.010492	-0.013176	1.012844	0.3675	0.0705	0.081	0	388	777	1
2026-02-11	16:06:13.210	-0.07	0.14	-0.455	0.00854	-0.00976	1.006988	0.369	0.0675	0.0765	0	388	845	1
2026-02-11	16:06:13.230	-0.14	0.105	-0.455	0.009028	-0.007808	1.00406	0.366	0.0705	0.081	0	388	845	1
2026-02-11	16:06:13.250	-0.21	0.14	-0.455	0.00976	-0.010736	1.014064	0.3675	0.0675	0.09	0	388	845	1
2026-02-11	16:06:13.270	-0.14	0.14	-0.455	0.011712	-0.010248	1.011868	0.3675	0.0645	0.0855	0	388	845	1
2026-02-11	16:06:13.290	-0.105	0.14	-0.42	0.011224	-0.010492	1.004548	0.3615	0.069	0.081	0	388	845	1
2026-02-11	16:06:13.310	-0.14	0.105	-0.455	0.012688	-0.006588	1.01016	0.3645	0.069	0.084	0	388	845	1
2026-02-11	16:06:13.330	-0.14	0.14	-0.455	0.00854	-0.0122	1.01138	0.3705	0.0675	0.0885	0	388	845	1
2026-02-11	16:06:13.350	-0.105	0.105	-0.455	0.008784	-0.008052	1.010648	0.3705	0.0675	0.0885	0	388	845	1
2026-02-11	16:06:13.370	-0.105	0.14	-0.455	0.010004	-0.010492	1.009672	0.3675	0.0645	0.087	0	388	845	1
2026-02-11	16:06:13.390	-0.105	0.14	-0.455	0.012688	-0.010004	1.009184	0.366	0.066	0.087	0	388	845	1
2026-02-11	16:06:13.410	-0.14	0.105	-0.455	0.010248	-0.00976	1.004792	0.3615	0.0735	0.0795	0	367	895	1
2026-02-11	16:06:13.430	-0.14	0.105	-0.49	0.011468	-0.009028	1.0065	0.366	0.0675	0.087	0	367	895	1
2026-02-11	16:06:13.450	-0.14	0.105	-0.455	0.011712	-0.011712	1.011624	0.3675	0.0675	0.0825	0	367	895	1
2026-02-11	16:06:13.470	-0.14	0.14	-0.42	0.009516	-0.011468	1.008208	0.363	0.0645	0.0885	0	367	895	1
2026-02-11	16:06:13.490	-0.105	0.14	-0.42	0.011468	-0.010248	1.0065	0.36	0.0705	0.0855	0	367	895	1
2026-02-11	16:06:13.510	-0.105	0.105	-0.455	0.009272	-0.011224	1.004548	0.3615	0.069	0.084	0	367	895	1
2026-02-11	16:06:13.530	-0.14	0.105	-0.455	0.00976	-0.011224	1.009184	0.363	0.066	0.0825	0	367	895	1
2026-02-11	16:06:13.550	-0.14	0.175	-0.455	0.012444	-0.00488	1.007476	0.366	0.0645	0.078	0	367	895	1
2026-02-11	16:06:13.570	-0.105	0.14	-0.49	0.008784	-0.013664	1.0065	0.3705	0.069	0.078	0	367	895	1
2026-02-11	16:06:13.590	-0.14	0.14	-0.455	0.010004	-0.011712	1.009428	0.3705	0.069	0.078	0	367	895	1
2026-02-11	16:06:13.610	-0.14	0.105	-0.455	0.011224	-0.009028	1.008696	0.369	0.066	0.0765	0	333	932	1
2026-02-11	16:06:13.630	-0.14	0.105	-0.455	0.010736	-0.009272	1.006256	0.3675	0.066	0.0825	0	333	932	1
2026-02-11	16:06:13.650	-0.14	0.105	-0.42	0.010736	-0.011468	1.011136	0.369	0.0675	0.081	0	333	932	1
2026-02-11	16:06:13.670	-0.14	0.105	-0.455	0.009516	-0.010492	1.010892	0.3675	0.072	0.0855	0	333	932	1
2026-02-11	16:06:13.690	-0.105	0.14	-0.42	0.012444	-0.011468	1.007476	0.3645	0.069	0.0765	0	333	932	1
2026-02-11	16:06:13.710	-0.14	0.105	-0.49	0.008052	-0.00732	1.004792	0.366	0.072	0.0795	0	333	932	1
2026-02-11	16:06:13.730	-0.14	0.14	-0.455	0.010004	-0.011712	1.008208	0.381	0.066	0.0795	0	333	932	1
2026-02-11	16:06:13.750	-0.14	0.14	-0.455	0.011956	-0.011956	1.009672	0.366	0.0705	0.084	0	333	932	1
2026-02-11	16:06:13.770	-0.105	0.14	-0.42	0.008784	-0.013176	1.00894	0.363	0.069	0.0825	0	333	932	1
2026-02-11	16:06:13.790	-0.105	0.14	-0.455	0.009272	-0.010492	1.006988	0.3705	0.066	0.0885	0	333	932	1
2026-02-11	16:06:13.810	-0.14	0.14	-0.455	0.01098	-0.0122	1.010892	0.3615	0.0705	0.081	0	293	959	1
2026-02-11	16:06:13.830	-0.105	0.14	-0.455	0.011224	-0.010248	1.006256	0.363	0.072	0.0825	0	293	959	1
2026-02-11	16:06:13.850	-0.14	0.105	-0.455	0.01098	-0.008052	1.00894	0.363	0.0705	0.081	0	293	959	1
2026-02-11	16:06:13.870	-0.14	0.105	-0.49	0.006832	-0.00732	1.008696	0.363	0.0765	0.084	0	293	959	1
2026-02-11	16:06:13.890	-0.14	0.105	-0.455	0.010248	-0.00854	1.011136	0.363	0.0705	0.0825	0	293	959	1
2026-02-11	16:06:13.910	-0.14	0.105	-0.455	0.00976	-0.012688	1.008208	0.366	0.0705	0.0825	0	293	959	1
2026-02-11	16:06:13.930	-0.105	0.14	-0.455	0.009028	-0.013664	1.008696	0.3705	0.0705	0.0825	0	293	959	1
2026-02-11	16:06:13.950	-0.14	0.14	-0.49	0.009028	-0.009272	1.00772	0.372	0.0675	0.078	0	293	959	1
2026-02-11	16:06:13.970	-0.105	0.105	-0.455	0.011468	-0.010248	1.006744	0.366	0.066	0.0795	0	293	959	1
2026-02-11	16:06:13.990	-0.14	0.105	-0.455	0.00976	-0.008052	1.00406	0.3615	0.0645	0.084	0	293	959	1
2026-02-11	16:06:14.010	-0.175	0.14	-0.49	0.012688	-0.010492	1.01016	0.3615	0.063	0.087	0	252	978	1
2026-02-11	16:06:14.030	-0.175	0.175	-0.455	0.009272	-0.00854	1.01138	0.363	0.063	0.084	0	252	978	1
2026-02-11	16:06:14.050	-0.14	0.14	-0.455	0.0122	-0.007564	1.010404	0.366	0.0615	0.0825	0	252	978	1
2026-02-11	16:06:14.070	-0.105	0.105	-0.455	0.011712	-0.01098	1.00528	0.3675	0.063	0.0855	0	252	978	1
2026-02-11	16:06:14.090	-0.105	0.14	-0.49	0.010004	-0.012444	1.008452	0.3645	0.0645	0.084	0	252	978	1
2026-02-11	16:06:14.110	-0.14	0.105	-0.455	0.007808	-0.010736	1.008696	0.3615	0.0645	0.081	0	252	978	1
2026-02-11	16:06:14.130	-0.175	0.14	-0.49	0.01098	-0.011468	1.00772	0.3615	0.0645	0.081	0	252	978	1
2026-02-11	16:06:14.150	-0.14	0.105	-0.455	0.011224	-0.010492	1.01016	0.3645	0.063	0.0825	0	252	978	1
2026-02-11	16:06:14.170	-0.105	0.14	-0.455	0.010248	-0.00976	1.006988	0.372	0.0645	0.084	0	252	978	1
2026-02-11	16:06:14.190	-0.105	0.14	-0.455	0.013176	-0.01098	1.007476	0.372	0.0675	0.084	0	252	978	1
2026-02-11	16:06:14.210	-0.175	0.105	-0.42	0.010736	-0.0122	1.007964	0.3675	0.0645	0.081	0	213	992	1
2026-02-11	16:06:14.230	-0.14	0.105	-0.455	0.009272	-0.01342	1.010404	0.3675	0.0675	0.0795	0	213	992	1
2026-02-11	16:06:14.250	-0.14	0.14	-0.455	0.0122	-0.009028	1.01138	0.3645	0.072	0.0825	0	213	992	1
2026-02-11	16:06:14.270	-0.105	0.14	-0.455	0.012444	-0.010004	1.003084	0.366	0.069	0.084	0	213	992	1
2026-02-11	16:06:14.290	-0.14	0.175	-0.42	0.011712	-0.009516	1.011868	0.372	0.0705	0.084	0	213	992	1
2026-02-11	16:06:14.310	-0.14	0.105	-0.42	0.010004	-0.010004	1.005768	0.3675	0.0705	0.084	0	213	992	1
2026-02-11	16:06:14.330	-0.175	0.14	-0.49	0.008052	-0.010492	1.006256	0.366	0.0675	0.084	0	213	992	1
2026-02-11	16:06:14.350	-0.175	0.14	-0.455	0.010004	-0.009516	1.012356	0.369	0.0675	0.0855	0	213	992	1
2026-02-11	16:06:14.370	-0.105	0.14	-0.455	0.01098	-0.010492	1.008452	0.3705	0.066	0.0885	0	213	992	1
2026-02-11	16:06:14.390	-0.105	0.14	-0.455	0.007808	-0.009272	1.007964	0.369	0.0675	0.087	0	213	992	1
2026-02-11	16:06:14.410	-0.105	0.105	-0.455	0.010492	-0.011712	1.007232	0.3645	0.069	0.0825	0	179	1003	1
2026-02-11	16:06:14.430	-0.07	0.105	-0.455	0.00976	-0.010004	1.01016	0.3645	0.069	0.0825	0	179	1003	1
2026-02-11	16:06:14.450	-0.07	0.07	-0.455	0.012444	-0.008784	1.007964	0.3645	0.066	0.078	0	179	1003	1
2026-02-11	16:06:14.470	-0.14	0.14	-0.42	0.009028	-0.010492	1.007232	0.369	0.063	0.0855	0	179	1003	1
2026-02-11	16:06:14.490	-0.14	0.14	-0.42	0.009028	-0.009516	1.007232	0.3615	0.0705	0.081	0	179	1003	1
2026-02-11	16:06:14.510	-0.105	0.14	-0.49	0.009272	-0.0122	1.007232	0.3675	0.0675	0.0795	0	179	1003	1
2026-02-11	16:06:14.530	-0.105	0.105	-0.42	0.008296	-0.012932	1.0065	0.3675	0.066	0.0855	0	179	1003	1
2026-02-11	16:06:14.550	-0.14	0.105	-0.455	0.011956	-0.008052	1.009428	0.369	0.0675	0.0885	0	179	1003	1
2026-02-11	16:06:14.570	-0.07	0.105	-0.455	0.007564	-0.008052	1.00894	0.3765	0.072	0.0885	0	179	1003	1
2026-02-11	16:06:14.590	-0.07	0.07	-0.49	0.011956	-0.008052	1.001376	0.3675	0.066	0.081	0	179	1003	1
2026-02-11	16:06:14.610	-0.105	0.105	-0.455	0.008784	-0.009516	1.011136	0.3645	0.0705	0.0825	0	150	1010	1
2026-02-11	16:06:14.630	-0.105	0.105	-0.455	0.008296	-0.00976	1.007964	0.3645	0.0705	0.0825	0	150	1010	1
2026-02-11	16:06:14.650	-0.14	0.14	-0.455	0.009516	-0.011956	1.00528	0.366	0.0675	0.0855	0	150	1010	1
2026-02-11	16:06:14.670	-0.14	0.14	-0.42	0.012444	-0.01098	1.009916	0.363	0.066	0.0735	0	150	1010	1
2026-02-11	16:06:14.690	-0.14	0.14	-0.49	0.010736	-0.010248	1.006012	0.3675	0.066	0.078	0	150	1010	1
2026-02-11	16:06:14.710	-0.175	0.175	-0.49	0.009272	-0.010492	1.006988	0.369	0.066	0.084	0	150	1010	1
2026-02-11	16:06:14.730	-0.14	0.175	-0.455	0.011224	-0.00976	1.010404	0.366	0.0645	0.0855	0	150	1010	1
2026-02-11	16:06:14.750	-0.14	0.14	-0.455	0.011224	-0.011956	1.0065	0.366	0.0645	0.0855	0	150	1010	1
2026-02-11	16:06:14.770	-0.14	0.14	-0.455	0.009272	-0.010004	1.006744	0.3645	0.0705	0.0795	0	150	1010	1
2026-02-11	16:06:14.790	-0.14	0.14	-0.455	0.010492	-0.011468	1.009184	0.3645	0.0645	0.09	0	150	1010	1
2026-02-11	16:06:14.810	-0.14	0.175	-0.42	0.012444	-0.010492	1.005524	0.363	0.069	0.0825	0	125	1016	1
2026-02-11	16:06:14.830	-0.175	0.14	-0.455	0.012688	-0.009516	1.011136	0.3645	0.0675	0.0855	0	125	1016	1
2026-02-11	16:06:14.850	-0.14	0.175	-0.455	0.00976	-0.012932	1.009916	0.366	0.0645	0.084	0	125	1016	1
2026-02-11	16:06:14.870	-0.105	0.14	-0.49	0.009272	-0.011712	1.006256	0.3645	0.0645	0.0825	0	125	1016	1
2026-02-11	16:06:14.890	-0.14	0.105	-0.42	0.010492	-0.015372	1.007964	0.3705	0.072	0.084	0	125	1016	1
2026-02-11	16:06:14.910	-0.175	0.105	-0.455	0.010004	-0.006832	1.0065	0.357	0.063	0.0825	0	125	1016	1
2026-02-11	16:06:14.930	-0.14	0.105	-0.455	0.011224	-0.00854	1.010404	0.3645	0.066	0.084	0	125	1016	1
2026-02-11	16:06:14.950	-0.14	0.14	-0.49	0.00854	-0.011468	1.010404	0.3645	0.066	0.084	0	125	1016	1
2026-02-11	16:06:14.970	-0.105	0.14	-0.49	0.008784	-0.009516	1.007232	0.366	0.0645	0.0825	0	125	1016	1
2026-02-11	16:06:14.990	-0.14	0.14	-0.455	0.006588	-0.01098	1.008452	0.366	0.0645	0.078	0	125	1016	1
2026-02-11	16:06:15.010	-0.105	0.105	-0.455	0.011956	-0.010736	1.008208	0.3645	0.069	0.075	0	105	1019	1
2026-02-11	16:06:15.030	-0.14	0.14	-0.455	0.008052	-0.013664	1.00894	0.363	0.0705	0.0795	0	105	1019	1
2026-02-11	16:06:15.050	-0.14	0.105	-0.455	0.0122	-0.00976	1.01138	0.3615	0.066	0.0855	0	105	1019	1
2026-02-11	16:06:15.070	-0.105	0.14	-0.455	0.010248	-0.011468	1.006988	0.36	0.063	0.087	0	105	1019	1
2026-02-11	16:06:15.090	-0.14	0.14	-0.455	0.00854	-0.01098	1.009184	0.3615	0.066	0.081	0	105	1019	1
2026-02-11	16:06:15.110	-0.175	0.105	-0.42	0.010736	-0.012688	1.007476	0.363	0.066	0.084	0	105	1019	1
2026-02-11	16:06:15.130	-0.105	0.105	-0.42	0.00854	-0.006832	1.006988	0.3615	0.0645	0.0885	0	105	1019	1
2026-02-11	16:06:15.150	-0.14	0.14	-0.455	0.009272	-0.011468	1.011624	0.363	0.0645	0.084	0	105	1019	1
2026-02-11	16:06:15.170	-0.105	0.105	-0.49	0.01098	-0.01098	1.009672	0.363	0.0645	0.0825	0	105	1019	1
2026-02-11	16:06:15.190	-0.105	0.105	-0.49	0.011468	-0.009272	1.00528	0.3645	0.066	0.081	0	105	1019	1
2026-02-11	16:06:15.210	-0.175	0.14	-0.42	0.0122	-0.007808	1.013332	0.3675	0.0675	0.0795	0	89	1022	1
2026-02-11	16:06:15.230	-0.105	0.105	-0.455	0.010004	-0.011468	1.003084	0.3675	0.0675	0.0795	0	89	1022	1
2026-02-11	16:06:15.250	-0.175	0.105	-0.455	0.01098	-0.013176	1.007476	0.3555	0.0585	0.084	0	89	1022	1
2026-02-11	16:06:15.270	-0.14	0.14	-0.455	0.0122	-0.007808	1.009672	0.3645	0.0705	0.0855	0	89	1022	1
2026-02-11	16:06:15.290	-0.105	0.14	-0.42	0.011468	-0.007808	1.007964	0.36	0.06	0.081	0	89	1022	1
2026-02-11	16:06:15.310	-0.14	0.105	-0.42	0.012444	-0.011712	1.011136	0.3675	0.063	0.0855	0	89	1022	1
2026-02-11	16:06:15.330	-0.105	0.14	-0.42	0.00976	-0.008052	1.006256	0.36	0.066	0.084	0	89	1022	1
2026-02-11	16:06:15.350	-0.105	0.105	-0.455	0.008784	-0.010004	1.005524	0.3705	0.069	0.0885	0	89	1022	1
2026-02-11	16:06:15.370	-0.14	0.105	-0.49	0.012444	-0.010492	1.007964	0.363	0.066	0.0915	0	89	1022	1
2026-02-11	16:06:15.390	-0.14	0.14	-0.49	0.00976	-0.012444	1.00894	0.3615	0.066	0.084	0	89	1022	1
2026-02-11	16:06:15.410	-0.175	0.14	-0.42	0.008784	-0.013664	1.010648	0.3645	0.063	0.084	0	76	1025	1
2026-02-11	16:06:15.430	-0.105	0.105	-0.455	0.010004	-0.012932	1.00772	0.3675	0.0615	0.087	0	76	1025	1
2026-02-11	16:06:15.450	-0.14	0.14	-0.455	0.008784	-0.011468	1.006744	0.3705	0.0615	0.0855	0	76	1025	1
2026-02-11	16:06:15.470	-0.14	0.14	-0.455	0.008784	-0.011224	1.007476	0.3705	0.0645	0.084	0	76	1025	1
2026-02-11	16:06:15.490	-0.105	0.14	-0.49	0.008052	-0.010492	1.003084	0.3675	0.066	0.0855	0	76	1025	1
2026-02-11	16:06:15.510	-0.14	0.14	-0.455	0.007564	-0.010736	1.00894	0.366	0.0675	0.0795	0	76	1025	1
2026-02-11	16:06:15.530	-0.105	0.105	-0.42	0.013908	-0.010736	1.010648	0.366	0.0705	0.0855	0	76	1025	1
2026-02-11	16:06:15.550	-0.14	0.105	-0.42	0.00976	-0.011712	1.003572	0.366	0.063	0.0735	0	76	1025	1
2026-02-11	16:06:15.570	-0.14	0.14	-0.42	0.010492	-0.010736	1.00894	0.3615	0.063	0.075	0	76	1025	1
2026-02-11	16:06:15.590	-0.105	0.105	-0.42	0.011956	-0.010004	1.009184	0.3675	0.0705	0.0825	0	76	1025	1
2026-02-11	16:06:15.610	-0.105	0.105	-0.49	0.012444	-0.012932	1.003572	0.3645	0.066	0.0915	0	65	1026	1
2026-02-11	16:06:15.630	-0.175	0.14	-0.49	0.008296	-0.008296	1.008208	0.366	0.066	0.084	0	65	1026	1
2026-02-11	16:06:15.650	-0.14	0.14	-0.455	0.010248	-0.009272	1.009184	0.3675	0.0675	0.084	0	65	1026	1
2026-02-11	16:06:15.670	-0.07	0.105	-0.455	0.010004	-0.012688	1.006744	0.36	0.0675	0.081	0	65	1026	1
2026-02-11	16:06:15.690	-0.105	0.105	-0.42	0.011468	-0.011224	1.008696	0.366	0.0615	0.084	0	65	1026	1
2026-02-11	16:06:15.710	-0.14	0.105	-0.455	0.008296	-0.00732	1.008452	0.3735	0.0705	0.0885	0	65	1026	1
2026-02-11	16:06:15.730	-0.14	0.105	-0.455	0.009272	-0.007808	1.007232	0.3645	0.069	0.0825	0	65	1026	1
2026-02-11	16:06:15.750	-0.175	0.105	-0.455	0.010248	-0.010736	1.010648	0.3555	0.0645	0.09	0	65	1026	1
2026-02-11	16:06:15.770	-0.07	0.14	-0.49	0.00854	-0.009516	1.0065	0.36	0.066	0.0885	0	65	1026	1
2026-02-11	16:06:15.790	-0.14	0.14	-0.49	0.009516	-0.00976	1.004792	0.3675	0.066	0.0825	0	65	1026	1
2026-02-11	16:06:15.810	-0.14	0.14	-0.42	0.011956	-0.007808	1.006256	0.3675	0.0675	0.084	0	56	1027	1
2026-02-11	16:06:15.830	-0.175	0.105	-0.49	0.011956	-0.008296	1.01138	0.3675	0.069	0.087	0	56	1027	1
2026-02-11	16:06:15.850	-0.14	0.14	-0.455	0.01098	-0.00854	1.006988	0.3645	0.0645	0.0855	0	56	1027	1
2026-02-11	16:06:15.870	-0.14	0.105	-0.42	0.01342	-0.009516	1.0065	0.3615	0.0675	0.087	0	56	1027	1
2026-02-11	16:06:15.890	-0.175	0.105	-0.455	0.010736	-0.012444	1.00772	0.3615	0.0675	0.0885	0	56	1027	1
2026-02-11	16:06:15.910	-0.14	0.14	-0.42	0.01464	-0.010736	1.005768	0.3645	0.0615	0.087	0	56	1027	1
2026-02-11	16:06:15.930	-0.105	0.105	-0.49	0.008052	-0.010248	1.010404	0.3645	0.0615	0.087	0	56	1027	1
2026-02-11	16:06:15.950	-0.105	0.105	-0.455	0.009272	-0.010248	1.0065	0.3615	0.066	0.09	0	56	1027	1
2026-02-11	16:06:15.970	-0.14	0.14	-0.42	0.009272	-0.00854	1.006744	0.3615	0.069	0.0885	0	56	1027	1
2026-02-11	16:06:15.990	-0.175	0.105	-0.455	0.009516	-0.010004	1.008208	0.363	0.0705	0.087	0	56	1027	1
2026-02-11	16:06:16.010	-0.105	0.14	-0.455	0.011956	-0.01098	1.009428	0.3645	0.0705	0.084	0	48	1028	1
2026-02-11	16:06:16.030	-0.105	0.105	-0.49	0.010736	-0.008784	1.00772	0.363	0.069	0.0795	0	48	1028	1
2026-02-11	16:06:16.050	-0.14	0.105	-0.455	0.011468	-0.00854	1.006988	0.3645	0.0675	0.0795	0	48	1028	1
2026-02-11	16:06:16.070	-0.14	0.14	-0.385	0.011468	-0.008296	1.009184	0.369	0.0705	0.087	0	48	1028	1
2026-02-11	16:06:16.090	-0.14	0.105	-0.455	0.008296	-0.011468	1.00772	0.372	0.066	0.084	0	48	1028	1
2026-02-11	16:06:16.110	-0.14	0.14	-0.455	0.011468	-0.006344	1.009184	0.366	0.066	0.078	0	48	1028	1
2026-02-11	16:06:16.130	-0.105	0.14	-0.42	0.008784	-0.007564	1.008208	0.36	0.0705	0.081	0	48	1028	1
2026-02-11	16:06:16.150	-0.14	0.14	-0.455	0.0122	-0.00976	1.00772	0.3615	0.072	0.0855	0	48	1028	1
2026-02-11	16:06:16.170	-0.14	0.14	-0.455	0.007564	-0.009516	1.006744	0.3645	0.072	0.0885	0	48	1028	1
2026-02-11	16:06:16.190	-0.14	0.14	-0.455	0.009028	-0.011712	1.005036	0.3645	0.066	0.084	0	48	1028	1
2026-02-11	16:06:16.210	-0.14	0.105	-0.49	0.010492	-0.009516	1.01138	0.3645	0.0645	0.0825	0	41	1029	1
2026-02-11	16:06:16.230	-0.14	0.105	-0.455	0.011468	-0.011712	1.008696	0.3645	0.0645	0.0825	0	41	1029	1
2026-02-11	16:06:16.250	-0.105	0.105	-0.455	0.00976	-0.011224	1.00894	0.3645	0.0645	0.0825	0	41	1029	1
2026-02-11	16:06:16.270	-0.105	0.105	-0.455	0.012688	-0.008296	1.007476	0.3645	0.0675	0.0855	0	41	1029	1
2026-02-11	16:06:16.290	-0.175	0.105	-0.455	0.00854	-0.010248	1.008208	0.3645	0.0675	0.087	0	41	1029	1
2026-02-11	16:06:16.310	-0.175	0.14	-0.455	0.00732	-0.008296	1.0126	0.363	0.0615	0.084	0	41	1029	1
2026-02-11	16:06:16.330	-0.105	0.14	-0.42	0.010004	-0.00976	1.01016	0.3705	0.072	0.0915	0	41	1029	1
2026-02-11	16:06:16.350	-0.105	0.105	-0.455	0.009028	-0.011468	1.008452	0.369	0.063	0.0915	0	41	1029	1
2026-02-11	16:06:16.370	-0.105	0.14	-0.42	0.00854	-0.009028	1.0065	0.3585	0.0705	0.0855	0	41	1029	1
2026-02-11	16:06:16.390	-0.14	0.105	-0.49	0.011224	-0.009516	1.00772	0.3645	0.069	0.0825	0	41	1029	1
2026-02-11	16:06:16.410	-0.14	0.105	-0.49	0.008296	-0.011712	1.007476	0.3705	0.069	0.081	0	36	1029	1
2026-02-11	16:06:16.430	-0.105	0.105	-0.455	0.010736	-0.010004	1.0065	0.3585	0.075	0.084	0	36	1029	1
2026-02-11	16:06:16.450	-0.175	0.14	-0.42	0.009516	-0.00854	1.008452	0.366	0.0675	0.084	0	36	1029	1
2026-02-11	16:06:16.470	-0.14	0.14	-0.455	0.007076	-0.009272	1.00894	0.375	0.072	0.081	0	36	1029	1
2026-02-11	16:06:16.490	-0.14	0.105	-0.455	0.007808	-0.013908	1.006988	0.366	0.0585	0.084	0	36	1029	1
2026-02-11	16:06:16.510	-0.14	0.14	-0.42	0.013664	-0.01342	1.008452	0.36	0.066	0.087	0	36	1029	1
2026-02-11	16:06:16.530	-0.105	0.14	-0.455	0.009516	-0.009028	1.00772	0.366	0.066	0.081	0	36	1029	1
2026-02-11	16:06:16.550	-0.105	0.105	-0.455	0.010736	-0.010004	1.010404	0.369	0.072	0.0825	0	36	1029	1
2026-02-11	16:06:16.570	-0.07	0.07	-0.455	0.010004	-0.007076	1.00528	0.369	0.072	0.0825	0	36	1029	1
2026-02-11	16:06:16.590	-0.105	0.14	-0.455	0.012688	-0.01098	1.005524	0.3675	0.0675	0.0825	0	36	1029	1
2026-02-11	16:06:16.610	-0.105	0.14	-0.42	0.007076	-0.012688	1.00894	0.3675	0.066	0.081	0	31	1030	1
2026-02-11	16:06:16.630	-0.105	0.105	-0.455	0.011712	-0.01098	1.008696	0.3675	0.069	0.078	0	31	1030	1
2026-02-11	16:06:16.650	-0.105	0.105	-0.455	0.010248	-0.009516	1.006744	0.3585	0.0675	0.0855	0	31	1030	1
2026-02-11	16:06:16.670	-0.14	0.105	-0.455	0.00854	-0.00854	1.01382	0.3645	0.0645	0.0855	0	31	1030	1
2026-02-11	16:06:16.690	-0.105	0.105	-0.49	0.00976	-0.009028	1.0065	0.363	0.069	0.087	0	31	1030	1
2026-02-11	16:06:16.710	-0.14	0.105	-0.455	0.012444	-0.009516	1.00528	0.363	0.0705	0.084	0	31	1030	1
2026-02-11	16:06:16.730	-0.175	0.14	-0.455	0.011956	-0.00976	1.01138	0.3645	0.063	0.087	0	31	1030	1
2026-02-11	16:06:16.750	-0.14	0.105	-0.455	0.011224	-0.012688	1.009672	0.3615	0.066	0.0825	0	31	1030	1
2026-02-11	16:06:16.770	-0.14	0.14	-0.455	0.00976	-0.011712	1.00772	0.3645	0.0645	0.084	0	31	1030	1
2026-02-11	16:06:16.790	-0.14	0.105	-0.455	0.01098	-0.010248	1.01016	0.3585	0.072	0.081	0	31	1030	1
2026-02-11	16:06:16.810	-0.14	0.14	-0.455	0.00854	-0.011712	1.009916	0.3585	0.063	0.0885	0	27	1030	1
2026-02-11	16:06:16.830	-0.105	0.105	-0.455	0.012932	-0.00976	1.007476	0.363	0.0645	0.084	0	27	1030	1
2026-02-11	16:06:16.850	-0.105	0.14	-0.455	0.00854	-0.00976	1.006012	0.363	0.066	0.084	0	27	1030	1
2026-02-11	16:06:16.870	-0.14	0.14	-0.42	0.00976	-0.011956	1.007476	0.369	0.066	0.084	0	27	1030	1
2026-02-11	16:06:16.890	-0.14	0.14	-0.42	0.008296	-0.00854	1.009428	0.372	0.069	0.0855	0	27	1030	1
2026-02-11	16:06:16.910	-0.14	0.105	-0.455	0.009272	-0.010492	1.013088	0.3705	0.0705	0.0855	0	27	1030	1
2026-02-11	16:06:16.930	-0.14	0.14	-0.455	0.011224	-0.012932	1.005768	0.3675	0.069	0.0855	0	27	1030	1
2026-02-11	16:06:16.950	-0.105	0.105	-0.455	0.007564	-0.011468	1.008452	0.3645	0.066	0.084	0	27	1030	1
2026-02-11	16:06:16.970	-0.14	0.14	-0.42	0.00732	-0.011224	1.0065	0.3675	0.063	0.081	0	27	1030	1
2026-02-11	16:06:16.990	-0.14	0.14	-0.42	0.012688	-0.010492	1.0126	0.366	0.0675	0.0795	0	27	1030	1
2026-02-11	16:06:17.010	-0.14	0.14	-0.42	0.010004	-0.013664	1.008696	0.3675	0.072	0.081	0	23	1030	1
2026-02-11	16:06:17.030	-0.105	0.14	-0.455	0.011224	-0.011956	1.00406	0.3675	0.069	0.084	0	23	1030	1
2026-02-11	16:06:17.050	-0.14	0.105	-0.42	0.013664	-0.011712	1.01016	0.3675	0.066	0.0825	0	23	1030	1
2026-02-11	16:06:17.070	-0.14	0.14	-0.455	0.009028	-0.011712	1.004548	0.3675	0.0645	0.0795	0	23	1030	1
2026-02-11	16:06:17.090	-0.14	0.105	-0.455	0.012932	-0.01098	1.007964	0.3645	0.066	0.078	0	23	1030	1
2026-02-11	16:06:17.110	-0.14	0.105	-0.49	0.011468	-0.0061	1.009184	0.363	0.0675	0.0765	0	23	1030	1
2026-02-11	16:06:17.130	-0.105	0.105	-0.455	0.011224	-0.010004	1.009672	0.363	0.0705	0.0795	0	23	1030	1
2026-02-11	16:06:17.150	-0.105	0.105	-0.49	0.01098	-0.013176	1.006256	0.3645	0.069	0.0825	0	23	1030	1
2026-02-11	16:06:17.170	-0.14	0.105	-0.49	0.01098	-0.012444	1.007232	0.3645	0.0615	0.0825	0	23	1030	1
2026-02-11	16:06:17.190	-0.14	0.14	-0.455	0.009272	-0.00488	1.003084	0.3615	0.0705	0.075	0	23	1030	1
2026-02-11	16:06:17.210	-0.14	0.105	-0.455	0.008784	-0.01098	1.007964	0.366	0.0675	0.0855	0	20	1031	1
2026-02-11	16:06:17.230	-0.14	0.14	-0.455	0.01098	-0.008296	1.008208	0.363	0.066	0.078	0	20	1031	1
2026-02-11	16:06:17.250	-0.105	0.175	-0.42	0.010736	-0.0061	1.00894	0.3615	0.063	0.093	0	20	1031	1
2026-02-11	16:06:17.270	-0.14	0.105	-0.455	0.010004	-0.009272	1.005524	0.3585	0.0675	0.0855	0	20	1031	1
2026-02-11	16:06:17.290	-0.14	0.105	-0.42	0.010492	-0.015372	1.0126	0.363	0.0675	0.078	0	20	1031	1
2026-02-11	16:06:17.310	-0.14	0.105	-0.455	0.011224	-0.013908	1.010404	0.3675	0.063	0.078	0	20	1031	1
2026-02-11	16:06:17.330	-0.105	0.14	-0.455	0.00732	-0.010736	1.009184	0.3675	0.0645	0.0855	0	20	1031	1
2026-02-11	16:06:17.350	-0.105	0.105	-0.42	0.010248	-0.010004	1.008452	0.3675	0.0735	0.09	0	20	1031	1
2026-02-11	16:06:17.370	-0.14	0.105	-0.455	0.010248	-0.009516	1.008696	0.366	0.078	0.0855	0	20	1031	1
2026-02-11	16:06:17.390	-0.105	0.105	-0.42	0.011224	-0.01098	1.010892	0.366	0.0765	0.087	0	20	1031	1
2026-02-11	16:06:17.410	-0.105	0.14	-0.455	0.007808	-0.010248	1.007476	0.36	0.0705	0.09	0	18	1031	1
2026-02-11	16:06:17.430	-0.105	0.14	-0.42	0.013176	-0.009516	1.009428	0.375	0.06	0.0765	0	18	1031	1
2026-02-11	16:06:17.450	-0.105	0.14	-0.49	0.00976	-0.008296	1.007232	0.369	0.072	0.0825	0	18	1031	1
2026-02-11	16:06:17.470	-0.175	0.105	-0.42	0.010248	-0.010248	1.007964	0.36	0.066	0.087	0	18	1031	1
2026-02-11	16:06:17.490	-0.14	0.105	-0.455	0.010004	-0.010248	1.009184	0.3645	0.0615	0.087	0	18	1031	1
2026-02-11	16:06:17.510	-0.14	0.105	-0.455	0.008052	-0.00976	1.006988	0.3675	0.069	0.084	0	18	1031	1
2026-02-11	16:06:17.530	-0.175	0.14	-0.455	0.0122	-0.009516	1.010892	0.3675	0.0615	0.0855	0	18	1031	1
2026-02-11	16:06:17.550	-0.105	0.105	-0.455	0.009516	-0.012444	1.008696	0.3675	0.0675	0.0855	0	18	1031	1
2026-02-11	16:06:17.570	-0.105	0.105	-0.42	0.010736	-0.010004	1.004548	0.369	0.0675	0.084	0	18	1031	1
2026-02-11	16:06:17.590	-0.14	0.14	-0.455	0.011224	-0.009272	1.009916	0.366	0.06	0.0885	0	18	1031	1
2026-02-11	16:06:17.610	-0.14	0.105	-0.455	0.009516	-0.010492	1.010892	0.3585	0.0645	0.084	0	15	1031	1
2026-02-11	16:06:17.630	-0.105	0.14	-0.455	0.011712	-0.010492	1.00406	0.3675	0.0675	0.09	0	15	1031	1
2026-02-11	16:06:17.650	-0.14	0.14	-0.42	0.008296	-0.009028	1.004792	0.366	0.0705	0.0855	0	15	1031	1
2026-02-11	16:06:17.670	-0.175	0.14	-0.455	0.012932	-0.01098	1.01016	0.3645	0.0705	0.0795	0	15	1031	1
2026-02-11	16:06:17.690	-0.14	0.14	-0.42	0.010736	-0.012444	1.009672	0.3645	0.0645	0.0825	0	15	1031	1
2026-02-11	16:06:17.710	-0.14	0.14	-0.49	0.013908	-0.011956	1.006988	0.363	0.063	0.087	0	15	1031	1
2026-02-11	16:06:17.730	-0.14	0.14	-0.455	0.009516	-0.006588	1.00772	0.363	0.069	0.0855	0	15	1031	1
2026-02-11	16:06:17.750	-0.14	0.14	-0.455	0.009516	-0.010492	1.006012	0.3675	0.0675	0.084	0	15	1031	1
2026-02-11	16:06:17.770	-0.175	0.105	-0.385	0.012688	-0.0122	1.009672	0.3645	0.066	0.084	0	15	1031	1
2026-02-11	16:06:17.790	-0.14	0.105	-0.49	0.009272	-0.013908	1.005768	0.3615	0.0675	0.087	0	15	1031	1
2026-02-11	16:06:17.810	-0.14	0.14	-0.455	0.00854	-0.011224	1.010404	0.3615	0.063	0.09	0	13	1031	1
2026-02-11	16:06:17.830	-0.105	0.14	-0.49	0.012688	-0.010248	1.005036	0.3645	0.057	0.0915	0	13	1031	1
2026-02-11	16:06:17.850	-0.14	0.14	-0.49	0.0122	-0.011224	1.006744	0.3645	0.06	0.084	0	13	1031	1
2026-02-11	16:06:17.870	-0.105	0.14	-0.49	0.008784	-0.00854	1.009428	0.3645	0.066	0.084	0	13	1031	1
2026-02-11	16:06:17.890	-0.14	0.105	-0.42	0.011712	-0.010248	1.005036	0.372	0.066	0.0915	0	13	1031	1
2026-02-11	16:06:17.910	-0.14	0.14	-0.49	0.006588	-0.01098	1.00528	0.375	0.0645	0.0945	0	13	1031	1
2026-02-11	16:06:17.930	-0.175	0.105	-0.455	0.010248	-0.011468	1.010892	0.3705	0.0645	0.09	0	13	1031	1
2026-02-11	16:06:17.950	-0.105	0.105	-0.455	0.009516	-0.008052	1.008696	0.3705	0.066	0.0855	0	13	1031	1
2026-02-11	16:06:17.970	-0.14	0.105	-0.42	0.00976	-0.010492	1.00528	0.3675	0.0705	0.09	0	13	1031	1
2026-02-11	16:06:17.990	-0.14	0.14	-0.42	0.010004	-0.012444	1.01382	0.3615	0.0735	0.093	0	13	1031	1
2026-02-11	16:06:18.010	-0.07	0.105	-0.385	0.015372	-0.013176	1.010648	0.3615	0.072	0.087	0	12	1031	1
2026-02-11	16:06:18.030	-0.07	0.105	-0.455	0.010492	-0.010736	1.003816	0.366	0.069	0.081	0	12	1031	1
2026-02-11	16:06:18.050	-0.105	0.105	-0.455	0.013176	-0.01098	1.007476	0.3675	0.063	0.0825	0	12	1031	1
2026-02-11	16:06:18.070	-0.105	0.105	-0.42	0.009272	-0.012444	1.010404	0.3615	0.06	0.0885	0	12	1031	1
2026-02-11	16:06:18.090	-0.105	0.105	-0.455	0.010736	-0.011224	1.006988	0.3615	0.063	0.087	0	12	1031	1
2026-02-11	16:06:18.110	-0.105	0.105	-0.42	0.009516	-0.011712	1.007964	0.366	0.063	0.087	0	12	1031	1
2026-02-11	16:06:18.130	-0.14	0.14	-0.455	0.009272	-0.011956	1.00772	0.366	0.0615	0.0885	0	12	1031	1
2026-02-11	16:06:18.150	-0.105	0.105	-0.455	0.011712	-0.009516	1.007476	0.363	0.0615	0.087	0	12	1031	1
2026-02-11	16:06:18.170	-0.14	0.105	-0.455	0.0122	-0.011712	1.007232	0.363	0.06	0.084	0	12	1031	1
2026-02-11	16:06:18.190	-0.14	0.105	-0.455	0.007808	-0.0122	1.0126	0.363	0.06	0.084	0	12	1031	1
2026-02-11	16:06:18.210	-0.07	0.105	-0.455	0.011468	-0.010004	1.006988	0.3555	0.072	0.096	0	10	1031	1
2026-02-11	16:06:18.230	-0.105	0.14	-0.455	0.010004	-0.009028	1.005768	0.3645	0.066	0.0765	0	10	1031	1
2026-02-11	16:06:18.250	-0.14	0.105	-0.455	0.010248	-0.009272	1.007964	0.3615	0.0675	0.084	0	10	1031	1
2026-02-11	16:06:18.270	-0.175	0.105	-0.49	0.011468	-0.010492	1.009428	0.3675	0.069	0.0855	0	10	1031	1
2026-02-11	16:06:18.290	-0.14	0.105	-0.455	0.01342	-0.012932	1.00528	0.363	0.063	0.0885	0	10	1031	1
2026-02-11	16:06:18.310	-0.14	0.105	-0.455	0.011712	-0.01342	1.009184	0.363	0.066	0.0795	0	10	1031	1
2026-02-11	16:06:18.330	-0.14	0.14	-0.455	0.011956	-0.00976	1.00894	0.363	0.0645	0.0825	0	10	1031	1
2026-02-11	16:06:18.350	-0.14	0.105	-0.455	0.011468	-0.010492	1.006744	0.3705	0.069	0.09	0	10	1031	1
2026-02-11	16:06:18.370	-0.175	0.14	-0.42	0.012932	-0.010492	1.006744	0.366	0.063	0.0855	0	10	1031	1
2026-02-11	16:06:18.390	-0.175	0.14	-0.455	0.011956	-0.014396	1.010892	0.366	0.063	0.093	0	10	1031	1
2026-02-11	16:06:18.410	-0.175	0.14	-0.42	0.00976	-0.00976	1.008696	0.3705	0.0585	0.0915	0	9	1031	1
2026-02-11	16:06:18.430	-0.14	0.14	-0.49	0.009028	-0.0122	1.00772	0.3675	0.0615	0.084	0	9	1031	1
2026-02-11	16:06:18.450	-0.14	0.14	-0.455	0.00976	-0.009516	1.005524	0.366	0.063	0.084	0	9	1031	1
2026-02-11	16:06:18.470	-0.14	0.14	-0.42	0.011468	-0.01098	1.00894	0.363	0.0675	0.0885	0	9	1031	1
2026-02-11	16:06:18.490	-0.14	0.105	-0.42	0.007808	-0.00854	1.00772	0.363	0.066	0.0885	0	9	1031	1
2026-02-11	16:06:18.510	-0.105	0.105	-0.455	0.009028	-0.011224	1.007232	0.3675	0.066	0.087	0	9	1031	1
2026-02-11	16:06:18.530	-0.105	0.14	-0.42	0.010248	-0.009516	1.008208	0.3735	0.0705	0.0885	0	9	1031	1
2026-02-11	16:06:18.550	-0.14	0.07	-0.42	0.010492	-0.01098	1.008208	0.369	0.0585	0.0825	0	9	1031	1
2026-02-11	16:06:18.570	-0.14	0.105	-0.455	0.008784	-0.010248	1.006988	0.3645	0.0675	0.084	0	9	1031	1
2026-02-11	16:06:18.590	-0.105	0.14	-0.455	0.011224	-0.007808	1.011624	0.363	0.0705	0.0795	0	9	1031	1
2026-02-11	16:06:18.610	-0.14	0.14	-0.455	0.00854	-0.00976	1.006256	0.372	0.063	0.0855	0	8	1031	1
2026-02-11	16:06:18.630	-0.14	0.105	-0.455	0.010492	-0.010248	1.004548	0.3675	0.0495	0.084	0	8	1031	1
2026-02-11	16:06:18.650	-0.175	0.105	-0.455	0.010736	-0.013908	1.0126	0.363	0.063	0.0825	0	8	1031	1
2026-02-11	16:06:18.670	-0.105	0.105	-0.49	0.00976	-0.011712	1.00894	0.363	0.06	0.081	0	8	1031	1
2026-02-11	16:06:18.690	-0.14	0.14	-0.455	0.007076	-0.0061	1.003572	0.3705	0.0645	0.09	0	8	1031	1
2026-02-11	16:06:18.710	-0.14	0.14	-0.49	0.010492	-0.010492	1.009672	0.372	0.0645	0.09	0	8	1031	1
2026-02-11	16:06:18.730	-0.07	0.07	-0.49	0.012688	-0.006832	1.005036	0.369	0.063	0.0855	0	8	1031	1
2026-02-11	16:06:18.750	-0.175	0.105	-0.455	0.01098	-0.01342	1.009184	0.369	0.063	0.084	0	8	1031	1
2026-02-11	16:06:18.770	-0.175	0.175	-0.455	0.013176	-0.010736	1.010892	0.363	0.06	0.0885	0	8	1031	1
2026-02-11	16:06:18.790	-0.14	0.105	-0.455	0.009028	-0.006588	1.006744	0.36	0.0615	0.0855	0	8	1031	1
2026-02-11	16:06:18.810	-0.14	0.14	-0.455	0.00976	-0.010248	1.003572	0.363	0.063	0.084	0	7	1031	1
2026-02-11	16:06:18.830	-0.21	0.105	-0.455	0.011712	-0.010736	1.010404	0.3615	0.0645	0.084	0	7	1031	1
2026-02-11	16:06:18.850	-0.14	0.14	-0.42	0.007076	-0.011956	1.011868	0.3645	0.069	0.0825	0	7	1031	1
2026-02-11	16:06:18.870	-0.105	0.14	-0.455	0.011956	-0.010004	1.006988	0.366	0.066	0.081	0	7	1031	1
2026-02-11	16:06:18.890	-0.105	0.105	-0.455	0.009516	-0.013176	1.00528	0.3615	0.066	0.0825	0	7	1031	1
2026-02-11	16:06:18.910	-0.14	0.105	-0.455	0.008784	-0.012932	1.009916	0.363	0.066	0.087	0	7	1031	1
2026-02-11	16:06:18.930	-0.105	0.105	-0.455	0.011712	-0.009272	1.00772	0.363	0.0615	0.087	0	7	1031	1
2026-02-11	16:06:18.950	-0.14	0.14	-0.455	0.011224	-0.011712	1.006744	0.3615	0.063	0.0855	0	7	1031	1
2026-02-11	16:06:18.970	-0.14	0.105	-0.455	0.010004	-0.008784	1.009428	0.363	0.0645	0.0855	0	7	1031	1
2026-02-11	16:06:18.990	-0.14	0.105	-0.455	0.013176	-0.01098	1.0065	0.3645	0.0645	0.0855	0	7	1031	1
2026-02-11	16:06:19.010	-0.14	0.14	-0.455	0.00976	-0.011712	1.007476	0.366	0.063	0.0855	0	7	1031	1
2026-02-11	16:06:19.030	-0.105	0.14	-0.455	0.009272	-0.009272	1.012844	0.3645	0.0615	0.087	0	7	1031	1
2026-02-11	16:06:19.050	-0.105	0.14	-0.49	0.01098	-0.007076	1.00284	0.3705	0.066	0.0855	0	7	1031	1
2026-02-11	16:06:19.070	-0.14	0.105	-0.455	0.009272	-0.00854	1.0065	0.3615	0.069	0.087	0	7	1031	1
2026-02-11	16:06:19.090	-0.175	0.14	-0.455	0.007564	-0.0122	1.011868	0.36	0.063	0.0795	0	7	1031	1
2026-02-11	16:06:19.110	-0.175	0.105	-0.455	0.007564	-0.017568	1.00894	0.369	0.0645	0.084	0	7	1031	1
2026-02-11	16:06:19.130	-0.105	0.105	-0.49	0.01098	-0.011468	1.005524	0.366	0.063	0.09	0	7	1031	1
2026-02-11	16:06:19.150	-0.175	0.14	-0.455	0.009272	-0.009028	1.008208	0.366	0.0675	0.0885	0	7	1031	1
2026-02-11	16:06:19.170	-0.105	0.105	-0.455	0.00732	-0.013664	1.005768	0.36	0.0645	0.087	0	7	1031	1
2026-02-11	16:06:19.190	-0.175	0.105	-0.42	0.010736	-0.013664	1.009672	0.363	0.0645	0.09	0	7	1031	1
2026-02-11	16:06:19.210	-0.14	0.14	-0.455	0.01098	-0.011468	1.004304	0.3675	0.063	0.087	0	6	1031	1
2026-02-11	16:06:19.230	-0.14	0.14	-0.455	0.010004	-0.010492	1.006988	0.366	0.0615	0.0855	0	6	1031	1
2026-02-11	16:06:19.250	-0.175	0.105	-0.42	0.00976	-0.009272	1.004548	0.363	0.0615	0.0885	0	6	1031	1
2026-02-11	16:06:19.270	-0.21	0.14	-0.49	0.008052	-0.01098	1.01382	0.363	0.0615	0.0885	0	6	1031	1
2026-02-11	16:06:19.290	-0.14	0.14	-0.455	0.009516	-0.010248	1.009672	0.369	0.0675	0.0885	0	6	1031	1
2026-02-11	16:06:19.310	-0.105	0.105	-0.42	0.012444	-0.010248	1.007232	0.36	0.0585	0.084	0	6	1031	1
2026-02-11	16:06:19.330	-0.105	0.105	-0.49	0.008296	-0.010248	1.00528	0.36	0.063	0.0855	0	6	1031	1
2026-02-11	16:06:19.350	-0.14	0.105	-0.49	0.01342	-0.00854	1.011136	0.3645	0.063	0.0885	0	6	1031	1
2026-02-11	16:06:19.370	-0.14	0.105	-0.49	0.012932	-0.011712	1.007476	0.3675	0.063	0.09	0	6	1031	1
2026-02-11	16:06:19.390	-0.105	0.105	-0.455	0.011224	-0.011224	1.003816	0.3675	0.0735	0.0945	0	6	1031	1
2026-02-11	16:06:19.410	-0.105	0.175	-0.455	0.011468	-0.00854	1.007232	0.363	0.063	0.087	0	5	1031	1
2026-02-11	16:06:19.430	-0.14	0.105	-0.455	0.008052	-0.01098	1.010404	0.3615	0.0675	0.0945	0	5	1031	1
2026-02-11	16:06:19.450	-0.14	0.105	-0.455	0.007076	-0.00976	1.0065	0.36	0.06	0.084	0	5	1031	1
2026-02-11	16:06:19.470	-0.14	0.105	-0.455	0.00976	-0.011224	1.007232	0.36	0.0615	0.087	0	5	1031	1
2026-02-11	16:06:19.490	-0.105	0.14	-0.455	0.009028	-0.008296	1.007476	0.3675	0.063	0.084	0	5	1031	1
2026-02-11	16:06:19.510	-0.105	0.14	-0.49	0.011956	-0.009028	1.005524	0.363	0.06	0.087	0	5	1031	1
2026-02-11	16:06:19.530	-0.175	0.105	-0.455	0.008296	-0.011468	1.01504	0.363	0.063	0.087	0	5	1031	1
2026-02-11	16:06:19.550	-0.105	0.07	-0.455	0.012688	-0.011712	1.006744	0.3645	0.063	0.0915	0	5	1031	1
2026-02-11	16:06:19.570	-0.07	0.14	-0.49	0.010004	-0.00976	0.997472	0.3645	0.06	0.087	0	5	1031	1
2026-02-11	16:06:19.590	-0.175	0.14	-0.42	0.009028	-0.00732	1.014796	0.3615	0.0615	0.081	0	5	1031	1
2026-02-11	16:06:19.610	-0.105	0.105	-0.42	0.00976	-0.00854	1.00406	0.3675	0.063	0.081	0	5	1031	1
2026-02-11	16:06:19.630	-0.14	0.105	-0.455	0.010492	-0.011956	1.005524	0.3705	0.063	0.0855	0	5	1031	1
2026-02-11	16:06:19.650	-0.21	0.105	-0.455	0.011956	-0.012444	1.011624	0.3645	0.063	0.087	0	5	1031	1
2026-02-11	16:06:19.670	-0.105	0.105	-0.49	0.01098	-0.011468	1.010892	0.363	0.0615	0.087	0	5	1031	1
2026-02-11	16:06:19.690	-0.07	0.105	-0.455	0.011712	-0.006832	1.003328	0.3645	0.063	0.0885	0	5	1031	1
2026-02-11	16:06:19.710	-0.14	0.14	-0.455	0.012688	-0.00976	1.004548	0.366	0.0645	0.087	0	5	1031	1
2026-02-11	16:06:19.730	-0.21	0.14	-0.455	0.009028	-0.014884	1.012356	0.363	0.0615	0.09	0	5	1031	1
2026-02-11	16:06:19.750	-0.105	0.14	-0.455	0.01098	-0.015128	1.007476	0.3645	0.063	0.09	0	5	1031	1
2026-02-11	16:06:19.770	-0.105	0.14	-0.455	0.006588	-0.008784	1.004304	0.3645	0.0645	0.087	0	5	1031	1
2026-02-11	16:06:19.790	-0.175	0.105	-0.455	0.009516	-0.00976	1.01138	0.36	0.063	0.0885	0	5	1031	1
2026-02-11	16:06:19.810	-0.14	0.105	-0.455	0.010736	-0.011224	1.006744	0.3585	0.066	0.09	0	5	1031	1
2026-02-11	16:06:19.830	-0.175	0.105	-0.455	0.009028	-0.00854	1.01138	0.363	0.0675	0.0915	0	5	1031	1
2026-02-11	16:06:19.850	-0.105	0.105	-0.455	0.010248	-0.00854	1.007232	0.366	0.0645	0.0915	0	5	1031	1
2026-02-11	16:06:19.870	-0.105	0.105	-0.455	0.0122	-0.009272	1.007476	0.366	0.063	0.093	0	5	1031	1
2026-02-11	16:06:19.890	-0.14	0.14	-0.49	0.011468	-0.012932	1.006256	0.372	0.0585	0.084	0	5	1031	1
2026-02-11	16:06:19.910	-0.14	0.105	-0.49	0.011712	-0.012444	1.010404	0.369	0.0585	0.0795	0	5	1031	1
2026-02-11	16:06:19.930	-0.14	0.07	-0.49	0.010248	-0.012688	1.01016	0.366	0.06	0.084	0	5	1031	1
2026-02-11	16:06:19.950	-0.14	0.105	-0.455	0.010004	-0.010004	1.00772	0.366	0.0645	0.0855	0	5	1031	1
2026-02-11	16:06:19.970	-0.105	0.14	-0.455	0.009272	-0.0122	1.006012	0.36	0.069	0.0885	0	5	1031	1
2026-02-11	16:06:19.990	-0.105	0.105	-0.42	0.007076	-0.010736	1.008696	0.3615	0.0675	0.0885	0	5	1031	1
2026-02-11	16:06:20.010	-0.14	0.14	-0.49	0.011468	-0.00976	1.009916	0.3675	0.0645	0.0825	0	5	1031	1
2026-02-11	16:06:20.030	-0.175	0.14	-0.455	0.011712	-0.009272	1.006988	0.3675	0.0615	0.084	0	5	1031	1
2026-02-11	16:06:20.050	-0.14	0.14	-0.455	0.0122	-0.011956	1.00894	0.3675	0.06	0.0885	0	5	1031	1
2026-02-11	16:06:20.070	-0.14	0.105	-0.49	0.014152	-0.011468	1.007476	0.3675	0.06	0.0885	0	5	1031	1
2026-02-11	16:06:20.090	-0.14	0.105	-0.455	0.012444	-0.011712	1.00406	0.3675	0.066	0.0825	0	5	1031	1
2026-02-11	16:06:20.110	-0.175	0.14	-0.49	0.011712	-0.010736	1.009916	0.366	0.069	0.099	0	5	1031	1
2026-02-11	16:06:20.130	-0.175	0.105	-0.455	0.011468	-0.014152	1.010892	0.366	0.069	0.087	0	5	1031	1
2026-02-11	16:06:20.150	-0.105	0.105	-0.455	0.008052	-0.012444	1.008208	0.3645	0.066	0.084	0	5	1031	1
2026-02-11	16:06:20.170	-0.14	0.14	-0.49	0.008296	-0.011712	1.006256	0.3615	0.0735	0.0915	0	5	1031	1
2026-02-11	16:06:20.190	-0.14	0.105	-0.455	0.011956	-0.00732	1.006256	0.3585	0.06	0.084	0	5	1031	1
2026-02-11	16:06:20.210	-0.175	0.105	-0.455	0.011468	-0.01098	1.00772	0.363	0.0645	0.0885	0	5	1031	1
2026-02-11	16:06:20.230	-0.14	0.105	-0.455	0.012688	-0.0122	1.007232	0.366	0.063	0.0885	0	5	1031	1
2026-02-11	16:06:20.250	-0.14	0.175	-0.455	0.014396	-0.009028	1.009184	0.3645	0.0615	0.0855	0	5	1031	1
2026-02-11	16:06:20.270	-0.105	0.14	-0.49	0.010492	-0.011224	1.009184	0.3645	0.063	0.0885	0	5	1031	1
2026-02-11	16:06:20.290	-0.105	0.105	-0.455	0.010248	-0.006344	1.005768	0.366	0.0675	0.0795	0	5	1031	1
2026-02-11	16:06:20.310	-0.175	0.14	-0.455	0.009272	-0.010736	1.008452	0.3645	0.066	0.0885	0	5	1031	1
2026-02-11	16:06:20.330	-0.14	0.105	-0.455	0.013664	-0.01098	1.010404	0.3645	0.057	0.0915	0	5	1031	1
2026-02-11	16:06:20.350	-0.14	0.105	-0.455	0.006832	-0.009272	1.00894	0.3645	0.0555	0.0885	0	5	1031	1
2026-02-11	16:06:20.370	-0.14	0.105	-0.49	0.010248	-0.009272	1.003816	0.3615	0.0555	0.084	0	5	1031	1
2026-02-11	16:06:20.390	-0.175	0.105	-0.455	0.010248	-0.009516	1.009184	0.3645	0.057	0.0855	0	5	1031	1
2026-02-11	16:06:20.410	-0.14	0.105	-0.455	0.011712	-0.014396	1.01138	0.3675	0.0585	0.087	0	4	1031	1
2026-02-11	16:06:20.430	-0.14	0.14	-0.455	0.011468	-0.01098	1.007964	0.363	0.06	0.0855	0	4	1031	1
2026-02-11	16:06:20.450	-0.07	0.105	-0.455	0.009516	-0.01098	0.999912	0.36	0.063	0.084	0	4	1031	1
2026-02-11	16:06:20.470	-0.21	0.14	-0.455	0.011468	-0.01098	1.01382	0.3645	0.0675	0.09	0	4	1031	1
2026-02-11	16:06:20.490	-0.105	0.07	-0.42	0.011712	-0.013908	1.00528	0.3615	0.06	0.0795	0	4	1031	1
2026-02-11	16:06:20.510	-0.14	0.105	-0.455	0.01098	-0.01098	1.00284	0.3675	0.057	0.0885	0	4	1031	1
2026-02-11	16:06:20.530	-0.175	0.105	-0.42	0.00854	-0.00976	1.013332	0.3645	0.069	0.0855	0	4	1031	1
2026-02-11	16:06:20.550	-0.07	0.105	-0.455	0.011224	-0.009516	1.001132	0.3615	0.0645	0.09	0	4	1031	1
2026-02-11	16:06:20.570	-0.175	0.07	-0.455	0.009516	-0.012932	1.007964	0.366	0.063	0.0855	0	4	1031	1
2026-02-11	16:06:20.590	-0.14	0.14	-0.455	0.00976	-0.013664	1.012844	0.363	0.0645	0.084	0	4	1031	1
2026-02-11	16:06:20.610	-0.07	0.105	-0.49	0.007564	-0.008784	1.01016	0.3645	0.0615	0.0855	0	4	1031	1
2026-02-11	16:06:20.630	-0.07	0.105	-0.42	0.009028	-0.009272	1.000644	0.3645	0.06	0.087	0	4	1031	1
2026-02-11	16:06:20.650	-0.175	0.175	-0.42	0.006344	-0.008784	1.01016	0.363	0.063	0.087	0	4	1031	1
2026-02-11	16:06:20.670	-0.14	0.105	-0.455	0.01098	-0.0122	1.012356	0.3645	0.066	0.087	0	4	1031	1
2026-02-11	16:06:20.690	-0.07	0.105	-0.455	0.011956	-0.013176	1.006988	0.3645	0.066	0.087	0	4	1031	1
2026-02-11	16:06:20.710	-0.105	0.14	-0.49	0.010248	-0.010248	1.005524	0.3645	0.0645	0.09	0	4	1031	1
2026-02-11	16:06:20.730	-0.14	0.105	-0.49	0.008784	-0.008784	1.011624	0.3615	0.066	0.0885	0	4	1031	1
2026-02-11	16:06:20.750	-0.14	0.14	-0.455	0.010004	-0.009516	1.002596	0.36	0.0645	0.0855	0	4	1031	1
2026-02-11	16:06:20.770	-0.14	0.14	-0.42	0.012932	-0.00976	1.008452	0.3645	0.0645	0.09	0	4	1031	1
2026-02-11	16:06:20.790	-0.175	0.105	-0.455	0.008296	-0.00976	1.010404	0.366	0.066	0.0885	0	4	1031	1
2026-02-11	16:06:20.810	-0.14	0.105	-0.455	0.01098	-0.011712	1.008452	0.3645	0.0645	0.0855	0	4	1031	1
2026-02-11	16:06:20.830	-0.14	0.14	-0.455	0.009272	-0.010248	1.005524	0.369	0.066	0.0855	0	4	1031	1
2026-02-11	16:06:20.850	-0.14	0.14	-0.455	0.010004	-0.012444	1.007232	0.3705	0.063	0.0855	0	4	1031	1
2026-02-11	16:06:20.870	-0.105	0.14	-0.42	0.009516	-0.011956	1.005036	0.3675	0.057	0.087	0	4	1031	1
2026-02-11	16:06:20.890	-0.175	0.14	-0.42	0.0122	-0.007564	1.008452	0.3675	0.0615	0.0855	0	4	1031	1
2026-02-11	16:06:20.910	-0.175	0.105	-0.455	0.012688	-0.00976	1.009428	0.363	0.066	0.093	0	4	1031	1
2026-02-11	16:06:20.930	-0.105	0.105	-0.455	0.01098	-0.013908	1.010648	0.357	0.063	0.084	0	4	1031	1
2026-02-11	16:06:20.950	-0.105	0.14	-0.455	0.005856	-0.012444	1.006256	0.3615	0.066	0.093	0	4	1031	1
2026-02-11	16:06:20.970	-0.14	0.105	-0.455	0.011224	-0.006344	1.007476	0.3615	0.0615	0.09	0	4	1031	1
2026-02-11	16:06:20.990	-0.175	0.105	-0.455	0.00854	-0.011712	1.006988	0.3645	0.063	0.084	0	4	1031	1
2026-02-11	16:06:21.010	-0.105	0.105	-0.455	0.011468	-0.007808	1.006256	0.3585	0.063	0.084	0	4	1031	1
2026-02-11	16:06:21.030	-0.14	0.14	-0.49	0.009028	-0.010736	1.009184	0.3705	0.0615	0.0855	0	4	1031	1
2026-02-11	16:06:21.050	-0.14	0.14	-0.455	0.008784	-0.008052	1.01138	0.363	0.0675	0.0855	0	4	1031	1
2026-02-11	16:06:21.070	-0.105	0.105	-0.455	0.013176	-0.01098	1.004792	0.3615	0.072	0.087	0	4	1031	1
2026-02-11	16:06:21.090	-0.175	0.105	-0.49	0.011468	-0.012444	1.009428	0.363	0.066	0.0855	0	4	1031	1
2026-02-11	16:06:21.110	-0.175	0.105	-0.455	0.011468	-0.00854	1.007964	0.366	0.066	0.087	0	4	1031	1
2026-02-11	16:06:21.130	-0.105	0.105	-0.455	0.012444	-0.010736	1.006744	0.3705	0.0675	0.0885	0	4	1031	1
2026-02-11	16:06:21.150	-0.14	0.105	-0.455	0.0122	-0.009028	1.006988	0.3705	0.0675	0.0885	0	4	1031	1
2026-02-11	16:06:21.170	-0.14	0.14	-0.49	0.010004	-0.011224	1.009672	0.3735	0.066	0.0795	0	4	1031	1
2026-02-11	16:06:21.190	-0.14	0.14	-0.455	0.007808	-0.012688	1.007476	0.363	0.0705	0.084	0	4	1031	1
2026-02-11	16:06:21.210	-0.105	0.14	-0.455	0.007076	-0.0122	1.009672	0.3675	0.0675	0.093	0	4	1031	1
2026-02-11	16:06:21.230	-0.105	0.105	-0.49	0.010004	-0.010248	1.006012	0.366	0.0525	0.0825	0	4	1031	1
2026-02-11	16:06:21.250	-0.14	0.14	-0.455	0.007564	-0.00732	1.004792	0.36	0.066	0.0855	0	4	1031	1
2026-02-11	16:06:21.270	-0.14	0.105	-0.42	0.008784	-0.009272	1.007964	0.366	0.0585	0.0825	0	4	1031	1
2026-02-11	16:06:21.290	-0.14	0.105	-0.455	0.010004	-0.013176	1.007232	0.3645	0.066	0.0825	0	4	1031	1
2026-02-11	16:06:21.310	-0.14	0.105	-0.455	0.009272	-0.010004	1.009184	0.3645	0.0615	0.0945	0	4	1031	1
2026-02-11	16:06:21.330	-0.14	0.105	-0.455	0.01098	-0.010492	1.012844	0.3675	0.0585	0.0825	0	4	1031	1
2026-02-11	16:06:21.350	-0.105	0.14	-0.455	0.006588	-0.011712	1.005524	0.372	0.069	0.0915	0	4	1031	1
2026-02-11	16:06:21.370	-0.175	0.14	-0.49	0.009028	-0.0122	1.005524	0.36	0.0645	0.0795	0	4	1031	1
2026-02-11	16:06:21.390	-0.105	0.14	-0.455	0.012688	-0.005856	1.00894	0.3675	0.0645	0.0915	0	4	1031	1
2026-02-11	16:06:21.410	-0.105	0.14	-0.455	0.01098	-0.0122	1.00772	0.3675	0.0645	0.0915	0	4	1031	1
2026-02-11	16:06:21.430	-0.175	0.14	-0.455	0.009516	-0.008784	1.008452	0.3705	0.0645	0.0915	0	4	1031	1
2026-02-11	16:06:21.450	-0.14	0.105	-0.455	0.011712	-0.011712	1.008696	0.3645	0.0675	0.0885	0	4	1031	1
2026-02-11	16:06:21.470	-0.14	0.14	-0.455	0.010736	-0.011712	1.009428	0.3585	0.0675	0.0885	0	4	1031	1
2026-02-11	16:06:21.490	-0.14	0.105	-0.49	0.0122	-0.012688	1.008452	0.3645	0.0675	0.0915	0	4	1031	1
2026-02-11	16:06:21.510	-0.105	0.14	-0.455	0.008052	-0.00976	1.006012	0.3675	0.0675	0.087	0	4	1031	1
2026-02-11	16:06:21.530	-0.175	0.105	-0.455	0.011956	-0.011712	1.005524	0.3645	0.0645	0.0825	0	4	1031	1
2026-02-11	16:06:21.550	-0.14	0.105	-0.455	0.011712	-0.009516	1.00894	0.363	0.0645	0.084	0	4	1031	1
2026-02-11	16:06:21.570	-0.14	0.105	-0.49	0.009516	-0.011712	1.007964	0.366	0.0675	0.087	0	4	1031	1
2026-02-11	16:06:21.590	-0.14	0.14	-0.455	0.00976	-0.009028	1.00894	0.366	0.063	0.087	0	4	1031	1
2026-02-11	16:06:21.610	-0.105	0.105	-0.455	0.009028	-0.011956	1.006012	0.3675	0.0615	0.087	0	4	1031	1
2026-02-11	16:06:21.630	-0.105	0.14	-0.455	0.009516	-0.010004	1.007232	0.366	0.066	0.084	0	4	1031	1
2026-02-11	16:06:21.650	-0.14	0.14	-0.385	0.01342	-0.00732	1.005036	0.3615	0.0645	0.087	0	4	1031	1
2026-02-11	16:06:21.670	-0.14	0.105	-0.455	0.00976	-0.011712	1.009184	0.3615	0.0645	0.093	0	4	1031	1
2026-02-11	16:06:21.690	-0.14	0.14	-0.49	0.013908	-0.008784	1.005524	0.3615	0.063	0.084	0	4	1031	1
2026-02-11	16:06:21.710	-0.14	0.14	-0.455	0.015128	-0.010736	1.011136	0.363	0.063	0.0915	0	4	1031	1
2026-02-11	16:06:21.730	-0.14	0.14	-0.455	0.012444	-0.008784	1.008452	0.363	0.066	0.0885	0	4	1031	1
2026-02-11	16:06:21.750	-0.14	0.105	-0.455	0.0122	-0.00976	1.008696	0.363	0.072	0.084	0	4	1031	1
2026-02-11	16:06:21.770	-0.105	0.105	-0.455	0.008052	-0.011468	1.0065	0.363	0.0705	0.084	0	4	1031	1
2026-02-11	16:06:21.790	-0.14	0.105	-0.455	0.010736	-0.01098	1.008452	0.363	0.069	0.09	0	4	1031	1
2026-02-11	16:06:21.810	-0.14	0.105	-0.455	0.010736	-0.008052	1.007964	0.366	0.0675	0.0885	0	3	1031	1
2026-02-11	16:06:21.830	-0.07	0.14	-0.42	0.010492	-0.009272	1.005768	0.366	0.066	0.087	0	3	1031	1
2026-02-11	16:06:21.850	-0.14	0.14	-0.49	0.008052	-0.011224	1.010648	0.3645	0.069	0.0855	0	3	1031	1
2026-02-11	16:06:21.870	-0.14	0.14	-0.455	0.008784	-0.010492	1.007964	0.3645	0.069	0.087	0	3	1031	1
2026-02-11	16:06:21.890	-0.14	0.105	-0.455	0.00732	-0.008784	1.008696	0.3645	0.063	0.0885	0	3	1031	1
2026-02-11	16:06:21.910	-0.14	0.14	-0.455	0.00976	-0.010248	1.006012	0.366	0.0615	0.084	0	3	1031	1
2026-02-11	16:06:21.930	-0.14	0.14	-0.49	0.007808	-0.012444	1.009184	0.366	0.066	0.0825	0	3	1031	1
2026-02-11	16:06:21.950	-0.14	0.105	-0.49	0.011956	-0.009028	1.006256	0.366	0.066	0.0825	0	3	1031	1
2026-02-11	16:06:21.970	-0.14	0.14	-0.455	0.010492	-0.010736	1.012112	0.3705	0.066	0.0885	0	3	1031	1
2026-02-11	16:06:21.990	-0.105	0.14	-0.455	0.012688	-0.011224	1.010404	0.3615	0.063	0.084	0	3	1031	1
2026-02-11	16:06:22.010	-0.105	0.105	-0.42	0.011468	-0.010736	1.007964	0.363	0.0705	0.0885	0	3	1031	1
2026-02-11	16:06:22.030	-0.14	0.105	-0.42	0.010492	-0.010004	1.006988	0.3585	0.0585	0.087	0	3	1031	1
2026-02-11	16:06:22.050	-0.175	0.14	-0.455	0.010492	-0.011224	1.007476	0.3615	0.0675	0.0825	0	3	1031	1
2026-02-11	16:06:22.070	-0.175	0.105	-0.455	0.012688	-0.010736	1.01016	0.363	0.066	0.084	0	3	1031	1
2026-02-11	16:06:22.090	-0.105	0.105	-0.42	0.009516	-0.008052	1.007476	0.3705	0.057	0.0855	0	3	1031	1
2026-02-11	16:06:22.110	-0.14	0.105	-0.455	0.013664	-0.00854	1.009428	0.3675	0.057	0.078	0	3	1031	1
2026-02-11	16:06:22.130	-0.105	0.105	-0.455	0.011712	-0.010248	1.007964	0.36	0.0585	0.0855	0	3	1031	1
2026-02-11	16:06:22.150	-0.14	0.14	-0.42	0.010248	-0.007564	1.00772	0.36	0.06	0.087	0	3	1031	1
2026-02-11	16:06:22.170	-0.14	0.105	-0.42	0.012688	-0.009272	1.009916	0.366	0.069	0.09	0	3	1031	1
2026-02-11	16:06:22.190	-0.14	0.105	-0.42	0.011468	-0.009516	1.009672	0.3645	0.066	0.087	0	3	1031	1
2026-02-11	16:06:22.210	-0.175	0.14	-0.455	0.01098	-0.010492	1.007476	0.3645	0.066	0.087	0	3	1031	1
2026-02-11	16:06:22.230	-0.14	0.105	-0.49	0.010492	-0.013176	1.008696	0.369	0.066	0.0855	0	3	1031	1
2026-02-11	16:06:22.250	-0.105	0.105	-0.455	0.010492	-0.009272	1.00406	0.369	0.069	0.0825	0	3	1031	1
2026-02-11	16:06:22.270	-0.14	0.14	-0.455	0.008052	-0.010004	1.009184	0.366	0.0675	0.081	0	3	1031	1
2026-02-11	16:06:22.290	-0.14	0.105	-0.455	0.011468	-0.00976	1.010404	0.366	0.0675	0.0825	0	3	1031	1
2026-02-11	16:06:22.310	-0.14	0.14	-0.455	0.011224	-0.007808	1.00772	0.363	0.066	0.084	0	3	1031	1
2026-02-11	16:06:22.330	-0.14	0.14	-0.49	0.006832	-0.010736	1.009916	0.366	0.0615	0.0825	0	3	1031	1
2026-02-11	16:06:22.350	-0.14	0.14	-0.49	0.01098	-0.007808	1.011136	0.3645	0.0645	0.084	0	3	1031	1
2026-02-11	16:06:22.370	-0.14	0.105	-0.49	0.011468	-0.009028	1.007964	0.357	0.069	0.087	0	3	1031	1
2026-02-11	16:06:22.390	-0.175	0.14	-0.455	0.0122	-0.007808	1.007232	0.3615	0.066	0.0945	0	3	1031	1
2026-02-11	16:06:22.410	-0.14	0.14	-0.49	0.010004	-0.011224	1.007232	0.363	0.06	0.096	0	3	1031	1
2026-02-11	16:06:22.430	-0.175	0.105	-0.455	0.012688	-0.011712	1.007964	0.36	0.063	0.0825	0	3	1031	1
2026-02-11	16:06:22.450	-0.175	0.14	-0.49	0.013908	-0.009028	1.00528	0.36	0.0615	0.084	0	3	1031	1
2026-02-11	16:06:22.470	-0.14	0.105	-0.455	0.010492	-0.01098	1.008452	0.369	0.0705	0.096	0	3	1031	1
2026-02-11	16:06:22.490	-0.105	0.14	-0.49	0.00976	-0.01098	1.0065	0.369	0.066	0.0945	0	3	1031	1
2026-02-11	16:06:22.510	-0.105	0.105	-0.455	0.008784	-0.010492	1.008208	0.366	0.066	0.093	0	3	1031	1
2026-02-11	16:06:22.530	-0.14	0.105	-0.455	0.007808	-0.009516	1.006988	0.3675	0.066	0.0915	0	3	1031	1
2026-02-11	16:06:22.550	-0.175	0.14	-0.455	0.009272	-0.008784	1.007964	0.3645	0.063	0.0885	0	3	1031	1
2026-02-11	16:06:22.570	-0.105	0.105	-0.455	0.009272	-0.01098	1.007232	0.36	0.0675	0.087	0	3	1031	1
2026-02-11	16:06:22.590	-0.105	0.105	-0.42	0.01098	-0.010492	1.008696	0.3645	0.066	0.087	0	3	1031	1
2026-02-11	16:06:22.610	-0.14	0.105	-0.49	0.009516	-0.0122	1.009428	0.3675	0.06	0.087	0	3	1031	1
2026-02-11	16:06:22.630	-0.105	0.14	-0.49	0.009028	-0.011224	1.008208	0.369	0.0615	0.0885	0	3	1031	1
2026-02-11	16:06:22.650	-0.105	0.14	-0.49	0.011468	-0.008052	1.00772	0.3645	0.0615	0.087	0	3	1031	1
2026-02-11	16:06:22.670	-0.105	0.14	-0.49	0.012444	-0.011712	1.003084	0.363	0.06	0.084	0	3	1031	1
2026-02-11	16:06:22.690	-0.14	0.105	-0.42	0.015128	-0.012444	1.006988	0.366	0.0585	0.0885	0	3	1031	1
2026-02-11	16:06:22.710	-0.14	0.14	-0.455	0.009028	-0.009516	1.008208	0.363	0.066	0.0885	0	3	1031	1
2026-02-11	16:06:22.730	-0.14	0.14	-0.455	0.012444	-0.012688	1.007964	0.357	0.0705	0.087	0	3	1031	1
2026-02-11	16:06:22.750	-0.105	0.105	-0.455	0.009516	-0.011712	1.007964	0.3555	0.0675	0.087	0	3	1031	1
2026-02-11	16:06:22.770	-0.105	0.105	-0.455	0.011956	-0.010736	1.007964	0.3675	0.063	0.081	0	3	1031	1
2026-02-11	16:06:22.790	-0.175	0.14	-0.49	0.009028	-0.009028	1.008452	0.3645	0.069	0.0825	0	3	1031	1
2026-02-11	16:06:22.810	-0.175	0.14	-0.455	0.012932	-0.009272	1.009428	0.363	0.0705	0.0855	0	3	1031	1
2026-02-11	16:06:22.830	-0.14	0.105	-0.455	0.008296	-0.010736	1.006744	0.366	0.063	0.0825	0	3	1031	1
2026-02-11	16:06:22.850	-0.14	0.14	-0.455	0.010248	-0.009272	1.008452	0.366	0.0645	0.0825	0	3	1031	1
2026-02-11	16:06:22.870	-0.14	0.105	-0.42	0.011712	-0.010248	1.008452	0.3645	0.0585	0.0855	0	3	1031	1
2026-02-11	16:06:22.890	-0.105	0.105	-0.49	0.010248	-0.01098	1.00772	0.372	0.06	0.087	0	3	1031	1
2026-02-11	16:06:22.910	-0.14	0.105	-0.49	0.00732	-0.010492	1.007232	0.3615	0.0735	0.0825	0	3	1031	1
2026-02-11	16:06:22.930	-0.175	0.105	-0.455	0.010248	-0.009272	1.008452	0.369	0.0645	0.084	0	3	1031	1
2026-02-11	16:06:22.950	-0.14	0.14	-0.455	0.011956	-0.0122	1.00772	0.363	0.072	0.084	0	3	1031	1
2026-02-11	16:06:22.970	-0.14	0.14	-0.455	0.012444	-0.012444	1.010648	0.369	0.0735	0.0885	0	3	1031	1
2026-02-11	16:06:22.990	-0.105	0.14	-0.455	0.010004	-0.01098	1.007964	0.3645	0.0675	0.0855	0	3	1031	1
2026-02-11	16:06:23.010	-0.14	0.105	-0.42	0.010736	-0.00976	1.009672	0.3645	0.0675	0.0855	0	2	1031	1
2026-02-11	16:06:23.030	-0.105	0.105	-0.455	0.005856	-0.011224	1.005768	0.3645	0.0675	0.0855	0	2	1031	1
2026-02-11	16:06:23.050	-0.14	0.105	-0.455	0.011712	-0.011956	1.00894	0.3645	0.066	0.084	0	2	1031	1
2026-02-11	16:06:23.070	-0.14	0.14	-0.455	0.010004	-0.010004	1.009672	0.3585	0.0645	0.0855	0	2	1031	1
2026-02-11	16:06:23.090	-0.105	0.105	-0.455	0.010004	-0.009516	1.006744	0.372	0.063	0.0765	0	2	1031	1
2026-02-11	16:06:23.110	-0.105	0.07	-0.455	0.010736	-0.010004	1.008208	0.3645	0.066	0.0915	0	2	1031	1
2026-02-11	16:06:23.130	-0.105	0.105	-0.455	0.010004	-0.00976	1.006744	0.3645	0.0675	0.0855	0	2	1031	1
2026-02-11	16:06:23.150	-0.14	0.105	-0.455	0.007808	-0.00976	1.011136	0.3645	0.063	0.09	0	2	1031	1
2026-02-11	16:06:23.170	-0.105	0.105	-0.455	0.009516	-0.011468	1.009184	0.369	0.06	0.0855	0	2	1031	1
2026-02-11	16:06:23.190	-0.105	0.105	-0.42	0.010004	-0.011468	1.004792	0.3585	0.0525	0.0975	0	2	1031	1
2026-02-11	16:06:23.210	-0.105	0.07	-0.455	0.012932	-0.007808	1.009672	0.3675	0.06	0.087	0	2	1031	1
2026-02-11	16:06:23.230	-0.14	0.105	-0.42	0.011468	-0.011468	1.008696	0.3645	0.0645	0.075	0	2	1031	1
2026-02-11	16:06:23.250	-0.14	0.105	-0.42	0.010492	-0.004392	1.007964	0.3645	0.0675	0.084	0	2	1031	1
2026-02-11	16:06:23.270	-0.105	0.105	-0.455	0.011468	-0.010736	1.00772	0.366	0.063	0.0795	0	2	1031	1
2026-02-11	16:06:23.290	-0.105	0.14	-0.42	0.010004	-0.010492	1.003816	0.366	0.063	0.0795	0	2	1031	1
2026-02-11	16:06:23.310	-0.14	0.105	-0.455	0.011712	-0.007808	1.007964	0.366	0.06	0.0825	0	2	1031	1
2026-02-11	16:06:23.330	-0.14	0.105	-0.455	0.010248	-0.011956	1.007964	0.366	0.06	0.09	0	2	1031	1
2026-02-11	16:06:23.350	-0.14	0.105	-0.49	0.011712	-0.012444	1.0065	0.3675	0.06	0.09	0	2	1031	1
2026-02-11	16:06:23.370	-0.14	0.14	-0.455	0.010492	-0.01098	1.009184	0.3675	0.0645	0.087	0	2	1031	1
2026-02-11	16:06:23.390	-0.105	0.14	-0.455	0.00854	-0.010004	1.007232	0.3615	0.072	0.084	0	2	1031	1
2026-02-11	16:06:23.410	-0.14	0.105	-0.455	0.008784	-0.009028	1.005036	0.3585	0.0675	0.084	0	2	1031	1
2026-02-11	16:06:23.430	-0.14	0.105	-0.455	0.010492	-0.005124	1.005036	0.363	0.0645	0.0825	0	2	1031	1
2026-02-11	16:06:23.450	-0.14	0.105	-0.455	0.013664	-0.010248	1.010892	0.366	0.0645	0.0795	0	2	1031	1
2026-02-11	16:06:23.470	-0.14	0.105	-0.455	0.01098	-0.010492	1.010404	0.363	0.0585	0.0855	0	2	1031	1
2026-02-11	16:06:23.490	-0.105	0.105	-0.455	0.010736	-0.012444	1.007476	0.36	0.0615	0.087	0	2	1031	1
2026-02-11	16:06:23.510	-0.105	0.14	-0.455	0.013176	-0.009516	1.009672	0.3585	0.0645	0.0825	0	2	1031	1
2026-02-11	16:06:23.530	-0.14	0.105	-0.455	0.011224	-0.011468	1.010648	0.366	0.063	0.081	0	2	1031	1
2026-02-11	16:06:23.550	-0.175	0.105	-0.455	0.00976	-0.009272	1.011624	0.372	0.063	0.081	0	2	1031	1
2026-02-11	16:06:23.570	-0.105	0.105	-0.455	0.011712	-0.010248	1.008696	0.372	0.063	0.081	0	2	1031	1
2026-02-11	16:06:23.590	-0.105	0.105	-0.42	0.009516	-0.00976	1.006256	0.363	0.0645	0.084	0	2	1031	1
2026-02-11	16:06:23.610	-0.105	0.14	-0.455	0.0122	-0.011224	1.007964	0.36	0.0645	0.087	0	2	1031	1
2026-02-11	16:06:23.630	-0.14	0.105	-0.455	0.010492	-0.010248	1.010892	0.36	0.063	0.0885	0	2	1031	1
2026-02-11	16:06:23.650	-0.175	0.14	-0.455	0.009516	-0.009272	1.008208	0.36	0.06	0.09	0	2	1031	1
2026-02-11	16:06:23.670	-0.105	0.105	-0.49	0.011468	-0.00976	1.007232	0.36	0.06	0.084	0	2	1031	1
2026-02-11	16:06:23.690	-0.105	0.14	-0.455	0.010492	-0.00976	1.008208	0.36	0.0585	0.081	0	2	1031	1
2026-02-11	16:06:23.710	-0.105	0.105	-0.455	0.010492	-0.008052	1.011624	0.3645	0.06	0.0855	0	2	1031	1
2026-02-11	16:06:23.730	-0.105	0.105	-0.49	0.010248	-0.01098	1.00772	0.3645	0.06	0.087	0	2	1031	1
2026-02-11	16:06:23.750	-0.105	0.14	-0.42	0.00854	-0.006832	1.006256	0.363	0.0645	0.084	0	2	1031	1
2026-02-11	16:06:23.770	-0.14	0.105	-0.455	0.00976	-0.014884	1.008208	0.363	0.066	0.078	0	2	1031	1
2026-02-11	16:06:23.790	-0.105	0.105	-0.455	0.011956	-0.01098	1.008208	0.366	0.066	0.078	0	2	1031	1
2026-02-11	16:06:23.810	-0.105	0.105	-0.455	0.010004	-0.00976	1.0065	0.372	0.0705	0.078	0	2	1031	1
2026-02-11	16:06:23.830	-0.14	0.14	-0.455	0.009272	-0.006832	1.00894	0.372	0.0705	0.078	0	2	1031	1
2026-02-11	16:06:23.850	-0.14	0.14	-0.455	0.011224	-0.007808	1.007964	0.357	0.057	0.0825	0	2	1031	1
2026-02-11	16:06:23.870	-0.14	0.14	-0.455	0.011224	-0.011224	1.004304	0.3585	0.0675	0.081	0	2	1031	1
2026-02-11	16:06:23.890	-0.14	0.105	-0.49	0.010248	-0.00976	1.00894	0.372	0.0705	0.084	0	2	1031	1
2026-02-11	16:06:23.910	-0.14	0.105	-0.455	0.012444	-0.010492	1.01504	0.366	0.066	0.0855	0	2	1031	1
2026-02-11	16:06:23.930	-0.105	0.105	-0.42	0.012688	-0.01098	1.003816	0.366	0.06	0.0825	0	2	1031	1
2026-02-11	16:06:23.950	-0.21	0.105	-0.455	0.010492	-0.009028	1.008696	0.3705	0.057	0.0825	0	2	1031	1
2026-02-11	16:06:23.970	-0.14	0.105	-0.455	0.012688	-0.006832	1.009672	0.363	0.066	0.0855	0	2	1031	1
2026-02-11	16:06:23.990	-0.105	0.14	-0.455	0.00976	-0.007808	1.004548	0.369	0.0675	0.084	0	2	1031	1
2026-02-11	16:06:24.010	-0.175	0.14	-0.455	0.009028	-0.005612	1.006744	0.369	0.0675	0.084	0	2	1031	1
2026-02-11	16:06:24.030	-0.14	0.105	-0.49	0.008296	-0.007808	1.01138	0.3585	0.0645	0.081	0	2	1031	1
2026-02-11	16:06:24.050	-0.14	0.105	-0.49	0.013176	-0.00976	1.007232	0.3705	0.057	0.0795	0	2	1031	1
2026-02-11	16:06:24.070	-0.105	0.105	-0.455	0.009028	-0.0122	1.011624	0.36	0.066	0.0885	0	2	1031	1
2026-02-11	16:06:24.090	-0.14	0.105	-0.455	0.010004	-0.008296	1.004792	0.36	0.066	0.0885	0	2	1031	1
2026-02-11	16:06:24.110	-0.14	0.14	-0.455	0.010492	-0.0122	1.006744	0.363	0.0645	0.087	0	2	1031	1
2026-02-11	16:06:24.130	-0.175	0.175	-0.455	0.009028	-0.010248	1.007476	0.363	0.06	0.084	0	2	1031	1
2026-02-11	16:06:24.150	-0.175	0.14	-0.49	0.008052	-0.011712	1.011136	0.3645	0.06	0.0855	0	2	1031	1
2026-02-11	16:06:24.170	-0.105	0.14	-0.455	0.010004	-0.011956	1.010648	0.366	0.069	0.0885	0	2	1031	1
2026-02-11	16:06:24.190	-0.105	0.105	-0.455	0.011224	-0.009028	1.005036	0.3645	0.066	0.0855	0	2	1031	1
2026-02-11	16:06:24.210	-0.14	0.14	-0.455	0.01098	-0.009516	1.009184	0.366	0.0615	0.0855	0	2	1031	1
2026-02-11	16:06:24.230	-0.175	0.105	-0.455	0.00976	-0.0122	1.004548	0.3675	0.0645	0.09	0	2	1031	1
2026-02-11	16:06:24.250	-0.21	0.105	-0.455	0.011468	-0.011956	1.014796	0.3705	0.063	0.081	0	2	1031	1
2026-02-11	16:06:24.270	-0.105	0.105	-0.455	0.0122	-0.009028	1.006256	0.3645	0.0585	0.087	0	2	1031	1
2026-02-11	16:06:24.290	-0.105	0.175	-0.455	0.010004	-0.008296	1.01016	0.366	0.0675	0.075	0	2	1031	1
2026-02-11	16:06:24.310	-0.175	0.14	-0.455	0.011468	-0.00854	1.006256	0.3645	0.0615	0.087	0	2	1031	1
2026-02-11	16:06:24.330	-0.14	0.105	-0.42	0.012688	-0.00854	1.009184	0.357	0.069	0.0915	0	2	1031	1
2026-02-11	16:06:24.350	-0.175	0.14	-0.455	0.00976	-0.010736	1.007964	0.3675	0.0675	0.084	0	2	1031	1
2026-02-11	16:06:24.370	-0.14	0.105	-0.455	0.009516	-0.012444	1.009428	0.366	0.066	0.084	0	2	1031	1
2026-02-11	16:06:24.390	-0.14	0.105	-0.455	0.011224	-0.008296	1.0065	0.369	0.0645	0.081	0	2	1031	1
2026-02-11	16:06:24.410	-0.14	0.105	-0.42	0.00976	-0.00976	1.007232	0.3675	0.0645	0.0795	0	2	1031	1
2026-02-11	16:06:24.430	-0.14	0.105	-0.455	0.009272	-0.008784	1.010404	0.3645	0.063	0.084	0	2	1031	1
2026-02-11	16:06:24.450	-0.14	0.105	-0.455	0.011712	-0.012932	1.008696	0.3675	0.0675	0.0855	0	2	1031	1
2026-02-11	16:06:24.470	-0.105	0.105	-0.455	0.011956	-0.009028	1.00528	0.3645	0.069	0.0855	0	2	1031	1
2026-02-11	16:06:24.490	-0.14	0.105	-0.455	0.00732	-0.010492	1.004304	0.3645	0.066	0.0825	0	2	1031	1
2026-02-11	16:06:24.510	-0.14	0.105	-0.49	0.00732	-0.011956	1.008208	0.366	0.066	0.0825	0	2	1031	1
2026-02-11	16:06:24.530	-0.14	0.14	-0.455	0.011224	-0.013664	1.01016	0.366	0.0675	0.084	0	2	1031	1
2026-02-11	16:06:24.550	-0.14	0.14	-0.42	0.011956	-0.0122	1.008696	0.3645	0.066	0.084	0	2	1031	1
2026-02-11	16:06:24.570	-0.14	0.14	-0.42	0.011224	-0.009516	1.007964	0.3645	0.066	0.081	0	2	1031	1
2026-02-11	16:06:24.590	-0.14	0.14	-0.49	0.0122	-0.00976	1.006256	0.3645	0.066	0.081	0	2	1031	1
2026-02-11	16:06:24.610	-0.175	0.105	-0.455	0.010492	-0.010492	1.008208	0.3705	0.0645	0.0825	0	2	1031	1
2026-02-11	16:06:24.630	-0.14	0.14	-0.455	0.008784	-0.00854	1.009428	0.3795	0.0645	0.0795	0	2	1031	1
2026-02-11	16:06:24.650	-0.14	0.105	-0.42	0.011468	-0.011712	1.011868	0.3645	0.0675	0.081	0	2	1031	1
2026-02-11	16:06:24.670	-0.105	0.105	-0.455	0.011468	-0.007564	1.006256	0.369	0.0645	0.0855	0	2	1031	1
2026-02-11	16:06:24.690	-0.105	0.14	-0.455	0.010248	-0.00976	1.00772	0.357	0.06	0.0825	0	2	1031	1
2026-02-11	16:06:24.710	-0.14	0.14	-0.42	0.009028	-0.011224	1.0065	0.3675	0.0585	0.0885	0	2	1031	1
2026-02-11	16:06:24.730	-0.14	0.14	-0.49	0.010248	-0.00976	1.008208	0.3615	0.069	0.0915	0	2	1031	1
2026-02-11	16:06:24.750	-0.14	0.14	-0.49	0.00854	-0.01464	1.007964	0.366	0.06	0.093	0	2	1031	1
2026-02-11	16:06:24.770	-0.14	0.14	-0.455	0.013664	-0.009028	1.009428	0.369	0.0705	0.0855	0	2	1031	1
2026-02-11	16:06:24.790	-0.14	0.105	-0.49	0.011224	-0.009028	1.008208	0.3675	0.072	0.0855	0	2	1031	1
2026-02-11	16:06:24.810	-0.105	0.105	-0.455	0.01098	-0.009272	1.005768	0.369	0.0645	0.0855	0	2	1031	1
2026-02-11	16:06:24.830	-0.175	0.14	-0.42	0.008784	-0.008784	1.006988	0.363	0.072	0.084	0	2	1031	1
2026-02-11	16:06:24.850	-0.14	0.105	-0.42	0.008784	-0.011224	1.011136	0.363	0.0645	0.0855	0	2	1031	1
2026-02-11	16:06:24.870	-0.14	0.105	-0.49	0.01098	-0.009272	1.005768	0.3615	0.06	0.0885	0	2	1031	1
2026-02-11	16:06:24.890	-0.14	0.14	-0.455	0.010004	-0.008784	1.0065	0.36	0.063	0.09	0	2	1031	1
2026-02-11	16:06:24.910	-0.14	0.105	-0.455	0.013176	-0.011468	1.006988	0.36	0.063	0.09	0	2	1031	1
2026-02-11	16:06:24.930	-0.14	0.105	-0.455	0.010736	-0.009516	1.009428	0.36	0.06	0.0825	0	2	1031	1
2026-02-11	16:06:24.950	-0.14	0.14	-0.455	0.00732	-0.012932	1.007964	0.3615	0.066	0.084	0	2	1031	1
2026-02-11	16:06:24.970	-0.14	0.105	-0.455	0.010736	-0.010004	1.009672	0.3645	0.066	0.0855	0	2	1031	1
2026-02-11	16:06:24.990	-0.14	0.105	-0.49	0.00732	-0.010248	1.009672	0.3645	0.06	0.0885	0	2	1031	1
2026-02-11	16:06:25.010	-0.175	0.14	-0.455	0.011956	-0.011712	1.006744	0.3645	0.066	0.0855	0	2	1031	1
2026-02-11	16:06:25.030	-0.14	0.105	-0.42	0.009516	-0.010736	1.008208	0.3615	0.0615	0.081	0	2	1031	1
2026-02-11	16:06:25.050	-0.14	0.105	-0.42	0.007808	-0.012932	1.008208	0.3615	0.069	0.078	0	2	1031	1
2026-02-11	16:06:25.070	-0.175	0.14	-0.455	0.011224	-0.01586	1.0065	0.3675	0.0735	0.09	0	2	1031	1
2026-02-11	16:06:25.090	-0.14	0.105	-0.49	0.01098	-0.00976	1.012112	0.3615	0.0615	0.0765	0	2	1031	1
2026-02-11	16:06:25.110	-0.14	0.105	-0.455	0.010248	-0.008784	1.012112	0.36	0.069	0.0825	0	2	1031	1
2026-02-11	16:06:25.130	-0.105	0.105	-0.455	0.012932	-0.008052	1.0065	0.3615	0.0645	0.0855	0	2	1031	1
2026-02-11	16:06:25.150	-0.14	0.14	-0.455	0.010736	-0.012932	1.007964	0.3585	0.06	0.0855	0	2	1031	1
2026-02-11	16:06:25.170	-0.14	0.105	-0.455	0.010736	-0.008296	1.009916	0.3585	0.06	0.0855	0	2	1031	1
2026-02-11	16:06:25.190	-0.14	0.105	-0.455	0.01098	-0.011224	1.00772	0.363	0.063	0.0855	0	2	1031	1
2026-02-11	16:06:25.210	-0.14	0.14	-0.455	0.01098	-0.012444	1.00772	0.363	0.066	0.084	0	2	1031	1
2026-02-11	16:06:25.230	-0.105	0.105	-0.455	0.012932	-0.010248	1.008208	0.3615	0.066	0.087	0	2	1031	1
2026-02-11	16:06:25.250	-0.105	0.105	-0.49	0.0122	-0.010004	1.008452	0.363	0.069	0.087	0	2	1031	1
2026-02-11	16:06:25.270	-0.105	0.105	-0.49	0.009028	-0.01098	1.008696	0.363	0.069	0.0855	0	2	1031	1
2026-02-11	16:06:25.290	-0.105	0.105	-0.455	0.010736	-0.011468	1.006988	0.3615	0.066	0.0855	0	2	1031	1
2026-02-11	16:06:25.310	-0.14	0.105	-0.455	0.013176	-0.012444	1.007232	0.36	0.069	0.084	0	2	1031	1
2026-02-11	16:06:25.330	-0.14	0.14	-0.49	0.012688	-0.009028	1.009916	0.3615	0.069	0.087	0	2	1031	1
2026-02-11	16:06:25.350	-0.14	0.14	-0.455	0.009028	-0.011712	1.009916	0.363	0.0645	0.0915	0	2	1031	1
2026-02-11	16:06:25.370	-0.14	0.105	-0.49	0.012688	-0.010736	1.00894	0.363	0.063	0.087	0	2	1031	1
2026-02-11	16:06:25.390	-0.105	0.105	-0.42	0.011712	-0.011224	1.008208	0.3615	0.063	0.0825	0	2	1031	1
2026-02-11	16:06:25.410	-0.105	0.105	-0.455	0.011468	-0.011712	1.003328	0.36	0.0645	0.087	0	2	1031	1
2026-02-11	16:06:25.430	-0.175	0.105	-0.455	0.009028	-0.009028	1.010648	0.3615	0.066	0.0915	0	2	1031	1
2026-02-11	16:06:25.450	-0.14	0.105	-0.455	0.008296	-0.01098	1.009184	0.3615	0.066	0.0915	0	2	1031	1
2026-02-11	16:06:25.470	-0.175	0.14	-0.42	0.011956	-0.009272	1.007964	0.3645	0.066	0.084	0	2	1031	1
2026-02-11	16:06:25.490	-0.14	0.105	-0.455	0.01098	-0.013664	1.009672	0.369	0.063	0.0825	0	2	1031	1
2026-02-11	16:06:25.510	-0.14	0.14	-0.455	0.011956	-0.010248	1.007476	0.3705	0.063	0.0855	0	2	1031	1
2026-02-11	16:06:25.530	-0.14	0.14	-0.455	0.011468	-0.009516	1.005036	0.3645	0.066	0.0795	0	2	1031	1
2026-02-11	16:06:25.550	-0.14	0.14	-0.455	0.010004	-0.0122	1.007964	0.363	0.066	0.081	0	2	1031	1
2026-02-11	16:06:25.570	-0.105	0.105	-0.455	0.007808	-0.013664	1.007964	0.3645	0.0645	0.087	0	2	1031	1
2026-02-11	16:06:25.590	-0.14	0.105	-0.42	0.012444	-0.010004	1.008208	0.3585	0.06	0.0855	0	2	1031	1
2026-02-11	16:06:25.610	-0.14	0.14	-0.455	0.00976	-0.009516	1.010404	0.357	0.057	0.0855	0	2	1031	1
2026-02-11	16:06:25.630	-0.14	0.105	-0.455	0.009516	-0.009028	1.004548	0.363	0.06	0.0855	0	2	1031	1
2026-02-11	16:06:25.650	-0.14	0.14	-0.455	0.010004	-0.013176	1.009916	0.3645	0.063	0.0855	0	2	1031	1
2026-02-11	16:06:25.670	-0.14	0.14	-0.49	0.008784	-0.00854	1.009184	0.3645	0.066	0.0855	0	2	1031	1
2026-02-11	16:06:25.690	-0.14	0.14	-0.42	0.01098	-0.00976	1.006744	0.366	0.0615	0.087	0	2	1031	1
2026-02-11	16:06:25.710	-0.14	0.105	-0.525	0.010492	-0.009516	1.007232	0.366	0.0585	0.087	0	2	1031	1
2026-02-11	16:06:25.730	-0.14	0.105	-0.455	0.01098	-0.011224	1.006744	0.363	0.063	0.0885	0	2	1031	1
2026-02-11	16:06:25.750	-0.14	0.105	-0.42	0.006832	-0.010492	1.00894	0.3645	0.0675	0.081	0	2	1031	1
2026-02-11	16:06:25.770	-0.14	0.14	-0.49	0.01098	-0.0061	1.01138	0.372	0.06	0.0855	0	2	1031	1
2026-02-11	16:06:25.790	-0.105	0.105	-0.455	0.011468	-0.012688	1.003572	0.363	0.0615	0.0825	0	2	1031	1
2026-02-11	16:06:25.810	-0.105	0.105	-0.455	0.011468	-0.01098	1.0065	0.363	0.072	0.0855	0	2	1031	1
2026-02-11	16:06:25.830	-0.14	0.14	-0.455	0.009516	-0.00976	1.009428	0.366	0.063	0.087	0	2	1031	1
2026-02-11	16:06:25.850	-0.14	0.105	-0.49	0.0122	-0.012444	1.008696	0.363	0.0735	0.078	0	2	1031	1
2026-02-11	16:06:25.870	-0.14	0.14	-0.42	0.009028	-0.009028	1.007476	0.3735	0.0645	0.087	0	2	1031	1
2026-02-11	16:06:25.890	-0.14	0.14	-0.455	0.008784	-0.010492	1.009428	0.366	0.0705	0.0885	0	2	1031	1
2026-02-11	16:06:25.910	-0.105	0.14	-0.455	0.010736	-0.007564	1.009672	0.3705	0.0615	0.081	0	2	1031	1
2026-02-11	16:06:25.930	-0.14	0.14	-0.455	0.012688	-0.010736	1.009428	0.366	0.0615	0.0855	0	2	1031	1
2026-02-11	16:06:25.950	-0.105	0.14	-0.42	0.009272	-0.01098	1.007964	0.3615	0.0645	0.084	0	2	1031	1
2026-02-11	16:06:25.970	-0.14	0.105	-0.49	0.00732	-0.011956	1.009428	0.363	0.063	0.087	0	2	1031	1
2026-02-11	16:06:25.990	-0.14	0.07	-0.455	0.009272	-0.010492	1.009916	0.366	0.0615	0.0825	0	2	1031	1
2026-02-11	16:06:26.010	-0.175	0.105	-0.455	0.013664	-0.009516	1.00894	0.363	0.0645	0.078	0	2	1031	1
2026-02-11	16:06:26.030	-0.175	0.105	-0.49	0.010004	-0.012444	1.008696	0.3615	0.066	0.081	0	2	1031	1
2026-02-11	16:06:26.050	-0.14	0.14	-0.455	0.010492	-0.0122	1.0065	0.366	0.0645	0.084	0	2	1031	1
2026-02-11	16:06:26.070	-0.105	0.105	-0.455	0.011468	-0.012444	1.00772	0.3615	0.0675	0.0855	0	2	1031	1
2026-02-11	16:06:26.090	-0.14	0.14	-0.455	0.011468	-0.010736	1.007964	0.3585	0.066	0.081	0	2	1031	1
2026-02-11	16:06:26.110	-0.14	0.14	-0.455	0.006832	-0.012688	1.008696	0.3585	0.0645	0.0855	0	2	1031	1
2026-02-11	16:06:26.130	-0.105	0.14	-0.455	0.009028	-0.011956	1.008696	0.36	0.0645	0.093	0	2	1031	1
2026-02-11	16:06:26.150	-0.105	0.14	-0.42	0.013664	-0.010492	1.009672	0.372	0.0645	0.084	0	2	1031	1
2026-02-11	16:06:26.170	-0.105	0.105	-0.455	0.009516	-0.00854	1.008208	0.3675	0.0735	0.093	0	2	1031	1
2026-02-11	16:06:26.190	-0.14	0.14	-0.455	0.010736	-0.012688	1.009672	0.363	0.0705	0.09	0	2	1031	1
2026-02-11	16:06:26.210	-0.105	0.105	-0.455	0.011468	-0.01098	1.008696	0.372	0.0675	0.093	0	2	1031	1
2026-02-11	16:06:26.230	-0.14	0.105	-0.455	0.011224	-0.01342	1.006256	0.369	0.0615	0.09	0	2	1031	1
2026-02-11	16:06:26.250	-0.175	0.105	-0.42	0.00976	-0.011712	1.010648	0.3705	0.063	0.087	0	2	1031	1
2026-02-11	16:06:26.270	-0.14	0.105	-0.455	0.011956	-0.010004	1.00894	0.3645	0.0645	0.087	0	2	1031	1
2026-02-11	16:06:26.290	-0.14	0.105	-0.42	0.01098	-0.012444	1.00772	0.3615	0.06	0.087	0	2	1031	1
2026-02-11	16:06:26.310	-0.175	0.14	-0.42	0.00976	-0.008296	1.009916	0.363	0.0615	0.084	0	2	1031	1
2026-02-11	16:06:26.330	-0.14	0.105	-0.455	0.010492	-0.005856	1.005036	0.366	0.0705	0.084	0	2	1031	1
2026-02-11	16:06:26.350	-0.14	0.105	-0.49	0.01342	-0.01098	1.007232	0.3675	0.0675	0.084	0	2	1031	1
2026-02-11	16:06:26.370	-0.14	0.14	-0.42	0.008052	-0.01098	1.006988	0.3645	0.0675	0.081	0	2	1031	1
2026-02-11	16:06:26.390	-0.14	0.105	-0.49	0.010004	-0.01098	1.007232	0.363	0.0675	0.0825	0	2	1031	1
2026-02-11	16:06:26.410	-0.14	0.105	-0.455	0.015616	-0.01098	1.008452	0.363	0.0645	0.087	0	2	1031	1
2026-02-11	16:06:26.430	-0.175	0.105	-0.49	0.011224	-0.011712	1.011868	0.363	0.0645	0.087	0	2	1031	1
2026-02-11	16:06:26.450	-0.14	0.105	-0.49	0.00854	-0.011956	1.005524	0.363	0.0645	0.084	0	2	1031	1
2026-02-11	16:06:26.470	-0.14	0.14	-0.455	0.00854	-0.011712	1.009428	0.363	0.0645	0.087	0	2	1031	1
2026-02-11	16:06:26.490	-0.14	0.105	-0.42	0.011712	-0.008784	1.006012	0.363	0.066	0.087	0	2	1031	1
2026-02-11	16:06:26.510	-0.175	0.14	-0.455	0.006344	-0.010736	1.00894	0.3645	0.066	0.087	0	2	1031	1
2026-02-11	16:06:26.530	-0.105	0.14	-0.455	0.008296	-0.010248	1.00894	0.3615	0.0645	0.0855	0	2	1031	1
2026-02-11	16:06:26.550	-0.07	0.14	-0.455	0.008296	-0.010004	1.006012	0.363	0.0615	0.0855	0	2	1031	1
2026-02-11	16:06:26.570	-0.105	0.14	-0.455	0.010248	-0.011712	1.006744	0.3615	0.0645	0.084	0	2	1031	1
2026-02-11	16:06:26.590	-0.105	0.14	-0.455	0.010004	-0.011956	1.008696	0.363	0.066	0.0855	0	2	1031	1
2026-02-11	16:06:26.610	-0.14	0.07	-0.455	0.011468	-0.010736	1.008452	0.36	0.063	0.0795	0	2	1031	1
2026-02-11	16:06:26.630	-0.105	0.105	-0.455	0.012444	-0.013176	1.00772	0.3675	0.0615	0.084	0	2	1031	1
2026-02-11	16:06:26.650	-0.175	0.105	-0.455	0.007808	-0.007564	1.003816	0.3585	0.063	0.0915	0	2	1031	1
2026-02-11	16:06:26.670	-0.14	0.105	-0.455	0.009272	-0.01098	1.012844	0.3585	0.0645	0.09	0	2	1031	1
2026-02-11	16:06:26.690	-0.14	0.105	-0.455	0.011956	-0.010248	1.00772	0.3705	0.066	0.0795	0	2	1031	1
2026-02-11	16:06:26.710	-0.105	0.105	-0.455	0.012444	-0.012688	1.0065	0.369	0.0645	0.078	0	2	1031	1
2026-02-11	16:06:26.730	-0.105	0.14	-0.455	0.010004	-0.009516	1.007232	0.36	0.0525	0.0825	0	2	1031	1
2026-02-11	16:06:26.750	-0.14	0.105	-0.455	0.010004	-0.012932	1.00772	0.3705	0.069	0.087	0	2	1031	1
2026-02-11	16:06:26.770	-0.175	0.105	-0.455	0.00976	-0.015616	1.007476	0.3705	0.06	0.0825	0	2	1031	1
2026-02-11	16:06:26.790	-0.14	0.105	-0.42	0.013664	-0.011712	1.007232	0.363	0.0585	0.084	0	2	1031	1
2026-02-11	16:06:26.810	-0.14	0.07	-0.42	0.0122	-0.00854	1.009672	0.363	0.066	0.084	0	2	1031	1
2026-02-11	16:06:26.830	-0.14	0.105	-0.455	0.010248	-0.008052	1.009916	0.363	0.0675	0.0825	0	2	1031	1
2026-02-11	16:06:26.850	-0.14	0.14	-0.455	0.010736	-0.00854	1.00894	0.3615	0.06	0.0855	0	2	1031	1
2026-02-11	16:06:26.870	-0.105	0.105	-0.455	0.009516	-0.010004	1.007476	0.369	0.069	0.078	0	2	1031	1
2026-02-11	16:06:26.890	-0.175	0.105	-0.455	0.00732	-0.011712	1.011136	0.3585	0.066	0.084	0	2	1031	1
2026-02-11	16:06:26.910	-0.14	0.105	-0.42	0.011468	-0.012688	1.006256	0.366	0.066	0.093	0	2	1031	1
2026-02-11	16:06:26.930	-0.14	0.105	-0.455	0.010736	-0.013176	1.008208	0.36	0.072	0.087	0	2	1031	1
2026-02-11	16:06:26.950	-0.14	0.105	-0.42	0.01098	-0.009028	1.007964	0.3585	0.06	0.0825	0	2	1031	1
2026-02-11	16:06:26.970	-0.105	0.105	-0.42	0.008296	-0.0122	1.011624	0.363	0.0585	0.0795	0	2	1031	1
2026-02-11	16:06:26.990	-0.105	0.105	-0.455	0.0122	-0.010248	1.0065	0.372	0.06	0.0825	0	2	1031	1
2026-02-11	16:06:27.010	-0.14	0.105	-0.455	0.0122	-0.010248	1.009184	0.36	0.063	0.0885	0	2	1031	1
2026-02-11	16:06:27.030	-0.14	0.105	-0.455	0.0122	-0.011712	1.002108	0.3675	0.0615	0.087	0	2	1031	1
2026-02-11	16:06:27.050	-0.14	0.105	-0.455	0.009272	-0.009272	1.008696	0.3675	0.0615	0.087	0	2	1031	1
2026-02-11	16:06:27.070	-0.14	0.14	-0.49	0.010248	-0.014152	1.008696	0.363	0.063	0.084	0	2	1031	1
2026-02-11	16:06:27.090	-0.14	0.105	-0.455	0.00976	-0.00976	1.009672	0.3645	0.0675	0.087	0	2	1031	1
2026-02-11	16:06:27.110	-0.105	0.105	-0.455	0.007808	-0.008784	1.006012	0.369	0.0675	0.0855	0	2	1031	1
2026-02-11	16:06:27.130	-0.14	0.105	-0.455	0.011468	-0.006832	1.00528	0.3675	0.063	0.081	0	2	1031	1
2026-02-11	16:06:27.150	-0.14	0.14	-0.49	0.008296	-0.00854	1.007964	0.3645	0.0615	0.0825	0	2	1031	1
2026-02-11	16:06:27.170	-0.14	0.105	-0.49	0.008784	-0.009516	1.01016	0.3645	0.06	0.0855	0	2	1031	1
2026-02-11	16:06:27.190	-0.14	0.07	-0.455	0.010492	-0.010004	1.008208	0.363	0.0615	0.0855	0	2	1031	1
2026-02-11	16:06:27.210	-0.14	0.14	-0.42	0.00732	-0.01098	1.00772	0.363	0.0615	0.0825	0	2	1031	1
2026-02-11	16:06:27.230	-0.14	0.07	-0.455	0.00854	-0.011712	1.006256	0.366	0.0615	0.081	0	2	1031	1
2026-02-11	16:06:27.250	-0.105	0.07	-0.455	0.011712	-0.011956	1.008696	0.3675	0.063	0.0885	0	2	1031	1
2026-02-11	16:06:27.270	-0.14	0.14	-0.455	0.011224	-0.01342	1.011868	0.3645	0.0645	0.0915	0	2	1031	1
2026-02-11	16:06:27.290	-0.14	0.105	-0.42	0.011712	-0.00854	1.008208	0.36	0.0615	0.084	0	2	1031	1
2026-02-11	16:06:27.310	-0.175	0.105	-0.49	0.0122	-0.009028	1.010892	0.36	0.06	0.0825	0	2	1031	1
2026-02-11	16:06:27.330	-0.14	0.105	-0.455	0.00732	-0.00976	1.006988	0.36	0.06	0.0825	0	2	1031	1
2026-02-11	16:06:27.350	-0.14	0.105	-0.455	0.007808	-0.00976	1.009428	0.3585	0.0615	0.0885	0	2	1031	1
2026-02-11	16:06:27.370	-0.175	0.105	-0.455	0.011224	-0.011468	1.006256	0.3615	0.066	0.093	0	2	1031	1
2026-02-11	16:06:27.390	-0.14	0.105	-0.455	0.010736	-0.007076	1.012112	0.363	0.063	0.0915	0	2	1031	1
2026-02-11	16:06:27.410	-0.105	0.14	-0.455	0.012444	-0.011224	1.006256	0.357	0.072	0.0855	0	2	1031	1
2026-02-11	16:06:27.430	-0.14	0.105	-0.49	0.008784	-0.010248	1.012356	0.3615	0.066	0.087	0	2	1031	1
2026-02-11	16:06:27.450	-0.14	0.105	-0.455	0.009272	-0.00976	1.01016	0.3645	0.057	0.0855	0	2	1031	1
2026-02-11	16:06:27.470	-0.14	0.14	-0.455	0.010736	-0.010492	1.004792	0.363	0.0585	0.0855	0	2	1031	1
2026-02-11	16:06:27.490	-0.14	0.105	-0.525	0.011956	-0.008296	1.004548	0.3615	0.0645	0.0855	0	2	1031	1
2026-02-11	16:06:27.510	-0.175	0.105	-0.455	0.0061	-0.01098	1.007964	0.3615	0.0645	0.087	0	2	1031	1
2026-02-11	16:06:27.530	-0.175	0.105	-0.49	0.014152	-0.010492	1.008452	0.363	0.06	0.0885	0	2	1031	1
2026-02-11	16:06:27.550	-0.175	0.105	-0.455	0.008052	-0.011956	1.008452	0.3675	0.0585	0.087	0	2	1031	1
2026-02-11	16:06:27.570	-0.14	0.105	-0.49	0.007564	-0.01098	1.008208	0.369	0.0645	0.0885	0	2	1031	1
2026-02-11	16:06:27.590	-0.105	0.14	-0.455	0.009272	-0.0122	1.0065	0.3645	0.0705	0.087	0	2	1031	1
2026-02-11	16:06:27.610	-0.14	0.105	-0.455	0.014152	-0.009516	1.006744	0.3645	0.0615	0.084	0	2	1031	1
2026-02-11	16:06:27.630	-0.175	0.105	-0.49	0.008296	-0.009516	1.009184	0.3615	0.066	0.0945	0	2	1031	1
2026-02-11	16:06:27.650	-0.14	0.105	-0.455	0.010492	-0.00732	1.011624	0.363	0.075	0.09	0	2	1031	1
2026-02-11	16:06:27.670	-0.105	0.14	-0.42	0.01098	-0.010736	1.006744	0.366	0.063	0.093	0	2	1031	1
2026-02-11	16:06:27.690	-0.14	0.14	-0.42	0.010004	-0.010248	1.00406	0.363	0.066	0.0825	0	2	1031	1
2026-02-11	16:06:27.710	-0.14	0.14	-0.42	0.008052	-0.010492	1.00894	0.363	0.0675	0.084	0	2	1031	1
2026-02-11	16:06:27.730	-0.14	0.105	-0.42	0.008052	-0.00976	1.007476	0.3645	0.0675	0.0855	0	2	1031	1
2026-02-11	16:06:27.750	-0.14	0.105	-0.42	0.008296	-0.010004	1.010648	0.366	0.0615	0.0795	0	2	1031	1
2026-02-11	16:06:27.770	-0.14	0.105	-0.455	0.009516	-0.01098	1.010404	0.363	0.0735	0.093	0	2	1031	1
2026-02-11	16:06:27.790	-0.105	0.14	-0.49	0.00732	-0.009516	1.006744	0.3675	0.066	0.0885	0	2	1031	1
2026-02-11	16:06:27.810	-0.105	0.105	-0.455	0.011224	-0.00976	1.00528	0.3585	0.0615	0.0855	0	2	1031	1
2026-02-11	16:06:27.830	-0.14	0.105	-0.42	0.011712	-0.012444	1.009672	0.369	0.066	0.0885	0	2	1031	1
2026-02-11	16:06:27.850	-0.14	0.105	-0.42	0.01098	-0.012688	1.008208	0.363	0.066	0.081	0	2	1031	1
2026-02-11	16:06:27.870	-0.105	0.105	-0.455	0.0061	-0.010736	1.008452	0.363	0.066	0.084	0	2	1031	1
2026-02-11	16:06:27.890	-0.14	0.14	-0.455	0.011712	-0.009028	1.006256	0.3615	0.0675	0.087	0	2	1031	1
2026-02-11	16:06:27.910	-0.14	0.14	-0.455	0.012444	-0.013176	1.007476	0.363	0.066	0.084	0	2	1031	1
2026-02-11	16:06:27.930	-0.175	0.14	-0.455	0.010492	-0.013176	1.011624	0.3675	0.0645	0.0825	0	2	1031	1
2026-02-11	16:06:27.950	-0.14	0.14	-0.455	0.011956	-0.011956	1.009672	0.363	0.0705	0.084	0	2	1031	1
2026-02-11	16:06:27.970	-0.14	0.14	-0.455	0.010004	-0.011468	1.005036	0.36	0.069	0.087	0	2	1031	1
2026-02-11	16:06:27.990	-0.175	0.14	-0.455	0.00854	-0.013176	1.009428	0.363	0.0675	0.0885	0	2	1031	1
2026-02-11	16:06:28.010	-0.14	0.14	-0.49	0.010736	-0.00976	1.008208	0.363	0.069	0.0855	0	2	1031	1
2026-02-11	16:06:28.030	-0.14	0.14	-0.455	0.008784	-0.010492	1.00894	0.366	0.0705	0.084	0	2	1031	1
2026-02-11	16:06:28.050	-0.14	0.105	-0.49	0.01098	-0.01098	1.010648	0.369	0.0705	0.0825	0	2	1031	1
2026-02-11	16:06:28.070	-0.105	0.14	-0.455	0.00976	-0.009516	1.009428	0.3705	0.0705	0.081	0	2	1031	1
2026-02-11	16:06:28.090	-0.14	0.105	-0.455	0.010248	-0.010004	1.010404	0.3705	0.0705	0.081	0	2	1031	1
2026-02-11	16:06:28.110	-0.14	0.105	-0.49	0.007076	-0.007076	1.00772	0.366	0.066	0.093	0	2	1031	1
2026-02-11	16:06:28.130	-0.14	0.105	-0.455	0.009028	-0.007808	1.009672	0.366	0.0645	0.0855	0	2	1031	1
2026-02-11	16:06:28.150	-0.14	0.105	-0.42	0.011468	-0.0122	1.006256	0.3615	0.0615	0.084	0	2	1031	1
2026-02-11	16:06:28.170	-0.14	0.14	-0.455	0.013664	-0.010492	1.0065	0.36	0.06	0.09	0	2	1031	1
2026-02-11	16:06:28.190	-0.14	0.105	-0.49	0.010004	-0.012932	1.009428	0.3645	0.0645	0.09	0	2	1031	1
2026-02-11	16:06:28.210	-0.14	0.105	-0.42	0.009516	-0.010736	1.00894	0.363	0.0645	0.09	0	2	1031	1
2026-02-11	16:06:28.230	-0.105	0.105	-0.455	0.010736	-0.011712	1.009184	0.3645	0.0615	0.0855	0	2	1031	1
2026-02-11	16:06:28.250	-0.105	0.105	-0.455	0.012932	-0.010004	1.00772	0.366	0.0585	0.081	0	2	1031	1
2026-02-11	16:06:28.270	-0.105	0.105	-0.455	0.008052	-0.007808	1.007476	0.363	0.0615	0.084	0	2	1031	1
2026-02-11	16:06:28.290	-0.105	0.105	-0.42	0.0122	-0.011712	1.005524	0.363	0.0645	0.087	0	2	1031	1
2026-02-11	16:06:28.310	-0.14	0.105	-0.455	0.011468	-0.013908	1.006012	0.3645	0.063	0.0915	0	2	1031	1
2026-02-11	16:06:28.330	-0.175	0.07	-0.455	0.012932	-0.009272	1.008208	0.363	0.06	0.09	0	2	1031	1
2026-02-11	16:06:28.350	-0.175	0.105	-0.455	0.010004	-0.009028	1.010404	0.363	0.0615	0.0855	0	2	1031	1
2026-02-11	16:06:28.370	-0.14	0.14	-0.49	0.011224	-0.009028	1.009916	0.363	0.0615	0.087	0	2	1031	1
2026-02-11	16:06:28.390	-0.175	0.14	-0.455	0.010004	-0.008784	1.006988	0.363	0.06	0.09	0	2	1031	1
2026-02-11	16:06:28.410	-0.14	0.105	-0.42	0.011712	-0.009516	1.011624	0.3675	0.0615	0.0825	0	2	1031	1
2026-02-11	16:06:28.430	-0.105	0.105	-0.455	0.010004	-0.010004	1.009672	0.3645	0.0675	0.087	0	2	1031	1
2026-02-11	16:06:28.450	-0.105	0.105	-0.42	0.01098	-0.00976	1.008208	0.363	0.066	0.087	0	2	1031	1
2026-02-11	16:06:28.470	-0.175	0.105	-0.49	0.00854	-0.009516	1.009184	0.3645	0.066	0.0885	0	2	1031	1
2026-02-11	16:06:28.490	-0.14	0.14	-0.455	0.00854	-0.010492	1.006988	0.3615	0.0645	0.0825	0	2	1031	1
2026-02-11	16:06:28.510	-0.14	0.105	-0.455	0.01098	-0.010492	1.009184	0.3645	0.0645	0.087	0	2	1031	1
2026-02-11	16:06:28.530	-0.14	0.14	-0.455	0.010736	-0.007076	1.01016	0.3675	0.0675	0.0915	0	2	1031	1
2026-02-11	16:06:28.550	-0.14	0.105	-0.455	0.011468	-0.011224	1.007476	0.3645	0.0615	0.0825	0	2	1031	1
2026-02-11	16:06:28.570	-0.105	0.105	-0.42	0.012688	-0.00976	1.005768	0.375	0.066	0.081	0	2	1031	1
2026-02-11	16:06:28.590	-0.105	0.105	-0.455	0.00976	-0.011468	1.007964	0.354	0.0615	0.084	0	2	1031	1
2026-02-11	16:06:28.610	-0.175	0.105	-0.455	0.01098	-0.011224	1.009672	0.3675	0.06	0.0855	0	2	1031	1
2026-02-11	16:06:28.630	-0.105	0.14	-0.455	0.010736	-0.011468	1.009428	0.3675	0.0645	0.0885	0	2	1031	1
2026-02-11	16:06:28.650	-0.105	0.105	-0.455	0.009516	-0.010004	1.011868	0.363	0.057	0.0795	0	2	1031	1
2026-02-11	16:06:28.670	-0.14	0.105	-0.49	0.009272	-0.011224	1.00772	0.369	0.06	0.081	0	2	1031	1
2026-02-11	16:06:28.690	-0.105	0.105	-0.455	0.009028	-0.010004	1.00894	0.375	0.063	0.0825	0	2	1031	1
2026-02-11	16:06:28.710	-0.14	0.105	-0.455	0.010492	-0.008296	1.004304	0.36	0.0675	0.0825	0	2	1031	1
2026-02-11	16:06:28.730	-0.14	0.105	-0.455	0.007808	-0.011956	1.011624	0.366	0.0675	0.0855	0	2	1031	1
2026-02-11	16:06:28.750	-0.105	0.14	-0.42	0.009516	-0.010736	1.008208	0.3675	0.066	0.087	0	2	1031	1
2026-02-11	16:06:28.770	-0.105	0.14	-0.42	0.010004	-0.013664	1.00528	0.366	0.057	0.0795	0	2	1031	1
2026-02-11	16:06:28.790	-0.175	0.105	-0.42	0.007564	-0.0122	1.006744	0.372	0.0645	0.0915	0	2	1031	1
2026-02-11	16:06:28.810	-0.14	0.105	-0.49	0.011712	-0.00854	1.007232	0.3615	0.0675	0.078	0	2	1031	1
2026-02-11	16:06:28.830	-0.175	0.105	-0.455	0.00976	-0.00732	1.01138	0.3675	0.063	0.087	0	2	1031	1
2026-02-11	16:06:28.850	-0.14	0.105	-0.42	0.010736	-0.008784	1.008452	0.3645	0.066	0.0915	0	2	1031	1
2026-02-11	16:06:28.870	-0.105	0.105	-0.455	0.010248	-0.00976	1.007476	0.3645	0.06	0.0915	0	2	1031	1
2026-02-11	16:06:28.890	-0.14	0.105	-0.42	0.012688	-0.009272	1.00772	0.363	0.0675	0.09	0	2	1031	1
2026-02-11	16:06:28.910	-0.14	0.105	-0.455	0.009028	-0.010736	1.008452	0.354	0.0645	0.0855	0	2	1031	1
2026-02-11	16:06:28.930	-0.175	0.105	-0.455	0.010492	-0.0122	1.006744	0.354	0.0645	0.0855	0	2	1031	1
2026-02-11	16:06:28.950	-0.14	0.105	-0.42	0.009272	-0.011712	1.012112	0.36	0.063	0.087	0	2	1031	1
2026-02-11	16:06:28.970	-0.105	0.14	-0.49	0.011224	-0.011224	1.00528	0.366	0.063	0.087	0	2	1031	1
2026-02-11	16:06:28.990	-0.105	0.105	-0.455	0.008784	-0.008296	1.007476	0.363	0.066	0.0825	0	2	1031	1
2026-02-11	16:06:29.010	-0.21	0.105	-0.455	0.009272	-0.010248	1.0065	0.3585	0.063	0.081	0	2	1031	1
2026-02-11	16:06:29.030	-0.14	0.14	-0.49	0.0122	-0.00976	1.008696	0.3615	0.06	0.084	0	2	1031	1
2026-02-11	16:06:29.050	-0.14	0.14	-0.455	0.013908	-0.01098	1.007476	0.366	0.0615	0.0855	0	2	1031	1
2026-02-11	16:06:29.070	-0.175	0.105	-0.455	0.009272	-0.009028	1.008208	0.363	0.063	0.0855	0	2	1031	1
2026-02-11	16:06:29.090	-0.14	0.105	-0.49	0.00732	-0.010492	1.005768	0.3615	0.069	0.0885	0	2	1031	1
2026-02-11	16:06:29.110	-0.14	0.14	-0.455	0.010492	-0.010248	1.008452	0.3615	0.0675	0.0855	0	2	1031	1
2026-02-11	16:06:29.130	-0.105	0.14	-0.42	0.012688	-0.010248	1.009916	0.36	0.0615	0.084	0	2	1031	1
2026-02-11	16:06:29.150	-0.105	0.105	-0.455	0.01098	-0.012932	1.01016	0.36	0.0615	0.084	0	2	1031	1
2026-02-11	16:06:29.170	-0.105	0.105	-0.42	0.009516	-0.007808	1.010648	0.3645	0.063	0.084	0	2	1031	1
2026-02-11	16:06:29.190	-0.14	0.14	-0.42	0.012444	-0.009272	1.008208	0.369	0.063	0.087	0	2	1031	1
2026-02-11	16:06:29.210	-0.14	0.14	-0.42	0.010492	-0.010492	1.005768	0.369	0.063	0.087	0	2	1031	1
2026-02-11	16:06:29.230	-0.14	0.14	-0.42	0.009516	-0.009028	1.010892	0.36	0.066	0.0855	0	2	1031	1
2026-02-11	16:06:29.250	-0.14	0.105	-0.42	0.008784	-0.008052	1.007964	0.3615	0.0615	0.084	0	2	1031	1
2026-02-11	16:06:29.270	-0.14	0.105	-0.455	0.010004	-0.009272	1.005524	0.3615	0.0615	0.084	0	2	1031	1
2026-02-11	16:06:29.290	-0.14	0.105	-0.49	0.010736	-0.010736	1.00772	0.3585	0.0585	0.087	0	2	1031	1
2026-02-11	16:06:29.310	-0.14	0.105	-0.455	0.012932	-0.011956	1.009428	0.36	0.06	0.084	0	2	1031	1
2026-02-11	16:06:29.330	-0.14	0.105	-0.455	0.010248	-0.010492	1.005768	0.3645	0.0615	0.081	0	2	1031	1
2026-02-11	16:06:29.350	-0.14	0.14	-0.455	0.010004	-0.011956	1.009184	0.366	0.0645	0.0855	0	2	1031	1
2026-02-11	16:06:29.370	-0.175	0.105	-0.455	0.011712	-0.010248	1.009916	0.363	0.063	0.0885	0	2	1031	1
2026-02-11	16:06:29.390	-0.14	0.105	-0.455	0.010004	-0.00854	1.009184	0.366	0.063	0.0885	0	2	1031	1
2026-02-11	16:06:29.410	-0.14	0.105	-0.455	0.01342	-0.00976	1.006988	0.363	0.0615	0.0855	0	2	1031	1
2026-02-11	16:06:29.430	-0.14	0.105	-0.42	0.011712	-0.010248	1.010892	0.3615	0.06	0.0855	0	2	1031	1
2026-02-11	16:06:29.450	-0.14	0.105	-0.455	0.00976	-0.008052	1.00772	0.3615	0.06	0.0855	0	2	1031	1
2026-02-11	16:06:29.470	-0.105	0.14	-0.455	0.012932	-0.013176	1.008696	0.357	0.0585	0.084	0	2	1031	1
2026-02-11	16:06:29.490	-0.14	0.14	-0.455	0.01098	-0.009272	1.006988	0.366	0.057	0.084	0	2	1031	1
2026-02-11	16:06:29.510	-0.14	0.105	-0.455	0.012688	-0.012688	1.011136	0.363	0.069	0.0885	0	2	1031	1
2026-02-11	16:06:29.530	-0.14	0.14	-0.455	0.010736	-0.011712	1.006744	0.372	0.066	0.0825	0	2	1031	1
2026-02-11	16:06:29.550	-0.14	0.105	-0.455	0.01098	-0.010248	1.01016	0.357	0.06	0.087	0	2	1031	1
2026-02-11	16:06:29.570	-0.14	0.105	-0.42	0.00732	-0.00976	1.01016	0.369	0.0585	0.0825	0	2	1031	1
2026-02-11	16:06:29.590	-0.105	0.14	-0.455	0.010004	-0.00732	1.00894	0.357	0.0705	0.0825	0	2	1031	1
2026-02-11	16:06:29.610	-0.105	0.14	-0.455	0.01342	-0.010736	1.006744	0.369	0.0645	0.084	0	2	1031	1
2026-02-11	16:06:29.630	-0.14	0.105	-0.49	0.010004	-0.009028	1.00528	0.366	0.0705	0.0885	0	2	1031	1
2026-02-11	16:06:29.650	-0.175	0.105	-0.455	0.00854	-0.009272	1.009672	0.369	0.0645	0.0915	0	2	1031	1
2026-02-11	16:06:29.670	-0.175	0.105	-0.455	0.00732	-0.011224	1.008452	0.3705	0.063	0.0825	0	2	1031	1
2026-02-11	16:06:29.690	-0.105	0.105	-0.455	0.010004	-0.01342	1.007964	0.3645	0.0645	0.09	0	2	1031	1
2026-02-11	16:06:29.710	-0.105	0.14	-0.42	0.010492	-0.014396	1.008208	0.3675	0.0615	0.087	0	2	1031	1
2026-02-11	16:06:29.730	-0.14	0.105	-0.455	0.010736	-0.010736	1.006988	0.363	0.063	0.093	0	2	1031	1
2026-02-11	16:06:29.750	-0.175	0.105	-0.455	0.007564	-0.011712	1.009428	0.3615	0.06	0.0885	0	2	1031	1
2026-02-11	16:06:29.770	-0.14	0.14	-0.455	0.011468	-0.009272	1.008452	0.3615	0.0615	0.0855	0	2	1031	1
2026-02-11	16:06:29.790	-0.105	0.14	-0.455	0.00732	-0.012688	1.006256	0.3615	0.0675	0.09	0	2	1031	1
2026-02-11	16:06:29.810	-0.14	0.105	-0.42	0.00854	-0.010248	1.01016	0.3585	0.069	0.09	0	2	1031	1
2026-02-11	16:06:29.830	-0.14	0.105	-0.455	0.007808	-0.010492	1.007964	0.36	0.066	0.0885	0	2	1031	1
2026-02-11	16:06:29.850	-0.14	0.14	-0.455	0.007564	-0.009272	1.008696	0.3615	0.0615	0.0855	0	2	1031	1
2026-02-11	16:06:29.870	-0.175	0.105	-0.42	0.0122	-0.009028	1.010892	0.36	0.0585	0.087	0	2	1031	1
2026-02-11	16:06:29.890	-0.14	0.105	-0.42	0.010492	-0.010492	1.006988	0.36	0.06	0.0915	0	2	1031	1
2026-02-11	16:06:29.910	-0.14	0.14	-0.455	0.00976	-0.010492	1.009428	0.36	0.06	0.0915	0	2	1031	1
2026-02-11	16:06:29.930	-0.105	0.14	-0.455	0.013176	-0.012444	1.009428	0.363	0.0615	0.0855	0	2	1031	1
2026-02-11	16:06:29.950	-0.105	0.105	-0.455	0.00854	-0.010736	1.00772	0.357	0.063	0.084	0	2	1031	1
2026-02-11	16:06:29.970	-0.105	0.14	-0.42	0.010736	-0.009028	1.0065	0.3645	0.057	0.09	0	2	1031	1
2026-02-11	16:06:29.990	-0.175	0.105	-0.455	0.010004	-0.009516	1.00772	0.3765	0.066	0.09	0	2	1031	1
2026-02-11	16:06:30.010	-0.14	0.105	-0.455	0.011956	-0.008784	1.009672	0.3675	0.0585	0.087	0	2	1031	1
2026-02-11	16:06:30.030	-0.105	0.105	-0.455	0.011956	-0.011224	1.007232	0.36	0.0585	0.087	0	2	1031	1
2026-02-11	16:06:30.050	-0.105	0.105	-0.49	0.010492	-0.011468	1.003084	0.3615	0.06	0.084	0	2	1031	1
2026-02-11	16:06:30.070	-0.14	0.105	-0.49	0.00976	-0.010736	1.010404	0.3645	0.0615	0.0825	0	2	1031	1
2026-02-11	16:06:30.090	-0.175	0.105	-0.455	0.00854	-0.015372	1.00894	0.3645	0.063	0.0885	0	2	1031	1
2026-02-11	16:06:30.110	-0.105	0.105	-0.49	0.009028	-0.007564	1.005036	0.363	0.066	0.093	0	2	1031	1
2026-02-11	16:06:30.130	-0.14	0.07	-0.455	0.011956	-0.007076	1.004548	0.366	0.0705	0.087	0	2	1031	1
2026-02-11	16:06:30.150	-0.175	0.105	-0.42	0.013176	-0.01098	1.007232	0.3645	0.069	0.0855	0	2	1031	1
2026-02-11	16:06:30.170	-0.14	0.105	-0.455	0.013908	-0.010248	1.012356	0.363	0.066	0.0885	0	2	1031	1
2026-02-11	16:06:30.190	-0.14	0.105	-0.455	0.010004	-0.010248	1.009916	0.3615	0.063	0.0855	0	2	1031	1
2026-02-11	16:06:30.210	-0.105	0.105	-0.455	0.011468	-0.011224	1.006988	0.36	0.0615	0.0825	0	2	1031	1
2026-02-11	16:06:30.230	-0.14	0.105	-0.42	0.013908	-0.010248	1.010648	0.3615	0.0615	0.0855	0	2	1031	1
2026-02-11	16:06:30.250	-0.14	0.105	-0.42	0.008296	-0.008296	1.00894	0.3585	0.0645	0.0915	0	2	1031	1
2026-02-11	16:06:30.270	-0.14	0.105	-0.455	0.010736	-0.010492	1.008208	0.3555	0.0645	0.0945	0	2	1031	1
2026-02-11	16:06:30.290	-0.175	0.14	-0.455	0.010248	-0.013176	1.01016	0.3555	0.0645	0.0945	0	2	1031	1
2026-02-11	16:06:30.310	-0.14	0.14	-0.455	0.012688	-0.00976	1.00772	0.3645	0.057	0.087	0	2	1031	1
2026-02-11	16:06:30.330	-0.14	0.105	-0.455	0.007808	-0.010248	1.006744	0.363	0.057	0.0855	0	2	1031	1
2026-02-11	16:06:30.350	-0.175	0.105	-0.455	0.01098	-0.009272	1.008696	0.3585	0.0585	0.087	0	2	1031	1
2026-02-11	16:06:30.370	-0.14	0.105	-0.455	0.009272	-0.009028	1.008208	0.3675	0.066	0.09	0	2	1031	1
2026-02-11	16:06:30.390	-0.14	0.105	-0.455	0.008784	-0.012932	1.006988	0.36	0.0675	0.093	0	2	1031	1
2026-02-11	16:06:30.410	-0.14	0.105	-0.455	0.011468	-0.009516	1.00772	0.363	0.0705	0.0855	0	2	1031	1
2026-02-11	16:06:30.430	-0.105	0.105	-0.455	0.009516	-0.01342	1.005768	0.3735	0.0585	0.0885	0	2	1031	1
2026-02-11	16:06:30.450	-0.105	0.105	-0.455	0.007808	-0.011224	1.008696	0.3615	0.0585	0.0885	0	2	1031	1
2026-02-11	16:06:30.470	-0.14	0.105	-0.49	0.013176	-0.012688	1.00772	0.3615	0.063	0.0915	0	2	1031	1
2026-02-11	16:06:30.490	-0.14	0.105	-0.455	0.012932	-0.009272	1.011868	0.36	0.0585	0.087	0	2	1031	1
2026-02-11	16:06:30.510	-0.14	0.14	-0.49	0.01098	-0.011224	1.007232	0.3675	0.054	0.087	0	2	1031	1
2026-02-11	16:06:30.530	-0.14	0.105	-0.455	0.010248	-0.010492	1.0065	0.372	0.066	0.084	0	2	1031	1
2026-02-11	16:06:30.550	-0.175	0.105	-0.455	0.011712	-0.010004	1.007476	0.372	0.066	0.084	0	2	1031	1
2026-02-11	16:06:30.570	-0.14	0.105	-0.42	0.005124	-0.011956	1.011624	0.3645	0.051	0.0915	0	2	1031	1
2026-02-11	16:06:30.590	-0.14	0.105	-0.455	0.010492	-0.00732	1.008208	0.36	0.06	0.087	0	2	1031	1
2026-02-11	16:06:30.610	-0.14	0.105	-0.455	0.01098	-0.010492	1.007476	0.3645	0.06	0.096	0	2	1031	1
2026-02-11	16:06:30.630	-0.14	0.105	-0.455	0.012688	-0.009516	1.009916	0.366	0.0615	0.084	0	2	1031	1
2026-02-11	16:06:30.650	-0.14	0.105	-0.455	0.013176	-0.010248	1.007476	0.369	0.057	0.0915	0	2	1031	1
2026-02-11	16:06:30.670	-0.14	0.14	-0.455	0.010492	-0.011224	1.006012	0.363	0.057	0.0885	0	2	1031	1
2026-02-11	16:06:30.690	-0.105	0.14	-0.455	0.01464	-0.012444	1.007476	0.3495	0.0615	0.093	0	2	1031	1
2026-02-11	16:06:30.710	-0.14	0.14	-0.455	0.011956	-0.011468	1.010404	0.3675	0.0555	0.09	0	2	1031	1
2026-02-11	16:06:30.730	-0.105	0.14	-0.455	0.011956	-0.007808	1.008452	0.36	0.0675	0.09	0	2	1031	1
2026-02-11	16:06:30.750	-0.14	0.105	-0.49	0.011712	-0.01098	1.00772	0.3645	0.0645	0.0885	0	2	1031	1
2026-02-11	16:06:30.770	-0.14	0.105	-0.49	0.008296	-0.011712	1.00772	0.3585	0.0585	0.0825	0	2	1031	1
2026-02-11	16:06:30.790	-0.14	0.105	-0.455	0.012932	-0.010004	1.006744	0.3555	0.06	0.09	0	2	1031	1
2026-02-11	16:06:30.810	-0.14	0.14	-0.455	0.01342	-0.010736	1.00894	0.3585	0.0675	0.081	0	2	1031	1
2026-02-11	16:06:30.830	-0.14	0.14	-0.455	0.012444	-0.009272	1.011624	0.3615	0.0645	0.0825	0	2	1031	1
2026-02-11	16:06:30.850	-0.105	0.105	-0.455	0.01098	-0.010248	1.010404	0.363	0.0645	0.0855	0	2	1031	1
2026-02-11	16:06:30.870	-0.14	0.105	-0.455	0.010004	-0.010248	1.010404	0.357	0.0645	0.0855	0	2	1031	1
2026-02-11	16:06:30.890	-0.14	0.105	-0.455	0.010004	-0.010248	1.009428	0.357	0.063	0.0885	0	2	1031	1
2026-02-11	16:06:30.910	-0.14	0.105	-0.455	0.01098	-0.011468	1.003328	0.3615	0.0645	0.087	0	2	1031	1
2026-02-11	16:06:30.930	-0.14	0.105	-0.42	0.00976	-0.006832	1.009428	0.3645	0.0675	0.084	0	2	1031	1
2026-02-11	16:06:30.950	-0.14	0.105	-0.49	0.010492	-0.008052	1.007964	0.3645	0.06	0.0885	0	2	1031	1
2026-02-11	16:06:30.970	-0.14	0.105	-0.49	0.00976	-0.009272	1.008208	0.3615	0.057	0.0885	0	2	1031	1
2026-02-11	16:06:30.990	-0.14	0.105	-0.455	0.01098	-0.00976	1.006256	0.36	0.063	0.087	0	2	1031	1
2026-02-11	16:06:31.010	-0.105	0.105	-0.455	0.013908	-0.011712	1.008452	0.3585	0.06	0.0885	0	2	1031	1
2026-02-11	16:06:31.030	-0.14	0.105	-0.455	0.013664	-0.010492	1.012356	0.36	0.0615	0.0885	0	2	1031	1
2026-02-11	16:06:31.050	-0.105	0.07	-0.455	0.00976	-0.011468	1.009184	0.3645	0.0675	0.09	0	2	1031	1
2026-02-11	16:06:31.070	-0.105	0.105	-0.42	0.012688	-0.010492	1.008208	0.3645	0.0645	0.087	0	2	1031	1
2026-02-11	16:06:31.090	-0.105	0.14	-0.455	0.009028	-0.00976	1.008452	0.363	0.063	0.084	0	2	1031	1
2026-02-11	16:06:31.110	-0.105	0.105	-0.455	0.010004	-0.009028	1.01138	0.3675	0.0645	0.087	0	2	1031	1
2026-02-11	16:06:31.130	-0.105	0.14	-0.455	0.009516	-0.010736	1.007476	0.3705	0.0585	0.093	0	2	1031	1
2026-02-11	16:06:31.150	-0.07	0.14	-0.455	0.009516	-0.010248	1.007964	0.369	0.06	0.0915	0	2	1031	1
2026-02-11	16:06:31.170	-0.105	0.14	-0.455	0.013176	-0.0122	1.011868	0.3645	0.063	0.087	0	2	1031	1
2026-02-11	16:06:31.190	-0.07	0.14	-0.455	0.010492	-0.01098	1.009672	0.3555	0.0645	0.087	0	2	1031	1
2026-02-11	16:06:31.210	-0.035	0.14	-0.49	0.010248	-0.012444	1.005036	0.3555	0.0645	0.084	0	2	1031	1
2026-02-11	16:06:31.230	-0.07	0.175	-0.455	0.009516	-0.008784	1.004304	0.3615	0.063	0.0825	0	2	1031	1
2026-02-11	16:06:31.250	-0.105	0.14	-0.455	0.011712	-0.009516	1.005524	0.3615	0.0615	0.0915	0	2	1031	1
2026-02-11	16:06:31.270	-0.14	0.105	-0.455	0.00976	-0.008052	1.008452	0.363	0.0645	0.09	0	2	1031	1
2026-02-11	16:06:31.290	-0.105	0.14	-0.455	0.010492	-0.011712	1.005036	0.366	0.063	0.087	0	2	1031	1
2026-02-11	16:06:31.310	-0.14	0.14	-0.42	0.010736	-0.010248	1.009184	0.363	0.0645	0.084	0	2	1031	1
2026-02-11	16:06:31.330	-0.105	0.14	-0.455	0.011224	-0.010004	1.007476	0.3615	0.069	0.0855	0	2	1031	1
2026-02-11	16:06:31.350	-0.14	0.105	-0.455	0.010736	-0.010492	1.008208	0.363	0.0705	0.09	0	2	1031	1
2026-02-11	16:06:31.370	-0.175	0.14	-0.49	0.008784	-0.00854	1.0065	0.3645	0.0585	0.0945	0	2	1031	1
2026-02-11	16:06:31.390	-0.14	0.14	-0.455	0.008296	-0.007076	1.009428	0.36	0.063	0.087	0	2	1031	1
2026-02-11	16:06:31.410	-0.14	0.105	-0.455	0.0122	-0.010248	1.008208	0.363	0.054	0.087	0	2	1031	1
2026-02-11	16:06:31.430	-0.14	0.105	-0.455	0.01098	-0.010004	1.006744	0.363	0.0615	0.0885	0	2	1031	1
2026-02-11	16:06:31.450	-0.14	0.105	-0.42	0.010492	-0.009272	1.008696	0.3615	0.063	0.0915	0	2	1031	1
2026-02-11	16:06:31.470	-0.105	0.105	-0.42	0.011468	-0.010492	1.010892	0.3585	0.063	0.0975	0	2	1031	1
2026-02-11	16:06:31.490	-0.105	0.105	-0.455	0.008052	-0.010492	1.00894	0.369	0.06	0.084	0	2	1031	1
2026-02-11	16:06:31.510	-0.105	0.14	-0.49	0.010248	-0.01464	1.007964	0.36	0.06	0.0855	0	2	1031	1
2026-02-11	16:06:31.530	-0.14	0.105	-0.455	0.007808	-0.006832	1.005524	0.36	0.057	0.087	0	2	1031	1
2026-02-11	16:06:31.550	-0.14	0.105	-0.455	0.010248	-0.008052	1.010404	0.3585	0.063	0.0945	0	2	1031	1
2026-02-11	16:06:31.570	-0.175	0.105	-0.42	0.012932	-0.008296	1.006012	0.3585	0.06	0.0885	0	2	1031	1
2026-02-11	16:06:31.590	-0.175	0.14	-0.455	0.011956	-0.011468	1.011136	0.3615	0.0585	0.084	0	2	1031	1
2026-02-11	16:06:31.610	-0.105	0.105	-0.455	0.009272	-0.010004	1.007476	0.3645	0.06	0.084	0	2	1031	1
2026-02-11	16:06:31.630	-0.105	0.105	-0.455	0.008296	-0.010736	1.002108	0.3615	0.057	0.084	0	2	1031	1
2026-02-11	16:06:31.650	-0.245	0.07	-0.455	0.010248	-0.00854	1.005036	0.3555	0.057	0.087	0	2	1031	1
2026-02-11	16:06:31.670	-0.245	0.07	-0.42	0.012688	-0.010004	1.019432	0.3525	0.0585	0.0915	0	2	1031	1
2026-02-11	16:06:31.690	-0.105	0.105	-0.455	0.010248	-0.017812	1.007232	0.354	0.057	0.096	0	2	1031	1
2026-02-11	16:06:31.710	-0.105	0.105	-0.455	0.0122	-0.012932	1.008696	0.3585	0.0615	0.093	0	2	1031	1
2026-02-11	16:06:31.730	-0.07	0.14	-0.455	0.012444	-0.006588	1.007232	0.3555	0.066	0.0915	0	2	1031	1
2026-02-11	16:06:31.750	-0.105	0.14	-0.455	0.007564	-0.011956	1.010404	0.351	0.063	0.093	0	2	1031	1
2026-02-11	16:06:31.770	-0.07	0.14	-0.455	0.011468	-0.010492	1.002596	0.3525	0.063	0.0915	0	2	1031	1
2026-02-11	16:06:31.790	-0.175	0.105	-0.42	0.012444	-0.009516	1.006744	0.3615	0.063	0.093	0	2	1031	1
2026-02-11	16:06:31.810	-0.14	0.105	-0.455	0.009028	-0.010248	1.009672	0.3555	0.063	0.087	0	2	1031	1
2026-02-11	16:06:31.830	-0.14	0.105	-0.455	0.010004	-0.008052	1.006988	0.357	0.06	0.0885	0	2	1031	1
2026-02-11	16:06:31.850	-0.14	0.14	-0.455	0.012688	-0.010736	1.00772	0.357	0.057	0.087	0	2	1031	1
2026-02-11	16:06:31.870	-0.175	0.105	-0.42	0.011956	-0.011224	1.0126	0.357	0.0675	0.0945	0	2	1031	1
2026-02-11	16:06:31.890	-0.14	0.105	-0.42	0.011956	-0.012932	1.007476	0.357	0.0675	0.0945	0	2	1031	1
2026-02-11	16:06:31.910	-0.105	0.14	-0.42	0.011712	-0.011224	1.0065	0.3585	0.0675	0.0915	0	2	1031	1
2026-02-11	16:06:31.930	-0.14	0.14	-0.455	0.009272	-0.008052	1.005768	0.3615	0.066	0.09	0	2	1031	1
2026-02-11	16:06:31.950	-0.14	0.14	-0.42	0.00854	-0.01098	1.00894	0.36	0.063	0.0915	0	2	1031	1
2026-02-11	16:06:31.970	-0.175	0.14	-0.455	0.01098	-0.010492	1.008696	0.3585	0.0615	0.0885	0	2	1031	1
2026-02-11	16:06:31.990	-0.14	0.14	-0.455	0.00976	-0.0122	1.007476	0.36	0.063	0.0885	0	2	1031	1
2026-02-11	16:06:32.010	-0.14	0.14	-0.455	0.009516	-0.011712	1.00894	0.363	0.0645	0.09	0	2	1031	1
2026-02-11	16:06:32.030	-0.14	0.14	-0.49	0.008296	-0.010492	1.006256	0.3615	0.0615	0.087	0	2	1031	1
2026-02-11	16:06:32.050	-0.175	0.14	-0.49	0.009028	-0.009028	1.007232	0.36	0.0585	0.0885	0	2	1031	1
2026-02-11	16:06:32.070	-0.175	0.07	-0.455	0.010004	-0.011712	1.00894	0.3645	0.054	0.096	0	2	1031	1
2026-02-11	16:06:32.090	-0.14	0.105	-0.455	0.012444	-0.00976	1.005768	0.3615	0.057	0.0975	0	2	1031	1
2026-02-11	16:06:32.110	-0.105	0.105	-0.42	0.009272	-0.012444	1.010648	0.36	0.0645	0.09	0	2	1031	1
2026-02-11	16:06:32.130	-0.14	0.105	-0.42	0.00976	-0.00854	1.004792	0.3615	0.0615	0.0855	0	2	1031	1
2026-02-11	16:06:32.150	-0.175	0.105	-0.455	0.007808	-0.010492	1.009184	0.36	0.0555	0.087	0	2	1031	1
2026-02-11	16:06:32.170	-0.14	0.105	-0.455	0.011224	-0.013664	1.006256	0.36	0.0555	0.087	0	2	1031	1
2026-02-11	16:06:32.190	-0.175	0.105	-0.455	0.011468	-0.011712	1.009184	0.363	0.0555	0.099	0	2	1031	1
2026-02-11	16:06:32.210	-0.105	0.105	-0.455	0.012444	-0.011468	1.006012	0.354	0.0645	0.093	0	2	1031	1
2026-02-11	16:06:32.230	-0.105	0.105	-0.42	0.008052	-0.0122	1.006012	0.3615	0.0645	0.0885	0	2	1031	1
2026-02-11	16:06:32.250	-0.105	0.14	-0.455	0.010736	-0.008784	1.00528	0.36	0.0615	0.0945	0	2	1031	1
2026-02-11	16:06:32.270	-0.175	0.14	-0.49	0.00976	-0.011224	1.008452	0.354	0.0615	0.09	0	2	1031	1
2026-02-11	16:06:32.290	-0.105	0.105	-0.42	0.00976	-0.011224	1.00772	0.3555	0.069	0.09	0	2	1031	1
2026-02-11	16:06:32.310	-0.14	0.105	-0.42	0.010248	-0.010004	1.007476	0.357	0.054	0.0945	0	2	1031	1
2026-02-11	16:06:32.330	-0.14	0.14	-0.42	0.010248	-0.008052	1.008696	0.357	0.0615	0.093	0	2	1031	1
2026-02-11	16:06:32.350	-0.175	0.105	-0.49	0.009272	-0.011956	1.009184	0.363	0.0615	0.0915	0	2	1031	1
2026-02-11	16:06:32.370	-0.14	0.14	-0.455	0.010492	-0.00976	1.0065	0.3555	0.06	0.087	0	2	1031	1
2026-02-11	16:06:32.390	-0.14	0.105	-0.455	0.00976	-0.009028	1.006744	0.3585	0.0705	0.09	0	2	1031	1
2026-02-11	16:06:32.410	-0.105	0.105	-0.455	0.011224	-0.011712	1.008208	0.3585	0.066	0.0885	0	2	1031	1
2026-02-11	16:06:32.430	-0.175	0.105	-0.455	0.011712	-0.010004	1.013088	0.36	0.0615	0.087	0	2	1031	1
2026-02-11	16:06:32.450	-0.14	0.14	-0.455	0.01098	-0.011468	1.00894	0.3555	0.0675	0.093	0	2	1031	1
2026-02-11	16:06:32.470	-0.105	0.14	-0.455	0.011468	-0.009516	1.00772	0.36	0.0645	0.096	0	2	1031	1
2026-02-11	16:06:32.490	-0.14	0.14	-0.455	0.009028	-0.009272	1.007476	0.357	0.06	0.096	0	2	1031	1
2026-02-11	16:06:32.510	-0.14	0.105	-0.455	0.007076	-0.010004	1.010892	0.363	0.0555	0.0915	0	2	1031	1
2026-02-11	16:06:32.530	-0.14	0.14	-0.455	0.010736	-0.011224	1.00894	0.357	0.066	0.096	0	2	1031	1
2026-02-11	16:06:32.550	-0.14	0.105	-0.49	0.012444	-0.011956	1.009916	0.3585	0.0645	0.093	0	2	1031	1
2026-02-11	16:06:32.570	-0.175	0.14	-0.49	0.011956	-0.008784	1.007964	0.3645	0.0675	0.0975	0	2	1031	1
2026-02-11	16:06:32.590	-0.14	0.105	-0.455	0.010248	-0.01098	1.007964	0.351	0.06	0.09	0	2	1031	1
2026-02-11	16:06:32.610	-0.14	0.105	-0.42	0.010492	-0.011956	1.004792	0.3525	0.06	0.09	0	2	1031	1
2026-02-11	16:06:32.630	-0.175	0.14	-0.42	0.00976	-0.008296	1.006256	0.357	0.0675	0.096	0	2	1031	1
2026-02-11	16:06:32.650	-0.14	0.105	-0.455	0.01098	-0.01098	1.00772	0.36	0.0555	0.093	0	2	1031	1
2026-02-11	16:06:32.670	-0.14	0.14	-0.42	0.0122	-0.012688	1.010648	0.3585	0.0615	0.093	0	2	1031	1
2026-02-11	16:06:32.690	-0.105	0.105	-0.455	0.010492	-0.010248	1.003084	0.366	0.063	0.09	0	2	1031	1
2026-02-11	16:06:32.710	-0.175	0.105	-0.455	0.01098	-0.010248	1.007476	0.3615	0.0615	0.0915	0	2	1031	1
2026-02-11	16:06:32.730	-0.14	0.105	-0.455	0.00976	-0.010248	1.01138	0.3615	0.06	0.093	0	2	1031	1
2026-02-11	16:06:32.750	-0.105	0.14	-0.42	0.011956	-0.010004	1.005524	0.3585	0.06	0.093	0	2	1031	1
2026-02-11	16:06:32.770	-0.14	0.105	-0.455	0.0122	-0.014884	1.007964	0.3555	0.0615	0.09	0	2	1031	1
2026-02-11	16:06:32.790	-0.14	0.14	-0.49	0.010004	-0.010736	1.013576	0.3585	0.0645	0.0885	0	2	1031	1
2026-02-11	16:06:32.810	-0.105	0.14	-0.455	0.009028	-0.011224	1.006012	0.3615	0.066	0.087	0	2	1031	1
2026-02-11	16:06:32.830	-0.14	0.14	-0.42	0.011468	-0.011224	1.009428	0.3645	0.063	0.09	0	2	1031	1
2026-02-11	16:06:32.850	-0.14	0.105	-0.42	0.0122	-0.013908	1.007964	0.3675	0.0615	0.096	0	2	1031	1
2026-02-11	16:06:32.870	-0.105	0.105	-0.455	0.011468	-0.00976	1.008208	0.363	0.063	0.0885	0	2	1031	1
2026-02-11	16:06:32.890	-0.14	0.14	-0.455	0.011468	-0.008296	1.006256	0.36	0.0645	0.0825	0	2	1031	1
2026-02-11	16:06:32.910	-0.14	0.14	-0.49	0.010248	-0.013664	1.011624	0.363	0.063	0.0855	0	2	1031	1
2026-02-11	16:06:32.930	-0.105	0.14	-0.455	0.013664	-0.01098	1.008696	0.366	0.0615	0.084	0	2	1031	1
2026-02-11	16:06:32.950	-0.105	0.105	-0.455	0.00976	-0.010004	1.006256	0.366	0.0615	0.081	0	2	1031	1
2026-02-11	16:06:32.970	-0.175	0.14	-0.42	0.009028	-0.00976	1.007232	0.3645	0.0615	0.081	0	2	1031	1
2026-02-11	16:06:32.990	-0.175	0.105	-0.455	0.011224	-0.009516	1.009428	0.3645	0.0795	0.084	0	2	1031	1
2026-02-11	16:06:33.010	-0.14	0.105	-0.42	0.010736	-0.007808	1.008452	0.369	0.063	0.081	0	2	1031	1
2026-02-11	16:06:33.030	-0.14	0.105	-0.455	0.008784	-0.007564	1.008696	0.369	0.066	0.081	0	2	1031	1
2026-02-11	16:06:33.050	-0.105	0.14	-0.385	0.007808	-0.00732	1.00772	0.3675	0.0675	0.081	0	2	1031	1
2026-02-11	16:06:33.070	-0.105	0.07	-0.455	0.013664	-0.011956	1.005768	0.3705	0.063	0.084	0	2	1031	1
2026-02-11	16:06:33.090	-0.14	0.105	-0.455	0.010004	-0.00976	1.009184	0.369	0.063	0.087	0	2	1031	1
2026-02-11	16:06:33.110	-0.175	0.105	-0.49	0.00854	-0.00976	1.008696	0.3615	0.0675	0.084	0	2	1031	1
2026-02-11	16:06:33.130	-0.175	0.105	-0.42	0.009272	-0.010736	1.005524	0.3615	0.0615	0.081	0	2	1031	1
2026-02-11	16:06:33.150	-0.14	0.105	-0.455	0.011224	-0.01098	1.00406	0.3615	0.06	0.084	0	2	1031	1
2026-02-11	16:06:33.170	-0.105	0.14	-0.42	0.011224	-0.011224	1.007476	0.36	0.0675	0.087	0	2	1031	1
2026-02-11	16:06:33.190	-0.14	0.105	-0.42	0.010004	-0.011468	1.009184	0.3615	0.066	0.0885	0	2	1031	1
2026-02-11	16:06:33.210	-0.14	0.105	-0.42	0.013908	-0.010248	1.008452	0.363	0.057	0.0915	0	2	1031	1
2026-02-11	16:06:33.230	-0.14	0.105	-0.455	0.00976	-0.011712	1.009428	0.3615	0.0495	0.0915	0	2	1031	1
2026-02-11	16:06:33.250	-0.14	0.105	-0.455	0.011224	-0.009028	1.006744	0.3645	0.069	0.084	0	2	1031	1
2026-02-11	16:06:33.270	-0.14	0.14	-0.455	0.009516	-0.010736	1.009672	0.366	0.0615	0.0885	0	2	1031	1
2026-02-11	16:06:33.290	-0.14	0.14	-0.42	0.010248	-0.012444	1.007232	0.357	0.063	0.084	0	2	1031	1
2026-02-11	16:06:33.310	-0.14	0.105	-0.42	0.00854	-0.011956	1.006744	0.3675	0.0645	0.0855	0	2	1031	1
2026-02-11	16:06:33.330	-0.14	0.105	-0.455	0.008296	-0.009272	1.01138	0.3615	0.06	0.0885	0	2	1031	1
2026-02-11	16:06:33.350	-0.14	0.14	-0.455	0.011224	-0.009516	1.008452	0.36	0.0705	0.0915	0	2	1031	1
2026-02-11	16:06:33.370	-0.14	0.14	-0.455	0.010004	-0.011956	1.007964	0.3525	0.066	0.081	0	2	1031	1
2026-02-11	16:06:33.390	-0.14	0.105	-0.42	0.008052	-0.012932	1.006012	0.36	0.0615	0.0915	0	2	1031	1
2026-02-11	16:06:33.410	-0.14	0.105	-0.455	0.009516	-0.012444	1.00894	0.36	0.0645	0.0975	0	2	1031	1
2026-02-11	16:06:33.430	-0.175	0.105	-0.49	0.008296	-0.009272	1.010892	0.3645	0.0585	0.093	0	2	1031	1
2026-02-11	16:06:33.450	-0.14	0.105	-0.455	0.011956	-0.01342	1.008208	0.3555	0.0615	0.0945	0	2	1031	1
2026-02-11	16:06:33.470	-0.175	0.14	-0.42	0.010736	-0.007564	1.00894	0.354	0.0615	0.099	0	2	1031	1
2026-02-11	16:06:33.490	-0.14	0.14	-0.455	0.009272	-0.008784	1.007232	0.3555	0.0555	0.0915	0	2	1031	1
2026-02-11	16:06:33.510	-0.175	0.14	-0.455	0.01098	-0.011468	1.00772	0.36	0.0615	0.0915	0	2	1031	1
2026-02-11	16:06:33.530	-0.14	0.105	-0.49	0.01342	-0.00976	1.006744	0.363	0.066	0.09	0	2	1031	1
2026-02-11	16:06:33.550	-0.105	0.105	-0.455	0.011468	-0.010492	1.006988	0.36	0.0585	0.087	0	2	1031	1
2026-02-11	16:06:33.570	-0.14	0.105	-0.455	0.00976	-0.010004	1.007964	0.3615	0.057	0.087	0	2	1031	1
2026-02-11	16:06:33.590	-0.14	0.105	-0.455	0.009272	-0.007564	1.005524	0.357	0.063	0.09	0	2	1031	1
2026-02-11	16:06:33.610	-0.105	0.105	-0.455	0.01342	-0.00854	1.008208	0.3525	0.0645	0.0885	0	2	1031	1
2026-02-11	16:06:33.630	-0.105	0.105	-0.42	0.011956	-0.011956	1.01138	0.354	0.066	0.087	0	2	1031	1
2026-02-11	16:06:33.650	-0.105	0.105	-0.455	0.009028	-0.010248	1.009672	0.351	0.054	0.0885	0	2	1031	1
2026-02-11	16:06:33.670	-0.105	0.14	-0.455	0.010004	-0.010492	1.007232	0.357	0.0615	0.096	0	2	1031	1
2026-02-11	16:06:33.690	-0.14	0.105	-0.455	0.009516	-0.006588	1.006744	0.36	0.0675	0.09	0	2	1031	1
2026-02-11	16:06:33.710	-0.14	0.105	-0.455	0.008052	-0.010492	1.007964	0.357	0.0645	0.0885	0	2	1031	1
2026-02-11	16:06:33.730	-0.175	0.105	-0.455	0.010248	-0.011468	1.009672	0.3615	0.0585	0.0855	0	2	1031	1
2026-02-11	16:06:33.750	-0.14	0.105	-0.455	0.010248	-0.009516	1.008208	0.3645	0.063	0.09	0	2	1031	1
2026-02-11	16:06:33.770	-0.14	0.14	-0.455	0.010248	-0.012444	1.006012	0.3645	0.063	0.09	0	2	1031	1
2026-02-11	16:06:33.790	-0.14	0.14	-0.455	0.011712	-0.011468	1.007964	0.3615	0.06	0.087	0	2	1031	1
2026-02-11	16:06:33.810	-0.105	0.105	-0.455	0.010248	-0.008296	1.009672	0.3585	0.0645	0.084	0	2	1031	1
2026-02-11	16:06:33.830	-0.105	0.14	-0.455	0.008784	-0.010492	1.007476	0.357	0.0705	0.087	0	2	1031	1
2026-02-11	16:06:33.850	-0.105	0.105	-0.455	0.010492	-0.010736	1.008452	0.36	0.066	0.0885	0	2	1031	1
2026-02-11	16:06:33.870	-0.14	0.105	-0.455	0.014152	-0.012688	1.006744	0.366	0.06	0.0915	0	2	1031	1
2026-02-11	16:06:33.890	-0.14	0.105	-0.455	0.010736	-0.012688	1.01138	0.3615	0.063	0.0915	0	2	1031	1
2026-02-11	16:06:33.910	-0.105	0.14	-0.42	0.00976	-0.009516	1.009184	0.3585	0.069	0.0885	0	2	1031	1
2026-02-11	16:06:33.930	-0.105	0.105	-0.42	0.011712	-0.01098	1.009184	0.363	0.066	0.09	0	2	1031	1
2026-02-11	16:06:33.950	-0.14	0.105	-0.42	0.013664	-0.012688	1.008696	0.36	0.0645	0.0885	0	2	1031	1
2026-02-11	16:06:33.970	-0.105	0.175	-0.455	0.0122	-0.008296	1.009184	0.357	0.063	0.087	0	2	1031	1
2026-02-11	16:06:33.990	-0.105	0.14	-0.455	0.011224	-0.008296	1.004548	0.3615	0.06	0.0915	0	2	1031	1
2026-02-11	16:06:34.010	-0.14	0.14	-0.49	0.012444	-0.00732	1.006988	0.3645	0.0585	0.096	0	2	1031	1
2026-02-11	16:06:34.030	-0.105	0.105	-0.455	0.0122	-0.011468	1.009184	0.3645	0.0585	0.096	0	2	1031	1
2026-02-11	16:06:34.050	-0.14	0.105	-0.455	0.009028	-0.010736	1.009184	0.36	0.066	0.093	0	2	1031	1
2026-02-11	16:06:34.070	-0.105	0.105	-0.455	0.012688	-0.008296	1.005036	0.36	0.0585	0.093	0	2	1031	1
2026-02-11	16:06:34.090	-0.14	0.105	-0.455	0.009272	-0.01342	1.006256	0.363	0.06	0.093	0	2	1031	1
2026-02-11	16:06:34.110	-0.175	0.105	-0.455	0.011224	-0.00854	1.008452	0.3615	0.066	0.081	0	2	1031	1
2026-02-11	16:06:34.130	-0.14	0.07	-0.455	0.01342	-0.009272	1.007476	0.3645	0.0525	0.0915	0	2	1031	1
2026-02-11	16:06:34.150	-0.14	0.14	-0.455	0.011468	-0.007808	1.00772	0.366	0.057	0.0915	0	2	1031	1
2026-02-11	16:06:34.170	-0.175	0.14	-0.455	0.010492	-0.00854	1.008452	0.363	0.057	0.0975	0	2	1031	1
2026-02-11	16:06:34.190	-0.175	0.105	-0.455	0.0122	-0.009516	1.010404	0.366	0.0645	0.093	0	2	1031	1
2026-02-11	16:06:34.210	-0.14	0.14	-0.455	0.009272	-0.011224	1.007964	0.36	0.0615	0.0945	0	2	1031	1
2026-02-11	16:06:34.230	-0.175	0.14	-0.455	0.01098	-0.009028	1.005036	0.354	0.054	0.0885	0	2	1031	1
2026-02-11	16:06:34.250	-0.175	0.14	-0.49	0.010736	-0.009516	1.008696	0.357	0.057	0.0915	0	2	1031	1
2026-02-11	16:06:34.270	-0.175	0.14	-0.42	0.01098	-0.011468	1.011624	0.357	0.06	0.0915	0	2	1031	1
2026-02-11	16:06:34.290	-0.105	0.105	-0.455	0.012932	-0.010736	1.006256	0.36	0.0615	0.087	0	2	1031	1
2026-02-11	16:06:34.310	-0.175	0.105	-0.455	0.007076	-0.013176	1.006988	0.363	0.06	0.0825	0	2	1031	1
2026-02-11	16:06:34.330	-0.14	0.14	-0.455	0.008052	-0.011956	1.012112	0.3615	0.0645	0.0915	0	2	1031	1
2026-02-11	16:06:34.350	-0.14	0.105	-0.49	0.0122	-0.00732	1.008452	0.3645	0.06	0.0915	0	2	1031	1
2026-02-11	16:06:34.370	-0.105	0.14	-0.49	0.00976	-0.010004	1.00894	0.3675	0.078	0.087	0	2	1031	1
2026-02-11	16:06:34.390	-0.14	0.105	-0.42	0.009516	-0.011468	1.00772	0.363	0.0645	0.09	0	2	1031	1
2026-02-11	16:06:34.410	-0.14	0.105	-0.49	0.009516	-0.01098	1.007964	0.3675	0.0585	0.09	0	2	1031	1
2026-02-11	16:06:34.430	-0.14	0.105	-0.49	0.010248	-0.011956	1.01138	0.3555	0.06	0.093	0	2	1031	1
2026-02-11	16:06:34.450	-0.14	0.14	-0.42	0.007564	-0.010736	1.01138	0.3645	0.0645	0.0915	0	2	1031	1
2026-02-11	16:06:34.470	-0.14	0.105	-0.49	0.011224	-0.00976	1.006256	0.363	0.063	0.09	0	2	1031	1
2026-02-11	16:06:34.490	-0.105	0.14	-0.42	0.00976	-0.00976	1.00528	0.369	0.0645	0.0885	0	2	1031	1
2026-02-11	16:06:34.510	-0.14	0.14	-0.455	0.010004	-0.009516	1.011868	0.3555	0.0615	0.0885	0	2	1031	1
2026-02-11	16:06:34.530	-0.105	0.14	-0.49	0.010492	-0.009028	1.006744	0.366	0.0675	0.09	0	2	1031	1
2026-02-11	16:06:34.550	-0.105	0.105	-0.42	0.00976	-0.009028	1.008208	0.3615	0.063	0.093	0	2	1031	1
2026-02-11	16:06:34.570	-0.105	0.14	-0.455	0.008296	-0.009028	1.005768	0.3585	0.06	0.09	0	2	1031	1
2026-02-11	16:06:34.590	-0.14	0.105	-0.455	0.009272	-0.009516	1.008696	0.363	0.063	0.09	0	2	1031	1
2026-02-11	16:06:34.610	-0.14	0.14	-0.42	0.010004	-0.010492	1.006988	0.3645	0.0615	0.0915	0	2	1031	1
2026-02-11	16:06:34.630	-0.105	0.14	-0.455	0.010248	-0.011712	1.007964	0.363	0.06	0.0885	0	2	1031	1
2026-02-11	16:06:34.650	-0.105	0.105	-0.42	0.013176	-0.008784	1.007232	0.366	0.0645	0.0885	0	2	1031	1
2026-02-11	16:06:34.670	-0.14	0.14	-0.49	0.010248	-0.011712	1.006744	0.36	0.063	0.09	0	2	1031	1
2026-02-11	16:06:34.690	-0.105	0.14	-0.49	0.007076	-0.00732	1.005524	0.354	0.0585	0.0915	0	2	1031	1
2026-02-11	16:06:34.710	-0.14	0.105	-0.455	0.012444	-0.011712	1.008452	0.3585	0.06	0.0915	0	2	1031	1
2026-02-11	16:06:34.730	-0.14	0.105	-0.455	0.009516	-0.011224	1.010404	0.3615	0.0585	0.0915	0	2	1031	1
2026-02-11	16:06:34.750	-0.175	0.105	-0.455	0.006832	-0.010004	1.007232	0.3615	0.0555	0.096	0	2	1031	1
2026-02-11	16:06:34.770	-0.21	0.105	-0.455	0.012688	-0.010492	1.01138	0.3585	0.0585	0.0975	0	2	1031	1
2026-02-11	16:06:34.790	-0.14	0.14	-0.455	0.010248	-0.00976	1.01016	0.357	0.057	0.096	0	2	1031	1
2026-02-11	16:06:34.810	-0.14	0.14	-0.42	0.01098	-0.011224	1.005524	0.3585	0.057	0.0915	0	2	1031	1
2026-02-11	16:06:34.830	-0.14	0.105	-0.455	0.009028	-0.009516	1.003816	0.3585	0.0615	0.09	0	2	1031	1
2026-02-11	16:06:34.850	-0.14	0.105	-0.455	0.0122	-0.011712	1.008208	0.3615	0.06	0.0915	0	2	1031	1
2026-02-11	16:06:34.870	-0.175	0.14	-0.455	0.014884	-0.012688	1.007476	0.357	0.057	0.09	0	2	1031	1
2026-02-11	16:06:34.890	-0.14	0.105	-0.42	0.009028	-0.013176	1.01138	0.3555	0.06	0.084	0	2	1031	1
2026-02-11	16:06:34.910	-0.105	0.105	-0.455	0.011468	-0.008052	1.006012	0.357	0.063	0.0825	0	2	1031	1
2026-02-11	16:06:34.930	-0.105	0.105	-0.455	0.009516	-0.00854	1.009184	0.3555	0.0645	0.0885	0	2	1031	1
2026-02-11	16:06:34.950	-0.14	0.14	-0.455	0.010492	-0.014152	1.008452	0.354	0.063	0.0885	0	2	1031	1
2026-02-11	16:06:34.970	-0.175	0.105	-0.42	0.010248	-0.009272	1.004304	0.354	0.06	0.09	0	2	1031	1
2026-02-11	16:06:34.990	-0.14	0.14	-0.455	0.009516	-0.010736	1.007964	0.357	0.0645	0.0915	0	2	1031	1
2026-02-11	16:06:35.010	-0.14	0.105	-0.455	0.012932	-0.011468	1.014064	0.357	0.0645	0.0885	0	2	1031	1
2026-02-11	16:06:35.030	-0.07	0.14	-0.455	0.008052	-0.011956	1.002596	0.354	0.0615	0.09	0	2	1031	1
2026-02-11	16:06:35.050	-0.07	0.14	-0.455	0.0122	-0.009272	1.005036	0.351	0.066	0.087	0	2	1031	1
2026-02-11	16:06:35.070	-0.14	0.105	-0.42	0.010736	-0.009272	1.006256	0.354	0.069	0.0885	0	2	1031	1
2026-02-11	16:06:35.090	-0.14	0.14	-0.455	0.00976	-0.009028	1.009428	0.3615	0.0615	0.087	0	2	1031	1
2026-02-11	16:06:35.110	-0.105	0.14	-0.455	0.010248	-0.012932	1.012356	0.366	0.057	0.084	0	2	1031	1
2026-02-11	16:06:35.130	-0.105	0.14	-0.49	0.00976	-0.010492	1.00894	0.3585	0.0615	0.0885	0	2	1031	1
2026-02-11	16:06:35.150	-0.105	0.105	-0.455	0.013664	-0.010248	1.003084	0.3675	0.06	0.087	0	2	1031	1
2026-02-11	16:06:35.170	-0.175	0.07	-0.49	0.009516	-0.01098	1.010892	0.36	0.0615	0.0945	0	2	1031	1
2026-02-11	16:06:35.190	-0.14	0.14	-0.455	0.008296	-0.011956	1.011624	0.3675	0.0615	0.0855	0	2	1031	1
2026-02-11	16:06:35.210	-0.105	0.14	-0.455	0.010492	-0.009272	1.005768	0.3525	0.0675	0.096	0	2	1031	1
2026-02-11	16:06:35.230	-0.105	0.14	-0.42	0.006588	-0.009516	1.003084	0.363	0.0675	0.0885	0	2	1031	1
2026-02-11	16:06:35.250	-0.175	0.105	-0.455	0.011224	-0.010004	1.005524	0.3555	0.063	0.09	0	2	1031	1
